build	computer.platform	date	time	timestamp	time_elapsed_ms	subject	group	session	blockcode	blocknum	trialcode	trialnum	stimulus_left	stimulus_right	stim_index	target_present	response	correct	latency	headphonecheck_countTestTrials	headphonecheck_index	headphonecheck_testSound	headphonecheck_correctResponse	stereocheck_countTestTrials	stereocheck_index	stereocheck_testSound	stereocheck_correctResponse	DL_index	DL_soundfile	DL_leftSound	DL_rightSound	DL_dualSound	DL_choice
6.6.1	win	2023-07-06	22:16:12	0	0	56d7623f04c67d000c7b9de6	2	1	headphonecheck_calibration	4	headphonecheck_calibrationIntro	1			0		calibrationButton	0	3270	0	0			0	0			1				0	
6.6.1	win	2023-07-06	22:16:12	0	0	56d7623f04c67d000c7b9de6	2	1	headphonecheck_testphase	5	test_collectResponse	3			0		first	1	480	1	4	antiphase_hc_sio.wav	1	0	0			1				0	
6.6.1	win	2023-07-06	22:16:12	0	0	56d7623f04c67d000c7b9de6	2	1	headphonecheck_testphase	5	test_collectResponse	6			0		third	1	453	2	6	antiphase_hc_ois.wav	3	0	0			1				0	
6.6.1	win	2023-07-06	22:16:12	0	0	56d7623f04c67d000c7b9de6	2	1	headphonecheck_testphase	5	test_collectResponse	9			0		first	1	341	3	3	antiphase_hc_soi.wav	1	0	0			1				0	
6.6.1	win	2023-07-06	22:16:12	0	0	56d7623f04c67d000c7b9de6	2	1	headphonecheck_testphase	5	test_collectResponse	12			0		third	1	414	4	2	antiphase_hc_ios.wav	3	0	0			1				0	
6.6.1	win	2023-07-06	22:16:12	0	0	56d7623f04c67d000c7b9de6	2	1	headphonecheck_testphase	5	test_collectResponse	15			0		second	1	326	5	5	antiphase_hc_osi.wav	2	0	0			1				0	
6.6.1	win	2023-07-06	22:16:12	0	0	56d7623f04c67d000c7b9de6	2	1	headphonecheck_testphase	5	test_collectResponse	18			0		second	1	336	6	1	antiphase_hc_iso.wav	2	0	0			1				0	
6.6.1	win	2023-07-06	22:16:12	0	0	56d7623f04c67d000c7b9de6	2	1	stereocheck_calibration	7	stereocheck_calibrationIntro	1			0		stereocheck_calibrationButton	0	3470	6	1	antiphase_hc_iso.wav	2	0	0			1				0	
6.6.1	win	2023-07-06	22:16:12	0	0	56d7623f04c67d000c7b9de6	2	1	stereocheck_testphase	8	stereocheck_test_collectResponse	3			0		stereocheck_left	1	400	6	1	antiphase_hc_iso.wav	2	1	2	noise_calib_stim_LEFT.wav	1	1				0	
6.6.1	win	2023-07-06	22:16:12	0	0	56d7623f04c67d000c7b9de6	2	1	stereocheck_testphase	8	stereocheck_test_collectResponse	6			0		stereocheck_left	1	343	6	1	antiphase_hc_iso.wav	2	2	3	noise_calib_stim_LEFT.wav	1	1				0	
6.6.1	win	2023-07-06	22:16:12	0	0	56d7623f04c67d000c7b9de6	2	1	stereocheck_testphase	8	stereocheck_test_collectResponse	9			0		stereocheck_left	1	247	6	1	antiphase_hc_iso.wav	2	3	1	noise_calib_stim_LEFT.wav	1	1				0	
6.6.1	win	2023-07-06	22:16:12	0	0	56d7623f04c67d000c7b9de6	2	1	stereocheck_testphase	8	stereocheck_test_collectResponse	12			0		stereocheck_right	1	384	6	1	antiphase_hc_iso.wav	2	4	6	noise_calib_stim_RIGHT.wav	2	1				0	
6.6.1	win	2023-07-06	22:16:12	0	0	56d7623f04c67d000c7b9de6	2	1	stereocheck_testphase	8	stereocheck_test_collectResponse	15			0		stereocheck_right	1	329	6	1	antiphase_hc_iso.wav	2	5	4	noise_calib_stim_RIGHT.wav	2	1				0	
6.6.1	win	2023-07-06	22:16:12	0	0	56d7623f04c67d000c7b9de6	2	1	stereocheck_testphase	8	stereocheck_test_collectResponse	18			0		stereocheck_right	1	314	6	1	antiphase_hc_iso.wav	2	6	5	noise_calib_stim_RIGHT.wav	2	1				0	
6.6.1	win	2023-07-06	22:16:12	0	0	56d7623f04c67d000c7b9de6	2	1	DL_practice	11	DL_practice	2			0		pa	1	1958	6	1	antiphase_hc_iso.wav	2	6	5	noise_calib_stim_RIGHT.wav	2	29	blb_dichoticlistening_pa-pa.mp3	pa	pa	0	left
6.6.1	win	2023-07-06	22:16:12	0	0	56d7623f04c67d000c7b9de6	2	1	DL_practice	11	DL_practice	3			0		ga	1	1719	6	1	antiphase_hc_iso.wav	2	6	5	noise_calib_stim_RIGHT.wav	2	15	blb_dichoticlistening_ga-ga.mp3	ga	ga	0	left
6.6.1	win	2023-07-06	22:16:12	0	0	56d7623f04c67d000c7b9de6	2	1	DL_practice	11	DL_practice	4			0		ka	1	1527	6	1	antiphase_hc_iso.wav	2	6	5	noise_calib_stim_RIGHT.wav	2	22	blb_dichoticlistening_ka-ka.mp3	ka	ka	0	left
6.6.1	win	2023-07-06	22:16:12	0	0	56d7623f04c67d000c7b9de6	2	1	DL_practice	11	DL_practice	5			0		ka	1	2361	6	1	antiphase_hc_iso.wav	2	6	5	noise_calib_stim_RIGHT.wav	2	23	blb_dichoticlistening_ka-pa.mp3	ka	pa	1	left
6.6.1	win	2023-07-06	22:16:12	0	0	56d7623f04c67d000c7b9de6	2	1	DL_practice	11	DL_practice	6			0		ta	1	1780	6	1	antiphase_hc_iso.wav	2	6	5	noise_calib_stim_RIGHT.wav	2	36	blb_dichoticlistening_ta-ta.mp3	ta	ta	0	left
6.6.1	win	2023-07-06	22:16:12	0	0	56d7623f04c67d000c7b9de6	2	1	DL_practice	11	DL_practice	7			0		ka	0	1794	6	1	antiphase_hc_iso.wav	2	6	5	noise_calib_stim_RIGHT.wav	2	18	blb_dichoticlistening_ga-ta.mp3	ga	ta	1	other
6.6.1	win	2023-07-06	22:16:12	0	0	56d7623f04c67d000c7b9de6	2	1	DL_practice	11	DL_practice	8			0		ba	1	2066	6	1	antiphase_hc_iso.wav	2	6	5	noise_calib_stim_RIGHT.wav	2	7	blb_dichoticlistening_da-ba.mp3	da	ba	1	right
6.6.1	win	2023-07-06	22:16:12	0	0	56d7623f04c67d000c7b9de6	2	1	DL_practice	11	DL_practice	9			0		da	1	1156	6	1	antiphase_hc_iso.wav	2	6	5	noise_calib_stim_RIGHT.wav	2	8	blb_dichoticlistening_da-da.mp3	da	da	0	left
6.6.1	win	2023-07-06	22:16:12	0	0	56d7623f04c67d000c7b9de6	2	1	DL_practice	11	DL_practice	10			0		ba	1	1244	6	1	antiphase_hc_iso.wav	2	6	5	noise_calib_stim_RIGHT.wav	2	1	blb_dichoticlistening_ba-ba.mp3	ba	ba	0	left
6.6.1	win	2023-07-06	22:16:12	0	0	56d7623f04c67d000c7b9de6	2	1	DL_test	13	DL_test	1			0		ka	1	1579	6	1	antiphase_hc_iso.wav	2	6	5	noise_calib_stim_RIGHT.wav	2	4	blb_dichoticlistening_ba-ka.mp3	ba	ka	1	right
6.6.1	win	2023-07-06	22:16:12	0	0	56d7623f04c67d000c7b9de6	2	1	DL_test	13	DL_test	2			0		ta	1	1350	6	1	antiphase_hc_iso.wav	2	6	5	noise_calib_stim_RIGHT.wav	2	36	blb_dichoticlistening_ta-ta.mp3	ta	ta	0	left
6.6.1	win	2023-07-06	22:16:12	0	0	56d7623f04c67d000c7b9de6	2	1	DL_test	13	DL_test	3			0		ka	0	1574	6	1	antiphase_hc_iso.wav	2	6	5	noise_calib_stim_RIGHT.wav	2	6	blb_dichoticlistening_ba-ta.mp3	ba	ta	1	other
6.6.1	win	2023-07-06	22:16:12	0	0	56d7623f04c67d000c7b9de6	2	1	DL_test	13	DL_test	4			0		da	1	1962	6	1	antiphase_hc_iso.wav	2	6	5	noise_calib_stim_RIGHT.wav	2	2	blb_dichoticlistening_ba-da.mp3	ba	da	1	right
6.6.1	win	2023-07-06	22:16:12	0	0	56d7623f04c67d000c7b9de6	2	1	DL_test	13	DL_test	5			0		ka	1	1420	6	1	antiphase_hc_iso.wav	2	6	5	noise_calib_stim_RIGHT.wav	2	21	blb_dichoticlistening_ka-ga.mp3	ka	ga	1	left
6.6.1	win	2023-07-06	22:16:12	0	0	56d7623f04c67d000c7b9de6	2	1	DL_test	13	DL_test	6			0		da	1	1488	6	1	antiphase_hc_iso.wav	2	6	5	noise_calib_stim_RIGHT.wav	2	8	blb_dichoticlistening_da-da.mp3	da	da	0	left
6.6.1	win	2023-07-06	22:16:12	0	0	56d7623f04c67d000c7b9de6	2	1	DL_test	13	DL_test	7			0		pa	1	1674	6	1	antiphase_hc_iso.wav	2	6	5	noise_calib_stim_RIGHT.wav	2	5	blb_dichoticlistening_ba-pa.mp3	ba	pa	1	right
6.6.1	win	2023-07-06	22:16:12	0	0	56d7623f04c67d000c7b9de6	2	1	DL_test	13	DL_test	8			0		ka	1	1194	6	1	antiphase_hc_iso.wav	2	6	5	noise_calib_stim_RIGHT.wav	2	34	blb_dichoticlistening_ta-ka.mp3	ta	ka	1	right
6.6.1	win	2023-07-06	22:16:12	0	0	56d7623f04c67d000c7b9de6	2	1	DL_test	13	DL_test	9			0		ka	0	1109	6	1	antiphase_hc_iso.wav	2	6	5	noise_calib_stim_RIGHT.wav	2	31	blb_dichoticlistening_ta-ba.mp3	ta	ba	1	other
6.6.1	win	2023-07-06	22:16:12	0	0	56d7623f04c67d000c7b9de6	2	1	DL_test	13	DL_test	10			0		pa	1	1036	6	1	antiphase_hc_iso.wav	2	6	5	noise_calib_stim_RIGHT.wav	2	17	blb_dichoticlistening_ga-pa.mp3	ga	pa	1	right
6.6.1	win	2023-07-06	22:16:12	0	0	56d7623f04c67d000c7b9de6	2	1	DL_test	13	DL_test	11			0		pa	1	1018	6	1	antiphase_hc_iso.wav	2	6	5	noise_calib_stim_RIGHT.wav	2	26	blb_dichoticlistening_pa-da.mp3	pa	da	1	left
6.6.1	win	2023-07-06	22:16:12	0	0	56d7623f04c67d000c7b9de6	2	1	DL_test	13	DL_test	12			0		pa	0	994	6	1	antiphase_hc_iso.wav	2	6	5	noise_calib_stim_RIGHT.wav	2	10	blb_dichoticlistening_da-ka.mp3	da	ka	1	other
6.6.1	win	2023-07-06	22:16:12	0	0	56d7623f04c67d000c7b9de6	2	1	DL_test	13	DL_test	13			0		ka	0	1367	6	1	antiphase_hc_iso.wav	2	6	5	noise_calib_stim_RIGHT.wav	2	33	blb_dichoticlistening_ta-ga.mp3	ta	ga	1	other
6.6.1	win	2023-07-06	22:16:12	0	0	56d7623f04c67d000c7b9de6	2	1	DL_test	13	DL_test	14			0		ga	1	1244	6	1	antiphase_hc_iso.wav	2	6	5	noise_calib_stim_RIGHT.wav	2	9	blb_dichoticlistening_da-ga.mp3	da	ga	1	right
6.6.1	win	2023-07-06	22:16:12	0	0	56d7623f04c67d000c7b9de6	2	1	DL_test	13	DL_test	15			0		ga	1	995	6	1	antiphase_hc_iso.wav	2	6	5	noise_calib_stim_RIGHT.wav	2	15	blb_dichoticlistening_ga-ga.mp3	ga	ga	0	left
6.6.1	win	2023-07-06	22:16:12	0	0	56d7623f04c67d000c7b9de6	2	1	DL_test	13	DL_test	16			0		pa	1	1200	6	1	antiphase_hc_iso.wav	2	6	5	noise_calib_stim_RIGHT.wav	2	29	blb_dichoticlistening_pa-pa.mp3	pa	pa	0	left
6.6.1	win	2023-07-06	22:16:12	0	0	56d7623f04c67d000c7b9de6	2	1	DL_test	13	DL_test	17			0		ka	0	1252	6	1	antiphase_hc_iso.wav	2	6	5	noise_calib_stim_RIGHT.wav	2	18	blb_dichoticlistening_ga-ta.mp3	ga	ta	1	other
6.6.1	win	2023-07-06	22:16:12	0	0	56d7623f04c67d000c7b9de6	2	1	DL_test	13	DL_test	18			0		ba	1	1719	6	1	antiphase_hc_iso.wav	2	6	5	noise_calib_stim_RIGHT.wav	2	3	blb_dichoticlistening_ba-ga.mp3	ba	ga	1	left
6.6.1	win	2023-07-06	22:16:12	0	0	56d7623f04c67d000c7b9de6	2	1	DL_test	13	DL_test	19			0		ba	1	1062	6	1	antiphase_hc_iso.wav	2	6	5	noise_calib_stim_RIGHT.wav	2	13	blb_dichoticlistening_ga-ba.mp3	ga	ba	1	right
6.6.1	win	2023-07-06	22:16:12	0	0	56d7623f04c67d000c7b9de6	2	1	DL_test	13	DL_test	20			0		pa	1	1615	6	1	antiphase_hc_iso.wav	2	6	5	noise_calib_stim_RIGHT.wav	2	25	blb_dichoticlistening_pa-ba.mp3	pa	ba	1	left
6.6.1	win	2023-07-06	22:16:12	0	0	56d7623f04c67d000c7b9de6	2	1	DL_test	13	DL_test	21			0		ba	1	1471	6	1	antiphase_hc_iso.wav	2	6	5	noise_calib_stim_RIGHT.wav	2	1	blb_dichoticlistening_ba-ba.mp3	ba	ba	0	left
6.6.1	win	2023-07-06	22:16:12	0	0	56d7623f04c67d000c7b9de6	2	1	DL_test	13	DL_test	22			0		ka	1	1386	6	1	antiphase_hc_iso.wav	2	6	5	noise_calib_stim_RIGHT.wav	2	22	blb_dichoticlistening_ka-ka.mp3	ka	ka	0	left
6.6.1	win	2023-07-06	22:16:12	0	0	56d7623f04c67d000c7b9de6	2	1	DL_test	13	DL_test	23			0		ka	1	2273	6	1	antiphase_hc_iso.wav	2	6	5	noise_calib_stim_RIGHT.wav	2	23	blb_dichoticlistening_ka-pa.mp3	ka	pa	1	left
6.6.1	win	2023-07-06	22:16:12	0	0	56d7623f04c67d000c7b9de6	2	1	DL_test	13	DL_test	24			0		ta	1	1605	6	1	antiphase_hc_iso.wav	2	6	5	noise_calib_stim_RIGHT.wav	2	35	blb_dichoticlistening_ta-pa.mp3	ta	pa	1	left
6.6.1	win	2023-07-06	22:16:12	0	0	56d7623f04c67d000c7b9de6	2	1	DL_test	13	DL_test	25			0		ka	0	1468	6	1	antiphase_hc_iso.wav	2	6	5	noise_calib_stim_RIGHT.wav	2	32	blb_dichoticlistening_ta-da.mp3	ta	da	1	other
6.6.1	win	2023-07-06	22:16:12	0	0	56d7623f04c67d000c7b9de6	2	1	DL_test	13	DL_test	26			0		pa	1	1226	6	1	antiphase_hc_iso.wav	2	6	5	noise_calib_stim_RIGHT.wav	2	11	blb_dichoticlistening_da-pa.mp3	da	pa	1	right
6.6.1	win	2023-07-06	22:16:12	0	0	56d7623f04c67d000c7b9de6	2	1	DL_test	13	DL_test	27			0		ga	1	1290	6	1	antiphase_hc_iso.wav	2	6	5	noise_calib_stim_RIGHT.wav	2	14	blb_dichoticlistening_ga-da.mp3	ga	da	1	left
6.6.1	win	2023-07-06	22:16:12	0	0	56d7623f04c67d000c7b9de6	2	1	DL_test	13	DL_test	28			0		ka	0	1176	6	1	antiphase_hc_iso.wav	2	6	5	noise_calib_stim_RIGHT.wav	2	12	blb_dichoticlistening_da-ta.mp3	da	ta	1	other
6.6.1	win	2023-07-06	22:16:12	0	0	56d7623f04c67d000c7b9de6	2	1	DL_test	13	DL_test	29			0		ba	1	1620	6	1	antiphase_hc_iso.wav	2	6	5	noise_calib_stim_RIGHT.wav	2	7	blb_dichoticlistening_da-ba.mp3	da	ba	1	right
6.6.1	win	2023-07-06	22:16:12	0	0	56d7623f04c67d000c7b9de6	2	1	DL_test	13	DL_test	30			0		ka	1	1257	6	1	antiphase_hc_iso.wav	2	6	5	noise_calib_stim_RIGHT.wav	2	16	blb_dichoticlistening_ga-ka.mp3	ga	ka	1	right
6.6.1	win	2023-07-06	22:16:12	0	0	56d7623f04c67d000c7b9de6	2	1	DL_test	13	DL_test	31			0		ka	1	846	6	1	antiphase_hc_iso.wav	2	6	5	noise_calib_stim_RIGHT.wav	2	24	blb_dichoticlistening_ka-ta.mp3	ka	ta	1	left
6.6.1	win	2023-07-06	22:16:12	0	0	56d7623f04c67d000c7b9de6	2	1	DL_test	13	DL_test	32			0		pa	1	1138	6	1	antiphase_hc_iso.wav	2	6	5	noise_calib_stim_RIGHT.wav	2	27	blb_dichoticlistening_pa-ga.mp3	pa	ga	1	left
6.6.1	win	2023-07-06	22:16:12	0	0	56d7623f04c67d000c7b9de6	2	1	DL_test	13	DL_test	33			0		pa	1	1743	6	1	antiphase_hc_iso.wav	2	6	5	noise_calib_stim_RIGHT.wav	2	30	blb_dichoticlistening_pa-ta.mp3	pa	ta	1	left
6.6.1	win	2023-07-06	22:16:12	0	0	56d7623f04c67d000c7b9de6	2	1	DL_test	13	DL_test	34			0		ka	1	1184	6	1	antiphase_hc_iso.wav	2	6	5	noise_calib_stim_RIGHT.wav	2	19	blb_dichoticlistening_ka-ba.mp3	ka	ba	1	left
6.6.1	win	2023-07-06	22:16:12	0	0	56d7623f04c67d000c7b9de6	2	1	DL_test	13	DL_test	35			0		pa	1	1645	6	1	antiphase_hc_iso.wav	2	6	5	noise_calib_stim_RIGHT.wav	2	28	blb_dichoticlistening_pa-ka.mp3	pa	ka	1	left
6.6.1	win	2023-07-06	22:16:12	0	0	56d7623f04c67d000c7b9de6	2	1	DL_test	13	DL_test	36			0		ka	1	1177	6	1	antiphase_hc_iso.wav	2	6	5	noise_calib_stim_RIGHT.wav	2	20	blb_dichoticlistening_ka-da.mp3	ka	da	1	left
6.6.1	win	2023-07-06	22:16:12	0	0	56d7623f04c67d000c7b9de6	2	1	DL_test	14	DL_test	1			0		pa	1	1747	6	1	antiphase_hc_iso.wav	2	6	5	noise_calib_stim_RIGHT.wav	2	25	blb_dichoticlistening_pa-ba.mp3	pa	ba	1	left
6.6.1	win	2023-07-06	22:16:12	0	0	56d7623f04c67d000c7b9de6	2	1	DL_test	14	DL_test	2			0		ka	0	1550	6	1	antiphase_hc_iso.wav	2	6	5	noise_calib_stim_RIGHT.wav	2	31	blb_dichoticlistening_ta-ba.mp3	ta	ba	1	other
6.6.1	win	2023-07-06	22:16:12	0	0	56d7623f04c67d000c7b9de6	2	1	DL_test	14	DL_test	3			0		ga	1	1262	6	1	antiphase_hc_iso.wav	2	6	5	noise_calib_stim_RIGHT.wav	2	9	blb_dichoticlistening_da-ga.mp3	da	ga	1	right
6.6.1	win	2023-07-06	22:16:12	0	0	56d7623f04c67d000c7b9de6	2	1	DL_test	14	DL_test	4			0		pa	1	1204	6	1	antiphase_hc_iso.wav	2	6	5	noise_calib_stim_RIGHT.wav	2	17	blb_dichoticlistening_ga-pa.mp3	ga	pa	1	right
6.6.1	win	2023-07-06	22:16:12	0	0	56d7623f04c67d000c7b9de6	2	1	DL_test	14	DL_test	5			0		da	1	2106	6	1	antiphase_hc_iso.wav	2	6	5	noise_calib_stim_RIGHT.wav	2	26	blb_dichoticlistening_pa-da.mp3	pa	da	1	right
6.6.1	win	2023-07-06	22:16:12	0	0	56d7623f04c67d000c7b9de6	2	1	DL_test	14	DL_test	6			0		ka	1	1648	6	1	antiphase_hc_iso.wav	2	6	5	noise_calib_stim_RIGHT.wav	2	4	blb_dichoticlistening_ba-ka.mp3	ba	ka	1	right
6.6.1	win	2023-07-06	22:16:12	0	0	56d7623f04c67d000c7b9de6	2	1	DL_test	14	DL_test	7			0		ka	1	975	6	1	antiphase_hc_iso.wav	2	6	5	noise_calib_stim_RIGHT.wav	2	22	blb_dichoticlistening_ka-ka.mp3	ka	ka	0	left
6.6.1	win	2023-07-06	22:16:12	0	0	56d7623f04c67d000c7b9de6	2	1	DL_test	14	DL_test	8			0		ka	0	1195	6	1	antiphase_hc_iso.wav	2	6	5	noise_calib_stim_RIGHT.wav	2	12	blb_dichoticlistening_da-ta.mp3	da	ta	1	other
6.6.1	win	2023-07-06	22:16:12	0	0	56d7623f04c67d000c7b9de6	2	1	DL_test	14	DL_test	9			0		ka	1	951	6	1	antiphase_hc_iso.wav	2	6	5	noise_calib_stim_RIGHT.wav	2	34	blb_dichoticlistening_ta-ka.mp3	ta	ka	1	right
6.6.1	win	2023-07-06	22:16:12	0	0	56d7623f04c67d000c7b9de6	2	1	DL_test	14	DL_test	10			0		ka	1	1315	6	1	antiphase_hc_iso.wav	2	6	5	noise_calib_stim_RIGHT.wav	2	23	blb_dichoticlistening_ka-pa.mp3	ka	pa	1	left
6.6.1	win	2023-07-06	22:16:12	0	0	56d7623f04c67d000c7b9de6	2	1	DL_test	14	DL_test	11			0		da	1	1298	6	1	antiphase_hc_iso.wav	2	6	5	noise_calib_stim_RIGHT.wav	2	8	blb_dichoticlistening_da-da.mp3	da	da	0	left
6.6.1	win	2023-07-06	22:16:12	0	0	56d7623f04c67d000c7b9de6	2	1	DL_test	14	DL_test	12			0		ka	1	1131	6	1	antiphase_hc_iso.wav	2	6	5	noise_calib_stim_RIGHT.wav	2	21	blb_dichoticlistening_ka-ga.mp3	ka	ga	1	left
6.6.1	win	2023-07-06	22:16:12	0	0	56d7623f04c67d000c7b9de6	2	1	DL_test	14	DL_test	13			0		da	1	1228	6	1	antiphase_hc_iso.wav	2	6	5	noise_calib_stim_RIGHT.wav	2	14	blb_dichoticlistening_ga-da.mp3	ga	da	1	right
6.6.1	win	2023-07-06	22:16:12	0	0	56d7623f04c67d000c7b9de6	2	1	DL_test	14	DL_test	14			0		ka	0	1417	6	1	antiphase_hc_iso.wav	2	6	5	noise_calib_stim_RIGHT.wav	2	18	blb_dichoticlistening_ga-ta.mp3	ga	ta	1	other
6.6.1	win	2023-07-06	22:16:12	0	0	56d7623f04c67d000c7b9de6	2	1	DL_test	14	DL_test	15			0		ba	1	1449	6	1	antiphase_hc_iso.wav	2	6	5	noise_calib_stim_RIGHT.wav	2	1	blb_dichoticlistening_ba-ba.mp3	ba	ba	0	left
6.6.1	win	2023-07-06	22:16:12	0	0	56d7623f04c67d000c7b9de6	2	1	DL_test	14	DL_test	16			0		ta	1	1753	6	1	antiphase_hc_iso.wav	2	6	5	noise_calib_stim_RIGHT.wav	2	30	blb_dichoticlistening_pa-ta.mp3	pa	ta	1	right
6.6.1	win	2023-07-06	22:16:12	0	0	56d7623f04c67d000c7b9de6	2	1	DL_test	14	DL_test	17			0		ka	0	1208	6	1	antiphase_hc_iso.wav	2	6	5	noise_calib_stim_RIGHT.wav	2	33	blb_dichoticlistening_ta-ga.mp3	ta	ga	1	other
6.6.1	win	2023-07-06	22:16:12	0	0	56d7623f04c67d000c7b9de6	2	1	DL_test	14	DL_test	18			0		ba	0	2064	6	1	antiphase_hc_iso.wav	2	6	5	noise_calib_stim_RIGHT.wav	2	27	blb_dichoticlistening_pa-ga.mp3	pa	ga	1	other
6.6.1	win	2023-07-06	22:16:12	0	0	56d7623f04c67d000c7b9de6	2	1	DL_test	14	DL_test	19			0		ba	1	968	6	1	antiphase_hc_iso.wav	2	6	5	noise_calib_stim_RIGHT.wav	2	13	blb_dichoticlistening_ga-ba.mp3	ga	ba	1	right
6.6.1	win	2023-07-06	22:16:12	0	0	56d7623f04c67d000c7b9de6	2	1	DL_test	14	DL_test	20			0		ba	1	846	6	1	antiphase_hc_iso.wav	2	6	5	noise_calib_stim_RIGHT.wav	2	7	blb_dichoticlistening_da-ba.mp3	da	ba	1	right
6.6.1	win	2023-07-06	22:16:12	0	0	56d7623f04c67d000c7b9de6	2	1	DL_test	14	DL_test	21			0		ka	1	1358	6	1	antiphase_hc_iso.wav	2	6	5	noise_calib_stim_RIGHT.wav	2	24	blb_dichoticlistening_ka-ta.mp3	ka	ta	1	left
6.6.1	win	2023-07-06	22:16:12	0	0	56d7623f04c67d000c7b9de6	2	1	DL_test	14	DL_test	22			0		ka	1	847	6	1	antiphase_hc_iso.wav	2	6	5	noise_calib_stim_RIGHT.wav	2	20	blb_dichoticlistening_ka-da.mp3	ka	da	1	left
6.6.1	win	2023-07-06	22:16:12	0	0	56d7623f04c67d000c7b9de6	2	1	DL_test	14	DL_test	23			0		ta	1	1548	6	1	antiphase_hc_iso.wav	2	6	5	noise_calib_stim_RIGHT.wav	2	36	blb_dichoticlistening_ta-ta.mp3	ta	ta	0	left
6.6.1	win	2023-07-06	22:16:12	0	0	56d7623f04c67d000c7b9de6	2	1	DL_test	14	DL_test	24			0		ga	1	1793	6	1	antiphase_hc_iso.wav	2	6	5	noise_calib_stim_RIGHT.wav	2	15	blb_dichoticlistening_ga-ga.mp3	ga	ga	0	left
6.6.1	win	2023-07-06	22:16:12	0	0	56d7623f04c67d000c7b9de6	2	1	DL_test	14	DL_test	25			0		ka	1	1329	6	1	antiphase_hc_iso.wav	2	6	5	noise_calib_stim_RIGHT.wav	2	16	blb_dichoticlistening_ga-ka.mp3	ga	ka	1	right
6.6.1	win	2023-07-06	22:16:12	0	0	56d7623f04c67d000c7b9de6	2	1	DL_test	14	DL_test	26			0		pa	1	1088	6	1	antiphase_hc_iso.wav	2	6	5	noise_calib_stim_RIGHT.wav	2	29	blb_dichoticlistening_pa-pa.mp3	pa	pa	0	left
6.6.1	win	2023-07-06	22:16:12	0	0	56d7623f04c67d000c7b9de6	2	1	DL_test	14	DL_test	27			0		pa	0	1131	6	1	antiphase_hc_iso.wav	2	6	5	noise_calib_stim_RIGHT.wav	2	10	blb_dichoticlistening_da-ka.mp3	da	ka	1	other
6.6.1	win	2023-07-06	22:16:12	0	0	56d7623f04c67d000c7b9de6	2	1	DL_test	14	DL_test	28			0		da	1	1386	6	1	antiphase_hc_iso.wav	2	6	5	noise_calib_stim_RIGHT.wav	2	2	blb_dichoticlistening_ba-da.mp3	ba	da	1	right
6.6.1	win	2023-07-06	22:16:12	0	0	56d7623f04c67d000c7b9de6	2	1	DL_test	14	DL_test	29			0		ba	1	1754	6	1	antiphase_hc_iso.wav	2	6	5	noise_calib_stim_RIGHT.wav	2	3	blb_dichoticlistening_ba-ga.mp3	ba	ga	1	left
6.6.1	win	2023-07-06	22:16:12	0	0	56d7623f04c67d000c7b9de6	2	1	DL_test	14	DL_test	30			0		pa	1	1546	6	1	antiphase_hc_iso.wav	2	6	5	noise_calib_stim_RIGHT.wav	2	5	blb_dichoticlistening_ba-pa.mp3	ba	pa	1	right
6.6.1	win	2023-07-06	22:16:12	0	0	56d7623f04c67d000c7b9de6	2	1	DL_test	14	DL_test	31			0		ka	1	1306	6	1	antiphase_hc_iso.wav	2	6	5	noise_calib_stim_RIGHT.wav	2	19	blb_dichoticlistening_ka-ba.mp3	ka	ba	1	left
6.6.1	win	2023-07-06	22:16:12	0	0	56d7623f04c67d000c7b9de6	2	1	DL_test	14	DL_test	32			0		pa	1	1159	6	1	antiphase_hc_iso.wav	2	6	5	noise_calib_stim_RIGHT.wav	2	11	blb_dichoticlistening_da-pa.mp3	da	pa	1	right
6.6.1	win	2023-07-06	22:16:12	0	0	56d7623f04c67d000c7b9de6	2	1	DL_test	14	DL_test	33			0		pa	1	1673	6	1	antiphase_hc_iso.wav	2	6	5	noise_calib_stim_RIGHT.wav	2	35	blb_dichoticlistening_ta-pa.mp3	ta	pa	1	right
6.6.1	win	2023-07-06	22:16:12	0	0	56d7623f04c67d000c7b9de6	2	1	DL_test	14	DL_test	34			0		ka	0	1305	6	1	antiphase_hc_iso.wav	2	6	5	noise_calib_stim_RIGHT.wav	2	6	blb_dichoticlistening_ba-ta.mp3	ba	ta	1	other
6.6.1	win	2023-07-06	22:16:12	0	0	56d7623f04c67d000c7b9de6	2	1	DL_test	14	DL_test	35			0		ta	1	1197	6	1	antiphase_hc_iso.wav	2	6	5	noise_calib_stim_RIGHT.wav	2	32	blb_dichoticlistening_ta-da.mp3	ta	da	1	left
6.6.1	win	2023-07-06	22:16:12	0	0	56d7623f04c67d000c7b9de6	2	1	DL_test	14	DL_test	36			0		ka	1	1274	6	1	antiphase_hc_iso.wav	2	6	5	noise_calib_stim_RIGHT.wav	2	28	blb_dichoticlistening_pa-ka.mp3	pa	ka	1	right
6.6.1	win	2023-07-06	22:16:12	0	0	56d7623f04c67d000c7b9de6	2	1	DL_test	15	DL_test	1			0		pa	0	1168	6	1	antiphase_hc_iso.wav	2	6	5	noise_calib_stim_RIGHT.wav	2	10	blb_dichoticlistening_da-ka.mp3	da	ka	1	other
6.6.1	win	2023-07-06	22:16:12	0	0	56d7623f04c67d000c7b9de6	2	1	DL_test	15	DL_test	2			0		ka	0	1275	6	1	antiphase_hc_iso.wav	2	6	5	noise_calib_stim_RIGHT.wav	2	6	blb_dichoticlistening_ba-ta.mp3	ba	ta	1	other
6.6.1	win	2023-07-06	22:16:12	0	0	56d7623f04c67d000c7b9de6	2	1	DL_test	15	DL_test	3			0		ga	1	1138	6	1	antiphase_hc_iso.wav	2	6	5	noise_calib_stim_RIGHT.wav	2	15	blb_dichoticlistening_ga-ga.mp3	ga	ga	0	left
6.6.1	win	2023-07-06	22:16:12	0	0	56d7623f04c67d000c7b9de6	2	1	DL_test	15	DL_test	4			0		ka	1	1377	6	1	antiphase_hc_iso.wav	2	6	5	noise_calib_stim_RIGHT.wav	2	21	blb_dichoticlistening_ka-ga.mp3	ka	ga	1	left
6.6.1	win	2023-07-06	22:16:12	0	0	56d7623f04c67d000c7b9de6	2	1	DL_test	15	DL_test	5			0		da	1	1183	6	1	antiphase_hc_iso.wav	2	6	5	noise_calib_stim_RIGHT.wav	2	8	blb_dichoticlistening_da-da.mp3	da	da	0	left
6.6.1	win	2023-07-06	22:16:12	0	0	56d7623f04c67d000c7b9de6	2	1	DL_test	15	DL_test	6			0		ka	0	1182	6	1	antiphase_hc_iso.wav	2	6	5	noise_calib_stim_RIGHT.wav	2	33	blb_dichoticlistening_ta-ga.mp3	ta	ga	1	other
6.6.1	win	2023-07-06	22:16:12	0	0	56d7623f04c67d000c7b9de6	2	1	DL_test	15	DL_test	7			0		pa	1	1276	6	1	antiphase_hc_iso.wav	2	6	5	noise_calib_stim_RIGHT.wav	2	11	blb_dichoticlistening_da-pa.mp3	da	pa	1	right
6.6.1	win	2023-07-06	22:16:12	0	0	56d7623f04c67d000c7b9de6	2	1	DL_test	15	DL_test	8			0		ta	1	1246	6	1	antiphase_hc_iso.wav	2	6	5	noise_calib_stim_RIGHT.wav	2	12	blb_dichoticlistening_da-ta.mp3	da	ta	1	right
6.6.1	win	2023-07-06	22:16:12	0	0	56d7623f04c67d000c7b9de6	2	1	DL_test	15	DL_test	9			0		ba	1	1495	6	1	antiphase_hc_iso.wav	2	6	5	noise_calib_stim_RIGHT.wav	2	7	blb_dichoticlistening_da-ba.mp3	da	ba	1	right
6.6.1	win	2023-07-06	22:16:12	0	0	56d7623f04c67d000c7b9de6	2	1	DL_test	15	DL_test	10			0		pa	1	1685	6	1	antiphase_hc_iso.wav	2	6	5	noise_calib_stim_RIGHT.wav	2	27	blb_dichoticlistening_pa-ga.mp3	pa	ga	1	left
6.6.1	win	2023-07-06	22:16:12	0	0	56d7623f04c67d000c7b9de6	2	1	DL_test	15	DL_test	11			0		ba	1	1601	6	1	antiphase_hc_iso.wav	2	6	5	noise_calib_stim_RIGHT.wav	2	13	blb_dichoticlistening_ga-ba.mp3	ga	ba	1	right
6.6.1	win	2023-07-06	22:16:12	0	0	56d7623f04c67d000c7b9de6	2	1	DL_test	15	DL_test	12			0		pa	1	1533	6	1	antiphase_hc_iso.wav	2	6	5	noise_calib_stim_RIGHT.wav	2	29	blb_dichoticlistening_pa-pa.mp3	pa	pa	0	left
6.6.1	win	2023-07-06	22:16:12	0	0	56d7623f04c67d000c7b9de6	2	1	DL_test	15	DL_test	13			0		ga	1	1275	6	1	antiphase_hc_iso.wav	2	6	5	noise_calib_stim_RIGHT.wav	2	9	blb_dichoticlistening_da-ga.mp3	da	ga	1	right
6.6.1	win	2023-07-06	22:16:12	0	0	56d7623f04c67d000c7b9de6	2	1	DL_test	15	DL_test	14			0		da	1	1159	6	1	antiphase_hc_iso.wav	2	6	5	noise_calib_stim_RIGHT.wav	2	14	blb_dichoticlistening_ga-da.mp3	ga	da	1	right
6.6.1	win	2023-07-06	22:16:12	0	0	56d7623f04c67d000c7b9de6	2	1	DL_test	15	DL_test	15			0		ka	1	1105	6	1	antiphase_hc_iso.wav	2	6	5	noise_calib_stim_RIGHT.wav	2	19	blb_dichoticlistening_ka-ba.mp3	ka	ba	1	left
6.6.1	win	2023-07-06	22:16:12	0	0	56d7623f04c67d000c7b9de6	2	1	DL_test	15	DL_test	16			0		ka	1	778	6	1	antiphase_hc_iso.wav	2	6	5	noise_calib_stim_RIGHT.wav	2	22	blb_dichoticlistening_ka-ka.mp3	ka	ka	0	left
6.6.1	win	2023-07-06	22:16:12	0	0	56d7623f04c67d000c7b9de6	2	1	DL_test	15	DL_test	17			0		pa	1	1005	6	1	antiphase_hc_iso.wav	2	6	5	noise_calib_stim_RIGHT.wav	2	26	blb_dichoticlistening_pa-da.mp3	pa	da	1	left
6.6.1	win	2023-07-06	22:16:12	0	0	56d7623f04c67d000c7b9de6	2	1	DL_test	15	DL_test	18			0		ta	1	1550	6	1	antiphase_hc_iso.wav	2	6	5	noise_calib_stim_RIGHT.wav	2	35	blb_dichoticlistening_ta-pa.mp3	ta	pa	1	left
6.6.1	win	2023-07-06	22:16:12	0	0	56d7623f04c67d000c7b9de6	2	1	DL_test	15	DL_test	19			0		pa	1	1220	6	1	antiphase_hc_iso.wav	2	6	5	noise_calib_stim_RIGHT.wav	2	23	blb_dichoticlistening_ka-pa.mp3	ka	pa	1	right
6.6.1	win	2023-07-06	22:16:12	0	0	56d7623f04c67d000c7b9de6	2	1	DL_test	15	DL_test	20			0		ka	1	1055	6	1	antiphase_hc_iso.wav	2	6	5	noise_calib_stim_RIGHT.wav	2	34	blb_dichoticlistening_ta-ka.mp3	ta	ka	1	right
6.6.1	win	2023-07-06	22:16:12	0	0	56d7623f04c67d000c7b9de6	2	1	DL_test	15	DL_test	21			0		ka	1	788	6	1	antiphase_hc_iso.wav	2	6	5	noise_calib_stim_RIGHT.wav	2	20	blb_dichoticlistening_ka-da.mp3	ka	da	1	left
6.6.1	win	2023-07-06	22:16:12	0	0	56d7623f04c67d000c7b9de6	2	1	DL_test	15	DL_test	22			0		ba	1	1494	6	1	antiphase_hc_iso.wav	2	6	5	noise_calib_stim_RIGHT.wav	2	3	blb_dichoticlistening_ba-ga.mp3	ba	ga	1	left
6.6.1	win	2023-07-06	22:16:12	0	0	56d7623f04c67d000c7b9de6	2	1	DL_test	15	DL_test	23			0		ta	1	2223	6	1	antiphase_hc_iso.wav	2	6	5	noise_calib_stim_RIGHT.wav	2	36	blb_dichoticlistening_ta-ta.mp3	ta	ta	0	left
6.6.1	win	2023-07-06	22:16:12	0	0	56d7623f04c67d000c7b9de6	2	1	DL_test	15	DL_test	24			0		ka	0	1818	6	1	antiphase_hc_iso.wav	2	6	5	noise_calib_stim_RIGHT.wav	2	18	blb_dichoticlistening_ga-ta.mp3	ga	ta	1	other
6.6.1	win	2023-07-06	22:16:12	0	0	56d7623f04c67d000c7b9de6	2	1	DL_test	15	DL_test	25			0		ba	1	1332	6	1	antiphase_hc_iso.wav	2	6	5	noise_calib_stim_RIGHT.wav	2	2	blb_dichoticlistening_ba-da.mp3	ba	da	1	left
6.6.1	win	2023-07-06	22:16:12	0	0	56d7623f04c67d000c7b9de6	2	1	DL_test	15	DL_test	26			0		pa	1	1661	6	1	antiphase_hc_iso.wav	2	6	5	noise_calib_stim_RIGHT.wav	2	25	blb_dichoticlistening_pa-ba.mp3	pa	ba	1	left
6.6.1	win	2023-07-06	22:16:12	0	0	56d7623f04c67d000c7b9de6	2	1	DL_test	15	DL_test	27			0		ka	1	1123	6	1	antiphase_hc_iso.wav	2	6	5	noise_calib_stim_RIGHT.wav	2	4	blb_dichoticlistening_ba-ka.mp3	ba	ka	1	right
6.6.1	win	2023-07-06	22:16:12	0	0	56d7623f04c67d000c7b9de6	2	1	DL_test	15	DL_test	28			0		ka	1	807	6	1	antiphase_hc_iso.wav	2	6	5	noise_calib_stim_RIGHT.wav	2	16	blb_dichoticlistening_ga-ka.mp3	ga	ka	1	right
6.6.1	win	2023-07-06	22:16:12	0	0	56d7623f04c67d000c7b9de6	2	1	DL_test	15	DL_test	29			0		ta	1	1193	6	1	antiphase_hc_iso.wav	2	6	5	noise_calib_stim_RIGHT.wav	2	30	blb_dichoticlistening_pa-ta.mp3	pa	ta	1	right
6.6.1	win	2023-07-06	22:16:12	0	0	56d7623f04c67d000c7b9de6	2	1	DL_test	15	DL_test	30			0		ta	1	935	6	1	antiphase_hc_iso.wav	2	6	5	noise_calib_stim_RIGHT.wav	2	32	blb_dichoticlistening_ta-da.mp3	ta	da	1	left
6.6.1	win	2023-07-06	22:16:12	0	0	56d7623f04c67d000c7b9de6	2	1	DL_test	15	DL_test	31			0		ka	0	1605	6	1	antiphase_hc_iso.wav	2	6	5	noise_calib_stim_RIGHT.wav	2	31	blb_dichoticlistening_ta-ba.mp3	ta	ba	1	other
6.6.1	win	2023-07-06	22:16:12	0	0	56d7623f04c67d000c7b9de6	2	1	DL_test	15	DL_test	32			0		ka	1	925	6	1	antiphase_hc_iso.wav	2	6	5	noise_calib_stim_RIGHT.wav	2	28	blb_dichoticlistening_pa-ka.mp3	pa	ka	1	right
6.6.1	win	2023-07-06	22:16:12	0	0	56d7623f04c67d000c7b9de6	2	1	DL_test	15	DL_test	33			0		pa	1	1195	6	1	antiphase_hc_iso.wav	2	6	5	noise_calib_stim_RIGHT.wav	2	5	blb_dichoticlistening_ba-pa.mp3	ba	pa	1	right
6.6.1	win	2023-07-06	22:16:12	0	0	56d7623f04c67d000c7b9de6	2	1	DL_test	15	DL_test	34			0		ba	1	1988	6	1	antiphase_hc_iso.wav	2	6	5	noise_calib_stim_RIGHT.wav	2	1	blb_dichoticlistening_ba-ba.mp3	ba	ba	0	left
6.6.1	win	2023-07-06	22:16:12	0	0	56d7623f04c67d000c7b9de6	2	1	DL_test	15	DL_test	35			0		pa	1	1244	6	1	antiphase_hc_iso.wav	2	6	5	noise_calib_stim_RIGHT.wav	2	17	blb_dichoticlistening_ga-pa.mp3	ga	pa	1	right
6.6.1	win	2023-07-06	22:16:12	0	0	56d7623f04c67d000c7b9de6	2	1	DL_test	15	DL_test	36			0		ka	1	1062	6	1	antiphase_hc_iso.wav	2	6	5	noise_calib_stim_RIGHT.wav	2	24	blb_dichoticlistening_ka-ta.mp3	ka	ta	1	left
6.6.1	win	2023-07-06	22:16:12	0	0	56d7623f04c67d000c7b9de6	2	1	DL_test	16	DL_test	1			0		ta	1	1356	6	1	antiphase_hc_iso.wav	2	6	5	noise_calib_stim_RIGHT.wav	2	32	blb_dichoticlistening_ta-da.mp3	ta	da	1	left
6.6.1	win	2023-07-06	22:16:12	0	0	56d7623f04c67d000c7b9de6	2	1	DL_test	16	DL_test	2			0		ka	0	1753	6	1	antiphase_hc_iso.wav	2	6	5	noise_calib_stim_RIGHT.wav	2	18	blb_dichoticlistening_ga-ta.mp3	ga	ta	1	other
6.6.1	win	2023-07-06	22:16:12	0	0	56d7623f04c67d000c7b9de6	2	1	DL_test	16	DL_test	3			0		ka	1	761	6	1	antiphase_hc_iso.wav	2	6	5	noise_calib_stim_RIGHT.wav	2	20	blb_dichoticlistening_ka-da.mp3	ka	da	1	left
6.6.1	win	2023-07-06	22:16:12	0	0	56d7623f04c67d000c7b9de6	2	1	DL_test	16	DL_test	4			0		ka	1	727	6	1	antiphase_hc_iso.wav	2	6	5	noise_calib_stim_RIGHT.wav	2	21	blb_dichoticlistening_ka-ga.mp3	ka	ga	1	left
6.6.1	win	2023-07-06	22:16:12	0	0	56d7623f04c67d000c7b9de6	2	1	DL_test	16	DL_test	5			0		pa	1	939	6	1	antiphase_hc_iso.wav	2	6	5	noise_calib_stim_RIGHT.wav	2	17	blb_dichoticlistening_ga-pa.mp3	ga	pa	1	right
6.6.1	win	2023-07-06	22:16:12	0	0	56d7623f04c67d000c7b9de6	2	1	DL_test	16	DL_test	6			0		ka	1	1493	6	1	antiphase_hc_iso.wav	2	6	5	noise_calib_stim_RIGHT.wav	2	19	blb_dichoticlistening_ka-ba.mp3	ka	ba	1	left
6.6.1	win	2023-07-06	22:16:12	0	0	56d7623f04c67d000c7b9de6	2	1	DL_test	16	DL_test	7			0		ka	0	770	6	1	antiphase_hc_iso.wav	2	6	5	noise_calib_stim_RIGHT.wav	2	33	blb_dichoticlistening_ta-ga.mp3	ta	ga	1	other
6.6.1	win	2023-07-06	22:16:12	0	0	56d7623f04c67d000c7b9de6	2	1	DL_test	16	DL_test	8			0		pa	1	972	6	1	antiphase_hc_iso.wav	2	6	5	noise_calib_stim_RIGHT.wav	2	5	blb_dichoticlistening_ba-pa.mp3	ba	pa	1	right
6.6.1	win	2023-07-06	22:16:12	0	0	56d7623f04c67d000c7b9de6	2	1	DL_test	16	DL_test	9			0		da	1	1442	6	1	antiphase_hc_iso.wav	2	6	5	noise_calib_stim_RIGHT.wav	2	8	blb_dichoticlistening_da-da.mp3	da	da	0	left
6.6.1	win	2023-07-06	22:16:12	0	0	56d7623f04c67d000c7b9de6	2	1	DL_test	16	DL_test	10			0		pa	1	1976	6	1	antiphase_hc_iso.wav	2	6	5	noise_calib_stim_RIGHT.wav	2	27	blb_dichoticlistening_pa-ga.mp3	pa	ga	1	left
6.6.1	win	2023-07-06	22:16:12	0	0	56d7623f04c67d000c7b9de6	2	1	DL_test	16	DL_test	11			0		pa	1	944	6	1	antiphase_hc_iso.wav	2	6	5	noise_calib_stim_RIGHT.wav	2	26	blb_dichoticlistening_pa-da.mp3	pa	da	1	left
6.6.1	win	2023-07-06	22:16:12	0	0	56d7623f04c67d000c7b9de6	2	1	DL_test	16	DL_test	12			0		ta	1	1234	6	1	antiphase_hc_iso.wav	2	6	5	noise_calib_stim_RIGHT.wav	2	36	blb_dichoticlistening_ta-ta.mp3	ta	ta	0	left
6.6.1	win	2023-07-06	22:16:12	0	0	56d7623f04c67d000c7b9de6	2	1	DL_test	16	DL_test	13			0		ta	1	1609	6	1	antiphase_hc_iso.wav	2	6	5	noise_calib_stim_RIGHT.wav	2	12	blb_dichoticlistening_da-ta.mp3	da	ta	1	right
6.6.1	win	2023-07-06	22:16:12	0	0	56d7623f04c67d000c7b9de6	2	1	DL_test	16	DL_test	14			0		ga	1	1280	6	1	antiphase_hc_iso.wav	2	6	5	noise_calib_stim_RIGHT.wav	2	9	blb_dichoticlistening_da-ga.mp3	da	ga	1	right
6.6.1	win	2023-07-06	22:16:12	0	0	56d7623f04c67d000c7b9de6	2	1	DL_test	16	DL_test	15			0		ka	1	1188	6	1	antiphase_hc_iso.wav	2	6	5	noise_calib_stim_RIGHT.wav	2	16	blb_dichoticlistening_ga-ka.mp3	ga	ka	1	right
6.6.1	win	2023-07-06	22:16:12	0	0	56d7623f04c67d000c7b9de6	2	1	DL_test	16	DL_test	16			0		ga	1	1471	6	1	antiphase_hc_iso.wav	2	6	5	noise_calib_stim_RIGHT.wav	2	15	blb_dichoticlistening_ga-ga.mp3	ga	ga	0	left
6.6.1	win	2023-07-06	22:16:12	0	0	56d7623f04c67d000c7b9de6	2	1	DL_test	16	DL_test	17			0		ga	1	995	6	1	antiphase_hc_iso.wav	2	6	5	noise_calib_stim_RIGHT.wav	2	14	blb_dichoticlistening_ga-da.mp3	ga	da	1	left
6.6.1	win	2023-07-06	22:16:12	0	0	56d7623f04c67d000c7b9de6	2	1	DL_test	16	DL_test	18			0		ba	1	1436	6	1	antiphase_hc_iso.wav	2	6	5	noise_calib_stim_RIGHT.wav	2	3	blb_dichoticlistening_ba-ga.mp3	ba	ga	1	left
6.6.1	win	2023-07-06	22:16:12	0	0	56d7623f04c67d000c7b9de6	2	1	DL_test	16	DL_test	19			0		ba	1	1522	6	1	antiphase_hc_iso.wav	2	6	5	noise_calib_stim_RIGHT.wav	2	7	blb_dichoticlistening_da-ba.mp3	da	ba	1	right
6.6.1	win	2023-07-06	22:16:12	0	0	56d7623f04c67d000c7b9de6	2	1	DL_test	16	DL_test	20			0		ka	1	1117	6	1	antiphase_hc_iso.wav	2	6	5	noise_calib_stim_RIGHT.wav	2	22	blb_dichoticlistening_ka-ka.mp3	ka	ka	0	left
6.6.1	win	2023-07-06	22:16:12	0	0	56d7623f04c67d000c7b9de6	2	1	DL_test	16	DL_test	21			0		ka	1	1159	6	1	antiphase_hc_iso.wav	2	6	5	noise_calib_stim_RIGHT.wav	2	28	blb_dichoticlistening_pa-ka.mp3	pa	ka	1	right
6.6.1	win	2023-07-06	22:16:12	0	0	56d7623f04c67d000c7b9de6	2	1	DL_test	16	DL_test	22			0		pa	0	1137	6	1	antiphase_hc_iso.wav	2	6	5	noise_calib_stim_RIGHT.wav	2	6	blb_dichoticlistening_ba-ta.mp3	ba	ta	1	other
6.6.1	win	2023-07-06	22:16:12	0	0	56d7623f04c67d000c7b9de6	2	1	DL_test	16	DL_test	23			0		ba	1	1577	6	1	antiphase_hc_iso.wav	2	6	5	noise_calib_stim_RIGHT.wav	2	13	blb_dichoticlistening_ga-ba.mp3	ga	ba	1	right
6.6.1	win	2023-07-06	22:16:12	0	0	56d7623f04c67d000c7b9de6	2	1	DL_test	16	DL_test	24			0		ta	0	2175	6	1	antiphase_hc_iso.wav	2	6	5	noise_calib_stim_RIGHT.wav	2	23	blb_dichoticlistening_ka-pa.mp3	ka	pa	1	other
6.6.1	win	2023-07-06	22:16:12	0	0	56d7623f04c67d000c7b9de6	2	1	DL_test	16	DL_test	25			0		ka	1	1130	6	1	antiphase_hc_iso.wav	2	6	5	noise_calib_stim_RIGHT.wav	2	24	blb_dichoticlistening_ka-ta.mp3	ka	ta	1	left
6.6.1	win	2023-07-06	22:16:12	0	0	56d7623f04c67d000c7b9de6	2	1	DL_test	16	DL_test	26			0		pa	0	1153	6	1	antiphase_hc_iso.wav	2	6	5	noise_calib_stim_RIGHT.wav	2	10	blb_dichoticlistening_da-ka.mp3	da	ka	1	other
6.6.1	win	2023-07-06	22:16:12	0	0	56d7623f04c67d000c7b9de6	2	1	DL_test	16	DL_test	27			0		ba	1	1087	6	1	antiphase_hc_iso.wav	2	6	5	noise_calib_stim_RIGHT.wav	2	1	blb_dichoticlistening_ba-ba.mp3	ba	ba	0	left
6.6.1	win	2023-07-06	22:16:12	0	0	56d7623f04c67d000c7b9de6	2	1	DL_test	16	DL_test	28			0		ka	1	1327	6	1	antiphase_hc_iso.wav	2	6	5	noise_calib_stim_RIGHT.wav	2	4	blb_dichoticlistening_ba-ka.mp3	ba	ka	1	right
6.6.1	win	2023-07-06	22:16:12	0	0	56d7623f04c67d000c7b9de6	2	1	DL_test	16	DL_test	29			0		ka	0	764	6	1	antiphase_hc_iso.wav	2	6	5	noise_calib_stim_RIGHT.wav	2	31	blb_dichoticlistening_ta-ba.mp3	ta	ba	1	other
6.6.1	win	2023-07-06	22:16:12	0	0	56d7623f04c67d000c7b9de6	2	1	DL_test	16	DL_test	30			0		pa	1	1001	6	1	antiphase_hc_iso.wav	2	6	5	noise_calib_stim_RIGHT.wav	2	29	blb_dichoticlistening_pa-pa.mp3	pa	pa	0	left
6.6.1	win	2023-07-06	22:16:12	0	0	56d7623f04c67d000c7b9de6	2	1	DL_test	16	DL_test	31			0		ba	1	1806	6	1	antiphase_hc_iso.wav	2	6	5	noise_calib_stim_RIGHT.wav	2	2	blb_dichoticlistening_ba-da.mp3	ba	da	1	left
6.6.1	win	2023-07-06	22:16:12	0	0	56d7623f04c67d000c7b9de6	2	1	DL_test	16	DL_test	32			0		ta	1	1716	6	1	antiphase_hc_iso.wav	2	6	5	noise_calib_stim_RIGHT.wav	2	30	blb_dichoticlistening_pa-ta.mp3	pa	ta	1	right
6.6.1	win	2023-07-06	22:16:12	0	0	56d7623f04c67d000c7b9de6	2	1	DL_test	16	DL_test	33			0		ta	1	1403	6	1	antiphase_hc_iso.wav	2	6	5	noise_calib_stim_RIGHT.wav	2	35	blb_dichoticlistening_ta-pa.mp3	ta	pa	1	left
6.6.1	win	2023-07-06	22:16:12	0	0	56d7623f04c67d000c7b9de6	2	1	DL_test	16	DL_test	34			0		pa	1	1196	6	1	antiphase_hc_iso.wav	2	6	5	noise_calib_stim_RIGHT.wav	2	25	blb_dichoticlistening_pa-ba.mp3	pa	ba	1	left
6.6.1	win	2023-07-06	22:16:12	0	0	56d7623f04c67d000c7b9de6	2	1	DL_test	16	DL_test	35			0		ka	1	1195	6	1	antiphase_hc_iso.wav	2	6	5	noise_calib_stim_RIGHT.wav	2	34	blb_dichoticlistening_ta-ka.mp3	ta	ka	1	right
6.6.1	win	2023-07-06	22:16:12	0	0	56d7623f04c67d000c7b9de6	2	1	DL_test	16	DL_test	36			0		pa	1	1053	6	1	antiphase_hc_iso.wav	2	6	5	noise_calib_stim_RIGHT.wav	2	11	blb_dichoticlistening_da-pa.mp3	da	pa	1	right
6.6.1	win	2023-07-06	22:16:12	22:27:11	651286	56d7623f04c67d000c7b9de6	2	1	practice_z	22	practice_z	1	stimuli_target_rectanglediamonds.svg	stimuli_distractor_diamondtriangles.svg	1	yes	44	1	520	6	1	antiphase_hc_iso.wav	2	6	5	noise_calib_stim_RIGHT.wav	2	11	blb_dichoticlistening_da-pa.mp3	da	pa	1	right
6.6.1	win	2023-07-06	22:16:12	22:27:11	651286	56d7623f04c67d000c7b9de6	2	1	practice_z	22	advance_on_keypress_ZEE	2	stimuli_target_rectanglediamonds.svg	stimuli_distractor_diamondtriangles.svg	1	yes	57	0	1721	6	1	antiphase_hc_iso.wav	2	6	5	noise_calib_stim_RIGHT.wav	2	11	blb_dichoticlistening_da-pa.mp3	da	pa	1	right
6.6.1	win	2023-07-06	22:16:12	22:27:16	656679	56d7623f04c67d000c7b9de6	2	1	practice_z	22	practice_z	3	stimuli_distractor_diamondtriangles.svg	stimuli_target_diamondrectangles.svg	8	yes	0	0	2000	6	1	antiphase_hc_iso.wav	2	6	5	noise_calib_stim_RIGHT.wav	2	11	blb_dichoticlistening_da-pa.mp3	da	pa	1	right
6.6.1	win	2023-07-06	22:16:12	22:27:16	656679	56d7623f04c67d000c7b9de6	2	1	practice_z	22	advance_on_keypress_ZEE	4	stimuli_distractor_diamondtriangles.svg	stimuli_target_diamondrectangles.svg	8	yes	57	0	1169	6	1	antiphase_hc_iso.wav	2	6	5	noise_calib_stim_RIGHT.wav	2	11	blb_dichoticlistening_da-pa.mp3	da	pa	1	right
6.6.1	win	2023-07-06	22:16:12	22:27:21	661508	56d7623f04c67d000c7b9de6	2	1	practice_z	22	practice_z	5	stimuli_distractor_diamondtriangles.svg	stimuli_distractor_trianglediamonds.svg	14	no	0	1	2000	6	1	antiphase_hc_iso.wav	2	6	5	noise_calib_stim_RIGHT.wav	2	11	blb_dichoticlistening_da-pa.mp3	da	pa	1	right
6.6.1	win	2023-07-06	22:16:12	22:27:21	661508	56d7623f04c67d000c7b9de6	2	1	practice_z	22	advance_on_keypress_ZEE	6	stimuli_distractor_diamondtriangles.svg	stimuli_distractor_trianglediamonds.svg	14	no	57	0	893	6	1	antiphase_hc_iso.wav	2	6	5	noise_calib_stim_RIGHT.wav	2	11	blb_dichoticlistening_da-pa.mp3	da	pa	1	right
6.6.1	win	2023-07-06	22:16:12	22:27:26	666036	56d7623f04c67d000c7b9de6	2	1	practice_z	22	practice_z	7	stimuli_distractor_diamondtriangles.svg	stimuli_distractor_diamondtriangles.svg	13	no	0	1	2000	6	1	antiphase_hc_iso.wav	2	6	5	noise_calib_stim_RIGHT.wav	2	11	blb_dichoticlistening_da-pa.mp3	da	pa	1	right
6.6.1	win	2023-07-06	22:16:12	22:27:26	666036	56d7623f04c67d000c7b9de6	2	1	practice_z	22	advance_on_keypress_ZEE	8	stimuli_distractor_diamondtriangles.svg	stimuli_distractor_diamondtriangles.svg	13	no	57	0	843	6	1	antiphase_hc_iso.wav	2	6	5	noise_calib_stim_RIGHT.wav	2	11	blb_dichoticlistening_da-pa.mp3	da	pa	1	right
6.6.1	win	2023-07-06	22:16:12	22:27:29	669542	56d7623f04c67d000c7b9de6	2	1	practice_z	22	practice_z	9	stimuli_target_squarediamonds.svg	stimuli_distractor_trianglediamonds.svg	5	yes	44	1	1008	6	1	antiphase_hc_iso.wav	2	6	5	noise_calib_stim_RIGHT.wav	2	11	blb_dichoticlistening_da-pa.mp3	da	pa	1	right
6.6.1	win	2023-07-06	22:16:12	22:27:29	669542	56d7623f04c67d000c7b9de6	2	1	practice_z	22	advance_on_keypress_ZEE	10	stimuli_target_squarediamonds.svg	stimuli_distractor_trianglediamonds.svg	5	yes	57	0	1038	6	1	antiphase_hc_iso.wav	2	6	5	noise_calib_stim_RIGHT.wav	2	11	blb_dichoticlistening_da-pa.mp3	da	pa	1	right
6.6.1	win	2023-07-06	22:16:12	22:27:33	673031	56d7623f04c67d000c7b9de6	2	1	practice_z	22	practice_z	11	stimuli_distractor_trianglediamonds.svg	stimuli_target_diamondrectangles.svg	12	yes	44	1	802	6	1	antiphase_hc_iso.wav	2	6	5	noise_calib_stim_RIGHT.wav	2	11	blb_dichoticlistening_da-pa.mp3	da	pa	1	right
6.6.1	win	2023-07-06	22:16:12	22:27:33	673031	56d7623f04c67d000c7b9de6	2	1	practice_z	22	advance_on_keypress_ZEE	12	stimuli_distractor_trianglediamonds.svg	stimuli_target_diamondrectangles.svg	12	yes	57	0	955	6	1	antiphase_hc_iso.wav	2	6	5	noise_calib_stim_RIGHT.wav	2	11	blb_dichoticlistening_da-pa.mp3	da	pa	1	right
6.6.1	win	2023-07-06	22:16:12	22:27:37	677626	56d7623f04c67d000c7b9de6	2	1	practice_z	22	practice_z	13	stimuli_distractor_trianglediamonds.svg	stimuli_distractor_diamondtriangles.svg	16	no	0	1	2000	6	1	antiphase_hc_iso.wav	2	6	5	noise_calib_stim_RIGHT.wav	2	11	blb_dichoticlistening_da-pa.mp3	da	pa	1	right
6.6.1	win	2023-07-06	22:16:12	22:27:37	677626	56d7623f04c67d000c7b9de6	2	1	practice_z	22	advance_on_keypress_ZEE	14	stimuli_distractor_trianglediamonds.svg	stimuli_distractor_diamondtriangles.svg	16	no	57	0	1161	6	1	antiphase_hc_iso.wav	2	6	5	noise_calib_stim_RIGHT.wav	2	11	blb_dichoticlistening_da-pa.mp3	da	pa	1	right
6.6.1	win	2023-07-06	22:16:12	22:27:41	681048	56d7623f04c67d000c7b9de6	2	1	practice_z	22	practice_z	15	stimuli_distractor_trianglediamonds.svg	stimuli_target_rectanglediamonds.svg	10	yes	44	1	611	6	1	antiphase_hc_iso.wav	2	6	5	noise_calib_stim_RIGHT.wav	2	11	blb_dichoticlistening_da-pa.mp3	da	pa	1	right
6.6.1	win	2023-07-06	22:16:12	22:27:41	681048	56d7623f04c67d000c7b9de6	2	1	practice_z	22	advance_on_keypress_ZEE	16	stimuli_distractor_trianglediamonds.svg	stimuli_target_rectanglediamonds.svg	10	yes	57	0	851	6	1	antiphase_hc_iso.wav	2	6	5	noise_calib_stim_RIGHT.wav	2	11	blb_dichoticlistening_da-pa.mp3	da	pa	1	right
6.6.1	win	2023-07-06	22:16:12	22:27:44	684189	56d7623f04c67d000c7b9de6	2	1	practice_z	22	practice_z	17	stimuli_distractor_diamondtriangles.svg	stimuli_target_rectangletriangles.svg	7	yes	44	1	622	6	1	antiphase_hc_iso.wav	2	6	5	noise_calib_stim_RIGHT.wav	2	11	blb_dichoticlistening_da-pa.mp3	da	pa	1	right
6.6.1	win	2023-07-06	22:16:12	22:27:44	684189	56d7623f04c67d000c7b9de6	2	1	practice_z	22	advance_on_keypress_ZEE	18	stimuli_distractor_diamondtriangles.svg	stimuli_target_rectangletriangles.svg	7	yes	57	0	592	6	1	antiphase_hc_iso.wav	2	6	5	noise_calib_stim_RIGHT.wav	2	11	blb_dichoticlistening_da-pa.mp3	da	pa	1	right
6.6.1	win	2023-07-06	22:16:12	22:27:47	687131	56d7623f04c67d000c7b9de6	2	1	practice_z	22	practice_z	19	stimuli_distractor_diamondtriangles.svg	stimuli_target_trianglerectangles.svg	9	yes	44	1	698	6	1	antiphase_hc_iso.wav	2	6	5	noise_calib_stim_RIGHT.wav	2	11	blb_dichoticlistening_da-pa.mp3	da	pa	1	right
6.6.1	win	2023-07-06	22:16:12	22:27:47	687131	56d7623f04c67d000c7b9de6	2	1	practice_z	22	advance_on_keypress_ZEE	20	stimuli_distractor_diamondtriangles.svg	stimuli_target_trianglerectangles.svg	9	yes	57	0	469	6	1	antiphase_hc_iso.wav	2	6	5	noise_calib_stim_RIGHT.wav	2	11	blb_dichoticlistening_da-pa.mp3	da	pa	1	right
6.6.1	win	2023-07-06	22:16:12	22:27:50	689965	56d7623f04c67d000c7b9de6	2	1	practice_z	22	practice_z	21	stimuli_target_diamondsquares.svg	stimuli_distractor_trianglediamonds.svg	6	yes	44	1	703	6	1	antiphase_hc_iso.wav	2	6	5	noise_calib_stim_RIGHT.wav	2	11	blb_dichoticlistening_da-pa.mp3	da	pa	1	right
6.6.1	win	2023-07-06	22:16:12	22:27:50	689965	56d7623f04c67d000c7b9de6	2	1	practice_z	22	advance_on_keypress_ZEE	22	stimuli_target_diamondsquares.svg	stimuli_distractor_trianglediamonds.svg	6	yes	57	0	620	6	1	antiphase_hc_iso.wav	2	6	5	noise_calib_stim_RIGHT.wav	2	11	blb_dichoticlistening_da-pa.mp3	da	pa	1	right
6.6.1	win	2023-07-06	22:16:12	22:27:53	692876	56d7623f04c67d000c7b9de6	2	1	practice_z	22	practice_z	23	stimuli_distractor_trianglediamonds.svg	stimuli_target_squarediamonds.svg	11	yes	44	1	649	6	1	antiphase_hc_iso.wav	2	6	5	noise_calib_stim_RIGHT.wav	2	11	blb_dichoticlistening_da-pa.mp3	da	pa	1	right
6.6.1	win	2023-07-06	22:16:12	22:27:53	692876	56d7623f04c67d000c7b9de6	2	1	practice_z	22	advance_on_keypress_ZEE	24	stimuli_distractor_trianglediamonds.svg	stimuli_target_squarediamonds.svg	11	yes	57	0	395	6	1	antiphase_hc_iso.wav	2	6	5	noise_calib_stim_RIGHT.wav	2	11	blb_dichoticlistening_da-pa.mp3	da	pa	1	right
6.6.1	win	2023-07-06	22:16:12	22:27:57	696923	56d7623f04c67d000c7b9de6	2	1	practice_z	22	practice_z	25	stimuli_distractor_trianglediamonds.svg	stimuli_distractor_trianglediamonds.svg	15	no	0	1	2000	6	1	antiphase_hc_iso.wav	2	6	5	noise_calib_stim_RIGHT.wav	2	11	blb_dichoticlistening_da-pa.mp3	da	pa	1	right
6.6.1	win	2023-07-06	22:16:12	22:27:57	696923	56d7623f04c67d000c7b9de6	2	1	practice_z	22	advance_on_keypress_ZEE	26	stimuli_distractor_trianglediamonds.svg	stimuli_distractor_trianglediamonds.svg	15	no	57	0	505	6	1	antiphase_hc_iso.wav	2	6	5	noise_calib_stim_RIGHT.wav	2	11	blb_dichoticlistening_da-pa.mp3	da	pa	1	right
6.6.1	win	2023-07-06	22:16:12	22:27:59	699663	56d7623f04c67d000c7b9de6	2	1	practice_z	22	practice_z	27	stimuli_target_squarediamonds.svg	stimuli_distractor_diamondtriangles.svg	2	yes	44	1	595	6	1	antiphase_hc_iso.wav	2	6	5	noise_calib_stim_RIGHT.wav	2	11	blb_dichoticlistening_da-pa.mp3	da	pa	1	right
6.6.1	win	2023-07-06	22:16:12	22:27:59	699663	56d7623f04c67d000c7b9de6	2	1	practice_z	22	advance_on_keypress_ZEE	28	stimuli_target_squarediamonds.svg	stimuli_distractor_diamondtriangles.svg	2	yes	57	0	555	6	1	antiphase_hc_iso.wav	2	6	5	noise_calib_stim_RIGHT.wav	2	11	blb_dichoticlistening_da-pa.mp3	da	pa	1	right
6.6.1	win	2023-07-06	22:16:12	22:28:04	703867	56d7623f04c67d000c7b9de6	2	1	practice_z	22	practice_z	29	stimuli_target_diamondsquares.svg	stimuli_distractor_diamondtriangles.svg	3	yes	0	0	2000	6	1	antiphase_hc_iso.wav	2	6	5	noise_calib_stim_RIGHT.wav	2	11	blb_dichoticlistening_da-pa.mp3	da	pa	1	right
6.6.1	win	2023-07-06	22:16:12	22:28:04	703867	56d7623f04c67d000c7b9de6	2	1	practice_z	22	advance_on_keypress_ZEE	30	stimuli_target_diamondsquares.svg	stimuli_distractor_diamondtriangles.svg	3	yes	57	0	655	6	1	antiphase_hc_iso.wav	2	6	5	noise_calib_stim_RIGHT.wav	2	11	blb_dichoticlistening_da-pa.mp3	da	pa	1	right
6.6.1	win	2023-07-06	22:16:12	22:28:06	706508	56d7623f04c67d000c7b9de6	2	1	practice_z	22	practice_z	31	stimuli_target_rectanglediamonds.svg	stimuli_distractor_trianglediamonds.svg	4	yes	44	1	346	6	1	antiphase_hc_iso.wav	2	6	5	noise_calib_stim_RIGHT.wav	2	11	blb_dichoticlistening_da-pa.mp3	da	pa	1	right
6.6.1	win	2023-07-06	22:16:12	22:28:06	706508	56d7623f04c67d000c7b9de6	2	1	practice_z	22	advance_on_keypress_ZEE	32	stimuli_target_rectanglediamonds.svg	stimuli_distractor_trianglediamonds.svg	4	yes	57	0	656	6	1	antiphase_hc_iso.wav	2	6	5	noise_calib_stim_RIGHT.wav	2	11	blb_dichoticlistening_da-pa.mp3	da	pa	1	right
6.6.1	win	2023-07-06	22:16:12	22:28:19	718906	56d7623f04c67d000c7b9de6	2	1	main_z	24	main_z	1	stimuli_target_trianglerectangles.svg	stimuli_distractor_trianglediamonds.svg	17	yes	44	1	559	6	1	antiphase_hc_iso.wav	2	6	5	noise_calib_stim_RIGHT.wav	2	11	blb_dichoticlistening_da-pa.mp3	da	pa	1	right
6.6.1	win	2023-07-06	22:16:12	22:28:19	718906	56d7623f04c67d000c7b9de6	2	1	main_z	24	advance_on_keypress_ZEE	2	stimuli_target_trianglerectangles.svg	stimuli_distractor_trianglediamonds.svg	17	yes	57	0	1633	6	1	antiphase_hc_iso.wav	2	6	5	noise_calib_stim_RIGHT.wav	2	11	blb_dichoticlistening_da-pa.mp3	da	pa	1	right
6.6.1	win	2023-07-06	22:16:12	22:28:21	721755	56d7623f04c67d000c7b9de6	2	1	main_z	24	main_z	3	stimuli_target_diamondrectangles.svg	stimuli_distractor_diamondtriangles.svg	23	yes	44	1	561	6	1	antiphase_hc_iso.wav	2	6	5	noise_calib_stim_RIGHT.wav	2	11	blb_dichoticlistening_da-pa.mp3	da	pa	1	right
6.6.1	win	2023-07-06	22:16:12	22:28:21	721755	56d7623f04c67d000c7b9de6	2	1	main_z	24	advance_on_keypress_ZEE	4	stimuli_target_diamondrectangles.svg	stimuli_distractor_diamondtriangles.svg	23	yes	57	0	2027	6	1	antiphase_hc_iso.wav	2	6	5	noise_calib_stim_RIGHT.wav	2	11	blb_dichoticlistening_da-pa.mp3	da	pa	1	right
6.6.1	win	2023-07-06	22:16:12	22:28:26	726440	56d7623f04c67d000c7b9de6	2	1	main_z	24	main_z	5	stimuli_distractor_trianglediamonds.svg	stimuli_distractor_diamondtriangles.svg	35	no	0	1	2000	6	1	antiphase_hc_iso.wav	2	6	5	noise_calib_stim_RIGHT.wav	2	11	blb_dichoticlistening_da-pa.mp3	da	pa	1	right
6.6.1	win	2023-07-06	22:16:12	22:28:26	726440	56d7623f04c67d000c7b9de6	2	1	main_z	24	advance_on_keypress_ZEE	6	stimuli_distractor_trianglediamonds.svg	stimuli_distractor_diamondtriangles.svg	35	no	57	0	926	6	1	antiphase_hc_iso.wav	2	6	5	noise_calib_stim_RIGHT.wav	2	11	blb_dichoticlistening_da-pa.mp3	da	pa	1	right
6.6.1	win	2023-07-06	22:16:12	22:28:28	728570	56d7623f04c67d000c7b9de6	2	1	main_z	24	main_z	7	stimuli_target_diamondsquares.svg	stimuli_distractor_diamondtriangles.svg	24	yes	44	1	566	6	1	antiphase_hc_iso.wav	2	6	5	noise_calib_stim_RIGHT.wav	2	11	blb_dichoticlistening_da-pa.mp3	da	pa	1	right
6.6.1	win	2023-07-06	22:16:12	22:28:28	728570	56d7623f04c67d000c7b9de6	2	1	main_z	24	advance_on_keypress_ZEE	8	stimuli_target_diamondsquares.svg	stimuli_distractor_diamondtriangles.svg	24	yes	57	0	1483	6	1	antiphase_hc_iso.wav	2	6	5	noise_calib_stim_RIGHT.wav	2	11	blb_dichoticlistening_da-pa.mp3	da	pa	1	right
6.6.1	win	2023-07-06	22:16:12	22:28:31	731309	56d7623f04c67d000c7b9de6	2	1	main_z	24	main_z	9	stimuli_target_trianglesquares.svg	stimuli_distractor_diamondtriangles.svg	22	yes	44	1	608	6	1	antiphase_hc_iso.wav	2	6	5	noise_calib_stim_RIGHT.wav	2	11	blb_dichoticlistening_da-pa.mp3	da	pa	1	right
6.6.1	win	2023-07-06	22:16:12	22:28:31	731309	56d7623f04c67d000c7b9de6	2	1	main_z	24	advance_on_keypress_ZEE	10	stimuli_target_trianglesquares.svg	stimuli_distractor_diamondtriangles.svg	22	yes	57	0	1318	6	1	antiphase_hc_iso.wav	2	6	5	noise_calib_stim_RIGHT.wav	2	11	blb_dichoticlistening_da-pa.mp3	da	pa	1	right
6.6.1	win	2023-07-06	22:16:12	22:28:34	733883	56d7623f04c67d000c7b9de6	2	1	main_z	24	main_z	11	stimuli_target_squaretriangles.svg	stimuli_distractor_diamondtriangles.svg	7	yes	44	1	618	6	1	antiphase_hc_iso.wav	2	6	5	noise_calib_stim_RIGHT.wav	2	11	blb_dichoticlistening_da-pa.mp3	da	pa	1	right
6.6.1	win	2023-07-06	22:16:12	22:28:34	733883	56d7623f04c67d000c7b9de6	2	1	main_z	24	advance_on_keypress_ZEE	12	stimuli_target_squaretriangles.svg	stimuli_distractor_diamondtriangles.svg	7	yes	57	0	964	6	1	antiphase_hc_iso.wav	2	6	5	noise_calib_stim_RIGHT.wav	2	11	blb_dichoticlistening_da-pa.mp3	da	pa	1	right
6.6.1	win	2023-07-06	22:16:12	22:28:37	737496	56d7623f04c67d000c7b9de6	2	1	main_z	24	main_z	13	stimuli_distractor_diamondtriangles.svg	stimuli_distractor_diamondtriangles.svg	39	no	0	1	2000	6	1	antiphase_hc_iso.wav	2	6	5	noise_calib_stim_RIGHT.wav	2	11	blb_dichoticlistening_da-pa.mp3	da	pa	1	right
6.6.1	win	2023-07-06	22:16:12	22:28:37	737496	56d7623f04c67d000c7b9de6	2	1	main_z	24	advance_on_keypress_ZEE	14	stimuli_distractor_diamondtriangles.svg	stimuli_distractor_diamondtriangles.svg	39	no	57	0	778	6	1	antiphase_hc_iso.wav	2	6	5	noise_calib_stim_RIGHT.wav	2	11	blb_dichoticlistening_da-pa.mp3	da	pa	1	right
6.6.1	win	2023-07-06	22:16:12	22:28:39	739412	56d7623f04c67d000c7b9de6	2	1	main_z	24	main_z	15	stimuli_distractor_diamondtriangles.svg	stimuli_target_trianglerectangles.svg	29	yes	44	1	486	6	1	antiphase_hc_iso.wav	2	6	5	noise_calib_stim_RIGHT.wav	2	11	blb_dichoticlistening_da-pa.mp3	da	pa	1	right
6.6.1	win	2023-07-06	22:16:12	22:28:39	739412	56d7623f04c67d000c7b9de6	2	1	main_z	24	advance_on_keypress_ZEE	16	stimuli_distractor_diamondtriangles.svg	stimuli_target_trianglerectangles.svg	29	yes	57	0	1432	6	1	antiphase_hc_iso.wav	2	6	5	noise_calib_stim_RIGHT.wav	2	11	blb_dichoticlistening_da-pa.mp3	da	pa	1	right
6.6.1	win	2023-07-06	22:16:12	22:28:42	742151	56d7623f04c67d000c7b9de6	2	1	main_z	24	main_z	17	stimuli_target_rectangletriangles.svg	stimuli_distractor_diamondtriangles.svg	5	yes	44	1	661	6	1	antiphase_hc_iso.wav	2	6	5	noise_calib_stim_RIGHT.wav	2	11	blb_dichoticlistening_da-pa.mp3	da	pa	1	right
6.6.1	win	2023-07-06	22:16:12	22:28:42	742151	56d7623f04c67d000c7b9de6	2	1	main_z	24	advance_on_keypress_ZEE	18	stimuli_target_rectangletriangles.svg	stimuli_distractor_diamondtriangles.svg	5	yes	57	0	1319	6	1	antiphase_hc_iso.wav	2	6	5	noise_calib_stim_RIGHT.wav	2	11	blb_dichoticlistening_da-pa.mp3	da	pa	1	right
6.6.1	win	2023-07-06	22:16:12	22:28:44	744782	56d7623f04c67d000c7b9de6	2	1	main_z	24	main_z	19	stimuli_distractor_trianglediamonds.svg	stimuli_target_trianglesquares.svg	26	yes	44	1	659	6	1	antiphase_hc_iso.wav	2	6	5	noise_calib_stim_RIGHT.wav	2	11	blb_dichoticlistening_da-pa.mp3	da	pa	1	right
6.6.1	win	2023-07-06	22:16:12	22:28:44	744782	56d7623f04c67d000c7b9de6	2	1	main_z	24	advance_on_keypress_ZEE	20	stimuli_distractor_trianglediamonds.svg	stimuli_target_trianglesquares.svg	26	yes	57	0	1443	6	1	antiphase_hc_iso.wav	2	6	5	noise_calib_stim_RIGHT.wav	2	11	blb_dichoticlistening_da-pa.mp3	da	pa	1	right
6.6.1	win	2023-07-06	22:16:12	22:28:49	748869	56d7623f04c67d000c7b9de6	2	1	main_z	24	main_z	21	stimuli_distractor_trianglediamonds.svg	stimuli_target_squaretriangles.svg	11	yes	0	0	2000	6	1	antiphase_hc_iso.wav	2	6	5	noise_calib_stim_RIGHT.wav	2	11	blb_dichoticlistening_da-pa.mp3	da	pa	1	right
6.6.1	win	2023-07-06	22:16:12	22:28:49	748869	56d7623f04c67d000c7b9de6	2	1	main_z	24	advance_on_keypress_ZEE	22	stimuli_distractor_trianglediamonds.svg	stimuli_target_squaretriangles.svg	11	yes	57	0	955	6	1	antiphase_hc_iso.wav	2	6	5	noise_calib_stim_RIGHT.wav	2	11	blb_dichoticlistening_da-pa.mp3	da	pa	1	right
6.6.1	win	2023-07-06	22:16:12	22:28:51	751228	56d7623f04c67d000c7b9de6	2	1	main_z	24	main_z	23	stimuli_target_squarediamonds.svg	stimuli_distractor_diamondtriangles.svg	8	yes	44	1	763	6	1	antiphase_hc_iso.wav	2	6	5	noise_calib_stim_RIGHT.wav	2	11	blb_dichoticlistening_da-pa.mp3	da	pa	1	right
6.6.1	win	2023-07-06	22:16:12	22:28:51	751228	56d7623f04c67d000c7b9de6	2	1	main_z	24	advance_on_keypress_ZEE	24	stimuli_target_squarediamonds.svg	stimuli_distractor_diamondtriangles.svg	8	yes	57	0	1182	6	1	antiphase_hc_iso.wav	2	6	5	noise_calib_stim_RIGHT.wav	2	11	blb_dichoticlistening_da-pa.mp3	da	pa	1	right
6.6.1	win	2023-07-06	22:16:12	22:28:55	754886	56d7623f04c67d000c7b9de6	2	1	main_z	24	main_z	25	stimuli_distractor_trianglediamonds.svg	stimuli_distractor_trianglediamonds.svg	33	no	44	0	1824	6	1	antiphase_hc_iso.wav	2	6	5	noise_calib_stim_RIGHT.wav	2	11	blb_dichoticlistening_da-pa.mp3	da	pa	1	right
6.6.1	win	2023-07-06	22:16:12	22:28:55	754886	56d7623f04c67d000c7b9de6	2	1	main_z	24	advance_on_keypress_ZEE	26	stimuli_distractor_trianglediamonds.svg	stimuli_distractor_trianglediamonds.svg	33	no	57	0	1958	6	1	antiphase_hc_iso.wav	2	6	5	noise_calib_stim_RIGHT.wav	2	11	blb_dichoticlistening_da-pa.mp3	da	pa	1	right
6.6.1	win	2023-07-06	22:16:12	22:28:59	759475	56d7623f04c67d000c7b9de6	2	1	main_z	24	main_z	27	stimuli_distractor_trianglediamonds.svg	stimuli_distractor_diamondtriangles.svg	36	no	0	1	2000	6	1	antiphase_hc_iso.wav	2	6	5	noise_calib_stim_RIGHT.wav	2	11	blb_dichoticlistening_da-pa.mp3	da	pa	1	right
6.6.1	win	2023-07-06	22:16:12	22:28:59	759475	56d7623f04c67d000c7b9de6	2	1	main_z	24	advance_on_keypress_ZEE	28	stimuli_distractor_trianglediamonds.svg	stimuli_distractor_diamondtriangles.svg	36	no	57	0	660	6	1	antiphase_hc_iso.wav	2	6	5	noise_calib_stim_RIGHT.wav	2	11	blb_dichoticlistening_da-pa.mp3	da	pa	1	right
6.6.1	win	2023-07-06	22:16:12	22:29:01	761183	56d7623f04c67d000c7b9de6	2	1	main_z	24	main_z	29	stimuli_target_trianglesquares.svg	stimuli_distractor_trianglediamonds.svg	18	yes	44	1	412	6	1	antiphase_hc_iso.wav	2	6	5	noise_calib_stim_RIGHT.wav	2	11	blb_dichoticlistening_da-pa.mp3	da	pa	1	right
6.6.1	win	2023-07-06	22:16:12	22:29:01	761183	56d7623f04c67d000c7b9de6	2	1	main_z	24	advance_on_keypress_ZEE	30	stimuli_target_trianglesquares.svg	stimuli_distractor_trianglediamonds.svg	18	yes	57	0	1383	6	1	antiphase_hc_iso.wav	2	6	5	noise_calib_stim_RIGHT.wav	2	11	blb_dichoticlistening_da-pa.mp3	da	pa	1	right
6.6.1	win	2023-07-06	22:16:12	22:29:03	763807	56d7623f04c67d000c7b9de6	2	1	main_z	24	main_z	31	stimuli_distractor_diamondtriangles.svg	stimuli_target_rectanglediamonds.svg	14	yes	44	1	588	6	1	antiphase_hc_iso.wav	2	6	5	noise_calib_stim_RIGHT.wav	2	11	blb_dichoticlistening_da-pa.mp3	da	pa	1	right
6.6.1	win	2023-07-06	22:16:12	22:29:03	763807	56d7623f04c67d000c7b9de6	2	1	main_z	24	advance_on_keypress_ZEE	32	stimuli_distractor_diamondtriangles.svg	stimuli_target_rectanglediamonds.svg	14	yes	57	0	1163	6	1	antiphase_hc_iso.wav	2	6	5	noise_calib_stim_RIGHT.wav	2	11	blb_dichoticlistening_da-pa.mp3	da	pa	1	right
6.6.1	win	2023-07-06	22:16:12	22:29:06	766175	56d7623f04c67d000c7b9de6	2	1	main_z	24	main_z	33	stimuli_target_rectanglediamonds.svg	stimuli_distractor_trianglediamonds.svg	2	yes	44	1	558	6	1	antiphase_hc_iso.wav	2	6	5	noise_calib_stim_RIGHT.wav	2	11	blb_dichoticlistening_da-pa.mp3	da	pa	1	right
6.6.1	win	2023-07-06	22:16:12	22:29:06	766175	56d7623f04c67d000c7b9de6	2	1	main_z	24	advance_on_keypress_ZEE	34	stimuli_target_rectanglediamonds.svg	stimuli_distractor_trianglediamonds.svg	2	yes	57	0	971	6	1	antiphase_hc_iso.wav	2	6	5	noise_calib_stim_RIGHT.wav	2	11	blb_dichoticlistening_da-pa.mp3	da	pa	1	right
6.6.1	win	2023-07-06	22:16:12	22:29:08	768428	56d7623f04c67d000c7b9de6	2	1	main_z	24	main_z	35	stimuli_target_diamondrectangles.svg	stimuli_distractor_trianglediamonds.svg	19	yes	44	1	647	6	1	antiphase_hc_iso.wav	2	6	5	noise_calib_stim_RIGHT.wav	2	11	blb_dichoticlistening_da-pa.mp3	da	pa	1	right
6.6.1	win	2023-07-06	22:16:12	22:29:08	768428	56d7623f04c67d000c7b9de6	2	1	main_z	24	advance_on_keypress_ZEE	36	stimuli_target_diamondrectangles.svg	stimuli_distractor_trianglediamonds.svg	19	yes	57	0	934	6	1	antiphase_hc_iso.wav	2	6	5	noise_calib_stim_RIGHT.wav	2	11	blb_dichoticlistening_da-pa.mp3	da	pa	1	right
6.6.1	win	2023-07-06	22:16:12	22:29:11	770841	56d7623f04c67d000c7b9de6	2	1	main_z	24	main_z	37	stimuli_target_squaretriangles.svg	stimuli_distractor_trianglediamonds.svg	3	yes	44	1	829	6	1	antiphase_hc_iso.wav	2	6	5	noise_calib_stim_RIGHT.wav	2	11	blb_dichoticlistening_da-pa.mp3	da	pa	1	right
6.6.1	win	2023-07-06	22:16:12	22:29:11	770841	56d7623f04c67d000c7b9de6	2	1	main_z	24	advance_on_keypress_ZEE	38	stimuli_target_squaretriangles.svg	stimuli_distractor_trianglediamonds.svg	3	yes	57	0	964	6	1	antiphase_hc_iso.wav	2	6	5	noise_calib_stim_RIGHT.wav	2	11	blb_dichoticlistening_da-pa.mp3	da	pa	1	right
6.6.1	win	2023-07-06	22:16:12	22:29:13	773224	56d7623f04c67d000c7b9de6	2	1	main_z	24	main_z	39	stimuli_distractor_diamondtriangles.svg	stimuli_target_rectangletriangles.svg	13	yes	44	1	765	6	1	antiphase_hc_iso.wav	2	6	5	noise_calib_stim_RIGHT.wav	2	11	blb_dichoticlistening_da-pa.mp3	da	pa	1	right
6.6.1	win	2023-07-06	22:16:12	22:29:13	773224	56d7623f04c67d000c7b9de6	2	1	main_z	24	advance_on_keypress_ZEE	40	stimuli_distractor_diamondtriangles.svg	stimuli_target_rectangletriangles.svg	13	yes	57	0	816	6	1	antiphase_hc_iso.wav	2	6	5	noise_calib_stim_RIGHT.wav	2	11	blb_dichoticlistening_da-pa.mp3	da	pa	1	right
6.6.1	win	2023-07-06	22:16:12	22:29:15	775302	56d7623f04c67d000c7b9de6	2	1	main_z	24	main_z	41	stimuli_target_trianglerectangles.svg	stimuli_distractor_diamondtriangles.svg	21	yes	44	1	611	6	1	antiphase_hc_iso.wav	2	6	5	noise_calib_stim_RIGHT.wav	2	11	blb_dichoticlistening_da-pa.mp3	da	pa	1	right
6.6.1	win	2023-07-06	22:16:12	22:29:15	775302	56d7623f04c67d000c7b9de6	2	1	main_z	24	advance_on_keypress_ZEE	42	stimuli_target_trianglerectangles.svg	stimuli_distractor_diamondtriangles.svg	21	yes	57	0	725	6	1	antiphase_hc_iso.wav	2	6	5	noise_calib_stim_RIGHT.wav	2	11	blb_dichoticlistening_da-pa.mp3	da	pa	1	right
6.6.1	win	2023-07-06	22:16:12	22:29:17	777444	56d7623f04c67d000c7b9de6	2	1	main_z	24	main_z	43	stimuli_target_rectanglediamonds.svg	stimuli_distractor_diamondtriangles.svg	6	yes	44	1	771	6	1	antiphase_hc_iso.wav	2	6	5	noise_calib_stim_RIGHT.wav	2	11	blb_dichoticlistening_da-pa.mp3	da	pa	1	right
6.6.1	win	2023-07-06	22:16:12	22:29:17	777444	56d7623f04c67d000c7b9de6	2	1	main_z	24	advance_on_keypress_ZEE	44	stimuli_target_rectanglediamonds.svg	stimuli_distractor_diamondtriangles.svg	6	yes	57	0	822	6	1	antiphase_hc_iso.wav	2	6	5	noise_calib_stim_RIGHT.wav	2	11	blb_dichoticlistening_da-pa.mp3	da	pa	1	right
6.6.1	win	2023-07-06	22:16:12	22:29:19	779733	56d7623f04c67d000c7b9de6	2	1	main_z	24	main_z	45	stimuli_target_squarediamonds.svg	stimuli_distractor_trianglediamonds.svg	4	yes	44	1	829	6	1	antiphase_hc_iso.wav	2	6	5	noise_calib_stim_RIGHT.wav	2	11	blb_dichoticlistening_da-pa.mp3	da	pa	1	right
6.6.1	win	2023-07-06	22:16:12	22:29:19	779733	56d7623f04c67d000c7b9de6	2	1	main_z	24	advance_on_keypress_ZEE	46	stimuli_target_squarediamonds.svg	stimuli_distractor_trianglediamonds.svg	4	yes	57	0	653	6	1	antiphase_hc_iso.wav	2	6	5	noise_calib_stim_RIGHT.wav	2	11	blb_dichoticlistening_da-pa.mp3	da	pa	1	right
6.6.1	win	2023-07-06	22:16:12	22:29:23	783035	56d7623f04c67d000c7b9de6	2	1	main_z	24	main_z	47	stimuli_distractor_trianglediamonds.svg	stimuli_distractor_trianglediamonds.svg	34	no	0	1	2000	6	1	antiphase_hc_iso.wav	2	6	5	noise_calib_stim_RIGHT.wav	2	11	blb_dichoticlistening_da-pa.mp3	da	pa	1	right
6.6.1	win	2023-07-06	22:16:12	22:29:23	783035	56d7623f04c67d000c7b9de6	2	1	main_z	24	advance_on_keypress_ZEE	48	stimuli_distractor_trianglediamonds.svg	stimuli_distractor_trianglediamonds.svg	34	no	57	0	783	6	1	antiphase_hc_iso.wav	2	6	5	noise_calib_stim_RIGHT.wav	2	11	blb_dichoticlistening_da-pa.mp3	da	pa	1	right
6.6.1	win	2023-07-06	22:16:12	22:29:25	785015	56d7623f04c67d000c7b9de6	2	1	main_z	24	main_z	49	stimuli_distractor_trianglediamonds.svg	stimuli_target_rectangletriangles.svg	9	yes	44	1	551	6	1	antiphase_hc_iso.wav	2	6	5	noise_calib_stim_RIGHT.wav	2	11	blb_dichoticlistening_da-pa.mp3	da	pa	1	right
6.6.1	win	2023-07-06	22:16:12	22:29:25	785015	56d7623f04c67d000c7b9de6	2	1	main_z	24	advance_on_keypress_ZEE	50	stimuli_distractor_trianglediamonds.svg	stimuli_target_rectangletriangles.svg	9	yes	57	0	783	6	1	antiphase_hc_iso.wav	2	6	5	noise_calib_stim_RIGHT.wav	2	11	blb_dichoticlistening_da-pa.mp3	da	pa	1	right
6.6.1	win	2023-07-06	22:16:12	22:29:27	787017	56d7623f04c67d000c7b9de6	2	1	main_z	24	main_z	51	stimuli_distractor_trianglediamonds.svg	stimuli_target_rectanglediamonds.svg	10	yes	44	1	571	6	1	antiphase_hc_iso.wav	2	6	5	noise_calib_stim_RIGHT.wav	2	11	blb_dichoticlistening_da-pa.mp3	da	pa	1	right
6.6.1	win	2023-07-06	22:16:12	22:29:27	787017	56d7623f04c67d000c7b9de6	2	1	main_z	24	advance_on_keypress_ZEE	52	stimuli_distractor_trianglediamonds.svg	stimuli_target_rectanglediamonds.svg	10	yes	57	0	717	6	1	antiphase_hc_iso.wav	2	6	5	noise_calib_stim_RIGHT.wav	2	11	blb_dichoticlistening_da-pa.mp3	da	pa	1	right
6.6.1	win	2023-07-06	22:16:12	22:29:30	790379	56d7623f04c67d000c7b9de6	2	1	main_z	24	main_z	53	stimuli_distractor_diamondtriangles.svg	stimuli_target_squaretriangles.svg	15	yes	0	0	2000	6	1	antiphase_hc_iso.wav	2	6	5	noise_calib_stim_RIGHT.wav	2	11	blb_dichoticlistening_da-pa.mp3	da	pa	1	right
6.6.1	win	2023-07-06	22:16:12	22:29:30	790379	56d7623f04c67d000c7b9de6	2	1	main_z	24	advance_on_keypress_ZEE	54	stimuli_distractor_diamondtriangles.svg	stimuli_target_squaretriangles.svg	15	yes	57	0	780	6	1	antiphase_hc_iso.wav	2	6	5	noise_calib_stim_RIGHT.wav	2	11	blb_dichoticlistening_da-pa.mp3	da	pa	1	right
6.6.1	win	2023-07-06	22:16:12	22:29:33	793808	56d7623f04c67d000c7b9de6	2	1	main_z	24	main_z	55	stimuli_distractor_diamondtriangles.svg	stimuli_distractor_diamondtriangles.svg	40	no	0	1	2000	6	1	antiphase_hc_iso.wav	2	6	5	noise_calib_stim_RIGHT.wav	2	11	blb_dichoticlistening_da-pa.mp3	da	pa	1	right
6.6.1	win	2023-07-06	22:16:12	22:29:33	793808	56d7623f04c67d000c7b9de6	2	1	main_z	24	advance_on_keypress_ZEE	56	stimuli_distractor_diamondtriangles.svg	stimuli_distractor_diamondtriangles.svg	40	no	57	0	586	6	1	antiphase_hc_iso.wav	2	6	5	noise_calib_stim_RIGHT.wav	2	11	blb_dichoticlistening_da-pa.mp3	da	pa	1	right
6.6.1	win	2023-07-06	22:16:12	22:29:36	796139	56d7623f04c67d000c7b9de6	2	1	main_z	24	main_z	57	stimuli_distractor_diamondtriangles.svg	stimuli_target_trianglesquares.svg	30	yes	44	1	1101	6	1	antiphase_hc_iso.wav	2	6	5	noise_calib_stim_RIGHT.wav	2	11	blb_dichoticlistening_da-pa.mp3	da	pa	1	right
6.6.1	win	2023-07-06	22:16:12	22:29:36	796139	56d7623f04c67d000c7b9de6	2	1	main_z	24	advance_on_keypress_ZEE	58	stimuli_distractor_diamondtriangles.svg	stimuli_target_trianglesquares.svg	30	yes	57	0	949	6	1	antiphase_hc_iso.wav	2	6	5	noise_calib_stim_RIGHT.wav	2	11	blb_dichoticlistening_da-pa.mp3	da	pa	1	right
6.6.1	win	2023-07-06	22:16:12	22:29:38	798468	56d7623f04c67d000c7b9de6	2	1	main_z	24	main_z	59	stimuli_distractor_trianglediamonds.svg	stimuli_target_diamondrectangles.svg	27	yes	44	1	731	6	1	antiphase_hc_iso.wav	2	6	5	noise_calib_stim_RIGHT.wav	2	11	blb_dichoticlistening_da-pa.mp3	da	pa	1	right
6.6.1	win	2023-07-06	22:16:12	22:29:38	798468	56d7623f04c67d000c7b9de6	2	1	main_z	24	advance_on_keypress_ZEE	60	stimuli_distractor_trianglediamonds.svg	stimuli_target_diamondrectangles.svg	27	yes	57	0	746	6	1	antiphase_hc_iso.wav	2	6	5	noise_calib_stim_RIGHT.wav	2	11	blb_dichoticlistening_da-pa.mp3	da	pa	1	right
6.6.1	win	2023-07-06	22:16:12	22:29:40	800705	56d7623f04c67d000c7b9de6	2	1	main_z	24	main_z	61	stimuli_distractor_trianglediamonds.svg	stimuli_target_trianglerectangles.svg	25	yes	44	1	838	6	1	antiphase_hc_iso.wav	2	6	5	noise_calib_stim_RIGHT.wav	2	11	blb_dichoticlistening_da-pa.mp3	da	pa	1	right
6.6.1	win	2023-07-06	22:16:12	22:29:40	800705	56d7623f04c67d000c7b9de6	2	1	main_z	24	advance_on_keypress_ZEE	62	stimuli_distractor_trianglediamonds.svg	stimuli_target_trianglerectangles.svg	25	yes	57	0	828	6	1	antiphase_hc_iso.wav	2	6	5	noise_calib_stim_RIGHT.wav	2	11	blb_dichoticlistening_da-pa.mp3	da	pa	1	right
6.6.1	win	2023-07-06	22:16:12	22:29:43	803049	56d7623f04c67d000c7b9de6	2	1	main_z	24	main_z	63	stimuli_distractor_diamondtriangles.svg	stimuli_target_squarediamonds.svg	16	yes	44	1	867	6	1	antiphase_hc_iso.wav	2	6	5	noise_calib_stim_RIGHT.wav	2	11	blb_dichoticlistening_da-pa.mp3	da	pa	1	right
6.6.1	win	2023-07-06	22:16:12	22:29:43	803049	56d7623f04c67d000c7b9de6	2	1	main_z	24	advance_on_keypress_ZEE	64	stimuli_distractor_diamondtriangles.svg	stimuli_target_squarediamonds.svg	16	yes	57	0	954	6	1	antiphase_hc_iso.wav	2	6	5	noise_calib_stim_RIGHT.wav	2	11	blb_dichoticlistening_da-pa.mp3	da	pa	1	right
6.6.1	win	2023-07-06	22:16:12	22:29:45	805381	56d7623f04c67d000c7b9de6	2	1	main_z	24	main_z	65	stimuli_distractor_trianglediamonds.svg	stimuli_target_squarediamonds.svg	12	yes	44	1	736	6	1	antiphase_hc_iso.wav	2	6	5	noise_calib_stim_RIGHT.wav	2	11	blb_dichoticlistening_da-pa.mp3	da	pa	1	right
6.6.1	win	2023-07-06	22:16:12	22:29:45	805381	56d7623f04c67d000c7b9de6	2	1	main_z	24	advance_on_keypress_ZEE	66	stimuli_distractor_trianglediamonds.svg	stimuli_target_squarediamonds.svg	12	yes	57	0	810	6	1	antiphase_hc_iso.wav	2	6	5	noise_calib_stim_RIGHT.wav	2	11	blb_dichoticlistening_da-pa.mp3	da	pa	1	right
6.6.1	win	2023-07-06	22:16:12	22:29:47	807564	56d7623f04c67d000c7b9de6	2	1	main_z	24	main_z	67	stimuli_distractor_diamondtriangles.svg	stimuli_target_diamondrectangles.svg	31	yes	44	1	721	6	1	antiphase_hc_iso.wav	2	6	5	noise_calib_stim_RIGHT.wav	2	11	blb_dichoticlistening_da-pa.mp3	da	pa	1	right
6.6.1	win	2023-07-06	22:16:12	22:29:47	807564	56d7623f04c67d000c7b9de6	2	1	main_z	24	advance_on_keypress_ZEE	68	stimuli_distractor_diamondtriangles.svg	stimuli_target_diamondrectangles.svg	31	yes	57	0	727	6	1	antiphase_hc_iso.wav	2	6	5	noise_calib_stim_RIGHT.wav	2	11	blb_dichoticlistening_da-pa.mp3	da	pa	1	right
6.6.1	win	2023-07-06	22:16:12	22:29:49	809772	56d7623f04c67d000c7b9de6	2	1	main_z	24	main_z	69	stimuli_distractor_trianglediamonds.svg	stimuli_target_diamondsquares.svg	28	yes	44	1	831	6	1	antiphase_hc_iso.wav	2	6	5	noise_calib_stim_RIGHT.wav	2	11	blb_dichoticlistening_da-pa.mp3	da	pa	1	right
6.6.1	win	2023-07-06	22:16:12	22:29:49	809772	56d7623f04c67d000c7b9de6	2	1	main_z	24	advance_on_keypress_ZEE	70	stimuli_distractor_trianglediamonds.svg	stimuli_target_diamondsquares.svg	28	yes	57	0	674	6	1	antiphase_hc_iso.wav	2	6	5	noise_calib_stim_RIGHT.wav	2	11	blb_dichoticlistening_da-pa.mp3	da	pa	1	right
6.6.1	win	2023-07-06	22:16:12	22:29:52	811964	56d7623f04c67d000c7b9de6	2	1	main_z	24	main_z	71	stimuli_distractor_diamondtriangles.svg	stimuli_target_diamondsquares.svg	32	yes	44	1	875	6	1	antiphase_hc_iso.wav	2	6	5	noise_calib_stim_RIGHT.wav	2	11	blb_dichoticlistening_da-pa.mp3	da	pa	1	right
6.6.1	win	2023-07-06	22:16:12	22:29:52	811964	56d7623f04c67d000c7b9de6	2	1	main_z	24	advance_on_keypress_ZEE	72	stimuli_distractor_diamondtriangles.svg	stimuli_target_diamondsquares.svg	32	yes	57	0	686	6	1	antiphase_hc_iso.wav	2	6	5	noise_calib_stim_RIGHT.wav	2	11	blb_dichoticlistening_da-pa.mp3	da	pa	1	right
6.6.1	win	2023-07-06	22:16:12	22:29:54	814428	56d7623f04c67d000c7b9de6	2	1	main_z	24	main_z	73	stimuli_distractor_diamondtriangles.svg	stimuli_distractor_trianglediamonds.svg	37	no	44	0	1141	6	1	antiphase_hc_iso.wav	2	6	5	noise_calib_stim_RIGHT.wav	2	11	blb_dichoticlistening_da-pa.mp3	da	pa	1	right
6.6.1	win	2023-07-06	22:16:12	22:29:54	814428	56d7623f04c67d000c7b9de6	2	1	main_z	24	advance_on_keypress_ZEE	74	stimuli_distractor_diamondtriangles.svg	stimuli_distractor_trianglediamonds.svg	37	no	57	0	771	6	1	antiphase_hc_iso.wav	2	6	5	noise_calib_stim_RIGHT.wav	2	11	blb_dichoticlistening_da-pa.mp3	da	pa	1	right
6.6.1	win	2023-07-06	22:16:12	22:29:58	817834	56d7623f04c67d000c7b9de6	2	1	main_z	24	main_z	75	stimuli_distractor_diamondtriangles.svg	stimuli_distractor_trianglediamonds.svg	38	no	0	1	2000	6	1	antiphase_hc_iso.wav	2	6	5	noise_calib_stim_RIGHT.wav	2	11	blb_dichoticlistening_da-pa.mp3	da	pa	1	right
6.6.1	win	2023-07-06	22:16:12	22:29:58	817834	56d7623f04c67d000c7b9de6	2	1	main_z	24	advance_on_keypress_ZEE	76	stimuli_distractor_diamondtriangles.svg	stimuli_distractor_trianglediamonds.svg	38	no	57	0	870	6	1	antiphase_hc_iso.wav	2	6	5	noise_calib_stim_RIGHT.wav	2	11	blb_dichoticlistening_da-pa.mp3	da	pa	1	right
6.6.1	win	2023-07-06	22:16:12	22:30:00	819948	56d7623f04c67d000c7b9de6	2	1	main_z	24	main_z	77	stimuli_target_diamondsquares.svg	stimuli_distractor_trianglediamonds.svg	20	yes	44	1	600	6	1	antiphase_hc_iso.wav	2	6	5	noise_calib_stim_RIGHT.wav	2	11	blb_dichoticlistening_da-pa.mp3	da	pa	1	right
6.6.1	win	2023-07-06	22:16:12	22:30:00	819948	56d7623f04c67d000c7b9de6	2	1	main_z	24	advance_on_keypress_ZEE	78	stimuli_target_diamondsquares.svg	stimuli_distractor_trianglediamonds.svg	20	yes	57	0	827	6	1	antiphase_hc_iso.wav	2	6	5	noise_calib_stim_RIGHT.wav	2	11	blb_dichoticlistening_da-pa.mp3	da	pa	1	right
6.6.1	win	2023-07-06	22:16:12	22:30:02	822260	56d7623f04c67d000c7b9de6	2	1	main_z	24	main_z	79	stimuli_target_rectangletriangles.svg	stimuli_distractor_trianglediamonds.svg	1	yes	44	1	831	6	1	antiphase_hc_iso.wav	2	6	5	noise_calib_stim_RIGHT.wav	2	11	blb_dichoticlistening_da-pa.mp3	da	pa	1	right
6.6.1	win	2023-07-06	22:16:12	22:30:02	822260	56d7623f04c67d000c7b9de6	2	1	main_z	24	advance_on_keypress_ZEE	80	stimuli_target_rectangletriangles.svg	stimuli_distractor_trianglediamonds.svg	1	yes	57	0	881	6	1	antiphase_hc_iso.wav	2	6	5	noise_calib_stim_RIGHT.wav	2	11	blb_dichoticlistening_da-pa.mp3	da	pa	1	right
6.6.1	win	2023-07-06	22:16:12	22:30:05	825794	56d7623f04c67d000c7b9de6	2	1	main_z	24	main_z	81	stimuli_distractor_diamondtriangles.svg	stimuli_distractor_diamondtriangles.svg	39	no	0	1	2000	6	1	antiphase_hc_iso.wav	2	6	5	noise_calib_stim_RIGHT.wav	2	11	blb_dichoticlistening_da-pa.mp3	da	pa	1	right
6.6.1	win	2023-07-06	22:16:12	22:30:05	825794	56d7623f04c67d000c7b9de6	2	1	main_z	24	advance_on_keypress_ZEE	82	stimuli_distractor_diamondtriangles.svg	stimuli_distractor_diamondtriangles.svg	39	no	57	0	687	6	1	antiphase_hc_iso.wav	2	6	5	noise_calib_stim_RIGHT.wav	2	11	blb_dichoticlistening_da-pa.mp3	da	pa	1	right
6.6.1	win	2023-07-06	22:16:12	22:30:09	829123	56d7623f04c67d000c7b9de6	2	1	main_z	24	main_z	83	stimuli_distractor_trianglediamonds.svg	stimuli_distractor_trianglediamonds.svg	34	no	0	1	2000	6	1	antiphase_hc_iso.wav	2	6	5	noise_calib_stim_RIGHT.wav	2	11	blb_dichoticlistening_da-pa.mp3	da	pa	1	right
6.6.1	win	2023-07-06	22:16:12	22:30:09	829123	56d7623f04c67d000c7b9de6	2	1	main_z	24	advance_on_keypress_ZEE	84	stimuli_distractor_trianglediamonds.svg	stimuli_distractor_trianglediamonds.svg	34	no	57	0	770	6	1	antiphase_hc_iso.wav	2	6	5	noise_calib_stim_RIGHT.wav	2	11	blb_dichoticlistening_da-pa.mp3	da	pa	1	right
6.6.1	win	2023-07-06	22:16:12	22:30:11	831407	56d7623f04c67d000c7b9de6	2	1	main_z	24	main_z	85	stimuli_distractor_diamondtriangles.svg	stimuli_target_diamondrectangles.svg	31	yes	44	1	870	6	1	antiphase_hc_iso.wav	2	6	5	noise_calib_stim_RIGHT.wav	2	11	blb_dichoticlistening_da-pa.mp3	da	pa	1	right
6.6.1	win	2023-07-06	22:16:12	22:30:11	831407	56d7623f04c67d000c7b9de6	2	1	main_z	24	advance_on_keypress_ZEE	86	stimuli_distractor_diamondtriangles.svg	stimuli_target_diamondrectangles.svg	31	yes	57	0	1016	6	1	antiphase_hc_iso.wav	2	6	5	noise_calib_stim_RIGHT.wav	2	11	blb_dichoticlistening_da-pa.mp3	da	pa	1	right
6.6.1	win	2023-07-06	22:16:12	22:30:14	833865	56d7623f04c67d000c7b9de6	2	1	main_z	24	main_z	87	stimuli_distractor_diamondtriangles.svg	stimuli_target_rectanglediamonds.svg	14	yes	44	1	798	6	1	antiphase_hc_iso.wav	2	6	5	noise_calib_stim_RIGHT.wav	2	11	blb_dichoticlistening_da-pa.mp3	da	pa	1	right
6.6.1	win	2023-07-06	22:16:12	22:30:14	833865	56d7623f04c67d000c7b9de6	2	1	main_z	24	advance_on_keypress_ZEE	88	stimuli_distractor_diamondtriangles.svg	stimuli_target_rectanglediamonds.svg	14	yes	57	0	1001	6	1	antiphase_hc_iso.wav	2	6	5	noise_calib_stim_RIGHT.wav	2	11	blb_dichoticlistening_da-pa.mp3	da	pa	1	right
6.6.1	win	2023-07-06	22:16:12	22:30:16	836243	56d7623f04c67d000c7b9de6	2	1	main_z	24	main_z	89	stimuli_distractor_diamondtriangles.svg	stimuli_target_squarediamonds.svg	16	yes	44	1	729	6	1	antiphase_hc_iso.wav	2	6	5	noise_calib_stim_RIGHT.wav	2	11	blb_dichoticlistening_da-pa.mp3	da	pa	1	right
6.6.1	win	2023-07-06	22:16:12	22:30:16	836243	56d7623f04c67d000c7b9de6	2	1	main_z	24	advance_on_keypress_ZEE	90	stimuli_distractor_diamondtriangles.svg	stimuli_target_squarediamonds.svg	16	yes	57	0	592	6	1	antiphase_hc_iso.wav	2	6	5	noise_calib_stim_RIGHT.wav	2	11	blb_dichoticlistening_da-pa.mp3	da	pa	1	right
6.6.1	win	2023-07-06	22:16:12	22:30:18	838076	56d7623f04c67d000c7b9de6	2	1	main_z	24	main_z	91	stimuli_target_rectangletriangles.svg	stimuli_distractor_diamondtriangles.svg	5	yes	44	1	595	6	1	antiphase_hc_iso.wav	2	6	5	noise_calib_stim_RIGHT.wav	2	11	blb_dichoticlistening_da-pa.mp3	da	pa	1	right
6.6.1	win	2023-07-06	22:16:12	22:30:18	838076	56d7623f04c67d000c7b9de6	2	1	main_z	24	advance_on_keypress_ZEE	92	stimuli_target_rectangletriangles.svg	stimuli_distractor_diamondtriangles.svg	5	yes	57	0	546	6	1	antiphase_hc_iso.wav	2	6	5	noise_calib_stim_RIGHT.wav	2	11	blb_dichoticlistening_da-pa.mp3	da	pa	1	right
6.6.1	win	2023-07-06	22:16:12	22:30:21	841278	56d7623f04c67d000c7b9de6	2	1	main_z	24	main_z	93	stimuli_distractor_trianglediamonds.svg	stimuli_distractor_trianglediamonds.svg	33	no	0	1	2000	6	1	antiphase_hc_iso.wav	2	6	5	noise_calib_stim_RIGHT.wav	2	11	blb_dichoticlistening_da-pa.mp3	da	pa	1	right
6.6.1	win	2023-07-06	22:16:12	22:30:21	841278	56d7623f04c67d000c7b9de6	2	1	main_z	24	advance_on_keypress_ZEE	94	stimuli_distractor_trianglediamonds.svg	stimuli_distractor_trianglediamonds.svg	33	no	57	0	648	6	1	antiphase_hc_iso.wav	2	6	5	noise_calib_stim_RIGHT.wav	2	11	blb_dichoticlistening_da-pa.mp3	da	pa	1	right
6.6.1	win	2023-07-06	22:16:12	22:30:23	843107	56d7623f04c67d000c7b9de6	2	1	main_z	24	main_z	95	stimuli_distractor_trianglediamonds.svg	stimuli_target_trianglesquares.svg	26	yes	44	1	533	6	1	antiphase_hc_iso.wav	2	6	5	noise_calib_stim_RIGHT.wav	2	11	blb_dichoticlistening_da-pa.mp3	da	pa	1	right
6.6.1	win	2023-07-06	22:16:12	22:30:23	843107	56d7623f04c67d000c7b9de6	2	1	main_z	24	advance_on_keypress_ZEE	96	stimuli_distractor_trianglediamonds.svg	stimuli_target_trianglesquares.svg	26	yes	57	0	636	6	1	antiphase_hc_iso.wav	2	6	5	noise_calib_stim_RIGHT.wav	2	11	blb_dichoticlistening_da-pa.mp3	da	pa	1	right
6.6.1	win	2023-07-06	22:16:12	22:30:25	845000	56d7623f04c67d000c7b9de6	2	1	main_z	24	main_z	97	stimuli_target_squaretriangles.svg	stimuli_distractor_trianglediamonds.svg	3	yes	44	1	610	6	1	antiphase_hc_iso.wav	2	6	5	noise_calib_stim_RIGHT.wav	2	11	blb_dichoticlistening_da-pa.mp3	da	pa	1	right
6.6.1	win	2023-07-06	22:16:12	22:30:25	845000	56d7623f04c67d000c7b9de6	2	1	main_z	24	advance_on_keypress_ZEE	98	stimuli_target_squaretriangles.svg	stimuli_distractor_trianglediamonds.svg	3	yes	57	0	624	6	1	antiphase_hc_iso.wav	2	6	5	noise_calib_stim_RIGHT.wav	2	11	blb_dichoticlistening_da-pa.mp3	da	pa	1	right
6.6.1	win	2023-07-06	22:16:12	22:30:26	846790	56d7623f04c67d000c7b9de6	2	1	main_z	24	main_z	99	stimuli_distractor_trianglediamonds.svg	stimuli_target_trianglerectangles.svg	25	yes	44	1	519	6	1	antiphase_hc_iso.wav	2	6	5	noise_calib_stim_RIGHT.wav	2	11	blb_dichoticlistening_da-pa.mp3	da	pa	1	right
6.6.1	win	2023-07-06	22:16:12	22:30:26	846790	56d7623f04c67d000c7b9de6	2	1	main_z	24	advance_on_keypress_ZEE	100	stimuli_distractor_trianglediamonds.svg	stimuli_target_trianglerectangles.svg	25	yes	57	0	730	6	1	antiphase_hc_iso.wav	2	6	5	noise_calib_stim_RIGHT.wav	2	11	blb_dichoticlistening_da-pa.mp3	da	pa	1	right
6.6.1	win	2023-07-06	22:16:12	22:30:30	850170	56d7623f04c67d000c7b9de6	2	1	main_z	24	main_z	101	stimuli_distractor_trianglediamonds.svg	stimuli_distractor_diamondtriangles.svg	35	no	0	1	2000	6	1	antiphase_hc_iso.wav	2	6	5	noise_calib_stim_RIGHT.wav	2	11	blb_dichoticlistening_da-pa.mp3	da	pa	1	right
6.6.1	win	2023-07-06	22:16:12	22:30:30	850170	56d7623f04c67d000c7b9de6	2	1	main_z	24	advance_on_keypress_ZEE	102	stimuli_distractor_trianglediamonds.svg	stimuli_distractor_diamondtriangles.svg	35	no	57	0	706	6	1	antiphase_hc_iso.wav	2	6	5	noise_calib_stim_RIGHT.wav	2	11	blb_dichoticlistening_da-pa.mp3	da	pa	1	right
6.6.1	win	2023-07-06	22:16:12	22:30:33	853516	56d7623f04c67d000c7b9de6	2	1	main_z	24	main_z	103	stimuli_distractor_diamondtriangles.svg	stimuli_distractor_diamondtriangles.svg	40	no	0	1	2000	6	1	antiphase_hc_iso.wav	2	6	5	noise_calib_stim_RIGHT.wav	2	11	blb_dichoticlistening_da-pa.mp3	da	pa	1	right
6.6.1	win	2023-07-06	22:16:12	22:30:33	853516	56d7623f04c67d000c7b9de6	2	1	main_z	24	advance_on_keypress_ZEE	104	stimuli_distractor_diamondtriangles.svg	stimuli_distractor_diamondtriangles.svg	40	no	57	0	456	6	1	antiphase_hc_iso.wav	2	6	5	noise_calib_stim_RIGHT.wav	2	11	blb_dichoticlistening_da-pa.mp3	da	pa	1	right
6.6.1	win	2023-07-06	22:16:12	22:30:35	855109	56d7623f04c67d000c7b9de6	2	1	main_z	24	main_z	105	stimuli_distractor_trianglediamonds.svg	stimuli_target_rectanglediamonds.svg	10	yes	44	1	496	6	1	antiphase_hc_iso.wav	2	6	5	noise_calib_stim_RIGHT.wav	2	11	blb_dichoticlistening_da-pa.mp3	da	pa	1	right
6.6.1	win	2023-07-06	22:16:12	22:30:35	855109	56d7623f04c67d000c7b9de6	2	1	main_z	24	advance_on_keypress_ZEE	106	stimuli_distractor_trianglediamonds.svg	stimuli_target_rectanglediamonds.svg	10	yes	57	0	602	6	1	antiphase_hc_iso.wav	2	6	5	noise_calib_stim_RIGHT.wav	2	11	blb_dichoticlistening_da-pa.mp3	da	pa	1	right
6.6.1	win	2023-07-06	22:16:12	22:30:37	856940	56d7623f04c67d000c7b9de6	2	1	main_z	24	main_z	107	stimuli_target_diamondrectangles.svg	stimuli_distractor_trianglediamonds.svg	19	yes	44	1	578	6	1	antiphase_hc_iso.wav	2	6	5	noise_calib_stim_RIGHT.wav	2	11	blb_dichoticlistening_da-pa.mp3	da	pa	1	right
6.6.1	win	2023-07-06	22:16:12	22:30:37	856940	56d7623f04c67d000c7b9de6	2	1	main_z	24	advance_on_keypress_ZEE	108	stimuli_target_diamondrectangles.svg	stimuli_distractor_trianglediamonds.svg	19	yes	57	0	497	6	1	antiphase_hc_iso.wav	2	6	5	noise_calib_stim_RIGHT.wav	2	11	blb_dichoticlistening_da-pa.mp3	da	pa	1	right
6.6.1	win	2023-07-06	22:16:12	22:30:39	859000	56d7623f04c67d000c7b9de6	2	1	main_z	24	main_z	109	stimuli_target_trianglerectangles.svg	stimuli_distractor_diamondtriangles.svg	21	yes	44	1	907	6	1	antiphase_hc_iso.wav	2	6	5	noise_calib_stim_RIGHT.wav	2	11	blb_dichoticlistening_da-pa.mp3	da	pa	1	right
6.6.1	win	2023-07-06	22:16:12	22:30:39	859000	56d7623f04c67d000c7b9de6	2	1	main_z	24	advance_on_keypress_ZEE	110	stimuli_target_trianglerectangles.svg	stimuli_distractor_diamondtriangles.svg	21	yes	57	0	587	6	1	antiphase_hc_iso.wav	2	6	5	noise_calib_stim_RIGHT.wav	2	11	blb_dichoticlistening_da-pa.mp3	da	pa	1	right
6.6.1	win	2023-07-06	22:16:12	22:30:40	860794	56d7623f04c67d000c7b9de6	2	1	main_z	24	main_z	111	stimuli_distractor_trianglediamonds.svg	stimuli_target_diamondrectangles.svg	27	yes	44	1	570	6	1	antiphase_hc_iso.wav	2	6	5	noise_calib_stim_RIGHT.wav	2	11	blb_dichoticlistening_da-pa.mp3	da	pa	1	right
6.6.1	win	2023-07-06	22:16:12	22:30:40	860794	56d7623f04c67d000c7b9de6	2	1	main_z	24	advance_on_keypress_ZEE	112	stimuli_distractor_trianglediamonds.svg	stimuli_target_diamondrectangles.svg	27	yes	57	0	479	6	1	antiphase_hc_iso.wav	2	6	5	noise_calib_stim_RIGHT.wav	2	11	blb_dichoticlistening_da-pa.mp3	da	pa	1	right
6.6.1	win	2023-07-06	22:16:12	22:30:42	862585	56d7623f04c67d000c7b9de6	2	1	main_z	24	main_z	113	stimuli_distractor_trianglediamonds.svg	stimuli_target_rectangletriangles.svg	9	yes	44	1	662	6	1	antiphase_hc_iso.wav	2	6	5	noise_calib_stim_RIGHT.wav	2	11	blb_dichoticlistening_da-pa.mp3	da	pa	1	right
6.6.1	win	2023-07-06	22:16:12	22:30:42	862585	56d7623f04c67d000c7b9de6	2	1	main_z	24	advance_on_keypress_ZEE	114	stimuli_distractor_trianglediamonds.svg	stimuli_target_rectangletriangles.svg	9	yes	57	0	498	6	1	antiphase_hc_iso.wav	2	6	5	noise_calib_stim_RIGHT.wav	2	11	blb_dichoticlistening_da-pa.mp3	da	pa	1	right
6.6.1	win	2023-07-06	22:16:12	22:30:44	864261	56d7623f04c67d000c7b9de6	2	1	main_z	24	main_z	115	stimuli_target_diamondrectangles.svg	stimuli_distractor_diamondtriangles.svg	23	yes	44	1	523	6	1	antiphase_hc_iso.wav	2	6	5	noise_calib_stim_RIGHT.wav	2	11	blb_dichoticlistening_da-pa.mp3	da	pa	1	right
6.6.1	win	2023-07-06	22:16:12	22:30:44	864261	56d7623f04c67d000c7b9de6	2	1	main_z	24	advance_on_keypress_ZEE	116	stimuli_target_diamondrectangles.svg	stimuli_distractor_diamondtriangles.svg	23	yes	57	0	477	6	1	antiphase_hc_iso.wav	2	6	5	noise_calib_stim_RIGHT.wav	2	11	blb_dichoticlistening_da-pa.mp3	da	pa	1	right
6.6.1	win	2023-07-06	22:16:12	22:30:45	865721	56d7623f04c67d000c7b9de6	2	1	main_z	24	main_z	117	stimuli_distractor_trianglediamonds.svg	stimuli_target_squarediamonds.svg	12	yes	44	1	335	6	1	antiphase_hc_iso.wav	2	6	5	noise_calib_stim_RIGHT.wav	2	11	blb_dichoticlistening_da-pa.mp3	da	pa	1	right
6.6.1	win	2023-07-06	22:16:12	22:30:45	865721	56d7623f04c67d000c7b9de6	2	1	main_z	24	advance_on_keypress_ZEE	118	stimuli_distractor_trianglediamonds.svg	stimuli_target_squarediamonds.svg	12	yes	57	0	513	6	1	antiphase_hc_iso.wav	2	6	5	noise_calib_stim_RIGHT.wav	2	11	blb_dichoticlistening_da-pa.mp3	da	pa	1	right
6.6.1	win	2023-07-06	22:16:12	22:30:47	867236	56d7623f04c67d000c7b9de6	2	1	main_z	24	main_z	119	stimuli_target_rectangletriangles.svg	stimuli_distractor_trianglediamonds.svg	1	yes	44	1	352	6	1	antiphase_hc_iso.wav	2	6	5	noise_calib_stim_RIGHT.wav	2	11	blb_dichoticlistening_da-pa.mp3	da	pa	1	right
6.6.1	win	2023-07-06	22:16:12	22:30:47	867236	56d7623f04c67d000c7b9de6	2	1	main_z	24	advance_on_keypress_ZEE	120	stimuli_target_rectangletriangles.svg	stimuli_distractor_trianglediamonds.svg	1	yes	57	0	523	6	1	antiphase_hc_iso.wav	2	6	5	noise_calib_stim_RIGHT.wav	2	11	blb_dichoticlistening_da-pa.mp3	da	pa	1	right
6.6.1	win	2023-07-06	22:16:12	22:30:49	868872	56d7623f04c67d000c7b9de6	2	1	main_z	24	main_z	121	stimuli_distractor_diamondtriangles.svg	stimuli_target_diamondsquares.svg	32	yes	44	1	472	6	1	antiphase_hc_iso.wav	2	6	5	noise_calib_stim_RIGHT.wav	2	11	blb_dichoticlistening_da-pa.mp3	da	pa	1	right
6.6.1	win	2023-07-06	22:16:12	22:30:49	868872	56d7623f04c67d000c7b9de6	2	1	main_z	24	advance_on_keypress_ZEE	122	stimuli_distractor_diamondtriangles.svg	stimuli_target_diamondsquares.svg	32	yes	57	0	537	6	1	antiphase_hc_iso.wav	2	6	5	noise_calib_stim_RIGHT.wav	2	11	blb_dichoticlistening_da-pa.mp3	da	pa	1	right
6.6.1	win	2023-07-06	22:16:12	22:30:50	870412	56d7623f04c67d000c7b9de6	2	1	main_z	24	main_z	123	stimuli_target_diamondsquares.svg	stimuli_distractor_trianglediamonds.svg	20	yes	44	1	364	6	1	antiphase_hc_iso.wav	2	6	5	noise_calib_stim_RIGHT.wav	2	11	blb_dichoticlistening_da-pa.mp3	da	pa	1	right
6.6.1	win	2023-07-06	22:16:12	22:30:50	870412	56d7623f04c67d000c7b9de6	2	1	main_z	24	advance_on_keypress_ZEE	124	stimuli_target_diamondsquares.svg	stimuli_distractor_trianglediamonds.svg	20	yes	57	0	473	6	1	antiphase_hc_iso.wav	2	6	5	noise_calib_stim_RIGHT.wav	2	11	blb_dichoticlistening_da-pa.mp3	da	pa	1	right
6.6.1	win	2023-07-06	22:16:12	22:30:52	872354	56d7623f04c67d000c7b9de6	2	1	main_z	24	main_z	125	stimuli_target_squarediamonds.svg	stimuli_distractor_diamondtriangles.svg	8	yes	44	1	824	6	1	antiphase_hc_iso.wav	2	6	5	noise_calib_stim_RIGHT.wav	2	11	blb_dichoticlistening_da-pa.mp3	da	pa	1	right
6.6.1	win	2023-07-06	22:16:12	22:30:52	872354	56d7623f04c67d000c7b9de6	2	1	main_z	24	advance_on_keypress_ZEE	126	stimuli_target_squarediamonds.svg	stimuli_distractor_diamondtriangles.svg	8	yes	57	0	494	6	1	antiphase_hc_iso.wav	2	6	5	noise_calib_stim_RIGHT.wav	2	11	blb_dichoticlistening_da-pa.mp3	da	pa	1	right
6.6.1	win	2023-07-06	22:16:12	22:30:55	875495	56d7623f04c67d000c7b9de6	2	1	main_z	24	main_z	127	stimuli_distractor_diamondtriangles.svg	stimuli_distractor_trianglediamonds.svg	37	no	0	1	2000	6	1	antiphase_hc_iso.wav	2	6	5	noise_calib_stim_RIGHT.wav	2	11	blb_dichoticlistening_da-pa.mp3	da	pa	1	right
6.6.1	win	2023-07-06	22:16:12	22:30:55	875495	56d7623f04c67d000c7b9de6	2	1	main_z	24	advance_on_keypress_ZEE	128	stimuli_distractor_diamondtriangles.svg	stimuli_distractor_trianglediamonds.svg	37	no	57	0	763	6	1	antiphase_hc_iso.wav	2	6	5	noise_calib_stim_RIGHT.wav	2	11	blb_dichoticlistening_da-pa.mp3	da	pa	1	right
6.6.1	win	2023-07-06	22:16:12	22:30:57	877336	56d7623f04c67d000c7b9de6	2	1	main_z	24	main_z	129	stimuli_target_trianglerectangles.svg	stimuli_distractor_trianglediamonds.svg	17	yes	44	1	428	6	1	antiphase_hc_iso.wav	2	6	5	noise_calib_stim_RIGHT.wav	2	11	blb_dichoticlistening_da-pa.mp3	da	pa	1	right
6.6.1	win	2023-07-06	22:16:12	22:30:57	877336	56d7623f04c67d000c7b9de6	2	1	main_z	24	advance_on_keypress_ZEE	130	stimuli_target_trianglerectangles.svg	stimuli_distractor_trianglediamonds.svg	17	yes	57	0	426	6	1	antiphase_hc_iso.wav	2	6	5	noise_calib_stim_RIGHT.wav	2	11	blb_dichoticlistening_da-pa.mp3	da	pa	1	right
6.6.1	win	2023-07-06	22:16:12	22:30:58	878711	56d7623f04c67d000c7b9de6	2	1	main_z	24	main_z	131	stimuli_distractor_diamondtriangles.svg	stimuli_target_trianglerectangles.svg	29	yes	44	1	305	6	1	antiphase_hc_iso.wav	2	6	5	noise_calib_stim_RIGHT.wav	2	11	blb_dichoticlistening_da-pa.mp3	da	pa	1	right
6.6.1	win	2023-07-06	22:16:12	22:30:58	878711	56d7623f04c67d000c7b9de6	2	1	main_z	24	advance_on_keypress_ZEE	132	stimuli_distractor_diamondtriangles.svg	stimuli_target_trianglerectangles.svg	29	yes	57	0	667	6	1	antiphase_hc_iso.wav	2	6	5	noise_calib_stim_RIGHT.wav	2	11	blb_dichoticlistening_da-pa.mp3	da	pa	1	right
6.6.1	win	2023-07-06	22:16:12	22:31:00	880387	56d7623f04c67d000c7b9de6	2	1	main_z	24	main_z	133	stimuli_distractor_trianglediamonds.svg	stimuli_target_diamondsquares.svg	28	yes	44	1	365	6	1	antiphase_hc_iso.wav	2	6	5	noise_calib_stim_RIGHT.wav	2	11	blb_dichoticlistening_da-pa.mp3	da	pa	1	right
6.6.1	win	2023-07-06	22:16:12	22:31:00	880387	56d7623f04c67d000c7b9de6	2	1	main_z	24	advance_on_keypress_ZEE	134	stimuli_distractor_trianglediamonds.svg	stimuli_target_diamondsquares.svg	28	yes	57	0	615	6	1	antiphase_hc_iso.wav	2	6	5	noise_calib_stim_RIGHT.wav	2	11	blb_dichoticlistening_da-pa.mp3	da	pa	1	right
6.6.1	win	2023-07-06	22:16:12	22:31:02	881967	56d7623f04c67d000c7b9de6	2	1	main_z	24	main_z	135	stimuli_target_rectanglediamonds.svg	stimuli_distractor_trianglediamonds.svg	2	yes	44	1	314	6	1	antiphase_hc_iso.wav	2	6	5	noise_calib_stim_RIGHT.wav	2	11	blb_dichoticlistening_da-pa.mp3	da	pa	1	right
6.6.1	win	2023-07-06	22:16:12	22:31:02	881967	56d7623f04c67d000c7b9de6	2	1	main_z	24	advance_on_keypress_ZEE	136	stimuli_target_rectanglediamonds.svg	stimuli_distractor_trianglediamonds.svg	2	yes	57	0	519	6	1	antiphase_hc_iso.wav	2	6	5	noise_calib_stim_RIGHT.wav	2	11	blb_dichoticlistening_da-pa.mp3	da	pa	1	right
6.6.1	win	2023-07-06	22:16:12	22:31:03	883548	56d7623f04c67d000c7b9de6	2	1	main_z	24	main_z	137	stimuli_target_trianglesquares.svg	stimuli_distractor_trianglediamonds.svg	18	yes	44	1	413	6	1	antiphase_hc_iso.wav	2	6	5	noise_calib_stim_RIGHT.wav	2	11	blb_dichoticlistening_da-pa.mp3	da	pa	1	right
6.6.1	win	2023-07-06	22:16:12	22:31:03	883548	56d7623f04c67d000c7b9de6	2	1	main_z	24	advance_on_keypress_ZEE	138	stimuli_target_trianglesquares.svg	stimuli_distractor_trianglediamonds.svg	18	yes	57	0	563	6	1	antiphase_hc_iso.wav	2	6	5	noise_calib_stim_RIGHT.wav	2	11	blb_dichoticlistening_da-pa.mp3	da	pa	1	right
6.6.1	win	2023-07-06	22:16:12	22:31:05	885119	56d7623f04c67d000c7b9de6	2	1	main_z	24	main_z	139	stimuli_distractor_diamondtriangles.svg	stimuli_target_squaretriangles.svg	15	yes	44	1	352	6	1	antiphase_hc_iso.wav	2	6	5	noise_calib_stim_RIGHT.wav	2	11	blb_dichoticlistening_da-pa.mp3	da	pa	1	right
6.6.1	win	2023-07-06	22:16:12	22:31:05	885119	56d7623f04c67d000c7b9de6	2	1	main_z	24	advance_on_keypress_ZEE	140	stimuli_distractor_diamondtriangles.svg	stimuli_target_squaretriangles.svg	15	yes	57	0	532	6	1	antiphase_hc_iso.wav	2	6	5	noise_calib_stim_RIGHT.wav	2	11	blb_dichoticlistening_da-pa.mp3	da	pa	1	right
6.6.1	win	2023-07-06	22:16:12	22:31:07	887127	56d7623f04c67d000c7b9de6	2	1	main_z	24	main_z	141	stimuli_distractor_trianglediamonds.svg	stimuli_target_squaretriangles.svg	11	yes	44	1	827	6	1	antiphase_hc_iso.wav	2	6	5	noise_calib_stim_RIGHT.wav	2	11	blb_dichoticlistening_da-pa.mp3	da	pa	1	right
6.6.1	win	2023-07-06	22:16:12	22:31:07	887127	56d7623f04c67d000c7b9de6	2	1	main_z	24	advance_on_keypress_ZEE	142	stimuli_distractor_trianglediamonds.svg	stimuli_target_squaretriangles.svg	11	yes	57	0	464	6	1	antiphase_hc_iso.wav	2	6	5	noise_calib_stim_RIGHT.wav	2	11	blb_dichoticlistening_da-pa.mp3	da	pa	1	right
6.6.1	win	2023-07-06	22:16:12	22:31:09	888827	56d7623f04c67d000c7b9de6	2	1	main_z	24	main_z	143	stimuli_distractor_diamondtriangles.svg	stimuli_target_trianglesquares.svg	30	yes	44	1	579	6	1	antiphase_hc_iso.wav	2	6	5	noise_calib_stim_RIGHT.wav	2	11	blb_dichoticlistening_da-pa.mp3	da	pa	1	right
6.6.1	win	2023-07-06	22:16:12	22:31:09	888827	56d7623f04c67d000c7b9de6	2	1	main_z	24	advance_on_keypress_ZEE	144	stimuli_distractor_diamondtriangles.svg	stimuli_target_trianglesquares.svg	30	yes	57	0	452	6	1	antiphase_hc_iso.wav	2	6	5	noise_calib_stim_RIGHT.wav	2	11	blb_dichoticlistening_da-pa.mp3	da	pa	1	right
6.6.1	win	2023-07-06	22:16:12	22:31:10	890482	56d7623f04c67d000c7b9de6	2	1	main_z	24	main_z	145	stimuli_target_diamondsquares.svg	stimuli_distractor_diamondtriangles.svg	24	yes	44	1	553	6	1	antiphase_hc_iso.wav	2	6	5	noise_calib_stim_RIGHT.wav	2	11	blb_dichoticlistening_da-pa.mp3	da	pa	1	right
6.6.1	win	2023-07-06	22:16:12	22:31:10	890482	56d7623f04c67d000c7b9de6	2	1	main_z	24	advance_on_keypress_ZEE	146	stimuli_target_diamondsquares.svg	stimuli_distractor_diamondtriangles.svg	24	yes	57	0	400	6	1	antiphase_hc_iso.wav	2	6	5	noise_calib_stim_RIGHT.wav	2	11	blb_dichoticlistening_da-pa.mp3	da	pa	1	right
6.6.1	win	2023-07-06	22:16:12	22:31:13	893527	56d7623f04c67d000c7b9de6	2	1	main_z	24	main_z	147	stimuli_distractor_trianglediamonds.svg	stimuli_distractor_diamondtriangles.svg	36	no	0	1	2000	6	1	antiphase_hc_iso.wav	2	6	5	noise_calib_stim_RIGHT.wav	2	11	blb_dichoticlistening_da-pa.mp3	da	pa	1	right
6.6.1	win	2023-07-06	22:16:12	22:31:13	893527	56d7623f04c67d000c7b9de6	2	1	main_z	24	advance_on_keypress_ZEE	148	stimuli_distractor_trianglediamonds.svg	stimuli_distractor_diamondtriangles.svg	36	no	57	0	574	6	1	antiphase_hc_iso.wav	2	6	5	noise_calib_stim_RIGHT.wav	2	11	blb_dichoticlistening_da-pa.mp3	da	pa	1	right
6.6.1	win	2023-07-06	22:16:12	22:31:15	895259	56d7623f04c67d000c7b9de6	2	1	main_z	24	main_z	149	stimuli_distractor_diamondtriangles.svg	stimuli_target_rectangletriangles.svg	13	yes	44	1	518	6	1	antiphase_hc_iso.wav	2	6	5	noise_calib_stim_RIGHT.wav	2	11	blb_dichoticlistening_da-pa.mp3	da	pa	1	right
6.6.1	win	2023-07-06	22:16:12	22:31:15	895259	56d7623f04c67d000c7b9de6	2	1	main_z	24	advance_on_keypress_ZEE	150	stimuli_distractor_diamondtriangles.svg	stimuli_target_rectangletriangles.svg	13	yes	57	0	417	6	1	antiphase_hc_iso.wav	2	6	5	noise_calib_stim_RIGHT.wav	2	11	blb_dichoticlistening_da-pa.mp3	da	pa	1	right
6.6.1	win	2023-07-06	22:16:12	22:31:16	896719	56d7623f04c67d000c7b9de6	2	1	main_z	24	main_z	151	stimuli_target_trianglesquares.svg	stimuli_distractor_diamondtriangles.svg	22	yes	44	1	397	6	1	antiphase_hc_iso.wav	2	6	5	noise_calib_stim_RIGHT.wav	2	11	blb_dichoticlistening_da-pa.mp3	da	pa	1	right
6.6.1	win	2023-07-06	22:16:12	22:31:16	896719	56d7623f04c67d000c7b9de6	2	1	main_z	24	advance_on_keypress_ZEE	152	stimuli_target_trianglesquares.svg	stimuli_distractor_diamondtriangles.svg	22	yes	57	0	568	6	1	antiphase_hc_iso.wav	2	6	5	noise_calib_stim_RIGHT.wav	2	11	blb_dichoticlistening_da-pa.mp3	da	pa	1	right
6.6.1	win	2023-07-06	22:16:12	22:31:18	898319	56d7623f04c67d000c7b9de6	2	1	main_z	24	main_z	153	stimuli_target_rectanglediamonds.svg	stimuli_distractor_diamondtriangles.svg	6	yes	44	1	382	6	1	antiphase_hc_iso.wav	2	6	5	noise_calib_stim_RIGHT.wav	2	11	blb_dichoticlistening_da-pa.mp3	da	pa	1	right
6.6.1	win	2023-07-06	22:16:12	22:31:18	898319	56d7623f04c67d000c7b9de6	2	1	main_z	24	advance_on_keypress_ZEE	154	stimuli_target_rectanglediamonds.svg	stimuli_distractor_diamondtriangles.svg	6	yes	57	0	480	6	1	antiphase_hc_iso.wav	2	6	5	noise_calib_stim_RIGHT.wav	2	11	blb_dichoticlistening_da-pa.mp3	da	pa	1	right
6.6.1	win	2023-07-06	22:16:12	22:31:20	899844	56d7623f04c67d000c7b9de6	2	1	main_z	24	main_z	155	stimuli_target_squaretriangles.svg	stimuli_distractor_diamondtriangles.svg	7	yes	44	1	392	6	1	antiphase_hc_iso.wav	2	6	5	noise_calib_stim_RIGHT.wav	2	11	blb_dichoticlistening_da-pa.mp3	da	pa	1	right
6.6.1	win	2023-07-06	22:16:12	22:31:20	899844	56d7623f04c67d000c7b9de6	2	1	main_z	24	advance_on_keypress_ZEE	156	stimuli_target_squaretriangles.svg	stimuli_distractor_diamondtriangles.svg	7	yes	57	0	996	6	1	antiphase_hc_iso.wav	2	6	5	noise_calib_stim_RIGHT.wav	2	11	blb_dichoticlistening_da-pa.mp3	da	pa	1	right
6.6.1	win	2023-07-06	22:16:12	22:31:21	901832	56d7623f04c67d000c7b9de6	2	1	main_z	24	main_z	157	stimuli_target_squarediamonds.svg	stimuli_distractor_trianglediamonds.svg	4	yes	44	1	348	6	1	antiphase_hc_iso.wav	2	6	5	noise_calib_stim_RIGHT.wav	2	11	blb_dichoticlistening_da-pa.mp3	da	pa	1	right
6.6.1	win	2023-07-06	22:16:12	22:31:21	901832	56d7623f04c67d000c7b9de6	2	1	main_z	24	advance_on_keypress_ZEE	158	stimuli_target_squarediamonds.svg	stimuli_distractor_trianglediamonds.svg	4	yes	57	0	533	6	1	antiphase_hc_iso.wav	2	6	5	noise_calib_stim_RIGHT.wav	2	11	blb_dichoticlistening_da-pa.mp3	da	pa	1	right
6.6.1	win	2023-07-06	22:16:12	22:31:25	905016	56d7623f04c67d000c7b9de6	2	1	main_z	24	main_z	159	stimuli_distractor_diamondtriangles.svg	stimuli_distractor_trianglediamonds.svg	38	no	0	1	2000	6	1	antiphase_hc_iso.wav	2	6	5	noise_calib_stim_RIGHT.wav	2	11	blb_dichoticlistening_da-pa.mp3	da	pa	1	right
6.6.1	win	2023-07-06	22:16:12	22:31:25	905016	56d7623f04c67d000c7b9de6	2	1	main_z	24	advance_on_keypress_ZEE	160	stimuli_distractor_diamondtriangles.svg	stimuli_distractor_trianglediamonds.svg	38	no	57	0	424	6	1	antiphase_hc_iso.wav	2	6	5	noise_calib_stim_RIGHT.wav	2	11	blb_dichoticlistening_da-pa.mp3	da	pa	1	right
6.6.1	win	2023-07-06	22:16:12	22:32:47	987146	56d7623f04c67d000c7b9de6	2	1	practice_slash	26	practice_slash	1	stimuli_distractor_diamondtriangles.svg	stimuli_target_rectangletriangles.svg	7	yes	53	1	441	6	1	antiphase_hc_iso.wav	2	6	5	noise_calib_stim_RIGHT.wav	2	11	blb_dichoticlistening_da-pa.mp3	da	pa	1	right
6.6.1	win	2023-07-06	22:16:12	22:32:47	987146	56d7623f04c67d000c7b9de6	2	1	practice_slash	26	advance_on_keypress_SLASH	2	stimuli_distractor_diamondtriangles.svg	stimuli_target_rectangletriangles.svg	7	yes	57	0	1952	6	1	antiphase_hc_iso.wav	2	6	5	noise_calib_stim_RIGHT.wav	2	11	blb_dichoticlistening_da-pa.mp3	da	pa	1	right
6.6.1	win	2023-07-06	22:16:12	22:32:51	991099	56d7623f04c67d000c7b9de6	2	1	practice_slash	26	practice_slash	3	stimuli_distractor_trianglediamonds.svg	stimuli_target_rectanglediamonds.svg	10	yes	53	1	348	6	1	antiphase_hc_iso.wav	2	6	5	noise_calib_stim_RIGHT.wav	2	11	blb_dichoticlistening_da-pa.mp3	da	pa	1	right
6.6.1	win	2023-07-06	22:16:12	22:32:51	991099	56d7623f04c67d000c7b9de6	2	1	practice_slash	26	advance_on_keypress_SLASH	4	stimuli_distractor_trianglediamonds.svg	stimuli_target_rectanglediamonds.svg	10	yes	57	0	881	6	1	antiphase_hc_iso.wav	2	6	5	noise_calib_stim_RIGHT.wav	2	11	blb_dichoticlistening_da-pa.mp3	da	pa	1	right
6.6.1	win	2023-07-06	22:16:12	22:32:54	994089	56d7623f04c67d000c7b9de6	2	1	practice_slash	26	practice_slash	5	stimuli_target_rectanglediamonds.svg	stimuli_distractor_diamondtriangles.svg	1	yes	53	1	459	6	1	antiphase_hc_iso.wav	2	6	5	noise_calib_stim_RIGHT.wav	2	11	blb_dichoticlistening_da-pa.mp3	da	pa	1	right
6.6.1	win	2023-07-06	22:16:12	22:32:54	994089	56d7623f04c67d000c7b9de6	2	1	practice_slash	26	advance_on_keypress_SLASH	6	stimuli_target_rectanglediamonds.svg	stimuli_distractor_diamondtriangles.svg	1	yes	57	0	467	6	1	antiphase_hc_iso.wav	2	6	5	noise_calib_stim_RIGHT.wav	2	11	blb_dichoticlistening_da-pa.mp3	da	pa	1	right
6.6.1	win	2023-07-06	22:16:12	22:32:56	996729	56d7623f04c67d000c7b9de6	2	1	practice_slash	26	practice_slash	7	stimuli_target_diamondsquares.svg	stimuli_distractor_diamondtriangles.svg	3	yes	53	1	517	6	1	antiphase_hc_iso.wav	2	6	5	noise_calib_stim_RIGHT.wav	2	11	blb_dichoticlistening_da-pa.mp3	da	pa	1	right
6.6.1	win	2023-07-06	22:16:12	22:32:56	996729	56d7623f04c67d000c7b9de6	2	1	practice_slash	26	advance_on_keypress_SLASH	8	stimuli_target_diamondsquares.svg	stimuli_distractor_diamondtriangles.svg	3	yes	57	0	536	6	1	antiphase_hc_iso.wav	2	6	5	noise_calib_stim_RIGHT.wav	2	11	blb_dichoticlistening_da-pa.mp3	da	pa	1	right
6.6.1	win	2023-07-06	22:16:12	22:32:59	999313	56d7623f04c67d000c7b9de6	2	1	practice_slash	26	practice_slash	9	stimuli_distractor_trianglediamonds.svg	stimuli_target_squarediamonds.svg	11	yes	53	1	403	6	1	antiphase_hc_iso.wav	2	6	5	noise_calib_stim_RIGHT.wav	2	11	blb_dichoticlistening_da-pa.mp3	da	pa	1	right
6.6.1	win	2023-07-06	22:16:12	22:32:59	999313	56d7623f04c67d000c7b9de6	2	1	practice_slash	26	advance_on_keypress_SLASH	10	stimuli_distractor_trianglediamonds.svg	stimuli_target_squarediamonds.svg	11	yes	57	0	323	6	1	antiphase_hc_iso.wav	2	6	5	noise_calib_stim_RIGHT.wav	2	11	blb_dichoticlistening_da-pa.mp3	da	pa	1	right
6.6.1	win	2023-07-06	22:16:12	22:33:01	1001736	56d7623f04c67d000c7b9de6	2	1	practice_slash	26	practice_slash	11	stimuli_target_squarediamonds.svg	stimuli_distractor_trianglediamonds.svg	5	yes	53	1	462	6	1	antiphase_hc_iso.wav	2	6	5	noise_calib_stim_RIGHT.wav	2	11	blb_dichoticlistening_da-pa.mp3	da	pa	1	right
6.6.1	win	2023-07-06	22:16:12	22:33:01	1001736	56d7623f04c67d000c7b9de6	2	1	practice_slash	26	advance_on_keypress_SLASH	12	stimuli_target_squarediamonds.svg	stimuli_distractor_trianglediamonds.svg	5	yes	57	0	341	6	1	antiphase_hc_iso.wav	2	6	5	noise_calib_stim_RIGHT.wav	2	11	blb_dichoticlistening_da-pa.mp3	da	pa	1	right
6.6.1	win	2023-07-06	22:16:12	22:33:04	1004199	56d7623f04c67d000c7b9de6	2	1	practice_slash	26	practice_slash	13	stimuli_target_squarediamonds.svg	stimuli_distractor_diamondtriangles.svg	2	yes	53	1	478	6	1	antiphase_hc_iso.wav	2	6	5	noise_calib_stim_RIGHT.wav	2	11	blb_dichoticlistening_da-pa.mp3	da	pa	1	right
6.6.1	win	2023-07-06	22:16:12	22:33:04	1004199	56d7623f04c67d000c7b9de6	2	1	practice_slash	26	advance_on_keypress_SLASH	14	stimuli_target_squarediamonds.svg	stimuli_distractor_diamondtriangles.svg	2	yes	57	0	320	6	1	antiphase_hc_iso.wav	2	6	5	noise_calib_stim_RIGHT.wav	2	11	blb_dichoticlistening_da-pa.mp3	da	pa	1	right
6.6.1	win	2023-07-06	22:16:12	22:33:08	1008169	56d7623f04c67d000c7b9de6	2	1	practice_slash	26	practice_slash	15	stimuli_distractor_trianglediamonds.svg	stimuli_distractor_diamondtriangles.svg	16	no	0	1	2000	6	1	antiphase_hc_iso.wav	2	6	5	noise_calib_stim_RIGHT.wav	2	11	blb_dichoticlistening_da-pa.mp3	da	pa	1	right
6.6.1	win	2023-07-06	22:16:12	22:33:08	1008169	56d7623f04c67d000c7b9de6	2	1	practice_slash	26	advance_on_keypress_SLASH	16	stimuli_distractor_trianglediamonds.svg	stimuli_distractor_diamondtriangles.svg	16	no	57	0	511	6	1	antiphase_hc_iso.wav	2	6	5	noise_calib_stim_RIGHT.wav	2	11	blb_dichoticlistening_da-pa.mp3	da	pa	1	right
6.6.1	win	2023-07-06	22:16:12	22:33:11	1010857	56d7623f04c67d000c7b9de6	2	1	practice_slash	26	practice_slash	17	stimuli_distractor_diamondtriangles.svg	stimuli_target_diamondrectangles.svg	8	yes	53	1	526	6	1	antiphase_hc_iso.wav	2	6	5	noise_calib_stim_RIGHT.wav	2	11	blb_dichoticlistening_da-pa.mp3	da	pa	1	right
6.6.1	win	2023-07-06	22:16:12	22:33:11	1010857	56d7623f04c67d000c7b9de6	2	1	practice_slash	26	advance_on_keypress_SLASH	18	stimuli_distractor_diamondtriangles.svg	stimuli_target_diamondrectangles.svg	8	yes	57	0	427	6	1	antiphase_hc_iso.wav	2	6	5	noise_calib_stim_RIGHT.wav	2	11	blb_dichoticlistening_da-pa.mp3	da	pa	1	right
