build	computer.platform	date	time	timestamp	time_elapsed_ms	subject	group	session	blockcode	blocknum	trialcode	trialnum	stimulus_left	stimulus_right	stim_index	target_present	response	correct	latency	headphonecheck_countTestTrials	headphonecheck_index	headphonecheck_testSound	headphonecheck_correctResponse	stereocheck_countTestTrials	stereocheck_index	stereocheck_testSound	stereocheck_correctResponse	DL_index	DL_soundfile	DL_leftSound	DL_rightSound	DL_dualSound	DL_choice
6.6.1	mac	2023-06-02	04:50:34	04:54:06	208041	6167abbd7db521535e811eb0	4	1	practice_z	5	practice_z	1	stimuli_target_squarediamonds.svg	stimuli_distractor_trianglediamonds.svg	5	yes	0	0	2000	0	0			0	0			1				0	
6.6.1	mac	2023-06-02	04:50:34	04:54:06	208041	6167abbd7db521535e811eb0	4	1	practice_z	5	advance_on_keypress_ZEE	2	stimuli_target_squarediamonds.svg	stimuli_distractor_trianglediamonds.svg	5	yes	57	0	980	0	0			0	0			1				0	
6.6.1	mac	2023-06-02	04:50:34	04:54:09	210940	6167abbd7db521535e811eb0	4	1	practice_z	5	practice_z	3	stimuli_target_rectanglediamonds.svg	stimuli_distractor_diamondtriangles.svg	1	yes	44	1	278	0	0			0	0			1				0	
6.6.1	mac	2023-06-02	04:50:34	04:54:09	210940	6167abbd7db521535e811eb0	4	1	practice_z	5	advance_on_keypress_ZEE	4	stimuli_target_rectanglediamonds.svg	stimuli_distractor_diamondtriangles.svg	1	yes	57	0	1444	0	0			0	0			1				0	
6.6.1	mac	2023-06-02	04:50:34	04:54:12	214298	6167abbd7db521535e811eb0	4	1	practice_z	5	practice_z	5	stimuli_distractor_diamondtriangles.svg	stimuli_distractor_trianglediamonds.svg	14	no	44	0	267	0	0			0	0			1				0	
6.6.1	mac	2023-06-02	04:50:34	04:54:12	214298	6167abbd7db521535e811eb0	4	1	practice_z	5	advance_on_keypress_ZEE	6	stimuli_distractor_diamondtriangles.svg	stimuli_distractor_trianglediamonds.svg	14	no	57	0	516	0	0			0	0			1				0	
6.6.1	mac	2023-06-02	04:50:34	04:54:16	218447	6167abbd7db521535e811eb0	4	1	practice_z	5	practice_z	7	stimuli_distractor_diamondtriangles.svg	stimuli_target_diamondrectangles.svg	8	yes	0	0	2000	0	0			0	0			1				0	
6.6.1	mac	2023-06-02	04:50:34	04:54:16	218447	6167abbd7db521535e811eb0	4	1	practice_z	5	advance_on_keypress_ZEE	8	stimuli_distractor_diamondtriangles.svg	stimuli_target_diamondrectangles.svg	8	yes	57	0	900	0	0			0	0			1				0	
6.6.1	mac	2023-06-02	04:50:34	04:54:20	221512	6167abbd7db521535e811eb0	4	1	practice_z	5	practice_z	9	stimuli_distractor_trianglediamonds.svg	stimuli_target_squarediamonds.svg	11	yes	44	1	529	0	0			0	0			1				0	
6.6.1	mac	2023-06-02	04:50:34	04:54:20	221512	6167abbd7db521535e811eb0	4	1	practice_z	5	advance_on_keypress_ZEE	10	stimuli_distractor_trianglediamonds.svg	stimuli_target_squarediamonds.svg	11	yes	57	0	1860	0	0			0	0			1				0	
6.6.1	mac	2023-06-02	04:50:34	04:54:24	225556	6167abbd7db521535e811eb0	4	1	practice_z	5	practice_z	11	stimuli_distractor_trianglediamonds.svg	stimuli_distractor_trianglediamonds.svg	15	no	44	0	553	0	0			0	0			1				0	
6.6.1	mac	2023-06-02	04:50:34	04:54:24	225556	6167abbd7db521535e811eb0	4	1	practice_z	5	advance_on_keypress_ZEE	12	stimuli_distractor_trianglediamonds.svg	stimuli_distractor_trianglediamonds.svg	15	no	57	0	695	0	0			0	0			1				0	
6.6.1	mac	2023-06-02	04:50:34	04:54:27	228874	6167abbd7db521535e811eb0	4	1	practice_z	5	practice_z	13	stimuli_target_diamondsquares.svg	stimuli_distractor_trianglediamonds.svg	6	yes	44	1	986	0	0			0	0			1				0	
6.6.1	mac	2023-06-02	04:50:34	04:54:27	228874	6167abbd7db521535e811eb0	4	1	practice_z	5	advance_on_keypress_ZEE	14	stimuli_target_diamondsquares.svg	stimuli_distractor_trianglediamonds.svg	6	yes	57	0	481	0	0			0	0			1				0	
6.6.1	mac	2023-06-02	04:50:34	04:54:30	231957	6167abbd7db521535e811eb0	4	1	practice_z	5	practice_z	15	stimuli_distractor_trianglediamonds.svg	stimuli_target_rectanglediamonds.svg	10	yes	44	1	968	0	0			0	0			1				0	
6.6.1	mac	2023-06-02	04:50:34	04:54:30	231957	6167abbd7db521535e811eb0	4	1	practice_z	5	advance_on_keypress_ZEE	16	stimuli_distractor_trianglediamonds.svg	stimuli_target_rectanglediamonds.svg	10	yes	57	0	383	0	0			0	0			1				0	
6.6.1	mac	2023-06-02	04:50:34	04:54:34	235974	6167abbd7db521535e811eb0	4	1	practice_z	5	practice_z	17	stimuli_target_diamondsquares.svg	stimuli_distractor_diamondtriangles.svg	3	yes	0	0	2000	0	0			0	0			1				0	
6.6.1	mac	2023-06-02	04:50:34	04:54:34	235974	6167abbd7db521535e811eb0	4	1	practice_z	5	advance_on_keypress_ZEE	18	stimuli_target_diamondsquares.svg	stimuli_distractor_diamondtriangles.svg	3	yes	57	0	480	0	0			0	0			1				0	
6.6.1	mac	2023-06-02	04:50:34	04:54:37	239176	6167abbd7db521535e811eb0	4	1	practice_z	5	practice_z	19	stimuli_distractor_diamondtriangles.svg	stimuli_target_trianglerectangles.svg	9	yes	44	1	1038	0	0			0	0			1				0	
6.6.1	mac	2023-06-02	04:50:34	04:54:37	239176	6167abbd7db521535e811eb0	4	1	practice_z	5	advance_on_keypress_ZEE	20	stimuli_distractor_diamondtriangles.svg	stimuli_target_trianglerectangles.svg	9	yes	57	0	2360	0	0			0	0			1				0	
6.6.1	mac	2023-06-02	04:50:34	04:54:43	245178	6167abbd7db521535e811eb0	4	1	practice_z	5	practice_z	21	stimuli_distractor_trianglediamonds.svg	stimuli_distractor_diamondtriangles.svg	16	no	0	1	2000	0	0			0	0			1				0	
6.6.1	mac	2023-06-02	04:50:34	04:54:43	245178	6167abbd7db521535e811eb0	4	1	practice_z	5	advance_on_keypress_ZEE	22	stimuli_distractor_trianglediamonds.svg	stimuli_distractor_diamondtriangles.svg	16	no	57	0	449	0	0			0	0			1				0	
6.6.1	mac	2023-06-02	04:50:34	04:54:46	248260	6167abbd7db521535e811eb0	4	1	practice_z	5	practice_z	23	stimuli_distractor_diamondtriangles.svg	stimuli_target_rectangletriangles.svg	7	yes	44	1	996	0	0			0	0			1				0	
6.6.1	mac	2023-06-02	04:50:34	04:54:46	248260	6167abbd7db521535e811eb0	4	1	practice_z	5	advance_on_keypress_ZEE	24	stimuli_distractor_diamondtriangles.svg	stimuli_target_rectangletriangles.svg	7	yes	57	0	567	0	0			0	0			1				0	
6.6.1	mac	2023-06-02	04:50:34	04:54:51	252464	6167abbd7db521535e811eb0	4	1	practice_z	5	practice_z	25	stimuli_distractor_diamondtriangles.svg	stimuli_distractor_diamondtriangles.svg	13	no	0	1	2000	0	0			0	0			1				0	
6.6.1	mac	2023-06-02	04:50:34	04:54:51	252464	6167abbd7db521535e811eb0	4	1	practice_z	5	advance_on_keypress_ZEE	26	stimuli_distractor_diamondtriangles.svg	stimuli_distractor_diamondtriangles.svg	13	no	57	0	285	0	0			0	0			1				0	
6.6.1	mac	2023-06-02	04:50:34	04:54:54	255462	6167abbd7db521535e811eb0	4	1	practice_z	5	practice_z	27	stimuli_target_squarediamonds.svg	stimuli_distractor_diamondtriangles.svg	2	yes	44	1	1078	0	0			0	0			1				0	
6.6.1	mac	2023-06-02	04:50:34	04:54:54	255462	6167abbd7db521535e811eb0	4	1	practice_z	5	advance_on_keypress_ZEE	28	stimuli_target_squarediamonds.svg	stimuli_distractor_diamondtriangles.svg	2	yes	57	0	474	0	0			0	0			1				0	
6.6.1	mac	2023-06-02	04:50:34	04:54:57	258532	6167abbd7db521535e811eb0	4	1	practice_z	5	practice_z	29	stimuli_distractor_trianglediamonds.svg	stimuli_target_diamondrectangles.svg	12	yes	44	1	948	0	0			0	0			1				0	
6.6.1	mac	2023-06-02	04:50:34	04:54:57	258532	6167abbd7db521535e811eb0	4	1	practice_z	5	advance_on_keypress_ZEE	30	stimuli_distractor_trianglediamonds.svg	stimuli_target_diamondrectangles.svg	12	yes	57	0	266	0	0			0	0			1				0	
6.6.1	mac	2023-06-02	04:50:34	04:54:59	261316	6167abbd7db521535e811eb0	4	1	practice_z	5	practice_z	31	stimuli_target_rectanglediamonds.svg	stimuli_distractor_trianglediamonds.svg	4	yes	44	1	878	0	0			0	0			1				0	
6.6.1	mac	2023-06-02	04:50:34	04:54:59	261316	6167abbd7db521535e811eb0	4	1	practice_z	5	advance_on_keypress_ZEE	32	stimuli_target_rectanglediamonds.svg	stimuli_distractor_trianglediamonds.svg	4	yes	57	0	168	0	0			0	0			1				0	
6.6.1	mac	2023-06-02	04:50:34	04:55:05	267334	6167abbd7db521535e811eb0	4	1	main_z	7	main_z	1	stimuli_distractor_trianglediamonds.svg	stimuli_target_diamondrectangles.svg	27	yes	44	1	728	0	0			0	0			1				0	
6.6.1	mac	2023-06-02	04:50:34	04:55:05	267334	6167abbd7db521535e811eb0	4	1	main_z	7	advance_on_keypress_ZEE	2	stimuli_distractor_trianglediamonds.svg	stimuli_target_diamondrectangles.svg	27	yes	57	0	1104	0	0			0	0			1				0	
6.6.1	mac	2023-06-02	04:50:34	04:55:08	269946	6167abbd7db521535e811eb0	4	1	main_z	7	main_z	3	stimuli_distractor_trianglediamonds.svg	stimuli_target_trianglesquares.svg	26	yes	44	1	873	0	0			0	0			1				0	
6.6.1	mac	2023-06-02	04:50:34	04:55:08	269946	6167abbd7db521535e811eb0	4	1	main_z	7	advance_on_keypress_ZEE	4	stimuli_distractor_trianglediamonds.svg	stimuli_target_trianglesquares.svg	26	yes	57	0	2100	0	0			0	0			1				0	
6.6.1	mac	2023-06-02	04:50:34	04:55:12	273597	6167abbd7db521535e811eb0	4	1	main_z	7	main_z	5	stimuli_target_squarediamonds.svg	stimuli_distractor_trianglediamonds.svg	4	yes	44	1	921	0	0			0	0			1				0	
6.6.1	mac	2023-06-02	04:50:34	04:55:12	273597	6167abbd7db521535e811eb0	4	1	main_z	7	advance_on_keypress_ZEE	6	stimuli_target_squarediamonds.svg	stimuli_distractor_trianglediamonds.svg	4	yes	57	0	943	0	0			0	0			1				0	
6.6.1	mac	2023-06-02	04:50:34	04:55:15	277157	6167abbd7db521535e811eb0	4	1	main_z	7	main_z	7	stimuli_distractor_diamondtriangles.svg	stimuli_target_diamondrectangles.svg	31	yes	0	0	2000	0	0			0	0			1				0	
6.6.1	mac	2023-06-02	04:50:34	04:55:15	277157	6167abbd7db521535e811eb0	4	1	main_z	7	advance_on_keypress_ZEE	8	stimuli_distractor_diamondtriangles.svg	stimuli_target_diamondrectangles.svg	31	yes	57	0	593	0	0			0	0			1				0	
6.6.1	mac	2023-06-02	04:50:34	04:55:17	279240	6167abbd7db521535e811eb0	4	1	main_z	7	main_z	9	stimuli_distractor_trianglediamonds.svg	stimuli_target_squarediamonds.svg	12	yes	44	1	861	0	0			0	0			1				0	
6.6.1	mac	2023-06-02	04:50:34	04:55:17	279240	6167abbd7db521535e811eb0	4	1	main_z	7	advance_on_keypress_ZEE	10	stimuli_distractor_trianglediamonds.svg	stimuli_target_squarediamonds.svg	12	yes	57	0	784	0	0			0	0			1				0	
6.6.1	mac	2023-06-02	04:50:34	04:55:19	281277	6167abbd7db521535e811eb0	4	1	main_z	7	main_z	11	stimuli_distractor_diamondtriangles.svg	stimuli_target_rectangletriangles.svg	13	yes	44	1	630	0	0			0	0			1				0	
6.6.1	mac	2023-06-02	04:50:34	04:55:19	281277	6167abbd7db521535e811eb0	4	1	main_z	7	advance_on_keypress_ZEE	12	stimuli_distractor_diamondtriangles.svg	stimuli_target_rectangletriangles.svg	13	yes	57	0	600	0	0			0	0			1				0	
6.6.1	mac	2023-06-02	04:50:34	04:55:21	283088	6167abbd7db521535e811eb0	4	1	main_z	7	main_z	13	stimuli_distractor_diamondtriangles.svg	stimuli_target_rectanglediamonds.svg	14	yes	44	1	574	0	0			0	0			1				0	
6.6.1	mac	2023-06-02	04:50:34	04:55:21	283088	6167abbd7db521535e811eb0	4	1	main_z	7	advance_on_keypress_ZEE	14	stimuli_distractor_diamondtriangles.svg	stimuli_target_rectanglediamonds.svg	14	yes	57	0	542	0	0			0	0			1				0	
6.6.1	mac	2023-06-02	04:50:34	04:55:24	286261	6167abbd7db521535e811eb0	4	1	main_z	7	main_z	15	stimuli_distractor_diamondtriangles.svg	stimuli_target_trianglerectangles.svg	29	yes	0	0	2000	0	0			0	0			1				0	
6.6.1	mac	2023-06-02	04:50:34	04:55:24	286261	6167abbd7db521535e811eb0	4	1	main_z	7	advance_on_keypress_ZEE	16	stimuli_distractor_diamondtriangles.svg	stimuli_target_trianglerectangles.svg	29	yes	57	0	426	0	0			0	0			1				0	
6.6.1	mac	2023-06-02	04:50:34	04:55:27	289314	6167abbd7db521535e811eb0	4	1	main_z	7	main_z	17	stimuli_target_diamondsquares.svg	stimuli_distractor_diamondtriangles.svg	24	yes	0	0	2000	0	0			0	0			1				0	
6.6.1	mac	2023-06-02	04:50:34	04:55:27	289314	6167abbd7db521535e811eb0	4	1	main_z	7	advance_on_keypress_ZEE	18	stimuli_target_diamondsquares.svg	stimuli_distractor_diamondtriangles.svg	24	yes	57	0	292	0	0			0	0			1				0	
6.6.1	mac	2023-06-02	04:50:34	04:55:29	291158	6167abbd7db521535e811eb0	4	1	main_z	7	main_z	19	stimuli_distractor_trianglediamonds.svg	stimuli_target_diamondsquares.svg	28	yes	44	1	924	0	0			0	0			1				0	
6.6.1	mac	2023-06-02	04:50:34	04:55:29	291158	6167abbd7db521535e811eb0	4	1	main_z	7	advance_on_keypress_ZEE	20	stimuli_distractor_trianglediamonds.svg	stimuli_target_diamondsquares.svg	28	yes	57	0	552	0	0			0	0			1				0	
6.6.1	mac	2023-06-02	04:50:34	04:55:31	292976	6167abbd7db521535e811eb0	4	1	main_z	7	main_z	21	stimuli_distractor_diamondtriangles.svg	stimuli_target_diamondsquares.svg	32	yes	44	1	640	0	0			0	0			1				0	
6.6.1	mac	2023-06-02	04:50:34	04:55:31	292976	6167abbd7db521535e811eb0	4	1	main_z	7	advance_on_keypress_ZEE	22	stimuli_distractor_diamondtriangles.svg	stimuli_target_diamondsquares.svg	32	yes	57	0	498	0	0			0	0			1				0	
6.6.1	mac	2023-06-02	04:50:34	04:55:33	294774	6167abbd7db521535e811eb0	4	1	main_z	7	main_z	23	stimuli_distractor_diamondtriangles.svg	stimuli_target_trianglesquares.svg	30	yes	44	1	671	0	0			0	0			1				0	
6.6.1	mac	2023-06-02	04:50:34	04:55:33	294774	6167abbd7db521535e811eb0	4	1	main_z	7	advance_on_keypress_ZEE	24	stimuli_distractor_diamondtriangles.svg	stimuli_target_trianglesquares.svg	30	yes	57	0	437	0	0			0	0			1				0	
6.6.1	mac	2023-06-02	04:50:34	04:55:36	297834	6167abbd7db521535e811eb0	4	1	main_z	7	main_z	25	stimuli_distractor_diamondtriangles.svg	stimuli_distractor_trianglediamonds.svg	38	no	0	1	2000	0	0			0	0			1				0	
6.6.1	mac	2023-06-02	04:50:34	04:55:36	297834	6167abbd7db521535e811eb0	4	1	main_z	7	advance_on_keypress_ZEE	26	stimuli_distractor_diamondtriangles.svg	stimuli_distractor_trianglediamonds.svg	38	no	57	0	435	0	0			0	0			1				0	
6.6.1	mac	2023-06-02	04:50:34	04:55:38	299485	6167abbd7db521535e811eb0	4	1	main_z	7	main_z	27	stimuli_distractor_diamondtriangles.svg	stimuli_target_squarediamonds.svg	16	yes	44	1	581	0	0			0	0			1				0	
6.6.1	mac	2023-06-02	04:50:34	04:55:38	299485	6167abbd7db521535e811eb0	4	1	main_z	7	advance_on_keypress_ZEE	28	stimuli_distractor_diamondtriangles.svg	stimuli_target_squarediamonds.svg	16	yes	57	0	409	0	0			0	0			1				0	
6.6.1	mac	2023-06-02	04:50:34	04:55:39	301290	6167abbd7db521535e811eb0	4	1	main_z	7	main_z	29	stimuli_distractor_trianglediamonds.svg	stimuli_target_trianglerectangles.svg	25	yes	44	1	752	0	0			0	0			1				0	
6.6.1	mac	2023-06-02	04:50:34	04:55:39	301290	6167abbd7db521535e811eb0	4	1	main_z	7	advance_on_keypress_ZEE	30	stimuli_distractor_trianglediamonds.svg	stimuli_target_trianglerectangles.svg	25	yes	57	0	416	0	0			0	0			1				0	
6.6.1	mac	2023-06-02	04:50:34	04:55:42	304337	6167abbd7db521535e811eb0	4	1	main_z	7	main_z	31	stimuli_distractor_trianglediamonds.svg	stimuli_distractor_diamondtriangles.svg	35	no	0	1	2000	0	0			0	0			1				0	
6.6.1	mac	2023-06-02	04:50:34	04:55:42	304337	6167abbd7db521535e811eb0	4	1	main_z	7	advance_on_keypress_ZEE	32	stimuli_distractor_trianglediamonds.svg	stimuli_distractor_diamondtriangles.svg	35	no	57	0	315	0	0			0	0			1				0	
6.6.1	mac	2023-06-02	04:50:34	04:55:45	307286	6167abbd7db521535e811eb0	4	1	main_z	7	main_z	33	stimuli_distractor_trianglediamonds.svg	stimuli_distractor_trianglediamonds.svg	33	no	0	1	2000	0	0			0	0			1				0	
6.6.1	mac	2023-06-02	04:50:34	04:55:45	307286	6167abbd7db521535e811eb0	4	1	main_z	7	advance_on_keypress_ZEE	34	stimuli_distractor_trianglediamonds.svg	stimuli_distractor_trianglediamonds.svg	33	no	57	0	362	0	0			0	0			1				0	
6.6.1	mac	2023-06-02	04:50:34	04:55:47	309336	6167abbd7db521535e811eb0	4	1	main_z	7	main_z	35	stimuli_distractor_trianglediamonds.svg	stimuli_target_squaretriangles.svg	11	yes	44	1	1061	0	0			0	0			1				0	
6.6.1	mac	2023-06-02	04:50:34	04:55:47	309336	6167abbd7db521535e811eb0	4	1	main_z	7	advance_on_keypress_ZEE	36	stimuli_distractor_trianglediamonds.svg	stimuli_target_squaretriangles.svg	11	yes	57	0	430	0	0			0	0			1				0	
6.6.1	mac	2023-06-02	04:50:34	04:55:49	311271	6167abbd7db521535e811eb0	4	1	main_z	7	main_z	37	stimuli_distractor_diamondtriangles.svg	stimuli_target_squaretriangles.svg	15	yes	44	1	865	0	0			0	0			1				0	
6.6.1	mac	2023-06-02	04:50:34	04:55:49	311271	6167abbd7db521535e811eb0	4	1	main_z	7	advance_on_keypress_ZEE	38	stimuli_distractor_diamondtriangles.svg	stimuli_target_squaretriangles.svg	15	yes	57	0	394	0	0			0	0			1				0	
6.6.1	mac	2023-06-02	04:50:34	04:55:52	314291	6167abbd7db521535e811eb0	4	1	main_z	7	main_z	39	stimuli_target_trianglesquares.svg	stimuli_distractor_diamondtriangles.svg	22	yes	0	0	2000	0	0			0	0			1				0	
6.6.1	mac	2023-06-02	04:50:34	04:55:52	314291	6167abbd7db521535e811eb0	4	1	main_z	7	advance_on_keypress_ZEE	40	stimuli_target_trianglesquares.svg	stimuli_distractor_diamondtriangles.svg	22	yes	57	0	332	0	0			0	0			1				0	
6.6.1	mac	2023-06-02	04:50:34	04:55:55	317258	6167abbd7db521535e811eb0	4	1	main_z	7	main_z	41	stimuli_target_diamondrectangles.svg	stimuli_distractor_diamondtriangles.svg	23	yes	0	0	2000	0	0			0	0			1				0	
6.6.1	mac	2023-06-02	04:50:34	04:55:55	317258	6167abbd7db521535e811eb0	4	1	main_z	7	advance_on_keypress_ZEE	42	stimuli_target_diamondrectangles.svg	stimuli_distractor_diamondtriangles.svg	23	yes	57	0	383	0	0			0	0			1				0	
6.6.1	mac	2023-06-02	04:50:34	04:55:57	319360	6167abbd7db521535e811eb0	4	1	main_z	7	main_z	43	stimuli_target_trianglesquares.svg	stimuli_distractor_trianglediamonds.svg	18	yes	44	1	1079	0	0			0	0			1				0	
6.6.1	mac	2023-06-02	04:50:34	04:55:57	319360	6167abbd7db521535e811eb0	4	1	main_z	7	advance_on_keypress_ZEE	44	stimuli_target_trianglesquares.svg	stimuli_distractor_trianglediamonds.svg	18	yes	57	0	501	0	0			0	0			1				0	
6.6.1	mac	2023-06-02	04:50:34	04:56:01	322495	6167abbd7db521535e811eb0	4	1	main_z	7	main_z	45	stimuli_target_diamondrectangles.svg	stimuli_distractor_trianglediamonds.svg	19	yes	0	0	2000	0	0			0	0			1				0	
6.6.1	mac	2023-06-02	04:50:34	04:56:01	322495	6167abbd7db521535e811eb0	4	1	main_z	7	advance_on_keypress_ZEE	46	stimuli_target_diamondrectangles.svg	stimuli_distractor_trianglediamonds.svg	19	yes	57	0	338	0	0			0	0			1				0	
6.6.1	mac	2023-06-02	04:50:34	04:56:03	324501	6167abbd7db521535e811eb0	4	1	main_z	7	main_z	47	stimuli_distractor_diamondtriangles.svg	stimuli_distractor_diamondtriangles.svg	39	no	44	0	1036	0	0			0	0			1				0	
6.6.1	mac	2023-06-02	04:50:34	04:56:03	324501	6167abbd7db521535e811eb0	4	1	main_z	7	advance_on_keypress_ZEE	48	stimuli_distractor_diamondtriangles.svg	stimuli_distractor_diamondtriangles.svg	39	no	57	0	393	0	0			0	0			1				0	
6.6.1	mac	2023-06-02	04:50:34	04:56:04	326323	6167abbd7db521535e811eb0	4	1	main_z	7	main_z	49	stimuli_distractor_trianglediamonds.svg	stimuli_target_rectangletriangles.svg	9	yes	44	1	809	0	0			0	0			1				0	
6.6.1	mac	2023-06-02	04:50:34	04:56:04	326323	6167abbd7db521535e811eb0	4	1	main_z	7	advance_on_keypress_ZEE	50	stimuli_distractor_trianglediamonds.svg	stimuli_target_rectangletriangles.svg	9	yes	57	0	409	0	0			0	0			1				0	
6.6.1	mac	2023-06-02	04:50:34	04:56:07	329348	6167abbd7db521535e811eb0	4	1	main_z	7	main_z	51	stimuli_distractor_diamondtriangles.svg	stimuli_distractor_diamondtriangles.svg	40	no	0	1	2000	0	0			0	0			1				0	
6.6.1	mac	2023-06-02	04:50:34	04:56:07	329348	6167abbd7db521535e811eb0	4	1	main_z	7	advance_on_keypress_ZEE	52	stimuli_distractor_diamondtriangles.svg	stimuli_distractor_diamondtriangles.svg	40	no	57	0	410	0	0			0	0			1				0	
6.6.1	mac	2023-06-02	04:50:34	04:56:09	331060	6167abbd7db521535e811eb0	4	1	main_z	7	main_z	53	stimuli_target_rectanglediamonds.svg	stimuli_distractor_diamondtriangles.svg	6	yes	44	1	676	0	0			0	0			1				0	
6.6.1	mac	2023-06-02	04:50:34	04:56:09	331060	6167abbd7db521535e811eb0	4	1	main_z	7	advance_on_keypress_ZEE	54	stimuli_target_rectanglediamonds.svg	stimuli_distractor_diamondtriangles.svg	6	yes	57	0	382	0	0			0	0			1				0	
6.6.1	mac	2023-06-02	04:50:34	04:56:11	332783	6167abbd7db521535e811eb0	4	1	main_z	7	main_z	55	stimuli_target_rectanglediamonds.svg	stimuli_distractor_trianglediamonds.svg	2	yes	44	1	697	0	0			0	0			1				0	
6.6.1	mac	2023-06-02	04:50:34	04:56:11	332783	6167abbd7db521535e811eb0	4	1	main_z	7	advance_on_keypress_ZEE	56	stimuli_target_rectanglediamonds.svg	stimuli_distractor_trianglediamonds.svg	2	yes	57	0	360	0	0			0	0			1				0	
6.6.1	mac	2023-06-02	04:50:34	04:56:12	334180	6167abbd7db521535e811eb0	4	1	main_z	7	main_z	57	stimuli_target_rectangletriangles.svg	stimuli_distractor_trianglediamonds.svg	1	yes	44	1	411	0	0			0	0			1				0	
6.6.1	mac	2023-06-02	04:50:34	04:56:12	334180	6167abbd7db521535e811eb0	4	1	main_z	7	advance_on_keypress_ZEE	58	stimuli_target_rectangletriangles.svg	stimuli_distractor_trianglediamonds.svg	1	yes	57	0	365	0	0			0	0			1				0	
6.6.1	mac	2023-06-02	04:50:34	04:56:14	335621	6167abbd7db521535e811eb0	4	1	main_z	7	main_z	59	stimuli_target_squaretriangles.svg	stimuli_distractor_diamondtriangles.svg	7	yes	44	1	435	0	0			0	0			1				0	
6.6.1	mac	2023-06-02	04:50:34	04:56:14	335621	6167abbd7db521535e811eb0	4	1	main_z	7	advance_on_keypress_ZEE	60	stimuli_target_squaretriangles.svg	stimuli_distractor_diamondtriangles.svg	7	yes	57	0	362	0	0			0	0			1				0	
6.6.1	mac	2023-06-02	04:50:34	04:56:17	338617	6167abbd7db521535e811eb0	4	1	main_z	7	main_z	61	stimuli_distractor_trianglediamonds.svg	stimuli_distractor_diamondtriangles.svg	36	no	0	1	2000	0	0			0	0			1				0	
6.6.1	mac	2023-06-02	04:50:34	04:56:17	338617	6167abbd7db521535e811eb0	4	1	main_z	7	advance_on_keypress_ZEE	62	stimuli_distractor_trianglediamonds.svg	stimuli_distractor_diamondtriangles.svg	36	no	57	0	402	0	0			0	0			1				0	
6.6.1	mac	2023-06-02	04:50:34	04:56:20	341653	6167abbd7db521535e811eb0	4	1	main_z	7	main_z	63	stimuli_target_trianglerectangles.svg	stimuli_distractor_trianglediamonds.svg	17	yes	0	0	2000	0	0			0	0			1				0	
6.6.1	mac	2023-06-02	04:50:34	04:56:20	341653	6167abbd7db521535e811eb0	4	1	main_z	7	advance_on_keypress_ZEE	64	stimuli_target_trianglerectangles.svg	stimuli_distractor_trianglediamonds.svg	17	yes	57	0	282	0	0			0	0			1				0	
6.6.1	mac	2023-06-02	04:50:34	04:56:21	343318	6167abbd7db521535e811eb0	4	1	main_z	7	main_z	65	stimuli_target_squaretriangles.svg	stimuli_distractor_trianglediamonds.svg	3	yes	44	1	743	0	0			0	0			1				0	
6.6.1	mac	2023-06-02	04:50:34	04:56:21	343318	6167abbd7db521535e811eb0	4	1	main_z	7	advance_on_keypress_ZEE	66	stimuli_target_squaretriangles.svg	stimuli_distractor_trianglediamonds.svg	3	yes	57	0	376	0	0			0	0			1				0	
6.6.1	mac	2023-06-02	04:50:34	04:56:23	345186	6167abbd7db521535e811eb0	4	1	main_z	7	main_z	67	stimuli_target_trianglerectangles.svg	stimuli_distractor_diamondtriangles.svg	21	yes	44	1	862	0	0			0	0			1				0	
6.6.1	mac	2023-06-02	04:50:34	04:56:23	345186	6167abbd7db521535e811eb0	4	1	main_z	7	advance_on_keypress_ZEE	68	stimuli_target_trianglerectangles.svg	stimuli_distractor_diamondtriangles.svg	21	yes	57	0	347	0	0			0	0			1				0	
6.6.1	mac	2023-06-02	04:50:34	04:56:25	347369	6167abbd7db521535e811eb0	4	1	main_z	7	main_z	69	stimuli_target_diamondsquares.svg	stimuli_distractor_trianglediamonds.svg	20	yes	44	1	1195	0	0			0	0			1				0	
6.6.1	mac	2023-06-02	04:50:34	04:56:25	347369	6167abbd7db521535e811eb0	4	1	main_z	7	advance_on_keypress_ZEE	70	stimuli_target_diamondsquares.svg	stimuli_distractor_trianglediamonds.svg	20	yes	57	0	377	0	0			0	0			1				0	
6.6.1	mac	2023-06-02	04:50:34	04:56:27	349271	6167abbd7db521535e811eb0	4	1	main_z	7	main_z	71	stimuli_distractor_trianglediamonds.svg	stimuli_distractor_trianglediamonds.svg	34	no	44	0	895	0	0			0	0			1				0	
6.6.1	mac	2023-06-02	04:50:34	04:56:27	349271	6167abbd7db521535e811eb0	4	1	main_z	7	advance_on_keypress_ZEE	72	stimuli_distractor_trianglediamonds.svg	stimuli_distractor_trianglediamonds.svg	34	no	57	0	354	0	0			0	0			1				0	
6.6.1	mac	2023-06-02	04:50:34	04:56:29	351139	6167abbd7db521535e811eb0	4	1	main_z	7	main_z	73	stimuli_target_rectangletriangles.svg	stimuli_distractor_diamondtriangles.svg	5	yes	44	1	881	0	0			0	0			1				0	
6.6.1	mac	2023-06-02	04:50:34	04:56:29	351139	6167abbd7db521535e811eb0	4	1	main_z	7	advance_on_keypress_ZEE	74	stimuli_target_rectangletriangles.svg	stimuli_distractor_diamondtriangles.svg	5	yes	57	0	342	0	0			0	0			1				0	
6.6.1	mac	2023-06-02	04:50:34	04:56:31	352559	6167abbd7db521535e811eb0	4	1	main_z	7	main_z	75	stimuli_distractor_trianglediamonds.svg	stimuli_target_rectanglediamonds.svg	10	yes	44	1	448	0	0			0	0			1				0	
6.6.1	mac	2023-06-02	04:50:34	04:56:31	352559	6167abbd7db521535e811eb0	4	1	main_z	7	advance_on_keypress_ZEE	76	stimuli_distractor_trianglediamonds.svg	stimuli_target_rectanglediamonds.svg	10	yes	57	0	362	0	0			0	0			1				0	
6.6.1	mac	2023-06-02	04:50:34	04:56:32	353985	6167abbd7db521535e811eb0	4	1	main_z	7	main_z	77	stimuli_target_squarediamonds.svg	stimuli_distractor_diamondtriangles.svg	8	yes	44	1	424	0	0			0	0			1				0	
6.6.1	mac	2023-06-02	04:50:34	04:56:32	353985	6167abbd7db521535e811eb0	4	1	main_z	7	advance_on_keypress_ZEE	78	stimuli_target_squarediamonds.svg	stimuli_distractor_diamondtriangles.svg	8	yes	57	0	319	0	0			0	0			1				0	
6.6.1	mac	2023-06-02	04:50:34	04:56:34	355512	6167abbd7db521535e811eb0	4	1	main_z	7	main_z	79	stimuli_distractor_diamondtriangles.svg	stimuli_distractor_trianglediamonds.svg	37	no	44	0	568	0	0			0	0			1				0	
6.6.1	mac	2023-06-02	04:50:34	04:56:34	355512	6167abbd7db521535e811eb0	4	1	main_z	7	advance_on_keypress_ZEE	80	stimuli_distractor_diamondtriangles.svg	stimuli_distractor_trianglediamonds.svg	37	no	57	0	398	0	0			0	0			1				0	
6.6.1	mac	2023-06-02	04:50:34	04:56:35	356919	6167abbd7db521535e811eb0	4	1	main_z	7	main_z	81	stimuli_target_squarediamonds.svg	stimuli_distractor_diamondtriangles.svg	8	yes	44	1	375	0	0			0	0			1				0	
6.6.1	mac	2023-06-02	04:50:34	04:56:35	356919	6167abbd7db521535e811eb0	4	1	main_z	7	advance_on_keypress_ZEE	82	stimuli_target_squarediamonds.svg	stimuli_distractor_diamondtriangles.svg	8	yes	57	0	315	0	0			0	0			1				0	
6.6.1	mac	2023-06-02	04:50:34	04:56:36	358450	6167abbd7db521535e811eb0	4	1	main_z	7	main_z	83	stimuli_distractor_trianglediamonds.svg	stimuli_target_diamondrectangles.svg	27	yes	44	1	586	0	0			0	0			1				0	
6.6.1	mac	2023-06-02	04:50:34	04:56:36	358450	6167abbd7db521535e811eb0	4	1	main_z	7	advance_on_keypress_ZEE	84	stimuli_distractor_trianglediamonds.svg	stimuli_target_diamondrectangles.svg	27	yes	57	0	324	0	0			0	0			1				0	
6.6.1	mac	2023-06-02	04:50:34	04:56:38	359986	6167abbd7db521535e811eb0	4	1	main_z	7	main_z	85	stimuli_target_diamondrectangles.svg	stimuli_distractor_diamondtriangles.svg	23	yes	44	1	590	0	0			0	0			1				0	
6.6.1	mac	2023-06-02	04:50:34	04:56:38	359986	6167abbd7db521535e811eb0	4	1	main_z	7	advance_on_keypress_ZEE	86	stimuli_target_diamondrectangles.svg	stimuli_distractor_diamondtriangles.svg	23	yes	57	0	304	0	0			0	0			1				0	
6.6.1	mac	2023-06-02	04:50:34	04:56:39	361245	6167abbd7db521535e811eb0	4	1	main_z	7	main_z	87	stimuli_target_trianglesquares.svg	stimuli_distractor_diamondtriangles.svg	22	yes	44	1	333	0	0			0	0			1				0	
6.6.1	mac	2023-06-02	04:50:34	04:56:39	361245	6167abbd7db521535e811eb0	4	1	main_z	7	advance_on_keypress_ZEE	88	stimuli_target_trianglesquares.svg	stimuli_distractor_diamondtriangles.svg	22	yes	57	0	294	0	0			0	0			1				0	
6.6.1	mac	2023-06-02	04:50:34	04:56:41	362560	6167abbd7db521535e811eb0	4	1	main_z	7	main_z	89	stimuli_distractor_diamondtriangles.svg	stimuli_distractor_trianglediamonds.svg	38	no	44	0	396	0	0			0	0			1				0	
6.6.1	mac	2023-06-02	04:50:34	04:56:41	362560	6167abbd7db521535e811eb0	4	1	main_z	7	advance_on_keypress_ZEE	90	stimuli_distractor_diamondtriangles.svg	stimuli_distractor_trianglediamonds.svg	38	no	57	0	543	0	0			0	0			1				0	
6.6.1	mac	2023-06-02	04:50:34	04:56:42	364199	6167abbd7db521535e811eb0	4	1	main_z	7	main_z	91	stimuli_distractor_trianglediamonds.svg	stimuli_target_squaretriangles.svg	11	yes	44	1	466	0	0			0	0			1				0	
6.6.1	mac	2023-06-02	04:50:34	04:56:42	364199	6167abbd7db521535e811eb0	4	1	main_z	7	advance_on_keypress_ZEE	92	stimuli_distractor_trianglediamonds.svg	stimuli_target_squaretriangles.svg	11	yes	57	0	277	0	0			0	0			1				0	
6.6.1	mac	2023-06-02	04:50:34	04:56:44	365959	6167abbd7db521535e811eb0	4	1	main_z	7	main_z	93	stimuli_target_trianglesquares.svg	stimuli_distractor_trianglediamonds.svg	18	yes	44	1	844	0	0			0	0			1				0	
6.6.1	mac	2023-06-02	04:50:34	04:56:44	365959	6167abbd7db521535e811eb0	4	1	main_z	7	advance_on_keypress_ZEE	94	stimuli_target_trianglesquares.svg	stimuli_distractor_trianglediamonds.svg	18	yes	57	0	336	0	0			0	0			1				0	
6.6.1	mac	2023-06-02	04:50:34	04:56:46	367487	6167abbd7db521535e811eb0	4	1	main_z	7	main_z	95	stimuli_distractor_diamondtriangles.svg	stimuli_target_squaretriangles.svg	15	yes	44	1	572	0	0			0	0			1				0	
6.6.1	mac	2023-06-02	04:50:34	04:56:46	367487	6167abbd7db521535e811eb0	4	1	main_z	7	advance_on_keypress_ZEE	96	stimuli_distractor_diamondtriangles.svg	stimuli_target_squaretriangles.svg	15	yes	57	0	295	0	0			0	0			1				0	
6.6.1	mac	2023-06-02	04:50:34	04:56:48	370416	6167abbd7db521535e811eb0	4	1	main_z	7	main_z	97	stimuli_distractor_trianglediamonds.svg	stimuli_distractor_diamondtriangles.svg	36	no	0	1	2000	0	0			0	0			1				0	
6.6.1	mac	2023-06-02	04:50:34	04:56:48	370416	6167abbd7db521535e811eb0	4	1	main_z	7	advance_on_keypress_ZEE	98	stimuli_distractor_trianglediamonds.svg	stimuli_distractor_diamondtriangles.svg	36	no	57	0	377	0	0			0	0			1				0	
6.6.1	mac	2023-06-02	04:50:34	04:56:50	371951	6167abbd7db521535e811eb0	4	1	main_z	7	main_z	99	stimuli_distractor_trianglediamonds.svg	stimuli_target_trianglerectangles.svg	25	yes	44	1	515	0	0			0	0			1				0	
6.6.1	mac	2023-06-02	04:50:34	04:56:50	371951	6167abbd7db521535e811eb0	4	1	main_z	7	advance_on_keypress_ZEE	100	stimuli_distractor_trianglediamonds.svg	stimuli_target_trianglerectangles.svg	25	yes	57	0	270	0	0			0	0			1				0	
6.6.1	mac	2023-06-02	04:50:34	04:56:53	374853	6167abbd7db521535e811eb0	4	1	main_z	7	main_z	101	stimuli_distractor_trianglediamonds.svg	stimuli_distractor_diamondtriangles.svg	35	no	0	1	2000	0	0			0	0			1				0	
6.6.1	mac	2023-06-02	04:50:34	04:56:53	374853	6167abbd7db521535e811eb0	4	1	main_z	7	advance_on_keypress_ZEE	102	stimuli_distractor_trianglediamonds.svg	stimuli_distractor_diamondtriangles.svg	35	no	57	0	320	0	0			0	0			1				0	
6.6.1	mac	2023-06-02	04:50:34	04:56:54	376311	6167abbd7db521535e811eb0	4	1	main_z	7	main_z	103	stimuli_target_squarediamonds.svg	stimuli_distractor_trianglediamonds.svg	4	yes	44	1	506	0	0			0	0			1				0	
6.6.1	mac	2023-06-02	04:50:34	04:56:54	376311	6167abbd7db521535e811eb0	4	1	main_z	7	advance_on_keypress_ZEE	104	stimuli_target_squarediamonds.svg	stimuli_distractor_trianglediamonds.svg	4	yes	57	0	260	0	0			0	0			1				0	
6.6.1	mac	2023-06-02	04:50:34	04:56:56	377867	6167abbd7db521535e811eb0	4	1	main_z	7	main_z	105	stimuli_distractor_diamondtriangles.svg	stimuli_target_diamondsquares.svg	32	yes	44	1	678	0	0			0	0			1				0	
6.6.1	mac	2023-06-02	04:50:34	04:56:56	377867	6167abbd7db521535e811eb0	4	1	main_z	7	advance_on_keypress_ZEE	106	stimuli_distractor_diamondtriangles.svg	stimuli_target_diamondsquares.svg	32	yes	57	0	312	0	0			0	0			1				0	
6.6.1	mac	2023-06-02	04:50:34	04:56:57	379341	6167abbd7db521535e811eb0	4	1	main_z	7	main_z	107	stimuli_target_rectangletriangles.svg	stimuli_distractor_diamondtriangles.svg	5	yes	44	1	517	0	0			0	0			1				0	
6.6.1	mac	2023-06-02	04:50:34	04:56:57	379341	6167abbd7db521535e811eb0	4	1	main_z	7	advance_on_keypress_ZEE	108	stimuli_target_rectangletriangles.svg	stimuli_distractor_diamondtriangles.svg	5	yes	57	0	286	0	0			0	0			1				0	
6.6.1	mac	2023-06-02	04:50:34	04:56:59	380758	6167abbd7db521535e811eb0	4	1	main_z	7	main_z	109	stimuli_target_trianglerectangles.svg	stimuli_distractor_trianglediamonds.svg	17	yes	44	1	501	0	0			0	0			1				0	
6.6.1	mac	2023-06-02	04:50:34	04:56:59	380758	6167abbd7db521535e811eb0	4	1	main_z	7	advance_on_keypress_ZEE	110	stimuli_target_trianglerectangles.svg	stimuli_distractor_trianglediamonds.svg	17	yes	57	0	290	0	0			0	0			1				0	
6.6.1	mac	2023-06-02	04:50:34	04:57:02	383671	6167abbd7db521535e811eb0	4	1	main_z	7	main_z	111	stimuli_distractor_diamondtriangles.svg	stimuli_distractor_trianglediamonds.svg	37	no	0	1	2000	0	0			0	0			1				0	
6.6.1	mac	2023-06-02	04:50:34	04:57:02	383671	6167abbd7db521535e811eb0	4	1	main_z	7	advance_on_keypress_ZEE	112	stimuli_distractor_diamondtriangles.svg	stimuli_distractor_trianglediamonds.svg	37	no	57	0	419	0	0			0	0			1				0	
6.6.1	mac	2023-06-02	04:50:34	04:57:03	385299	6167abbd7db521535e811eb0	4	1	main_z	7	main_z	113	stimuli_distractor_diamondtriangles.svg	stimuli_target_diamondrectangles.svg	31	yes	44	1	574	0	0			0	0			1				0	
6.6.1	mac	2023-06-02	04:50:34	04:57:03	385299	6167abbd7db521535e811eb0	4	1	main_z	7	advance_on_keypress_ZEE	114	stimuli_distractor_diamondtriangles.svg	stimuli_target_diamondrectangles.svg	31	yes	57	0	487	0	0			0	0			1				0	
6.6.1	mac	2023-06-02	04:50:34	04:57:05	386844	6167abbd7db521535e811eb0	4	1	main_z	7	main_z	115	stimuli_distractor_trianglediamonds.svg	stimuli_target_squarediamonds.svg	12	yes	44	1	419	0	0			0	0			1				0	
6.6.1	mac	2023-06-02	04:50:34	04:57:05	386844	6167abbd7db521535e811eb0	4	1	main_z	7	advance_on_keypress_ZEE	116	stimuli_distractor_trianglediamonds.svg	stimuli_target_squarediamonds.svg	12	yes	57	0	252	0	0			0	0			1				0	
6.6.1	mac	2023-06-02	04:50:34	04:57:06	388282	6167abbd7db521535e811eb0	4	1	main_z	7	main_z	117	stimuli_distractor_trianglediamonds.svg	stimuli_distractor_trianglediamonds.svg	33	no	44	0	555	0	0			0	0			1				0	
6.6.1	mac	2023-06-02	04:50:34	04:57:06	388282	6167abbd7db521535e811eb0	4	1	main_z	7	advance_on_keypress_ZEE	118	stimuli_distractor_trianglediamonds.svg	stimuli_distractor_trianglediamonds.svg	33	no	57	0	276	0	0			0	0			1				0	
6.6.1	mac	2023-06-02	04:50:34	04:57:08	389601	6167abbd7db521535e811eb0	4	1	main_z	7	main_z	119	stimuli_target_squaretriangles.svg	stimuli_distractor_trianglediamonds.svg	3	yes	44	1	406	0	0			0	0			1				0	
6.6.1	mac	2023-06-02	04:50:34	04:57:08	389601	6167abbd7db521535e811eb0	4	1	main_z	7	advance_on_keypress_ZEE	120	stimuli_target_squaretriangles.svg	stimuli_distractor_trianglediamonds.svg	3	yes	57	0	296	0	0			0	0			1				0	
6.6.1	mac	2023-06-02	04:50:34	04:57:09	391253	6167abbd7db521535e811eb0	4	1	main_z	7	main_z	121	stimuli_distractor_diamondtriangles.svg	stimuli_target_trianglerectangles.svg	29	yes	44	1	726	0	0			0	0			1				0	
6.6.1	mac	2023-06-02	04:50:34	04:57:09	391253	6167abbd7db521535e811eb0	4	1	main_z	7	advance_on_keypress_ZEE	122	stimuli_distractor_diamondtriangles.svg	stimuli_target_trianglerectangles.svg	29	yes	57	0	320	0	0			0	0			1				0	
6.6.1	mac	2023-06-02	04:50:34	04:57:11	392660	6167abbd7db521535e811eb0	4	1	main_z	7	main_z	123	stimuli_distractor_diamondtriangles.svg	stimuli_target_rectanglediamonds.svg	14	yes	44	1	466	0	0			0	0			1				0	
6.6.1	mac	2023-06-02	04:50:34	04:57:11	392660	6167abbd7db521535e811eb0	4	1	main_z	7	advance_on_keypress_ZEE	124	stimuli_distractor_diamondtriangles.svg	stimuli_target_rectanglediamonds.svg	14	yes	57	0	237	0	0			0	0			1				0	
6.6.1	mac	2023-06-02	04:50:34	04:57:12	393910	6167abbd7db521535e811eb0	4	1	main_z	7	main_z	125	stimuli_distractor_trianglediamonds.svg	stimuli_target_rectanglediamonds.svg	10	yes	44	1	380	0	0			0	0			1				0	
6.6.1	mac	2023-06-02	04:50:34	04:57:12	393910	6167abbd7db521535e811eb0	4	1	main_z	7	advance_on_keypress_ZEE	126	stimuli_distractor_trianglediamonds.svg	stimuli_target_rectanglediamonds.svg	10	yes	57	0	247	0	0			0	0			1				0	
6.6.1	mac	2023-06-02	04:50:34	04:57:13	395099	6167abbd7db521535e811eb0	4	1	main_z	7	main_z	127	stimuli_target_diamondsquares.svg	stimuli_distractor_diamondtriangles.svg	24	yes	44	1	303	0	0			0	0			1				0	
6.6.1	mac	2023-06-02	04:50:34	04:57:13	395099	6167abbd7db521535e811eb0	4	1	main_z	7	advance_on_keypress_ZEE	128	stimuli_target_diamondsquares.svg	stimuli_distractor_diamondtriangles.svg	24	yes	57	0	336	0	0			0	0			1				0	
6.6.1	mac	2023-06-02	04:50:34	04:57:14	396412	6167abbd7db521535e811eb0	4	1	main_z	7	main_z	129	stimuli_target_rectanglediamonds.svg	stimuli_distractor_trianglediamonds.svg	2	yes	44	1	348	0	0			0	0			1				0	
6.6.1	mac	2023-06-02	04:50:34	04:57:14	396412	6167abbd7db521535e811eb0	4	1	main_z	7	advance_on_keypress_ZEE	130	stimuli_target_rectanglediamonds.svg	stimuli_distractor_trianglediamonds.svg	2	yes	57	0	215	0	0			0	0			1				0	
6.6.1	mac	2023-06-02	04:50:34	04:57:16	397689	6167abbd7db521535e811eb0	4	1	main_z	7	main_z	131	stimuli_distractor_trianglediamonds.svg	stimuli_target_diamondsquares.svg	28	yes	44	1	424	0	0			0	0			1				0	
6.6.1	mac	2023-06-02	04:50:34	04:57:16	397689	6167abbd7db521535e811eb0	4	1	main_z	7	advance_on_keypress_ZEE	132	stimuli_distractor_trianglediamonds.svg	stimuli_target_diamondsquares.svg	28	yes	57	0	280	0	0			0	0			1				0	
6.6.1	mac	2023-06-02	04:50:34	04:57:17	398997	6167abbd7db521535e811eb0	4	1	main_z	7	main_z	133	stimuli_distractor_diamondtriangles.svg	stimuli_target_squarediamonds.svg	16	yes	44	1	395	0	0			0	0			1				0	
6.6.1	mac	2023-06-02	04:50:34	04:57:17	398997	6167abbd7db521535e811eb0	4	1	main_z	7	advance_on_keypress_ZEE	134	stimuli_distractor_diamondtriangles.svg	stimuli_target_squarediamonds.svg	16	yes	57	0	284	0	0			0	0			1				0	
6.6.1	mac	2023-06-02	04:50:34	04:57:18	400399	6167abbd7db521535e811eb0	4	1	main_z	7	main_z	135	stimuli_target_rectanglediamonds.svg	stimuli_distractor_diamondtriangles.svg	6	yes	44	1	484	0	0			0	0			1				0	
6.6.1	mac	2023-06-02	04:50:34	04:57:18	400399	6167abbd7db521535e811eb0	4	1	main_z	7	advance_on_keypress_ZEE	136	stimuli_target_rectanglediamonds.svg	stimuli_distractor_diamondtriangles.svg	6	yes	57	0	303	0	0			0	0			1				0	
6.6.1	mac	2023-06-02	04:50:34	04:57:20	401729	6167abbd7db521535e811eb0	4	1	main_z	7	main_z	137	stimuli_distractor_diamondtriangles.svg	stimuli_target_rectangletriangles.svg	13	yes	44	1	397	0	0			0	0			1				0	
6.6.1	mac	2023-06-02	04:50:34	04:57:20	401729	6167abbd7db521535e811eb0	4	1	main_z	7	advance_on_keypress_ZEE	138	stimuli_distractor_diamondtriangles.svg	stimuli_target_rectangletriangles.svg	13	yes	57	0	310	0	0			0	0			1				0	
6.6.1	mac	2023-06-02	04:50:34	04:57:21	403122	6167abbd7db521535e811eb0	4	1	main_z	7	main_z	139	stimuli_target_diamondsquares.svg	stimuli_distractor_trianglediamonds.svg	20	yes	44	1	421	0	0			0	0			1				0	
6.6.1	mac	2023-06-02	04:50:34	04:57:21	403122	6167abbd7db521535e811eb0	4	1	main_z	7	advance_on_keypress_ZEE	140	stimuli_target_diamondsquares.svg	stimuli_distractor_trianglediamonds.svg	20	yes	57	0	376	0	0			0	0			1				0	
6.6.1	mac	2023-06-02	04:50:34	04:57:23	404646	6167abbd7db521535e811eb0	4	1	main_z	7	main_z	141	stimuli_target_squaretriangles.svg	stimuli_distractor_diamondtriangles.svg	7	yes	44	1	510	0	0			0	0			1				0	
6.6.1	mac	2023-06-02	04:50:34	04:57:23	404646	6167abbd7db521535e811eb0	4	1	main_z	7	advance_on_keypress_ZEE	142	stimuli_target_squaretriangles.svg	stimuli_distractor_diamondtriangles.svg	7	yes	57	0	257	0	0			0	0			1				0	
6.6.1	mac	2023-06-02	04:50:34	04:57:26	407533	6167abbd7db521535e811eb0	4	1	main_z	7	main_z	143	stimuli_distractor_trianglediamonds.svg	stimuli_distractor_trianglediamonds.svg	34	no	0	1	2000	0	0			0	0			1				0	
6.6.1	mac	2023-06-02	04:50:34	04:57:26	407533	6167abbd7db521535e811eb0	4	1	main_z	7	advance_on_keypress_ZEE	144	stimuli_distractor_trianglediamonds.svg	stimuli_distractor_trianglediamonds.svg	34	no	57	0	640	0	0			0	0			1				0	
6.6.1	mac	2023-06-02	04:50:34	04:57:29	410802	6167abbd7db521535e811eb0	4	1	main_z	7	main_z	145	stimuli_distractor_diamondtriangles.svg	stimuli_distractor_diamondtriangles.svg	39	no	0	1	2000	0	0			0	0			1				0	
6.6.1	mac	2023-06-02	04:50:34	04:57:29	410802	6167abbd7db521535e811eb0	4	1	main_z	7	advance_on_keypress_ZEE	146	stimuli_distractor_diamondtriangles.svg	stimuli_distractor_diamondtriangles.svg	39	no	57	0	327	0	0			0	0			1				0	
6.6.1	mac	2023-06-02	04:50:34	04:57:30	412298	6167abbd7db521535e811eb0	4	1	main_z	7	main_z	147	stimuli_target_rectangletriangles.svg	stimuli_distractor_trianglediamonds.svg	1	yes	44	1	528	0	0			0	0			1				0	
6.6.1	mac	2023-06-02	04:50:34	04:57:30	412298	6167abbd7db521535e811eb0	4	1	main_z	7	advance_on_keypress_ZEE	148	stimuli_target_rectangletriangles.svg	stimuli_distractor_trianglediamonds.svg	1	yes	57	0	274	0	0			0	0			1				0	
6.6.1	mac	2023-06-02	04:50:34	04:57:32	413767	6167abbd7db521535e811eb0	4	1	main_z	7	main_z	149	stimuli_distractor_diamondtriangles.svg	stimuli_target_trianglesquares.svg	30	yes	44	1	561	0	0			0	0			1				0	
6.6.1	mac	2023-06-02	04:50:34	04:57:32	413767	6167abbd7db521535e811eb0	4	1	main_z	7	advance_on_keypress_ZEE	150	stimuli_distractor_diamondtriangles.svg	stimuli_target_trianglesquares.svg	30	yes	57	0	242	0	0			0	0			1				0	
6.6.1	mac	2023-06-02	04:50:34	04:57:35	416637	6167abbd7db521535e811eb0	4	1	main_z	7	main_z	151	stimuli_distractor_diamondtriangles.svg	stimuli_distractor_diamondtriangles.svg	40	no	0	1	2000	0	0			0	0			1				0	
6.6.1	mac	2023-06-02	04:50:34	04:57:35	416637	6167abbd7db521535e811eb0	4	1	main_z	7	advance_on_keypress_ZEE	152	stimuli_distractor_diamondtriangles.svg	stimuli_distractor_diamondtriangles.svg	40	no	57	0	385	0	0			0	0			1				0	
6.6.1	mac	2023-06-02	04:50:34	04:57:36	418136	6167abbd7db521535e811eb0	4	1	main_z	7	main_z	153	stimuli_distractor_trianglediamonds.svg	stimuli_target_trianglesquares.svg	26	yes	44	1	480	0	0			0	0			1				0	
6.6.1	mac	2023-06-02	04:50:34	04:57:36	418136	6167abbd7db521535e811eb0	4	1	main_z	7	advance_on_keypress_ZEE	154	stimuli_distractor_trianglediamonds.svg	stimuli_target_trianglesquares.svg	26	yes	57	0	246	0	0			0	0			1				0	
6.6.1	mac	2023-06-02	04:50:34	04:57:38	419667	6167abbd7db521535e811eb0	4	1	main_z	7	main_z	155	stimuli_target_trianglerectangles.svg	stimuli_distractor_diamondtriangles.svg	21	yes	44	1	643	0	0			0	0			1				0	
6.6.1	mac	2023-06-02	04:50:34	04:57:38	419667	6167abbd7db521535e811eb0	4	1	main_z	7	advance_on_keypress_ZEE	156	stimuli_target_trianglerectangles.svg	stimuli_distractor_diamondtriangles.svg	21	yes	57	0	263	0	0			0	0			1				0	
6.6.1	mac	2023-06-02	04:50:34	04:57:39	421026	6167abbd7db521535e811eb0	4	1	main_z	7	main_z	157	stimuli_target_diamondrectangles.svg	stimuli_distractor_trianglediamonds.svg	19	yes	44	1	468	0	0			0	0			1				0	
6.6.1	mac	2023-06-02	04:50:34	04:57:39	421026	6167abbd7db521535e811eb0	4	1	main_z	7	advance_on_keypress_ZEE	158	stimuli_target_diamondrectangles.svg	stimuli_distractor_trianglediamonds.svg	19	yes	57	0	249	0	0			0	0			1				0	
6.6.1	mac	2023-06-02	04:50:34	04:57:40	422417	6167abbd7db521535e811eb0	4	1	main_z	7	main_z	159	stimuli_distractor_trianglediamonds.svg	stimuli_target_rectangletriangles.svg	9	yes	44	1	509	0	0			0	0			1				0	
6.6.1	mac	2023-06-02	04:50:34	04:57:40	422417	6167abbd7db521535e811eb0	4	1	main_z	7	advance_on_keypress_ZEE	160	stimuli_distractor_trianglediamonds.svg	stimuli_target_rectangletriangles.svg	9	yes	57	0	314	0	0			0	0			1				0	
6.6.1	mac	2023-06-02	04:50:34	04:58:07	449175	6167abbd7db521535e811eb0	4	1	practice_slash	9	practice_slash	1	stimuli_distractor_diamondtriangles.svg	stimuli_distractor_trianglediamonds.svg	14	no	53	0	772	0	0			0	0			1				0	
6.6.1	mac	2023-06-02	04:50:34	04:58:07	449175	6167abbd7db521535e811eb0	4	1	practice_slash	9	advance_on_keypress_SLASH	2	stimuli_distractor_diamondtriangles.svg	stimuli_distractor_trianglediamonds.svg	14	no	57	0	3986	0	0			0	0			1				0	
6.6.1	mac	2023-06-02	04:50:34	04:58:15	456789	6167abbd7db521535e811eb0	4	1	practice_slash	9	practice_slash	3	stimuli_distractor_trianglediamonds.svg	stimuli_distractor_trianglediamonds.svg	15	no	0	1	2000	0	0			0	0			1				0	
6.6.1	mac	2023-06-02	04:50:34	04:58:15	456789	6167abbd7db521535e811eb0	4	1	practice_slash	9	advance_on_keypress_SLASH	4	stimuli_distractor_trianglediamonds.svg	stimuli_distractor_trianglediamonds.svg	15	no	57	0	735	0	0			0	0			1				0	
6.6.1	mac	2023-06-02	04:50:34	04:58:18	459739	6167abbd7db521535e811eb0	4	1	practice_slash	9	practice_slash	5	stimuli_target_rectanglediamonds.svg	stimuli_distractor_diamondtriangles.svg	1	yes	53	1	579	0	0			0	0			1				0	
6.6.1	mac	2023-06-02	04:50:34	04:58:18	459739	6167abbd7db521535e811eb0	4	1	practice_slash	9	advance_on_keypress_SLASH	6	stimuli_target_rectanglediamonds.svg	stimuli_distractor_diamondtriangles.svg	1	yes	57	0	451	0	0			0	0			1				0	
6.6.1	mac	2023-06-02	04:50:34	04:58:22	463824	6167abbd7db521535e811eb0	4	1	practice_slash	9	practice_slash	7	stimuli_target_diamondsquares.svg	stimuli_distractor_diamondtriangles.svg	3	yes	0	0	2000	0	0			0	0			1				0	
6.6.1	mac	2023-06-02	04:50:34	04:58:22	463824	6167abbd7db521535e811eb0	4	1	practice_slash	9	advance_on_keypress_SLASH	8	stimuli_target_diamondsquares.svg	stimuli_distractor_diamondtriangles.svg	3	yes	57	0	462	0	0			0	0			1				0	
6.6.1	mac	2023-06-02	04:50:34	04:58:25	466898	6167abbd7db521535e811eb0	4	1	practice_slash	9	practice_slash	9	stimuli_distractor_diamondtriangles.svg	stimuli_distractor_diamondtriangles.svg	13	no	53	0	969	0	0			0	0			1				0	
6.6.1	mac	2023-06-02	04:50:34	04:58:25	466898	6167abbd7db521535e811eb0	4	1	practice_slash	9	advance_on_keypress_SLASH	10	stimuli_distractor_diamondtriangles.svg	stimuli_distractor_diamondtriangles.svg	13	no	57	0	879	0	0			0	0			1				0	
6.6.1	mac	2023-06-02	04:50:34	04:58:28	469934	6167abbd7db521535e811eb0	4	1	practice_slash	9	practice_slash	11	stimuli_target_squarediamonds.svg	stimuli_distractor_diamondtriangles.svg	2	yes	53	1	518	0	0			0	0			1				0	
6.6.1	mac	2023-06-02	04:50:34	04:58:28	469934	6167abbd7db521535e811eb0	4	1	practice_slash	9	advance_on_keypress_SLASH	12	stimuli_target_squarediamonds.svg	stimuli_distractor_diamondtriangles.svg	2	yes	57	0	2389	0	0			0	0			1				0	
6.6.1	mac	2023-06-02	04:50:34	04:58:33	474559	6167abbd7db521535e811eb0	4	1	practice_slash	9	practice_slash	13	stimuli_distractor_diamondtriangles.svg	stimuli_target_trianglerectangles.svg	9	yes	53	1	607	0	0			0	0			1				0	
6.6.1	mac	2023-06-02	04:50:34	04:58:33	474559	6167abbd7db521535e811eb0	4	1	practice_slash	9	advance_on_keypress_SLASH	14	stimuli_distractor_diamondtriangles.svg	stimuli_target_trianglerectangles.svg	9	yes	57	0	602	0	0			0	0			1				0	
6.6.1	mac	2023-06-02	04:50:34	04:58:35	477212	6167abbd7db521535e811eb0	4	1	practice_slash	9	practice_slash	15	stimuli_distractor_trianglediamonds.svg	stimuli_target_rectanglediamonds.svg	10	yes	53	1	427	0	0			0	0			1				0	
6.6.1	mac	2023-06-02	04:50:34	04:58:35	477212	6167abbd7db521535e811eb0	4	1	practice_slash	9	advance_on_keypress_SLASH	16	stimuli_distractor_trianglediamonds.svg	stimuli_target_rectanglediamonds.svg	10	yes	57	0	571	0	0			0	0			1				0	
6.6.1	mac	2023-06-02	04:50:34	04:58:39	481418	6167abbd7db521535e811eb0	4	1	practice_slash	9	practice_slash	17	stimuli_distractor_trianglediamonds.svg	stimuli_distractor_diamondtriangles.svg	16	no	0	1	2000	0	0			0	0			1				0	
6.6.1	mac	2023-06-02	04:50:34	04:58:39	481418	6167abbd7db521535e811eb0	4	1	practice_slash	9	advance_on_keypress_SLASH	18	stimuli_distractor_trianglediamonds.svg	stimuli_distractor_diamondtriangles.svg	16	no	57	0	111	0	0			0	0			1				0	
6.6.1	mac	2023-06-02	04:50:34	04:58:42	483696	6167abbd7db521535e811eb0	4	1	practice_slash	9	practice_slash	19	stimuli_distractor_diamondtriangles.svg	stimuli_target_rectangletriangles.svg	7	yes	53	1	526	0	0			0	0			1				0	
6.6.1	mac	2023-06-02	04:50:34	04:58:42	483696	6167abbd7db521535e811eb0	4	1	practice_slash	9	advance_on_keypress_SLASH	20	stimuli_distractor_diamondtriangles.svg	stimuli_target_rectangletriangles.svg	7	yes	57	0	568	0	0			0	0			1				0	
6.6.1	mac	2023-06-02	04:50:34	04:58:44	486318	6167abbd7db521535e811eb0	4	1	practice_slash	9	practice_slash	21	stimuli_target_rectanglediamonds.svg	stimuli_distractor_trianglediamonds.svg	4	yes	53	1	429	0	0			0	0			1				0	
6.6.1	mac	2023-06-02	04:50:34	04:58:44	486318	6167abbd7db521535e811eb0	4	1	practice_slash	9	advance_on_keypress_SLASH	22	stimuli_target_rectanglediamonds.svg	stimuli_distractor_trianglediamonds.svg	4	yes	57	0	635	0	0			0	0			1				0	
6.6.1	mac	2023-06-02	04:50:34	04:58:47	489116	6167abbd7db521535e811eb0	4	1	practice_slash	9	practice_slash	23	stimuli_distractor_diamondtriangles.svg	stimuli_target_diamondrectangles.svg	8	yes	53	1	525	0	0			0	0			1				0	
6.6.1	mac	2023-06-02	04:50:34	04:58:47	489116	6167abbd7db521535e811eb0	4	1	practice_slash	9	advance_on_keypress_SLASH	24	stimuli_distractor_diamondtriangles.svg	stimuli_target_diamondrectangles.svg	8	yes	57	0	611	0	0			0	0			1				0	
6.6.1	mac	2023-06-02	04:50:34	04:58:50	491790	6167abbd7db521535e811eb0	4	1	practice_slash	9	practice_slash	25	stimuli_target_squarediamonds.svg	stimuli_distractor_trianglediamonds.svg	5	yes	53	1	431	0	0			0	0			1				0	
6.6.1	mac	2023-06-02	04:50:34	04:58:50	491790	6167abbd7db521535e811eb0	4	1	practice_slash	9	advance_on_keypress_SLASH	26	stimuli_target_squarediamonds.svg	stimuli_distractor_trianglediamonds.svg	5	yes	57	0	499	0	0			0	0			1				0	
6.6.1	mac	2023-06-02	04:50:34	04:58:52	494447	6167abbd7db521535e811eb0	4	1	practice_slash	9	practice_slash	27	stimuli_distractor_trianglediamonds.svg	stimuli_target_squarediamonds.svg	11	yes	53	1	521	0	0			0	0			1				0	
6.6.1	mac	2023-06-02	04:50:34	04:58:52	494447	6167abbd7db521535e811eb0	4	1	practice_slash	9	advance_on_keypress_SLASH	28	stimuli_distractor_trianglediamonds.svg	stimuli_target_squarediamonds.svg	11	yes	57	0	437	0	0			0	0			1				0	
6.6.1	mac	2023-06-02	04:50:34	04:58:55	497020	6167abbd7db521535e811eb0	4	1	practice_slash	9	practice_slash	29	stimuli_target_diamondsquares.svg	stimuli_distractor_trianglediamonds.svg	6	yes	53	1	507	0	0			0	0			1				0	
6.6.1	mac	2023-06-02	04:50:34	04:58:55	497020	6167abbd7db521535e811eb0	4	1	practice_slash	9	advance_on_keypress_SLASH	30	stimuli_target_diamondsquares.svg	stimuli_distractor_trianglediamonds.svg	6	yes	57	0	723	0	0			0	0			1				0	
6.6.1	mac	2023-06-02	04:50:34	04:58:58	499807	6167abbd7db521535e811eb0	4	1	practice_slash	9	practice_slash	31	stimuli_distractor_trianglediamonds.svg	stimuli_target_diamondrectangles.svg	12	yes	53	1	443	0	0			0	0			1				0	
6.6.1	mac	2023-06-02	04:50:34	04:58:58	499807	6167abbd7db521535e811eb0	4	1	practice_slash	9	advance_on_keypress_SLASH	32	stimuli_distractor_trianglediamonds.svg	stimuli_target_diamondrectangles.svg	12	yes	57	0	551	0	0			0	0			1				0	
6.6.1	mac	2023-06-02	04:50:34	04:59:02	503586	6167abbd7db521535e811eb0	4	1	main_slash	11	main_slash	1	stimuli_distractor_trianglediamonds.svg	stimuli_target_rectanglediamonds.svg	10	yes	53	1	371	0	0			0	0			1				0	
6.6.1	mac	2023-06-02	04:50:34	04:59:02	503586	6167abbd7db521535e811eb0	4	1	main_slash	11	advance_on_keypress_SLASH	2	stimuli_distractor_trianglediamonds.svg	stimuli_target_rectanglediamonds.svg	10	yes	57	0	874	0	0			0	0			1				0	
6.6.1	mac	2023-06-02	04:50:34	04:59:04	505457	6167abbd7db521535e811eb0	4	1	main_slash	11	main_slash	3	stimuli_distractor_trianglediamonds.svg	stimuli_target_rectangletriangles.svg	9	yes	53	1	375	0	0			0	0			1				0	
6.6.1	mac	2023-06-02	04:50:34	04:59:04	505457	6167abbd7db521535e811eb0	4	1	main_slash	11	advance_on_keypress_SLASH	4	stimuli_distractor_trianglediamonds.svg	stimuli_target_rectangletriangles.svg	9	yes	57	0	497	0	0			0	0			1				0	
6.6.1	mac	2023-06-02	04:50:34	04:59:05	506959	6167abbd7db521535e811eb0	4	1	main_slash	11	main_slash	5	stimuli_target_squaretriangles.svg	stimuli_distractor_trianglediamonds.svg	3	yes	53	1	378	0	0			0	0			1				0	
6.6.1	mac	2023-06-02	04:50:34	04:59:05	506959	6167abbd7db521535e811eb0	4	1	main_slash	11	advance_on_keypress_SLASH	6	stimuli_target_squaretriangles.svg	stimuli_distractor_trianglediamonds.svg	3	yes	57	0	428	0	0			0	0			1				0	
6.6.1	mac	2023-06-02	04:50:34	04:59:06	508422	6167abbd7db521535e811eb0	4	1	main_slash	11	main_slash	7	stimuli_target_diamondrectangles.svg	stimuli_distractor_trianglediamonds.svg	19	yes	53	1	405	0	0			0	0			1				0	
6.6.1	mac	2023-06-02	04:50:34	04:59:06	508422	6167abbd7db521535e811eb0	4	1	main_slash	11	advance_on_keypress_SLASH	8	stimuli_target_diamondrectangles.svg	stimuli_distractor_trianglediamonds.svg	19	yes	57	0	371	0	0			0	0			1				0	
6.6.1	mac	2023-06-02	04:50:34	04:59:09	511432	6167abbd7db521535e811eb0	4	1	main_slash	11	main_slash	9	stimuli_distractor_diamondtriangles.svg	stimuli_distractor_diamondtriangles.svg	40	no	0	1	2000	0	0			0	0			1				0	
6.6.1	mac	2023-06-02	04:50:34	04:59:09	511432	6167abbd7db521535e811eb0	4	1	main_slash	11	advance_on_keypress_SLASH	10	stimuli_distractor_diamondtriangles.svg	stimuli_distractor_diamondtriangles.svg	40	no	57	0	342	0	0			0	0			1				0	
6.6.1	mac	2023-06-02	04:50:34	04:59:11	513191	6167abbd7db521535e811eb0	4	1	main_slash	11	main_slash	11	stimuli_distractor_diamondtriangles.svg	stimuli_target_trianglesquares.svg	30	yes	53	1	791	0	0			0	0			1				0	
6.6.1	mac	2023-06-02	04:50:34	04:59:11	513191	6167abbd7db521535e811eb0	4	1	main_slash	11	advance_on_keypress_SLASH	12	stimuli_distractor_diamondtriangles.svg	stimuli_target_trianglesquares.svg	30	yes	57	0	487	0	0			0	0			1				0	
6.6.1	mac	2023-06-02	04:50:34	04:59:13	514704	6167abbd7db521535e811eb0	4	1	main_slash	11	main_slash	13	stimuli_distractor_diamondtriangles.svg	stimuli_target_diamondsquares.svg	32	yes	53	1	402	0	0			0	0			1				0	
6.6.1	mac	2023-06-02	04:50:34	04:59:13	514704	6167abbd7db521535e811eb0	4	1	main_slash	11	advance_on_keypress_SLASH	14	stimuli_distractor_diamondtriangles.svg	stimuli_target_diamondsquares.svg	32	yes	57	0	366	0	0			0	0			1				0	
6.6.1	mac	2023-06-02	04:50:34	04:59:14	516140	6167abbd7db521535e811eb0	4	1	main_slash	11	main_slash	15	stimuli_target_rectangletriangles.svg	stimuli_distractor_trianglediamonds.svg	1	yes	53	1	437	0	0			0	0			1				0	
6.6.1	mac	2023-06-02	04:50:34	04:59:14	516140	6167abbd7db521535e811eb0	4	1	main_slash	11	advance_on_keypress_SLASH	16	stimuli_target_rectangletriangles.svg	stimuli_distractor_trianglediamonds.svg	1	yes	57	0	379	0	0			0	0			1				0	
6.6.1	mac	2023-06-02	04:50:34	04:59:16	517598	6167abbd7db521535e811eb0	4	1	main_slash	11	main_slash	17	stimuli_target_rectangletriangles.svg	stimuli_distractor_diamondtriangles.svg	5	yes	53	1	445	0	0			0	0			1				0	
6.6.1	mac	2023-06-02	04:50:34	04:59:16	517598	6167abbd7db521535e811eb0	4	1	main_slash	11	advance_on_keypress_SLASH	18	stimuli_target_rectangletriangles.svg	stimuli_distractor_diamondtriangles.svg	5	yes	57	0	368	0	0			0	0			1				0	
6.6.1	mac	2023-06-02	04:50:34	04:59:17	519077	6167abbd7db521535e811eb0	4	1	main_slash	11	main_slash	19	stimuli_distractor_trianglediamonds.svg	stimuli_target_diamondrectangles.svg	27	yes	53	1	472	0	0			0	0			1				0	
6.6.1	mac	2023-06-02	04:50:34	04:59:17	519077	6167abbd7db521535e811eb0	4	1	main_slash	11	advance_on_keypress_SLASH	20	stimuli_distractor_trianglediamonds.svg	stimuli_target_diamondrectangles.svg	27	yes	57	0	366	0	0			0	0			1				0	
6.6.1	mac	2023-06-02	04:50:34	04:59:19	520573	6167abbd7db521535e811eb0	4	1	main_slash	11	main_slash	21	stimuli_target_rectanglediamonds.svg	stimuli_distractor_trianglediamonds.svg	2	yes	53	1	501	0	0			0	0			1				0	
6.6.1	mac	2023-06-02	04:50:34	04:59:19	520573	6167abbd7db521535e811eb0	4	1	main_slash	11	advance_on_keypress_SLASH	22	stimuli_target_rectanglediamonds.svg	stimuli_distractor_trianglediamonds.svg	2	yes	57	0	439	0	0			0	0			1				0	
6.6.1	mac	2023-06-02	04:50:34	04:59:20	522010	6167abbd7db521535e811eb0	4	1	main_slash	11	main_slash	23	stimuli_distractor_diamondtriangles.svg	stimuli_target_squarediamonds.svg	16	yes	53	1	371	0	0			0	0			1				0	
6.6.1	mac	2023-06-02	04:50:34	04:59:20	522010	6167abbd7db521535e811eb0	4	1	main_slash	11	advance_on_keypress_SLASH	24	stimuli_distractor_diamondtriangles.svg	stimuli_target_squarediamonds.svg	16	yes	57	0	368	0	0			0	0			1				0	
6.6.1	mac	2023-06-02	04:50:34	04:59:22	523726	6167abbd7db521535e811eb0	4	1	main_slash	11	main_slash	25	stimuli_target_trianglerectangles.svg	stimuli_distractor_diamondtriangles.svg	21	yes	53	1	703	0	0			0	0			1				0	
6.6.1	mac	2023-06-02	04:50:34	04:59:22	523726	6167abbd7db521535e811eb0	4	1	main_slash	11	advance_on_keypress_SLASH	26	stimuli_target_trianglerectangles.svg	stimuli_distractor_diamondtriangles.svg	21	yes	57	0	386	0	0			0	0			1				0	
6.6.1	mac	2023-06-02	04:50:34	04:59:23	525244	6167abbd7db521535e811eb0	4	1	main_slash	11	main_slash	27	stimuli_distractor_trianglediamonds.svg	stimuli_distractor_trianglediamonds.svg	33	no	53	0	466	0	0			0	0			1				0	
6.6.1	mac	2023-06-02	04:50:34	04:59:23	525244	6167abbd7db521535e811eb0	4	1	main_slash	11	advance_on_keypress_SLASH	28	stimuli_distractor_trianglediamonds.svg	stimuli_distractor_trianglediamonds.svg	33	no	57	0	362	0	0			0	0			1				0	
6.6.1	mac	2023-06-02	04:50:34	04:59:25	526600	6167abbd7db521535e811eb0	4	1	main_slash	11	main_slash	29	stimuli_target_rectanglediamonds.svg	stimuli_distractor_diamondtriangles.svg	6	yes	53	1	359	0	0			0	0			1				0	
6.6.1	mac	2023-06-02	04:50:34	04:59:25	526600	6167abbd7db521535e811eb0	4	1	main_slash	11	advance_on_keypress_SLASH	30	stimuli_target_rectanglediamonds.svg	stimuli_distractor_diamondtriangles.svg	6	yes	57	0	8854	0	0			0	0			1				0	
6.6.1	mac	2023-06-02	04:50:34	04:59:35	536566	6167abbd7db521535e811eb0	4	1	main_slash	11	main_slash	31	stimuli_target_squaretriangles.svg	stimuli_distractor_diamondtriangles.svg	7	yes	53	1	471	0	0			0	0			1				0	
6.6.1	mac	2023-06-02	04:50:34	04:59:35	536566	6167abbd7db521535e811eb0	4	1	main_slash	11	advance_on_keypress_SLASH	32	stimuli_target_squaretriangles.svg	stimuli_distractor_diamondtriangles.svg	7	yes	57	0	438	0	0			0	0			1				0	
6.6.1	mac	2023-06-02	04:50:34	04:59:36	538080	6167abbd7db521535e811eb0	4	1	main_slash	11	main_slash	33	stimuli_distractor_trianglediamonds.svg	stimuli_target_trianglesquares.svg	26	yes	53	1	451	0	0			0	0			1				0	
6.6.1	mac	2023-06-02	04:50:34	04:59:36	538080	6167abbd7db521535e811eb0	4	1	main_slash	11	advance_on_keypress_SLASH	34	stimuli_distractor_trianglediamonds.svg	stimuli_target_trianglesquares.svg	26	yes	57	0	1035	0	0			0	0			1				0	
6.6.1	mac	2023-06-02	04:50:34	04:59:38	540108	6167abbd7db521535e811eb0	4	1	main_slash	11	main_slash	35	stimuli_distractor_trianglediamonds.svg	stimuli_target_squarediamonds.svg	12	yes	53	1	360	0	0			0	0			1				0	
6.6.1	mac	2023-06-02	04:50:34	04:59:38	540108	6167abbd7db521535e811eb0	4	1	main_slash	11	advance_on_keypress_SLASH	36	stimuli_distractor_trianglediamonds.svg	stimuli_target_squarediamonds.svg	12	yes	57	0	378	0	0			0	0			1				0	
6.6.1	mac	2023-06-02	04:50:34	04:59:40	541527	6167abbd7db521535e811eb0	4	1	main_slash	11	main_slash	37	stimuli_distractor_diamondtriangles.svg	stimuli_target_trianglerectangles.svg	29	yes	53	1	413	0	0			0	0			1				0	
6.6.1	mac	2023-06-02	04:50:34	04:59:40	541527	6167abbd7db521535e811eb0	4	1	main_slash	11	advance_on_keypress_SLASH	38	stimuli_distractor_diamondtriangles.svg	stimuli_target_trianglerectangles.svg	29	yes	57	0	355	0	0			0	0			1				0	
6.6.1	mac	2023-06-02	04:50:34	04:59:41	542936	6167abbd7db521535e811eb0	4	1	main_slash	11	main_slash	39	stimuli_target_diamondrectangles.svg	stimuli_distractor_diamondtriangles.svg	23	yes	53	1	421	0	0			0	0			1				0	
6.6.1	mac	2023-06-02	04:50:34	04:59:41	542936	6167abbd7db521535e811eb0	4	1	main_slash	11	advance_on_keypress_SLASH	40	stimuli_target_diamondrectangles.svg	stimuli_distractor_diamondtriangles.svg	23	yes	57	0	498	0	0			0	0			1				0	
6.6.1	mac	2023-06-02	04:50:34	04:59:44	546064	6167abbd7db521535e811eb0	4	1	main_slash	11	main_slash	41	stimuli_distractor_diamondtriangles.svg	stimuli_distractor_trianglediamonds.svg	37	no	0	1	2000	0	0			0	0			1				0	
6.6.1	mac	2023-06-02	04:50:34	04:59:44	546064	6167abbd7db521535e811eb0	4	1	main_slash	11	advance_on_keypress_SLASH	42	stimuli_distractor_diamondtriangles.svg	stimuli_distractor_trianglediamonds.svg	37	no	57	0	450	0	0			0	0			1				0	
6.6.1	mac	2023-06-02	04:50:34	04:59:46	547796	6167abbd7db521535e811eb0	4	1	main_slash	11	main_slash	43	stimuli_distractor_diamondtriangles.svg	stimuli_distractor_trianglediamonds.svg	38	no	53	0	642	0	0			0	0			1				0	
6.6.1	mac	2023-06-02	04:50:34	04:59:46	547796	6167abbd7db521535e811eb0	4	1	main_slash	11	advance_on_keypress_SLASH	44	stimuli_distractor_diamondtriangles.svg	stimuli_distractor_trianglediamonds.svg	38	no	57	0	378	0	0			0	0			1				0	
6.6.1	mac	2023-06-02	04:50:34	04:59:49	550871	6167abbd7db521535e811eb0	4	1	main_slash	11	main_slash	45	stimuli_distractor_trianglediamonds.svg	stimuli_distractor_diamondtriangles.svg	35	no	0	1	2000	0	0			0	0			1				0	
6.6.1	mac	2023-06-02	04:50:34	04:59:49	550871	6167abbd7db521535e811eb0	4	1	main_slash	11	advance_on_keypress_SLASH	46	stimuli_distractor_trianglediamonds.svg	stimuli_distractor_diamondtriangles.svg	35	no	57	0	705	0	0			0	0			1				0	
6.6.1	mac	2023-06-02	04:50:34	04:59:52	554218	6167abbd7db521535e811eb0	4	1	main_slash	11	main_slash	47	stimuli_target_trianglesquares.svg	stimuli_distractor_diamondtriangles.svg	22	yes	0	0	2000	0	0			0	0			1				0	
6.6.1	mac	2023-06-02	04:50:34	04:59:52	554218	6167abbd7db521535e811eb0	4	1	main_slash	11	advance_on_keypress_SLASH	48	stimuli_target_trianglesquares.svg	stimuli_distractor_diamondtriangles.svg	22	yes	57	0	548	0	0			0	0			1				0	
6.6.1	mac	2023-06-02	04:50:34	04:59:55	557404	6167abbd7db521535e811eb0	4	1	main_slash	11	main_slash	49	stimuli_distractor_trianglediamonds.svg	stimuli_target_squaretriangles.svg	11	yes	0	0	2000	0	0			0	0			1				0	
6.6.1	mac	2023-06-02	04:50:34	04:59:55	557404	6167abbd7db521535e811eb0	4	1	main_slash	11	advance_on_keypress_SLASH	50	stimuli_distractor_trianglediamonds.svg	stimuli_target_squaretriangles.svg	11	yes	57	0	252	0	0			0	0			1				0	
6.6.1	mac	2023-06-02	04:50:34	04:59:58	560306	6167abbd7db521535e811eb0	4	1	main_slash	11	main_slash	51	stimuli_distractor_diamondtriangles.svg	stimuli_target_rectangletriangles.svg	13	yes	0	0	2000	0	0			0	0			1				0	
6.6.1	mac	2023-06-02	04:50:34	04:59:58	560306	6167abbd7db521535e811eb0	4	1	main_slash	11	advance_on_keypress_SLASH	52	stimuli_distractor_diamondtriangles.svg	stimuli_target_rectangletriangles.svg	13	yes	57	0	488	0	0			0	0			1				0	
6.6.1	mac	2023-06-02	04:50:34	05:00:01	563423	6167abbd7db521535e811eb0	4	1	main_slash	11	main_slash	53	stimuli_target_diamondsquares.svg	stimuli_distractor_diamondtriangles.svg	24	yes	0	0	2000	0	0			0	0			1				0	
6.6.1	mac	2023-06-02	04:50:34	05:00:01	563423	6167abbd7db521535e811eb0	4	1	main_slash	11	advance_on_keypress_SLASH	54	stimuli_target_diamondsquares.svg	stimuli_distractor_diamondtriangles.svg	24	yes	57	0	1195	0	0			0	0			1				0	
6.6.1	mac	2023-06-02	04:50:34	05:00:04	565945	6167abbd7db521535e811eb0	4	1	main_slash	11	main_slash	55	stimuli_target_trianglesquares.svg	stimuli_distractor_trianglediamonds.svg	18	yes	53	1	685	0	0			0	0			1				0	
6.6.1	mac	2023-06-02	04:50:34	05:00:04	565945	6167abbd7db521535e811eb0	4	1	main_slash	11	advance_on_keypress_SLASH	56	stimuli_target_trianglesquares.svg	stimuli_distractor_trianglediamonds.svg	18	yes	57	0	431	0	0			0	0			1				0	
6.6.1	mac	2023-06-02	04:50:34	05:00:06	567465	6167abbd7db521535e811eb0	4	1	main_slash	11	main_slash	57	stimuli_target_squarediamonds.svg	stimuli_distractor_diamondtriangles.svg	8	yes	53	1	453	0	0			0	0			1				0	
6.6.1	mac	2023-06-02	04:50:34	05:00:06	567465	6167abbd7db521535e811eb0	4	1	main_slash	11	advance_on_keypress_SLASH	58	stimuli_target_squarediamonds.svg	stimuli_distractor_diamondtriangles.svg	8	yes	57	0	357	0	0			0	0			1				0	
6.6.1	mac	2023-06-02	04:50:34	05:00:07	569032	6167abbd7db521535e811eb0	4	1	main_slash	11	main_slash	59	stimuli_distractor_diamondtriangles.svg	stimuli_target_diamondrectangles.svg	31	yes	53	1	584	0	0			0	0			1				0	
6.6.1	mac	2023-06-02	04:50:34	05:00:07	569032	6167abbd7db521535e811eb0	4	1	main_slash	11	advance_on_keypress_SLASH	60	stimuli_distractor_diamondtriangles.svg	stimuli_target_diamondrectangles.svg	31	yes	57	0	392	0	0			0	0			1				0	
6.6.1	mac	2023-06-02	04:50:34	05:00:08	570419	6167abbd7db521535e811eb0	4	1	main_slash	11	main_slash	61	stimuli_distractor_trianglediamonds.svg	stimuli_target_trianglerectangles.svg	25	yes	53	1	372	0	0			0	0			1				0	
6.6.1	mac	2023-06-02	04:50:34	05:00:08	570419	6167abbd7db521535e811eb0	4	1	main_slash	11	advance_on_keypress_SLASH	62	stimuli_distractor_trianglediamonds.svg	stimuli_target_trianglerectangles.svg	25	yes	57	0	380	0	0			0	0			1				0	
6.6.1	mac	2023-06-02	04:50:34	05:00:10	571877	6167abbd7db521535e811eb0	4	1	main_slash	11	main_slash	63	stimuli_target_trianglerectangles.svg	stimuli_distractor_trianglediamonds.svg	17	yes	53	1	447	0	0			0	0			1				0	
6.6.1	mac	2023-06-02	04:50:34	05:00:10	571877	6167abbd7db521535e811eb0	4	1	main_slash	11	advance_on_keypress_SLASH	64	stimuli_target_trianglerectangles.svg	stimuli_distractor_trianglediamonds.svg	17	yes	57	0	351	0	0			0	0			1				0	
6.6.1	mac	2023-06-02	04:50:34	05:00:11	573235	6167abbd7db521535e811eb0	4	1	main_slash	11	main_slash	65	stimuli_distractor_diamondtriangles.svg	stimuli_target_squaretriangles.svg	15	yes	53	1	369	0	0			0	0			1				0	
6.6.1	mac	2023-06-02	04:50:34	05:00:11	573235	6167abbd7db521535e811eb0	4	1	main_slash	11	advance_on_keypress_SLASH	66	stimuli_distractor_diamondtriangles.svg	stimuli_target_squaretriangles.svg	15	yes	57	0	471	0	0			0	0			1				0	
6.6.1	mac	2023-06-02	04:50:34	05:00:13	574871	6167abbd7db521535e811eb0	4	1	main_slash	11	main_slash	67	stimuli_target_diamondsquares.svg	stimuli_distractor_trianglediamonds.svg	20	yes	53	1	539	0	0			0	0			1				0	
6.6.1	mac	2023-06-02	04:50:34	05:00:13	574871	6167abbd7db521535e811eb0	4	1	main_slash	11	advance_on_keypress_SLASH	68	stimuli_target_diamondsquares.svg	stimuli_distractor_trianglediamonds.svg	20	yes	57	0	435	0	0			0	0			1				0	
6.6.1	mac	2023-06-02	04:50:34	05:00:16	577947	6167abbd7db521535e811eb0	4	1	main_slash	11	main_slash	69	stimuli_distractor_trianglediamonds.svg	stimuli_distractor_diamondtriangles.svg	36	no	0	1	2000	0	0			0	0			1				0	
6.6.1	mac	2023-06-02	04:50:34	05:00:16	577947	6167abbd7db521535e811eb0	4	1	main_slash	11	advance_on_keypress_SLASH	70	stimuli_distractor_trianglediamonds.svg	stimuli_distractor_diamondtriangles.svg	36	no	57	0	355	0	0			0	0			1				0	
6.6.1	mac	2023-06-02	04:50:34	05:00:18	579573	6167abbd7db521535e811eb0	4	1	main_slash	11	main_slash	71	stimuli_distractor_trianglediamonds.svg	stimuli_distractor_trianglediamonds.svg	34	no	53	0	638	0	0			0	0			1				0	
6.6.1	mac	2023-06-02	04:50:34	05:00:18	579573	6167abbd7db521535e811eb0	4	1	main_slash	11	advance_on_keypress_SLASH	72	stimuli_distractor_trianglediamonds.svg	stimuli_distractor_trianglediamonds.svg	34	no	57	0	315	0	0			0	0			1				0	
6.6.1	mac	2023-06-02	04:50:34	05:00:19	580956	6167abbd7db521535e811eb0	4	1	main_slash	11	main_slash	73	stimuli_distractor_trianglediamonds.svg	stimuli_target_diamondsquares.svg	28	yes	53	1	437	0	0			0	0			1				0	
6.6.1	mac	2023-06-02	04:50:34	05:00:19	580956	6167abbd7db521535e811eb0	4	1	main_slash	11	advance_on_keypress_SLASH	74	stimuli_distractor_trianglediamonds.svg	stimuli_target_diamondsquares.svg	28	yes	57	0	343	0	0			0	0			1				0	
6.6.1	mac	2023-06-02	04:50:34	05:00:22	583933	6167abbd7db521535e811eb0	4	1	main_slash	11	main_slash	75	stimuli_distractor_diamondtriangles.svg	stimuli_distractor_diamondtriangles.svg	39	no	0	1	2000	0	0			0	0			1				0	
6.6.1	mac	2023-06-02	04:50:34	05:00:22	583933	6167abbd7db521535e811eb0	4	1	main_slash	11	advance_on_keypress_SLASH	76	stimuli_distractor_diamondtriangles.svg	stimuli_distractor_diamondtriangles.svg	39	no	57	0	415	0	0			0	0			1				0	
6.6.1	mac	2023-06-02	04:50:34	05:00:23	585435	6167abbd7db521535e811eb0	4	1	main_slash	11	main_slash	77	stimuli_target_squarediamonds.svg	stimuli_distractor_trianglediamonds.svg	4	yes	53	1	447	0	0			0	0			1				0	
6.6.1	mac	2023-06-02	04:50:34	05:00:23	585435	6167abbd7db521535e811eb0	4	1	main_slash	11	advance_on_keypress_SLASH	78	stimuli_target_squarediamonds.svg	stimuli_distractor_trianglediamonds.svg	4	yes	57	0	350	0	0			0	0			1				0	
6.6.1	mac	2023-06-02	04:50:34	05:00:25	587145	6167abbd7db521535e811eb0	4	1	main_slash	11	main_slash	79	stimuli_distractor_diamondtriangles.svg	stimuli_target_rectanglediamonds.svg	14	yes	53	1	724	0	0			0	0			1				0	
6.6.1	mac	2023-06-02	04:50:34	05:00:25	587145	6167abbd7db521535e811eb0	4	1	main_slash	11	advance_on_keypress_SLASH	80	stimuli_distractor_diamondtriangles.svg	stimuli_target_rectanglediamonds.svg	14	yes	57	0	319	0	0			0	0			1				0	
6.6.1	mac	2023-06-02	04:50:34	05:00:27	588738	6167abbd7db521535e811eb0	4	1	main_slash	11	main_slash	81	stimuli_distractor_diamondtriangles.svg	stimuli_distractor_trianglediamonds.svg	37	no	53	0	647	0	0			0	0			1				0	
6.6.1	mac	2023-06-02	04:50:34	05:00:27	588738	6167abbd7db521535e811eb0	4	1	main_slash	11	advance_on_keypress_SLASH	82	stimuli_distractor_diamondtriangles.svg	stimuli_distractor_trianglediamonds.svg	37	no	57	0	343	0	0			0	0			1				0	
6.6.1	mac	2023-06-02	04:50:34	05:00:30	591704	6167abbd7db521535e811eb0	4	1	main_slash	11	main_slash	83	stimuli_distractor_diamondtriangles.svg	stimuli_distractor_diamondtriangles.svg	39	no	0	1	2000	0	0			0	0			1				0	
6.6.1	mac	2023-06-02	04:50:34	05:00:30	591704	6167abbd7db521535e811eb0	4	1	main_slash	11	advance_on_keypress_SLASH	84	stimuli_distractor_diamondtriangles.svg	stimuli_distractor_diamondtriangles.svg	39	no	57	0	266	0	0			0	0			1				0	
6.6.1	mac	2023-06-02	04:50:34	05:00:33	594604	6167abbd7db521535e811eb0	4	1	main_slash	11	main_slash	85	stimuli_distractor_diamondtriangles.svg	stimuli_distractor_trianglediamonds.svg	38	no	0	1	2000	0	0			0	0			1				0	
6.6.1	mac	2023-06-02	04:50:34	05:00:33	594604	6167abbd7db521535e811eb0	4	1	main_slash	11	advance_on_keypress_SLASH	86	stimuli_distractor_diamondtriangles.svg	stimuli_distractor_trianglediamonds.svg	38	no	57	0	412	0	0			0	0			1				0	
6.6.1	mac	2023-06-02	04:50:34	05:00:34	596237	6167abbd7db521535e811eb0	4	1	main_slash	11	main_slash	87	stimuli_distractor_trianglediamonds.svg	stimuli_target_diamondsquares.svg	28	yes	53	1	578	0	0			0	0			1				0	
6.6.1	mac	2023-06-02	04:50:34	05:00:34	596237	6167abbd7db521535e811eb0	4	1	main_slash	11	advance_on_keypress_SLASH	88	stimuli_distractor_trianglediamonds.svg	stimuli_target_diamondsquares.svg	28	yes	57	0	418	0	0			0	0			1				0	
6.6.1	mac	2023-06-02	04:50:34	05:00:36	598015	6167abbd7db521535e811eb0	4	1	main_slash	11	main_slash	89	stimuli_distractor_trianglediamonds.svg	stimuli_target_squaretriangles.svg	11	yes	53	1	723	0	0			0	0			1				0	
6.6.1	mac	2023-06-02	04:50:34	05:00:36	598015	6167abbd7db521535e811eb0	4	1	main_slash	11	advance_on_keypress_SLASH	90	stimuli_distractor_trianglediamonds.svg	stimuli_target_squaretriangles.svg	11	yes	57	0	324	0	0			0	0			1				0	
6.6.1	mac	2023-06-02	04:50:34	05:00:38	599504	6167abbd7db521535e811eb0	4	1	main_slash	11	main_slash	91	stimuli_target_diamondrectangles.svg	stimuli_distractor_trianglediamonds.svg	19	yes	53	1	543	0	0			0	0			1				0	
6.6.1	mac	2023-06-02	04:50:34	05:00:38	599504	6167abbd7db521535e811eb0	4	1	main_slash	11	advance_on_keypress_SLASH	92	stimuli_target_diamondrectangles.svg	stimuli_distractor_trianglediamonds.svg	19	yes	57	0	281	0	0			0	0			1				0	
6.6.1	mac	2023-06-02	04:50:34	05:00:39	600877	6167abbd7db521535e811eb0	4	1	main_slash	11	main_slash	93	stimuli_distractor_trianglediamonds.svg	stimuli_target_diamondrectangles.svg	27	yes	53	1	466	0	0			0	0			1				0	
6.6.1	mac	2023-06-02	04:50:34	05:00:39	600877	6167abbd7db521535e811eb0	4	1	main_slash	11	advance_on_keypress_SLASH	94	stimuli_distractor_trianglediamonds.svg	stimuli_target_diamondrectangles.svg	27	yes	57	0	299	0	0			0	0			1				0	
6.6.1	mac	2023-06-02	04:50:34	05:00:40	602214	6167abbd7db521535e811eb0	4	1	main_slash	11	main_slash	95	stimuli_target_diamondsquares.svg	stimuli_distractor_trianglediamonds.svg	20	yes	53	1	402	0	0			0	0			1				0	
6.6.1	mac	2023-06-02	04:50:34	05:00:40	602214	6167abbd7db521535e811eb0	4	1	main_slash	11	advance_on_keypress_SLASH	96	stimuli_target_diamondsquares.svg	stimuli_distractor_trianglediamonds.svg	20	yes	57	0	293	0	0			0	0			1				0	
6.6.1	mac	2023-06-02	04:50:34	05:00:42	603514	6167abbd7db521535e811eb0	4	1	main_slash	11	main_slash	97	stimuli_distractor_diamondtriangles.svg	stimuli_target_diamondsquares.svg	32	yes	53	1	384	0	0			0	0			1				0	
6.6.1	mac	2023-06-02	04:50:34	05:00:42	603514	6167abbd7db521535e811eb0	4	1	main_slash	11	advance_on_keypress_SLASH	98	stimuli_distractor_diamondtriangles.svg	stimuli_target_diamondsquares.svg	32	yes	57	0	244	0	0			0	0			1				0	
6.6.1	mac	2023-06-02	04:50:34	05:00:43	604736	6167abbd7db521535e811eb0	4	1	main_slash	11	main_slash	99	stimuli_distractor_trianglediamonds.svg	stimuli_target_rectanglediamonds.svg	10	yes	53	1	339	0	0			0	0			1				0	
6.6.1	mac	2023-06-02	04:50:34	05:00:43	604736	6167abbd7db521535e811eb0	4	1	main_slash	11	advance_on_keypress_SLASH	100	stimuli_distractor_trianglediamonds.svg	stimuli_target_rectanglediamonds.svg	10	yes	57	0	227	0	0			0	0			1				0	
6.6.1	mac	2023-06-02	04:50:34	05:00:44	605988	6167abbd7db521535e811eb0	4	1	main_slash	11	main_slash	101	stimuli_distractor_trianglediamonds.svg	stimuli_distractor_diamondtriangles.svg	35	no	53	0	389	0	0			0	0			1				0	
6.6.1	mac	2023-06-02	04:50:34	05:00:44	605988	6167abbd7db521535e811eb0	4	1	main_slash	11	advance_on_keypress_SLASH	102	stimuli_distractor_trianglediamonds.svg	stimuli_distractor_diamondtriangles.svg	35	no	57	0	567	0	0			0	0			1				0	
6.6.1	mac	2023-06-02	04:50:34	05:00:46	607611	6167abbd7db521535e811eb0	4	1	main_slash	11	main_slash	103	stimuli_distractor_trianglediamonds.svg	stimuli_target_trianglesquares.svg	26	yes	53	1	430	0	0			0	0			1				0	
6.6.1	mac	2023-06-02	04:50:34	05:00:46	607611	6167abbd7db521535e811eb0	4	1	main_slash	11	advance_on_keypress_SLASH	104	stimuli_distractor_trianglediamonds.svg	stimuli_target_trianglesquares.svg	26	yes	57	0	246	0	0			0	0			1				0	
6.6.1	mac	2023-06-02	04:50:34	05:00:47	608901	6167abbd7db521535e811eb0	4	1	main_slash	11	main_slash	105	stimuli_target_rectanglediamonds.svg	stimuli_distractor_trianglediamonds.svg	2	yes	53	1	401	0	0			0	0			1				0	
6.6.1	mac	2023-06-02	04:50:34	05:00:47	608901	6167abbd7db521535e811eb0	4	1	main_slash	11	advance_on_keypress_SLASH	106	stimuli_target_rectanglediamonds.svg	stimuli_distractor_trianglediamonds.svg	2	yes	57	0	239	0	0			0	0			1				0	
6.6.1	mac	2023-06-02	04:50:34	05:00:50	611764	6167abbd7db521535e811eb0	4	1	main_slash	11	main_slash	107	stimuli_target_trianglerectangles.svg	stimuli_distractor_trianglediamonds.svg	17	yes	0	0	2000	0	0			0	0			1				0	
6.6.1	mac	2023-06-02	04:50:34	05:00:50	611764	6167abbd7db521535e811eb0	4	1	main_slash	11	advance_on_keypress_SLASH	108	stimuli_target_trianglerectangles.svg	stimuli_distractor_trianglediamonds.svg	17	yes	57	0	557	0	0			0	0			1				0	
6.6.1	mac	2023-06-02	04:50:34	05:00:52	613628	6167abbd7db521535e811eb0	4	1	main_slash	11	main_slash	109	stimuli_target_trianglesquares.svg	stimuli_distractor_diamondtriangles.svg	22	yes	53	1	678	0	0			0	0			1				0	
6.6.1	mac	2023-06-02	04:50:34	05:00:52	613628	6167abbd7db521535e811eb0	4	1	main_slash	11	advance_on_keypress_SLASH	110	stimuli_target_trianglesquares.svg	stimuli_distractor_diamondtriangles.svg	22	yes	57	0	322	0	0			0	0			1				0	
6.6.1	mac	2023-06-02	04:50:34	05:00:53	614993	6167abbd7db521535e811eb0	4	1	main_slash	11	main_slash	111	stimuli_target_squarediamonds.svg	stimuli_distractor_trianglediamonds.svg	4	yes	53	1	425	0	0			0	0			1				0	
6.6.1	mac	2023-06-02	04:50:34	05:00:53	614993	6167abbd7db521535e811eb0	4	1	main_slash	11	advance_on_keypress_SLASH	112	stimuli_target_squarediamonds.svg	stimuli_distractor_trianglediamonds.svg	4	yes	57	0	242	0	0			0	0			1				0	
6.6.1	mac	2023-06-02	04:50:34	05:00:54	616199	6167abbd7db521535e811eb0	4	1	main_slash	11	main_slash	113	stimuli_target_rectanglediamonds.svg	stimuli_distractor_diamondtriangles.svg	6	yes	53	1	332	0	0			0	0			1				0	
6.6.1	mac	2023-06-02	04:50:34	05:00:54	616199	6167abbd7db521535e811eb0	4	1	main_slash	11	advance_on_keypress_SLASH	114	stimuli_target_rectanglediamonds.svg	stimuli_distractor_diamondtriangles.svg	6	yes	57	0	182	0	0			0	0			1				0	
6.6.1	mac	2023-06-02	04:50:34	05:00:55	617417	6167abbd7db521535e811eb0	4	1	main_slash	11	main_slash	115	stimuli_distractor_diamondtriangles.svg	stimuli_target_squaretriangles.svg	15	yes	53	1	399	0	0			0	0			1				0	
6.6.1	mac	2023-06-02	04:50:34	05:00:55	617417	6167abbd7db521535e811eb0	4	1	main_slash	11	advance_on_keypress_SLASH	116	stimuli_distractor_diamondtriangles.svg	stimuli_target_squaretriangles.svg	15	yes	57	0	179	0	0			0	0			1				0	
6.6.1	mac	2023-06-02	04:50:34	05:00:58	620235	6167abbd7db521535e811eb0	4	1	main_slash	11	main_slash	117	stimuli_distractor_trianglediamonds.svg	stimuli_target_rectangletriangles.svg	9	yes	0	0	2000	0	0			0	0			1				0	
6.6.1	mac	2023-06-02	04:50:34	05:00:58	620235	6167abbd7db521535e811eb0	4	1	main_slash	11	advance_on_keypress_SLASH	118	stimuli_distractor_trianglediamonds.svg	stimuli_target_rectangletriangles.svg	9	yes	57	0	492	0	0			0	0			1				0	
6.6.1	mac	2023-06-02	04:50:34	05:01:00	621844	6167abbd7db521535e811eb0	4	1	main_slash	11	main_slash	119	stimuli_distractor_trianglediamonds.svg	stimuli_target_squarediamonds.svg	12	yes	53	1	491	0	0			0	0			1				0	
6.6.1	mac	2023-06-02	04:50:34	05:01:00	621844	6167abbd7db521535e811eb0	4	1	main_slash	11	advance_on_keypress_SLASH	120	stimuli_distractor_trianglediamonds.svg	stimuli_target_squarediamonds.svg	12	yes	57	0	200	0	0			0	0			1				0	
6.6.1	mac	2023-06-02	04:50:34	05:01:03	624669	6167abbd7db521535e811eb0	4	1	main_slash	11	main_slash	121	stimuli_distractor_trianglediamonds.svg	stimuli_distractor_trianglediamonds.svg	34	no	0	1	2000	0	0			0	0			1				0	
6.6.1	mac	2023-06-02	04:50:34	05:01:03	624669	6167abbd7db521535e811eb0	4	1	main_slash	11	advance_on_keypress_SLASH	122	stimuli_distractor_trianglediamonds.svg	stimuli_distractor_trianglediamonds.svg	34	no	57	0	365	0	0			0	0			1				0	
6.6.1	mac	2023-06-02	04:50:34	05:01:04	626112	6167abbd7db521535e811eb0	4	1	main_slash	11	main_slash	123	stimuli_target_rectangletriangles.svg	stimuli_distractor_diamondtriangles.svg	5	yes	53	1	441	0	0			0	0			1				0	
6.6.1	mac	2023-06-02	04:50:34	05:01:04	626112	6167abbd7db521535e811eb0	4	1	main_slash	11	advance_on_keypress_SLASH	124	stimuli_target_rectangletriangles.svg	stimuli_distractor_diamondtriangles.svg	5	yes	57	0	211	0	0			0	0			1				0	
6.6.1	mac	2023-06-02	04:50:34	05:01:05	627388	6167abbd7db521535e811eb0	4	1	main_slash	11	main_slash	125	stimuli_target_squarediamonds.svg	stimuli_distractor_diamondtriangles.svg	8	yes	53	1	434	0	0			0	0			1				0	
6.6.1	mac	2023-06-02	04:50:34	05:01:05	627388	6167abbd7db521535e811eb0	4	1	main_slash	11	advance_on_keypress_SLASH	126	stimuli_target_squarediamonds.svg	stimuli_distractor_diamondtriangles.svg	8	yes	57	0	256	0	0			0	0			1				0	
6.6.1	mac	2023-06-02	04:50:34	05:01:07	628834	6167abbd7db521535e811eb0	4	1	main_slash	11	main_slash	127	stimuli_distractor_diamondtriangles.svg	stimuli_target_trianglesquares.svg	30	yes	53	1	560	0	0			0	0			1				0	
6.6.1	mac	2023-06-02	04:50:34	05:01:07	628834	6167abbd7db521535e811eb0	4	1	main_slash	11	advance_on_keypress_SLASH	128	stimuli_distractor_diamondtriangles.svg	stimuli_target_trianglesquares.svg	30	yes	57	0	207	0	0			0	0			1				0	
6.6.1	mac	2023-06-02	04:50:34	05:01:08	630041	6167abbd7db521535e811eb0	4	1	main_slash	11	main_slash	129	stimuli_distractor_diamondtriangles.svg	stimuli_target_trianglerectangles.svg	29	yes	53	1	366	0	0			0	0			1				0	
6.6.1	mac	2023-06-02	04:50:34	05:01:08	630041	6167abbd7db521535e811eb0	4	1	main_slash	11	advance_on_keypress_SLASH	130	stimuli_distractor_diamondtriangles.svg	stimuli_target_trianglerectangles.svg	29	yes	57	0	212	0	0			0	0			1				0	
6.6.1	mac	2023-06-02	04:50:34	05:01:09	631264	6167abbd7db521535e811eb0	4	1	main_slash	11	main_slash	131	stimuli_distractor_trianglediamonds.svg	stimuli_target_trianglerectangles.svg	25	yes	53	1	372	0	0			0	0			1				0	
6.6.1	mac	2023-06-02	04:50:34	05:01:09	631264	6167abbd7db521535e811eb0	4	1	main_slash	11	advance_on_keypress_SLASH	132	stimuli_distractor_trianglediamonds.svg	stimuli_target_trianglerectangles.svg	25	yes	57	0	213	0	0			0	0			1				0	
6.6.1	mac	2023-06-02	04:50:34	05:01:10	632437	6167abbd7db521535e811eb0	4	1	main_slash	11	main_slash	133	stimuli_distractor_trianglediamonds.svg	stimuli_distractor_diamondtriangles.svg	36	no	53	0	330	0	0			0	0			1				0	
6.6.1	mac	2023-06-02	04:50:34	05:01:10	632437	6167abbd7db521535e811eb0	4	1	main_slash	11	advance_on_keypress_SLASH	134	stimuli_distractor_trianglediamonds.svg	stimuli_distractor_diamondtriangles.svg	36	no	57	0	243	0	0			0	0			1				0	
6.6.1	mac	2023-06-02	04:50:34	05:01:13	635307	6167abbd7db521535e811eb0	4	1	main_slash	11	main_slash	135	stimuli_target_diamondrectangles.svg	stimuli_distractor_diamondtriangles.svg	23	yes	0	0	2000	0	0			0	0			1				0	
6.6.1	mac	2023-06-02	04:50:34	05:01:13	635307	6167abbd7db521535e811eb0	4	1	main_slash	11	advance_on_keypress_SLASH	136	stimuli_target_diamondrectangles.svg	stimuli_distractor_diamondtriangles.svg	23	yes	57	0	447	0	0			0	0			1				0	
6.6.1	mac	2023-06-02	04:50:34	05:01:16	638391	6167abbd7db521535e811eb0	4	1	main_slash	11	main_slash	137	stimuli_distractor_diamondtriangles.svg	stimuli_distractor_diamondtriangles.svg	40	no	0	1	2000	0	0			0	0			1				0	
6.6.1	mac	2023-06-02	04:50:34	05:01:16	638391	6167abbd7db521535e811eb0	4	1	main_slash	11	advance_on_keypress_SLASH	138	stimuli_distractor_diamondtriangles.svg	stimuli_distractor_diamondtriangles.svg	40	no	57	0	306	0	0			0	0			1				0	
6.6.1	mac	2023-06-02	04:50:34	05:01:18	639720	6167abbd7db521535e811eb0	4	1	main_slash	11	main_slash	139	stimuli_distractor_diamondtriangles.svg	stimuli_target_rectangletriangles.svg	13	yes	53	1	391	0	0			0	0			1				0	
6.6.1	mac	2023-06-02	04:50:34	05:01:18	639720	6167abbd7db521535e811eb0	4	1	main_slash	11	advance_on_keypress_SLASH	140	stimuli_distractor_diamondtriangles.svg	stimuli_target_rectangletriangles.svg	13	yes	57	0	243	0	0			0	0			1				0	
6.6.1	mac	2023-06-02	04:50:34	05:01:19	641059	6167abbd7db521535e811eb0	4	1	main_slash	11	main_slash	141	stimuli_target_rectangletriangles.svg	stimuli_distractor_trianglediamonds.svg	1	yes	53	1	463	0	0			0	0			1				0	
6.6.1	mac	2023-06-02	04:50:34	05:01:19	641059	6167abbd7db521535e811eb0	4	1	main_slash	11	advance_on_keypress_SLASH	142	stimuli_target_rectangletriangles.svg	stimuli_distractor_trianglediamonds.svg	1	yes	57	0	245	0	0			0	0			1				0	
6.6.1	mac	2023-06-02	04:50:34	05:01:21	642515	6167abbd7db521535e811eb0	4	1	main_slash	11	main_slash	143	stimuli_target_diamondsquares.svg	stimuli_distractor_diamondtriangles.svg	24	yes	53	1	570	0	0			0	0			1				0	
6.6.1	mac	2023-06-02	04:50:34	05:01:21	642515	6167abbd7db521535e811eb0	4	1	main_slash	11	advance_on_keypress_SLASH	144	stimuli_target_diamondsquares.svg	stimuli_distractor_diamondtriangles.svg	24	yes	57	0	234	0	0			0	0			1				0	
6.6.1	mac	2023-06-02	04:50:34	05:01:22	643742	6167abbd7db521535e811eb0	4	1	main_slash	11	main_slash	145	stimuli_distractor_diamondtriangles.svg	stimuli_target_rectanglediamonds.svg	14	yes	53	1	360	0	0			0	0			1				0	
6.6.1	mac	2023-06-02	04:50:34	05:01:22	643742	6167abbd7db521535e811eb0	4	1	main_slash	11	advance_on_keypress_SLASH	146	stimuli_distractor_diamondtriangles.svg	stimuli_target_rectanglediamonds.svg	14	yes	57	0	228	0	0			0	0			1				0	
6.6.1	mac	2023-06-02	04:50:34	05:01:23	644981	6167abbd7db521535e811eb0	4	1	main_slash	11	main_slash	147	stimuli_target_squaretriangles.svg	stimuli_distractor_trianglediamonds.svg	3	yes	53	1	381	0	0			0	0			1				0	
6.6.1	mac	2023-06-02	04:50:34	05:01:23	644981	6167abbd7db521535e811eb0	4	1	main_slash	11	advance_on_keypress_SLASH	148	stimuli_target_squaretriangles.svg	stimuli_distractor_trianglediamonds.svg	3	yes	57	0	207	0	0			0	0			1				0	
6.6.1	mac	2023-06-02	04:50:34	05:01:24	646146	6167abbd7db521535e811eb0	4	1	main_slash	11	main_slash	149	stimuli_target_squaretriangles.svg	stimuli_distractor_diamondtriangles.svg	7	yes	53	1	333	0	0			0	0			1				0	
6.6.1	mac	2023-06-02	04:50:34	05:01:24	646146	6167abbd7db521535e811eb0	4	1	main_slash	11	advance_on_keypress_SLASH	150	stimuli_target_squaretriangles.svg	stimuli_distractor_diamondtriangles.svg	7	yes	57	0	231	0	0			0	0			1				0	
6.6.1	mac	2023-06-02	04:50:34	05:01:26	647465	6167abbd7db521535e811eb0	4	1	main_slash	11	main_slash	151	stimuli_target_trianglesquares.svg	stimuli_distractor_trianglediamonds.svg	18	yes	53	1	449	0	0			0	0			1				0	
6.6.1	mac	2023-06-02	04:50:34	05:01:26	647465	6167abbd7db521535e811eb0	4	1	main_slash	11	advance_on_keypress_SLASH	152	stimuli_target_trianglesquares.svg	stimuli_distractor_trianglediamonds.svg	18	yes	57	0	203	0	0			0	0			1				0	
6.6.1	mac	2023-06-02	04:50:34	05:01:27	648695	6167abbd7db521535e811eb0	4	1	main_slash	11	main_slash	153	stimuli_target_trianglerectangles.svg	stimuli_distractor_diamondtriangles.svg	21	yes	53	1	395	0	0			0	0			1				0	
6.6.1	mac	2023-06-02	04:50:34	05:01:27	648695	6167abbd7db521535e811eb0	4	1	main_slash	11	advance_on_keypress_SLASH	154	stimuli_target_trianglerectangles.svg	stimuli_distractor_diamondtriangles.svg	21	yes	57	0	215	0	0			0	0			1				0	
6.6.1	mac	2023-06-02	04:50:34	05:01:28	649918	6167abbd7db521535e811eb0	4	1	main_slash	11	main_slash	155	stimuli_distractor_diamondtriangles.svg	stimuli_target_diamondrectangles.svg	31	yes	53	1	367	0	0			0	0			1				0	
6.6.1	mac	2023-06-02	04:50:34	05:01:28	649918	6167abbd7db521535e811eb0	4	1	main_slash	11	advance_on_keypress_SLASH	156	stimuli_distractor_diamondtriangles.svg	stimuli_target_diamondrectangles.svg	31	yes	57	0	240	0	0			0	0			1				0	
6.6.1	mac	2023-06-02	04:50:34	05:01:29	651175	6167abbd7db521535e811eb0	4	1	main_slash	11	main_slash	157	stimuli_distractor_trianglediamonds.svg	stimuli_distractor_trianglediamonds.svg	33	no	53	0	392	0	0			0	0			1				0	
6.6.1	mac	2023-06-02	04:50:34	05:01:29	651175	6167abbd7db521535e811eb0	4	1	main_slash	11	advance_on_keypress_SLASH	158	stimuli_distractor_trianglediamonds.svg	stimuli_distractor_trianglediamonds.svg	33	no	57	0	372	0	0			0	0			1				0	
6.6.1	mac	2023-06-02	04:50:34	05:01:31	652559	6167abbd7db521535e811eb0	4	1	main_slash	11	main_slash	159	stimuli_distractor_diamondtriangles.svg	stimuli_target_squarediamonds.svg	16	yes	53	1	375	0	0			0	0			1				0	
6.6.1	mac	2023-06-02	04:50:34	05:01:31	652559	6167abbd7db521535e811eb0	4	1	main_slash	11	advance_on_keypress_SLASH	160	stimuli_distractor_diamondtriangles.svg	stimuli_target_squarediamonds.svg	16	yes	57	0	217	0	0			0	0			1				0	
6.6.1	mac	2023-06-02	04:50:34	05:01:31	652559	6167abbd7db521535e811eb0	4	1	headphonecheck_calibration	14	headphonecheck_calibrationIntro	1	stimuli_distractor_diamondtriangles.svg	stimuli_target_squarediamonds.svg	16	yes	calibrationButton	0	3677	0	0			0	0			1				0	
6.6.1	mac	2023-06-02	04:50:34	05:01:31	652559	6167abbd7db521535e811eb0	4	1	headphonecheck_testphase	15	test_collectResponse	3	stimuli_distractor_diamondtriangles.svg	stimuli_target_squarediamonds.svg	16	yes	first	0	6337	1	1	antiphase_hc_iso.wav	2	0	0			1				0	
6.6.1	mac	2023-06-02	04:50:34	05:01:31	652559	6167abbd7db521535e811eb0	4	1	headphonecheck_testphase	15	test_collectResponse	6	stimuli_distractor_diamondtriangles.svg	stimuli_target_squarediamonds.svg	16	yes	first	1	946	2	4	antiphase_hc_sio.wav	1	0	0			1				0	
6.6.1	mac	2023-06-02	04:50:34	05:01:31	652559	6167abbd7db521535e811eb0	4	1	headphonecheck_testphase	15	test_collectResponse	9	stimuli_distractor_diamondtriangles.svg	stimuli_target_squarediamonds.svg	16	yes	first	1	472	3	3	antiphase_hc_soi.wav	1	0	0			1				0	
6.6.1	mac	2023-06-02	04:50:34	05:01:31	652559	6167abbd7db521535e811eb0	4	1	headphonecheck_testphase	15	test_collectResponse	12	stimuli_distractor_diamondtriangles.svg	stimuli_target_squarediamonds.svg	16	yes	third	1	359	4	6	antiphase_hc_ois.wav	3	0	0			1				0	
6.6.1	mac	2023-06-02	04:50:34	05:01:31	652559	6167abbd7db521535e811eb0	4	1	headphonecheck_testphase	15	test_collectResponse	15	stimuli_distractor_diamondtriangles.svg	stimuli_target_squarediamonds.svg	16	yes	third	1	387	5	2	antiphase_hc_ios.wav	3	0	0			1				0	
6.6.1	mac	2023-06-02	04:50:34	05:01:31	652559	6167abbd7db521535e811eb0	4	1	headphonecheck_testphase	15	test_collectResponse	18	stimuli_distractor_diamondtriangles.svg	stimuli_target_squarediamonds.svg	16	yes	second	1	273	6	5	antiphase_hc_osi.wav	2	0	0			1				0	
6.6.1	mac	2023-06-02	04:50:34	05:01:31	652559	6167abbd7db521535e811eb0	4	1	stereocheck_calibration	17	stereocheck_calibrationIntro	1	stimuli_distractor_diamondtriangles.svg	stimuli_target_squarediamonds.svg	16	yes	stereocheck_calibrationButton	0	2878	6	5	antiphase_hc_osi.wav	2	0	0			1				0	
6.6.1	mac	2023-06-02	04:50:34	05:01:31	652559	6167abbd7db521535e811eb0	4	1	stereocheck_testphase	18	stereocheck_test_collectResponse	3	stimuli_distractor_diamondtriangles.svg	stimuli_target_squarediamonds.svg	16	yes	stereocheck_left	1	540	6	5	antiphase_hc_osi.wav	2	1	3	noise_calib_stim_LEFT.wav	1	1				0	
6.6.1	mac	2023-06-02	04:50:34	05:01:31	652559	6167abbd7db521535e811eb0	4	1	stereocheck_testphase	18	stereocheck_test_collectResponse	6	stimuli_distractor_diamondtriangles.svg	stimuli_target_squarediamonds.svg	16	yes	stereocheck_left	1	411	6	5	antiphase_hc_osi.wav	2	2	2	noise_calib_stim_LEFT.wav	1	1				0	
6.6.1	mac	2023-06-02	04:50:34	05:01:31	652559	6167abbd7db521535e811eb0	4	1	stereocheck_testphase	18	stereocheck_test_collectResponse	9	stimuli_distractor_diamondtriangles.svg	stimuli_target_squarediamonds.svg	16	yes	stereocheck_right	1	384	6	5	antiphase_hc_osi.wav	2	3	4	noise_calib_stim_RIGHT.wav	2	1				0	
6.6.1	mac	2023-06-02	04:50:34	05:01:31	652559	6167abbd7db521535e811eb0	4	1	stereocheck_testphase	18	stereocheck_test_collectResponse	12	stimuli_distractor_diamondtriangles.svg	stimuli_target_squarediamonds.svg	16	yes	stereocheck_right	1	350	6	5	antiphase_hc_osi.wav	2	4	5	noise_calib_stim_RIGHT.wav	2	1				0	
6.6.1	mac	2023-06-02	04:50:34	05:01:31	652559	6167abbd7db521535e811eb0	4	1	stereocheck_testphase	18	stereocheck_test_collectResponse	15	stimuli_distractor_diamondtriangles.svg	stimuli_target_squarediamonds.svg	16	yes	stereocheck_right	1	351	6	5	antiphase_hc_osi.wav	2	5	6	noise_calib_stim_RIGHT.wav	2	1				0	
6.6.1	mac	2023-06-02	04:50:34	05:01:31	652559	6167abbd7db521535e811eb0	4	1	stereocheck_testphase	18	stereocheck_test_collectResponse	18	stimuli_distractor_diamondtriangles.svg	stimuli_target_squarediamonds.svg	16	yes	stereocheck_left	1	344	6	5	antiphase_hc_osi.wav	2	6	1	noise_calib_stim_LEFT.wav	1	1				0	
6.6.1	mac	2023-06-02	04:50:34	05:01:31	652559	6167abbd7db521535e811eb0	4	1	DL_practice	21	DL_practice	2	stimuli_distractor_diamondtriangles.svg	stimuli_target_squarediamonds.svg	16	yes	pa	1	1435	6	5	antiphase_hc_osi.wav	2	6	1	noise_calib_stim_LEFT.wav	1	29	blb_dichoticlistening_pa-pa.mp3	pa	pa	0	left
6.6.1	mac	2023-06-02	04:50:34	05:01:31	652559	6167abbd7db521535e811eb0	4	1	DL_practice	21	DL_practice	3	stimuli_distractor_diamondtriangles.svg	stimuli_target_squarediamonds.svg	16	yes	da	1	1091	6	5	antiphase_hc_osi.wav	2	6	1	noise_calib_stim_LEFT.wav	1	8	blb_dichoticlistening_da-da.mp3	da	da	0	left
6.6.1	mac	2023-06-02	04:50:34	05:01:31	652559	6167abbd7db521535e811eb0	4	1	DL_practice	21	DL_practice	4	stimuli_distractor_diamondtriangles.svg	stimuli_target_squarediamonds.svg	16	yes	ka	0	1432	6	5	antiphase_hc_osi.wav	2	6	1	noise_calib_stim_LEFT.wav	1	18	blb_dichoticlistening_ga-ta.mp3	ga	ta	1	other
6.6.1	mac	2023-06-02	04:50:34	05:01:31	652559	6167abbd7db521535e811eb0	4	1	DL_practice	21	DL_practice	5	stimuli_distractor_diamondtriangles.svg	stimuli_target_squarediamonds.svg	16	yes	ka	1	1176	6	5	antiphase_hc_osi.wav	2	6	1	noise_calib_stim_LEFT.wav	1	22	blb_dichoticlistening_ka-ka.mp3	ka	ka	0	left
6.6.1	mac	2023-06-02	04:50:34	05:01:31	652559	6167abbd7db521535e811eb0	4	1	DL_practice	21	DL_practice	6	stimuli_distractor_diamondtriangles.svg	stimuli_target_squarediamonds.svg	16	yes	ka	1	1067	6	5	antiphase_hc_osi.wav	2	6	1	noise_calib_stim_LEFT.wav	1	23	blb_dichoticlistening_ka-pa.mp3	ka	pa	1	left
6.6.1	mac	2023-06-02	04:50:34	05:01:31	652559	6167abbd7db521535e811eb0	4	1	DL_practice	21	DL_practice	7	stimuli_distractor_diamondtriangles.svg	stimuli_target_squarediamonds.svg	16	yes	ta	1	3226	6	5	antiphase_hc_osi.wav	2	6	1	noise_calib_stim_LEFT.wav	1	36	blb_dichoticlistening_ta-ta.mp3	ta	ta	0	left
6.6.1	mac	2023-06-02	04:50:34	05:01:31	652559	6167abbd7db521535e811eb0	4	1	DL_practice	21	DL_practice	8	stimuli_distractor_diamondtriangles.svg	stimuli_target_squarediamonds.svg	16	yes	ba	1	1500	6	5	antiphase_hc_osi.wav	2	6	1	noise_calib_stim_LEFT.wav	1	1	blb_dichoticlistening_ba-ba.mp3	ba	ba	0	left
6.6.1	mac	2023-06-02	04:50:34	05:01:31	652559	6167abbd7db521535e811eb0	4	1	DL_practice	21	DL_practice	9	stimuli_distractor_diamondtriangles.svg	stimuli_target_squarediamonds.svg	16	yes	ba	1	1332	6	5	antiphase_hc_osi.wav	2	6	1	noise_calib_stim_LEFT.wav	1	7	blb_dichoticlistening_da-ba.mp3	da	ba	1	right
6.6.1	mac	2023-06-02	04:50:34	05:01:31	652559	6167abbd7db521535e811eb0	4	1	DL_practice	21	DL_practice	10	stimuli_distractor_diamondtriangles.svg	stimuli_target_squarediamonds.svg	16	yes	ga	1	1055	6	5	antiphase_hc_osi.wav	2	6	1	noise_calib_stim_LEFT.wav	1	15	blb_dichoticlistening_ga-ga.mp3	ga	ga	0	left
6.6.1	mac	2023-06-02	04:50:34	05:01:31	652559	6167abbd7db521535e811eb0	4	1	DL_test	23	DL_test	1	stimuli_distractor_diamondtriangles.svg	stimuli_target_squarediamonds.svg	16	yes	ga	1	897	6	5	antiphase_hc_osi.wav	2	6	1	noise_calib_stim_LEFT.wav	1	9	blb_dichoticlistening_da-ga.mp3	da	ga	1	right
6.6.1	mac	2023-06-02	04:50:34	05:01:31	652559	6167abbd7db521535e811eb0	4	1	DL_test	23	DL_test	2	stimuli_distractor_diamondtriangles.svg	stimuli_target_squarediamonds.svg	16	yes	ta	1	1256	6	5	antiphase_hc_osi.wav	2	6	1	noise_calib_stim_LEFT.wav	1	12	blb_dichoticlistening_da-ta.mp3	da	ta	1	right
6.6.1	mac	2023-06-02	04:50:34	05:01:31	652559	6167abbd7db521535e811eb0	4	1	DL_test	23	DL_test	3	stimuli_distractor_diamondtriangles.svg	stimuli_target_squarediamonds.svg	16	yes	ka	0	1004	6	5	antiphase_hc_osi.wav	2	6	1	noise_calib_stim_LEFT.wav	1	18	blb_dichoticlistening_ga-ta.mp3	ga	ta	1	other
6.6.1	mac	2023-06-02	04:50:34	05:01:31	652559	6167abbd7db521535e811eb0	4	1	DL_test	23	DL_test	4	stimuli_distractor_diamondtriangles.svg	stimuli_target_squarediamonds.svg	16	yes	pa	1	1749	6	5	antiphase_hc_osi.wav	2	6	1	noise_calib_stim_LEFT.wav	1	35	blb_dichoticlistening_ta-pa.mp3	ta	pa	1	right
6.6.1	mac	2023-06-02	04:50:34	05:01:31	652559	6167abbd7db521535e811eb0	4	1	DL_test	23	DL_test	5	stimuli_distractor_diamondtriangles.svg	stimuli_target_squarediamonds.svg	16	yes	ka	0	1122	6	5	antiphase_hc_osi.wav	2	6	1	noise_calib_stim_LEFT.wav	1	32	blb_dichoticlistening_ta-da.mp3	ta	da	1	other
6.6.1	mac	2023-06-02	04:50:34	05:01:31	652559	6167abbd7db521535e811eb0	4	1	DL_test	23	DL_test	6	stimuli_distractor_diamondtriangles.svg	stimuli_target_squarediamonds.svg	16	yes	pa	1	1119	6	5	antiphase_hc_osi.wav	2	6	1	noise_calib_stim_LEFT.wav	1	29	blb_dichoticlistening_pa-pa.mp3	pa	pa	0	left
6.6.1	mac	2023-06-02	04:50:34	05:01:31	652559	6167abbd7db521535e811eb0	4	1	DL_test	23	DL_test	7	stimuli_distractor_diamondtriangles.svg	stimuli_target_squarediamonds.svg	16	yes	ka	1	943	6	5	antiphase_hc_osi.wav	2	6	1	noise_calib_stim_LEFT.wav	1	24	blb_dichoticlistening_ka-ta.mp3	ka	ta	1	left
6.6.1	mac	2023-06-02	04:50:34	05:01:31	652559	6167abbd7db521535e811eb0	4	1	DL_test	23	DL_test	8	stimuli_distractor_diamondtriangles.svg	stimuli_target_squarediamonds.svg	16	yes	ga	1	1689	6	5	antiphase_hc_osi.wav	2	6	1	noise_calib_stim_LEFT.wav	1	27	blb_dichoticlistening_pa-ga.mp3	pa	ga	1	right
6.6.1	mac	2023-06-02	04:50:34	05:01:31	652559	6167abbd7db521535e811eb0	4	1	DL_test	23	DL_test	9	stimuli_distractor_diamondtriangles.svg	stimuli_target_squarediamonds.svg	16	yes	ka	1	1528	6	5	antiphase_hc_osi.wav	2	6	1	noise_calib_stim_LEFT.wav	1	4	blb_dichoticlistening_ba-ka.mp3	ba	ka	1	right
6.6.1	mac	2023-06-02	04:50:34	05:01:31	652559	6167abbd7db521535e811eb0	4	1	DL_test	23	DL_test	10	stimuli_distractor_diamondtriangles.svg	stimuli_target_squarediamonds.svg	16	yes	ka	0	1150	6	5	antiphase_hc_osi.wav	2	6	1	noise_calib_stim_LEFT.wav	1	33	blb_dichoticlistening_ta-ga.mp3	ta	ga	1	other
6.6.1	mac	2023-06-02	04:50:34	05:01:31	652559	6167abbd7db521535e811eb0	4	1	DL_test	23	DL_test	11	stimuli_distractor_diamondtriangles.svg	stimuli_target_squarediamonds.svg	16	yes	ga	0	941	6	5	antiphase_hc_osi.wav	2	6	1	noise_calib_stim_LEFT.wav	1	8	blb_dichoticlistening_da-da.mp3	da	da	0	other
6.6.1	mac	2023-06-02	04:50:34	05:01:31	652559	6167abbd7db521535e811eb0	4	1	DL_test	23	DL_test	12	stimuli_distractor_diamondtriangles.svg	stimuli_target_squarediamonds.svg	16	yes	ka	1	973	6	5	antiphase_hc_osi.wav	2	6	1	noise_calib_stim_LEFT.wav	1	28	blb_dichoticlistening_pa-ka.mp3	pa	ka	1	right
6.6.1	mac	2023-06-02	04:50:34	05:01:31	652559	6167abbd7db521535e811eb0	4	1	DL_test	23	DL_test	13	stimuli_distractor_diamondtriangles.svg	stimuli_target_squarediamonds.svg	16	yes	ka	1	1092	6	5	antiphase_hc_osi.wav	2	6	1	noise_calib_stim_LEFT.wav	1	34	blb_dichoticlistening_ta-ka.mp3	ta	ka	1	right
6.6.1	mac	2023-06-02	04:50:34	05:01:31	652559	6167abbd7db521535e811eb0	4	1	DL_test	23	DL_test	14	stimuli_distractor_diamondtriangles.svg	stimuli_target_squarediamonds.svg	16	yes	ka	1	1278	6	5	antiphase_hc_osi.wav	2	6	1	noise_calib_stim_LEFT.wav	1	22	blb_dichoticlistening_ka-ka.mp3	ka	ka	0	left
6.6.1	mac	2023-06-02	04:50:34	05:01:31	652559	6167abbd7db521535e811eb0	4	1	DL_test	23	DL_test	15	stimuli_distractor_diamondtriangles.svg	stimuli_target_squarediamonds.svg	16	yes	pa	0	1084	6	5	antiphase_hc_osi.wav	2	6	1	noise_calib_stim_LEFT.wav	1	10	blb_dichoticlistening_da-ka.mp3	da	ka	1	other
6.6.1	mac	2023-06-02	04:50:34	05:01:31	652559	6167abbd7db521535e811eb0	4	1	DL_test	23	DL_test	16	stimuli_distractor_diamondtriangles.svg	stimuli_target_squarediamonds.svg	16	yes	ta	0	2266	6	5	antiphase_hc_osi.wav	2	6	1	noise_calib_stim_LEFT.wav	1	21	blb_dichoticlistening_ka-ga.mp3	ka	ga	1	other
6.6.1	mac	2023-06-02	04:50:34	05:01:31	652559	6167abbd7db521535e811eb0	4	1	DL_test	23	DL_test	17	stimuli_distractor_diamondtriangles.svg	stimuli_target_squarediamonds.svg	16	yes	ka	0	1378	6	5	antiphase_hc_osi.wav	2	6	1	noise_calib_stim_LEFT.wav	1	36	blb_dichoticlistening_ta-ta.mp3	ta	ta	0	other
6.6.1	mac	2023-06-02	04:50:34	05:01:31	652559	6167abbd7db521535e811eb0	4	1	DL_test	23	DL_test	18	stimuli_distractor_diamondtriangles.svg	stimuli_target_squarediamonds.svg	16	yes	ba	1	1358	6	5	antiphase_hc_osi.wav	2	6	1	noise_calib_stim_LEFT.wav	1	13	blb_dichoticlistening_ga-ba.mp3	ga	ba	1	right
6.6.1	mac	2023-06-02	04:50:34	05:01:31	652559	6167abbd7db521535e811eb0	4	1	DL_test	23	DL_test	19	stimuli_distractor_diamondtriangles.svg	stimuli_target_squarediamonds.svg	16	yes	ta	1	2210	6	5	antiphase_hc_osi.wav	2	6	1	noise_calib_stim_LEFT.wav	1	6	blb_dichoticlistening_ba-ta.mp3	ba	ta	1	right
6.6.1	mac	2023-06-02	04:50:34	05:01:31	652559	6167abbd7db521535e811eb0	4	1	DL_test	23	DL_test	20	stimuli_distractor_diamondtriangles.svg	stimuli_target_squarediamonds.svg	16	yes	ka	1	1116	6	5	antiphase_hc_osi.wav	2	6	1	noise_calib_stim_LEFT.wav	1	16	blb_dichoticlistening_ga-ka.mp3	ga	ka	1	right
6.6.1	mac	2023-06-02	04:50:34	05:01:31	652559	6167abbd7db521535e811eb0	4	1	DL_test	23	DL_test	21	stimuli_distractor_diamondtriangles.svg	stimuli_target_squarediamonds.svg	16	yes	ba	0	1299	6	5	antiphase_hc_osi.wav	2	6	1	noise_calib_stim_LEFT.wav	1	11	blb_dichoticlistening_da-pa.mp3	da	pa	1	other
6.6.1	mac	2023-06-02	04:50:34	05:01:31	652559	6167abbd7db521535e811eb0	4	1	DL_test	23	DL_test	22	stimuli_distractor_diamondtriangles.svg	stimuli_target_squarediamonds.svg	16	yes	pa	1	1604	6	5	antiphase_hc_osi.wav	2	6	1	noise_calib_stim_LEFT.wav	1	17	blb_dichoticlistening_ga-pa.mp3	ga	pa	1	right
6.6.1	mac	2023-06-02	04:50:34	05:01:31	652559	6167abbd7db521535e811eb0	4	1	DL_test	23	DL_test	23	stimuli_distractor_diamondtriangles.svg	stimuli_target_squarediamonds.svg	16	yes	ta	0	3909	6	5	antiphase_hc_osi.wav	2	6	1	noise_calib_stim_LEFT.wav	1	26	blb_dichoticlistening_pa-da.mp3	pa	da	1	other
6.6.1	mac	2023-06-02	04:50:34	05:01:31	652559	6167abbd7db521535e811eb0	4	1	DL_test	23	DL_test	24	stimuli_distractor_diamondtriangles.svg	stimuli_target_squarediamonds.svg	16	yes	ga	1	1132	6	5	antiphase_hc_osi.wav	2	6	1	noise_calib_stim_LEFT.wav	1	3	blb_dichoticlistening_ba-ga.mp3	ba	ga	1	right
6.6.1	mac	2023-06-02	04:50:34	05:01:31	652559	6167abbd7db521535e811eb0	4	1	DL_test	23	DL_test	25	stimuli_distractor_diamondtriangles.svg	stimuli_target_squarediamonds.svg	16	yes	pa	1	1790	6	5	antiphase_hc_osi.wav	2	6	1	noise_calib_stim_LEFT.wav	1	25	blb_dichoticlistening_pa-ba.mp3	pa	ba	1	left
6.6.1	mac	2023-06-02	04:50:34	05:01:31	652559	6167abbd7db521535e811eb0	4	1	DL_test	23	DL_test	26	stimuli_distractor_diamondtriangles.svg	stimuli_target_squarediamonds.svg	16	yes	ga	0	932	6	5	antiphase_hc_osi.wav	2	6	1	noise_calib_stim_LEFT.wav	1	2	blb_dichoticlistening_ba-da.mp3	ba	da	1	other
