build	computer.platform	date	time	timestamp	time_elapsed_ms	subject	group	session	blockcode	blocknum	trialcode	trialnum	stimulus_left	stimulus_right	stim_index	target_present	response	correct	latency	headphonecheck_countTestTrials	headphonecheck_index	headphonecheck_testSound	headphonecheck_correctResponse	stereocheck_countTestTrials	stereocheck_index	stereocheck_testSound	stereocheck_correctResponse	DL_index	DL_soundfile	DL_leftSound	DL_rightSound	DL_dualSound	DL_choice
6.6.1	win	2023-07-06	22:16:26	22:19:06	156973	63d7e609051bf50f9d1dcd35	3	1	practice_slash	5	practice_slash	1	stimuli_distractor_trianglediamonds.svg	stimuli_target_rectanglediamonds.svg	10	yes	53	1	1083	0	0			0	0			1				0	
6.6.1	win	2023-07-06	22:16:26	22:19:06	156973	63d7e609051bf50f9d1dcd35	3	1	practice_slash	5	advance_on_keypress_SLASH	2	stimuli_distractor_trianglediamonds.svg	stimuli_target_rectanglediamonds.svg	10	yes	57	0	2404	0	0			0	0			1				0	
6.6.1	win	2023-07-06	22:16:26	22:19:10	161614	63d7e609051bf50f9d1dcd35	3	1	practice_slash	5	practice_slash	3	stimuli_distractor_trianglediamonds.svg	stimuli_target_diamondrectangles.svg	12	yes	53	1	585	0	0			0	0			1				0	
6.6.1	win	2023-07-06	22:16:26	22:19:10	161614	63d7e609051bf50f9d1dcd35	3	1	practice_slash	5	advance_on_keypress_SLASH	4	stimuli_distractor_trianglediamonds.svg	stimuli_target_diamondrectangles.svg	12	yes	57	0	1719	0	0			0	0			1				0	
6.6.1	win	2023-07-06	22:16:26	22:19:14	165661	63d7e609051bf50f9d1dcd35	3	1	practice_slash	5	practice_slash	5	stimuli_distractor_trianglediamonds.svg	stimuli_target_squarediamonds.svg	11	yes	53	1	679	0	0			0	0			1				0	
6.6.1	win	2023-07-06	22:16:26	22:19:14	165661	63d7e609051bf50f9d1dcd35	3	1	practice_slash	5	advance_on_keypress_SLASH	6	stimuli_distractor_trianglediamonds.svg	stimuli_target_squarediamonds.svg	11	yes	57	0	521	0	0			0	0			1				0	
6.6.1	win	2023-07-06	22:16:26	22:19:17	168574	63d7e609051bf50f9d1dcd35	3	1	practice_slash	5	practice_slash	7	stimuli_target_squarediamonds.svg	stimuli_distractor_diamondtriangles.svg	2	yes	53	1	755	0	0			0	0			1				0	
6.6.1	win	2023-07-06	22:16:26	22:19:17	168574	63d7e609051bf50f9d1dcd35	3	1	practice_slash	5	advance_on_keypress_SLASH	8	stimuli_target_squarediamonds.svg	stimuli_distractor_diamondtriangles.svg	2	yes	57	0	666	0	0			0	0			1				0	
6.6.1	win	2023-07-06	22:16:26	22:19:20	171717	63d7e609051bf50f9d1dcd35	3	1	practice_slash	5	practice_slash	9	stimuli_distractor_diamondtriangles.svg	stimuli_target_trianglerectangles.svg	9	yes	53	1	829	0	0			0	0			1				0	
6.6.1	win	2023-07-06	22:16:26	22:19:20	171717	63d7e609051bf50f9d1dcd35	3	1	practice_slash	5	advance_on_keypress_SLASH	10	stimuli_distractor_diamondtriangles.svg	stimuli_target_trianglerectangles.svg	9	yes	57	0	569	0	0			0	0			1				0	
6.6.1	win	2023-07-06	22:16:26	22:19:23	174718	63d7e609051bf50f9d1dcd35	3	1	practice_slash	5	practice_slash	11	stimuli_distractor_diamondtriangles.svg	stimuli_target_diamondrectangles.svg	8	yes	53	1	793	0	0			0	0			1				0	
6.6.1	win	2023-07-06	22:16:26	22:19:23	174718	63d7e609051bf50f9d1dcd35	3	1	practice_slash	5	advance_on_keypress_SLASH	12	stimuli_distractor_diamondtriangles.svg	stimuli_target_diamondrectangles.svg	8	yes	57	0	542	0	0			0	0			1				0	
6.6.1	win	2023-07-06	22:16:26	22:19:27	177813	63d7e609051bf50f9d1dcd35	3	1	practice_slash	5	practice_slash	13	stimuli_target_rectanglediamonds.svg	stimuli_distractor_diamondtriangles.svg	1	yes	53	1	919	0	0			0	0			1				0	
6.6.1	win	2023-07-06	22:16:26	22:19:27	177813	63d7e609051bf50f9d1dcd35	3	1	practice_slash	5	advance_on_keypress_SLASH	14	stimuli_target_rectanglediamonds.svg	stimuli_distractor_diamondtriangles.svg	1	yes	57	0	583	0	0			0	0			1				0	
6.6.1	win	2023-07-06	22:16:26	22:19:29	180765	63d7e609051bf50f9d1dcd35	3	1	practice_slash	5	practice_slash	15	stimuli_target_diamondsquares.svg	stimuli_distractor_diamondtriangles.svg	3	yes	53	1	718	0	0			0	0			1				0	
6.6.1	win	2023-07-06	22:16:26	22:19:29	180765	63d7e609051bf50f9d1dcd35	3	1	practice_slash	5	advance_on_keypress_SLASH	16	stimuli_target_diamondsquares.svg	stimuli_distractor_diamondtriangles.svg	3	yes	57	0	470	0	0			0	0			1				0	
6.6.1	win	2023-07-06	22:16:26	22:19:32	183597	63d7e609051bf50f9d1dcd35	3	1	practice_slash	5	practice_slash	17	stimuli_target_squarediamonds.svg	stimuli_distractor_trianglediamonds.svg	5	yes	53	1	714	0	0			0	0			1				0	
6.6.1	win	2023-07-06	22:16:26	22:19:32	183597	63d7e609051bf50f9d1dcd35	3	1	practice_slash	5	advance_on_keypress_SLASH	18	stimuli_target_squarediamonds.svg	stimuli_distractor_trianglediamonds.svg	5	yes	57	0	587	0	0			0	0			1				0	
6.6.1	win	2023-07-06	22:16:26	22:19:35	186630	63d7e609051bf50f9d1dcd35	3	1	practice_slash	5	practice_slash	19	stimuli_target_diamondsquares.svg	stimuli_distractor_trianglediamonds.svg	6	yes	53	1	810	0	0			0	0			1				0	
6.6.1	win	2023-07-06	22:16:26	22:19:35	186630	63d7e609051bf50f9d1dcd35	3	1	practice_slash	5	advance_on_keypress_SLASH	20	stimuli_target_diamondsquares.svg	stimuli_distractor_trianglediamonds.svg	6	yes	57	0	351	0	0			0	0			1				0	
6.6.1	win	2023-07-06	22:16:26	22:19:39	190622	63d7e609051bf50f9d1dcd35	3	1	practice_slash	5	practice_slash	21	stimuli_distractor_trianglediamonds.svg	stimuli_distractor_trianglediamonds.svg	15	no	0	1	2000	0	0			0	0			1				0	
6.6.1	win	2023-07-06	22:16:26	22:19:39	190622	63d7e609051bf50f9d1dcd35	3	1	practice_slash	5	advance_on_keypress_SLASH	22	stimuli_distractor_trianglediamonds.svg	stimuli_distractor_trianglediamonds.svg	15	no	57	0	611	0	0			0	0			1				0	
6.6.1	win	2023-07-06	22:16:26	22:19:43	193950	63d7e609051bf50f9d1dcd35	3	1	practice_slash	5	practice_slash	23	stimuli_distractor_diamondtriangles.svg	stimuli_target_rectangletriangles.svg	7	yes	53	1	1089	0	0			0	0			1				0	
6.6.1	win	2023-07-06	22:16:26	22:19:43	193950	63d7e609051bf50f9d1dcd35	3	1	practice_slash	5	advance_on_keypress_SLASH	24	stimuli_distractor_diamondtriangles.svg	stimuli_target_rectangletriangles.svg	7	yes	57	0	587	0	0			0	0			1				0	
6.6.1	win	2023-07-06	22:16:26	22:19:47	198180	63d7e609051bf50f9d1dcd35	3	1	practice_slash	5	practice_slash	25	stimuli_distractor_diamondtriangles.svg	stimuli_distractor_diamondtriangles.svg	13	no	0	1	2000	0	0			0	0			1				0	
6.6.1	win	2023-07-06	22:16:26	22:19:47	198180	63d7e609051bf50f9d1dcd35	3	1	practice_slash	5	advance_on_keypress_SLASH	26	stimuli_distractor_diamondtriangles.svg	stimuli_distractor_diamondtriangles.svg	13	no	57	0	374	0	0			0	0			1				0	
6.6.1	win	2023-07-06	22:16:26	22:19:51	202184	63d7e609051bf50f9d1dcd35	3	1	practice_slash	5	practice_slash	27	stimuli_distractor_trianglediamonds.svg	stimuli_distractor_diamondtriangles.svg	16	no	0	1	2000	0	0			0	0			1				0	
6.6.1	win	2023-07-06	22:16:26	22:19:51	202184	63d7e609051bf50f9d1dcd35	3	1	practice_slash	5	advance_on_keypress_SLASH	28	stimuli_distractor_trianglediamonds.svg	stimuli_distractor_diamondtriangles.svg	16	no	57	0	490	0	0			0	0			1				0	
6.6.1	win	2023-07-06	22:16:26	22:19:54	205230	63d7e609051bf50f9d1dcd35	3	1	practice_slash	5	practice_slash	29	stimuli_target_rectanglediamonds.svg	stimuli_distractor_trianglediamonds.svg	4	yes	53	1	925	0	0			0	0			1				0	
6.6.1	win	2023-07-06	22:16:26	22:19:54	205230	63d7e609051bf50f9d1dcd35	3	1	practice_slash	5	advance_on_keypress_SLASH	30	stimuli_target_rectanglediamonds.svg	stimuli_distractor_trianglediamonds.svg	4	yes	57	0	765	0	0			0	0			1				0	
6.6.1	win	2023-07-06	22:16:26	22:19:58	209625	63d7e609051bf50f9d1dcd35	3	1	practice_slash	5	practice_slash	31	stimuli_distractor_diamondtriangles.svg	stimuli_distractor_trianglediamonds.svg	14	no	0	1	2000	0	0			0	0			1				0	
6.6.1	win	2023-07-06	22:16:26	22:19:58	209625	63d7e609051bf50f9d1dcd35	3	1	practice_slash	5	advance_on_keypress_SLASH	32	stimuli_distractor_diamondtriangles.svg	stimuli_distractor_trianglediamonds.svg	14	no	57	0	353	0	0			0	0			1				0	
6.6.1	win	2023-07-06	22:16:26	22:20:05	216237	63d7e609051bf50f9d1dcd35	3	1	main_slash	7	main_slash	1	stimuli_distractor_diamondtriangles.svg	stimuli_target_trianglerectangles.svg	29	yes	53	1	671	0	0			0	0			1				0	
6.6.1	win	2023-07-06	22:16:26	22:20:05	216237	63d7e609051bf50f9d1dcd35	3	1	main_slash	7	advance_on_keypress_SLASH	2	stimuli_distractor_diamondtriangles.svg	stimuli_target_trianglerectangles.svg	29	yes	57	0	1970	0	0			0	0			1				0	
6.6.1	win	2023-07-06	22:16:26	22:20:08	219573	63d7e609051bf50f9d1dcd35	3	1	main_slash	7	main_slash	3	stimuli_target_rectangletriangles.svg	stimuli_distractor_diamondtriangles.svg	5	yes	53	1	720	0	0			0	0			1				0	
6.6.1	win	2023-07-06	22:16:26	22:20:08	219573	63d7e609051bf50f9d1dcd35	3	1	main_slash	7	advance_on_keypress_SLASH	4	stimuli_target_rectangletriangles.svg	stimuli_distractor_diamondtriangles.svg	5	yes	57	0	1602	0	0			0	0			1				0	
6.6.1	win	2023-07-06	22:16:26	22:20:11	222661	63d7e609051bf50f9d1dcd35	3	1	main_slash	7	main_slash	5	stimuli_target_rectangletriangles.svg	stimuli_distractor_trianglediamonds.svg	1	yes	53	1	839	0	0			0	0			1				0	
6.6.1	win	2023-07-06	22:16:26	22:20:11	222661	63d7e609051bf50f9d1dcd35	3	1	main_slash	7	advance_on_keypress_SLASH	6	stimuli_target_rectangletriangles.svg	stimuli_distractor_trianglediamonds.svg	1	yes	57	0	1299	0	0			0	0			1				0	
6.6.1	win	2023-07-06	22:16:26	22:20:14	225293	63d7e609051bf50f9d1dcd35	3	1	main_slash	7	main_slash	7	stimuli_target_rectanglediamonds.svg	stimuli_distractor_trianglediamonds.svg	2	yes	53	1	701	0	0			0	0			1				0	
6.6.1	win	2023-07-06	22:16:26	22:20:14	225293	63d7e609051bf50f9d1dcd35	3	1	main_slash	7	advance_on_keypress_SLASH	8	stimuli_target_rectanglediamonds.svg	stimuli_distractor_trianglediamonds.svg	2	yes	57	0	807	0	0			0	0			1				0	
6.6.1	win	2023-07-06	22:16:26	22:20:16	227517	63d7e609051bf50f9d1dcd35	3	1	main_slash	7	main_slash	9	stimuli_distractor_diamondtriangles.svg	stimuli_target_rectanglediamonds.svg	14	yes	53	1	773	0	0			0	0			1				0	
6.6.1	win	2023-07-06	22:16:26	22:20:16	227517	63d7e609051bf50f9d1dcd35	3	1	main_slash	7	advance_on_keypress_SLASH	10	stimuli_distractor_diamondtriangles.svg	stimuli_target_rectanglediamonds.svg	14	yes	57	0	548	0	0			0	0			1				0	
6.6.1	win	2023-07-06	22:16:26	22:20:18	229309	63d7e609051bf50f9d1dcd35	3	1	main_slash	7	main_slash	11	stimuli_target_squarediamonds.svg	stimuli_distractor_trianglediamonds.svg	4	yes	53	1	613	0	0			0	0			1				0	
6.6.1	win	2023-07-06	22:16:26	22:20:18	229309	63d7e609051bf50f9d1dcd35	3	1	main_slash	7	advance_on_keypress_SLASH	12	stimuli_target_squarediamonds.svg	stimuli_distractor_trianglediamonds.svg	4	yes	57	0	547	0	0			0	0			1				0	
6.6.1	win	2023-07-06	22:16:26	22:20:20	231117	63d7e609051bf50f9d1dcd35	3	1	main_slash	7	main_slash	13	stimuli_target_diamondrectangles.svg	stimuli_distractor_trianglediamonds.svg	19	yes	53	1	636	0	0			0	0			1				0	
6.6.1	win	2023-07-06	22:16:26	22:20:20	231117	63d7e609051bf50f9d1dcd35	3	1	main_slash	7	advance_on_keypress_SLASH	14	stimuli_target_diamondrectangles.svg	stimuli_distractor_trianglediamonds.svg	19	yes	57	0	577	0	0			0	0			1				0	
6.6.1	win	2023-07-06	22:16:26	22:20:23	234333	63d7e609051bf50f9d1dcd35	3	1	main_slash	7	main_slash	15	stimuli_distractor_diamondtriangles.svg	stimuli_distractor_diamondtriangles.svg	40	no	0	1	2000	0	0			0	0			1				0	
6.6.1	win	2023-07-06	22:16:26	22:20:23	234333	63d7e609051bf50f9d1dcd35	3	1	main_slash	7	advance_on_keypress_SLASH	16	stimuli_distractor_diamondtriangles.svg	stimuli_distractor_diamondtriangles.svg	40	no	57	0	414	0	0			0	0			1				0	
6.6.1	win	2023-07-06	22:16:26	22:20:25	236165	63d7e609051bf50f9d1dcd35	3	1	main_slash	7	main_slash	17	stimuli_distractor_trianglediamonds.svg	stimuli_target_trianglerectangles.svg	25	yes	53	1	796	0	0			0	0			1				0	
6.6.1	win	2023-07-06	22:16:26	22:20:25	236165	63d7e609051bf50f9d1dcd35	3	1	main_slash	7	advance_on_keypress_SLASH	18	stimuli_distractor_trianglediamonds.svg	stimuli_target_trianglerectangles.svg	25	yes	57	0	635	0	0			0	0			1				0	
6.6.1	win	2023-07-06	22:16:26	22:20:27	238205	63d7e609051bf50f9d1dcd35	3	1	main_slash	7	main_slash	19	stimuli_target_trianglerectangles.svg	stimuli_distractor_trianglediamonds.svg	17	yes	53	1	767	0	0			0	0			1				0	
6.6.1	win	2023-07-06	22:16:26	22:20:27	238205	63d7e609051bf50f9d1dcd35	3	1	main_slash	7	advance_on_keypress_SLASH	20	stimuli_target_trianglerectangles.svg	stimuli_distractor_trianglediamonds.svg	17	yes	57	0	574	0	0			0	0			1				0	
6.6.1	win	2023-07-06	22:16:26	22:20:29	240101	63d7e609051bf50f9d1dcd35	3	1	main_slash	7	main_slash	21	stimuli_target_squarediamonds.svg	stimuli_distractor_diamondtriangles.svg	8	yes	53	1	678	0	0			0	0			1				0	
6.6.1	win	2023-07-06	22:16:26	22:20:29	240101	63d7e609051bf50f9d1dcd35	3	1	main_slash	7	advance_on_keypress_SLASH	22	stimuli_target_squarediamonds.svg	stimuli_distractor_diamondtriangles.svg	8	yes	57	0	521	0	0			0	0			1				0	
6.6.1	win	2023-07-06	22:16:26	22:20:31	241861	63d7e609051bf50f9d1dcd35	3	1	main_slash	7	main_slash	23	stimuli_distractor_diamondtriangles.svg	stimuli_target_squaretriangles.svg	15	yes	53	1	603	0	0			0	0			1				0	
6.6.1	win	2023-07-06	22:16:26	22:20:31	241861	63d7e609051bf50f9d1dcd35	3	1	main_slash	7	advance_on_keypress_SLASH	24	stimuli_distractor_diamondtriangles.svg	stimuli_target_squaretriangles.svg	15	yes	57	0	433	0	0			0	0			1				0	
6.6.1	win	2023-07-06	22:16:26	22:20:34	244944	63d7e609051bf50f9d1dcd35	3	1	main_slash	7	main_slash	25	stimuli_distractor_diamondtriangles.svg	stimuli_distractor_trianglediamonds.svg	37	no	0	1	2000	0	0			0	0			1				0	
6.6.1	win	2023-07-06	22:16:26	22:20:34	244944	63d7e609051bf50f9d1dcd35	3	1	main_slash	7	advance_on_keypress_SLASH	26	stimuli_distractor_diamondtriangles.svg	stimuli_distractor_trianglediamonds.svg	37	no	57	0	371	0	0			0	0			1				0	
6.6.1	win	2023-07-06	22:16:26	22:20:35	246533	63d7e609051bf50f9d1dcd35	3	1	main_slash	7	main_slash	27	stimuli_distractor_trianglediamonds.svg	stimuli_target_rectangletriangles.svg	9	yes	53	1	587	0	0			0	0			1				0	
6.6.1	win	2023-07-06	22:16:26	22:20:35	246533	63d7e609051bf50f9d1dcd35	3	1	main_slash	7	advance_on_keypress_SLASH	28	stimuli_distractor_trianglediamonds.svg	stimuli_target_rectangletriangles.svg	9	yes	57	0	522	0	0			0	0			1				0	
6.6.1	win	2023-07-06	22:16:26	22:20:37	248429	63d7e609051bf50f9d1dcd35	3	1	main_slash	7	main_slash	29	stimuli_target_diamondsquares.svg	stimuli_distractor_trianglediamonds.svg	20	yes	53	1	731	0	0			0	0			1				0	
6.6.1	win	2023-07-06	22:16:26	22:20:37	248429	63d7e609051bf50f9d1dcd35	3	1	main_slash	7	advance_on_keypress_SLASH	30	stimuli_target_diamondsquares.svg	stimuli_distractor_trianglediamonds.svg	20	yes	57	0	476	0	0			0	0			1				0	
6.6.1	win	2023-07-06	22:16:26	22:20:39	250405	63d7e609051bf50f9d1dcd35	3	1	main_slash	7	main_slash	31	stimuli_distractor_trianglediamonds.svg	stimuli_target_squarediamonds.svg	12	yes	53	1	872	0	0			0	0			1				0	
6.6.1	win	2023-07-06	22:16:26	22:20:39	250405	63d7e609051bf50f9d1dcd35	3	1	main_slash	7	advance_on_keypress_SLASH	32	stimuli_distractor_trianglediamonds.svg	stimuli_target_squarediamonds.svg	12	yes	57	0	499	0	0			0	0			1				0	
6.6.1	win	2023-07-06	22:16:26	22:20:41	252277	63d7e609051bf50f9d1dcd35	3	1	main_slash	7	main_slash	33	stimuli_distractor_diamondtriangles.svg	stimuli_target_diamondsquares.svg	32	yes	53	1	725	0	0			0	0			1				0	
6.6.1	win	2023-07-06	22:16:26	22:20:41	252277	63d7e609051bf50f9d1dcd35	3	1	main_slash	7	advance_on_keypress_SLASH	34	stimuli_distractor_diamondtriangles.svg	stimuli_target_diamondsquares.svg	32	yes	57	0	510	0	0			0	0			1				0	
6.6.1	win	2023-07-06	22:16:26	22:20:43	254357	63d7e609051bf50f9d1dcd35	3	1	main_slash	7	main_slash	35	stimuli_distractor_diamondtriangles.svg	stimuli_target_rectangletriangles.svg	13	yes	53	1	937	0	0			0	0			1				0	
6.6.1	win	2023-07-06	22:16:26	22:20:43	254357	63d7e609051bf50f9d1dcd35	3	1	main_slash	7	advance_on_keypress_SLASH	36	stimuli_distractor_diamondtriangles.svg	stimuli_target_rectangletriangles.svg	13	yes	57	0	409	0	0			0	0			1				0	
6.6.1	win	2023-07-06	22:16:26	22:20:46	257406	63d7e609051bf50f9d1dcd35	3	1	main_slash	7	main_slash	37	stimuli_distractor_trianglediamonds.svg	stimuli_distractor_trianglediamonds.svg	33	no	0	1	2000	0	0			0	0			1				0	
6.6.1	win	2023-07-06	22:16:26	22:20:46	257406	63d7e609051bf50f9d1dcd35	3	1	main_slash	7	advance_on_keypress_SLASH	38	stimuli_distractor_trianglediamonds.svg	stimuli_distractor_trianglediamonds.svg	33	no	57	0	341	0	0			0	0			1				0	
6.6.1	win	2023-07-06	22:16:26	22:20:48	259149	63d7e609051bf50f9d1dcd35	3	1	main_slash	7	main_slash	39	stimuli_distractor_diamondtriangles.svg	stimuli_target_diamondrectangles.svg	31	yes	53	1	774	0	0			0	0			1				0	
6.6.1	win	2023-07-06	22:16:26	22:20:48	259149	63d7e609051bf50f9d1dcd35	3	1	main_slash	7	advance_on_keypress_SLASH	40	stimuli_distractor_diamondtriangles.svg	stimuli_target_diamondrectangles.svg	31	yes	57	0	573	0	0			0	0			1				0	
6.6.1	win	2023-07-06	22:16:26	22:20:50	261069	63d7e609051bf50f9d1dcd35	3	1	main_slash	7	main_slash	41	stimuli_target_squaretriangles.svg	stimuli_distractor_trianglediamonds.svg	3	yes	53	1	709	0	0			0	0			1				0	
6.6.1	win	2023-07-06	22:16:26	22:20:50	261069	63d7e609051bf50f9d1dcd35	3	1	main_slash	7	advance_on_keypress_SLASH	42	stimuli_target_squaretriangles.svg	stimuli_distractor_trianglediamonds.svg	3	yes	57	0	479	0	0			0	0			1				0	
6.6.1	win	2023-07-06	22:16:26	22:20:52	262813	63d7e609051bf50f9d1dcd35	3	1	main_slash	7	main_slash	43	stimuli_target_squaretriangles.svg	stimuli_distractor_diamondtriangles.svg	7	yes	53	1	634	0	0			0	0			1				0	
6.6.1	win	2023-07-06	22:16:26	22:20:52	262813	63d7e609051bf50f9d1dcd35	3	1	main_slash	7	advance_on_keypress_SLASH	44	stimuli_target_squaretriangles.svg	stimuli_distractor_diamondtriangles.svg	7	yes	57	0	367	0	0			0	0			1				0	
6.6.1	win	2023-07-06	22:16:26	22:20:55	265831	63d7e609051bf50f9d1dcd35	3	1	main_slash	7	main_slash	45	stimuli_distractor_trianglediamonds.svg	stimuli_distractor_trianglediamonds.svg	34	no	0	1	2000	0	0			0	0			1				0	
6.6.1	win	2023-07-06	22:16:26	22:20:55	265831	63d7e609051bf50f9d1dcd35	3	1	main_slash	7	advance_on_keypress_SLASH	46	stimuli_distractor_trianglediamonds.svg	stimuli_distractor_trianglediamonds.svg	34	no	57	0	292	0	0			0	0			1				0	
6.6.1	win	2023-07-06	22:16:26	22:20:57	268750	63d7e609051bf50f9d1dcd35	3	1	main_slash	7	main_slash	47	stimuli_distractor_diamondtriangles.svg	stimuli_distractor_trianglediamonds.svg	38	no	0	1	2000	0	0			0	0			1				0	
6.6.1	win	2023-07-06	22:16:26	22:20:57	268750	63d7e609051bf50f9d1dcd35	3	1	main_slash	7	advance_on_keypress_SLASH	48	stimuli_distractor_diamondtriangles.svg	stimuli_distractor_trianglediamonds.svg	38	no	57	0	364	0	0			0	0			1				0	
6.6.1	win	2023-07-06	22:16:26	22:21:00	271736	63d7e609051bf50f9d1dcd35	3	1	main_slash	7	main_slash	49	stimuli_distractor_trianglediamonds.svg	stimuli_distractor_diamondtriangles.svg	35	no	0	1	2000	0	0			0	0			1				0	
6.6.1	win	2023-07-06	22:16:26	22:21:00	271736	63d7e609051bf50f9d1dcd35	3	1	main_slash	7	advance_on_keypress_SLASH	50	stimuli_distractor_trianglediamonds.svg	stimuli_distractor_diamondtriangles.svg	35	no	57	0	330	0	0			0	0			1				0	
6.6.1	win	2023-07-06	22:16:26	22:21:02	273341	63d7e609051bf50f9d1dcd35	3	1	main_slash	7	main_slash	51	stimuli_distractor_diamondtriangles.svg	stimuli_target_squarediamonds.svg	16	yes	53	1	652	0	0			0	0			1				0	
6.6.1	win	2023-07-06	22:16:26	22:21:02	273341	63d7e609051bf50f9d1dcd35	3	1	main_slash	7	advance_on_keypress_SLASH	52	stimuli_distractor_diamondtriangles.svg	stimuli_target_squarediamonds.svg	16	yes	57	0	480	0	0			0	0			1				0	
6.6.1	win	2023-07-06	22:16:26	22:21:04	275341	63d7e609051bf50f9d1dcd35	3	1	main_slash	7	main_slash	53	stimuli_target_diamondrectangles.svg	stimuli_distractor_diamondtriangles.svg	23	yes	53	1	883	0	0			0	0			1				0	
6.6.1	win	2023-07-06	22:16:26	22:21:04	275341	63d7e609051bf50f9d1dcd35	3	1	main_slash	7	advance_on_keypress_SLASH	54	stimuli_target_diamondrectangles.svg	stimuli_distractor_diamondtriangles.svg	23	yes	57	0	575	0	0			0	0			1				0	
6.6.1	win	2023-07-06	22:16:26	22:21:06	277357	63d7e609051bf50f9d1dcd35	3	1	main_slash	7	main_slash	55	stimuli_target_trianglerectangles.svg	stimuli_distractor_diamondtriangles.svg	21	yes	53	1	814	0	0			0	0			1				0	
6.6.1	win	2023-07-06	22:16:26	22:21:06	277357	63d7e609051bf50f9d1dcd35	3	1	main_slash	7	advance_on_keypress_SLASH	56	stimuli_target_trianglerectangles.svg	stimuli_distractor_diamondtriangles.svg	21	yes	57	0	420	0	0			0	0			1				0	
6.6.1	win	2023-07-06	22:16:26	22:21:08	279101	63d7e609051bf50f9d1dcd35	3	1	main_slash	7	main_slash	57	stimuli_target_diamondsquares.svg	stimuli_distractor_diamondtriangles.svg	24	yes	53	1	689	0	0			0	0			1				0	
6.6.1	win	2023-07-06	22:16:26	22:21:08	279101	63d7e609051bf50f9d1dcd35	3	1	main_slash	7	advance_on_keypress_SLASH	58	stimuli_target_diamondsquares.svg	stimuli_distractor_diamondtriangles.svg	24	yes	57	0	364	0	0			0	0			1				0	
6.6.1	win	2023-07-06	22:16:26	22:21:09	280741	63d7e609051bf50f9d1dcd35	3	1	main_slash	7	main_slash	59	stimuli_target_rectanglediamonds.svg	stimuli_distractor_diamondtriangles.svg	6	yes	53	1	644	0	0			0	0			1				0	
6.6.1	win	2023-07-06	22:16:26	22:21:09	280741	63d7e609051bf50f9d1dcd35	3	1	main_slash	7	advance_on_keypress_SLASH	60	stimuli_target_rectanglediamonds.svg	stimuli_distractor_diamondtriangles.svg	6	yes	57	0	417	0	0			0	0			1				0	
6.6.1	win	2023-07-06	22:16:26	22:21:11	282485	63d7e609051bf50f9d1dcd35	3	1	main_slash	7	main_slash	61	stimuli_distractor_trianglediamonds.svg	stimuli_target_trianglesquares.svg	26	yes	53	1	687	0	0			0	0			1				0	
6.6.1	win	2023-07-06	22:16:26	22:21:11	282485	63d7e609051bf50f9d1dcd35	3	1	main_slash	7	advance_on_keypress_SLASH	62	stimuli_distractor_trianglediamonds.svg	stimuli_target_trianglesquares.svg	26	yes	57	0	321	0	0			0	0			1				0	
6.6.1	win	2023-07-06	22:16:26	22:21:13	284173	63d7e609051bf50f9d1dcd35	3	1	main_slash	7	main_slash	63	stimuli_distractor_trianglediamonds.svg	stimuli_target_rectanglediamonds.svg	10	yes	53	1	723	0	0			0	0			1				0	
6.6.1	win	2023-07-06	22:16:26	22:21:13	284173	63d7e609051bf50f9d1dcd35	3	1	main_slash	7	advance_on_keypress_SLASH	64	stimuli_distractor_trianglediamonds.svg	stimuli_target_rectanglediamonds.svg	10	yes	57	0	340	0	0			0	0			1				0	
6.6.1	win	2023-07-06	22:16:26	22:21:15	285837	63d7e609051bf50f9d1dcd35	3	1	main_slash	7	main_slash	65	stimuli_target_trianglesquares.svg	stimuli_distractor_trianglediamonds.svg	18	yes	53	1	685	0	0			0	0			1				0	
6.6.1	win	2023-07-06	22:16:26	22:21:15	285837	63d7e609051bf50f9d1dcd35	3	1	main_slash	7	advance_on_keypress_SLASH	66	stimuli_target_trianglesquares.svg	stimuli_distractor_trianglediamonds.svg	18	yes	57	0	392	0	0			0	0			1				0	
6.6.1	win	2023-07-06	22:16:26	22:21:16	287477	63d7e609051bf50f9d1dcd35	3	1	main_slash	7	main_slash	67	stimuli_distractor_diamondtriangles.svg	stimuli_target_trianglesquares.svg	30	yes	53	1	607	0	0			0	0			1				0	
6.6.1	win	2023-07-06	22:16:26	22:21:16	287477	63d7e609051bf50f9d1dcd35	3	1	main_slash	7	advance_on_keypress_SLASH	68	stimuli_distractor_diamondtriangles.svg	stimuli_target_trianglesquares.svg	30	yes	57	0	389	0	0			0	0			1				0	
6.6.1	win	2023-07-06	22:16:26	22:21:18	289285	63d7e609051bf50f9d1dcd35	3	1	main_slash	7	main_slash	69	stimuli_target_trianglesquares.svg	stimuli_distractor_diamondtriangles.svg	22	yes	53	1	780	0	0			0	0			1				0	
6.6.1	win	2023-07-06	22:16:26	22:21:18	289285	63d7e609051bf50f9d1dcd35	3	1	main_slash	7	advance_on_keypress_SLASH	70	stimuli_target_trianglesquares.svg	stimuli_distractor_diamondtriangles.svg	22	yes	57	0	371	0	0			0	0			1				0	
6.6.1	win	2023-07-06	22:16:26	22:21:21	292290	63d7e609051bf50f9d1dcd35	3	1	main_slash	7	main_slash	71	stimuli_distractor_diamondtriangles.svg	stimuli_distractor_diamondtriangles.svg	39	no	0	1	2000	0	0			0	0			1				0	
6.6.1	win	2023-07-06	22:16:26	22:21:21	292290	63d7e609051bf50f9d1dcd35	3	1	main_slash	7	advance_on_keypress_SLASH	72	stimuli_distractor_diamondtriangles.svg	stimuli_distractor_diamondtriangles.svg	39	no	57	0	536	0	0			0	0			1				0	
6.6.1	win	2023-07-06	22:16:26	22:21:24	295460	63d7e609051bf50f9d1dcd35	3	1	main_slash	7	main_slash	73	stimuli_distractor_trianglediamonds.svg	stimuli_distractor_diamondtriangles.svg	36	no	0	1	2000	0	0			0	0			1				0	
6.6.1	win	2023-07-06	22:16:26	22:21:24	295460	63d7e609051bf50f9d1dcd35	3	1	main_slash	7	advance_on_keypress_SLASH	74	stimuli_distractor_trianglediamonds.svg	stimuli_distractor_diamondtriangles.svg	36	no	57	0	311	0	0			0	0			1				0	
6.6.1	win	2023-07-06	22:16:26	22:21:26	297077	63d7e609051bf50f9d1dcd35	3	1	main_slash	7	main_slash	75	stimuli_distractor_trianglediamonds.svg	stimuli_target_diamondrectangles.svg	27	yes	53	1	681	0	0			0	0			1				0	
6.6.1	win	2023-07-06	22:16:26	22:21:26	297077	63d7e609051bf50f9d1dcd35	3	1	main_slash	7	advance_on_keypress_SLASH	76	stimuli_distractor_trianglediamonds.svg	stimuli_target_diamondrectangles.svg	27	yes	57	0	884	0	0			0	0			1				0	
6.6.1	win	2023-07-06	22:16:26	22:21:28	299253	63d7e609051bf50f9d1dcd35	3	1	main_slash	7	main_slash	77	stimuli_distractor_trianglediamonds.svg	stimuli_target_diamondsquares.svg	28	yes	53	1	655	0	0			0	0			1				0	
6.6.1	win	2023-07-06	22:16:26	22:21:28	299253	63d7e609051bf50f9d1dcd35	3	1	main_slash	7	advance_on_keypress_SLASH	78	stimuli_distractor_trianglediamonds.svg	stimuli_target_diamondsquares.svg	28	yes	57	0	427	0	0			0	0			1				0	
6.6.1	win	2023-07-06	22:16:26	22:21:30	301213	63d7e609051bf50f9d1dcd35	3	1	main_slash	7	main_slash	79	stimuli_distractor_trianglediamonds.svg	stimuli_target_squaretriangles.svg	11	yes	53	1	896	0	0			0	0			1				0	
6.6.1	win	2023-07-06	22:16:26	22:21:30	301213	63d7e609051bf50f9d1dcd35	3	1	main_slash	7	advance_on_keypress_SLASH	80	stimuli_distractor_trianglediamonds.svg	stimuli_target_squaretriangles.svg	11	yes	57	0	355	0	0			0	0			1				0	
6.6.1	win	2023-07-06	22:16:26	22:21:32	303037	63d7e609051bf50f9d1dcd35	3	1	main_slash	7	main_slash	81	stimuli_distractor_diamondtriangles.svg	stimuli_target_squarediamonds.svg	16	yes	53	1	835	0	0			0	0			1				0	
6.6.1	win	2023-07-06	22:16:26	22:21:32	303037	63d7e609051bf50f9d1dcd35	3	1	main_slash	7	advance_on_keypress_SLASH	82	stimuli_distractor_diamondtriangles.svg	stimuli_target_squarediamonds.svg	16	yes	57	0	368	0	0			0	0			1				0	
6.6.1	win	2023-07-06	22:16:26	22:21:33	304757	63d7e609051bf50f9d1dcd35	3	1	main_slash	7	main_slash	83	stimuli_distractor_diamondtriangles.svg	stimuli_target_rectanglediamonds.svg	14	yes	53	1	703	0	0			0	0			1				0	
6.6.1	win	2023-07-06	22:16:26	22:21:33	304757	63d7e609051bf50f9d1dcd35	3	1	main_slash	7	advance_on_keypress_SLASH	84	stimuli_distractor_diamondtriangles.svg	stimuli_target_rectanglediamonds.svg	14	yes	57	0	393	0	0			0	0			1				0	
6.6.1	win	2023-07-06	22:16:26	22:21:35	306613	63d7e609051bf50f9d1dcd35	3	1	main_slash	7	main_slash	85	stimuli_distractor_trianglediamonds.svg	stimuli_target_squarediamonds.svg	12	yes	53	1	824	0	0			0	0			1				0	
6.6.1	win	2023-07-06	22:16:26	22:21:35	306613	63d7e609051bf50f9d1dcd35	3	1	main_slash	7	advance_on_keypress_SLASH	86	stimuli_distractor_trianglediamonds.svg	stimuli_target_squarediamonds.svg	12	yes	57	0	262	0	0			0	0			1				0	
6.6.1	win	2023-07-06	22:16:26	22:21:38	309507	63d7e609051bf50f9d1dcd35	3	1	main_slash	7	main_slash	87	stimuli_distractor_diamondtriangles.svg	stimuli_distractor_trianglediamonds.svg	38	no	0	1	2000	0	0			0	0			1				0	
6.6.1	win	2023-07-06	22:16:26	22:21:38	309507	63d7e609051bf50f9d1dcd35	3	1	main_slash	7	advance_on_keypress_SLASH	88	stimuli_distractor_diamondtriangles.svg	stimuli_distractor_trianglediamonds.svg	38	no	57	0	311	0	0			0	0			1				0	
6.6.1	win	2023-07-06	22:16:26	22:21:40	311285	63d7e609051bf50f9d1dcd35	3	1	main_slash	7	main_slash	89	stimuli_distractor_diamondtriangles.svg	stimuli_target_trianglerectangles.svg	29	yes	53	1	842	0	0			0	0			1				0	
6.6.1	win	2023-07-06	22:16:26	22:21:40	311285	63d7e609051bf50f9d1dcd35	3	1	main_slash	7	advance_on_keypress_SLASH	90	stimuli_distractor_diamondtriangles.svg	stimuli_target_trianglerectangles.svg	29	yes	57	0	350	0	0			0	0			1				0	
6.6.1	win	2023-07-06	22:16:26	22:21:43	314279	63d7e609051bf50f9d1dcd35	3	1	main_slash	7	main_slash	91	stimuli_target_diamondsquares.svg	stimuli_distractor_trianglediamonds.svg	20	yes	0	0	2000	0	0			0	0			1				0	
6.6.1	win	2023-07-06	22:16:26	22:21:43	314279	63d7e609051bf50f9d1dcd35	3	1	main_slash	7	advance_on_keypress_SLASH	92	stimuli_target_diamondsquares.svg	stimuli_distractor_trianglediamonds.svg	20	yes	57	0	332	0	0			0	0			1				0	
6.6.1	win	2023-07-06	22:16:26	22:21:46	317248	63d7e609051bf50f9d1dcd35	3	1	main_slash	7	main_slash	93	stimuli_distractor_diamondtriangles.svg	stimuli_distractor_diamondtriangles.svg	39	no	0	1	2000	0	0			0	0			1				0	
6.6.1	win	2023-07-06	22:16:26	22:21:46	317248	63d7e609051bf50f9d1dcd35	3	1	main_slash	7	advance_on_keypress_SLASH	94	stimuli_distractor_diamondtriangles.svg	stimuli_distractor_diamondtriangles.svg	39	no	57	0	339	0	0			0	0			1				0	
6.6.1	win	2023-07-06	22:16:26	22:21:48	319053	63d7e609051bf50f9d1dcd35	3	1	main_slash	7	main_slash	95	stimuli_distractor_trianglediamonds.svg	stimuli_target_diamondsquares.svg	28	yes	53	1	835	0	0			0	0			1				0	
6.6.1	win	2023-07-06	22:16:26	22:21:48	319053	63d7e609051bf50f9d1dcd35	3	1	main_slash	7	advance_on_keypress_SLASH	96	stimuli_distractor_trianglediamonds.svg	stimuli_target_diamondsquares.svg	28	yes	57	0	520	0	0			0	0			1				0	
6.6.1	win	2023-07-06	22:16:26	22:21:50	321037	63d7e609051bf50f9d1dcd35	3	1	main_slash	7	main_slash	97	stimuli_distractor_diamondtriangles.svg	stimuli_target_diamondrectangles.svg	31	yes	53	1	817	0	0			0	0			1				0	
6.6.1	win	2023-07-06	22:16:26	22:21:50	321037	63d7e609051bf50f9d1dcd35	3	1	main_slash	7	advance_on_keypress_SLASH	98	stimuli_distractor_diamondtriangles.svg	stimuli_target_diamondrectangles.svg	31	yes	57	0	367	0	0			0	0			1				0	
6.6.1	win	2023-07-06	22:16:26	22:21:52	322909	63d7e609051bf50f9d1dcd35	3	1	main_slash	7	main_slash	99	stimuli_target_squaretriangles.svg	stimuli_distractor_diamondtriangles.svg	7	yes	53	1	854	0	0			0	0			1				0	
6.6.1	win	2023-07-06	22:16:26	22:21:52	322909	63d7e609051bf50f9d1dcd35	3	1	main_slash	7	advance_on_keypress_SLASH	100	stimuli_target_squaretriangles.svg	stimuli_distractor_diamondtriangles.svg	7	yes	57	0	298	0	0			0	0			1				0	
6.6.1	win	2023-07-06	22:16:26	22:21:53	324733	63d7e609051bf50f9d1dcd35	3	1	main_slash	7	main_slash	101	stimuli_distractor_trianglediamonds.svg	stimuli_target_diamondrectangles.svg	27	yes	53	1	893	0	0			0	0			1				0	
6.6.1	win	2023-07-06	22:16:26	22:21:53	324733	63d7e609051bf50f9d1dcd35	3	1	main_slash	7	advance_on_keypress_SLASH	102	stimuli_distractor_trianglediamonds.svg	stimuli_target_diamondrectangles.svg	27	yes	57	0	312	0	0			0	0			1				0	
6.6.1	win	2023-07-06	22:16:26	22:21:55	326557	63d7e609051bf50f9d1dcd35	3	1	main_slash	7	main_slash	103	stimuli_target_trianglesquares.svg	stimuli_distractor_diamondtriangles.svg	22	yes	53	1	882	0	0			0	0			1				0	
6.6.1	win	2023-07-06	22:16:26	22:21:55	326557	63d7e609051bf50f9d1dcd35	3	1	main_slash	7	advance_on_keypress_SLASH	104	stimuli_target_trianglesquares.svg	stimuli_distractor_diamondtriangles.svg	22	yes	57	0	365	0	0			0	0			1				0	
6.6.1	win	2023-07-06	22:16:26	22:21:57	328285	63d7e609051bf50f9d1dcd35	3	1	main_slash	7	main_slash	105	stimuli_target_trianglerectangles.svg	stimuli_distractor_trianglediamonds.svg	17	yes	53	1	725	0	0			0	0			1				0	
6.6.1	win	2023-07-06	22:16:26	22:21:57	328285	63d7e609051bf50f9d1dcd35	3	1	main_slash	7	advance_on_keypress_SLASH	106	stimuli_target_trianglerectangles.svg	stimuli_distractor_trianglediamonds.svg	17	yes	57	0	326	0	0			0	0			1				0	
6.6.1	win	2023-07-06	22:16:26	22:21:59	330325	63d7e609051bf50f9d1dcd35	3	1	main_slash	7	main_slash	107	stimuli_target_squarediamonds.svg	stimuli_distractor_trianglediamonds.svg	4	yes	53	1	1080	0	0			0	0			1				0	
6.6.1	win	2023-07-06	22:16:26	22:21:59	330325	63d7e609051bf50f9d1dcd35	3	1	main_slash	7	advance_on_keypress_SLASH	108	stimuli_target_squarediamonds.svg	stimuli_distractor_trianglediamonds.svg	4	yes	57	0	291	0	0			0	0			1				0	
6.6.1	win	2023-07-06	22:16:26	22:22:01	331981	63d7e609051bf50f9d1dcd35	3	1	main_slash	7	main_slash	109	stimuli_distractor_diamondtriangles.svg	stimuli_target_rectangletriangles.svg	13	yes	53	1	734	0	0			0	0			1				0	
6.6.1	win	2023-07-06	22:16:26	22:22:01	331981	63d7e609051bf50f9d1dcd35	3	1	main_slash	7	advance_on_keypress_SLASH	110	stimuli_distractor_diamondtriangles.svg	stimuli_target_rectangletriangles.svg	13	yes	57	0	279	0	0			0	0			1				0	
6.6.1	win	2023-07-06	22:16:26	22:22:03	333893	63d7e609051bf50f9d1dcd35	3	1	main_slash	7	main_slash	111	stimuli_distractor_trianglediamonds.svg	stimuli_target_trianglesquares.svg	26	yes	53	1	994	0	0			0	0			1				0	
6.6.1	win	2023-07-06	22:16:26	22:22:03	333893	63d7e609051bf50f9d1dcd35	3	1	main_slash	7	advance_on_keypress_SLASH	112	stimuli_distractor_trianglediamonds.svg	stimuli_target_trianglesquares.svg	26	yes	57	0	337	0	0			0	0			1				0	
6.6.1	win	2023-07-06	22:16:26	22:22:04	335717	63d7e609051bf50f9d1dcd35	3	1	main_slash	7	main_slash	113	stimuli_target_rectanglediamonds.svg	stimuli_distractor_trianglediamonds.svg	2	yes	53	1	850	0	0			0	0			1				0	
6.6.1	win	2023-07-06	22:16:26	22:22:04	335717	63d7e609051bf50f9d1dcd35	3	1	main_slash	7	advance_on_keypress_SLASH	114	stimuli_target_rectanglediamonds.svg	stimuli_distractor_trianglediamonds.svg	2	yes	57	0	318	0	0			0	0			1				0	
6.6.1	win	2023-07-06	22:16:26	22:22:07	338669	63d7e609051bf50f9d1dcd35	3	1	main_slash	7	main_slash	115	stimuli_distractor_trianglediamonds.svg	stimuli_distractor_diamondtriangles.svg	36	no	0	1	2000	0	0			0	0			1				0	
6.6.1	win	2023-07-06	22:16:26	22:22:07	338669	63d7e609051bf50f9d1dcd35	3	1	main_slash	7	advance_on_keypress_SLASH	116	stimuli_distractor_trianglediamonds.svg	stimuli_distractor_diamondtriangles.svg	36	no	57	0	421	0	0			0	0			1				0	
6.6.1	win	2023-07-06	22:16:26	22:22:09	340373	63d7e609051bf50f9d1dcd35	3	1	main_slash	7	main_slash	117	stimuli_target_squaretriangles.svg	stimuli_distractor_trianglediamonds.svg	3	yes	53	1	651	0	0			0	0			1				0	
6.6.1	win	2023-07-06	22:16:26	22:22:09	340373	63d7e609051bf50f9d1dcd35	3	1	main_slash	7	advance_on_keypress_SLASH	118	stimuli_target_squaretriangles.svg	stimuli_distractor_trianglediamonds.svg	3	yes	57	0	303	0	0			0	0			1				0	
6.6.1	win	2023-07-06	22:16:26	22:22:11	342237	63d7e609051bf50f9d1dcd35	3	1	main_slash	7	main_slash	119	stimuli_target_trianglesquares.svg	stimuli_distractor_trianglediamonds.svg	18	yes	53	1	913	0	0			0	0			1				0	
6.6.1	win	2023-07-06	22:16:26	22:22:11	342237	63d7e609051bf50f9d1dcd35	3	1	main_slash	7	advance_on_keypress_SLASH	120	stimuli_target_trianglesquares.svg	stimuli_distractor_trianglediamonds.svg	18	yes	57	0	299	0	0			0	0			1				0	
6.6.1	win	2023-07-06	22:16:26	22:22:14	345176	63d7e609051bf50f9d1dcd35	3	1	main_slash	7	main_slash	121	stimuli_distractor_trianglediamonds.svg	stimuli_distractor_diamondtriangles.svg	35	no	0	1	2000	0	0			0	0			1				0	
6.6.1	win	2023-07-06	22:16:26	22:22:14	345176	63d7e609051bf50f9d1dcd35	3	1	main_slash	7	advance_on_keypress_SLASH	122	stimuli_distractor_trianglediamonds.svg	stimuli_distractor_diamondtriangles.svg	35	no	57	0	539	0	0			0	0			1				0	
6.6.1	win	2023-07-06	22:16:26	22:22:16	347549	63d7e609051bf50f9d1dcd35	3	1	main_slash	7	main_slash	123	stimuli_distractor_trianglediamonds.svg	stimuli_distractor_trianglediamonds.svg	34	no	53	0	1204	0	0			0	0			1				0	
6.6.1	win	2023-07-06	22:16:26	22:22:16	347549	63d7e609051bf50f9d1dcd35	3	1	main_slash	7	advance_on_keypress_SLASH	124	stimuli_distractor_trianglediamonds.svg	stimuli_distractor_trianglediamonds.svg	34	no	57	0	369	0	0			0	0			1				0	
6.6.1	win	2023-07-06	22:16:26	22:22:18	349317	63d7e609051bf50f9d1dcd35	3	1	main_slash	7	main_slash	125	stimuli_distractor_trianglediamonds.svg	stimuli_target_trianglerectangles.svg	25	yes	53	1	753	0	0			0	0			1				0	
6.6.1	win	2023-07-06	22:16:26	22:22:18	349317	63d7e609051bf50f9d1dcd35	3	1	main_slash	7	advance_on_keypress_SLASH	126	stimuli_distractor_trianglediamonds.svg	stimuli_target_trianglerectangles.svg	25	yes	57	0	369	0	0			0	0			1				0	
6.6.1	win	2023-07-06	22:16:26	22:22:20	351117	63d7e609051bf50f9d1dcd35	3	1	main_slash	7	main_slash	127	stimuli_target_rectangletriangles.svg	stimuli_distractor_diamondtriangles.svg	5	yes	53	1	784	0	0			0	0			1				0	
6.6.1	win	2023-07-06	22:16:26	22:22:20	351117	63d7e609051bf50f9d1dcd35	3	1	main_slash	7	advance_on_keypress_SLASH	128	stimuli_target_rectangletriangles.svg	stimuli_distractor_diamondtriangles.svg	5	yes	57	0	327	0	0			0	0			1				0	
6.6.1	win	2023-07-06	22:16:26	22:22:22	353181	63d7e609051bf50f9d1dcd35	3	1	main_slash	7	main_slash	129	stimuli_target_rectangletriangles.svg	stimuli_distractor_trianglediamonds.svg	1	yes	53	1	1097	0	0			0	0			1				0	
6.6.1	win	2023-07-06	22:16:26	22:22:22	353181	63d7e609051bf50f9d1dcd35	3	1	main_slash	7	advance_on_keypress_SLASH	130	stimuli_target_rectangletriangles.svg	stimuli_distractor_trianglediamonds.svg	1	yes	57	0	315	0	0			0	0			1				0	
6.6.1	win	2023-07-06	22:16:26	22:22:24	354989	63d7e609051bf50f9d1dcd35	3	1	main_slash	7	main_slash	131	stimuli_distractor_diamondtriangles.svg	stimuli_target_trianglesquares.svg	30	yes	53	1	869	0	0			0	0			1				0	
6.6.1	win	2023-07-06	22:16:26	22:22:24	354989	63d7e609051bf50f9d1dcd35	3	1	main_slash	7	advance_on_keypress_SLASH	132	stimuli_distractor_diamondtriangles.svg	stimuli_target_trianglesquares.svg	30	yes	57	0	321	0	0			0	0			1				0	
6.6.1	win	2023-07-06	22:16:26	22:22:26	356829	63d7e609051bf50f9d1dcd35	3	1	main_slash	7	main_slash	133	stimuli_target_diamondsquares.svg	stimuli_distractor_diamondtriangles.svg	24	yes	53	1	874	0	0			0	0			1				0	
6.6.1	win	2023-07-06	22:16:26	22:22:26	356829	63d7e609051bf50f9d1dcd35	3	1	main_slash	7	advance_on_keypress_SLASH	134	stimuli_target_diamondsquares.svg	stimuli_distractor_diamondtriangles.svg	24	yes	57	0	293	0	0			0	0			1				0	
6.6.1	win	2023-07-06	22:16:26	22:22:28	359237	63d7e609051bf50f9d1dcd35	3	1	main_slash	7	main_slash	135	stimuli_distractor_trianglediamonds.svg	stimuli_target_squaretriangles.svg	11	yes	53	1	1480	0	0			0	0			1				0	
6.6.1	win	2023-07-06	22:16:26	22:22:28	359237	63d7e609051bf50f9d1dcd35	3	1	main_slash	7	advance_on_keypress_SLASH	136	stimuli_distractor_trianglediamonds.svg	stimuli_target_squaretriangles.svg	11	yes	57	0	331	0	0			0	0			1				0	
6.6.1	win	2023-07-06	22:16:26	22:22:30	360917	63d7e609051bf50f9d1dcd35	3	1	main_slash	7	main_slash	137	stimuli_distractor_trianglediamonds.svg	stimuli_target_rectangletriangles.svg	9	yes	53	1	725	0	0			0	0			1				0	
6.6.1	win	2023-07-06	22:16:26	22:22:30	360917	63d7e609051bf50f9d1dcd35	3	1	main_slash	7	advance_on_keypress_SLASH	138	stimuli_distractor_trianglediamonds.svg	stimuli_target_rectangletriangles.svg	9	yes	57	0	342	0	0			0	0			1				0	
6.6.1	win	2023-07-06	22:16:26	22:22:32	362949	63d7e609051bf50f9d1dcd35	3	1	main_slash	7	main_slash	139	stimuli_target_trianglerectangles.svg	stimuli_distractor_diamondtriangles.svg	21	yes	53	1	1055	0	0			0	0			1				0	
6.6.1	win	2023-07-06	22:16:26	22:22:32	362949	63d7e609051bf50f9d1dcd35	3	1	main_slash	7	advance_on_keypress_SLASH	140	stimuli_target_trianglerectangles.svg	stimuli_distractor_diamondtriangles.svg	21	yes	57	0	251	0	0			0	0			1				0	
6.6.1	win	2023-07-06	22:16:26	22:22:33	364629	63d7e609051bf50f9d1dcd35	3	1	main_slash	7	main_slash	141	stimuli_distractor_trianglediamonds.svg	stimuli_target_rectanglediamonds.svg	10	yes	53	1	783	0	0			0	0			1				0	
6.6.1	win	2023-07-06	22:16:26	22:22:33	364629	63d7e609051bf50f9d1dcd35	3	1	main_slash	7	advance_on_keypress_SLASH	142	stimuli_distractor_trianglediamonds.svg	stimuli_target_rectanglediamonds.svg	10	yes	57	0	310	0	0			0	0			1				0	
6.6.1	win	2023-07-06	22:16:26	22:22:35	366253	63d7e609051bf50f9d1dcd35	3	1	main_slash	7	main_slash	143	stimuli_target_squarediamonds.svg	stimuli_distractor_diamondtriangles.svg	8	yes	53	1	672	0	0			0	0			1				0	
6.6.1	win	2023-07-06	22:16:26	22:22:35	366253	63d7e609051bf50f9d1dcd35	3	1	main_slash	7	advance_on_keypress_SLASH	144	stimuli_target_squarediamonds.svg	stimuli_distractor_diamondtriangles.svg	8	yes	57	0	275	0	0			0	0			1				0	
6.6.1	win	2023-07-06	22:16:26	22:22:37	367821	63d7e609051bf50f9d1dcd35	3	1	main_slash	7	main_slash	145	stimuli_target_diamondrectangles.svg	stimuli_distractor_trianglediamonds.svg	19	yes	53	1	655	0	0			0	0			1				0	
6.6.1	win	2023-07-06	22:16:26	22:22:37	367821	63d7e609051bf50f9d1dcd35	3	1	main_slash	7	advance_on_keypress_SLASH	146	stimuli_target_diamondrectangles.svg	stimuli_distractor_trianglediamonds.svg	19	yes	57	0	259	0	0			0	0			1				0	
6.6.1	win	2023-07-06	22:16:26	22:22:39	370718	63d7e609051bf50f9d1dcd35	3	1	main_slash	7	main_slash	147	stimuli_distractor_trianglediamonds.svg	stimuli_distractor_trianglediamonds.svg	33	no	0	1	2000	0	0			0	0			1				0	
6.6.1	win	2023-07-06	22:16:26	22:22:39	370718	63d7e609051bf50f9d1dcd35	3	1	main_slash	7	advance_on_keypress_SLASH	148	stimuli_distractor_trianglediamonds.svg	stimuli_distractor_trianglediamonds.svg	33	no	57	0	309	0	0			0	0			1				0	
6.6.1	win	2023-07-06	22:16:26	22:22:41	372509	63d7e609051bf50f9d1dcd35	3	1	main_slash	7	main_slash	149	stimuli_distractor_diamondtriangles.svg	stimuli_target_diamondsquares.svg	32	yes	53	1	855	0	0			0	0			1				0	
6.6.1	win	2023-07-06	22:16:26	22:22:41	372509	63d7e609051bf50f9d1dcd35	3	1	main_slash	7	advance_on_keypress_SLASH	150	stimuli_distractor_diamondtriangles.svg	stimuli_target_diamondsquares.svg	32	yes	57	0	275	0	0			0	0			1				0	
6.6.1	win	2023-07-06	22:16:26	22:22:43	374213	63d7e609051bf50f9d1dcd35	3	1	main_slash	7	main_slash	151	stimuli_target_rectanglediamonds.svg	stimuli_distractor_diamondtriangles.svg	6	yes	53	1	791	0	0			0	0			1				0	
6.6.1	win	2023-07-06	22:16:26	22:22:43	374213	63d7e609051bf50f9d1dcd35	3	1	main_slash	7	advance_on_keypress_SLASH	152	stimuli_target_rectanglediamonds.svg	stimuli_distractor_diamondtriangles.svg	6	yes	57	0	286	0	0			0	0			1				0	
6.6.1	win	2023-07-06	22:16:26	22:22:45	376269	63d7e609051bf50f9d1dcd35	3	1	main_slash	7	main_slash	153	stimuli_distractor_diamondtriangles.svg	stimuli_target_squaretriangles.svg	15	yes	53	1	1129	0	0			0	0			1				0	
6.6.1	win	2023-07-06	22:16:26	22:22:45	376269	63d7e609051bf50f9d1dcd35	3	1	main_slash	7	advance_on_keypress_SLASH	154	stimuli_distractor_diamondtriangles.svg	stimuli_target_squaretriangles.svg	15	yes	57	0	298	0	0			0	0			1				0	
6.6.1	win	2023-07-06	22:16:26	22:22:48	379193	63d7e609051bf50f9d1dcd35	3	1	main_slash	7	main_slash	155	stimuli_distractor_diamondtriangles.svg	stimuli_distractor_trianglediamonds.svg	37	no	0	1	2000	0	0			0	0			1				0	
6.6.1	win	2023-07-06	22:16:26	22:22:48	379193	63d7e609051bf50f9d1dcd35	3	1	main_slash	7	advance_on_keypress_SLASH	156	stimuli_distractor_diamondtriangles.svg	stimuli_distractor_trianglediamonds.svg	37	no	57	0	306	0	0			0	0			1				0	
6.6.1	win	2023-07-06	22:16:26	22:22:51	382129	63d7e609051bf50f9d1dcd35	3	1	main_slash	7	main_slash	157	stimuli_distractor_diamondtriangles.svg	stimuli_distractor_diamondtriangles.svg	40	no	0	1	2000	0	0			0	0			1				0	
6.6.1	win	2023-07-06	22:16:26	22:22:51	382129	63d7e609051bf50f9d1dcd35	3	1	main_slash	7	advance_on_keypress_SLASH	158	stimuli_distractor_diamondtriangles.svg	stimuli_distractor_diamondtriangles.svg	40	no	57	0	642	0	0			0	0			1				0	
6.6.1	win	2023-07-06	22:16:26	22:22:53	384221	63d7e609051bf50f9d1dcd35	3	1	main_slash	7	main_slash	159	stimuli_target_diamondrectangles.svg	stimuli_distractor_diamondtriangles.svg	23	yes	53	1	822	0	0			0	0			1				0	
6.6.1	win	2023-07-06	22:16:26	22:22:53	384221	63d7e609051bf50f9d1dcd35	3	1	main_slash	7	advance_on_keypress_SLASH	160	stimuli_target_diamondrectangles.svg	stimuli_distractor_diamondtriangles.svg	23	yes	57	0	260	0	0			0	0			1				0	
6.6.1	win	2023-07-06	22:16:26	22:23:06	397143	63d7e609051bf50f9d1dcd35	3	1	practice_z	9	practice_z	1	stimuli_distractor_diamondtriangles.svg	stimuli_distractor_trianglediamonds.svg	14	no	0	1	2000	0	0			0	0			1				0	
6.6.1	win	2023-07-06	22:16:26	22:23:06	397143	63d7e609051bf50f9d1dcd35	3	1	practice_z	9	advance_on_keypress_ZEE	2	stimuli_distractor_diamondtriangles.svg	stimuli_distractor_trianglediamonds.svg	14	no	57	0	451	0	0			0	0			1				0	
6.6.1	win	2023-07-06	22:16:26	22:23:09	399925	63d7e609051bf50f9d1dcd35	3	1	practice_z	9	practice_z	3	stimuli_distractor_trianglediamonds.svg	stimuli_target_squarediamonds.svg	11	yes	44	1	695	0	0			0	0			1				0	
6.6.1	win	2023-07-06	22:16:26	22:23:09	399925	63d7e609051bf50f9d1dcd35	3	1	practice_z	9	advance_on_keypress_ZEE	4	stimuli_distractor_trianglediamonds.svg	stimuli_target_squarediamonds.svg	11	yes	57	0	425	0	0			0	0			1				0	
6.6.1	win	2023-07-06	22:16:26	22:23:13	403983	63d7e609051bf50f9d1dcd35	3	1	practice_z	9	practice_z	5	stimuli_distractor_trianglediamonds.svg	stimuli_distractor_diamondtriangles.svg	16	no	0	1	2000	0	0			0	0			1				0	
6.6.1	win	2023-07-06	22:16:26	22:23:13	403983	63d7e609051bf50f9d1dcd35	3	1	practice_z	9	advance_on_keypress_ZEE	6	stimuli_distractor_trianglediamonds.svg	stimuli_distractor_diamondtriangles.svg	16	no	57	0	355	0	0			0	0			1				0	
6.6.1	win	2023-07-06	22:16:26	22:23:15	406621	63d7e609051bf50f9d1dcd35	3	1	practice_z	9	practice_z	7	stimuli_target_diamondsquares.svg	stimuli_distractor_trianglediamonds.svg	6	yes	44	1	651	0	0			0	0			1				0	
6.6.1	win	2023-07-06	22:16:26	22:23:15	406621	63d7e609051bf50f9d1dcd35	3	1	practice_z	9	advance_on_keypress_ZEE	8	stimuli_target_diamondsquares.svg	stimuli_distractor_trianglediamonds.svg	6	yes	57	0	526	0	0			0	0			1				0	
6.6.1	win	2023-07-06	22:16:26	22:23:18	409308	63d7e609051bf50f9d1dcd35	3	1	practice_z	9	practice_z	9	stimuli_target_rectanglediamonds.svg	stimuli_distractor_trianglediamonds.svg	4	yes	44	1	504	0	0			0	0			1				0	
6.6.1	win	2023-07-06	22:16:26	22:23:18	409308	63d7e609051bf50f9d1dcd35	3	1	practice_z	9	advance_on_keypress_ZEE	10	stimuli_target_rectanglediamonds.svg	stimuli_distractor_trianglediamonds.svg	4	yes	57	0	368	0	0			0	0			1				0	
6.6.1	win	2023-07-06	22:16:26	22:23:21	411934	63d7e609051bf50f9d1dcd35	3	1	practice_z	9	practice_z	11	stimuli_distractor_diamondtriangles.svg	stimuli_target_diamondrectangles.svg	8	yes	44	1	608	0	0			0	0			1				0	
6.6.1	win	2023-07-06	22:16:26	22:23:21	411934	63d7e609051bf50f9d1dcd35	3	1	practice_z	9	advance_on_keypress_ZEE	12	stimuli_distractor_diamondtriangles.svg	stimuli_target_diamondrectangles.svg	8	yes	57	0	317	0	0			0	0			1				0	
6.6.1	win	2023-07-06	22:16:26	22:23:23	414502	63d7e609051bf50f9d1dcd35	3	1	practice_z	9	practice_z	13	stimuli_distractor_diamondtriangles.svg	stimuli_target_rectangletriangles.svg	7	yes	44	1	607	0	0			0	0			1				0	
6.6.1	win	2023-07-06	22:16:26	22:23:23	414502	63d7e609051bf50f9d1dcd35	3	1	practice_z	9	advance_on_keypress_ZEE	14	stimuli_distractor_diamondtriangles.svg	stimuli_target_rectangletriangles.svg	7	yes	57	0	308	0	0			0	0			1				0	
6.6.1	win	2023-07-06	22:16:26	22:23:26	417221	63d7e609051bf50f9d1dcd35	3	1	practice_z	9	practice_z	15	stimuli_distractor_trianglediamonds.svg	stimuli_target_diamondrectangles.svg	12	yes	44	1	774	0	0			0	0			1				0	
6.6.1	win	2023-07-06	22:16:26	22:23:26	417221	63d7e609051bf50f9d1dcd35	3	1	practice_z	9	advance_on_keypress_ZEE	16	stimuli_distractor_trianglediamonds.svg	stimuli_target_diamondrectangles.svg	12	yes	57	0	324	0	0			0	0			1				0	
6.6.1	win	2023-07-06	22:16:26	22:23:29	419877	63d7e609051bf50f9d1dcd35	3	1	practice_z	9	practice_z	17	stimuli_target_rectanglediamonds.svg	stimuli_distractor_diamondtriangles.svg	1	yes	44	1	694	0	0			0	0			1				0	
6.6.1	win	2023-07-06	22:16:26	22:23:29	419877	63d7e609051bf50f9d1dcd35	3	1	practice_z	9	advance_on_keypress_ZEE	18	stimuli_target_rectanglediamonds.svg	stimuli_distractor_diamondtriangles.svg	1	yes	57	0	328	0	0			0	0			1				0	
6.6.1	win	2023-07-06	22:16:26	22:23:31	422398	63d7e609051bf50f9d1dcd35	3	1	practice_z	9	practice_z	19	stimuli_target_diamondsquares.svg	stimuli_distractor_diamondtriangles.svg	3	yes	44	1	562	0	0			0	0			1				0	
6.6.1	win	2023-07-06	22:16:26	22:23:31	422398	63d7e609051bf50f9d1dcd35	3	1	practice_z	9	advance_on_keypress_ZEE	20	stimuli_target_diamondsquares.svg	stimuli_distractor_diamondtriangles.svg	3	yes	57	0	289	0	0			0	0			1				0	
6.6.1	win	2023-07-06	22:16:26	22:23:34	424950	63d7e609051bf50f9d1dcd35	3	1	practice_z	9	practice_z	21	stimuli_distractor_diamondtriangles.svg	stimuli_target_trianglerectangles.svg	9	yes	44	1	628	0	0			0	0			1				0	
6.6.1	win	2023-07-06	22:16:26	22:23:34	424950	63d7e609051bf50f9d1dcd35	3	1	practice_z	9	advance_on_keypress_ZEE	22	stimuli_distractor_diamondtriangles.svg	stimuli_target_trianglerectangles.svg	9	yes	57	0	400	0	0			0	0			1				0	
6.6.1	win	2023-07-06	22:16:26	22:23:36	427462	63d7e609051bf50f9d1dcd35	3	1	practice_z	9	practice_z	23	stimuli_target_squarediamonds.svg	stimuli_distractor_diamondtriangles.svg	2	yes	44	1	470	0	0			0	0			1				0	
6.6.1	win	2023-07-06	22:16:26	22:23:36	427462	63d7e609051bf50f9d1dcd35	3	1	practice_z	9	advance_on_keypress_ZEE	24	stimuli_target_squarediamonds.svg	stimuli_distractor_diamondtriangles.svg	2	yes	57	0	321	0	0			0	0			1				0	
6.6.1	win	2023-07-06	22:16:26	22:23:39	429878	63d7e609051bf50f9d1dcd35	3	1	practice_z	9	practice_z	25	stimuli_target_squarediamonds.svg	stimuli_distractor_trianglediamonds.svg	5	yes	44	1	451	0	0			0	0			1				0	
6.6.1	win	2023-07-06	22:16:26	22:23:39	429878	63d7e609051bf50f9d1dcd35	3	1	practice_z	9	advance_on_keypress_ZEE	26	stimuli_target_squarediamonds.svg	stimuli_distractor_trianglediamonds.svg	5	yes	57	0	342	0	0			0	0			1				0	
6.6.1	win	2023-07-06	22:16:26	22:23:41	432485	63d7e609051bf50f9d1dcd35	3	1	practice_z	9	practice_z	27	stimuli_distractor_trianglediamonds.svg	stimuli_distractor_trianglediamonds.svg	15	no	44	0	623	0	0			0	0			1				0	
6.6.1	win	2023-07-06	22:16:26	22:23:41	432485	63d7e609051bf50f9d1dcd35	3	1	practice_z	9	advance_on_keypress_ZEE	28	stimuli_distractor_trianglediamonds.svg	stimuli_distractor_trianglediamonds.svg	15	no	57	0	419	0	0			0	0			1				0	
6.6.1	win	2023-07-06	22:16:26	22:23:44	435189	63d7e609051bf50f9d1dcd35	3	1	practice_z	9	practice_z	29	stimuli_distractor_trianglediamonds.svg	stimuli_target_rectanglediamonds.svg	10	yes	44	1	641	0	0			0	0			1				0	
6.6.1	win	2023-07-06	22:16:26	22:23:44	435189	63d7e609051bf50f9d1dcd35	3	1	practice_z	9	advance_on_keypress_ZEE	30	stimuli_distractor_trianglediamonds.svg	stimuli_target_rectanglediamonds.svg	10	yes	57	0	389	0	0			0	0			1				0	
6.6.1	win	2023-07-06	22:16:26	22:23:48	439218	63d7e609051bf50f9d1dcd35	3	1	practice_z	9	practice_z	31	stimuli_distractor_diamondtriangles.svg	stimuli_distractor_diamondtriangles.svg	13	no	0	1	2000	0	0			0	0			1				0	
6.6.1	win	2023-07-06	22:16:26	22:23:48	439218	63d7e609051bf50f9d1dcd35	3	1	practice_z	9	advance_on_keypress_ZEE	32	stimuli_distractor_diamondtriangles.svg	stimuli_distractor_diamondtriangles.svg	13	no	57	0	296	0	0			0	0			1				0	
6.6.1	win	2023-07-06	22:16:26	22:23:53	444357	63d7e609051bf50f9d1dcd35	3	1	main_z	11	main_z	1	stimuli_distractor_diamondtriangles.svg	stimuli_distractor_trianglediamonds.svg	37	no	0	1	2000	0	0			0	0			1				0	
6.6.1	win	2023-07-06	22:16:26	22:23:53	444357	63d7e609051bf50f9d1dcd35	3	1	main_z	11	advance_on_keypress_ZEE	2	stimuli_distractor_diamondtriangles.svg	stimuli_distractor_trianglediamonds.svg	37	no	57	0	462	0	0			0	0			1				0	
6.6.1	win	2023-07-06	22:16:26	22:23:55	446189	63d7e609051bf50f9d1dcd35	3	1	main_z	11	main_z	3	stimuli_target_diamondsquares.svg	stimuli_distractor_trianglediamonds.svg	20	yes	44	1	746	0	0			0	0			1				0	
6.6.1	win	2023-07-06	22:16:26	22:23:55	446189	63d7e609051bf50f9d1dcd35	3	1	main_z	11	advance_on_keypress_ZEE	4	stimuli_target_diamondsquares.svg	stimuli_distractor_trianglediamonds.svg	20	yes	57	0	586	0	0			0	0			1				0	
6.6.1	win	2023-07-06	22:16:26	22:23:57	448061	63d7e609051bf50f9d1dcd35	3	1	main_z	11	main_z	5	stimuli_target_diamondrectangles.svg	stimuli_distractor_trianglediamonds.svg	19	yes	44	1	649	0	0			0	0			1				0	
6.6.1	win	2023-07-06	22:16:26	22:23:57	448061	63d7e609051bf50f9d1dcd35	3	1	main_z	11	advance_on_keypress_ZEE	6	stimuli_target_diamondrectangles.svg	stimuli_distractor_trianglediamonds.svg	19	yes	57	0	358	0	0			0	0			1				0	
6.6.1	win	2023-07-06	22:16:26	22:23:59	449861	63d7e609051bf50f9d1dcd35	3	1	main_z	11	main_z	7	stimuli_distractor_trianglediamonds.svg	stimuli_target_squaretriangles.svg	11	yes	44	1	814	0	0			0	0			1				0	
6.6.1	win	2023-07-06	22:16:26	22:23:59	449861	63d7e609051bf50f9d1dcd35	3	1	main_z	11	advance_on_keypress_ZEE	8	stimuli_distractor_trianglediamonds.svg	stimuli_target_squaretriangles.svg	11	yes	57	0	436	0	0			0	0			1				0	
6.6.1	win	2023-07-06	22:16:26	22:24:00	451589	63d7e609051bf50f9d1dcd35	3	1	main_z	11	main_z	9	stimuli_target_trianglesquares.svg	stimuli_distractor_trianglediamonds.svg	18	yes	44	1	657	0	0			0	0			1				0	
6.6.1	win	2023-07-06	22:16:26	22:24:00	451589	63d7e609051bf50f9d1dcd35	3	1	main_z	11	advance_on_keypress_ZEE	10	stimuli_target_trianglesquares.svg	stimuli_distractor_trianglediamonds.svg	18	yes	57	0	389	0	0			0	0			1				0	
6.6.1	win	2023-07-06	22:16:26	22:24:02	453245	63d7e609051bf50f9d1dcd35	3	1	main_z	11	main_z	11	stimuli_target_rectanglediamonds.svg	stimuli_distractor_trianglediamonds.svg	2	yes	44	1	628	0	0			0	0			1				0	
6.6.1	win	2023-07-06	22:16:26	22:24:02	453245	63d7e609051bf50f9d1dcd35	3	1	main_z	11	advance_on_keypress_ZEE	12	stimuli_target_rectanglediamonds.svg	stimuli_distractor_trianglediamonds.svg	2	yes	57	0	354	0	0			0	0			1				0	
6.6.1	win	2023-07-06	22:16:26	22:24:04	454813	63d7e609051bf50f9d1dcd35	3	1	main_z	11	main_z	13	stimuli_distractor_trianglediamonds.svg	stimuli_target_diamondrectangles.svg	27	yes	44	1	578	0	0			0	0			1				0	
6.6.1	win	2023-07-06	22:16:26	22:24:04	454813	63d7e609051bf50f9d1dcd35	3	1	main_z	11	advance_on_keypress_ZEE	14	stimuli_distractor_trianglediamonds.svg	stimuli_target_diamondrectangles.svg	27	yes	57	0	337	0	0			0	0			1				0	
6.6.1	win	2023-07-06	22:16:26	22:24:06	457787	63d7e609051bf50f9d1dcd35	3	1	main_z	11	main_z	15	stimuli_distractor_trianglediamonds.svg	stimuli_distractor_trianglediamonds.svg	33	no	0	1	2000	0	0			0	0			1				0	
6.6.1	win	2023-07-06	22:16:26	22:24:06	457787	63d7e609051bf50f9d1dcd35	3	1	main_z	11	advance_on_keypress_ZEE	16	stimuli_distractor_trianglediamonds.svg	stimuli_distractor_trianglediamonds.svg	33	no	57	0	336	0	0			0	0			1				0	
6.6.1	win	2023-07-06	22:16:26	22:24:09	460757	63d7e609051bf50f9d1dcd35	3	1	main_z	11	main_z	17	stimuli_distractor_trianglediamonds.svg	stimuli_distractor_diamondtriangles.svg	36	no	0	1	2000	0	0			0	0			1				0	
6.6.1	win	2023-07-06	22:16:26	22:24:09	460757	63d7e609051bf50f9d1dcd35	3	1	main_z	11	advance_on_keypress_ZEE	18	stimuli_distractor_trianglediamonds.svg	stimuli_distractor_diamondtriangles.svg	36	no	57	0	342	0	0			0	0			1				0	
6.6.1	win	2023-07-06	22:16:26	22:24:11	462325	63d7e609051bf50f9d1dcd35	3	1	main_z	11	main_z	19	stimuli_target_diamondrectangles.svg	stimuli_distractor_diamondtriangles.svg	23	yes	44	1	599	0	0			0	0			1				0	
6.6.1	win	2023-07-06	22:16:26	22:24:11	462325	63d7e609051bf50f9d1dcd35	3	1	main_z	11	advance_on_keypress_ZEE	20	stimuli_target_diamondrectangles.svg	stimuli_distractor_diamondtriangles.svg	23	yes	57	0	518	0	0			0	0			1				0	
6.6.1	win	2023-07-06	22:16:26	22:24:13	464077	63d7e609051bf50f9d1dcd35	3	1	main_z	11	main_z	21	stimuli_distractor_trianglediamonds.svg	stimuli_target_squarediamonds.svg	12	yes	44	1	599	0	0			0	0			1				0	
6.6.1	win	2023-07-06	22:16:26	22:24:13	464077	63d7e609051bf50f9d1dcd35	3	1	main_z	11	advance_on_keypress_ZEE	22	stimuli_distractor_trianglediamonds.svg	stimuli_target_squarediamonds.svg	12	yes	57	0	358	0	0			0	0			1				0	
6.6.1	win	2023-07-06	22:16:26	22:24:14	465517	63d7e609051bf50f9d1dcd35	3	1	main_z	11	main_z	23	stimuli_distractor_diamondtriangles.svg	stimuli_target_diamondrectangles.svg	31	yes	44	1	454	0	0			0	0			1				0	
6.6.1	win	2023-07-06	22:16:26	22:24:14	465517	63d7e609051bf50f9d1dcd35	3	1	main_z	11	advance_on_keypress_ZEE	24	stimuli_distractor_diamondtriangles.svg	stimuli_target_diamondrectangles.svg	31	yes	57	0	331	0	0			0	0			1				0	
6.6.1	win	2023-07-06	22:16:26	22:24:17	468481	63d7e609051bf50f9d1dcd35	3	1	main_z	11	main_z	25	stimuli_distractor_diamondtriangles.svg	stimuli_distractor_diamondtriangles.svg	39	no	0	1	2000	0	0			0	0			1				0	
6.6.1	win	2023-07-06	22:16:26	22:24:17	468481	63d7e609051bf50f9d1dcd35	3	1	main_z	11	advance_on_keypress_ZEE	26	stimuli_distractor_diamondtriangles.svg	stimuli_distractor_diamondtriangles.svg	39	no	57	0	330	0	0			0	0			1				0	
6.6.1	win	2023-07-06	22:16:26	22:24:19	470037	63d7e609051bf50f9d1dcd35	3	1	main_z	11	main_z	27	stimuli_distractor_diamondtriangles.svg	stimuli_target_rectanglediamonds.svg	14	yes	44	1	604	0	0			0	0			1				0	
6.6.1	win	2023-07-06	22:16:26	22:24:19	470037	63d7e609051bf50f9d1dcd35	3	1	main_z	11	advance_on_keypress_ZEE	28	stimuli_distractor_diamondtriangles.svg	stimuli_target_rectanglediamonds.svg	14	yes	57	0	290	0	0			0	0			1				0	
6.6.1	win	2023-07-06	22:16:26	22:24:21	472117	63d7e609051bf50f9d1dcd35	3	1	main_z	11	main_z	29	stimuli_distractor_trianglediamonds.svg	stimuli_target_rectanglediamonds.svg	10	yes	44	1	1149	0	0			0	0			1				0	
6.6.1	win	2023-07-06	22:16:26	22:24:21	472117	63d7e609051bf50f9d1dcd35	3	1	main_z	11	advance_on_keypress_ZEE	30	stimuli_distractor_trianglediamonds.svg	stimuli_target_rectanglediamonds.svg	10	yes	57	0	389	0	0			0	0			1				0	
6.6.1	win	2023-07-06	22:16:26	22:24:22	473701	63d7e609051bf50f9d1dcd35	3	1	main_z	11	main_z	31	stimuli_target_squarediamonds.svg	stimuli_distractor_diamondtriangles.svg	8	yes	44	1	564	0	0			0	0			1				0	
6.6.1	win	2023-07-06	22:16:26	22:24:22	473701	63d7e609051bf50f9d1dcd35	3	1	main_z	11	advance_on_keypress_ZEE	32	stimuli_target_squarediamonds.svg	stimuli_distractor_diamondtriangles.svg	8	yes	57	0	348	0	0			0	0			1				0	
6.6.1	win	2023-07-06	22:16:26	22:24:24	475269	63d7e609051bf50f9d1dcd35	3	1	main_z	11	main_z	33	stimuli_distractor_trianglediamonds.svg	stimuli_target_trianglerectangles.svg	25	yes	44	1	597	0	0			0	0			1				0	
6.6.1	win	2023-07-06	22:16:26	22:24:24	475269	63d7e609051bf50f9d1dcd35	3	1	main_z	11	advance_on_keypress_ZEE	34	stimuli_distractor_trianglediamonds.svg	stimuli_target_trianglerectangles.svg	25	yes	57	0	292	0	0			0	0			1				0	
6.6.1	win	2023-07-06	22:16:26	22:24:25	476781	63d7e609051bf50f9d1dcd35	3	1	main_z	11	main_z	35	stimuli_target_squaretriangles.svg	stimuli_distractor_diamondtriangles.svg	7	yes	44	1	591	0	0			0	0			1				0	
6.6.1	win	2023-07-06	22:16:26	22:24:25	476781	63d7e609051bf50f9d1dcd35	3	1	main_z	11	advance_on_keypress_ZEE	36	stimuli_target_squaretriangles.svg	stimuli_distractor_diamondtriangles.svg	7	yes	57	0	246	0	0			0	0			1				0	
6.6.1	win	2023-07-06	22:16:26	22:24:27	478373	63d7e609051bf50f9d1dcd35	3	1	main_z	11	main_z	37	stimuli_distractor_diamondtriangles.svg	stimuli_target_trianglesquares.svg	30	yes	44	1	715	0	0			0	0			1				0	
6.6.1	win	2023-07-06	22:16:26	22:24:27	478373	63d7e609051bf50f9d1dcd35	3	1	main_z	11	advance_on_keypress_ZEE	38	stimuli_distractor_diamondtriangles.svg	stimuli_target_trianglesquares.svg	30	yes	57	0	317	0	0			0	0			1				0	
6.6.1	win	2023-07-06	22:16:26	22:24:29	479901	63d7e609051bf50f9d1dcd35	3	1	main_z	11	main_z	39	stimuli_distractor_diamondtriangles.svg	stimuli_target_trianglerectangles.svg	29	yes	44	1	574	0	0			0	0			1				0	
6.6.1	win	2023-07-06	22:16:26	22:24:29	479901	63d7e609051bf50f9d1dcd35	3	1	main_z	11	advance_on_keypress_ZEE	40	stimuli_distractor_diamondtriangles.svg	stimuli_target_trianglerectangles.svg	29	yes	57	0	246	0	0			0	0			1				0	
6.6.1	win	2023-07-06	22:16:26	22:24:30	481333	63d7e609051bf50f9d1dcd35	3	1	main_z	11	main_z	41	stimuli_target_rectanglediamonds.svg	stimuli_distractor_diamondtriangles.svg	6	yes	44	1	555	0	0			0	0			1				0	
6.6.1	win	2023-07-06	22:16:26	22:24:30	481333	63d7e609051bf50f9d1dcd35	3	1	main_z	11	advance_on_keypress_ZEE	42	stimuli_target_rectanglediamonds.svg	stimuli_distractor_diamondtriangles.svg	6	yes	57	0	259	0	0			0	0			1				0	
6.6.1	win	2023-07-06	22:16:26	22:24:31	482757	63d7e609051bf50f9d1dcd35	3	1	main_z	11	main_z	43	stimuli_target_squarediamonds.svg	stimuli_distractor_trianglediamonds.svg	4	yes	44	1	527	0	0			0	0			1				0	
6.6.1	win	2023-07-06	22:16:26	22:24:31	482757	63d7e609051bf50f9d1dcd35	3	1	main_z	11	advance_on_keypress_ZEE	44	stimuli_target_squarediamonds.svg	stimuli_distractor_trianglediamonds.svg	4	yes	57	0	249	0	0			0	0			1				0	
6.6.1	win	2023-07-06	22:16:26	22:24:33	484261	63d7e609051bf50f9d1dcd35	3	1	main_z	11	main_z	45	stimuli_distractor_trianglediamonds.svg	stimuli_target_diamondsquares.svg	28	yes	44	1	614	0	0			0	0			1				0	
6.6.1	win	2023-07-06	22:16:26	22:24:33	484261	63d7e609051bf50f9d1dcd35	3	1	main_z	11	advance_on_keypress_ZEE	46	stimuli_distractor_trianglediamonds.svg	stimuli_target_diamondsquares.svg	28	yes	57	0	236	0	0			0	0			1				0	
6.6.1	win	2023-07-06	22:16:26	22:24:36	487133	63d7e609051bf50f9d1dcd35	3	1	main_z	11	main_z	47	stimuli_distractor_diamondtriangles.svg	stimuli_distractor_diamondtriangles.svg	40	no	0	1	2000	0	0			0	0			1				0	
6.6.1	win	2023-07-06	22:16:26	22:24:36	487133	63d7e609051bf50f9d1dcd35	3	1	main_z	11	advance_on_keypress_ZEE	48	stimuli_distractor_diamondtriangles.svg	stimuli_distractor_diamondtriangles.svg	40	no	57	0	326	0	0			0	0			1				0	
6.6.1	win	2023-07-06	22:16:26	22:24:37	488573	63d7e609051bf50f9d1dcd35	3	1	main_z	11	main_z	49	stimuli_target_rectangletriangles.svg	stimuli_distractor_trianglediamonds.svg	1	yes	44	1	488	0	0			0	0			1				0	
6.6.1	win	2023-07-06	22:16:26	22:24:37	488573	63d7e609051bf50f9d1dcd35	3	1	main_z	11	advance_on_keypress_ZEE	50	stimuli_target_rectangletriangles.svg	stimuli_distractor_trianglediamonds.svg	1	yes	57	0	291	0	0			0	0			1				0	
6.6.1	win	2023-07-06	22:16:26	22:24:40	491503	63d7e609051bf50f9d1dcd35	3	1	main_z	11	main_z	51	stimuli_distractor_trianglediamonds.svg	stimuli_distractor_trianglediamonds.svg	34	no	0	1	2000	0	0			0	0			1				0	
6.6.1	win	2023-07-06	22:16:26	22:24:40	491503	63d7e609051bf50f9d1dcd35	3	1	main_z	11	advance_on_keypress_ZEE	52	stimuli_distractor_trianglediamonds.svg	stimuli_distractor_trianglediamonds.svg	34	no	57	0	299	0	0			0	0			1				0	
6.6.1	win	2023-07-06	22:16:26	22:24:42	493037	63d7e609051bf50f9d1dcd35	3	1	main_z	11	main_z	53	stimuli_target_trianglerectangles.svg	stimuli_distractor_trianglediamonds.svg	17	yes	44	1	598	0	0			0	0			1				0	
6.6.1	win	2023-07-06	22:16:26	22:24:42	493037	63d7e609051bf50f9d1dcd35	3	1	main_z	11	advance_on_keypress_ZEE	54	stimuli_target_trianglerectangles.svg	stimuli_distractor_trianglediamonds.svg	17	yes	57	0	316	0	0			0	0			1				0	
6.6.1	win	2023-07-06	22:16:26	22:24:43	494541	63d7e609051bf50f9d1dcd35	3	1	main_z	11	main_z	55	stimuli_distractor_trianglediamonds.svg	stimuli_target_rectangletriangles.svg	9	yes	44	1	550	0	0			0	0			1				0	
6.6.1	win	2023-07-06	22:16:26	22:24:43	494541	63d7e609051bf50f9d1dcd35	3	1	main_z	11	advance_on_keypress_ZEE	56	stimuli_distractor_trianglediamonds.svg	stimuli_target_rectangletriangles.svg	9	yes	57	0	222	0	0			0	0			1				0	
6.6.1	win	2023-07-06	22:16:26	22:24:45	496069	63d7e609051bf50f9d1dcd35	3	1	main_z	11	main_z	57	stimuli_target_diamondsquares.svg	stimuli_distractor_diamondtriangles.svg	24	yes	44	1	660	0	0			0	0			1				0	
6.6.1	win	2023-07-06	22:16:26	22:24:45	496069	63d7e609051bf50f9d1dcd35	3	1	main_z	11	advance_on_keypress_ZEE	58	stimuli_target_diamondsquares.svg	stimuli_distractor_diamondtriangles.svg	24	yes	57	0	272	0	0			0	0			1				0	
6.6.1	win	2023-07-06	22:16:26	22:24:46	497605	63d7e609051bf50f9d1dcd35	3	1	main_z	11	main_z	59	stimuli_distractor_diamondtriangles.svg	stimuli_target_rectangletriangles.svg	13	yes	44	1	628	0	0			0	0			1				0	
6.6.1	win	2023-07-06	22:16:26	22:24:46	497605	63d7e609051bf50f9d1dcd35	3	1	main_z	11	advance_on_keypress_ZEE	60	stimuli_distractor_diamondtriangles.svg	stimuli_target_rectangletriangles.svg	13	yes	57	0	241	0	0			0	0			1				0	
6.6.1	win	2023-07-06	22:16:26	22:24:49	500479	63d7e609051bf50f9d1dcd35	3	1	main_z	11	main_z	61	stimuli_distractor_diamondtriangles.svg	stimuli_distractor_trianglediamonds.svg	38	no	0	1	2000	0	0			0	0			1				0	
6.6.1	win	2023-07-06	22:16:26	22:24:49	500479	63d7e609051bf50f9d1dcd35	3	1	main_z	11	advance_on_keypress_ZEE	62	stimuli_distractor_diamondtriangles.svg	stimuli_distractor_trianglediamonds.svg	38	no	57	0	604	0	0			0	0			1				0	
6.6.1	win	2023-07-06	22:16:26	22:24:51	502333	63d7e609051bf50f9d1dcd35	3	1	main_z	11	main_z	63	stimuli_target_trianglerectangles.svg	stimuli_distractor_diamondtriangles.svg	21	yes	44	1	618	0	0			0	0			1				0	
6.6.1	win	2023-07-06	22:16:26	22:24:51	502333	63d7e609051bf50f9d1dcd35	3	1	main_z	11	advance_on_keypress_ZEE	64	stimuli_target_trianglerectangles.svg	stimuli_distractor_diamondtriangles.svg	21	yes	57	0	263	0	0			0	0			1				0	
6.6.1	win	2023-07-06	22:16:26	22:24:54	505234	63d7e609051bf50f9d1dcd35	3	1	main_z	11	main_z	65	stimuli_distractor_trianglediamonds.svg	stimuli_distractor_diamondtriangles.svg	35	no	0	1	2000	0	0			0	0			1				0	
6.6.1	win	2023-07-06	22:16:26	22:24:54	505234	63d7e609051bf50f9d1dcd35	3	1	main_z	11	advance_on_keypress_ZEE	66	stimuli_distractor_trianglediamonds.svg	stimuli_distractor_diamondtriangles.svg	35	no	57	0	353	0	0			0	0			1				0	
6.6.1	win	2023-07-06	22:16:26	22:24:55	506717	63d7e609051bf50f9d1dcd35	3	1	main_z	11	main_z	67	stimuli_distractor_diamondtriangles.svg	stimuli_target_diamondsquares.svg	32	yes	44	1	497	0	0			0	0			1				0	
6.6.1	win	2023-07-06	22:16:26	22:24:55	506717	63d7e609051bf50f9d1dcd35	3	1	main_z	11	advance_on_keypress_ZEE	68	stimuli_distractor_diamondtriangles.svg	stimuli_target_diamondsquares.svg	32	yes	57	0	380	0	0			0	0			1				0	
6.6.1	win	2023-07-06	22:16:26	22:24:57	508269	63d7e609051bf50f9d1dcd35	3	1	main_z	11	main_z	69	stimuli_distractor_trianglediamonds.svg	stimuli_target_trianglesquares.svg	26	yes	44	1	548	0	0			0	0			1				0	
6.6.1	win	2023-07-06	22:16:26	22:24:57	508269	63d7e609051bf50f9d1dcd35	3	1	main_z	11	advance_on_keypress_ZEE	70	stimuli_distractor_trianglediamonds.svg	stimuli_target_trianglesquares.svg	26	yes	57	0	229	0	0			0	0			1				0	
6.6.1	win	2023-07-06	22:16:26	22:24:58	509733	63d7e609051bf50f9d1dcd35	3	1	main_z	11	main_z	71	stimuli_target_trianglesquares.svg	stimuli_distractor_diamondtriangles.svg	22	yes	44	1	610	0	0			0	0			1				0	
6.6.1	win	2023-07-06	22:16:26	22:24:58	509733	63d7e609051bf50f9d1dcd35	3	1	main_z	11	advance_on_keypress_ZEE	72	stimuli_target_trianglesquares.svg	stimuli_distractor_diamondtriangles.svg	22	yes	57	0	249	0	0			0	0			1				0	
6.6.1	win	2023-07-06	22:16:26	22:25:00	511221	63d7e609051bf50f9d1dcd35	3	1	main_z	11	main_z	73	stimuli_target_rectangletriangles.svg	stimuli_distractor_diamondtriangles.svg	5	yes	44	1	614	0	0			0	0			1				0	
6.6.1	win	2023-07-06	22:16:26	22:25:00	511221	63d7e609051bf50f9d1dcd35	3	1	main_z	11	advance_on_keypress_ZEE	74	stimuli_target_rectangletriangles.svg	stimuli_distractor_diamondtriangles.svg	5	yes	57	0	236	0	0			0	0			1				0	
6.6.1	win	2023-07-06	22:16:26	22:25:01	512733	63d7e609051bf50f9d1dcd35	3	1	main_z	11	main_z	75	stimuli_distractor_diamondtriangles.svg	stimuli_target_squaretriangles.svg	15	yes	44	1	641	0	0			0	0			1				0	
6.6.1	win	2023-07-06	22:16:26	22:25:01	512733	63d7e609051bf50f9d1dcd35	3	1	main_z	11	advance_on_keypress_ZEE	76	stimuli_distractor_diamondtriangles.svg	stimuli_target_squaretriangles.svg	15	yes	57	0	302	0	0			0	0			1				0	
6.6.1	win	2023-07-06	22:16:26	22:25:03	514261	63d7e609051bf50f9d1dcd35	3	1	main_z	11	main_z	77	stimuli_target_squaretriangles.svg	stimuli_distractor_trianglediamonds.svg	3	yes	44	1	584	0	0			0	0			1				0	
6.6.1	win	2023-07-06	22:16:26	22:25:03	514261	63d7e609051bf50f9d1dcd35	3	1	main_z	11	advance_on_keypress_ZEE	78	stimuli_target_squaretriangles.svg	stimuli_distractor_trianglediamonds.svg	3	yes	57	0	287	0	0			0	0			1				0	
6.6.1	win	2023-07-06	22:16:26	22:25:04	515797	63d7e609051bf50f9d1dcd35	3	1	main_z	11	main_z	79	stimuli_distractor_diamondtriangles.svg	stimuli_target_squarediamonds.svg	16	yes	44	1	602	0	0			0	0			1				0	
6.6.1	win	2023-07-06	22:16:26	22:25:04	515797	63d7e609051bf50f9d1dcd35	3	1	main_z	11	advance_on_keypress_ZEE	80	stimuli_distractor_diamondtriangles.svg	stimuli_target_squarediamonds.svg	16	yes	57	0	256	0	0			0	0			1				0	
6.6.1	win	2023-07-06	22:16:26	22:25:06	517365	63d7e609051bf50f9d1dcd35	3	1	main_z	11	main_z	81	stimuli_distractor_diamondtriangles.svg	stimuli_target_rectangletriangles.svg	13	yes	44	1	668	0	0			0	0			1				0	
6.6.1	win	2023-07-06	22:16:26	22:25:06	517365	63d7e609051bf50f9d1dcd35	3	1	main_z	11	advance_on_keypress_ZEE	82	stimuli_distractor_diamondtriangles.svg	stimuli_target_rectangletriangles.svg	13	yes	57	0	264	0	0			0	0			1				0	
6.6.1	win	2023-07-06	22:16:26	22:25:08	518877	63d7e609051bf50f9d1dcd35	3	1	main_z	11	main_z	83	stimuli_target_rectangletriangles.svg	stimuli_distractor_trianglediamonds.svg	1	yes	44	1	612	0	0			0	0			1				0	
6.6.1	win	2023-07-06	22:16:26	22:25:08	518877	63d7e609051bf50f9d1dcd35	3	1	main_z	11	advance_on_keypress_ZEE	84	stimuli_target_rectangletriangles.svg	stimuli_distractor_trianglediamonds.svg	1	yes	57	0	210	0	0			0	0			1				0	
6.6.1	win	2023-07-06	22:16:26	22:25:09	520301	63d7e609051bf50f9d1dcd35	3	1	main_z	11	main_z	85	stimuli_distractor_diamondtriangles.svg	stimuli_target_squaretriangles.svg	15	yes	44	1	584	0	0			0	0			1				0	
6.6.1	win	2023-07-06	22:16:26	22:25:09	520301	63d7e609051bf50f9d1dcd35	3	1	main_z	11	advance_on_keypress_ZEE	86	stimuli_distractor_diamondtriangles.svg	stimuli_target_squaretriangles.svg	15	yes	57	0	215	0	0			0	0			1				0	
6.6.1	win	2023-07-06	22:16:26	22:25:12	523168	63d7e609051bf50f9d1dcd35	3	1	main_z	11	main_z	87	stimuli_distractor_diamondtriangles.svg	stimuli_distractor_diamondtriangles.svg	40	no	0	1	2000	0	0			0	0			1				0	
6.6.1	win	2023-07-06	22:16:26	22:25:12	523168	63d7e609051bf50f9d1dcd35	3	1	main_z	11	advance_on_keypress_ZEE	88	stimuli_distractor_diamondtriangles.svg	stimuli_distractor_diamondtriangles.svg	40	no	57	0	483	0	0			0	0			1				0	
6.6.1	win	2023-07-06	22:16:26	22:25:15	526288	63d7e609051bf50f9d1dcd35	3	1	main_z	11	main_z	89	stimuli_distractor_trianglediamonds.svg	stimuli_distractor_trianglediamonds.svg	34	no	0	1	2000	0	0			0	0			1				0	
6.6.1	win	2023-07-06	22:16:26	22:25:15	526288	63d7e609051bf50f9d1dcd35	3	1	main_z	11	advance_on_keypress_ZEE	90	stimuli_distractor_trianglediamonds.svg	stimuli_distractor_trianglediamonds.svg	34	no	57	0	339	0	0			0	0			1				0	
6.6.1	win	2023-07-06	22:16:26	22:25:17	527861	63d7e609051bf50f9d1dcd35	3	1	main_z	11	main_z	91	stimuli_target_diamondrectangles.svg	stimuli_distractor_diamondtriangles.svg	23	yes	44	1	604	0	0			0	0			1				0	
6.6.1	win	2023-07-06	22:16:26	22:25:17	527861	63d7e609051bf50f9d1dcd35	3	1	main_z	11	advance_on_keypress_ZEE	92	stimuli_target_diamondrectangles.svg	stimuli_distractor_diamondtriangles.svg	23	yes	57	0	410	0	0			0	0			1				0	
6.6.1	win	2023-07-06	22:16:26	22:25:18	529453	63d7e609051bf50f9d1dcd35	3	1	main_z	11	main_z	93	stimuli_distractor_diamondtriangles.svg	stimuli_target_rectanglediamonds.svg	14	yes	44	1	544	0	0			0	0			1				0	
6.6.1	win	2023-07-06	22:16:26	22:25:18	529453	63d7e609051bf50f9d1dcd35	3	1	main_z	11	advance_on_keypress_ZEE	94	stimuli_distractor_diamondtriangles.svg	stimuli_target_rectanglediamonds.svg	14	yes	57	0	249	0	0			0	0			1				0	
6.6.1	win	2023-07-06	22:16:26	22:25:21	532344	63d7e609051bf50f9d1dcd35	3	1	main_z	11	main_z	95	stimuli_distractor_trianglediamonds.svg	stimuli_distractor_trianglediamonds.svg	33	no	0	1	2000	0	0			0	0			1				0	
6.6.1	win	2023-07-06	22:16:26	22:25:21	532344	63d7e609051bf50f9d1dcd35	3	1	main_z	11	advance_on_keypress_ZEE	96	stimuli_distractor_trianglediamonds.svg	stimuli_distractor_trianglediamonds.svg	33	no	57	0	355	0	0			0	0			1				0	
6.6.1	win	2023-07-06	22:16:26	22:25:23	533933	63d7e609051bf50f9d1dcd35	3	1	main_z	11	main_z	97	stimuli_distractor_trianglediamonds.svg	stimuli_target_trianglerectangles.svg	25	yes	44	1	603	0	0			0	0			1				0	
6.6.1	win	2023-07-06	22:16:26	22:25:23	533933	63d7e609051bf50f9d1dcd35	3	1	main_z	11	advance_on_keypress_ZEE	98	stimuli_distractor_trianglediamonds.svg	stimuli_target_trianglerectangles.svg	25	yes	57	0	257	0	0			0	0			1				0	
6.6.1	win	2023-07-06	22:16:26	22:25:24	535469	63d7e609051bf50f9d1dcd35	3	1	main_z	11	main_z	99	stimuli_distractor_trianglediamonds.svg	stimuli_target_rectangletriangles.svg	9	yes	44	1	638	0	0			0	0			1				0	
6.6.1	win	2023-07-06	22:16:26	22:25:24	535469	63d7e609051bf50f9d1dcd35	3	1	main_z	11	advance_on_keypress_ZEE	100	stimuli_distractor_trianglediamonds.svg	stimuli_target_rectangletriangles.svg	9	yes	57	0	259	0	0			0	0			1				0	
6.6.1	win	2023-07-06	22:16:26	22:25:26	536965	63d7e609051bf50f9d1dcd35	3	1	main_z	11	main_z	101	stimuli_distractor_trianglediamonds.svg	stimuli_target_trianglesquares.svg	26	yes	44	1	599	0	0			0	0			1				0	
6.6.1	win	2023-07-06	22:16:26	22:25:26	536965	63d7e609051bf50f9d1dcd35	3	1	main_z	11	advance_on_keypress_ZEE	102	stimuli_distractor_trianglediamonds.svg	stimuli_target_trianglesquares.svg	26	yes	57	0	286	0	0			0	0			1				0	
6.6.1	win	2023-07-06	22:16:26	22:25:27	538501	63d7e609051bf50f9d1dcd35	3	1	main_z	11	main_z	103	stimuli_target_squaretriangles.svg	stimuli_distractor_trianglediamonds.svg	3	yes	44	1	617	0	0			0	0			1				0	
6.6.1	win	2023-07-06	22:16:26	22:25:27	538501	63d7e609051bf50f9d1dcd35	3	1	main_z	11	advance_on_keypress_ZEE	104	stimuli_target_squaretriangles.svg	stimuli_distractor_trianglediamonds.svg	3	yes	57	0	222	0	0			0	0			1				0	
6.6.1	win	2023-07-06	22:16:26	22:25:29	539989	63d7e609051bf50f9d1dcd35	3	1	main_z	11	main_z	105	stimuli_target_diamondsquares.svg	stimuli_distractor_diamondtriangles.svg	24	yes	44	1	620	0	0			0	0			1				0	
6.6.1	win	2023-07-06	22:16:26	22:25:29	539989	63d7e609051bf50f9d1dcd35	3	1	main_z	11	advance_on_keypress_ZEE	106	stimuli_target_diamondsquares.svg	stimuli_distractor_diamondtriangles.svg	24	yes	57	0	193	0	0			0	0			1				0	
6.6.1	win	2023-07-06	22:16:26	22:25:30	541421	63d7e609051bf50f9d1dcd35	3	1	main_z	11	main_z	107	stimuli_target_rectanglediamonds.svg	stimuli_distractor_trianglediamonds.svg	2	yes	44	1	600	0	0			0	0			1				0	
6.6.1	win	2023-07-06	22:16:26	22:25:30	541421	63d7e609051bf50f9d1dcd35	3	1	main_z	11	advance_on_keypress_ZEE	108	stimuli_target_rectanglediamonds.svg	stimuli_distractor_trianglediamonds.svg	2	yes	57	0	191	0	0			0	0			1				0	
6.6.1	win	2023-07-06	22:16:26	22:25:32	542845	63d7e609051bf50f9d1dcd35	3	1	main_z	11	main_z	109	stimuli_distractor_trianglediamonds.svg	stimuli_target_diamondsquares.svg	28	yes	44	1	590	0	0			0	0			1				0	
6.6.1	win	2023-07-06	22:16:26	22:25:32	542845	63d7e609051bf50f9d1dcd35	3	1	main_z	11	advance_on_keypress_ZEE	110	stimuli_distractor_trianglediamonds.svg	stimuli_target_diamondsquares.svg	28	yes	57	0	197	0	0			0	0			1				0	
6.6.1	win	2023-07-06	22:16:26	22:25:34	545674	63d7e609051bf50f9d1dcd35	3	1	main_z	11	main_z	111	stimuli_distractor_diamondtriangles.svg	stimuli_distractor_trianglediamonds.svg	37	no	0	1	2000	0	0			0	0			1				0	
6.6.1	win	2023-07-06	22:16:26	22:25:34	545674	63d7e609051bf50f9d1dcd35	3	1	main_z	11	advance_on_keypress_ZEE	112	stimuli_distractor_diamondtriangles.svg	stimuli_distractor_trianglediamonds.svg	37	no	57	0	353	0	0			0	0			1				0	
6.6.1	win	2023-07-06	22:16:26	22:25:36	547133	63d7e609051bf50f9d1dcd35	3	1	main_z	11	main_z	113	stimuli_distractor_diamondtriangles.svg	stimuli_target_squarediamonds.svg	16	yes	44	1	473	0	0			0	0			1				0	
6.6.1	win	2023-07-06	22:16:26	22:25:36	547133	63d7e609051bf50f9d1dcd35	3	1	main_z	11	advance_on_keypress_ZEE	114	stimuli_distractor_diamondtriangles.svg	stimuli_target_squarediamonds.svg	16	yes	57	0	397	0	0			0	0			1				0	
6.6.1	win	2023-07-06	22:16:26	22:25:39	550161	63d7e609051bf50f9d1dcd35	3	1	main_z	11	main_z	115	stimuli_distractor_diamondtriangles.svg	stimuli_distractor_diamondtriangles.svg	39	no	0	1	2000	0	0			0	0			1				0	
6.6.1	win	2023-07-06	22:16:26	22:25:39	550161	63d7e609051bf50f9d1dcd35	3	1	main_z	11	advance_on_keypress_ZEE	116	stimuli_distractor_diamondtriangles.svg	stimuli_distractor_diamondtriangles.svg	39	no	57	0	345	0	0			0	0			1				0	
6.6.1	win	2023-07-06	22:16:26	22:25:40	551653	63d7e609051bf50f9d1dcd35	3	1	main_z	11	main_z	117	stimuli_distractor_diamondtriangles.svg	stimuli_target_diamondrectangles.svg	31	yes	44	1	522	0	0			0	0			1				0	
6.6.1	win	2023-07-06	22:16:26	22:25:40	551653	63d7e609051bf50f9d1dcd35	3	1	main_z	11	advance_on_keypress_ZEE	118	stimuli_distractor_diamondtriangles.svg	stimuli_target_diamondrectangles.svg	31	yes	57	0	396	0	0			0	0			1				0	
6.6.1	win	2023-07-06	22:16:26	22:25:42	553293	63d7e609051bf50f9d1dcd35	3	1	main_z	11	main_z	119	stimuli_distractor_diamondtriangles.svg	stimuli_target_trianglerectangles.svg	29	yes	44	1	611	0	0			0	0			1				0	
6.6.1	win	2023-07-06	22:16:26	22:25:42	553293	63d7e609051bf50f9d1dcd35	3	1	main_z	11	advance_on_keypress_ZEE	120	stimuli_distractor_diamondtriangles.svg	stimuli_target_trianglerectangles.svg	29	yes	57	0	265	0	0			0	0			1				0	
6.6.1	win	2023-07-06	22:16:26	22:25:44	554805	63d7e609051bf50f9d1dcd35	3	1	main_z	11	main_z	121	stimuli_target_trianglerectangles.svg	stimuli_distractor_diamondtriangles.svg	21	yes	44	1	621	0	0			0	0			1				0	
6.6.1	win	2023-07-06	22:16:26	22:25:44	554805	63d7e609051bf50f9d1dcd35	3	1	main_z	11	advance_on_keypress_ZEE	122	stimuli_target_trianglerectangles.svg	stimuli_distractor_diamondtriangles.svg	21	yes	57	0	275	0	0			0	0			1				0	
6.6.1	win	2023-07-06	22:16:26	22:25:45	556349	63d7e609051bf50f9d1dcd35	3	1	main_z	11	main_z	123	stimuli_target_trianglerectangles.svg	stimuli_distractor_trianglediamonds.svg	17	yes	44	1	630	0	0			0	0			1				0	
6.6.1	win	2023-07-06	22:16:26	22:25:45	556349	63d7e609051bf50f9d1dcd35	3	1	main_z	11	advance_on_keypress_ZEE	124	stimuli_target_trianglerectangles.svg	stimuli_distractor_trianglediamonds.svg	17	yes	57	0	260	0	0			0	0			1				0	
6.6.1	win	2023-07-06	22:16:26	22:25:48	559237	63d7e609051bf50f9d1dcd35	3	1	main_z	11	main_z	125	stimuli_distractor_trianglediamonds.svg	stimuli_distractor_diamondtriangles.svg	36	no	0	1	2000	0	0			0	0			1				0	
6.6.1	win	2023-07-06	22:16:26	22:25:48	559237	63d7e609051bf50f9d1dcd35	3	1	main_z	11	advance_on_keypress_ZEE	126	stimuli_distractor_trianglediamonds.svg	stimuli_distractor_diamondtriangles.svg	36	no	57	0	382	0	0			0	0			1				0	
6.6.1	win	2023-07-06	22:16:26	22:25:50	560877	63d7e609051bf50f9d1dcd35	3	1	main_z	11	main_z	127	stimuli_target_diamondrectangles.svg	stimuli_distractor_trianglediamonds.svg	19	yes	44	1	637	0	0			0	0			1				0	
6.6.1	win	2023-07-06	22:16:26	22:25:50	560877	63d7e609051bf50f9d1dcd35	3	1	main_z	11	advance_on_keypress_ZEE	128	stimuli_target_diamondrectangles.svg	stimuli_distractor_trianglediamonds.svg	19	yes	57	0	266	0	0			0	0			1				0	
6.6.1	win	2023-07-06	22:16:26	22:25:52	563792	63d7e609051bf50f9d1dcd35	3	1	main_z	11	main_z	129	stimuli_distractor_diamondtriangles.svg	stimuli_distractor_trianglediamonds.svg	38	no	0	1	2000	0	0			0	0			1				0	
6.6.1	win	2023-07-06	22:16:26	22:25:52	563792	63d7e609051bf50f9d1dcd35	3	1	main_z	11	advance_on_keypress_ZEE	130	stimuli_distractor_diamondtriangles.svg	stimuli_distractor_trianglediamonds.svg	38	no	57	0	371	0	0			0	0			1				0	
6.6.1	win	2023-07-06	22:16:26	22:25:54	565381	63d7e609051bf50f9d1dcd35	3	1	main_z	11	main_z	131	stimuli_target_trianglesquares.svg	stimuli_distractor_diamondtriangles.svg	22	yes	44	1	587	0	0			0	0			1				0	
6.6.1	win	2023-07-06	22:16:26	22:25:54	565381	63d7e609051bf50f9d1dcd35	3	1	main_z	11	advance_on_keypress_ZEE	132	stimuli_target_trianglesquares.svg	stimuli_distractor_diamondtriangles.svg	22	yes	57	0	282	0	0			0	0			1				0	
6.6.1	win	2023-07-06	22:16:26	22:25:56	567013	63d7e609051bf50f9d1dcd35	3	1	main_z	11	main_z	133	stimuli_distractor_trianglediamonds.svg	stimuli_target_rectanglediamonds.svg	10	yes	44	1	717	0	0			0	0			1				0	
6.6.1	win	2023-07-06	22:16:26	22:25:56	567013	63d7e609051bf50f9d1dcd35	3	1	main_z	11	advance_on_keypress_ZEE	134	stimuli_distractor_trianglediamonds.svg	stimuli_target_rectanglediamonds.svg	10	yes	57	0	279	0	0			0	0			1				0	
6.6.1	win	2023-07-06	22:16:26	22:25:57	568525	63d7e609051bf50f9d1dcd35	3	1	main_z	11	main_z	135	stimuli_distractor_trianglediamonds.svg	stimuli_target_squaretriangles.svg	11	yes	44	1	594	0	0			0	0			1				0	
6.6.1	win	2023-07-06	22:16:26	22:25:57	568525	63d7e609051bf50f9d1dcd35	3	1	main_z	11	advance_on_keypress_ZEE	136	stimuli_distractor_trianglediamonds.svg	stimuli_target_squaretriangles.svg	11	yes	57	0	273	0	0			0	0			1				0	
6.6.1	win	2023-07-06	22:16:26	22:25:59	569989	63d7e609051bf50f9d1dcd35	3	1	main_z	11	main_z	137	stimuli_target_squaretriangles.svg	stimuli_distractor_diamondtriangles.svg	7	yes	44	1	557	0	0			0	0			1				0	
6.6.1	win	2023-07-06	22:16:26	22:25:59	569989	63d7e609051bf50f9d1dcd35	3	1	main_z	11	advance_on_keypress_ZEE	138	stimuli_target_squaretriangles.svg	stimuli_distractor_diamondtriangles.svg	7	yes	57	0	261	0	0			0	0			1				0	
6.6.1	win	2023-07-06	22:16:26	22:26:00	571525	63d7e609051bf50f9d1dcd35	3	1	main_z	11	main_z	139	stimuli_target_rectanglediamonds.svg	stimuli_distractor_diamondtriangles.svg	6	yes	44	1	642	0	0			0	0			1				0	
6.6.1	win	2023-07-06	22:16:26	22:26:00	571525	63d7e609051bf50f9d1dcd35	3	1	main_z	11	advance_on_keypress_ZEE	140	stimuli_target_rectanglediamonds.svg	stimuli_distractor_diamondtriangles.svg	6	yes	57	0	262	0	0			0	0			1				0	
6.6.1	win	2023-07-06	22:16:26	22:26:02	573221	63d7e609051bf50f9d1dcd35	3	1	main_z	11	main_z	141	stimuli_distractor_diamondtriangles.svg	stimuli_target_trianglesquares.svg	30	yes	44	1	803	0	0			0	0			1				0	
6.6.1	win	2023-07-06	22:16:26	22:26:02	573221	63d7e609051bf50f9d1dcd35	3	1	main_z	11	advance_on_keypress_ZEE	142	stimuli_distractor_diamondtriangles.svg	stimuli_target_trianglesquares.svg	30	yes	57	0	264	0	0			0	0			1				0	
6.6.1	win	2023-07-06	22:16:26	22:26:04	574877	63d7e609051bf50f9d1dcd35	3	1	main_z	11	main_z	143	stimuli_target_squarediamonds.svg	stimuli_distractor_diamondtriangles.svg	8	yes	44	1	757	0	0			0	0			1				0	
6.6.1	win	2023-07-06	22:16:26	22:26:04	574877	63d7e609051bf50f9d1dcd35	3	1	main_z	11	advance_on_keypress_ZEE	144	stimuli_target_squarediamonds.svg	stimuli_distractor_diamondtriangles.svg	8	yes	57	0	309	0	0			0	0			1				0	
6.6.1	win	2023-07-06	22:16:26	22:26:05	576445	63d7e609051bf50f9d1dcd35	3	1	main_z	11	main_z	145	stimuli_target_rectangletriangles.svg	stimuli_distractor_diamondtriangles.svg	5	yes	44	1	623	0	0			0	0			1				0	
6.6.1	win	2023-07-06	22:16:26	22:26:05	576445	63d7e609051bf50f9d1dcd35	3	1	main_z	11	advance_on_keypress_ZEE	146	stimuli_target_rectangletriangles.svg	stimuli_distractor_diamondtriangles.svg	5	yes	57	0	229	0	0			0	0			1				0	
6.6.1	win	2023-07-06	22:16:26	22:26:07	577933	63d7e609051bf50f9d1dcd35	3	1	main_z	11	main_z	147	stimuli_distractor_trianglediamonds.svg	stimuli_target_diamondrectangles.svg	27	yes	44	1	626	0	0			0	0			1				0	
6.6.1	win	2023-07-06	22:16:26	22:26:07	577933	63d7e609051bf50f9d1dcd35	3	1	main_z	11	advance_on_keypress_ZEE	148	stimuli_distractor_trianglediamonds.svg	stimuli_target_diamondrectangles.svg	27	yes	57	0	248	0	0			0	0			1				0	
6.6.1	win	2023-07-06	22:16:26	22:26:08	579365	63d7e609051bf50f9d1dcd35	3	1	main_z	11	main_z	149	stimuli_distractor_diamondtriangles.svg	stimuli_target_diamondsquares.svg	32	yes	44	1	557	0	0			0	0			1				0	
6.6.1	win	2023-07-06	22:16:26	22:26:08	579365	63d7e609051bf50f9d1dcd35	3	1	main_z	11	advance_on_keypress_ZEE	150	stimuli_distractor_diamondtriangles.svg	stimuli_target_diamondsquares.svg	32	yes	57	0	221	0	0			0	0			1				0	
6.6.1	win	2023-07-06	22:16:26	22:26:09	580781	63d7e609051bf50f9d1dcd35	3	1	main_z	11	main_z	151	stimuli_target_diamondsquares.svg	stimuli_distractor_trianglediamonds.svg	20	yes	44	1	555	0	0			0	0			1				0	
6.6.1	win	2023-07-06	22:16:26	22:26:09	580781	63d7e609051bf50f9d1dcd35	3	1	main_z	11	advance_on_keypress_ZEE	152	stimuli_target_diamondsquares.svg	stimuli_distractor_trianglediamonds.svg	20	yes	57	0	211	0	0			0	0			1				0	
6.6.1	win	2023-07-06	22:16:26	22:26:11	582189	63d7e609051bf50f9d1dcd35	3	1	main_z	11	main_z	153	stimuli_distractor_trianglediamonds.svg	stimuli_target_squarediamonds.svg	12	yes	44	1	562	0	0			0	0			1				0	
6.6.1	win	2023-07-06	22:16:26	22:26:11	582189	63d7e609051bf50f9d1dcd35	3	1	main_z	11	advance_on_keypress_ZEE	154	stimuli_distractor_trianglediamonds.svg	stimuli_target_squarediamonds.svg	12	yes	57	0	234	0	0			0	0			1				0	
6.6.1	win	2023-07-06	22:16:26	22:26:12	583701	63d7e609051bf50f9d1dcd35	3	1	main_z	11	main_z	155	stimuli_target_trianglesquares.svg	stimuli_distractor_trianglediamonds.svg	18	yes	44	1	639	0	0			0	0			1				0	
6.6.1	win	2023-07-06	22:16:26	22:26:12	583701	63d7e609051bf50f9d1dcd35	3	1	main_z	11	advance_on_keypress_ZEE	156	stimuli_target_trianglesquares.svg	stimuli_distractor_trianglediamonds.svg	18	yes	57	0	292	0	0			0	0			1				0	
6.6.1	win	2023-07-06	22:16:26	22:26:14	585213	63d7e609051bf50f9d1dcd35	3	1	main_z	11	main_z	157	stimuli_target_squarediamonds.svg	stimuli_distractor_trianglediamonds.svg	4	yes	44	1	583	0	0			0	0			1				0	
6.6.1	win	2023-07-06	22:16:26	22:26:14	585213	63d7e609051bf50f9d1dcd35	3	1	main_z	11	advance_on_keypress_ZEE	158	stimuli_target_squarediamonds.svg	stimuli_distractor_trianglediamonds.svg	4	yes	57	0	286	0	0			0	0			1				0	
6.6.1	win	2023-07-06	22:16:26	22:26:17	588132	63d7e609051bf50f9d1dcd35	3	1	main_z	11	main_z	159	stimuli_distractor_trianglediamonds.svg	stimuli_distractor_diamondtriangles.svg	35	no	0	1	2000	0	0			0	0			1				0	
6.6.1	win	2023-07-06	22:16:26	22:26:17	588132	63d7e609051bf50f9d1dcd35	3	1	main_z	11	advance_on_keypress_ZEE	160	stimuli_distractor_trianglediamonds.svg	stimuli_distractor_diamondtriangles.svg	35	no	57	0	327	0	0			0	0			1				0	
6.6.1	win	2023-07-06	22:16:26	22:26:17	588132	63d7e609051bf50f9d1dcd35	3	1	headphonecheck_calibration	14	headphonecheck_calibrationIntro	1	stimuli_distractor_trianglediamonds.svg	stimuli_distractor_diamondtriangles.svg	35	no	calibrationButton	0	3610	0	0			0	0			1				0	
6.6.1	win	2023-07-06	22:16:26	22:26:17	588132	63d7e609051bf50f9d1dcd35	3	1	headphonecheck_testphase	15	test_collectResponse	3	stimuli_distractor_trianglediamonds.svg	stimuli_distractor_diamondtriangles.svg	35	no	third	1	636	1	6	antiphase_hc_ois.wav	3	0	0			1				0	
6.6.1	win	2023-07-06	22:16:26	22:26:17	588132	63d7e609051bf50f9d1dcd35	3	1	headphonecheck_testphase	15	test_collectResponse	6	stimuli_distractor_trianglediamonds.svg	stimuli_distractor_diamondtriangles.svg	35	no	second	1	595	2	1	antiphase_hc_iso.wav	2	0	0			1				0	
6.6.1	win	2023-07-06	22:16:26	22:26:17	588132	63d7e609051bf50f9d1dcd35	3	1	headphonecheck_testphase	15	test_collectResponse	9	stimuli_distractor_trianglediamonds.svg	stimuli_distractor_diamondtriangles.svg	35	no	first	1	592	3	4	antiphase_hc_sio.wav	1	0	0			1				0	
6.6.1	win	2023-07-06	22:16:26	22:26:17	588132	63d7e609051bf50f9d1dcd35	3	1	headphonecheck_testphase	15	test_collectResponse	12	stimuli_distractor_trianglediamonds.svg	stimuli_distractor_diamondtriangles.svg	35	no	third	1	605	4	2	antiphase_hc_ios.wav	3	0	0			1				0	
6.6.1	win	2023-07-06	22:16:26	22:26:17	588132	63d7e609051bf50f9d1dcd35	3	1	headphonecheck_testphase	15	test_collectResponse	15	stimuli_distractor_trianglediamonds.svg	stimuli_distractor_diamondtriangles.svg	35	no	first	1	547	5	3	antiphase_hc_soi.wav	1	0	0			1				0	
6.6.1	win	2023-07-06	22:16:26	22:26:17	588132	63d7e609051bf50f9d1dcd35	3	1	headphonecheck_testphase	15	test_collectResponse	18	stimuli_distractor_trianglediamonds.svg	stimuli_distractor_diamondtriangles.svg	35	no	second	1	506	6	5	antiphase_hc_osi.wav	2	0	0			1				0	
6.6.1	win	2023-07-06	22:16:26	22:26:17	588132	63d7e609051bf50f9d1dcd35	3	1	stereocheck_calibration	17	stereocheck_calibrationIntro	1	stimuli_distractor_trianglediamonds.svg	stimuli_distractor_diamondtriangles.svg	35	no	stereocheck_calibrationButton	0	3663	6	5	antiphase_hc_osi.wav	2	0	0			1				0	
6.6.1	win	2023-07-06	22:16:26	22:26:17	588132	63d7e609051bf50f9d1dcd35	3	1	stereocheck_testphase	18	stereocheck_test_collectResponse	3	stimuli_distractor_trianglediamonds.svg	stimuli_distractor_diamondtriangles.svg	35	no	stereocheck_right	1	465	6	5	antiphase_hc_osi.wav	2	1	5	noise_calib_stim_RIGHT.wav	2	1				0	
6.6.1	win	2023-07-06	22:16:26	22:26:17	588132	63d7e609051bf50f9d1dcd35	3	1	stereocheck_testphase	18	stereocheck_test_collectResponse	6	stimuli_distractor_trianglediamonds.svg	stimuli_distractor_diamondtriangles.svg	35	no	stereocheck_left	1	359	6	5	antiphase_hc_osi.wav	2	2	1	noise_calib_stim_LEFT.wav	1	1				0	
6.6.1	win	2023-07-06	22:16:26	22:26:17	588132	63d7e609051bf50f9d1dcd35	3	1	stereocheck_testphase	18	stereocheck_test_collectResponse	9	stimuli_distractor_trianglediamonds.svg	stimuli_distractor_diamondtriangles.svg	35	no	stereocheck_right	1	308	6	5	antiphase_hc_osi.wav	2	3	4	noise_calib_stim_RIGHT.wav	2	1				0	
6.6.1	win	2023-07-06	22:16:26	22:26:17	588132	63d7e609051bf50f9d1dcd35	3	1	stereocheck_testphase	18	stereocheck_test_collectResponse	12	stimuli_distractor_trianglediamonds.svg	stimuli_distractor_diamondtriangles.svg	35	no	stereocheck_left	1	354	6	5	antiphase_hc_osi.wav	2	4	2	noise_calib_stim_LEFT.wav	1	1				0	
6.6.1	win	2023-07-06	22:16:26	22:26:17	588132	63d7e609051bf50f9d1dcd35	3	1	stereocheck_testphase	18	stereocheck_test_collectResponse	15	stimuli_distractor_trianglediamonds.svg	stimuli_distractor_diamondtriangles.svg	35	no	stereocheck_right	1	356	6	5	antiphase_hc_osi.wav	2	5	6	noise_calib_stim_RIGHT.wav	2	1				0	
6.6.1	win	2023-07-06	22:16:26	22:26:17	588132	63d7e609051bf50f9d1dcd35	3	1	stereocheck_testphase	18	stereocheck_test_collectResponse	18	stimuli_distractor_trianglediamonds.svg	stimuli_distractor_diamondtriangles.svg	35	no	stereocheck_left	1	329	6	5	antiphase_hc_osi.wav	2	6	3	noise_calib_stim_LEFT.wav	1	1				0	
6.6.1	win	2023-07-06	22:16:26	22:26:17	588132	63d7e609051bf50f9d1dcd35	3	1	DL_practice	21	DL_practice	2	stimuli_distractor_trianglediamonds.svg	stimuli_distractor_diamondtriangles.svg	35	no	da	1	1522	6	5	antiphase_hc_osi.wav	2	6	3	noise_calib_stim_LEFT.wav	1	8	blb_dichoticlistening_da-da.mp3	da	da	0	left
6.6.1	win	2023-07-06	22:16:26	22:26:17	588132	63d7e609051bf50f9d1dcd35	3	1	DL_practice	21	DL_practice	3	stimuli_distractor_trianglediamonds.svg	stimuli_distractor_diamondtriangles.svg	35	no	ba	1	1756	6	5	antiphase_hc_osi.wav	2	6	3	noise_calib_stim_LEFT.wav	1	7	blb_dichoticlistening_da-ba.mp3	da	ba	1	right
6.6.1	win	2023-07-06	22:16:26	22:26:17	588132	63d7e609051bf50f9d1dcd35	3	1	DL_practice	21	DL_practice	4	stimuli_distractor_trianglediamonds.svg	stimuli_distractor_diamondtriangles.svg	35	no	pa	1	1567	6	5	antiphase_hc_osi.wav	2	6	3	noise_calib_stim_LEFT.wav	1	29	blb_dichoticlistening_pa-pa.mp3	pa	pa	0	left
6.6.1	win	2023-07-06	22:16:26	22:26:17	588132	63d7e609051bf50f9d1dcd35	3	1	DL_practice	21	DL_practice	5	stimuli_distractor_trianglediamonds.svg	stimuli_distractor_diamondtriangles.svg	35	no	ka	1	1357	6	5	antiphase_hc_osi.wav	2	6	3	noise_calib_stim_LEFT.wav	1	22	blb_dichoticlistening_ka-ka.mp3	ka	ka	0	left
6.6.1	win	2023-07-06	22:16:26	22:26:17	588132	63d7e609051bf50f9d1dcd35	3	1	DL_practice	21	DL_practice	6	stimuli_distractor_trianglediamonds.svg	stimuli_distractor_diamondtriangles.svg	35	no	ba	1	1494	6	5	antiphase_hc_osi.wav	2	6	3	noise_calib_stim_LEFT.wav	1	1	blb_dichoticlistening_ba-ba.mp3	ba	ba	0	left
6.6.1	win	2023-07-06	22:16:26	22:26:17	588132	63d7e609051bf50f9d1dcd35	3	1	DL_practice	21	DL_practice	7	stimuli_distractor_trianglediamonds.svg	stimuli_distractor_diamondtriangles.svg	35	no	ga	1	1430	6	5	antiphase_hc_osi.wav	2	6	3	noise_calib_stim_LEFT.wav	1	15	blb_dichoticlistening_ga-ga.mp3	ga	ga	0	left
6.6.1	win	2023-07-06	22:16:26	22:26:17	588132	63d7e609051bf50f9d1dcd35	3	1	DL_practice	21	DL_practice	8	stimuli_distractor_trianglediamonds.svg	stimuli_distractor_diamondtriangles.svg	35	no	ka	0	2463	6	5	antiphase_hc_osi.wav	2	6	3	noise_calib_stim_LEFT.wav	1	18	blb_dichoticlistening_ga-ta.mp3	ga	ta	1	other
6.6.1	win	2023-07-06	22:16:26	22:26:17	588132	63d7e609051bf50f9d1dcd35	3	1	DL_practice	21	DL_practice	9	stimuli_distractor_trianglediamonds.svg	stimuli_distractor_diamondtriangles.svg	35	no	ka	1	1978	6	5	antiphase_hc_osi.wav	2	6	3	noise_calib_stim_LEFT.wav	1	23	blb_dichoticlistening_ka-pa.mp3	ka	pa	1	left
6.6.1	win	2023-07-06	22:16:26	22:26:17	588132	63d7e609051bf50f9d1dcd35	3	1	DL_practice	21	DL_practice	10	stimuli_distractor_trianglediamonds.svg	stimuli_distractor_diamondtriangles.svg	35	no	ta	1	1761	6	5	antiphase_hc_osi.wav	2	6	3	noise_calib_stim_LEFT.wav	1	36	blb_dichoticlistening_ta-ta.mp3	ta	ta	0	left
6.6.1	win	2023-07-06	22:16:26	22:26:17	588132	63d7e609051bf50f9d1dcd35	3	1	DL_test	23	DL_test	1	stimuli_distractor_trianglediamonds.svg	stimuli_distractor_diamondtriangles.svg	35	no	pa	0	2052	6	5	antiphase_hc_osi.wav	2	6	3	noise_calib_stim_LEFT.wav	1	10	blb_dichoticlistening_da-ka.mp3	da	ka	1	other
6.6.1	win	2023-07-06	22:16:26	22:26:17	588132	63d7e609051bf50f9d1dcd35	3	1	DL_test	23	DL_test	2	stimuli_distractor_trianglediamonds.svg	stimuli_distractor_diamondtriangles.svg	35	no	ba	1	1620	6	5	antiphase_hc_osi.wav	2	6	3	noise_calib_stim_LEFT.wav	1	1	blb_dichoticlistening_ba-ba.mp3	ba	ba	0	left
6.6.1	win	2023-07-06	22:16:26	22:26:17	588132	63d7e609051bf50f9d1dcd35	3	1	DL_test	23	DL_test	3	stimuli_distractor_trianglediamonds.svg	stimuli_distractor_diamondtriangles.svg	35	no	ta	1	1494	6	5	antiphase_hc_osi.wav	2	6	3	noise_calib_stim_LEFT.wav	1	35	blb_dichoticlistening_ta-pa.mp3	ta	pa	1	left
6.6.1	win	2023-07-06	22:16:26	22:26:17	588132	63d7e609051bf50f9d1dcd35	3	1	DL_test	23	DL_test	4	stimuli_distractor_trianglediamonds.svg	stimuli_distractor_diamondtriangles.svg	35	no	da	1	1415	6	5	antiphase_hc_osi.wav	2	6	3	noise_calib_stim_LEFT.wav	1	8	blb_dichoticlistening_da-da.mp3	da	da	0	left
6.6.1	win	2023-07-06	22:16:26	22:26:17	588132	63d7e609051bf50f9d1dcd35	3	1	DL_test	23	DL_test	5	stimuli_distractor_trianglediamonds.svg	stimuli_distractor_diamondtriangles.svg	35	no	pa	1	2525	6	5	antiphase_hc_osi.wav	2	6	3	noise_calib_stim_LEFT.wav	1	11	blb_dichoticlistening_da-pa.mp3	da	pa	1	right
6.6.1	win	2023-07-06	22:16:26	22:26:17	588132	63d7e609051bf50f9d1dcd35	3	1	DL_test	23	DL_test	6	stimuli_distractor_trianglediamonds.svg	stimuli_distractor_diamondtriangles.svg	35	no	da	1	1404	6	5	antiphase_hc_osi.wav	2	6	3	noise_calib_stim_LEFT.wav	1	9	blb_dichoticlistening_da-ga.mp3	da	ga	1	left
6.6.1	win	2023-07-06	22:16:26	22:26:17	588132	63d7e609051bf50f9d1dcd35	3	1	DL_test	23	DL_test	7	stimuli_distractor_trianglediamonds.svg	stimuli_distractor_diamondtriangles.svg	35	no	da	1	1859	6	5	antiphase_hc_osi.wav	2	6	3	noise_calib_stim_LEFT.wav	1	32	blb_dichoticlistening_ta-da.mp3	ta	da	1	right
6.6.1	win	2023-07-06	22:16:26	22:26:17	588132	63d7e609051bf50f9d1dcd35	3	1	DL_test	23	DL_test	8	stimuli_distractor_trianglediamonds.svg	stimuli_distractor_diamondtriangles.svg	35	no	ka	1	1539	6	5	antiphase_hc_osi.wav	2	6	3	noise_calib_stim_LEFT.wav	1	19	blb_dichoticlistening_ka-ba.mp3	ka	ba	1	left
6.6.1	win	2023-07-06	22:16:26	22:26:17	588132	63d7e609051bf50f9d1dcd35	3	1	DL_test	23	DL_test	9	stimuli_distractor_trianglediamonds.svg	stimuli_distractor_diamondtriangles.svg	35	no	ka	1	1437	6	5	antiphase_hc_osi.wav	2	6	3	noise_calib_stim_LEFT.wav	1	22	blb_dichoticlistening_ka-ka.mp3	ka	ka	0	left
6.6.1	win	2023-07-06	22:16:26	22:26:17	588132	63d7e609051bf50f9d1dcd35	3	1	DL_test	23	DL_test	10	stimuli_distractor_trianglediamonds.svg	stimuli_distractor_diamondtriangles.svg	35	no	ka	1	1188	6	5	antiphase_hc_osi.wav	2	6	3	noise_calib_stim_LEFT.wav	1	24	blb_dichoticlistening_ka-ta.mp3	ka	ta	1	left
6.6.1	win	2023-07-06	22:16:26	22:26:17	588132	63d7e609051bf50f9d1dcd35	3	1	DL_test	23	DL_test	11	stimuli_distractor_trianglediamonds.svg	stimuli_distractor_diamondtriangles.svg	35	no	da	1	1269	6	5	antiphase_hc_osi.wav	2	6	3	noise_calib_stim_LEFT.wav	1	14	blb_dichoticlistening_ga-da.mp3	ga	da	1	right
6.6.1	win	2023-07-06	22:16:26	22:26:17	588132	63d7e609051bf50f9d1dcd35	3	1	DL_test	23	DL_test	12	stimuli_distractor_trianglediamonds.svg	stimuli_distractor_diamondtriangles.svg	35	no	pa	1	1318	6	5	antiphase_hc_osi.wav	2	6	3	noise_calib_stim_LEFT.wav	1	29	blb_dichoticlistening_pa-pa.mp3	pa	pa	0	left
6.6.1	win	2023-07-06	22:16:26	22:26:17	588132	63d7e609051bf50f9d1dcd35	3	1	DL_test	23	DL_test	13	stimuli_distractor_trianglediamonds.svg	stimuli_distractor_diamondtriangles.svg	35	no	ga	1	1743	6	5	antiphase_hc_osi.wav	2	6	3	noise_calib_stim_LEFT.wav	1	33	blb_dichoticlistening_ta-ga.mp3	ta	ga	1	right
6.6.1	win	2023-07-06	22:16:26	22:26:17	588132	63d7e609051bf50f9d1dcd35	3	1	DL_test	23	DL_test	14	stimuli_distractor_trianglediamonds.svg	stimuli_distractor_diamondtriangles.svg	35	no	ka	1	1695	6	5	antiphase_hc_osi.wav	2	6	3	noise_calib_stim_LEFT.wav	1	21	blb_dichoticlistening_ka-ga.mp3	ka	ga	1	left
6.6.1	win	2023-07-06	22:16:26	22:26:17	588132	63d7e609051bf50f9d1dcd35	3	1	DL_test	23	DL_test	15	stimuli_distractor_trianglediamonds.svg	stimuli_distractor_diamondtriangles.svg	35	no	ba	1	2236	6	5	antiphase_hc_osi.wav	2	6	3	noise_calib_stim_LEFT.wav	1	7	blb_dichoticlistening_da-ba.mp3	da	ba	1	right
6.6.1	win	2023-07-06	22:16:26	22:26:17	588132	63d7e609051bf50f9d1dcd35	3	1	DL_test	23	DL_test	16	stimuli_distractor_trianglediamonds.svg	stimuli_distractor_diamondtriangles.svg	35	no	ta	1	1250	6	5	antiphase_hc_osi.wav	2	6	3	noise_calib_stim_LEFT.wav	1	36	blb_dichoticlistening_ta-ta.mp3	ta	ta	0	left
6.6.1	win	2023-07-06	22:16:26	22:26:17	588132	63d7e609051bf50f9d1dcd35	3	1	DL_test	23	DL_test	17	stimuli_distractor_trianglediamonds.svg	stimuli_distractor_diamondtriangles.svg	35	no	pa	1	1573	6	5	antiphase_hc_osi.wav	2	6	3	noise_calib_stim_LEFT.wav	1	17	blb_dichoticlistening_ga-pa.mp3	ga	pa	1	right
6.6.1	win	2023-07-06	22:16:26	22:26:17	588132	63d7e609051bf50f9d1dcd35	3	1	DL_test	23	DL_test	18	stimuli_distractor_trianglediamonds.svg	stimuli_distractor_diamondtriangles.svg	35	no	ta	1	1552	6	5	antiphase_hc_osi.wav	2	6	3	noise_calib_stim_LEFT.wav	1	12	blb_dichoticlistening_da-ta.mp3	da	ta	1	right
6.6.1	win	2023-07-06	22:16:26	22:26:17	588132	63d7e609051bf50f9d1dcd35	3	1	DL_test	23	DL_test	19	stimuli_distractor_trianglediamonds.svg	stimuli_distractor_diamondtriangles.svg	35	no	ta	1	1190	6	5	antiphase_hc_osi.wav	2	6	3	noise_calib_stim_LEFT.wav	1	30	blb_dichoticlistening_pa-ta.mp3	pa	ta	1	right
6.6.1	win	2023-07-06	22:16:26	22:26:17	588132	63d7e609051bf50f9d1dcd35	3	1	DL_test	23	DL_test	20	stimuli_distractor_trianglediamonds.svg	stimuli_distractor_diamondtriangles.svg	35	no	ga	1	1636	6	5	antiphase_hc_osi.wav	2	6	3	noise_calib_stim_LEFT.wav	1	27	blb_dichoticlistening_pa-ga.mp3	pa	ga	1	right
6.6.1	win	2023-07-06	22:16:26	22:26:17	588132	63d7e609051bf50f9d1dcd35	3	1	DL_test	23	DL_test	21	stimuli_distractor_trianglediamonds.svg	stimuli_distractor_diamondtriangles.svg	35	no	ka	1	1245	6	5	antiphase_hc_osi.wav	2	6	3	noise_calib_stim_LEFT.wav	1	23	blb_dichoticlistening_ka-pa.mp3	ka	pa	1	left
6.6.1	win	2023-07-06	22:16:26	22:26:17	588132	63d7e609051bf50f9d1dcd35	3	1	DL_test	23	DL_test	22	stimuli_distractor_trianglediamonds.svg	stimuli_distractor_diamondtriangles.svg	35	no	da	1	1137	6	5	antiphase_hc_osi.wav	2	6	3	noise_calib_stim_LEFT.wav	1	2	blb_dichoticlistening_ba-da.mp3	ba	da	1	right
6.6.1	win	2023-07-06	22:16:26	22:26:17	588132	63d7e609051bf50f9d1dcd35	3	1	DL_test	23	DL_test	23	stimuli_distractor_trianglediamonds.svg	stimuli_distractor_diamondtriangles.svg	35	no	ka	0	1312	6	5	antiphase_hc_osi.wav	2	6	3	noise_calib_stim_LEFT.wav	1	18	blb_dichoticlistening_ga-ta.mp3	ga	ta	1	other
6.6.1	win	2023-07-06	22:16:26	22:26:17	588132	63d7e609051bf50f9d1dcd35	3	1	DL_test	23	DL_test	24	stimuli_distractor_trianglediamonds.svg	stimuli_distractor_diamondtriangles.svg	35	no	ka	1	1346	6	5	antiphase_hc_osi.wav	2	6	3	noise_calib_stim_LEFT.wav	1	34	blb_dichoticlistening_ta-ka.mp3	ta	ka	1	right
6.6.1	win	2023-07-06	22:16:26	22:26:17	588132	63d7e609051bf50f9d1dcd35	3	1	DL_test	23	DL_test	25	stimuli_distractor_trianglediamonds.svg	stimuli_distractor_diamondtriangles.svg	35	no	da	0	2075	6	5	antiphase_hc_osi.wav	2	6	3	noise_calib_stim_LEFT.wav	1	3	blb_dichoticlistening_ba-ga.mp3	ba	ga	1	other
6.6.1	win	2023-07-06	22:16:26	22:26:17	588132	63d7e609051bf50f9d1dcd35	3	1	DL_test	23	DL_test	26	stimuli_distractor_trianglediamonds.svg	stimuli_distractor_diamondtriangles.svg	35	no	ka	0	1418	6	5	antiphase_hc_osi.wav	2	6	3	noise_calib_stim_LEFT.wav	1	6	blb_dichoticlistening_ba-ta.mp3	ba	ta	1	other
