build	computer.platform	date	time	timestamp	time_elapsed_ms	subject	group	session	blockcode	blocknum	trialcode	trialnum	stimulus_left	stimulus_right	stim_index	target_present	response	correct	latency	headphonecheck_countTestTrials	headphonecheck_index	headphonecheck_testSound	headphonecheck_correctResponse	stereocheck_countTestTrials	stereocheck_index	stereocheck_testSound	stereocheck_correctResponse	DL_index	DL_soundfile	DL_leftSound	DL_rightSound	DL_dualSound	DL_choice
6.6.1	win	2023-06-01	23:33:30	23:36:41	189652	63d77a647dbf6c0c53b0d375	3	1	practice_slash	5	practice_slash	1	stimuli_target_diamondsquares.svg	stimuli_distractor_trianglediamonds.svg	6	yes	0	0	2000	0	0			0	0			1				0	
6.6.1	win	2023-06-01	23:33:30	23:36:41	189652	63d77a647dbf6c0c53b0d375	3	1	practice_slash	5	advance_on_keypress_SLASH	2	stimuli_target_diamondsquares.svg	stimuli_distractor_trianglediamonds.svg	6	yes	57	0	1727	0	0			0	0			1				0	
6.6.1	win	2023-06-01	23:33:30	23:36:45	193650	63d77a647dbf6c0c53b0d375	3	1	practice_slash	5	practice_slash	3	stimuli_target_rectanglediamonds.svg	stimuli_distractor_diamondtriangles.svg	1	yes	53	1	633	0	0			0	0			1				0	
6.6.1	win	2023-06-01	23:33:30	23:36:45	193650	63d77a647dbf6c0c53b0d375	3	1	practice_slash	5	advance_on_keypress_SLASH	4	stimuli_target_rectanglediamonds.svg	stimuli_distractor_diamondtriangles.svg	1	yes	57	0	895	0	0			0	0			1				0	
6.6.1	win	2023-06-01	23:33:30	23:36:48	196676	63d77a647dbf6c0c53b0d375	3	1	practice_slash	5	practice_slash	5	stimuli_distractor_trianglediamonds.svg	stimuli_target_diamondrectangles.svg	12	yes	53	1	448	0	0			0	0			1				0	
6.6.1	win	2023-06-01	23:33:30	23:36:48	196676	63d77a647dbf6c0c53b0d375	3	1	practice_slash	5	advance_on_keypress_SLASH	6	stimuli_distractor_trianglediamonds.svg	stimuli_target_diamondrectangles.svg	12	yes	57	0	1222	0	0			0	0			1				0	
6.6.1	win	2023-06-01	23:33:30	23:36:51	199890	63d77a647dbf6c0c53b0d375	3	1	practice_slash	5	practice_slash	7	stimuli_distractor_trianglediamonds.svg	stimuli_target_rectanglediamonds.svg	10	yes	53	1	356	0	0			0	0			1				0	
6.6.1	win	2023-06-01	23:33:30	23:36:51	199890	63d77a647dbf6c0c53b0d375	3	1	practice_slash	5	advance_on_keypress_SLASH	8	stimuli_distractor_trianglediamonds.svg	stimuli_target_rectanglediamonds.svg	10	yes	57	0	533	0	0			0	0			1				0	
6.6.1	win	2023-06-01	23:33:30	23:36:54	202426	63d77a647dbf6c0c53b0d375	3	1	practice_slash	5	practice_slash	9	stimuli_target_squarediamonds.svg	stimuli_distractor_trianglediamonds.svg	5	yes	53	1	358	0	0			0	0			1				0	
6.6.1	win	2023-06-01	23:33:30	23:36:54	202426	63d77a647dbf6c0c53b0d375	3	1	practice_slash	5	advance_on_keypress_SLASH	10	stimuli_target_squarediamonds.svg	stimuli_distractor_trianglediamonds.svg	5	yes	57	0	487	0	0			0	0			1				0	
6.6.1	win	2023-06-01	23:33:30	23:36:56	204949	63d77a647dbf6c0c53b0d375	3	1	practice_slash	5	practice_slash	11	stimuli_distractor_diamondtriangles.svg	stimuli_target_diamondrectangles.svg	8	yes	53	1	379	0	0			0	0			1				0	
6.6.1	win	2023-06-01	23:33:30	23:36:56	204949	63d77a647dbf6c0c53b0d375	3	1	practice_slash	5	advance_on_keypress_SLASH	12	stimuli_distractor_diamondtriangles.svg	stimuli_target_diamondrectangles.svg	8	yes	57	0	402	0	0			0	0			1				0	
6.6.1	win	2023-06-01	23:33:30	23:36:58	207333	63d77a647dbf6c0c53b0d375	3	1	practice_slash	5	practice_slash	13	stimuli_distractor_diamondtriangles.svg	stimuli_distractor_trianglediamonds.svg	14	no	53	0	313	0	0			0	0			1				0	
6.6.1	win	2023-06-01	23:33:30	23:36:58	207333	63d77a647dbf6c0c53b0d375	3	1	practice_slash	5	advance_on_keypress_SLASH	14	stimuli_distractor_diamondtriangles.svg	stimuli_distractor_trianglediamonds.svg	14	no	57	0	419	0	0			0	0			1				0	
6.6.1	win	2023-06-01	23:33:30	23:37:01	209730	63d77a647dbf6c0c53b0d375	3	1	practice_slash	5	practice_slash	15	stimuli_distractor_trianglediamonds.svg	stimuli_distractor_diamondtriangles.svg	16	no	53	0	329	0	0			0	0			1				0	
6.6.1	win	2023-06-01	23:33:30	23:37:01	209730	63d77a647dbf6c0c53b0d375	3	1	practice_slash	5	advance_on_keypress_SLASH	16	stimuli_distractor_trianglediamonds.svg	stimuli_distractor_diamondtriangles.svg	16	no	57	0	322	0	0			0	0			1				0	
6.6.1	win	2023-06-01	23:33:30	23:37:03	211974	63d77a647dbf6c0c53b0d375	3	1	practice_slash	5	practice_slash	17	stimuli_target_rectanglediamonds.svg	stimuli_distractor_trianglediamonds.svg	4	yes	53	1	269	0	0			0	0			1				0	
6.6.1	win	2023-06-01	23:33:30	23:37:03	211974	63d77a647dbf6c0c53b0d375	3	1	practice_slash	5	advance_on_keypress_SLASH	18	stimuli_target_rectanglediamonds.svg	stimuli_distractor_trianglediamonds.svg	4	yes	57	0	409	0	0			0	0			1				0	
6.6.1	win	2023-06-01	23:33:30	23:37:05	214360	63d77a647dbf6c0c53b0d375	3	1	practice_slash	5	practice_slash	19	stimuli_distractor_trianglediamonds.svg	stimuli_distractor_trianglediamonds.svg	15	no	53	0	328	0	0			0	0			1				0	
6.6.1	win	2023-06-01	23:33:30	23:37:05	214360	63d77a647dbf6c0c53b0d375	3	1	practice_slash	5	advance_on_keypress_SLASH	20	stimuli_distractor_trianglediamonds.svg	stimuli_distractor_trianglediamonds.svg	15	no	57	0	322	0	0			0	0			1				0	
6.6.1	win	2023-06-01	23:33:30	23:37:08	216739	63d77a647dbf6c0c53b0d375	3	1	practice_slash	5	practice_slash	21	stimuli_distractor_trianglediamonds.svg	stimuli_target_squarediamonds.svg	11	yes	53	1	404	0	0			0	0			1				0	
6.6.1	win	2023-06-01	23:33:30	23:37:08	216739	63d77a647dbf6c0c53b0d375	3	1	practice_slash	5	advance_on_keypress_SLASH	22	stimuli_distractor_trianglediamonds.svg	stimuli_target_squarediamonds.svg	11	yes	57	0	890	0	0			0	0			1				0	
6.6.1	win	2023-06-01	23:33:30	23:37:11	219612	63d77a647dbf6c0c53b0d375	3	1	practice_slash	5	practice_slash	23	stimuli_target_squarediamonds.svg	stimuli_distractor_diamondtriangles.svg	2	yes	53	1	342	0	0			0	0			1				0	
6.6.1	win	2023-06-01	23:33:30	23:37:11	219612	63d77a647dbf6c0c53b0d375	3	1	practice_slash	5	advance_on_keypress_SLASH	24	stimuli_target_squarediamonds.svg	stimuli_distractor_diamondtriangles.svg	2	yes	57	0	344	0	0			0	0			1				0	
6.6.1	win	2023-06-01	23:33:30	23:37:15	223623	63d77a647dbf6c0c53b0d375	3	1	practice_slash	5	practice_slash	25	stimuli_target_diamondsquares.svg	stimuli_distractor_diamondtriangles.svg	3	yes	0	0	2000	0	0			0	0			1				0	
6.6.1	win	2023-06-01	23:33:30	23:37:15	223623	63d77a647dbf6c0c53b0d375	3	1	practice_slash	5	advance_on_keypress_SLASH	26	stimuli_target_diamondsquares.svg	stimuli_distractor_diamondtriangles.svg	3	yes	57	0	543	0	0			0	0			1				0	
6.6.1	win	2023-06-01	23:33:30	23:37:19	227823	63d77a647dbf6c0c53b0d375	3	1	practice_slash	5	practice_slash	27	stimuli_distractor_diamondtriangles.svg	stimuli_distractor_diamondtriangles.svg	13	no	0	1	2000	0	0			0	0			1				0	
6.6.1	win	2023-06-01	23:33:30	23:37:19	227823	63d77a647dbf6c0c53b0d375	3	1	practice_slash	5	advance_on_keypress_SLASH	28	stimuli_distractor_diamondtriangles.svg	stimuli_distractor_diamondtriangles.svg	13	no	57	0	502	0	0			0	0			1				0	
6.6.1	win	2023-06-01	23:33:30	23:37:21	230358	63d77a647dbf6c0c53b0d375	3	1	practice_slash	5	practice_slash	29	stimuli_distractor_diamondtriangles.svg	stimuli_target_rectangletriangles.svg	7	yes	53	1	345	0	0			0	0			1				0	
6.6.1	win	2023-06-01	23:33:30	23:37:21	230358	63d77a647dbf6c0c53b0d375	3	1	practice_slash	5	advance_on_keypress_SLASH	30	stimuli_distractor_diamondtriangles.svg	stimuli_target_rectangletriangles.svg	7	yes	57	0	457	0	0			0	0			1				0	
6.6.1	win	2023-06-01	23:33:30	23:37:24	232866	63d77a647dbf6c0c53b0d375	3	1	practice_slash	5	practice_slash	31	stimuli_distractor_diamondtriangles.svg	stimuli_target_trianglerectangles.svg	9	yes	53	1	397	0	0			0	0			1				0	
6.6.1	win	2023-06-01	23:33:30	23:37:24	232866	63d77a647dbf6c0c53b0d375	3	1	practice_slash	5	advance_on_keypress_SLASH	32	stimuli_distractor_diamondtriangles.svg	stimuli_target_trianglerectangles.svg	9	yes	57	0	412	0	0			0	0			1				0	
6.6.1	win	2023-06-01	23:33:30	23:37:33	241518	63d77a647dbf6c0c53b0d375	3	1	main_slash	7	main_slash	1	stimuli_distractor_diamondtriangles.svg	stimuli_target_rectangletriangles.svg	13	yes	53	1	495	0	0			0	0			1				0	
6.6.1	win	2023-06-01	23:33:30	23:37:33	241518	63d77a647dbf6c0c53b0d375	3	1	main_slash	7	advance_on_keypress_SLASH	2	stimuli_distractor_diamondtriangles.svg	stimuli_target_rectangletriangles.svg	13	yes	57	0	1770	0	0			0	0			1				0	
6.6.1	win	2023-06-01	23:33:30	23:37:37	245952	63d77a647dbf6c0c53b0d375	3	1	main_slash	7	main_slash	3	stimuli_distractor_trianglediamonds.svg	stimuli_distractor_trianglediamonds.svg	34	no	0	1	2000	0	0			0	0			1				0	
6.6.1	win	2023-06-01	23:33:30	23:37:37	245952	63d77a647dbf6c0c53b0d375	3	1	main_slash	7	advance_on_keypress_SLASH	4	stimuli_distractor_trianglediamonds.svg	stimuli_distractor_trianglediamonds.svg	34	no	57	0	592	0	0			0	0			1				0	
6.6.1	win	2023-06-01	23:33:30	23:37:39	248144	63d77a647dbf6c0c53b0d375	3	1	main_slash	7	main_slash	5	stimuli_distractor_trianglediamonds.svg	stimuli_distractor_diamondtriangles.svg	35	no	53	0	960	0	0			0	0			1				0	
6.6.1	win	2023-06-01	23:33:30	23:37:39	248144	63d77a647dbf6c0c53b0d375	3	1	main_slash	7	advance_on_keypress_SLASH	6	stimuli_distractor_trianglediamonds.svg	stimuli_distractor_diamondtriangles.svg	35	no	57	0	689	0	0			0	0			1				0	
6.6.1	win	2023-06-01	23:33:30	23:37:43	251484	63d77a647dbf6c0c53b0d375	3	1	main_slash	7	main_slash	7	stimuli_distractor_trianglediamonds.svg	stimuli_distractor_diamondtriangles.svg	36	no	0	1	2000	0	0			0	0			1				0	
6.6.1	win	2023-06-01	23:33:30	23:37:43	251484	63d77a647dbf6c0c53b0d375	3	1	main_slash	7	advance_on_keypress_SLASH	8	stimuli_distractor_trianglediamonds.svg	stimuli_distractor_diamondtriangles.svg	36	no	57	0	347	0	0			0	0			1				0	
6.6.1	win	2023-06-01	23:33:30	23:37:44	252972	63d77a647dbf6c0c53b0d375	3	1	main_slash	7	main_slash	9	stimuli_distractor_diamondtriangles.svg	stimuli_target_diamondrectangles.svg	31	yes	53	1	500	0	0			0	0			1				0	
6.6.1	win	2023-06-01	23:33:30	23:37:44	252972	63d77a647dbf6c0c53b0d375	3	1	main_slash	7	advance_on_keypress_SLASH	10	stimuli_distractor_diamondtriangles.svg	stimuli_target_diamondrectangles.svg	31	yes	57	0	767	0	0			0	0			1				0	
6.6.1	win	2023-06-01	23:33:30	23:37:46	254893	63d77a647dbf6c0c53b0d375	3	1	main_slash	7	main_slash	11	stimuli_target_trianglerectangles.svg	stimuli_distractor_diamondtriangles.svg	21	yes	53	1	503	0	0			0	0			1				0	
6.6.1	win	2023-06-01	23:33:30	23:37:46	254893	63d77a647dbf6c0c53b0d375	3	1	main_slash	7	advance_on_keypress_SLASH	12	stimuli_target_trianglerectangles.svg	stimuli_distractor_diamondtriangles.svg	21	yes	57	0	603	0	0			0	0			1				0	
6.6.1	win	2023-06-01	23:33:30	23:37:48	256585	63d77a647dbf6c0c53b0d375	3	1	main_slash	7	main_slash	13	stimuli_target_trianglerectangles.svg	stimuli_distractor_trianglediamonds.svg	17	yes	53	1	440	0	0			0	0			1				0	
6.6.1	win	2023-06-01	23:33:30	23:37:48	256585	63d77a647dbf6c0c53b0d375	3	1	main_slash	7	advance_on_keypress_SLASH	14	stimuli_target_trianglerectangles.svg	stimuli_distractor_trianglediamonds.svg	17	yes	57	0	494	0	0			0	0			1				0	
6.6.1	win	2023-06-01	23:33:30	23:37:51	259719	63d77a647dbf6c0c53b0d375	3	1	main_slash	7	main_slash	15	stimuli_distractor_diamondtriangles.svg	stimuli_distractor_diamondtriangles.svg	39	no	0	1	2000	0	0			0	0			1				0	
6.6.1	win	2023-06-01	23:33:30	23:37:51	259719	63d77a647dbf6c0c53b0d375	3	1	main_slash	7	advance_on_keypress_SLASH	16	stimuli_distractor_diamondtriangles.svg	stimuli_distractor_diamondtriangles.svg	39	no	57	0	497	0	0			0	0			1				0	
6.6.1	win	2023-06-01	23:33:30	23:37:52	261192	63d77a647dbf6c0c53b0d375	3	1	main_slash	7	main_slash	17	stimuli_distractor_diamondtriangles.svg	stimuli_target_squarediamonds.svg	16	yes	53	1	325	0	0			0	0			1				0	
6.6.1	win	2023-06-01	23:33:30	23:37:52	261192	63d77a647dbf6c0c53b0d375	3	1	main_slash	7	advance_on_keypress_SLASH	18	stimuli_distractor_diamondtriangles.svg	stimuli_target_squarediamonds.svg	16	yes	57	0	1990	0	0			0	0			1				0	
6.6.1	win	2023-06-01	23:33:30	23:37:57	265820	63d77a647dbf6c0c53b0d375	3	1	main_slash	7	main_slash	19	stimuli_distractor_diamondtriangles.svg	stimuli_target_trianglesquares.svg	30	yes	0	0	2000	0	0			0	0			1				0	
6.6.1	win	2023-06-01	23:33:30	23:37:57	265820	63d77a647dbf6c0c53b0d375	3	1	main_slash	7	advance_on_keypress_SLASH	20	stimuli_distractor_diamondtriangles.svg	stimuli_target_trianglesquares.svg	30	yes	57	0	309	0	0			0	0			1				0	
6.6.1	win	2023-06-01	23:33:30	23:37:58	267182	63d77a647dbf6c0c53b0d375	3	1	main_slash	7	main_slash	21	stimuli_target_diamondsquares.svg	stimuli_distractor_trianglediamonds.svg	20	yes	53	1	399	0	0			0	0			1				0	
6.6.1	win	2023-06-01	23:33:30	23:37:58	267182	63d77a647dbf6c0c53b0d375	3	1	main_slash	7	advance_on_keypress_SLASH	22	stimuli_target_diamondsquares.svg	stimuli_distractor_trianglediamonds.svg	20	yes	57	0	574	0	0			0	0			1				0	
6.6.1	win	2023-06-01	23:33:30	23:38:00	268873	63d77a647dbf6c0c53b0d375	3	1	main_slash	7	main_slash	23	stimuli_distractor_trianglediamonds.svg	stimuli_target_rectangletriangles.svg	9	yes	53	1	453	0	0			0	0			1				0	
6.6.1	win	2023-06-01	23:33:30	23:38:00	268873	63d77a647dbf6c0c53b0d375	3	1	main_slash	7	advance_on_keypress_SLASH	24	stimuli_distractor_trianglediamonds.svg	stimuli_target_rectangletriangles.svg	9	yes	57	0	523	0	0			0	0			1				0	
6.6.1	win	2023-06-01	23:33:30	23:38:02	270928	63d77a647dbf6c0c53b0d375	3	1	main_slash	7	main_slash	25	stimuli_distractor_diamondtriangles.svg	stimuli_target_trianglerectangles.svg	29	yes	53	1	893	0	0			0	0			1				0	
6.6.1	win	2023-06-01	23:33:30	23:38:02	270928	63d77a647dbf6c0c53b0d375	3	1	main_slash	7	advance_on_keypress_SLASH	26	stimuli_distractor_diamondtriangles.svg	stimuli_target_trianglerectangles.svg	29	yes	57	0	937	0	0			0	0			1				0	
6.6.1	win	2023-06-01	23:33:30	23:38:04	272953	63d77a647dbf6c0c53b0d375	3	1	main_slash	7	main_slash	27	stimuli_distractor_trianglediamonds.svg	stimuli_target_squaretriangles.svg	11	yes	53	1	432	0	0			0	0			1				0	
6.6.1	win	2023-06-01	23:33:30	23:38:04	272953	63d77a647dbf6c0c53b0d375	3	1	main_slash	7	advance_on_keypress_SLASH	28	stimuli_distractor_trianglediamonds.svg	stimuli_target_squaretriangles.svg	11	yes	57	0	599	0	0			0	0			1				0	
6.6.1	win	2023-06-01	23:33:30	23:38:06	274713	63d77a647dbf6c0c53b0d375	3	1	main_slash	7	main_slash	29	stimuli_target_trianglesquares.svg	stimuli_distractor_trianglediamonds.svg	18	yes	53	1	510	0	0			0	0			1				0	
6.6.1	win	2023-06-01	23:33:30	23:38:06	274713	63d77a647dbf6c0c53b0d375	3	1	main_slash	7	advance_on_keypress_SLASH	30	stimuli_target_trianglesquares.svg	stimuli_distractor_trianglediamonds.svg	18	yes	57	0	673	0	0			0	0			1				0	
6.6.1	win	2023-06-01	23:33:30	23:38:08	276433	63d77a647dbf6c0c53b0d375	3	1	main_slash	7	main_slash	31	stimuli_distractor_trianglediamonds.svg	stimuli_target_squarediamonds.svg	12	yes	53	1	413	0	0			0	0			1				0	
6.6.1	win	2023-06-01	23:33:30	23:38:08	276433	63d77a647dbf6c0c53b0d375	3	1	main_slash	7	advance_on_keypress_SLASH	32	stimuli_distractor_trianglediamonds.svg	stimuli_target_squarediamonds.svg	12	yes	57	0	613	0	0			0	0			1				0	
6.6.1	win	2023-06-01	23:33:30	23:38:11	279687	63d77a647dbf6c0c53b0d375	3	1	main_slash	7	main_slash	33	stimuli_distractor_diamondtriangles.svg	stimuli_distractor_trianglediamonds.svg	37	no	0	1	2000	0	0			0	0			1				0	
6.6.1	win	2023-06-01	23:33:30	23:38:11	279687	63d77a647dbf6c0c53b0d375	3	1	main_slash	7	advance_on_keypress_SLASH	34	stimuli_distractor_diamondtriangles.svg	stimuli_distractor_trianglediamonds.svg	37	no	57	0	466	0	0			0	0			1				0	
6.6.1	win	2023-06-01	23:33:30	23:38:12	281204	63d77a647dbf6c0c53b0d375	3	1	main_slash	7	main_slash	35	stimuli_target_rectangletriangles.svg	stimuli_distractor_diamondtriangles.svg	5	yes	53	1	385	0	0			0	0			1				0	
6.6.1	win	2023-06-01	23:33:30	23:38:12	281204	63d77a647dbf6c0c53b0d375	3	1	main_slash	7	advance_on_keypress_SLASH	36	stimuli_target_rectangletriangles.svg	stimuli_distractor_diamondtriangles.svg	5	yes	57	0	461	0	0			0	0			1				0	
6.6.1	win	2023-06-01	23:33:30	23:38:14	282788	63d77a647dbf6c0c53b0d375	3	1	main_slash	7	main_slash	37	stimuli_distractor_diamondtriangles.svg	stimuli_target_squaretriangles.svg	15	yes	53	1	474	0	0			0	0			1				0	
6.6.1	win	2023-06-01	23:33:30	23:38:14	282788	63d77a647dbf6c0c53b0d375	3	1	main_slash	7	advance_on_keypress_SLASH	38	stimuli_distractor_diamondtriangles.svg	stimuli_target_squaretriangles.svg	15	yes	57	0	494	0	0			0	0			1				0	
6.6.1	win	2023-06-01	23:33:30	23:38:16	284361	63d77a647dbf6c0c53b0d375	3	1	main_slash	7	main_slash	39	stimuli_distractor_diamondtriangles.svg	stimuli_target_rectanglediamonds.svg	14	yes	53	1	416	0	0			0	0			1				0	
6.6.1	win	2023-06-01	23:33:30	23:38:16	284361	63d77a647dbf6c0c53b0d375	3	1	main_slash	7	advance_on_keypress_SLASH	40	stimuli_distractor_diamondtriangles.svg	stimuli_target_rectanglediamonds.svg	14	yes	57	0	455	0	0			0	0			1				0	
6.6.1	win	2023-06-01	23:33:30	23:38:17	285808	63d77a647dbf6c0c53b0d375	3	1	main_slash	7	main_slash	41	stimuli_distractor_trianglediamonds.svg	stimuli_target_diamondrectangles.svg	27	yes	53	1	356	0	0			0	0			1				0	
6.6.1	win	2023-06-01	23:33:30	23:38:17	285808	63d77a647dbf6c0c53b0d375	3	1	main_slash	7	advance_on_keypress_SLASH	42	stimuli_distractor_trianglediamonds.svg	stimuli_target_diamondrectangles.svg	27	yes	57	0	525	0	0			0	0			1				0	
6.6.1	win	2023-06-01	23:33:30	23:38:19	287409	63d77a647dbf6c0c53b0d375	3	1	main_slash	7	main_slash	43	stimuli_target_squaretriangles.svg	stimuli_distractor_diamondtriangles.svg	7	yes	53	1	439	0	0			0	0			1				0	
6.6.1	win	2023-06-01	23:33:30	23:38:19	287409	63d77a647dbf6c0c53b0d375	3	1	main_slash	7	advance_on_keypress_SLASH	44	stimuli_target_squaretriangles.svg	stimuli_distractor_diamondtriangles.svg	7	yes	57	0	693	0	0			0	0			1				0	
6.6.1	win	2023-06-01	23:33:30	23:38:20	289089	63d77a647dbf6c0c53b0d375	3	1	main_slash	7	main_slash	45	stimuli_target_rectanglediamonds.svg	stimuli_distractor_trianglediamonds.svg	2	yes	53	1	352	0	0			0	0			1				0	
6.6.1	win	2023-06-01	23:33:30	23:38:20	289089	63d77a647dbf6c0c53b0d375	3	1	main_slash	7	advance_on_keypress_SLASH	46	stimuli_target_rectanglediamonds.svg	stimuli_distractor_trianglediamonds.svg	2	yes	57	0	529	0	0			0	0			1				0	
6.6.1	win	2023-06-01	23:33:30	23:38:23	292264	63d77a647dbf6c0c53b0d375	3	1	main_slash	7	main_slash	47	stimuli_distractor_diamondtriangles.svg	stimuli_distractor_trianglediamonds.svg	38	no	0	1	2000	0	0			0	0			1				0	
6.6.1	win	2023-06-01	23:33:30	23:38:23	292264	63d77a647dbf6c0c53b0d375	3	1	main_slash	7	advance_on_keypress_SLASH	48	stimuli_distractor_diamondtriangles.svg	stimuli_distractor_trianglediamonds.svg	38	no	57	0	467	0	0			0	0			1				0	
6.6.1	win	2023-06-01	23:33:30	23:38:25	293714	63d77a647dbf6c0c53b0d375	3	1	main_slash	7	main_slash	49	stimuli_distractor_trianglediamonds.svg	stimuli_target_diamondsquares.svg	28	yes	53	1	335	0	0			0	0			1				0	
6.6.1	win	2023-06-01	23:33:30	23:38:25	293714	63d77a647dbf6c0c53b0d375	3	1	main_slash	7	advance_on_keypress_SLASH	50	stimuli_distractor_trianglediamonds.svg	stimuli_target_diamondsquares.svg	28	yes	57	0	1001	0	0			0	0			1				0	
6.6.1	win	2023-06-01	23:33:30	23:38:28	297360	63d77a647dbf6c0c53b0d375	3	1	main_slash	7	main_slash	51	stimuli_distractor_diamondtriangles.svg	stimuli_distractor_diamondtriangles.svg	40	no	0	1	2000	0	0			0	0			1				0	
6.6.1	win	2023-06-01	23:33:30	23:38:28	297360	63d77a647dbf6c0c53b0d375	3	1	main_slash	7	advance_on_keypress_SLASH	52	stimuli_distractor_diamondtriangles.svg	stimuli_distractor_diamondtriangles.svg	40	no	57	0	414	0	0			0	0			1				0	
6.6.1	win	2023-06-01	23:33:30	23:38:30	298800	63d77a647dbf6c0c53b0d375	3	1	main_slash	7	main_slash	53	stimuli_target_diamondsquares.svg	stimuli_distractor_diamondtriangles.svg	24	yes	53	1	364	0	0			0	0			1				0	
6.6.1	win	2023-06-01	23:33:30	23:38:30	298800	63d77a647dbf6c0c53b0d375	3	1	main_slash	7	advance_on_keypress_SLASH	54	stimuli_target_diamondsquares.svg	stimuli_distractor_diamondtriangles.svg	24	yes	57	0	549	0	0			0	0			1				0	
6.6.1	win	2023-06-01	23:33:30	23:38:32	300445	63d77a647dbf6c0c53b0d375	3	1	main_slash	7	main_slash	55	stimuli_target_diamondrectangles.svg	stimuli_distractor_diamondtriangles.svg	23	yes	53	1	446	0	0			0	0			1				0	
6.6.1	win	2023-06-01	23:33:30	23:38:32	300445	63d77a647dbf6c0c53b0d375	3	1	main_slash	7	advance_on_keypress_SLASH	56	stimuli_target_diamondrectangles.svg	stimuli_distractor_diamondtriangles.svg	23	yes	57	0	475	0	0			0	0			1				0	
6.6.1	win	2023-06-01	23:33:30	23:38:33	302208	63d77a647dbf6c0c53b0d375	3	1	main_slash	7	main_slash	57	stimuli_target_squarediamonds.svg	stimuli_distractor_trianglediamonds.svg	4	yes	53	1	638	0	0			0	0			1				0	
6.6.1	win	2023-06-01	23:33:30	23:38:33	302208	63d77a647dbf6c0c53b0d375	3	1	main_slash	7	advance_on_keypress_SLASH	58	stimuli_target_squarediamonds.svg	stimuli_distractor_trianglediamonds.svg	4	yes	57	0	964	0	0			0	0			1				0	
6.6.1	win	2023-06-01	23:33:30	23:38:37	305816	63d77a647dbf6c0c53b0d375	3	1	main_slash	7	main_slash	59	stimuli_distractor_trianglediamonds.svg	stimuli_distractor_trianglediamonds.svg	33	no	0	1	2000	0	0			0	0			1				0	
6.6.1	win	2023-06-01	23:33:30	23:38:37	305816	63d77a647dbf6c0c53b0d375	3	1	main_slash	7	advance_on_keypress_SLASH	60	stimuli_distractor_trianglediamonds.svg	stimuli_distractor_trianglediamonds.svg	33	no	57	0	483	0	0			0	0			1				0	
6.6.1	win	2023-06-01	23:33:30	23:38:38	307296	63d77a647dbf6c0c53b0d375	3	1	main_slash	7	main_slash	61	stimuli_target_rectanglediamonds.svg	stimuli_distractor_diamondtriangles.svg	6	yes	53	1	343	0	0			0	0			1				0	
6.6.1	win	2023-06-01	23:33:30	23:38:38	307296	63d77a647dbf6c0c53b0d375	3	1	main_slash	7	advance_on_keypress_SLASH	62	stimuli_target_rectanglediamonds.svg	stimuli_distractor_diamondtriangles.svg	6	yes	57	0	960	0	0			0	0			1				0	
6.6.1	win	2023-06-01	23:33:30	23:38:40	309289	63d77a647dbf6c0c53b0d375	3	1	main_slash	7	main_slash	63	stimuli_distractor_diamondtriangles.svg	stimuli_target_diamondsquares.svg	32	yes	53	1	401	0	0			0	0			1				0	
6.6.1	win	2023-06-01	23:33:30	23:38:40	309289	63d77a647dbf6c0c53b0d375	3	1	main_slash	7	advance_on_keypress_SLASH	64	stimuli_distractor_diamondtriangles.svg	stimuli_target_diamondsquares.svg	32	yes	57	0	832	0	0			0	0			1				0	
6.6.1	win	2023-06-01	23:33:30	23:38:42	311251	63d77a647dbf6c0c53b0d375	3	1	main_slash	7	main_slash	65	stimuli_target_trianglesquares.svg	stimuli_distractor_diamondtriangles.svg	22	yes	53	1	470	0	0			0	0			1				0	
6.6.1	win	2023-06-01	23:33:30	23:38:42	311251	63d77a647dbf6c0c53b0d375	3	1	main_slash	7	advance_on_keypress_SLASH	66	stimuli_target_trianglesquares.svg	stimuli_distractor_diamondtriangles.svg	22	yes	57	0	754	0	0			0	0			1				0	
6.6.1	win	2023-06-01	23:33:30	23:38:44	313112	63d77a647dbf6c0c53b0d375	3	1	main_slash	7	main_slash	67	stimuli_distractor_trianglediamonds.svg	stimuli_target_trianglesquares.svg	26	yes	53	1	458	0	0			0	0			1				0	
6.6.1	win	2023-06-01	23:33:30	23:38:44	313112	63d77a647dbf6c0c53b0d375	3	1	main_slash	7	advance_on_keypress_SLASH	68	stimuli_distractor_trianglediamonds.svg	stimuli_target_trianglesquares.svg	26	yes	57	0	632	0	0			0	0			1				0	
6.6.1	win	2023-06-01	23:33:30	23:38:46	314801	63d77a647dbf6c0c53b0d375	3	1	main_slash	7	main_slash	69	stimuli_target_squaretriangles.svg	stimuli_distractor_trianglediamonds.svg	3	yes	53	1	413	0	0			0	0			1				0	
6.6.1	win	2023-06-01	23:33:30	23:38:46	314801	63d77a647dbf6c0c53b0d375	3	1	main_slash	7	advance_on_keypress_SLASH	70	stimuli_target_squaretriangles.svg	stimuli_distractor_trianglediamonds.svg	3	yes	57	0	676	0	0			0	0			1				0	
6.6.1	win	2023-06-01	23:33:30	23:38:48	316522	63d77a647dbf6c0c53b0d375	3	1	main_slash	7	main_slash	71	stimuli_target_rectangletriangles.svg	stimuli_distractor_trianglediamonds.svg	1	yes	53	1	400	0	0			0	0			1				0	
6.6.1	win	2023-06-01	23:33:30	23:38:48	316522	63d77a647dbf6c0c53b0d375	3	1	main_slash	7	advance_on_keypress_SLASH	72	stimuli_target_rectangletriangles.svg	stimuli_distractor_trianglediamonds.svg	1	yes	57	0	687	0	0			0	0			1				0	
6.6.1	win	2023-06-01	23:33:30	23:38:49	318232	63d77a647dbf6c0c53b0d375	3	1	main_slash	7	main_slash	73	stimuli_distractor_trianglediamonds.svg	stimuli_target_rectanglediamonds.svg	10	yes	53	1	362	0	0			0	0			1				0	
6.6.1	win	2023-06-01	23:33:30	23:38:49	318232	63d77a647dbf6c0c53b0d375	3	1	main_slash	7	advance_on_keypress_SLASH	74	stimuli_distractor_trianglediamonds.svg	stimuli_target_rectanglediamonds.svg	10	yes	57	0	699	0	0			0	0			1				0	
6.6.1	win	2023-06-01	23:33:30	23:38:51	320039	63d77a647dbf6c0c53b0d375	3	1	main_slash	7	main_slash	75	stimuli_distractor_trianglediamonds.svg	stimuli_target_trianglerectangles.svg	25	yes	53	1	453	0	0			0	0			1				0	
6.6.1	win	2023-06-01	23:33:30	23:38:51	320039	63d77a647dbf6c0c53b0d375	3	1	main_slash	7	advance_on_keypress_SLASH	76	stimuli_distractor_trianglediamonds.svg	stimuli_target_trianglerectangles.svg	25	yes	57	0	698	0	0			0	0			1				0	
6.6.1	win	2023-06-01	23:33:30	23:38:53	322097	63d77a647dbf6c0c53b0d375	3	1	main_slash	7	main_slash	77	stimuli_target_squarediamonds.svg	stimuli_distractor_diamondtriangles.svg	8	yes	53	1	709	0	0			0	0			1				0	
6.6.1	win	2023-06-01	23:33:30	23:38:53	322097	63d77a647dbf6c0c53b0d375	3	1	main_slash	7	advance_on_keypress_SLASH	78	stimuli_target_squarediamonds.svg	stimuli_distractor_diamondtriangles.svg	8	yes	57	0	776	0	0			0	0			1				0	
6.6.1	win	2023-06-01	23:33:30	23:38:55	323872	63d77a647dbf6c0c53b0d375	3	1	main_slash	7	main_slash	79	stimuli_target_diamondrectangles.svg	stimuli_distractor_trianglediamonds.svg	19	yes	53	1	351	0	0			0	0			1				0	
6.6.1	win	2023-06-01	23:33:30	23:38:55	323872	63d77a647dbf6c0c53b0d375	3	1	main_slash	7	advance_on_keypress_SLASH	80	stimuli_target_diamondrectangles.svg	stimuli_distractor_trianglediamonds.svg	19	yes	57	0	929	0	0			0	0			1				0	
6.6.1	win	2023-06-01	23:33:30	23:38:57	325810	63d77a647dbf6c0c53b0d375	3	1	main_slash	7	main_slash	81	stimuli_distractor_trianglediamonds.svg	stimuli_target_diamondsquares.svg	28	yes	53	1	371	0	0			0	0			1				0	
6.6.1	win	2023-06-01	23:33:30	23:38:57	325810	63d77a647dbf6c0c53b0d375	3	1	main_slash	7	advance_on_keypress_SLASH	82	stimuli_distractor_trianglediamonds.svg	stimuli_target_diamondsquares.svg	28	yes	57	0	819	0	0			0	0			1				0	
6.6.1	win	2023-06-01	23:33:30	23:38:59	327705	63d77a647dbf6c0c53b0d375	3	1	main_slash	7	main_slash	83	stimuli_distractor_diamondtriangles.svg	stimuli_target_rectangletriangles.svg	13	yes	53	1	433	0	0			0	0			1				0	
6.6.1	win	2023-06-01	23:33:30	23:38:59	327705	63d77a647dbf6c0c53b0d375	3	1	main_slash	7	advance_on_keypress_SLASH	84	stimuli_distractor_diamondtriangles.svg	stimuli_target_rectangletriangles.svg	13	yes	57	0	663	0	0			0	0			1				0	
6.6.1	win	2023-06-01	23:33:30	23:39:02	331019	63d77a647dbf6c0c53b0d375	3	1	main_slash	7	main_slash	85	stimuli_target_diamondrectangles.svg	stimuli_distractor_diamondtriangles.svg	23	yes	0	0	2000	0	0			0	0			1				0	
6.6.1	win	2023-06-01	23:33:30	23:39:02	331019	63d77a647dbf6c0c53b0d375	3	1	main_slash	7	advance_on_keypress_SLASH	86	stimuli_target_diamondrectangles.svg	stimuli_distractor_diamondtriangles.svg	23	yes	57	0	618	0	0			0	0			1				0	
6.6.1	win	2023-06-01	23:33:30	23:39:04	332677	63d77a647dbf6c0c53b0d375	3	1	main_slash	7	main_slash	87	stimuli_target_diamondsquares.svg	stimuli_distractor_trianglediamonds.svg	20	yes	53	1	370	0	0			0	0			1				0	
6.6.1	win	2023-06-01	23:33:30	23:39:04	332677	63d77a647dbf6c0c53b0d375	3	1	main_slash	7	advance_on_keypress_SLASH	88	stimuli_target_diamondsquares.svg	stimuli_distractor_trianglediamonds.svg	20	yes	57	0	616	0	0			0	0			1				0	
6.6.1	win	2023-06-01	23:33:30	23:39:06	334377	63d77a647dbf6c0c53b0d375	3	1	main_slash	7	main_slash	89	stimuli_distractor_trianglediamonds.svg	stimuli_target_rectanglediamonds.svg	10	yes	53	1	438	0	0			0	0			1				0	
6.6.1	win	2023-06-01	23:33:30	23:39:06	334377	63d77a647dbf6c0c53b0d375	3	1	main_slash	7	advance_on_keypress_SLASH	90	stimuli_distractor_trianglediamonds.svg	stimuli_target_rectanglediamonds.svg	10	yes	57	0	716	0	0			0	0			1				0	
6.6.1	win	2023-06-01	23:33:30	23:39:07	336201	63d77a647dbf6c0c53b0d375	3	1	main_slash	7	main_slash	91	stimuli_distractor_diamondtriangles.svg	stimuli_target_rectanglediamonds.svg	14	yes	53	1	462	0	0			0	0			1				0	
6.6.1	win	2023-06-01	23:33:30	23:39:07	336201	63d77a647dbf6c0c53b0d375	3	1	main_slash	7	advance_on_keypress_SLASH	92	stimuli_distractor_diamondtriangles.svg	stimuli_target_rectanglediamonds.svg	14	yes	57	0	587	0	0			0	0			1				0	
6.6.1	win	2023-06-01	23:33:30	23:39:11	339432	63d77a647dbf6c0c53b0d375	3	1	main_slash	7	main_slash	93	stimuli_distractor_diamondtriangles.svg	stimuli_distractor_diamondtriangles.svg	40	no	0	1	2000	0	0			0	0			1				0	
6.6.1	win	2023-06-01	23:33:30	23:39:11	339432	63d77a647dbf6c0c53b0d375	3	1	main_slash	7	advance_on_keypress_SLASH	94	stimuli_distractor_diamondtriangles.svg	stimuli_distractor_diamondtriangles.svg	40	no	57	0	610	0	0			0	0			1				0	
6.6.1	win	2023-06-01	23:33:30	23:39:12	341112	63d77a647dbf6c0c53b0d375	3	1	main_slash	7	main_slash	95	stimuli_distractor_diamondtriangles.svg	stimuli_target_diamondsquares.svg	32	yes	53	1	408	0	0			0	0			1				0	
6.6.1	win	2023-06-01	23:33:30	23:39:12	341112	63d77a647dbf6c0c53b0d375	3	1	main_slash	7	advance_on_keypress_SLASH	96	stimuli_distractor_diamondtriangles.svg	stimuli_target_diamondsquares.svg	32	yes	57	0	630	0	0			0	0			1				0	
6.6.1	win	2023-06-01	23:33:30	23:39:16	344393	63d77a647dbf6c0c53b0d375	3	1	main_slash	7	main_slash	97	stimuli_distractor_trianglediamonds.svg	stimuli_distractor_diamondtriangles.svg	36	no	0	1	2000	0	0			0	0			1				0	
6.6.1	win	2023-06-01	23:33:30	23:39:16	344393	63d77a647dbf6c0c53b0d375	3	1	main_slash	7	advance_on_keypress_SLASH	98	stimuli_distractor_trianglediamonds.svg	stimuli_distractor_diamondtriangles.svg	36	no	57	0	467	0	0			0	0			1				0	
6.6.1	win	2023-06-01	23:33:30	23:39:17	346011	63d77a647dbf6c0c53b0d375	3	1	main_slash	7	main_slash	99	stimuli_distractor_trianglediamonds.svg	stimuli_target_rectangletriangles.svg	9	yes	53	1	503	0	0			0	0			1				0	
6.6.1	win	2023-06-01	23:33:30	23:39:17	346011	63d77a647dbf6c0c53b0d375	3	1	main_slash	7	advance_on_keypress_SLASH	100	stimuli_distractor_trianglediamonds.svg	stimuli_target_rectangletriangles.svg	9	yes	57	0	554	0	0			0	0			1				0	
6.6.1	win	2023-06-01	23:33:30	23:39:19	347714	63d77a647dbf6c0c53b0d375	3	1	main_slash	7	main_slash	101	stimuli_target_rectangletriangles.svg	stimuli_distractor_diamondtriangles.svg	5	yes	53	1	507	0	0			0	0			1				0	
6.6.1	win	2023-06-01	23:33:30	23:39:19	347714	63d77a647dbf6c0c53b0d375	3	1	main_slash	7	advance_on_keypress_SLASH	102	stimuli_target_rectangletriangles.svg	stimuli_distractor_diamondtriangles.svg	5	yes	57	0	678	0	0			0	0			1				0	
6.6.1	win	2023-06-01	23:33:30	23:39:22	351023	63d77a647dbf6c0c53b0d375	3	1	main_slash	7	main_slash	103	stimuli_distractor_trianglediamonds.svg	stimuli_distractor_trianglediamonds.svg	34	no	0	1	2000	0	0			0	0			1				0	
6.6.1	win	2023-06-01	23:33:30	23:39:22	351023	63d77a647dbf6c0c53b0d375	3	1	main_slash	7	advance_on_keypress_SLASH	104	stimuli_distractor_trianglediamonds.svg	stimuli_distractor_trianglediamonds.svg	34	no	57	0	673	0	0			0	0			1				0	
6.6.1	win	2023-06-01	23:33:30	23:39:24	352912	63d77a647dbf6c0c53b0d375	3	1	main_slash	7	main_slash	105	stimuli_distractor_diamondtriangles.svg	stimuli_target_trianglesquares.svg	30	yes	53	1	572	0	0			0	0			1				0	
6.6.1	win	2023-06-01	23:33:30	23:39:24	352912	63d77a647dbf6c0c53b0d375	3	1	main_slash	7	advance_on_keypress_SLASH	106	stimuli_distractor_diamondtriangles.svg	stimuli_target_trianglesquares.svg	30	yes	57	0	702	0	0			0	0			1				0	
6.6.1	win	2023-06-01	23:33:30	23:39:26	354832	63d77a647dbf6c0c53b0d375	3	1	main_slash	7	main_slash	107	stimuli_target_trianglerectangles.svg	stimuli_distractor_diamondtriangles.svg	21	yes	53	1	577	0	0			0	0			1				0	
6.6.1	win	2023-06-01	23:33:30	23:39:26	354832	63d77a647dbf6c0c53b0d375	3	1	main_slash	7	advance_on_keypress_SLASH	108	stimuli_target_trianglerectangles.svg	stimuli_distractor_diamondtriangles.svg	21	yes	57	0	777	0	0			0	0			1				0	
6.6.1	win	2023-06-01	23:33:30	23:39:28	356816	63d77a647dbf6c0c53b0d375	3	1	main_slash	7	main_slash	109	stimuli_distractor_trianglediamonds.svg	stimuli_target_diamondrectangles.svg	27	yes	53	1	561	0	0			0	0			1				0	
6.6.1	win	2023-06-01	23:33:30	23:39:28	356816	63d77a647dbf6c0c53b0d375	3	1	main_slash	7	advance_on_keypress_SLASH	110	stimuli_distractor_trianglediamonds.svg	stimuli_target_diamondrectangles.svg	27	yes	57	0	1122	0	0			0	0			1				0	
6.6.1	win	2023-06-01	23:33:30	23:39:32	360573	63d77a647dbf6c0c53b0d375	3	1	main_slash	7	main_slash	111	stimuli_target_trianglesquares.svg	stimuli_distractor_trianglediamonds.svg	18	yes	0	0	2000	0	0			0	0			1				0	
6.6.1	win	2023-06-01	23:33:30	23:39:32	360573	63d77a647dbf6c0c53b0d375	3	1	main_slash	7	advance_on_keypress_SLASH	112	stimuli_target_trianglesquares.svg	stimuli_distractor_trianglediamonds.svg	18	yes	57	0	2075	0	0			0	0			1				0	
6.6.1	win	2023-06-01	23:33:30	23:39:35	363830	63d77a647dbf6c0c53b0d375	3	1	main_slash	7	main_slash	113	stimuli_distractor_trianglediamonds.svg	stimuli_target_squarediamonds.svg	12	yes	53	1	527	0	0			0	0			1				0	
6.6.1	win	2023-06-01	23:33:30	23:39:35	363830	63d77a647dbf6c0c53b0d375	3	1	main_slash	7	advance_on_keypress_SLASH	114	stimuli_distractor_trianglediamonds.svg	stimuli_target_squarediamonds.svg	12	yes	57	0	473	0	0			0	0			1				0	
6.6.1	win	2023-06-01	23:33:30	23:39:38	366950	63d77a647dbf6c0c53b0d375	3	1	main_slash	7	main_slash	115	stimuli_target_trianglerectangles.svg	stimuli_distractor_trianglediamonds.svg	17	yes	0	0	2000	0	0			0	0			1				0	
6.6.1	win	2023-06-01	23:33:30	23:39:38	366950	63d77a647dbf6c0c53b0d375	3	1	main_slash	7	advance_on_keypress_SLASH	116	stimuli_target_trianglerectangles.svg	stimuli_distractor_trianglediamonds.svg	17	yes	57	0	308	0	0			0	0			1				0	
6.6.1	win	2023-06-01	23:33:30	23:39:39	368329	63d77a647dbf6c0c53b0d375	3	1	main_slash	7	main_slash	117	stimuli_target_rectangletriangles.svg	stimuli_distractor_trianglediamonds.svg	1	yes	53	1	422	0	0			0	0			1				0	
6.6.1	win	2023-06-01	23:33:30	23:39:39	368329	63d77a647dbf6c0c53b0d375	3	1	main_slash	7	advance_on_keypress_SLASH	118	stimuli_target_rectangletriangles.svg	stimuli_distractor_trianglediamonds.svg	1	yes	57	0	445	0	0			0	0			1				0	
6.6.1	win	2023-06-01	23:33:30	23:39:41	369829	63d77a647dbf6c0c53b0d375	3	1	main_slash	7	main_slash	119	stimuli_distractor_diamondtriangles.svg	stimuli_target_squaretriangles.svg	15	yes	53	1	410	0	0			0	0			1				0	
6.6.1	win	2023-06-01	23:33:30	23:39:41	369829	63d77a647dbf6c0c53b0d375	3	1	main_slash	7	advance_on_keypress_SLASH	120	stimuli_distractor_diamondtriangles.svg	stimuli_target_squaretriangles.svg	15	yes	57	0	433	0	0			0	0			1				0	
6.6.1	win	2023-06-01	23:33:30	23:39:44	372907	63d77a647dbf6c0c53b0d375	3	1	main_slash	7	main_slash	121	stimuli_distractor_diamondtriangles.svg	stimuli_distractor_trianglediamonds.svg	38	no	0	1	2000	0	0			0	0			1				0	
6.6.1	win	2023-06-01	23:33:30	23:39:44	372907	63d77a647dbf6c0c53b0d375	3	1	main_slash	7	advance_on_keypress_SLASH	122	stimuli_distractor_diamondtriangles.svg	stimuli_distractor_trianglediamonds.svg	38	no	57	0	405	0	0			0	0			1				0	
6.6.1	win	2023-06-01	23:33:30	23:39:45	374314	63d77a647dbf6c0c53b0d375	3	1	main_slash	7	main_slash	123	stimuli_distractor_diamondtriangles.svg	stimuli_target_squarediamonds.svg	16	yes	53	1	355	0	0			0	0			1				0	
6.6.1	win	2023-06-01	23:33:30	23:39:45	374314	63d77a647dbf6c0c53b0d375	3	1	main_slash	7	advance_on_keypress_SLASH	124	stimuli_distractor_diamondtriangles.svg	stimuli_target_squarediamonds.svg	16	yes	57	0	437	0	0			0	0			1				0	
6.6.1	win	2023-06-01	23:33:30	23:39:49	377391	63d77a647dbf6c0c53b0d375	3	1	main_slash	7	main_slash	125	stimuli_distractor_diamondtriangles.svg	stimuli_distractor_diamondtriangles.svg	39	no	0	1	2000	0	0			0	0			1				0	
6.6.1	win	2023-06-01	23:33:30	23:39:49	377391	63d77a647dbf6c0c53b0d375	3	1	main_slash	7	advance_on_keypress_SLASH	126	stimuli_distractor_diamondtriangles.svg	stimuli_distractor_diamondtriangles.svg	39	no	57	0	410	0	0			0	0			1				0	
6.6.1	win	2023-06-01	23:33:30	23:39:50	378815	63d77a647dbf6c0c53b0d375	3	1	main_slash	7	main_slash	127	stimuli_target_trianglesquares.svg	stimuli_distractor_diamondtriangles.svg	22	yes	53	1	369	0	0			0	0			1				0	
6.6.1	win	2023-06-01	23:33:30	23:39:50	378815	63d77a647dbf6c0c53b0d375	3	1	main_slash	7	advance_on_keypress_SLASH	128	stimuli_target_trianglesquares.svg	stimuli_distractor_diamondtriangles.svg	22	yes	57	0	713	0	0			0	0			1				0	
6.6.1	win	2023-06-01	23:33:30	23:39:52	380633	63d77a647dbf6c0c53b0d375	3	1	main_slash	7	main_slash	129	stimuli_target_rectanglediamonds.svg	stimuli_distractor_trianglediamonds.svg	2	yes	53	1	459	0	0			0	0			1				0	
6.6.1	win	2023-06-01	23:33:30	23:39:52	380633	63d77a647dbf6c0c53b0d375	3	1	main_slash	7	advance_on_keypress_SLASH	130	stimuli_target_rectanglediamonds.svg	stimuli_distractor_trianglediamonds.svg	2	yes	57	0	848	0	0			0	0			1				0	
6.6.1	win	2023-06-01	23:33:30	23:39:55	384124	63d77a647dbf6c0c53b0d375	3	1	main_slash	7	main_slash	131	stimuli_distractor_diamondtriangles.svg	stimuli_distractor_trianglediamonds.svg	37	no	0	1	2000	0	0			0	0			1				0	
6.6.1	win	2023-06-01	23:33:30	23:39:55	384124	63d77a647dbf6c0c53b0d375	3	1	main_slash	7	advance_on_keypress_SLASH	132	stimuli_distractor_diamondtriangles.svg	stimuli_distractor_trianglediamonds.svg	37	no	57	0	532	0	0			0	0			1				0	
6.6.1	win	2023-06-01	23:33:30	23:39:57	385745	63d77a647dbf6c0c53b0d375	3	1	main_slash	7	main_slash	133	stimuli_target_diamondrectangles.svg	stimuli_distractor_trianglediamonds.svg	19	yes	53	1	437	0	0			0	0			1				0	
6.6.1	win	2023-06-01	23:33:30	23:39:57	385745	63d77a647dbf6c0c53b0d375	3	1	main_slash	7	advance_on_keypress_SLASH	134	stimuli_target_diamondrectangles.svg	stimuli_distractor_trianglediamonds.svg	19	yes	57	0	619	0	0			0	0			1				0	
6.6.1	win	2023-06-01	23:33:30	23:39:59	387393	63d77a647dbf6c0c53b0d375	3	1	main_slash	7	main_slash	135	stimuli_distractor_diamondtriangles.svg	stimuli_target_diamondrectangles.svg	31	yes	53	1	385	0	0			0	0			1				0	
6.6.1	win	2023-06-01	23:33:30	23:39:59	387393	63d77a647dbf6c0c53b0d375	3	1	main_slash	7	advance_on_keypress_SLASH	136	stimuli_distractor_diamondtriangles.svg	stimuli_target_diamondrectangles.svg	31	yes	57	0	441	0	0			0	0			1				0	
6.6.1	win	2023-06-01	23:33:30	23:40:00	388888	63d77a647dbf6c0c53b0d375	3	1	main_slash	7	main_slash	137	stimuli_distractor_trianglediamonds.svg	stimuli_target_trianglerectangles.svg	25	yes	53	1	414	0	0			0	0			1				0	
6.6.1	win	2023-06-01	23:33:30	23:40:00	388888	63d77a647dbf6c0c53b0d375	3	1	main_slash	7	advance_on_keypress_SLASH	138	stimuli_distractor_trianglediamonds.svg	stimuli_target_trianglerectangles.svg	25	yes	57	0	445	0	0			0	0			1				0	
6.6.1	win	2023-06-01	23:33:30	23:40:02	390416	63d77a647dbf6c0c53b0d375	3	1	main_slash	7	main_slash	139	stimuli_target_squarediamonds.svg	stimuli_distractor_diamondtriangles.svg	8	yes	53	1	443	0	0			0	0			1				0	
6.6.1	win	2023-06-01	23:33:30	23:40:02	390416	63d77a647dbf6c0c53b0d375	3	1	main_slash	7	advance_on_keypress_SLASH	140	stimuli_target_squarediamonds.svg	stimuli_distractor_diamondtriangles.svg	8	yes	57	0	585	0	0			0	0			1				0	
6.6.1	win	2023-06-01	23:33:30	23:40:03	392057	63d77a647dbf6c0c53b0d375	3	1	main_slash	7	main_slash	141	stimuli_target_squaretriangles.svg	stimuli_distractor_diamondtriangles.svg	7	yes	53	1	416	0	0			0	0			1				0	
6.6.1	win	2023-06-01	23:33:30	23:40:03	392057	63d77a647dbf6c0c53b0d375	3	1	main_slash	7	advance_on_keypress_SLASH	142	stimuli_target_squaretriangles.svg	stimuli_distractor_diamondtriangles.svg	7	yes	57	0	455	0	0			0	0			1				0	
6.6.1	win	2023-06-01	23:33:30	23:40:05	393773	63d77a647dbf6c0c53b0d375	3	1	main_slash	7	main_slash	143	stimuli_target_diamondsquares.svg	stimuli_distractor_diamondtriangles.svg	24	yes	53	1	603	0	0			0	0			1				0	
6.6.1	win	2023-06-01	23:33:30	23:40:05	393773	63d77a647dbf6c0c53b0d375	3	1	main_slash	7	advance_on_keypress_SLASH	144	stimuli_target_diamondsquares.svg	stimuli_distractor_diamondtriangles.svg	24	yes	57	0	1202	0	0			0	0			1				0	
6.6.1	win	2023-06-01	23:33:30	23:40:09	397638	63d77a647dbf6c0c53b0d375	3	1	main_slash	7	main_slash	145	stimuli_distractor_trianglediamonds.svg	stimuli_distractor_diamondtriangles.svg	35	no	0	1	2000	0	0			0	0			1				0	
6.6.1	win	2023-06-01	23:33:30	23:40:09	397638	63d77a647dbf6c0c53b0d375	3	1	main_slash	7	advance_on_keypress_SLASH	146	stimuli_distractor_trianglediamonds.svg	stimuli_distractor_diamondtriangles.svg	35	no	57	0	416	0	0			0	0			1				0	
6.6.1	win	2023-06-01	23:33:30	23:40:10	399225	63d77a647dbf6c0c53b0d375	3	1	main_slash	7	main_slash	147	stimuli_target_squaretriangles.svg	stimuli_distractor_trianglediamonds.svg	3	yes	53	1	533	0	0			0	0			1				0	
6.6.1	win	2023-06-01	23:33:30	23:40:10	399225	63d77a647dbf6c0c53b0d375	3	1	main_slash	7	advance_on_keypress_SLASH	148	stimuli_target_squaretriangles.svg	stimuli_distractor_trianglediamonds.svg	3	yes	57	0	720	0	0			0	0			1				0	
6.6.1	win	2023-06-01	23:33:30	23:40:12	401072	63d77a647dbf6c0c53b0d375	3	1	main_slash	7	main_slash	149	stimuli_target_rectanglediamonds.svg	stimuli_distractor_diamondtriangles.svg	6	yes	53	1	481	0	0			0	0			1				0	
6.6.1	win	2023-06-01	23:33:30	23:40:12	401072	63d77a647dbf6c0c53b0d375	3	1	main_slash	7	advance_on_keypress_SLASH	150	stimuli_target_rectanglediamonds.svg	stimuli_distractor_diamondtriangles.svg	6	yes	57	0	444	0	0			0	0			1				0	
6.6.1	win	2023-06-01	23:33:30	23:40:15	404159	63d77a647dbf6c0c53b0d375	3	1	main_slash	7	main_slash	151	stimuli_distractor_trianglediamonds.svg	stimuli_distractor_trianglediamonds.svg	33	no	0	1	2000	0	0			0	0			1				0	
6.6.1	win	2023-06-01	23:33:30	23:40:15	404159	63d77a647dbf6c0c53b0d375	3	1	main_slash	7	advance_on_keypress_SLASH	152	stimuli_distractor_trianglediamonds.svg	stimuli_distractor_trianglediamonds.svg	33	no	57	0	370	0	0			0	0			1				0	
6.6.1	win	2023-06-01	23:33:30	23:40:17	405744	63d77a647dbf6c0c53b0d375	3	1	main_slash	7	main_slash	153	stimuli_distractor_diamondtriangles.svg	stimuli_target_trianglerectangles.svg	29	yes	53	1	570	0	0			0	0			1				0	
6.6.1	win	2023-06-01	23:33:30	23:40:17	405744	63d77a647dbf6c0c53b0d375	3	1	main_slash	7	advance_on_keypress_SLASH	154	stimuli_distractor_diamondtriangles.svg	stimuli_target_trianglerectangles.svg	29	yes	57	0	482	0	0			0	0			1				0	
6.6.1	win	2023-06-01	23:33:30	23:40:18	407302	63d77a647dbf6c0c53b0d375	3	1	main_slash	7	main_slash	155	stimuli_distractor_trianglediamonds.svg	stimuli_target_trianglesquares.svg	26	yes	53	1	414	0	0			0	0			1				0	
6.6.1	win	2023-06-01	23:33:30	23:40:18	407302	63d77a647dbf6c0c53b0d375	3	1	main_slash	7	advance_on_keypress_SLASH	156	stimuli_distractor_trianglediamonds.svg	stimuli_target_trianglesquares.svg	26	yes	57	0	356	0	0			0	0			1				0	
6.6.1	win	2023-06-01	23:33:30	23:40:20	408680	63d77a647dbf6c0c53b0d375	3	1	main_slash	7	main_slash	157	stimuli_target_squarediamonds.svg	stimuli_distractor_trianglediamonds.svg	4	yes	53	1	372	0	0			0	0			1				0	
6.6.1	win	2023-06-01	23:33:30	23:40:20	408680	63d77a647dbf6c0c53b0d375	3	1	main_slash	7	advance_on_keypress_SLASH	158	stimuli_target_squarediamonds.svg	stimuli_distractor_trianglediamonds.svg	4	yes	57	0	437	0	0			0	0			1				0	
6.6.1	win	2023-06-01	23:33:30	23:40:21	410203	63d77a647dbf6c0c53b0d375	3	1	main_slash	7	main_slash	159	stimuli_distractor_trianglediamonds.svg	stimuli_target_squaretriangles.svg	11	yes	53	1	426	0	0			0	0			1				0	
6.6.1	win	2023-06-01	23:33:30	23:40:21	410203	63d77a647dbf6c0c53b0d375	3	1	main_slash	7	advance_on_keypress_SLASH	160	stimuli_distractor_trianglediamonds.svg	stimuli_target_squaretriangles.svg	11	yes	57	0	368	0	0			0	0			1				0	
6.6.1	win	2023-06-01	23:33:30	23:40:40	428451	63d77a647dbf6c0c53b0d375	3	1	practice_z	9	practice_z	1	stimuli_distractor_diamondtriangles.svg	stimuli_target_diamondrectangles.svg	8	yes	44	1	389	0	0			0	0			1				0	
6.6.1	win	2023-06-01	23:33:30	23:40:40	428451	63d77a647dbf6c0c53b0d375	3	1	practice_z	9	advance_on_keypress_ZEE	2	stimuli_distractor_diamondtriangles.svg	stimuli_target_diamondrectangles.svg	8	yes	57	0	462	0	0			0	0			1				0	
6.6.1	win	2023-06-01	23:33:30	23:40:42	430906	63d77a647dbf6c0c53b0d375	3	1	practice_z	9	practice_z	3	stimuli_distractor_trianglediamonds.svg	stimuli_target_squarediamonds.svg	11	yes	44	1	346	0	0			0	0			1				0	
6.6.1	win	2023-06-01	23:33:30	23:40:42	430906	63d77a647dbf6c0c53b0d375	3	1	practice_z	9	advance_on_keypress_ZEE	4	stimuli_distractor_trianglediamonds.svg	stimuli_target_squarediamonds.svg	11	yes	57	0	412	0	0			0	0			1				0	
6.6.1	win	2023-06-01	23:33:30	23:40:44	433290	63d77a647dbf6c0c53b0d375	3	1	practice_z	9	practice_z	5	stimuli_distractor_trianglediamonds.svg	stimuli_target_diamondrectangles.svg	12	yes	44	1	328	0	0			0	0			1				0	
6.6.1	win	2023-06-01	23:33:30	23:40:44	433290	63d77a647dbf6c0c53b0d375	3	1	practice_z	9	advance_on_keypress_ZEE	6	stimuli_distractor_trianglediamonds.svg	stimuli_target_diamondrectangles.svg	12	yes	57	0	460	0	0			0	0			1				0	
6.6.1	win	2023-06-01	23:33:30	23:40:47	435769	63d77a647dbf6c0c53b0d375	3	1	practice_z	9	practice_z	7	stimuli_distractor_trianglediamonds.svg	stimuli_distractor_trianglediamonds.svg	15	no	44	0	393	0	0			0	0			1				0	
6.6.1	win	2023-06-01	23:33:30	23:40:47	435769	63d77a647dbf6c0c53b0d375	3	1	practice_z	9	advance_on_keypress_ZEE	8	stimuli_distractor_trianglediamonds.svg	stimuli_distractor_trianglediamonds.svg	15	no	57	0	457	0	0			0	0			1				0	
6.6.1	win	2023-06-01	23:33:30	23:40:49	438260	63d77a647dbf6c0c53b0d375	3	1	practice_z	9	practice_z	9	stimuli_distractor_diamondtriangles.svg	stimuli_target_rectangletriangles.svg	7	yes	44	1	373	0	0			0	0			1				0	
6.6.1	win	2023-06-01	23:33:30	23:40:49	438260	63d77a647dbf6c0c53b0d375	3	1	practice_z	9	advance_on_keypress_ZEE	10	stimuli_distractor_diamondtriangles.svg	stimuli_target_rectangletriangles.svg	7	yes	57	0	381	0	0			0	0			1				0	
6.6.1	win	2023-06-01	23:33:30	23:40:53	442286	63d77a647dbf6c0c53b0d375	3	1	practice_z	9	practice_z	11	stimuli_distractor_diamondtriangles.svg	stimuli_distractor_trianglediamonds.svg	14	no	0	1	2000	0	0			0	0			1				0	
6.6.1	win	2023-06-01	23:33:30	23:40:53	442286	63d77a647dbf6c0c53b0d375	3	1	practice_z	9	advance_on_keypress_ZEE	12	stimuli_distractor_diamondtriangles.svg	stimuli_distractor_trianglediamonds.svg	14	no	57	0	444	0	0			0	0			1				0	
6.6.1	win	2023-06-01	23:33:30	23:40:56	444827	63d77a647dbf6c0c53b0d375	3	1	practice_z	9	practice_z	13	stimuli_distractor_trianglediamonds.svg	stimuli_distractor_diamondtriangles.svg	16	no	44	0	447	0	0			0	0			1				0	
6.6.1	win	2023-06-01	23:33:30	23:40:56	444827	63d77a647dbf6c0c53b0d375	3	1	practice_z	9	advance_on_keypress_ZEE	14	stimuli_distractor_trianglediamonds.svg	stimuli_distractor_diamondtriangles.svg	16	no	57	0	550	0	0			0	0			1				0	
6.6.1	win	2023-06-01	23:33:30	23:40:59	447458	63d77a647dbf6c0c53b0d375	3	1	practice_z	9	practice_z	15	stimuli_target_diamondsquares.svg	stimuli_distractor_trianglediamonds.svg	6	yes	44	1	430	0	0			0	0			1				0	
6.6.1	win	2023-06-01	23:33:30	23:40:59	447458	63d77a647dbf6c0c53b0d375	3	1	practice_z	9	advance_on_keypress_ZEE	16	stimuli_target_diamondsquares.svg	stimuli_distractor_trianglediamonds.svg	6	yes	57	0	444	0	0			0	0			1				0	
6.6.1	win	2023-06-01	23:33:30	23:41:01	449874	63d77a647dbf6c0c53b0d375	3	1	practice_z	9	practice_z	17	stimuli_target_rectanglediamonds.svg	stimuli_distractor_diamondtriangles.svg	1	yes	44	1	330	0	0			0	0			1				0	
6.6.1	win	2023-06-01	23:33:30	23:41:01	449874	63d77a647dbf6c0c53b0d375	3	1	practice_z	9	advance_on_keypress_ZEE	18	stimuli_target_rectanglediamonds.svg	stimuli_distractor_diamondtriangles.svg	1	yes	57	0	524	0	0			0	0			1				0	
6.6.1	win	2023-06-01	23:33:30	23:41:04	452498	63d77a647dbf6c0c53b0d375	3	1	practice_z	9	practice_z	19	stimuli_distractor_diamondtriangles.svg	stimuli_distractor_diamondtriangles.svg	13	no	44	0	453	0	0			0	0			1				0	
6.6.1	win	2023-06-01	23:33:30	23:41:04	452498	63d77a647dbf6c0c53b0d375	3	1	practice_z	9	advance_on_keypress_ZEE	20	stimuli_distractor_diamondtriangles.svg	stimuli_distractor_diamondtriangles.svg	13	no	57	0	355	0	0			0	0			1				0	
6.6.1	win	2023-06-01	23:33:30	23:41:07	455474	63d77a647dbf6c0c53b0d375	3	1	practice_z	9	practice_z	21	stimuli_distractor_diamondtriangles.svg	stimuli_target_trianglerectangles.svg	9	yes	44	1	962	0	0			0	0			1				0	
6.6.1	win	2023-06-01	23:33:30	23:41:07	455474	63d77a647dbf6c0c53b0d375	3	1	practice_z	9	advance_on_keypress_ZEE	22	stimuli_distractor_diamondtriangles.svg	stimuli_target_trianglerectangles.svg	9	yes	57	0	515	0	0			0	0			1				0	
6.6.1	win	2023-06-01	23:33:30	23:41:09	457974	63d77a647dbf6c0c53b0d375	3	1	practice_z	9	practice_z	23	stimuli_target_rectanglediamonds.svg	stimuli_distractor_trianglediamonds.svg	4	yes	44	1	327	0	0			0	0			1				0	
6.6.1	win	2023-06-01	23:33:30	23:41:09	457974	63d77a647dbf6c0c53b0d375	3	1	practice_z	9	advance_on_keypress_ZEE	24	stimuli_target_rectanglediamonds.svg	stimuli_distractor_trianglediamonds.svg	4	yes	57	0	472	0	0			0	0			1				0	
6.6.1	win	2023-06-01	23:33:30	23:41:12	460577	63d77a647dbf6c0c53b0d375	3	1	practice_z	9	practice_z	25	stimuli_target_squarediamonds.svg	stimuli_distractor_diamondtriangles.svg	2	yes	44	1	476	0	0			0	0			1				0	
6.6.1	win	2023-06-01	23:33:30	23:41:12	460577	63d77a647dbf6c0c53b0d375	3	1	practice_z	9	advance_on_keypress_ZEE	26	stimuli_target_squarediamonds.svg	stimuli_distractor_diamondtriangles.svg	2	yes	57	0	471	0	0			0	0			1				0	
6.6.1	win	2023-06-01	23:33:30	23:41:14	463154	63d77a647dbf6c0c53b0d375	3	1	practice_z	9	practice_z	27	stimuli_target_squarediamonds.svg	stimuli_distractor_trianglediamonds.svg	5	yes	44	1	442	0	0			0	0			1				0	
6.6.1	win	2023-06-01	23:33:30	23:41:14	463154	63d77a647dbf6c0c53b0d375	3	1	practice_z	9	advance_on_keypress_ZEE	28	stimuli_target_squarediamonds.svg	stimuli_distractor_trianglediamonds.svg	5	yes	57	0	488	0	0			0	0			1				0	
6.6.1	win	2023-06-01	23:33:30	23:41:17	466282	63d77a647dbf6c0c53b0d375	3	1	practice_z	9	practice_z	29	stimuli_target_diamondsquares.svg	stimuli_distractor_diamondtriangles.svg	3	yes	44	1	987	0	0			0	0			1				0	
6.6.1	win	2023-06-01	23:33:30	23:41:17	466282	63d77a647dbf6c0c53b0d375	3	1	practice_z	9	advance_on_keypress_ZEE	30	stimuli_target_diamondsquares.svg	stimuli_distractor_diamondtriangles.svg	3	yes	57	0	451	0	0			0	0			1				0	
6.6.1	win	2023-06-01	23:33:30	23:41:20	468768	63d77a647dbf6c0c53b0d375	3	1	practice_z	9	practice_z	31	stimuli_distractor_trianglediamonds.svg	stimuli_target_rectanglediamonds.svg	10	yes	44	1	367	0	0			0	0			1				0	
6.6.1	win	2023-06-01	23:33:30	23:41:20	468768	63d77a647dbf6c0c53b0d375	3	1	practice_z	9	advance_on_keypress_ZEE	32	stimuli_distractor_trianglediamonds.svg	stimuli_target_rectanglediamonds.svg	10	yes	57	0	423	0	0			0	0			1				0	
6.6.1	win	2023-06-01	23:33:30	23:41:24	472856	63d77a647dbf6c0c53b0d375	3	1	main_z	11	main_z	1	stimuli_distractor_trianglediamonds.svg	stimuli_distractor_diamondtriangles.svg	35	no	44	0	554	0	0			0	0			1				0	
6.6.1	win	2023-06-01	23:33:30	23:41:24	472856	63d77a647dbf6c0c53b0d375	3	1	main_z	11	advance_on_keypress_ZEE	2	stimuli_distractor_trianglediamonds.svg	stimuli_distractor_diamondtriangles.svg	35	no	57	0	868	0	0			0	0			1				0	
6.6.1	win	2023-06-01	23:33:30	23:41:26	474736	63d77a647dbf6c0c53b0d375	3	1	main_z	11	main_z	3	stimuli_distractor_trianglediamonds.svg	stimuli_target_trianglerectangles.svg	25	yes	44	1	376	0	0			0	0			1				0	
6.6.1	win	2023-06-01	23:33:30	23:41:26	474736	63d77a647dbf6c0c53b0d375	3	1	main_z	11	advance_on_keypress_ZEE	4	stimuli_distractor_trianglediamonds.svg	stimuli_target_trianglerectangles.svg	25	yes	57	0	656	0	0			0	0			1				0	
6.6.1	win	2023-06-01	23:33:30	23:41:29	478045	63d77a647dbf6c0c53b0d375	3	1	main_z	11	main_z	5	stimuli_distractor_diamondtriangles.svg	stimuli_distractor_trianglediamonds.svg	38	no	0	1	2000	0	0			0	0			1				0	
6.6.1	win	2023-06-01	23:33:30	23:41:29	478045	63d77a647dbf6c0c53b0d375	3	1	main_z	11	advance_on_keypress_ZEE	6	stimuli_distractor_diamondtriangles.svg	stimuli_distractor_trianglediamonds.svg	38	no	57	0	363	0	0			0	0			1				0	
6.6.1	win	2023-06-01	23:33:30	23:41:31	479456	63d77a647dbf6c0c53b0d375	3	1	main_z	11	main_z	7	stimuli_distractor_trianglediamonds.svg	stimuli_target_squarediamonds.svg	12	yes	44	1	395	0	0			0	0			1				0	
6.6.1	win	2023-06-01	23:33:30	23:41:31	479456	63d77a647dbf6c0c53b0d375	3	1	main_z	11	advance_on_keypress_ZEE	8	stimuli_distractor_trianglediamonds.svg	stimuli_target_squarediamonds.svg	12	yes	57	0	652	0	0			0	0			1				0	
6.6.1	win	2023-06-01	23:33:30	23:41:32	481147	63d77a647dbf6c0c53b0d375	3	1	main_z	11	main_z	9	stimuli_distractor_trianglediamonds.svg	stimuli_target_rectanglediamonds.svg	10	yes	44	1	400	0	0			0	0			1				0	
6.6.1	win	2023-06-01	23:33:30	23:41:32	481147	63d77a647dbf6c0c53b0d375	3	1	main_z	11	advance_on_keypress_ZEE	10	stimuli_distractor_trianglediamonds.svg	stimuli_target_rectanglediamonds.svg	10	yes	57	0	463	0	0			0	0			1				0	
6.6.1	win	2023-06-01	23:33:30	23:41:34	482849	63d77a647dbf6c0c53b0d375	3	1	main_z	11	main_z	11	stimuli_target_diamondsquares.svg	stimuli_distractor_trianglediamonds.svg	20	yes	44	1	604	0	0			0	0			1				0	
6.6.1	win	2023-06-01	23:33:30	23:41:34	482849	63d77a647dbf6c0c53b0d375	3	1	main_z	11	advance_on_keypress_ZEE	12	stimuli_target_diamondsquares.svg	stimuli_distractor_trianglediamonds.svg	20	yes	57	0	587	0	0			0	0			1				0	
6.6.1	win	2023-06-01	23:33:30	23:41:37	486081	63d77a647dbf6c0c53b0d375	3	1	main_z	11	main_z	13	stimuli_distractor_trianglediamonds.svg	stimuli_distractor_trianglediamonds.svg	33	no	0	1	2000	0	0			0	0			1				0	
6.6.1	win	2023-06-01	23:33:30	23:41:37	486081	63d77a647dbf6c0c53b0d375	3	1	main_z	11	advance_on_keypress_ZEE	14	stimuli_distractor_trianglediamonds.svg	stimuli_distractor_trianglediamonds.svg	33	no	57	0	434	0	0			0	0			1				0	
6.6.1	win	2023-06-01	23:33:30	23:41:39	487602	63d77a647dbf6c0c53b0d375	3	1	main_z	11	main_z	15	stimuli_distractor_trianglediamonds.svg	stimuli_target_rectangletriangles.svg	9	yes	44	1	431	0	0			0	0			1				0	
6.6.1	win	2023-06-01	23:33:30	23:41:39	487602	63d77a647dbf6c0c53b0d375	3	1	main_z	11	advance_on_keypress_ZEE	16	stimuli_distractor_trianglediamonds.svg	stimuli_target_rectangletriangles.svg	9	yes	57	0	701	0	0			0	0			1				0	
6.6.1	win	2023-06-01	23:33:30	23:41:41	489361	63d77a647dbf6c0c53b0d375	3	1	main_z	11	main_z	17	stimuli_target_rectangletriangles.svg	stimuli_distractor_diamondtriangles.svg	5	yes	44	1	416	0	0			0	0			1				0	
6.6.1	win	2023-06-01	23:33:30	23:41:41	489361	63d77a647dbf6c0c53b0d375	3	1	main_z	11	advance_on_keypress_ZEE	18	stimuli_target_rectangletriangles.svg	stimuli_distractor_diamondtriangles.svg	5	yes	57	0	709	0	0			0	0			1				0	
6.6.1	win	2023-06-01	23:33:30	23:41:44	492712	63d77a647dbf6c0c53b0d375	3	1	main_z	11	main_z	19	stimuli_target_trianglerectangles.svg	stimuli_distractor_trianglediamonds.svg	17	yes	0	0	2000	0	0			0	0			1				0	
6.6.1	win	2023-06-01	23:33:30	23:41:44	492712	63d77a647dbf6c0c53b0d375	3	1	main_z	11	advance_on_keypress_ZEE	20	stimuli_target_trianglerectangles.svg	stimuli_distractor_trianglediamonds.svg	17	yes	57	0	319	0	0			0	0			1				0	
6.6.1	win	2023-06-01	23:33:30	23:41:45	494137	63d77a647dbf6c0c53b0d375	3	1	main_z	11	main_z	21	stimuli_distractor_trianglediamonds.svg	stimuli_target_trianglesquares.svg	26	yes	44	1	458	0	0			0	0			1				0	
6.6.1	win	2023-06-01	23:33:30	23:41:45	494137	63d77a647dbf6c0c53b0d375	3	1	main_z	11	advance_on_keypress_ZEE	22	stimuli_distractor_trianglediamonds.svg	stimuli_target_trianglesquares.svg	26	yes	57	0	704	0	0			0	0			1				0	
6.6.1	win	2023-06-01	23:33:30	23:41:47	495952	63d77a647dbf6c0c53b0d375	3	1	main_z	11	main_z	23	stimuli_distractor_diamondtriangles.svg	stimuli_target_trianglesquares.svg	30	yes	44	1	474	0	0			0	0			1				0	
6.6.1	win	2023-06-01	23:33:30	23:41:47	495952	63d77a647dbf6c0c53b0d375	3	1	main_z	11	advance_on_keypress_ZEE	24	stimuli_distractor_diamondtriangles.svg	stimuli_target_trianglesquares.svg	30	yes	57	0	534	0	0			0	0			1				0	
6.6.1	win	2023-06-01	23:33:30	23:41:50	499129	63d77a647dbf6c0c53b0d375	3	1	main_z	11	main_z	25	stimuli_distractor_diamondtriangles.svg	stimuli_distractor_diamondtriangles.svg	39	no	0	1	2000	0	0			0	0			1				0	
6.6.1	win	2023-06-01	23:33:30	23:41:50	499129	63d77a647dbf6c0c53b0d375	3	1	main_z	11	advance_on_keypress_ZEE	26	stimuli_distractor_diamondtriangles.svg	stimuli_distractor_diamondtriangles.svg	39	no	57	0	382	0	0			0	0			1				0	
6.6.1	win	2023-06-01	23:33:30	23:41:53	502161	63d77a647dbf6c0c53b0d375	3	1	main_z	11	main_z	27	stimuli_distractor_diamondtriangles.svg	stimuli_target_squaretriangles.svg	15	yes	44	1	1999	0	0			0	0			1				0	
6.6.1	win	2023-06-01	23:33:30	23:41:53	502161	63d77a647dbf6c0c53b0d375	3	1	main_z	11	advance_on_keypress_ZEE	28	stimuli_distractor_diamondtriangles.svg	stimuli_target_squaretriangles.svg	15	yes	57	0	974	0	0			0	0			1				0	
6.6.1	win	2023-06-01	23:33:30	23:41:55	504233	63d77a647dbf6c0c53b0d375	3	1	main_z	11	main_z	29	stimuli_target_trianglerectangles.svg	stimuli_distractor_diamondtriangles.svg	21	yes	44	1	437	0	0			0	0			1				0	
6.6.1	win	2023-06-01	23:33:30	23:41:55	504233	63d77a647dbf6c0c53b0d375	3	1	main_z	11	advance_on_keypress_ZEE	30	stimuli_target_trianglerectangles.svg	stimuli_distractor_diamondtriangles.svg	21	yes	57	0	514	0	0			0	0			1				0	
6.6.1	win	2023-06-01	23:33:30	23:41:57	505770	63d77a647dbf6c0c53b0d375	3	1	main_z	11	main_z	31	stimuli_target_squarediamonds.svg	stimuli_distractor_diamondtriangles.svg	8	yes	44	1	373	0	0			0	0			1				0	
6.6.1	win	2023-06-01	23:33:30	23:41:57	505770	63d77a647dbf6c0c53b0d375	3	1	main_z	11	advance_on_keypress_ZEE	32	stimuli_target_squarediamonds.svg	stimuli_distractor_diamondtriangles.svg	8	yes	57	0	774	0	0			0	0			1				0	
6.6.1	win	2023-06-01	23:33:30	23:41:59	507742	63d77a647dbf6c0c53b0d375	3	1	main_z	11	main_z	33	stimuli_target_diamondrectangles.svg	stimuli_distractor_trianglediamonds.svg	19	yes	44	1	541	0	0			0	0			1				0	
6.6.1	win	2023-06-01	23:33:30	23:41:59	507742	63d77a647dbf6c0c53b0d375	3	1	main_z	11	advance_on_keypress_ZEE	34	stimuli_target_diamondrectangles.svg	stimuli_distractor_trianglediamonds.svg	19	yes	57	0	527	0	0			0	0			1				0	
6.6.1	win	2023-06-01	23:33:30	23:42:00	509330	63d77a647dbf6c0c53b0d375	3	1	main_z	11	main_z	35	stimuli_distractor_diamondtriangles.svg	stimuli_target_trianglerectangles.svg	29	yes	44	1	408	0	0			0	0			1				0	
6.6.1	win	2023-06-01	23:33:30	23:42:00	509330	63d77a647dbf6c0c53b0d375	3	1	main_z	11	advance_on_keypress_ZEE	36	stimuli_distractor_diamondtriangles.svg	stimuli_target_trianglerectangles.svg	29	yes	57	0	447	0	0			0	0			1				0	
6.6.1	win	2023-06-01	23:33:30	23:42:02	510857	63d77a647dbf6c0c53b0d375	3	1	main_z	11	main_z	37	stimuli_target_rectanglediamonds.svg	stimuli_distractor_diamondtriangles.svg	6	yes	44	1	428	0	0			0	0			1				0	
6.6.1	win	2023-06-01	23:33:30	23:42:02	510857	63d77a647dbf6c0c53b0d375	3	1	main_z	11	advance_on_keypress_ZEE	38	stimuli_target_rectanglediamonds.svg	stimuli_distractor_diamondtriangles.svg	6	yes	57	0	442	0	0			0	0			1				0	
6.6.1	win	2023-06-01	23:33:30	23:42:05	513947	63d77a647dbf6c0c53b0d375	3	1	main_z	11	main_z	39	stimuli_distractor_diamondtriangles.svg	stimuli_distractor_trianglediamonds.svg	37	no	0	1	2000	0	0			0	0			1				0	
6.6.1	win	2023-06-01	23:33:30	23:42:05	513947	63d77a647dbf6c0c53b0d375	3	1	main_z	11	advance_on_keypress_ZEE	40	stimuli_distractor_diamondtriangles.svg	stimuli_distractor_trianglediamonds.svg	37	no	57	0	326	0	0			0	0			1				0	
6.6.1	win	2023-06-01	23:33:30	23:42:07	515405	63d77a647dbf6c0c53b0d375	3	1	main_z	11	main_z	41	stimuli_distractor_trianglediamonds.svg	stimuli_distractor_diamondtriangles.svg	36	no	44	0	480	0	0			0	0			1				0	
6.6.1	win	2023-06-01	23:33:30	23:42:07	515405	63d77a647dbf6c0c53b0d375	3	1	main_z	11	advance_on_keypress_ZEE	42	stimuli_distractor_trianglediamonds.svg	stimuli_distractor_diamondtriangles.svg	36	no	57	0	676	0	0			0	0			1				0	
6.6.1	win	2023-06-01	23:33:30	23:42:08	517206	63d77a647dbf6c0c53b0d375	3	1	main_z	11	main_z	43	stimuli_target_trianglesquares.svg	stimuli_distractor_diamondtriangles.svg	22	yes	44	1	480	0	0			0	0			1				0	
6.6.1	win	2023-06-01	23:33:30	23:42:08	517206	63d77a647dbf6c0c53b0d375	3	1	main_z	11	advance_on_keypress_ZEE	44	stimuli_target_trianglesquares.svg	stimuli_distractor_diamondtriangles.svg	22	yes	57	0	388	0	0			0	0			1				0	
6.6.1	win	2023-06-01	23:33:30	23:42:11	520243	63d77a647dbf6c0c53b0d375	3	1	main_z	11	main_z	45	stimuli_distractor_diamondtriangles.svg	stimuli_distractor_diamondtriangles.svg	40	no	0	1	2000	0	0			0	0			1				0	
6.6.1	win	2023-06-01	23:33:30	23:42:11	520243	63d77a647dbf6c0c53b0d375	3	1	main_z	11	advance_on_keypress_ZEE	46	stimuli_distractor_diamondtriangles.svg	stimuli_distractor_diamondtriangles.svg	40	no	57	0	595	0	0			0	0			1				0	
6.6.1	win	2023-06-01	23:33:30	23:42:13	521935	63d77a647dbf6c0c53b0d375	3	1	main_z	11	main_z	47	stimuli_distractor_diamondtriangles.svg	stimuli_target_diamondrectangles.svg	31	yes	44	1	441	0	0			0	0			1				0	
6.6.1	win	2023-06-01	23:33:30	23:42:13	521935	63d77a647dbf6c0c53b0d375	3	1	main_z	11	advance_on_keypress_ZEE	48	stimuli_distractor_diamondtriangles.svg	stimuli_target_diamondrectangles.svg	31	yes	57	0	790	0	0			0	0			1				0	
6.6.1	win	2023-06-01	23:33:30	23:42:15	523831	63d77a647dbf6c0c53b0d375	3	1	main_z	11	main_z	49	stimuli_target_squarediamonds.svg	stimuli_distractor_trianglediamonds.svg	4	yes	44	1	462	0	0			0	0			1				0	
6.6.1	win	2023-06-01	23:33:30	23:42:15	523831	63d77a647dbf6c0c53b0d375	3	1	main_z	11	advance_on_keypress_ZEE	50	stimuli_target_squarediamonds.svg	stimuli_distractor_trianglediamonds.svg	4	yes	57	0	426	0	0			0	0			1				0	
6.6.1	win	2023-06-01	23:33:30	23:42:18	526897	63d77a647dbf6c0c53b0d375	3	1	main_z	11	main_z	51	stimuli_distractor_trianglediamonds.svg	stimuli_distractor_trianglediamonds.svg	34	no	0	1	2000	0	0			0	0			1				0	
6.6.1	win	2023-06-01	23:33:30	23:42:18	526897	63d77a647dbf6c0c53b0d375	3	1	main_z	11	advance_on_keypress_ZEE	52	stimuli_distractor_trianglediamonds.svg	stimuli_distractor_trianglediamonds.svg	34	no	57	0	456	0	0			0	0			1				0	
6.6.1	win	2023-06-01	23:33:30	23:42:20	528385	63d77a647dbf6c0c53b0d375	3	1	main_z	11	main_z	53	stimuli_distractor_trianglediamonds.svg	stimuli_target_diamondrectangles.svg	27	yes	44	1	372	0	0			0	0			1				0	
6.6.1	win	2023-06-01	23:33:30	23:42:20	528385	63d77a647dbf6c0c53b0d375	3	1	main_z	11	advance_on_keypress_ZEE	54	stimuli_distractor_trianglediamonds.svg	stimuli_target_diamondrectangles.svg	27	yes	57	0	524	0	0			0	0			1				0	
6.6.1	win	2023-06-01	23:33:30	23:42:21	529937	63d77a647dbf6c0c53b0d375	3	1	main_z	11	main_z	55	stimuli_target_squaretriangles.svg	stimuli_distractor_diamondtriangles.svg	7	yes	44	1	390	0	0			0	0			1				0	
6.6.1	win	2023-06-01	23:33:30	23:42:21	529937	63d77a647dbf6c0c53b0d375	3	1	main_z	11	advance_on_keypress_ZEE	56	stimuli_target_squaretriangles.svg	stimuli_distractor_diamondtriangles.svg	7	yes	57	0	534	0	0			0	0			1				0	
6.6.1	win	2023-06-01	23:33:30	23:42:23	532025	63d77a647dbf6c0c53b0d375	3	1	main_z	11	main_z	57	stimuli_target_trianglesquares.svg	stimuli_distractor_trianglediamonds.svg	18	yes	44	1	911	0	0			0	0			1				0	
6.6.1	win	2023-06-01	23:33:30	23:42:23	532025	63d77a647dbf6c0c53b0d375	3	1	main_z	11	advance_on_keypress_ZEE	58	stimuli_target_trianglesquares.svg	stimuli_distractor_trianglediamonds.svg	18	yes	57	0	635	0	0			0	0			1				0	
6.6.1	win	2023-06-01	23:33:30	23:42:25	533777	63d77a647dbf6c0c53b0d375	3	1	main_z	11	main_z	59	stimuli_distractor_trianglediamonds.svg	stimuli_target_squaretriangles.svg	11	yes	44	1	480	0	0			0	0			1				0	
6.6.1	win	2023-06-01	23:33:30	23:42:25	533777	63d77a647dbf6c0c53b0d375	3	1	main_z	11	advance_on_keypress_ZEE	60	stimuli_distractor_trianglediamonds.svg	stimuli_target_squaretriangles.svg	11	yes	57	0	652	0	0			0	0			1				0	
6.6.1	win	2023-06-01	23:33:30	23:42:27	535470	63d77a647dbf6c0c53b0d375	3	1	main_z	11	main_z	61	stimuli_distractor_diamondtriangles.svg	stimuli_target_rectanglediamonds.svg	14	yes	44	1	393	0	0			0	0			1				0	
6.6.1	win	2023-06-01	23:33:30	23:42:27	535470	63d77a647dbf6c0c53b0d375	3	1	main_z	11	advance_on_keypress_ZEE	62	stimuli_distractor_diamondtriangles.svg	stimuli_target_rectanglediamonds.svg	14	yes	57	0	417	0	0			0	0			1				0	
6.6.1	win	2023-06-01	23:33:30	23:42:28	537014	63d77a647dbf6c0c53b0d375	3	1	main_z	11	main_z	63	stimuli_target_diamondrectangles.svg	stimuli_distractor_diamondtriangles.svg	23	yes	44	1	479	0	0			0	0			1				0	
6.6.1	win	2023-06-01	23:33:30	23:42:28	537014	63d77a647dbf6c0c53b0d375	3	1	main_z	11	advance_on_keypress_ZEE	64	stimuli_target_diamondrectangles.svg	stimuli_distractor_diamondtriangles.svg	23	yes	57	0	651	0	0			0	0			1				0	
6.6.1	win	2023-06-01	23:33:30	23:42:30	538819	63d77a647dbf6c0c53b0d375	3	1	main_z	11	main_z	65	stimuli_distractor_diamondtriangles.svg	stimuli_target_diamondsquares.svg	32	yes	44	1	503	0	0			0	0			1				0	
6.6.1	win	2023-06-01	23:33:30	23:42:30	538819	63d77a647dbf6c0c53b0d375	3	1	main_z	11	advance_on_keypress_ZEE	66	stimuli_distractor_diamondtriangles.svg	stimuli_target_diamondsquares.svg	32	yes	57	0	450	0	0			0	0			1				0	
6.6.1	win	2023-06-01	23:33:30	23:42:31	540345	63d77a647dbf6c0c53b0d375	3	1	main_z	11	main_z	67	stimuli_target_diamondsquares.svg	stimuli_distractor_diamondtriangles.svg	24	yes	44	1	431	0	0			0	0			1				0	
6.6.1	win	2023-06-01	23:33:30	23:42:31	540345	63d77a647dbf6c0c53b0d375	3	1	main_z	11	advance_on_keypress_ZEE	68	stimuli_target_diamondsquares.svg	stimuli_distractor_diamondtriangles.svg	24	yes	57	0	413	0	0			0	0			1				0	
6.6.1	win	2023-06-01	23:33:30	23:42:33	541776	63d77a647dbf6c0c53b0d375	3	1	main_z	11	main_z	69	stimuli_distractor_trianglediamonds.svg	stimuli_target_diamondsquares.svg	28	yes	44	1	379	0	0			0	0			1				0	
6.6.1	win	2023-06-01	23:33:30	23:42:33	541776	63d77a647dbf6c0c53b0d375	3	1	main_z	11	advance_on_keypress_ZEE	70	stimuli_distractor_trianglediamonds.svg	stimuli_target_diamondsquares.svg	28	yes	57	0	419	0	0			0	0			1				0	
6.6.1	win	2023-06-01	23:33:30	23:42:34	543216	63d77a647dbf6c0c53b0d375	3	1	main_z	11	main_z	71	stimuli_target_squaretriangles.svg	stimuli_distractor_trianglediamonds.svg	3	yes	44	1	386	0	0			0	0			1				0	
6.6.1	win	2023-06-01	23:33:30	23:42:34	543216	63d77a647dbf6c0c53b0d375	3	1	main_z	11	advance_on_keypress_ZEE	72	stimuli_target_squaretriangles.svg	stimuli_distractor_trianglediamonds.svg	3	yes	57	0	530	0	0			0	0			1				0	
6.6.1	win	2023-06-01	23:33:30	23:42:36	544824	63d77a647dbf6c0c53b0d375	3	1	main_z	11	main_z	73	stimuli_distractor_diamondtriangles.svg	stimuli_target_rectangletriangles.svg	13	yes	44	1	428	0	0			0	0			1				0	
6.6.1	win	2023-06-01	23:33:30	23:42:36	544824	63d77a647dbf6c0c53b0d375	3	1	main_z	11	advance_on_keypress_ZEE	74	stimuli_distractor_diamondtriangles.svg	stimuli_target_rectangletriangles.svg	13	yes	57	0	409	0	0			0	0			1				0	
6.6.1	win	2023-06-01	23:33:30	23:42:37	546281	63d77a647dbf6c0c53b0d375	3	1	main_z	11	main_z	75	stimuli_target_rectangletriangles.svg	stimuli_distractor_trianglediamonds.svg	1	yes	44	1	400	0	0			0	0			1				0	
6.6.1	win	2023-06-01	23:33:30	23:42:37	546281	63d77a647dbf6c0c53b0d375	3	1	main_z	11	advance_on_keypress_ZEE	76	stimuli_target_rectangletriangles.svg	stimuli_distractor_trianglediamonds.svg	1	yes	57	0	367	0	0			0	0			1				0	
6.6.1	win	2023-06-01	23:33:30	23:42:39	547688	63d77a647dbf6c0c53b0d375	3	1	main_z	11	main_z	77	stimuli_target_rectanglediamonds.svg	stimuli_distractor_trianglediamonds.svg	2	yes	44	1	390	0	0			0	0			1				0	
6.6.1	win	2023-06-01	23:33:30	23:42:39	547688	63d77a647dbf6c0c53b0d375	3	1	main_z	11	advance_on_keypress_ZEE	78	stimuli_target_rectanglediamonds.svg	stimuli_distractor_trianglediamonds.svg	2	yes	57	0	406	0	0			0	0			1				0	
6.6.1	win	2023-06-01	23:33:30	23:42:40	549156	63d77a647dbf6c0c53b0d375	3	1	main_z	11	main_z	79	stimuli_distractor_diamondtriangles.svg	stimuli_target_squarediamonds.svg	16	yes	44	1	413	0	0			0	0			1				0	
6.6.1	win	2023-06-01	23:33:30	23:42:40	549156	63d77a647dbf6c0c53b0d375	3	1	main_z	11	advance_on_keypress_ZEE	80	stimuli_distractor_diamondtriangles.svg	stimuli_target_squarediamonds.svg	16	yes	57	0	908	0	0			0	0			1				0	
6.6.1	win	2023-06-01	23:33:30	23:42:43	551977	63d77a647dbf6c0c53b0d375	3	1	main_z	11	main_z	81	stimuli_target_trianglesquares.svg	stimuli_distractor_diamondtriangles.svg	22	yes	44	1	1255	0	0			0	0			1				0	
6.6.1	win	2023-06-01	23:33:30	23:42:43	551977	63d77a647dbf6c0c53b0d375	3	1	main_z	11	advance_on_keypress_ZEE	82	stimuli_target_trianglesquares.svg	stimuli_distractor_diamondtriangles.svg	22	yes	57	0	548	0	0			0	0			1				0	
6.6.1	win	2023-06-01	23:33:30	23:42:45	553768	63d77a647dbf6c0c53b0d375	3	1	main_z	11	main_z	83	stimuli_distractor_diamondtriangles.svg	stimuli_target_trianglesquares.svg	30	yes	44	1	604	0	0			0	0			1				0	
6.6.1	win	2023-06-01	23:33:30	23:42:45	553768	63d77a647dbf6c0c53b0d375	3	1	main_z	11	advance_on_keypress_ZEE	84	stimuli_distractor_diamondtriangles.svg	stimuli_target_trianglesquares.svg	30	yes	57	0	524	0	0			0	0			1				0	
6.6.1	win	2023-06-01	23:33:30	23:42:47	555377	63d77a647dbf6c0c53b0d375	3	1	main_z	11	main_z	85	stimuli_distractor_trianglediamonds.svg	stimuli_target_rectangletriangles.svg	9	yes	44	1	446	0	0			0	0			1				0	
6.6.1	win	2023-06-01	23:33:30	23:42:47	555377	63d77a647dbf6c0c53b0d375	3	1	main_z	11	advance_on_keypress_ZEE	86	stimuli_distractor_trianglediamonds.svg	stimuli_target_rectangletriangles.svg	9	yes	57	0	508	0	0			0	0			1				0	
6.6.1	win	2023-06-01	23:33:30	23:42:48	556961	63d77a647dbf6c0c53b0d375	3	1	main_z	11	main_z	87	stimuli_distractor_diamondtriangles.svg	stimuli_target_squaretriangles.svg	15	yes	44	1	430	0	0			0	0			1				0	
6.6.1	win	2023-06-01	23:33:30	23:42:48	556961	63d77a647dbf6c0c53b0d375	3	1	main_z	11	advance_on_keypress_ZEE	88	stimuli_distractor_diamondtriangles.svg	stimuli_target_squaretriangles.svg	15	yes	57	0	348	0	0			0	0			1				0	
6.6.1	win	2023-06-01	23:33:30	23:42:50	558969	63d77a647dbf6c0c53b0d375	3	1	main_z	11	main_z	89	stimuli_distractor_trianglediamonds.svg	stimuli_target_trianglesquares.svg	26	yes	44	1	1021	0	0			0	0			1				0	
6.6.1	win	2023-06-01	23:33:30	23:42:50	558969	63d77a647dbf6c0c53b0d375	3	1	main_z	11	advance_on_keypress_ZEE	90	stimuli_distractor_trianglediamonds.svg	stimuli_target_trianglesquares.svg	26	yes	57	0	500	0	0			0	0			1				0	
6.6.1	win	2023-06-01	23:33:30	23:42:53	562115	63d77a647dbf6c0c53b0d375	3	1	main_z	11	main_z	91	stimuli_distractor_trianglediamonds.svg	stimuli_target_diamondsquares.svg	28	yes	0	0	2000	0	0			0	0			1				0	
6.6.1	win	2023-06-01	23:33:30	23:42:53	562115	63d77a647dbf6c0c53b0d375	3	1	main_z	11	advance_on_keypress_ZEE	92	stimuli_distractor_trianglediamonds.svg	stimuli_target_diamondsquares.svg	28	yes	57	0	525	0	0			0	0			1				0	
6.6.1	win	2023-06-01	23:33:30	23:42:55	563641	63d77a647dbf6c0c53b0d375	3	1	main_z	11	main_z	93	stimuli_target_trianglerectangles.svg	stimuli_distractor_diamondtriangles.svg	21	yes	44	1	360	0	0			0	0			1				0	
6.6.1	win	2023-06-01	23:33:30	23:42:55	563641	63d77a647dbf6c0c53b0d375	3	1	main_z	11	advance_on_keypress_ZEE	94	stimuli_target_trianglerectangles.svg	stimuli_distractor_diamondtriangles.svg	21	yes	57	0	969	0	0			0	0			1				0	
6.6.1	win	2023-06-01	23:33:30	23:42:57	565829	63d77a647dbf6c0c53b0d375	3	1	main_z	11	main_z	95	stimuli_distractor_diamondtriangles.svg	stimuli_target_rectangletriangles.svg	13	yes	44	1	569	0	0			0	0			1				0	
6.6.1	win	2023-06-01	23:33:30	23:42:57	565829	63d77a647dbf6c0c53b0d375	3	1	main_z	11	advance_on_keypress_ZEE	96	stimuli_distractor_diamondtriangles.svg	stimuli_target_rectangletriangles.svg	13	yes	57	0	561	0	0			0	0			1				0	
6.6.1	win	2023-06-01	23:33:30	23:42:59	567385	63d77a647dbf6c0c53b0d375	3	1	main_z	11	main_z	97	stimuli_distractor_diamondtriangles.svg	stimuli_target_diamondsquares.svg	32	yes	44	1	337	0	0			0	0			1				0	
6.6.1	win	2023-06-01	23:33:30	23:42:59	567385	63d77a647dbf6c0c53b0d375	3	1	main_z	11	advance_on_keypress_ZEE	98	stimuli_distractor_diamondtriangles.svg	stimuli_target_diamondsquares.svg	32	yes	57	0	531	0	0			0	0			1				0	
6.6.1	win	2023-06-01	23:33:30	23:43:00	569066	63d77a647dbf6c0c53b0d375	3	1	main_z	11	main_z	99	stimuli_target_rectanglediamonds.svg	stimuli_distractor_trianglediamonds.svg	2	yes	44	1	509	0	0			0	0			1				0	
6.6.1	win	2023-06-01	23:33:30	23:43:00	569066	63d77a647dbf6c0c53b0d375	3	1	main_z	11	advance_on_keypress_ZEE	100	stimuli_target_rectanglediamonds.svg	stimuli_distractor_trianglediamonds.svg	2	yes	57	0	454	0	0			0	0			1				0	
6.6.1	win	2023-06-01	23:33:30	23:43:03	572195	63d77a647dbf6c0c53b0d375	3	1	main_z	11	main_z	101	stimuli_distractor_trianglediamonds.svg	stimuli_distractor_diamondtriangles.svg	36	no	0	1	2000	0	0			0	0			1				0	
6.6.1	win	2023-06-01	23:33:30	23:43:03	572195	63d77a647dbf6c0c53b0d375	3	1	main_z	11	advance_on_keypress_ZEE	102	stimuli_distractor_trianglediamonds.svg	stimuli_distractor_diamondtriangles.svg	36	no	57	0	466	0	0			0	0			1				0	
6.6.1	win	2023-06-01	23:33:30	23:43:05	573753	63d77a647dbf6c0c53b0d375	3	1	main_z	11	main_z	103	stimuli_target_squaretriangles.svg	stimuli_distractor_trianglediamonds.svg	3	yes	44	1	438	0	0			0	0			1				0	
6.6.1	win	2023-06-01	23:33:30	23:43:05	573753	63d77a647dbf6c0c53b0d375	3	1	main_z	11	advance_on_keypress_ZEE	104	stimuli_target_squaretriangles.svg	stimuli_distractor_trianglediamonds.svg	3	yes	57	0	356	0	0			0	0			1				0	
6.6.1	win	2023-06-01	23:33:30	23:43:06	575304	63d77a647dbf6c0c53b0d375	3	1	main_z	11	main_z	105	stimuli_target_squaretriangles.svg	stimuli_distractor_diamondtriangles.svg	7	yes	44	1	555	0	0			0	0			1				0	
6.6.1	win	2023-06-01	23:33:30	23:43:06	575304	63d77a647dbf6c0c53b0d375	3	1	main_z	11	advance_on_keypress_ZEE	106	stimuli_target_squaretriangles.svg	stimuli_distractor_diamondtriangles.svg	7	yes	57	0	398	0	0			0	0			1				0	
6.6.1	win	2023-06-01	23:33:30	23:43:09	578349	63d77a647dbf6c0c53b0d375	3	1	main_z	11	main_z	107	stimuli_distractor_diamondtriangles.svg	stimuli_distractor_trianglediamonds.svg	38	no	0	1	2000	0	0			0	0			1				0	
6.6.1	win	2023-06-01	23:33:30	23:43:09	578349	63d77a647dbf6c0c53b0d375	3	1	main_z	11	advance_on_keypress_ZEE	108	stimuli_distractor_diamondtriangles.svg	stimuli_distractor_trianglediamonds.svg	38	no	57	0	355	0	0			0	0			1				0	
6.6.1	win	2023-06-01	23:33:30	23:43:11	579760	63d77a647dbf6c0c53b0d375	3	1	main_z	11	main_z	109	stimuli_distractor_diamondtriangles.svg	stimuli_target_trianglerectangles.svg	29	yes	44	1	412	0	0			0	0			1				0	
6.6.1	win	2023-06-01	23:33:30	23:43:11	579760	63d77a647dbf6c0c53b0d375	3	1	main_z	11	advance_on_keypress_ZEE	110	stimuli_distractor_diamondtriangles.svg	stimuli_target_trianglerectangles.svg	29	yes	57	0	563	0	0			0	0			1				0	
6.6.1	win	2023-06-01	23:33:30	23:43:13	581545	63d77a647dbf6c0c53b0d375	3	1	main_z	11	main_z	111	stimuli_target_rectanglediamonds.svg	stimuli_distractor_diamondtriangles.svg	6	yes	44	1	579	0	0			0	0			1				0	
6.6.1	win	2023-06-01	23:33:30	23:43:13	581545	63d77a647dbf6c0c53b0d375	3	1	main_z	11	advance_on_keypress_ZEE	112	stimuli_target_rectanglediamonds.svg	stimuli_distractor_diamondtriangles.svg	6	yes	57	0	411	0	0			0	0			1				0	
6.6.1	win	2023-06-01	23:33:30	23:43:14	583160	63d77a647dbf6c0c53b0d375	3	1	main_z	11	main_z	113	stimuli_distractor_trianglediamonds.svg	stimuli_distractor_diamondtriangles.svg	35	no	44	0	562	0	0			0	0			1				0	
6.6.1	win	2023-06-01	23:33:30	23:43:14	583160	63d77a647dbf6c0c53b0d375	3	1	main_z	11	advance_on_keypress_ZEE	114	stimuli_distractor_trianglediamonds.svg	stimuli_distractor_diamondtriangles.svg	35	no	57	0	499	0	0			0	0			1				0	
6.6.1	win	2023-06-01	23:33:30	23:43:16	584905	63d77a647dbf6c0c53b0d375	3	1	main_z	11	main_z	115	stimuli_distractor_trianglediamonds.svg	stimuli_target_squaretriangles.svg	11	yes	44	1	589	0	0			0	0			1				0	
6.6.1	win	2023-06-01	23:33:30	23:43:16	584905	63d77a647dbf6c0c53b0d375	3	1	main_z	11	advance_on_keypress_ZEE	116	stimuli_distractor_trianglediamonds.svg	stimuli_target_squaretriangles.svg	11	yes	57	0	485	0	0			0	0			1				0	
6.6.1	win	2023-06-01	23:33:30	23:43:18	586873	63d77a647dbf6c0c53b0d375	3	1	main_z	11	main_z	117	stimuli_target_trianglesquares.svg	stimuli_distractor_trianglediamonds.svg	18	yes	44	1	841	0	0			0	0			1				0	
6.6.1	win	2023-06-01	23:33:30	23:43:18	586873	63d77a647dbf6c0c53b0d375	3	1	main_z	11	advance_on_keypress_ZEE	118	stimuli_target_trianglesquares.svg	stimuli_distractor_trianglediamonds.svg	18	yes	57	0	447	0	0			0	0			1				0	
6.6.1	win	2023-06-01	23:33:30	23:43:21	589949	63d77a647dbf6c0c53b0d375	3	1	main_z	11	main_z	119	stimuli_distractor_diamondtriangles.svg	stimuli_distractor_trianglediamonds.svg	37	no	0	1	2000	0	0			0	0			1				0	
6.6.1	win	2023-06-01	23:33:30	23:43:21	589949	63d77a647dbf6c0c53b0d375	3	1	main_z	11	advance_on_keypress_ZEE	120	stimuli_distractor_diamondtriangles.svg	stimuli_distractor_trianglediamonds.svg	37	no	57	0	355	0	0			0	0			1				0	
6.6.1	win	2023-06-01	23:33:30	23:43:24	592950	63d77a647dbf6c0c53b0d375	3	1	main_z	11	main_z	121	stimuli_distractor_diamondtriangles.svg	stimuli_distractor_diamondtriangles.svg	39	no	0	1	2000	0	0			0	0			1				0	
6.6.1	win	2023-06-01	23:33:30	23:43:24	592950	63d77a647dbf6c0c53b0d375	3	1	main_z	11	advance_on_keypress_ZEE	122	stimuli_distractor_diamondtriangles.svg	stimuli_distractor_diamondtriangles.svg	39	no	57	0	770	0	0			0	0			1				0	
6.6.1	win	2023-06-01	23:33:30	23:43:28	596375	63d77a647dbf6c0c53b0d375	3	1	main_z	11	main_z	123	stimuli_distractor_diamondtriangles.svg	stimuli_distractor_diamondtriangles.svg	40	no	0	1	2000	0	0			0	0			1				0	
6.6.1	win	2023-06-01	23:33:30	23:43:28	596375	63d77a647dbf6c0c53b0d375	3	1	main_z	11	advance_on_keypress_ZEE	124	stimuli_distractor_diamondtriangles.svg	stimuli_distractor_diamondtriangles.svg	40	no	57	0	417	0	0			0	0			1				0	
6.6.1	win	2023-06-01	23:33:30	23:43:29	597992	63d77a647dbf6c0c53b0d375	3	1	main_z	11	main_z	125	stimuli_target_rectangletriangles.svg	stimuli_distractor_diamondtriangles.svg	5	yes	44	1	543	0	0			0	0			1				0	
6.6.1	win	2023-06-01	23:33:30	23:43:29	597992	63d77a647dbf6c0c53b0d375	3	1	main_z	11	advance_on_keypress_ZEE	126	stimuli_target_rectangletriangles.svg	stimuli_distractor_diamondtriangles.svg	5	yes	57	0	464	0	0			0	0			1				0	
6.6.1	win	2023-06-01	23:33:30	23:43:31	599688	63d77a647dbf6c0c53b0d375	3	1	main_z	11	main_z	127	stimuli_target_diamondrectangles.svg	stimuli_distractor_trianglediamonds.svg	19	yes	44	1	588	0	0			0	0			1				0	
6.6.1	win	2023-06-01	23:33:30	23:43:31	599688	63d77a647dbf6c0c53b0d375	3	1	main_z	11	advance_on_keypress_ZEE	128	stimuli_target_diamondrectangles.svg	stimuli_distractor_trianglediamonds.svg	19	yes	57	0	469	0	0			0	0			1				0	
6.6.1	win	2023-06-01	23:33:30	23:43:32	601153	63d77a647dbf6c0c53b0d375	3	1	main_z	11	main_z	129	stimuli_target_diamondrectangles.svg	stimuli_distractor_diamondtriangles.svg	23	yes	44	1	353	0	0			0	0			1				0	
6.6.1	win	2023-06-01	23:33:30	23:43:32	601153	63d77a647dbf6c0c53b0d375	3	1	main_z	11	advance_on_keypress_ZEE	130	stimuli_target_diamondrectangles.svg	stimuli_distractor_diamondtriangles.svg	23	yes	57	0	426	0	0			0	0			1				0	
6.6.1	win	2023-06-01	23:33:30	23:43:34	602700	63d77a647dbf6c0c53b0d375	3	1	main_z	11	main_z	131	stimuli_target_trianglerectangles.svg	stimuli_distractor_trianglediamonds.svg	17	yes	44	1	481	0	0			0	0			1				0	
6.6.1	win	2023-06-01	23:33:30	23:43:34	602700	63d77a647dbf6c0c53b0d375	3	1	main_z	11	advance_on_keypress_ZEE	132	stimuli_target_trianglerectangles.svg	stimuli_distractor_trianglediamonds.svg	17	yes	57	0	365	0	0			0	0			1				0	
6.6.1	win	2023-06-01	23:33:30	23:43:35	604113	63d77a647dbf6c0c53b0d375	3	1	main_z	11	main_z	133	stimuli_distractor_diamondtriangles.svg	stimuli_target_diamondrectangles.svg	31	yes	44	1	396	0	0			0	0			1				0	
6.6.1	win	2023-06-01	23:33:30	23:43:35	604113	63d77a647dbf6c0c53b0d375	3	1	main_z	11	advance_on_keypress_ZEE	134	stimuli_distractor_diamondtriangles.svg	stimuli_target_diamondrectangles.svg	31	yes	57	0	395	0	0			0	0			1				0	
6.6.1	win	2023-06-01	23:33:30	23:43:37	605633	63d77a647dbf6c0c53b0d375	3	1	main_z	11	main_z	135	stimuli_target_squarediamonds.svg	stimuli_distractor_trianglediamonds.svg	4	yes	44	1	483	0	0			0	0			1				0	
6.6.1	win	2023-06-01	23:33:30	23:43:37	605633	63d77a647dbf6c0c53b0d375	3	1	main_z	11	advance_on_keypress_ZEE	136	stimuli_target_squarediamonds.svg	stimuli_distractor_trianglediamonds.svg	4	yes	57	0	383	0	0			0	0			1				0	
6.6.1	win	2023-06-01	23:33:30	23:43:38	607029	63d77a647dbf6c0c53b0d375	3	1	main_z	11	main_z	137	stimuli_distractor_trianglediamonds.svg	stimuli_target_squarediamonds.svg	12	yes	44	1	350	0	0			0	0			1				0	
6.6.1	win	2023-06-01	23:33:30	23:43:38	607029	63d77a647dbf6c0c53b0d375	3	1	main_z	11	advance_on_keypress_ZEE	138	stimuli_distractor_trianglediamonds.svg	stimuli_target_squarediamonds.svg	12	yes	57	0	352	0	0			0	0			1				0	
6.6.1	win	2023-06-01	23:33:30	23:43:39	608345	63d77a647dbf6c0c53b0d375	3	1	main_z	11	main_z	139	stimuli_distractor_trianglediamonds.svg	stimuli_target_diamondrectangles.svg	27	yes	44	1	312	0	0			0	0			1				0	
6.6.1	win	2023-06-01	23:33:30	23:43:39	608345	63d77a647dbf6c0c53b0d375	3	1	main_z	11	advance_on_keypress_ZEE	140	stimuli_distractor_trianglediamonds.svg	stimuli_target_diamondrectangles.svg	27	yes	57	0	787	0	0			0	0			1				0	
6.6.1	win	2023-06-01	23:33:30	23:43:41	610000	63d77a647dbf6c0c53b0d375	3	1	main_z	11	main_z	141	stimuli_target_diamondsquares.svg	stimuli_distractor_diamondtriangles.svg	24	yes	44	1	234	0	0			0	0			1				0	
6.6.1	win	2023-06-01	23:33:30	23:43:41	610000	63d77a647dbf6c0c53b0d375	3	1	main_z	11	advance_on_keypress_ZEE	142	stimuli_target_diamondsquares.svg	stimuli_distractor_diamondtriangles.svg	24	yes	57	0	656	0	0			0	0			1				0	
6.6.1	win	2023-06-01	23:33:30	23:43:43	611653	63d77a647dbf6c0c53b0d375	3	1	main_z	11	main_z	143	stimuli_target_squarediamonds.svg	stimuli_distractor_diamondtriangles.svg	8	yes	44	1	341	0	0			0	0			1				0	
6.6.1	win	2023-06-01	23:33:30	23:43:43	611653	63d77a647dbf6c0c53b0d375	3	1	main_z	11	advance_on_keypress_ZEE	144	stimuli_target_squarediamonds.svg	stimuli_distractor_diamondtriangles.svg	8	yes	57	0	534	0	0			0	0			1				0	
6.6.1	win	2023-06-01	23:33:30	23:43:44	613128	63d77a647dbf6c0c53b0d375	3	1	main_z	11	main_z	145	stimuli_distractor_diamondtriangles.svg	stimuli_target_squarediamonds.svg	16	yes	44	1	294	0	0			0	0			1				0	
6.6.1	win	2023-06-01	23:33:30	23:43:44	613128	63d77a647dbf6c0c53b0d375	3	1	main_z	11	advance_on_keypress_ZEE	146	stimuli_distractor_diamondtriangles.svg	stimuli_target_squarediamonds.svg	16	yes	57	0	460	0	0			0	0			1				0	
6.6.1	win	2023-06-01	23:33:30	23:43:46	614505	63d77a647dbf6c0c53b0d375	3	1	main_z	11	main_z	147	stimuli_distractor_trianglediamonds.svg	stimuli_target_rectanglediamonds.svg	10	yes	44	1	288	0	0			0	0			1				0	
6.6.1	win	2023-06-01	23:33:30	23:43:46	614505	63d77a647dbf6c0c53b0d375	3	1	main_z	11	advance_on_keypress_ZEE	148	stimuli_distractor_trianglediamonds.svg	stimuli_target_rectanglediamonds.svg	10	yes	57	0	412	0	0			0	0			1				0	
6.6.1	win	2023-06-01	23:33:30	23:43:47	615838	63d77a647dbf6c0c53b0d375	3	1	main_z	11	main_z	149	stimuli_target_diamondsquares.svg	stimuli_distractor_trianglediamonds.svg	20	yes	44	1	275	0	0			0	0			1				0	
6.6.1	win	2023-06-01	23:33:30	23:43:47	615838	63d77a647dbf6c0c53b0d375	3	1	main_z	11	advance_on_keypress_ZEE	150	stimuli_target_diamondsquares.svg	stimuli_distractor_trianglediamonds.svg	20	yes	57	0	399	0	0			0	0			1				0	
6.6.1	win	2023-06-01	23:33:30	23:43:48	617201	63d77a647dbf6c0c53b0d375	3	1	main_z	11	main_z	151	stimuli_distractor_trianglediamonds.svg	stimuli_distractor_trianglediamonds.svg	34	no	44	0	317	0	0			0	0			1				0	
6.6.1	win	2023-06-01	23:33:30	23:43:48	617201	63d77a647dbf6c0c53b0d375	3	1	main_z	11	advance_on_keypress_ZEE	152	stimuli_distractor_trianglediamonds.svg	stimuli_distractor_trianglediamonds.svg	34	no	57	0	752	0	0			0	0			1				0	
6.6.1	win	2023-06-01	23:33:30	23:43:50	619063	63d77a647dbf6c0c53b0d375	3	1	main_z	11	main_z	153	stimuli_target_rectangletriangles.svg	stimuli_distractor_trianglediamonds.svg	1	yes	44	1	455	0	0			0	0			1				0	
6.6.1	win	2023-06-01	23:33:30	23:43:50	619063	63d77a647dbf6c0c53b0d375	3	1	main_z	11	advance_on_keypress_ZEE	154	stimuli_target_rectangletriangles.svg	stimuli_distractor_trianglediamonds.svg	1	yes	57	0	374	0	0			0	0			1				0	
6.6.1	win	2023-06-01	23:33:30	23:43:52	620504	63d77a647dbf6c0c53b0d375	3	1	main_z	11	main_z	155	stimuli_distractor_trianglediamonds.svg	stimuli_target_trianglerectangles.svg	25	yes	44	1	421	0	0			0	0			1				0	
6.6.1	win	2023-06-01	23:33:30	23:43:52	620504	63d77a647dbf6c0c53b0d375	3	1	main_z	11	advance_on_keypress_ZEE	156	stimuli_distractor_trianglediamonds.svg	stimuli_target_trianglerectangles.svg	25	yes	57	0	372	0	0			0	0			1				0	
6.6.1	win	2023-06-01	23:33:30	23:43:53	621824	63d77a647dbf6c0c53b0d375	3	1	main_z	11	main_z	157	stimuli_distractor_diamondtriangles.svg	stimuli_target_rectanglediamonds.svg	14	yes	44	1	308	0	0			0	0			1				0	
6.6.1	win	2023-06-01	23:33:30	23:43:53	621824	63d77a647dbf6c0c53b0d375	3	1	main_z	11	advance_on_keypress_ZEE	158	stimuli_distractor_diamondtriangles.svg	stimuli_target_rectanglediamonds.svg	14	yes	57	0	350	0	0			0	0			1				0	
6.6.1	win	2023-06-01	23:33:30	23:43:54	623203	63d77a647dbf6c0c53b0d375	3	1	main_z	11	main_z	159	stimuli_distractor_trianglediamonds.svg	stimuli_distractor_trianglediamonds.svg	33	no	44	0	383	0	0			0	0			1				0	
6.6.1	win	2023-06-01	23:33:30	23:43:54	623203	63d77a647dbf6c0c53b0d375	3	1	main_z	11	advance_on_keypress_ZEE	160	stimuli_distractor_trianglediamonds.svg	stimuli_distractor_trianglediamonds.svg	33	no	57	0	512	0	0			0	0			1				0	
6.6.1	win	2023-06-01	23:33:30	23:43:54	623203	63d77a647dbf6c0c53b0d375	3	1	headphonecheck_calibration	14	headphonecheck_calibrationIntro	1	stimuli_distractor_trianglediamonds.svg	stimuli_distractor_trianglediamonds.svg	33	no	calibrationButton	0	2780	0	0			0	0			1				0	
6.6.1	win	2023-06-01	23:33:30	23:43:54	623203	63d77a647dbf6c0c53b0d375	3	1	headphonecheck_testphase	15	test_collectResponse	3	stimuli_distractor_trianglediamonds.svg	stimuli_distractor_trianglediamonds.svg	33	no	second	1	9032	1	5	antiphase_hc_osi.wav	2	0	0			1				0	
6.6.1	win	2023-06-01	23:33:30	23:43:54	623203	63d77a647dbf6c0c53b0d375	3	1	headphonecheck_testphase	15	test_collectResponse	6	stimuli_distractor_trianglediamonds.svg	stimuli_distractor_trianglediamonds.svg	33	no	first	1	852	2	3	antiphase_hc_soi.wav	1	0	0			1				0	
6.6.1	win	2023-06-01	23:33:30	23:43:54	623203	63d77a647dbf6c0c53b0d375	3	1	headphonecheck_testphase	15	test_collectResponse	9	stimuli_distractor_trianglediamonds.svg	stimuli_distractor_trianglediamonds.svg	33	no	third	1	639	3	6	antiphase_hc_ois.wav	3	0	0			1				0	
6.6.1	win	2023-06-01	23:33:30	23:43:54	623203	63d77a647dbf6c0c53b0d375	3	1	headphonecheck_testphase	15	test_collectResponse	12	stimuli_distractor_trianglediamonds.svg	stimuli_distractor_trianglediamonds.svg	33	no	third	1	628	4	2	antiphase_hc_ios.wav	3	0	0			1				0	
6.6.1	win	2023-06-01	23:33:30	23:43:54	623203	63d77a647dbf6c0c53b0d375	3	1	headphonecheck_testphase	15	test_collectResponse	15	stimuli_distractor_trianglediamonds.svg	stimuli_distractor_trianglediamonds.svg	33	no	first	1	822	5	4	antiphase_hc_sio.wav	1	0	0			1				0	
6.6.1	win	2023-06-01	23:33:30	23:43:54	623203	63d77a647dbf6c0c53b0d375	3	1	headphonecheck_testphase	15	test_collectResponse	18	stimuli_distractor_trianglediamonds.svg	stimuli_distractor_trianglediamonds.svg	33	no	second	1	536	6	1	antiphase_hc_iso.wav	2	0	0			1				0	
6.6.1	win	2023-06-01	23:33:30	23:43:54	623203	63d77a647dbf6c0c53b0d375	3	1	stereocheck_calibration	17	stereocheck_calibrationIntro	1	stimuli_distractor_trianglediamonds.svg	stimuli_distractor_trianglediamonds.svg	33	no	stereocheck_calibrationButton	0	6951	6	1	antiphase_hc_iso.wav	2	0	0			1				0	
6.6.1	win	2023-06-01	23:33:30	23:43:54	623203	63d77a647dbf6c0c53b0d375	3	1	stereocheck_testphase	18	stereocheck_test_collectResponse	3	stimuli_distractor_trianglediamonds.svg	stimuli_distractor_trianglediamonds.svg	33	no	stereocheck_right	1	2394	6	1	antiphase_hc_iso.wav	2	1	6	noise_calib_stim_RIGHT.wav	2	1				0	
6.6.1	win	2023-06-01	23:33:30	23:43:54	623203	63d77a647dbf6c0c53b0d375	3	1	stereocheck_testphase	18	stereocheck_test_collectResponse	6	stimuli_distractor_trianglediamonds.svg	stimuli_distractor_trianglediamonds.svg	33	no	stereocheck_left	1	1566	6	1	antiphase_hc_iso.wav	2	2	2	noise_calib_stim_LEFT.wav	1	1				0	
6.6.1	win	2023-06-01	23:33:30	23:43:54	623203	63d77a647dbf6c0c53b0d375	3	1	stereocheck_testphase	18	stereocheck_test_collectResponse	9	stimuli_distractor_trianglediamonds.svg	stimuli_distractor_trianglediamonds.svg	33	no	stereocheck_right	1	446	6	1	antiphase_hc_iso.wav	2	3	4	noise_calib_stim_RIGHT.wav	2	1				0	
6.6.1	win	2023-06-01	23:33:30	23:43:54	623203	63d77a647dbf6c0c53b0d375	3	1	stereocheck_testphase	18	stereocheck_test_collectResponse	12	stimuli_distractor_trianglediamonds.svg	stimuli_distractor_trianglediamonds.svg	33	no	stereocheck_left	1	364	6	1	antiphase_hc_iso.wav	2	4	3	noise_calib_stim_LEFT.wav	1	1				0	
6.6.1	win	2023-06-01	23:33:30	23:43:54	623203	63d77a647dbf6c0c53b0d375	3	1	stereocheck_testphase	18	stereocheck_test_collectResponse	15	stimuli_distractor_trianglediamonds.svg	stimuli_distractor_trianglediamonds.svg	33	no	stereocheck_left	1	243	6	1	antiphase_hc_iso.wav	2	5	1	noise_calib_stim_LEFT.wav	1	1				0	
6.6.1	win	2023-06-01	23:33:30	23:43:54	623203	63d77a647dbf6c0c53b0d375	3	1	stereocheck_testphase	18	stereocheck_test_collectResponse	18	stimuli_distractor_trianglediamonds.svg	stimuli_distractor_trianglediamonds.svg	33	no	stereocheck_right	1	327	6	1	antiphase_hc_iso.wav	2	6	5	noise_calib_stim_RIGHT.wav	2	1				0	
6.6.1	win	2023-06-01	23:33:30	23:43:54	623203	63d77a647dbf6c0c53b0d375	3	1	DL_practice	21	DL_practice	2	stimuli_distractor_trianglediamonds.svg	stimuli_distractor_trianglediamonds.svg	33	no	da	1	1167	6	1	antiphase_hc_iso.wav	2	6	5	noise_calib_stim_RIGHT.wav	2	8	blb_dichoticlistening_da-da.mp3	da	da	0	left
6.6.1	win	2023-06-01	23:33:30	23:43:54	623203	63d77a647dbf6c0c53b0d375	3	1	DL_practice	21	DL_practice	3	stimuli_distractor_trianglediamonds.svg	stimuli_distractor_trianglediamonds.svg	33	no	ka	1	1244	6	1	antiphase_hc_iso.wav	2	6	5	noise_calib_stim_RIGHT.wav	2	23	blb_dichoticlistening_ka-pa.mp3	ka	pa	1	left
6.6.1	win	2023-06-01	23:33:30	23:43:54	623203	63d77a647dbf6c0c53b0d375	3	1	DL_practice	21	DL_practice	4	stimuli_distractor_trianglediamonds.svg	stimuli_distractor_trianglediamonds.svg	33	no	ba	1	1910	6	1	antiphase_hc_iso.wav	2	6	5	noise_calib_stim_RIGHT.wav	2	7	blb_dichoticlistening_da-ba.mp3	da	ba	1	right
6.6.1	win	2023-06-01	23:33:30	23:43:54	623203	63d77a647dbf6c0c53b0d375	3	1	DL_practice	21	DL_practice	5	stimuli_distractor_trianglediamonds.svg	stimuli_distractor_trianglediamonds.svg	33	no	ta	1	1444	6	1	antiphase_hc_iso.wav	2	6	5	noise_calib_stim_RIGHT.wav	2	18	blb_dichoticlistening_ga-ta.mp3	ga	ta	1	right
6.6.1	win	2023-06-01	23:33:30	23:43:54	623203	63d77a647dbf6c0c53b0d375	3	1	DL_practice	21	DL_practice	6	stimuli_distractor_trianglediamonds.svg	stimuli_distractor_trianglediamonds.svg	33	no	pa	1	1591	6	1	antiphase_hc_iso.wav	2	6	5	noise_calib_stim_RIGHT.wav	2	29	blb_dichoticlistening_pa-pa.mp3	pa	pa	0	left
6.6.1	win	2023-06-01	23:33:30	23:43:54	623203	63d77a647dbf6c0c53b0d375	3	1	DL_practice	21	DL_practice	7	stimuli_distractor_trianglediamonds.svg	stimuli_distractor_trianglediamonds.svg	33	no	ga	1	1067	6	1	antiphase_hc_iso.wav	2	6	5	noise_calib_stim_RIGHT.wav	2	15	blb_dichoticlistening_ga-ga.mp3	ga	ga	0	left
6.6.1	win	2023-06-01	23:33:30	23:43:54	623203	63d77a647dbf6c0c53b0d375	3	1	DL_practice	21	DL_practice	8	stimuli_distractor_trianglediamonds.svg	stimuli_distractor_trianglediamonds.svg	33	no	ba	1	1315	6	1	antiphase_hc_iso.wav	2	6	5	noise_calib_stim_RIGHT.wav	2	1	blb_dichoticlistening_ba-ba.mp3	ba	ba	0	left
6.6.1	win	2023-06-01	23:33:30	23:43:54	623203	63d77a647dbf6c0c53b0d375	3	1	DL_practice	21	DL_practice	9	stimuli_distractor_trianglediamonds.svg	stimuli_distractor_trianglediamonds.svg	33	no	ka	1	869	6	1	antiphase_hc_iso.wav	2	6	5	noise_calib_stim_RIGHT.wav	2	22	blb_dichoticlistening_ka-ka.mp3	ka	ka	0	left
6.6.1	win	2023-06-01	23:33:30	23:43:54	623203	63d77a647dbf6c0c53b0d375	3	1	DL_practice	21	DL_practice	10	stimuli_distractor_trianglediamonds.svg	stimuli_distractor_trianglediamonds.svg	33	no	ta	1	889	6	1	antiphase_hc_iso.wav	2	6	5	noise_calib_stim_RIGHT.wav	2	36	blb_dichoticlistening_ta-ta.mp3	ta	ta	0	left
6.6.1	win	2023-06-01	23:33:30	23:43:54	623203	63d77a647dbf6c0c53b0d375	3	1	DL_test	23	DL_test	1	stimuli_distractor_trianglediamonds.svg	stimuli_distractor_trianglediamonds.svg	33	no	da	1	772	6	1	antiphase_hc_iso.wav	2	6	5	noise_calib_stim_RIGHT.wav	2	8	blb_dichoticlistening_da-da.mp3	da	da	0	left
6.6.1	win	2023-06-01	23:33:30	23:43:54	623203	63d77a647dbf6c0c53b0d375	3	1	DL_test	23	DL_test	2	stimuli_distractor_trianglediamonds.svg	stimuli_distractor_trianglediamonds.svg	33	no	pa	1	2574	6	1	antiphase_hc_iso.wav	2	6	5	noise_calib_stim_RIGHT.wav	2	11	blb_dichoticlistening_da-pa.mp3	da	pa	1	right
6.6.1	win	2023-06-01	23:33:30	23:43:54	623203	63d77a647dbf6c0c53b0d375	3	1	DL_test	23	DL_test	3	stimuli_distractor_trianglediamonds.svg	stimuli_distractor_trianglediamonds.svg	33	no	ta	1	1315	6	1	antiphase_hc_iso.wav	2	6	5	noise_calib_stim_RIGHT.wav	2	32	blb_dichoticlistening_ta-da.mp3	ta	da	1	left
6.6.1	win	2023-06-01	23:33:30	23:43:54	623203	63d77a647dbf6c0c53b0d375	3	1	DL_test	23	DL_test	4	stimuli_distractor_trianglediamonds.svg	stimuli_distractor_trianglediamonds.svg	33	no	ba	1	2677	6	1	antiphase_hc_iso.wav	2	6	5	noise_calib_stim_RIGHT.wav	2	13	blb_dichoticlistening_ga-ba.mp3	ga	ba	1	right
6.6.1	win	2023-06-01	23:33:30	23:43:54	623203	63d77a647dbf6c0c53b0d375	3	1	DL_test	23	DL_test	5	stimuli_distractor_trianglediamonds.svg	stimuli_distractor_trianglediamonds.svg	33	no	ga	1	1038	6	1	antiphase_hc_iso.wav	2	6	5	noise_calib_stim_RIGHT.wav	2	33	blb_dichoticlistening_ta-ga.mp3	ta	ga	1	right
6.6.1	win	2023-06-01	23:33:30	23:43:54	623203	63d77a647dbf6c0c53b0d375	3	1	DL_test	23	DL_test	6	stimuli_distractor_trianglediamonds.svg	stimuli_distractor_trianglediamonds.svg	33	no	da	1	836	6	1	antiphase_hc_iso.wav	2	6	5	noise_calib_stim_RIGHT.wav	2	9	blb_dichoticlistening_da-ga.mp3	da	ga	1	left
6.6.1	win	2023-06-01	23:33:30	23:43:54	623203	63d77a647dbf6c0c53b0d375	3	1	DL_test	23	DL_test	7	stimuli_distractor_trianglediamonds.svg	stimuli_distractor_trianglediamonds.svg	33	no	ka	0	1829	6	1	antiphase_hc_iso.wav	2	6	5	noise_calib_stim_RIGHT.wav	2	17	blb_dichoticlistening_ga-pa.mp3	ga	pa	1	other
6.6.1	win	2023-06-01	23:33:30	23:43:54	623203	63d77a647dbf6c0c53b0d375	3	1	DL_test	23	DL_test	8	stimuli_distractor_trianglediamonds.svg	stimuli_distractor_trianglediamonds.svg	33	no	pa	1	1159	6	1	antiphase_hc_iso.wav	2	6	5	noise_calib_stim_RIGHT.wav	2	5	blb_dichoticlistening_ba-pa.mp3	ba	pa	1	right
6.6.1	win	2023-06-01	23:33:30	23:43:54	623203	63d77a647dbf6c0c53b0d375	3	1	DL_test	23	DL_test	9	stimuli_distractor_trianglediamonds.svg	stimuli_distractor_trianglediamonds.svg	33	no	ta	1	946	6	1	antiphase_hc_iso.wav	2	6	5	noise_calib_stim_RIGHT.wav	2	36	blb_dichoticlistening_ta-ta.mp3	ta	ta	0	left
6.6.1	win	2023-06-01	23:33:30	23:43:54	623203	63d77a647dbf6c0c53b0d375	3	1	DL_test	23	DL_test	10	stimuli_distractor_trianglediamonds.svg	stimuli_distractor_trianglediamonds.svg	33	no	da	1	826	6	1	antiphase_hc_iso.wav	2	6	5	noise_calib_stim_RIGHT.wav	2	2	blb_dichoticlistening_ba-da.mp3	ba	da	1	right
6.6.1	win	2023-06-01	23:33:30	23:43:54	623203	63d77a647dbf6c0c53b0d375	3	1	DL_test	23	DL_test	11	stimuli_distractor_trianglediamonds.svg	stimuli_distractor_trianglediamonds.svg	33	no	ta	1	1323	6	1	antiphase_hc_iso.wav	2	6	5	noise_calib_stim_RIGHT.wav	2	12	blb_dichoticlistening_da-ta.mp3	da	ta	1	right
6.6.1	win	2023-06-01	23:33:30	23:43:54	623203	63d77a647dbf6c0c53b0d375	3	1	DL_test	23	DL_test	12	stimuli_distractor_trianglediamonds.svg	stimuli_distractor_trianglediamonds.svg	33	no	ka	1	931	6	1	antiphase_hc_iso.wav	2	6	5	noise_calib_stim_RIGHT.wav	2	21	blb_dichoticlistening_ka-ga.mp3	ka	ga	1	left
6.6.1	win	2023-06-01	23:33:30	23:43:54	623203	63d77a647dbf6c0c53b0d375	3	1	DL_test	23	DL_test	13	stimuli_distractor_trianglediamonds.svg	stimuli_distractor_trianglediamonds.svg	33	no	pa	1	1114	6	1	antiphase_hc_iso.wav	2	6	5	noise_calib_stim_RIGHT.wav	2	23	blb_dichoticlistening_ka-pa.mp3	ka	pa	1	right
6.6.1	win	2023-06-01	23:33:30	23:43:54	623203	63d77a647dbf6c0c53b0d375	3	1	DL_test	23	DL_test	14	stimuli_distractor_trianglediamonds.svg	stimuli_distractor_trianglediamonds.svg	33	no	ka	1	791	6	1	antiphase_hc_iso.wav	2	6	5	noise_calib_stim_RIGHT.wav	2	24	blb_dichoticlistening_ka-ta.mp3	ka	ta	1	left
6.6.1	win	2023-06-01	23:33:30	23:43:54	623203	63d77a647dbf6c0c53b0d375	3	1	DL_test	23	DL_test	15	stimuli_distractor_trianglediamonds.svg	stimuli_distractor_trianglediamonds.svg	33	no	ta	1	1074	6	1	antiphase_hc_iso.wav	2	6	5	noise_calib_stim_RIGHT.wav	2	6	blb_dichoticlistening_ba-ta.mp3	ba	ta	1	right
6.6.1	win	2023-06-01	23:33:30	23:43:54	623203	63d77a647dbf6c0c53b0d375	3	1	DL_test	23	DL_test	16	stimuli_distractor_trianglediamonds.svg	stimuli_distractor_trianglediamonds.svg	33	no	da	0	1093	6	1	antiphase_hc_iso.wav	2	6	5	noise_calib_stim_RIGHT.wav	2	3	blb_dichoticlistening_ba-ga.mp3	ba	ga	1	other
6.6.1	win	2023-06-01	23:33:30	23:43:54	623203	63d77a647dbf6c0c53b0d375	3	1	DL_test	23	DL_test	17	stimuli_distractor_trianglediamonds.svg	stimuli_distractor_trianglediamonds.svg	33	no	ka	1	1084	6	1	antiphase_hc_iso.wav	2	6	5	noise_calib_stim_RIGHT.wav	2	16	blb_dichoticlistening_ga-ka.mp3	ga	ka	1	right
6.6.1	win	2023-06-01	23:33:30	23:43:54	623203	63d77a647dbf6c0c53b0d375	3	1	DL_test	23	DL_test	18	stimuli_distractor_trianglediamonds.svg	stimuli_distractor_trianglediamonds.svg	33	no	ta	1	1119	6	1	antiphase_hc_iso.wav	2	6	5	noise_calib_stim_RIGHT.wav	2	30	blb_dichoticlistening_pa-ta.mp3	pa	ta	1	right
6.6.1	win	2023-06-01	23:33:30	23:43:54	623203	63d77a647dbf6c0c53b0d375	3	1	DL_test	23	DL_test	19	stimuli_distractor_trianglediamonds.svg	stimuli_distractor_trianglediamonds.svg	33	no	ka	1	2008	6	1	antiphase_hc_iso.wav	2	6	5	noise_calib_stim_RIGHT.wav	2	28	blb_dichoticlistening_pa-ka.mp3	pa	ka	1	right
6.6.1	win	2023-06-01	23:33:30	23:43:54	623203	63d77a647dbf6c0c53b0d375	3	1	DL_test	23	DL_test	20	stimuli_distractor_trianglediamonds.svg	stimuli_distractor_trianglediamonds.svg	33	no	pa	0	1323	6	1	antiphase_hc_iso.wav	2	6	5	noise_calib_stim_RIGHT.wav	2	4	blb_dichoticlistening_ba-ka.mp3	ba	ka	1	other
6.6.1	win	2023-06-01	23:33:30	23:43:54	623203	63d77a647dbf6c0c53b0d375	3	1	DL_test	23	DL_test	21	stimuli_distractor_trianglediamonds.svg	stimuli_distractor_trianglediamonds.svg	33	no	pa	0	947	6	1	antiphase_hc_iso.wav	2	6	5	noise_calib_stim_RIGHT.wav	2	19	blb_dichoticlistening_ka-ba.mp3	ka	ba	1	other
6.6.1	win	2023-06-01	23:33:30	23:43:54	623203	63d77a647dbf6c0c53b0d375	3	1	DL_test	23	DL_test	22	stimuli_distractor_trianglediamonds.svg	stimuli_distractor_trianglediamonds.svg	33	no	da	1	1388	6	1	antiphase_hc_iso.wav	2	6	5	noise_calib_stim_RIGHT.wav	2	26	blb_dichoticlistening_pa-da.mp3	pa	da	1	right
6.6.1	win	2023-06-01	23:33:30	23:43:54	623203	63d77a647dbf6c0c53b0d375	3	1	DL_test	23	DL_test	23	stimuli_distractor_trianglediamonds.svg	stimuli_distractor_trianglediamonds.svg	33	no	ba	1	826	6	1	antiphase_hc_iso.wav	2	6	5	noise_calib_stim_RIGHT.wav	2	1	blb_dichoticlistening_ba-ba.mp3	ba	ba	0	left
6.6.1	win	2023-06-01	23:33:30	23:43:54	623203	63d77a647dbf6c0c53b0d375	3	1	DL_test	23	DL_test	24	stimuli_distractor_trianglediamonds.svg	stimuli_distractor_trianglediamonds.svg	33	no	ka	1	1044	6	1	antiphase_hc_iso.wav	2	6	5	noise_calib_stim_RIGHT.wav	2	20	blb_dichoticlistening_ka-da.mp3	ka	da	1	left
6.6.1	win	2023-06-01	23:33:30	23:43:54	623203	63d77a647dbf6c0c53b0d375	3	1	DL_test	23	DL_test	25	stimuli_distractor_trianglediamonds.svg	stimuli_distractor_trianglediamonds.svg	33	no	ka	0	1417	6	1	antiphase_hc_iso.wav	2	6	5	noise_calib_stim_RIGHT.wav	2	18	blb_dichoticlistening_ga-ta.mp3	ga	ta	1	other
