build	computer.platform	date	time	timestamp	time_elapsed_ms	subject	group	session	blockcode	blocknum	trialcode	trialnum	stimulus_left	stimulus_right	stim_index	target_present	response	correct	latency	headphonecheck_countTestTrials	headphonecheck_index	headphonecheck_testSound	headphonecheck_correctResponse	stereocheck_countTestTrials	stereocheck_index	stereocheck_testSound	stereocheck_correctResponse	DL_index	DL_soundfile	DL_leftSound	DL_rightSound	DL_dualSound	DL_choice
6.6.1	win	2023-07-09	11:37:19	11:39:51	148097	5e60db57fdef8001c1fdc6f7	4	1	practice_z	5	practice_z	1	stimuli_target_squarediamonds.svg	stimuli_distractor_trianglediamonds.svg	5	yes	44	1	642	0	0			0	0			1				0	
6.6.1	win	2023-07-09	11:37:19	11:39:51	148097	5e60db57fdef8001c1fdc6f7	4	1	practice_z	5	advance_on_keypress_ZEE	2	stimuli_target_squarediamonds.svg	stimuli_distractor_trianglediamonds.svg	5	yes	57	0	2151	0	0			0	0			1				0	
6.6.1	win	2023-07-09	11:37:19	11:39:55	152249	5e60db57fdef8001c1fdc6f7	4	1	practice_z	5	practice_z	3	stimuli_distractor_trianglediamonds.svg	stimuli_target_rectanglediamonds.svg	10	yes	44	1	344	0	0			0	0			1				0	
6.6.1	win	2023-07-09	11:37:19	11:39:55	152249	5e60db57fdef8001c1fdc6f7	4	1	practice_z	5	advance_on_keypress_ZEE	4	stimuli_distractor_trianglediamonds.svg	stimuli_target_rectanglediamonds.svg	10	yes	57	0	978	0	0			0	0			1				0	
6.6.1	win	2023-07-09	11:37:19	11:39:59	156872	5e60db57fdef8001c1fdc6f7	4	1	practice_z	5	practice_z	5	stimuli_target_diamondsquares.svg	stimuli_distractor_trianglediamonds.svg	6	yes	0	0	2000	0	0			0	0			1				0	
6.6.1	win	2023-07-09	11:37:19	11:39:59	156872	5e60db57fdef8001c1fdc6f7	4	1	practice_z	5	advance_on_keypress_ZEE	6	stimuli_target_diamondsquares.svg	stimuli_distractor_trianglediamonds.svg	6	yes	57	0	1408	0	0			0	0			1				0	
6.6.1	win	2023-07-09	11:37:19	11:40:03	160471	5e60db57fdef8001c1fdc6f7	4	1	practice_z	5	practice_z	7	stimuli_distractor_trianglediamonds.svg	stimuli_target_squarediamonds.svg	11	yes	44	1	550	0	0			0	0			1				0	
6.6.1	win	2023-07-09	11:37:19	11:40:03	160471	5e60db57fdef8001c1fdc6f7	4	1	practice_z	5	advance_on_keypress_ZEE	8	stimuli_distractor_trianglediamonds.svg	stimuli_target_squarediamonds.svg	11	yes	57	0	672	0	0			0	0			1				0	
6.6.1	win	2023-07-09	11:37:19	11:40:06	163304	5e60db57fdef8001c1fdc6f7	4	1	practice_z	5	practice_z	9	stimuli_target_rectanglediamonds.svg	stimuli_distractor_diamondtriangles.svg	1	yes	44	1	516	0	0			0	0			1				0	
6.6.1	win	2023-07-09	11:37:19	11:40:06	163304	5e60db57fdef8001c1fdc6f7	4	1	practice_z	5	advance_on_keypress_ZEE	10	stimuli_target_rectanglediamonds.svg	stimuli_distractor_diamondtriangles.svg	1	yes	57	0	567	0	0			0	0			1				0	
6.6.1	win	2023-07-09	11:37:19	11:40:10	167520	5e60db57fdef8001c1fdc6f7	4	1	practice_z	5	practice_z	11	stimuli_target_rectanglediamonds.svg	stimuli_distractor_trianglediamonds.svg	4	yes	0	0	2000	0	0			0	0			1				0	
6.6.1	win	2023-07-09	11:37:19	11:40:10	167520	5e60db57fdef8001c1fdc6f7	4	1	practice_z	5	advance_on_keypress_ZEE	12	stimuli_target_rectanglediamonds.svg	stimuli_distractor_trianglediamonds.svg	4	yes	57	0	1693	0	0			0	0			1				0	
6.6.1	win	2023-07-09	11:37:19	11:40:14	171623	5e60db57fdef8001c1fdc6f7	4	1	practice_z	5	practice_z	13	stimuli_target_squarediamonds.svg	stimuli_distractor_diamondtriangles.svg	2	yes	44	1	770	0	0			0	0			1				0	
6.6.1	win	2023-07-09	11:37:19	11:40:14	171623	5e60db57fdef8001c1fdc6f7	4	1	practice_z	5	advance_on_keypress_ZEE	14	stimuli_target_squarediamonds.svg	stimuli_distractor_diamondtriangles.svg	2	yes	57	0	1490	0	0			0	0			1				0	
6.6.1	win	2023-07-09	11:37:19	11:40:18	175335	5e60db57fdef8001c1fdc6f7	4	1	practice_z	5	practice_z	15	stimuli_distractor_trianglediamonds.svg	stimuli_target_diamondrectangles.svg	12	yes	44	1	582	0	0			0	0			1				0	
6.6.1	win	2023-07-09	11:37:19	11:40:18	175335	5e60db57fdef8001c1fdc6f7	4	1	practice_z	5	advance_on_keypress_ZEE	16	stimuli_distractor_trianglediamonds.svg	stimuli_target_diamondrectangles.svg	12	yes	57	0	422	0	0			0	0			1				0	
6.6.1	win	2023-07-09	11:37:19	11:40:22	179403	5e60db57fdef8001c1fdc6f7	4	1	practice_z	5	practice_z	17	stimuli_distractor_diamondtriangles.svg	stimuli_distractor_trianglediamonds.svg	14	no	0	1	2000	0	0			0	0			1				0	
6.6.1	win	2023-07-09	11:37:19	11:40:22	179403	5e60db57fdef8001c1fdc6f7	4	1	practice_z	5	advance_on_keypress_ZEE	18	stimuli_distractor_diamondtriangles.svg	stimuli_distractor_trianglediamonds.svg	14	no	57	0	403	0	0			0	0			1				0	
6.6.1	win	2023-07-09	11:37:19	11:40:25	182247	5e60db57fdef8001c1fdc6f7	4	1	practice_z	5	practice_z	19	stimuli_target_diamondsquares.svg	stimuli_distractor_diamondtriangles.svg	3	yes	44	1	793	0	0			0	0			1				0	
6.6.1	win	2023-07-09	11:37:19	11:40:25	182247	5e60db57fdef8001c1fdc6f7	4	1	practice_z	5	advance_on_keypress_ZEE	20	stimuli_target_diamondsquares.svg	stimuli_distractor_diamondtriangles.svg	3	yes	57	0	1114	0	0			0	0			1				0	
6.6.1	win	2023-07-09	11:37:19	11:40:28	185951	5e60db57fdef8001c1fdc6f7	4	1	practice_z	5	practice_z	21	stimuli_distractor_diamondtriangles.svg	stimuli_target_diamondrectangles.svg	8	yes	44	1	948	0	0			0	0			1				0	
6.6.1	win	2023-07-09	11:37:19	11:40:28	185951	5e60db57fdef8001c1fdc6f7	4	1	practice_z	5	advance_on_keypress_ZEE	22	stimuli_distractor_diamondtriangles.svg	stimuli_target_diamondrectangles.svg	8	yes	57	0	517	0	0			0	0			1				0	
6.6.1	win	2023-07-09	11:37:19	11:40:31	188855	5e60db57fdef8001c1fdc6f7	4	1	practice_z	5	practice_z	23	stimuli_distractor_diamondtriangles.svg	stimuli_target_rectangletriangles.svg	7	yes	44	1	734	0	0			0	0			1				0	
6.6.1	win	2023-07-09	11:37:19	11:40:31	188855	5e60db57fdef8001c1fdc6f7	4	1	practice_z	5	advance_on_keypress_ZEE	24	stimuli_distractor_diamondtriangles.svg	stimuli_target_rectangletriangles.svg	7	yes	57	0	345	0	0			0	0			1				0	
6.6.1	win	2023-07-09	11:37:19	11:40:34	191632	5e60db57fdef8001c1fdc6f7	4	1	practice_z	5	practice_z	25	stimuli_distractor_diamondtriangles.svg	stimuli_target_trianglerectangles.svg	9	yes	44	1	778	0	0			0	0			1				0	
6.6.1	win	2023-07-09	11:37:19	11:40:34	191632	5e60db57fdef8001c1fdc6f7	4	1	practice_z	5	advance_on_keypress_ZEE	26	stimuli_distractor_diamondtriangles.svg	stimuli_target_trianglerectangles.svg	9	yes	57	0	483	0	0			0	0			1				0	
6.6.1	win	2023-07-09	11:37:19	11:40:38	195754	5e60db57fdef8001c1fdc6f7	4	1	practice_z	5	practice_z	27	stimuli_distractor_diamondtriangles.svg	stimuli_distractor_diamondtriangles.svg	13	no	0	1	2000	0	0			0	0			1				0	
6.6.1	win	2023-07-09	11:37:19	11:40:38	195754	5e60db57fdef8001c1fdc6f7	4	1	practice_z	5	advance_on_keypress_ZEE	28	stimuli_distractor_diamondtriangles.svg	stimuli_distractor_diamondtriangles.svg	13	no	57	0	324	0	0			0	0			1				0	
6.6.1	win	2023-07-09	11:37:19	11:40:42	199722	5e60db57fdef8001c1fdc6f7	4	1	practice_z	5	practice_z	29	stimuli_distractor_trianglediamonds.svg	stimuli_distractor_trianglediamonds.svg	15	no	0	1	2000	0	0			0	0			1				0	
6.6.1	win	2023-07-09	11:37:19	11:40:42	199722	5e60db57fdef8001c1fdc6f7	4	1	practice_z	5	advance_on_keypress_ZEE	30	stimuli_distractor_trianglediamonds.svg	stimuli_distractor_trianglediamonds.svg	15	no	57	0	1631	0	0			0	0			1				0	
6.6.1	win	2023-07-09	11:37:19	11:40:47	204257	5e60db57fdef8001c1fdc6f7	4	1	practice_z	5	practice_z	31	stimuli_distractor_trianglediamonds.svg	stimuli_distractor_diamondtriangles.svg	16	no	44	0	1252	0	0			0	0			1				0	
6.6.1	win	2023-07-09	11:37:19	11:40:47	204257	5e60db57fdef8001c1fdc6f7	4	1	practice_z	5	advance_on_keypress_ZEE	32	stimuli_distractor_trianglediamonds.svg	stimuli_distractor_diamondtriangles.svg	16	no	57	0	392	0	0			0	0			1				0	
6.6.1	win	2023-07-09	11:37:19	11:40:59	216536	5e60db57fdef8001c1fdc6f7	4	1	main_z	7	main_z	1	stimuli_distractor_diamondtriangles.svg	stimuli_target_rectanglediamonds.svg	14	yes	44	1	482	0	0			0	0			1				0	
6.6.1	win	2023-07-09	11:37:19	11:40:59	216536	5e60db57fdef8001c1fdc6f7	4	1	main_z	7	advance_on_keypress_ZEE	2	stimuli_distractor_diamondtriangles.svg	stimuli_target_rectanglediamonds.svg	14	yes	57	0	1206	0	0			0	0			1				0	
6.6.1	win	2023-07-09	11:37:19	11:41:03	220386	5e60db57fdef8001c1fdc6f7	4	1	main_z	7	main_z	3	stimuli_distractor_trianglediamonds.svg	stimuli_distractor_diamondtriangles.svg	35	no	0	1	2000	0	0			0	0			1				0	
6.6.1	win	2023-07-09	11:37:19	11:41:03	220386	5e60db57fdef8001c1fdc6f7	4	1	main_z	7	advance_on_keypress_ZEE	4	stimuli_distractor_trianglediamonds.svg	stimuli_distractor_diamondtriangles.svg	35	no	57	0	604	0	0			0	0			1				0	
6.6.1	win	2023-07-09	11:37:19	11:41:05	222230	5e60db57fdef8001c1fdc6f7	4	1	main_z	7	main_z	5	stimuli_distractor_diamondtriangles.svg	stimuli_target_squaretriangles.svg	15	yes	44	1	595	0	0			0	0			1				0	
6.6.1	win	2023-07-09	11:37:19	11:41:05	222230	5e60db57fdef8001c1fdc6f7	4	1	main_z	7	advance_on_keypress_ZEE	6	stimuli_distractor_diamondtriangles.svg	stimuli_target_squaretriangles.svg	15	yes	57	0	803	0	0			0	0			1				0	
6.6.1	win	2023-07-09	11:37:19	11:41:07	224207	5e60db57fdef8001c1fdc6f7	4	1	main_z	7	main_z	7	stimuli_target_rectanglediamonds.svg	stimuli_distractor_diamondtriangles.svg	6	yes	44	1	538	0	0			0	0			1				0	
6.6.1	win	2023-07-09	11:37:19	11:41:07	224207	5e60db57fdef8001c1fdc6f7	4	1	main_z	7	advance_on_keypress_ZEE	8	stimuli_target_rectanglediamonds.svg	stimuli_distractor_diamondtriangles.svg	6	yes	57	0	484	0	0			0	0			1				0	
6.6.1	win	2023-07-09	11:37:19	11:41:10	227336	5e60db57fdef8001c1fdc6f7	4	1	main_z	7	main_z	9	stimuli_distractor_diamondtriangles.svg	stimuli_distractor_trianglediamonds.svg	38	no	0	1	2000	0	0			0	0			1				0	
6.6.1	win	2023-07-09	11:37:19	11:41:10	227336	5e60db57fdef8001c1fdc6f7	4	1	main_z	7	advance_on_keypress_ZEE	10	stimuli_distractor_diamondtriangles.svg	stimuli_distractor_trianglediamonds.svg	38	no	57	0	493	0	0			0	0			1				0	
6.6.1	win	2023-07-09	11:37:19	11:41:11	229031	5e60db57fdef8001c1fdc6f7	4	1	main_z	7	main_z	11	stimuli_distractor_trianglediamonds.svg	stimuli_target_rectangletriangles.svg	9	yes	44	1	562	0	0			0	0			1				0	
6.6.1	win	2023-07-09	11:37:19	11:41:11	229031	5e60db57fdef8001c1fdc6f7	4	1	main_z	7	advance_on_keypress_ZEE	12	stimuli_distractor_trianglediamonds.svg	stimuli_target_rectangletriangles.svg	9	yes	57	0	667	0	0			0	0			1				0	
6.6.1	win	2023-07-09	11:37:19	11:41:14	231103	5e60db57fdef8001c1fdc6f7	4	1	main_z	7	main_z	13	stimuli_distractor_diamondtriangles.svg	stimuli_target_diamondsquares.svg	32	yes	44	1	767	0	0			0	0			1				0	
6.6.1	win	2023-07-09	11:37:19	11:41:14	231103	5e60db57fdef8001c1fdc6f7	4	1	main_z	7	advance_on_keypress_ZEE	14	stimuli_distractor_diamondtriangles.svg	stimuli_target_diamondsquares.svg	32	yes	57	0	504	0	0			0	0			1				0	
6.6.1	win	2023-07-09	11:37:19	11:41:15	232935	5e60db57fdef8001c1fdc6f7	4	1	main_z	7	main_z	15	stimuli_distractor_trianglediamonds.svg	stimuli_target_trianglerectangles.svg	25	yes	44	1	682	0	0			0	0			1				0	
6.6.1	win	2023-07-09	11:37:19	11:41:15	232935	5e60db57fdef8001c1fdc6f7	4	1	main_z	7	advance_on_keypress_ZEE	16	stimuli_distractor_trianglediamonds.svg	stimuli_target_trianglerectangles.svg	25	yes	57	0	461	0	0			0	0			1				0	
6.6.1	win	2023-07-09	11:37:19	11:41:18	236036	5e60db57fdef8001c1fdc6f7	4	1	main_z	7	main_z	17	stimuli_distractor_diamondtriangles.svg	stimuli_distractor_diamondtriangles.svg	40	no	0	1	2000	0	0			0	0			1				0	
6.6.1	win	2023-07-09	11:37:19	11:41:18	236036	5e60db57fdef8001c1fdc6f7	4	1	main_z	7	advance_on_keypress_ZEE	18	stimuli_distractor_diamondtriangles.svg	stimuli_distractor_diamondtriangles.svg	40	no	57	0	394	0	0			0	0			1				0	
6.6.1	win	2023-07-09	11:37:19	11:41:20	237655	5e60db57fdef8001c1fdc6f7	4	1	main_z	7	main_z	19	stimuli_target_trianglerectangles.svg	stimuli_distractor_diamondtriangles.svg	21	yes	44	1	586	0	0			0	0			1				0	
6.6.1	win	2023-07-09	11:37:19	11:41:20	237655	5e60db57fdef8001c1fdc6f7	4	1	main_z	7	advance_on_keypress_ZEE	20	stimuli_target_trianglerectangles.svg	stimuli_distractor_diamondtriangles.svg	21	yes	57	0	522	0	0			0	0			1				0	
6.6.1	win	2023-07-09	11:37:19	11:41:22	239655	5e60db57fdef8001c1fdc6f7	4	1	main_z	7	main_z	21	stimuli_distractor_diamondtriangles.svg	stimuli_target_rectangletriangles.svg	13	yes	44	1	836	0	0			0	0			1				0	
6.6.1	win	2023-07-09	11:37:19	11:41:22	239655	5e60db57fdef8001c1fdc6f7	4	1	main_z	7	advance_on_keypress_ZEE	22	stimuli_distractor_diamondtriangles.svg	stimuli_target_rectangletriangles.svg	13	yes	57	0	434	0	0			0	0			1				0	
6.6.1	win	2023-07-09	11:37:19	11:41:24	241679	5e60db57fdef8001c1fdc6f7	4	1	main_z	7	main_z	23	stimuli_distractor_trianglediamonds.svg	stimuli_target_squaretriangles.svg	11	yes	44	1	943	0	0			0	0			1				0	
6.6.1	win	2023-07-09	11:37:19	11:41:24	241679	5e60db57fdef8001c1fdc6f7	4	1	main_z	7	advance_on_keypress_ZEE	24	stimuli_distractor_trianglediamonds.svg	stimuli_target_squaretriangles.svg	11	yes	57	0	456	0	0			0	0			1				0	
6.6.1	win	2023-07-09	11:37:19	11:41:26	243702	5e60db57fdef8001c1fdc6f7	4	1	main_z	7	main_z	25	stimuli_target_rectangletriangles.svg	stimuli_distractor_trianglediamonds.svg	1	yes	44	1	934	0	0			0	0			1				0	
6.6.1	win	2023-07-09	11:37:19	11:41:26	243702	5e60db57fdef8001c1fdc6f7	4	1	main_z	7	advance_on_keypress_ZEE	26	stimuli_target_rectangletriangles.svg	stimuli_distractor_trianglediamonds.svg	1	yes	57	0	688	0	0			0	0			1				0	
6.6.1	win	2023-07-09	11:37:19	11:41:28	245974	5e60db57fdef8001c1fdc6f7	4	1	main_z	7	main_z	27	stimuli_target_squaretriangles.svg	stimuli_distractor_trianglediamonds.svg	3	yes	44	1	938	0	0			0	0			1				0	
6.6.1	win	2023-07-09	11:37:19	11:41:28	245974	5e60db57fdef8001c1fdc6f7	4	1	main_z	7	advance_on_keypress_ZEE	28	stimuli_target_squaretriangles.svg	stimuli_distractor_trianglediamonds.svg	3	yes	57	0	701	0	0			0	0			1				0	
6.6.1	win	2023-07-09	11:37:19	11:41:31	248271	5e60db57fdef8001c1fdc6f7	4	1	main_z	7	main_z	29	stimuli_target_diamondrectangles.svg	stimuli_distractor_diamondtriangles.svg	23	yes	44	1	951	0	0			0	0			1				0	
6.6.1	win	2023-07-09	11:37:19	11:41:31	248271	5e60db57fdef8001c1fdc6f7	4	1	main_z	7	advance_on_keypress_ZEE	30	stimuli_target_diamondrectangles.svg	stimuli_distractor_diamondtriangles.svg	23	yes	57	0	697	0	0			0	0			1				0	
6.6.1	win	2023-07-09	11:37:19	11:41:33	250879	5e60db57fdef8001c1fdc6f7	4	1	main_z	7	main_z	31	stimuli_distractor_diamondtriangles.svg	stimuli_target_squarediamonds.svg	16	yes	44	1	1260	0	0			0	0			1				0	
6.6.1	win	2023-07-09	11:37:19	11:41:33	250879	5e60db57fdef8001c1fdc6f7	4	1	main_z	7	advance_on_keypress_ZEE	32	stimuli_distractor_diamondtriangles.svg	stimuli_target_squarediamonds.svg	16	yes	57	0	720	0	0			0	0			1				0	
6.6.1	win	2023-07-09	11:37:19	11:41:36	253312	5e60db57fdef8001c1fdc6f7	4	1	main_z	7	main_z	33	stimuli_target_diamondrectangles.svg	stimuli_distractor_trianglediamonds.svg	19	yes	44	1	1075	0	0			0	0			1				0	
6.6.1	win	2023-07-09	11:37:19	11:41:36	253312	5e60db57fdef8001c1fdc6f7	4	1	main_z	7	advance_on_keypress_ZEE	34	stimuli_target_diamondrectangles.svg	stimuli_distractor_trianglediamonds.svg	19	yes	57	0	672	0	0			0	0			1				0	
6.6.1	win	2023-07-09	11:37:19	11:41:38	255455	5e60db57fdef8001c1fdc6f7	4	1	main_z	7	main_z	35	stimuli_distractor_diamondtriangles.svg	stimuli_target_diamondrectangles.svg	31	yes	44	1	835	0	0			0	0			1				0	
6.6.1	win	2023-07-09	11:37:19	11:41:38	255455	5e60db57fdef8001c1fdc6f7	4	1	main_z	7	advance_on_keypress_ZEE	36	stimuli_distractor_diamondtriangles.svg	stimuli_target_diamondrectangles.svg	31	yes	57	0	746	0	0			0	0			1				0	
6.6.1	win	2023-07-09	11:37:19	11:41:40	257656	5e60db57fdef8001c1fdc6f7	4	1	main_z	7	main_z	37	stimuli_target_squarediamonds.svg	stimuli_distractor_diamondtriangles.svg	8	yes	44	1	819	0	0			0	0			1				0	
6.6.1	win	2023-07-09	11:37:19	11:41:40	257656	5e60db57fdef8001c1fdc6f7	4	1	main_z	7	advance_on_keypress_ZEE	38	stimuli_target_squarediamonds.svg	stimuli_distractor_diamondtriangles.svg	8	yes	57	0	882	0	0			0	0			1				0	
6.6.1	win	2023-07-09	11:37:19	11:41:42	259832	5e60db57fdef8001c1fdc6f7	4	1	main_z	7	main_z	39	stimuli_target_trianglerectangles.svg	stimuli_distractor_trianglediamonds.svg	17	yes	44	1	645	0	0			0	0			1				0	
6.6.1	win	2023-07-09	11:37:19	11:41:42	259832	5e60db57fdef8001c1fdc6f7	4	1	main_z	7	advance_on_keypress_ZEE	40	stimuli_target_trianglerectangles.svg	stimuli_distractor_trianglediamonds.svg	17	yes	57	0	722	0	0			0	0			1				0	
6.6.1	win	2023-07-09	11:37:19	11:41:44	261840	5e60db57fdef8001c1fdc6f7	4	1	main_z	7	main_z	41	stimuli_distractor_trianglediamonds.svg	stimuli_target_squarediamonds.svg	12	yes	44	1	653	0	0			0	0			1				0	
6.6.1	win	2023-07-09	11:37:19	11:41:44	261840	5e60db57fdef8001c1fdc6f7	4	1	main_z	7	advance_on_keypress_ZEE	42	stimuli_distractor_trianglediamonds.svg	stimuli_target_squarediamonds.svg	12	yes	57	0	659	0	0			0	0			1				0	
6.6.1	win	2023-07-09	11:37:19	11:41:46	263767	5e60db57fdef8001c1fdc6f7	4	1	main_z	7	main_z	43	stimuli_distractor_trianglediamonds.svg	stimuli_target_rectanglediamonds.svg	10	yes	44	1	631	0	0			0	0			1				0	
6.6.1	win	2023-07-09	11:37:19	11:41:46	263767	5e60db57fdef8001c1fdc6f7	4	1	main_z	7	advance_on_keypress_ZEE	44	stimuli_distractor_trianglediamonds.svg	stimuli_target_rectanglediamonds.svg	10	yes	57	0	589	0	0			0	0			1				0	
6.6.1	win	2023-07-09	11:37:19	11:41:48	265728	5e60db57fdef8001c1fdc6f7	4	1	main_z	7	main_z	45	stimuli_target_diamondsquares.svg	stimuli_distractor_trianglediamonds.svg	20	yes	44	1	725	0	0			0	0			1				0	
6.6.1	win	2023-07-09	11:37:19	11:41:48	265728	5e60db57fdef8001c1fdc6f7	4	1	main_z	7	advance_on_keypress_ZEE	46	stimuli_target_diamondsquares.svg	stimuli_distractor_trianglediamonds.svg	20	yes	57	0	591	0	0			0	0			1				0	
6.6.1	win	2023-07-09	11:37:19	11:41:50	267567	5e60db57fdef8001c1fdc6f7	4	1	main_z	7	main_z	47	stimuli_distractor_diamondtriangles.svg	stimuli_target_trianglesquares.svg	30	yes	44	1	615	0	0			0	0			1				0	
6.6.1	win	2023-07-09	11:37:19	11:41:50	267567	5e60db57fdef8001c1fdc6f7	4	1	main_z	7	advance_on_keypress_ZEE	48	stimuli_distractor_diamondtriangles.svg	stimuli_target_trianglesquares.svg	30	yes	57	0	540	0	0			0	0			1				0	
6.6.1	win	2023-07-09	11:37:19	11:41:52	269487	5e60db57fdef8001c1fdc6f7	4	1	main_z	7	main_z	49	stimuli_distractor_diamondtriangles.svg	stimuli_target_trianglerectangles.svg	29	yes	44	1	734	0	0			0	0			1				0	
6.6.1	win	2023-07-09	11:37:19	11:41:52	269487	5e60db57fdef8001c1fdc6f7	4	1	main_z	7	advance_on_keypress_ZEE	50	stimuli_distractor_diamondtriangles.svg	stimuli_target_trianglerectangles.svg	29	yes	57	0	497	0	0			0	0			1				0	
6.6.1	win	2023-07-09	11:37:19	11:41:54	271528	5e60db57fdef8001c1fdc6f7	4	1	main_z	7	main_z	51	stimuli_target_squaretriangles.svg	stimuli_distractor_diamondtriangles.svg	7	yes	44	1	891	0	0			0	0			1				0	
6.6.1	win	2023-07-09	11:37:19	11:41:54	271528	5e60db57fdef8001c1fdc6f7	4	1	main_z	7	advance_on_keypress_ZEE	52	stimuli_target_squaretriangles.svg	stimuli_distractor_diamondtriangles.svg	7	yes	57	0	487	0	0			0	0			1				0	
6.6.1	win	2023-07-09	11:37:19	11:41:56	273263	5e60db57fdef8001c1fdc6f7	4	1	main_z	7	main_z	53	stimuli_target_diamondsquares.svg	stimuli_distractor_diamondtriangles.svg	24	yes	44	1	610	0	0			0	0			1				0	
6.6.1	win	2023-07-09	11:37:19	11:41:56	273263	5e60db57fdef8001c1fdc6f7	4	1	main_z	7	advance_on_keypress_ZEE	54	stimuli_target_diamondsquares.svg	stimuli_distractor_diamondtriangles.svg	24	yes	57	0	482	0	0			0	0			1				0	
6.6.1	win	2023-07-09	11:37:19	11:41:57	274976	5e60db57fdef8001c1fdc6f7	4	1	main_z	7	main_z	55	stimuli_target_trianglesquares.svg	stimuli_distractor_trianglediamonds.svg	18	yes	44	1	589	0	0			0	0			1				0	
6.6.1	win	2023-07-09	11:37:19	11:41:57	274976	5e60db57fdef8001c1fdc6f7	4	1	main_z	7	advance_on_keypress_ZEE	56	stimuli_target_trianglesquares.svg	stimuli_distractor_trianglediamonds.svg	18	yes	57	0	572	0	0			0	0			1				0	
6.6.1	win	2023-07-09	11:37:19	11:41:59	276719	5e60db57fdef8001c1fdc6f7	4	1	main_z	7	main_z	57	stimuli_target_rectangletriangles.svg	stimuli_distractor_diamondtriangles.svg	5	yes	44	1	532	0	0			0	0			1				0	
6.6.1	win	2023-07-09	11:37:19	11:41:59	276719	5e60db57fdef8001c1fdc6f7	4	1	main_z	7	advance_on_keypress_ZEE	58	stimuli_target_rectangletriangles.svg	stimuli_distractor_diamondtriangles.svg	5	yes	57	0	607	0	0			0	0			1				0	
6.6.1	win	2023-07-09	11:37:19	11:42:01	278750	5e60db57fdef8001c1fdc6f7	4	1	main_z	7	main_z	59	stimuli_distractor_trianglediamonds.svg	stimuli_distractor_diamondtriangles.svg	36	no	44	0	781	0	0			0	0			1				0	
6.6.1	win	2023-07-09	11:37:19	11:42:01	278750	5e60db57fdef8001c1fdc6f7	4	1	main_z	7	advance_on_keypress_ZEE	60	stimuli_distractor_trianglediamonds.svg	stimuli_distractor_diamondtriangles.svg	36	no	57	0	422	0	0			0	0			1				0	
6.6.1	win	2023-07-09	11:37:19	11:42:04	281819	5e60db57fdef8001c1fdc6f7	4	1	main_z	7	main_z	61	stimuli_distractor_trianglediamonds.svg	stimuli_distractor_trianglediamonds.svg	33	no	0	1	2000	0	0			0	0			1				0	
6.6.1	win	2023-07-09	11:37:19	11:42:04	281819	5e60db57fdef8001c1fdc6f7	4	1	main_z	7	advance_on_keypress_ZEE	62	stimuli_distractor_trianglediamonds.svg	stimuli_distractor_trianglediamonds.svg	33	no	57	0	451	0	0			0	0			1				0	
6.6.1	win	2023-07-09	11:37:19	11:42:06	283535	5e60db57fdef8001c1fdc6f7	4	1	main_z	7	main_z	63	stimuli_distractor_trianglediamonds.svg	stimuli_target_diamondsquares.svg	28	yes	44	1	616	0	0			0	0			1				0	
6.6.1	win	2023-07-09	11:37:19	11:42:06	283535	5e60db57fdef8001c1fdc6f7	4	1	main_z	7	advance_on_keypress_ZEE	64	stimuli_distractor_trianglediamonds.svg	stimuli_target_diamondsquares.svg	28	yes	57	0	478	0	0			0	0			1				0	
6.6.1	win	2023-07-09	11:37:19	11:42:08	285295	5e60db57fdef8001c1fdc6f7	4	1	main_z	7	main_z	65	stimuli_target_rectanglediamonds.svg	stimuli_distractor_trianglediamonds.svg	2	yes	44	1	643	0	0			0	0			1				0	
6.6.1	win	2023-07-09	11:37:19	11:42:08	285295	5e60db57fdef8001c1fdc6f7	4	1	main_z	7	advance_on_keypress_ZEE	66	stimuli_target_rectanglediamonds.svg	stimuli_distractor_trianglediamonds.svg	2	yes	57	0	393	0	0			0	0			1				0	
6.6.1	win	2023-07-09	11:37:19	11:42:09	287023	5e60db57fdef8001c1fdc6f7	4	1	main_z	7	main_z	67	stimuli_target_trianglesquares.svg	stimuli_distractor_diamondtriangles.svg	22	yes	44	1	704	0	0			0	0			1				0	
6.6.1	win	2023-07-09	11:37:19	11:42:09	287023	5e60db57fdef8001c1fdc6f7	4	1	main_z	7	advance_on_keypress_ZEE	68	stimuli_target_trianglesquares.svg	stimuli_distractor_diamondtriangles.svg	22	yes	57	0	339	0	0			0	0			1				0	
6.6.1	win	2023-07-09	11:37:19	11:42:11	288567	5e60db57fdef8001c1fdc6f7	4	1	main_z	7	main_z	69	stimuli_distractor_trianglediamonds.svg	stimuli_target_trianglesquares.svg	26	yes	44	1	565	0	0			0	0			1				0	
6.6.1	win	2023-07-09	11:37:19	11:42:11	288567	5e60db57fdef8001c1fdc6f7	4	1	main_z	7	advance_on_keypress_ZEE	70	stimuli_distractor_trianglediamonds.svg	stimuli_target_trianglesquares.svg	26	yes	57	0	341	0	0			0	0			1				0	
6.6.1	win	2023-07-09	11:37:19	11:42:14	291552	5e60db57fdef8001c1fdc6f7	4	1	main_z	7	main_z	71	stimuli_distractor_trianglediamonds.svg	stimuli_distractor_trianglediamonds.svg	34	no	0	1	2000	0	0			0	0			1				0	
6.6.1	win	2023-07-09	11:37:19	11:42:14	291552	5e60db57fdef8001c1fdc6f7	4	1	main_z	7	advance_on_keypress_ZEE	72	stimuli_distractor_trianglediamonds.svg	stimuli_distractor_trianglediamonds.svg	34	no	57	0	326	0	0			0	0			1				0	
6.6.1	win	2023-07-09	11:37:19	11:42:17	294519	5e60db57fdef8001c1fdc6f7	4	1	main_z	7	main_z	73	stimuli_distractor_diamondtriangles.svg	stimuli_distractor_diamondtriangles.svg	39	no	0	1	2000	0	0			0	0			1				0	
6.6.1	win	2023-07-09	11:37:19	11:42:17	294519	5e60db57fdef8001c1fdc6f7	4	1	main_z	7	advance_on_keypress_ZEE	74	stimuli_distractor_diamondtriangles.svg	stimuli_distractor_diamondtriangles.svg	39	no	57	0	367	0	0			0	0			1				0	
6.6.1	win	2023-07-09	11:37:19	11:42:18	296007	5e60db57fdef8001c1fdc6f7	4	1	main_z	7	main_z	75	stimuli_distractor_trianglediamonds.svg	stimuli_target_diamondrectangles.svg	27	yes	44	1	471	0	0			0	0			1				0	
6.6.1	win	2023-07-09	11:37:19	11:42:18	296007	5e60db57fdef8001c1fdc6f7	4	1	main_z	7	advance_on_keypress_ZEE	76	stimuli_distractor_trianglediamonds.svg	stimuli_target_diamondrectangles.svg	27	yes	57	0	364	0	0			0	0			1				0	
6.6.1	win	2023-07-09	11:37:19	11:42:21	299019	5e60db57fdef8001c1fdc6f7	4	1	main_z	7	main_z	77	stimuli_distractor_diamondtriangles.svg	stimuli_distractor_trianglediamonds.svg	37	no	0	1	2000	0	0			0	0			1				0	
6.6.1	win	2023-07-09	11:37:19	11:42:21	299019	5e60db57fdef8001c1fdc6f7	4	1	main_z	7	advance_on_keypress_ZEE	78	stimuli_distractor_diamondtriangles.svg	stimuli_distractor_trianglediamonds.svg	37	no	57	0	330	0	0			0	0			1				0	
6.6.1	win	2023-07-09	11:37:19	11:42:23	300648	5e60db57fdef8001c1fdc6f7	4	1	main_z	7	main_z	79	stimuli_target_squarediamonds.svg	stimuli_distractor_trianglediamonds.svg	4	yes	44	1	645	0	0			0	0			1				0	
6.6.1	win	2023-07-09	11:37:19	11:42:23	300648	5e60db57fdef8001c1fdc6f7	4	1	main_z	7	advance_on_keypress_ZEE	80	stimuli_target_squarediamonds.svg	stimuli_distractor_trianglediamonds.svg	4	yes	57	0	380	0	0			0	0			1				0	
6.6.1	win	2023-07-09	11:37:19	11:42:25	302279	5e60db57fdef8001c1fdc6f7	4	1	main_z	7	main_z	81	stimuli_distractor_trianglediamonds.svg	stimuli_target_diamondrectangles.svg	27	yes	44	1	626	0	0			0	0			1				0	
6.6.1	win	2023-07-09	11:37:19	11:42:25	302279	5e60db57fdef8001c1fdc6f7	4	1	main_z	7	advance_on_keypress_ZEE	82	stimuli_distractor_trianglediamonds.svg	stimuli_target_diamondrectangles.svg	27	yes	57	0	402	0	0			0	0			1				0	
6.6.1	win	2023-07-09	11:37:19	11:42:26	303968	5e60db57fdef8001c1fdc6f7	4	1	main_z	7	main_z	83	stimuli_distractor_trianglediamonds.svg	stimuli_target_squarediamonds.svg	12	yes	44	1	648	0	0			0	0			1				0	
6.6.1	win	2023-07-09	11:37:19	11:42:26	303968	5e60db57fdef8001c1fdc6f7	4	1	main_z	7	advance_on_keypress_ZEE	84	stimuli_distractor_trianglediamonds.svg	stimuli_target_squarediamonds.svg	12	yes	57	0	470	0	0			0	0			1				0	
6.6.1	win	2023-07-09	11:37:19	11:42:28	305624	5e60db57fdef8001c1fdc6f7	4	1	main_z	7	main_z	85	stimuli_target_rectangletriangles.svg	stimuli_distractor_trianglediamonds.svg	1	yes	44	1	538	0	0			0	0			1				0	
6.6.1	win	2023-07-09	11:37:19	11:42:28	305624	5e60db57fdef8001c1fdc6f7	4	1	main_z	7	advance_on_keypress_ZEE	86	stimuli_target_rectangletriangles.svg	stimuli_distractor_trianglediamonds.svg	1	yes	57	0	444	0	0			0	0			1				0	
6.6.1	win	2023-07-09	11:37:19	11:42:30	307312	5e60db57fdef8001c1fdc6f7	4	1	main_z	7	main_z	87	stimuli_distractor_diamondtriangles.svg	stimuli_target_diamondsquares.svg	32	yes	44	1	609	0	0			0	0			1				0	
6.6.1	win	2023-07-09	11:37:19	11:42:30	307312	5e60db57fdef8001c1fdc6f7	4	1	main_z	7	advance_on_keypress_ZEE	88	stimuli_distractor_diamondtriangles.svg	stimuli_target_diamondsquares.svg	32	yes	57	0	864	0	0			0	0			1				0	
6.6.1	win	2023-07-09	11:37:19	11:42:32	309432	5e60db57fdef8001c1fdc6f7	4	1	main_z	7	main_z	89	stimuli_distractor_diamondtriangles.svg	stimuli_target_squarediamonds.svg	16	yes	44	1	612	0	0			0	0			1				0	
6.6.1	win	2023-07-09	11:37:19	11:42:32	309432	5e60db57fdef8001c1fdc6f7	4	1	main_z	7	advance_on_keypress_ZEE	90	stimuli_distractor_diamondtriangles.svg	stimuli_target_squarediamonds.svg	16	yes	57	0	500	0	0			0	0			1				0	
6.6.1	win	2023-07-09	11:37:19	11:42:34	311272	5e60db57fdef8001c1fdc6f7	4	1	main_z	7	main_z	91	stimuli_target_diamondrectangles.svg	stimuli_distractor_trianglediamonds.svg	19	yes	44	1	702	0	0			0	0			1				0	
6.6.1	win	2023-07-09	11:37:19	11:42:34	311272	5e60db57fdef8001c1fdc6f7	4	1	main_z	7	advance_on_keypress_ZEE	92	stimuli_target_diamondrectangles.svg	stimuli_distractor_trianglediamonds.svg	19	yes	57	0	394	0	0			0	0			1				0	
6.6.1	win	2023-07-09	11:37:19	11:42:35	312903	5e60db57fdef8001c1fdc6f7	4	1	main_z	7	main_z	93	stimuli_target_rectanglediamonds.svg	stimuli_distractor_diamondtriangles.svg	6	yes	44	1	601	0	0			0	0			1				0	
6.6.1	win	2023-07-09	11:37:19	11:42:35	312903	5e60db57fdef8001c1fdc6f7	4	1	main_z	7	advance_on_keypress_ZEE	94	stimuli_target_rectanglediamonds.svg	stimuli_distractor_diamondtriangles.svg	6	yes	57	0	352	0	0			0	0			1				0	
6.6.1	win	2023-07-09	11:37:19	11:42:37	314592	5e60db57fdef8001c1fdc6f7	4	1	main_z	7	main_z	95	stimuli_distractor_diamondtriangles.svg	stimuli_target_diamondrectangles.svg	31	yes	44	1	689	0	0			0	0			1				0	
6.6.1	win	2023-07-09	11:37:19	11:42:37	314592	5e60db57fdef8001c1fdc6f7	4	1	main_z	7	advance_on_keypress_ZEE	96	stimuli_distractor_diamondtriangles.svg	stimuli_target_diamondrectangles.svg	31	yes	57	0	293	0	0			0	0			1				0	
6.6.1	win	2023-07-09	11:37:19	11:42:39	316120	5e60db57fdef8001c1fdc6f7	4	1	main_z	7	main_z	97	stimuli_distractor_trianglediamonds.svg	stimuli_target_trianglerectangles.svg	25	yes	44	1	600	0	0			0	0			1				0	
6.6.1	win	2023-07-09	11:37:19	11:42:39	316120	5e60db57fdef8001c1fdc6f7	4	1	main_z	7	advance_on_keypress_ZEE	98	stimuli_distractor_trianglediamonds.svg	stimuli_target_trianglerectangles.svg	25	yes	57	0	288	0	0			0	0			1				0	
6.6.1	win	2023-07-09	11:37:19	11:42:40	317648	5e60db57fdef8001c1fdc6f7	4	1	main_z	7	main_z	99	stimuli_target_squaretriangles.svg	stimuli_distractor_trianglediamonds.svg	3	yes	44	1	595	0	0			0	0			1				0	
6.6.1	win	2023-07-09	11:37:19	11:42:40	317648	5e60db57fdef8001c1fdc6f7	4	1	main_z	7	advance_on_keypress_ZEE	100	stimuli_target_squaretriangles.svg	stimuli_distractor_trianglediamonds.svg	3	yes	57	0	322	0	0			0	0			1				0	
6.6.1	win	2023-07-09	11:37:19	11:42:42	319096	5e60db57fdef8001c1fdc6f7	4	1	main_z	7	main_z	101	stimuli_distractor_diamondtriangles.svg	stimuli_target_squaretriangles.svg	15	yes	44	1	493	0	0			0	0			1				0	
6.6.1	win	2023-07-09	11:37:19	11:42:42	319096	5e60db57fdef8001c1fdc6f7	4	1	main_z	7	advance_on_keypress_ZEE	102	stimuli_distractor_diamondtriangles.svg	stimuli_target_squaretriangles.svg	15	yes	57	0	344	0	0			0	0			1				0	
6.6.1	win	2023-07-09	11:37:19	11:42:43	320551	5e60db57fdef8001c1fdc6f7	4	1	main_z	7	main_z	103	stimuli_target_trianglerectangles.svg	stimuli_distractor_diamondtriangles.svg	21	yes	44	1	481	0	0			0	0			1				0	
6.6.1	win	2023-07-09	11:37:19	11:42:43	320551	5e60db57fdef8001c1fdc6f7	4	1	main_z	7	advance_on_keypress_ZEE	104	stimuli_target_trianglerectangles.svg	stimuli_distractor_diamondtriangles.svg	21	yes	57	0	630	0	0			0	0			1				0	
6.6.1	win	2023-07-09	11:37:19	11:42:45	322392	5e60db57fdef8001c1fdc6f7	4	1	main_z	7	main_z	105	stimuli_distractor_diamondtriangles.svg	stimuli_target_trianglerectangles.svg	29	yes	44	1	556	0	0			0	0			1				0	
6.6.1	win	2023-07-09	11:37:19	11:42:45	322392	5e60db57fdef8001c1fdc6f7	4	1	main_z	7	advance_on_keypress_ZEE	106	stimuli_distractor_diamondtriangles.svg	stimuli_target_trianglerectangles.svg	29	yes	57	0	300	0	0			0	0			1				0	
6.6.1	win	2023-07-09	11:37:19	11:42:46	323864	5e60db57fdef8001c1fdc6f7	4	1	main_z	7	main_z	107	stimuli_target_trianglesquares.svg	stimuli_distractor_diamondtriangles.svg	22	yes	44	1	528	0	0			0	0			1				0	
6.6.1	win	2023-07-09	11:37:19	11:42:46	323864	5e60db57fdef8001c1fdc6f7	4	1	main_z	7	advance_on_keypress_ZEE	108	stimuli_target_trianglesquares.svg	stimuli_distractor_diamondtriangles.svg	22	yes	57	0	290	0	0			0	0			1				0	
6.6.1	win	2023-07-09	11:37:19	11:42:49	326786	5e60db57fdef8001c1fdc6f7	4	1	main_z	7	main_z	109	stimuli_distractor_trianglediamonds.svg	stimuli_distractor_trianglediamonds.svg	34	no	0	1	2000	0	0			0	0			1				0	
6.6.1	win	2023-07-09	11:37:19	11:42:49	326786	5e60db57fdef8001c1fdc6f7	4	1	main_z	7	advance_on_keypress_ZEE	110	stimuli_distractor_trianglediamonds.svg	stimuli_distractor_trianglediamonds.svg	34	no	57	0	309	0	0			0	0			1				0	
6.6.1	win	2023-07-09	11:37:19	11:42:51	328328	5e60db57fdef8001c1fdc6f7	4	1	main_z	7	main_z	111	stimuli_distractor_diamondtriangles.svg	stimuli_target_rectangletriangles.svg	13	yes	44	1	592	0	0			0	0			1				0	
6.6.1	win	2023-07-09	11:37:19	11:42:51	328328	5e60db57fdef8001c1fdc6f7	4	1	main_z	7	advance_on_keypress_ZEE	112	stimuli_distractor_diamondtriangles.svg	stimuli_target_rectangletriangles.svg	13	yes	57	0	336	0	0			0	0			1				0	
6.6.1	win	2023-07-09	11:37:19	11:42:52	329840	5e60db57fdef8001c1fdc6f7	4	1	main_z	7	main_z	113	stimuli_target_squarediamonds.svg	stimuli_distractor_diamondtriangles.svg	8	yes	44	1	537	0	0			0	0			1				0	
6.6.1	win	2023-07-09	11:37:19	11:42:52	329840	5e60db57fdef8001c1fdc6f7	4	1	main_z	7	advance_on_keypress_ZEE	114	stimuli_target_squarediamonds.svg	stimuli_distractor_diamondtriangles.svg	8	yes	57	0	259	0	0			0	0			1				0	
6.6.1	win	2023-07-09	11:37:19	11:42:54	331295	5e60db57fdef8001c1fdc6f7	4	1	main_z	7	main_z	115	stimuli_distractor_trianglediamonds.svg	stimuli_distractor_diamondtriangles.svg	35	no	44	0	559	0	0			0	0			1				0	
6.6.1	win	2023-07-09	11:37:19	11:42:54	331295	5e60db57fdef8001c1fdc6f7	4	1	main_z	7	advance_on_keypress_ZEE	116	stimuli_distractor_trianglediamonds.svg	stimuli_distractor_diamondtriangles.svg	35	no	57	0	529	0	0			0	0			1				0	
6.6.1	win	2023-07-09	11:37:19	11:42:56	333128	5e60db57fdef8001c1fdc6f7	4	1	main_z	7	main_z	117	stimuli_distractor_trianglediamonds.svg	stimuli_target_squaretriangles.svg	11	yes	44	1	675	0	0			0	0			1				0	
6.6.1	win	2023-07-09	11:37:19	11:42:56	333128	5e60db57fdef8001c1fdc6f7	4	1	main_z	7	advance_on_keypress_ZEE	118	stimuli_distractor_trianglediamonds.svg	stimuli_target_squaretriangles.svg	11	yes	57	0	280	0	0			0	0			1				0	
6.6.1	win	2023-07-09	11:37:19	11:42:58	336036	5e60db57fdef8001c1fdc6f7	4	1	main_z	7	main_z	119	stimuli_distractor_trianglediamonds.svg	stimuli_distractor_diamondtriangles.svg	36	no	0	1	2000	0	0			0	0			1				0	
6.6.1	win	2023-07-09	11:37:19	11:42:58	336036	5e60db57fdef8001c1fdc6f7	4	1	main_z	7	advance_on_keypress_ZEE	120	stimuli_distractor_trianglediamonds.svg	stimuli_distractor_diamondtriangles.svg	36	no	57	0	371	0	0			0	0			1				0	
6.6.1	win	2023-07-09	11:37:19	11:43:00	337534	5e60db57fdef8001c1fdc6f7	4	1	main_z	7	main_z	121	stimuli_distractor_trianglediamonds.svg	stimuli_target_rectangletriangles.svg	9	yes	44	1	482	0	0			0	0			1				0	
6.6.1	win	2023-07-09	11:37:19	11:43:00	337534	5e60db57fdef8001c1fdc6f7	4	1	main_z	7	advance_on_keypress_ZEE	122	stimuli_distractor_trianglediamonds.svg	stimuli_target_rectangletriangles.svg	9	yes	57	0	246	0	0			0	0			1				0	
6.6.1	win	2023-07-09	11:37:19	11:43:01	338975	5e60db57fdef8001c1fdc6f7	4	1	main_z	7	main_z	123	stimuli_distractor_trianglediamonds.svg	stimuli_target_diamondsquares.svg	28	yes	44	1	557	0	0			0	0			1				0	
6.6.1	win	2023-07-09	11:37:19	11:43:01	338975	5e60db57fdef8001c1fdc6f7	4	1	main_z	7	advance_on_keypress_ZEE	124	stimuli_distractor_trianglediamonds.svg	stimuli_target_diamondsquares.svg	28	yes	57	0	245	0	0			0	0			1				0	
6.6.1	win	2023-07-09	11:37:19	11:43:04	341852	5e60db57fdef8001c1fdc6f7	4	1	main_z	7	main_z	125	stimuli_distractor_diamondtriangles.svg	stimuli_target_rectanglediamonds.svg	14	yes	0	0	2000	0	0			0	0			1				0	
6.6.1	win	2023-07-09	11:37:19	11:43:04	341852	5e60db57fdef8001c1fdc6f7	4	1	main_z	7	advance_on_keypress_ZEE	126	stimuli_distractor_diamondtriangles.svg	stimuli_target_rectanglediamonds.svg	14	yes	57	0	330	0	0			0	0			1				0	
6.6.1	win	2023-07-09	11:37:19	11:43:06	343343	5e60db57fdef8001c1fdc6f7	4	1	main_z	7	main_z	127	stimuli_target_rectanglediamonds.svg	stimuli_distractor_trianglediamonds.svg	2	yes	44	1	525	0	0			0	0			1				0	
6.6.1	win	2023-07-09	11:37:19	11:43:06	343343	5e60db57fdef8001c1fdc6f7	4	1	main_z	7	advance_on_keypress_ZEE	128	stimuli_target_rectanglediamonds.svg	stimuli_distractor_trianglediamonds.svg	2	yes	57	0	327	0	0			0	0			1				0	
6.6.1	win	2023-07-09	11:37:19	11:43:09	346302	5e60db57fdef8001c1fdc6f7	4	1	main_z	7	main_z	129	stimuli_distractor_trianglediamonds.svg	stimuli_distractor_trianglediamonds.svg	33	no	0	1	2000	0	0			0	0			1				0	
6.6.1	win	2023-07-09	11:37:19	11:43:09	346302	5e60db57fdef8001c1fdc6f7	4	1	main_z	7	advance_on_keypress_ZEE	130	stimuli_distractor_trianglediamonds.svg	stimuli_distractor_trianglediamonds.svg	33	no	57	0	329	0	0			0	0			1				0	
6.6.1	win	2023-07-09	11:37:19	11:43:12	349268	5e60db57fdef8001c1fdc6f7	4	1	main_z	7	main_z	131	stimuli_distractor_diamondtriangles.svg	stimuli_distractor_trianglediamonds.svg	38	no	0	1	2000	0	0			0	0			1				0	
6.6.1	win	2023-07-09	11:37:19	11:43:12	349268	5e60db57fdef8001c1fdc6f7	4	1	main_z	7	advance_on_keypress_ZEE	132	stimuli_distractor_diamondtriangles.svg	stimuli_distractor_trianglediamonds.svg	38	no	57	0	322	0	0			0	0			1				0	
6.6.1	win	2023-07-09	11:37:19	11:43:13	350703	5e60db57fdef8001c1fdc6f7	4	1	main_z	7	main_z	133	stimuli_target_diamondsquares.svg	stimuli_distractor_trianglediamonds.svg	20	yes	44	1	468	0	0			0	0			1				0	
6.6.1	win	2023-07-09	11:37:19	11:43:13	350703	5e60db57fdef8001c1fdc6f7	4	1	main_z	7	advance_on_keypress_ZEE	134	stimuli_target_diamondsquares.svg	stimuli_distractor_trianglediamonds.svg	20	yes	57	0	345	0	0			0	0			1				0	
6.6.1	win	2023-07-09	11:37:19	11:43:15	352119	5e60db57fdef8001c1fdc6f7	4	1	main_z	7	main_z	135	stimuli_target_rectangletriangles.svg	stimuli_distractor_diamondtriangles.svg	5	yes	44	1	434	0	0			0	0			1				0	
6.6.1	win	2023-07-09	11:37:19	11:43:15	352119	5e60db57fdef8001c1fdc6f7	4	1	main_z	7	advance_on_keypress_ZEE	136	stimuli_target_rectangletriangles.svg	stimuli_distractor_diamondtriangles.svg	5	yes	57	0	352	0	0			0	0			1				0	
6.6.1	win	2023-07-09	11:37:19	11:43:18	355119	5e60db57fdef8001c1fdc6f7	4	1	main_z	7	main_z	137	stimuli_distractor_diamondtriangles.svg	stimuli_distractor_diamondtriangles.svg	39	no	0	1	2000	0	0			0	0			1				0	
6.6.1	win	2023-07-09	11:37:19	11:43:18	355119	5e60db57fdef8001c1fdc6f7	4	1	main_z	7	advance_on_keypress_ZEE	138	stimuli_distractor_diamondtriangles.svg	stimuli_distractor_diamondtriangles.svg	39	no	57	0	304	0	0			0	0			1				0	
6.6.1	win	2023-07-09	11:37:19	11:43:19	356679	5e60db57fdef8001c1fdc6f7	4	1	main_z	7	main_z	139	stimuli_target_trianglerectangles.svg	stimuli_distractor_trianglediamonds.svg	17	yes	44	1	610	0	0			0	0			1				0	
6.6.1	win	2023-07-09	11:37:19	11:43:19	356679	5e60db57fdef8001c1fdc6f7	4	1	main_z	7	advance_on_keypress_ZEE	140	stimuli_target_trianglerectangles.svg	stimuli_distractor_trianglediamonds.svg	17	yes	57	0	330	0	0			0	0			1				0	
6.6.1	win	2023-07-09	11:37:19	11:43:21	358263	5e60db57fdef8001c1fdc6f7	4	1	main_z	7	main_z	141	stimuli_target_squaretriangles.svg	stimuli_distractor_diamondtriangles.svg	7	yes	44	1	611	0	0			0	0			1				0	
6.6.1	win	2023-07-09	11:37:19	11:43:21	358263	5e60db57fdef8001c1fdc6f7	4	1	main_z	7	advance_on_keypress_ZEE	142	stimuli_target_squaretriangles.svg	stimuli_distractor_diamondtriangles.svg	7	yes	57	0	323	0	0			0	0			1				0	
6.6.1	win	2023-07-09	11:37:19	11:43:22	359759	5e60db57fdef8001c1fdc6f7	4	1	main_z	7	main_z	143	stimuli_distractor_diamondtriangles.svg	stimuli_target_trianglesquares.svg	30	yes	44	1	540	0	0			0	0			1				0	
6.6.1	win	2023-07-09	11:37:19	11:43:22	359759	5e60db57fdef8001c1fdc6f7	4	1	main_z	7	advance_on_keypress_ZEE	144	stimuli_distractor_diamondtriangles.svg	stimuli_target_trianglesquares.svg	30	yes	57	0	295	0	0			0	0			1				0	
6.6.1	win	2023-07-09	11:37:19	11:43:24	361201	5e60db57fdef8001c1fdc6f7	4	1	main_z	7	main_z	145	stimuli_distractor_trianglediamonds.svg	stimuli_target_rectanglediamonds.svg	10	yes	44	1	514	0	0			0	0			1				0	
6.6.1	win	2023-07-09	11:37:19	11:43:24	361201	5e60db57fdef8001c1fdc6f7	4	1	main_z	7	advance_on_keypress_ZEE	146	stimuli_distractor_trianglediamonds.svg	stimuli_target_rectanglediamonds.svg	10	yes	57	0	333	0	0			0	0			1				0	
6.6.1	win	2023-07-09	11:37:19	11:43:25	362736	5e60db57fdef8001c1fdc6f7	4	1	main_z	7	main_z	147	stimuli_target_diamondsquares.svg	stimuli_distractor_diamondtriangles.svg	24	yes	44	1	550	0	0			0	0			1				0	
6.6.1	win	2023-07-09	11:37:19	11:43:25	362736	5e60db57fdef8001c1fdc6f7	4	1	main_z	7	advance_on_keypress_ZEE	148	stimuli_target_diamondsquares.svg	stimuli_distractor_diamondtriangles.svg	24	yes	57	0	351	0	0			0	0			1				0	
6.6.1	win	2023-07-09	11:37:19	11:43:27	364344	5e60db57fdef8001c1fdc6f7	4	1	main_z	7	main_z	149	stimuli_target_trianglesquares.svg	stimuli_distractor_trianglediamonds.svg	18	yes	44	1	608	0	0			0	0			1				0	
6.6.1	win	2023-07-09	11:37:19	11:43:27	364344	5e60db57fdef8001c1fdc6f7	4	1	main_z	7	advance_on_keypress_ZEE	150	stimuli_target_trianglesquares.svg	stimuli_distractor_trianglediamonds.svg	18	yes	57	0	335	0	0			0	0			1				0	
6.6.1	win	2023-07-09	11:37:19	11:43:30	367319	5e60db57fdef8001c1fdc6f7	4	1	main_z	7	main_z	151	stimuli_distractor_diamondtriangles.svg	stimuli_distractor_diamondtriangles.svg	40	no	0	1	2000	0	0			0	0			1				0	
6.6.1	win	2023-07-09	11:37:19	11:43:30	367319	5e60db57fdef8001c1fdc6f7	4	1	main_z	7	advance_on_keypress_ZEE	152	stimuli_distractor_diamondtriangles.svg	stimuli_distractor_diamondtriangles.svg	40	no	57	0	368	0	0			0	0			1				0	
6.6.1	win	2023-07-09	11:37:19	11:43:31	368816	5e60db57fdef8001c1fdc6f7	4	1	main_z	7	main_z	153	stimuli_target_squarediamonds.svg	stimuli_distractor_trianglediamonds.svg	4	yes	44	1	480	0	0			0	0			1				0	
6.6.1	win	2023-07-09	11:37:19	11:43:31	368816	5e60db57fdef8001c1fdc6f7	4	1	main_z	7	advance_on_keypress_ZEE	154	stimuli_target_squarediamonds.svg	stimuli_distractor_trianglediamonds.svg	4	yes	57	0	293	0	0			0	0			1				0	
6.6.1	win	2023-07-09	11:37:19	11:43:34	371736	5e60db57fdef8001c1fdc6f7	4	1	main_z	7	main_z	155	stimuli_distractor_diamondtriangles.svg	stimuli_distractor_trianglediamonds.svg	37	no	0	1	2000	0	0			0	0			1				0	
6.6.1	win	2023-07-09	11:37:19	11:43:34	371736	5e60db57fdef8001c1fdc6f7	4	1	main_z	7	advance_on_keypress_ZEE	156	stimuli_distractor_diamondtriangles.svg	stimuli_distractor_trianglediamonds.svg	37	no	57	0	359	0	0			0	0			1				0	
6.6.1	win	2023-07-09	11:37:19	11:43:36	373215	5e60db57fdef8001c1fdc6f7	4	1	main_z	7	main_z	157	stimuli_target_diamondrectangles.svg	stimuli_distractor_diamondtriangles.svg	23	yes	44	1	480	0	0			0	0			1				0	
6.6.1	win	2023-07-09	11:37:19	11:43:36	373215	5e60db57fdef8001c1fdc6f7	4	1	main_z	7	advance_on_keypress_ZEE	158	stimuli_target_diamondrectangles.svg	stimuli_distractor_diamondtriangles.svg	23	yes	57	0	325	0	0			0	0			1				0	
6.6.1	win	2023-07-09	11:37:19	11:43:37	374631	5e60db57fdef8001c1fdc6f7	4	1	main_z	7	main_z	159	stimuli_distractor_trianglediamonds.svg	stimuli_target_trianglesquares.svg	26	yes	44	1	462	0	0			0	0			1				0	
6.6.1	win	2023-07-09	11:37:19	11:43:37	374631	5e60db57fdef8001c1fdc6f7	4	1	main_z	7	advance_on_keypress_ZEE	160	stimuli_distractor_trianglediamonds.svg	stimuli_target_trianglesquares.svg	26	yes	57	0	292	0	0			0	0			1				0	
6.6.1	win	2023-07-09	11:37:19	11:44:02	399287	5e60db57fdef8001c1fdc6f7	4	1	practice_slash	9	practice_slash	1	stimuli_distractor_trianglediamonds.svg	stimuli_target_rectanglediamonds.svg	10	yes	53	1	335	0	0			0	0			1				0	
6.6.1	win	2023-07-09	11:37:19	11:44:02	399287	5e60db57fdef8001c1fdc6f7	4	1	practice_slash	9	advance_on_keypress_SLASH	2	stimuli_distractor_trianglediamonds.svg	stimuli_target_rectanglediamonds.svg	10	yes	57	0	402	0	0			0	0			1				0	
6.6.1	win	2023-07-09	11:37:19	11:44:06	403335	5e60db57fdef8001c1fdc6f7	4	1	practice_slash	9	practice_slash	3	stimuli_distractor_diamondtriangles.svg	stimuli_distractor_diamondtriangles.svg	13	no	0	1	2000	0	0			0	0			1				0	
6.6.1	win	2023-07-09	11:37:19	11:44:06	403335	5e60db57fdef8001c1fdc6f7	4	1	practice_slash	9	advance_on_keypress_SLASH	4	stimuli_distractor_diamondtriangles.svg	stimuli_distractor_diamondtriangles.svg	13	no	57	0	528	0	0			0	0			1				0	
6.6.1	win	2023-07-09	11:37:19	11:44:08	405912	5e60db57fdef8001c1fdc6f7	4	1	practice_slash	9	practice_slash	5	stimuli_distractor_trianglediamonds.svg	stimuli_target_diamondrectangles.svg	12	yes	53	1	410	0	0			0	0			1				0	
6.6.1	win	2023-07-09	11:37:19	11:44:08	405912	5e60db57fdef8001c1fdc6f7	4	1	practice_slash	9	advance_on_keypress_SLASH	6	stimuli_distractor_trianglediamonds.svg	stimuli_target_diamondrectangles.svg	12	yes	57	0	273	0	0			0	0			1				0	
6.6.1	win	2023-07-09	11:37:19	11:44:11	408305	5e60db57fdef8001c1fdc6f7	4	1	practice_slash	9	practice_slash	7	stimuli_distractor_diamondtriangles.svg	stimuli_target_trianglerectangles.svg	9	yes	53	1	485	0	0			0	0			1				0	
6.6.1	win	2023-07-09	11:37:19	11:44:11	408305	5e60db57fdef8001c1fdc6f7	4	1	practice_slash	9	advance_on_keypress_SLASH	8	stimuli_distractor_diamondtriangles.svg	stimuli_target_trianglerectangles.svg	9	yes	57	0	273	0	0			0	0			1				0	
6.6.1	win	2023-07-09	11:37:19	11:44:13	410641	5e60db57fdef8001c1fdc6f7	4	1	practice_slash	9	practice_slash	9	stimuli_target_rectanglediamonds.svg	stimuli_distractor_diamondtriangles.svg	1	yes	53	1	420	0	0			0	0			1				0	
6.6.1	win	2023-07-09	11:37:19	11:44:13	410641	5e60db57fdef8001c1fdc6f7	4	1	practice_slash	9	advance_on_keypress_SLASH	10	stimuli_target_rectanglediamonds.svg	stimuli_distractor_diamondtriangles.svg	1	yes	57	0	332	0	0			0	0			1				0	
6.6.1	win	2023-07-09	11:37:19	11:44:16	413217	5e60db57fdef8001c1fdc6f7	4	1	practice_slash	9	practice_slash	11	stimuli_target_diamondsquares.svg	stimuli_distractor_trianglediamonds.svg	6	yes	53	1	597	0	0			0	0			1				0	
6.6.1	win	2023-07-09	11:37:19	11:44:16	413217	5e60db57fdef8001c1fdc6f7	4	1	practice_slash	9	advance_on_keypress_SLASH	12	stimuli_target_diamondsquares.svg	stimuli_distractor_trianglediamonds.svg	6	yes	57	0	373	0	0			0	0			1				0	
6.6.1	win	2023-07-09	11:37:19	11:44:18	415800	5e60db57fdef8001c1fdc6f7	4	1	practice_slash	9	practice_slash	13	stimuli_target_squarediamonds.svg	stimuli_distractor_trianglediamonds.svg	5	yes	53	1	564	0	0			0	0			1				0	
6.6.1	win	2023-07-09	11:37:19	11:44:18	415800	5e60db57fdef8001c1fdc6f7	4	1	practice_slash	9	advance_on_keypress_SLASH	14	stimuli_target_squarediamonds.svg	stimuli_distractor_trianglediamonds.svg	5	yes	57	0	285	0	0			0	0			1				0	
6.6.1	win	2023-07-09	11:37:19	11:44:22	419736	5e60db57fdef8001c1fdc6f7	4	1	practice_slash	9	practice_slash	15	stimuli_distractor_diamondtriangles.svg	stimuli_distractor_trianglediamonds.svg	14	no	0	1	2000	0	0			0	0			1				0	
6.6.1	win	2023-07-09	11:37:19	11:44:22	419736	5e60db57fdef8001c1fdc6f7	4	1	practice_slash	9	advance_on_keypress_SLASH	16	stimuli_distractor_diamondtriangles.svg	stimuli_distractor_trianglediamonds.svg	14	no	57	0	376	0	0			0	0			1				0	
6.6.1	win	2023-07-09	11:37:19	11:44:26	423753	5e60db57fdef8001c1fdc6f7	4	1	practice_slash	9	practice_slash	17	stimuli_distractor_trianglediamonds.svg	stimuli_distractor_diamondtriangles.svg	16	no	0	1	2000	0	0			0	0			1				0	
6.6.1	win	2023-07-09	11:37:19	11:44:26	423753	5e60db57fdef8001c1fdc6f7	4	1	practice_slash	9	advance_on_keypress_SLASH	18	stimuli_distractor_trianglediamonds.svg	stimuli_distractor_diamondtriangles.svg	16	no	57	0	351	0	0			0	0			1				0	
6.6.1	win	2023-07-09	11:37:19	11:44:30	427753	5e60db57fdef8001c1fdc6f7	4	1	practice_slash	9	practice_slash	19	stimuli_distractor_trianglediamonds.svg	stimuli_distractor_trianglediamonds.svg	15	no	0	1	2000	0	0			0	0			1				0	
6.6.1	win	2023-07-09	11:37:19	11:44:30	427753	5e60db57fdef8001c1fdc6f7	4	1	practice_slash	9	advance_on_keypress_SLASH	20	stimuli_distractor_trianglediamonds.svg	stimuli_distractor_trianglediamonds.svg	15	no	57	0	263	0	0			0	0			1				0	
6.6.1	win	2023-07-09	11:37:19	11:44:33	430321	5e60db57fdef8001c1fdc6f7	4	1	practice_slash	9	practice_slash	21	stimuli_target_squarediamonds.svg	stimuli_distractor_diamondtriangles.svg	2	yes	53	1	651	0	0			0	0			1				0	
6.6.1	win	2023-07-09	11:37:19	11:44:33	430321	5e60db57fdef8001c1fdc6f7	4	1	practice_slash	9	advance_on_keypress_SLASH	22	stimuli_target_squarediamonds.svg	stimuli_distractor_diamondtriangles.svg	2	yes	57	0	385	0	0			0	0			1				0	
6.6.1	win	2023-07-09	11:37:19	11:44:36	433145	5e60db57fdef8001c1fdc6f7	4	1	practice_slash	9	practice_slash	23	stimuli_target_diamondsquares.svg	stimuli_distractor_diamondtriangles.svg	3	yes	53	1	792	0	0			0	0			1				0	
6.6.1	win	2023-07-09	11:37:19	11:44:36	433145	5e60db57fdef8001c1fdc6f7	4	1	practice_slash	9	advance_on_keypress_SLASH	24	stimuli_target_diamondsquares.svg	stimuli_distractor_diamondtriangles.svg	3	yes	57	0	328	0	0			0	0			1				0	
6.6.1	win	2023-07-09	11:37:19	11:44:38	435619	5e60db57fdef8001c1fdc6f7	4	1	practice_slash	9	practice_slash	25	stimuli_target_rectanglediamonds.svg	stimuli_distractor_trianglediamonds.svg	4	yes	53	1	514	0	0			0	0			1				0	
6.6.1	win	2023-07-09	11:37:19	11:44:38	435619	5e60db57fdef8001c1fdc6f7	4	1	practice_slash	9	advance_on_keypress_SLASH	26	stimuli_target_rectanglediamonds.svg	stimuli_distractor_trianglediamonds.svg	4	yes	57	0	261	0	0			0	0			1				0	
6.6.1	win	2023-07-09	11:37:19	11:44:40	437945	5e60db57fdef8001c1fdc6f7	4	1	practice_slash	9	practice_slash	27	stimuli_distractor_diamondtriangles.svg	stimuli_target_diamondrectangles.svg	8	yes	53	1	424	0	0			0	0			1				0	
6.6.1	win	2023-07-09	11:37:19	11:44:40	437945	5e60db57fdef8001c1fdc6f7	4	1	practice_slash	9	advance_on_keypress_SLASH	28	stimuli_distractor_diamondtriangles.svg	stimuli_target_diamondrectangles.svg	8	yes	57	0	311	0	0			0	0			1				0	
6.6.1	win	2023-07-09	11:37:19	11:44:43	440289	5e60db57fdef8001c1fdc6f7	4	1	practice_slash	9	practice_slash	29	stimuli_distractor_trianglediamonds.svg	stimuli_target_squarediamonds.svg	11	yes	53	1	403	0	0			0	0			1				0	
6.6.1	win	2023-07-09	11:37:19	11:44:43	440289	5e60db57fdef8001c1fdc6f7	4	1	practice_slash	9	advance_on_keypress_SLASH	30	stimuli_distractor_trianglediamonds.svg	stimuli_target_squarediamonds.svg	11	yes	57	0	298	0	0			0	0			1				0	
6.6.1	win	2023-07-09	11:37:19	11:44:45	442633	5e60db57fdef8001c1fdc6f7	4	1	practice_slash	9	practice_slash	31	stimuli_distractor_diamondtriangles.svg	stimuli_target_rectangletriangles.svg	7	yes	53	1	397	0	0			0	0			1				0	
6.6.1	win	2023-07-09	11:37:19	11:44:45	442633	5e60db57fdef8001c1fdc6f7	4	1	practice_slash	9	advance_on_keypress_SLASH	32	stimuli_distractor_diamondtriangles.svg	stimuli_target_rectangletriangles.svg	7	yes	57	0	260	0	0			0	0			1				0	
6.6.1	win	2023-07-09	11:37:19	11:44:49	446467	5e60db57fdef8001c1fdc6f7	4	1	main_slash	11	main_slash	1	stimuli_target_diamondsquares.svg	stimuli_distractor_diamondtriangles.svg	24	yes	53	1	504	0	0			0	0			1				0	
6.6.1	win	2023-07-09	11:37:19	11:44:49	446467	5e60db57fdef8001c1fdc6f7	4	1	main_slash	11	advance_on_keypress_SLASH	2	stimuli_target_diamondsquares.svg	stimuli_distractor_diamondtriangles.svg	24	yes	57	0	603	0	0			0	0			1				0	
6.6.1	win	2023-07-09	11:37:19	11:44:52	449718	5e60db57fdef8001c1fdc6f7	4	1	main_slash	11	main_slash	3	stimuli_distractor_trianglediamonds.svg	stimuli_distractor_trianglediamonds.svg	33	no	0	1	2000	0	0			0	0			1				0	
6.6.1	win	2023-07-09	11:37:19	11:44:52	449718	5e60db57fdef8001c1fdc6f7	4	1	main_slash	11	advance_on_keypress_SLASH	4	stimuli_distractor_trianglediamonds.svg	stimuli_distractor_trianglediamonds.svg	33	no	57	0	289	0	0			0	0			1				0	
6.6.1	win	2023-07-09	11:37:19	11:44:54	451080	5e60db57fdef8001c1fdc6f7	4	1	main_slash	11	main_slash	5	stimuli_distractor_diamondtriangles.svg	stimuli_target_trianglerectangles.svg	29	yes	53	1	428	0	0			0	0			1				0	
6.6.1	win	2023-07-09	11:37:19	11:44:54	451080	5e60db57fdef8001c1fdc6f7	4	1	main_slash	11	advance_on_keypress_SLASH	6	stimuli_distractor_diamondtriangles.svg	stimuli_target_trianglerectangles.svg	29	yes	57	0	434	0	0			0	0			1				0	
6.6.1	win	2023-07-09	11:37:19	11:44:55	452687	5e60db57fdef8001c1fdc6f7	4	1	main_slash	11	main_slash	7	stimuli_distractor_diamondtriangles.svg	stimuli_target_squarediamonds.svg	16	yes	53	1	535	0	0			0	0			1				0	
6.6.1	win	2023-07-09	11:37:19	11:44:55	452687	5e60db57fdef8001c1fdc6f7	4	1	main_slash	11	advance_on_keypress_SLASH	8	stimuli_distractor_diamondtriangles.svg	stimuli_target_squarediamonds.svg	16	yes	57	0	338	0	0			0	0			1				0	
6.6.1	win	2023-07-09	11:37:19	11:44:58	455668	5e60db57fdef8001c1fdc6f7	4	1	main_slash	11	main_slash	9	stimuli_distractor_diamondtriangles.svg	stimuli_distractor_diamondtriangles.svg	40	no	0	1	2000	0	0			0	0			1				0	
6.6.1	win	2023-07-09	11:37:19	11:44:58	455668	5e60db57fdef8001c1fdc6f7	4	1	main_slash	11	advance_on_keypress_SLASH	10	stimuli_distractor_diamondtriangles.svg	stimuli_distractor_diamondtriangles.svg	40	no	57	0	275	0	0			0	0			1				0	
6.6.1	win	2023-07-09	11:37:19	11:45:00	457112	5e60db57fdef8001c1fdc6f7	4	1	main_slash	11	main_slash	11	stimuli_distractor_diamondtriangles.svg	stimuli_target_rectangletriangles.svg	13	yes	53	1	527	0	0			0	0			1				0	
6.6.1	win	2023-07-09	11:37:19	11:45:00	457112	5e60db57fdef8001c1fdc6f7	4	1	main_slash	11	advance_on_keypress_SLASH	12	stimuli_distractor_diamondtriangles.svg	stimuli_target_rectangletriangles.svg	13	yes	57	0	405	0	0			0	0			1				0	
6.6.1	win	2023-07-09	11:37:19	11:45:01	458695	5e60db57fdef8001c1fdc6f7	4	1	main_slash	11	main_slash	13	stimuli_target_squarediamonds.svg	stimuli_distractor_diamondtriangles.svg	8	yes	53	1	544	0	0			0	0			1				0	
6.6.1	win	2023-07-09	11:37:19	11:45:01	458695	5e60db57fdef8001c1fdc6f7	4	1	main_slash	11	advance_on_keypress_SLASH	14	stimuli_target_squarediamonds.svg	stimuli_distractor_diamondtriangles.svg	8	yes	57	0	410	0	0			0	0			1				0	
6.6.1	win	2023-07-09	11:37:19	11:45:04	461734	5e60db57fdef8001c1fdc6f7	4	1	main_slash	11	main_slash	15	stimuli_distractor_diamondtriangles.svg	stimuli_distractor_trianglediamonds.svg	38	no	0	1	2000	0	0			0	0			1				0	
6.6.1	win	2023-07-09	11:37:19	11:45:04	461734	5e60db57fdef8001c1fdc6f7	4	1	main_slash	11	advance_on_keypress_SLASH	16	stimuli_distractor_diamondtriangles.svg	stimuli_distractor_trianglediamonds.svg	38	no	57	0	296	0	0			0	0			1				0	
6.6.1	win	2023-07-09	11:37:19	11:45:07	464667	5e60db57fdef8001c1fdc6f7	4	1	main_slash	11	main_slash	17	stimuli_distractor_diamondtriangles.svg	stimuli_distractor_diamondtriangles.svg	39	no	0	1	2000	0	0			0	0			1				0	
6.6.1	win	2023-07-09	11:37:19	11:45:07	464667	5e60db57fdef8001c1fdc6f7	4	1	main_slash	11	advance_on_keypress_SLASH	18	stimuli_distractor_diamondtriangles.svg	stimuli_distractor_diamondtriangles.svg	39	no	57	0	315	0	0			0	0			1				0	
6.6.1	win	2023-07-09	11:37:19	11:45:09	466119	5e60db57fdef8001c1fdc6f7	4	1	main_slash	11	main_slash	19	stimuli_distractor_diamondtriangles.svg	stimuli_target_diamondsquares.svg	32	yes	53	1	485	0	0			0	0			1				0	
6.6.1	win	2023-07-09	11:37:19	11:45:09	466119	5e60db57fdef8001c1fdc6f7	4	1	main_slash	11	advance_on_keypress_SLASH	20	stimuli_distractor_diamondtriangles.svg	stimuli_target_diamondsquares.svg	32	yes	57	0	377	0	0			0	0			1				0	
6.6.1	win	2023-07-09	11:37:19	11:45:10	467591	5e60db57fdef8001c1fdc6f7	4	1	main_slash	11	main_slash	21	stimuli_target_diamondrectangles.svg	stimuli_distractor_trianglediamonds.svg	19	yes	53	1	456	0	0			0	0			1				0	
6.6.1	win	2023-07-09	11:37:19	11:45:10	467591	5e60db57fdef8001c1fdc6f7	4	1	main_slash	11	advance_on_keypress_SLASH	22	stimuli_target_diamondrectangles.svg	stimuli_distractor_trianglediamonds.svg	19	yes	57	0	350	0	0			0	0			1				0	
6.6.1	win	2023-07-09	11:37:19	11:45:12	469048	5e60db57fdef8001c1fdc6f7	4	1	main_slash	11	main_slash	23	stimuli_target_trianglerectangles.svg	stimuli_distractor_diamondtriangles.svg	21	yes	53	1	463	0	0			0	0			1				0	
6.6.1	win	2023-07-09	11:37:19	11:45:12	469048	5e60db57fdef8001c1fdc6f7	4	1	main_slash	11	advance_on_keypress_SLASH	24	stimuli_target_trianglerectangles.svg	stimuli_distractor_diamondtriangles.svg	21	yes	57	0	428	0	0			0	0			1				0	
6.6.1	win	2023-07-09	11:37:19	11:45:13	470617	5e60db57fdef8001c1fdc6f7	4	1	main_slash	11	main_slash	25	stimuli_distractor_trianglediamonds.svg	stimuli_target_diamondrectangles.svg	27	yes	53	1	514	0	0			0	0			1				0	
6.6.1	win	2023-07-09	11:37:19	11:45:13	470617	5e60db57fdef8001c1fdc6f7	4	1	main_slash	11	advance_on_keypress_SLASH	26	stimuli_distractor_trianglediamonds.svg	stimuli_target_diamondrectangles.svg	27	yes	57	0	293	0	0			0	0			1				0	
6.6.1	win	2023-07-09	11:37:19	11:45:14	472040	5e60db57fdef8001c1fdc6f7	4	1	main_slash	11	main_slash	27	stimuli_target_rectangletriangles.svg	stimuli_distractor_trianglediamonds.svg	1	yes	53	1	488	0	0			0	0			1				0	
6.6.1	win	2023-07-09	11:37:19	11:45:14	472040	5e60db57fdef8001c1fdc6f7	4	1	main_slash	11	advance_on_keypress_SLASH	28	stimuli_target_rectangletriangles.svg	stimuli_distractor_trianglediamonds.svg	1	yes	57	0	356	0	0			0	0			1				0	
6.6.1	win	2023-07-09	11:37:19	11:45:16	473431	5e60db57fdef8001c1fdc6f7	4	1	main_slash	11	main_slash	29	stimuli_distractor_trianglediamonds.svg	stimuli_target_trianglesquares.svg	26	yes	53	1	397	0	0			0	0			1				0	
6.6.1	win	2023-07-09	11:37:19	11:45:16	473431	5e60db57fdef8001c1fdc6f7	4	1	main_slash	11	advance_on_keypress_SLASH	30	stimuli_distractor_trianglediamonds.svg	stimuli_target_trianglesquares.svg	26	yes	57	0	373	0	0			0	0			1				0	
6.6.1	win	2023-07-09	11:37:19	11:45:18	475071	5e60db57fdef8001c1fdc6f7	4	1	main_slash	11	main_slash	31	stimuli_target_rectanglediamonds.svg	stimuli_distractor_diamondtriangles.svg	6	yes	53	1	636	0	0			0	0			1				0	
6.6.1	win	2023-07-09	11:37:19	11:45:18	475071	5e60db57fdef8001c1fdc6f7	4	1	main_slash	11	advance_on_keypress_SLASH	32	stimuli_target_rectanglediamonds.svg	stimuli_distractor_diamondtriangles.svg	6	yes	57	0	380	0	0			0	0			1				0	
6.6.1	win	2023-07-09	11:37:19	11:45:21	478085	5e60db57fdef8001c1fdc6f7	4	1	main_slash	11	main_slash	33	stimuli_distractor_trianglediamonds.svg	stimuli_distractor_diamondtriangles.svg	36	no	0	1	2000	0	0			0	0			1				0	
6.6.1	win	2023-07-09	11:37:19	11:45:21	478085	5e60db57fdef8001c1fdc6f7	4	1	main_slash	11	advance_on_keypress_SLASH	34	stimuli_distractor_trianglediamonds.svg	stimuli_distractor_diamondtriangles.svg	36	no	57	0	266	0	0			0	0			1				0	
6.6.1	win	2023-07-09	11:37:19	11:45:22	479432	5e60db57fdef8001c1fdc6f7	4	1	main_slash	11	main_slash	35	stimuli_distractor_diamondtriangles.svg	stimuli_target_trianglesquares.svg	30	yes	53	1	430	0	0			0	0			1				0	
6.6.1	win	2023-07-09	11:37:19	11:45:22	479432	5e60db57fdef8001c1fdc6f7	4	1	main_slash	11	advance_on_keypress_SLASH	36	stimuli_distractor_diamondtriangles.svg	stimuli_target_trianglesquares.svg	30	yes	57	0	396	0	0			0	0			1				0	
6.6.1	win	2023-07-09	11:37:19	11:45:23	480927	5e60db57fdef8001c1fdc6f7	4	1	main_slash	11	main_slash	37	stimuli_target_diamondrectangles.svg	stimuli_distractor_diamondtriangles.svg	23	yes	53	1	460	0	0			0	0			1				0	
6.6.1	win	2023-07-09	11:37:19	11:45:23	480927	5e60db57fdef8001c1fdc6f7	4	1	main_slash	11	advance_on_keypress_SLASH	38	stimuli_target_diamondrectangles.svg	stimuli_distractor_diamondtriangles.svg	23	yes	57	0	409	0	0			0	0			1				0	
6.6.1	win	2023-07-09	11:37:19	11:45:25	482455	5e60db57fdef8001c1fdc6f7	4	1	main_slash	11	main_slash	39	stimuli_target_rectanglediamonds.svg	stimuli_distractor_trianglediamonds.svg	2	yes	53	1	488	0	0			0	0			1				0	
6.6.1	win	2023-07-09	11:37:19	11:45:25	482455	5e60db57fdef8001c1fdc6f7	4	1	main_slash	11	advance_on_keypress_SLASH	40	stimuli_target_rectanglediamonds.svg	stimuli_distractor_trianglediamonds.svg	2	yes	57	0	412	0	0			0	0			1				0	
6.6.1	win	2023-07-09	11:37:19	11:45:26	483887	5e60db57fdef8001c1fdc6f7	4	1	main_slash	11	main_slash	41	stimuli_distractor_trianglediamonds.svg	stimuli_target_diamondsquares.svg	28	yes	53	1	386	0	0			0	0			1				0	
6.6.1	win	2023-07-09	11:37:19	11:45:26	483887	5e60db57fdef8001c1fdc6f7	4	1	main_slash	11	advance_on_keypress_SLASH	42	stimuli_distractor_trianglediamonds.svg	stimuli_target_diamondsquares.svg	28	yes	57	0	450	0	0			0	0			1				0	
6.6.1	win	2023-07-09	11:37:19	11:45:28	485367	5e60db57fdef8001c1fdc6f7	4	1	main_slash	11	main_slash	43	stimuli_distractor_diamondtriangles.svg	stimuli_target_rectanglediamonds.svg	14	yes	53	1	375	0	0			0	0			1				0	
6.6.1	win	2023-07-09	11:37:19	11:45:28	485367	5e60db57fdef8001c1fdc6f7	4	1	main_slash	11	advance_on_keypress_SLASH	44	stimuli_distractor_diamondtriangles.svg	stimuli_target_rectanglediamonds.svg	14	yes	57	0	447	0	0			0	0			1				0	
6.6.1	win	2023-07-09	11:37:19	11:45:31	488451	5e60db57fdef8001c1fdc6f7	4	1	main_slash	11	main_slash	45	stimuli_distractor_trianglediamonds.svg	stimuli_distractor_trianglediamonds.svg	34	no	0	1	2000	0	0			0	0			1				0	
6.6.1	win	2023-07-09	11:37:19	11:45:31	488451	5e60db57fdef8001c1fdc6f7	4	1	main_slash	11	advance_on_keypress_SLASH	46	stimuli_distractor_trianglediamonds.svg	stimuli_distractor_trianglediamonds.svg	34	no	57	0	283	0	0			0	0			1				0	
6.6.1	win	2023-07-09	11:37:19	11:45:32	489792	5e60db57fdef8001c1fdc6f7	4	1	main_slash	11	main_slash	47	stimuli_distractor_trianglediamonds.svg	stimuli_target_rectanglediamonds.svg	10	yes	53	1	407	0	0			0	0			1				0	
6.6.1	win	2023-07-09	11:37:19	11:45:32	489792	5e60db57fdef8001c1fdc6f7	4	1	main_slash	11	advance_on_keypress_SLASH	48	stimuli_distractor_trianglediamonds.svg	stimuli_target_rectanglediamonds.svg	10	yes	57	0	375	0	0			0	0			1				0	
6.6.1	win	2023-07-09	11:37:19	11:45:34	491272	5e60db57fdef8001c1fdc6f7	4	1	main_slash	11	main_slash	49	stimuli_target_diamondsquares.svg	stimuli_distractor_trianglediamonds.svg	20	yes	53	1	471	0	0			0	0			1				0	
6.6.1	win	2023-07-09	11:37:19	11:45:34	491272	5e60db57fdef8001c1fdc6f7	4	1	main_slash	11	advance_on_keypress_SLASH	50	stimuli_target_diamondsquares.svg	stimuli_distractor_trianglediamonds.svg	20	yes	57	0	395	0	0			0	0			1				0	
6.6.1	win	2023-07-09	11:37:19	11:45:35	492767	5e60db57fdef8001c1fdc6f7	4	1	main_slash	11	main_slash	51	stimuli_target_trianglesquares.svg	stimuli_distractor_trianglediamonds.svg	18	yes	53	1	467	0	0			0	0			1				0	
6.6.1	win	2023-07-09	11:37:19	11:45:35	492767	5e60db57fdef8001c1fdc6f7	4	1	main_slash	11	advance_on_keypress_SLASH	52	stimuli_target_trianglesquares.svg	stimuli_distractor_trianglediamonds.svg	18	yes	57	0	407	0	0			0	0			1				0	
6.6.1	win	2023-07-09	11:37:19	11:45:37	494333	5e60db57fdef8001c1fdc6f7	4	1	main_slash	11	main_slash	53	stimuli_target_squaretriangles.svg	stimuli_distractor_diamondtriangles.svg	7	yes	53	1	503	0	0			0	0			1				0	
6.6.1	win	2023-07-09	11:37:19	11:45:37	494333	5e60db57fdef8001c1fdc6f7	4	1	main_slash	11	advance_on_keypress_SLASH	54	stimuli_target_squaretriangles.svg	stimuli_distractor_diamondtriangles.svg	7	yes	57	0	409	0	0			0	0			1				0	
6.6.1	win	2023-07-09	11:37:19	11:45:40	497384	5e60db57fdef8001c1fdc6f7	4	1	main_slash	11	main_slash	55	stimuli_distractor_diamondtriangles.svg	stimuli_distractor_trianglediamonds.svg	37	no	0	1	2000	0	0			0	0			1				0	
6.6.1	win	2023-07-09	11:37:19	11:45:40	497384	5e60db57fdef8001c1fdc6f7	4	1	main_slash	11	advance_on_keypress_SLASH	56	stimuli_distractor_diamondtriangles.svg	stimuli_distractor_trianglediamonds.svg	37	no	57	0	367	0	0			0	0			1				0	
6.6.1	win	2023-07-09	11:37:19	11:45:41	498960	5e60db57fdef8001c1fdc6f7	4	1	main_slash	11	main_slash	57	stimuli_distractor_trianglediamonds.svg	stimuli_target_rectangletriangles.svg	9	yes	53	1	559	0	0			0	0			1				0	
6.6.1	win	2023-07-09	11:37:19	11:45:41	498960	5e60db57fdef8001c1fdc6f7	4	1	main_slash	11	advance_on_keypress_SLASH	58	stimuli_distractor_trianglediamonds.svg	stimuli_target_rectangletriangles.svg	9	yes	57	0	368	0	0			0	0			1				0	
6.6.1	win	2023-07-09	11:37:19	11:45:43	500424	5e60db57fdef8001c1fdc6f7	4	1	main_slash	11	main_slash	59	stimuli_distractor_diamondtriangles.svg	stimuli_target_diamondrectangles.svg	31	yes	53	1	456	0	0			0	0			1				0	
6.6.1	win	2023-07-09	11:37:19	11:45:43	500424	5e60db57fdef8001c1fdc6f7	4	1	main_slash	11	advance_on_keypress_SLASH	60	stimuli_distractor_diamondtriangles.svg	stimuli_target_diamondrectangles.svg	31	yes	57	0	381	0	0			0	0			1				0	
6.6.1	win	2023-07-09	11:37:19	11:45:44	501872	5e60db57fdef8001c1fdc6f7	4	1	main_slash	11	main_slash	61	stimuli_distractor_trianglediamonds.svg	stimuli_target_squaretriangles.svg	11	yes	53	1	421	0	0			0	0			1				0	
6.6.1	win	2023-07-09	11:37:19	11:45:44	501872	5e60db57fdef8001c1fdc6f7	4	1	main_slash	11	advance_on_keypress_SLASH	62	stimuli_distractor_trianglediamonds.svg	stimuli_target_squaretriangles.svg	11	yes	57	0	523	0	0			0	0			1				0	
6.6.1	win	2023-07-09	11:37:19	11:45:46	503528	5e60db57fdef8001c1fdc6f7	4	1	main_slash	11	main_slash	63	stimuli_distractor_trianglediamonds.svg	stimuli_target_trianglerectangles.svg	25	yes	53	1	493	0	0			0	0			1				0	
6.6.1	win	2023-07-09	11:37:19	11:45:46	503528	5e60db57fdef8001c1fdc6f7	4	1	main_slash	11	advance_on_keypress_SLASH	64	stimuli_distractor_trianglediamonds.svg	stimuli_target_trianglerectangles.svg	25	yes	57	0	377	0	0			0	0			1				0	
6.6.1	win	2023-07-09	11:37:19	11:45:47	504992	5e60db57fdef8001c1fdc6f7	4	1	main_slash	11	main_slash	65	stimuli_target_squaretriangles.svg	stimuli_distractor_trianglediamonds.svg	3	yes	53	1	457	0	0			0	0			1				0	
6.6.1	win	2023-07-09	11:37:19	11:45:47	504992	5e60db57fdef8001c1fdc6f7	4	1	main_slash	11	advance_on_keypress_SLASH	66	stimuli_target_squaretriangles.svg	stimuli_distractor_trianglediamonds.svg	3	yes	57	0	383	0	0			0	0			1				0	
6.6.1	win	2023-07-09	11:37:19	11:45:50	508018	5e60db57fdef8001c1fdc6f7	4	1	main_slash	11	main_slash	67	stimuli_distractor_trianglediamonds.svg	stimuli_distractor_diamondtriangles.svg	35	no	0	1	2000	0	0			0	0			1				0	
6.6.1	win	2023-07-09	11:37:19	11:45:50	508018	5e60db57fdef8001c1fdc6f7	4	1	main_slash	11	advance_on_keypress_SLASH	68	stimuli_distractor_trianglediamonds.svg	stimuli_distractor_diamondtriangles.svg	35	no	57	0	261	0	0			0	0			1				0	
6.6.1	win	2023-07-09	11:37:19	11:45:52	509472	5e60db57fdef8001c1fdc6f7	4	1	main_slash	11	main_slash	69	stimuli_target_rectangletriangles.svg	stimuli_distractor_diamondtriangles.svg	5	yes	53	1	554	0	0			0	0			1				0	
6.6.1	win	2023-07-09	11:37:19	11:45:52	509472	5e60db57fdef8001c1fdc6f7	4	1	main_slash	11	advance_on_keypress_SLASH	70	stimuli_target_rectangletriangles.svg	stimuli_distractor_diamondtriangles.svg	5	yes	57	0	363	0	0			0	0			1				0	
6.6.1	win	2023-07-09	11:37:19	11:45:53	510850	5e60db57fdef8001c1fdc6f7	4	1	main_slash	11	main_slash	71	stimuli_target_squarediamonds.svg	stimuli_distractor_trianglediamonds.svg	4	yes	53	1	380	0	0			0	0			1				0	
6.6.1	win	2023-07-09	11:37:19	11:45:53	510850	5e60db57fdef8001c1fdc6f7	4	1	main_slash	11	advance_on_keypress_SLASH	72	stimuli_target_squarediamonds.svg	stimuli_distractor_trianglediamonds.svg	4	yes	57	0	412	0	0			0	0			1				0	
6.6.1	win	2023-07-09	11:37:19	11:45:55	512283	5e60db57fdef8001c1fdc6f7	4	1	main_slash	11	main_slash	73	stimuli_distractor_trianglediamonds.svg	stimuli_target_squarediamonds.svg	12	yes	53	1	371	0	0			0	0			1				0	
6.6.1	win	2023-07-09	11:37:19	11:45:55	512283	5e60db57fdef8001c1fdc6f7	4	1	main_slash	11	advance_on_keypress_SLASH	74	stimuli_distractor_trianglediamonds.svg	stimuli_target_squarediamonds.svg	12	yes	57	0	459	0	0			0	0			1				0	
6.6.1	win	2023-07-09	11:37:19	11:45:57	514063	5e60db57fdef8001c1fdc6f7	4	1	main_slash	11	main_slash	75	stimuli_target_trianglerectangles.svg	stimuli_distractor_trianglediamonds.svg	17	yes	53	1	679	0	0			0	0			1				0	
6.6.1	win	2023-07-09	11:37:19	11:45:57	514063	5e60db57fdef8001c1fdc6f7	4	1	main_slash	11	advance_on_keypress_SLASH	76	stimuli_target_trianglerectangles.svg	stimuli_distractor_trianglediamonds.svg	17	yes	57	0	411	0	0			0	0			1				0	
6.6.1	win	2023-07-09	11:37:19	11:45:58	515560	5e60db57fdef8001c1fdc6f7	4	1	main_slash	11	main_slash	77	stimuli_distractor_diamondtriangles.svg	stimuli_target_squaretriangles.svg	15	yes	53	1	459	0	0			0	0			1				0	
6.6.1	win	2023-07-09	11:37:19	11:45:58	515560	5e60db57fdef8001c1fdc6f7	4	1	main_slash	11	advance_on_keypress_SLASH	78	stimuli_distractor_diamondtriangles.svg	stimuli_target_squaretriangles.svg	15	yes	57	0	416	0	0			0	0			1				0	
6.6.1	win	2023-07-09	11:37:19	11:46:00	517055	5e60db57fdef8001c1fdc6f7	4	1	main_slash	11	main_slash	79	stimuli_target_trianglesquares.svg	stimuli_distractor_diamondtriangles.svg	22	yes	53	1	438	0	0			0	0			1				0	
6.6.1	win	2023-07-09	11:37:19	11:46:00	517055	5e60db57fdef8001c1fdc6f7	4	1	main_slash	11	advance_on_keypress_SLASH	80	stimuli_target_trianglesquares.svg	stimuli_distractor_diamondtriangles.svg	22	yes	57	0	436	0	0			0	0			1				0	
6.6.1	win	2023-07-09	11:37:19	11:46:01	518583	5e60db57fdef8001c1fdc6f7	4	1	main_slash	11	main_slash	81	stimuli_target_rectanglediamonds.svg	stimuli_distractor_diamondtriangles.svg	6	yes	53	1	449	0	0			0	0			1				0	
6.6.1	win	2023-07-09	11:37:19	11:46:01	518583	5e60db57fdef8001c1fdc6f7	4	1	main_slash	11	advance_on_keypress_SLASH	82	stimuli_target_rectanglediamonds.svg	stimuli_distractor_diamondtriangles.svg	6	yes	57	0	471	0	0			0	0			1				0	
6.6.1	win	2023-07-09	11:37:19	11:46:04	521700	5e60db57fdef8001c1fdc6f7	4	1	main_slash	11	main_slash	83	stimuli_distractor_diamondtriangles.svg	stimuli_distractor_trianglediamonds.svg	37	no	0	1	2000	0	0			0	0			1				0	
6.6.1	win	2023-07-09	11:37:19	11:46:04	521700	5e60db57fdef8001c1fdc6f7	4	1	main_slash	11	advance_on_keypress_SLASH	84	stimuli_distractor_diamondtriangles.svg	stimuli_distractor_trianglediamonds.svg	37	no	57	0	298	0	0			0	0			1				0	
6.6.1	win	2023-07-09	11:37:19	11:46:07	524650	5e60db57fdef8001c1fdc6f7	4	1	main_slash	11	main_slash	85	stimuli_distractor_trianglediamonds.svg	stimuli_distractor_diamondtriangles.svg	35	no	0	1	2000	0	0			0	0			1				0	
6.6.1	win	2023-07-09	11:37:19	11:46:07	524650	5e60db57fdef8001c1fdc6f7	4	1	main_slash	11	advance_on_keypress_SLASH	86	stimuli_distractor_trianglediamonds.svg	stimuli_distractor_diamondtriangles.svg	35	no	57	0	284	0	0			0	0			1				0	
6.6.1	win	2023-07-09	11:37:19	11:46:09	526056	5e60db57fdef8001c1fdc6f7	4	1	main_slash	11	main_slash	87	stimuli_distractor_diamondtriangles.svg	stimuli_target_trianglerectangles.svg	29	yes	53	1	471	0	0			0	0			1				0	
6.6.1	win	2023-07-09	11:37:19	11:46:09	526056	5e60db57fdef8001c1fdc6f7	4	1	main_slash	11	advance_on_keypress_SLASH	88	stimuli_distractor_diamondtriangles.svg	stimuli_target_trianglerectangles.svg	29	yes	57	0	372	0	0			0	0			1				0	
6.6.1	win	2023-07-09	11:37:19	11:46:10	527504	5e60db57fdef8001c1fdc6f7	4	1	main_slash	11	main_slash	89	stimuli_distractor_diamondtriangles.svg	stimuli_target_squarediamonds.svg	16	yes	53	1	436	0	0			0	0			1				0	
6.6.1	win	2023-07-09	11:37:19	11:46:10	527504	5e60db57fdef8001c1fdc6f7	4	1	main_slash	11	advance_on_keypress_SLASH	90	stimuli_distractor_diamondtriangles.svg	stimuli_target_squarediamonds.svg	16	yes	57	0	409	0	0			0	0			1				0	
6.6.1	win	2023-07-09	11:37:19	11:46:11	528959	5e60db57fdef8001c1fdc6f7	4	1	main_slash	11	main_slash	91	stimuli_target_rectangletriangles.svg	stimuli_distractor_diamondtriangles.svg	5	yes	53	1	409	0	0			0	0			1				0	
6.6.1	win	2023-07-09	11:37:19	11:46:11	528959	5e60db57fdef8001c1fdc6f7	4	1	main_slash	11	advance_on_keypress_SLASH	92	stimuli_target_rectangletriangles.svg	stimuli_distractor_diamondtriangles.svg	5	yes	57	0	432	0	0			0	0			1				0	
6.6.1	win	2023-07-09	11:37:19	11:46:13	530416	5e60db57fdef8001c1fdc6f7	4	1	main_slash	11	main_slash	93	stimuli_target_rectangletriangles.svg	stimuli_distractor_trianglediamonds.svg	1	yes	53	1	381	0	0			0	0			1				0	
6.6.1	win	2023-07-09	11:37:19	11:46:13	530416	5e60db57fdef8001c1fdc6f7	4	1	main_slash	11	advance_on_keypress_SLASH	94	stimuli_target_rectangletriangles.svg	stimuli_distractor_trianglediamonds.svg	1	yes	57	0	445	0	0			0	0			1				0	
6.6.1	win	2023-07-09	11:37:19	11:46:14	531847	5e60db57fdef8001c1fdc6f7	4	1	main_slash	11	main_slash	95	stimuli_distractor_trianglediamonds.svg	stimuli_distractor_trianglediamonds.svg	34	no	53	0	347	0	0			0	0			1				0	
6.6.1	win	2023-07-09	11:37:19	11:46:14	531847	5e60db57fdef8001c1fdc6f7	4	1	main_slash	11	advance_on_keypress_SLASH	96	stimuli_distractor_trianglediamonds.svg	stimuli_distractor_trianglediamonds.svg	34	no	57	0	790	0	0			0	0			1				0	
6.6.1	win	2023-07-09	11:37:19	11:46:16	533832	5e60db57fdef8001c1fdc6f7	4	1	main_slash	11	main_slash	97	stimuli_distractor_trianglediamonds.svg	stimuli_target_diamondsquares.svg	28	yes	53	1	564	0	0			0	0			1				0	
6.6.1	win	2023-07-09	11:37:19	11:46:16	533832	5e60db57fdef8001c1fdc6f7	4	1	main_slash	11	advance_on_keypress_SLASH	98	stimuli_distractor_trianglediamonds.svg	stimuli_target_diamondsquares.svg	28	yes	57	0	357	0	0			0	0			1				0	
6.6.1	win	2023-07-09	11:37:19	11:46:18	535415	5e60db57fdef8001c1fdc6f7	4	1	main_slash	11	main_slash	99	stimuli_distractor_diamondtriangles.svg	stimuli_target_rectangletriangles.svg	13	yes	53	1	582	0	0			0	0			1				0	
6.6.1	win	2023-07-09	11:37:19	11:46:18	535415	5e60db57fdef8001c1fdc6f7	4	1	main_slash	11	advance_on_keypress_SLASH	100	stimuli_distractor_diamondtriangles.svg	stimuli_target_rectangletriangles.svg	13	yes	57	0	350	0	0			0	0			1				0	
6.6.1	win	2023-07-09	11:37:19	11:46:20	537520	5e60db57fdef8001c1fdc6f7	4	1	main_slash	11	main_slash	101	stimuli_target_diamondsquares.svg	stimuli_distractor_trianglediamonds.svg	20	yes	53	1	1102	0	0			0	0			1				0	
6.6.1	win	2023-07-09	11:37:19	11:46:20	537520	5e60db57fdef8001c1fdc6f7	4	1	main_slash	11	advance_on_keypress_SLASH	102	stimuli_target_diamondsquares.svg	stimuli_distractor_trianglediamonds.svg	20	yes	57	0	594	0	0			0	0			1				0	
6.6.1	win	2023-07-09	11:37:19	11:46:22	539159	5e60db57fdef8001c1fdc6f7	4	1	main_slash	11	main_slash	103	stimuli_distractor_trianglediamonds.svg	stimuli_target_rectanglediamonds.svg	10	yes	53	1	409	0	0			0	0			1				0	
6.6.1	win	2023-07-09	11:37:19	11:46:22	539159	5e60db57fdef8001c1fdc6f7	4	1	main_slash	11	advance_on_keypress_SLASH	104	stimuli_distractor_trianglediamonds.svg	stimuli_target_rectanglediamonds.svg	10	yes	57	0	320	0	0			0	0			1				0	
6.6.1	win	2023-07-09	11:37:19	11:46:24	541079	5e60db57fdef8001c1fdc6f7	4	1	main_slash	11	main_slash	105	stimuli_target_squaretriangles.svg	stimuli_distractor_diamondtriangles.svg	7	yes	53	1	961	0	0			0	0			1				0	
6.6.1	win	2023-07-09	11:37:19	11:46:24	541079	5e60db57fdef8001c1fdc6f7	4	1	main_slash	11	advance_on_keypress_SLASH	106	stimuli_target_squaretriangles.svg	stimuli_distractor_diamondtriangles.svg	7	yes	57	0	404	0	0			0	0			1				0	
6.6.1	win	2023-07-09	11:37:19	11:46:25	542560	5e60db57fdef8001c1fdc6f7	4	1	main_slash	11	main_slash	107	stimuli_distractor_trianglediamonds.svg	stimuli_target_rectangletriangles.svg	9	yes	53	1	442	0	0			0	0			1				0	
6.6.1	win	2023-07-09	11:37:19	11:46:25	542560	5e60db57fdef8001c1fdc6f7	4	1	main_slash	11	advance_on_keypress_SLASH	108	stimuli_distractor_trianglediamonds.svg	stimuli_target_rectangletriangles.svg	9	yes	57	0	352	0	0			0	0			1				0	
6.6.1	win	2023-07-09	11:37:19	11:46:26	544001	5e60db57fdef8001c1fdc6f7	4	1	main_slash	11	main_slash	109	stimuli_distractor_diamondtriangles.svg	stimuli_target_squaretriangles.svg	15	yes	53	1	450	0	0			0	0			1				0	
6.6.1	win	2023-07-09	11:37:19	11:46:26	544001	5e60db57fdef8001c1fdc6f7	4	1	main_slash	11	advance_on_keypress_SLASH	110	stimuli_distractor_diamondtriangles.svg	stimuli_target_squaretriangles.svg	15	yes	57	0	334	0	0			0	0			1				0	
6.6.1	win	2023-07-09	11:37:19	11:46:28	545648	5e60db57fdef8001c1fdc6f7	4	1	main_slash	11	main_slash	111	stimuli_distractor_trianglediamonds.svg	stimuli_target_trianglerectangles.svg	25	yes	53	1	664	0	0			0	0			1				0	
6.6.1	win	2023-07-09	11:37:19	11:46:28	545648	5e60db57fdef8001c1fdc6f7	4	1	main_slash	11	advance_on_keypress_SLASH	112	stimuli_distractor_trianglediamonds.svg	stimuli_target_trianglerectangles.svg	25	yes	57	0	340	0	0			0	0			1				0	
6.6.1	win	2023-07-09	11:37:19	11:46:30	547150	5e60db57fdef8001c1fdc6f7	4	1	main_slash	11	main_slash	113	stimuli_distractor_trianglediamonds.svg	stimuli_target_squaretriangles.svg	11	yes	53	1	511	0	0			0	0			1				0	
6.6.1	win	2023-07-09	11:37:19	11:46:30	547150	5e60db57fdef8001c1fdc6f7	4	1	main_slash	11	advance_on_keypress_SLASH	114	stimuli_distractor_trianglediamonds.svg	stimuli_target_squaretriangles.svg	11	yes	57	0	376	0	0			0	0			1				0	
6.6.1	win	2023-07-09	11:37:19	11:46:31	548584	5e60db57fdef8001c1fdc6f7	4	1	main_slash	11	main_slash	115	stimuli_distractor_diamondtriangles.svg	stimuli_target_rectanglediamonds.svg	14	yes	53	1	416	0	0			0	0			1				0	
6.6.1	win	2023-07-09	11:37:19	11:46:31	548584	5e60db57fdef8001c1fdc6f7	4	1	main_slash	11	advance_on_keypress_SLASH	116	stimuli_distractor_diamondtriangles.svg	stimuli_target_rectanglediamonds.svg	14	yes	57	0	311	0	0			0	0			1				0	
6.6.1	win	2023-07-09	11:37:19	11:46:32	549999	5e60db57fdef8001c1fdc6f7	4	1	main_slash	11	main_slash	117	stimuli_target_squarediamonds.svg	stimuli_distractor_trianglediamonds.svg	4	yes	53	1	465	0	0			0	0			1				0	
6.6.1	win	2023-07-09	11:37:19	11:46:32	549999	5e60db57fdef8001c1fdc6f7	4	1	main_slash	11	advance_on_keypress_SLASH	118	stimuli_target_squarediamonds.svg	stimuli_distractor_trianglediamonds.svg	4	yes	57	0	598	0	0			0	0			1				0	
6.6.1	win	2023-07-09	11:37:19	11:46:34	551711	5e60db57fdef8001c1fdc6f7	4	1	main_slash	11	main_slash	119	stimuli_distractor_trianglediamonds.svg	stimuli_target_diamondrectangles.svg	27	yes	53	1	461	0	0			0	0			1				0	
6.6.1	win	2023-07-09	11:37:19	11:46:34	551711	5e60db57fdef8001c1fdc6f7	4	1	main_slash	11	advance_on_keypress_SLASH	120	stimuli_distractor_trianglediamonds.svg	stimuli_target_diamondrectangles.svg	27	yes	57	0	266	0	0			0	0			1				0	
6.6.1	win	2023-07-09	11:37:19	11:46:36	553071	5e60db57fdef8001c1fdc6f7	4	1	main_slash	11	main_slash	121	stimuli_target_squaretriangles.svg	stimuli_distractor_trianglediamonds.svg	3	yes	53	1	454	0	0			0	0			1				0	
6.6.1	win	2023-07-09	11:37:19	11:46:36	553071	5e60db57fdef8001c1fdc6f7	4	1	main_slash	11	advance_on_keypress_SLASH	122	stimuli_target_squaretriangles.svg	stimuli_distractor_trianglediamonds.svg	3	yes	57	0	284	0	0			0	0			1				0	
6.6.1	win	2023-07-09	11:37:19	11:46:37	554399	5e60db57fdef8001c1fdc6f7	4	1	main_slash	11	main_slash	123	stimuli_distractor_diamondtriangles.svg	stimuli_target_trianglesquares.svg	30	yes	53	1	399	0	0			0	0			1				0	
6.6.1	win	2023-07-09	11:37:19	11:46:37	554399	5e60db57fdef8001c1fdc6f7	4	1	main_slash	11	advance_on_keypress_SLASH	124	stimuli_distractor_diamondtriangles.svg	stimuli_target_trianglesquares.svg	30	yes	57	0	654	0	0			0	0			1				0	
6.6.1	win	2023-07-09	11:37:19	11:46:40	557701	5e60db57fdef8001c1fdc6f7	4	1	main_slash	11	main_slash	125	stimuli_distractor_diamondtriangles.svg	stimuli_distractor_diamondtriangles.svg	40	no	0	1	2000	0	0			0	0			1				0	
6.6.1	win	2023-07-09	11:37:19	11:46:40	557701	5e60db57fdef8001c1fdc6f7	4	1	main_slash	11	advance_on_keypress_SLASH	126	stimuli_distractor_diamondtriangles.svg	stimuli_distractor_diamondtriangles.svg	40	no	57	0	425	0	0			0	0			1				0	
6.6.1	win	2023-07-09	11:37:19	11:46:42	559464	5e60db57fdef8001c1fdc6f7	4	1	main_slash	11	main_slash	127	stimuli_distractor_diamondtriangles.svg	stimuli_target_diamondrectangles.svg	31	yes	53	1	696	0	0			0	0			1				0	
6.6.1	win	2023-07-09	11:37:19	11:46:42	559464	5e60db57fdef8001c1fdc6f7	4	1	main_slash	11	advance_on_keypress_SLASH	128	stimuli_distractor_diamondtriangles.svg	stimuli_target_diamondrectangles.svg	31	yes	57	0	372	0	0			0	0			1				0	
6.6.1	win	2023-07-09	11:37:19	11:46:43	561040	5e60db57fdef8001c1fdc6f7	4	1	main_slash	11	main_slash	129	stimuli_target_trianglerectangles.svg	stimuli_distractor_diamondtriangles.svg	21	yes	53	1	556	0	0			0	0			1				0	
6.6.1	win	2023-07-09	11:37:19	11:46:43	561040	5e60db57fdef8001c1fdc6f7	4	1	main_slash	11	advance_on_keypress_SLASH	130	stimuli_target_trianglerectangles.svg	stimuli_distractor_diamondtriangles.svg	21	yes	57	0	413	0	0			0	0			1				0	
6.6.1	win	2023-07-09	11:37:19	11:46:47	564084	5e60db57fdef8001c1fdc6f7	4	1	main_slash	11	main_slash	131	stimuli_distractor_diamondtriangles.svg	stimuli_distractor_trianglediamonds.svg	38	no	0	1	2000	0	0			0	0			1				0	
6.6.1	win	2023-07-09	11:37:19	11:46:47	564084	5e60db57fdef8001c1fdc6f7	4	1	main_slash	11	advance_on_keypress_SLASH	132	stimuli_distractor_diamondtriangles.svg	stimuli_distractor_trianglediamonds.svg	38	no	57	0	243	0	0			0	0			1				0	
6.6.1	win	2023-07-09	11:37:19	11:46:48	565464	5e60db57fdef8001c1fdc6f7	4	1	main_slash	11	main_slash	133	stimuli_target_diamondsquares.svg	stimuli_distractor_diamondtriangles.svg	24	yes	53	1	497	0	0			0	0			1				0	
6.6.1	win	2023-07-09	11:37:19	11:46:48	565464	5e60db57fdef8001c1fdc6f7	4	1	main_slash	11	advance_on_keypress_SLASH	134	stimuli_target_diamondsquares.svg	stimuli_distractor_diamondtriangles.svg	24	yes	57	0	420	0	0			0	0			1				0	
6.6.1	win	2023-07-09	11:37:19	11:46:49	566936	5e60db57fdef8001c1fdc6f7	4	1	main_slash	11	main_slash	135	stimuli_distractor_diamondtriangles.svg	stimuli_target_diamondsquares.svg	32	yes	53	1	402	0	0			0	0			1				0	
6.6.1	win	2023-07-09	11:37:19	11:46:49	566936	5e60db57fdef8001c1fdc6f7	4	1	main_slash	11	advance_on_keypress_SLASH	136	stimuli_distractor_diamondtriangles.svg	stimuli_target_diamondsquares.svg	32	yes	57	0	393	0	0			0	0			1				0	
6.6.1	win	2023-07-09	11:37:19	11:46:51	568543	5e60db57fdef8001c1fdc6f7	4	1	main_slash	11	main_slash	137	stimuli_target_squarediamonds.svg	stimuli_distractor_diamondtriangles.svg	8	yes	53	1	576	0	0			0	0			1				0	
6.6.1	win	2023-07-09	11:37:19	11:46:51	568543	5e60db57fdef8001c1fdc6f7	4	1	main_slash	11	advance_on_keypress_SLASH	138	stimuli_target_squarediamonds.svg	stimuli_distractor_diamondtriangles.svg	8	yes	57	0	425	0	0			0	0			1				0	
6.6.1	win	2023-07-09	11:37:19	11:46:53	570072	5e60db57fdef8001c1fdc6f7	4	1	main_slash	11	main_slash	139	stimuli_target_trianglesquares.svg	stimuli_distractor_diamondtriangles.svg	22	yes	53	1	471	0	0			0	0			1				0	
6.6.1	win	2023-07-09	11:37:19	11:46:53	570072	5e60db57fdef8001c1fdc6f7	4	1	main_slash	11	advance_on_keypress_SLASH	140	stimuli_target_trianglesquares.svg	stimuli_distractor_diamondtriangles.svg	22	yes	57	0	484	0	0			0	0			1				0	
6.6.1	win	2023-07-09	11:37:19	11:46:54	571624	5e60db57fdef8001c1fdc6f7	4	1	main_slash	11	main_slash	141	stimuli_target_diamondrectangles.svg	stimuli_distractor_trianglediamonds.svg	19	yes	53	1	423	0	0			0	0			1				0	
6.6.1	win	2023-07-09	11:37:19	11:46:54	571624	5e60db57fdef8001c1fdc6f7	4	1	main_slash	11	advance_on_keypress_SLASH	142	stimuli_target_diamondrectangles.svg	stimuli_distractor_trianglediamonds.svg	19	yes	57	0	598	0	0			0	0			1				0	
6.6.1	win	2023-07-09	11:37:19	11:46:56	573656	5e60db57fdef8001c1fdc6f7	4	1	main_slash	11	main_slash	143	stimuli_target_rectanglediamonds.svg	stimuli_distractor_trianglediamonds.svg	2	yes	53	1	789	0	0			0	0			1				0	
6.6.1	win	2023-07-09	11:37:19	11:46:56	573656	5e60db57fdef8001c1fdc6f7	4	1	main_slash	11	advance_on_keypress_SLASH	144	stimuli_target_rectanglediamonds.svg	stimuli_distractor_trianglediamonds.svg	2	yes	57	0	501	0	0			0	0			1				0	
6.6.1	win	2023-07-09	11:37:19	11:46:59	576801	5e60db57fdef8001c1fdc6f7	4	1	main_slash	11	main_slash	145	stimuli_distractor_diamondtriangles.svg	stimuli_distractor_diamondtriangles.svg	39	no	0	1	2000	0	0			0	0			1				0	
6.6.1	win	2023-07-09	11:37:19	11:46:59	576801	5e60db57fdef8001c1fdc6f7	4	1	main_slash	11	advance_on_keypress_SLASH	146	stimuli_distractor_diamondtriangles.svg	stimuli_distractor_diamondtriangles.svg	39	no	57	0	287	0	0			0	0			1				0	
6.6.1	win	2023-07-09	11:37:19	11:47:01	578191	5e60db57fdef8001c1fdc6f7	4	1	main_slash	11	main_slash	147	stimuli_target_trianglerectangles.svg	stimuli_distractor_trianglediamonds.svg	17	yes	53	1	458	0	0			0	0			1				0	
6.6.1	win	2023-07-09	11:37:19	11:47:01	578191	5e60db57fdef8001c1fdc6f7	4	1	main_slash	11	advance_on_keypress_SLASH	148	stimuli_target_trianglerectangles.svg	stimuli_distractor_trianglediamonds.svg	17	yes	57	0	503	0	0			0	0			1				0	
6.6.1	win	2023-07-09	11:37:19	11:47:02	579744	5e60db57fdef8001c1fdc6f7	4	1	main_slash	11	main_slash	149	stimuli_target_diamondrectangles.svg	stimuli_distractor_diamondtriangles.svg	23	yes	53	1	410	0	0			0	0			1				0	
6.6.1	win	2023-07-09	11:37:19	11:47:02	579744	5e60db57fdef8001c1fdc6f7	4	1	main_slash	11	advance_on_keypress_SLASH	150	stimuli_target_diamondrectangles.svg	stimuli_distractor_diamondtriangles.svg	23	yes	57	0	449	0	0			0	0			1				0	
6.6.1	win	2023-07-09	11:37:19	11:47:04	581240	5e60db57fdef8001c1fdc6f7	4	1	main_slash	11	main_slash	151	stimuli_target_trianglesquares.svg	stimuli_distractor_trianglediamonds.svg	18	yes	53	1	406	0	0			0	0			1				0	
6.6.1	win	2023-07-09	11:37:19	11:47:04	581240	5e60db57fdef8001c1fdc6f7	4	1	main_slash	11	advance_on_keypress_SLASH	152	stimuli_target_trianglesquares.svg	stimuli_distractor_trianglediamonds.svg	18	yes	57	0	453	0	0			0	0			1				0	
6.6.1	win	2023-07-09	11:37:19	11:47:05	582760	5e60db57fdef8001c1fdc6f7	4	1	main_slash	11	main_slash	153	stimuli_distractor_trianglediamonds.svg	stimuli_target_squarediamonds.svg	12	yes	53	1	426	0	0			0	0			1				0	
6.6.1	win	2023-07-09	11:37:19	11:47:05	582760	5e60db57fdef8001c1fdc6f7	4	1	main_slash	11	advance_on_keypress_SLASH	154	stimuli_distractor_trianglediamonds.svg	stimuli_target_squarediamonds.svg	12	yes	57	0	672	0	0			0	0			1				0	
6.6.1	win	2023-07-09	11:37:19	11:47:09	586067	5e60db57fdef8001c1fdc6f7	4	1	main_slash	11	main_slash	155	stimuli_distractor_trianglediamonds.svg	stimuli_distractor_trianglediamonds.svg	33	no	0	1	2000	0	0			0	0			1				0	
6.6.1	win	2023-07-09	11:37:19	11:47:09	586067	5e60db57fdef8001c1fdc6f7	4	1	main_slash	11	advance_on_keypress_SLASH	156	stimuli_distractor_trianglediamonds.svg	stimuli_distractor_trianglediamonds.svg	33	no	57	0	364	0	0			0	0			1				0	
6.6.1	win	2023-07-09	11:37:19	11:47:12	589084	5e60db57fdef8001c1fdc6f7	4	1	main_slash	11	main_slash	157	stimuli_distractor_trianglediamonds.svg	stimuli_distractor_diamondtriangles.svg	36	no	0	1	2000	0	0			0	0			1				0	
6.6.1	win	2023-07-09	11:37:19	11:47:12	589084	5e60db57fdef8001c1fdc6f7	4	1	main_slash	11	advance_on_keypress_SLASH	158	stimuli_distractor_trianglediamonds.svg	stimuli_distractor_diamondtriangles.svg	36	no	57	0	299	0	0			0	0			1				0	
6.6.1	win	2023-07-09	11:37:19	11:47:13	590383	5e60db57fdef8001c1fdc6f7	4	1	main_slash	11	main_slash	159	stimuli_distractor_trianglediamonds.svg	stimuli_target_trianglesquares.svg	26	yes	53	1	350	0	0			0	0			1				0	
6.6.1	win	2023-07-09	11:37:19	11:47:13	590383	5e60db57fdef8001c1fdc6f7	4	1	main_slash	11	advance_on_keypress_SLASH	160	stimuli_distractor_trianglediamonds.svg	stimuli_target_trianglesquares.svg	26	yes	57	0	559	0	0			0	0			1				0	
6.6.1	win	2023-07-09	11:37:19	11:47:13	590383	5e60db57fdef8001c1fdc6f7	4	1	headphonecheck_calibration	14	headphonecheck_calibrationIntro	1	stimuli_distractor_trianglediamonds.svg	stimuli_target_trianglesquares.svg	26	yes	calibrationButton	0	3531	0	0			0	0			1				0	
6.6.1	win	2023-07-09	11:37:19	11:47:13	590383	5e60db57fdef8001c1fdc6f7	4	1	headphonecheck_testphase	15	test_collectResponse	3	stimuli_distractor_trianglediamonds.svg	stimuli_target_trianglesquares.svg	26	yes	first	1	619	1	4	antiphase_hc_sio.wav	1	0	0			1				0	
6.6.1	win	2023-07-09	11:37:19	11:47:13	590383	5e60db57fdef8001c1fdc6f7	4	1	headphonecheck_testphase	15	test_collectResponse	6	stimuli_distractor_trianglediamonds.svg	stimuli_target_trianglesquares.svg	26	yes	second	1	609	2	5	antiphase_hc_osi.wav	2	0	0			1				0	
6.6.1	win	2023-07-09	11:37:19	11:47:13	590383	5e60db57fdef8001c1fdc6f7	4	1	headphonecheck_testphase	15	test_collectResponse	9	stimuli_distractor_trianglediamonds.svg	stimuli_target_trianglesquares.svg	26	yes	second	1	660	3	1	antiphase_hc_iso.wav	2	0	0			1				0	
6.6.1	win	2023-07-09	11:37:19	11:47:13	590383	5e60db57fdef8001c1fdc6f7	4	1	headphonecheck_testphase	15	test_collectResponse	12	stimuli_distractor_trianglediamonds.svg	stimuli_target_trianglesquares.svg	26	yes	first	1	595	4	3	antiphase_hc_soi.wav	1	0	0			1				0	
6.6.1	win	2023-07-09	11:37:19	11:47:13	590383	5e60db57fdef8001c1fdc6f7	4	1	headphonecheck_testphase	15	test_collectResponse	15	stimuli_distractor_trianglediamonds.svg	stimuli_target_trianglesquares.svg	26	yes	third	1	360	5	6	antiphase_hc_ois.wav	3	0	0			1				0	
6.6.1	win	2023-07-09	11:37:19	11:47:13	590383	5e60db57fdef8001c1fdc6f7	4	1	headphonecheck_testphase	15	test_collectResponse	18	stimuli_distractor_trianglediamonds.svg	stimuli_target_trianglesquares.svg	26	yes	third	1	576	6	2	antiphase_hc_ios.wav	3	0	0			1				0	
6.6.1	win	2023-07-09	11:37:19	11:47:13	590383	5e60db57fdef8001c1fdc6f7	4	1	stereocheck_calibration	17	stereocheck_calibrationIntro	1	stimuli_distractor_trianglediamonds.svg	stimuli_target_trianglesquares.svg	26	yes	stereocheck_calibrationButton	0	9264	6	2	antiphase_hc_ios.wav	3	0	0			1				0	
6.6.1	win	2023-07-09	11:37:19	11:47:13	590383	5e60db57fdef8001c1fdc6f7	4	1	stereocheck_testphase	18	stereocheck_test_collectResponse	3	stimuli_distractor_trianglediamonds.svg	stimuli_target_trianglesquares.svg	26	yes	stereocheck_left	1	327	6	2	antiphase_hc_ios.wav	3	1	3	noise_calib_stim_LEFT.wav	1	1				0	
6.6.1	win	2023-07-09	11:37:19	11:47:13	590383	5e60db57fdef8001c1fdc6f7	4	1	stereocheck_testphase	18	stereocheck_test_collectResponse	6	stimuli_distractor_trianglediamonds.svg	stimuli_target_trianglesquares.svg	26	yes	stereocheck_left	1	1606	6	2	antiphase_hc_ios.wav	3	2	1	noise_calib_stim_LEFT.wav	1	1				0	
6.6.1	win	2023-07-09	11:37:19	11:47:13	590383	5e60db57fdef8001c1fdc6f7	4	1	stereocheck_testphase	18	stereocheck_test_collectResponse	9	stimuli_distractor_trianglediamonds.svg	stimuli_target_trianglesquares.svg	26	yes	stereocheck_right	1	409	6	2	antiphase_hc_ios.wav	3	3	4	noise_calib_stim_RIGHT.wav	2	1				0	
6.6.1	win	2023-07-09	11:37:19	11:47:13	590383	5e60db57fdef8001c1fdc6f7	4	1	stereocheck_testphase	18	stereocheck_test_collectResponse	12	stimuli_distractor_trianglediamonds.svg	stimuli_target_trianglesquares.svg	26	yes	stereocheck_right	1	414	6	2	antiphase_hc_ios.wav	3	4	5	noise_calib_stim_RIGHT.wav	2	1				0	
6.6.1	win	2023-07-09	11:37:19	11:47:13	590383	5e60db57fdef8001c1fdc6f7	4	1	stereocheck_testphase	18	stereocheck_test_collectResponse	15	stimuli_distractor_trianglediamonds.svg	stimuli_target_trianglesquares.svg	26	yes	stereocheck_right	1	474	6	2	antiphase_hc_ios.wav	3	5	6	noise_calib_stim_RIGHT.wav	2	1				0	
6.6.1	win	2023-07-09	11:37:19	11:47:13	590383	5e60db57fdef8001c1fdc6f7	4	1	stereocheck_testphase	18	stereocheck_test_collectResponse	18	stimuli_distractor_trianglediamonds.svg	stimuli_target_trianglesquares.svg	26	yes	stereocheck_left	1	336	6	2	antiphase_hc_ios.wav	3	6	2	noise_calib_stim_LEFT.wav	1	1				0	
6.6.1	win	2023-07-09	11:37:19	11:47:13	590383	5e60db57fdef8001c1fdc6f7	4	1	DL_practice	21	DL_practice	2	stimuli_distractor_trianglediamonds.svg	stimuli_target_trianglesquares.svg	26	yes	ka	0	1606	6	2	antiphase_hc_ios.wav	3	6	2	noise_calib_stim_LEFT.wav	1	18	blb_dichoticlistening_ga-ta.mp3	ga	ta	1	other
6.6.1	win	2023-07-09	11:37:19	11:47:13	590383	5e60db57fdef8001c1fdc6f7	4	1	DL_practice	21	DL_practice	3	stimuli_distractor_trianglediamonds.svg	stimuli_target_trianglesquares.svg	26	yes	ga	1	689	6	2	antiphase_hc_ios.wav	3	6	2	noise_calib_stim_LEFT.wav	1	15	blb_dichoticlistening_ga-ga.mp3	ga	ga	0	left
6.6.1	win	2023-07-09	11:37:19	11:47:13	590383	5e60db57fdef8001c1fdc6f7	4	1	DL_practice	21	DL_practice	4	stimuli_distractor_trianglediamonds.svg	stimuli_target_trianglesquares.svg	26	yes	ta	1	1182	6	2	antiphase_hc_ios.wav	3	6	2	noise_calib_stim_LEFT.wav	1	36	blb_dichoticlistening_ta-ta.mp3	ta	ta	0	left
6.6.1	win	2023-07-09	11:37:19	11:47:13	590383	5e60db57fdef8001c1fdc6f7	4	1	DL_practice	21	DL_practice	5	stimuli_distractor_trianglediamonds.svg	stimuli_target_trianglesquares.svg	26	yes	ka	1	657	6	2	antiphase_hc_ios.wav	3	6	2	noise_calib_stim_LEFT.wav	1	22	blb_dichoticlistening_ka-ka.mp3	ka	ka	0	left
6.6.1	win	2023-07-09	11:37:19	11:47:13	590383	5e60db57fdef8001c1fdc6f7	4	1	DL_practice	21	DL_practice	6	stimuli_distractor_trianglediamonds.svg	stimuli_target_trianglesquares.svg	26	yes	da	1	843	6	2	antiphase_hc_ios.wav	3	6	2	noise_calib_stim_LEFT.wav	1	8	blb_dichoticlistening_da-da.mp3	da	da	0	left
6.6.1	win	2023-07-09	11:37:19	11:47:13	590383	5e60db57fdef8001c1fdc6f7	4	1	DL_practice	21	DL_practice	7	stimuli_distractor_trianglediamonds.svg	stimuli_target_trianglesquares.svg	26	yes	ka	1	1547	6	2	antiphase_hc_ios.wav	3	6	2	noise_calib_stim_LEFT.wav	1	23	blb_dichoticlistening_ka-pa.mp3	ka	pa	1	left
6.6.1	win	2023-07-09	11:37:19	11:47:13	590383	5e60db57fdef8001c1fdc6f7	4	1	DL_practice	21	DL_practice	8	stimuli_distractor_trianglediamonds.svg	stimuli_target_trianglesquares.svg	26	yes	ba	1	1544	6	2	antiphase_hc_ios.wav	3	6	2	noise_calib_stim_LEFT.wav	1	1	blb_dichoticlistening_ba-ba.mp3	ba	ba	0	left
6.6.1	win	2023-07-09	11:37:19	11:47:13	590383	5e60db57fdef8001c1fdc6f7	4	1	DL_practice	21	DL_practice	9	stimuli_distractor_trianglediamonds.svg	stimuli_target_trianglesquares.svg	26	yes	pa	1	1121	6	2	antiphase_hc_ios.wav	3	6	2	noise_calib_stim_LEFT.wav	1	29	blb_dichoticlistening_pa-pa.mp3	pa	pa	0	left
6.6.1	win	2023-07-09	11:37:19	11:47:13	590383	5e60db57fdef8001c1fdc6f7	4	1	DL_practice	21	DL_practice	10	stimuli_distractor_trianglediamonds.svg	stimuli_target_trianglesquares.svg	26	yes	da	1	1037	6	2	antiphase_hc_ios.wav	3	6	2	noise_calib_stim_LEFT.wav	1	7	blb_dichoticlistening_da-ba.mp3	da	ba	1	left
6.6.1	win	2023-07-09	11:37:19	11:47:13	590383	5e60db57fdef8001c1fdc6f7	4	1	DL_test	23	DL_test	1	stimuli_distractor_trianglediamonds.svg	stimuli_target_trianglesquares.svg	26	yes	pa	1	860	6	2	antiphase_hc_ios.wav	3	6	2	noise_calib_stim_LEFT.wav	1	29	blb_dichoticlistening_pa-pa.mp3	pa	pa	0	left
6.6.1	win	2023-07-09	11:37:19	11:47:13	590383	5e60db57fdef8001c1fdc6f7	4	1	DL_test	23	DL_test	2	stimuli_distractor_trianglediamonds.svg	stimuli_target_trianglesquares.svg	26	yes	ba	0	1026	6	2	antiphase_hc_ios.wav	3	6	2	noise_calib_stim_LEFT.wav	1	10	blb_dichoticlistening_da-ka.mp3	da	ka	1	other
6.6.1	win	2023-07-09	11:37:19	11:47:13	590383	5e60db57fdef8001c1fdc6f7	4	1	DL_test	23	DL_test	3	stimuli_distractor_trianglediamonds.svg	stimuli_target_trianglesquares.svg	26	yes	ka	1	841	6	2	antiphase_hc_ios.wav	3	6	2	noise_calib_stim_LEFT.wav	1	24	blb_dichoticlistening_ka-ta.mp3	ka	ta	1	left
6.6.1	win	2023-07-09	11:37:19	11:47:13	590383	5e60db57fdef8001c1fdc6f7	4	1	DL_test	23	DL_test	4	stimuli_distractor_trianglediamonds.svg	stimuli_target_trianglesquares.svg	26	yes	da	1	1044	6	2	antiphase_hc_ios.wav	3	6	2	noise_calib_stim_LEFT.wav	1	26	blb_dichoticlistening_pa-da.mp3	pa	da	1	right
6.6.1	win	2023-07-09	11:37:19	11:47:13	590383	5e60db57fdef8001c1fdc6f7	4	1	DL_test	23	DL_test	5	stimuli_distractor_trianglediamonds.svg	stimuli_target_trianglesquares.svg	26	yes	ga	1	1561	6	2	antiphase_hc_ios.wav	3	6	2	noise_calib_stim_LEFT.wav	1	21	blb_dichoticlistening_ka-ga.mp3	ka	ga	1	right
6.6.1	win	2023-07-09	11:37:19	11:47:13	590383	5e60db57fdef8001c1fdc6f7	4	1	DL_test	23	DL_test	6	stimuli_distractor_trianglediamonds.svg	stimuli_target_trianglesquares.svg	26	yes	ga	0	1114	6	2	antiphase_hc_ios.wav	3	6	2	noise_calib_stim_LEFT.wav	1	19	blb_dichoticlistening_ka-ba.mp3	ka	ba	1	other
6.6.1	win	2023-07-09	11:37:19	11:47:13	590383	5e60db57fdef8001c1fdc6f7	4	1	DL_test	23	DL_test	7	stimuli_distractor_trianglediamonds.svg	stimuli_target_trianglesquares.svg	26	yes	ga	1	855	6	2	antiphase_hc_ios.wav	3	6	2	noise_calib_stim_LEFT.wav	1	15	blb_dichoticlistening_ga-ga.mp3	ga	ga	0	left
6.6.1	win	2023-07-09	11:37:19	11:47:13	590383	5e60db57fdef8001c1fdc6f7	4	1	DL_test	23	DL_test	8	stimuli_distractor_trianglediamonds.svg	stimuli_target_trianglesquares.svg	26	yes	ga	1	683	6	2	antiphase_hc_ios.wav	3	6	2	noise_calib_stim_LEFT.wav	1	9	blb_dichoticlistening_da-ga.mp3	da	ga	1	right
6.6.1	win	2023-07-09	11:37:19	11:47:13	590383	5e60db57fdef8001c1fdc6f7	4	1	DL_test	23	DL_test	9	stimuli_distractor_trianglediamonds.svg	stimuli_target_trianglesquares.svg	26	yes	ka	1	716	6	2	antiphase_hc_ios.wav	3	6	2	noise_calib_stim_LEFT.wav	1	22	blb_dichoticlistening_ka-ka.mp3	ka	ka	0	left
6.6.1	win	2023-07-09	11:37:19	11:47:13	590383	5e60db57fdef8001c1fdc6f7	4	1	DL_test	23	DL_test	10	stimuli_distractor_trianglediamonds.svg	stimuli_target_trianglesquares.svg	26	yes	pa	1	989	6	2	antiphase_hc_ios.wav	3	6	2	noise_calib_stim_LEFT.wav	1	25	blb_dichoticlistening_pa-ba.mp3	pa	ba	1	left
6.6.1	win	2023-07-09	11:37:19	11:47:13	590383	5e60db57fdef8001c1fdc6f7	4	1	DL_test	23	DL_test	11	stimuli_distractor_trianglediamonds.svg	stimuli_target_trianglesquares.svg	26	yes	pa	1	1930	6	2	antiphase_hc_ios.wav	3	6	2	noise_calib_stim_LEFT.wav	1	5	blb_dichoticlistening_ba-pa.mp3	ba	pa	1	right
6.6.1	win	2023-07-09	11:37:19	11:47:13	590383	5e60db57fdef8001c1fdc6f7	4	1	DL_test	23	DL_test	12	stimuli_distractor_trianglediamonds.svg	stimuli_target_trianglesquares.svg	26	yes	ka	0	2652	6	2	antiphase_hc_ios.wav	3	6	2	noise_calib_stim_LEFT.wav	1	6	blb_dichoticlistening_ba-ta.mp3	ba	ta	1	other
6.6.1	win	2023-07-09	11:37:19	11:47:13	590383	5e60db57fdef8001c1fdc6f7	4	1	DL_test	23	DL_test	13	stimuli_distractor_trianglediamonds.svg	stimuli_target_trianglesquares.svg	26	yes	da	1	1697	6	2	antiphase_hc_ios.wav	3	6	2	noise_calib_stim_LEFT.wav	1	32	blb_dichoticlistening_ta-da.mp3	ta	da	1	right
6.6.1	win	2023-07-09	11:37:19	11:47:13	590383	5e60db57fdef8001c1fdc6f7	4	1	DL_test	23	DL_test	14	stimuli_distractor_trianglediamonds.svg	stimuli_target_trianglesquares.svg	26	yes	ka	1	2047	6	2	antiphase_hc_ios.wav	3	6	2	noise_calib_stim_LEFT.wav	1	16	blb_dichoticlistening_ga-ka.mp3	ga	ka	1	right
6.6.1	win	2023-07-09	11:37:19	11:47:13	590383	5e60db57fdef8001c1fdc6f7	4	1	DL_test	23	DL_test	15	stimuli_distractor_trianglediamonds.svg	stimuli_target_trianglesquares.svg	26	yes	ka	1	1662	6	2	antiphase_hc_ios.wav	3	6	2	noise_calib_stim_LEFT.wav	1	23	blb_dichoticlistening_ka-pa.mp3	ka	pa	1	left
6.6.1	win	2023-07-09	11:37:19	11:47:13	590383	5e60db57fdef8001c1fdc6f7	4	1	DL_test	23	DL_test	16	stimuli_distractor_trianglediamonds.svg	stimuli_target_trianglesquares.svg	26	yes	ka	1	1295	6	2	antiphase_hc_ios.wav	3	6	2	noise_calib_stim_LEFT.wav	1	28	blb_dichoticlistening_pa-ka.mp3	pa	ka	1	right
6.6.1	win	2023-07-09	11:37:19	11:47:13	590383	5e60db57fdef8001c1fdc6f7	4	1	DL_test	23	DL_test	17	stimuli_distractor_trianglediamonds.svg	stimuli_target_trianglesquares.svg	26	yes	ta	1	912	6	2	antiphase_hc_ios.wav	3	6	2	noise_calib_stim_LEFT.wav	1	36	blb_dichoticlistening_ta-ta.mp3	ta	ta	0	left
6.6.1	win	2023-07-09	11:37:19	11:47:13	590383	5e60db57fdef8001c1fdc6f7	4	1	DL_test	23	DL_test	18	stimuli_distractor_trianglediamonds.svg	stimuli_target_trianglesquares.svg	26	yes	ta	1	1245	6	2	antiphase_hc_ios.wav	3	6	2	noise_calib_stim_LEFT.wav	1	31	blb_dichoticlistening_ta-ba.mp3	ta	ba	1	left
6.6.1	win	2023-07-09	11:37:19	11:47:13	590383	5e60db57fdef8001c1fdc6f7	4	1	DL_test	23	DL_test	19	stimuli_distractor_trianglediamonds.svg	stimuli_target_trianglesquares.svg	26	yes	da	1	1071	6	2	antiphase_hc_ios.wav	3	6	2	noise_calib_stim_LEFT.wav	1	14	blb_dichoticlistening_ga-da.mp3	ga	da	1	right
6.6.1	win	2023-07-09	11:37:19	11:47:13	590383	5e60db57fdef8001c1fdc6f7	4	1	DL_test	23	DL_test	20	stimuli_distractor_trianglediamonds.svg	stimuli_target_trianglesquares.svg	26	yes	pa	1	1221	6	2	antiphase_hc_ios.wav	3	6	2	noise_calib_stim_LEFT.wav	1	17	blb_dichoticlistening_ga-pa.mp3	ga	pa	1	right
6.6.1	win	2023-07-09	11:37:19	11:47:13	590383	5e60db57fdef8001c1fdc6f7	4	1	DL_test	23	DL_test	21	stimuli_distractor_trianglediamonds.svg	stimuli_target_trianglesquares.svg	26	yes	ta	1	1896	6	2	antiphase_hc_ios.wav	3	6	2	noise_calib_stim_LEFT.wav	1	35	blb_dichoticlistening_ta-pa.mp3	ta	pa	1	left
6.6.1	win	2023-07-09	11:37:19	11:47:13	590383	5e60db57fdef8001c1fdc6f7	4	1	DL_test	23	DL_test	22	stimuli_distractor_trianglediamonds.svg	stimuli_target_trianglesquares.svg	26	yes	ta	1	1428	6	2	antiphase_hc_ios.wav	3	6	2	noise_calib_stim_LEFT.wav	1	30	blb_dichoticlistening_pa-ta.mp3	pa	ta	1	right
6.6.1	win	2023-07-09	11:37:19	11:47:13	590383	5e60db57fdef8001c1fdc6f7	4	1	DL_test	23	DL_test	23	stimuli_distractor_trianglediamonds.svg	stimuli_target_trianglesquares.svg	26	yes	ga	1	1217	6	2	antiphase_hc_ios.wav	3	6	2	noise_calib_stim_LEFT.wav	1	3	blb_dichoticlistening_ba-ga.mp3	ba	ga	1	right
6.6.1	win	2023-07-09	11:37:19	11:47:13	590383	5e60db57fdef8001c1fdc6f7	4	1	DL_test	23	DL_test	24	stimuli_distractor_trianglediamonds.svg	stimuli_target_trianglesquares.svg	26	yes	ba	1	1045	6	2	antiphase_hc_ios.wav	3	6	2	noise_calib_stim_LEFT.wav	1	13	blb_dichoticlistening_ga-ba.mp3	ga	ba	1	right
6.6.1	win	2023-07-09	11:37:19	11:47:13	590383	5e60db57fdef8001c1fdc6f7	4	1	DL_test	23	DL_test	25	stimuli_distractor_trianglediamonds.svg	stimuli_target_trianglesquares.svg	26	yes	da	1	1577	6	2	antiphase_hc_ios.wav	3	6	2	noise_calib_stim_LEFT.wav	1	7	blb_dichoticlistening_da-ba.mp3	da	ba	1	left
6.6.1	win	2023-07-09	11:37:19	11:47:13	590383	5e60db57fdef8001c1fdc6f7	4	1	DL_test	23	DL_test	26	stimuli_distractor_trianglediamonds.svg	stimuli_target_trianglesquares.svg	26	yes	ga	1	1536	6	2	antiphase_hc_ios.wav	3	6	2	noise_calib_stim_LEFT.wav	1	33	blb_dichoticlistening_ta-ga.mp3	ta	ga	1	right
