build	computer.platform	date	time	timestamp	time_elapsed_ms	subject	group	session	blockcode	blocknum	trialcode	trialnum	stimulus_left	stimulus_right	stim_index	target_present	response	correct	latency	headphonecheck_countTestTrials	headphonecheck_index	headphonecheck_testSound	headphonecheck_correctResponse	stereocheck_countTestTrials	stereocheck_index	stereocheck_testSound	stereocheck_correctResponse	DL_index	DL_soundfile	DL_leftSound	DL_rightSound	DL_dualSound	DL_choice
6.6.1	win	2023-06-28	00:26:09	00:39:40	806659	63d79c120d736e870e993b8c	4	1	practice_z	5	practice_z	1	stimuli_distractor_trianglediamonds.svg	stimuli_target_rectanglediamonds.svg	10	yes	44	1	724	0	0			0	0			1				0	
6.6.1	win	2023-06-28	00:26:09	00:39:40	806659	63d79c120d736e870e993b8c	4	1	practice_z	5	advance_on_keypress_ZEE	2	stimuli_distractor_trianglediamonds.svg	stimuli_target_rectanglediamonds.svg	10	yes	57	0	1461	0	0			0	0			1				0	
6.6.1	win	2023-06-28	00:26:09	00:39:44	810206	63d79c120d736e870e993b8c	4	1	practice_z	5	practice_z	3	stimuli_distractor_trianglediamonds.svg	stimuli_target_diamondrectangles.svg	12	yes	44	1	423	0	0			0	0			1				0	
6.6.1	win	2023-06-28	00:26:09	00:39:44	810206	63d79c120d736e870e993b8c	4	1	practice_z	5	advance_on_keypress_ZEE	4	stimuli_distractor_trianglediamonds.svg	stimuli_target_diamondrectangles.svg	12	yes	57	0	604	0	0			0	0			1				0	
6.6.1	win	2023-06-28	00:26:09	00:39:48	814450	63d79c120d736e870e993b8c	4	1	practice_z	5	practice_z	5	stimuli_distractor_diamondtriangles.svg	stimuli_distractor_diamondtriangles.svg	13	no	0	1	2000	0	0			0	0			1				0	
6.6.1	win	2023-06-28	00:26:09	00:39:48	814450	63d79c120d736e870e993b8c	4	1	practice_z	5	advance_on_keypress_ZEE	6	stimuli_distractor_diamondtriangles.svg	stimuli_distractor_diamondtriangles.svg	13	no	57	0	520	0	0			0	0			1				0	
6.6.1	win	2023-06-28	00:26:09	00:39:51	817279	63d79c120d736e870e993b8c	4	1	practice_z	5	practice_z	7	stimuli_target_rectanglediamonds.svg	stimuli_distractor_trianglediamonds.svg	4	yes	44	1	665	0	0			0	0			1				0	
6.6.1	win	2023-06-28	00:26:09	00:39:51	817279	63d79c120d736e870e993b8c	4	1	practice_z	5	advance_on_keypress_ZEE	8	stimuli_target_rectanglediamonds.svg	stimuli_distractor_trianglediamonds.svg	4	yes	57	0	403	0	0			0	0			1				0	
6.6.1	win	2023-06-28	00:26:09	00:39:53	819879	63d79c120d736e870e993b8c	4	1	practice_z	5	practice_z	9	stimuli_target_diamondsquares.svg	stimuli_distractor_diamondtriangles.svg	3	yes	44	1	530	0	0			0	0			1				0	
6.6.1	win	2023-06-28	00:26:09	00:39:53	819879	63d79c120d736e870e993b8c	4	1	practice_z	5	advance_on_keypress_ZEE	10	stimuli_target_diamondsquares.svg	stimuli_distractor_diamondtriangles.svg	3	yes	57	0	408	0	0			0	0			1				0	
6.6.1	win	2023-06-28	00:26:09	00:39:56	822363	63d79c120d736e870e993b8c	4	1	practice_z	5	practice_z	11	stimuli_distractor_diamondtriangles.svg	stimuli_target_rectangletriangles.svg	7	yes	44	1	415	0	0			0	0			1				0	
6.6.1	win	2023-06-28	00:26:09	00:39:56	822363	63d79c120d736e870e993b8c	4	1	practice_z	5	advance_on_keypress_ZEE	12	stimuli_distractor_diamondtriangles.svg	stimuli_target_rectangletriangles.svg	7	yes	57	0	327	0	0			0	0			1				0	
6.6.1	win	2023-06-28	00:26:09	00:40:00	826348	63d79c120d736e870e993b8c	4	1	practice_z	5	practice_z	13	stimuli_distractor_diamondtriangles.svg	stimuli_distractor_trianglediamonds.svg	14	no	0	1	2000	0	0			0	0			1				0	
6.6.1	win	2023-06-28	00:26:09	00:40:00	826348	63d79c120d736e870e993b8c	4	1	practice_z	5	advance_on_keypress_ZEE	14	stimuli_distractor_diamondtriangles.svg	stimuli_distractor_trianglediamonds.svg	14	no	57	0	271	0	0			0	0			1				0	
6.6.1	win	2023-06-28	00:26:09	00:40:02	828764	63d79c120d736e870e993b8c	4	1	practice_z	5	practice_z	15	stimuli_distractor_diamondtriangles.svg	stimuli_target_trianglerectangles.svg	9	yes	44	1	484	0	0			0	0			1				0	
6.6.1	win	2023-06-28	00:26:09	00:40:02	828764	63d79c120d736e870e993b8c	4	1	practice_z	5	advance_on_keypress_ZEE	16	stimuli_distractor_diamondtriangles.svg	stimuli_target_trianglerectangles.svg	9	yes	57	0	396	0	0			0	0			1				0	
6.6.1	win	2023-06-28	00:26:09	00:40:05	831220	63d79c120d736e870e993b8c	4	1	practice_z	5	practice_z	17	stimuli_target_squarediamonds.svg	stimuli_distractor_diamondtriangles.svg	2	yes	44	1	406	0	0			0	0			1				0	
6.6.1	win	2023-06-28	00:26:09	00:40:05	831220	63d79c120d736e870e993b8c	4	1	practice_z	5	advance_on_keypress_ZEE	18	stimuli_target_squarediamonds.svg	stimuli_distractor_diamondtriangles.svg	2	yes	57	0	294	0	0			0	0			1				0	
6.6.1	win	2023-06-28	00:26:09	00:40:07	833647	63d79c120d736e870e993b8c	4	1	practice_z	5	practice_z	19	stimuli_target_diamondsquares.svg	stimuli_distractor_trianglediamonds.svg	6	yes	44	1	484	0	0			0	0			1				0	
6.6.1	win	2023-06-28	00:26:09	00:40:07	833647	63d79c120d736e870e993b8c	4	1	practice_z	5	advance_on_keypress_ZEE	20	stimuli_target_diamondsquares.svg	stimuli_distractor_trianglediamonds.svg	6	yes	57	0	290	0	0			0	0			1				0	
6.6.1	win	2023-06-28	00:26:09	00:40:09	835957	63d79c120d736e870e993b8c	4	1	practice_z	5	practice_z	21	stimuli_target_squarediamonds.svg	stimuli_distractor_trianglediamonds.svg	5	yes	44	1	377	0	0			0	0			1				0	
6.6.1	win	2023-06-28	00:26:09	00:40:09	835957	63d79c120d736e870e993b8c	4	1	practice_z	5	advance_on_keypress_ZEE	22	stimuli_target_squarediamonds.svg	stimuli_distractor_trianglediamonds.svg	5	yes	57	0	265	0	0			0	0			1				0	
6.6.1	win	2023-06-28	00:26:09	00:40:12	838217	63d79c120d736e870e993b8c	4	1	practice_z	5	practice_z	23	stimuli_distractor_diamondtriangles.svg	stimuli_target_diamondrectangles.svg	8	yes	44	1	337	0	0			0	0			1				0	
6.6.1	win	2023-06-28	00:26:09	00:40:12	838217	63d79c120d736e870e993b8c	4	1	practice_z	5	advance_on_keypress_ZEE	24	stimuli_distractor_diamondtriangles.svg	stimuli_target_diamondrectangles.svg	8	yes	57	0	292	0	0			0	0			1				0	
6.6.1	win	2023-06-28	00:26:09	00:40:14	840496	63d79c120d736e870e993b8c	4	1	practice_z	5	practice_z	25	stimuli_target_rectanglediamonds.svg	stimuli_distractor_diamondtriangles.svg	1	yes	44	1	333	0	0			0	0			1				0	
6.6.1	win	2023-06-28	00:26:09	00:40:14	840496	63d79c120d736e870e993b8c	4	1	practice_z	5	advance_on_keypress_ZEE	26	stimuli_target_rectanglediamonds.svg	stimuli_distractor_diamondtriangles.svg	1	yes	57	0	521	0	0			0	0			1				0	
6.6.1	win	2023-06-28	00:26:09	00:40:16	843091	63d79c120d736e870e993b8c	4	1	practice_z	5	practice_z	27	stimuli_distractor_trianglediamonds.svg	stimuli_target_squarediamonds.svg	11	yes	44	1	429	0	0			0	0			1				0	
6.6.1	win	2023-06-28	00:26:09	00:40:16	843091	63d79c120d736e870e993b8c	4	1	practice_z	5	advance_on_keypress_ZEE	28	stimuli_distractor_trianglediamonds.svg	stimuli_target_squarediamonds.svg	11	yes	57	0	288	0	0			0	0			1				0	
6.6.1	win	2023-06-28	00:26:09	00:40:20	847030	63d79c120d736e870e993b8c	4	1	practice_z	5	practice_z	29	stimuli_distractor_trianglediamonds.svg	stimuli_distractor_trianglediamonds.svg	15	no	0	1	2000	0	0			0	0			1				0	
6.6.1	win	2023-06-28	00:26:09	00:40:20	847030	63d79c120d736e870e993b8c	4	1	practice_z	5	advance_on_keypress_ZEE	30	stimuli_distractor_trianglediamonds.svg	stimuli_distractor_trianglediamonds.svg	15	no	57	0	454	0	0			0	0			1				0	
6.6.1	win	2023-06-28	00:26:09	00:40:25	851129	63d79c120d736e870e993b8c	4	1	practice_z	5	practice_z	31	stimuli_distractor_trianglediamonds.svg	stimuli_distractor_diamondtriangles.svg	16	no	0	1	2000	0	0			0	0			1				0	
6.6.1	win	2023-06-28	00:26:09	00:40:25	851129	63d79c120d736e870e993b8c	4	1	practice_z	5	advance_on_keypress_ZEE	32	stimuli_distractor_trianglediamonds.svg	stimuli_distractor_diamondtriangles.svg	16	no	57	0	218	0	0			0	0			1				0	
6.6.1	win	2023-06-28	00:26:09	00:40:41	867980	63d79c120d736e870e993b8c	4	1	main_z	7	main_z	1	stimuli_distractor_diamondtriangles.svg	stimuli_target_diamondsquares.svg	32	yes	44	1	473	0	0			0	0			1				0	
6.6.1	win	2023-06-28	00:26:09	00:40:41	867980	63d79c120d736e870e993b8c	4	1	main_z	7	advance_on_keypress_ZEE	2	stimuli_distractor_diamondtriangles.svg	stimuli_target_diamondsquares.svg	32	yes	57	0	871	0	0			0	0			1				0	
6.6.1	win	2023-06-28	00:26:09	00:40:43	869890	63d79c120d736e870e993b8c	4	1	main_z	7	main_z	3	stimuli_distractor_diamondtriangles.svg	stimuli_target_trianglerectangles.svg	29	yes	44	1	384	0	0			0	0			1				0	
6.6.1	win	2023-06-28	00:26:09	00:40:43	869890	63d79c120d736e870e993b8c	4	1	main_z	7	advance_on_keypress_ZEE	4	stimuli_distractor_diamondtriangles.svg	stimuli_target_trianglerectangles.svg	29	yes	57	0	604	0	0			0	0			1				0	
6.6.1	win	2023-06-28	00:26:09	00:40:45	871485	63d79c120d736e870e993b8c	4	1	main_z	7	main_z	5	stimuli_target_squarediamonds.svg	stimuli_distractor_diamondtriangles.svg	8	yes	44	1	345	0	0			0	0			1				0	
6.6.1	win	2023-06-28	00:26:09	00:40:45	871485	63d79c120d736e870e993b8c	4	1	main_z	7	advance_on_keypress_ZEE	6	stimuli_target_squarediamonds.svg	stimuli_distractor_diamondtriangles.svg	8	yes	57	0	481	0	0			0	0			1				0	
6.6.1	win	2023-06-28	00:26:09	00:40:48	874623	63d79c120d736e870e993b8c	4	1	main_z	7	main_z	7	stimuli_distractor_diamondtriangles.svg	stimuli_distractor_diamondtriangles.svg	39	no	0	1	2000	0	0			0	0			1				0	
6.6.1	win	2023-06-28	00:26:09	00:40:48	874623	63d79c120d736e870e993b8c	4	1	main_z	7	advance_on_keypress_ZEE	8	stimuli_distractor_diamondtriangles.svg	stimuli_distractor_diamondtriangles.svg	39	no	57	0	366	0	0			0	0			1				0	
6.6.1	win	2023-06-28	00:26:09	00:40:49	876068	63d79c120d736e870e993b8c	4	1	main_z	7	main_z	9	stimuli_target_trianglesquares.svg	stimuli_distractor_diamondtriangles.svg	22	yes	44	1	429	0	0			0	0			1				0	
6.6.1	win	2023-06-28	00:26:09	00:40:49	876068	63d79c120d736e870e993b8c	4	1	main_z	7	advance_on_keypress_ZEE	10	stimuli_target_trianglesquares.svg	stimuli_distractor_diamondtriangles.svg	22	yes	57	0	444	0	0			0	0			1				0	
6.6.1	win	2023-06-28	00:26:09	00:40:51	877613	63d79c120d736e870e993b8c	4	1	main_z	7	main_z	11	stimuli_distractor_diamondtriangles.svg	stimuli_target_squarediamonds.svg	16	yes	44	1	440	0	0			0	0			1				0	
6.6.1	win	2023-06-28	00:26:09	00:40:51	877613	63d79c120d736e870e993b8c	4	1	main_z	7	advance_on_keypress_ZEE	12	stimuli_distractor_diamondtriangles.svg	stimuli_target_squarediamonds.svg	16	yes	57	0	403	0	0			0	0			1				0	
6.6.1	win	2023-06-28	00:26:09	00:40:52	879014	63d79c120d736e870e993b8c	4	1	main_z	7	main_z	13	stimuli_target_trianglerectangles.svg	stimuli_distractor_diamondtriangles.svg	21	yes	44	1	359	0	0			0	0			1				0	
6.6.1	win	2023-06-28	00:26:09	00:40:52	879014	63d79c120d736e870e993b8c	4	1	main_z	7	advance_on_keypress_ZEE	14	stimuli_target_trianglerectangles.svg	stimuli_distractor_diamondtriangles.svg	21	yes	57	0	346	0	0			0	0			1				0	
6.6.1	win	2023-06-28	00:26:09	00:40:55	882005	63d79c120d736e870e993b8c	4	1	main_z	7	main_z	15	stimuli_distractor_diamondtriangles.svg	stimuli_distractor_trianglediamonds.svg	38	no	0	1	2000	0	0			0	0			1				0	
6.6.1	win	2023-06-28	00:26:09	00:40:55	882005	63d79c120d736e870e993b8c	4	1	main_z	7	advance_on_keypress_ZEE	16	stimuli_distractor_diamondtriangles.svg	stimuli_distractor_trianglediamonds.svg	38	no	57	0	270	0	0			0	0			1				0	
6.6.1	win	2023-06-28	00:26:09	00:40:57	883245	63d79c120d736e870e993b8c	4	1	main_z	7	main_z	17	stimuli_target_diamondsquares.svg	stimuli_distractor_diamondtriangles.svg	24	yes	44	1	323	0	0			0	0			1				0	
6.6.1	win	2023-06-28	00:26:09	00:40:57	883245	63d79c120d736e870e993b8c	4	1	main_z	7	advance_on_keypress_ZEE	18	stimuli_target_diamondsquares.svg	stimuli_distractor_diamondtriangles.svg	24	yes	57	0	348	0	0			0	0			1				0	
6.6.1	win	2023-06-28	00:26:09	00:41:00	886238	63d79c120d736e870e993b8c	4	1	main_z	7	main_z	19	stimuli_distractor_trianglediamonds.svg	stimuli_distractor_diamondtriangles.svg	36	no	0	1	2000	0	0			0	0			1				0	
6.6.1	win	2023-06-28	00:26:09	00:41:00	886238	63d79c120d736e870e993b8c	4	1	main_z	7	advance_on_keypress_ZEE	20	stimuli_distractor_trianglediamonds.svg	stimuli_distractor_diamondtriangles.svg	36	no	57	0	328	0	0			0	0			1				0	
6.6.1	win	2023-06-28	00:26:09	00:41:01	887572	63d79c120d736e870e993b8c	4	1	main_z	7	main_z	21	stimuli_distractor_trianglediamonds.svg	stimuli_target_trianglerectangles.svg	25	yes	44	1	350	0	0			0	0			1				0	
6.6.1	win	2023-06-28	00:26:09	00:41:01	887572	63d79c120d736e870e993b8c	4	1	main_z	7	advance_on_keypress_ZEE	22	stimuli_distractor_trianglediamonds.svg	stimuli_target_trianglerectangles.svg	25	yes	57	0	333	0	0			0	0			1				0	
6.6.1	win	2023-06-28	00:26:09	00:41:04	890554	63d79c120d736e870e993b8c	4	1	main_z	7	main_z	23	stimuli_distractor_trianglediamonds.svg	stimuli_distractor_diamondtriangles.svg	35	no	0	1	2000	0	0			0	0			1				0	
6.6.1	win	2023-06-28	00:26:09	00:41:04	890554	63d79c120d736e870e993b8c	4	1	main_z	7	advance_on_keypress_ZEE	24	stimuli_distractor_trianglediamonds.svg	stimuli_distractor_diamondtriangles.svg	35	no	57	0	234	0	0			0	0			1				0	
6.6.1	win	2023-06-28	00:26:09	00:41:07	893437	63d79c120d736e870e993b8c	4	1	main_z	7	main_z	25	stimuli_distractor_diamondtriangles.svg	stimuli_distractor_diamondtriangles.svg	40	no	0	1	2000	0	0			0	0			1				0	
6.6.1	win	2023-06-28	00:26:09	00:41:07	893437	63d79c120d736e870e993b8c	4	1	main_z	7	advance_on_keypress_ZEE	26	stimuli_distractor_diamondtriangles.svg	stimuli_distractor_diamondtriangles.svg	40	no	57	0	276	0	0			0	0			1				0	
6.6.1	win	2023-06-28	00:26:09	00:41:08	894806	63d79c120d736e870e993b8c	4	1	main_z	7	main_z	27	stimuli_distractor_trianglediamonds.svg	stimuli_target_trianglesquares.svg	26	yes	44	1	436	0	0			0	0			1				0	
6.6.1	win	2023-06-28	00:26:09	00:41:08	894806	63d79c120d736e870e993b8c	4	1	main_z	7	advance_on_keypress_ZEE	28	stimuli_distractor_trianglediamonds.svg	stimuli_target_trianglesquares.svg	26	yes	57	0	592	0	0			0	0			1				0	
6.6.1	win	2023-06-28	00:26:09	00:41:10	896556	63d79c120d736e870e993b8c	4	1	main_z	7	main_z	29	stimuli_distractor_trianglediamonds.svg	stimuli_target_squarediamonds.svg	12	yes	44	1	520	0	0			0	0			1				0	
6.6.1	win	2023-06-28	00:26:09	00:41:10	896556	63d79c120d736e870e993b8c	4	1	main_z	7	advance_on_keypress_ZEE	30	stimuli_distractor_trianglediamonds.svg	stimuli_target_squarediamonds.svg	12	yes	57	0	425	0	0			0	0			1				0	
6.6.1	win	2023-06-28	00:26:09	00:41:12	898240	63d79c120d736e870e993b8c	4	1	main_z	7	main_z	31	stimuli_distractor_trianglediamonds.svg	stimuli_target_rectanglediamonds.svg	10	yes	44	1	621	0	0			0	0			1				0	
6.6.1	win	2023-06-28	00:26:09	00:41:12	898240	63d79c120d736e870e993b8c	4	1	main_z	7	advance_on_keypress_ZEE	32	stimuli_distractor_trianglediamonds.svg	stimuli_target_rectanglediamonds.svg	10	yes	57	0	1008	0	0			0	0			1				0	
6.6.1	win	2023-06-28	00:26:09	00:41:14	900297	63d79c120d736e870e993b8c	4	1	main_z	7	main_z	33	stimuli_distractor_trianglediamonds.svg	stimuli_target_diamondsquares.svg	28	yes	44	1	410	0	0			0	0			1				0	
6.6.1	win	2023-06-28	00:26:09	00:41:14	900297	63d79c120d736e870e993b8c	4	1	main_z	7	advance_on_keypress_ZEE	34	stimuli_distractor_trianglediamonds.svg	stimuli_target_diamondsquares.svg	28	yes	57	0	694	0	0			0	0			1				0	
6.6.1	win	2023-06-28	00:26:09	00:41:15	902062	63d79c120d736e870e993b8c	4	1	main_z	7	main_z	35	stimuli_target_trianglesquares.svg	stimuli_distractor_trianglediamonds.svg	18	yes	44	1	409	0	0			0	0			1				0	
6.6.1	win	2023-06-28	00:26:09	00:41:15	902062	63d79c120d736e870e993b8c	4	1	main_z	7	advance_on_keypress_ZEE	36	stimuli_target_trianglesquares.svg	stimuli_distractor_trianglediamonds.svg	18	yes	57	0	571	0	0			0	0			1				0	
6.6.1	win	2023-06-28	00:26:09	00:41:17	903857	63d79c120d736e870e993b8c	4	1	main_z	7	main_z	37	stimuli_target_rectangletriangles.svg	stimuli_distractor_trianglediamonds.svg	1	yes	44	1	572	0	0			0	0			1				0	
6.6.1	win	2023-06-28	00:26:09	00:41:17	903857	63d79c120d736e870e993b8c	4	1	main_z	7	advance_on_keypress_ZEE	38	stimuli_target_rectangletriangles.svg	stimuli_distractor_trianglediamonds.svg	1	yes	57	0	332	0	0			0	0			1				0	
6.6.1	win	2023-06-28	00:26:09	00:41:19	905492	63d79c120d736e870e993b8c	4	1	main_z	7	main_z	39	stimuli_distractor_diamondtriangles.svg	stimuli_target_squaretriangles.svg	15	yes	44	1	657	0	0			0	0			1				0	
6.6.1	win	2023-06-28	00:26:09	00:41:19	905492	63d79c120d736e870e993b8c	4	1	main_z	7	advance_on_keypress_ZEE	40	stimuli_distractor_diamondtriangles.svg	stimuli_target_squaretriangles.svg	15	yes	57	0	534	0	0			0	0			1				0	
6.6.1	win	2023-06-28	00:26:09	00:41:20	907075	63d79c120d736e870e993b8c	4	1	main_z	7	main_z	41	stimuli_distractor_diamondtriangles.svg	stimuli_target_diamondrectangles.svg	31	yes	44	1	407	0	0			0	0			1				0	
6.6.1	win	2023-06-28	00:26:09	00:41:20	907075	63d79c120d736e870e993b8c	4	1	main_z	7	advance_on_keypress_ZEE	42	stimuli_distractor_diamondtriangles.svg	stimuli_target_diamondrectangles.svg	31	yes	57	0	392	0	0			0	0			1				0	
6.6.1	win	2023-06-28	00:26:09	00:41:22	908572	63d79c120d736e870e993b8c	4	1	main_z	7	main_z	43	stimuli_distractor_diamondtriangles.svg	stimuli_target_rectangletriangles.svg	13	yes	44	1	454	0	0			0	0			1				0	
6.6.1	win	2023-06-28	00:26:09	00:41:22	908572	63d79c120d736e870e993b8c	4	1	main_z	7	advance_on_keypress_ZEE	44	stimuli_distractor_diamondtriangles.svg	stimuli_target_rectangletriangles.svg	13	yes	57	0	438	0	0			0	0			1				0	
6.6.1	win	2023-06-28	00:26:09	00:41:23	910032	63d79c120d736e870e993b8c	4	1	main_z	7	main_z	45	stimuli_target_squaretriangles.svg	stimuli_distractor_diamondtriangles.svg	7	yes	44	1	380	0	0			0	0			1				0	
6.6.1	win	2023-06-28	00:26:09	00:41:23	910032	63d79c120d736e870e993b8c	4	1	main_z	7	advance_on_keypress_ZEE	46	stimuli_target_squaretriangles.svg	stimuli_distractor_diamondtriangles.svg	7	yes	57	0	479	0	0			0	0			1				0	
6.6.1	win	2023-06-28	00:26:09	00:41:25	911558	63d79c120d736e870e993b8c	4	1	main_z	7	main_z	47	stimuli_target_squaretriangles.svg	stimuli_distractor_trianglediamonds.svg	3	yes	44	1	391	0	0			0	0			1				0	
6.6.1	win	2023-06-28	00:26:09	00:41:25	911558	63d79c120d736e870e993b8c	4	1	main_z	7	advance_on_keypress_ZEE	48	stimuli_target_squaretriangles.svg	stimuli_distractor_trianglediamonds.svg	3	yes	57	0	656	0	0			0	0			1				0	
6.6.1	win	2023-06-28	00:26:09	00:41:28	914851	63d79c120d736e870e993b8c	4	1	main_z	7	main_z	49	stimuli_distractor_trianglediamonds.svg	stimuli_distractor_trianglediamonds.svg	33	no	0	1	2000	0	0			0	0			1				0	
6.6.1	win	2023-06-28	00:26:09	00:41:28	914851	63d79c120d736e870e993b8c	4	1	main_z	7	advance_on_keypress_ZEE	50	stimuli_distractor_trianglediamonds.svg	stimuli_distractor_trianglediamonds.svg	33	no	57	0	422	0	0			0	0			1				0	
6.6.1	win	2023-06-28	00:26:09	00:41:30	916246	63d79c120d736e870e993b8c	4	1	main_z	7	main_z	51	stimuli_target_rectanglediamonds.svg	stimuli_distractor_trianglediamonds.svg	2	yes	44	1	329	0	0			0	0			1				0	
6.6.1	win	2023-06-28	00:26:09	00:41:30	916246	63d79c120d736e870e993b8c	4	1	main_z	7	advance_on_keypress_ZEE	52	stimuli_target_rectanglediamonds.svg	stimuli_distractor_trianglediamonds.svg	2	yes	57	0	439	0	0			0	0			1				0	
6.6.1	win	2023-06-28	00:26:09	00:41:33	919334	63d79c120d736e870e993b8c	4	1	main_z	7	main_z	53	stimuli_distractor_trianglediamonds.svg	stimuli_distractor_trianglediamonds.svg	34	no	0	1	2000	0	0			0	0			1				0	
6.6.1	win	2023-06-28	00:26:09	00:41:33	919334	63d79c120d736e870e993b8c	4	1	main_z	7	advance_on_keypress_ZEE	54	stimuli_distractor_trianglediamonds.svg	stimuli_distractor_trianglediamonds.svg	34	no	57	0	336	0	0			0	0			1				0	
6.6.1	win	2023-06-28	00:26:09	00:41:34	920637	63d79c120d736e870e993b8c	4	1	main_z	7	main_z	55	stimuli_distractor_diamondtriangles.svg	stimuli_target_trianglesquares.svg	30	yes	44	1	321	0	0			0	0			1				0	
6.6.1	win	2023-06-28	00:26:09	00:41:34	920637	63d79c120d736e870e993b8c	4	1	main_z	7	advance_on_keypress_ZEE	56	stimuli_distractor_diamondtriangles.svg	stimuli_target_trianglesquares.svg	30	yes	57	0	316	0	0			0	0			1				0	
6.6.1	win	2023-06-28	00:26:09	00:41:35	922082	63d79c120d736e870e993b8c	4	1	main_z	7	main_z	57	stimuli_target_rectangletriangles.svg	stimuli_distractor_diamondtriangles.svg	5	yes	44	1	482	0	0			0	0			1				0	
6.6.1	win	2023-06-28	00:26:09	00:41:35	922082	63d79c120d736e870e993b8c	4	1	main_z	7	advance_on_keypress_ZEE	58	stimuli_target_rectangletriangles.svg	stimuli_distractor_diamondtriangles.svg	5	yes	57	0	740	0	0			0	0			1				0	
6.6.1	win	2023-06-28	00:26:09	00:41:37	923850	63d79c120d736e870e993b8c	4	1	main_z	7	main_z	59	stimuli_distractor_trianglediamonds.svg	stimuli_target_diamondrectangles.svg	27	yes	44	1	384	0	0			0	0			1				0	
6.6.1	win	2023-06-28	00:26:09	00:41:37	923850	63d79c120d736e870e993b8c	4	1	main_z	7	advance_on_keypress_ZEE	60	stimuli_distractor_trianglediamonds.svg	stimuli_target_diamondrectangles.svg	27	yes	57	0	458	0	0			0	0			1				0	
6.6.1	win	2023-06-28	00:26:09	00:41:39	925358	63d79c120d736e870e993b8c	4	1	main_z	7	main_z	61	stimuli_target_diamondrectangles.svg	stimuli_distractor_trianglediamonds.svg	19	yes	44	1	409	0	0			0	0			1				0	
6.6.1	win	2023-06-28	00:26:09	00:41:39	925358	63d79c120d736e870e993b8c	4	1	main_z	7	advance_on_keypress_ZEE	62	stimuli_target_diamondrectangles.svg	stimuli_distractor_trianglediamonds.svg	19	yes	57	0	348	0	0			0	0			1				0	
6.6.1	win	2023-06-28	00:26:09	00:41:40	926771	63d79c120d736e870e993b8c	4	1	main_z	7	main_z	63	stimuli_distractor_diamondtriangles.svg	stimuli_target_rectanglediamonds.svg	14	yes	44	1	405	0	0			0	0			1				0	
6.6.1	win	2023-06-28	00:26:09	00:41:40	926771	63d79c120d736e870e993b8c	4	1	main_z	7	advance_on_keypress_ZEE	64	stimuli_distractor_diamondtriangles.svg	stimuli_target_rectanglediamonds.svg	14	yes	57	0	331	0	0			0	0			1				0	
6.6.1	win	2023-06-28	00:26:09	00:41:42	928128	63d79c120d736e870e993b8c	4	1	main_z	7	main_z	65	stimuli_target_rectanglediamonds.svg	stimuli_distractor_diamondtriangles.svg	6	yes	44	1	378	0	0			0	0			1				0	
6.6.1	win	2023-06-28	00:26:09	00:41:42	928128	63d79c120d736e870e993b8c	4	1	main_z	7	advance_on_keypress_ZEE	66	stimuli_target_rectanglediamonds.svg	stimuli_distractor_diamondtriangles.svg	6	yes	57	0	296	0	0			0	0			1				0	
6.6.1	win	2023-06-28	00:26:09	00:41:43	929433	63d79c120d736e870e993b8c	4	1	main_z	7	main_z	67	stimuli_distractor_trianglediamonds.svg	stimuli_target_rectangletriangles.svg	9	yes	44	1	350	0	0			0	0			1				0	
6.6.1	win	2023-06-28	00:26:09	00:41:43	929433	63d79c120d736e870e993b8c	4	1	main_z	7	advance_on_keypress_ZEE	68	stimuli_distractor_trianglediamonds.svg	stimuli_target_rectangletriangles.svg	9	yes	57	0	305	0	0			0	0			1				0	
6.6.1	win	2023-06-28	00:26:09	00:41:44	930862	63d79c120d736e870e993b8c	4	1	main_z	7	main_z	69	stimuli_target_trianglerectangles.svg	stimuli_distractor_trianglediamonds.svg	17	yes	44	1	480	0	0			0	0			1				0	
6.6.1	win	2023-06-28	00:26:09	00:41:44	930862	63d79c120d736e870e993b8c	4	1	main_z	7	advance_on_keypress_ZEE	70	stimuli_target_trianglerectangles.svg	stimuli_distractor_trianglediamonds.svg	17	yes	57	0	302	0	0			0	0			1				0	
6.6.1	win	2023-06-28	00:26:09	00:41:46	932565	63d79c120d736e870e993b8c	4	1	main_z	7	main_z	71	stimuli_distractor_trianglediamonds.svg	stimuli_target_squaretriangles.svg	11	yes	44	1	750	0	0			0	0			1				0	
6.6.1	win	2023-06-28	00:26:09	00:41:46	932565	63d79c120d736e870e993b8c	4	1	main_z	7	advance_on_keypress_ZEE	72	stimuli_distractor_trianglediamonds.svg	stimuli_target_squaretriangles.svg	11	yes	57	0	363	0	0			0	0			1				0	
6.6.1	win	2023-06-28	00:26:09	00:41:47	933942	63d79c120d736e870e993b8c	4	1	main_z	7	main_z	73	stimuli_target_diamondrectangles.svg	stimuli_distractor_diamondtriangles.svg	23	yes	44	1	361	0	0			0	0			1				0	
6.6.1	win	2023-06-28	00:26:09	00:41:47	933942	63d79c120d736e870e993b8c	4	1	main_z	7	advance_on_keypress_ZEE	74	stimuli_target_diamondrectangles.svg	stimuli_distractor_diamondtriangles.svg	23	yes	57	0	331	0	0			0	0			1				0	
6.6.1	win	2023-06-28	00:26:09	00:41:49	935275	63d79c120d736e870e993b8c	4	1	main_z	7	main_z	75	stimuli_target_squarediamonds.svg	stimuli_distractor_trianglediamonds.svg	4	yes	44	1	343	0	0			0	0			1				0	
6.6.1	win	2023-06-28	00:26:09	00:41:49	935275	63d79c120d736e870e993b8c	4	1	main_z	7	advance_on_keypress_ZEE	76	stimuli_target_squarediamonds.svg	stimuli_distractor_trianglediamonds.svg	4	yes	57	0	522	0	0			0	0			1				0	
6.6.1	win	2023-06-28	00:26:09	00:41:52	938448	63d79c120d736e870e993b8c	4	1	main_z	7	main_z	77	stimuli_distractor_diamondtriangles.svg	stimuli_distractor_trianglediamonds.svg	37	no	0	1	2000	0	0			0	0			1				0	
6.6.1	win	2023-06-28	00:26:09	00:41:52	938448	63d79c120d736e870e993b8c	4	1	main_z	7	advance_on_keypress_ZEE	78	stimuli_distractor_diamondtriangles.svg	stimuli_distractor_trianglediamonds.svg	37	no	57	0	255	0	0			0	0			1				0	
6.6.1	win	2023-06-28	00:26:09	00:41:53	939802	63d79c120d736e870e993b8c	4	1	main_z	7	main_z	79	stimuli_target_diamondsquares.svg	stimuli_distractor_trianglediamonds.svg	20	yes	44	1	455	0	0			0	0			1				0	
6.6.1	win	2023-06-28	00:26:09	00:41:53	939802	63d79c120d736e870e993b8c	4	1	main_z	7	advance_on_keypress_ZEE	80	stimuli_target_diamondsquares.svg	stimuli_distractor_trianglediamonds.svg	20	yes	57	0	304	0	0			0	0			1				0	
6.6.1	win	2023-06-28	00:26:09	00:41:54	941086	63d79c120d736e870e993b8c	4	1	main_z	7	main_z	81	stimuli_target_squaretriangles.svg	stimuli_distractor_trianglediamonds.svg	3	yes	44	1	339	0	0			0	0			1				0	
6.6.1	win	2023-06-28	00:26:09	00:41:54	941086	63d79c120d736e870e993b8c	4	1	main_z	7	advance_on_keypress_ZEE	82	stimuli_target_squaretriangles.svg	stimuli_distractor_trianglediamonds.svg	3	yes	57	0	321	0	0			0	0			1				0	
6.6.1	win	2023-06-28	00:26:09	00:41:56	942412	63d79c120d736e870e993b8c	4	1	main_z	7	main_z	83	stimuli_distractor_trianglediamonds.svg	stimuli_target_diamondrectangles.svg	27	yes	44	1	365	0	0			0	0			1				0	
6.6.1	win	2023-06-28	00:26:09	00:41:56	942412	63d79c120d736e870e993b8c	4	1	main_z	7	advance_on_keypress_ZEE	84	stimuli_distractor_trianglediamonds.svg	stimuli_target_diamondrectangles.svg	27	yes	57	0	379	0	0			0	0			1				0	
6.6.1	win	2023-06-28	00:26:09	00:41:57	943843	63d79c120d736e870e993b8c	4	1	main_z	7	main_z	85	stimuli_distractor_trianglediamonds.svg	stimuli_target_trianglerectangles.svg	25	yes	44	1	396	0	0			0	0			1				0	
6.6.1	win	2023-06-28	00:26:09	00:41:57	943843	63d79c120d736e870e993b8c	4	1	main_z	7	advance_on_keypress_ZEE	86	stimuli_distractor_trianglediamonds.svg	stimuli_target_trianglerectangles.svg	25	yes	57	0	326	0	0			0	0			1				0	
6.6.1	win	2023-06-28	00:26:09	00:41:59	945649	63d79c120d736e870e993b8c	4	1	main_z	7	main_z	87	stimuli_target_rectanglediamonds.svg	stimuli_distractor_trianglediamonds.svg	2	yes	44	1	818	0	0			0	0			1				0	
6.6.1	win	2023-06-28	00:26:09	00:41:59	945649	63d79c120d736e870e993b8c	4	1	main_z	7	advance_on_keypress_ZEE	88	stimuli_target_rectanglediamonds.svg	stimuli_distractor_trianglediamonds.svg	2	yes	57	0	392	0	0			0	0			1				0	
6.6.1	win	2023-06-28	00:26:09	00:42:02	948697	63d79c120d736e870e993b8c	4	1	main_z	7	main_z	89	stimuli_distractor_diamondtriangles.svg	stimuli_distractor_trianglediamonds.svg	37	no	0	1	2000	0	0			0	0			1				0	
6.6.1	win	2023-06-28	00:26:09	00:42:02	948697	63d79c120d736e870e993b8c	4	1	main_z	7	advance_on_keypress_ZEE	90	stimuli_distractor_diamondtriangles.svg	stimuli_distractor_trianglediamonds.svg	37	no	57	0	249	0	0			0	0			1				0	
6.6.1	win	2023-06-28	00:26:09	00:42:03	949950	63d79c120d736e870e993b8c	4	1	main_z	7	main_z	91	stimuli_distractor_trianglediamonds.svg	stimuli_target_rectanglediamonds.svg	10	yes	44	1	354	0	0			0	0			1				0	
6.6.1	win	2023-06-28	00:26:09	00:42:03	949950	63d79c120d736e870e993b8c	4	1	main_z	7	advance_on_keypress_ZEE	92	stimuli_distractor_trianglediamonds.svg	stimuli_target_rectanglediamonds.svg	10	yes	57	0	296	0	0			0	0			1				0	
6.6.1	win	2023-06-28	00:26:09	00:42:05	951342	63d79c120d736e870e993b8c	4	1	main_z	7	main_z	93	stimuli_distractor_diamondtriangles.svg	stimuli_target_rectanglediamonds.svg	14	yes	44	1	446	0	0			0	0			1				0	
6.6.1	win	2023-06-28	00:26:09	00:42:05	951342	63d79c120d736e870e993b8c	4	1	main_z	7	advance_on_keypress_ZEE	94	stimuli_distractor_diamondtriangles.svg	stimuli_target_rectanglediamonds.svg	14	yes	57	0	303	0	0			0	0			1				0	
6.6.1	win	2023-06-28	00:26:09	00:42:07	953266	63d79c120d736e870e993b8c	4	1	main_z	7	main_z	95	stimuli_distractor_diamondtriangles.svg	stimuli_target_rectangletriangles.svg	13	yes	44	1	971	0	0			0	0			1				0	
6.6.1	win	2023-06-28	00:26:09	00:42:07	953266	63d79c120d736e870e993b8c	4	1	main_z	7	advance_on_keypress_ZEE	96	stimuli_distractor_diamondtriangles.svg	stimuli_target_rectangletriangles.svg	13	yes	57	0	288	0	0			0	0			1				0	
6.6.1	win	2023-06-28	00:26:09	00:42:08	954687	63d79c120d736e870e993b8c	4	1	main_z	7	main_z	97	stimuli_distractor_trianglediamonds.svg	stimuli_distractor_trianglediamonds.svg	34	no	44	0	492	0	0			0	0			1				0	
6.6.1	win	2023-06-28	00:26:09	00:42:08	954687	63d79c120d736e870e993b8c	4	1	main_z	7	advance_on_keypress_ZEE	98	stimuli_distractor_trianglediamonds.svg	stimuli_distractor_trianglediamonds.svg	34	no	57	0	969	0	0			0	0			1				0	
6.6.1	win	2023-06-28	00:26:09	00:42:12	958296	63d79c120d736e870e993b8c	4	1	main_z	7	main_z	99	stimuli_distractor_trianglediamonds.svg	stimuli_distractor_diamondtriangles.svg	35	no	0	1	2000	0	0			0	0			1				0	
6.6.1	win	2023-06-28	00:26:09	00:42:12	958296	63d79c120d736e870e993b8c	4	1	main_z	7	advance_on_keypress_ZEE	100	stimuli_distractor_trianglediamonds.svg	stimuli_distractor_diamondtriangles.svg	35	no	57	0	257	0	0			0	0			1				0	
6.6.1	win	2023-06-28	00:26:09	00:42:13	959532	63d79c120d736e870e993b8c	4	1	main_z	7	main_z	101	stimuli_distractor_diamondtriangles.svg	stimuli_target_diamondrectangles.svg	31	yes	44	1	336	0	0			0	0			1				0	
6.6.1	win	2023-06-28	00:26:09	00:42:13	959532	63d79c120d736e870e993b8c	4	1	main_z	7	advance_on_keypress_ZEE	102	stimuli_distractor_diamondtriangles.svg	stimuli_target_diamondrectangles.svg	31	yes	57	0	275	0	0			0	0			1				0	
6.6.1	win	2023-06-28	00:26:09	00:42:14	960923	63d79c120d736e870e993b8c	4	1	main_z	7	main_z	103	stimuli_distractor_trianglediamonds.svg	stimuli_target_rectangletriangles.svg	9	yes	44	1	462	0	0			0	0			1				0	
6.6.1	win	2023-06-28	00:26:09	00:42:14	960923	63d79c120d736e870e993b8c	4	1	main_z	7	advance_on_keypress_ZEE	104	stimuli_distractor_trianglediamonds.svg	stimuli_target_rectangletriangles.svg	9	yes	57	0	284	0	0			0	0			1				0	
6.6.1	win	2023-06-28	00:26:09	00:42:17	963861	63d79c120d736e870e993b8c	4	1	main_z	7	main_z	105	stimuli_distractor_trianglediamonds.svg	stimuli_distractor_trianglediamonds.svg	33	no	0	1	2000	0	0			0	0			1				0	
6.6.1	win	2023-06-28	00:26:09	00:42:17	963861	63d79c120d736e870e993b8c	4	1	main_z	7	advance_on_keypress_ZEE	106	stimuli_distractor_trianglediamonds.svg	stimuli_distractor_trianglediamonds.svg	33	no	57	0	259	0	0			0	0			1				0	
6.6.1	win	2023-06-28	00:26:09	00:42:18	965107	63d79c120d736e870e993b8c	4	1	main_z	7	main_z	107	stimuli_target_trianglesquares.svg	stimuli_distractor_trianglediamonds.svg	18	yes	44	1	329	0	0			0	0			1				0	
6.6.1	win	2023-06-28	00:26:09	00:42:18	965107	63d79c120d736e870e993b8c	4	1	main_z	7	advance_on_keypress_ZEE	108	stimuli_target_trianglesquares.svg	stimuli_distractor_trianglediamonds.svg	18	yes	57	0	282	0	0			0	0			1				0	
6.6.1	win	2023-06-28	00:26:09	00:42:20	966418	63d79c120d736e870e993b8c	4	1	main_z	7	main_z	109	stimuli_target_trianglerectangles.svg	stimuli_distractor_diamondtriangles.svg	21	yes	44	1	371	0	0			0	0			1				0	
6.6.1	win	2023-06-28	00:26:09	00:42:20	966418	63d79c120d736e870e993b8c	4	1	main_z	7	advance_on_keypress_ZEE	110	stimuli_target_trianglerectangles.svg	stimuli_distractor_diamondtriangles.svg	21	yes	57	0	308	0	0			0	0			1				0	
6.6.1	win	2023-06-28	00:26:09	00:42:21	967788	63d79c120d736e870e993b8c	4	1	main_z	7	main_z	111	stimuli_target_rectangletriangles.svg	stimuli_distractor_trianglediamonds.svg	1	yes	44	1	427	0	0			0	0			1				0	
6.6.1	win	2023-06-28	00:26:09	00:42:21	967788	63d79c120d736e870e993b8c	4	1	main_z	7	advance_on_keypress_ZEE	112	stimuli_target_rectangletriangles.svg	stimuli_distractor_trianglediamonds.svg	1	yes	57	0	303	0	0			0	0			1				0	
6.6.1	win	2023-06-28	00:26:09	00:42:22	969106	63d79c120d736e870e993b8c	4	1	main_z	7	main_z	113	stimuli_distractor_trianglediamonds.svg	stimuli_target_squaretriangles.svg	11	yes	44	1	363	0	0			0	0			1				0	
6.6.1	win	2023-06-28	00:26:09	00:42:22	969106	63d79c120d736e870e993b8c	4	1	main_z	7	advance_on_keypress_ZEE	114	stimuli_distractor_trianglediamonds.svg	stimuli_target_squaretriangles.svg	11	yes	57	0	299	0	0			0	0			1				0	
6.6.1	win	2023-06-28	00:26:09	00:42:24	970418	63d79c120d736e870e993b8c	4	1	main_z	7	main_z	115	stimuli_distractor_diamondtriangles.svg	stimuli_target_squarediamonds.svg	16	yes	44	1	358	0	0			0	0			1				0	
6.6.1	win	2023-06-28	00:26:09	00:42:24	970418	63d79c120d736e870e993b8c	4	1	main_z	7	advance_on_keypress_ZEE	116	stimuli_distractor_diamondtriangles.svg	stimuli_target_squarediamonds.svg	16	yes	57	0	300	0	0			0	0			1				0	
6.6.1	win	2023-06-28	00:26:09	00:42:25	971714	63d79c120d736e870e993b8c	4	1	main_z	7	main_z	117	stimuli_distractor_trianglediamonds.svg	stimuli_target_squarediamonds.svg	12	yes	44	1	353	0	0			0	0			1				0	
6.6.1	win	2023-06-28	00:26:09	00:42:25	971714	63d79c120d736e870e993b8c	4	1	main_z	7	advance_on_keypress_ZEE	118	stimuli_distractor_trianglediamonds.svg	stimuli_target_squarediamonds.svg	12	yes	57	0	299	0	0			0	0			1				0	
6.6.1	win	2023-06-28	00:26:09	00:42:26	973016	63d79c120d736e870e993b8c	4	1	main_z	7	main_z	119	stimuli_target_rectanglediamonds.svg	stimuli_distractor_diamondtriangles.svg	6	yes	44	1	356	0	0			0	0			1				0	
6.6.1	win	2023-06-28	00:26:09	00:42:26	973016	63d79c120d736e870e993b8c	4	1	main_z	7	advance_on_keypress_ZEE	120	stimuli_target_rectanglediamonds.svg	stimuli_distractor_diamondtriangles.svg	6	yes	57	0	312	0	0			0	0			1				0	
6.6.1	win	2023-06-28	00:26:09	00:42:28	974387	63d79c120d736e870e993b8c	4	1	main_z	7	main_z	121	stimuli_target_squaretriangles.svg	stimuli_distractor_diamondtriangles.svg	7	yes	44	1	411	0	0			0	0			1				0	
6.6.1	win	2023-06-28	00:26:09	00:42:28	974387	63d79c120d736e870e993b8c	4	1	main_z	7	advance_on_keypress_ZEE	122	stimuli_target_squaretriangles.svg	stimuli_distractor_diamondtriangles.svg	7	yes	57	0	291	0	0			0	0			1				0	
6.6.1	win	2023-06-28	00:26:09	00:42:29	975912	63d79c120d736e870e993b8c	4	1	main_z	7	main_z	123	stimuli_target_diamondsquares.svg	stimuli_distractor_trianglediamonds.svg	20	yes	44	1	568	0	0			0	0			1				0	
6.6.1	win	2023-06-28	00:26:09	00:42:29	975912	63d79c120d736e870e993b8c	4	1	main_z	7	advance_on_keypress_ZEE	124	stimuli_target_diamondsquares.svg	stimuli_distractor_trianglediamonds.svg	20	yes	57	0	415	0	0			0	0			1				0	
6.6.1	win	2023-06-28	00:26:09	00:42:31	977400	63d79c120d736e870e993b8c	4	1	main_z	7	main_z	125	stimuli_distractor_diamondtriangles.svg	stimuli_target_diamondsquares.svg	32	yes	44	1	423	0	0			0	0			1				0	
6.6.1	win	2023-06-28	00:26:09	00:42:31	977400	63d79c120d736e870e993b8c	4	1	main_z	7	advance_on_keypress_ZEE	126	stimuli_distractor_diamondtriangles.svg	stimuli_target_diamondsquares.svg	32	yes	57	0	329	0	0			0	0			1				0	
6.6.1	win	2023-06-28	00:26:09	00:42:34	980376	63d79c120d736e870e993b8c	4	1	main_z	7	main_z	127	stimuli_distractor_diamondtriangles.svg	stimuli_target_trianglerectangles.svg	29	yes	0	0	2000	0	0			0	0			1				0	
6.6.1	win	2023-06-28	00:26:09	00:42:34	980376	63d79c120d736e870e993b8c	4	1	main_z	7	advance_on_keypress_ZEE	128	stimuli_distractor_diamondtriangles.svg	stimuli_target_trianglerectangles.svg	29	yes	57	0	432	0	0			0	0			1				0	
6.6.1	win	2023-06-28	00:26:09	00:42:35	981779	63d79c120d736e870e993b8c	4	1	main_z	7	main_z	129	stimuli_target_rectangletriangles.svg	stimuli_distractor_diamondtriangles.svg	5	yes	44	1	320	0	0			0	0			1				0	
6.6.1	win	2023-06-28	00:26:09	00:42:35	981779	63d79c120d736e870e993b8c	4	1	main_z	7	advance_on_keypress_ZEE	130	stimuli_target_rectangletriangles.svg	stimuli_distractor_diamondtriangles.svg	5	yes	57	0	572	0	0			0	0			1				0	
6.6.1	win	2023-06-28	00:26:09	00:42:37	983449	63d79c120d736e870e993b8c	4	1	main_z	7	main_z	131	stimuli_target_squarediamonds.svg	stimuli_distractor_trianglediamonds.svg	4	yes	44	1	458	0	0			0	0			1				0	
6.6.1	win	2023-06-28	00:26:09	00:42:37	983449	63d79c120d736e870e993b8c	4	1	main_z	7	advance_on_keypress_ZEE	132	stimuli_target_squarediamonds.svg	stimuli_distractor_trianglediamonds.svg	4	yes	57	0	304	0	0			0	0			1				0	
6.6.1	win	2023-06-28	00:26:09	00:42:40	986392	63d79c120d736e870e993b8c	4	1	main_z	7	main_z	133	stimuli_target_trianglerectangles.svg	stimuli_distractor_trianglediamonds.svg	17	yes	0	0	2000	0	0			0	0			1				0	
6.6.1	win	2023-06-28	00:26:09	00:42:40	986392	63d79c120d736e870e993b8c	4	1	main_z	7	advance_on_keypress_ZEE	134	stimuli_target_trianglerectangles.svg	stimuli_distractor_trianglediamonds.svg	17	yes	57	0	264	0	0			0	0			1				0	
6.6.1	win	2023-06-28	00:26:09	00:42:41	987970	63d79c120d736e870e993b8c	4	1	main_z	7	main_z	135	stimuli_distractor_trianglediamonds.svg	stimuli_target_trianglesquares.svg	26	yes	44	1	662	0	0			0	0			1				0	
6.6.1	win	2023-06-28	00:26:09	00:42:41	987970	63d79c120d736e870e993b8c	4	1	main_z	7	advance_on_keypress_ZEE	136	stimuli_distractor_trianglediamonds.svg	stimuli_target_trianglesquares.svg	26	yes	57	0	317	0	0			0	0			1				0	
6.6.1	win	2023-06-28	00:26:09	00:42:44	990941	63d79c120d736e870e993b8c	4	1	main_z	7	main_z	137	stimuli_distractor_diamondtriangles.svg	stimuli_distractor_trianglediamonds.svg	38	no	0	1	2000	0	0			0	0			1				0	
6.6.1	win	2023-06-28	00:26:09	00:42:44	990941	63d79c120d736e870e993b8c	4	1	main_z	7	advance_on_keypress_ZEE	138	stimuli_distractor_diamondtriangles.svg	stimuli_distractor_trianglediamonds.svg	38	no	57	0	283	0	0			0	0			1				0	
6.6.1	win	2023-06-28	00:26:09	00:42:46	992331	63d79c120d736e870e993b8c	4	1	main_z	7	main_z	139	stimuli_distractor_diamondtriangles.svg	stimuli_target_trianglesquares.svg	30	yes	44	1	457	0	0			0	0			1				0	
6.6.1	win	2023-06-28	00:26:09	00:42:46	992331	63d79c120d736e870e993b8c	4	1	main_z	7	advance_on_keypress_ZEE	140	stimuli_distractor_diamondtriangles.svg	stimuli_target_trianglesquares.svg	30	yes	57	0	319	0	0			0	0			1				0	
6.6.1	win	2023-06-28	00:26:09	00:42:47	993798	63d79c120d736e870e993b8c	4	1	main_z	7	main_z	141	stimuli_distractor_diamondtriangles.svg	stimuli_target_squaretriangles.svg	15	yes	44	1	506	0	0			0	0			1				0	
6.6.1	win	2023-06-28	00:26:09	00:42:47	993798	63d79c120d736e870e993b8c	4	1	main_z	7	advance_on_keypress_ZEE	142	stimuli_distractor_diamondtriangles.svg	stimuli_target_squaretriangles.svg	15	yes	57	0	299	0	0			0	0			1				0	
6.6.1	win	2023-06-28	00:26:09	00:42:49	995262	63d79c120d736e870e993b8c	4	1	main_z	7	main_z	143	stimuli_target_diamondrectangles.svg	stimuli_distractor_trianglediamonds.svg	19	yes	44	1	521	0	0			0	0			1				0	
6.6.1	win	2023-06-28	00:26:09	00:42:49	995262	63d79c120d736e870e993b8c	4	1	main_z	7	advance_on_keypress_ZEE	144	stimuli_target_diamondrectangles.svg	stimuli_distractor_trianglediamonds.svg	19	yes	57	0	407	0	0			0	0			1				0	
6.6.1	win	2023-06-28	00:26:09	00:42:52	998307	63d79c120d736e870e993b8c	4	1	main_z	7	main_z	145	stimuli_distractor_diamondtriangles.svg	stimuli_distractor_diamondtriangles.svg	40	no	0	1	2000	0	0			0	0			1				0	
6.6.1	win	2023-06-28	00:26:09	00:42:52	998307	63d79c120d736e870e993b8c	4	1	main_z	7	advance_on_keypress_ZEE	146	stimuli_distractor_diamondtriangles.svg	stimuli_distractor_diamondtriangles.svg	40	no	57	0	313	0	0			0	0			1				0	
6.6.1	win	2023-06-28	00:26:09	00:42:53	999584	63d79c120d736e870e993b8c	4	1	main_z	7	main_z	147	stimuli_distractor_trianglediamonds.svg	stimuli_target_diamondsquares.svg	28	yes	44	1	311	0	0			0	0			1				0	
6.6.1	win	2023-06-28	00:26:09	00:42:53	999584	63d79c120d736e870e993b8c	4	1	main_z	7	advance_on_keypress_ZEE	148	stimuli_distractor_trianglediamonds.svg	stimuli_target_diamondsquares.svg	28	yes	57	0	296	0	0			0	0			1				0	
6.6.1	win	2023-06-28	00:26:09	00:42:54	1000946	63d79c120d736e870e993b8c	4	1	main_z	7	main_z	149	stimuli_target_squarediamonds.svg	stimuli_distractor_diamondtriangles.svg	8	yes	44	1	407	0	0			0	0			1				0	
6.6.1	win	2023-06-28	00:26:09	00:42:54	1000946	63d79c120d736e870e993b8c	4	1	main_z	7	advance_on_keypress_ZEE	150	stimuli_target_squarediamonds.svg	stimuli_distractor_diamondtriangles.svg	8	yes	57	0	308	0	0			0	0			1				0	
6.6.1	win	2023-06-28	00:26:09	00:42:56	1002460	63d79c120d736e870e993b8c	4	1	main_z	7	main_z	151	stimuli_target_diamondrectangles.svg	stimuli_distractor_diamondtriangles.svg	23	yes	44	1	571	0	0			0	0			1				0	
6.6.1	win	2023-06-28	00:26:09	00:42:56	1002460	63d79c120d736e870e993b8c	4	1	main_z	7	advance_on_keypress_ZEE	152	stimuli_target_diamondrectangles.svg	stimuli_distractor_diamondtriangles.svg	23	yes	57	0	327	0	0			0	0			1				0	
6.6.1	win	2023-06-28	00:26:09	00:42:57	1003790	63d79c120d736e870e993b8c	4	1	main_z	7	main_z	153	stimuli_target_trianglesquares.svg	stimuli_distractor_diamondtriangles.svg	22	yes	44	1	351	0	0			0	0			1				0	
6.6.1	win	2023-06-28	00:26:09	00:42:57	1003790	63d79c120d736e870e993b8c	4	1	main_z	7	advance_on_keypress_ZEE	154	stimuli_target_trianglesquares.svg	stimuli_distractor_diamondtriangles.svg	22	yes	57	0	288	0	0			0	0			1				0	
6.6.1	win	2023-06-28	00:26:09	00:42:59	1005141	63d79c120d736e870e993b8c	4	1	main_z	7	main_z	155	stimuli_target_diamondsquares.svg	stimuli_distractor_diamondtriangles.svg	24	yes	44	1	419	0	0			0	0			1				0	
6.6.1	win	2023-06-28	00:26:09	00:42:59	1005141	63d79c120d736e870e993b8c	4	1	main_z	7	advance_on_keypress_ZEE	156	stimuli_target_diamondsquares.svg	stimuli_distractor_diamondtriangles.svg	24	yes	57	0	320	0	0			0	0			1				0	
6.6.1	win	2023-06-28	00:26:09	00:43:01	1008106	63d79c120d736e870e993b8c	4	1	main_z	7	main_z	157	stimuli_distractor_trianglediamonds.svg	stimuli_distractor_diamondtriangles.svg	36	no	0	1	2000	0	0			0	0			1				0	
6.6.1	win	2023-06-28	00:26:09	00:43:01	1008106	63d79c120d736e870e993b8c	4	1	main_z	7	advance_on_keypress_ZEE	158	stimuli_distractor_trianglediamonds.svg	stimuli_distractor_diamondtriangles.svg	36	no	57	0	253	0	0			0	0			1				0	
6.6.1	win	2023-06-28	00:26:09	00:43:03	1009389	63d79c120d736e870e993b8c	4	1	main_z	7	main_z	159	stimuli_distractor_diamondtriangles.svg	stimuli_distractor_diamondtriangles.svg	39	no	44	0	383	0	0			0	0			1				0	
6.6.1	win	2023-06-28	00:26:09	00:43:03	1009389	63d79c120d736e870e993b8c	4	1	main_z	7	advance_on_keypress_ZEE	160	stimuli_distractor_diamondtriangles.svg	stimuli_distractor_diamondtriangles.svg	39	no	57	0	549	0	0			0	0			1				0	
6.6.1	win	2023-06-28	00:26:09	00:43:29	1035449	63d79c120d736e870e993b8c	4	1	practice_slash	9	practice_slash	1	stimuli_distractor_trianglediamonds.svg	stimuli_target_rectanglediamonds.svg	10	yes	53	1	427	0	0			0	0			1				0	
6.6.1	win	2023-06-28	00:26:09	00:43:29	1035449	63d79c120d736e870e993b8c	4	1	practice_slash	9	advance_on_keypress_SLASH	2	stimuli_distractor_trianglediamonds.svg	stimuli_target_rectanglediamonds.svg	10	yes	57	0	381	0	0			0	0			1				0	
6.6.1	win	2023-06-28	00:26:09	00:43:31	1037900	63d79c120d736e870e993b8c	4	1	practice_slash	9	practice_slash	3	stimuli_target_rectanglediamonds.svg	stimuli_distractor_trianglediamonds.svg	4	yes	53	1	412	0	0			0	0			1				0	
6.6.1	win	2023-06-28	00:26:09	00:43:31	1037900	63d79c120d736e870e993b8c	4	1	practice_slash	9	advance_on_keypress_SLASH	4	stimuli_target_rectanglediamonds.svg	stimuli_distractor_trianglediamonds.svg	4	yes	57	0	392	0	0			0	0			1				0	
6.6.1	win	2023-06-28	00:26:09	00:43:34	1040298	63d79c120d736e870e993b8c	4	1	practice_slash	9	practice_slash	5	stimuli_target_diamondsquares.svg	stimuli_distractor_diamondtriangles.svg	3	yes	53	1	345	0	0			0	0			1				0	
6.6.1	win	2023-06-28	00:26:09	00:43:34	1040298	63d79c120d736e870e993b8c	4	1	practice_slash	9	advance_on_keypress_SLASH	6	stimuli_target_diamondsquares.svg	stimuli_distractor_diamondtriangles.svg	3	yes	57	0	397	0	0			0	0			1				0	
6.6.1	win	2023-06-28	00:26:09	00:43:38	1044354	63d79c120d736e870e993b8c	4	1	practice_slash	9	practice_slash	7	stimuli_distractor_trianglediamonds.svg	stimuli_distractor_diamondtriangles.svg	16	no	0	1	2000	0	0			0	0			1				0	
6.6.1	win	2023-06-28	00:26:09	00:43:38	1044354	63d79c120d736e870e993b8c	4	1	practice_slash	9	advance_on_keypress_SLASH	8	stimuli_distractor_trianglediamonds.svg	stimuli_distractor_diamondtriangles.svg	16	no	57	0	391	0	0			0	0			1				0	
6.6.1	win	2023-06-28	00:26:09	00:43:40	1046713	63d79c120d736e870e993b8c	4	1	practice_slash	9	practice_slash	9	stimuli_distractor_diamondtriangles.svg	stimuli_target_diamondrectangles.svg	8	yes	53	1	310	0	0			0	0			1				0	
6.6.1	win	2023-06-28	00:26:09	00:43:40	1046713	63d79c120d736e870e993b8c	4	1	practice_slash	9	advance_on_keypress_SLASH	10	stimuli_distractor_diamondtriangles.svg	stimuli_target_diamondrectangles.svg	8	yes	57	0	607	0	0			0	0			1				0	
6.6.1	win	2023-06-28	00:26:09	00:43:43	1049493	63d79c120d736e870e993b8c	4	1	practice_slash	9	practice_slash	11	stimuli_target_squarediamonds.svg	stimuli_distractor_diamondtriangles.svg	2	yes	53	1	504	0	0			0	0			1				0	
6.6.1	win	2023-06-28	00:26:09	00:43:43	1049493	63d79c120d736e870e993b8c	4	1	practice_slash	9	advance_on_keypress_SLASH	12	stimuli_target_squarediamonds.svg	stimuli_distractor_diamondtriangles.svg	2	yes	57	0	409	0	0			0	0			1				0	
6.6.1	win	2023-06-28	00:26:09	00:43:45	1051867	63d79c120d736e870e993b8c	4	1	practice_slash	9	practice_slash	13	stimuli_target_squarediamonds.svg	stimuli_distractor_trianglediamonds.svg	5	yes	53	1	299	0	0			0	0			1				0	
6.6.1	win	2023-06-28	00:26:09	00:43:45	1051867	63d79c120d736e870e993b8c	4	1	practice_slash	9	advance_on_keypress_SLASH	14	stimuli_target_squarediamonds.svg	stimuli_distractor_trianglediamonds.svg	5	yes	57	0	465	0	0			0	0			1				0	
6.6.1	win	2023-06-28	00:26:09	00:43:48	1054342	63d79c120d736e870e993b8c	4	1	practice_slash	9	practice_slash	15	stimuli_target_diamondsquares.svg	stimuli_distractor_trianglediamonds.svg	6	yes	53	1	358	0	0			0	0			1				0	
6.6.1	win	2023-06-28	00:26:09	00:43:48	1054342	63d79c120d736e870e993b8c	4	1	practice_slash	9	advance_on_keypress_SLASH	16	stimuli_target_diamondsquares.svg	stimuli_distractor_trianglediamonds.svg	6	yes	57	0	411	0	0			0	0			1				0	
6.6.1	win	2023-06-28	00:26:09	00:43:50	1056825	63d79c120d736e870e993b8c	4	1	practice_slash	9	practice_slash	17	stimuli_distractor_diamondtriangles.svg	stimuli_target_rectangletriangles.svg	7	yes	53	1	407	0	0			0	0			1				0	
6.6.1	win	2023-06-28	00:26:09	00:43:50	1056825	63d79c120d736e870e993b8c	4	1	practice_slash	9	advance_on_keypress_SLASH	18	stimuli_distractor_diamondtriangles.svg	stimuli_target_rectangletriangles.svg	7	yes	57	0	333	0	0			0	0			1				0	
6.6.1	win	2023-06-28	00:26:09	00:43:54	1060818	63d79c120d736e870e993b8c	4	1	practice_slash	9	practice_slash	19	stimuli_distractor_trianglediamonds.svg	stimuli_distractor_trianglediamonds.svg	15	no	0	1	2000	0	0			0	0			1				0	
6.6.1	win	2023-06-28	00:26:09	00:43:54	1060818	63d79c120d736e870e993b8c	4	1	practice_slash	9	advance_on_keypress_SLASH	20	stimuli_distractor_trianglediamonds.svg	stimuli_distractor_trianglediamonds.svg	15	no	57	0	300	0	0			0	0			1				0	
6.6.1	win	2023-06-28	00:26:09	00:43:57	1063154	63d79c120d736e870e993b8c	4	1	practice_slash	9	practice_slash	21	stimuli_target_rectanglediamonds.svg	stimuli_distractor_diamondtriangles.svg	1	yes	53	1	386	0	0			0	0			1				0	
6.6.1	win	2023-06-28	00:26:09	00:43:57	1063154	63d79c120d736e870e993b8c	4	1	practice_slash	9	advance_on_keypress_SLASH	22	stimuli_target_rectanglediamonds.svg	stimuli_distractor_diamondtriangles.svg	1	yes	57	0	344	0	0			0	0			1				0	
6.6.1	win	2023-06-28	00:26:09	00:43:59	1065541	63d79c120d736e870e993b8c	4	1	practice_slash	9	practice_slash	23	stimuli_distractor_trianglediamonds.svg	stimuli_target_diamondrectangles.svg	12	yes	53	1	390	0	0			0	0			1				0	
6.6.1	win	2023-06-28	00:26:09	00:43:59	1065541	63d79c120d736e870e993b8c	4	1	practice_slash	9	advance_on_keypress_SLASH	24	stimuli_distractor_trianglediamonds.svg	stimuli_target_diamondrectangles.svg	12	yes	57	0	371	0	0			0	0			1				0	
6.6.1	win	2023-06-28	00:26:09	00:44:03	1069567	63d79c120d736e870e993b8c	4	1	practice_slash	9	practice_slash	25	stimuli_distractor_diamondtriangles.svg	stimuli_target_trianglerectangles.svg	9	yes	0	0	2000	0	0			0	0			1				0	
6.6.1	win	2023-06-28	00:26:09	00:44:03	1069567	63d79c120d736e870e993b8c	4	1	practice_slash	9	advance_on_keypress_SLASH	26	stimuli_distractor_diamondtriangles.svg	stimuli_target_trianglerectangles.svg	9	yes	57	0	410	0	0			0	0			1				0	
6.6.1	win	2023-06-28	00:26:09	00:44:07	1073633	63d79c120d736e870e993b8c	4	1	practice_slash	9	practice_slash	27	stimuli_distractor_diamondtriangles.svg	stimuli_distractor_trianglediamonds.svg	14	no	0	1	2000	0	0			0	0			1				0	
6.6.1	win	2023-06-28	00:26:09	00:44:07	1073633	63d79c120d736e870e993b8c	4	1	practice_slash	9	advance_on_keypress_SLASH	28	stimuli_distractor_diamondtriangles.svg	stimuli_distractor_trianglediamonds.svg	14	no	57	0	499	0	0			0	0			1				0	
6.6.1	win	2023-06-28	00:26:09	00:44:11	1077782	63d79c120d736e870e993b8c	4	1	practice_slash	9	practice_slash	29	stimuli_distractor_diamondtriangles.svg	stimuli_distractor_diamondtriangles.svg	13	no	0	1	2000	0	0			0	0			1				0	
6.6.1	win	2023-06-28	00:26:09	00:44:11	1077782	63d79c120d736e870e993b8c	4	1	practice_slash	9	advance_on_keypress_SLASH	30	stimuli_distractor_diamondtriangles.svg	stimuli_distractor_diamondtriangles.svg	13	no	57	0	286	0	0			0	0			1				0	
6.6.1	win	2023-06-28	00:26:09	00:44:14	1080135	63d79c120d736e870e993b8c	4	1	practice_slash	9	practice_slash	31	stimuli_distractor_trianglediamonds.svg	stimuli_target_squarediamonds.svg	11	yes	53	1	420	0	0			0	0			1				0	
6.6.1	win	2023-06-28	00:26:09	00:44:14	1080135	63d79c120d736e870e993b8c	4	1	practice_slash	9	advance_on_keypress_SLASH	32	stimuli_distractor_trianglediamonds.svg	stimuli_target_squarediamonds.svg	11	yes	57	0	488	0	0			0	0			1				0	
6.6.1	win	2023-06-28	00:26:09	00:44:23	1089272	63d79c120d736e870e993b8c	4	1	main_slash	11	main_slash	1	stimuli_distractor_trianglediamonds.svg	stimuli_target_diamondsquares.svg	28	yes	53	1	978	0	0			0	0			1				0	
6.6.1	win	2023-06-28	00:26:09	00:44:23	1089272	63d79c120d736e870e993b8c	4	1	main_slash	11	advance_on_keypress_SLASH	2	stimuli_distractor_trianglediamonds.svg	stimuli_target_diamondsquares.svg	28	yes	57	0	628	0	0			0	0			1				0	
6.6.1	win	2023-06-28	00:26:09	00:44:24	1090916	63d79c120d736e870e993b8c	4	1	main_slash	11	main_slash	3	stimuli_target_diamondsquares.svg	stimuli_distractor_trianglediamonds.svg	20	yes	53	1	355	0	0			0	0			1				0	
6.6.1	win	2023-06-28	00:26:09	00:44:24	1090916	63d79c120d736e870e993b8c	4	1	main_slash	11	advance_on_keypress_SLASH	4	stimuli_target_diamondsquares.svg	stimuli_distractor_trianglediamonds.svg	20	yes	57	0	704	0	0			0	0			1				0	
6.6.1	win	2023-06-28	00:26:09	00:44:26	1092653	63d79c120d736e870e993b8c	4	1	main_slash	11	main_slash	5	stimuli_target_rectanglediamonds.svg	stimuli_distractor_trianglediamonds.svg	2	yes	53	1	392	0	0			0	0			1				0	
6.6.1	win	2023-06-28	00:26:09	00:44:26	1092653	63d79c120d736e870e993b8c	4	1	main_slash	11	advance_on_keypress_SLASH	6	stimuli_target_rectanglediamonds.svg	stimuli_distractor_trianglediamonds.svg	2	yes	57	0	587	0	0			0	0			1				0	
6.6.1	win	2023-06-28	00:26:09	00:44:28	1094291	63d79c120d736e870e993b8c	4	1	main_slash	11	main_slash	7	stimuli_target_diamondrectangles.svg	stimuli_distractor_diamondtriangles.svg	23	yes	53	1	413	0	0			0	0			1				0	
6.6.1	win	2023-06-28	00:26:09	00:44:28	1094291	63d79c120d736e870e993b8c	4	1	main_slash	11	advance_on_keypress_SLASH	8	stimuli_target_diamondrectangles.svg	stimuli_distractor_diamondtriangles.svg	23	yes	57	0	795	0	0			0	0			1				0	
6.6.1	win	2023-06-28	00:26:09	00:44:30	1096118	63d79c120d736e870e993b8c	4	1	main_slash	11	main_slash	9	stimuli_distractor_trianglediamonds.svg	stimuli_target_rectanglediamonds.svg	10	yes	53	1	370	0	0			0	0			1				0	
6.6.1	win	2023-06-28	00:26:09	00:44:30	1096118	63d79c120d736e870e993b8c	4	1	main_slash	11	advance_on_keypress_SLASH	10	stimuli_distractor_trianglediamonds.svg	stimuli_target_rectanglediamonds.svg	10	yes	57	0	569	0	0			0	0			1				0	
6.6.1	win	2023-06-28	00:26:09	00:44:31	1097760	63d79c120d736e870e993b8c	4	1	main_slash	11	main_slash	11	stimuli_distractor_trianglediamonds.svg	stimuli_target_squaretriangles.svg	11	yes	53	1	432	0	0			0	0			1				0	
6.6.1	win	2023-06-28	00:26:09	00:44:31	1097760	63d79c120d736e870e993b8c	4	1	main_slash	11	advance_on_keypress_SLASH	12	stimuli_distractor_trianglediamonds.svg	stimuli_target_squaretriangles.svg	11	yes	57	0	724	0	0			0	0			1				0	
6.6.1	win	2023-06-28	00:26:09	00:44:33	1099442	63d79c120d736e870e993b8c	4	1	main_slash	11	main_slash	13	stimuli_target_trianglerectangles.svg	stimuli_distractor_diamondtriangles.svg	21	yes	53	1	315	0	0			0	0			1				0	
6.6.1	win	2023-06-28	00:26:09	00:44:33	1099442	63d79c120d736e870e993b8c	4	1	main_slash	11	advance_on_keypress_SLASH	14	stimuli_target_trianglerectangles.svg	stimuli_distractor_diamondtriangles.svg	21	yes	57	0	395	0	0			0	0			1				0	
6.6.1	win	2023-06-28	00:26:09	00:44:36	1102493	63d79c120d736e870e993b8c	4	1	main_slash	11	main_slash	15	stimuli_distractor_diamondtriangles.svg	stimuli_distractor_trianglediamonds.svg	37	no	0	1	2000	0	0			0	0			1				0	
6.6.1	win	2023-06-28	00:26:09	00:44:36	1102493	63d79c120d736e870e993b8c	4	1	main_slash	11	advance_on_keypress_SLASH	16	stimuli_distractor_diamondtriangles.svg	stimuli_distractor_trianglediamonds.svg	37	no	57	0	382	0	0			0	0			1				0	
6.6.1	win	2023-06-28	00:26:09	00:44:37	1103809	63d79c120d736e870e993b8c	4	1	main_slash	11	main_slash	17	stimuli_distractor_diamondtriangles.svg	stimuli_target_rectanglediamonds.svg	14	yes	53	1	283	0	0			0	0			1				0	
6.6.1	win	2023-06-28	00:26:09	00:44:37	1103809	63d79c120d736e870e993b8c	4	1	main_slash	11	advance_on_keypress_SLASH	18	stimuli_distractor_diamondtriangles.svg	stimuli_target_rectanglediamonds.svg	14	yes	57	0	620	0	0			0	0			1				0	
6.6.1	win	2023-06-28	00:26:09	00:44:40	1106176	63d79c120d736e870e993b8c	4	1	main_slash	11	main_slash	19	stimuli_distractor_diamondtriangles.svg	stimuli_target_squaretriangles.svg	15	yes	53	1	1099	0	0			0	0			1				0	
6.6.1	win	2023-06-28	00:26:09	00:44:40	1106176	63d79c120d736e870e993b8c	4	1	main_slash	11	advance_on_keypress_SLASH	20	stimuli_distractor_diamondtriangles.svg	stimuli_target_squaretriangles.svg	15	yes	57	0	466	0	0			0	0			1				0	
6.6.1	win	2023-06-28	00:26:09	00:44:43	1109293	63d79c120d736e870e993b8c	4	1	main_slash	11	main_slash	21	stimuli_distractor_trianglediamonds.svg	stimuli_distractor_diamondtriangles.svg	36	no	0	1	2000	0	0			0	0			1				0	
6.6.1	win	2023-06-28	00:26:09	00:44:43	1109293	63d79c120d736e870e993b8c	4	1	main_slash	11	advance_on_keypress_SLASH	22	stimuli_distractor_trianglediamonds.svg	stimuli_distractor_diamondtriangles.svg	36	no	57	0	308	0	0			0	0			1				0	
6.6.1	win	2023-06-28	00:26:09	00:44:44	1110557	63d79c120d736e870e993b8c	4	1	main_slash	11	main_slash	23	stimuli_distractor_trianglediamonds.svg	stimuli_target_squarediamonds.svg	12	yes	53	1	299	0	0			0	0			1				0	
6.6.1	win	2023-06-28	00:26:09	00:44:44	1110557	63d79c120d736e870e993b8c	4	1	main_slash	11	advance_on_keypress_SLASH	24	stimuli_distractor_trianglediamonds.svg	stimuli_target_squarediamonds.svg	12	yes	57	0	1983	0	0			0	0			1				0	
6.6.1	win	2023-06-28	00:26:09	00:44:47	1113549	63d79c120d736e870e993b8c	4	1	main_slash	11	main_slash	25	stimuli_target_squaretriangles.svg	stimuli_distractor_trianglediamonds.svg	3	yes	53	1	358	0	0			0	0			1				0	
6.6.1	win	2023-06-28	00:26:09	00:44:47	1113549	63d79c120d736e870e993b8c	4	1	main_slash	11	advance_on_keypress_SLASH	26	stimuli_target_squaretriangles.svg	stimuli_distractor_trianglediamonds.svg	3	yes	57	0	494	0	0			0	0			1				0	
6.6.1	win	2023-06-28	00:26:09	00:44:48	1115111	63d79c120d736e870e993b8c	4	1	main_slash	11	main_slash	27	stimuli_distractor_diamondtriangles.svg	stimuli_target_trianglesquares.svg	30	yes	53	1	420	0	0			0	0			1				0	
6.6.1	win	2023-06-28	00:26:09	00:44:48	1115111	63d79c120d736e870e993b8c	4	1	main_slash	11	advance_on_keypress_SLASH	28	stimuli_distractor_diamondtriangles.svg	stimuli_target_trianglesquares.svg	30	yes	57	0	507	0	0			0	0			1				0	
6.6.1	win	2023-06-28	00:26:09	00:44:50	1116617	63d79c120d736e870e993b8c	4	1	main_slash	11	main_slash	29	stimuli_distractor_diamondtriangles.svg	stimuli_target_squarediamonds.svg	16	yes	53	1	359	0	0			0	0			1				0	
6.6.1	win	2023-06-28	00:26:09	00:44:50	1116617	63d79c120d736e870e993b8c	4	1	main_slash	11	advance_on_keypress_SLASH	30	stimuli_distractor_diamondtriangles.svg	stimuli_target_squarediamonds.svg	16	yes	57	0	438	0	0			0	0			1				0	
6.6.1	win	2023-06-28	00:26:09	00:44:53	1119708	63d79c120d736e870e993b8c	4	1	main_slash	11	main_slash	31	stimuli_distractor_diamondtriangles.svg	stimuli_distractor_diamondtriangles.svg	40	no	0	1	2000	0	0			0	0			1				0	
6.6.1	win	2023-06-28	00:26:09	00:44:53	1119708	63d79c120d736e870e993b8c	4	1	main_slash	11	advance_on_keypress_SLASH	32	stimuli_distractor_diamondtriangles.svg	stimuli_distractor_diamondtriangles.svg	40	no	57	0	362	0	0			0	0			1				0	
6.6.1	win	2023-06-28	00:26:09	00:44:54	1121107	63d79c120d736e870e993b8c	4	1	main_slash	11	main_slash	33	stimuli_distractor_diamondtriangles.svg	stimuli_target_diamondsquares.svg	32	yes	53	1	382	0	0			0	0			1				0	
6.6.1	win	2023-06-28	00:26:09	00:44:54	1121107	63d79c120d736e870e993b8c	4	1	main_slash	11	advance_on_keypress_SLASH	34	stimuli_distractor_diamondtriangles.svg	stimuli_target_diamondsquares.svg	32	yes	57	0	488	0	0			0	0			1				0	
6.6.1	win	2023-06-28	00:26:09	00:44:57	1123418	63d79c120d736e870e993b8c	4	1	main_slash	11	main_slash	35	stimuli_distractor_trianglediamonds.svg	stimuli_target_trianglerectangles.svg	25	yes	53	1	1178	0	0			0	0			1				0	
6.6.1	win	2023-06-28	00:26:09	00:44:57	1123418	63d79c120d736e870e993b8c	4	1	main_slash	11	advance_on_keypress_SLASH	36	stimuli_distractor_trianglediamonds.svg	stimuli_target_trianglerectangles.svg	25	yes	57	0	514	0	0			0	0			1				0	
6.6.1	win	2023-06-28	00:26:09	00:44:58	1124943	63d79c120d736e870e993b8c	4	1	main_slash	11	main_slash	37	stimuli_distractor_diamondtriangles.svg	stimuli_target_diamondrectangles.svg	31	yes	53	1	353	0	0			0	0			1				0	
6.6.1	win	2023-06-28	00:26:09	00:44:58	1124943	63d79c120d736e870e993b8c	4	1	main_slash	11	advance_on_keypress_SLASH	38	stimuli_distractor_diamondtriangles.svg	stimuli_target_diamondrectangles.svg	31	yes	57	0	507	0	0			0	0			1				0	
6.6.1	win	2023-06-28	00:26:09	00:45:00	1126621	63d79c120d736e870e993b8c	4	1	main_slash	11	main_slash	39	stimuli_target_rectangletriangles.svg	stimuli_distractor_trianglediamonds.svg	1	yes	53	1	531	0	0			0	0			1				0	
6.6.1	win	2023-06-28	00:26:09	00:45:00	1126621	63d79c120d736e870e993b8c	4	1	main_slash	11	advance_on_keypress_SLASH	40	stimuli_target_rectangletriangles.svg	stimuli_distractor_trianglediamonds.svg	1	yes	57	0	618	0	0			0	0			1				0	
6.6.1	win	2023-06-28	00:26:09	00:45:02	1128318	63d79c120d736e870e993b8c	4	1	main_slash	11	main_slash	41	stimuli_target_squarediamonds.svg	stimuli_distractor_diamondtriangles.svg	8	yes	53	1	429	0	0			0	0			1				0	
6.6.1	win	2023-06-28	00:26:09	00:45:02	1128318	63d79c120d736e870e993b8c	4	1	main_slash	11	advance_on_keypress_SLASH	42	stimuli_target_squarediamonds.svg	stimuli_distractor_diamondtriangles.svg	8	yes	57	0	468	0	0			0	0			1				0	
6.6.1	win	2023-06-28	00:26:09	00:45:03	1129777	63d79c120d736e870e993b8c	4	1	main_slash	11	main_slash	43	stimuli_target_rectangletriangles.svg	stimuli_distractor_diamondtriangles.svg	5	yes	53	1	337	0	0			0	0			1				0	
6.6.1	win	2023-06-28	00:26:09	00:45:03	1129777	63d79c120d736e870e993b8c	4	1	main_slash	11	advance_on_keypress_SLASH	44	stimuli_target_rectangletriangles.svg	stimuli_distractor_diamondtriangles.svg	5	yes	57	0	492	0	0			0	0			1				0	
6.6.1	win	2023-06-28	00:26:09	00:45:05	1131427	63d79c120d736e870e993b8c	4	1	main_slash	11	main_slash	45	stimuli_target_squaretriangles.svg	stimuli_distractor_diamondtriangles.svg	7	yes	53	1	522	0	0			0	0			1				0	
6.6.1	win	2023-06-28	00:26:09	00:45:05	1131427	63d79c120d736e870e993b8c	4	1	main_slash	11	advance_on_keypress_SLASH	46	stimuli_target_squaretriangles.svg	stimuli_distractor_diamondtriangles.svg	7	yes	57	0	633	0	0			0	0			1				0	
6.6.1	win	2023-06-28	00:26:09	00:45:07	1133243	63d79c120d736e870e993b8c	4	1	main_slash	11	main_slash	47	stimuli_target_diamondrectangles.svg	stimuli_distractor_trianglediamonds.svg	19	yes	53	1	538	0	0			0	0			1				0	
6.6.1	win	2023-06-28	00:26:09	00:45:07	1133243	63d79c120d736e870e993b8c	4	1	main_slash	11	advance_on_keypress_SLASH	48	stimuli_target_diamondrectangles.svg	stimuli_distractor_trianglediamonds.svg	19	yes	57	0	780	0	0			0	0			1				0	
6.6.1	win	2023-06-28	00:26:09	00:45:08	1135020	63d79c120d736e870e993b8c	4	1	main_slash	11	main_slash	49	stimuli_target_rectanglediamonds.svg	stimuli_distractor_diamondtriangles.svg	6	yes	53	1	348	0	0			0	0			1				0	
6.6.1	win	2023-06-28	00:26:09	00:45:08	1135020	63d79c120d736e870e993b8c	4	1	main_slash	11	advance_on_keypress_SLASH	50	stimuli_target_rectanglediamonds.svg	stimuli_distractor_diamondtriangles.svg	6	yes	57	0	891	0	0			0	0			1				0	
6.6.1	win	2023-06-28	00:26:09	00:45:11	1137130	63d79c120d736e870e993b8c	4	1	main_slash	11	main_slash	51	stimuli_target_squarediamonds.svg	stimuli_distractor_trianglediamonds.svg	4	yes	53	1	574	0	0			0	0			1				0	
6.6.1	win	2023-06-28	00:26:09	00:45:11	1137130	63d79c120d736e870e993b8c	4	1	main_slash	11	advance_on_keypress_SLASH	52	stimuli_target_squarediamonds.svg	stimuli_distractor_trianglediamonds.svg	4	yes	57	0	1358	0	0			0	0			1				0	
6.6.1	win	2023-06-28	00:26:09	00:45:13	1139709	63d79c120d736e870e993b8c	4	1	main_slash	11	main_slash	53	stimuli_distractor_diamondtriangles.svg	stimuli_target_trianglerectangles.svg	29	yes	53	1	588	0	0			0	0			1				0	
6.6.1	win	2023-06-28	00:26:09	00:45:13	1139709	63d79c120d736e870e993b8c	4	1	main_slash	11	advance_on_keypress_SLASH	54	stimuli_distractor_diamondtriangles.svg	stimuli_target_trianglerectangles.svg	29	yes	57	0	793	0	0			0	0			1				0	
6.6.1	win	2023-06-28	00:26:09	00:45:15	1141459	63d79c120d736e870e993b8c	4	1	main_slash	11	main_slash	55	stimuli_target_trianglesquares.svg	stimuli_distractor_trianglediamonds.svg	18	yes	53	1	304	0	0			0	0			1				0	
6.6.1	win	2023-06-28	00:26:09	00:45:15	1141459	63d79c120d736e870e993b8c	4	1	main_slash	11	advance_on_keypress_SLASH	56	stimuli_target_trianglesquares.svg	stimuli_distractor_trianglediamonds.svg	18	yes	57	0	741	0	0			0	0			1				0	
6.6.1	win	2023-06-28	00:26:09	00:45:17	1143413	63d79c120d736e870e993b8c	4	1	main_slash	11	main_slash	57	stimuli_distractor_diamondtriangles.svg	stimuli_distractor_diamondtriangles.svg	39	no	53	0	559	0	0			0	0			1				0	
6.6.1	win	2023-06-28	00:26:09	00:45:17	1143413	63d79c120d736e870e993b8c	4	1	main_slash	11	advance_on_keypress_SLASH	58	stimuli_distractor_diamondtriangles.svg	stimuli_distractor_diamondtriangles.svg	39	no	57	0	530	0	0			0	0			1				0	
6.6.1	win	2023-06-28	00:26:09	00:45:20	1146604	63d79c120d736e870e993b8c	4	1	main_slash	11	main_slash	59	stimuli_distractor_diamondtriangles.svg	stimuli_distractor_trianglediamonds.svg	38	no	0	1	2000	0	0			0	0			1				0	
6.6.1	win	2023-06-28	00:26:09	00:45:20	1146604	63d79c120d736e870e993b8c	4	1	main_slash	11	advance_on_keypress_SLASH	60	stimuli_distractor_diamondtriangles.svg	stimuli_distractor_trianglediamonds.svg	38	no	57	0	427	0	0			0	0			1				0	
6.6.1	win	2023-06-28	00:26:09	00:45:23	1149687	63d79c120d736e870e993b8c	4	1	main_slash	11	main_slash	61	stimuli_distractor_trianglediamonds.svg	stimuli_distractor_trianglediamonds.svg	34	no	0	1	2000	0	0			0	0			1				0	
6.6.1	win	2023-06-28	00:26:09	00:45:23	1149687	63d79c120d736e870e993b8c	4	1	main_slash	11	advance_on_keypress_SLASH	62	stimuli_distractor_trianglediamonds.svg	stimuli_distractor_trianglediamonds.svg	34	no	57	0	400	0	0			0	0			1				0	
6.6.1	win	2023-06-28	00:26:09	00:45:25	1151204	63d79c120d736e870e993b8c	4	1	main_slash	11	main_slash	63	stimuli_target_diamondsquares.svg	stimuli_distractor_diamondtriangles.svg	24	yes	53	1	467	0	0			0	0			1				0	
6.6.1	win	2023-06-28	00:26:09	00:45:25	1151204	63d79c120d736e870e993b8c	4	1	main_slash	11	advance_on_keypress_SLASH	64	stimuli_target_diamondsquares.svg	stimuli_distractor_diamondtriangles.svg	24	yes	57	0	686	0	0			0	0			1				0	
6.6.1	win	2023-06-28	00:26:09	00:45:28	1154536	63d79c120d736e870e993b8c	4	1	main_slash	11	main_slash	65	stimuli_distractor_trianglediamonds.svg	stimuli_distractor_diamondtriangles.svg	35	no	0	1	2000	0	0			0	0			1				0	
6.6.1	win	2023-06-28	00:26:09	00:45:28	1154536	63d79c120d736e870e993b8c	4	1	main_slash	11	advance_on_keypress_SLASH	66	stimuli_distractor_trianglediamonds.svg	stimuli_distractor_diamondtriangles.svg	35	no	57	0	436	0	0			0	0			1				0	
6.6.1	win	2023-06-28	00:26:09	00:45:31	1157620	63d79c120d736e870e993b8c	4	1	main_slash	11	main_slash	67	stimuli_distractor_trianglediamonds.svg	stimuli_distractor_trianglediamonds.svg	33	no	0	1	2000	0	0			0	0			1				0	
6.6.1	win	2023-06-28	00:26:09	00:45:31	1157620	63d79c120d736e870e993b8c	4	1	main_slash	11	advance_on_keypress_SLASH	68	stimuli_distractor_trianglediamonds.svg	stimuli_distractor_trianglediamonds.svg	33	no	57	0	235	0	0			0	0			1				0	
6.6.1	win	2023-06-28	00:26:09	00:45:32	1159026	63d79c120d736e870e993b8c	4	1	main_slash	11	main_slash	69	stimuli_target_trianglesquares.svg	stimuli_distractor_diamondtriangles.svg	22	yes	53	1	523	0	0			0	0			1				0	
6.6.1	win	2023-06-28	00:26:09	00:45:32	1159026	63d79c120d736e870e993b8c	4	1	main_slash	11	advance_on_keypress_SLASH	70	stimuli_target_trianglesquares.svg	stimuli_distractor_diamondtriangles.svg	22	yes	57	0	1675	0	0			0	0			1				0	
6.6.1	win	2023-06-28	00:26:09	00:45:36	1162262	63d79c120d736e870e993b8c	4	1	main_slash	11	main_slash	71	stimuli_target_trianglerectangles.svg	stimuli_distractor_trianglediamonds.svg	17	yes	53	1	927	0	0			0	0			1				0	
6.6.1	win	2023-06-28	00:26:09	00:45:36	1162262	63d79c120d736e870e993b8c	4	1	main_slash	11	advance_on_keypress_SLASH	72	stimuli_target_trianglerectangles.svg	stimuli_distractor_trianglediamonds.svg	17	yes	57	0	2371	0	0			0	0			1				0	
6.6.1	win	2023-06-28	00:26:09	00:45:39	1165767	63d79c120d736e870e993b8c	4	1	main_slash	11	main_slash	73	stimuli_distractor_trianglediamonds.svg	stimuli_target_trianglesquares.svg	26	yes	53	1	483	0	0			0	0			1				0	
6.6.1	win	2023-06-28	00:26:09	00:45:39	1165767	63d79c120d736e870e993b8c	4	1	main_slash	11	advance_on_keypress_SLASH	74	stimuli_distractor_trianglediamonds.svg	stimuli_target_trianglesquares.svg	26	yes	57	0	646	0	0			0	0			1				0	
6.6.1	win	2023-06-28	00:26:09	00:45:42	1169068	63d79c120d736e870e993b8c	4	1	main_slash	11	main_slash	75	stimuli_distractor_trianglediamonds.svg	stimuli_target_rectangletriangles.svg	9	yes	0	0	2000	0	0			0	0			1				0	
6.6.1	win	2023-06-28	00:26:09	00:45:42	1169068	63d79c120d736e870e993b8c	4	1	main_slash	11	advance_on_keypress_SLASH	76	stimuli_distractor_trianglediamonds.svg	stimuli_target_rectangletriangles.svg	9	yes	57	0	498	0	0			0	0			1				0	
6.6.1	win	2023-06-28	00:26:09	00:45:44	1170601	63d79c120d736e870e993b8c	4	1	main_slash	11	main_slash	77	stimuli_distractor_trianglediamonds.svg	stimuli_target_diamondrectangles.svg	27	yes	53	1	383	0	0			0	0			1				0	
6.6.1	win	2023-06-28	00:26:09	00:45:44	1170601	63d79c120d736e870e993b8c	4	1	main_slash	11	advance_on_keypress_SLASH	78	stimuli_distractor_trianglediamonds.svg	stimuli_target_diamondrectangles.svg	27	yes	57	0	1308	0	0			0	0			1				0	
6.6.1	win	2023-06-28	00:26:09	00:45:47	1173435	63d79c120d736e870e993b8c	4	1	main_slash	11	main_slash	79	stimuli_distractor_diamondtriangles.svg	stimuli_target_rectangletriangles.svg	13	yes	53	1	867	0	0			0	0			1				0	
6.6.1	win	2023-06-28	00:26:09	00:45:47	1173435	63d79c120d736e870e993b8c	4	1	main_slash	11	advance_on_keypress_SLASH	80	stimuli_distractor_diamondtriangles.svg	stimuli_target_rectangletriangles.svg	13	yes	57	0	1023	0	0			0	0			1				0	
6.6.1	win	2023-06-28	00:26:09	00:45:50	1177100	63d79c120d736e870e993b8c	4	1	main_slash	11	main_slash	81	stimuli_distractor_trianglediamonds.svg	stimuli_distractor_diamondtriangles.svg	35	no	0	1	2000	0	0			0	0			1				0	
6.6.1	win	2023-06-28	00:26:09	00:45:50	1177100	63d79c120d736e870e993b8c	4	1	main_slash	11	advance_on_keypress_SLASH	82	stimuli_distractor_trianglediamonds.svg	stimuli_distractor_diamondtriangles.svg	35	no	57	0	640	0	0			0	0			1				0	
6.6.1	win	2023-06-28	00:26:09	00:45:54	1180383	63d79c120d736e870e993b8c	4	1	main_slash	11	main_slash	83	stimuli_distractor_diamondtriangles.svg	stimuli_distractor_trianglediamonds.svg	37	no	0	1	2000	0	0			0	0			1				0	
6.6.1	win	2023-06-28	00:26:09	00:45:54	1180383	63d79c120d736e870e993b8c	4	1	main_slash	11	advance_on_keypress_SLASH	84	stimuli_distractor_diamondtriangles.svg	stimuli_distractor_trianglediamonds.svg	37	no	57	0	461	0	0			0	0			1				0	
6.6.1	win	2023-06-28	00:26:09	00:45:55	1181996	63d79c120d736e870e993b8c	4	1	main_slash	11	main_slash	85	stimuli_target_trianglesquares.svg	stimuli_distractor_trianglediamonds.svg	18	yes	53	1	496	0	0			0	0			1				0	
6.6.1	win	2023-06-28	00:26:09	00:45:55	1181996	63d79c120d736e870e993b8c	4	1	main_slash	11	advance_on_keypress_SLASH	86	stimuli_target_trianglesquares.svg	stimuli_distractor_trianglediamonds.svg	18	yes	57	0	740	0	0			0	0			1				0	
6.6.1	win	2023-06-28	00:26:09	00:45:59	1185383	63d79c120d736e870e993b8c	4	1	main_slash	11	main_slash	87	stimuli_target_rectangletriangles.svg	stimuli_distractor_diamondtriangles.svg	5	yes	0	0	2000	0	0			0	0			1				0	
6.6.1	win	2023-06-28	00:26:09	00:45:59	1185383	63d79c120d736e870e993b8c	4	1	main_slash	11	advance_on_keypress_SLASH	88	stimuli_target_rectangletriangles.svg	stimuli_distractor_diamondtriangles.svg	5	yes	57	0	536	0	0			0	0			1				0	
6.6.1	win	2023-06-28	00:26:09	00:46:01	1187132	63d79c120d736e870e993b8c	4	1	main_slash	11	main_slash	89	stimuli_target_rectangletriangles.svg	stimuli_distractor_trianglediamonds.svg	1	yes	53	1	567	0	0			0	0			1				0	
6.6.1	win	2023-06-28	00:26:09	00:46:01	1187132	63d79c120d736e870e993b8c	4	1	main_slash	11	advance_on_keypress_SLASH	90	stimuli_target_rectangletriangles.svg	stimuli_distractor_trianglediamonds.svg	1	yes	57	0	639	0	0			0	0			1				0	
6.6.1	win	2023-06-28	00:26:09	00:46:02	1188948	63d79c120d736e870e993b8c	4	1	main_slash	11	main_slash	91	stimuli_target_squarediamonds.svg	stimuli_distractor_diamondtriangles.svg	8	yes	53	1	533	0	0			0	0			1				0	
6.6.1	win	2023-06-28	00:26:09	00:46:02	1188948	63d79c120d736e870e993b8c	4	1	main_slash	11	advance_on_keypress_SLASH	92	stimuli_target_squarediamonds.svg	stimuli_distractor_diamondtriangles.svg	8	yes	57	0	583	0	0			0	0			1				0	
6.6.1	win	2023-06-28	00:26:09	00:46:04	1190804	63d79c120d736e870e993b8c	4	1	main_slash	11	main_slash	93	stimuli_target_diamondrectangles.svg	stimuli_distractor_trianglediamonds.svg	19	yes	53	1	623	0	0			0	0			1				0	
6.6.1	win	2023-06-28	00:26:09	00:46:04	1190804	63d79c120d736e870e993b8c	4	1	main_slash	11	advance_on_keypress_SLASH	94	stimuli_target_diamondrectangles.svg	stimuli_distractor_trianglediamonds.svg	19	yes	57	0	792	0	0			0	0			1				0	
6.6.1	win	2023-06-28	00:26:09	00:46:06	1192864	63d79c120d736e870e993b8c	4	1	main_slash	11	main_slash	95	stimuli_distractor_diamondtriangles.svg	stimuli_target_diamondrectangles.svg	31	yes	53	1	632	0	0			0	0			1				0	
6.6.1	win	2023-06-28	00:26:09	00:46:06	1192864	63d79c120d736e870e993b8c	4	1	main_slash	11	advance_on_keypress_SLASH	96	stimuli_distractor_diamondtriangles.svg	stimuli_target_diamondrectangles.svg	31	yes	57	0	633	0	0			0	0			1				0	
6.6.1	win	2023-06-28	00:26:09	00:46:08	1194615	63d79c120d736e870e993b8c	4	1	main_slash	11	main_slash	97	stimuli_target_rectanglediamonds.svg	stimuli_distractor_diamondtriangles.svg	6	yes	53	1	466	0	0			0	0			1				0	
6.6.1	win	2023-06-28	00:26:09	00:46:08	1194615	63d79c120d736e870e993b8c	4	1	main_slash	11	advance_on_keypress_SLASH	98	stimuli_target_rectanglediamonds.svg	stimuli_distractor_diamondtriangles.svg	6	yes	57	0	786	0	0			0	0			1				0	
6.6.1	win	2023-06-28	00:26:09	00:46:10	1196763	63d79c120d736e870e993b8c	4	1	main_slash	11	main_slash	99	stimuli_target_squarediamonds.svg	stimuli_distractor_trianglediamonds.svg	4	yes	53	1	716	0	0			0	0			1				0	
6.6.1	win	2023-06-28	00:26:09	00:46:10	1196763	63d79c120d736e870e993b8c	4	1	main_slash	11	advance_on_keypress_SLASH	100	stimuli_target_squarediamonds.svg	stimuli_distractor_trianglediamonds.svg	4	yes	57	0	1108	0	0			0	0			1				0	
6.6.1	win	2023-06-28	00:26:09	00:46:12	1198887	63d79c120d736e870e993b8c	4	1	main_slash	11	main_slash	101	stimuli_distractor_diamondtriangles.svg	stimuli_target_squarediamonds.svg	16	yes	53	1	372	0	0			0	0			1				0	
6.6.1	win	2023-06-28	00:26:09	00:46:12	1198887	63d79c120d736e870e993b8c	4	1	main_slash	11	advance_on_keypress_SLASH	102	stimuli_distractor_diamondtriangles.svg	stimuli_target_squarediamonds.svg	16	yes	57	0	707	0	0			0	0			1				0	
6.6.1	win	2023-06-28	00:26:09	00:46:14	1200804	63d79c120d736e870e993b8c	4	1	main_slash	11	main_slash	103	stimuli_target_trianglesquares.svg	stimuli_distractor_diamondtriangles.svg	22	yes	53	1	574	0	0			0	0			1				0	
6.6.1	win	2023-06-28	00:26:09	00:46:14	1200804	63d79c120d736e870e993b8c	4	1	main_slash	11	advance_on_keypress_SLASH	104	stimuli_target_trianglesquares.svg	stimuli_distractor_diamondtriangles.svg	22	yes	57	0	2747	0	0			0	0			1				0	
6.6.1	win	2023-06-28	00:26:09	00:46:20	1206196	63d79c120d736e870e993b8c	4	1	main_slash	11	main_slash	105	stimuli_distractor_diamondtriangles.svg	stimuli_distractor_diamondtriangles.svg	39	no	0	1	2000	0	0			0	0			1				0	
6.6.1	win	2023-06-28	00:26:09	00:46:20	1206196	63d79c120d736e870e993b8c	4	1	main_slash	11	advance_on_keypress_SLASH	106	stimuli_distractor_diamondtriangles.svg	stimuli_distractor_diamondtriangles.svg	39	no	57	0	379	0	0			0	0			1				0	
6.6.1	win	2023-06-28	00:26:09	00:46:22	1208653	63d79c120d736e870e993b8c	4	1	main_slash	11	main_slash	107	stimuli_target_rectanglediamonds.svg	stimuli_distractor_trianglediamonds.svg	2	yes	53	1	1424	0	0			0	0			1				0	
6.6.1	win	2023-06-28	00:26:09	00:46:22	1208653	63d79c120d736e870e993b8c	4	1	main_slash	11	advance_on_keypress_SLASH	108	stimuli_target_rectanglediamonds.svg	stimuli_distractor_trianglediamonds.svg	2	yes	57	0	529	0	0			0	0			1				0	
6.6.1	win	2023-06-28	00:26:09	00:46:24	1210259	63d79c120d736e870e993b8c	4	1	main_slash	11	main_slash	109	stimuli_distractor_trianglediamonds.svg	stimuli_target_diamondsquares.svg	28	yes	53	1	429	0	0			0	0			1				0	
6.6.1	win	2023-06-28	00:26:09	00:46:24	1210259	63d79c120d736e870e993b8c	4	1	main_slash	11	advance_on_keypress_SLASH	110	stimuli_distractor_trianglediamonds.svg	stimuli_target_diamondsquares.svg	28	yes	57	0	619	0	0			0	0			1				0	
6.6.1	win	2023-06-28	00:26:09	00:46:27	1213529	63d79c120d736e870e993b8c	4	1	main_slash	11	main_slash	111	stimuli_distractor_diamondtriangles.svg	stimuli_distractor_diamondtriangles.svg	40	no	0	1	2000	0	0			0	0			1				0	
6.6.1	win	2023-06-28	00:26:09	00:46:27	1213529	63d79c120d736e870e993b8c	4	1	main_slash	11	advance_on_keypress_SLASH	112	stimuli_distractor_diamondtriangles.svg	stimuli_distractor_diamondtriangles.svg	40	no	57	0	455	0	0			0	0			1				0	
6.6.1	win	2023-06-28	00:26:09	00:46:28	1215100	63d79c120d736e870e993b8c	4	1	main_slash	11	main_slash	113	stimuli_distractor_diamondtriangles.svg	stimuli_target_rectangletriangles.svg	13	yes	53	1	471	0	0			0	0			1				0	
6.6.1	win	2023-06-28	00:26:09	00:46:28	1215100	63d79c120d736e870e993b8c	4	1	main_slash	11	advance_on_keypress_SLASH	114	stimuli_distractor_diamondtriangles.svg	stimuli_target_rectangletriangles.svg	13	yes	57	0	507	0	0			0	0			1				0	
6.6.1	win	2023-06-28	00:26:09	00:46:30	1216709	63d79c120d736e870e993b8c	4	1	main_slash	11	main_slash	115	stimuli_distractor_trianglediamonds.svg	stimuli_target_squarediamonds.svg	12	yes	53	1	464	0	0			0	0			1				0	
6.6.1	win	2023-06-28	00:26:09	00:46:30	1216709	63d79c120d736e870e993b8c	4	1	main_slash	11	advance_on_keypress_SLASH	116	stimuli_distractor_trianglediamonds.svg	stimuli_target_squarediamonds.svg	12	yes	57	0	693	0	0			0	0			1				0	
6.6.1	win	2023-06-28	00:26:09	00:46:32	1218652	63d79c120d736e870e993b8c	4	1	main_slash	11	main_slash	117	stimuli_distractor_trianglediamonds.svg	stimuli_target_rectanglediamonds.svg	10	yes	53	1	591	0	0			0	0			1				0	
6.6.1	win	2023-06-28	00:26:09	00:46:32	1218652	63d79c120d736e870e993b8c	4	1	main_slash	11	advance_on_keypress_SLASH	118	stimuli_distractor_trianglediamonds.svg	stimuli_target_rectanglediamonds.svg	10	yes	57	0	764	0	0			0	0			1				0	
6.6.1	win	2023-06-28	00:26:09	00:46:35	1222061	63d79c120d736e870e993b8c	4	1	main_slash	11	main_slash	119	stimuli_target_trianglerectangles.svg	stimuli_distractor_diamondtriangles.svg	21	yes	0	0	2000	0	0			0	0			1				0	
6.6.1	win	2023-06-28	00:26:09	00:46:35	1222061	63d79c120d736e870e993b8c	4	1	main_slash	11	advance_on_keypress_SLASH	120	stimuli_target_trianglerectangles.svg	stimuli_distractor_diamondtriangles.svg	21	yes	57	0	492	0	0			0	0			1				0	
6.6.1	win	2023-06-28	00:26:09	00:46:37	1223547	63d79c120d736e870e993b8c	4	1	main_slash	11	main_slash	121	stimuli_distractor_diamondtriangles.svg	stimuli_target_diamondsquares.svg	32	yes	53	1	353	0	0			0	0			1				0	
6.6.1	win	2023-06-28	00:26:09	00:46:37	1223547	63d79c120d736e870e993b8c	4	1	main_slash	11	advance_on_keypress_SLASH	122	stimuli_distractor_diamondtriangles.svg	stimuli_target_diamondsquares.svg	32	yes	57	0	517	0	0			0	0			1				0	
6.6.1	win	2023-06-28	00:26:09	00:46:39	1225117	63d79c120d736e870e993b8c	4	1	main_slash	11	main_slash	123	stimuli_distractor_diamondtriangles.svg	stimuli_target_rectanglediamonds.svg	14	yes	53	1	406	0	0			0	0			1				0	
6.6.1	win	2023-06-28	00:26:09	00:46:39	1225117	63d79c120d736e870e993b8c	4	1	main_slash	11	advance_on_keypress_SLASH	124	stimuli_distractor_diamondtriangles.svg	stimuli_target_rectanglediamonds.svg	14	yes	57	0	591	0	0			0	0			1				0	
6.6.1	win	2023-06-28	00:26:09	00:46:40	1226794	63d79c120d736e870e993b8c	4	1	main_slash	11	main_slash	125	stimuli_distractor_trianglediamonds.svg	stimuli_target_squaretriangles.svg	11	yes	53	1	450	0	0			0	0			1				0	
6.6.1	win	2023-06-28	00:26:09	00:46:40	1226794	63d79c120d736e870e993b8c	4	1	main_slash	11	advance_on_keypress_SLASH	126	stimuli_distractor_trianglediamonds.svg	stimuli_target_squaretriangles.svg	11	yes	57	0	568	0	0			0	0			1				0	
6.6.1	win	2023-06-28	00:26:09	00:46:42	1228385	63d79c120d736e870e993b8c	4	1	main_slash	11	main_slash	127	stimuli_target_squaretriangles.svg	stimuli_distractor_trianglediamonds.svg	3	yes	53	1	374	0	0			0	0			1				0	
6.6.1	win	2023-06-28	00:26:09	00:46:42	1228385	63d79c120d736e870e993b8c	4	1	main_slash	11	advance_on_keypress_SLASH	128	stimuli_target_squaretriangles.svg	stimuli_distractor_trianglediamonds.svg	3	yes	57	0	470	0	0			0	0			1				0	
6.6.1	win	2023-06-28	00:26:09	00:46:45	1231493	63d79c120d736e870e993b8c	4	1	main_slash	11	main_slash	129	stimuli_distractor_trianglediamonds.svg	stimuli_distractor_trianglediamonds.svg	34	no	0	1	2000	0	0			0	0			1				0	
6.6.1	win	2023-06-28	00:26:09	00:46:45	1231493	63d79c120d736e870e993b8c	4	1	main_slash	11	advance_on_keypress_SLASH	130	stimuli_distractor_trianglediamonds.svg	stimuli_distractor_trianglediamonds.svg	34	no	57	0	336	0	0			0	0			1				0	
6.6.1	win	2023-06-28	00:26:09	00:46:48	1234477	63d79c120d736e870e993b8c	4	1	main_slash	11	main_slash	131	stimuli_distractor_diamondtriangles.svg	stimuli_distractor_trianglediamonds.svg	38	no	0	1	2000	0	0			0	0			1				0	
6.6.1	win	2023-06-28	00:26:09	00:46:48	1234477	63d79c120d736e870e993b8c	4	1	main_slash	11	advance_on_keypress_SLASH	132	stimuli_distractor_diamondtriangles.svg	stimuli_distractor_trianglediamonds.svg	38	no	57	0	412	0	0			0	0			1				0	
6.6.1	win	2023-06-28	00:26:09	00:46:51	1237542	63d79c120d736e870e993b8c	4	1	main_slash	11	main_slash	133	stimuli_distractor_trianglediamonds.svg	stimuli_distractor_trianglediamonds.svg	33	no	0	1	2000	0	0			0	0			1				0	
6.6.1	win	2023-06-28	00:26:09	00:46:51	1237542	63d79c120d736e870e993b8c	4	1	main_slash	11	advance_on_keypress_SLASH	134	stimuli_distractor_trianglediamonds.svg	stimuli_distractor_trianglediamonds.svg	33	no	57	0	390	0	0			0	0			1				0	
6.6.1	win	2023-06-28	00:26:09	00:46:52	1238921	63d79c120d736e870e993b8c	4	1	main_slash	11	main_slash	135	stimuli_distractor_diamondtriangles.svg	stimuli_target_squaretriangles.svg	15	yes	53	1	346	0	0			0	0			1				0	
6.6.1	win	2023-06-28	00:26:09	00:46:52	1238921	63d79c120d736e870e993b8c	4	1	main_slash	11	advance_on_keypress_SLASH	136	stimuli_distractor_diamondtriangles.svg	stimuli_target_squaretriangles.svg	15	yes	57	0	439	0	0			0	0			1				0	
6.6.1	win	2023-06-28	00:26:09	00:46:55	1242008	63d79c120d736e870e993b8c	4	1	main_slash	11	main_slash	137	stimuli_target_diamondsquares.svg	stimuli_distractor_trianglediamonds.svg	20	yes	0	0	2000	0	0			0	0			1				0	
6.6.1	win	2023-06-28	00:26:09	00:46:55	1242008	63d79c120d736e870e993b8c	4	1	main_slash	11	advance_on_keypress_SLASH	138	stimuli_target_diamondsquares.svg	stimuli_distractor_trianglediamonds.svg	20	yes	57	0	482	0	0			0	0			1				0	
6.6.1	win	2023-06-28	00:26:09	00:46:57	1243492	63d79c120d736e870e993b8c	4	1	main_slash	11	main_slash	139	stimuli_distractor_diamondtriangles.svg	stimuli_target_trianglerectangles.svg	29	yes	53	1	350	0	0			0	0			1				0	
6.6.1	win	2023-06-28	00:26:09	00:46:57	1243492	63d79c120d736e870e993b8c	4	1	main_slash	11	advance_on_keypress_SLASH	140	stimuli_distractor_diamondtriangles.svg	stimuli_target_trianglerectangles.svg	29	yes	57	0	435	0	0			0	0			1				0	
6.6.1	win	2023-06-28	00:26:09	00:46:58	1244969	63d79c120d736e870e993b8c	4	1	main_slash	11	main_slash	141	stimuli_distractor_trianglediamonds.svg	stimuli_target_diamondrectangles.svg	27	yes	53	1	394	0	0			0	0			1				0	
6.6.1	win	2023-06-28	00:26:09	00:46:58	1244969	63d79c120d736e870e993b8c	4	1	main_slash	11	advance_on_keypress_SLASH	142	stimuli_distractor_trianglediamonds.svg	stimuli_target_diamondrectangles.svg	27	yes	57	0	404	0	0			0	0			1				0	
6.6.1	win	2023-06-28	00:26:09	00:47:00	1246414	63d79c120d736e870e993b8c	4	1	main_slash	11	main_slash	143	stimuli_distractor_trianglediamonds.svg	stimuli_target_trianglerectangles.svg	25	yes	53	1	390	0	0			0	0			1				0	
6.6.1	win	2023-06-28	00:26:09	00:47:00	1246414	63d79c120d736e870e993b8c	4	1	main_slash	11	advance_on_keypress_SLASH	144	stimuli_distractor_trianglediamonds.svg	stimuli_target_trianglerectangles.svg	25	yes	57	0	395	0	0			0	0			1				0	
6.6.1	win	2023-06-28	00:26:09	00:47:01	1247784	63d79c120d736e870e993b8c	4	1	main_slash	11	main_slash	145	stimuli_distractor_diamondtriangles.svg	stimuli_target_trianglesquares.svg	30	yes	53	1	327	0	0			0	0			1				0	
6.6.1	win	2023-06-28	00:26:09	00:47:01	1247784	63d79c120d736e870e993b8c	4	1	main_slash	11	advance_on_keypress_SLASH	146	stimuli_distractor_diamondtriangles.svg	stimuli_target_trianglesquares.svg	30	yes	57	0	354	0	0			0	0			1				0	
6.6.1	win	2023-06-28	00:26:09	00:47:03	1249201	63d79c120d736e870e993b8c	4	1	main_slash	11	main_slash	147	stimuli_target_diamondsquares.svg	stimuli_distractor_diamondtriangles.svg	24	yes	53	1	411	0	0			0	0			1				0	
6.6.1	win	2023-06-28	00:26:09	00:47:03	1249201	63d79c120d736e870e993b8c	4	1	main_slash	11	advance_on_keypress_SLASH	148	stimuli_target_diamondsquares.svg	stimuli_distractor_diamondtriangles.svg	24	yes	57	0	380	0	0			0	0			1				0	
6.6.1	win	2023-06-28	00:26:09	00:47:04	1250518	63d79c120d736e870e993b8c	4	1	main_slash	11	main_slash	149	stimuli_target_trianglerectangles.svg	stimuli_distractor_trianglediamonds.svg	17	yes	53	1	277	0	0			0	0			1				0	
6.6.1	win	2023-06-28	00:26:09	00:47:04	1250518	63d79c120d736e870e993b8c	4	1	main_slash	11	advance_on_keypress_SLASH	150	stimuli_target_trianglerectangles.svg	stimuli_distractor_trianglediamonds.svg	17	yes	57	0	459	0	0			0	0			1				0	
6.6.1	win	2023-06-28	00:26:09	00:47:05	1252059	63d79c120d736e870e993b8c	4	1	main_slash	11	main_slash	151	stimuli_target_diamondrectangles.svg	stimuli_distractor_diamondtriangles.svg	23	yes	53	1	418	0	0			0	0			1				0	
6.6.1	win	2023-06-28	00:26:09	00:47:05	1252059	63d79c120d736e870e993b8c	4	1	main_slash	11	advance_on_keypress_SLASH	152	stimuli_target_diamondrectangles.svg	stimuli_distractor_diamondtriangles.svg	23	yes	57	0	409	0	0			0	0			1				0	
6.6.1	win	2023-06-28	00:26:09	00:47:08	1254473	63d79c120d736e870e993b8c	4	1	main_slash	11	main_slash	153	stimuli_target_squaretriangles.svg	stimuli_distractor_diamondtriangles.svg	7	yes	53	1	1350	0	0			0	0			1				0	
6.6.1	win	2023-06-28	00:26:09	00:47:08	1254473	63d79c120d736e870e993b8c	4	1	main_slash	11	advance_on_keypress_SLASH	154	stimuli_target_squaretriangles.svg	stimuli_distractor_diamondtriangles.svg	7	yes	57	0	514	0	0			0	0			1				0	
6.6.1	win	2023-06-28	00:26:09	00:47:10	1256518	63d79c120d736e870e993b8c	4	1	main_slash	11	main_slash	155	stimuli_distractor_trianglediamonds.svg	stimuli_target_rectangletriangles.svg	9	yes	53	1	878	0	0			0	0			1				0	
6.6.1	win	2023-06-28	00:26:09	00:47:10	1256518	63d79c120d736e870e993b8c	4	1	main_slash	11	advance_on_keypress_SLASH	156	stimuli_distractor_trianglediamonds.svg	stimuli_target_rectangletriangles.svg	9	yes	57	0	459	0	0			0	0			1				0	
6.6.1	win	2023-06-28	00:26:09	00:47:12	1258172	63d79c120d736e870e993b8c	4	1	main_slash	11	main_slash	157	stimuli_distractor_trianglediamonds.svg	stimuli_target_trianglesquares.svg	26	yes	53	1	550	0	0			0	0			1				0	
6.6.1	win	2023-06-28	00:26:09	00:47:12	1258172	63d79c120d736e870e993b8c	4	1	main_slash	11	advance_on_keypress_SLASH	158	stimuli_distractor_trianglediamonds.svg	stimuli_target_trianglesquares.svg	26	yes	57	0	891	0	0			0	0			1				0	
6.6.1	win	2023-06-28	00:26:09	00:47:13	1260106	63d79c120d736e870e993b8c	4	1	main_slash	11	main_slash	159	stimuli_distractor_trianglediamonds.svg	stimuli_distractor_diamondtriangles.svg	36	no	53	0	400	0	0			0	0			1				0	
6.6.1	win	2023-06-28	00:26:09	00:47:13	1260106	63d79c120d736e870e993b8c	4	1	main_slash	11	advance_on_keypress_SLASH	160	stimuli_distractor_trianglediamonds.svg	stimuli_distractor_diamondtriangles.svg	36	no	57	0	861	0	0			0	0			1				0	
6.6.1	win	2023-06-28	00:26:09	00:47:13	1260106	63d79c120d736e870e993b8c	4	1	headphonecheck_calibration	14	headphonecheck_calibrationIntro	1	stimuli_distractor_trianglediamonds.svg	stimuli_distractor_diamondtriangles.svg	36	no	calibrationButton	0	3034	0	0			0	0			1				0	
6.6.1	win	2023-06-28	00:26:09	00:47:13	1260106	63d79c120d736e870e993b8c	4	1	headphonecheck_testphase	15	test_collectResponse	3	stimuli_distractor_trianglediamonds.svg	stimuli_distractor_diamondtriangles.svg	36	no	third	1	150	1	2	antiphase_hc_ios.wav	3	0	0			1				0	
6.6.1	win	2023-06-28	00:26:09	00:47:13	1260106	63d79c120d736e870e993b8c	4	1	headphonecheck_testphase	15	test_collectResponse	6	stimuli_distractor_trianglediamonds.svg	stimuli_distractor_diamondtriangles.svg	36	no	first	1	269	2	3	antiphase_hc_soi.wav	1	0	0			1				0	
6.6.1	win	2023-06-28	00:26:09	00:47:13	1260106	63d79c120d736e870e993b8c	4	1	headphonecheck_testphase	15	test_collectResponse	9	stimuli_distractor_trianglediamonds.svg	stimuli_distractor_diamondtriangles.svg	36	no	first	1	182	3	4	antiphase_hc_sio.wav	1	0	0			1				0	
6.6.1	win	2023-06-28	00:26:09	00:47:13	1260106	63d79c120d736e870e993b8c	4	1	headphonecheck_testphase	15	test_collectResponse	12	stimuli_distractor_trianglediamonds.svg	stimuli_distractor_diamondtriangles.svg	36	no	third	1	97	4	6	antiphase_hc_ois.wav	3	0	0			1				0	
6.6.1	win	2023-06-28	00:26:09	00:47:13	1260106	63d79c120d736e870e993b8c	4	1	headphonecheck_testphase	15	test_collectResponse	15	stimuli_distractor_trianglediamonds.svg	stimuli_distractor_diamondtriangles.svg	36	no	second	1	1135	5	5	antiphase_hc_osi.wav	2	0	0			1				0	
6.6.1	win	2023-06-28	00:26:09	00:47:13	1260106	63d79c120d736e870e993b8c	4	1	headphonecheck_testphase	15	test_collectResponse	18	stimuli_distractor_trianglediamonds.svg	stimuli_distractor_diamondtriangles.svg	36	no	second	1	556	6	1	antiphase_hc_iso.wav	2	0	0			1				0	
6.6.1	win	2023-06-28	00:26:09	00:47:13	1260106	63d79c120d736e870e993b8c	4	1	stereocheck_calibration	17	stereocheck_calibrationIntro	1	stimuli_distractor_trianglediamonds.svg	stimuli_distractor_diamondtriangles.svg	36	no	stereocheck_calibrationButton	0	7569	6	1	antiphase_hc_iso.wav	2	0	0			1				0	
6.6.1	win	2023-06-28	00:26:09	00:47:13	1260106	63d79c120d736e870e993b8c	4	1	stereocheck_testphase	18	stereocheck_test_collectResponse	3	stimuli_distractor_trianglediamonds.svg	stimuli_distractor_diamondtriangles.svg	36	no	stereocheck_left	1	393	6	1	antiphase_hc_iso.wav	2	1	3	noise_calib_stim_LEFT.wav	1	1				0	
6.6.1	win	2023-06-28	00:26:09	00:47:13	1260106	63d79c120d736e870e993b8c	4	1	stereocheck_testphase	18	stereocheck_test_collectResponse	6	stimuli_distractor_trianglediamonds.svg	stimuli_distractor_diamondtriangles.svg	36	no	stereocheck_left	1	175	6	1	antiphase_hc_iso.wav	2	2	2	noise_calib_stim_LEFT.wav	1	1				0	
6.6.1	win	2023-06-28	00:26:09	00:47:13	1260106	63d79c120d736e870e993b8c	4	1	stereocheck_testphase	18	stereocheck_test_collectResponse	9	stimuli_distractor_trianglediamonds.svg	stimuli_distractor_diamondtriangles.svg	36	no	stereocheck_right	1	312	6	1	antiphase_hc_iso.wav	2	3	6	noise_calib_stim_RIGHT.wav	2	1				0	
6.6.1	win	2023-06-28	00:26:09	00:47:13	1260106	63d79c120d736e870e993b8c	4	1	stereocheck_testphase	18	stereocheck_test_collectResponse	12	stimuli_distractor_trianglediamonds.svg	stimuli_distractor_diamondtriangles.svg	36	no	stereocheck_right	1	329	6	1	antiphase_hc_iso.wav	2	4	5	noise_calib_stim_RIGHT.wav	2	1				0	
6.6.1	win	2023-06-28	00:26:09	00:47:13	1260106	63d79c120d736e870e993b8c	4	1	stereocheck_testphase	18	stereocheck_test_collectResponse	15	stimuli_distractor_trianglediamonds.svg	stimuli_distractor_diamondtriangles.svg	36	no	stereocheck_left	1	284	6	1	antiphase_hc_iso.wav	2	5	1	noise_calib_stim_LEFT.wav	1	1				0	
6.6.1	win	2023-06-28	00:26:09	00:47:13	1260106	63d79c120d736e870e993b8c	4	1	stereocheck_testphase	18	stereocheck_test_collectResponse	18	stimuli_distractor_trianglediamonds.svg	stimuli_distractor_diamondtriangles.svg	36	no	stereocheck_right	1	252	6	1	antiphase_hc_iso.wav	2	6	4	noise_calib_stim_RIGHT.wav	2	1				0	
6.6.1	win	2023-06-28	00:26:09	00:47:13	1260106	63d79c120d736e870e993b8c	4	1	DL_practice	21	DL_practice	2	stimuli_distractor_trianglediamonds.svg	stimuli_distractor_diamondtriangles.svg	36	no	ka	1	2114	6	1	antiphase_hc_iso.wav	2	6	4	noise_calib_stim_RIGHT.wav	2	23	blb_dichoticlistening_ka-pa.mp3	ka	pa	1	left
6.6.1	win	2023-06-28	00:26:09	00:47:13	1260106	63d79c120d736e870e993b8c	4	1	DL_practice	21	DL_practice	3	stimuli_distractor_trianglediamonds.svg	stimuli_distractor_diamondtriangles.svg	36	no	ba	1	1689	6	1	antiphase_hc_iso.wav	2	6	4	noise_calib_stim_RIGHT.wav	2	1	blb_dichoticlistening_ba-ba.mp3	ba	ba	0	left
6.6.1	win	2023-06-28	00:26:09	00:47:13	1260106	63d79c120d736e870e993b8c	4	1	DL_practice	21	DL_practice	4	stimuli_distractor_trianglediamonds.svg	stimuli_distractor_diamondtriangles.svg	36	no	ga	1	1033	6	1	antiphase_hc_iso.wav	2	6	4	noise_calib_stim_RIGHT.wav	2	15	blb_dichoticlistening_ga-ga.mp3	ga	ga	0	left
6.6.1	win	2023-06-28	00:26:09	00:47:13	1260106	63d79c120d736e870e993b8c	4	1	DL_practice	21	DL_practice	5	stimuli_distractor_trianglediamonds.svg	stimuli_distractor_diamondtriangles.svg	36	no	da	1	1547	6	1	antiphase_hc_iso.wav	2	6	4	noise_calib_stim_RIGHT.wav	2	7	blb_dichoticlistening_da-ba.mp3	da	ba	1	left
6.6.1	win	2023-06-28	00:26:09	00:47:13	1260106	63d79c120d736e870e993b8c	4	1	DL_practice	21	DL_practice	6	stimuli_distractor_trianglediamonds.svg	stimuli_distractor_diamondtriangles.svg	36	no	ka	1	1124	6	1	antiphase_hc_iso.wav	2	6	4	noise_calib_stim_RIGHT.wav	2	22	blb_dichoticlistening_ka-ka.mp3	ka	ka	0	left
6.6.1	win	2023-06-28	00:26:09	00:47:13	1260106	63d79c120d736e870e993b8c	4	1	DL_practice	21	DL_practice	7	stimuli_distractor_trianglediamonds.svg	stimuli_distractor_diamondtriangles.svg	36	no	pa	1	1012	6	1	antiphase_hc_iso.wav	2	6	4	noise_calib_stim_RIGHT.wav	2	29	blb_dichoticlistening_pa-pa.mp3	pa	pa	0	left
6.6.1	win	2023-06-28	00:26:09	00:47:13	1260106	63d79c120d736e870e993b8c	4	1	DL_practice	21	DL_practice	8	stimuli_distractor_trianglediamonds.svg	stimuli_distractor_diamondtriangles.svg	36	no	ka	0	1785	6	1	antiphase_hc_iso.wav	2	6	4	noise_calib_stim_RIGHT.wav	2	18	blb_dichoticlistening_ga-ta.mp3	ga	ta	1	other
6.6.1	win	2023-06-28	00:26:09	00:47:13	1260106	63d79c120d736e870e993b8c	4	1	DL_practice	21	DL_practice	9	stimuli_distractor_trianglediamonds.svg	stimuli_distractor_diamondtriangles.svg	36	no	ta	1	999	6	1	antiphase_hc_iso.wav	2	6	4	noise_calib_stim_RIGHT.wav	2	36	blb_dichoticlistening_ta-ta.mp3	ta	ta	0	left
6.6.1	win	2023-06-28	00:26:09	00:47:13	1260106	63d79c120d736e870e993b8c	4	1	DL_practice	21	DL_practice	10	stimuli_distractor_trianglediamonds.svg	stimuli_distractor_diamondtriangles.svg	36	no	da	1	912	6	1	antiphase_hc_iso.wav	2	6	4	noise_calib_stim_RIGHT.wav	2	8	blb_dichoticlistening_da-da.mp3	da	da	0	left
6.6.1	win	2023-06-28	00:26:09	00:47:13	1260106	63d79c120d736e870e993b8c	4	1	DL_test	23	DL_test	1	stimuli_distractor_trianglediamonds.svg	stimuli_distractor_diamondtriangles.svg	36	no	ga	1	1387	6	1	antiphase_hc_iso.wav	2	6	4	noise_calib_stim_RIGHT.wav	2	13	blb_dichoticlistening_ga-ba.mp3	ga	ba	1	left
6.6.1	win	2023-06-28	00:26:09	00:47:13	1260106	63d79c120d736e870e993b8c	4	1	DL_test	23	DL_test	2	stimuli_distractor_trianglediamonds.svg	stimuli_distractor_diamondtriangles.svg	36	no	ka	1	1180	6	1	antiphase_hc_iso.wav	2	6	4	noise_calib_stim_RIGHT.wav	2	28	blb_dichoticlistening_pa-ka.mp3	pa	ka	1	right
6.6.1	win	2023-06-28	00:26:09	00:47:13	1260106	63d79c120d736e870e993b8c	4	1	DL_test	23	DL_test	3	stimuli_distractor_trianglediamonds.svg	stimuli_distractor_diamondtriangles.svg	36	no	ka	1	1302	6	1	antiphase_hc_iso.wav	2	6	4	noise_calib_stim_RIGHT.wav	2	23	blb_dichoticlistening_ka-pa.mp3	ka	pa	1	left
6.6.1	win	2023-06-28	00:26:09	00:47:13	1260106	63d79c120d736e870e993b8c	4	1	DL_test	23	DL_test	4	stimuli_distractor_trianglediamonds.svg	stimuli_distractor_diamondtriangles.svg	36	no	ta	1	1493	6	1	antiphase_hc_iso.wav	2	6	4	noise_calib_stim_RIGHT.wav	2	6	blb_dichoticlistening_ba-ta.mp3	ba	ta	1	right
6.6.1	win	2023-06-28	00:26:09	00:47:13	1260106	63d79c120d736e870e993b8c	4	1	DL_test	23	DL_test	5	stimuli_distractor_trianglediamonds.svg	stimuli_distractor_diamondtriangles.svg	36	no	da	1	1189	6	1	antiphase_hc_iso.wav	2	6	4	noise_calib_stim_RIGHT.wav	2	7	blb_dichoticlistening_da-ba.mp3	da	ba	1	left
6.6.1	win	2023-06-28	00:26:09	00:47:13	1260106	63d79c120d736e870e993b8c	4	1	DL_test	23	DL_test	6	stimuli_distractor_trianglediamonds.svg	stimuli_distractor_diamondtriangles.svg	36	no	pa	1	1441	6	1	antiphase_hc_iso.wav	2	6	4	noise_calib_stim_RIGHT.wav	2	29	blb_dichoticlistening_pa-pa.mp3	pa	pa	0	left
6.6.1	win	2023-06-28	00:26:09	00:47:13	1260106	63d79c120d736e870e993b8c	4	1	DL_test	23	DL_test	7	stimuli_distractor_trianglediamonds.svg	stimuli_distractor_diamondtriangles.svg	36	no	ka	1	1048	6	1	antiphase_hc_iso.wav	2	6	4	noise_calib_stim_RIGHT.wav	2	34	blb_dichoticlistening_ta-ka.mp3	ta	ka	1	right
6.6.1	win	2023-06-28	00:26:09	00:47:13	1260106	63d79c120d736e870e993b8c	4	1	DL_test	23	DL_test	8	stimuli_distractor_trianglediamonds.svg	stimuli_distractor_diamondtriangles.svg	36	no	ba	1	1001	6	1	antiphase_hc_iso.wav	2	6	4	noise_calib_stim_RIGHT.wav	2	1	blb_dichoticlistening_ba-ba.mp3	ba	ba	0	left
6.6.1	win	2023-06-28	00:26:09	00:47:13	1260106	63d79c120d736e870e993b8c	4	1	DL_test	23	DL_test	9	stimuli_distractor_trianglediamonds.svg	stimuli_distractor_diamondtriangles.svg	36	no	ga	1	885	6	1	antiphase_hc_iso.wav	2	6	4	noise_calib_stim_RIGHT.wav	2	3	blb_dichoticlistening_ba-ga.mp3	ba	ga	1	right
6.6.1	win	2023-06-28	00:26:09	00:47:13	1260106	63d79c120d736e870e993b8c	4	1	DL_test	23	DL_test	10	stimuli_distractor_trianglediamonds.svg	stimuli_distractor_diamondtriangles.svg	36	no	ka	0	1189	6	1	antiphase_hc_iso.wav	2	6	4	noise_calib_stim_RIGHT.wav	2	18	blb_dichoticlistening_ga-ta.mp3	ga	ta	1	other
6.6.1	win	2023-06-28	00:26:09	00:47:13	1260106	63d79c120d736e870e993b8c	4	1	DL_test	23	DL_test	11	stimuli_distractor_trianglediamonds.svg	stimuli_distractor_diamondtriangles.svg	36	no	ga	0	3187	6	1	antiphase_hc_iso.wav	2	6	4	noise_calib_stim_RIGHT.wav	2	19	blb_dichoticlistening_ka-ba.mp3	ka	ba	1	other
6.6.1	win	2023-06-28	00:26:09	00:47:13	1260106	63d79c120d736e870e993b8c	4	1	DL_test	23	DL_test	12	stimuli_distractor_trianglediamonds.svg	stimuli_distractor_diamondtriangles.svg	36	no	da	1	1022	6	1	antiphase_hc_iso.wav	2	6	4	noise_calib_stim_RIGHT.wav	2	8	blb_dichoticlistening_da-da.mp3	da	da	0	left
6.6.1	win	2023-06-28	00:26:09	00:47:13	1260106	63d79c120d736e870e993b8c	4	1	DL_test	23	DL_test	13	stimuli_distractor_trianglediamonds.svg	stimuli_distractor_diamondtriangles.svg	36	no	ta	0	1112	6	1	antiphase_hc_iso.wav	2	6	4	noise_calib_stim_RIGHT.wav	2	27	blb_dichoticlistening_pa-ga.mp3	pa	ga	1	other
6.6.1	win	2023-06-28	00:26:09	00:47:13	1260106	63d79c120d736e870e993b8c	4	1	DL_test	23	DL_test	14	stimuli_distractor_trianglediamonds.svg	stimuli_distractor_diamondtriangles.svg	36	no	pa	0	1857	6	1	antiphase_hc_iso.wav	2	6	4	noise_calib_stim_RIGHT.wav	2	10	blb_dichoticlistening_da-ka.mp3	da	ka	1	other
6.6.1	win	2023-06-28	00:26:09	00:47:13	1260106	63d79c120d736e870e993b8c	4	1	DL_test	23	DL_test	15	stimuli_distractor_trianglediamonds.svg	stimuli_distractor_diamondtriangles.svg	36	no	ka	0	1015	6	1	antiphase_hc_iso.wav	2	6	4	noise_calib_stim_RIGHT.wav	2	33	blb_dichoticlistening_ta-ga.mp3	ta	ga	1	other
6.6.1	win	2023-06-28	00:26:09	00:47:13	1260106	63d79c120d736e870e993b8c	4	1	DL_test	23	DL_test	16	stimuli_distractor_trianglediamonds.svg	stimuli_distractor_diamondtriangles.svg	36	no	ka	1	1069	6	1	antiphase_hc_iso.wav	2	6	4	noise_calib_stim_RIGHT.wav	2	4	blb_dichoticlistening_ba-ka.mp3	ba	ka	1	right
6.6.1	win	2023-06-28	00:26:09	00:47:13	1260106	63d79c120d736e870e993b8c	4	1	DL_test	23	DL_test	17	stimuli_distractor_trianglediamonds.svg	stimuli_distractor_diamondtriangles.svg	36	no	ta	1	1720	6	1	antiphase_hc_iso.wav	2	6	4	noise_calib_stim_RIGHT.wav	2	36	blb_dichoticlistening_ta-ta.mp3	ta	ta	0	left
6.6.1	win	2023-06-28	00:26:09	00:47:13	1260106	63d79c120d736e870e993b8c	4	1	DL_test	23	DL_test	18	stimuli_distractor_trianglediamonds.svg	stimuli_distractor_diamondtriangles.svg	36	no	ka	1	1185	6	1	antiphase_hc_iso.wav	2	6	4	noise_calib_stim_RIGHT.wav	2	22	blb_dichoticlistening_ka-ka.mp3	ka	ka	0	left
6.6.1	win	2023-06-28	00:26:09	00:47:13	1260106	63d79c120d736e870e993b8c	4	1	DL_test	23	DL_test	19	stimuli_distractor_trianglediamonds.svg	stimuli_distractor_diamondtriangles.svg	36	no	ta	1	1947	6	1	antiphase_hc_iso.wav	2	6	4	noise_calib_stim_RIGHT.wav	2	12	blb_dichoticlistening_da-ta.mp3	da	ta	1	right
6.6.1	win	2023-06-28	00:26:09	00:47:13	1260106	63d79c120d736e870e993b8c	4	1	DL_test	23	DL_test	20	stimuli_distractor_trianglediamonds.svg	stimuli_distractor_diamondtriangles.svg	36	no	ka	0	2055	6	1	antiphase_hc_iso.wav	2	6	4	noise_calib_stim_RIGHT.wav	2	31	blb_dichoticlistening_ta-ba.mp3	ta	ba	1	other
6.6.1	win	2023-06-28	00:26:09	00:47:13	1260106	63d79c120d736e870e993b8c	4	1	DL_test	23	DL_test	21	stimuli_distractor_trianglediamonds.svg	stimuli_distractor_diamondtriangles.svg	36	no	ka	1	1134	6	1	antiphase_hc_iso.wav	2	6	4	noise_calib_stim_RIGHT.wav	2	20	blb_dichoticlistening_ka-da.mp3	ka	da	1	left
6.6.1	win	2023-06-28	00:26:09	00:47:13	1260106	63d79c120d736e870e993b8c	4	1	DL_test	23	DL_test	22	stimuli_distractor_trianglediamonds.svg	stimuli_distractor_diamondtriangles.svg	36	no	pa	1	1367	6	1	antiphase_hc_iso.wav	2	6	4	noise_calib_stim_RIGHT.wav	2	25	blb_dichoticlistening_pa-ba.mp3	pa	ba	1	left
6.6.1	win	2023-06-28	00:26:09	00:47:13	1260106	63d79c120d736e870e993b8c	4	1	DL_test	23	DL_test	23	stimuli_distractor_trianglediamonds.svg	stimuli_distractor_diamondtriangles.svg	36	no	ta	1	1218	6	1	antiphase_hc_iso.wav	2	6	4	noise_calib_stim_RIGHT.wav	2	35	blb_dichoticlistening_ta-pa.mp3	ta	pa	1	left
6.6.1	win	2023-06-28	00:26:09	00:47:13	1260106	63d79c120d736e870e993b8c	4	1	DL_test	23	DL_test	24	stimuli_distractor_trianglediamonds.svg	stimuli_distractor_diamondtriangles.svg	36	no	da	1	1067	6	1	antiphase_hc_iso.wav	2	6	4	noise_calib_stim_RIGHT.wav	2	11	blb_dichoticlistening_da-pa.mp3	da	pa	1	left
6.6.1	win	2023-06-28	00:26:09	00:47:13	1260106	63d79c120d736e870e993b8c	4	1	DL_test	23	DL_test	25	stimuli_distractor_trianglediamonds.svg	stimuli_distractor_diamondtriangles.svg	36	no	ka	1	1006	6	1	antiphase_hc_iso.wav	2	6	4	noise_calib_stim_RIGHT.wav	2	24	blb_dichoticlistening_ka-ta.mp3	ka	ta	1	left
