build	computer.platform	date	time	timestamp	time_elapsed_ms	subject	group	session	blockcode	blocknum	trialcode	trialnum	stimulus_left	stimulus_right	stim_index	target_present	response	correct	latency	headphonecheck_countTestTrials	headphonecheck_index	headphonecheck_testSound	headphonecheck_correctResponse	stereocheck_countTestTrials	stereocheck_index	stereocheck_testSound	stereocheck_correctResponse	DL_index	DL_soundfile	DL_leftSound	DL_rightSound	DL_dualSound	DL_choice
6.6.1	win	2023-07-10	03:12:33	03:15:28	170332	62cf2192b9212fc96a5b3917	4	1	practice_z	5	practice_z	1	stimuli_distractor_trianglediamonds.svg	stimuli_target_rectanglediamonds.svg	10	yes	44	1	396	0	0			0	0			1				0	
6.6.1	win	2023-07-10	03:12:33	03:15:28	170332	62cf2192b9212fc96a5b3917	4	1	practice_z	5	advance_on_keypress_ZEE	2	stimuli_distractor_trianglediamonds.svg	stimuli_target_rectanglediamonds.svg	10	yes	57	0	862	0	0			0	0			1				0	
6.6.1	win	2023-07-10	03:12:33	03:15:31	173213	62cf2192b9212fc96a5b3917	4	1	practice_z	5	practice_z	3	stimuli_target_squarediamonds.svg	stimuli_distractor_trianglediamonds.svg	5	yes	44	1	365	0	0			0	0			1				0	
6.6.1	win	2023-07-10	03:12:33	03:15:31	173213	62cf2192b9212fc96a5b3917	4	1	practice_z	5	advance_on_keypress_ZEE	4	stimuli_target_squarediamonds.svg	stimuli_distractor_trianglediamonds.svg	5	yes	57	0	406	0	0			0	0			1				0	
6.6.1	win	2023-07-10	03:12:33	03:15:35	176930	62cf2192b9212fc96a5b3917	4	1	practice_z	5	practice_z	5	stimuli_distractor_trianglediamonds.svg	stimuli_target_squarediamonds.svg	11	yes	44	1	1666	0	0			0	0			1				0	
6.6.1	win	2023-07-10	03:12:33	03:15:35	176930	62cf2192b9212fc96a5b3917	4	1	practice_z	5	advance_on_keypress_ZEE	6	stimuli_distractor_trianglediamonds.svg	stimuli_target_squarediamonds.svg	11	yes	57	0	2464	0	0			0	0			1				0	
6.6.1	win	2023-07-10	03:12:33	03:15:39	181509	62cf2192b9212fc96a5b3917	4	1	practice_z	5	practice_z	7	stimuli_distractor_trianglediamonds.svg	stimuli_distractor_diamondtriangles.svg	16	no	44	0	466	0	0			0	0			1				0	
6.6.1	win	2023-07-10	03:12:33	03:15:39	181509	62cf2192b9212fc96a5b3917	4	1	practice_z	5	advance_on_keypress_ZEE	8	stimuli_distractor_trianglediamonds.svg	stimuli_distractor_diamondtriangles.svg	16	no	57	0	603	0	0			0	0			1				0	
6.6.1	win	2023-07-10	03:12:33	03:15:44	185759	62cf2192b9212fc96a5b3917	4	1	practice_z	5	practice_z	9	stimuli_target_diamondsquares.svg	stimuli_distractor_trianglediamonds.svg	6	yes	0	0	2000	0	0			0	0			1				0	
6.6.1	win	2023-07-10	03:12:33	03:15:44	185759	62cf2192b9212fc96a5b3917	4	1	practice_z	5	advance_on_keypress_ZEE	10	stimuli_target_diamondsquares.svg	stimuli_distractor_trianglediamonds.svg	6	yes	57	0	908	0	0			0	0			1				0	
6.6.1	win	2023-07-10	03:12:33	03:15:47	189077	62cf2192b9212fc96a5b3917	4	1	practice_z	5	practice_z	11	stimuli_distractor_diamondtriangles.svg	stimuli_target_rectangletriangles.svg	7	yes	44	1	772	0	0			0	0			1				0	
6.6.1	win	2023-07-10	03:12:33	03:15:47	189077	62cf2192b9212fc96a5b3917	4	1	practice_z	5	advance_on_keypress_ZEE	12	stimuli_distractor_diamondtriangles.svg	stimuli_target_rectangletriangles.svg	7	yes	57	0	464	0	0			0	0			1				0	
6.6.1	win	2023-07-10	03:12:33	03:15:50	191829	62cf2192b9212fc96a5b3917	4	1	practice_z	5	practice_z	13	stimuli_target_diamondsquares.svg	stimuli_distractor_diamondtriangles.svg	3	yes	44	1	642	0	0			0	0			1				0	
6.6.1	win	2023-07-10	03:12:33	03:15:50	191829	62cf2192b9212fc96a5b3917	4	1	practice_z	5	advance_on_keypress_ZEE	14	stimuli_target_diamondsquares.svg	stimuli_distractor_diamondtriangles.svg	3	yes	57	0	421	0	0			0	0			1				0	
6.6.1	win	2023-07-10	03:12:33	03:15:54	195885	62cf2192b9212fc96a5b3917	4	1	practice_z	5	practice_z	15	stimuli_distractor_diamondtriangles.svg	stimuli_target_trianglerectangles.svg	9	yes	0	0	2000	0	0			0	0			1				0	
6.6.1	win	2023-07-10	03:12:33	03:15:54	195885	62cf2192b9212fc96a5b3917	4	1	practice_z	5	advance_on_keypress_ZEE	16	stimuli_distractor_diamondtriangles.svg	stimuli_target_trianglerectangles.svg	9	yes	57	0	944	0	0			0	0			1				0	
6.6.1	win	2023-07-10	03:12:33	03:15:58	200467	62cf2192b9212fc96a5b3917	4	1	practice_z	5	practice_z	17	stimuli_distractor_trianglediamonds.svg	stimuli_distractor_trianglediamonds.svg	15	no	0	1	2000	0	0			0	0			1				0	
6.6.1	win	2023-07-10	03:12:33	03:15:58	200467	62cf2192b9212fc96a5b3917	4	1	practice_z	5	advance_on_keypress_ZEE	18	stimuli_distractor_trianglediamonds.svg	stimuli_distractor_trianglediamonds.svg	15	no	57	0	1076	0	0			0	0			1				0	
6.6.1	win	2023-07-10	03:12:33	03:16:02	203694	62cf2192b9212fc96a5b3917	4	1	practice_z	5	practice_z	19	stimuli_target_squarediamonds.svg	stimuli_distractor_diamondtriangles.svg	2	yes	44	1	515	0	0			0	0			1				0	
6.6.1	win	2023-07-10	03:12:33	03:16:02	203694	62cf2192b9212fc96a5b3917	4	1	practice_z	5	advance_on_keypress_ZEE	20	stimuli_target_squarediamonds.svg	stimuli_distractor_diamondtriangles.svg	2	yes	57	0	325	0	0			0	0			1				0	
6.6.1	win	2023-07-10	03:12:33	03:16:04	205973	62cf2192b9212fc96a5b3917	4	1	practice_z	5	practice_z	21	stimuli_distractor_diamondtriangles.svg	stimuli_distractor_diamondtriangles.svg	13	no	44	0	311	0	0			0	0			1				0	
6.6.1	win	2023-07-10	03:12:33	03:16:04	205973	62cf2192b9212fc96a5b3917	4	1	practice_z	5	advance_on_keypress_ZEE	22	stimuli_distractor_diamondtriangles.svg	stimuli_distractor_diamondtriangles.svg	13	no	57	0	277	0	0			0	0			1				0	
6.6.1	win	2023-07-10	03:12:33	03:16:06	208211	62cf2192b9212fc96a5b3917	4	1	practice_z	5	practice_z	23	stimuli_target_rectanglediamonds.svg	stimuli_distractor_trianglediamonds.svg	4	yes	44	1	318	0	0			0	0			1				0	
6.6.1	win	2023-07-10	03:12:33	03:16:06	208211	62cf2192b9212fc96a5b3917	4	1	practice_z	5	advance_on_keypress_ZEE	24	stimuli_target_rectanglediamonds.svg	stimuli_distractor_trianglediamonds.svg	4	yes	57	0	259	0	0			0	0			1				0	
6.6.1	win	2023-07-10	03:12:33	03:16:08	210346	62cf2192b9212fc96a5b3917	4	1	practice_z	5	practice_z	25	stimuli_distractor_diamondtriangles.svg	stimuli_target_diamondrectangles.svg	8	yes	44	1	237	0	0			0	0			1				0	
6.6.1	win	2023-07-10	03:12:33	03:16:08	210346	62cf2192b9212fc96a5b3917	4	1	practice_z	5	advance_on_keypress_ZEE	26	stimuli_distractor_diamondtriangles.svg	stimuli_target_diamondrectangles.svg	8	yes	57	0	181	0	0			0	0			1				0	
6.6.1	win	2023-07-10	03:12:33	03:16:11	212655	62cf2192b9212fc96a5b3917	4	1	practice_z	5	practice_z	27	stimuli_target_rectanglediamonds.svg	stimuli_distractor_diamondtriangles.svg	1	yes	44	1	481	0	0			0	0			1				0	
6.6.1	win	2023-07-10	03:12:33	03:16:11	212655	62cf2192b9212fc96a5b3917	4	1	practice_z	5	advance_on_keypress_ZEE	28	stimuli_target_rectanglediamonds.svg	stimuli_distractor_diamondtriangles.svg	1	yes	57	0	375	0	0			0	0			1				0	
6.6.1	win	2023-07-10	03:12:33	03:16:15	216672	62cf2192b9212fc96a5b3917	4	1	practice_z	5	practice_z	29	stimuli_distractor_diamondtriangles.svg	stimuli_distractor_trianglediamonds.svg	14	no	0	1	2000	0	0			0	0			1				0	
6.6.1	win	2023-07-10	03:12:33	03:16:15	216672	62cf2192b9212fc96a5b3917	4	1	practice_z	5	advance_on_keypress_ZEE	30	stimuli_distractor_diamondtriangles.svg	stimuli_distractor_trianglediamonds.svg	14	no	57	0	974	0	0			0	0			1				0	
6.6.1	win	2023-07-10	03:12:33	03:16:19	221287	62cf2192b9212fc96a5b3917	4	1	practice_z	5	practice_z	31	stimuli_distractor_trianglediamonds.svg	stimuli_target_diamondrectangles.svg	12	yes	0	0	2000	0	0			0	0			1				0	
6.6.1	win	2023-07-10	03:12:33	03:16:19	221287	62cf2192b9212fc96a5b3917	4	1	practice_z	5	advance_on_keypress_ZEE	32	stimuli_distractor_trianglediamonds.svg	stimuli_target_diamondrectangles.svg	12	yes	57	0	974	0	0			0	0			1				0	
6.6.1	win	2023-07-10	03:12:33	03:16:27	229428	62cf2192b9212fc96a5b3917	4	1	main_z	7	main_z	1	stimuli_target_trianglerectangles.svg	stimuli_distractor_diamondtriangles.svg	21	yes	44	1	658	0	0			0	0			1				0	
6.6.1	win	2023-07-10	03:12:33	03:16:27	229428	62cf2192b9212fc96a5b3917	4	1	main_z	7	advance_on_keypress_ZEE	2	stimuli_target_trianglerectangles.svg	stimuli_distractor_diamondtriangles.svg	21	yes	57	0	954	0	0			0	0			1				0	
6.6.1	win	2023-07-10	03:12:33	03:16:29	231592	62cf2192b9212fc96a5b3917	4	1	main_z	7	main_z	3	stimuli_target_rectanglediamonds.svg	stimuli_distractor_diamondtriangles.svg	6	yes	44	1	566	0	0			0	0			1				0	
6.6.1	win	2023-07-10	03:12:33	03:16:29	231592	62cf2192b9212fc96a5b3917	4	1	main_z	7	advance_on_keypress_ZEE	4	stimuli_target_rectanglediamonds.svg	stimuli_distractor_diamondtriangles.svg	6	yes	57	0	724	0	0			0	0			1				0	
6.6.1	win	2023-07-10	03:12:33	03:16:31	233459	62cf2192b9212fc96a5b3917	4	1	main_z	7	main_z	5	stimuli_distractor_diamondtriangles.svg	stimuli_distractor_diamondtriangles.svg	39	no	44	0	499	0	0			0	0			1				0	
6.6.1	win	2023-07-10	03:12:33	03:16:31	233459	62cf2192b9212fc96a5b3917	4	1	main_z	7	advance_on_keypress_ZEE	6	stimuli_distractor_diamondtriangles.svg	stimuli_distractor_diamondtriangles.svg	39	no	57	0	554	0	0			0	0			1				0	
6.6.1	win	2023-07-10	03:12:33	03:16:35	236658	62cf2192b9212fc96a5b3917	4	1	main_z	7	main_z	7	stimuli_distractor_trianglediamonds.svg	stimuli_distractor_trianglediamonds.svg	33	no	0	1	2000	0	0			0	0			1				0	
6.6.1	win	2023-07-10	03:12:33	03:16:35	236658	62cf2192b9212fc96a5b3917	4	1	main_z	7	advance_on_keypress_ZEE	8	stimuli_distractor_trianglediamonds.svg	stimuli_distractor_trianglediamonds.svg	33	no	57	0	890	0	0			0	0			1				0	
6.6.1	win	2023-07-10	03:12:33	03:16:37	239302	62cf2192b9212fc96a5b3917	4	1	main_z	7	main_z	9	stimuli_distractor_diamondtriangles.svg	stimuli_target_squarediamonds.svg	16	yes	44	1	1114	0	0			0	0			1				0	
6.6.1	win	2023-07-10	03:12:33	03:16:37	239302	62cf2192b9212fc96a5b3917	4	1	main_z	7	advance_on_keypress_ZEE	10	stimuli_distractor_diamondtriangles.svg	stimuli_target_squarediamonds.svg	16	yes	57	0	815	0	0			0	0			1				0	
6.6.1	win	2023-07-10	03:12:33	03:16:39	241557	62cf2192b9212fc96a5b3917	4	1	main_z	7	main_z	11	stimuli_distractor_trianglediamonds.svg	stimuli_target_diamondrectangles.svg	27	yes	44	1	786	0	0			0	0			1				0	
6.6.1	win	2023-07-10	03:12:33	03:16:39	241557	62cf2192b9212fc96a5b3917	4	1	main_z	7	advance_on_keypress_ZEE	12	stimuli_distractor_trianglediamonds.svg	stimuli_target_diamondrectangles.svg	27	yes	57	0	615	0	0			0	0			1				0	
6.6.1	win	2023-07-10	03:12:33	03:16:43	244819	62cf2192b9212fc96a5b3917	4	1	main_z	7	main_z	13	stimuli_target_diamondsquares.svg	stimuli_distractor_trianglediamonds.svg	20	yes	0	0	2000	0	0			0	0			1				0	
6.6.1	win	2023-07-10	03:12:33	03:16:43	244819	62cf2192b9212fc96a5b3917	4	1	main_z	7	advance_on_keypress_ZEE	14	stimuli_target_diamondsquares.svg	stimuli_distractor_trianglediamonds.svg	20	yes	57	0	390	0	0			0	0			1				0	
6.6.1	win	2023-07-10	03:12:33	03:16:45	246766	62cf2192b9212fc96a5b3917	4	1	main_z	7	main_z	15	stimuli_distractor_diamondtriangles.svg	stimuli_distractor_trianglediamonds.svg	37	no	44	0	916	0	0			0	0			1				0	
6.6.1	win	2023-07-10	03:12:33	03:16:45	246766	62cf2192b9212fc96a5b3917	4	1	main_z	7	advance_on_keypress_ZEE	16	stimuli_distractor_diamondtriangles.svg	stimuli_distractor_trianglediamonds.svg	37	no	57	0	955	0	0			0	0			1				0	
6.6.1	win	2023-07-10	03:12:33	03:16:47	249606	62cf2192b9212fc96a5b3917	4	1	main_z	7	main_z	17	stimuli_distractor_diamondtriangles.svg	stimuli_target_trianglesquares.svg	30	yes	44	1	1240	0	0			0	0			1				0	
6.6.1	win	2023-07-10	03:12:33	03:16:47	249606	62cf2192b9212fc96a5b3917	4	1	main_z	7	advance_on_keypress_ZEE	18	stimuli_distractor_diamondtriangles.svg	stimuli_target_trianglesquares.svg	30	yes	57	0	678	0	0			0	0			1				0	
6.6.1	win	2023-07-10	03:12:33	03:16:51	252915	62cf2192b9212fc96a5b3917	4	1	main_z	7	main_z	19	stimuli_distractor_trianglediamonds.svg	stimuli_distractor_trianglediamonds.svg	34	no	0	1	2000	0	0			0	0			1				0	
6.6.1	win	2023-07-10	03:12:33	03:16:51	252915	62cf2192b9212fc96a5b3917	4	1	main_z	7	advance_on_keypress_ZEE	20	stimuli_distractor_trianglediamonds.svg	stimuli_distractor_trianglediamonds.svg	34	no	57	0	433	0	0			0	0			1				0	
6.6.1	win	2023-07-10	03:12:33	03:16:53	254789	62cf2192b9212fc96a5b3917	4	1	main_z	7	main_z	21	stimuli_distractor_trianglediamonds.svg	stimuli_target_trianglesquares.svg	26	yes	44	1	794	0	0			0	0			1				0	
6.6.1	win	2023-07-10	03:12:33	03:16:53	254789	62cf2192b9212fc96a5b3917	4	1	main_z	7	advance_on_keypress_ZEE	22	stimuli_distractor_trianglediamonds.svg	stimuli_target_trianglesquares.svg	26	yes	57	0	1209	0	0			0	0			1				0	
6.6.1	win	2023-07-10	03:12:33	03:16:57	258627	62cf2192b9212fc96a5b3917	4	1	main_z	7	main_z	23	stimuli_distractor_diamondtriangles.svg	stimuli_target_diamondsquares.svg	32	yes	0	0	2000	0	0			0	0			1				0	
6.6.1	win	2023-07-10	03:12:33	03:16:57	258627	62cf2192b9212fc96a5b3917	4	1	main_z	7	advance_on_keypress_ZEE	24	stimuli_distractor_diamondtriangles.svg	stimuli_target_diamondsquares.svg	32	yes	57	0	75	0	0			0	0			1				0	
6.6.1	win	2023-07-10	03:12:33	03:16:59	261342	62cf2192b9212fc96a5b3917	4	1	main_z	7	main_z	25	stimuli_target_squaretriangles.svg	stimuli_distractor_trianglediamonds.svg	3	yes	0	0	2000	0	0			0	0			1				0	
6.6.1	win	2023-07-10	03:12:33	03:16:59	261342	62cf2192b9212fc96a5b3917	4	1	main_z	7	advance_on_keypress_ZEE	26	stimuli_target_squaretriangles.svg	stimuli_distractor_trianglediamonds.svg	3	yes	57	0	186929	0	0			0	0			1				0	
6.6.1	win	2023-07-10	03:12:33	03:20:08	450071	62cf2192b9212fc96a5b3917	4	1	main_z	7	main_z	27	stimuli_target_trianglesquares.svg	stimuli_distractor_trianglediamonds.svg	18	yes	44	1	1150	0	0			0	0			1				0	
6.6.1	win	2023-07-10	03:12:33	03:20:08	450071	62cf2192b9212fc96a5b3917	4	1	main_z	7	advance_on_keypress_ZEE	28	stimuli_target_trianglesquares.svg	stimuli_distractor_trianglediamonds.svg	18	yes	57	0	1022	0	0			0	0			1				0	
6.6.1	win	2023-07-10	03:12:33	03:20:12	453736	62cf2192b9212fc96a5b3917	4	1	main_z	7	main_z	29	stimuli_target_diamondsquares.svg	stimuli_distractor_diamondtriangles.svg	24	yes	0	0	2000	0	0			0	0			1				0	
6.6.1	win	2023-07-10	03:12:33	03:20:12	453736	62cf2192b9212fc96a5b3917	4	1	main_z	7	advance_on_keypress_ZEE	30	stimuli_target_diamondsquares.svg	stimuli_distractor_diamondtriangles.svg	24	yes	57	0	719	0	0			0	0			1				0	
6.6.1	win	2023-07-10	03:12:33	03:20:14	455756	62cf2192b9212fc96a5b3917	4	1	main_z	7	main_z	31	stimuli_distractor_trianglediamonds.svg	stimuli_distractor_diamondtriangles.svg	35	no	44	0	656	0	0			0	0			1				0	
6.6.1	win	2023-07-10	03:12:33	03:20:14	455756	62cf2192b9212fc96a5b3917	4	1	main_z	7	advance_on_keypress_ZEE	32	stimuli_distractor_trianglediamonds.svg	stimuli_distractor_diamondtriangles.svg	35	no	57	0	716	0	0			0	0			1				0	
6.6.1	win	2023-07-10	03:12:33	03:20:16	457729	62cf2192b9212fc96a5b3917	4	1	main_z	7	main_z	33	stimuli_distractor_diamondtriangles.svg	stimuli_target_rectanglediamonds.svg	14	yes	44	1	612	0	0			0	0			1				0	
6.6.1	win	2023-07-10	03:12:33	03:20:16	457729	62cf2192b9212fc96a5b3917	4	1	main_z	7	advance_on_keypress_ZEE	34	stimuli_distractor_diamondtriangles.svg	stimuli_target_rectanglediamonds.svg	14	yes	57	0	381	0	0			0	0			1				0	
6.6.1	win	2023-07-10	03:12:33	03:20:17	458967	62cf2192b9212fc96a5b3917	4	1	main_z	7	main_z	35	stimuli_distractor_diamondtriangles.svg	stimuli_target_diamondrectangles.svg	31	yes	44	1	201	0	0			0	0			1				0	
6.6.1	win	2023-07-10	03:12:33	03:20:17	458967	62cf2192b9212fc96a5b3917	4	1	main_z	7	advance_on_keypress_ZEE	36	stimuli_distractor_diamondtriangles.svg	stimuli_target_diamondrectangles.svg	31	yes	57	0	539	0	0			0	0			1				0	
6.6.1	win	2023-07-10	03:12:33	03:20:18	460409	62cf2192b9212fc96a5b3917	4	1	main_z	7	main_z	37	stimuli_target_diamondrectangles.svg	stimuli_distractor_trianglediamonds.svg	19	yes	44	1	262	0	0			0	0			1				0	
6.6.1	win	2023-07-10	03:12:33	03:20:18	460409	62cf2192b9212fc96a5b3917	4	1	main_z	7	advance_on_keypress_ZEE	38	stimuli_target_diamondrectangles.svg	stimuli_distractor_trianglediamonds.svg	19	yes	57	0	396	0	0			0	0			1				0	
6.6.1	win	2023-07-10	03:12:33	03:20:20	461929	62cf2192b9212fc96a5b3917	4	1	main_z	7	main_z	39	stimuli_target_trianglesquares.svg	stimuli_distractor_diamondtriangles.svg	22	yes	44	1	466	0	0			0	0			1				0	
6.6.1	win	2023-07-10	03:12:33	03:20:20	461929	62cf2192b9212fc96a5b3917	4	1	main_z	7	advance_on_keypress_ZEE	40	stimuli_target_trianglesquares.svg	stimuli_distractor_diamondtriangles.svg	22	yes	57	0	293	0	0			0	0			1				0	
6.6.1	win	2023-07-10	03:12:33	03:20:21	463312	62cf2192b9212fc96a5b3917	4	1	main_z	7	main_z	41	stimuli_distractor_trianglediamonds.svg	stimuli_target_squarediamonds.svg	12	yes	44	1	449	0	0			0	0			1				0	
6.6.1	win	2023-07-10	03:12:33	03:20:21	463312	62cf2192b9212fc96a5b3917	4	1	main_z	7	advance_on_keypress_ZEE	42	stimuli_distractor_trianglediamonds.svg	stimuli_target_squarediamonds.svg	12	yes	57	0	292	0	0			0	0			1				0	
6.6.1	win	2023-07-10	03:12:33	03:20:23	464659	62cf2192b9212fc96a5b3917	4	1	main_z	7	main_z	43	stimuli_target_rectangletriangles.svg	stimuli_distractor_diamondtriangles.svg	5	yes	44	1	414	0	0			0	0			1				0	
6.6.1	win	2023-07-10	03:12:33	03:20:23	464659	62cf2192b9212fc96a5b3917	4	1	main_z	7	advance_on_keypress_ZEE	44	stimuli_target_rectangletriangles.svg	stimuli_distractor_diamondtriangles.svg	5	yes	57	0	307	0	0			0	0			1				0	
6.6.1	win	2023-07-10	03:12:33	03:20:24	465987	62cf2192b9212fc96a5b3917	4	1	main_z	7	main_z	45	stimuli_distractor_trianglediamonds.svg	stimuli_target_rectanglediamonds.svg	10	yes	44	1	377	0	0			0	0			1				0	
6.6.1	win	2023-07-10	03:12:33	03:20:24	465987	62cf2192b9212fc96a5b3917	4	1	main_z	7	advance_on_keypress_ZEE	46	stimuli_distractor_trianglediamonds.svg	stimuli_target_rectanglediamonds.svg	10	yes	57	0	343	0	0			0	0			1				0	
6.6.1	win	2023-07-10	03:12:33	03:20:25	467332	62cf2192b9212fc96a5b3917	4	1	main_z	7	main_z	47	stimuli_distractor_trianglediamonds.svg	stimuli_distractor_diamondtriangles.svg	36	no	44	0	373	0	0			0	0			1				0	
6.6.1	win	2023-07-10	03:12:33	03:20:25	467332	62cf2192b9212fc96a5b3917	4	1	main_z	7	advance_on_keypress_ZEE	48	stimuli_distractor_trianglediamonds.svg	stimuli_distractor_diamondtriangles.svg	36	no	57	0	330	0	0			0	0			1				0	
6.6.1	win	2023-07-10	03:12:33	03:20:27	468831	62cf2192b9212fc96a5b3917	4	1	main_z	7	main_z	49	stimuli_target_squarediamonds.svg	stimuli_distractor_diamondtriangles.svg	8	yes	44	1	522	0	0			0	0			1				0	
6.6.1	win	2023-07-10	03:12:33	03:20:27	468831	62cf2192b9212fc96a5b3917	4	1	main_z	7	advance_on_keypress_ZEE	50	stimuli_target_squarediamonds.svg	stimuli_distractor_diamondtriangles.svg	8	yes	57	0	255	0	0			0	0			1				0	
6.6.1	win	2023-07-10	03:12:33	03:20:30	471725	62cf2192b9212fc96a5b3917	4	1	main_z	7	main_z	51	stimuli_target_squarediamonds.svg	stimuli_distractor_trianglediamonds.svg	4	yes	0	0	2000	0	0			0	0			1				0	
6.6.1	win	2023-07-10	03:12:33	03:20:30	471725	62cf2192b9212fc96a5b3917	4	1	main_z	7	advance_on_keypress_ZEE	52	stimuli_target_squarediamonds.svg	stimuli_distractor_trianglediamonds.svg	4	yes	57	0	315	0	0			0	0			1				0	
6.6.1	win	2023-07-10	03:12:33	03:20:31	473175	62cf2192b9212fc96a5b3917	4	1	main_z	7	main_z	53	stimuli_distractor_diamondtriangles.svg	stimuli_target_trianglerectangles.svg	29	yes	44	1	486	0	0			0	0			1				0	
6.6.1	win	2023-07-10	03:12:33	03:20:31	473175	62cf2192b9212fc96a5b3917	4	1	main_z	7	advance_on_keypress_ZEE	54	stimuli_distractor_diamondtriangles.svg	stimuli_target_trianglerectangles.svg	29	yes	57	0	361	0	0			0	0			1				0	
6.6.1	win	2023-07-10	03:12:33	03:20:32	474531	62cf2192b9212fc96a5b3917	4	1	main_z	7	main_z	55	stimuli_distractor_diamondtriangles.svg	stimuli_target_rectangletriangles.svg	13	yes	44	1	359	0	0			0	0			1				0	
6.6.1	win	2023-07-10	03:12:33	03:20:32	474531	62cf2192b9212fc96a5b3917	4	1	main_z	7	advance_on_keypress_ZEE	56	stimuli_distractor_diamondtriangles.svg	stimuli_target_rectangletriangles.svg	13	yes	57	0	409	0	0			0	0			1				0	
6.6.1	win	2023-07-10	03:12:33	03:20:34	476040	62cf2192b9212fc96a5b3917	4	1	main_z	7	main_z	57	stimuli_target_rectangletriangles.svg	stimuli_distractor_trianglediamonds.svg	1	yes	44	1	469	0	0			0	0			1				0	
6.6.1	win	2023-07-10	03:12:33	03:20:34	476040	62cf2192b9212fc96a5b3917	4	1	main_z	7	advance_on_keypress_ZEE	58	stimuli_target_rectangletriangles.svg	stimuli_distractor_trianglediamonds.svg	1	yes	57	0	470	0	0			0	0			1				0	
6.6.1	win	2023-07-10	03:12:33	03:20:36	478045	62cf2192b9212fc96a5b3917	4	1	main_z	7	main_z	59	stimuli_distractor_diamondtriangles.svg	stimuli_target_squaretriangles.svg	15	yes	44	1	892	0	0			0	0			1				0	
6.6.1	win	2023-07-10	03:12:33	03:20:36	478045	62cf2192b9212fc96a5b3917	4	1	main_z	7	advance_on_keypress_ZEE	60	stimuli_distractor_diamondtriangles.svg	stimuli_target_squaretriangles.svg	15	yes	57	0	885	0	0			0	0			1				0	
6.6.1	win	2023-07-10	03:12:33	03:20:39	481568	62cf2192b9212fc96a5b3917	4	1	main_z	7	main_z	61	stimuli_target_trianglerectangles.svg	stimuli_distractor_trianglediamonds.svg	17	yes	0	0	2000	0	0			0	0			1				0	
6.6.1	win	2023-07-10	03:12:33	03:20:39	481568	62cf2192b9212fc96a5b3917	4	1	main_z	7	advance_on_keypress_ZEE	62	stimuli_target_trianglerectangles.svg	stimuli_distractor_trianglediamonds.svg	17	yes	57	0	361	0	0			0	0			1				0	
6.6.1	win	2023-07-10	03:12:33	03:20:41	482827	62cf2192b9212fc96a5b3917	4	1	main_z	7	main_z	63	stimuli_distractor_diamondtriangles.svg	stimuli_distractor_trianglediamonds.svg	38	no	44	0	244	0	0			0	0			1				0	
6.6.1	win	2023-07-10	03:12:33	03:20:41	482827	62cf2192b9212fc96a5b3917	4	1	main_z	7	advance_on_keypress_ZEE	64	stimuli_distractor_diamondtriangles.svg	stimuli_distractor_trianglediamonds.svg	38	no	57	0	447	0	0			0	0			1				0	
6.6.1	win	2023-07-10	03:12:33	03:20:42	484249	62cf2192b9212fc96a5b3917	4	1	main_z	7	main_z	65	stimuli_distractor_trianglediamonds.svg	stimuli_target_diamondsquares.svg	28	yes	44	1	333	0	0			0	0			1				0	
6.6.1	win	2023-07-10	03:12:33	03:20:42	484249	62cf2192b9212fc96a5b3917	4	1	main_z	7	advance_on_keypress_ZEE	66	stimuli_distractor_trianglediamonds.svg	stimuli_target_diamondsquares.svg	28	yes	57	0	364	0	0			0	0			1				0	
6.6.1	win	2023-07-10	03:12:33	03:20:44	485844	62cf2192b9212fc96a5b3917	4	1	main_z	7	main_z	67	stimuli_distractor_trianglediamonds.svg	stimuli_target_squaretriangles.svg	11	yes	44	1	578	0	0			0	0			1				0	
6.6.1	win	2023-07-10	03:12:33	03:20:44	485844	62cf2192b9212fc96a5b3917	4	1	main_z	7	advance_on_keypress_ZEE	68	stimuli_distractor_trianglediamonds.svg	stimuli_target_squaretriangles.svg	11	yes	57	0	285	0	0			0	0			1				0	
6.6.1	win	2023-07-10	03:12:33	03:20:45	487148	62cf2192b9212fc96a5b3917	4	1	main_z	7	main_z	69	stimuli_target_diamondrectangles.svg	stimuli_distractor_diamondtriangles.svg	23	yes	44	1	383	0	0			0	0			1				0	
6.6.1	win	2023-07-10	03:12:33	03:20:45	487148	62cf2192b9212fc96a5b3917	4	1	main_z	7	advance_on_keypress_ZEE	70	stimuli_target_diamondrectangles.svg	stimuli_distractor_diamondtriangles.svg	23	yes	57	0	406	0	0			0	0			1				0	
6.6.1	win	2023-07-10	03:12:33	03:20:47	488652	62cf2192b9212fc96a5b3917	4	1	main_z	7	main_z	71	stimuli_distractor_trianglediamonds.svg	stimuli_target_rectangletriangles.svg	9	yes	44	1	456	0	0			0	0			1				0	
6.6.1	win	2023-07-10	03:12:33	03:20:47	488652	62cf2192b9212fc96a5b3917	4	1	main_z	7	advance_on_keypress_ZEE	72	stimuli_distractor_trianglediamonds.svg	stimuli_target_rectangletriangles.svg	9	yes	57	0	525	0	0			0	0			1				0	
6.6.1	win	2023-07-10	03:12:33	03:20:48	490184	62cf2192b9212fc96a5b3917	4	1	main_z	7	main_z	73	stimuli_distractor_diamondtriangles.svg	stimuli_distractor_diamondtriangles.svg	40	no	44	0	373	0	0			0	0			1				0	
6.6.1	win	2023-07-10	03:12:33	03:20:48	490184	62cf2192b9212fc96a5b3917	4	1	main_z	7	advance_on_keypress_ZEE	74	stimuli_distractor_diamondtriangles.svg	stimuli_distractor_diamondtriangles.svg	40	no	57	0	522	0	0			0	0			1				0	
6.6.1	win	2023-07-10	03:12:33	03:20:50	491769	62cf2192b9212fc96a5b3917	4	1	main_z	7	main_z	75	stimuli_target_rectanglediamonds.svg	stimuli_distractor_trianglediamonds.svg	2	yes	44	1	425	0	0			0	0			1				0	
6.6.1	win	2023-07-10	03:12:33	03:20:50	491769	62cf2192b9212fc96a5b3917	4	1	main_z	7	advance_on_keypress_ZEE	76	stimuli_target_rectanglediamonds.svg	stimuli_distractor_trianglediamonds.svg	2	yes	57	0	447	0	0			0	0			1				0	
6.6.1	win	2023-07-10	03:12:33	03:20:51	493379	62cf2192b9212fc96a5b3917	4	1	main_z	7	main_z	77	stimuli_target_squaretriangles.svg	stimuli_distractor_diamondtriangles.svg	7	yes	44	1	519	0	0			0	0			1				0	
6.6.1	win	2023-07-10	03:12:33	03:20:51	493379	62cf2192b9212fc96a5b3917	4	1	main_z	7	advance_on_keypress_ZEE	78	stimuli_target_squaretriangles.svg	stimuli_distractor_diamondtriangles.svg	7	yes	57	0	441	0	0			0	0			1				0	
6.6.1	win	2023-07-10	03:12:33	03:20:54	496459	62cf2192b9212fc96a5b3917	4	1	main_z	7	main_z	79	stimuli_distractor_trianglediamonds.svg	stimuli_target_trianglerectangles.svg	25	yes	0	0	2000	0	0			0	0			1				0	
6.6.1	win	2023-07-10	03:12:33	03:20:54	496459	62cf2192b9212fc96a5b3917	4	1	main_z	7	advance_on_keypress_ZEE	80	stimuli_distractor_trianglediamonds.svg	stimuli_target_trianglerectangles.svg	25	yes	57	0	1077	0	0			0	0			1				0	
6.6.1	win	2023-07-10	03:12:33	03:20:56	498530	62cf2192b9212fc96a5b3917	4	1	main_z	7	main_z	81	stimuli_distractor_diamondtriangles.svg	stimuli_target_rectanglediamonds.svg	14	yes	44	1	356	0	0			0	0			1				0	
6.6.1	win	2023-07-10	03:12:33	03:20:56	498530	62cf2192b9212fc96a5b3917	4	1	main_z	7	advance_on_keypress_ZEE	82	stimuli_distractor_diamondtriangles.svg	stimuli_target_rectanglediamonds.svg	14	yes	57	0	478	0	0			0	0			1				0	
6.6.1	win	2023-07-10	03:12:33	03:20:58	499948	62cf2192b9212fc96a5b3917	4	1	main_z	7	main_z	83	stimuli_distractor_diamondtriangles.svg	stimuli_target_squarediamonds.svg	16	yes	44	1	309	0	0			0	0			1				0	
6.6.1	win	2023-07-10	03:12:33	03:20:58	499948	62cf2192b9212fc96a5b3917	4	1	main_z	7	advance_on_keypress_ZEE	84	stimuli_distractor_diamondtriangles.svg	stimuli_target_squarediamonds.svg	16	yes	57	0	478	0	0			0	0			1				0	
6.6.1	win	2023-07-10	03:12:33	03:20:59	501405	62cf2192b9212fc96a5b3917	4	1	main_z	7	main_z	85	stimuli_distractor_diamondtriangles.svg	stimuli_target_squaretriangles.svg	15	yes	44	1	351	0	0			0	0			1				0	
6.6.1	win	2023-07-10	03:12:33	03:20:59	501405	62cf2192b9212fc96a5b3917	4	1	main_z	7	advance_on_keypress_ZEE	86	stimuli_distractor_diamondtriangles.svg	stimuli_target_squaretriangles.svg	15	yes	57	0	361	0	0			0	0			1				0	
6.6.1	win	2023-07-10	03:12:33	03:21:01	502856	62cf2192b9212fc96a5b3917	4	1	main_z	7	main_z	87	stimuli_distractor_trianglediamonds.svg	stimuli_target_squaretriangles.svg	11	yes	44	1	452	0	0			0	0			1				0	
6.6.1	win	2023-07-10	03:12:33	03:21:01	502856	62cf2192b9212fc96a5b3917	4	1	main_z	7	advance_on_keypress_ZEE	88	stimuli_distractor_trianglediamonds.svg	stimuli_target_squaretriangles.svg	11	yes	57	0	400	0	0			0	0			1				0	
6.6.1	win	2023-07-10	03:12:33	03:21:02	504114	62cf2192b9212fc96a5b3917	4	1	main_z	7	main_z	89	stimuli_target_diamondrectangles.svg	stimuli_distractor_diamondtriangles.svg	23	yes	44	1	210	0	0			0	0			1				0	
6.6.1	win	2023-07-10	03:12:33	03:21:02	504114	62cf2192b9212fc96a5b3917	4	1	main_z	7	advance_on_keypress_ZEE	90	stimuli_target_diamondrectangles.svg	stimuli_distractor_diamondtriangles.svg	23	yes	57	0	386	0	0			0	0			1				0	
6.6.1	win	2023-07-10	03:12:33	03:21:03	505382	62cf2192b9212fc96a5b3917	4	1	main_z	7	main_z	91	stimuli_distractor_trianglediamonds.svg	stimuli_distractor_trianglediamonds.svg	33	no	44	0	247	0	0			0	0			1				0	
6.6.1	win	2023-07-10	03:12:33	03:21:03	505382	62cf2192b9212fc96a5b3917	4	1	main_z	7	advance_on_keypress_ZEE	92	stimuli_distractor_trianglediamonds.svg	stimuli_distractor_trianglediamonds.svg	33	no	57	0	719	0	0			0	0			1				0	
6.6.1	win	2023-07-10	03:12:33	03:21:05	506959	62cf2192b9212fc96a5b3917	4	1	main_z	7	main_z	93	stimuli_distractor_trianglediamonds.svg	stimuli_target_diamondrectangles.svg	27	yes	44	1	208	0	0			0	0			1				0	
6.6.1	win	2023-07-10	03:12:33	03:21:05	506959	62cf2192b9212fc96a5b3917	4	1	main_z	7	advance_on_keypress_ZEE	94	stimuli_distractor_trianglediamonds.svg	stimuli_target_diamondrectangles.svg	27	yes	57	0	301	0	0			0	0			1				0	
6.6.1	win	2023-07-10	03:12:33	03:21:06	508226	62cf2192b9212fc96a5b3917	4	1	main_z	7	main_z	95	stimuli_distractor_trianglediamonds.svg	stimuli_distractor_diamondtriangles.svg	35	no	44	0	326	0	0			0	0			1				0	
6.6.1	win	2023-07-10	03:12:33	03:21:06	508226	62cf2192b9212fc96a5b3917	4	1	main_z	7	advance_on_keypress_ZEE	96	stimuli_distractor_trianglediamonds.svg	stimuli_distractor_diamondtriangles.svg	35	no	57	0	387	0	0			0	0			1				0	
6.6.1	win	2023-07-10	03:12:33	03:21:08	509632	62cf2192b9212fc96a5b3917	4	1	main_z	7	main_z	97	stimuli_distractor_trianglediamonds.svg	stimuli_target_diamondsquares.svg	28	yes	44	1	377	0	0			0	0			1				0	
6.6.1	win	2023-07-10	03:12:33	03:21:08	509632	62cf2192b9212fc96a5b3917	4	1	main_z	7	advance_on_keypress_ZEE	98	stimuli_distractor_trianglediamonds.svg	stimuli_target_diamondsquares.svg	28	yes	57	0	325	0	0			0	0			1				0	
6.6.1	win	2023-07-10	03:12:33	03:21:10	512599	62cf2192b9212fc96a5b3917	4	1	main_z	7	main_z	99	stimuli_target_squaretriangles.svg	stimuli_distractor_trianglediamonds.svg	3	yes	0	0	2000	0	0			0	0			1				0	
6.6.1	win	2023-07-10	03:12:33	03:21:10	512599	62cf2192b9212fc96a5b3917	4	1	main_z	7	advance_on_keypress_ZEE	100	stimuli_target_squaretriangles.svg	stimuli_distractor_trianglediamonds.svg	3	yes	57	0	1814	0	0			0	0			1				0	
6.6.1	win	2023-07-10	03:12:33	03:21:14	516456	62cf2192b9212fc96a5b3917	4	1	main_z	7	main_z	101	stimuli_distractor_diamondtriangles.svg	stimuli_distractor_trianglediamonds.svg	37	no	44	0	1393	0	0			0	0			1				0	
6.6.1	win	2023-07-10	03:12:33	03:21:14	516456	62cf2192b9212fc96a5b3917	4	1	main_z	7	advance_on_keypress_ZEE	102	stimuli_distractor_diamondtriangles.svg	stimuli_distractor_trianglediamonds.svg	37	no	57	0	146	0	0			0	0			1				0	
6.6.1	win	2023-07-10	03:12:33	03:21:16	517688	62cf2192b9212fc96a5b3917	4	1	main_z	7	main_z	103	stimuli_target_diamondsquares.svg	stimuli_distractor_trianglediamonds.svg	20	yes	44	1	443	0	0			0	0			1				0	
6.6.1	win	2023-07-10	03:12:33	03:21:16	517688	62cf2192b9212fc96a5b3917	4	1	main_z	7	advance_on_keypress_ZEE	104	stimuli_target_diamondsquares.svg	stimuli_distractor_trianglediamonds.svg	20	yes	57	0	175	0	0			0	0			1				0	
6.6.1	win	2023-07-10	03:12:33	03:21:17	518889	62cf2192b9212fc96a5b3917	4	1	main_z	7	main_z	105	stimuli_distractor_diamondtriangles.svg	stimuli_target_diamondrectangles.svg	31	yes	44	1	395	0	0			0	0			1				0	
6.6.1	win	2023-07-10	03:12:33	03:21:17	518889	62cf2192b9212fc96a5b3917	4	1	main_z	7	advance_on_keypress_ZEE	106	stimuli_distractor_diamondtriangles.svg	stimuli_target_diamondrectangles.svg	31	yes	57	0	197	0	0			0	0			1				0	
6.6.1	win	2023-07-10	03:12:33	03:21:18	520061	62cf2192b9212fc96a5b3917	4	1	main_z	7	main_z	107	stimuli_distractor_trianglediamonds.svg	stimuli_distractor_trianglediamonds.svg	34	no	44	0	318	0	0			0	0			1				0	
6.6.1	win	2023-07-10	03:12:33	03:21:18	520061	62cf2192b9212fc96a5b3917	4	1	main_z	7	advance_on_keypress_ZEE	108	stimuli_distractor_trianglediamonds.svg	stimuli_distractor_trianglediamonds.svg	34	no	57	0	600	0	0			0	0			1				0	
6.6.1	win	2023-07-10	03:12:33	03:21:21	523308	62cf2192b9212fc96a5b3917	4	1	main_z	7	main_z	109	stimuli_target_rectanglediamonds.svg	stimuli_distractor_diamondtriangles.svg	6	yes	0	0	2000	0	0			0	0			1				0	
6.6.1	win	2023-07-10	03:12:33	03:21:21	523308	62cf2192b9212fc96a5b3917	4	1	main_z	7	advance_on_keypress_ZEE	110	stimuli_target_rectanglediamonds.svg	stimuli_distractor_diamondtriangles.svg	6	yes	57	0	98861	0	0			0	0			1				0	
6.6.1	win	2023-07-10	03:12:33	03:23:01	623531	62cf2192b9212fc96a5b3917	4	1	main_z	7	main_z	111	stimuli_target_trianglerectangles.svg	stimuli_distractor_diamondtriangles.svg	21	yes	44	1	721	0	0			0	0			1				0	
6.6.1	win	2023-07-10	03:12:33	03:23:01	623531	62cf2192b9212fc96a5b3917	4	1	main_z	7	advance_on_keypress_ZEE	112	stimuli_target_trianglerectangles.svg	stimuli_distractor_diamondtriangles.svg	21	yes	57	0	525	0	0			0	0			1				0	
6.6.1	win	2023-07-10	03:12:33	03:23:03	625032	62cf2192b9212fc96a5b3917	4	1	main_z	7	main_z	113	stimuli_distractor_trianglediamonds.svg	stimuli_target_trianglerectangles.svg	25	yes	44	1	340	0	0			0	0			1				0	
6.6.1	win	2023-07-10	03:12:33	03:23:03	625032	62cf2192b9212fc96a5b3917	4	1	main_z	7	advance_on_keypress_ZEE	114	stimuli_distractor_trianglediamonds.svg	stimuli_target_trianglerectangles.svg	25	yes	57	0	464	0	0			0	0			1				0	
6.6.1	win	2023-07-10	03:12:33	03:23:05	626683	62cf2192b9212fc96a5b3917	4	1	main_z	7	main_z	115	stimuli_target_rectangletriangles.svg	stimuli_distractor_diamondtriangles.svg	5	yes	44	1	541	0	0			0	0			1				0	
6.6.1	win	2023-07-10	03:12:33	03:23:05	626683	62cf2192b9212fc96a5b3917	4	1	main_z	7	advance_on_keypress_ZEE	116	stimuli_target_rectangletriangles.svg	stimuli_distractor_diamondtriangles.svg	5	yes	57	0	520	0	0			0	0			1				0	
6.6.1	win	2023-07-10	03:12:33	03:23:06	628604	62cf2192b9212fc96a5b3917	4	1	main_z	7	main_z	117	stimuli_distractor_diamondtriangles.svg	stimuli_distractor_trianglediamonds.svg	38	no	44	0	762	0	0			0	0			1				0	
6.6.1	win	2023-07-10	03:12:33	03:23:06	628604	62cf2192b9212fc96a5b3917	4	1	main_z	7	advance_on_keypress_ZEE	118	stimuli_distractor_diamondtriangles.svg	stimuli_distractor_trianglediamonds.svg	38	no	57	0	526	0	0			0	0			1				0	
6.6.1	win	2023-07-10	03:12:33	03:23:08	630407	62cf2192b9212fc96a5b3917	4	1	main_z	7	main_z	119	stimuli_distractor_trianglediamonds.svg	stimuli_distractor_diamondtriangles.svg	36	no	44	0	634	0	0			0	0			1				0	
6.6.1	win	2023-07-10	03:12:33	03:23:08	630407	62cf2192b9212fc96a5b3917	4	1	main_z	7	advance_on_keypress_ZEE	120	stimuli_distractor_trianglediamonds.svg	stimuli_distractor_diamondtriangles.svg	36	no	57	0	393	0	0			0	0			1				0	
6.6.1	win	2023-07-10	03:12:33	03:23:10	632162	62cf2192b9212fc96a5b3917	4	1	main_z	7	main_z	121	stimuli_target_squarediamonds.svg	stimuli_distractor_trianglediamonds.svg	4	yes	44	1	724	0	0			0	0			1				0	
6.6.1	win	2023-07-10	03:12:33	03:23:10	632162	62cf2192b9212fc96a5b3917	4	1	main_z	7	advance_on_keypress_ZEE	122	stimuli_target_squarediamonds.svg	stimuli_distractor_trianglediamonds.svg	4	yes	57	0	410	0	0			0	0			1				0	
6.6.1	win	2023-07-10	03:12:33	03:23:11	633620	62cf2192b9212fc96a5b3917	4	1	main_z	7	main_z	123	stimuli_target_trianglesquares.svg	stimuli_distractor_diamondtriangles.svg	22	yes	44	1	415	0	0			0	0			1				0	
6.6.1	win	2023-07-10	03:12:33	03:23:11	633620	62cf2192b9212fc96a5b3917	4	1	main_z	7	advance_on_keypress_ZEE	124	stimuli_target_trianglesquares.svg	stimuli_distractor_diamondtriangles.svg	22	yes	57	0	419	0	0			0	0			1				0	
6.6.1	win	2023-07-10	03:12:33	03:23:13	635121	62cf2192b9212fc96a5b3917	4	1	main_z	7	main_z	125	stimuli_target_diamondsquares.svg	stimuli_distractor_diamondtriangles.svg	24	yes	44	1	434	0	0			0	0			1				0	
6.6.1	win	2023-07-10	03:12:33	03:23:13	635121	62cf2192b9212fc96a5b3917	4	1	main_z	7	advance_on_keypress_ZEE	126	stimuli_target_diamondsquares.svg	stimuli_distractor_diamondtriangles.svg	24	yes	57	0	468	0	0			0	0			1				0	
6.6.1	win	2023-07-10	03:12:33	03:23:15	636617	62cf2192b9212fc96a5b3917	4	1	main_z	7	main_z	127	stimuli_distractor_diamondtriangles.svg	stimuli_target_diamondsquares.svg	32	yes	44	1	382	0	0			0	0			1				0	
6.6.1	win	2023-07-10	03:12:33	03:23:15	636617	62cf2192b9212fc96a5b3917	4	1	main_z	7	advance_on_keypress_ZEE	128	stimuli_distractor_diamondtriangles.svg	stimuli_target_diamondsquares.svg	32	yes	57	0	365	0	0			0	0			1				0	
6.6.1	win	2023-07-10	03:12:33	03:23:16	638060	62cf2192b9212fc96a5b3917	4	1	main_z	7	main_z	129	stimuli_target_squarediamonds.svg	stimuli_distractor_diamondtriangles.svg	8	yes	44	1	426	0	0			0	0			1				0	
6.6.1	win	2023-07-10	03:12:33	03:23:16	638060	62cf2192b9212fc96a5b3917	4	1	main_z	7	advance_on_keypress_ZEE	130	stimuli_target_squarediamonds.svg	stimuli_distractor_diamondtriangles.svg	8	yes	57	0	402	0	0			0	0			1				0	
6.6.1	win	2023-07-10	03:12:33	03:23:18	639717	62cf2192b9212fc96a5b3917	4	1	main_z	7	main_z	131	stimuli_target_squaretriangles.svg	stimuli_distractor_diamondtriangles.svg	7	yes	44	1	616	0	0			0	0			1				0	
6.6.1	win	2023-07-10	03:12:33	03:23:18	639717	62cf2192b9212fc96a5b3917	4	1	main_z	7	advance_on_keypress_ZEE	132	stimuli_target_squaretriangles.svg	stimuli_distractor_diamondtriangles.svg	7	yes	57	0	312	0	0			0	0			1				0	
6.6.1	win	2023-07-10	03:12:33	03:23:19	641109	62cf2192b9212fc96a5b3917	4	1	main_z	7	main_z	133	stimuli_distractor_diamondtriangles.svg	stimuli_distractor_diamondtriangles.svg	39	no	44	0	427	0	0			0	0			1				0	
6.6.1	win	2023-07-10	03:12:33	03:23:19	641109	62cf2192b9212fc96a5b3917	4	1	main_z	7	advance_on_keypress_ZEE	134	stimuli_distractor_diamondtriangles.svg	stimuli_distractor_diamondtriangles.svg	39	no	57	0	351	0	0			0	0			1				0	
6.6.1	win	2023-07-10	03:12:33	03:23:20	642457	62cf2192b9212fc96a5b3917	4	1	main_z	7	main_z	135	stimuli_distractor_trianglediamonds.svg	stimuli_target_rectangletriangles.svg	9	yes	44	1	359	0	0			0	0			1				0	
6.6.1	win	2023-07-10	03:12:33	03:23:20	642457	62cf2192b9212fc96a5b3917	4	1	main_z	7	advance_on_keypress_ZEE	136	stimuli_distractor_trianglediamonds.svg	stimuli_target_rectangletriangles.svg	9	yes	57	0	332	0	0			0	0			1				0	
6.6.1	win	2023-07-10	03:12:33	03:23:22	643728	62cf2192b9212fc96a5b3917	4	1	main_z	7	main_z	137	stimuli_distractor_diamondtriangles.svg	stimuli_target_rectangletriangles.svg	13	yes	44	1	297	0	0			0	0			1				0	
6.6.1	win	2023-07-10	03:12:33	03:23:22	643728	62cf2192b9212fc96a5b3917	4	1	main_z	7	advance_on_keypress_ZEE	138	stimuli_distractor_diamondtriangles.svg	stimuli_target_rectangletriangles.svg	13	yes	57	0	320	0	0			0	0			1				0	
6.6.1	win	2023-07-10	03:12:33	03:23:23	645323	62cf2192b9212fc96a5b3917	4	1	main_z	7	main_z	139	stimuli_distractor_diamondtriangles.svg	stimuli_target_trianglesquares.svg	30	yes	44	1	626	0	0			0	0			1				0	
6.6.1	win	2023-07-10	03:12:33	03:23:23	645323	62cf2192b9212fc96a5b3917	4	1	main_z	7	advance_on_keypress_ZEE	140	stimuli_distractor_diamondtriangles.svg	stimuli_target_trianglesquares.svg	30	yes	57	0	312	0	0			0	0			1				0	
6.6.1	win	2023-07-10	03:12:33	03:23:26	648262	62cf2192b9212fc96a5b3917	4	1	main_z	7	main_z	141	stimuli_target_trianglerectangles.svg	stimuli_distractor_trianglediamonds.svg	17	yes	0	0	2000	0	0			0	0			1				0	
6.6.1	win	2023-07-10	03:12:33	03:23:26	648262	62cf2192b9212fc96a5b3917	4	1	main_z	7	advance_on_keypress_ZEE	142	stimuli_target_trianglerectangles.svg	stimuli_distractor_trianglediamonds.svg	17	yes	57	0	273	0	0			0	0			1				0	
6.6.1	win	2023-07-10	03:12:33	03:23:27	649613	62cf2192b9212fc96a5b3917	4	1	main_z	7	main_z	143	stimuli_distractor_diamondtriangles.svg	stimuli_target_trianglerectangles.svg	29	yes	44	1	436	0	0			0	0			1				0	
6.6.1	win	2023-07-10	03:12:33	03:23:27	649613	62cf2192b9212fc96a5b3917	4	1	main_z	7	advance_on_keypress_ZEE	144	stimuli_distractor_diamondtriangles.svg	stimuli_target_trianglerectangles.svg	29	yes	57	0	356	0	0			0	0			1				0	
6.6.1	win	2023-07-10	03:12:33	03:23:29	650974	62cf2192b9212fc96a5b3917	4	1	main_z	7	main_z	145	stimuli_target_diamondrectangles.svg	stimuli_distractor_trianglediamonds.svg	19	yes	44	1	365	0	0			0	0			1				0	
6.6.1	win	2023-07-10	03:12:33	03:23:29	650974	62cf2192b9212fc96a5b3917	4	1	main_z	7	advance_on_keypress_ZEE	146	stimuli_target_diamondrectangles.svg	stimuli_distractor_trianglediamonds.svg	19	yes	57	0	326	0	0			0	0			1				0	
6.6.1	win	2023-07-10	03:12:33	03:23:30	652363	62cf2192b9212fc96a5b3917	4	1	main_z	7	main_z	147	stimuli_target_rectanglediamonds.svg	stimuli_distractor_trianglediamonds.svg	2	yes	44	1	420	0	0			0	0			1				0	
6.6.1	win	2023-07-10	03:12:33	03:23:30	652363	62cf2192b9212fc96a5b3917	4	1	main_z	7	advance_on_keypress_ZEE	148	stimuli_target_rectanglediamonds.svg	stimuli_distractor_trianglediamonds.svg	2	yes	57	0	315	0	0			0	0			1				0	
6.6.1	win	2023-07-10	03:12:33	03:23:32	653833	62cf2192b9212fc96a5b3917	4	1	main_z	7	main_z	149	stimuli_distractor_trianglediamonds.svg	stimuli_target_squarediamonds.svg	12	yes	44	1	509	0	0			0	0			1				0	
6.6.1	win	2023-07-10	03:12:33	03:23:32	653833	62cf2192b9212fc96a5b3917	4	1	main_z	7	advance_on_keypress_ZEE	150	stimuli_distractor_trianglediamonds.svg	stimuli_target_squarediamonds.svg	12	yes	57	0	390	0	0			0	0			1				0	
6.6.1	win	2023-07-10	03:12:33	03:23:33	655150	62cf2192b9212fc96a5b3917	4	1	main_z	7	main_z	151	stimuli_distractor_trianglediamonds.svg	stimuli_target_trianglesquares.svg	26	yes	44	1	292	0	0			0	0			1				0	
6.6.1	win	2023-07-10	03:12:33	03:23:33	655150	62cf2192b9212fc96a5b3917	4	1	main_z	7	advance_on_keypress_ZEE	152	stimuli_distractor_trianglediamonds.svg	stimuli_target_trianglesquares.svg	26	yes	57	0	606	0	0			0	0			1				0	
6.6.1	win	2023-07-10	03:12:33	03:23:35	656735	62cf2192b9212fc96a5b3917	4	1	main_z	7	main_z	153	stimuli_distractor_trianglediamonds.svg	stimuli_target_rectanglediamonds.svg	10	yes	44	1	346	0	0			0	0			1				0	
6.6.1	win	2023-07-10	03:12:33	03:23:35	656735	62cf2192b9212fc96a5b3917	4	1	main_z	7	advance_on_keypress_ZEE	154	stimuli_distractor_trianglediamonds.svg	stimuli_target_rectanglediamonds.svg	10	yes	57	0	475	0	0			0	0			1				0	
6.6.1	win	2023-07-10	03:12:33	03:23:36	658332	62cf2192b9212fc96a5b3917	4	1	main_z	7	main_z	155	stimuli_target_rectangletriangles.svg	stimuli_distractor_trianglediamonds.svg	1	yes	44	1	477	0	0			0	0			1				0	
6.6.1	win	2023-07-10	03:12:33	03:23:36	658332	62cf2192b9212fc96a5b3917	4	1	main_z	7	advance_on_keypress_ZEE	156	stimuli_target_rectangletriangles.svg	stimuli_distractor_trianglediamonds.svg	1	yes	57	0	342	0	0			0	0			1				0	
6.6.1	win	2023-07-10	03:12:33	03:23:39	661304	62cf2192b9212fc96a5b3917	4	1	main_z	7	main_z	157	stimuli_target_trianglesquares.svg	stimuli_distractor_trianglediamonds.svg	18	yes	0	0	2000	0	0			0	0			1				0	
6.6.1	win	2023-07-10	03:12:33	03:23:39	661304	62cf2192b9212fc96a5b3917	4	1	main_z	7	advance_on_keypress_ZEE	158	stimuli_target_trianglesquares.svg	stimuli_distractor_trianglediamonds.svg	18	yes	57	0	260	0	0			0	0			1				0	
6.6.1	win	2023-07-10	03:12:33	03:23:40	662604	62cf2192b9212fc96a5b3917	4	1	main_z	7	main_z	159	stimuli_distractor_diamondtriangles.svg	stimuli_distractor_diamondtriangles.svg	40	no	44	0	402	0	0			0	0			1				0	
6.6.1	win	2023-07-10	03:12:33	03:23:40	662604	62cf2192b9212fc96a5b3917	4	1	main_z	7	advance_on_keypress_ZEE	160	stimuli_distractor_diamondtriangles.svg	stimuli_distractor_diamondtriangles.svg	40	no	57	0	481	0	0			0	0			1				0	
6.6.1	win	2023-07-10	03:12:33	03:25:08	750510	62cf2192b9212fc96a5b3917	4	1	practice_slash	9	practice_slash	1	stimuli_distractor_trianglediamonds.svg	stimuli_distractor_diamondtriangles.svg	16	no	53	0	461	0	0			0	0			1				0	
6.6.1	win	2023-07-10	03:12:33	03:25:08	750510	62cf2192b9212fc96a5b3917	4	1	practice_slash	9	advance_on_keypress_SLASH	2	stimuli_distractor_trianglediamonds.svg	stimuli_distractor_diamondtriangles.svg	16	no	57	0	521	0	0			0	0			1				0	
6.6.1	win	2023-07-10	03:12:33	03:25:11	752923	62cf2192b9212fc96a5b3917	4	1	practice_slash	9	practice_slash	3	stimuli_target_rectanglediamonds.svg	stimuli_distractor_diamondtriangles.svg	1	yes	53	1	242	0	0			0	0			1				0	
6.6.1	win	2023-07-10	03:12:33	03:25:11	752923	62cf2192b9212fc96a5b3917	4	1	practice_slash	9	advance_on_keypress_SLASH	4	stimuli_target_rectanglediamonds.svg	stimuli_distractor_diamondtriangles.svg	1	yes	57	0	389	0	0			0	0			1				0	
6.6.1	win	2023-07-10	03:12:33	03:25:15	756945	62cf2192b9212fc96a5b3917	4	1	practice_slash	9	practice_slash	5	stimuli_distractor_trianglediamonds.svg	stimuli_distractor_trianglediamonds.svg	15	no	0	1	2000	0	0			0	0			1				0	
6.6.1	win	2023-07-10	03:12:33	03:25:15	756945	62cf2192b9212fc96a5b3917	4	1	practice_slash	9	advance_on_keypress_SLASH	6	stimuli_distractor_trianglediamonds.svg	stimuli_distractor_trianglediamonds.svg	15	no	57	0	684	0	0			0	0			1				0	
6.6.1	win	2023-07-10	03:12:33	03:25:18	759662	62cf2192b9212fc96a5b3917	4	1	practice_slash	9	practice_slash	7	stimuli_distractor_trianglediamonds.svg	stimuli_target_rectanglediamonds.svg	10	yes	53	1	386	0	0			0	0			1				0	
6.6.1	win	2023-07-10	03:12:33	03:25:18	759662	62cf2192b9212fc96a5b3917	4	1	practice_slash	9	advance_on_keypress_SLASH	8	stimuli_distractor_trianglediamonds.svg	stimuli_target_rectanglediamonds.svg	10	yes	57	0	448	0	0			0	0			1				0	
6.6.1	win	2023-07-10	03:12:33	03:25:20	762288	62cf2192b9212fc96a5b3917	4	1	practice_slash	9	practice_slash	9	stimuli_target_rectanglediamonds.svg	stimuli_distractor_trianglediamonds.svg	4	yes	53	1	530	0	0			0	0			1				0	
6.6.1	win	2023-07-10	03:12:33	03:25:20	762288	62cf2192b9212fc96a5b3917	4	1	practice_slash	9	advance_on_keypress_SLASH	10	stimuli_target_rectanglediamonds.svg	stimuli_distractor_trianglediamonds.svg	4	yes	57	0	415	0	0			0	0			1				0	
6.6.1	win	2023-07-10	03:12:33	03:25:23	764806	62cf2192b9212fc96a5b3917	4	1	practice_slash	9	practice_slash	11	stimuli_distractor_diamondtriangles.svg	stimuli_target_rectangletriangles.svg	7	yes	53	1	449	0	0			0	0			1				0	
6.6.1	win	2023-07-10	03:12:33	03:25:23	764806	62cf2192b9212fc96a5b3917	4	1	practice_slash	9	advance_on_keypress_SLASH	12	stimuli_distractor_diamondtriangles.svg	stimuli_target_rectangletriangles.svg	7	yes	57	0	474	0	0			0	0			1				0	
6.6.1	win	2023-07-10	03:12:33	03:25:25	767587	62cf2192b9212fc96a5b3917	4	1	practice_slash	9	practice_slash	13	stimuli_distractor_trianglediamonds.svg	stimuli_target_diamondrectangles.svg	12	yes	53	1	666	0	0			0	0			1				0	
6.6.1	win	2023-07-10	03:12:33	03:25:25	767587	62cf2192b9212fc96a5b3917	4	1	practice_slash	9	advance_on_keypress_SLASH	14	stimuli_distractor_trianglediamonds.svg	stimuli_target_diamondrectangles.svg	12	yes	57	0	528	0	0			0	0			1				0	
6.6.1	win	2023-07-10	03:12:33	03:25:28	770378	62cf2192b9212fc96a5b3917	4	1	practice_slash	9	practice_slash	15	stimuli_distractor_trianglediamonds.svg	stimuli_target_squarediamonds.svg	11	yes	53	1	608	0	0			0	0			1				0	
6.6.1	win	2023-07-10	03:12:33	03:25:28	770378	62cf2192b9212fc96a5b3917	4	1	practice_slash	9	advance_on_keypress_SLASH	16	stimuli_distractor_trianglediamonds.svg	stimuli_target_squarediamonds.svg	11	yes	57	0	358	0	0			0	0			1				0	
6.6.1	win	2023-07-10	03:12:33	03:25:31	773226	62cf2192b9212fc96a5b3917	4	1	practice_slash	9	practice_slash	17	stimuli_distractor_diamondtriangles.svg	stimuli_target_trianglerectangles.svg	9	yes	53	1	857	0	0			0	0			1				0	
6.6.1	win	2023-07-10	03:12:33	03:25:31	773226	62cf2192b9212fc96a5b3917	4	1	practice_slash	9	advance_on_keypress_SLASH	18	stimuli_distractor_diamondtriangles.svg	stimuli_target_trianglerectangles.svg	9	yes	57	0	620	0	0			0	0			1				0	
6.6.1	win	2023-07-10	03:12:33	03:25:34	776069	62cf2192b9212fc96a5b3917	4	1	practice_slash	9	practice_slash	19	stimuli_target_squarediamonds.svg	stimuli_distractor_trianglediamonds.svg	5	yes	53	1	586	0	0			0	0			1				0	
6.6.1	win	2023-07-10	03:12:33	03:25:34	776069	62cf2192b9212fc96a5b3917	4	1	practice_slash	9	advance_on_keypress_SLASH	20	stimuli_target_squarediamonds.svg	stimuli_distractor_trianglediamonds.svg	5	yes	57	0	501	0	0			0	0			1				0	
6.6.1	win	2023-07-10	03:12:33	03:25:37	778851	62cf2192b9212fc96a5b3917	4	1	practice_slash	9	practice_slash	21	stimuli_distractor_diamondtriangles.svg	stimuli_distractor_trianglediamonds.svg	14	no	53	0	637	0	0			0	0			1				0	
6.6.1	win	2023-07-10	03:12:33	03:25:37	778851	62cf2192b9212fc96a5b3917	4	1	practice_slash	9	advance_on_keypress_SLASH	22	stimuli_distractor_diamondtriangles.svg	stimuli_distractor_trianglediamonds.svg	14	no	57	0	533	0	0			0	0			1				0	
6.6.1	win	2023-07-10	03:12:33	03:25:39	781504	62cf2192b9212fc96a5b3917	4	1	practice_slash	9	practice_slash	23	stimuli_distractor_diamondtriangles.svg	stimuli_target_diamondrectangles.svg	8	yes	53	1	476	0	0			0	0			1				0	
6.6.1	win	2023-07-10	03:12:33	03:25:39	781504	62cf2192b9212fc96a5b3917	4	1	practice_slash	9	advance_on_keypress_SLASH	24	stimuli_distractor_diamondtriangles.svg	stimuli_target_diamondrectangles.svg	8	yes	57	0	388	0	0			0	0			1				0	
6.6.1	win	2023-07-10	03:12:33	03:25:42	784131	62cf2192b9212fc96a5b3917	4	1	practice_slash	9	practice_slash	25	stimuli_target_squarediamonds.svg	stimuli_distractor_diamondtriangles.svg	2	yes	53	1	603	0	0			0	0			1				0	
6.6.1	win	2023-07-10	03:12:33	03:25:42	784131	62cf2192b9212fc96a5b3917	4	1	practice_slash	9	advance_on_keypress_SLASH	26	stimuli_target_squarediamonds.svg	stimuli_distractor_diamondtriangles.svg	2	yes	57	0	617	0	0			0	0			1				0	
6.6.1	win	2023-07-10	03:12:33	03:25:45	786945	62cf2192b9212fc96a5b3917	4	1	practice_slash	9	practice_slash	27	stimuli_target_diamondsquares.svg	stimuli_distractor_diamondtriangles.svg	3	yes	53	1	553	0	0			0	0			1				0	
6.6.1	win	2023-07-10	03:12:33	03:25:45	786945	62cf2192b9212fc96a5b3917	4	1	practice_slash	9	advance_on_keypress_SLASH	28	stimuli_target_diamondsquares.svg	stimuli_distractor_diamondtriangles.svg	3	yes	57	0	475	0	0			0	0			1				0	
6.6.1	win	2023-07-10	03:12:33	03:25:47	789591	62cf2192b9212fc96a5b3917	4	1	practice_slash	9	practice_slash	29	stimuli_distractor_diamondtriangles.svg	stimuli_distractor_diamondtriangles.svg	13	no	53	0	533	0	0			0	0			1				0	
6.6.1	win	2023-07-10	03:12:33	03:25:47	789591	62cf2192b9212fc96a5b3917	4	1	practice_slash	9	advance_on_keypress_SLASH	30	stimuli_distractor_diamondtriangles.svg	stimuli_distractor_diamondtriangles.svg	13	no	57	0	420	0	0			0	0			1				0	
6.6.1	win	2023-07-10	03:12:33	03:25:50	792239	62cf2192b9212fc96a5b3917	4	1	practice_slash	9	practice_slash	31	stimuli_target_diamondsquares.svg	stimuli_distractor_trianglediamonds.svg	6	yes	53	1	582	0	0			0	0			1				0	
6.6.1	win	2023-07-10	03:12:33	03:25:50	792239	62cf2192b9212fc96a5b3917	4	1	practice_slash	9	advance_on_keypress_SLASH	32	stimuli_target_diamondsquares.svg	stimuli_distractor_trianglediamonds.svg	6	yes	57	0	758	0	0			0	0			1				0	
6.6.1	win	2023-07-10	03:12:33	03:25:56	798020	62cf2192b9212fc96a5b3917	4	1	main_slash	11	main_slash	1	stimuli_distractor_diamondtriangles.svg	stimuli_distractor_diamondtriangles.svg	40	no	53	0	502	0	0			0	0			1				0	
6.6.1	win	2023-07-10	03:12:33	03:25:56	798020	62cf2192b9212fc96a5b3917	4	1	main_slash	11	advance_on_keypress_SLASH	2	stimuli_distractor_diamondtriangles.svg	stimuli_distractor_diamondtriangles.svg	40	no	57	0	880	0	0			0	0			1				0	
6.6.1	win	2023-07-10	03:12:33	03:25:58	800507	62cf2192b9212fc96a5b3917	4	1	main_slash	11	main_slash	3	stimuli_distractor_diamondtriangles.svg	stimuli_target_rectanglediamonds.svg	14	yes	53	1	959	0	0			0	0			1				0	
6.6.1	win	2023-07-10	03:12:33	03:25:58	800507	62cf2192b9212fc96a5b3917	4	1	main_slash	11	advance_on_keypress_SLASH	4	stimuli_distractor_diamondtriangles.svg	stimuli_target_rectanglediamonds.svg	14	yes	57	0	2616	0	0			0	0			1				0	
6.6.1	win	2023-07-10	03:12:33	03:26:04	805762	62cf2192b9212fc96a5b3917	4	1	main_slash	11	main_slash	5	stimuli_distractor_trianglediamonds.svg	stimuli_distractor_trianglediamonds.svg	33	no	0	1	2000	0	0			0	0			1				0	
6.6.1	win	2023-07-10	03:12:33	03:26:04	805762	62cf2192b9212fc96a5b3917	4	1	main_slash	11	advance_on_keypress_SLASH	6	stimuli_distractor_trianglediamonds.svg	stimuli_distractor_trianglediamonds.svg	33	no	57	0	352	0	0			0	0			1				0	
6.6.1	win	2023-07-10	03:12:33	03:26:05	807579	62cf2192b9212fc96a5b3917	4	1	main_slash	11	main_slash	7	stimuli_distractor_diamondtriangles.svg	stimuli_target_squarediamonds.svg	16	yes	53	1	819	0	0			0	0			1				0	
6.6.1	win	2023-07-10	03:12:33	03:26:05	807579	62cf2192b9212fc96a5b3917	4	1	main_slash	11	advance_on_keypress_SLASH	8	stimuli_distractor_diamondtriangles.svg	stimuli_target_squarediamonds.svg	16	yes	57	0	4869	0	0			0	0			1				0	
6.6.1	win	2023-07-10	03:12:33	03:26:13	815089	62cf2192b9212fc96a5b3917	4	1	main_slash	11	main_slash	9	stimuli_target_rectanglediamonds.svg	stimuli_distractor_diamondtriangles.svg	6	yes	0	0	2000	0	0			0	0			1				0	
6.6.1	win	2023-07-10	03:12:33	03:26:13	815089	62cf2192b9212fc96a5b3917	4	1	main_slash	11	advance_on_keypress_SLASH	10	stimuli_target_rectanglediamonds.svg	stimuli_distractor_diamondtriangles.svg	6	yes	57	0	3147	0	0			0	0			1				0	
6.6.1	win	2023-07-10	03:12:33	03:26:18	819720	62cf2192b9212fc96a5b3917	4	1	main_slash	11	main_slash	11	stimuli_target_trianglerectangles.svg	stimuli_distractor_diamondtriangles.svg	21	yes	53	1	834	0	0			0	0			1				0	
6.6.1	win	2023-07-10	03:12:33	03:26:18	819720	62cf2192b9212fc96a5b3917	4	1	main_slash	11	advance_on_keypress_SLASH	12	stimuli_target_trianglerectangles.svg	stimuli_distractor_diamondtriangles.svg	21	yes	57	0	1247	0	0			0	0			1				0	
6.6.1	win	2023-07-10	03:12:33	03:26:21	823440	62cf2192b9212fc96a5b3917	4	1	main_slash	11	main_slash	13	stimuli_target_diamondrectangles.svg	stimuli_distractor_diamondtriangles.svg	23	yes	53	1	1822	0	0			0	0			1				0	
6.6.1	win	2023-07-10	03:12:33	03:26:21	823440	62cf2192b9212fc96a5b3917	4	1	main_slash	11	advance_on_keypress_SLASH	14	stimuli_target_diamondrectangles.svg	stimuli_distractor_diamondtriangles.svg	23	yes	57	0	213344	0	0			0	0			1				0	
6.6.1	win	2023-07-10	03:12:33	03:29:57	1038703	62cf2192b9212fc96a5b3917	4	1	main_slash	11	main_slash	15	stimuli_distractor_trianglediamonds.svg	stimuli_target_squaretriangles.svg	11	yes	53	1	1272	0	0			0	0			1				0	
6.6.1	win	2023-07-10	03:12:33	03:29:57	1038703	62cf2192b9212fc96a5b3917	4	1	main_slash	11	advance_on_keypress_SLASH	16	stimuli_distractor_trianglediamonds.svg	stimuli_target_squaretriangles.svg	11	yes	57	0	576	0	0			0	0			1				0	
6.6.1	win	2023-07-10	03:12:33	03:30:00	1041912	62cf2192b9212fc96a5b3917	4	1	main_slash	11	main_slash	17	stimuli_distractor_diamondtriangles.svg	stimuli_target_trianglerectangles.svg	29	yes	0	0	2000	0	0			0	0			1				0	
6.6.1	win	2023-07-10	03:12:33	03:30:00	1041912	62cf2192b9212fc96a5b3917	4	1	main_slash	11	advance_on_keypress_SLASH	18	stimuli_distractor_diamondtriangles.svg	stimuli_target_trianglerectangles.svg	29	yes	57	0	309	0	0			0	0			1				0	
6.6.1	win	2023-07-10	03:12:33	03:30:01	1043428	62cf2192b9212fc96a5b3917	4	1	main_slash	11	main_slash	19	stimuli_distractor_trianglediamonds.svg	stimuli_distractor_diamondtriangles.svg	36	no	53	0	567	0	0			0	0			1				0	
6.6.1	win	2023-07-10	03:12:33	03:30:01	1043428	62cf2192b9212fc96a5b3917	4	1	main_slash	11	advance_on_keypress_SLASH	20	stimuli_distractor_trianglediamonds.svg	stimuli_distractor_diamondtriangles.svg	36	no	57	0	558	0	0			0	0			1				0	
6.6.1	win	2023-07-10	03:12:33	03:30:03	1044807	62cf2192b9212fc96a5b3917	4	1	main_slash	11	main_slash	21	stimuli_target_trianglerectangles.svg	stimuli_distractor_trianglediamonds.svg	17	yes	53	1	182	0	0			0	0			1				0	
6.6.1	win	2023-07-10	03:12:33	03:30:03	1044807	62cf2192b9212fc96a5b3917	4	1	main_slash	11	advance_on_keypress_SLASH	22	stimuli_target_trianglerectangles.svg	stimuli_distractor_trianglediamonds.svg	17	yes	57	0	369	0	0			0	0			1				0	
6.6.1	win	2023-07-10	03:12:33	03:30:04	1046100	62cf2192b9212fc96a5b3917	4	1	main_slash	11	main_slash	23	stimuli_target_rectanglediamonds.svg	stimuli_distractor_trianglediamonds.svg	2	yes	53	1	275	0	0			0	0			1				0	
6.6.1	win	2023-07-10	03:12:33	03:30:04	1046100	62cf2192b9212fc96a5b3917	4	1	main_slash	11	advance_on_keypress_SLASH	24	stimuli_target_rectanglediamonds.svg	stimuli_distractor_trianglediamonds.svg	2	yes	57	0	110	0	0			0	0			1				0	
6.6.1	win	2023-07-10	03:12:33	03:30:05	1047058	62cf2192b9212fc96a5b3917	4	1	main_slash	11	main_slash	25	stimuli_target_trianglesquares.svg	stimuli_distractor_trianglediamonds.svg	18	yes	53	1	216	0	0			0	0			1				0	
6.6.1	win	2023-07-10	03:12:33	03:30:05	1047058	62cf2192b9212fc96a5b3917	4	1	main_slash	11	advance_on_keypress_SLASH	26	stimuli_target_trianglesquares.svg	stimuli_distractor_trianglediamonds.svg	18	yes	57	0	83	0	0			0	0			1				0	
6.6.1	win	2023-07-10	03:12:33	03:30:08	1049791	62cf2192b9212fc96a5b3917	4	1	main_slash	11	main_slash	27	stimuli_distractor_diamondtriangles.svg	stimuli_target_rectangletriangles.svg	13	yes	0	0	2000	0	0			0	0			1				0	
6.6.1	win	2023-07-10	03:12:33	03:30:08	1049791	62cf2192b9212fc96a5b3917	4	1	main_slash	11	advance_on_keypress_SLASH	28	stimuli_distractor_diamondtriangles.svg	stimuli_target_rectangletriangles.svg	13	yes	57	0	269	0	0			0	0			1				0	
6.6.1	win	2023-07-10	03:12:33	03:30:09	1051033	62cf2192b9212fc96a5b3917	4	1	main_slash	11	main_slash	29	stimuli_distractor_diamondtriangles.svg	stimuli_target_diamondrectangles.svg	31	yes	53	1	328	0	0			0	0			1				0	
6.6.1	win	2023-07-10	03:12:33	03:30:09	1051033	62cf2192b9212fc96a5b3917	4	1	main_slash	11	advance_on_keypress_SLASH	30	stimuli_distractor_diamondtriangles.svg	stimuli_target_diamondrectangles.svg	31	yes	57	0	346	0	0			0	0			1				0	
6.6.1	win	2023-07-10	03:12:33	03:30:10	1052401	62cf2192b9212fc96a5b3917	4	1	main_slash	11	main_slash	31	stimuli_distractor_trianglediamonds.svg	stimuli_target_diamondrectangles.svg	27	yes	53	1	380	0	0			0	0			1				0	
6.6.1	win	2023-07-10	03:12:33	03:30:10	1052401	62cf2192b9212fc96a5b3917	4	1	main_slash	11	advance_on_keypress_SLASH	32	stimuli_distractor_trianglediamonds.svg	stimuli_target_diamondrectangles.svg	27	yes	57	0	303	0	0			0	0			1				0	
6.6.1	win	2023-07-10	03:12:33	03:30:12	1053782	62cf2192b9212fc96a5b3917	4	1	main_slash	11	main_slash	33	stimuli_target_squaretriangles.svg	stimuli_distractor_trianglediamonds.svg	3	yes	53	1	428	0	0			0	0			1				0	
6.6.1	win	2023-07-10	03:12:33	03:30:12	1053782	62cf2192b9212fc96a5b3917	4	1	main_slash	11	advance_on_keypress_SLASH	34	stimuli_target_squaretriangles.svg	stimuli_distractor_trianglediamonds.svg	3	yes	57	0	321	0	0			0	0			1				0	
6.6.1	win	2023-07-10	03:12:33	03:30:15	1056736	62cf2192b9212fc96a5b3917	4	1	main_slash	11	main_slash	35	stimuli_distractor_trianglediamonds.svg	stimuli_target_trianglerectangles.svg	25	yes	0	0	2000	0	0			0	0			1				0	
6.6.1	win	2023-07-10	03:12:33	03:30:15	1056736	62cf2192b9212fc96a5b3917	4	1	main_slash	11	advance_on_keypress_SLASH	36	stimuli_distractor_trianglediamonds.svg	stimuli_target_trianglerectangles.svg	25	yes	57	0	245	0	0			0	0			1				0	
6.6.1	win	2023-07-10	03:12:33	03:30:16	1058282	62cf2192b9212fc96a5b3917	4	1	main_slash	11	main_slash	37	stimuli_target_diamondrectangles.svg	stimuli_distractor_trianglediamonds.svg	19	yes	53	1	665	0	0			0	0			1				0	
6.6.1	win	2023-07-10	03:12:33	03:30:16	1058282	62cf2192b9212fc96a5b3917	4	1	main_slash	11	advance_on_keypress_SLASH	38	stimuli_target_diamondrectangles.svg	stimuli_distractor_trianglediamonds.svg	19	yes	57	0	178	0	0			0	0			1				0	
6.6.1	win	2023-07-10	03:12:33	03:30:18	1059849	62cf2192b9212fc96a5b3917	4	1	main_slash	11	main_slash	39	stimuli_distractor_diamondtriangles.svg	stimuli_target_trianglesquares.svg	30	yes	53	1	748	0	0			0	0			1				0	
6.6.1	win	2023-07-10	03:12:33	03:30:18	1059849	62cf2192b9212fc96a5b3917	4	1	main_slash	11	advance_on_keypress_SLASH	40	stimuli_distractor_diamondtriangles.svg	stimuli_target_trianglesquares.svg	30	yes	57	0	149	0	0			0	0			1				0	
6.6.1	win	2023-07-10	03:12:33	03:30:19	1061278	62cf2192b9212fc96a5b3917	4	1	main_slash	11	main_slash	41	stimuli_distractor_diamondtriangles.svg	stimuli_distractor_trianglediamonds.svg	38	no	53	0	629	0	0			0	0			1				0	
6.6.1	win	2023-07-10	03:12:33	03:30:19	1061278	62cf2192b9212fc96a5b3917	4	1	main_slash	11	advance_on_keypress_SLASH	42	stimuli_distractor_diamondtriangles.svg	stimuli_distractor_trianglediamonds.svg	38	no	57	0	201	0	0			0	0			1				0	
6.6.1	win	2023-07-10	03:12:33	03:30:21	1062992	62cf2192b9212fc96a5b3917	4	1	main_slash	11	main_slash	43	stimuli_distractor_trianglediamonds.svg	stimuli_distractor_diamondtriangles.svg	35	no	53	0	861	0	0			0	0			1				0	
6.6.1	win	2023-07-10	03:12:33	03:30:21	1062992	62cf2192b9212fc96a5b3917	4	1	main_slash	11	advance_on_keypress_SLASH	44	stimuli_distractor_trianglediamonds.svg	stimuli_distractor_diamondtriangles.svg	35	no	57	0	187	0	0			0	0			1				0	
6.6.1	win	2023-07-10	03:12:33	03:30:24	1065813	62cf2192b9212fc96a5b3917	4	1	main_slash	11	main_slash	45	stimuli_distractor_trianglediamonds.svg	stimuli_target_trianglesquares.svg	26	yes	0	0	2000	0	0			0	0			1				0	
6.6.1	win	2023-07-10	03:12:33	03:30:24	1065813	62cf2192b9212fc96a5b3917	4	1	main_slash	11	advance_on_keypress_SLASH	46	stimuli_distractor_trianglediamonds.svg	stimuli_target_trianglesquares.svg	26	yes	57	0	764	0	0			0	0			1				0	
6.6.1	win	2023-07-10	03:12:33	03:30:25	1067534	62cf2192b9212fc96a5b3917	4	1	main_slash	11	main_slash	47	stimuli_distractor_diamondtriangles.svg	stimuli_target_squaretriangles.svg	15	yes	53	1	306	0	0			0	0			1				0	
6.6.1	win	2023-07-10	03:12:33	03:30:25	1067534	62cf2192b9212fc96a5b3917	4	1	main_slash	11	advance_on_keypress_SLASH	48	stimuli_distractor_diamondtriangles.svg	stimuli_target_squaretriangles.svg	15	yes	57	0	241	0	0			0	0			1				0	
6.6.1	win	2023-07-10	03:12:33	03:30:27	1068867	62cf2192b9212fc96a5b3917	4	1	main_slash	11	main_slash	49	stimuli_distractor_diamondtriangles.svg	stimuli_distractor_diamondtriangles.svg	39	no	53	0	455	0	0			0	0			1				0	
6.6.1	win	2023-07-10	03:12:33	03:30:27	1068867	62cf2192b9212fc96a5b3917	4	1	main_slash	11	advance_on_keypress_SLASH	50	stimuli_distractor_diamondtriangles.svg	stimuli_distractor_diamondtriangles.svg	39	no	57	0	153	0	0			0	0			1				0	
6.6.1	win	2023-07-10	03:12:33	03:30:29	1070641	62cf2192b9212fc96a5b3917	4	1	main_slash	11	main_slash	51	stimuli_target_diamondsquares.svg	stimuli_distractor_trianglediamonds.svg	20	yes	53	1	981	0	0			0	0			1				0	
6.6.1	win	2023-07-10	03:12:33	03:30:29	1070641	62cf2192b9212fc96a5b3917	4	1	main_slash	11	advance_on_keypress_SLASH	52	stimuli_target_diamondsquares.svg	stimuli_distractor_trianglediamonds.svg	20	yes	57	0	533	0	0			0	0			1				0	
6.6.1	win	2023-07-10	03:12:33	03:30:30	1072448	62cf2192b9212fc96a5b3917	4	1	main_slash	11	main_slash	53	stimuli_distractor_trianglediamonds.svg	stimuli_target_squarediamonds.svg	12	yes	53	1	623	0	0			0	0			1				0	
6.6.1	win	2023-07-10	03:12:33	03:30:30	1072448	62cf2192b9212fc96a5b3917	4	1	main_slash	11	advance_on_keypress_SLASH	54	stimuli_distractor_trianglediamonds.svg	stimuli_target_squarediamonds.svg	12	yes	57	0	534	0	0			0	0			1				0	
6.6.1	win	2023-07-10	03:12:33	03:30:32	1074092	62cf2192b9212fc96a5b3917	4	1	main_slash	11	main_slash	55	stimuli_target_trianglesquares.svg	stimuli_distractor_diamondtriangles.svg	22	yes	53	1	468	0	0			0	0			1				0	
6.6.1	win	2023-07-10	03:12:33	03:30:32	1074092	62cf2192b9212fc96a5b3917	4	1	main_slash	11	advance_on_keypress_SLASH	56	stimuli_target_trianglesquares.svg	stimuli_distractor_diamondtriangles.svg	22	yes	57	0	327	0	0			0	0			1				0	
6.6.1	win	2023-07-10	03:12:33	03:30:34	1075805	62cf2192b9212fc96a5b3917	4	1	main_slash	11	main_slash	57	stimuli_distractor_diamondtriangles.svg	stimuli_target_diamondsquares.svg	32	yes	53	1	749	0	0			0	0			1				0	
6.6.1	win	2023-07-10	03:12:33	03:30:34	1075805	62cf2192b9212fc96a5b3917	4	1	main_slash	11	advance_on_keypress_SLASH	58	stimuli_distractor_diamondtriangles.svg	stimuli_target_diamondsquares.svg	32	yes	57	0	201	0	0			0	0			1				0	
6.6.1	win	2023-07-10	03:12:33	03:30:35	1077208	62cf2192b9212fc96a5b3917	4	1	main_slash	11	main_slash	59	stimuli_target_squarediamonds.svg	stimuli_distractor_diamondtriangles.svg	8	yes	53	1	552	0	0			0	0			1				0	
6.6.1	win	2023-07-10	03:12:33	03:30:35	1077208	62cf2192b9212fc96a5b3917	4	1	main_slash	11	advance_on_keypress_SLASH	60	stimuli_target_squarediamonds.svg	stimuli_distractor_diamondtriangles.svg	8	yes	57	0	346	0	0			0	0			1				0	
6.6.1	win	2023-07-10	03:12:33	03:30:38	1080204	62cf2192b9212fc96a5b3917	4	1	main_slash	11	main_slash	61	stimuli_distractor_diamondtriangles.svg	stimuli_distractor_trianglediamonds.svg	37	no	0	1	2000	0	0			0	0			1				0	
6.6.1	win	2023-07-10	03:12:33	03:30:38	1080204	62cf2192b9212fc96a5b3917	4	1	main_slash	11	advance_on_keypress_SLASH	62	stimuli_distractor_diamondtriangles.svg	stimuli_distractor_trianglediamonds.svg	37	no	57	0	448	0	0			0	0			1				0	
6.6.1	win	2023-07-10	03:12:33	03:30:40	1082104	62cf2192b9212fc96a5b3917	4	1	main_slash	11	main_slash	63	stimuli_distractor_trianglediamonds.svg	stimuli_target_rectanglediamonds.svg	10	yes	53	1	802	0	0			0	0			1				0	
6.6.1	win	2023-07-10	03:12:33	03:30:40	1082104	62cf2192b9212fc96a5b3917	4	1	main_slash	11	advance_on_keypress_SLASH	64	stimuli_distractor_trianglediamonds.svg	stimuli_target_rectanglediamonds.svg	10	yes	57	0	355	0	0			0	0			1				0	
6.6.1	win	2023-07-10	03:12:33	03:30:41	1083383	62cf2192b9212fc96a5b3917	4	1	main_slash	11	main_slash	65	stimuli_distractor_trianglediamonds.svg	stimuli_target_rectangletriangles.svg	9	yes	53	1	281	0	0			0	0			1				0	
6.6.1	win	2023-07-10	03:12:33	03:30:41	1083383	62cf2192b9212fc96a5b3917	4	1	main_slash	11	advance_on_keypress_SLASH	66	stimuli_distractor_trianglediamonds.svg	stimuli_target_rectangletriangles.svg	9	yes	57	0	237	0	0			0	0			1				0	
6.6.1	win	2023-07-10	03:12:33	03:30:43	1084664	62cf2192b9212fc96a5b3917	4	1	main_slash	11	main_slash	67	stimuli_distractor_trianglediamonds.svg	stimuli_distractor_trianglediamonds.svg	34	no	53	0	397	0	0			0	0			1				0	
6.6.1	win	2023-07-10	03:12:33	03:30:43	1084664	62cf2192b9212fc96a5b3917	4	1	main_slash	11	advance_on_keypress_SLASH	68	stimuli_distractor_trianglediamonds.svg	stimuli_distractor_trianglediamonds.svg	34	no	57	0	356	0	0			0	0			1				0	
6.6.1	win	2023-07-10	03:12:33	03:30:45	1086985	62cf2192b9212fc96a5b3917	4	1	main_slash	11	main_slash	69	stimuli_distractor_trianglediamonds.svg	stimuli_target_diamondsquares.svg	28	yes	53	1	1319	0	0			0	0			1				0	
6.6.1	win	2023-07-10	03:12:33	03:30:45	1086985	62cf2192b9212fc96a5b3917	4	1	main_slash	11	advance_on_keypress_SLASH	70	stimuli_distractor_trianglediamonds.svg	stimuli_target_diamondsquares.svg	28	yes	57	0	428	0	0			0	0			1				0	
6.6.1	win	2023-07-10	03:12:33	03:30:46	1088527	62cf2192b9212fc96a5b3917	4	1	main_slash	11	main_slash	71	stimuli_target_rectangletriangles.svg	stimuli_distractor_trianglediamonds.svg	1	yes	53	1	479	0	0			0	0			1				0	
6.6.1	win	2023-07-10	03:12:33	03:30:46	1088527	62cf2192b9212fc96a5b3917	4	1	main_slash	11	advance_on_keypress_SLASH	72	stimuli_target_rectangletriangles.svg	stimuli_distractor_trianglediamonds.svg	1	yes	57	0	296	0	0			0	0			1				0	
6.6.1	win	2023-07-10	03:12:33	03:30:48	1089984	62cf2192b9212fc96a5b3917	4	1	main_slash	11	main_slash	73	stimuli_target_squarediamonds.svg	stimuli_distractor_trianglediamonds.svg	4	yes	53	1	503	0	0			0	0			1				0	
6.6.1	win	2023-07-10	03:12:33	03:30:48	1089984	62cf2192b9212fc96a5b3917	4	1	main_slash	11	advance_on_keypress_SLASH	74	stimuli_target_squarediamonds.svg	stimuli_distractor_trianglediamonds.svg	4	yes	57	0	278	0	0			0	0			1				0	
6.6.1	win	2023-07-10	03:12:33	03:30:49	1091386	62cf2192b9212fc96a5b3917	4	1	main_slash	11	main_slash	75	stimuli_target_diamondsquares.svg	stimuli_distractor_diamondtriangles.svg	24	yes	53	1	490	0	0			0	0			1				0	
6.6.1	win	2023-07-10	03:12:33	03:30:49	1091386	62cf2192b9212fc96a5b3917	4	1	main_slash	11	advance_on_keypress_SLASH	76	stimuli_target_diamondsquares.svg	stimuli_distractor_diamondtriangles.svg	24	yes	57	0	350	0	0			0	0			1				0	
6.6.1	win	2023-07-10	03:12:33	03:30:51	1092955	62cf2192b9212fc96a5b3917	4	1	main_slash	11	main_slash	77	stimuli_target_squaretriangles.svg	stimuli_distractor_diamondtriangles.svg	7	yes	53	1	576	0	0			0	0			1				0	
6.6.1	win	2023-07-10	03:12:33	03:30:51	1092955	62cf2192b9212fc96a5b3917	4	1	main_slash	11	advance_on_keypress_SLASH	78	stimuli_target_squaretriangles.svg	stimuli_distractor_diamondtriangles.svg	7	yes	57	0	224	0	0			0	0			1				0	
6.6.1	win	2023-07-10	03:12:33	03:30:52	1094345	62cf2192b9212fc96a5b3917	4	1	main_slash	11	main_slash	79	stimuli_target_rectangletriangles.svg	stimuli_distractor_diamondtriangles.svg	5	yes	53	1	534	0	0			0	0			1				0	
6.6.1	win	2023-07-10	03:12:33	03:30:52	1094345	62cf2192b9212fc96a5b3917	4	1	main_slash	11	advance_on_keypress_SLASH	80	stimuli_target_rectangletriangles.svg	stimuli_distractor_diamondtriangles.svg	5	yes	57	0	453	0	0			0	0			1				0	
6.6.1	win	2023-07-10	03:12:33	03:30:54	1096096	62cf2192b9212fc96a5b3917	4	1	main_slash	11	main_slash	81	stimuli_target_trianglesquares.svg	stimuli_distractor_diamondtriangles.svg	22	yes	53	1	652	0	0			0	0			1				0	
6.6.1	win	2023-07-10	03:12:33	03:30:54	1096096	62cf2192b9212fc96a5b3917	4	1	main_slash	11	advance_on_keypress_SLASH	82	stimuli_target_trianglesquares.svg	stimuli_distractor_diamondtriangles.svg	22	yes	57	0	183	0	0			0	0			1				0	
6.6.1	win	2023-07-10	03:12:33	03:30:55	1097411	62cf2192b9212fc96a5b3917	4	1	main_slash	11	main_slash	83	stimuli_distractor_diamondtriangles.svg	stimuli_target_diamondsquares.svg	32	yes	53	1	485	0	0			0	0			1				0	
6.6.1	win	2023-07-10	03:12:33	03:30:55	1097411	62cf2192b9212fc96a5b3917	4	1	main_slash	11	advance_on_keypress_SLASH	84	stimuli_distractor_diamondtriangles.svg	stimuli_target_diamondsquares.svg	32	yes	57	0	111	0	0			0	0			1				0	
6.6.1	win	2023-07-10	03:12:33	03:30:58	1100158	62cf2192b9212fc96a5b3917	4	1	main_slash	11	main_slash	85	stimuli_distractor_trianglediamonds.svg	stimuli_target_trianglerectangles.svg	25	yes	0	0	2000	0	0			0	0			1				0	
6.6.1	win	2023-07-10	03:12:33	03:30:58	1100158	62cf2192b9212fc96a5b3917	4	1	main_slash	11	advance_on_keypress_SLASH	86	stimuli_distractor_trianglediamonds.svg	stimuli_target_trianglerectangles.svg	25	yes	57	0	691	0	0			0	0			1				0	
6.6.1	win	2023-07-10	03:12:33	03:31:00	1101831	62cf2192b9212fc96a5b3917	4	1	main_slash	11	main_slash	87	stimuli_distractor_trianglediamonds.svg	stimuli_target_rectangletriangles.svg	9	yes	53	1	341	0	0			0	0			1				0	
6.6.1	win	2023-07-10	03:12:33	03:31:00	1101831	62cf2192b9212fc96a5b3917	4	1	main_slash	11	advance_on_keypress_SLASH	88	stimuli_distractor_trianglediamonds.svg	stimuli_target_rectangletriangles.svg	9	yes	57	0	407	0	0			0	0			1				0	
6.6.1	win	2023-07-10	03:12:33	03:31:01	1103521	62cf2192b9212fc96a5b3917	4	1	main_slash	11	main_slash	89	stimuli_distractor_trianglediamonds.svg	stimuli_distractor_diamondtriangles.svg	36	no	53	0	649	0	0			0	0			1				0	
6.6.1	win	2023-07-10	03:12:33	03:31:01	1103521	62cf2192b9212fc96a5b3917	4	1	main_slash	11	advance_on_keypress_SLASH	90	stimuli_distractor_trianglediamonds.svg	stimuli_distractor_diamondtriangles.svg	36	no	57	0	519	0	0			0	0			1				0	
6.6.1	win	2023-07-10	03:12:33	03:31:03	1105168	62cf2192b9212fc96a5b3917	4	1	main_slash	11	main_slash	91	stimuli_target_squaretriangles.svg	stimuli_distractor_diamondtriangles.svg	7	yes	53	1	480	0	0			0	0			1				0	
6.6.1	win	2023-07-10	03:12:33	03:31:03	1105168	62cf2192b9212fc96a5b3917	4	1	main_slash	11	advance_on_keypress_SLASH	92	stimuli_target_squaretriangles.svg	stimuli_distractor_diamondtriangles.svg	7	yes	57	0	500	0	0			0	0			1				0	
6.6.1	win	2023-07-10	03:12:33	03:31:04	1106581	62cf2192b9212fc96a5b3917	4	1	main_slash	11	main_slash	93	stimuli_target_diamondsquares.svg	stimuli_distractor_diamondtriangles.svg	24	yes	53	1	261	0	0			0	0			1				0	
6.6.1	win	2023-07-10	03:12:33	03:31:04	1106581	62cf2192b9212fc96a5b3917	4	1	main_slash	11	advance_on_keypress_SLASH	94	stimuli_target_diamondsquares.svg	stimuli_distractor_diamondtriangles.svg	24	yes	57	0	346	0	0			0	0			1				0	
6.6.1	win	2023-07-10	03:12:33	03:31:07	1109194	62cf2192b9212fc96a5b3917	4	1	main_slash	11	main_slash	95	stimuli_distractor_diamondtriangles.svg	stimuli_distractor_trianglediamonds.svg	38	no	53	0	1625	0	0			0	0			1				0	
6.6.1	win	2023-07-10	03:12:33	03:31:07	1109194	62cf2192b9212fc96a5b3917	4	1	main_slash	11	advance_on_keypress_SLASH	96	stimuli_distractor_diamondtriangles.svg	stimuli_distractor_trianglediamonds.svg	38	no	57	0	506	0	0			0	0			1				0	
6.6.1	win	2023-07-10	03:12:33	03:31:09	1110815	62cf2192b9212fc96a5b3917	4	1	main_slash	11	main_slash	97	stimuli_distractor_trianglediamonds.svg	stimuli_target_diamondsquares.svg	28	yes	53	1	481	0	0			0	0			1				0	
6.6.1	win	2023-07-10	03:12:33	03:31:09	1110815	62cf2192b9212fc96a5b3917	4	1	main_slash	11	advance_on_keypress_SLASH	98	stimuli_distractor_trianglediamonds.svg	stimuli_target_diamondsquares.svg	28	yes	57	0	260	0	0			0	0			1				0	
6.6.1	win	2023-07-10	03:12:33	03:31:10	1112418	62cf2192b9212fc96a5b3917	4	1	main_slash	11	main_slash	99	stimuli_target_diamondrectangles.svg	stimuli_distractor_diamondtriangles.svg	23	yes	53	1	702	0	0			0	0			1				0	
6.6.1	win	2023-07-10	03:12:33	03:31:10	1112418	62cf2192b9212fc96a5b3917	4	1	main_slash	11	advance_on_keypress_SLASH	100	stimuli_target_diamondrectangles.svg	stimuli_distractor_diamondtriangles.svg	23	yes	57	0	341	0	0			0	0			1				0	
6.6.1	win	2023-07-10	03:12:33	03:31:13	1115399	62cf2192b9212fc96a5b3917	4	1	main_slash	11	main_slash	101	stimuli_target_trianglerectangles.svg	stimuli_distractor_trianglediamonds.svg	17	yes	0	0	2000	0	0			0	0			1				0	
6.6.1	win	2023-07-10	03:12:33	03:31:13	1115399	62cf2192b9212fc96a5b3917	4	1	main_slash	11	advance_on_keypress_SLASH	102	stimuli_target_trianglerectangles.svg	stimuli_distractor_trianglediamonds.svg	17	yes	57	0	538	0	0			0	0			1				0	
6.6.1	win	2023-07-10	03:12:33	03:31:15	1117129	62cf2192b9212fc96a5b3917	4	1	main_slash	11	main_slash	103	stimuli_target_squarediamonds.svg	stimuli_distractor_diamondtriangles.svg	8	yes	53	1	549	0	0			0	0			1				0	
6.6.1	win	2023-07-10	03:12:33	03:31:15	1117129	62cf2192b9212fc96a5b3917	4	1	main_slash	11	advance_on_keypress_SLASH	104	stimuli_target_squarediamonds.svg	stimuli_distractor_diamondtriangles.svg	8	yes	57	0	326	0	0			0	0			1				0	
6.6.1	win	2023-07-10	03:12:33	03:31:16	1118568	62cf2192b9212fc96a5b3917	4	1	main_slash	11	main_slash	105	stimuli_distractor_diamondtriangles.svg	stimuli_target_diamondrectangles.svg	31	yes	53	1	472	0	0			0	0			1				0	
6.6.1	win	2023-07-10	03:12:33	03:31:16	1118568	62cf2192b9212fc96a5b3917	4	1	main_slash	11	advance_on_keypress_SLASH	106	stimuli_distractor_diamondtriangles.svg	stimuli_target_diamondrectangles.svg	31	yes	57	0	427	0	0			0	0			1				0	
6.6.1	win	2023-07-10	03:12:33	03:31:20	1121628	62cf2192b9212fc96a5b3917	4	1	main_slash	11	main_slash	107	stimuli_distractor_trianglediamonds.svg	stimuli_distractor_trianglediamonds.svg	33	no	0	1	2000	0	0			0	0			1				0	
6.6.1	win	2023-07-10	03:12:33	03:31:20	1121628	62cf2192b9212fc96a5b3917	4	1	main_slash	11	advance_on_keypress_SLASH	108	stimuli_distractor_trianglediamonds.svg	stimuli_distractor_trianglediamonds.svg	33	no	57	0	1651	0	0			0	0			1				0	
6.6.1	win	2023-07-10	03:12:33	03:31:23	1124816	62cf2192b9212fc96a5b3917	4	1	main_slash	11	main_slash	109	stimuli_distractor_diamondtriangles.svg	stimuli_distractor_trianglediamonds.svg	37	no	53	0	891	0	0			0	0			1				0	
6.6.1	win	2023-07-10	03:12:33	03:31:23	1124816	62cf2192b9212fc96a5b3917	4	1	main_slash	11	advance_on_keypress_SLASH	110	stimuli_distractor_diamondtriangles.svg	stimuli_distractor_trianglediamonds.svg	37	no	57	0	629	0	0			0	0			1				0	
6.6.1	win	2023-07-10	03:12:33	03:31:26	1128090	62cf2192b9212fc96a5b3917	4	1	main_slash	11	main_slash	111	stimuli_target_diamondrectangles.svg	stimuli_distractor_trianglediamonds.svg	19	yes	0	0	2000	0	0			0	0			1				0	
6.6.1	win	2023-07-10	03:12:33	03:31:26	1128090	62cf2192b9212fc96a5b3917	4	1	main_slash	11	advance_on_keypress_SLASH	112	stimuli_target_diamondrectangles.svg	stimuli_distractor_trianglediamonds.svg	19	yes	57	0	3359	0	0			0	0			1				0	
6.6.1	win	2023-07-10	03:12:33	03:31:30	1132361	62cf2192b9212fc96a5b3917	4	1	main_slash	11	main_slash	113	stimuli_target_squarediamonds.svg	stimuli_distractor_trianglediamonds.svg	4	yes	53	1	275	0	0			0	0			1				0	
6.6.1	win	2023-07-10	03:12:33	03:31:30	1132361	62cf2192b9212fc96a5b3917	4	1	main_slash	11	advance_on_keypress_SLASH	114	stimuli_target_squarediamonds.svg	stimuli_distractor_trianglediamonds.svg	4	yes	57	0	894	0	0			0	0			1				0	
6.6.1	win	2023-07-10	03:12:33	03:31:34	1135885	62cf2192b9212fc96a5b3917	4	1	main_slash	11	main_slash	115	stimuli_target_trianglesquares.svg	stimuli_distractor_trianglediamonds.svg	18	yes	0	0	2000	0	0			0	0			1				0	
6.6.1	win	2023-07-10	03:12:33	03:31:34	1135885	62cf2192b9212fc96a5b3917	4	1	main_slash	11	advance_on_keypress_SLASH	116	stimuli_target_trianglesquares.svg	stimuli_distractor_trianglediamonds.svg	18	yes	57	0	701	0	0			0	0			1				0	
6.6.1	win	2023-07-10	03:12:33	03:31:35	1137587	62cf2192b9212fc96a5b3917	4	1	main_slash	11	main_slash	117	stimuli_distractor_diamondtriangles.svg	stimuli_target_rectanglediamonds.svg	14	yes	53	1	353	0	0			0	0			1				0	
6.6.1	win	2023-07-10	03:12:33	03:31:35	1137587	62cf2192b9212fc96a5b3917	4	1	main_slash	11	advance_on_keypress_SLASH	118	stimuli_distractor_diamondtriangles.svg	stimuli_target_rectanglediamonds.svg	14	yes	57	0	1654	0	0			0	0			1				0	
6.6.1	win	2023-07-10	03:12:33	03:31:38	1140122	62cf2192b9212fc96a5b3917	4	1	main_slash	11	main_slash	119	stimuli_distractor_diamondtriangles.svg	stimuli_distractor_diamondtriangles.svg	40	no	53	0	239	0	0			0	0			1				0	
6.6.1	win	2023-07-10	03:12:33	03:31:38	1140122	62cf2192b9212fc96a5b3917	4	1	main_slash	11	advance_on_keypress_SLASH	120	stimuli_distractor_diamondtriangles.svg	stimuli_distractor_diamondtriangles.svg	40	no	57	0	439	0	0			0	0			1				0	
6.6.1	win	2023-07-10	03:12:33	03:31:40	1141680	62cf2192b9212fc96a5b3917	4	1	main_slash	11	main_slash	121	stimuli_target_trianglerectangles.svg	stimuli_distractor_diamondtriangles.svg	21	yes	53	1	483	0	0			0	0			1				0	
6.6.1	win	2023-07-10	03:12:33	03:31:40	1141680	62cf2192b9212fc96a5b3917	4	1	main_slash	11	advance_on_keypress_SLASH	122	stimuli_target_trianglerectangles.svg	stimuli_distractor_diamondtriangles.svg	21	yes	57	0	348	0	0			0	0			1				0	
6.6.1	win	2023-07-10	03:12:33	03:31:42	1144019	62cf2192b9212fc96a5b3917	4	1	main_slash	11	main_slash	123	stimuli_distractor_trianglediamonds.svg	stimuli_target_squaretriangles.svg	11	yes	53	1	1338	0	0			0	0			1				0	
6.6.1	win	2023-07-10	03:12:33	03:31:42	1144019	62cf2192b9212fc96a5b3917	4	1	main_slash	11	advance_on_keypress_SLASH	124	stimuli_distractor_trianglediamonds.svg	stimuli_target_squaretriangles.svg	11	yes	57	0	628	0	0			0	0			1				0	
6.6.1	win	2023-07-10	03:12:33	03:31:45	1147278	62cf2192b9212fc96a5b3917	4	1	main_slash	11	main_slash	125	stimuli_distractor_diamondtriangles.svg	stimuli_target_rectangletriangles.svg	13	yes	0	0	2000	0	0			0	0			1				0	
6.6.1	win	2023-07-10	03:12:33	03:31:45	1147278	62cf2192b9212fc96a5b3917	4	1	main_slash	11	advance_on_keypress_SLASH	126	stimuli_distractor_diamondtriangles.svg	stimuli_target_rectangletriangles.svg	13	yes	57	0	1262	0	0			0	0			1				0	
6.6.1	win	2023-07-10	03:12:33	03:31:48	1149762	62cf2192b9212fc96a5b3917	4	1	main_slash	11	main_slash	127	stimuli_distractor_diamondtriangles.svg	stimuli_target_trianglerectangles.svg	29	yes	53	1	586	0	0			0	0			1				0	
6.6.1	win	2023-07-10	03:12:33	03:31:48	1149762	62cf2192b9212fc96a5b3917	4	1	main_slash	11	advance_on_keypress_SLASH	128	stimuli_distractor_diamondtriangles.svg	stimuli_target_trianglerectangles.svg	29	yes	57	0	1461	0	0			0	0			1				0	
6.6.1	win	2023-07-10	03:12:33	03:31:51	1152821	62cf2192b9212fc96a5b3917	4	1	main_slash	11	main_slash	129	stimuli_target_rectanglediamonds.svg	stimuli_distractor_diamondtriangles.svg	6	yes	53	1	964	0	0			0	0			1				0	
6.6.1	win	2023-07-10	03:12:33	03:31:51	1152821	62cf2192b9212fc96a5b3917	4	1	main_slash	11	advance_on_keypress_SLASH	130	stimuli_target_rectanglediamonds.svg	stimuli_distractor_diamondtriangles.svg	6	yes	57	0	774	0	0			0	0			1				0	
6.6.1	win	2023-07-10	03:12:33	03:31:53	1154631	62cf2192b9212fc96a5b3917	4	1	main_slash	11	main_slash	131	stimuli_distractor_trianglediamonds.svg	stimuli_target_rectanglediamonds.svg	10	yes	53	1	392	0	0			0	0			1				0	
6.6.1	win	2023-07-10	03:12:33	03:31:53	1154631	62cf2192b9212fc96a5b3917	4	1	main_slash	11	advance_on_keypress_SLASH	132	stimuli_distractor_trianglediamonds.svg	stimuli_target_rectanglediamonds.svg	10	yes	57	0	954	0	0			0	0			1				0	
6.6.1	win	2023-07-10	03:12:33	03:31:55	1156656	62cf2192b9212fc96a5b3917	4	1	main_slash	11	main_slash	133	stimuli_distractor_trianglediamonds.svg	stimuli_distractor_diamondtriangles.svg	35	no	53	0	435	0	0			0	0			1				0	
6.6.1	win	2023-07-10	03:12:33	03:31:55	1156656	62cf2192b9212fc96a5b3917	4	1	main_slash	11	advance_on_keypress_SLASH	134	stimuli_distractor_trianglediamonds.svg	stimuli_distractor_diamondtriangles.svg	35	no	57	0	717	0	0			0	0			1				0	
6.6.1	win	2023-07-10	03:12:33	03:31:57	1158652	62cf2192b9212fc96a5b3917	4	1	main_slash	11	main_slash	135	stimuli_target_diamondsquares.svg	stimuli_distractor_trianglediamonds.svg	20	yes	53	1	631	0	0			0	0			1				0	
6.6.1	win	2023-07-10	03:12:33	03:31:57	1158652	62cf2192b9212fc96a5b3917	4	1	main_slash	11	advance_on_keypress_SLASH	136	stimuli_target_diamondsquares.svg	stimuli_distractor_trianglediamonds.svg	20	yes	57	0	297	0	0			0	0			1				0	
6.6.1	win	2023-07-10	03:12:33	03:31:58	1160164	62cf2192b9212fc96a5b3917	4	1	main_slash	11	main_slash	137	stimuli_distractor_diamondtriangles.svg	stimuli_target_trianglesquares.svg	30	yes	53	1	578	0	0			0	0			1				0	
6.6.1	win	2023-07-10	03:12:33	03:31:58	1160164	62cf2192b9212fc96a5b3917	4	1	main_slash	11	advance_on_keypress_SLASH	138	stimuli_distractor_diamondtriangles.svg	stimuli_target_trianglesquares.svg	30	yes	57	0	338	0	0			0	0			1				0	
6.6.1	win	2023-07-10	03:12:33	03:32:00	1161723	62cf2192b9212fc96a5b3917	4	1	main_slash	11	main_slash	139	stimuli_distractor_diamondtriangles.svg	stimuli_distractor_diamondtriangles.svg	39	no	53	0	588	0	0			0	0			1				0	
6.6.1	win	2023-07-10	03:12:33	03:32:00	1161723	62cf2192b9212fc96a5b3917	4	1	main_slash	11	advance_on_keypress_SLASH	140	stimuli_distractor_diamondtriangles.svg	stimuli_distractor_diamondtriangles.svg	39	no	57	0	513	0	0			0	0			1				0	
6.6.1	win	2023-07-10	03:12:33	03:32:01	1163355	62cf2192b9212fc96a5b3917	4	1	main_slash	11	main_slash	141	stimuli_distractor_trianglediamonds.svg	stimuli_target_squarediamonds.svg	12	yes	53	1	470	0	0			0	0			1				0	
6.6.1	win	2023-07-10	03:12:33	03:32:01	1163355	62cf2192b9212fc96a5b3917	4	1	main_slash	11	advance_on_keypress_SLASH	142	stimuli_distractor_trianglediamonds.svg	stimuli_target_squarediamonds.svg	12	yes	57	0	411	0	0			0	0			1				0	
6.6.1	win	2023-07-10	03:12:33	03:32:03	1164971	62cf2192b9212fc96a5b3917	4	1	main_slash	11	main_slash	143	stimuli_target_rectangletriangles.svg	stimuli_distractor_trianglediamonds.svg	1	yes	53	1	572	0	0			0	0			1				0	
6.6.1	win	2023-07-10	03:12:33	03:32:03	1164971	62cf2192b9212fc96a5b3917	4	1	main_slash	11	advance_on_keypress_SLASH	144	stimuli_target_rectangletriangles.svg	stimuli_distractor_trianglediamonds.svg	1	yes	57	0	376	0	0			0	0			1				0	
6.6.1	win	2023-07-10	03:12:33	03:32:06	1167982	62cf2192b9212fc96a5b3917	4	1	main_slash	11	main_slash	145	stimuli_distractor_trianglediamonds.svg	stimuli_distractor_trianglediamonds.svg	34	no	0	1	2000	0	0			0	0			1				0	
6.6.1	win	2023-07-10	03:12:33	03:32:06	1167982	62cf2192b9212fc96a5b3917	4	1	main_slash	11	advance_on_keypress_SLASH	146	stimuli_distractor_trianglediamonds.svg	stimuli_distractor_trianglediamonds.svg	34	no	57	0	455	0	0			0	0			1				0	
6.6.1	win	2023-07-10	03:12:33	03:32:08	1169727	62cf2192b9212fc96a5b3917	4	1	main_slash	11	main_slash	147	stimuli_target_rectanglediamonds.svg	stimuli_distractor_trianglediamonds.svg	2	yes	53	1	647	0	0			0	0			1				0	
6.6.1	win	2023-07-10	03:12:33	03:32:08	1169727	62cf2192b9212fc96a5b3917	4	1	main_slash	11	advance_on_keypress_SLASH	148	stimuli_target_rectanglediamonds.svg	stimuli_distractor_trianglediamonds.svg	2	yes	57	0	468	0	0			0	0			1				0	
6.6.1	win	2023-07-10	03:12:33	03:32:11	1172845	62cf2192b9212fc96a5b3917	4	1	main_slash	11	main_slash	149	stimuli_distractor_trianglediamonds.svg	stimuli_target_trianglesquares.svg	26	yes	0	0	2000	0	0			0	0			1				0	
6.6.1	win	2023-07-10	03:12:33	03:32:11	1172845	62cf2192b9212fc96a5b3917	4	1	main_slash	11	advance_on_keypress_SLASH	150	stimuli_distractor_trianglediamonds.svg	stimuli_target_trianglesquares.svg	26	yes	57	0	690	0	0			0	0			1				0	
6.6.1	win	2023-07-10	03:12:33	03:32:13	1174815	62cf2192b9212fc96a5b3917	4	1	main_slash	11	main_slash	151	stimuli_distractor_diamondtriangles.svg	stimuli_target_squarediamonds.svg	16	yes	53	1	637	0	0			0	0			1				0	
6.6.1	win	2023-07-10	03:12:33	03:32:13	1174815	62cf2192b9212fc96a5b3917	4	1	main_slash	11	advance_on_keypress_SLASH	152	stimuli_distractor_diamondtriangles.svg	stimuli_target_squarediamonds.svg	16	yes	57	0	706	0	0			0	0			1				0	
6.6.1	win	2023-07-10	03:12:33	03:32:16	1178159	62cf2192b9212fc96a5b3917	4	1	main_slash	11	main_slash	153	stimuli_target_squaretriangles.svg	stimuli_distractor_trianglediamonds.svg	3	yes	0	0	2000	0	0			0	0			1				0	
6.6.1	win	2023-07-10	03:12:33	03:32:16	1178159	62cf2192b9212fc96a5b3917	4	1	main_slash	11	advance_on_keypress_SLASH	154	stimuli_target_squaretriangles.svg	stimuli_distractor_trianglediamonds.svg	3	yes	57	0	748	0	0			0	0			1				0	
6.6.1	win	2023-07-10	03:12:33	03:32:18	1180119	62cf2192b9212fc96a5b3917	4	1	main_slash	11	main_slash	155	stimuli_target_rectangletriangles.svg	stimuli_distractor_diamondtriangles.svg	5	yes	53	1	563	0	0			0	0			1				0	
6.6.1	win	2023-07-10	03:12:33	03:32:18	1180119	62cf2192b9212fc96a5b3917	4	1	main_slash	11	advance_on_keypress_SLASH	156	stimuli_target_rectangletriangles.svg	stimuli_distractor_diamondtriangles.svg	5	yes	57	0	648	0	0			0	0			1				0	
6.6.1	win	2023-07-10	03:12:33	03:32:20	1181849	62cf2192b9212fc96a5b3917	4	1	main_slash	11	main_slash	157	stimuli_distractor_diamondtriangles.svg	stimuli_target_squaretriangles.svg	15	yes	53	1	426	0	0			0	0			1				0	
6.6.1	win	2023-07-10	03:12:33	03:32:20	1181849	62cf2192b9212fc96a5b3917	4	1	main_slash	11	advance_on_keypress_SLASH	158	stimuli_distractor_diamondtriangles.svg	stimuli_target_squaretriangles.svg	15	yes	57	0	526	0	0			0	0			1				0	
6.6.1	win	2023-07-10	03:12:33	03:32:22	1183821	62cf2192b9212fc96a5b3917	4	1	main_slash	11	main_slash	159	stimuli_distractor_trianglediamonds.svg	stimuli_target_diamondrectangles.svg	27	yes	53	1	816	0	0			0	0			1				0	
6.6.1	win	2023-07-10	03:12:33	03:32:22	1183821	62cf2192b9212fc96a5b3917	4	1	main_slash	11	advance_on_keypress_SLASH	160	stimuli_distractor_trianglediamonds.svg	stimuli_target_diamondrectangles.svg	27	yes	57	0	1027	0	0			0	0			1				0	
6.6.1	win	2023-07-10	03:12:33	03:32:22	1183821	62cf2192b9212fc96a5b3917	4	1	headphonecheck_calibration	14	headphonecheck_calibrationIntro	1	stimuli_distractor_trianglediamonds.svg	stimuli_target_diamondrectangles.svg	27	yes	calibrationButton	0	1013	0	0			0	0			1				0	
6.6.1	win	2023-07-10	03:12:33	03:32:22	1183821	62cf2192b9212fc96a5b3917	4	1	headphonecheck_testphase	15	test_collectResponse	3	stimuli_distractor_trianglediamonds.svg	stimuli_target_diamondrectangles.svg	27	yes	third	0	4623	1	4	antiphase_hc_sio.wav	1	0	0			1				0	
6.6.1	win	2023-07-10	03:12:33	03:32:22	1183821	62cf2192b9212fc96a5b3917	4	1	headphonecheck_testphase	15	test_collectResponse	6	stimuli_distractor_trianglediamonds.svg	stimuli_target_diamondrectangles.svg	27	yes	third	0	889	2	1	antiphase_hc_iso.wav	2	0	0			1				0	
6.6.1	win	2023-07-10	03:12:33	03:32:22	1183821	62cf2192b9212fc96a5b3917	4	1	headphonecheck_testphase	15	test_collectResponse	9	stimuli_distractor_trianglediamonds.svg	stimuli_target_diamondrectangles.svg	27	yes	second	1	725	3	5	antiphase_hc_osi.wav	2	0	0			1				0	
6.6.1	win	2023-07-10	03:12:33	03:32:22	1183821	62cf2192b9212fc96a5b3917	4	1	headphonecheck_testphase	15	test_collectResponse	12	stimuli_distractor_trianglediamonds.svg	stimuli_target_diamondrectangles.svg	27	yes	second	0	373	4	2	antiphase_hc_ios.wav	3	0	0			1				0	
6.6.1	win	2023-07-10	03:12:33	03:32:22	1183821	62cf2192b9212fc96a5b3917	4	1	headphonecheck_testphase	15	test_collectResponse	15	stimuli_distractor_trianglediamonds.svg	stimuli_target_diamondrectangles.svg	27	yes	first	1	649	5	3	antiphase_hc_soi.wav	1	0	0			1				0	
6.6.1	win	2023-07-10	03:12:33	03:32:22	1183821	62cf2192b9212fc96a5b3917	4	1	headphonecheck_testphase	15	test_collectResponse	18	stimuli_distractor_trianglediamonds.svg	stimuli_target_diamondrectangles.svg	27	yes	first	0	1377	6	6	antiphase_hc_ois.wav	3	0	0			1				0	
6.6.1	win	2023-07-10	03:12:33	03:32:22	1183821	62cf2192b9212fc96a5b3917	4	1	stereocheck_calibration	17	stereocheck_calibrationIntro	1	stimuli_distractor_trianglediamonds.svg	stimuli_target_diamondrectangles.svg	27	yes	stereocheck_calibrationButton	0	40077	6	6	antiphase_hc_ois.wav	3	0	0			1				0	
6.6.1	win	2023-07-10	03:12:33	03:32:22	1183821	62cf2192b9212fc96a5b3917	4	1	stereocheck_testphase	18	stereocheck_test_collectResponse	3	stimuli_distractor_trianglediamonds.svg	stimuli_target_diamondrectangles.svg	27	yes	stereocheck_right	1	434	6	6	antiphase_hc_ois.wav	3	1	6	noise_calib_stim_RIGHT.wav	2	1				0	
6.6.1	win	2023-07-10	03:12:33	03:32:22	1183821	62cf2192b9212fc96a5b3917	4	1	stereocheck_testphase	18	stereocheck_test_collectResponse	6	stimuli_distractor_trianglediamonds.svg	stimuli_target_diamondrectangles.svg	27	yes	stereocheck_right	1	373	6	6	antiphase_hc_ois.wav	3	2	5	noise_calib_stim_RIGHT.wav	2	1				0	
6.6.1	win	2023-07-10	03:12:33	03:32:22	1183821	62cf2192b9212fc96a5b3917	4	1	stereocheck_testphase	18	stereocheck_test_collectResponse	9	stimuli_distractor_trianglediamonds.svg	stimuli_target_diamondrectangles.svg	27	yes	stereocheck_right	1	375	6	6	antiphase_hc_ois.wav	3	3	4	noise_calib_stim_RIGHT.wav	2	1				0	
6.6.1	win	2023-07-10	03:12:33	03:32:22	1183821	62cf2192b9212fc96a5b3917	4	1	stereocheck_testphase	18	stereocheck_test_collectResponse	12	stimuli_distractor_trianglediamonds.svg	stimuli_target_diamondrectangles.svg	27	yes	stereocheck_left	1	311	6	6	antiphase_hc_ois.wav	3	4	1	noise_calib_stim_LEFT.wav	1	1				0	
6.6.1	win	2023-07-10	03:12:33	03:32:22	1183821	62cf2192b9212fc96a5b3917	4	1	stereocheck_testphase	18	stereocheck_test_collectResponse	15	stimuli_distractor_trianglediamonds.svg	stimuli_target_diamondrectangles.svg	27	yes	stereocheck_left	1	389	6	6	antiphase_hc_ois.wav	3	5	3	noise_calib_stim_LEFT.wav	1	1				0	
6.6.1	win	2023-07-10	03:12:33	03:32:22	1183821	62cf2192b9212fc96a5b3917	4	1	stereocheck_testphase	18	stereocheck_test_collectResponse	18	stimuli_distractor_trianglediamonds.svg	stimuli_target_diamondrectangles.svg	27	yes	stereocheck_left	1	294	6	6	antiphase_hc_ois.wav	3	6	2	noise_calib_stim_LEFT.wav	1	1				0	
6.6.1	win	2023-07-10	03:12:33	03:32:22	1183821	62cf2192b9212fc96a5b3917	4	1	DL_practice	21	DL_practice	2	stimuli_distractor_trianglediamonds.svg	stimuli_target_diamondrectangles.svg	27	yes	ta	0	1768	6	6	antiphase_hc_ois.wav	3	6	2	noise_calib_stim_LEFT.wav	1	22	blb_dichoticlistening_ka-ka.mp3	ka	ka	0	other
6.6.1	win	2023-07-10	03:12:33	03:32:22	1183821	62cf2192b9212fc96a5b3917	4	1	DL_practice	21	DL_practice	3	stimuli_distractor_trianglediamonds.svg	stimuli_target_diamondrectangles.svg	27	yes	pa	1	1079	6	6	antiphase_hc_ois.wav	3	6	2	noise_calib_stim_LEFT.wav	1	23	blb_dichoticlistening_ka-pa.mp3	ka	pa	1	right
6.6.1	win	2023-07-10	03:12:33	03:32:22	1183821	62cf2192b9212fc96a5b3917	4	1	DL_practice	21	DL_practice	4	stimuli_distractor_trianglediamonds.svg	stimuli_target_diamondrectangles.svg	27	yes	ta	1	892	6	6	antiphase_hc_ois.wav	3	6	2	noise_calib_stim_LEFT.wav	1	36	blb_dichoticlistening_ta-ta.mp3	ta	ta	0	left
6.6.1	win	2023-07-10	03:12:33	03:32:22	1183821	62cf2192b9212fc96a5b3917	4	1	DL_practice	21	DL_practice	5	stimuli_distractor_trianglediamonds.svg	stimuli_target_diamondrectangles.svg	27	yes	pa	0	913	6	6	antiphase_hc_ois.wav	3	6	2	noise_calib_stim_LEFT.wav	1	1	blb_dichoticlistening_ba-ba.mp3	ba	ba	0	other
6.6.1	win	2023-07-10	03:12:33	03:32:22	1183821	62cf2192b9212fc96a5b3917	4	1	DL_practice	21	DL_practice	6	stimuli_distractor_trianglediamonds.svg	stimuli_target_diamondrectangles.svg	27	yes	pa	1	1247	6	6	antiphase_hc_ois.wav	3	6	2	noise_calib_stim_LEFT.wav	1	29	blb_dichoticlistening_pa-pa.mp3	pa	pa	0	left
6.6.1	win	2023-07-10	03:12:33	03:32:22	1183821	62cf2192b9212fc96a5b3917	4	1	DL_practice	21	DL_practice	7	stimuli_distractor_trianglediamonds.svg	stimuli_target_diamondrectangles.svg	27	yes	ka	0	1581	6	6	antiphase_hc_ois.wav	3	6	2	noise_calib_stim_LEFT.wav	1	7	blb_dichoticlistening_da-ba.mp3	da	ba	1	other
6.6.1	win	2023-07-10	03:12:33	03:32:22	1183821	62cf2192b9212fc96a5b3917	4	1	DL_practice	21	DL_practice	8	stimuli_distractor_trianglediamonds.svg	stimuli_target_diamondrectangles.svg	27	yes	ga	1	1166	6	6	antiphase_hc_ois.wav	3	6	2	noise_calib_stim_LEFT.wav	1	15	blb_dichoticlistening_ga-ga.mp3	ga	ga	0	left
6.6.1	win	2023-07-10	03:12:33	03:32:22	1183821	62cf2192b9212fc96a5b3917	4	1	DL_practice	21	DL_practice	9	stimuli_distractor_trianglediamonds.svg	stimuli_target_diamondrectangles.svg	27	yes	ka	0	801	6	6	antiphase_hc_ois.wav	3	6	2	noise_calib_stim_LEFT.wav	1	18	blb_dichoticlistening_ga-ta.mp3	ga	ta	1	other
6.6.1	win	2023-07-10	03:12:33	03:32:22	1183821	62cf2192b9212fc96a5b3917	4	1	DL_practice	21	DL_practice	10	stimuli_distractor_trianglediamonds.svg	stimuli_target_diamondrectangles.svg	27	yes	da	1	2184	6	6	antiphase_hc_ois.wav	3	6	2	noise_calib_stim_LEFT.wav	1	8	blb_dichoticlistening_da-da.mp3	da	da	0	left
6.6.1	win	2023-07-10	03:12:33	03:32:22	1183821	62cf2192b9212fc96a5b3917	4	1	DL_test	23	DL_test	1	stimuli_distractor_trianglediamonds.svg	stimuli_target_diamondrectangles.svg	27	yes	pa	1	1039	6	6	antiphase_hc_ois.wav	3	6	2	noise_calib_stim_LEFT.wav	1	5	blb_dichoticlistening_ba-pa.mp3	ba	pa	1	right
6.6.1	win	2023-07-10	03:12:33	03:32:22	1183821	62cf2192b9212fc96a5b3917	4	1	DL_test	23	DL_test	2	stimuli_distractor_trianglediamonds.svg	stimuli_target_diamondrectangles.svg	27	yes	ka	0	1916	6	6	antiphase_hc_ois.wav	3	6	2	noise_calib_stim_LEFT.wav	1	26	blb_dichoticlistening_pa-da.mp3	pa	da	1	other
6.6.1	win	2023-07-10	03:12:33	03:32:22	1183821	62cf2192b9212fc96a5b3917	4	1	DL_test	23	DL_test	3	stimuli_distractor_trianglediamonds.svg	stimuli_target_diamondrectangles.svg	27	yes	ba	1	2010	6	6	antiphase_hc_ois.wav	3	6	2	noise_calib_stim_LEFT.wav	1	25	blb_dichoticlistening_pa-ba.mp3	pa	ba	1	right
6.6.1	win	2023-07-10	03:12:33	03:32:22	1183821	62cf2192b9212fc96a5b3917	4	1	DL_test	23	DL_test	4	stimuli_distractor_trianglediamonds.svg	stimuli_target_diamondrectangles.svg	27	yes	ta	1	1660	6	6	antiphase_hc_ois.wav	3	6	2	noise_calib_stim_LEFT.wav	1	6	blb_dichoticlistening_ba-ta.mp3	ba	ta	1	right
6.6.1	win	2023-07-10	03:12:33	03:32:22	1183821	62cf2192b9212fc96a5b3917	4	1	DL_test	23	DL_test	5	stimuli_distractor_trianglediamonds.svg	stimuli_target_diamondrectangles.svg	27	yes	ta	1	1291	6	6	antiphase_hc_ois.wav	3	6	2	noise_calib_stim_LEFT.wav	1	18	blb_dichoticlistening_ga-ta.mp3	ga	ta	1	right
6.6.1	win	2023-07-10	03:12:33	03:32:22	1183821	62cf2192b9212fc96a5b3917	4	1	DL_test	23	DL_test	6	stimuli_distractor_trianglediamonds.svg	stimuli_target_diamondrectangles.svg	27	yes	ga	1	1186	6	6	antiphase_hc_ois.wav	3	6	2	noise_calib_stim_LEFT.wav	1	15	blb_dichoticlistening_ga-ga.mp3	ga	ga	0	left
6.6.1	win	2023-07-10	03:12:33	03:32:22	1183821	62cf2192b9212fc96a5b3917	4	1	DL_test	23	DL_test	7	stimuli_distractor_trianglediamonds.svg	stimuli_target_diamondrectangles.svg	27	yes	ka	1	2465	6	6	antiphase_hc_ois.wav	3	6	2	noise_calib_stim_LEFT.wav	1	20	blb_dichoticlistening_ka-da.mp3	ka	da	1	left
6.6.1	win	2023-07-10	03:12:33	03:32:22	1183821	62cf2192b9212fc96a5b3917	4	1	DL_test	23	DL_test	8	stimuli_distractor_trianglediamonds.svg	stimuli_target_diamondrectangles.svg	27	yes	ba	1	1720	6	6	antiphase_hc_ois.wav	3	6	2	noise_calib_stim_LEFT.wav	1	7	blb_dichoticlistening_da-ba.mp3	da	ba	1	right
6.6.1	win	2023-07-10	03:12:33	03:32:22	1183821	62cf2192b9212fc96a5b3917	4	1	DL_test	23	DL_test	9	stimuli_distractor_trianglediamonds.svg	stimuli_target_diamondrectangles.svg	27	yes	pa	0	1322	6	6	antiphase_hc_ois.wav	3	6	2	noise_calib_stim_LEFT.wav	1	10	blb_dichoticlistening_da-ka.mp3	da	ka	1	other
6.6.1	win	2023-07-10	03:12:33	03:32:22	1183821	62cf2192b9212fc96a5b3917	4	1	DL_test	23	DL_test	10	stimuli_distractor_trianglediamonds.svg	stimuli_target_diamondrectangles.svg	27	yes	ta	1	1233	6	6	antiphase_hc_ois.wav	3	6	2	noise_calib_stim_LEFT.wav	1	24	blb_dichoticlistening_ka-ta.mp3	ka	ta	1	right
6.6.1	win	2023-07-10	03:12:33	03:32:22	1183821	62cf2192b9212fc96a5b3917	4	1	DL_test	23	DL_test	11	stimuli_distractor_trianglediamonds.svg	stimuli_target_diamondrectangles.svg	27	yes	da	1	1378	6	6	antiphase_hc_ois.wav	3	6	2	noise_calib_stim_LEFT.wav	1	14	blb_dichoticlistening_ga-da.mp3	ga	da	1	right
6.6.1	win	2023-07-10	03:12:33	03:32:22	1183821	62cf2192b9212fc96a5b3917	4	1	DL_test	23	DL_test	12	stimuli_distractor_trianglediamonds.svg	stimuli_target_diamondrectangles.svg	27	yes	da	0	1436	6	6	antiphase_hc_ois.wav	3	6	2	noise_calib_stim_LEFT.wav	1	31	blb_dichoticlistening_ta-ba.mp3	ta	ba	1	other
6.6.1	win	2023-07-10	03:12:33	03:32:22	1183821	62cf2192b9212fc96a5b3917	4	1	DL_test	23	DL_test	13	stimuli_distractor_trianglediamonds.svg	stimuli_target_diamondrectangles.svg	27	yes	ta	0	1509	6	6	antiphase_hc_ois.wav	3	6	2	noise_calib_stim_LEFT.wav	1	16	blb_dichoticlistening_ga-ka.mp3	ga	ka	1	other
6.6.1	win	2023-07-10	03:12:33	03:32:22	1183821	62cf2192b9212fc96a5b3917	4	1	DL_test	23	DL_test	14	stimuli_distractor_trianglediamonds.svg	stimuli_target_diamondrectangles.svg	27	yes	da	0	2416	6	6	antiphase_hc_ois.wav	3	6	2	noise_calib_stim_LEFT.wav	1	33	blb_dichoticlistening_ta-ga.mp3	ta	ga	1	other
6.6.1	win	2023-07-10	03:12:33	03:32:22	1183821	62cf2192b9212fc96a5b3917	4	1	DL_test	23	DL_test	15	stimuli_distractor_trianglediamonds.svg	stimuli_target_diamondrectangles.svg	27	yes	ta	0	2474	6	6	antiphase_hc_ois.wav	3	6	2	noise_calib_stim_LEFT.wav	1	27	blb_dichoticlistening_pa-ga.mp3	pa	ga	1	other
6.6.1	win	2023-07-10	03:12:33	03:32:22	1183821	62cf2192b9212fc96a5b3917	4	1	DL_test	23	DL_test	16	stimuli_distractor_trianglediamonds.svg	stimuli_target_diamondrectangles.svg	27	yes	ta	0	3665	6	6	antiphase_hc_ois.wav	3	6	2	noise_calib_stim_LEFT.wav	1	19	blb_dichoticlistening_ka-ba.mp3	ka	ba	1	other
6.6.1	win	2023-07-10	03:12:33	03:32:22	1183821	62cf2192b9212fc96a5b3917	4	1	DL_test	23	DL_test	17	stimuli_distractor_trianglediamonds.svg	stimuli_target_diamondrectangles.svg	27	yes	pa	1	1179	6	6	antiphase_hc_ois.wav	3	6	2	noise_calib_stim_LEFT.wav	1	35	blb_dichoticlistening_ta-pa.mp3	ta	pa	1	right
6.6.1	win	2023-07-10	03:12:33	03:32:22	1183821	62cf2192b9212fc96a5b3917	4	1	DL_test	23	DL_test	18	stimuli_distractor_trianglediamonds.svg	stimuli_target_diamondrectangles.svg	27	yes	pa	1	891	6	6	antiphase_hc_ois.wav	3	6	2	noise_calib_stim_LEFT.wav	1	29	blb_dichoticlistening_pa-pa.mp3	pa	pa	0	left
6.6.1	win	2023-07-10	03:12:33	03:32:22	1183821	62cf2192b9212fc96a5b3917	4	1	DL_test	23	DL_test	19	stimuli_distractor_trianglediamonds.svg	stimuli_target_diamondrectangles.svg	27	yes	ta	1	1072	6	6	antiphase_hc_ois.wav	3	6	2	noise_calib_stim_LEFT.wav	1	36	blb_dichoticlistening_ta-ta.mp3	ta	ta	0	left
6.6.1	win	2023-07-10	03:12:33	03:32:22	1183821	62cf2192b9212fc96a5b3917	4	1	DL_test	23	DL_test	20	stimuli_distractor_trianglediamonds.svg	stimuli_target_diamondrectangles.svg	27	yes	pa	0	1354	6	6	antiphase_hc_ois.wav	3	6	2	noise_calib_stim_LEFT.wav	1	12	blb_dichoticlistening_da-ta.mp3	da	ta	1	other
6.6.1	win	2023-07-10	03:12:33	03:32:22	1183821	62cf2192b9212fc96a5b3917	4	1	DL_test	23	DL_test	21	stimuli_distractor_trianglediamonds.svg	stimuli_target_diamondrectangles.svg	27	yes	pa	1	1033	6	6	antiphase_hc_ois.wav	3	6	2	noise_calib_stim_LEFT.wav	1	28	blb_dichoticlistening_pa-ka.mp3	pa	ka	1	left
6.6.1	win	2023-07-10	03:12:33	03:32:22	1183821	62cf2192b9212fc96a5b3917	4	1	DL_test	23	DL_test	22	stimuli_distractor_trianglediamonds.svg	stimuli_target_diamondrectangles.svg	27	yes	ba	1	1571	6	6	antiphase_hc_ois.wav	3	6	2	noise_calib_stim_LEFT.wav	1	1	blb_dichoticlistening_ba-ba.mp3	ba	ba	0	left
6.6.1	win	2023-07-10	03:12:33	03:32:22	1183821	62cf2192b9212fc96a5b3917	4	1	DL_test	23	DL_test	23	stimuli_distractor_trianglediamonds.svg	stimuli_target_diamondrectangles.svg	27	yes	da	1	2381	6	6	antiphase_hc_ois.wav	3	6	2	noise_calib_stim_LEFT.wav	1	8	blb_dichoticlistening_da-da.mp3	da	da	0	left
6.6.1	win	2023-07-10	03:12:33	03:32:22	1183821	62cf2192b9212fc96a5b3917	4	1	DL_test	23	DL_test	24	stimuli_distractor_trianglediamonds.svg	stimuli_target_diamondrectangles.svg	27	yes	pa	1	1533	6	6	antiphase_hc_ois.wav	3	6	2	noise_calib_stim_LEFT.wav	1	17	blb_dichoticlistening_ga-pa.mp3	ga	pa	1	right
6.6.1	win	2023-07-10	03:12:33	03:32:22	1183821	62cf2192b9212fc96a5b3917	4	1	DL_test	23	DL_test	25	stimuli_distractor_trianglediamonds.svg	stimuli_target_diamondrectangles.svg	27	yes	da	1	1817	6	6	antiphase_hc_ois.wav	3	6	2	noise_calib_stim_LEFT.wav	1	2	blb_dichoticlistening_ba-da.mp3	ba	da	1	right
