build	computer.platform	date	time	timestamp	time_elapsed_ms	subject	group	session	blockcode	blocknum	trialcode	trialnum	stimulus_left	stimulus_right	stim_index	target_present	response	correct	latency	headphonecheck_countTestTrials	headphonecheck_index	headphonecheck_testSound	headphonecheck_correctResponse	stereocheck_countTestTrials	stereocheck_index	stereocheck_testSound	stereocheck_correctResponse	DL_index	DL_soundfile	DL_leftSound	DL_rightSound	DL_dualSound	DL_choice
6.6.1	win	2023-06-17	14:10:07	14:14:12	216485	61119018babf810c0cab7d3b	4	1	practice_z	5	practice_z	1	stimuli_distractor_trianglediamonds.svg	stimuli_target_rectanglediamonds.svg	10	yes	44	1	1513	0	0			0	0			1				0	
6.6.1	win	2023-06-17	14:10:07	14:14:12	216485	61119018babf810c0cab7d3b	4	1	practice_z	5	advance_on_keypress_ZEE	2	stimuli_distractor_trianglediamonds.svg	stimuli_target_rectanglediamonds.svg	10	yes	57	0	651	0	0			0	0			1				0	
6.6.1	win	2023-06-17	14:10:07	14:14:15	219605	61119018babf810c0cab7d3b	4	1	practice_z	5	practice_z	3	stimuli_distractor_diamondtriangles.svg	stimuli_target_rectangletriangles.svg	7	yes	44	1	781	0	0			0	0			1				0	
6.6.1	win	2023-06-17	14:10:07	14:14:15	219605	61119018babf810c0cab7d3b	4	1	practice_z	5	advance_on_keypress_ZEE	4	stimuli_distractor_diamondtriangles.svg	stimuli_target_rectangletriangles.svg	7	yes	57	0	100	0	0			0	0			1				0	
6.6.1	win	2023-06-17	14:10:07	14:14:18	223356	61119018babf810c0cab7d3b	4	1	practice_z	5	practice_z	5	stimuli_distractor_diamondtriangles.svg	stimuli_distractor_trianglediamonds.svg	14	no	0	1	2000	0	0			0	0			1				0	
6.6.1	win	2023-06-17	14:10:07	14:14:18	223356	61119018babf810c0cab7d3b	4	1	practice_z	5	advance_on_keypress_ZEE	6	stimuli_distractor_diamondtriangles.svg	stimuli_distractor_trianglediamonds.svg	14	no	57	0	570	0	0			0	0			1				0	
6.6.1	win	2023-06-17	14:10:07	14:14:23	227591	61119018babf810c0cab7d3b	4	1	practice_z	5	practice_z	7	stimuli_target_diamondsquares.svg	stimuli_distractor_diamondtriangles.svg	3	yes	0	0	2000	0	0			0	0			1				0	
6.6.1	win	2023-06-17	14:10:07	14:14:23	227591	61119018babf810c0cab7d3b	4	1	practice_z	5	advance_on_keypress_ZEE	8	stimuli_target_diamondsquares.svg	stimuli_distractor_diamondtriangles.svg	3	yes	57	0	484	0	0			0	0			1				0	
6.6.1	win	2023-06-17	14:10:07	14:14:26	231063	61119018babf810c0cab7d3b	4	1	practice_z	5	practice_z	9	stimuli_target_rectanglediamonds.svg	stimuli_distractor_diamondtriangles.svg	1	yes	44	1	1337	0	0			0	0			1				0	
6.6.1	win	2023-06-17	14:10:07	14:14:26	231063	61119018babf810c0cab7d3b	4	1	practice_z	5	advance_on_keypress_ZEE	10	stimuli_target_rectanglediamonds.svg	stimuli_distractor_diamondtriangles.svg	1	yes	57	0	680	0	0			0	0			1				0	
6.6.1	win	2023-06-17	14:10:07	14:14:29	234153	61119018babf810c0cab7d3b	4	1	practice_z	5	practice_z	11	stimuli_target_squarediamonds.svg	stimuli_distractor_diamondtriangles.svg	2	yes	44	1	743	0	0			0	0			1				0	
6.6.1	win	2023-06-17	14:10:07	14:14:29	234153	61119018babf810c0cab7d3b	4	1	practice_z	5	advance_on_keypress_ZEE	12	stimuli_target_squarediamonds.svg	stimuli_distractor_diamondtriangles.svg	2	yes	57	0	1376	0	0			0	0			1				0	
6.6.1	win	2023-06-17	14:10:07	14:14:33	237793	61119018babf810c0cab7d3b	4	1	practice_z	5	practice_z	13	stimuli_target_squarediamonds.svg	stimuli_distractor_trianglediamonds.svg	5	yes	44	1	599	0	0			0	0			1				0	
6.6.1	win	2023-06-17	14:10:07	14:14:33	237793	61119018babf810c0cab7d3b	4	1	practice_z	5	advance_on_keypress_ZEE	14	stimuli_target_squarediamonds.svg	stimuli_distractor_trianglediamonds.svg	5	yes	57	0	512	0	0			0	0			1				0	
6.6.1	win	2023-06-17	14:10:07	14:14:37	241961	61119018babf810c0cab7d3b	4	1	practice_z	5	practice_z	15	stimuli_distractor_trianglediamonds.svg	stimuli_distractor_trianglediamonds.svg	15	no	0	1	2000	0	0			0	0			1				0	
6.6.1	win	2023-06-17	14:10:07	14:14:37	241961	61119018babf810c0cab7d3b	4	1	practice_z	5	advance_on_keypress_ZEE	16	stimuli_distractor_trianglediamonds.svg	stimuli_distractor_trianglediamonds.svg	15	no	57	0	0	0	0			0	0			1				0	
6.6.1	win	2023-06-17	14:10:07	14:14:40	244533	61119018babf810c0cab7d3b	4	1	practice_z	5	practice_z	17	stimuli_target_rectanglediamonds.svg	stimuli_distractor_trianglediamonds.svg	4	yes	44	1	887	0	0			0	0			1				0	
6.6.1	win	2023-06-17	14:10:07	14:14:40	244533	61119018babf810c0cab7d3b	4	1	practice_z	5	advance_on_keypress_ZEE	18	stimuli_target_rectanglediamonds.svg	stimuli_distractor_trianglediamonds.svg	4	yes	57	0	600	0	0			0	0			1				0	
6.6.1	win	2023-06-17	14:10:07	14:14:44	248796	61119018babf810c0cab7d3b	4	1	practice_z	5	practice_z	19	stimuli_distractor_diamondtriangles.svg	stimuli_distractor_diamondtriangles.svg	13	no	0	1	2000	0	0			0	0			1				0	
6.6.1	win	2023-06-17	14:10:07	14:14:44	248796	61119018babf810c0cab7d3b	4	1	practice_z	5	advance_on_keypress_ZEE	20	stimuli_distractor_diamondtriangles.svg	stimuli_distractor_diamondtriangles.svg	13	no	57	0	439	0	0			0	0			1				0	
6.6.1	win	2023-06-17	14:10:07	14:14:47	251743	61119018babf810c0cab7d3b	4	1	practice_z	5	practice_z	21	stimuli_distractor_diamondtriangles.svg	stimuli_target_diamondrectangles.svg	8	yes	44	1	845	0	0			0	0			1				0	
6.6.1	win	2023-06-17	14:10:07	14:14:47	251743	61119018babf810c0cab7d3b	4	1	practice_z	5	advance_on_keypress_ZEE	22	stimuli_distractor_diamondtriangles.svg	stimuli_target_diamondrectangles.svg	8	yes	57	0	488	0	0			0	0			1				0	
6.6.1	win	2023-06-17	14:10:07	14:14:50	254733	61119018babf810c0cab7d3b	4	1	practice_z	5	practice_z	23	stimuli_distractor_trianglediamonds.svg	stimuli_target_diamondrectangles.svg	12	yes	44	1	851	0	0			0	0			1				0	
6.6.1	win	2023-06-17	14:10:07	14:14:50	254733	61119018babf810c0cab7d3b	4	1	practice_z	5	advance_on_keypress_ZEE	24	stimuli_distractor_trianglediamonds.svg	stimuli_target_diamondrectangles.svg	12	yes	57	0	514	0	0			0	0			1				0	
6.6.1	win	2023-06-17	14:10:07	14:14:54	258898	61119018babf810c0cab7d3b	4	1	practice_z	5	practice_z	25	stimuli_distractor_trianglediamonds.svg	stimuli_distractor_diamondtriangles.svg	16	no	0	1	2000	0	0			0	0			1				0	
6.6.1	win	2023-06-17	14:10:07	14:14:54	258898	61119018babf810c0cab7d3b	4	1	practice_z	5	advance_on_keypress_ZEE	26	stimuli_distractor_trianglediamonds.svg	stimuli_distractor_diamondtriangles.svg	16	no	57	0	1327	0	0			0	0			1				0	
6.6.1	win	2023-06-17	14:10:07	14:14:58	263064	61119018babf810c0cab7d3b	4	1	practice_z	5	practice_z	27	stimuli_distractor_diamondtriangles.svg	stimuli_target_trianglerectangles.svg	9	yes	44	1	1180	0	0			0	0			1				0	
6.6.1	win	2023-06-17	14:10:07	14:14:58	263064	61119018babf810c0cab7d3b	4	1	practice_z	5	advance_on_keypress_ZEE	28	stimuli_distractor_diamondtriangles.svg	stimuli_target_trianglerectangles.svg	9	yes	57	0	1589	0	0			0	0			1				0	
6.6.1	win	2023-06-17	14:10:07	14:15:02	267362	61119018babf810c0cab7d3b	4	1	practice_z	5	practice_z	29	stimuli_target_diamondsquares.svg	stimuli_distractor_trianglediamonds.svg	6	yes	44	1	1044	0	0			0	0			1				0	
6.6.1	win	2023-06-17	14:10:07	14:15:02	267362	61119018babf810c0cab7d3b	4	1	practice_z	5	advance_on_keypress_ZEE	30	stimuli_target_diamondsquares.svg	stimuli_distractor_trianglediamonds.svg	6	yes	57	0	17	0	0			0	0			1				0	
6.6.1	win	2023-06-17	14:10:07	14:15:05	270081	61119018babf810c0cab7d3b	4	1	practice_z	5	practice_z	31	stimuli_distractor_trianglediamonds.svg	stimuli_target_squarediamonds.svg	11	yes	44	1	1030	0	0			0	0			1				0	
6.6.1	win	2023-06-17	14:10:07	14:15:05	270081	61119018babf810c0cab7d3b	4	1	practice_z	5	advance_on_keypress_ZEE	32	stimuli_distractor_trianglediamonds.svg	stimuli_target_squarediamonds.svg	11	yes	57	0	60	0	0			0	0			1				0	
6.6.1	win	2023-06-17	14:10:07	14:15:16	281087	61119018babf810c0cab7d3b	4	1	main_z	7	main_z	1	stimuli_distractor_trianglediamonds.svg	stimuli_target_diamondsquares.svg	28	yes	44	1	554	0	0			0	0			1				0	
6.6.1	win	2023-06-17	14:10:07	14:15:16	281087	61119018babf810c0cab7d3b	4	1	main_z	7	advance_on_keypress_ZEE	2	stimuli_distractor_trianglediamonds.svg	stimuli_target_diamondsquares.svg	28	yes	57	0	790	0	0			0	0			1				0	
6.6.1	win	2023-06-17	14:10:07	14:15:18	283216	61119018babf810c0cab7d3b	4	1	main_z	7	main_z	3	stimuli_target_rectangletriangles.svg	stimuli_distractor_trianglediamonds.svg	1	yes	44	1	683	0	0			0	0			1				0	
6.6.1	win	2023-06-17	14:10:07	14:15:18	283216	61119018babf810c0cab7d3b	4	1	main_z	7	advance_on_keypress_ZEE	4	stimuli_target_rectangletriangles.svg	stimuli_distractor_trianglediamonds.svg	1	yes	57	0	503	0	0			0	0			1				0	
6.6.1	win	2023-06-17	14:10:07	14:15:21	285547	61119018babf810c0cab7d3b	4	1	main_z	7	main_z	5	stimuli_target_squaretriangles.svg	stimuli_distractor_diamondtriangles.svg	7	yes	44	1	1163	0	0			0	0			1				0	
6.6.1	win	2023-06-17	14:10:07	14:15:21	285547	61119018babf810c0cab7d3b	4	1	main_z	7	advance_on_keypress_ZEE	6	stimuli_target_squaretriangles.svg	stimuli_distractor_diamondtriangles.svg	7	yes	57	0	659	0	0			0	0			1				0	
6.6.1	win	2023-06-17	14:10:07	14:15:23	287537	61119018babf810c0cab7d3b	4	1	main_z	7	main_z	7	stimuli_distractor_trianglediamonds.svg	stimuli_target_rectanglediamonds.svg	10	yes	44	1	669	0	0			0	0			1				0	
6.6.1	win	2023-06-17	14:10:07	14:15:23	287537	61119018babf810c0cab7d3b	4	1	main_z	7	advance_on_keypress_ZEE	8	stimuli_distractor_trianglediamonds.svg	stimuli_target_rectanglediamonds.svg	10	yes	57	0	545	0	0			0	0			1				0	
6.6.1	win	2023-06-17	14:10:07	14:15:25	289527	61119018babf810c0cab7d3b	4	1	main_z	7	main_z	9	stimuli_distractor_trianglediamonds.svg	stimuli_target_squaretriangles.svg	11	yes	44	1	792	0	0			0	0			1				0	
6.6.1	win	2023-06-17	14:10:07	14:15:25	289527	61119018babf810c0cab7d3b	4	1	main_z	7	advance_on_keypress_ZEE	10	stimuli_distractor_trianglediamonds.svg	stimuli_target_squaretriangles.svg	11	yes	57	0	595	0	0			0	0			1				0	
6.6.1	win	2023-06-17	14:10:07	14:15:27	291637	61119018babf810c0cab7d3b	4	1	main_z	7	main_z	11	stimuli_target_trianglerectangles.svg	stimuli_distractor_trianglediamonds.svg	17	yes	44	1	851	0	0			0	0			1				0	
6.6.1	win	2023-06-17	14:10:07	14:15:27	291637	61119018babf810c0cab7d3b	4	1	main_z	7	advance_on_keypress_ZEE	12	stimuli_target_trianglerectangles.svg	stimuli_distractor_trianglediamonds.svg	17	yes	57	0	684	0	0			0	0			1				0	
6.6.1	win	2023-06-17	14:10:07	14:15:30	294969	61119018babf810c0cab7d3b	4	1	main_z	7	main_z	13	stimuli_distractor_trianglediamonds.svg	stimuli_distractor_trianglediamonds.svg	33	no	0	1	2000	0	0			0	0			1				0	
6.6.1	win	2023-06-17	14:10:07	14:15:30	294969	61119018babf810c0cab7d3b	4	1	main_z	7	advance_on_keypress_ZEE	14	stimuli_distractor_trianglediamonds.svg	stimuli_distractor_trianglediamonds.svg	33	no	57	0	280	0	0			0	0			1				0	
6.6.1	win	2023-06-17	14:10:07	14:15:32	297077	61119018babf810c0cab7d3b	4	1	main_z	7	main_z	15	stimuli_distractor_diamondtriangles.svg	stimuli_target_trianglesquares.svg	30	yes	44	1	1173	0	0			0	0			1				0	
6.6.1	win	2023-06-17	14:10:07	14:15:32	297077	61119018babf810c0cab7d3b	4	1	main_z	7	advance_on_keypress_ZEE	16	stimuli_distractor_diamondtriangles.svg	stimuli_target_trianglesquares.svg	30	yes	57	0	569	0	0			0	0			1				0	
6.6.1	win	2023-06-17	14:10:07	14:15:35	300287	61119018babf810c0cab7d3b	4	1	main_z	7	main_z	17	stimuli_distractor_trianglediamonds.svg	stimuli_distractor_trianglediamonds.svg	34	no	0	1	2000	0	0			0	0			1				0	
6.6.1	win	2023-06-17	14:10:07	14:15:35	300287	61119018babf810c0cab7d3b	4	1	main_z	7	advance_on_keypress_ZEE	18	stimuli_distractor_trianglediamonds.svg	stimuli_distractor_trianglediamonds.svg	34	no	57	0	462	0	0			0	0			1				0	
6.6.1	win	2023-06-17	14:10:07	14:15:37	302057	61119018babf810c0cab7d3b	4	1	main_z	7	main_z	19	stimuli_target_rectanglediamonds.svg	stimuli_distractor_trianglediamonds.svg	2	yes	44	1	652	0	0			0	0			1				0	
6.6.1	win	2023-06-17	14:10:07	14:15:37	302057	61119018babf810c0cab7d3b	4	1	main_z	7	advance_on_keypress_ZEE	20	stimuli_target_rectanglediamonds.svg	stimuli_distractor_trianglediamonds.svg	2	yes	57	0	485	0	0			0	0			1				0	
6.6.1	win	2023-06-17	14:10:07	14:15:39	304017	61119018babf810c0cab7d3b	4	1	main_z	7	main_z	21	stimuli_target_squaretriangles.svg	stimuli_distractor_trianglediamonds.svg	3	yes	44	1	828	0	0			0	0			1				0	
6.6.1	win	2023-06-17	14:10:07	14:15:39	304017	61119018babf810c0cab7d3b	4	1	main_z	7	advance_on_keypress_ZEE	22	stimuli_target_squaretriangles.svg	stimuli_distractor_trianglediamonds.svg	3	yes	57	0	698	0	0			0	0			1				0	
6.6.1	win	2023-06-17	14:10:07	14:15:41	306277	61119018babf810c0cab7d3b	4	1	main_z	7	main_z	23	stimuli_distractor_diamondtriangles.svg	stimuli_target_rectangletriangles.svg	13	yes	44	1	904	0	0			0	0			1				0	
6.6.1	win	2023-06-17	14:10:07	14:15:41	306277	61119018babf810c0cab7d3b	4	1	main_z	7	advance_on_keypress_ZEE	24	stimuli_distractor_diamondtriangles.svg	stimuli_target_rectangletriangles.svg	13	yes	57	0	357	0	0			0	0			1				0	
6.6.1	win	2023-06-17	14:10:07	14:15:44	309290	61119018babf810c0cab7d3b	4	1	main_z	7	main_z	25	stimuli_distractor_trianglediamonds.svg	stimuli_distractor_diamondtriangles.svg	36	no	0	1	2000	0	0			0	0			1				0	
6.6.1	win	2023-06-17	14:10:07	14:15:44	309290	61119018babf810c0cab7d3b	4	1	main_z	7	advance_on_keypress_ZEE	26	stimuli_distractor_trianglediamonds.svg	stimuli_distractor_diamondtriangles.svg	36	no	57	0	419	0	0			0	0			1				0	
6.6.1	win	2023-06-17	14:10:07	14:15:47	311696	61119018babf810c0cab7d3b	4	1	main_z	7	main_z	27	stimuli_target_diamondsquares.svg	stimuli_distractor_diamondtriangles.svg	24	yes	44	1	1339	0	0			0	0			1				0	
6.6.1	win	2023-06-17	14:10:07	14:15:47	311696	61119018babf810c0cab7d3b	4	1	main_z	7	advance_on_keypress_ZEE	28	stimuli_target_diamondsquares.svg	stimuli_distractor_diamondtriangles.svg	24	yes	57	0	94605	0	0			0	0			1				0	
6.6.1	win	2023-06-17	14:10:07	14:17:23	407987	61119018babf810c0cab7d3b	4	1	main_z	7	main_z	29	stimuli_distractor_diamondtriangles.svg	stimuli_distractor_diamondtriangles.svg	40	no	44	0	1039	0	0			0	0			1				0	
6.6.1	win	2023-06-17	14:10:07	14:17:23	407987	61119018babf810c0cab7d3b	4	1	main_z	7	advance_on_keypress_ZEE	30	stimuli_distractor_diamondtriangles.svg	stimuli_distractor_diamondtriangles.svg	40	no	57	0	589	0	0			0	0			1				0	
6.6.1	win	2023-06-17	14:10:07	14:17:25	409917	61119018babf810c0cab7d3b	4	1	main_z	7	main_z	31	stimuli_distractor_trianglediamonds.svg	stimuli_target_trianglesquares.svg	26	yes	44	1	702	0	0			0	0			1				0	
6.6.1	win	2023-06-17	14:10:07	14:17:25	409917	61119018babf810c0cab7d3b	4	1	main_z	7	advance_on_keypress_ZEE	32	stimuli_distractor_trianglediamonds.svg	stimuli_target_trianglesquares.svg	26	yes	57	0	395	0	0			0	0			1				0	
6.6.1	win	2023-06-17	14:10:07	14:17:27	411947	61119018babf810c0cab7d3b	4	1	main_z	7	main_z	33	stimuli_distractor_diamondtriangles.svg	stimuli_target_squaretriangles.svg	15	yes	44	1	981	0	0			0	0			1				0	
6.6.1	win	2023-06-17	14:10:07	14:17:27	411947	61119018babf810c0cab7d3b	4	1	main_z	7	advance_on_keypress_ZEE	34	stimuli_distractor_diamondtriangles.svg	stimuli_target_squaretriangles.svg	15	yes	57	0	291	0	0			0	0			1				0	
6.6.1	win	2023-06-17	14:10:07	14:17:30	414898	61119018babf810c0cab7d3b	4	1	main_z	7	main_z	35	stimuli_distractor_diamondtriangles.svg	stimuli_distractor_trianglediamonds.svg	38	no	0	1	2000	0	0			0	0			1				0	
6.6.1	win	2023-06-17	14:10:07	14:17:30	414898	61119018babf810c0cab7d3b	4	1	main_z	7	advance_on_keypress_ZEE	36	stimuli_distractor_diamondtriangles.svg	stimuli_distractor_trianglediamonds.svg	38	no	57	0	280	0	0			0	0			1				0	
6.6.1	win	2023-06-17	14:10:07	14:17:32	416847	61119018babf810c0cab7d3b	4	1	main_z	7	main_z	37	stimuli_distractor_diamondtriangles.svg	stimuli_distractor_trianglediamonds.svg	37	no	44	0	1014	0	0			0	0			1				0	
6.6.1	win	2023-06-17	14:10:07	14:17:32	416847	61119018babf810c0cab7d3b	4	1	main_z	7	advance_on_keypress_ZEE	38	stimuli_distractor_diamondtriangles.svg	stimuli_distractor_trianglediamonds.svg	37	no	57	0	330	0	0			0	0			1				0	
6.6.1	win	2023-06-17	14:10:07	14:17:34	418625	61119018babf810c0cab7d3b	4	1	main_z	7	main_z	39	stimuli_distractor_diamondtriangles.svg	stimuli_target_diamondrectangles.svg	31	yes	44	1	792	0	0			0	0			1				0	
6.6.1	win	2023-06-17	14:10:07	14:17:34	418625	61119018babf810c0cab7d3b	4	1	main_z	7	advance_on_keypress_ZEE	40	stimuli_distractor_diamondtriangles.svg	stimuli_target_diamondrectangles.svg	31	yes	57	0	392	0	0			0	0			1				0	
6.6.1	win	2023-06-17	14:10:07	14:17:35	420336	61119018babf810c0cab7d3b	4	1	main_z	7	main_z	41	stimuli_distractor_diamondtriangles.svg	stimuli_target_diamondsquares.svg	32	yes	44	1	668	0	0			0	0			1				0	
6.6.1	win	2023-06-17	14:10:07	14:17:35	420336	61119018babf810c0cab7d3b	4	1	main_z	7	advance_on_keypress_ZEE	42	stimuli_distractor_diamondtriangles.svg	stimuli_target_diamondsquares.svg	32	yes	57	0	305	0	0			0	0			1				0	
6.6.1	win	2023-06-17	14:10:07	14:17:37	421985	61119018babf810c0cab7d3b	4	1	main_z	7	main_z	43	stimuli_target_trianglesquares.svg	stimuli_distractor_diamondtriangles.svg	22	yes	44	1	701	0	0			0	0			1				0	
6.6.1	win	2023-06-17	14:10:07	14:17:37	421985	61119018babf810c0cab7d3b	4	1	main_z	7	advance_on_keypress_ZEE	44	stimuli_target_trianglesquares.svg	stimuli_distractor_diamondtriangles.svg	22	yes	57	0	294	0	0			0	0			1				0	
6.6.1	win	2023-06-17	14:10:07	14:17:39	423716	61119018babf810c0cab7d3b	4	1	main_z	7	main_z	45	stimuli_target_squarediamonds.svg	stimuli_distractor_diamondtriangles.svg	8	yes	44	1	781	0	0			0	0			1				0	
6.6.1	win	2023-06-17	14:10:07	14:17:39	423716	61119018babf810c0cab7d3b	4	1	main_z	7	advance_on_keypress_ZEE	46	stimuli_target_squarediamonds.svg	stimuli_distractor_diamondtriangles.svg	8	yes	57	0	331	0	0			0	0			1				0	
6.6.1	win	2023-06-17	14:10:07	14:17:41	426136	61119018babf810c0cab7d3b	4	1	main_z	7	main_z	47	stimuli_distractor_trianglediamonds.svg	stimuli_target_diamondrectangles.svg	27	yes	44	1	1434	0	0			0	0			1				0	
6.6.1	win	2023-06-17	14:10:07	14:17:41	426136	61119018babf810c0cab7d3b	4	1	main_z	7	advance_on_keypress_ZEE	48	stimuli_distractor_trianglediamonds.svg	stimuli_target_diamondrectangles.svg	27	yes	57	0	493	0	0			0	0			1				0	
6.6.1	win	2023-06-17	14:10:07	14:17:43	428045	61119018babf810c0cab7d3b	4	1	main_z	7	main_z	49	stimuli_distractor_diamondtriangles.svg	stimuli_target_rectanglediamonds.svg	14	yes	44	1	760	0	0			0	0			1				0	
6.6.1	win	2023-06-17	14:10:07	14:17:43	428045	61119018babf810c0cab7d3b	4	1	main_z	7	advance_on_keypress_ZEE	50	stimuli_distractor_diamondtriangles.svg	stimuli_target_rectanglediamonds.svg	14	yes	57	0	236	0	0			0	0			1				0	
6.6.1	win	2023-06-17	14:10:07	14:17:45	429626	61119018babf810c0cab7d3b	4	1	main_z	7	main_z	51	stimuli_target_diamondrectangles.svg	stimuli_distractor_diamondtriangles.svg	23	yes	44	1	689	0	0			0	0			1				0	
6.6.1	win	2023-06-17	14:10:07	14:17:45	429626	61119018babf810c0cab7d3b	4	1	main_z	7	advance_on_keypress_ZEE	52	stimuli_target_diamondrectangles.svg	stimuli_distractor_diamondtriangles.svg	23	yes	57	0	299	0	0			0	0			1				0	
6.6.1	win	2023-06-17	14:10:07	14:17:46	431115	61119018babf810c0cab7d3b	4	1	main_z	7	main_z	53	stimuli_target_diamondsquares.svg	stimuli_distractor_trianglediamonds.svg	20	yes	44	1	546	0	0			0	0			1				0	
6.6.1	win	2023-06-17	14:10:07	14:17:46	431115	61119018babf810c0cab7d3b	4	1	main_z	7	advance_on_keypress_ZEE	54	stimuli_target_diamondsquares.svg	stimuli_distractor_trianglediamonds.svg	20	yes	57	0	329	0	0			0	0			1				0	
6.6.1	win	2023-06-17	14:10:07	14:17:48	432915	61119018babf810c0cab7d3b	4	1	main_z	7	main_z	55	stimuli_distractor_trianglediamonds.svg	stimuli_target_trianglerectangles.svg	25	yes	44	1	812	0	0			0	0			1				0	
6.6.1	win	2023-06-17	14:10:07	14:17:48	432915	61119018babf810c0cab7d3b	4	1	main_z	7	advance_on_keypress_ZEE	56	stimuli_distractor_trianglediamonds.svg	stimuli_target_trianglerectangles.svg	25	yes	57	0	298	0	0			0	0			1				0	
6.6.1	win	2023-06-17	14:10:07	14:17:51	435871	61119018babf810c0cab7d3b	4	1	main_z	7	main_z	57	stimuli_distractor_diamondtriangles.svg	stimuli_distractor_diamondtriangles.svg	39	no	0	1	2000	0	0			0	0			1				0	
6.6.1	win	2023-06-17	14:10:07	14:17:51	435871	61119018babf810c0cab7d3b	4	1	main_z	7	advance_on_keypress_ZEE	58	stimuli_distractor_diamondtriangles.svg	stimuli_distractor_diamondtriangles.svg	39	no	57	0	578	0	0			0	0			1				0	
6.6.1	win	2023-06-17	14:10:07	14:17:53	437866	61119018babf810c0cab7d3b	4	1	main_z	7	main_z	59	stimuli_target_squarediamonds.svg	stimuli_distractor_trianglediamonds.svg	4	yes	44	1	761	0	0			0	0			1				0	
6.6.1	win	2023-06-17	14:10:07	14:17:53	437866	61119018babf810c0cab7d3b	4	1	main_z	7	advance_on_keypress_ZEE	60	stimuli_target_squarediamonds.svg	stimuli_distractor_trianglediamonds.svg	4	yes	57	0	227	0	0			0	0			1				0	
6.6.1	win	2023-06-17	14:10:07	14:17:54	439426	61119018babf810c0cab7d3b	4	1	main_z	7	main_z	61	stimuli_target_rectanglediamonds.svg	stimuli_distractor_diamondtriangles.svg	6	yes	44	1	670	0	0			0	0			1				0	
6.6.1	win	2023-06-17	14:10:07	14:17:54	439426	61119018babf810c0cab7d3b	4	1	main_z	7	advance_on_keypress_ZEE	62	stimuli_target_rectanglediamonds.svg	stimuli_distractor_diamondtriangles.svg	6	yes	57	0	257	0	0			0	0			1				0	
6.6.1	win	2023-06-17	14:10:07	14:17:56	440965	61119018babf810c0cab7d3b	4	1	main_z	7	main_z	63	stimuli_distractor_trianglediamonds.svg	stimuli_target_squarediamonds.svg	12	yes	44	1	643	0	0			0	0			1				0	
6.6.1	win	2023-06-17	14:10:07	14:17:56	440965	61119018babf810c0cab7d3b	4	1	main_z	7	advance_on_keypress_ZEE	64	stimuli_distractor_trianglediamonds.svg	stimuli_target_squarediamonds.svg	12	yes	57	0	246	0	0			0	0			1				0	
6.6.1	win	2023-06-17	14:10:07	14:17:58	442486	61119018babf810c0cab7d3b	4	1	main_z	7	main_z	65	stimuli_distractor_diamondtriangles.svg	stimuli_target_trianglerectangles.svg	29	yes	44	1	613	0	0			0	0			1				0	
6.6.1	win	2023-06-17	14:10:07	14:17:58	442486	61119018babf810c0cab7d3b	4	1	main_z	7	advance_on_keypress_ZEE	66	stimuli_distractor_diamondtriangles.svg	stimuli_target_trianglerectangles.svg	29	yes	57	0	209	0	0			0	0			1				0	
6.6.1	win	2023-06-17	14:10:07	14:17:59	443846	61119018babf810c0cab7d3b	4	1	main_z	7	main_z	67	stimuli_distractor_diamondtriangles.svg	stimuli_target_squarediamonds.svg	16	yes	44	1	489	0	0			0	0			1				0	
6.6.1	win	2023-06-17	14:10:07	14:17:59	443846	61119018babf810c0cab7d3b	4	1	main_z	7	advance_on_keypress_ZEE	68	stimuli_distractor_diamondtriangles.svg	stimuli_target_squarediamonds.svg	16	yes	57	0	279	0	0			0	0			1				0	
6.6.1	win	2023-06-17	14:10:07	14:18:00	445308	61119018babf810c0cab7d3b	4	1	main_z	7	main_z	69	stimuli_distractor_trianglediamonds.svg	stimuli_target_rectangletriangles.svg	9	yes	44	1	532	0	0			0	0			1				0	
6.6.1	win	2023-06-17	14:10:07	14:18:00	445308	61119018babf810c0cab7d3b	4	1	main_z	7	advance_on_keypress_ZEE	70	stimuli_distractor_trianglediamonds.svg	stimuli_target_rectangletriangles.svg	9	yes	57	0	232	0	0			0	0			1				0	
6.6.1	win	2023-06-17	14:10:07	14:18:02	446720	61119018babf810c0cab7d3b	4	1	main_z	7	main_z	71	stimuli_target_trianglerectangles.svg	stimuli_distractor_diamondtriangles.svg	21	yes	44	1	507	0	0			0	0			1				0	
6.6.1	win	2023-06-17	14:10:07	14:18:02	446720	61119018babf810c0cab7d3b	4	1	main_z	7	advance_on_keypress_ZEE	72	stimuli_target_trianglerectangles.svg	stimuli_distractor_diamondtriangles.svg	21	yes	57	0	215	0	0			0	0			1				0	
6.6.1	win	2023-06-17	14:10:07	14:18:03	448120	61119018babf810c0cab7d3b	4	1	main_z	7	main_z	73	stimuli_target_trianglesquares.svg	stimuli_distractor_trianglediamonds.svg	18	yes	44	1	525	0	0			0	0			1				0	
6.6.1	win	2023-06-17	14:10:07	14:18:03	448120	61119018babf810c0cab7d3b	4	1	main_z	7	advance_on_keypress_ZEE	74	stimuli_target_trianglesquares.svg	stimuli_distractor_trianglediamonds.svg	18	yes	57	0	204	0	0			0	0			1				0	
6.6.1	win	2023-06-17	14:10:07	14:18:05	449755	61119018babf810c0cab7d3b	4	1	main_z	7	main_z	75	stimuli_target_rectangletriangles.svg	stimuli_distractor_diamondtriangles.svg	5	yes	44	1	781	0	0			0	0			1				0	
6.6.1	win	2023-06-17	14:10:07	14:18:05	449755	61119018babf810c0cab7d3b	4	1	main_z	7	advance_on_keypress_ZEE	76	stimuli_target_rectangletriangles.svg	stimuli_distractor_diamondtriangles.svg	5	yes	57	0	251	0	0			0	0			1				0	
6.6.1	win	2023-06-17	14:10:07	14:18:06	451396	61119018babf810c0cab7d3b	4	1	main_z	7	main_z	77	stimuli_target_diamondrectangles.svg	stimuli_distractor_trianglediamonds.svg	19	yes	44	1	737	0	0			0	0			1				0	
6.6.1	win	2023-06-17	14:10:07	14:18:06	451396	61119018babf810c0cab7d3b	4	1	main_z	7	advance_on_keypress_ZEE	78	stimuli_target_diamondrectangles.svg	stimuli_distractor_trianglediamonds.svg	19	yes	57	0	267	0	0			0	0			1				0	
6.6.1	win	2023-06-17	14:10:07	14:18:09	454309	61119018babf810c0cab7d3b	4	1	main_z	7	main_z	79	stimuli_distractor_trianglediamonds.svg	stimuli_distractor_diamondtriangles.svg	35	no	0	1	2000	0	0			0	0			1				0	
6.6.1	win	2023-06-17	14:10:07	14:18:09	454309	61119018babf810c0cab7d3b	4	1	main_z	7	advance_on_keypress_ZEE	80	stimuli_distractor_trianglediamonds.svg	stimuli_distractor_diamondtriangles.svg	35	no	57	0	500	0	0			0	0			1				0	
6.6.1	win	2023-06-17	14:10:07	14:18:11	456016	61119018babf810c0cab7d3b	4	1	main_z	7	main_z	81	stimuli_target_diamondsquares.svg	stimuli_distractor_trianglediamonds.svg	20	yes	44	1	556	0	0			0	0			1				0	
6.6.1	win	2023-06-17	14:10:07	14:18:11	456016	61119018babf810c0cab7d3b	4	1	main_z	7	advance_on_keypress_ZEE	82	stimuli_target_diamondsquares.svg	stimuli_distractor_trianglediamonds.svg	20	yes	57	0	219	0	0			0	0			1				0	
6.6.1	win	2023-06-17	14:10:07	14:18:13	457745	61119018babf810c0cab7d3b	4	1	main_z	7	main_z	83	stimuli_distractor_trianglediamonds.svg	stimuli_distractor_diamondtriangles.svg	36	no	44	0	869	0	0			0	0			1				0	
6.6.1	win	2023-06-17	14:10:07	14:18:13	457745	61119018babf810c0cab7d3b	4	1	main_z	7	advance_on_keypress_ZEE	84	stimuli_distractor_trianglediamonds.svg	stimuli_distractor_diamondtriangles.svg	36	no	57	0	975	0	0			0	0			1				0	
6.6.1	win	2023-06-17	14:10:07	14:18:15	460145	61119018babf810c0cab7d3b	4	1	main_z	7	main_z	85	stimuli_distractor_trianglediamonds.svg	stimuli_target_squaretriangles.svg	11	yes	44	1	767	0	0			0	0			1				0	
6.6.1	win	2023-06-17	14:10:07	14:18:15	460145	61119018babf810c0cab7d3b	4	1	main_z	7	advance_on_keypress_ZEE	86	stimuli_distractor_trianglediamonds.svg	stimuli_target_squaretriangles.svg	11	yes	57	0	254	0	0			0	0			1				0	
6.6.1	win	2023-06-17	14:10:07	14:18:17	461754	61119018babf810c0cab7d3b	4	1	main_z	7	main_z	87	stimuli_target_squaretriangles.svg	stimuli_distractor_trianglediamonds.svg	3	yes	44	1	710	0	0			0	0			1				0	
6.6.1	win	2023-06-17	14:10:07	14:18:17	461754	61119018babf810c0cab7d3b	4	1	main_z	7	advance_on_keypress_ZEE	88	stimuli_target_squaretriangles.svg	stimuli_distractor_trianglediamonds.svg	3	yes	57	0	237	0	0			0	0			1				0	
6.6.1	win	2023-06-17	14:10:07	14:18:20	464645	61119018babf810c0cab7d3b	4	1	main_z	7	main_z	89	stimuli_distractor_trianglediamonds.svg	stimuli_target_trianglerectangles.svg	25	yes	0	0	2000	0	0			0	0			1				0	
6.6.1	win	2023-06-17	14:10:07	14:18:20	464645	61119018babf810c0cab7d3b	4	1	main_z	7	advance_on_keypress_ZEE	90	stimuli_distractor_trianglediamonds.svg	stimuli_target_trianglerectangles.svg	25	yes	57	0	583	0	0			0	0			1				0	
6.6.1	win	2023-06-17	14:10:07	14:18:23	467879	61119018babf810c0cab7d3b	4	1	main_z	7	main_z	91	stimuli_distractor_diamondtriangles.svg	stimuli_distractor_diamondtriangles.svg	40	no	0	1	2000	0	0			0	0			1				0	
6.6.1	win	2023-06-17	14:10:07	14:18:23	467879	61119018babf810c0cab7d3b	4	1	main_z	7	advance_on_keypress_ZEE	92	stimuli_distractor_diamondtriangles.svg	stimuli_distractor_diamondtriangles.svg	40	no	57	0	369	0	0			0	0			1				0	
6.6.1	win	2023-06-17	14:10:07	14:18:24	469385	61119018babf810c0cab7d3b	4	1	main_z	7	main_z	93	stimuli_distractor_trianglediamonds.svg	stimuli_target_squarediamonds.svg	12	yes	44	1	488	0	0			0	0			1				0	
6.6.1	win	2023-06-17	14:10:07	14:18:24	469385	61119018babf810c0cab7d3b	4	1	main_z	7	advance_on_keypress_ZEE	94	stimuli_distractor_trianglediamonds.svg	stimuli_target_squarediamonds.svg	12	yes	57	0	248	0	0			0	0			1				0	
6.6.1	win	2023-06-17	14:10:07	14:18:26	471005	61119018babf810c0cab7d3b	4	1	main_z	7	main_z	95	stimuli_distractor_diamondtriangles.svg	stimuli_target_trianglerectangles.svg	29	yes	44	1	725	0	0			0	0			1				0	
6.6.1	win	2023-06-17	14:10:07	14:18:26	471005	61119018babf810c0cab7d3b	4	1	main_z	7	advance_on_keypress_ZEE	96	stimuli_distractor_diamondtriangles.svg	stimuli_target_trianglerectangles.svg	29	yes	57	0	245	0	0			0	0			1				0	
6.6.1	win	2023-06-17	14:10:07	14:18:28	473104	61119018babf810c0cab7d3b	4	1	main_z	7	main_z	97	stimuli_target_trianglerectangles.svg	stimuli_distractor_trianglediamonds.svg	17	yes	44	1	1191	0	0			0	0			1				0	
6.6.1	win	2023-06-17	14:10:07	14:18:28	473104	61119018babf810c0cab7d3b	4	1	main_z	7	advance_on_keypress_ZEE	98	stimuli_target_trianglerectangles.svg	stimuli_distractor_trianglediamonds.svg	17	yes	57	0	211	0	0			0	0			1				0	
6.6.1	win	2023-06-17	14:10:07	14:18:30	474654	61119018babf810c0cab7d3b	4	1	main_z	7	main_z	99	stimuli_target_rectanglediamonds.svg	stimuli_distractor_trianglediamonds.svg	2	yes	44	1	691	0	0			0	0			1				0	
6.6.1	win	2023-06-17	14:10:07	14:18:30	474654	61119018babf810c0cab7d3b	4	1	main_z	7	advance_on_keypress_ZEE	100	stimuli_target_rectanglediamonds.svg	stimuli_distractor_trianglediamonds.svg	2	yes	57	0	280	0	0			0	0			1				0	
6.6.1	win	2023-06-17	14:10:07	14:18:31	476244	61119018babf810c0cab7d3b	4	1	main_z	7	main_z	101	stimuli_target_diamondsquares.svg	stimuli_distractor_diamondtriangles.svg	24	yes	44	1	664	0	0			0	0			1				0	
6.6.1	win	2023-06-17	14:10:07	14:18:31	476244	61119018babf810c0cab7d3b	4	1	main_z	7	advance_on_keypress_ZEE	102	stimuli_target_diamondsquares.svg	stimuli_distractor_diamondtriangles.svg	24	yes	57	0	280	0	0			0	0			1				0	
6.6.1	win	2023-06-17	14:10:07	14:18:33	477784	61119018babf810c0cab7d3b	4	1	main_z	7	main_z	103	stimuli_distractor_trianglediamonds.svg	stimuli_target_diamondrectangles.svg	27	yes	44	1	603	0	0			0	0			1				0	
6.6.1	win	2023-06-17	14:10:07	14:18:33	477784	61119018babf810c0cab7d3b	4	1	main_z	7	advance_on_keypress_ZEE	104	stimuli_distractor_trianglediamonds.svg	stimuli_target_diamondrectangles.svg	27	yes	57	0	236	0	0			0	0			1				0	
6.6.1	win	2023-06-17	14:10:07	14:18:34	479294	61119018babf810c0cab7d3b	4	1	main_z	7	main_z	105	stimuli_distractor_diamondtriangles.svg	stimuli_target_rectanglediamonds.svg	14	yes	44	1	629	0	0			0	0			1				0	
6.6.1	win	2023-06-17	14:10:07	14:18:34	479294	61119018babf810c0cab7d3b	4	1	main_z	7	advance_on_keypress_ZEE	106	stimuli_distractor_diamondtriangles.svg	stimuli_target_rectanglediamonds.svg	14	yes	57	0	219	0	0			0	0			1				0	
6.6.1	win	2023-06-17	14:10:07	14:18:36	480754	61119018babf810c0cab7d3b	4	1	main_z	7	main_z	107	stimuli_target_diamondrectangles.svg	stimuli_distractor_diamondtriangles.svg	23	yes	44	1	589	0	0			0	0			1				0	
6.6.1	win	2023-06-17	14:10:07	14:18:36	480754	61119018babf810c0cab7d3b	4	1	main_z	7	advance_on_keypress_ZEE	108	stimuli_target_diamondrectangles.svg	stimuli_distractor_diamondtriangles.svg	23	yes	57	0	219	0	0			0	0			1				0	
6.6.1	win	2023-06-17	14:10:07	14:18:39	483616	61119018babf810c0cab7d3b	4	1	main_z	7	main_z	109	stimuli_distractor_trianglediamonds.svg	stimuli_distractor_trianglediamonds.svg	34	no	0	1	2000	0	0			0	0			1				0	
6.6.1	win	2023-06-17	14:10:07	14:18:39	483616	61119018babf810c0cab7d3b	4	1	main_z	7	advance_on_keypress_ZEE	110	stimuli_distractor_trianglediamonds.svg	stimuli_distractor_trianglediamonds.svg	34	no	57	0	561	0	0			0	0			1				0	
6.6.1	win	2023-06-17	14:10:07	14:18:41	485475	61119018babf810c0cab7d3b	4	1	main_z	7	main_z	111	stimuli_distractor_diamondtriangles.svg	stimuli_target_diamondsquares.svg	32	yes	44	1	641	0	0			0	0			1				0	
6.6.1	win	2023-06-17	14:10:07	14:18:41	485475	61119018babf810c0cab7d3b	4	1	main_z	7	advance_on_keypress_ZEE	112	stimuli_distractor_diamondtriangles.svg	stimuli_target_diamondsquares.svg	32	yes	57	0	221	0	0			0	0			1				0	
6.6.1	win	2023-06-17	14:10:07	14:18:42	487094	61119018babf810c0cab7d3b	4	1	main_z	7	main_z	113	stimuli_distractor_diamondtriangles.svg	stimuli_target_squarediamonds.svg	16	yes	44	1	761	0	0			0	0			1				0	
6.6.1	win	2023-06-17	14:10:07	14:18:42	487094	61119018babf810c0cab7d3b	4	1	main_z	7	advance_on_keypress_ZEE	114	stimuli_distractor_diamondtriangles.svg	stimuli_target_squarediamonds.svg	16	yes	57	0	207	0	0			0	0			1				0	
6.6.1	win	2023-06-17	14:10:07	14:18:44	488585	61119018babf810c0cab7d3b	4	1	main_z	7	main_z	115	stimuli_target_trianglesquares.svg	stimuli_distractor_trianglediamonds.svg	18	yes	44	1	634	0	0			0	0			1				0	
6.6.1	win	2023-06-17	14:10:07	14:18:44	488585	61119018babf810c0cab7d3b	4	1	main_z	7	advance_on_keypress_ZEE	116	stimuli_target_trianglesquares.svg	stimuli_distractor_trianglediamonds.svg	18	yes	57	0	254	0	0			0	0			1				0	
6.6.1	win	2023-06-17	14:10:07	14:18:45	490145	61119018babf810c0cab7d3b	4	1	main_z	7	main_z	117	stimuli_distractor_trianglediamonds.svg	stimuli_target_diamondsquares.svg	28	yes	44	1	660	0	0			0	0			1				0	
6.6.1	win	2023-06-17	14:10:07	14:18:45	490145	61119018babf810c0cab7d3b	4	1	main_z	7	advance_on_keypress_ZEE	118	stimuli_distractor_trianglediamonds.svg	stimuli_target_diamondsquares.svg	28	yes	57	0	237	0	0			0	0			1				0	
6.6.1	win	2023-06-17	14:10:07	14:18:47	492035	61119018babf810c0cab7d3b	4	1	main_z	7	main_z	119	stimuli_distractor_diamondtriangles.svg	stimuli_distractor_trianglediamonds.svg	38	no	44	0	1000	0	0			0	0			1				0	
6.6.1	win	2023-06-17	14:10:07	14:18:47	492035	61119018babf810c0cab7d3b	4	1	main_z	7	advance_on_keypress_ZEE	120	stimuli_distractor_diamondtriangles.svg	stimuli_distractor_trianglediamonds.svg	38	no	57	0	1473	0	0			0	0			1				0	
6.6.1	win	2023-06-17	14:10:07	14:18:51	496152	61119018babf810c0cab7d3b	4	1	main_z	7	main_z	121	stimuli_distractor_trianglediamonds.svg	stimuli_distractor_diamondtriangles.svg	35	no	0	1	2000	0	0			0	0			1				0	
6.6.1	win	2023-06-17	14:10:07	14:18:51	496152	61119018babf810c0cab7d3b	4	1	main_z	7	advance_on_keypress_ZEE	122	stimuli_distractor_trianglediamonds.svg	stimuli_distractor_diamondtriangles.svg	35	no	57	0	325	0	0			0	0			1				0	
6.6.1	win	2023-06-17	14:10:07	14:18:54	499120	61119018babf810c0cab7d3b	4	1	main_z	7	main_z	123	stimuli_distractor_diamondtriangles.svg	stimuli_distractor_diamondtriangles.svg	39	no	0	1	2000	0	0			0	0			1				0	
6.6.1	win	2023-06-17	14:10:07	14:18:54	499120	61119018babf810c0cab7d3b	4	1	main_z	7	advance_on_keypress_ZEE	124	stimuli_distractor_diamondtriangles.svg	stimuli_distractor_diamondtriangles.svg	39	no	57	0	477	0	0			0	0			1				0	
6.6.1	win	2023-06-17	14:10:07	14:18:56	501154	61119018babf810c0cab7d3b	4	1	main_z	7	main_z	125	stimuli_target_squaretriangles.svg	stimuli_distractor_diamondtriangles.svg	7	yes	44	1	900	0	0			0	0			1				0	
6.6.1	win	2023-06-17	14:10:07	14:18:56	501154	61119018babf810c0cab7d3b	4	1	main_z	7	advance_on_keypress_ZEE	126	stimuli_target_squaretriangles.svg	stimuli_distractor_diamondtriangles.svg	7	yes	57	0	153	0	0			0	0			1				0	
6.6.1	win	2023-06-17	14:10:07	14:18:59	503954	61119018babf810c0cab7d3b	4	1	main_z	7	main_z	127	stimuli_target_rectanglediamonds.svg	stimuli_distractor_diamondtriangles.svg	6	yes	0	0	2000	0	0			0	0			1				0	
6.6.1	win	2023-06-17	14:10:07	14:18:59	503954	61119018babf810c0cab7d3b	4	1	main_z	7	advance_on_keypress_ZEE	128	stimuli_target_rectanglediamonds.svg	stimuli_distractor_diamondtriangles.svg	6	yes	57	0	1072	0	0			0	0			1				0	
6.6.1	win	2023-06-17	14:10:07	14:19:01	506353	61119018babf810c0cab7d3b	4	1	main_z	7	main_z	129	stimuli_target_squarediamonds.svg	stimuli_distractor_diamondtriangles.svg	8	yes	44	1	682	0	0			0	0			1				0	
6.6.1	win	2023-06-17	14:10:07	14:19:01	506353	61119018babf810c0cab7d3b	4	1	main_z	7	advance_on_keypress_ZEE	130	stimuli_target_squarediamonds.svg	stimuli_distractor_diamondtriangles.svg	8	yes	57	0	262	0	0			0	0			1				0	
6.6.1	win	2023-06-17	14:10:07	14:19:03	507913	61119018babf810c0cab7d3b	4	1	main_z	7	main_z	131	stimuli_distractor_diamondtriangles.svg	stimuli_target_trianglesquares.svg	30	yes	44	1	641	0	0			0	0			1				0	
6.6.1	win	2023-06-17	14:10:07	14:19:03	507913	61119018babf810c0cab7d3b	4	1	main_z	7	advance_on_keypress_ZEE	132	stimuli_distractor_diamondtriangles.svg	stimuli_target_trianglesquares.svg	30	yes	57	0	261	0	0			0	0			1				0	
6.6.1	win	2023-06-17	14:10:07	14:19:04	509393	61119018babf810c0cab7d3b	4	1	main_z	7	main_z	133	stimuli_target_trianglerectangles.svg	stimuli_distractor_diamondtriangles.svg	21	yes	44	1	571	0	0			0	0			1				0	
6.6.1	win	2023-06-17	14:10:07	14:19:04	509393	61119018babf810c0cab7d3b	4	1	main_z	7	advance_on_keypress_ZEE	134	stimuli_target_trianglerectangles.svg	stimuli_distractor_diamondtriangles.svg	21	yes	57	0	207	0	0			0	0			1				0	
6.6.1	win	2023-06-17	14:10:07	14:19:06	510785	61119018babf810c0cab7d3b	4	1	main_z	7	main_z	135	stimuli_distractor_diamondtriangles.svg	stimuli_target_diamondrectangles.svg	31	yes	44	1	527	0	0			0	0			1				0	
6.6.1	win	2023-06-17	14:10:07	14:19:06	510785	61119018babf810c0cab7d3b	4	1	main_z	7	advance_on_keypress_ZEE	136	stimuli_distractor_diamondtriangles.svg	stimuli_target_diamondrectangles.svg	31	yes	57	0	227	0	0			0	0			1				0	
6.6.1	win	2023-06-17	14:10:07	14:19:07	512333	61119018babf810c0cab7d3b	4	1	main_z	7	main_z	137	stimuli_distractor_trianglediamonds.svg	stimuli_target_rectangletriangles.svg	9	yes	44	1	660	0	0			0	0			1				0	
6.6.1	win	2023-06-17	14:10:07	14:19:07	512333	61119018babf810c0cab7d3b	4	1	main_z	7	advance_on_keypress_ZEE	138	stimuli_distractor_trianglediamonds.svg	stimuli_target_rectangletriangles.svg	9	yes	57	0	257	0	0			0	0			1				0	
6.6.1	win	2023-06-17	14:10:07	14:19:09	513636	61119018babf810c0cab7d3b	4	1	main_z	7	main_z	139	stimuli_target_rectangletriangles.svg	stimuli_distractor_trianglediamonds.svg	1	yes	44	1	393	0	0			0	0			1				0	
6.6.1	win	2023-06-17	14:10:07	14:19:09	513636	61119018babf810c0cab7d3b	4	1	main_z	7	advance_on_keypress_ZEE	140	stimuli_target_rectangletriangles.svg	stimuli_distractor_trianglediamonds.svg	1	yes	57	0	276	0	0			0	0			1				0	
6.6.1	win	2023-06-17	14:10:07	14:19:12	516574	61119018babf810c0cab7d3b	4	1	main_z	7	main_z	141	stimuli_distractor_diamondtriangles.svg	stimuli_distractor_trianglediamonds.svg	37	no	0	1	2000	0	0			0	0			1				0	
6.6.1	win	2023-06-17	14:10:07	14:19:12	516574	61119018babf810c0cab7d3b	4	1	main_z	7	advance_on_keypress_ZEE	142	stimuli_distractor_diamondtriangles.svg	stimuli_distractor_trianglediamonds.svg	37	no	57	0	312	0	0			0	0			1				0	
6.6.1	win	2023-06-17	14:10:07	14:19:13	518184	61119018babf810c0cab7d3b	4	1	main_z	7	main_z	143	stimuli_target_trianglesquares.svg	stimuli_distractor_diamondtriangles.svg	22	yes	44	1	642	0	0			0	0			1				0	
6.6.1	win	2023-06-17	14:10:07	14:19:13	518184	61119018babf810c0cab7d3b	4	1	main_z	7	advance_on_keypress_ZEE	144	stimuli_target_trianglesquares.svg	stimuli_distractor_diamondtriangles.svg	22	yes	57	0	245	0	0			0	0			1				0	
6.6.1	win	2023-06-17	14:10:07	14:19:15	519804	61119018babf810c0cab7d3b	4	1	main_z	7	main_z	145	stimuli_distractor_diamondtriangles.svg	stimuli_target_rectangletriangles.svg	13	yes	44	1	712	0	0			0	0			1				0	
6.6.1	win	2023-06-17	14:10:07	14:19:15	519804	61119018babf810c0cab7d3b	4	1	main_z	7	advance_on_keypress_ZEE	146	stimuli_distractor_diamondtriangles.svg	stimuli_target_rectangletriangles.svg	13	yes	57	0	178	0	0			0	0			1				0	
6.6.1	win	2023-06-17	14:10:07	14:19:16	521303	61119018babf810c0cab7d3b	4	1	main_z	7	main_z	147	stimuli_target_squarediamonds.svg	stimuli_distractor_trianglediamonds.svg	4	yes	44	1	661	0	0			0	0			1				0	
6.6.1	win	2023-06-17	14:10:07	14:19:16	521303	61119018babf810c0cab7d3b	4	1	main_z	7	advance_on_keypress_ZEE	148	stimuli_target_squarediamonds.svg	stimuli_distractor_trianglediamonds.svg	4	yes	57	0	228	0	0			0	0			1				0	
6.6.1	win	2023-06-17	14:10:07	14:19:18	522844	61119018babf810c0cab7d3b	4	1	main_z	7	main_z	149	stimuli_distractor_trianglediamonds.svg	stimuli_target_trianglesquares.svg	26	yes	44	1	651	0	0			0	0			1				0	
6.6.1	win	2023-06-17	14:10:07	14:19:18	522844	61119018babf810c0cab7d3b	4	1	main_z	7	advance_on_keypress_ZEE	150	stimuli_distractor_trianglediamonds.svg	stimuli_target_trianglesquares.svg	26	yes	57	0	234	0	0			0	0			1				0	
6.6.1	win	2023-06-17	14:10:07	14:19:19	524256	61119018babf810c0cab7d3b	4	1	main_z	7	main_z	151	stimuli_target_diamondrectangles.svg	stimuli_distractor_trianglediamonds.svg	19	yes	44	1	508	0	0			0	0			1				0	
6.6.1	win	2023-06-17	14:10:07	14:19:19	524256	61119018babf810c0cab7d3b	4	1	main_z	7	advance_on_keypress_ZEE	152	stimuli_target_diamondrectangles.svg	stimuli_distractor_trianglediamonds.svg	19	yes	57	0	307	0	0			0	0			1				0	
6.6.1	win	2023-06-17	14:10:07	14:19:21	525873	61119018babf810c0cab7d3b	4	1	main_z	7	main_z	153	stimuli_target_rectangletriangles.svg	stimuli_distractor_diamondtriangles.svg	5	yes	44	1	664	0	0			0	0			1				0	
6.6.1	win	2023-06-17	14:10:07	14:19:21	525873	61119018babf810c0cab7d3b	4	1	main_z	7	advance_on_keypress_ZEE	154	stimuli_target_rectangletriangles.svg	stimuli_distractor_diamondtriangles.svg	5	yes	57	0	360	0	0			0	0			1				0	
6.6.1	win	2023-06-17	14:10:07	14:19:23	527514	61119018babf810c0cab7d3b	4	1	main_z	7	main_z	155	stimuli_distractor_trianglediamonds.svg	stimuli_target_rectanglediamonds.svg	10	yes	44	1	620	0	0			0	0			1				0	
6.6.1	win	2023-06-17	14:10:07	14:19:23	527514	61119018babf810c0cab7d3b	4	1	main_z	7	advance_on_keypress_ZEE	156	stimuli_distractor_trianglediamonds.svg	stimuli_target_rectanglediamonds.svg	10	yes	57	0	276	0	0			0	0			1				0	
6.6.1	win	2023-06-17	14:10:07	14:19:24	528923	61119018babf810c0cab7d3b	4	1	main_z	7	main_z	157	stimuli_distractor_diamondtriangles.svg	stimuli_target_squaretriangles.svg	15	yes	44	1	479	0	0			0	0			1				0	
6.6.1	win	2023-06-17	14:10:07	14:19:24	528923	61119018babf810c0cab7d3b	4	1	main_z	7	advance_on_keypress_ZEE	158	stimuli_distractor_diamondtriangles.svg	stimuli_target_squaretriangles.svg	15	yes	57	0	239	0	0			0	0			1				0	
6.6.1	win	2023-06-17	14:10:07	14:19:27	531811	61119018babf810c0cab7d3b	4	1	main_z	7	main_z	159	stimuli_distractor_trianglediamonds.svg	stimuli_distractor_trianglediamonds.svg	33	no	0	1	2000	0	0			0	0			1				0	
6.6.1	win	2023-06-17	14:10:07	14:19:27	531811	61119018babf810c0cab7d3b	4	1	main_z	7	advance_on_keypress_ZEE	160	stimuli_distractor_trianglediamonds.svg	stimuli_distractor_trianglediamonds.svg	33	no	57	0	565	0	0			0	0			1				0	
6.6.1	win	2023-06-17	14:10:07	14:19:57	561856	61119018babf810c0cab7d3b	4	1	practice_slash	9	practice_slash	1	stimuli_distractor_diamondtriangles.svg	stimuli_distractor_diamondtriangles.svg	13	no	0	1	2000	0	0			0	0			1				0	
6.6.1	win	2023-06-17	14:10:07	14:19:57	561856	61119018babf810c0cab7d3b	4	1	practice_slash	9	advance_on_keypress_SLASH	2	stimuli_distractor_diamondtriangles.svg	stimuli_distractor_diamondtriangles.svg	13	no	57	0	457	0	0			0	0			1				0	
6.6.1	win	2023-06-17	14:10:07	14:20:00	564646	61119018babf810c0cab7d3b	4	1	practice_slash	9	practice_slash	3	stimuli_distractor_trianglediamonds.svg	stimuli_target_rectanglediamonds.svg	10	yes	53	1	657	0	0			0	0			1				0	
6.6.1	win	2023-06-17	14:10:07	14:20:00	564646	61119018babf810c0cab7d3b	4	1	practice_slash	9	advance_on_keypress_SLASH	4	stimuli_distractor_trianglediamonds.svg	stimuli_target_rectanglediamonds.svg	10	yes	57	0	293	0	0			0	0			1				0	
6.6.1	win	2023-06-17	14:10:07	14:20:02	567257	61119018babf810c0cab7d3b	4	1	practice_slash	9	practice_slash	5	stimuli_target_rectanglediamonds.svg	stimuli_distractor_trianglediamonds.svg	4	yes	53	1	649	0	0			0	0			1				0	
6.6.1	win	2023-06-17	14:10:07	14:20:02	567257	61119018babf810c0cab7d3b	4	1	practice_slash	9	advance_on_keypress_SLASH	6	stimuli_target_rectanglediamonds.svg	stimuli_distractor_trianglediamonds.svg	4	yes	57	0	302	0	0			0	0			1				0	
6.6.1	win	2023-06-17	14:10:07	14:20:05	569878	61119018babf810c0cab7d3b	4	1	practice_slash	9	practice_slash	7	stimuli_target_squarediamonds.svg	stimuli_distractor_trianglediamonds.svg	5	yes	53	1	669	0	0			0	0			1				0	
6.6.1	win	2023-06-17	14:10:07	14:20:05	569878	61119018babf810c0cab7d3b	4	1	practice_slash	9	advance_on_keypress_SLASH	8	stimuli_target_squarediamonds.svg	stimuli_distractor_trianglediamonds.svg	5	yes	57	0	285	0	0			0	0			1				0	
6.6.1	win	2023-06-17	14:10:07	14:20:07	572368	61119018babf810c0cab7d3b	4	1	practice_slash	9	practice_slash	9	stimuli_target_rectanglediamonds.svg	stimuli_distractor_diamondtriangles.svg	1	yes	53	1	558	0	0			0	0			1				0	
6.6.1	win	2023-06-17	14:10:07	14:20:07	572368	61119018babf810c0cab7d3b	4	1	practice_slash	9	advance_on_keypress_SLASH	10	stimuli_target_rectanglediamonds.svg	stimuli_distractor_diamondtriangles.svg	1	yes	57	0	274	0	0			0	0			1				0	
6.6.1	win	2023-06-17	14:10:07	14:20:10	574839	61119018babf810c0cab7d3b	4	1	practice_slash	9	practice_slash	11	stimuli_target_diamondsquares.svg	stimuli_distractor_diamondtriangles.svg	3	yes	53	1	527	0	0			0	0			1				0	
6.6.1	win	2023-06-17	14:10:07	14:20:10	574839	61119018babf810c0cab7d3b	4	1	practice_slash	9	advance_on_keypress_SLASH	12	stimuli_target_diamondsquares.svg	stimuli_distractor_diamondtriangles.svg	3	yes	57	0	277	0	0			0	0			1				0	
6.6.1	win	2023-06-17	14:10:07	14:20:12	577248	61119018babf810c0cab7d3b	4	1	practice_slash	9	practice_slash	13	stimuli_target_diamondsquares.svg	stimuli_distractor_trianglediamonds.svg	6	yes	53	1	470	0	0			0	0			1				0	
6.6.1	win	2023-06-17	14:10:07	14:20:12	577248	61119018babf810c0cab7d3b	4	1	practice_slash	9	advance_on_keypress_SLASH	14	stimuli_target_diamondsquares.svg	stimuli_distractor_trianglediamonds.svg	6	yes	57	0	260	0	0			0	0			1				0	
6.6.1	win	2023-06-17	14:10:07	14:20:15	579858	61119018babf810c0cab7d3b	4	1	practice_slash	9	practice_slash	15	stimuli_distractor_diamondtriangles.svg	stimuli_target_rectangletriangles.svg	7	yes	53	1	680	0	0			0	0			1				0	
6.6.1	win	2023-06-17	14:10:07	14:20:15	579858	61119018babf810c0cab7d3b	4	1	practice_slash	9	advance_on_keypress_SLASH	16	stimuli_distractor_diamondtriangles.svg	stimuli_target_rectangletriangles.svg	7	yes	57	0	229	0	0			0	0			1				0	
6.6.1	win	2023-06-17	14:10:07	14:20:18	582606	61119018babf810c0cab7d3b	4	1	practice_slash	9	practice_slash	17	stimuli_target_squarediamonds.svg	stimuli_distractor_diamondtriangles.svg	2	yes	53	1	861	0	0			0	0			1				0	
6.6.1	win	2023-06-17	14:10:07	14:20:18	582606	61119018babf810c0cab7d3b	4	1	practice_slash	9	advance_on_keypress_SLASH	18	stimuli_target_squarediamonds.svg	stimuli_distractor_diamondtriangles.svg	2	yes	57	0	277	0	0			0	0			1				0	
6.6.1	win	2023-06-17	14:10:07	14:20:22	586546	61119018babf810c0cab7d3b	4	1	practice_slash	9	practice_slash	19	stimuli_distractor_trianglediamonds.svg	stimuli_distractor_diamondtriangles.svg	16	no	0	1	2000	0	0			0	0			1				0	
6.6.1	win	2023-06-17	14:10:07	14:20:22	586546	61119018babf810c0cab7d3b	4	1	practice_slash	9	advance_on_keypress_SLASH	20	stimuli_distractor_trianglediamonds.svg	stimuli_distractor_diamondtriangles.svg	16	no	57	0	273	0	0			0	0			1				0	
6.6.1	win	2023-06-17	14:10:07	14:20:24	589126	61119018babf810c0cab7d3b	4	1	practice_slash	9	practice_slash	21	stimuli_distractor_diamondtriangles.svg	stimuli_target_diamondrectangles.svg	8	yes	53	1	663	0	0			0	0			1				0	
6.6.1	win	2023-06-17	14:10:07	14:20:24	589126	61119018babf810c0cab7d3b	4	1	practice_slash	9	advance_on_keypress_SLASH	22	stimuli_distractor_diamondtriangles.svg	stimuli_target_diamondrectangles.svg	8	yes	57	0	299	0	0			0	0			1				0	
6.6.1	win	2023-06-17	14:10:07	14:20:28	593081	61119018babf810c0cab7d3b	4	1	practice_slash	9	practice_slash	23	stimuli_distractor_trianglediamonds.svg	stimuli_distractor_trianglediamonds.svg	15	no	0	1	2000	0	0			0	0			1				0	
6.6.1	win	2023-06-17	14:10:07	14:20:28	593081	61119018babf810c0cab7d3b	4	1	practice_slash	9	advance_on_keypress_SLASH	24	stimuli_distractor_trianglediamonds.svg	stimuli_distractor_trianglediamonds.svg	15	no	57	0	478	0	0			0	0			1				0	
6.6.1	win	2023-06-17	14:10:07	14:20:31	595797	61119018babf810c0cab7d3b	4	1	practice_slash	9	practice_slash	25	stimuli_distractor_diamondtriangles.svg	stimuli_distractor_trianglediamonds.svg	14	no	53	0	581	0	0			0	0			1				0	
6.6.1	win	2023-06-17	14:10:07	14:20:31	595797	61119018babf810c0cab7d3b	4	1	practice_slash	9	advance_on_keypress_SLASH	26	stimuli_distractor_diamondtriangles.svg	stimuli_distractor_trianglediamonds.svg	14	no	57	0	1111	0	0			0	0			1				0	
6.6.1	win	2023-06-17	14:10:07	14:20:34	599267	61119018babf810c0cab7d3b	4	1	practice_slash	9	practice_slash	27	stimuli_distractor_diamondtriangles.svg	stimuli_target_trianglerectangles.svg	9	yes	53	1	700	0	0			0	0			1				0	
6.6.1	win	2023-06-17	14:10:07	14:20:34	599267	61119018babf810c0cab7d3b	4	1	practice_slash	9	advance_on_keypress_SLASH	28	stimuli_distractor_diamondtriangles.svg	stimuli_target_trianglerectangles.svg	9	yes	57	0	523	0	0			0	0			1				0	
6.6.1	win	2023-06-17	14:10:07	14:20:37	602237	61119018babf810c0cab7d3b	4	1	practice_slash	9	practice_slash	29	stimuli_distractor_trianglediamonds.svg	stimuli_target_squarediamonds.svg	11	yes	53	1	786	0	0			0	0			1				0	
6.6.1	win	2023-06-17	14:10:07	14:20:37	602237	61119018babf810c0cab7d3b	4	1	practice_slash	9	advance_on_keypress_SLASH	30	stimuli_distractor_trianglediamonds.svg	stimuli_target_squarediamonds.svg	11	yes	57	0	2809	0	0			0	0			1				0	
6.6.1	win	2023-06-17	14:10:07	14:20:42	607356	61119018babf810c0cab7d3b	4	1	practice_slash	9	practice_slash	31	stimuli_distractor_trianglediamonds.svg	stimuli_target_diamondrectangles.svg	12	yes	53	1	638	0	0			0	0			1				0	
6.6.1	win	2023-06-17	14:10:07	14:20:42	607356	61119018babf810c0cab7d3b	4	1	practice_slash	9	advance_on_keypress_SLASH	32	stimuli_distractor_trianglediamonds.svg	stimuli_target_diamondrectangles.svg	12	yes	57	0	521	0	0			0	0			1				0	
6.6.1	win	2023-06-17	14:10:07	14:21:20	645210	61119018babf810c0cab7d3b	4	1	main_slash	11	main_slash	1	stimuli_distractor_trianglediamonds.svg	stimuli_target_trianglerectangles.svg	25	yes	53	1	637	0	0			0	0			1				0	
6.6.1	win	2023-06-17	14:10:07	14:21:20	645210	61119018babf810c0cab7d3b	4	1	main_slash	11	advance_on_keypress_SLASH	2	stimuli_distractor_trianglediamonds.svg	stimuli_target_trianglerectangles.svg	25	yes	57	0	358	0	0			0	0			1				0	
6.6.1	win	2023-06-17	14:10:07	14:21:22	646820	61119018babf810c0cab7d3b	4	1	main_slash	11	main_slash	3	stimuli_distractor_trianglediamonds.svg	stimuli_target_diamondsquares.svg	28	yes	53	1	597	0	0			0	0			1				0	
6.6.1	win	2023-06-17	14:10:07	14:21:22	646820	61119018babf810c0cab7d3b	4	1	main_slash	11	advance_on_keypress_SLASH	4	stimuli_distractor_trianglediamonds.svg	stimuli_target_diamondsquares.svg	28	yes	57	0	310	0	0			0	0			1				0	
6.6.1	win	2023-06-17	14:10:07	14:21:24	648420	61119018babf810c0cab7d3b	4	1	main_slash	11	main_slash	5	stimuli_target_trianglerectangles.svg	stimuli_distractor_diamondtriangles.svg	21	yes	53	1	629	0	0			0	0			1				0	
6.6.1	win	2023-06-17	14:10:07	14:21:24	648420	61119018babf810c0cab7d3b	4	1	main_slash	11	advance_on_keypress_SLASH	6	stimuli_target_trianglerectangles.svg	stimuli_distractor_diamondtriangles.svg	21	yes	57	0	339	0	0			0	0			1				0	
6.6.1	win	2023-06-17	14:10:07	14:21:25	649936	61119018babf810c0cab7d3b	4	1	main_slash	11	main_slash	7	stimuli_distractor_trianglediamonds.svg	stimuli_distractor_trianglediamonds.svg	33	no	53	0	522	0	0			0	0			1				0	
6.6.1	win	2023-06-17	14:10:07	14:21:25	649936	61119018babf810c0cab7d3b	4	1	main_slash	11	advance_on_keypress_SLASH	8	stimuli_distractor_trianglediamonds.svg	stimuli_distractor_trianglediamonds.svg	33	no	57	0	972	0	0			0	0			1				0	
6.6.1	win	2023-06-17	14:10:07	14:21:29	653557	61119018babf810c0cab7d3b	4	1	main_slash	11	main_slash	9	stimuli_distractor_trianglediamonds.svg	stimuli_distractor_diamondtriangles.svg	35	no	0	1	2000	0	0			0	0			1				0	
6.6.1	win	2023-06-17	14:10:07	14:21:29	653557	61119018babf810c0cab7d3b	4	1	main_slash	11	advance_on_keypress_SLASH	10	stimuli_distractor_trianglediamonds.svg	stimuli_distractor_diamondtriangles.svg	35	no	57	0	256	0	0			0	0			1				0	
6.6.1	win	2023-06-17	14:10:07	14:21:30	654950	61119018babf810c0cab7d3b	4	1	main_slash	11	main_slash	11	stimuli_distractor_trianglediamonds.svg	stimuli_distractor_diamondtriangles.svg	36	no	53	0	492	0	0			0	0			1				0	
6.6.1	win	2023-06-17	14:10:07	14:21:30	654950	61119018babf810c0cab7d3b	4	1	main_slash	11	advance_on_keypress_SLASH	12	stimuli_distractor_trianglediamonds.svg	stimuli_distractor_diamondtriangles.svg	36	no	57	0	475	0	0			0	0			1				0	
6.6.1	win	2023-06-17	14:10:07	14:21:32	656981	61119018babf810c0cab7d3b	4	1	main_slash	11	main_slash	13	stimuli_distractor_diamondtriangles.svg	stimuli_target_diamondrectangles.svg	31	yes	53	1	888	0	0			0	0			1				0	
6.6.1	win	2023-06-17	14:10:07	14:21:32	656981	61119018babf810c0cab7d3b	4	1	main_slash	11	advance_on_keypress_SLASH	14	stimuli_distractor_diamondtriangles.svg	stimuli_target_diamondrectangles.svg	31	yes	57	0	298	0	0			0	0			1				0	
6.6.1	win	2023-06-17	14:10:07	14:21:34	658841	61119018babf810c0cab7d3b	4	1	main_slash	11	main_slash	15	stimuli_target_rectanglediamonds.svg	stimuli_distractor_trianglediamonds.svg	2	yes	53	1	915	0	0			0	0			1				0	
6.6.1	win	2023-06-17	14:10:07	14:21:34	658841	61119018babf810c0cab7d3b	4	1	main_slash	11	advance_on_keypress_SLASH	16	stimuli_target_rectanglediamonds.svg	stimuli_distractor_trianglediamonds.svg	2	yes	57	0	431	0	0			0	0			1				0	
6.6.1	win	2023-06-17	14:10:07	14:21:36	660551	61119018babf810c0cab7d3b	4	1	main_slash	11	main_slash	17	stimuli_distractor_trianglediamonds.svg	stimuli_target_squarediamonds.svg	12	yes	53	1	624	0	0			0	0			1				0	
6.6.1	win	2023-06-17	14:10:07	14:21:36	660551	61119018babf810c0cab7d3b	4	1	main_slash	11	advance_on_keypress_SLASH	18	stimuli_distractor_trianglediamonds.svg	stimuli_target_squarediamonds.svg	12	yes	57	0	370	0	0			0	0			1				0	
6.6.1	win	2023-06-17	14:10:07	14:21:37	662181	61119018babf810c0cab7d3b	4	1	main_slash	11	main_slash	19	stimuli_target_squaretriangles.svg	stimuli_distractor_trianglediamonds.svg	3	yes	53	1	620	0	0			0	0			1				0	
6.6.1	win	2023-06-17	14:10:07	14:21:37	662181	61119018babf810c0cab7d3b	4	1	main_slash	11	advance_on_keypress_SLASH	20	stimuli_target_squaretriangles.svg	stimuli_distractor_trianglediamonds.svg	3	yes	57	0	377	0	0			0	0			1				0	
6.6.1	win	2023-06-17	14:10:07	14:21:39	663830	61119018babf810c0cab7d3b	4	1	main_slash	11	main_slash	21	stimuli_target_diamondsquares.svg	stimuli_distractor_diamondtriangles.svg	24	yes	53	1	618	0	0			0	0			1				0	
6.6.1	win	2023-06-17	14:10:07	14:21:39	663830	61119018babf810c0cab7d3b	4	1	main_slash	11	advance_on_keypress_SLASH	22	stimuli_target_diamondsquares.svg	stimuli_distractor_diamondtriangles.svg	24	yes	57	0	355	0	0			0	0			1				0	
6.6.1	win	2023-06-17	14:10:07	14:21:41	665720	61119018babf810c0cab7d3b	4	1	main_slash	11	main_slash	23	stimuli_distractor_diamondtriangles.svg	stimuli_distractor_trianglediamonds.svg	38	no	53	0	891	0	0			0	0			1				0	
6.6.1	win	2023-06-17	14:10:07	14:21:41	665720	61119018babf810c0cab7d3b	4	1	main_slash	11	advance_on_keypress_SLASH	24	stimuli_distractor_diamondtriangles.svg	stimuli_distractor_trianglediamonds.svg	38	no	57	0	436	0	0			0	0			1				0	
6.6.1	win	2023-06-17	14:10:07	14:21:43	667690	61119018babf810c0cab7d3b	4	1	main_slash	11	main_slash	25	stimuli_distractor_diamondtriangles.svg	stimuli_target_trianglerectangles.svg	29	yes	53	1	878	0	0			0	0			1				0	
6.6.1	win	2023-06-17	14:10:07	14:21:43	667690	61119018babf810c0cab7d3b	4	1	main_slash	11	advance_on_keypress_SLASH	26	stimuli_distractor_diamondtriangles.svg	stimuli_target_trianglerectangles.svg	29	yes	57	0	318	0	0			0	0			1				0	
6.6.1	win	2023-06-17	14:10:07	14:21:44	669350	61119018babf810c0cab7d3b	4	1	main_slash	11	main_slash	27	stimuli_target_squaretriangles.svg	stimuli_distractor_diamondtriangles.svg	7	yes	53	1	688	0	0			0	0			1				0	
6.6.1	win	2023-06-17	14:10:07	14:21:44	669350	61119018babf810c0cab7d3b	4	1	main_slash	11	advance_on_keypress_SLASH	28	stimuli_target_squaretriangles.svg	stimuli_distractor_diamondtriangles.svg	7	yes	57	0	317	0	0			0	0			1				0	
6.6.1	win	2023-06-17	14:10:07	14:21:46	671200	61119018babf810c0cab7d3b	4	1	main_slash	11	main_slash	29	stimuli_distractor_diamondtriangles.svg	stimuli_target_diamondsquares.svg	32	yes	53	1	887	0	0			0	0			1				0	
6.6.1	win	2023-06-17	14:10:07	14:21:46	671200	61119018babf810c0cab7d3b	4	1	main_slash	11	advance_on_keypress_SLASH	30	stimuli_distractor_diamondtriangles.svg	stimuli_target_diamondsquares.svg	32	yes	57	0	347	0	0			0	0			1				0	
6.6.1	win	2023-06-17	14:10:07	14:21:48	672910	61119018babf810c0cab7d3b	4	1	main_slash	11	main_slash	31	stimuli_distractor_diamondtriangles.svg	stimuli_target_trianglesquares.svg	30	yes	53	1	713	0	0			0	0			1				0	
6.6.1	win	2023-06-17	14:10:07	14:21:48	672910	61119018babf810c0cab7d3b	4	1	main_slash	11	advance_on_keypress_SLASH	32	stimuli_distractor_diamondtriangles.svg	stimuli_target_trianglesquares.svg	30	yes	57	0	340	0	0			0	0			1				0	
6.6.1	win	2023-06-17	14:10:07	14:21:51	675897	61119018babf810c0cab7d3b	4	1	main_slash	11	main_slash	33	stimuli_distractor_trianglediamonds.svg	stimuli_distractor_trianglediamonds.svg	34	no	0	1	2000	0	0			0	0			1				0	
6.6.1	win	2023-06-17	14:10:07	14:21:51	675897	61119018babf810c0cab7d3b	4	1	main_slash	11	advance_on_keypress_SLASH	34	stimuli_distractor_trianglediamonds.svg	stimuli_distractor_trianglediamonds.svg	34	no	57	0	526	0	0			0	0			1				0	
6.6.1	win	2023-06-17	14:10:07	14:21:53	677669	61119018babf810c0cab7d3b	4	1	main_slash	11	main_slash	35	stimuli_distractor_diamondtriangles.svg	stimuli_target_squarediamonds.svg	16	yes	53	1	589	0	0			0	0			1				0	
6.6.1	win	2023-06-17	14:10:07	14:21:53	677669	61119018babf810c0cab7d3b	4	1	main_slash	11	advance_on_keypress_SLASH	36	stimuli_distractor_diamondtriangles.svg	stimuli_target_squarediamonds.svg	16	yes	57	0	289	0	0			0	0			1				0	
6.6.1	win	2023-06-17	14:10:07	14:21:54	679229	61119018babf810c0cab7d3b	4	1	main_slash	11	main_slash	37	stimuli_distractor_trianglediamonds.svg	stimuli_target_rectanglediamonds.svg	10	yes	53	1	632	0	0			0	0			1				0	
6.6.1	win	2023-06-17	14:10:07	14:21:54	679229	61119018babf810c0cab7d3b	4	1	main_slash	11	advance_on_keypress_SLASH	38	stimuli_distractor_trianglediamonds.svg	stimuli_target_rectanglediamonds.svg	10	yes	57	0	302	0	0			0	0			1				0	
6.6.1	win	2023-06-17	14:10:07	14:21:56	681060	61119018babf810c0cab7d3b	4	1	main_slash	11	main_slash	39	stimuli_target_trianglesquares.svg	stimuli_distractor_diamondtriangles.svg	22	yes	53	1	878	0	0			0	0			1				0	
6.6.1	win	2023-06-17	14:10:07	14:21:56	681060	61119018babf810c0cab7d3b	4	1	main_slash	11	advance_on_keypress_SLASH	40	stimuli_target_trianglesquares.svg	stimuli_distractor_diamondtriangles.svg	22	yes	57	0	298	0	0			0	0			1				0	
6.6.1	win	2023-06-17	14:10:07	14:21:58	682609	61119018babf810c0cab7d3b	4	1	main_slash	11	main_slash	41	stimuli_distractor_trianglediamonds.svg	stimuli_target_squaretriangles.svg	11	yes	53	1	593	0	0			0	0			1				0	
6.6.1	win	2023-06-17	14:10:07	14:21:58	682609	61119018babf810c0cab7d3b	4	1	main_slash	11	advance_on_keypress_SLASH	42	stimuli_distractor_trianglediamonds.svg	stimuli_target_squaretriangles.svg	11	yes	57	0	296	0	0			0	0			1				0	
6.6.1	win	2023-06-17	14:10:07	14:21:59	684200	61119018babf810c0cab7d3b	4	1	main_slash	11	main_slash	43	stimuli_target_diamondsquares.svg	stimuli_distractor_trianglediamonds.svg	20	yes	53	1	634	0	0			0	0			1				0	
6.6.1	win	2023-06-17	14:10:07	14:21:59	684200	61119018babf810c0cab7d3b	4	1	main_slash	11	advance_on_keypress_SLASH	44	stimuli_target_diamondsquares.svg	stimuli_distractor_trianglediamonds.svg	20	yes	57	0	304	0	0			0	0			1				0	
6.6.1	win	2023-06-17	14:10:07	14:22:01	685749	61119018babf810c0cab7d3b	4	1	main_slash	11	main_slash	45	stimuli_target_trianglerectangles.svg	stimuli_distractor_trianglediamonds.svg	17	yes	53	1	600	0	0			0	0			1				0	
6.6.1	win	2023-06-17	14:10:07	14:22:01	685749	61119018babf810c0cab7d3b	4	1	main_slash	11	advance_on_keypress_SLASH	46	stimuli_target_trianglerectangles.svg	stimuli_distractor_trianglediamonds.svg	17	yes	57	0	543	0	0			0	0			1				0	
6.6.1	win	2023-06-17	14:10:07	14:22:03	687730	61119018babf810c0cab7d3b	4	1	main_slash	11	main_slash	47	stimuli_distractor_diamondtriangles.svg	stimuli_target_rectangletriangles.svg	13	yes	53	1	780	0	0			0	0			1				0	
6.6.1	win	2023-06-17	14:10:07	14:22:03	687730	61119018babf810c0cab7d3b	4	1	main_slash	11	advance_on_keypress_SLASH	48	stimuli_distractor_diamondtriangles.svg	stimuli_target_rectangletriangles.svg	13	yes	57	0	260	0	0			0	0			1				0	
6.6.1	win	2023-06-17	14:10:07	14:22:04	689240	61119018babf810c0cab7d3b	4	1	main_slash	11	main_slash	49	stimuli_target_squarediamonds.svg	stimuli_distractor_diamondtriangles.svg	8	yes	53	1	589	0	0			0	0			1				0	
6.6.1	win	2023-06-17	14:10:07	14:22:04	689240	61119018babf810c0cab7d3b	4	1	main_slash	11	advance_on_keypress_SLASH	50	stimuli_target_squarediamonds.svg	stimuli_distractor_diamondtriangles.svg	8	yes	57	0	339	0	0			0	0			1				0	
6.6.1	win	2023-06-17	14:10:07	14:22:07	692217	61119018babf810c0cab7d3b	4	1	main_slash	11	main_slash	51	stimuli_distractor_diamondtriangles.svg	stimuli_distractor_diamondtriangles.svg	40	no	0	1	2000	0	0			0	0			1				0	
6.6.1	win	2023-06-17	14:10:07	14:22:07	692217	61119018babf810c0cab7d3b	4	1	main_slash	11	advance_on_keypress_SLASH	52	stimuli_distractor_diamondtriangles.svg	stimuli_distractor_diamondtriangles.svg	40	no	57	0	265	0	0			0	0			1				0	
6.6.1	win	2023-06-17	14:10:07	14:22:09	693739	61119018babf810c0cab7d3b	4	1	main_slash	11	main_slash	53	stimuli_target_trianglesquares.svg	stimuli_distractor_trianglediamonds.svg	18	yes	53	1	605	0	0			0	0			1				0	
6.6.1	win	2023-06-17	14:10:07	14:22:09	693739	61119018babf810c0cab7d3b	4	1	main_slash	11	advance_on_keypress_SLASH	54	stimuli_target_trianglesquares.svg	stimuli_distractor_trianglediamonds.svg	18	yes	57	0	337	0	0			0	0			1				0	
6.6.1	win	2023-06-17	14:10:07	14:22:10	695359	61119018babf810c0cab7d3b	4	1	main_slash	11	main_slash	55	stimuli_distractor_trianglediamonds.svg	stimuli_target_rectangletriangles.svg	9	yes	53	1	641	0	0			0	0			1				0	
6.6.1	win	2023-06-17	14:10:07	14:22:10	695359	61119018babf810c0cab7d3b	4	1	main_slash	11	advance_on_keypress_SLASH	56	stimuli_distractor_trianglediamonds.svg	stimuli_target_rectangletriangles.svg	9	yes	57	0	331	0	0			0	0			1				0	
6.6.1	win	2023-06-17	14:10:07	14:22:12	696919	61119018babf810c0cab7d3b	4	1	main_slash	11	main_slash	57	stimuli_distractor_trianglediamonds.svg	stimuli_target_trianglesquares.svg	26	yes	53	1	584	0	0			0	0			1				0	
6.6.1	win	2023-06-17	14:10:07	14:22:12	696919	61119018babf810c0cab7d3b	4	1	main_slash	11	advance_on_keypress_SLASH	58	stimuli_distractor_trianglediamonds.svg	stimuli_target_trianglesquares.svg	26	yes	57	0	274	0	0			0	0			1				0	
6.6.1	win	2023-06-17	14:10:07	14:22:13	698391	61119018babf810c0cab7d3b	4	1	main_slash	11	main_slash	59	stimuli_target_rectangletriangles.svg	stimuli_distractor_trianglediamonds.svg	1	yes	53	1	537	0	0			0	0			1				0	
6.6.1	win	2023-06-17	14:10:07	14:22:13	698391	61119018babf810c0cab7d3b	4	1	main_slash	11	advance_on_keypress_SLASH	60	stimuli_target_rectangletriangles.svg	stimuli_distractor_trianglediamonds.svg	1	yes	57	0	286	0	0			0	0			1				0	
6.6.1	win	2023-06-17	14:10:07	14:22:15	699970	61119018babf810c0cab7d3b	4	1	main_slash	11	main_slash	61	stimuli_distractor_trianglediamonds.svg	stimuli_target_diamondrectangles.svg	27	yes	53	1	650	0	0			0	0			1				0	
6.6.1	win	2023-06-17	14:10:07	14:22:15	699970	61119018babf810c0cab7d3b	4	1	main_slash	11	advance_on_keypress_SLASH	62	stimuli_distractor_trianglediamonds.svg	stimuli_target_diamondrectangles.svg	27	yes	57	0	293	0	0			0	0			1				0	
6.6.1	win	2023-06-17	14:10:07	14:22:17	701449	61119018babf810c0cab7d3b	4	1	main_slash	11	main_slash	63	stimuli_distractor_diamondtriangles.svg	stimuli_target_rectanglediamonds.svg	14	yes	53	1	520	0	0			0	0			1				0	
6.6.1	win	2023-06-17	14:10:07	14:22:17	701449	61119018babf810c0cab7d3b	4	1	main_slash	11	advance_on_keypress_SLASH	64	stimuli_distractor_diamondtriangles.svg	stimuli_target_rectanglediamonds.svg	14	yes	57	0	359	0	0			0	0			1				0	
6.6.1	win	2023-06-17	14:10:07	14:22:20	704471	61119018babf810c0cab7d3b	4	1	main_slash	11	main_slash	65	stimuli_distractor_diamondtriangles.svg	stimuli_distractor_diamondtriangles.svg	39	no	0	1	2000	0	0			0	0			1				0	
6.6.1	win	2023-06-17	14:10:07	14:22:20	704471	61119018babf810c0cab7d3b	4	1	main_slash	11	advance_on_keypress_SLASH	66	stimuli_distractor_diamondtriangles.svg	stimuli_distractor_diamondtriangles.svg	39	no	57	0	282	0	0			0	0			1				0	
6.6.1	win	2023-06-17	14:10:07	14:22:21	706109	61119018babf810c0cab7d3b	4	1	main_slash	11	main_slash	67	stimuli_target_diamondrectangles.svg	stimuli_distractor_trianglediamonds.svg	19	yes	53	1	704	0	0			0	0			1				0	
6.6.1	win	2023-06-17	14:10:07	14:22:21	706109	61119018babf810c0cab7d3b	4	1	main_slash	11	advance_on_keypress_SLASH	68	stimuli_target_diamondrectangles.svg	stimuli_distractor_trianglediamonds.svg	19	yes	57	0	337	0	0			0	0			1				0	
6.6.1	win	2023-06-17	14:10:07	14:22:23	707698	61119018babf810c0cab7d3b	4	1	main_slash	11	main_slash	69	stimuli_target_rectanglediamonds.svg	stimuli_distractor_diamondtriangles.svg	6	yes	53	1	609	0	0			0	0			1				0	
6.6.1	win	2023-06-17	14:10:07	14:22:23	707698	61119018babf810c0cab7d3b	4	1	main_slash	11	advance_on_keypress_SLASH	70	stimuli_target_rectanglediamonds.svg	stimuli_distractor_diamondtriangles.svg	6	yes	57	0	307	0	0			0	0			1				0	
6.6.1	win	2023-06-17	14:10:07	14:22:24	709308	61119018babf810c0cab7d3b	4	1	main_slash	11	main_slash	71	stimuli_target_diamondrectangles.svg	stimuli_distractor_diamondtriangles.svg	23	yes	53	1	652	0	0			0	0			1				0	
6.6.1	win	2023-06-17	14:10:07	14:22:24	709308	61119018babf810c0cab7d3b	4	1	main_slash	11	advance_on_keypress_SLASH	72	stimuli_target_diamondrectangles.svg	stimuli_distractor_diamondtriangles.svg	23	yes	57	0	326	0	0			0	0			1				0	
6.6.1	win	2023-06-17	14:10:07	14:22:26	711058	61119018babf810c0cab7d3b	4	1	main_slash	11	main_slash	73	stimuli_distractor_diamondtriangles.svg	stimuli_distractor_trianglediamonds.svg	37	no	53	0	769	0	0			0	0			1				0	
6.6.1	win	2023-06-17	14:10:07	14:22:26	711058	61119018babf810c0cab7d3b	4	1	main_slash	11	advance_on_keypress_SLASH	74	stimuli_distractor_diamondtriangles.svg	stimuli_distractor_trianglediamonds.svg	37	no	57	0	295	0	0			0	0			1				0	
6.6.1	win	2023-06-17	14:10:07	14:22:28	712788	61119018babf810c0cab7d3b	4	1	main_slash	11	main_slash	75	stimuli_target_squarediamonds.svg	stimuli_distractor_trianglediamonds.svg	4	yes	53	1	782	0	0			0	0			1				0	
6.6.1	win	2023-06-17	14:10:07	14:22:28	712788	61119018babf810c0cab7d3b	4	1	main_slash	11	advance_on_keypress_SLASH	76	stimuli_target_squarediamonds.svg	stimuli_distractor_trianglediamonds.svg	4	yes	57	0	392	0	0			0	0			1				0	
6.6.1	win	2023-06-17	14:10:07	14:22:29	714378	61119018babf810c0cab7d3b	4	1	main_slash	11	main_slash	77	stimuli_distractor_diamondtriangles.svg	stimuli_target_squaretriangles.svg	15	yes	53	1	538	0	0			0	0			1				0	
6.6.1	win	2023-06-17	14:10:07	14:22:29	714378	61119018babf810c0cab7d3b	4	1	main_slash	11	advance_on_keypress_SLASH	78	stimuli_distractor_diamondtriangles.svg	stimuli_target_squaretriangles.svg	15	yes	57	0	279	0	0			0	0			1				0	
6.6.1	win	2023-06-17	14:10:07	14:22:31	715836	61119018babf810c0cab7d3b	4	1	main_slash	11	main_slash	79	stimuli_target_rectangletriangles.svg	stimuli_distractor_diamondtriangles.svg	5	yes	53	1	508	0	0			0	0			1				0	
6.6.1	win	2023-06-17	14:10:07	14:22:31	715836	61119018babf810c0cab7d3b	4	1	main_slash	11	advance_on_keypress_SLASH	80	stimuli_target_rectangletriangles.svg	stimuli_distractor_diamondtriangles.svg	5	yes	57	0	260	0	0			0	0			1				0	
6.6.1	win	2023-06-17	14:10:07	14:22:32	717328	61119018babf810c0cab7d3b	4	1	main_slash	11	main_slash	81	stimuli_target_rectangletriangles.svg	stimuli_distractor_diamondtriangles.svg	5	yes	53	1	572	0	0			0	0			1				0	
6.6.1	win	2023-06-17	14:10:07	14:22:32	717328	61119018babf810c0cab7d3b	4	1	main_slash	11	advance_on_keypress_SLASH	82	stimuli_target_rectangletriangles.svg	stimuli_distractor_diamondtriangles.svg	5	yes	57	0	328	0	0			0	0			1				0	
6.6.1	win	2023-06-17	14:10:07	14:22:35	720308	61119018babf810c0cab7d3b	4	1	main_slash	11	main_slash	83	stimuli_distractor_diamondtriangles.svg	stimuli_distractor_trianglediamonds.svg	37	no	0	1	2000	0	0			0	0			1				0	
6.6.1	win	2023-06-17	14:10:07	14:22:35	720308	61119018babf810c0cab7d3b	4	1	main_slash	11	advance_on_keypress_SLASH	84	stimuli_distractor_diamondtriangles.svg	stimuli_distractor_trianglediamonds.svg	37	no	57	0	554	0	0			0	0			1				0	
6.6.1	win	2023-06-17	14:10:07	14:22:39	723509	61119018babf810c0cab7d3b	4	1	main_slash	11	main_slash	85	stimuli_distractor_trianglediamonds.svg	stimuli_distractor_diamondtriangles.svg	35	no	0	1	2000	0	0			0	0			1				0	
6.6.1	win	2023-06-17	14:10:07	14:22:39	723509	61119018babf810c0cab7d3b	4	1	main_slash	11	advance_on_keypress_SLASH	86	stimuli_distractor_trianglediamonds.svg	stimuli_distractor_diamondtriangles.svg	35	no	57	0	453	0	0			0	0			1				0	
6.6.1	win	2023-06-17	14:10:07	14:22:40	725300	61119018babf810c0cab7d3b	4	1	main_slash	11	main_slash	87	stimuli_target_trianglesquares.svg	stimuli_distractor_trianglediamonds.svg	18	yes	53	1	689	0	0			0	0			1				0	
6.6.1	win	2023-06-17	14:10:07	14:22:40	725300	61119018babf810c0cab7d3b	4	1	main_slash	11	advance_on_keypress_SLASH	88	stimuli_target_trianglesquares.svg	stimuli_distractor_trianglediamonds.svg	18	yes	57	0	282	0	0			0	0			1				0	
6.6.1	win	2023-06-17	14:10:07	14:22:42	726860	61119018babf810c0cab7d3b	4	1	main_slash	11	main_slash	89	stimuli_target_diamondrectangles.svg	stimuli_distractor_diamondtriangles.svg	23	yes	53	1	616	0	0			0	0			1				0	
6.6.1	win	2023-06-17	14:10:07	14:22:42	726860	61119018babf810c0cab7d3b	4	1	main_slash	11	advance_on_keypress_SLASH	90	stimuli_target_diamondrectangles.svg	stimuli_distractor_diamondtriangles.svg	23	yes	57	0	371	0	0			0	0			1				0	
6.6.1	win	2023-06-17	14:10:07	14:22:44	728429	61119018babf810c0cab7d3b	4	1	main_slash	11	main_slash	91	stimuli_distractor_trianglediamonds.svg	stimuli_target_rectanglediamonds.svg	10	yes	53	1	552	0	0			0	0			1				0	
6.6.1	win	2023-06-17	14:10:07	14:22:44	728429	61119018babf810c0cab7d3b	4	1	main_slash	11	advance_on_keypress_SLASH	92	stimuli_distractor_trianglediamonds.svg	stimuli_target_rectanglediamonds.svg	10	yes	57	0	354	0	0			0	0			1				0	
6.6.1	win	2023-06-17	14:10:07	14:22:45	729868	61119018babf810c0cab7d3b	4	1	main_slash	11	main_slash	93	stimuli_distractor_trianglediamonds.svg	stimuli_target_squarediamonds.svg	12	yes	53	1	441	0	0			0	0			1				0	
6.6.1	win	2023-06-17	14:10:07	14:22:45	729868	61119018babf810c0cab7d3b	4	1	main_slash	11	advance_on_keypress_SLASH	94	stimuli_distractor_trianglediamonds.svg	stimuli_target_squarediamonds.svg	12	yes	57	0	470	0	0			0	0			1				0	
6.6.1	win	2023-06-17	14:10:07	14:22:47	731698	61119018babf810c0cab7d3b	4	1	main_slash	11	main_slash	95	stimuli_distractor_diamondtriangles.svg	stimuli_target_trianglesquares.svg	30	yes	53	1	720	0	0			0	0			1				0	
6.6.1	win	2023-06-17	14:10:07	14:22:47	731698	61119018babf810c0cab7d3b	4	1	main_slash	11	advance_on_keypress_SLASH	96	stimuli_distractor_diamondtriangles.svg	stimuli_target_trianglesquares.svg	30	yes	57	0	277	0	0			0	0			1				0	
6.6.1	win	2023-06-17	14:10:07	14:22:48	733289	61119018babf810c0cab7d3b	4	1	main_slash	11	main_slash	97	stimuli_target_squarediamonds.svg	stimuli_distractor_trianglediamonds.svg	4	yes	53	1	661	0	0			0	0			1				0	
6.6.1	win	2023-06-17	14:10:07	14:22:48	733289	61119018babf810c0cab7d3b	4	1	main_slash	11	advance_on_keypress_SLASH	98	stimuli_target_squarediamonds.svg	stimuli_distractor_trianglediamonds.svg	4	yes	57	0	277	0	0			0	0			1				0	
6.6.1	win	2023-06-17	14:10:07	14:22:51	736228	61119018babf810c0cab7d3b	4	1	main_slash	11	main_slash	99	stimuli_distractor_diamondtriangles.svg	stimuli_distractor_diamondtriangles.svg	39	no	0	1	2000	0	0			0	0			1				0	
6.6.1	win	2023-06-17	14:10:07	14:22:51	736228	61119018babf810c0cab7d3b	4	1	main_slash	11	advance_on_keypress_SLASH	100	stimuli_distractor_diamondtriangles.svg	stimuli_distractor_diamondtriangles.svg	39	no	57	0	8542	0	0			0	0			1				0	
6.6.1	win	2023-06-17	14:10:07	14:23:01	745978	61119018babf810c0cab7d3b	4	1	main_slash	11	main_slash	101	stimuli_target_squarediamonds.svg	stimuli_distractor_diamondtriangles.svg	8	yes	53	1	547	0	0			0	0			1				0	
6.6.1	win	2023-06-17	14:10:07	14:23:01	745978	61119018babf810c0cab7d3b	4	1	main_slash	11	advance_on_keypress_SLASH	102	stimuli_target_squarediamonds.svg	stimuli_distractor_diamondtriangles.svg	8	yes	57	0	290	0	0			0	0			1				0	
6.6.1	win	2023-06-17	14:10:07	14:23:04	748915	61119018babf810c0cab7d3b	4	1	main_slash	11	main_slash	103	stimuli_distractor_trianglediamonds.svg	stimuli_distractor_trianglediamonds.svg	33	no	0	1	2000	0	0			0	0			1				0	
6.6.1	win	2023-06-17	14:10:07	14:23:04	748915	61119018babf810c0cab7d3b	4	1	main_slash	11	advance_on_keypress_SLASH	104	stimuli_distractor_trianglediamonds.svg	stimuli_distractor_trianglediamonds.svg	33	no	57	0	1096	0	0			0	0			1				0	
6.6.1	win	2023-06-17	14:10:07	14:23:06	751318	61119018babf810c0cab7d3b	4	1	main_slash	11	main_slash	105	stimuli_target_trianglerectangles.svg	stimuli_distractor_diamondtriangles.svg	21	yes	53	1	652	0	0			0	0			1				0	
6.6.1	win	2023-06-17	14:10:07	14:23:06	751318	61119018babf810c0cab7d3b	4	1	main_slash	11	advance_on_keypress_SLASH	106	stimuli_target_trianglerectangles.svg	stimuli_distractor_diamondtriangles.svg	21	yes	57	0	294	0	0			0	0			1				0	
6.6.1	win	2023-06-17	14:10:07	14:23:08	753017	61119018babf810c0cab7d3b	4	1	main_slash	11	main_slash	107	stimuli_distractor_diamondtriangles.svg	stimuli_target_rectanglediamonds.svg	14	yes	53	1	752	0	0			0	0			1				0	
6.6.1	win	2023-06-17	14:10:07	14:23:08	753017	61119018babf810c0cab7d3b	4	1	main_slash	11	advance_on_keypress_SLASH	108	stimuli_distractor_diamondtriangles.svg	stimuli_target_rectanglediamonds.svg	14	yes	57	0	324	0	0			0	0			1				0	
6.6.1	win	2023-06-17	14:10:07	14:23:10	754737	61119018babf810c0cab7d3b	4	1	main_slash	11	main_slash	109	stimuli_target_diamondsquares.svg	stimuli_distractor_trianglediamonds.svg	20	yes	53	1	737	0	0			0	0			1				0	
6.6.1	win	2023-06-17	14:10:07	14:23:10	754737	61119018babf810c0cab7d3b	4	1	main_slash	11	advance_on_keypress_SLASH	110	stimuli_target_diamondsquares.svg	stimuli_distractor_trianglediamonds.svg	20	yes	57	0	327	0	0			0	0			1				0	
6.6.1	win	2023-06-17	14:10:07	14:23:13	757717	61119018babf810c0cab7d3b	4	1	main_slash	11	main_slash	111	stimuli_distractor_trianglediamonds.svg	stimuli_target_trianglerectangles.svg	25	yes	0	0	2000	0	0			0	0			1				0	
6.6.1	win	2023-06-17	14:10:07	14:23:13	757717	61119018babf810c0cab7d3b	4	1	main_slash	11	advance_on_keypress_SLASH	112	stimuli_distractor_trianglediamonds.svg	stimuli_target_trianglerectangles.svg	25	yes	57	0	473	0	0			0	0			1				0	
6.6.1	win	2023-06-17	14:10:07	14:23:15	759498	61119018babf810c0cab7d3b	4	1	main_slash	11	main_slash	113	stimuli_distractor_trianglediamonds.svg	stimuli_target_squaretriangles.svg	11	yes	53	1	663	0	0			0	0			1				0	
6.6.1	win	2023-06-17	14:10:07	14:23:15	759498	61119018babf810c0cab7d3b	4	1	main_slash	11	advance_on_keypress_SLASH	114	stimuli_distractor_trianglediamonds.svg	stimuli_target_squaretriangles.svg	11	yes	57	0	310	0	0			0	0			1				0	
6.6.1	win	2023-06-17	14:10:07	14:23:16	760997	61119018babf810c0cab7d3b	4	1	main_slash	11	main_slash	115	stimuli_distractor_trianglediamonds.svg	stimuli_target_trianglesquares.svg	26	yes	53	1	510	0	0			0	0			1				0	
6.6.1	win	2023-06-17	14:10:07	14:23:16	760997	61119018babf810c0cab7d3b	4	1	main_slash	11	advance_on_keypress_SLASH	116	stimuli_distractor_trianglediamonds.svg	stimuli_target_trianglesquares.svg	26	yes	57	0	258	0	0			0	0			1				0	
6.6.1	win	2023-06-17	14:10:07	14:23:18	762487	61119018babf810c0cab7d3b	4	1	main_slash	11	main_slash	117	stimuli_distractor_diamondtriangles.svg	stimuli_target_trianglerectangles.svg	29	yes	53	1	585	0	0			0	0			1				0	
6.6.1	win	2023-06-17	14:10:07	14:23:18	762487	61119018babf810c0cab7d3b	4	1	main_slash	11	advance_on_keypress_SLASH	118	stimuli_distractor_diamondtriangles.svg	stimuli_target_trianglerectangles.svg	29	yes	57	0	305	0	0			0	0			1				0	
6.6.1	win	2023-06-17	14:10:07	14:23:21	765436	61119018babf810c0cab7d3b	4	1	main_slash	11	main_slash	119	stimuli_distractor_trianglediamonds.svg	stimuli_distractor_trianglediamonds.svg	34	no	0	1	2000	0	0			0	0			1				0	
6.6.1	win	2023-06-17	14:10:07	14:23:21	765436	61119018babf810c0cab7d3b	4	1	main_slash	11	advance_on_keypress_SLASH	120	stimuli_distractor_trianglediamonds.svg	stimuli_distractor_trianglediamonds.svg	34	no	57	0	20054	0	0			0	0			1				0	
6.6.1	win	2023-06-17	14:10:07	14:23:42	787007	61119018babf810c0cab7d3b	4	1	main_slash	11	main_slash	121	stimuli_distractor_diamondtriangles.svg	stimuli_target_diamondsquares.svg	32	yes	53	1	866	0	0			0	0			1				0	
6.6.1	win	2023-06-17	14:10:07	14:23:42	787007	61119018babf810c0cab7d3b	4	1	main_slash	11	advance_on_keypress_SLASH	122	stimuli_distractor_diamondtriangles.svg	stimuli_target_diamondsquares.svg	32	yes	57	0	441	0	0			0	0			1				0	
6.6.1	win	2023-06-17	14:10:07	14:23:45	790109	61119018babf810c0cab7d3b	4	1	main_slash	11	main_slash	123	stimuli_distractor_trianglediamonds.svg	stimuli_distractor_diamondtriangles.svg	36	no	0	1	2000	0	0			0	0			1				0	
6.6.1	win	2023-06-17	14:10:07	14:23:45	790109	61119018babf810c0cab7d3b	4	1	main_slash	11	advance_on_keypress_SLASH	124	stimuli_distractor_trianglediamonds.svg	stimuli_distractor_diamondtriangles.svg	36	no	57	0	261	0	0			0	0			1				0	
6.6.1	win	2023-06-17	14:10:07	14:23:47	791646	61119018babf810c0cab7d3b	4	1	main_slash	11	main_slash	125	stimuli_target_rectanglediamonds.svg	stimuli_distractor_trianglediamonds.svg	2	yes	53	1	620	0	0			0	0			1				0	
6.6.1	win	2023-06-17	14:10:07	14:23:47	791646	61119018babf810c0cab7d3b	4	1	main_slash	11	advance_on_keypress_SLASH	126	stimuli_target_rectanglediamonds.svg	stimuli_distractor_trianglediamonds.svg	2	yes	57	0	206	0	0			0	0			1				0	
6.6.1	win	2023-06-17	14:10:07	14:23:48	793136	61119018babf810c0cab7d3b	4	1	main_slash	11	main_slash	127	stimuli_target_squaretriangles.svg	stimuli_distractor_trianglediamonds.svg	3	yes	53	1	643	0	0			0	0			1				0	
6.6.1	win	2023-06-17	14:10:07	14:23:48	793136	61119018babf810c0cab7d3b	4	1	main_slash	11	advance_on_keypress_SLASH	128	stimuli_target_squaretriangles.svg	stimuli_distractor_trianglediamonds.svg	3	yes	57	0	236	0	0			0	0			1				0	
6.6.1	win	2023-06-17	14:10:07	14:23:51	796026	61119018babf810c0cab7d3b	4	1	main_slash	11	main_slash	129	stimuli_distractor_diamondtriangles.svg	stimuli_distractor_diamondtriangles.svg	40	no	0	1	2000	0	0			0	0			1				0	
6.6.1	win	2023-06-17	14:10:07	14:23:51	796026	61119018babf810c0cab7d3b	4	1	main_slash	11	advance_on_keypress_SLASH	130	stimuli_distractor_diamondtriangles.svg	stimuli_distractor_diamondtriangles.svg	40	no	57	0	532	0	0			0	0			1				0	
6.6.1	win	2023-06-17	14:10:07	14:23:53	797687	61119018babf810c0cab7d3b	4	1	main_slash	11	main_slash	131	stimuli_target_rectanglediamonds.svg	stimuli_distractor_diamondtriangles.svg	6	yes	53	1	475	0	0			0	0			1				0	
6.6.1	win	2023-06-17	14:10:07	14:23:53	797687	61119018babf810c0cab7d3b	4	1	main_slash	11	advance_on_keypress_SLASH	132	stimuli_target_rectanglediamonds.svg	stimuli_distractor_diamondtriangles.svg	6	yes	57	0	276	0	0			0	0			1				0	
6.6.1	win	2023-06-17	14:10:07	14:23:54	799168	61119018babf810c0cab7d3b	4	1	main_slash	11	main_slash	133	stimuli_target_trianglerectangles.svg	stimuli_distractor_trianglediamonds.svg	17	yes	53	1	539	0	0			0	0			1				0	
6.6.1	win	2023-06-17	14:10:07	14:23:54	799168	61119018babf810c0cab7d3b	4	1	main_slash	11	advance_on_keypress_SLASH	134	stimuli_target_trianglerectangles.svg	stimuli_distractor_trianglediamonds.svg	17	yes	57	0	292	0	0			0	0			1				0	
6.6.1	win	2023-06-17	14:10:07	14:23:56	800627	61119018babf810c0cab7d3b	4	1	main_slash	11	main_slash	135	stimuli_distractor_diamondtriangles.svg	stimuli_target_rectangletriangles.svg	13	yes	53	1	498	0	0			0	0			1				0	
6.6.1	win	2023-06-17	14:10:07	14:23:56	800627	61119018babf810c0cab7d3b	4	1	main_slash	11	advance_on_keypress_SLASH	136	stimuli_distractor_diamondtriangles.svg	stimuli_target_rectangletriangles.svg	13	yes	57	0	292	0	0			0	0			1				0	
6.6.1	win	2023-06-17	14:10:07	14:23:57	802027	61119018babf810c0cab7d3b	4	1	main_slash	11	main_slash	137	stimuli_target_rectangletriangles.svg	stimuli_distractor_trianglediamonds.svg	1	yes	53	1	448	0	0			0	0			1				0	
6.6.1	win	2023-06-17	14:10:07	14:23:57	802027	61119018babf810c0cab7d3b	4	1	main_slash	11	advance_on_keypress_SLASH	138	stimuli_target_rectangletriangles.svg	stimuli_distractor_trianglediamonds.svg	1	yes	57	0	260	0	0			0	0			1				0	
6.6.1	win	2023-06-17	14:10:07	14:23:59	803474	61119018babf810c0cab7d3b	4	1	main_slash	11	main_slash	139	stimuli_distractor_diamondtriangles.svg	stimuli_target_diamondrectangles.svg	31	yes	53	1	520	0	0			0	0			1				0	
6.6.1	win	2023-06-17	14:10:07	14:23:59	803474	61119018babf810c0cab7d3b	4	1	main_slash	11	advance_on_keypress_SLASH	140	stimuli_distractor_diamondtriangles.svg	stimuli_target_diamondrectangles.svg	31	yes	57	0	290	0	0			0	0			1				0	
6.6.1	win	2023-06-17	14:10:07	14:24:00	804816	61119018babf810c0cab7d3b	4	1	main_slash	11	main_slash	141	stimuli_distractor_trianglediamonds.svg	stimuli_target_rectangletriangles.svg	9	yes	53	1	405	0	0			0	0			1				0	
6.6.1	win	2023-06-17	14:10:07	14:24:00	804816	61119018babf810c0cab7d3b	4	1	main_slash	11	advance_on_keypress_SLASH	142	stimuli_distractor_trianglediamonds.svg	stimuli_target_rectangletriangles.svg	9	yes	57	0	307	0	0			0	0			1				0	
6.6.1	win	2023-06-17	14:10:07	14:24:01	806317	61119018babf810c0cab7d3b	4	1	main_slash	11	main_slash	143	stimuli_target_diamondrectangles.svg	stimuli_distractor_trianglediamonds.svg	19	yes	53	1	537	0	0			0	0			1				0	
6.6.1	win	2023-06-17	14:10:07	14:24:01	806317	61119018babf810c0cab7d3b	4	1	main_slash	11	advance_on_keypress_SLASH	144	stimuli_target_diamondrectangles.svg	stimuli_distractor_trianglediamonds.svg	19	yes	57	0	336	0	0			0	0			1				0	
6.6.1	win	2023-06-17	14:10:07	14:24:04	809296	61119018babf810c0cab7d3b	4	1	main_slash	11	main_slash	145	stimuli_target_trianglesquares.svg	stimuli_distractor_diamondtriangles.svg	22	yes	0	0	2000	0	0			0	0			1				0	
6.6.1	win	2023-06-17	14:10:07	14:24:04	809296	61119018babf810c0cab7d3b	4	1	main_slash	11	advance_on_keypress_SLASH	146	stimuli_target_trianglesquares.svg	stimuli_distractor_diamondtriangles.svg	22	yes	57	0	72182	0	0			0	0			1				0	
6.6.1	win	2023-06-17	14:10:07	14:25:18	882719	61119018babf810c0cab7d3b	4	1	main_slash	11	main_slash	147	stimuli_distractor_trianglediamonds.svg	stimuli_target_diamondsquares.svg	28	yes	53	1	587	0	0			0	0			1				0	
6.6.1	win	2023-06-17	14:10:07	14:25:18	882719	61119018babf810c0cab7d3b	4	1	main_slash	11	advance_on_keypress_SLASH	148	stimuli_distractor_trianglediamonds.svg	stimuli_target_diamondsquares.svg	28	yes	57	0	377	0	0			0	0			1				0	
6.6.1	win	2023-06-17	14:10:07	14:25:19	884309	61119018babf810c0cab7d3b	4	1	main_slash	11	main_slash	149	stimuli_distractor_diamondtriangles.svg	stimuli_target_squarediamonds.svg	16	yes	53	1	560	0	0			0	0			1				0	
6.6.1	win	2023-06-17	14:10:07	14:25:19	884309	61119018babf810c0cab7d3b	4	1	main_slash	11	advance_on_keypress_SLASH	150	stimuli_distractor_diamondtriangles.svg	stimuli_target_squarediamonds.svg	16	yes	57	0	247	0	0			0	0			1				0	
6.6.1	win	2023-06-17	14:10:07	14:25:21	885699	61119018babf810c0cab7d3b	4	1	main_slash	11	main_slash	151	stimuli_distractor_trianglediamonds.svg	stimuli_target_diamondrectangles.svg	27	yes	53	1	483	0	0			0	0			1				0	
6.6.1	win	2023-06-17	14:10:07	14:25:21	885699	61119018babf810c0cab7d3b	4	1	main_slash	11	advance_on_keypress_SLASH	152	stimuli_distractor_trianglediamonds.svg	stimuli_target_diamondrectangles.svg	27	yes	57	0	213	0	0			0	0			1				0	
6.6.1	win	2023-06-17	14:10:07	14:25:22	887169	61119018babf810c0cab7d3b	4	1	main_slash	11	main_slash	153	stimuli_distractor_diamondtriangles.svg	stimuli_target_squaretriangles.svg	15	yes	53	1	603	0	0			0	0			1				0	
6.6.1	win	2023-06-17	14:10:07	14:25:22	887169	61119018babf810c0cab7d3b	4	1	main_slash	11	advance_on_keypress_SLASH	154	stimuli_distractor_diamondtriangles.svg	stimuli_target_squaretriangles.svg	15	yes	57	0	256	0	0			0	0			1				0	
6.6.1	win	2023-06-17	14:10:07	14:25:25	890066	61119018babf810c0cab7d3b	4	1	main_slash	11	main_slash	155	stimuli_distractor_diamondtriangles.svg	stimuli_distractor_trianglediamonds.svg	38	no	0	1	2000	0	0			0	0			1				0	
6.6.1	win	2023-06-17	14:10:07	14:25:25	890066	61119018babf810c0cab7d3b	4	1	main_slash	11	advance_on_keypress_SLASH	156	stimuli_distractor_diamondtriangles.svg	stimuli_distractor_trianglediamonds.svg	38	no	57	0	934	0	0			0	0			1				0	
6.6.1	win	2023-06-17	14:10:07	14:25:27	892118	61119018babf810c0cab7d3b	4	1	main_slash	11	main_slash	157	stimuli_target_squaretriangles.svg	stimuli_distractor_diamondtriangles.svg	7	yes	53	1	451	0	0			0	0			1				0	
6.6.1	win	2023-06-17	14:10:07	14:25:27	892118	61119018babf810c0cab7d3b	4	1	main_slash	11	advance_on_keypress_SLASH	158	stimuli_target_squaretriangles.svg	stimuli_distractor_diamondtriangles.svg	7	yes	57	0	244	0	0			0	0			1				0	
6.6.1	win	2023-06-17	14:10:07	14:25:29	893547	61119018babf810c0cab7d3b	4	1	main_slash	11	main_slash	159	stimuli_target_diamondsquares.svg	stimuli_distractor_diamondtriangles.svg	24	yes	53	1	507	0	0			0	0			1				0	
6.6.1	win	2023-06-17	14:10:07	14:25:29	893547	61119018babf810c0cab7d3b	4	1	main_slash	11	advance_on_keypress_SLASH	160	stimuli_target_diamondsquares.svg	stimuli_distractor_diamondtriangles.svg	24	yes	57	0	190	0	0			0	0			1				0	
6.6.1	win	2023-06-17	14:10:07	14:25:29	893547	61119018babf810c0cab7d3b	4	1	headphonecheck_calibration	14	headphonecheck_calibrationIntro	1	stimuli_target_diamondsquares.svg	stimuli_distractor_diamondtriangles.svg	24	yes	calibrationButton	0	3653	0	0			0	0			1				0	
6.6.1	win	2023-06-17	14:10:07	14:25:29	893547	61119018babf810c0cab7d3b	4	1	headphonecheck_testphase	15	test_collectResponse	3	stimuli_target_diamondsquares.svg	stimuli_distractor_diamondtriangles.svg	24	yes	second	0	3581	1	3	antiphase_hc_soi.wav	1	0	0			1				0	
6.6.1	win	2023-06-17	14:10:07	14:25:29	893547	61119018babf810c0cab7d3b	4	1	headphonecheck_testphase	15	test_collectResponse	6	stimuli_target_diamondsquares.svg	stimuli_distractor_diamondtriangles.svg	24	yes	third	1	662	2	6	antiphase_hc_ois.wav	3	0	0			1				0	
6.6.1	win	2023-06-17	14:10:07	14:25:29	893547	61119018babf810c0cab7d3b	4	1	headphonecheck_testphase	15	test_collectResponse	9	stimuli_target_diamondsquares.svg	stimuli_distractor_diamondtriangles.svg	24	yes	third	0	245	3	1	antiphase_hc_iso.wav	2	0	0			1				0	
6.6.1	win	2023-06-17	14:10:07	14:25:29	893547	61119018babf810c0cab7d3b	4	1	headphonecheck_testphase	15	test_collectResponse	12	stimuli_target_diamondsquares.svg	stimuli_distractor_diamondtriangles.svg	24	yes	second	0	2158	4	2	antiphase_hc_ios.wav	3	0	0			1				0	
6.6.1	win	2023-06-17	14:10:07	14:25:29	893547	61119018babf810c0cab7d3b	4	1	headphonecheck_testphase	15	test_collectResponse	15	stimuli_target_diamondsquares.svg	stimuli_distractor_diamondtriangles.svg	24	yes	first	0	490	5	5	antiphase_hc_osi.wav	2	0	0			1				0	
6.6.1	win	2023-06-17	14:10:07	14:25:29	893547	61119018babf810c0cab7d3b	4	1	headphonecheck_testphase	15	test_collectResponse	18	stimuli_target_diamondsquares.svg	stimuli_distractor_diamondtriangles.svg	24	yes	third	0	1365	6	4	antiphase_hc_sio.wav	1	0	0			1				0	
6.6.1	win	2023-06-17	14:10:07	14:25:29	893547	61119018babf810c0cab7d3b	4	1	stereocheck_calibration	17	stereocheck_calibrationIntro	1	stimuli_target_diamondsquares.svg	stimuli_distractor_diamondtriangles.svg	24	yes	stereocheck_calibrationButton	0	11741	6	4	antiphase_hc_sio.wav	1	0	0			1				0	
6.6.1	win	2023-06-17	14:10:07	14:25:29	893547	61119018babf810c0cab7d3b	4	1	stereocheck_testphase	18	stereocheck_test_collectResponse	3	stimuli_target_diamondsquares.svg	stimuli_distractor_diamondtriangles.svg	24	yes	stereocheck_right	1	506	6	4	antiphase_hc_sio.wav	1	1	4	noise_calib_stim_RIGHT.wav	2	1				0	
6.6.1	win	2023-06-17	14:10:07	14:25:29	893547	61119018babf810c0cab7d3b	4	1	stereocheck_testphase	18	stereocheck_test_collectResponse	6	stimuli_target_diamondsquares.svg	stimuli_distractor_diamondtriangles.svg	24	yes	stereocheck_left	1	498	6	4	antiphase_hc_sio.wav	1	2	3	noise_calib_stim_LEFT.wav	1	1				0	
6.6.1	win	2023-06-17	14:10:07	14:25:29	893547	61119018babf810c0cab7d3b	4	1	stereocheck_testphase	18	stereocheck_test_collectResponse	9	stimuli_target_diamondsquares.svg	stimuli_distractor_diamondtriangles.svg	24	yes	stereocheck_right	1	890	6	4	antiphase_hc_sio.wav	1	3	6	noise_calib_stim_RIGHT.wav	2	1				0	
6.6.1	win	2023-06-17	14:10:07	14:25:29	893547	61119018babf810c0cab7d3b	4	1	stereocheck_testphase	18	stereocheck_test_collectResponse	12	stimuli_target_diamondsquares.svg	stimuli_distractor_diamondtriangles.svg	24	yes	stereocheck_left	1	613	6	4	antiphase_hc_sio.wav	1	4	2	noise_calib_stim_LEFT.wav	1	1				0	
6.6.1	win	2023-06-17	14:10:07	14:25:29	893547	61119018babf810c0cab7d3b	4	1	stereocheck_testphase	18	stereocheck_test_collectResponse	15	stimuli_target_diamondsquares.svg	stimuli_distractor_diamondtriangles.svg	24	yes	stereocheck_right	1	314	6	4	antiphase_hc_sio.wav	1	5	5	noise_calib_stim_RIGHT.wav	2	1				0	
6.6.1	win	2023-06-17	14:10:07	14:25:29	893547	61119018babf810c0cab7d3b	4	1	stereocheck_testphase	18	stereocheck_test_collectResponse	18	stimuli_target_diamondsquares.svg	stimuli_distractor_diamondtriangles.svg	24	yes	stereocheck_left	1	310	6	4	antiphase_hc_sio.wav	1	6	1	noise_calib_stim_LEFT.wav	1	1				0	
6.6.1	win	2023-06-17	14:10:07	14:25:29	893547	61119018babf810c0cab7d3b	4	1	DL_practice	21	DL_practice	2	stimuli_target_diamondsquares.svg	stimuli_distractor_diamondtriangles.svg	24	yes	pa	0	1981	6	4	antiphase_hc_sio.wav	1	6	1	noise_calib_stim_LEFT.wav	1	7	blb_dichoticlistening_da-ba.mp3	da	ba	1	other
6.6.1	win	2023-06-17	14:10:07	14:25:29	893547	61119018babf810c0cab7d3b	4	1	DL_practice	21	DL_practice	3	stimuli_target_diamondsquares.svg	stimuli_distractor_diamondtriangles.svg	24	yes	da	1	1233	6	4	antiphase_hc_sio.wav	1	6	1	noise_calib_stim_LEFT.wav	1	8	blb_dichoticlistening_da-da.mp3	da	da	0	left
6.6.1	win	2023-06-17	14:10:07	14:25:29	893547	61119018babf810c0cab7d3b	4	1	DL_practice	21	DL_practice	4	stimuli_target_diamondsquares.svg	stimuli_distractor_diamondtriangles.svg	24	yes	ga	1	911	6	4	antiphase_hc_sio.wav	1	6	1	noise_calib_stim_LEFT.wav	1	15	blb_dichoticlistening_ga-ga.mp3	ga	ga	0	left
6.6.1	win	2023-06-17	14:10:07	14:25:29	893547	61119018babf810c0cab7d3b	4	1	DL_practice	21	DL_practice	5	stimuli_target_diamondsquares.svg	stimuli_distractor_diamondtriangles.svg	24	yes	ka	1	943	6	4	antiphase_hc_sio.wav	1	6	1	noise_calib_stim_LEFT.wav	1	22	blb_dichoticlistening_ka-ka.mp3	ka	ka	0	left
6.6.1	win	2023-06-17	14:10:07	14:25:29	893547	61119018babf810c0cab7d3b	4	1	DL_practice	21	DL_practice	6	stimuli_target_diamondsquares.svg	stimuli_distractor_diamondtriangles.svg	24	yes	ka	1	1667	6	4	antiphase_hc_sio.wav	1	6	1	noise_calib_stim_LEFT.wav	1	23	blb_dichoticlistening_ka-pa.mp3	ka	pa	1	left
6.6.1	win	2023-06-17	14:10:07	14:25:29	893547	61119018babf810c0cab7d3b	4	1	DL_practice	21	DL_practice	7	stimuli_target_diamondsquares.svg	stimuli_distractor_diamondtriangles.svg	24	yes	pa	1	1207	6	4	antiphase_hc_sio.wav	1	6	1	noise_calib_stim_LEFT.wav	1	29	blb_dichoticlistening_pa-pa.mp3	pa	pa	0	left
6.6.1	win	2023-06-17	14:10:07	14:25:29	893547	61119018babf810c0cab7d3b	4	1	DL_practice	21	DL_practice	8	stimuli_target_diamondsquares.svg	stimuli_distractor_diamondtriangles.svg	24	yes	ga	1	1166	6	4	antiphase_hc_sio.wav	1	6	1	noise_calib_stim_LEFT.wav	1	18	blb_dichoticlistening_ga-ta.mp3	ga	ta	1	left
6.6.1	win	2023-06-17	14:10:07	14:25:29	893547	61119018babf810c0cab7d3b	4	1	DL_practice	21	DL_practice	9	stimuli_target_diamondsquares.svg	stimuli_distractor_diamondtriangles.svg	24	yes	ba	1	1391	6	4	antiphase_hc_sio.wav	1	6	1	noise_calib_stim_LEFT.wav	1	1	blb_dichoticlistening_ba-ba.mp3	ba	ba	0	left
6.6.1	win	2023-06-17	14:10:07	14:25:29	893547	61119018babf810c0cab7d3b	4	1	DL_practice	21	DL_practice	10	stimuli_target_diamondsquares.svg	stimuli_distractor_diamondtriangles.svg	24	yes	ta	1	1351	6	4	antiphase_hc_sio.wav	1	6	1	noise_calib_stim_LEFT.wav	1	36	blb_dichoticlistening_ta-ta.mp3	ta	ta	0	left
6.6.1	win	2023-06-17	14:10:07	14:25:29	893547	61119018babf810c0cab7d3b	4	1	DL_test	23	DL_test	1	stimuli_target_diamondsquares.svg	stimuli_distractor_diamondtriangles.svg	24	yes	da	1	1317	6	4	antiphase_hc_sio.wav	1	6	1	noise_calib_stim_LEFT.wav	1	32	blb_dichoticlistening_ta-da.mp3	ta	da	1	right
6.6.1	win	2023-06-17	14:10:07	14:25:29	893547	61119018babf810c0cab7d3b	4	1	DL_test	23	DL_test	2	stimuli_target_diamondsquares.svg	stimuli_distractor_diamondtriangles.svg	24	yes	da	1	1628	6	4	antiphase_hc_sio.wav	1	6	1	noise_calib_stim_LEFT.wav	1	26	blb_dichoticlistening_pa-da.mp3	pa	da	1	right
6.6.1	win	2023-06-17	14:10:07	14:25:29	893547	61119018babf810c0cab7d3b	4	1	DL_test	23	DL_test	3	stimuli_target_diamondsquares.svg	stimuli_distractor_diamondtriangles.svg	24	yes	ba	1	2166	6	4	antiphase_hc_sio.wav	1	6	1	noise_calib_stim_LEFT.wav	1	25	blb_dichoticlistening_pa-ba.mp3	pa	ba	1	right
6.6.1	win	2023-06-17	14:10:07	14:25:29	893547	61119018babf810c0cab7d3b	4	1	DL_test	23	DL_test	4	stimuli_target_diamondsquares.svg	stimuli_distractor_diamondtriangles.svg	24	yes	ta	1	1437	6	4	antiphase_hc_sio.wav	1	6	1	noise_calib_stim_LEFT.wav	1	30	blb_dichoticlistening_pa-ta.mp3	pa	ta	1	right
6.6.1	win	2023-06-17	14:10:07	14:25:29	893547	61119018babf810c0cab7d3b	4	1	DL_test	23	DL_test	5	stimuli_target_diamondsquares.svg	stimuli_distractor_diamondtriangles.svg	24	yes	ka	1	988	6	4	antiphase_hc_sio.wav	1	6	1	noise_calib_stim_LEFT.wav	1	28	blb_dichoticlistening_pa-ka.mp3	pa	ka	1	right
6.6.1	win	2023-06-17	14:10:07	14:25:29	893547	61119018babf810c0cab7d3b	4	1	DL_test	23	DL_test	6	stimuli_target_diamondsquares.svg	stimuli_distractor_diamondtriangles.svg	24	yes	ga	1	1005	6	4	antiphase_hc_sio.wav	1	6	1	noise_calib_stim_LEFT.wav	1	14	blb_dichoticlistening_ga-da.mp3	ga	da	1	left
6.6.1	win	2023-06-17	14:10:07	14:25:29	893547	61119018babf810c0cab7d3b	4	1	DL_test	23	DL_test	7	stimuli_target_diamondsquares.svg	stimuli_distractor_diamondtriangles.svg	24	yes	ba	1	1311	6	4	antiphase_hc_sio.wav	1	6	1	noise_calib_stim_LEFT.wav	1	5	blb_dichoticlistening_ba-pa.mp3	ba	pa	1	left
6.6.1	win	2023-06-17	14:10:07	14:25:29	893547	61119018babf810c0cab7d3b	4	1	DL_test	23	DL_test	8	stimuli_target_diamondsquares.svg	stimuli_distractor_diamondtriangles.svg	24	yes	da	1	824	6	4	antiphase_hc_sio.wav	1	6	1	noise_calib_stim_LEFT.wav	1	12	blb_dichoticlistening_da-ta.mp3	da	ta	1	left
6.6.1	win	2023-06-17	14:10:07	14:25:29	893547	61119018babf810c0cab7d3b	4	1	DL_test	23	DL_test	9	stimuli_target_diamondsquares.svg	stimuli_distractor_diamondtriangles.svg	24	yes	ba	1	2660	6	4	antiphase_hc_sio.wav	1	6	1	noise_calib_stim_LEFT.wav	1	13	blb_dichoticlistening_ga-ba.mp3	ga	ba	1	right
6.6.1	win	2023-06-17	14:10:07	14:25:29	893547	61119018babf810c0cab7d3b	4	1	DL_test	23	DL_test	10	stimuli_target_diamondsquares.svg	stimuli_distractor_diamondtriangles.svg	24	yes	ta	1	1335	6	4	antiphase_hc_sio.wav	1	6	1	noise_calib_stim_LEFT.wav	1	35	blb_dichoticlistening_ta-pa.mp3	ta	pa	1	left
6.6.1	win	2023-06-17	14:10:07	14:25:29	893547	61119018babf810c0cab7d3b	4	1	DL_test	23	DL_test	11	stimuli_target_diamondsquares.svg	stimuli_distractor_diamondtriangles.svg	24	yes	da	1	1172	6	4	antiphase_hc_sio.wav	1	6	1	noise_calib_stim_LEFT.wav	1	11	blb_dichoticlistening_da-pa.mp3	da	pa	1	left
6.6.1	win	2023-06-17	14:10:07	14:25:29	893547	61119018babf810c0cab7d3b	4	1	DL_test	23	DL_test	12	stimuli_target_diamondsquares.svg	stimuli_distractor_diamondtriangles.svg	24	yes	ga	1	1098	6	4	antiphase_hc_sio.wav	1	6	1	noise_calib_stim_LEFT.wav	1	9	blb_dichoticlistening_da-ga.mp3	da	ga	1	right
6.6.1	win	2023-06-17	14:10:07	14:25:29	893547	61119018babf810c0cab7d3b	4	1	DL_test	23	DL_test	13	stimuli_target_diamondsquares.svg	stimuli_distractor_diamondtriangles.svg	24	yes	ga	1	940	6	4	antiphase_hc_sio.wav	1	6	1	noise_calib_stim_LEFT.wav	1	17	blb_dichoticlistening_ga-pa.mp3	ga	pa	1	left
6.6.1	win	2023-06-17	14:10:07	14:25:29	893547	61119018babf810c0cab7d3b	4	1	DL_test	23	DL_test	14	stimuli_target_diamondsquares.svg	stimuli_distractor_diamondtriangles.svg	24	yes	ga	1	1285	6	4	antiphase_hc_sio.wav	1	6	1	noise_calib_stim_LEFT.wav	1	27	blb_dichoticlistening_pa-ga.mp3	pa	ga	1	right
6.6.1	win	2023-06-17	14:10:07	14:25:29	893547	61119018babf810c0cab7d3b	4	1	DL_test	23	DL_test	15	stimuli_target_diamondsquares.svg	stimuli_distractor_diamondtriangles.svg	24	yes	pa	0	1623	6	4	antiphase_hc_sio.wav	1	6	1	noise_calib_stim_LEFT.wav	1	31	blb_dichoticlistening_ta-ba.mp3	ta	ba	1	other
6.6.1	win	2023-06-17	14:10:07	14:25:29	893547	61119018babf810c0cab7d3b	4	1	DL_test	23	DL_test	16	stimuli_target_diamondsquares.svg	stimuli_distractor_diamondtriangles.svg	24	yes	ka	1	939	6	4	antiphase_hc_sio.wav	1	6	1	noise_calib_stim_LEFT.wav	1	24	blb_dichoticlistening_ka-ta.mp3	ka	ta	1	left
6.6.1	win	2023-06-17	14:10:07	14:25:29	893547	61119018babf810c0cab7d3b	4	1	DL_test	23	DL_test	17	stimuli_target_diamondsquares.svg	stimuli_distractor_diamondtriangles.svg	24	yes	ba	1	1055	6	4	antiphase_hc_sio.wav	1	6	1	noise_calib_stim_LEFT.wav	1	1	blb_dichoticlistening_ba-ba.mp3	ba	ba	0	left
6.6.1	win	2023-06-17	14:10:07	14:25:29	893547	61119018babf810c0cab7d3b	4	1	DL_test	23	DL_test	18	stimuli_target_diamondsquares.svg	stimuli_distractor_diamondtriangles.svg	24	yes	ga	1	970	6	4	antiphase_hc_sio.wav	1	6	1	noise_calib_stim_LEFT.wav	1	16	blb_dichoticlistening_ga-ka.mp3	ga	ka	1	left
6.6.1	win	2023-06-17	14:10:07	14:25:29	893547	61119018babf810c0cab7d3b	4	1	DL_test	23	DL_test	19	stimuli_target_diamondsquares.svg	stimuli_distractor_diamondtriangles.svg	24	yes	ga	0	906	6	4	antiphase_hc_sio.wav	1	6	1	noise_calib_stim_LEFT.wav	1	10	blb_dichoticlistening_da-ka.mp3	da	ka	1	other
6.6.1	win	2023-06-17	14:10:07	14:25:29	893547	61119018babf810c0cab7d3b	4	1	DL_test	23	DL_test	20	stimuli_target_diamondsquares.svg	stimuli_distractor_diamondtriangles.svg	24	yes	ba	1	1240	6	4	antiphase_hc_sio.wav	1	6	1	noise_calib_stim_LEFT.wav	1	3	blb_dichoticlistening_ba-ga.mp3	ba	ga	1	left
6.6.1	win	2023-06-17	14:10:07	14:25:29	893547	61119018babf810c0cab7d3b	4	1	DL_test	23	DL_test	21	stimuli_target_diamondsquares.svg	stimuli_distractor_diamondtriangles.svg	24	yes	ba	1	1092	6	4	antiphase_hc_sio.wav	1	6	1	noise_calib_stim_LEFT.wav	1	7	blb_dichoticlistening_da-ba.mp3	da	ba	1	right
6.6.1	win	2023-06-17	14:10:07	14:25:29	893547	61119018babf810c0cab7d3b	4	1	DL_test	23	DL_test	22	stimuli_target_diamondsquares.svg	stimuli_distractor_diamondtriangles.svg	24	yes	ga	1	1201	6	4	antiphase_hc_sio.wav	1	6	1	noise_calib_stim_LEFT.wav	1	33	blb_dichoticlistening_ta-ga.mp3	ta	ga	1	right
6.6.1	win	2023-06-17	14:10:07	14:25:29	893547	61119018babf810c0cab7d3b	4	1	DL_test	23	DL_test	23	stimuli_target_diamondsquares.svg	stimuli_distractor_diamondtriangles.svg	24	yes	ta	1	1574	6	4	antiphase_hc_sio.wav	1	6	1	noise_calib_stim_LEFT.wav	1	36	blb_dichoticlistening_ta-ta.mp3	ta	ta	0	left
6.6.1	win	2023-06-17	14:10:07	14:25:29	893547	61119018babf810c0cab7d3b	4	1	DL_test	23	DL_test	24	stimuli_target_diamondsquares.svg	stimuli_distractor_diamondtriangles.svg	24	yes	pa	0	2900	6	4	antiphase_hc_sio.wav	1	6	1	noise_calib_stim_LEFT.wav	1	2	blb_dichoticlistening_ba-da.mp3	ba	da	1	other
6.6.1	win	2023-06-17	14:10:07	14:25:29	893547	61119018babf810c0cab7d3b	4	1	DL_test	23	DL_test	25	stimuli_target_diamondsquares.svg	stimuli_distractor_diamondtriangles.svg	24	yes	ga	1	918	6	4	antiphase_hc_sio.wav	1	6	1	noise_calib_stim_LEFT.wav	1	15	blb_dichoticlistening_ga-ga.mp3	ga	ga	0	left
6.6.1	win	2023-06-17	14:10:07	14:25:29	893547	61119018babf810c0cab7d3b	4	1	DL_test	23	DL_test	26	stimuli_target_diamondsquares.svg	stimuli_distractor_diamondtriangles.svg	24	yes	ga	1	734	6	4	antiphase_hc_sio.wav	1	6	1	noise_calib_stim_LEFT.wav	1	21	blb_dichoticlistening_ka-ga.mp3	ka	ga	1	right
