build	computer.platform	date	time	timestamp	time_elapsed_ms	subject	group	session	blockcode	blocknum	trialcode	trialnum	stimulus_left	stimulus_right	stim_index	target_present	response	correct	latency	headphonecheck_countTestTrials	headphonecheck_index	headphonecheck_testSound	headphonecheck_correctResponse	stereocheck_countTestTrials	stereocheck_index	stereocheck_testSound	stereocheck_correctResponse	DL_index	DL_soundfile	DL_leftSound	DL_rightSound	DL_dualSound	DL_choice
6.6.1	mac	2023-07-17	14:04:50	0	0	63e51be199687d0e5eec6f0b	2	1	headphonecheck_calibration	4	headphonecheck_calibrationIntro	1			0		calibrationButton	0	5492	0	0			0	0			1				0	
6.6.1	mac	2023-07-17	14:04:50	0	0	63e51be199687d0e5eec6f0b	2	1	headphonecheck_testphase	5	test_collectResponse	3			0		second	1	5124	1	1	antiphase_hc_iso.wav	2	0	0			1				0	
6.6.1	mac	2023-07-17	14:04:50	0	0	63e51be199687d0e5eec6f0b	2	1	headphonecheck_testphase	5	test_collectResponse	6			0		first	1	14308	2	3	antiphase_hc_soi.wav	1	0	0			1				0	
6.6.1	mac	2023-07-17	14:04:50	0	0	63e51be199687d0e5eec6f0b	2	1	headphonecheck_testphase	5	test_collectResponse	9			0		third	1	407	3	6	antiphase_hc_ois.wav	3	0	0			1				0	
6.6.1	mac	2023-07-17	14:04:50	0	0	63e51be199687d0e5eec6f0b	2	1	headphonecheck_testphase	5	test_collectResponse	12			0		second	1	191	4	5	antiphase_hc_osi.wav	2	0	0			1				0	
6.6.1	mac	2023-07-17	14:04:50	0	0	63e51be199687d0e5eec6f0b	2	1	headphonecheck_testphase	5	test_collectResponse	15			0		third	1	531	5	2	antiphase_hc_ios.wav	3	0	0			1				0	
6.6.1	mac	2023-07-17	14:04:50	0	0	63e51be199687d0e5eec6f0b	2	1	headphonecheck_testphase	5	test_collectResponse	18			0		first	1	524	6	4	antiphase_hc_sio.wav	1	0	0			1				0	
6.6.1	mac	2023-07-17	14:04:50	0	0	63e51be199687d0e5eec6f0b	2	1	stereocheck_calibration	7	stereocheck_calibrationIntro	1			0		stereocheck_calibrationButton	0	84137	6	4	antiphase_hc_sio.wav	1	0	0			1				0	
6.6.1	mac	2023-07-17	14:04:50	0	0	63e51be199687d0e5eec6f0b	2	1	stereocheck_testphase	8	stereocheck_test_collectResponse	3			0		stereocheck_left	1	725	6	4	antiphase_hc_sio.wav	1	1	1	noise_calib_stim_LEFT.wav	1	1				0	
6.6.1	mac	2023-07-17	14:04:50	0	0	63e51be199687d0e5eec6f0b	2	1	stereocheck_testphase	8	stereocheck_test_collectResponse	6			0		stereocheck_right	1	557	6	4	antiphase_hc_sio.wav	1	2	4	noise_calib_stim_RIGHT.wav	2	1				0	
6.6.1	mac	2023-07-17	14:04:50	0	0	63e51be199687d0e5eec6f0b	2	1	stereocheck_testphase	8	stereocheck_test_collectResponse	9			0		stereocheck_left	1	657	6	4	antiphase_hc_sio.wav	1	3	2	noise_calib_stim_LEFT.wav	1	1				0	
6.6.1	mac	2023-07-17	14:04:50	0	0	63e51be199687d0e5eec6f0b	2	1	stereocheck_testphase	8	stereocheck_test_collectResponse	12			0		stereocheck_right	1	491	6	4	antiphase_hc_sio.wav	1	4	5	noise_calib_stim_RIGHT.wav	2	1				0	
6.6.1	mac	2023-07-17	14:04:50	0	0	63e51be199687d0e5eec6f0b	2	1	stereocheck_testphase	8	stereocheck_test_collectResponse	15			0		stereocheck_left	1	457	6	4	antiphase_hc_sio.wav	1	5	3	noise_calib_stim_LEFT.wav	1	1				0	
6.6.1	mac	2023-07-17	14:04:50	0	0	63e51be199687d0e5eec6f0b	2	1	stereocheck_testphase	8	stereocheck_test_collectResponse	18			0		stereocheck_right	1	366	6	4	antiphase_hc_sio.wav	1	6	6	noise_calib_stim_RIGHT.wav	2	1				0	
6.6.1	mac	2023-07-17	14:04:50	0	0	63e51be199687d0e5eec6f0b	2	1	DL_practice	11	DL_practice	2			0		ba	1	1541	6	4	antiphase_hc_sio.wav	1	6	6	noise_calib_stim_RIGHT.wav	2	1	blb_dichoticlistening_ba-ba.mp3	ba	ba	0	left
6.6.1	mac	2023-07-17	14:04:50	0	0	63e51be199687d0e5eec6f0b	2	1	DL_practice	11	DL_practice	3			0		ga	1	1091	6	4	antiphase_hc_sio.wav	1	6	6	noise_calib_stim_RIGHT.wav	2	15	blb_dichoticlistening_ga-ga.mp3	ga	ga	0	left
6.6.1	mac	2023-07-17	14:04:50	0	0	63e51be199687d0e5eec6f0b	2	1	DL_practice	11	DL_practice	4			0		ka	0	1374	6	4	antiphase_hc_sio.wav	1	6	6	noise_calib_stim_RIGHT.wav	2	18	blb_dichoticlistening_ga-ta.mp3	ga	ta	1	other
6.6.1	mac	2023-07-17	14:04:50	0	0	63e51be199687d0e5eec6f0b	2	1	DL_practice	11	DL_practice	5			0		ka	1	1658	6	4	antiphase_hc_sio.wav	1	6	6	noise_calib_stim_RIGHT.wav	2	22	blb_dichoticlistening_ka-ka.mp3	ka	ka	0	left
6.6.1	mac	2023-07-17	14:04:50	0	0	63e51be199687d0e5eec6f0b	2	1	DL_practice	11	DL_practice	6			0		da	1	1207	6	4	antiphase_hc_sio.wav	1	6	6	noise_calib_stim_RIGHT.wav	2	8	blb_dichoticlistening_da-da.mp3	da	da	0	left
6.6.1	mac	2023-07-17	14:04:50	0	0	63e51be199687d0e5eec6f0b	2	1	DL_practice	11	DL_practice	7			0		ka	1	3907	6	4	antiphase_hc_sio.wav	1	6	6	noise_calib_stim_RIGHT.wav	2	23	blb_dichoticlistening_ka-pa.mp3	ka	pa	1	left
6.6.1	mac	2023-07-17	14:04:50	0	0	63e51be199687d0e5eec6f0b	2	1	DL_practice	11	DL_practice	8			0		da	1	1708	6	4	antiphase_hc_sio.wav	1	6	6	noise_calib_stim_RIGHT.wav	2	7	blb_dichoticlistening_da-ba.mp3	da	ba	1	left
6.6.1	mac	2023-07-17	14:04:50	0	0	63e51be199687d0e5eec6f0b	2	1	DL_practice	11	DL_practice	9			0		pa	1	1757	6	4	antiphase_hc_sio.wav	1	6	6	noise_calib_stim_RIGHT.wav	2	29	blb_dichoticlistening_pa-pa.mp3	pa	pa	0	left
6.6.1	mac	2023-07-17	14:04:50	0	0	63e51be199687d0e5eec6f0b	2	1	DL_practice	11	DL_practice	10			0		ta	1	1674	6	4	antiphase_hc_sio.wav	1	6	6	noise_calib_stim_RIGHT.wav	2	36	blb_dichoticlistening_ta-ta.mp3	ta	ta	0	left
6.6.1	mac	2023-07-17	14:04:50	0	0	63e51be199687d0e5eec6f0b	2	1	DL_test	13	DL_test	1			0		ta	1	1474	6	4	antiphase_hc_sio.wav	1	6	6	noise_calib_stim_RIGHT.wav	2	30	blb_dichoticlistening_pa-ta.mp3	pa	ta	1	right
6.6.1	mac	2023-07-17	14:04:50	0	0	63e51be199687d0e5eec6f0b	2	1	DL_test	13	DL_test	2			0		ka	1	1741	6	4	antiphase_hc_sio.wav	1	6	6	noise_calib_stim_RIGHT.wav	2	34	blb_dichoticlistening_ta-ka.mp3	ta	ka	1	right
6.6.1	mac	2023-07-17	14:04:50	0	0	63e51be199687d0e5eec6f0b	2	1	DL_test	13	DL_test	3			0		da	0	2156	6	4	antiphase_hc_sio.wav	1	6	6	noise_calib_stim_RIGHT.wav	2	19	blb_dichoticlistening_ka-ba.mp3	ka	ba	1	other
6.6.1	mac	2023-07-17	14:04:50	0	0	63e51be199687d0e5eec6f0b	2	1	DL_test	13	DL_test	4			0		pa	1	1457	6	4	antiphase_hc_sio.wav	1	6	6	noise_calib_stim_RIGHT.wav	2	29	blb_dichoticlistening_pa-pa.mp3	pa	pa	0	left
6.6.1	mac	2023-07-17	14:04:50	0	0	63e51be199687d0e5eec6f0b	2	1	DL_test	13	DL_test	5			0		ba	1	1424	6	4	antiphase_hc_sio.wav	1	6	6	noise_calib_stim_RIGHT.wav	2	2	blb_dichoticlistening_ba-da.mp3	ba	da	1	left
6.6.1	mac	2023-07-17	14:04:50	0	0	63e51be199687d0e5eec6f0b	2	1	DL_test	13	DL_test	6			0		ba	1	857	6	4	antiphase_hc_sio.wav	1	6	6	noise_calib_stim_RIGHT.wav	2	1	blb_dichoticlistening_ba-ba.mp3	ba	ba	0	left
6.6.1	mac	2023-07-17	14:04:50	0	0	63e51be199687d0e5eec6f0b	2	1	DL_test	13	DL_test	7			0		da	1	1007	6	4	antiphase_hc_sio.wav	1	6	6	noise_calib_stim_RIGHT.wav	2	8	blb_dichoticlistening_da-da.mp3	da	da	0	left
6.6.1	mac	2023-07-17	14:04:50	0	0	63e51be199687d0e5eec6f0b	2	1	DL_test	13	DL_test	8			0		ga	1	1524	6	4	antiphase_hc_sio.wav	1	6	6	noise_calib_stim_RIGHT.wav	2	9	blb_dichoticlistening_da-ga.mp3	da	ga	1	right
6.6.1	mac	2023-07-17	14:04:50	0	0	63e51be199687d0e5eec6f0b	2	1	DL_test	13	DL_test	9			0		ka	1	1373	6	4	antiphase_hc_sio.wav	1	6	6	noise_calib_stim_RIGHT.wav	2	16	blb_dichoticlistening_ga-ka.mp3	ga	ka	1	right
6.6.1	mac	2023-07-17	14:04:50	0	0	63e51be199687d0e5eec6f0b	2	1	DL_test	13	DL_test	10			0		ta	1	3307	6	4	antiphase_hc_sio.wav	1	6	6	noise_calib_stim_RIGHT.wav	2	6	blb_dichoticlistening_ba-ta.mp3	ba	ta	1	right
6.6.1	mac	2023-07-17	14:04:50	0	0	63e51be199687d0e5eec6f0b	2	1	DL_test	13	DL_test	11			0		ka	0	2090	6	4	antiphase_hc_sio.wav	1	6	6	noise_calib_stim_RIGHT.wav	2	33	blb_dichoticlistening_ta-ga.mp3	ta	ga	1	other
6.6.1	mac	2023-07-17	14:04:50	0	0	63e51be199687d0e5eec6f0b	2	1	DL_test	13	DL_test	12			0		pa	1	1585	6	4	antiphase_hc_sio.wav	1	6	6	noise_calib_stim_RIGHT.wav	2	35	blb_dichoticlistening_ta-pa.mp3	ta	pa	1	right
6.6.1	mac	2023-07-17	14:04:50	0	0	63e51be199687d0e5eec6f0b	2	1	DL_test	13	DL_test	13			0		ka	0	3474	6	4	antiphase_hc_sio.wav	1	6	6	noise_calib_stim_RIGHT.wav	2	18	blb_dichoticlistening_ga-ta.mp3	ga	ta	1	other
6.6.1	mac	2023-07-17	14:04:50	0	0	63e51be199687d0e5eec6f0b	2	1	DL_test	13	DL_test	14			0		ga	1	1590	6	4	antiphase_hc_sio.wav	1	6	6	noise_calib_stim_RIGHT.wav	2	21	blb_dichoticlistening_ka-ga.mp3	ka	ga	1	right
6.6.1	mac	2023-07-17	14:04:50	0	0	63e51be199687d0e5eec6f0b	2	1	DL_test	13	DL_test	15			0		ka	1	1390	6	4	antiphase_hc_sio.wav	1	6	6	noise_calib_stim_RIGHT.wav	2	24	blb_dichoticlistening_ka-ta.mp3	ka	ta	1	left
6.6.1	mac	2023-07-17	14:04:50	0	0	63e51be199687d0e5eec6f0b	2	1	DL_test	13	DL_test	16			0		ta	1	1773	6	4	antiphase_hc_sio.wav	1	6	6	noise_calib_stim_RIGHT.wav	2	36	blb_dichoticlistening_ta-ta.mp3	ta	ta	0	left
6.6.1	mac	2023-07-17	14:04:50	0	0	63e51be199687d0e5eec6f0b	2	1	DL_test	13	DL_test	17			0		ba	1	1740	6	4	antiphase_hc_sio.wav	1	6	6	noise_calib_stim_RIGHT.wav	2	31	blb_dichoticlistening_ta-ba.mp3	ta	ba	1	right
6.6.1	mac	2023-07-17	14:04:50	0	0	63e51be199687d0e5eec6f0b	2	1	DL_test	13	DL_test	18			0		ka	1	1674	6	4	antiphase_hc_sio.wav	1	6	6	noise_calib_stim_RIGHT.wav	2	23	blb_dichoticlistening_ka-pa.mp3	ka	pa	1	left
6.6.1	mac	2023-07-17	14:04:50	0	0	63e51be199687d0e5eec6f0b	2	1	DL_test	13	DL_test	19			0		ta	0	1573	6	4	antiphase_hc_sio.wav	1	6	6	noise_calib_stim_RIGHT.wav	2	11	blb_dichoticlistening_da-pa.mp3	da	pa	1	other
6.6.1	mac	2023-07-17	14:04:50	0	0	63e51be199687d0e5eec6f0b	2	1	DL_test	13	DL_test	20			0		ga	1	1673	6	4	antiphase_hc_sio.wav	1	6	6	noise_calib_stim_RIGHT.wav	2	27	blb_dichoticlistening_pa-ga.mp3	pa	ga	1	right
6.6.1	mac	2023-07-17	14:04:50	0	0	63e51be199687d0e5eec6f0b	2	1	DL_test	13	DL_test	21			0		pa	1	1457	6	4	antiphase_hc_sio.wav	1	6	6	noise_calib_stim_RIGHT.wav	2	17	blb_dichoticlistening_ga-pa.mp3	ga	pa	1	right
6.6.1	mac	2023-07-17	14:04:50	0	0	63e51be199687d0e5eec6f0b	2	1	DL_test	13	DL_test	22			0		ga	1	1140	6	4	antiphase_hc_sio.wav	1	6	6	noise_calib_stim_RIGHT.wav	2	14	blb_dichoticlistening_ga-da.mp3	ga	da	1	left
6.6.1	mac	2023-07-17	14:04:50	0	0	63e51be199687d0e5eec6f0b	2	1	DL_test	13	DL_test	23			0		pa	0	1124	6	4	antiphase_hc_sio.wav	1	6	6	noise_calib_stim_RIGHT.wav	2	10	blb_dichoticlistening_da-ka.mp3	da	ka	1	other
6.6.1	mac	2023-07-17	14:04:50	0	0	63e51be199687d0e5eec6f0b	2	1	DL_test	13	DL_test	24			0		ba	1	1574	6	4	antiphase_hc_sio.wav	1	6	6	noise_calib_stim_RIGHT.wav	2	3	blb_dichoticlistening_ba-ga.mp3	ba	ga	1	left
6.6.1	mac	2023-07-17	14:04:50	0	0	63e51be199687d0e5eec6f0b	2	1	DL_test	13	DL_test	25			0		pa	1	1491	6	4	antiphase_hc_sio.wav	1	6	6	noise_calib_stim_RIGHT.wav	2	25	blb_dichoticlistening_pa-ba.mp3	pa	ba	1	left
6.6.1	mac	2023-07-17	14:04:50	0	0	63e51be199687d0e5eec6f0b	2	1	DL_test	13	DL_test	26			0		ka	1	1441	6	4	antiphase_hc_sio.wav	1	6	6	noise_calib_stim_RIGHT.wav	2	4	blb_dichoticlistening_ba-ka.mp3	ba	ka	1	right
6.6.1	mac	2023-07-17	14:04:50	0	0	63e51be199687d0e5eec6f0b	2	1	DL_test	13	DL_test	27			0		da	1	1041	6	4	antiphase_hc_sio.wav	1	6	6	noise_calib_stim_RIGHT.wav	2	7	blb_dichoticlistening_da-ba.mp3	da	ba	1	left
6.6.1	mac	2023-07-17	14:04:50	0	0	63e51be199687d0e5eec6f0b	2	1	DL_test	13	DL_test	28			0		ka	1	1275	6	4	antiphase_hc_sio.wav	1	6	6	noise_calib_stim_RIGHT.wav	2	28	blb_dichoticlistening_pa-ka.mp3	pa	ka	1	right
6.6.1	mac	2023-07-17	14:04:50	0	0	63e51be199687d0e5eec6f0b	2	1	DL_test	13	DL_test	29			0		ta	1	1257	6	4	antiphase_hc_sio.wav	1	6	6	noise_calib_stim_RIGHT.wav	2	12	blb_dichoticlistening_da-ta.mp3	da	ta	1	right
6.6.1	mac	2023-07-17	14:04:50	0	0	63e51be199687d0e5eec6f0b	2	1	DL_test	13	DL_test	30			0		pa	1	1223	6	4	antiphase_hc_sio.wav	1	6	6	noise_calib_stim_RIGHT.wav	2	5	blb_dichoticlistening_ba-pa.mp3	ba	pa	1	right
6.6.1	mac	2023-07-17	14:04:50	0	0	63e51be199687d0e5eec6f0b	2	1	DL_test	13	DL_test	31			0		ka	1	1890	6	4	antiphase_hc_sio.wav	1	6	6	noise_calib_stim_RIGHT.wav	2	20	blb_dichoticlistening_ka-da.mp3	ka	da	1	left
6.6.1	mac	2023-07-17	14:04:50	0	0	63e51be199687d0e5eec6f0b	2	1	DL_test	13	DL_test	32			0		da	1	1357	6	4	antiphase_hc_sio.wav	1	6	6	noise_calib_stim_RIGHT.wav	2	32	blb_dichoticlistening_ta-da.mp3	ta	da	1	right
6.6.1	mac	2023-07-17	14:04:50	0	0	63e51be199687d0e5eec6f0b	2	1	DL_test	13	DL_test	33			0		da	0	1073	6	4	antiphase_hc_sio.wav	1	6	6	noise_calib_stim_RIGHT.wav	2	13	blb_dichoticlistening_ga-ba.mp3	ga	ba	1	other
6.6.1	mac	2023-07-17	14:04:50	0	0	63e51be199687d0e5eec6f0b	2	1	DL_test	13	DL_test	34			0		pa	1	1074	6	4	antiphase_hc_sio.wav	1	6	6	noise_calib_stim_RIGHT.wav	2	26	blb_dichoticlistening_pa-da.mp3	pa	da	1	left
6.6.1	mac	2023-07-17	14:04:50	0	0	63e51be199687d0e5eec6f0b	2	1	DL_test	13	DL_test	35			0		ga	1	1208	6	4	antiphase_hc_sio.wav	1	6	6	noise_calib_stim_RIGHT.wav	2	15	blb_dichoticlistening_ga-ga.mp3	ga	ga	0	left
6.6.1	mac	2023-07-17	14:04:50	0	0	63e51be199687d0e5eec6f0b	2	1	DL_test	13	DL_test	36			0		ka	1	1257	6	4	antiphase_hc_sio.wav	1	6	6	noise_calib_stim_RIGHT.wav	2	22	blb_dichoticlistening_ka-ka.mp3	ka	ka	0	left
6.6.1	mac	2023-07-17	14:04:50	0	0	63e51be199687d0e5eec6f0b	2	1	DL_test	14	DL_test	1			0		da	1	1457	6	4	antiphase_hc_sio.wav	1	6	6	noise_calib_stim_RIGHT.wav	2	7	blb_dichoticlistening_da-ba.mp3	da	ba	1	left
6.6.1	mac	2023-07-17	14:04:50	0	0	63e51be199687d0e5eec6f0b	2	1	DL_test	14	DL_test	2			0		pa	1	1123	6	4	antiphase_hc_sio.wav	1	6	6	noise_calib_stim_RIGHT.wav	2	29	blb_dichoticlistening_pa-pa.mp3	pa	pa	0	left
6.6.1	mac	2023-07-17	14:04:50	0	0	63e51be199687d0e5eec6f0b	2	1	DL_test	14	DL_test	3			0		ka	1	1239	6	4	antiphase_hc_sio.wav	1	6	6	noise_calib_stim_RIGHT.wav	2	16	blb_dichoticlistening_ga-ka.mp3	ga	ka	1	right
6.6.1	mac	2023-07-17	14:04:50	0	0	63e51be199687d0e5eec6f0b	2	1	DL_test	14	DL_test	4			0		da	1	1373	6	4	antiphase_hc_sio.wav	1	6	6	noise_calib_stim_RIGHT.wav	2	14	blb_dichoticlistening_ga-da.mp3	ga	da	1	right
6.6.1	mac	2023-07-17	14:04:50	0	0	63e51be199687d0e5eec6f0b	2	1	DL_test	14	DL_test	5			0		ka	1	1740	6	4	antiphase_hc_sio.wav	1	6	6	noise_calib_stim_RIGHT.wav	2	22	blb_dichoticlistening_ka-ka.mp3	ka	ka	0	left
6.6.1	mac	2023-07-17	14:04:50	0	0	63e51be199687d0e5eec6f0b	2	1	DL_test	14	DL_test	6			0		ga	1	1123	6	4	antiphase_hc_sio.wav	1	6	6	noise_calib_stim_RIGHT.wav	2	9	blb_dichoticlistening_da-ga.mp3	da	ga	1	right
6.6.1	mac	2023-07-17	14:04:50	0	0	63e51be199687d0e5eec6f0b	2	1	DL_test	14	DL_test	7			0		ta	1	2389	6	4	antiphase_hc_sio.wav	1	6	6	noise_calib_stim_RIGHT.wav	2	32	blb_dichoticlistening_ta-da.mp3	ta	da	1	left
6.6.1	mac	2023-07-17	14:04:50	0	0	63e51be199687d0e5eec6f0b	2	1	DL_test	14	DL_test	8			0		ta	1	1441	6	4	antiphase_hc_sio.wav	1	6	6	noise_calib_stim_RIGHT.wav	2	35	blb_dichoticlistening_ta-pa.mp3	ta	pa	1	left
6.6.1	mac	2023-07-17	14:04:50	0	0	63e51be199687d0e5eec6f0b	2	1	DL_test	14	DL_test	9			0		ka	0	1440	6	4	antiphase_hc_sio.wav	1	6	6	noise_calib_stim_RIGHT.wav	2	18	blb_dichoticlistening_ga-ta.mp3	ga	ta	1	other
6.6.1	mac	2023-07-17	14:04:50	0	0	63e51be199687d0e5eec6f0b	2	1	DL_test	14	DL_test	10			0		ka	1	1189	6	4	antiphase_hc_sio.wav	1	6	6	noise_calib_stim_RIGHT.wav	2	28	blb_dichoticlistening_pa-ka.mp3	pa	ka	1	right
6.6.1	mac	2023-07-17	14:04:50	0	0	63e51be199687d0e5eec6f0b	2	1	DL_test	14	DL_test	11			0		ta	1	1506	6	4	antiphase_hc_sio.wav	1	6	6	noise_calib_stim_RIGHT.wav	2	6	blb_dichoticlistening_ba-ta.mp3	ba	ta	1	right
6.6.1	mac	2023-07-17	14:04:50	0	0	63e51be199687d0e5eec6f0b	2	1	DL_test	14	DL_test	12			0		pa	1	1090	6	4	antiphase_hc_sio.wav	1	6	6	noise_calib_stim_RIGHT.wav	2	27	blb_dichoticlistening_pa-ga.mp3	pa	ga	1	left
6.6.1	mac	2023-07-17	14:04:50	0	0	63e51be199687d0e5eec6f0b	2	1	DL_test	14	DL_test	13			0		ka	1	1740	6	4	antiphase_hc_sio.wav	1	6	6	noise_calib_stim_RIGHT.wav	2	23	blb_dichoticlistening_ka-pa.mp3	ka	pa	1	left
6.6.1	mac	2023-07-17	14:04:50	0	0	63e51be199687d0e5eec6f0b	2	1	DL_test	14	DL_test	14			0		ta	1	1290	6	4	antiphase_hc_sio.wav	1	6	6	noise_calib_stim_RIGHT.wav	2	12	blb_dichoticlistening_da-ta.mp3	da	ta	1	right
6.6.1	mac	2023-07-17	14:04:50	0	0	63e51be199687d0e5eec6f0b	2	1	DL_test	14	DL_test	15			0		ba	1	1723	6	4	antiphase_hc_sio.wav	1	6	6	noise_calib_stim_RIGHT.wav	2	3	blb_dichoticlistening_ba-ga.mp3	ba	ga	1	left
6.6.1	mac	2023-07-17	14:04:50	0	0	63e51be199687d0e5eec6f0b	2	1	DL_test	14	DL_test	16			0		ba	1	791	6	4	antiphase_hc_sio.wav	1	6	6	noise_calib_stim_RIGHT.wav	2	1	blb_dichoticlistening_ba-ba.mp3	ba	ba	0	left
6.6.1	mac	2023-07-17	14:04:50	0	0	63e51be199687d0e5eec6f0b	2	1	DL_test	14	DL_test	17			0		ta	0	1727	6	4	antiphase_hc_sio.wav	1	6	6	noise_calib_stim_RIGHT.wav	2	10	blb_dichoticlistening_da-ka.mp3	da	ka	1	other
6.6.1	mac	2023-07-17	14:04:50	0	0	63e51be199687d0e5eec6f0b	2	1	DL_test	14	DL_test	18			0		ta	0	1006	6	4	antiphase_hc_sio.wav	1	6	6	noise_calib_stim_RIGHT.wav	2	11	blb_dichoticlistening_da-pa.mp3	da	pa	1	other
6.6.1	mac	2023-07-17	14:04:50	0	0	63e51be199687d0e5eec6f0b	2	1	DL_test	14	DL_test	19			0		pa	1	1274	6	4	antiphase_hc_sio.wav	1	6	6	noise_calib_stim_RIGHT.wav	2	5	blb_dichoticlistening_ba-pa.mp3	ba	pa	1	right
6.6.1	mac	2023-07-17	14:04:50	0	0	63e51be199687d0e5eec6f0b	2	1	DL_test	14	DL_test	20			0		ka	1	1140	6	4	antiphase_hc_sio.wav	1	6	6	noise_calib_stim_RIGHT.wav	2	34	blb_dichoticlistening_ta-ka.mp3	ta	ka	1	right
6.6.1	mac	2023-07-17	14:04:50	0	0	63e51be199687d0e5eec6f0b	2	1	DL_test	14	DL_test	21			0		ga	1	885	6	4	antiphase_hc_sio.wav	1	6	6	noise_calib_stim_RIGHT.wav	2	15	blb_dichoticlistening_ga-ga.mp3	ga	ga	0	left
6.6.1	mac	2023-07-17	14:04:50	0	0	63e51be199687d0e5eec6f0b	2	1	DL_test	14	DL_test	22			0		da	0	1673	6	4	antiphase_hc_sio.wav	1	6	6	noise_calib_stim_RIGHT.wav	2	19	blb_dichoticlistening_ka-ba.mp3	ka	ba	1	other
6.6.1	mac	2023-07-17	14:04:50	0	0	63e51be199687d0e5eec6f0b	2	1	DL_test	14	DL_test	23			0		ga	0	1173	6	4	antiphase_hc_sio.wav	1	6	6	noise_calib_stim_RIGHT.wav	2	20	blb_dichoticlistening_ka-da.mp3	ka	da	1	other
6.6.1	mac	2023-07-17	14:04:50	0	0	63e51be199687d0e5eec6f0b	2	1	DL_test	14	DL_test	24			0		ka	1	1589	6	4	antiphase_hc_sio.wav	1	6	6	noise_calib_stim_RIGHT.wav	2	4	blb_dichoticlistening_ba-ka.mp3	ba	ka	1	right
6.6.1	mac	2023-07-17	14:04:50	0	0	63e51be199687d0e5eec6f0b	2	1	DL_test	14	DL_test	25			0		ga	1	1291	6	4	antiphase_hc_sio.wav	1	6	6	noise_calib_stim_RIGHT.wav	2	13	blb_dichoticlistening_ga-ba.mp3	ga	ba	1	left
6.6.1	mac	2023-07-17	14:04:50	0	0	63e51be199687d0e5eec6f0b	2	1	DL_test	14	DL_test	26			0		ga	1	789	6	4	antiphase_hc_sio.wav	1	6	6	noise_calib_stim_RIGHT.wav	2	33	blb_dichoticlistening_ta-ga.mp3	ta	ga	1	right
6.6.1	mac	2023-07-17	14:04:50	0	0	63e51be199687d0e5eec6f0b	2	1	DL_test	14	DL_test	27			0		ta	1	1840	6	4	antiphase_hc_sio.wav	1	6	6	noise_calib_stim_RIGHT.wav	2	31	blb_dichoticlistening_ta-ba.mp3	ta	ba	1	left
6.6.1	mac	2023-07-17	14:04:50	0	0	63e51be199687d0e5eec6f0b	2	1	DL_test	14	DL_test	28			0		da	1	1389	6	4	antiphase_hc_sio.wav	1	6	6	noise_calib_stim_RIGHT.wav	2	8	blb_dichoticlistening_da-da.mp3	da	da	0	left
6.6.1	mac	2023-07-17	14:04:50	0	0	63e51be199687d0e5eec6f0b	2	1	DL_test	14	DL_test	29			0		ga	1	1207	6	4	antiphase_hc_sio.wav	1	6	6	noise_calib_stim_RIGHT.wav	2	21	blb_dichoticlistening_ka-ga.mp3	ka	ga	1	right
6.6.1	mac	2023-07-17	14:04:50	0	0	63e51be199687d0e5eec6f0b	2	1	DL_test	14	DL_test	30			0		pa	1	1390	6	4	antiphase_hc_sio.wav	1	6	6	noise_calib_stim_RIGHT.wav	2	25	blb_dichoticlistening_pa-ba.mp3	pa	ba	1	left
6.6.1	mac	2023-07-17	14:04:50	0	0	63e51be199687d0e5eec6f0b	2	1	DL_test	14	DL_test	31			0		pa	1	1190	6	4	antiphase_hc_sio.wav	1	6	6	noise_calib_stim_RIGHT.wav	2	17	blb_dichoticlistening_ga-pa.mp3	ga	pa	1	right
6.6.1	mac	2023-07-17	14:04:50	0	0	63e51be199687d0e5eec6f0b	2	1	DL_test	14	DL_test	32			0		ka	0	1173	6	4	antiphase_hc_sio.wav	1	6	6	noise_calib_stim_RIGHT.wav	2	30	blb_dichoticlistening_pa-ta.mp3	pa	ta	1	other
6.6.1	mac	2023-07-17	14:04:50	0	0	63e51be199687d0e5eec6f0b	2	1	DL_test	14	DL_test	33			0		pa	1	1290	6	4	antiphase_hc_sio.wav	1	6	6	noise_calib_stim_RIGHT.wav	2	26	blb_dichoticlistening_pa-da.mp3	pa	da	1	left
6.6.1	mac	2023-07-17	14:04:50	0	0	63e51be199687d0e5eec6f0b	2	1	DL_test	14	DL_test	34			0		ta	1	1240	6	4	antiphase_hc_sio.wav	1	6	6	noise_calib_stim_RIGHT.wav	2	36	blb_dichoticlistening_ta-ta.mp3	ta	ta	0	left
6.6.1	mac	2023-07-17	14:04:50	0	0	63e51be199687d0e5eec6f0b	2	1	DL_test	14	DL_test	35			0		ka	1	1490	6	4	antiphase_hc_sio.wav	1	6	6	noise_calib_stim_RIGHT.wav	2	24	blb_dichoticlistening_ka-ta.mp3	ka	ta	1	left
6.6.1	mac	2023-07-17	14:04:50	0	0	63e51be199687d0e5eec6f0b	2	1	DL_test	14	DL_test	36			0		ba	1	2090	6	4	antiphase_hc_sio.wav	1	6	6	noise_calib_stim_RIGHT.wav	2	2	blb_dichoticlistening_ba-da.mp3	ba	da	1	left
6.6.1	mac	2023-07-17	14:04:50	0	0	63e51be199687d0e5eec6f0b	2	1	DL_test	15	DL_test	1			0		ga	1	1406	6	4	antiphase_hc_sio.wav	1	6	6	noise_calib_stim_RIGHT.wav	2	9	blb_dichoticlistening_da-ga.mp3	da	ga	1	right
6.6.1	mac	2023-07-17	14:04:50	0	0	63e51be199687d0e5eec6f0b	2	1	DL_test	15	DL_test	2			0		ka	1	1457	6	4	antiphase_hc_sio.wav	1	6	6	noise_calib_stim_RIGHT.wav	2	22	blb_dichoticlistening_ka-ka.mp3	ka	ka	0	left
6.6.1	mac	2023-07-17	14:04:50	0	0	63e51be199687d0e5eec6f0b	2	1	DL_test	15	DL_test	3			0		pa	0	940	6	4	antiphase_hc_sio.wav	1	6	6	noise_calib_stim_RIGHT.wav	2	10	blb_dichoticlistening_da-ka.mp3	da	ka	1	other
6.6.1	mac	2023-07-17	14:04:50	0	0	63e51be199687d0e5eec6f0b	2	1	DL_test	15	DL_test	4			0		ta	1	872	6	4	antiphase_hc_sio.wav	1	6	6	noise_calib_stim_RIGHT.wav	2	36	blb_dichoticlistening_ta-ta.mp3	ta	ta	0	left
6.6.1	mac	2023-07-17	14:04:50	0	0	63e51be199687d0e5eec6f0b	2	1	DL_test	15	DL_test	5			0		da	1	1556	6	4	antiphase_hc_sio.wav	1	6	6	noise_calib_stim_RIGHT.wav	2	8	blb_dichoticlistening_da-da.mp3	da	da	0	left
6.6.1	mac	2023-07-17	14:04:50	0	0	63e51be199687d0e5eec6f0b	2	1	DL_test	15	DL_test	6			0		ta	1	2756	6	4	antiphase_hc_sio.wav	1	6	6	noise_calib_stim_RIGHT.wav	2	32	blb_dichoticlistening_ta-da.mp3	ta	da	1	left
6.6.1	mac	2023-07-17	14:04:50	0	0	63e51be199687d0e5eec6f0b	2	1	DL_test	15	DL_test	7			0		ka	0	1373	6	4	antiphase_hc_sio.wav	1	6	6	noise_calib_stim_RIGHT.wav	2	18	blb_dichoticlistening_ga-ta.mp3	ga	ta	1	other
6.6.1	mac	2023-07-17	14:04:50	0	0	63e51be199687d0e5eec6f0b	2	1	DL_test	15	DL_test	8			0		ka	1	839	6	4	antiphase_hc_sio.wav	1	6	6	noise_calib_stim_RIGHT.wav	2	16	blb_dichoticlistening_ga-ka.mp3	ga	ka	1	right
6.6.1	mac	2023-07-17	14:04:50	0	0	63e51be199687d0e5eec6f0b	2	1	DL_test	15	DL_test	9			0		ba	1	2239	6	4	antiphase_hc_sio.wav	1	6	6	noise_calib_stim_RIGHT.wav	2	4	blb_dichoticlistening_ba-ka.mp3	ba	ka	1	left
6.6.1	mac	2023-07-17	14:04:50	0	0	63e51be199687d0e5eec6f0b	2	1	DL_test	15	DL_test	10			0		ba	0	22839	6	4	antiphase_hc_sio.wav	1	6	6	noise_calib_stim_RIGHT.wav	2	21	blb_dichoticlistening_ka-ga.mp3	ka	ga	1	other
6.6.1	mac	2023-07-17	14:04:50	0	0	63e51be199687d0e5eec6f0b	2	1	DL_test	15	DL_test	11			0		ta	1	1724	6	4	antiphase_hc_sio.wav	1	6	6	noise_calib_stim_RIGHT.wav	2	31	blb_dichoticlistening_ta-ba.mp3	ta	ba	1	left
6.6.1	mac	2023-07-17	14:04:50	0	0	63e51be199687d0e5eec6f0b	2	1	DL_test	15	DL_test	12			0		pa	1	1073	6	4	antiphase_hc_sio.wav	1	6	6	noise_calib_stim_RIGHT.wav	2	26	blb_dichoticlistening_pa-da.mp3	pa	da	1	left
6.6.1	mac	2023-07-17	14:04:50	0	0	63e51be199687d0e5eec6f0b	2	1	DL_test	15	DL_test	13			0		ka	0	890	6	4	antiphase_hc_sio.wav	1	6	6	noise_calib_stim_RIGHT.wav	2	17	blb_dichoticlistening_ga-pa.mp3	ga	pa	1	other
6.6.1	mac	2023-07-17	14:04:50	0	0	63e51be199687d0e5eec6f0b	2	1	DL_test	15	DL_test	14			0		ka	1	740	6	4	antiphase_hc_sio.wav	1	6	6	noise_calib_stim_RIGHT.wav	2	34	blb_dichoticlistening_ta-ka.mp3	ta	ka	1	right
6.6.1	mac	2023-07-17	14:04:50	0	0	63e51be199687d0e5eec6f0b	2	1	DL_test	15	DL_test	15			0		da	1	1122	6	4	antiphase_hc_sio.wav	1	6	6	noise_calib_stim_RIGHT.wav	2	14	blb_dichoticlistening_ga-da.mp3	ga	da	1	right
6.6.1	mac	2023-07-17	14:04:50	0	0	63e51be199687d0e5eec6f0b	2	1	DL_test	15	DL_test	16			0		ba	1	1240	6	4	antiphase_hc_sio.wav	1	6	6	noise_calib_stim_RIGHT.wav	2	1	blb_dichoticlistening_ba-ba.mp3	ba	ba	0	left
6.6.1	mac	2023-07-17	14:04:50	0	0	63e51be199687d0e5eec6f0b	2	1	DL_test	15	DL_test	17			0		ta	1	1105	6	4	antiphase_hc_sio.wav	1	6	6	noise_calib_stim_RIGHT.wav	2	35	blb_dichoticlistening_ta-pa.mp3	ta	pa	1	left
6.6.1	mac	2023-07-17	14:04:50	0	0	63e51be199687d0e5eec6f0b	2	1	DL_test	15	DL_test	18			0		ta	1	673	6	4	antiphase_hc_sio.wav	1	6	6	noise_calib_stim_RIGHT.wav	2	12	blb_dichoticlistening_da-ta.mp3	da	ta	1	right
6.6.1	mac	2023-07-17	14:04:50	0	0	63e51be199687d0e5eec6f0b	2	1	DL_test	15	DL_test	19			0		pa	1	1106	6	4	antiphase_hc_sio.wav	1	6	6	noise_calib_stim_RIGHT.wav	2	29	blb_dichoticlistening_pa-pa.mp3	pa	pa	0	left
6.6.1	mac	2023-07-17	14:04:50	0	0	63e51be199687d0e5eec6f0b	2	1	DL_test	15	DL_test	20			0		ta	0	1423	6	4	antiphase_hc_sio.wav	1	6	6	noise_calib_stim_RIGHT.wav	2	11	blb_dichoticlistening_da-pa.mp3	da	pa	1	other
6.6.1	mac	2023-07-17	14:04:50	0	0	63e51be199687d0e5eec6f0b	2	1	DL_test	15	DL_test	21			0		ka	1	1289	6	4	antiphase_hc_sio.wav	1	6	6	noise_calib_stim_RIGHT.wav	2	28	blb_dichoticlistening_pa-ka.mp3	pa	ka	1	right
6.6.1	mac	2023-07-17	14:04:50	0	0	63e51be199687d0e5eec6f0b	2	1	DL_test	15	DL_test	22			0		ba	1	1907	6	4	antiphase_hc_sio.wav	1	6	6	noise_calib_stim_RIGHT.wav	2	2	blb_dichoticlistening_ba-da.mp3	ba	da	1	left
6.6.1	mac	2023-07-17	14:04:50	0	0	63e51be199687d0e5eec6f0b	2	1	DL_test	15	DL_test	23			0		ba	1	906	6	4	antiphase_hc_sio.wav	1	6	6	noise_calib_stim_RIGHT.wav	2	25	blb_dichoticlistening_pa-ba.mp3	pa	ba	1	right
6.6.1	mac	2023-07-17	14:04:50	0	0	63e51be199687d0e5eec6f0b	2	1	DL_test	15	DL_test	24			0		ga	0	1290	6	4	antiphase_hc_sio.wav	1	6	6	noise_calib_stim_RIGHT.wav	2	20	blb_dichoticlistening_ka-da.mp3	ka	da	1	other
6.6.1	mac	2023-07-17	14:04:50	0	0	63e51be199687d0e5eec6f0b	2	1	DL_test	15	DL_test	25			0		ga	0	990	6	4	antiphase_hc_sio.wav	1	6	6	noise_calib_stim_RIGHT.wav	2	19	blb_dichoticlistening_ka-ba.mp3	ka	ba	1	other
6.6.1	mac	2023-07-17	14:04:50	0	0	63e51be199687d0e5eec6f0b	2	1	DL_test	15	DL_test	26			0		pa	1	1889	6	4	antiphase_hc_sio.wav	1	6	6	noise_calib_stim_RIGHT.wav	2	5	blb_dichoticlistening_ba-pa.mp3	ba	pa	1	right
6.6.1	mac	2023-07-17	14:04:50	0	0	63e51be199687d0e5eec6f0b	2	1	DL_test	15	DL_test	27			0		ka	1	1106	6	4	antiphase_hc_sio.wav	1	6	6	noise_calib_stim_RIGHT.wav	2	24	blb_dichoticlistening_ka-ta.mp3	ka	ta	1	left
6.6.1	mac	2023-07-17	14:04:50	0	0	63e51be199687d0e5eec6f0b	2	1	DL_test	15	DL_test	28			0		ka	1	806	6	4	antiphase_hc_sio.wav	1	6	6	noise_calib_stim_RIGHT.wav	2	23	blb_dichoticlistening_ka-pa.mp3	ka	pa	1	left
6.6.1	mac	2023-07-17	14:04:50	0	0	63e51be199687d0e5eec6f0b	2	1	DL_test	15	DL_test	29			0		ba	1	1790	6	4	antiphase_hc_sio.wav	1	6	6	noise_calib_stim_RIGHT.wav	2	3	blb_dichoticlistening_ba-ga.mp3	ba	ga	1	left
6.6.1	mac	2023-07-17	14:04:50	0	0	63e51be199687d0e5eec6f0b	2	1	DL_test	15	DL_test	30			0		da	0	2756	6	4	antiphase_hc_sio.wav	1	6	6	noise_calib_stim_RIGHT.wav	2	33	blb_dichoticlistening_ta-ga.mp3	ta	ga	1	other
6.6.1	mac	2023-07-17	14:04:50	0	0	63e51be199687d0e5eec6f0b	2	1	DL_test	15	DL_test	31			0		ta	1	1339	6	4	antiphase_hc_sio.wav	1	6	6	noise_calib_stim_RIGHT.wav	2	30	blb_dichoticlistening_pa-ta.mp3	pa	ta	1	right
6.6.1	mac	2023-07-17	14:04:50	0	0	63e51be199687d0e5eec6f0b	2	1	DL_test	15	DL_test	32			0		ta	1	1039	6	4	antiphase_hc_sio.wav	1	6	6	noise_calib_stim_RIGHT.wav	2	6	blb_dichoticlistening_ba-ta.mp3	ba	ta	1	right
6.6.1	mac	2023-07-17	14:04:50	0	0	63e51be199687d0e5eec6f0b	2	1	DL_test	15	DL_test	33			0		ba	0	3040	6	4	antiphase_hc_sio.wav	1	6	6	noise_calib_stim_RIGHT.wav	2	27	blb_dichoticlistening_pa-ga.mp3	pa	ga	1	other
6.6.1	mac	2023-07-17	14:04:50	0	0	63e51be199687d0e5eec6f0b	2	1	DL_test	15	DL_test	34			0		ga	1	939	6	4	antiphase_hc_sio.wav	1	6	6	noise_calib_stim_RIGHT.wav	2	15	blb_dichoticlistening_ga-ga.mp3	ga	ga	0	left
6.6.1	mac	2023-07-17	14:04:50	0	0	63e51be199687d0e5eec6f0b	2	1	DL_test	15	DL_test	35			0		ga	1	873	6	4	antiphase_hc_sio.wav	1	6	6	noise_calib_stim_RIGHT.wav	2	13	blb_dichoticlistening_ga-ba.mp3	ga	ba	1	left
6.6.1	mac	2023-07-17	14:04:50	0	0	63e51be199687d0e5eec6f0b	2	1	DL_test	15	DL_test	36			0		da	1	1223	6	4	antiphase_hc_sio.wav	1	6	6	noise_calib_stim_RIGHT.wav	2	7	blb_dichoticlistening_da-ba.mp3	da	ba	1	left
6.6.1	mac	2023-07-17	14:04:50	0	0	63e51be199687d0e5eec6f0b	2	1	DL_test	16	DL_test	1			0		pa	1	1239	6	4	antiphase_hc_sio.wav	1	6	6	noise_calib_stim_RIGHT.wav	2	26	blb_dichoticlistening_pa-da.mp3	pa	da	1	left
6.6.1	mac	2023-07-17	14:04:50	0	0	63e51be199687d0e5eec6f0b	2	1	DL_test	16	DL_test	2			0		pa	1	1023	6	4	antiphase_hc_sio.wav	1	6	6	noise_calib_stim_RIGHT.wav	2	11	blb_dichoticlistening_da-pa.mp3	da	pa	1	right
6.6.1	mac	2023-07-17	14:04:50	0	0	63e51be199687d0e5eec6f0b	2	1	DL_test	16	DL_test	3			0		da	1	1056	6	4	antiphase_hc_sio.wav	1	6	6	noise_calib_stim_RIGHT.wav	2	7	blb_dichoticlistening_da-ba.mp3	da	ba	1	left
6.6.1	mac	2023-07-17	14:04:50	0	0	63e51be199687d0e5eec6f0b	2	1	DL_test	16	DL_test	4			0		ka	1	1455	6	4	antiphase_hc_sio.wav	1	6	6	noise_calib_stim_RIGHT.wav	2	19	blb_dichoticlistening_ka-ba.mp3	ka	ba	1	left
6.6.1	mac	2023-07-17	14:04:50	0	0	63e51be199687d0e5eec6f0b	2	1	DL_test	16	DL_test	5			0		pa	0	1506	6	4	antiphase_hc_sio.wav	1	6	6	noise_calib_stim_RIGHT.wav	2	10	blb_dichoticlistening_da-ka.mp3	da	ka	1	other
6.6.1	mac	2023-07-17	14:04:50	0	0	63e51be199687d0e5eec6f0b	2	1	DL_test	16	DL_test	6			0		pa	1	1089	6	4	antiphase_hc_sio.wav	1	6	6	noise_calib_stim_RIGHT.wav	2	17	blb_dichoticlistening_ga-pa.mp3	ga	pa	1	right
6.6.1	mac	2023-07-17	14:04:50	0	0	63e51be199687d0e5eec6f0b	2	1	DL_test	16	DL_test	7			0		ka	1	1373	6	4	antiphase_hc_sio.wav	1	6	6	noise_calib_stim_RIGHT.wav	2	20	blb_dichoticlistening_ka-da.mp3	ka	da	1	left
6.6.1	mac	2023-07-17	14:04:50	0	0	63e51be199687d0e5eec6f0b	2	1	DL_test	16	DL_test	8			0		ka	1	806	6	4	antiphase_hc_sio.wav	1	6	6	noise_calib_stim_RIGHT.wav	2	16	blb_dichoticlistening_ga-ka.mp3	ga	ka	1	right
6.6.1	mac	2023-07-17	14:04:50	0	0	63e51be199687d0e5eec6f0b	2	1	DL_test	16	DL_test	9			0		ba	1	1740	6	4	antiphase_hc_sio.wav	1	6	6	noise_calib_stim_RIGHT.wav	2	2	blb_dichoticlistening_ba-da.mp3	ba	da	1	left
6.6.1	mac	2023-07-17	14:04:50	0	0	63e51be199687d0e5eec6f0b	2	1	DL_test	16	DL_test	10			0		ka	1	1506	6	4	antiphase_hc_sio.wav	1	6	6	noise_calib_stim_RIGHT.wav	2	22	blb_dichoticlistening_ka-ka.mp3	ka	ka	0	left
6.6.1	mac	2023-07-17	14:04:50	0	0	63e51be199687d0e5eec6f0b	2	1	DL_test	16	DL_test	11			0		ta	1	1456	6	4	antiphase_hc_sio.wav	1	6	6	noise_calib_stim_RIGHT.wav	2	36	blb_dichoticlistening_ta-ta.mp3	ta	ta	0	left
6.6.1	mac	2023-07-17	14:04:50	0	0	63e51be199687d0e5eec6f0b	2	1	DL_test	16	DL_test	12			0		da	1	1406	6	4	antiphase_hc_sio.wav	1	6	6	noise_calib_stim_RIGHT.wav	2	8	blb_dichoticlistening_da-da.mp3	da	da	0	left
6.6.1	mac	2023-07-17	14:04:50	0	0	63e51be199687d0e5eec6f0b	2	1	DL_test	16	DL_test	13			0		ka	1	1355	6	4	antiphase_hc_sio.wav	1	6	6	noise_calib_stim_RIGHT.wav	2	23	blb_dichoticlistening_ka-pa.mp3	ka	pa	1	left
6.6.1	mac	2023-07-17	14:04:50	0	0	63e51be199687d0e5eec6f0b	2	1	DL_test	16	DL_test	14			0		pa	1	1173	6	4	antiphase_hc_sio.wav	1	6	6	noise_calib_stim_RIGHT.wav	2	25	blb_dichoticlistening_pa-ba.mp3	pa	ba	1	left
6.6.1	mac	2023-07-17	14:04:50	0	0	63e51be199687d0e5eec6f0b	2	1	DL_test	16	DL_test	15			0		ba	1	2089	6	4	antiphase_hc_sio.wav	1	6	6	noise_calib_stim_RIGHT.wav	2	3	blb_dichoticlistening_ba-ga.mp3	ba	ga	1	left
6.6.1	mac	2023-07-17	14:04:50	0	0	63e51be199687d0e5eec6f0b	2	1	DL_test	16	DL_test	16			0		ga	1	1207	6	4	antiphase_hc_sio.wav	1	6	6	noise_calib_stim_RIGHT.wav	2	21	blb_dichoticlistening_ka-ga.mp3	ka	ga	1	right
6.6.1	mac	2023-07-17	14:04:50	0	0	63e51be199687d0e5eec6f0b	2	1	DL_test	16	DL_test	17			0		pa	1	1273	6	4	antiphase_hc_sio.wav	1	6	6	noise_calib_stim_RIGHT.wav	2	27	blb_dichoticlistening_pa-ga.mp3	pa	ga	1	left
6.6.1	mac	2023-07-17	14:04:50	0	0	63e51be199687d0e5eec6f0b	2	1	DL_test	16	DL_test	18			0		ka	1	1789	6	4	antiphase_hc_sio.wav	1	6	6	noise_calib_stim_RIGHT.wav	2	4	blb_dichoticlistening_ba-ka.mp3	ba	ka	1	right
6.6.1	mac	2023-07-17	14:04:50	0	0	63e51be199687d0e5eec6f0b	2	1	DL_test	16	DL_test	19			0		ta	1	1523	6	4	antiphase_hc_sio.wav	1	6	6	noise_calib_stim_RIGHT.wav	2	24	blb_dichoticlistening_ka-ta.mp3	ka	ta	1	right
6.6.1	mac	2023-07-17	14:04:50	0	0	63e51be199687d0e5eec6f0b	2	1	DL_test	16	DL_test	20			0		ka	1	1156	6	4	antiphase_hc_sio.wav	1	6	6	noise_calib_stim_RIGHT.wav	2	34	blb_dichoticlistening_ta-ka.mp3	ta	ka	1	right
6.6.1	mac	2023-07-17	14:04:50	0	0	63e51be199687d0e5eec6f0b	2	1	DL_test	16	DL_test	21			0		da	1	1356	6	4	antiphase_hc_sio.wav	1	6	6	noise_calib_stim_RIGHT.wav	2	32	blb_dichoticlistening_ta-da.mp3	ta	da	1	right
6.6.1	mac	2023-07-17	14:04:50	0	0	63e51be199687d0e5eec6f0b	2	1	DL_test	16	DL_test	22			0		ga	1	855	6	4	antiphase_hc_sio.wav	1	6	6	noise_calib_stim_RIGHT.wav	2	15	blb_dichoticlistening_ga-ga.mp3	ga	ga	0	left
6.6.1	mac	2023-07-17	14:04:50	0	0	63e51be199687d0e5eec6f0b	2	1	DL_test	16	DL_test	23			0		ga	1	1455	6	4	antiphase_hc_sio.wav	1	6	6	noise_calib_stim_RIGHT.wav	2	13	blb_dichoticlistening_ga-ba.mp3	ga	ba	1	left
6.6.1	mac	2023-07-17	14:04:50	0	0	63e51be199687d0e5eec6f0b	2	1	DL_test	16	DL_test	24			0		pa	0	1588	6	4	antiphase_hc_sio.wav	1	6	6	noise_calib_stim_RIGHT.wav	2	31	blb_dichoticlistening_ta-ba.mp3	ta	ba	1	other
6.6.1	mac	2023-07-17	14:04:50	0	0	63e51be199687d0e5eec6f0b	2	1	DL_test	16	DL_test	25			0		pa	1	1122	6	4	antiphase_hc_sio.wav	1	6	6	noise_calib_stim_RIGHT.wav	2	5	blb_dichoticlistening_ba-pa.mp3	ba	pa	1	right
6.6.1	mac	2023-07-17	14:04:50	0	0	63e51be199687d0e5eec6f0b	2	1	DL_test	16	DL_test	26			0		da	1	1206	6	4	antiphase_hc_sio.wav	1	6	6	noise_calib_stim_RIGHT.wav	2	14	blb_dichoticlistening_ga-da.mp3	ga	da	1	right
6.6.1	mac	2023-07-17	14:04:50	0	0	63e51be199687d0e5eec6f0b	2	1	DL_test	16	DL_test	27			0		ta	1	1439	6	4	antiphase_hc_sio.wav	1	6	6	noise_calib_stim_RIGHT.wav	2	12	blb_dichoticlistening_da-ta.mp3	da	ta	1	right
6.6.1	mac	2023-07-17	14:04:50	0	0	63e51be199687d0e5eec6f0b	2	1	DL_test	16	DL_test	28			0		ka	1	1540	6	4	antiphase_hc_sio.wav	1	6	6	noise_calib_stim_RIGHT.wav	2	28	blb_dichoticlistening_pa-ka.mp3	pa	ka	1	right
6.6.1	mac	2023-07-17	14:04:50	0	0	63e51be199687d0e5eec6f0b	2	1	DL_test	16	DL_test	29			0		ta	1	1489	6	4	antiphase_hc_sio.wav	1	6	6	noise_calib_stim_RIGHT.wav	2	30	blb_dichoticlistening_pa-ta.mp3	pa	ta	1	right
6.6.1	mac	2023-07-17	14:04:50	0	0	63e51be199687d0e5eec6f0b	2	1	DL_test	16	DL_test	30			0		da	1	1406	6	4	antiphase_hc_sio.wav	1	6	6	noise_calib_stim_RIGHT.wav	2	9	blb_dichoticlistening_da-ga.mp3	da	ga	1	left
6.6.1	mac	2023-07-17	14:04:50	0	0	63e51be199687d0e5eec6f0b	2	1	DL_test	16	DL_test	31			0		da	0	1305	6	4	antiphase_hc_sio.wav	1	6	6	noise_calib_stim_RIGHT.wav	2	18	blb_dichoticlistening_ga-ta.mp3	ga	ta	1	other
6.6.1	mac	2023-07-17	14:04:50	0	0	63e51be199687d0e5eec6f0b	2	1	DL_test	16	DL_test	32			0		pa	1	1372	6	4	antiphase_hc_sio.wav	1	6	6	noise_calib_stim_RIGHT.wav	2	35	blb_dichoticlistening_ta-pa.mp3	ta	pa	1	right
6.6.1	mac	2023-07-17	14:04:50	0	0	63e51be199687d0e5eec6f0b	2	1	DL_test	16	DL_test	33			0		ba	1	1423	6	4	antiphase_hc_sio.wav	1	6	6	noise_calib_stim_RIGHT.wav	2	1	blb_dichoticlistening_ba-ba.mp3	ba	ba	0	left
6.6.1	mac	2023-07-17	14:04:50	0	0	63e51be199687d0e5eec6f0b	2	1	DL_test	16	DL_test	34			0		ta	1	989	6	4	antiphase_hc_sio.wav	1	6	6	noise_calib_stim_RIGHT.wav	2	33	blb_dichoticlistening_ta-ga.mp3	ta	ga	1	left
6.6.1	mac	2023-07-17	14:04:50	0	0	63e51be199687d0e5eec6f0b	2	1	DL_test	16	DL_test	35			0		ta	1	1489	6	4	antiphase_hc_sio.wav	1	6	6	noise_calib_stim_RIGHT.wav	2	6	blb_dichoticlistening_ba-ta.mp3	ba	ta	1	right
6.6.1	mac	2023-07-17	14:04:50	0	0	63e51be199687d0e5eec6f0b	2	1	DL_test	16	DL_test	36			0		pa	1	1471	6	4	antiphase_hc_sio.wav	1	6	6	noise_calib_stim_RIGHT.wav	2	29	blb_dichoticlistening_pa-pa.mp3	pa	pa	0	left
6.6.1	mac	2023-07-17	14:04:50	14:22:14	1040783	63e51be199687d0e5eec6f0b	2	1	practice_z	22	practice_z	1	stimuli_distractor_diamondtriangles.svg	stimuli_distractor_diamondtriangles.svg	13	no	0	1	2000	6	4	antiphase_hc_sio.wav	1	6	6	noise_calib_stim_RIGHT.wav	2	29	blb_dichoticlistening_pa-pa.mp3	pa	pa	0	left
6.6.1	mac	2023-07-17	14:04:50	14:22:14	1040783	63e51be199687d0e5eec6f0b	2	1	practice_z	22	advance_on_keypress_ZEE	2	stimuli_distractor_diamondtriangles.svg	stimuli_distractor_diamondtriangles.svg	13	no	57	0	1255	6	4	antiphase_hc_sio.wav	1	6	6	noise_calib_stim_RIGHT.wav	2	29	blb_dichoticlistening_pa-pa.mp3	pa	pa	0	left
6.6.1	mac	2023-07-17	14:04:50	14:22:19	1045682	63e51be199687d0e5eec6f0b	2	1	practice_z	22	practice_z	3	stimuli_distractor_trianglediamonds.svg	stimuli_distractor_trianglediamonds.svg	15	no	0	1	2000	6	4	antiphase_hc_sio.wav	1	6	6	noise_calib_stim_RIGHT.wav	2	29	blb_dichoticlistening_pa-pa.mp3	pa	pa	0	left
6.6.1	mac	2023-07-17	14:04:50	14:22:19	1045682	63e51be199687d0e5eec6f0b	2	1	practice_z	22	advance_on_keypress_ZEE	4	stimuli_distractor_trianglediamonds.svg	stimuli_distractor_trianglediamonds.svg	15	no	57	0	917	6	4	antiphase_hc_sio.wav	1	6	6	noise_calib_stim_RIGHT.wav	2	29	blb_dichoticlistening_pa-pa.mp3	pa	pa	0	left
6.6.1	mac	2023-07-17	14:04:50	14:22:24	1050231	63e51be199687d0e5eec6f0b	2	1	practice_z	22	practice_z	5	stimuli_distractor_trianglediamonds.svg	stimuli_distractor_diamondtriangles.svg	16	no	0	1	2000	6	4	antiphase_hc_sio.wav	1	6	6	noise_calib_stim_RIGHT.wav	2	29	blb_dichoticlistening_pa-pa.mp3	pa	pa	0	left
6.6.1	mac	2023-07-17	14:04:50	14:22:24	1050231	63e51be199687d0e5eec6f0b	2	1	practice_z	22	advance_on_keypress_ZEE	6	stimuli_distractor_trianglediamonds.svg	stimuli_distractor_diamondtriangles.svg	16	no	57	0	724	6	4	antiphase_hc_sio.wav	1	6	6	noise_calib_stim_RIGHT.wav	2	29	blb_dichoticlistening_pa-pa.mp3	pa	pa	0	left
6.6.1	mac	2023-07-17	14:04:50	14:22:26	1053083	63e51be199687d0e5eec6f0b	2	1	practice_z	22	practice_z	7	stimuli_target_rectanglediamonds.svg	stimuli_distractor_diamondtriangles.svg	1	yes	44	1	502	6	4	antiphase_hc_sio.wav	1	6	6	noise_calib_stim_RIGHT.wav	2	29	blb_dichoticlistening_pa-pa.mp3	pa	pa	0	left
6.6.1	mac	2023-07-17	14:04:50	14:22:26	1053083	63e51be199687d0e5eec6f0b	2	1	practice_z	22	advance_on_keypress_ZEE	8	stimuli_target_rectanglediamonds.svg	stimuli_distractor_diamondtriangles.svg	1	yes	57	0	1120	6	4	antiphase_hc_sio.wav	1	6	6	noise_calib_stim_RIGHT.wav	2	29	blb_dichoticlistening_pa-pa.mp3	pa	pa	0	left
6.6.1	mac	2023-07-17	14:04:50	14:22:30	1056722	63e51be199687d0e5eec6f0b	2	1	practice_z	22	practice_z	9	stimuli_target_diamondsquares.svg	stimuli_distractor_diamondtriangles.svg	3	yes	44	1	892	6	4	antiphase_hc_sio.wav	1	6	6	noise_calib_stim_RIGHT.wav	2	29	blb_dichoticlistening_pa-pa.mp3	pa	pa	0	left
6.6.1	mac	2023-07-17	14:04:50	14:22:30	1056722	63e51be199687d0e5eec6f0b	2	1	practice_z	22	advance_on_keypress_ZEE	10	stimuli_target_diamondsquares.svg	stimuli_distractor_diamondtriangles.svg	3	yes	57	0	952	6	4	antiphase_hc_sio.wav	1	6	6	noise_calib_stim_RIGHT.wav	2	29	blb_dichoticlistening_pa-pa.mp3	pa	pa	0	left
6.6.1	mac	2023-07-17	14:04:50	14:22:34	1060272	63e51be199687d0e5eec6f0b	2	1	practice_z	22	practice_z	11	stimuli_target_diamondsquares.svg	stimuli_distractor_trianglediamonds.svg	6	yes	44	1	976	6	4	antiphase_hc_sio.wav	1	6	6	noise_calib_stim_RIGHT.wav	2	29	blb_dichoticlistening_pa-pa.mp3	pa	pa	0	left
6.6.1	mac	2023-07-17	14:04:50	14:22:34	1060272	63e51be199687d0e5eec6f0b	2	1	practice_z	22	advance_on_keypress_ZEE	12	stimuli_target_diamondsquares.svg	stimuli_distractor_trianglediamonds.svg	6	yes	57	0	626	6	4	antiphase_hc_sio.wav	1	6	6	noise_calib_stim_RIGHT.wav	2	29	blb_dichoticlistening_pa-pa.mp3	pa	pa	0	left
6.6.1	mac	2023-07-17	14:04:50	14:22:37	1063655	63e51be199687d0e5eec6f0b	2	1	practice_z	22	practice_z	13	stimuli_distractor_trianglediamonds.svg	stimuli_target_squarediamonds.svg	11	yes	44	1	1124	6	4	antiphase_hc_sio.wav	1	6	6	noise_calib_stim_RIGHT.wav	2	29	blb_dichoticlistening_pa-pa.mp3	pa	pa	0	left
6.6.1	mac	2023-07-17	14:04:50	14:22:37	1063655	63e51be199687d0e5eec6f0b	2	1	practice_z	22	advance_on_keypress_ZEE	14	stimuli_distractor_trianglediamonds.svg	stimuli_target_squarediamonds.svg	11	yes	57	0	526	6	4	antiphase_hc_sio.wav	1	6	6	noise_calib_stim_RIGHT.wav	2	29	blb_dichoticlistening_pa-pa.mp3	pa	pa	0	left
6.6.1	mac	2023-07-17	14:04:50	14:22:40	1066347	63e51be199687d0e5eec6f0b	2	1	practice_z	22	practice_z	15	stimuli_distractor_diamondtriangles.svg	stimuli_target_trianglerectangles.svg	9	yes	44	1	536	6	4	antiphase_hc_sio.wav	1	6	6	noise_calib_stim_RIGHT.wav	2	29	blb_dichoticlistening_pa-pa.mp3	pa	pa	0	left
6.6.1	mac	2023-07-17	14:04:50	14:22:40	1066347	63e51be199687d0e5eec6f0b	2	1	practice_z	22	advance_on_keypress_ZEE	16	stimuli_distractor_diamondtriangles.svg	stimuli_target_trianglerectangles.svg	9	yes	57	0	1092	6	4	antiphase_hc_sio.wav	1	6	6	noise_calib_stim_RIGHT.wav	2	29	blb_dichoticlistening_pa-pa.mp3	pa	pa	0	left
6.6.1	mac	2023-07-17	14:04:50	14:22:43	1069754	63e51be199687d0e5eec6f0b	2	1	practice_z	22	practice_z	17	stimuli_distractor_diamondtriangles.svg	stimuli_target_diamondrectangles.svg	8	yes	44	1	675	6	4	antiphase_hc_sio.wav	1	6	6	noise_calib_stim_RIGHT.wav	2	29	blb_dichoticlistening_pa-pa.mp3	pa	pa	0	left
6.6.1	mac	2023-07-17	14:04:50	14:22:43	1069754	63e51be199687d0e5eec6f0b	2	1	practice_z	22	advance_on_keypress_ZEE	18	stimuli_distractor_diamondtriangles.svg	stimuli_target_diamondrectangles.svg	8	yes	57	0	401	6	4	antiphase_hc_sio.wav	1	6	6	noise_calib_stim_RIGHT.wav	2	29	blb_dichoticlistening_pa-pa.mp3	pa	pa	0	left
6.6.1	mac	2023-07-17	14:04:50	14:22:46	1072309	63e51be199687d0e5eec6f0b	2	1	practice_z	22	practice_z	19	stimuli_target_squarediamonds.svg	stimuli_distractor_diamondtriangles.svg	2	yes	44	1	532	6	4	antiphase_hc_sio.wav	1	6	6	noise_calib_stim_RIGHT.wav	2	29	blb_dichoticlistening_pa-pa.mp3	pa	pa	0	left
6.6.1	mac	2023-07-17	14:04:50	14:22:46	1072309	63e51be199687d0e5eec6f0b	2	1	practice_z	22	advance_on_keypress_ZEE	20	stimuli_target_squarediamonds.svg	stimuli_distractor_diamondtriangles.svg	2	yes	57	0	111	6	4	antiphase_hc_sio.wav	1	6	6	noise_calib_stim_RIGHT.wav	2	29	blb_dichoticlistening_pa-pa.mp3	pa	pa	0	left
6.6.1	mac	2023-07-17	14:04:50	14:22:48	1074602	63e51be199687d0e5eec6f0b	2	1	practice_z	22	practice_z	21	stimuli_target_squarediamonds.svg	stimuli_distractor_trianglediamonds.svg	5	yes	44	1	557	6	4	antiphase_hc_sio.wav	1	6	6	noise_calib_stim_RIGHT.wav	2	29	blb_dichoticlistening_pa-pa.mp3	pa	pa	0	left
6.6.1	mac	2023-07-17	14:04:50	14:22:48	1074602	63e51be199687d0e5eec6f0b	2	1	practice_z	22	advance_on_keypress_ZEE	22	stimuli_target_squarediamonds.svg	stimuli_distractor_trianglediamonds.svg	5	yes	57	0	461	6	4	antiphase_hc_sio.wav	1	6	6	noise_calib_stim_RIGHT.wav	2	29	blb_dichoticlistening_pa-pa.mp3	pa	pa	0	left
6.6.1	mac	2023-07-17	14:04:50	14:22:51	1077528	63e51be199687d0e5eec6f0b	2	1	practice_z	22	practice_z	23	stimuli_distractor_diamondtriangles.svg	stimuli_target_rectangletriangles.svg	7	yes	44	1	833	6	4	antiphase_hc_sio.wav	1	6	6	noise_calib_stim_RIGHT.wav	2	29	blb_dichoticlistening_pa-pa.mp3	pa	pa	0	left
6.6.1	mac	2023-07-17	14:04:50	14:22:51	1077528	63e51be199687d0e5eec6f0b	2	1	practice_z	22	advance_on_keypress_ZEE	24	stimuli_distractor_diamondtriangles.svg	stimuli_target_rectangletriangles.svg	7	yes	57	0	350	6	4	antiphase_hc_sio.wav	1	6	6	noise_calib_stim_RIGHT.wav	2	29	blb_dichoticlistening_pa-pa.mp3	pa	pa	0	left
6.6.1	mac	2023-07-17	14:04:50	14:22:55	1081514	63e51be199687d0e5eec6f0b	2	1	practice_z	22	practice_z	25	stimuli_distractor_diamondtriangles.svg	stimuli_distractor_trianglediamonds.svg	14	no	0	1	2000	6	4	antiphase_hc_sio.wav	1	6	6	noise_calib_stim_RIGHT.wav	2	29	blb_dichoticlistening_pa-pa.mp3	pa	pa	0	left
6.6.1	mac	2023-07-17	14:04:50	14:22:55	1081514	63e51be199687d0e5eec6f0b	2	1	practice_z	22	advance_on_keypress_ZEE	26	stimuli_distractor_diamondtriangles.svg	stimuli_distractor_trianglediamonds.svg	14	no	57	0	375	6	4	antiphase_hc_sio.wav	1	6	6	noise_calib_stim_RIGHT.wav	2	29	blb_dichoticlistening_pa-pa.mp3	pa	pa	0	left
6.6.1	mac	2023-07-17	14:04:50	14:22:58	1084291	63e51be199687d0e5eec6f0b	2	1	practice_z	22	practice_z	27	stimuli_target_rectanglediamonds.svg	stimuli_distractor_trianglediamonds.svg	4	yes	44	1	778	6	4	antiphase_hc_sio.wav	1	6	6	noise_calib_stim_RIGHT.wav	2	29	blb_dichoticlistening_pa-pa.mp3	pa	pa	0	left
6.6.1	mac	2023-07-17	14:04:50	14:22:58	1084291	63e51be199687d0e5eec6f0b	2	1	practice_z	22	advance_on_keypress_ZEE	28	stimuli_target_rectanglediamonds.svg	stimuli_distractor_trianglediamonds.svg	4	yes	57	0	464	6	4	antiphase_hc_sio.wav	1	6	6	noise_calib_stim_RIGHT.wav	2	29	blb_dichoticlistening_pa-pa.mp3	pa	pa	0	left
6.6.1	mac	2023-07-17	14:04:50	14:23:01	1087364	63e51be199687d0e5eec6f0b	2	1	practice_z	22	practice_z	29	stimuli_distractor_trianglediamonds.svg	stimuli_target_diamondrectangles.svg	12	yes	44	1	969	6	4	antiphase_hc_sio.wav	1	6	6	noise_calib_stim_RIGHT.wav	2	29	blb_dichoticlistening_pa-pa.mp3	pa	pa	0	left
6.6.1	mac	2023-07-17	14:04:50	14:23:01	1087364	63e51be199687d0e5eec6f0b	2	1	practice_z	22	advance_on_keypress_ZEE	30	stimuli_distractor_trianglediamonds.svg	stimuli_target_diamondrectangles.svg	12	yes	57	0	371	6	4	antiphase_hc_sio.wav	1	6	6	noise_calib_stim_RIGHT.wav	2	29	blb_dichoticlistening_pa-pa.mp3	pa	pa	0	left
6.6.1	mac	2023-07-17	14:04:50	14:23:04	1090180	63e51be199687d0e5eec6f0b	2	1	practice_z	22	practice_z	31	stimuli_distractor_trianglediamonds.svg	stimuli_target_rectanglediamonds.svg	10	yes	44	1	817	6	4	antiphase_hc_sio.wav	1	6	6	noise_calib_stim_RIGHT.wav	2	29	blb_dichoticlistening_pa-pa.mp3	pa	pa	0	left
6.6.1	mac	2023-07-17	14:04:50	14:23:04	1090180	63e51be199687d0e5eec6f0b	2	1	practice_z	22	advance_on_keypress_ZEE	32	stimuli_distractor_trianglediamonds.svg	stimuli_target_rectanglediamonds.svg	10	yes	57	0	704	6	4	antiphase_hc_sio.wav	1	6	6	noise_calib_stim_RIGHT.wav	2	29	blb_dichoticlistening_pa-pa.mp3	pa	pa	0	left
6.6.1	mac	2023-07-17	14:04:50	14:23:12	1098945	63e51be199687d0e5eec6f0b	2	1	main_z	24	main_z	1	stimuli_distractor_trianglediamonds.svg	stimuli_target_trianglesquares.svg	26	yes	44	1	917	6	4	antiphase_hc_sio.wav	1	6	6	noise_calib_stim_RIGHT.wav	2	29	blb_dichoticlistening_pa-pa.mp3	pa	pa	0	left
6.6.1	mac	2023-07-17	14:04:50	14:23:12	1098945	63e51be199687d0e5eec6f0b	2	1	main_z	24	advance_on_keypress_ZEE	2	stimuli_distractor_trianglediamonds.svg	stimuli_target_trianglesquares.svg	26	yes	57	0	897	6	4	antiphase_hc_sio.wav	1	6	6	noise_calib_stim_RIGHT.wav	2	29	blb_dichoticlistening_pa-pa.mp3	pa	pa	0	left
6.6.1	mac	2023-07-17	14:04:50	14:23:15	1101326	63e51be199687d0e5eec6f0b	2	1	main_z	24	main_z	3	stimuli_distractor_diamondtriangles.svg	stimuli_target_rectangletriangles.svg	13	yes	44	1	849	6	4	antiphase_hc_sio.wav	1	6	6	noise_calib_stim_RIGHT.wav	2	29	blb_dichoticlistening_pa-pa.mp3	pa	pa	0	left
6.6.1	mac	2023-07-17	14:04:50	14:23:15	1101326	63e51be199687d0e5eec6f0b	2	1	main_z	24	advance_on_keypress_ZEE	4	stimuli_distractor_diamondtriangles.svg	stimuli_target_rectangletriangles.svg	13	yes	57	0	947	6	4	antiphase_hc_sio.wav	1	6	6	noise_calib_stim_RIGHT.wav	2	29	blb_dichoticlistening_pa-pa.mp3	pa	pa	0	left
6.6.1	mac	2023-07-17	14:04:50	14:23:17	1103815	63e51be199687d0e5eec6f0b	2	1	main_z	24	main_z	5	stimuli_distractor_trianglediamonds.svg	stimuli_target_squarediamonds.svg	12	yes	44	1	903	6	4	antiphase_hc_sio.wav	1	6	6	noise_calib_stim_RIGHT.wav	2	29	blb_dichoticlistening_pa-pa.mp3	pa	pa	0	left
6.6.1	mac	2023-07-17	14:04:50	14:23:17	1103815	63e51be199687d0e5eec6f0b	2	1	main_z	24	advance_on_keypress_ZEE	6	stimuli_distractor_trianglediamonds.svg	stimuli_target_squarediamonds.svg	12	yes	57	0	657	6	4	antiphase_hc_sio.wav	1	6	6	noise_calib_stim_RIGHT.wav	2	29	blb_dichoticlistening_pa-pa.mp3	pa	pa	0	left
6.6.1	mac	2023-07-17	14:04:50	14:23:19	1106052	63e51be199687d0e5eec6f0b	2	1	main_z	24	main_z	7	stimuli_target_rectangletriangles.svg	stimuli_distractor_diamondtriangles.svg	5	yes	44	1	956	6	4	antiphase_hc_sio.wav	1	6	6	noise_calib_stim_RIGHT.wav	2	29	blb_dichoticlistening_pa-pa.mp3	pa	pa	0	left
6.6.1	mac	2023-07-17	14:04:50	14:23:19	1106052	63e51be199687d0e5eec6f0b	2	1	main_z	24	advance_on_keypress_ZEE	8	stimuli_target_rectangletriangles.svg	stimuli_distractor_diamondtriangles.svg	5	yes	57	0	817	6	4	antiphase_hc_sio.wav	1	6	6	noise_calib_stim_RIGHT.wav	2	29	blb_dichoticlistening_pa-pa.mp3	pa	pa	0	left
6.6.1	mac	2023-07-17	14:04:50	14:23:22	1108182	63e51be199687d0e5eec6f0b	2	1	main_z	24	main_z	9	stimuli_distractor_trianglediamonds.svg	stimuli_target_diamondsquares.svg	28	yes	44	1	687	6	4	antiphase_hc_sio.wav	1	6	6	noise_calib_stim_RIGHT.wav	2	29	blb_dichoticlistening_pa-pa.mp3	pa	pa	0	left
6.6.1	mac	2023-07-17	14:04:50	14:23:22	1108182	63e51be199687d0e5eec6f0b	2	1	main_z	24	advance_on_keypress_ZEE	10	stimuli_distractor_trianglediamonds.svg	stimuli_target_diamondsquares.svg	28	yes	57	0	1024	6	4	antiphase_hc_sio.wav	1	6	6	noise_calib_stim_RIGHT.wav	2	29	blb_dichoticlistening_pa-pa.mp3	pa	pa	0	left
6.6.1	mac	2023-07-17	14:04:50	14:23:25	1111829	63e51be199687d0e5eec6f0b	2	1	main_z	24	main_z	11	stimuli_distractor_diamondtriangles.svg	stimuli_distractor_diamondtriangles.svg	40	no	0	1	2000	6	4	antiphase_hc_sio.wav	1	6	6	noise_calib_stim_RIGHT.wav	2	29	blb_dichoticlistening_pa-pa.mp3	pa	pa	0	left
6.6.1	mac	2023-07-17	14:04:50	14:23:25	1111829	63e51be199687d0e5eec6f0b	2	1	main_z	24	advance_on_keypress_ZEE	12	stimuli_distractor_diamondtriangles.svg	stimuli_distractor_diamondtriangles.svg	40	no	57	0	1019	6	4	antiphase_hc_sio.wav	1	6	6	noise_calib_stim_RIGHT.wav	2	29	blb_dichoticlistening_pa-pa.mp3	pa	pa	0	left
6.6.1	mac	2023-07-17	14:04:50	14:23:28	1114290	63e51be199687d0e5eec6f0b	2	1	main_z	24	main_z	13	stimuli_target_squaretriangles.svg	stimuli_distractor_trianglediamonds.svg	3	yes	44	1	811	6	4	antiphase_hc_sio.wav	1	6	6	noise_calib_stim_RIGHT.wav	2	29	blb_dichoticlistening_pa-pa.mp3	pa	pa	0	left
6.6.1	mac	2023-07-17	14:04:50	14:23:28	1114290	63e51be199687d0e5eec6f0b	2	1	main_z	24	advance_on_keypress_ZEE	14	stimuli_target_squaretriangles.svg	stimuli_distractor_trianglediamonds.svg	3	yes	57	0	1172	6	4	antiphase_hc_sio.wav	1	6	6	noise_calib_stim_RIGHT.wav	2	29	blb_dichoticlistening_pa-pa.mp3	pa	pa	0	left
6.6.1	mac	2023-07-17	14:04:50	14:23:30	1117120	63e51be199687d0e5eec6f0b	2	1	main_z	24	main_z	15	stimuli_distractor_trianglediamonds.svg	stimuli_target_squaretriangles.svg	11	yes	44	1	1025	6	4	antiphase_hc_sio.wav	1	6	6	noise_calib_stim_RIGHT.wav	2	29	blb_dichoticlistening_pa-pa.mp3	pa	pa	0	left
6.6.1	mac	2023-07-17	14:04:50	14:23:30	1117120	63e51be199687d0e5eec6f0b	2	1	main_z	24	advance_on_keypress_ZEE	16	stimuli_distractor_trianglediamonds.svg	stimuli_target_squaretriangles.svg	11	yes	57	0	1799	6	4	antiphase_hc_sio.wav	1	6	6	noise_calib_stim_RIGHT.wav	2	29	blb_dichoticlistening_pa-pa.mp3	pa	pa	0	left
6.6.1	mac	2023-07-17	14:04:50	14:23:34	1120558	63e51be199687d0e5eec6f0b	2	1	main_z	24	main_z	17	stimuli_distractor_diamondtriangles.svg	stimuli_target_rectanglediamonds.svg	14	yes	44	1	998	6	4	antiphase_hc_sio.wav	1	6	6	noise_calib_stim_RIGHT.wav	2	29	blb_dichoticlistening_pa-pa.mp3	pa	pa	0	left
6.6.1	mac	2023-07-17	14:04:50	14:23:34	1120558	63e51be199687d0e5eec6f0b	2	1	main_z	24	advance_on_keypress_ZEE	18	stimuli_distractor_diamondtriangles.svg	stimuli_target_rectanglediamonds.svg	14	yes	57	0	911	6	4	antiphase_hc_sio.wav	1	6	6	noise_calib_stim_RIGHT.wav	2	29	blb_dichoticlistening_pa-pa.mp3	pa	pa	0	left
6.6.1	mac	2023-07-17	14:04:50	14:23:36	1123103	63e51be199687d0e5eec6f0b	2	1	main_z	24	main_z	19	stimuli_distractor_diamondtriangles.svg	stimuli_target_squaretriangles.svg	15	yes	44	1	1009	6	4	antiphase_hc_sio.wav	1	6	6	noise_calib_stim_RIGHT.wav	2	29	blb_dichoticlistening_pa-pa.mp3	pa	pa	0	left
6.6.1	mac	2023-07-17	14:04:50	14:23:36	1123103	63e51be199687d0e5eec6f0b	2	1	main_z	24	advance_on_keypress_ZEE	20	stimuli_distractor_diamondtriangles.svg	stimuli_target_squaretriangles.svg	15	yes	57	0	656	6	4	antiphase_hc_sio.wav	1	6	6	noise_calib_stim_RIGHT.wav	2	29	blb_dichoticlistening_pa-pa.mp3	pa	pa	0	left
6.6.1	mac	2023-07-17	14:04:50	14:23:40	1126380	63e51be199687d0e5eec6f0b	2	1	main_z	24	main_z	21	stimuli_distractor_trianglediamonds.svg	stimuli_distractor_diamondtriangles.svg	36	no	0	1	2000	6	4	antiphase_hc_sio.wav	1	6	6	noise_calib_stim_RIGHT.wav	2	29	blb_dichoticlistening_pa-pa.mp3	pa	pa	0	left
6.6.1	mac	2023-07-17	14:04:50	14:23:40	1126380	63e51be199687d0e5eec6f0b	2	1	main_z	24	advance_on_keypress_ZEE	22	stimuli_distractor_trianglediamonds.svg	stimuli_distractor_diamondtriangles.svg	36	no	57	0	665	6	4	antiphase_hc_sio.wav	1	6	6	noise_calib_stim_RIGHT.wav	2	29	blb_dichoticlistening_pa-pa.mp3	pa	pa	0	left
6.6.1	mac	2023-07-17	14:04:50	14:23:42	1128353	63e51be199687d0e5eec6f0b	2	1	main_z	24	main_z	23	stimuli_target_rectanglediamonds.svg	stimuli_distractor_diamondtriangles.svg	6	yes	44	1	675	6	4	antiphase_hc_sio.wav	1	6	6	noise_calib_stim_RIGHT.wav	2	29	blb_dichoticlistening_pa-pa.mp3	pa	pa	0	left
6.6.1	mac	2023-07-17	14:04:50	14:23:42	1128353	63e51be199687d0e5eec6f0b	2	1	main_z	24	advance_on_keypress_ZEE	24	stimuli_target_rectanglediamonds.svg	stimuli_distractor_diamondtriangles.svg	6	yes	57	0	1193	6	4	antiphase_hc_sio.wav	1	6	6	noise_calib_stim_RIGHT.wav	2	29	blb_dichoticlistening_pa-pa.mp3	pa	pa	0	left
6.6.1	mac	2023-07-17	14:04:50	14:23:45	1131189	63e51be199687d0e5eec6f0b	2	1	main_z	24	main_z	25	stimuli_target_diamondsquares.svg	stimuli_distractor_diamondtriangles.svg	24	yes	44	1	1010	6	4	antiphase_hc_sio.wav	1	6	6	noise_calib_stim_RIGHT.wav	2	29	blb_dichoticlistening_pa-pa.mp3	pa	pa	0	left
6.6.1	mac	2023-07-17	14:04:50	14:23:45	1131189	63e51be199687d0e5eec6f0b	2	1	main_z	24	advance_on_keypress_ZEE	26	stimuli_target_diamondsquares.svg	stimuli_distractor_diamondtriangles.svg	24	yes	57	0	1102	6	4	antiphase_hc_sio.wav	1	6	6	noise_calib_stim_RIGHT.wav	2	29	blb_dichoticlistening_pa-pa.mp3	pa	pa	0	left
6.6.1	mac	2023-07-17	14:04:50	14:23:47	1133639	63e51be199687d0e5eec6f0b	2	1	main_z	24	main_z	27	stimuli_distractor_diamondtriangles.svg	stimuli_target_trianglerectangles.svg	29	yes	44	1	728	6	4	antiphase_hc_sio.wav	1	6	6	noise_calib_stim_RIGHT.wav	2	29	blb_dichoticlistening_pa-pa.mp3	pa	pa	0	left
6.6.1	mac	2023-07-17	14:04:50	14:23:47	1133639	63e51be199687d0e5eec6f0b	2	1	main_z	24	advance_on_keypress_ZEE	28	stimuli_distractor_diamondtriangles.svg	stimuli_target_trianglerectangles.svg	29	yes	57	0	1105	6	4	antiphase_hc_sio.wav	1	6	6	noise_calib_stim_RIGHT.wav	2	29	blb_dichoticlistening_pa-pa.mp3	pa	pa	0	left
6.6.1	mac	2023-07-17	14:04:50	14:23:49	1136144	63e51be199687d0e5eec6f0b	2	1	main_z	24	main_z	29	stimuli_target_trianglesquares.svg	stimuli_distractor_diamondtriangles.svg	22	yes	44	1	780	6	4	antiphase_hc_sio.wav	1	6	6	noise_calib_stim_RIGHT.wav	2	29	blb_dichoticlistening_pa-pa.mp3	pa	pa	0	left
6.6.1	mac	2023-07-17	14:04:50	14:23:49	1136144	63e51be199687d0e5eec6f0b	2	1	main_z	24	advance_on_keypress_ZEE	30	stimuli_target_trianglesquares.svg	stimuli_distractor_diamondtriangles.svg	22	yes	57	0	991	6	4	antiphase_hc_sio.wav	1	6	6	noise_calib_stim_RIGHT.wav	2	29	blb_dichoticlistening_pa-pa.mp3	pa	pa	0	left
6.6.1	mac	2023-07-17	14:04:50	14:23:53	1139559	63e51be199687d0e5eec6f0b	2	1	main_z	24	main_z	31	stimuli_distractor_trianglediamonds.svg	stimuli_distractor_diamondtriangles.svg	35	no	44	0	1795	6	4	antiphase_hc_sio.wav	1	6	6	noise_calib_stim_RIGHT.wav	2	29	blb_dichoticlistening_pa-pa.mp3	pa	pa	0	left
6.6.1	mac	2023-07-17	14:04:50	14:23:53	1139559	63e51be199687d0e5eec6f0b	2	1	main_z	24	advance_on_keypress_ZEE	32	stimuli_distractor_trianglediamonds.svg	stimuli_distractor_diamondtriangles.svg	35	no	57	0	550	6	4	antiphase_hc_sio.wav	1	6	6	noise_calib_stim_RIGHT.wav	2	29	blb_dichoticlistening_pa-pa.mp3	pa	pa	0	left
6.6.1	mac	2023-07-17	14:04:50	14:23:55	1142069	63e51be199687d0e5eec6f0b	2	1	main_z	24	main_z	33	stimuli_distractor_trianglediamonds.svg	stimuli_distractor_trianglediamonds.svg	34	no	44	0	1322	6	4	antiphase_hc_sio.wav	1	6	6	noise_calib_stim_RIGHT.wav	2	29	blb_dichoticlistening_pa-pa.mp3	pa	pa	0	left
6.6.1	mac	2023-07-17	14:04:50	14:23:55	1142069	63e51be199687d0e5eec6f0b	2	1	main_z	24	advance_on_keypress_ZEE	34	stimuli_distractor_trianglediamonds.svg	stimuli_distractor_trianglediamonds.svg	34	no	57	0	307	6	4	antiphase_hc_sio.wav	1	6	6	noise_calib_stim_RIGHT.wav	2	29	blb_dichoticlistening_pa-pa.mp3	pa	pa	0	left
6.6.1	mac	2023-07-17	14:04:50	14:23:57	1144034	63e51be199687d0e5eec6f0b	2	1	main_z	24	main_z	35	stimuli_distractor_trianglediamonds.svg	stimuli_target_trianglerectangles.svg	25	yes	44	1	1040	6	4	antiphase_hc_sio.wav	1	6	6	noise_calib_stim_RIGHT.wav	2	29	blb_dichoticlistening_pa-pa.mp3	pa	pa	0	left
6.6.1	mac	2023-07-17	14:04:50	14:23:57	1144034	63e51be199687d0e5eec6f0b	2	1	main_z	24	advance_on_keypress_ZEE	36	stimuli_distractor_trianglediamonds.svg	stimuli_target_trianglerectangles.svg	25	yes	57	0	913	6	4	antiphase_hc_sio.wav	1	6	6	noise_calib_stim_RIGHT.wav	2	29	blb_dichoticlistening_pa-pa.mp3	pa	pa	0	left
6.6.1	mac	2023-07-17	14:04:50	14:24:00	1146682	63e51be199687d0e5eec6f0b	2	1	main_z	24	main_z	37	stimuli_distractor_trianglediamonds.svg	stimuli_target_rectangletriangles.svg	9	yes	44	1	1102	6	4	antiphase_hc_sio.wav	1	6	6	noise_calib_stim_RIGHT.wav	2	29	blb_dichoticlistening_pa-pa.mp3	pa	pa	0	left
6.6.1	mac	2023-07-17	14:04:50	14:24:00	1146682	63e51be199687d0e5eec6f0b	2	1	main_z	24	advance_on_keypress_ZEE	38	stimuli_distractor_trianglediamonds.svg	stimuli_target_rectangletriangles.svg	9	yes	57	0	694	6	4	antiphase_hc_sio.wav	1	6	6	noise_calib_stim_RIGHT.wav	2	29	blb_dichoticlistening_pa-pa.mp3	pa	pa	0	left
6.6.1	mac	2023-07-17	14:04:50	14:24:03	1149996	63e51be199687d0e5eec6f0b	2	1	main_z	24	main_z	39	stimuli_distractor_diamondtriangles.svg	stimuli_target_squarediamonds.svg	16	yes	0	0	2000	6	4	antiphase_hc_sio.wav	1	6	6	noise_calib_stim_RIGHT.wav	2	29	blb_dichoticlistening_pa-pa.mp3	pa	pa	0	left
6.6.1	mac	2023-07-17	14:04:50	14:24:03	1149996	63e51be199687d0e5eec6f0b	2	1	main_z	24	advance_on_keypress_ZEE	40	stimuli_distractor_diamondtriangles.svg	stimuli_target_squarediamonds.svg	16	yes	57	0	741	6	4	antiphase_hc_sio.wav	1	6	6	noise_calib_stim_RIGHT.wav	2	29	blb_dichoticlistening_pa-pa.mp3	pa	pa	0	left
6.6.1	mac	2023-07-17	14:04:50	14:24:06	1152187	63e51be199687d0e5eec6f0b	2	1	main_z	24	main_z	41	stimuli_target_diamondsquares.svg	stimuli_distractor_trianglediamonds.svg	20	yes	44	1	818	6	4	antiphase_hc_sio.wav	1	6	6	noise_calib_stim_RIGHT.wav	2	29	blb_dichoticlistening_pa-pa.mp3	pa	pa	0	left
6.6.1	mac	2023-07-17	14:04:50	14:24:06	1152187	63e51be199687d0e5eec6f0b	2	1	main_z	24	advance_on_keypress_ZEE	42	stimuli_target_diamondsquares.svg	stimuli_distractor_trianglediamonds.svg	20	yes	57	0	609	6	4	antiphase_hc_sio.wav	1	6	6	noise_calib_stim_RIGHT.wav	2	29	blb_dichoticlistening_pa-pa.mp3	pa	pa	0	left
6.6.1	mac	2023-07-17	14:04:50	14:24:08	1154595	63e51be199687d0e5eec6f0b	2	1	main_z	24	main_z	43	stimuli_target_squarediamonds.svg	stimuli_distractor_trianglediamonds.svg	4	yes	44	1	1182	6	4	antiphase_hc_sio.wav	1	6	6	noise_calib_stim_RIGHT.wav	2	29	blb_dichoticlistening_pa-pa.mp3	pa	pa	0	left
6.6.1	mac	2023-07-17	14:04:50	14:24:08	1154595	63e51be199687d0e5eec6f0b	2	1	main_z	24	advance_on_keypress_ZEE	44	stimuli_target_squarediamonds.svg	stimuli_distractor_trianglediamonds.svg	4	yes	57	0	827	6	4	antiphase_hc_sio.wav	1	6	6	noise_calib_stim_RIGHT.wav	2	29	blb_dichoticlistening_pa-pa.mp3	pa	pa	0	left
6.6.1	mac	2023-07-17	14:04:50	14:24:10	1156516	63e51be199687d0e5eec6f0b	2	1	main_z	24	main_z	45	stimuli_distractor_diamondtriangles.svg	stimuli_target_trianglesquares.svg	30	yes	44	1	455	6	4	antiphase_hc_sio.wav	1	6	6	noise_calib_stim_RIGHT.wav	2	29	blb_dichoticlistening_pa-pa.mp3	pa	pa	0	left
6.6.1	mac	2023-07-17	14:04:50	14:24:10	1156516	63e51be199687d0e5eec6f0b	2	1	main_z	24	advance_on_keypress_ZEE	46	stimuli_distractor_diamondtriangles.svg	stimuli_target_trianglesquares.svg	30	yes	57	0	506	6	4	antiphase_hc_sio.wav	1	6	6	noise_calib_stim_RIGHT.wav	2	29	blb_dichoticlistening_pa-pa.mp3	pa	pa	0	left
6.6.1	mac	2023-07-17	14:04:50	14:24:11	1158049	63e51be199687d0e5eec6f0b	2	1	main_z	24	main_z	47	stimuli_target_squaretriangles.svg	stimuli_distractor_diamondtriangles.svg	7	yes	44	1	405	6	4	antiphase_hc_sio.wav	1	6	6	noise_calib_stim_RIGHT.wav	2	29	blb_dichoticlistening_pa-pa.mp3	pa	pa	0	left
6.6.1	mac	2023-07-17	14:04:50	14:24:11	1158049	63e51be199687d0e5eec6f0b	2	1	main_z	24	advance_on_keypress_ZEE	48	stimuli_target_squaretriangles.svg	stimuli_distractor_diamondtriangles.svg	7	yes	57	0	601	6	4	antiphase_hc_sio.wav	1	6	6	noise_calib_stim_RIGHT.wav	2	29	blb_dichoticlistening_pa-pa.mp3	pa	pa	0	left
6.6.1	mac	2023-07-17	14:04:50	14:24:13	1159646	63e51be199687d0e5eec6f0b	2	1	main_z	24	main_z	49	stimuli_target_trianglerectangles.svg	stimuli_distractor_trianglediamonds.svg	17	yes	44	1	367	6	4	antiphase_hc_sio.wav	1	6	6	noise_calib_stim_RIGHT.wav	2	29	blb_dichoticlistening_pa-pa.mp3	pa	pa	0	left
6.6.1	mac	2023-07-17	14:04:50	14:24:13	1159646	63e51be199687d0e5eec6f0b	2	1	main_z	24	advance_on_keypress_ZEE	50	stimuli_target_trianglerectangles.svg	stimuli_distractor_trianglediamonds.svg	17	yes	57	0	543	6	4	antiphase_hc_sio.wav	1	6	6	noise_calib_stim_RIGHT.wav	2	29	blb_dichoticlistening_pa-pa.mp3	pa	pa	0	left
6.6.1	mac	2023-07-17	14:04:50	14:24:16	1162812	63e51be199687d0e5eec6f0b	2	1	main_z	24	main_z	51	stimuli_distractor_trianglediamonds.svg	stimuli_distractor_trianglediamonds.svg	33	no	0	1	2000	6	4	antiphase_hc_sio.wav	1	6	6	noise_calib_stim_RIGHT.wav	2	29	blb_dichoticlistening_pa-pa.mp3	pa	pa	0	left
6.6.1	mac	2023-07-17	14:04:50	14:24:16	1162812	63e51be199687d0e5eec6f0b	2	1	main_z	24	advance_on_keypress_ZEE	52	stimuli_distractor_trianglediamonds.svg	stimuli_distractor_trianglediamonds.svg	33	no	57	0	1176	6	4	antiphase_hc_sio.wav	1	6	6	noise_calib_stim_RIGHT.wav	2	29	blb_dichoticlistening_pa-pa.mp3	pa	pa	0	left
6.6.1	mac	2023-07-17	14:04:50	14:24:19	1165249	63e51be199687d0e5eec6f0b	2	1	main_z	24	main_z	53	stimuli_distractor_trianglediamonds.svg	stimuli_target_rectanglediamonds.svg	10	yes	44	1	622	6	4	antiphase_hc_sio.wav	1	6	6	noise_calib_stim_RIGHT.wav	2	29	blb_dichoticlistening_pa-pa.mp3	pa	pa	0	left
6.6.1	mac	2023-07-17	14:04:50	14:24:19	1165249	63e51be199687d0e5eec6f0b	2	1	main_z	24	advance_on_keypress_ZEE	54	stimuli_distractor_trianglediamonds.svg	stimuli_target_rectanglediamonds.svg	10	yes	57	0	415	6	4	antiphase_hc_sio.wav	1	6	6	noise_calib_stim_RIGHT.wav	2	29	blb_dichoticlistening_pa-pa.mp3	pa	pa	0	left
6.6.1	mac	2023-07-17	14:04:50	14:24:20	1166937	63e51be199687d0e5eec6f0b	2	1	main_z	24	main_z	55	stimuli_target_trianglerectangles.svg	stimuli_distractor_diamondtriangles.svg	21	yes	44	1	643	6	4	antiphase_hc_sio.wav	1	6	6	noise_calib_stim_RIGHT.wav	2	29	blb_dichoticlistening_pa-pa.mp3	pa	pa	0	left
6.6.1	mac	2023-07-17	14:04:50	14:24:20	1166937	63e51be199687d0e5eec6f0b	2	1	main_z	24	advance_on_keypress_ZEE	56	stimuli_target_trianglerectangles.svg	stimuli_distractor_diamondtriangles.svg	21	yes	57	0	369	6	4	antiphase_hc_sio.wav	1	6	6	noise_calib_stim_RIGHT.wav	2	29	blb_dichoticlistening_pa-pa.mp3	pa	pa	0	left
6.6.1	mac	2023-07-17	14:04:50	14:24:22	1168541	63e51be199687d0e5eec6f0b	2	1	main_z	24	main_z	57	stimuli_target_squarediamonds.svg	stimuli_distractor_diamondtriangles.svg	8	yes	44	1	612	6	4	antiphase_hc_sio.wav	1	6	6	noise_calib_stim_RIGHT.wav	2	29	blb_dichoticlistening_pa-pa.mp3	pa	pa	0	left
6.6.1	mac	2023-07-17	14:04:50	14:24:22	1168541	63e51be199687d0e5eec6f0b	2	1	main_z	24	advance_on_keypress_ZEE	58	stimuli_target_squarediamonds.svg	stimuli_distractor_diamondtriangles.svg	8	yes	57	0	383	6	4	antiphase_hc_sio.wav	1	6	6	noise_calib_stim_RIGHT.wav	2	29	blb_dichoticlistening_pa-pa.mp3	pa	pa	0	left
6.6.1	mac	2023-07-17	14:04:50	14:24:23	1169929	63e51be199687d0e5eec6f0b	2	1	main_z	24	main_z	59	stimuli_target_rectangletriangles.svg	stimuli_distractor_trianglediamonds.svg	1	yes	44	1	368	6	4	antiphase_hc_sio.wav	1	6	6	noise_calib_stim_RIGHT.wav	2	29	blb_dichoticlistening_pa-pa.mp3	pa	pa	0	left
6.6.1	mac	2023-07-17	14:04:50	14:24:23	1169929	63e51be199687d0e5eec6f0b	2	1	main_z	24	advance_on_keypress_ZEE	60	stimuli_target_rectangletriangles.svg	stimuli_distractor_trianglediamonds.svg	1	yes	57	0	374	6	4	antiphase_hc_sio.wav	1	6	6	noise_calib_stim_RIGHT.wav	2	29	blb_dichoticlistening_pa-pa.mp3	pa	pa	0	left
6.6.1	mac	2023-07-17	14:04:50	14:24:25	1171442	63e51be199687d0e5eec6f0b	2	1	main_z	24	main_z	61	stimuli_distractor_trianglediamonds.svg	stimuli_target_diamondrectangles.svg	27	yes	44	1	498	6	4	antiphase_hc_sio.wav	1	6	6	noise_calib_stim_RIGHT.wav	2	29	blb_dichoticlistening_pa-pa.mp3	pa	pa	0	left
6.6.1	mac	2023-07-17	14:04:50	14:24:25	1171442	63e51be199687d0e5eec6f0b	2	1	main_z	24	advance_on_keypress_ZEE	62	stimuli_distractor_trianglediamonds.svg	stimuli_target_diamondrectangles.svg	27	yes	57	0	735	6	4	antiphase_hc_sio.wav	1	6	6	noise_calib_stim_RIGHT.wav	2	29	blb_dichoticlistening_pa-pa.mp3	pa	pa	0	left
6.6.1	mac	2023-07-17	14:04:50	14:24:27	1173264	63e51be199687d0e5eec6f0b	2	1	main_z	24	main_z	63	stimuli_target_diamondrectangles.svg	stimuli_distractor_diamondtriangles.svg	23	yes	44	1	436	6	4	antiphase_hc_sio.wav	1	6	6	noise_calib_stim_RIGHT.wav	2	29	blb_dichoticlistening_pa-pa.mp3	pa	pa	0	left
6.6.1	mac	2023-07-17	14:04:50	14:24:27	1173264	63e51be199687d0e5eec6f0b	2	1	main_z	24	advance_on_keypress_ZEE	64	stimuli_target_diamondrectangles.svg	stimuli_distractor_diamondtriangles.svg	23	yes	57	0	269	6	4	antiphase_hc_sio.wav	1	6	6	noise_calib_stim_RIGHT.wav	2	29	blb_dichoticlistening_pa-pa.mp3	pa	pa	0	left
6.6.1	mac	2023-07-17	14:04:50	14:24:28	1174530	63e51be199687d0e5eec6f0b	2	1	main_z	24	main_z	65	stimuli_distractor_diamondtriangles.svg	stimuli_target_diamondsquares.svg	32	yes	44	1	369	6	4	antiphase_hc_sio.wav	1	6	6	noise_calib_stim_RIGHT.wav	2	29	blb_dichoticlistening_pa-pa.mp3	pa	pa	0	left
6.6.1	mac	2023-07-17	14:04:50	14:24:28	1174530	63e51be199687d0e5eec6f0b	2	1	main_z	24	advance_on_keypress_ZEE	66	stimuli_distractor_diamondtriangles.svg	stimuli_target_diamondsquares.svg	32	yes	57	0	290	6	4	antiphase_hc_sio.wav	1	6	6	noise_calib_stim_RIGHT.wav	2	29	blb_dichoticlistening_pa-pa.mp3	pa	pa	0	left
6.6.1	mac	2023-07-17	14:04:50	14:24:29	1175775	63e51be199687d0e5eec6f0b	2	1	main_z	24	main_z	67	stimuli_distractor_diamondtriangles.svg	stimuli_distractor_trianglediamonds.svg	38	no	44	0	331	6	4	antiphase_hc_sio.wav	1	6	6	noise_calib_stim_RIGHT.wav	2	29	blb_dichoticlistening_pa-pa.mp3	pa	pa	0	left
6.6.1	mac	2023-07-17	14:04:50	14:24:29	1175775	63e51be199687d0e5eec6f0b	2	1	main_z	24	advance_on_keypress_ZEE	68	stimuli_distractor_diamondtriangles.svg	stimuli_distractor_trianglediamonds.svg	38	no	57	0	321	6	4	antiphase_hc_sio.wav	1	6	6	noise_calib_stim_RIGHT.wav	2	29	blb_dichoticlistening_pa-pa.mp3	pa	pa	0	left
6.6.1	mac	2023-07-17	14:04:50	14:24:31	1177250	63e51be199687d0e5eec6f0b	2	1	main_z	24	main_z	69	stimuli_distractor_diamondtriangles.svg	stimuli_target_diamondrectangles.svg	31	yes	44	1	524	6	4	antiphase_hc_sio.wav	1	6	6	noise_calib_stim_RIGHT.wav	2	29	blb_dichoticlistening_pa-pa.mp3	pa	pa	0	left
6.6.1	mac	2023-07-17	14:04:50	14:24:31	1177250	63e51be199687d0e5eec6f0b	2	1	main_z	24	advance_on_keypress_ZEE	70	stimuli_distractor_diamondtriangles.svg	stimuli_target_diamondrectangles.svg	31	yes	57	0	280	6	4	antiphase_hc_sio.wav	1	6	6	noise_calib_stim_RIGHT.wav	2	29	blb_dichoticlistening_pa-pa.mp3	pa	pa	0	left
6.6.1	mac	2023-07-17	14:04:50	14:24:32	1178952	63e51be199687d0e5eec6f0b	2	1	main_z	24	main_z	71	stimuli_distractor_diamondtriangles.svg	stimuli_distractor_trianglediamonds.svg	37	no	44	0	807	6	4	antiphase_hc_sio.wav	1	6	6	noise_calib_stim_RIGHT.wav	2	29	blb_dichoticlistening_pa-pa.mp3	pa	pa	0	left
6.6.1	mac	2023-07-17	14:04:50	14:24:32	1178952	63e51be199687d0e5eec6f0b	2	1	main_z	24	advance_on_keypress_ZEE	72	stimuli_distractor_diamondtriangles.svg	stimuli_distractor_trianglediamonds.svg	37	no	57	0	895	6	4	antiphase_hc_sio.wav	1	6	6	noise_calib_stim_RIGHT.wav	2	29	blb_dichoticlistening_pa-pa.mp3	pa	pa	0	left
6.6.1	mac	2023-07-17	14:04:50	14:24:36	1182462	63e51be199687d0e5eec6f0b	2	1	main_z	24	main_z	73	stimuli_distractor_diamondtriangles.svg	stimuli_distractor_diamondtriangles.svg	39	no	0	1	2000	6	4	antiphase_hc_sio.wav	1	6	6	noise_calib_stim_RIGHT.wav	2	29	blb_dichoticlistening_pa-pa.mp3	pa	pa	0	left
6.6.1	mac	2023-07-17	14:04:50	14:24:36	1182462	63e51be199687d0e5eec6f0b	2	1	main_z	24	advance_on_keypress_ZEE	74	stimuli_distractor_diamondtriangles.svg	stimuli_distractor_diamondtriangles.svg	39	no	57	0	346	6	4	antiphase_hc_sio.wav	1	6	6	noise_calib_stim_RIGHT.wav	2	29	blb_dichoticlistening_pa-pa.mp3	pa	pa	0	left
6.6.1	mac	2023-07-17	14:04:50	14:24:37	1184093	63e51be199687d0e5eec6f0b	2	1	main_z	24	main_z	75	stimuli_target_trianglesquares.svg	stimuli_distractor_trianglediamonds.svg	18	yes	44	1	648	6	4	antiphase_hc_sio.wav	1	6	6	noise_calib_stim_RIGHT.wav	2	29	blb_dichoticlistening_pa-pa.mp3	pa	pa	0	left
6.6.1	mac	2023-07-17	14:04:50	14:24:37	1184093	63e51be199687d0e5eec6f0b	2	1	main_z	24	advance_on_keypress_ZEE	76	stimuli_target_trianglesquares.svg	stimuli_distractor_trianglediamonds.svg	18	yes	57	0	324	6	4	antiphase_hc_sio.wav	1	6	6	noise_calib_stim_RIGHT.wav	2	29	blb_dichoticlistening_pa-pa.mp3	pa	pa	0	left
6.6.1	mac	2023-07-17	14:04:50	14:24:39	1185729	63e51be199687d0e5eec6f0b	2	1	main_z	24	main_z	77	stimuli_target_diamondrectangles.svg	stimuli_distractor_trianglediamonds.svg	19	yes	44	1	684	6	4	antiphase_hc_sio.wav	1	6	6	noise_calib_stim_RIGHT.wav	2	29	blb_dichoticlistening_pa-pa.mp3	pa	pa	0	left
6.6.1	mac	2023-07-17	14:04:50	14:24:39	1185729	63e51be199687d0e5eec6f0b	2	1	main_z	24	advance_on_keypress_ZEE	78	stimuli_target_diamondrectangles.svg	stimuli_distractor_trianglediamonds.svg	19	yes	57	0	354	6	4	antiphase_hc_sio.wav	1	6	6	noise_calib_stim_RIGHT.wav	2	29	blb_dichoticlistening_pa-pa.mp3	pa	pa	0	left
6.6.1	mac	2023-07-17	14:04:50	14:24:41	1187337	63e51be199687d0e5eec6f0b	2	1	main_z	24	main_z	79	stimuli_target_rectanglediamonds.svg	stimuli_distractor_trianglediamonds.svg	2	yes	44	1	625	6	4	antiphase_hc_sio.wav	1	6	6	noise_calib_stim_RIGHT.wav	2	29	blb_dichoticlistening_pa-pa.mp3	pa	pa	0	left
6.6.1	mac	2023-07-17	14:04:50	14:24:41	1187337	63e51be199687d0e5eec6f0b	2	1	main_z	24	advance_on_keypress_ZEE	80	stimuli_target_rectanglediamonds.svg	stimuli_distractor_trianglediamonds.svg	2	yes	57	0	320	6	4	antiphase_hc_sio.wav	1	6	6	noise_calib_stim_RIGHT.wav	2	29	blb_dichoticlistening_pa-pa.mp3	pa	pa	0	left
6.6.1	mac	2023-07-17	14:04:50	14:24:42	1188744	63e51be199687d0e5eec6f0b	2	1	main_z	24	main_z	81	stimuli_distractor_diamondtriangles.svg	stimuli_target_squarediamonds.svg	16	yes	44	1	465	6	4	antiphase_hc_sio.wav	1	6	6	noise_calib_stim_RIGHT.wav	2	29	blb_dichoticlistening_pa-pa.mp3	pa	pa	0	left
6.6.1	mac	2023-07-17	14:04:50	14:24:42	1188744	63e51be199687d0e5eec6f0b	2	1	main_z	24	advance_on_keypress_ZEE	82	stimuli_distractor_diamondtriangles.svg	stimuli_target_squarediamonds.svg	16	yes	57	0	344	6	4	antiphase_hc_sio.wav	1	6	6	noise_calib_stim_RIGHT.wav	2	29	blb_dichoticlistening_pa-pa.mp3	pa	pa	0	left
6.6.1	mac	2023-07-17	14:04:50	14:24:45	1191729	63e51be199687d0e5eec6f0b	2	1	main_z	24	main_z	83	stimuli_distractor_trianglediamonds.svg	stimuli_distractor_trianglediamonds.svg	34	no	0	1	2000	6	4	antiphase_hc_sio.wav	1	6	6	noise_calib_stim_RIGHT.wav	2	29	blb_dichoticlistening_pa-pa.mp3	pa	pa	0	left
6.6.1	mac	2023-07-17	14:04:50	14:24:45	1191729	63e51be199687d0e5eec6f0b	2	1	main_z	24	advance_on_keypress_ZEE	84	stimuli_distractor_trianglediamonds.svg	stimuli_distractor_trianglediamonds.svg	34	no	57	0	421	6	4	antiphase_hc_sio.wav	1	6	6	noise_calib_stim_RIGHT.wav	2	29	blb_dichoticlistening_pa-pa.mp3	pa	pa	0	left
6.6.1	mac	2023-07-17	14:04:50	14:24:48	1194779	63e51be199687d0e5eec6f0b	2	1	main_z	24	main_z	85	stimuli_target_trianglerectangles.svg	stimuli_distractor_trianglediamonds.svg	17	yes	0	0	2000	6	4	antiphase_hc_sio.wav	1	6	6	noise_calib_stim_RIGHT.wav	2	29	blb_dichoticlistening_pa-pa.mp3	pa	pa	0	left
6.6.1	mac	2023-07-17	14:04:50	14:24:48	1194779	63e51be199687d0e5eec6f0b	2	1	main_z	24	advance_on_keypress_ZEE	86	stimuli_target_trianglerectangles.svg	stimuli_distractor_trianglediamonds.svg	17	yes	57	0	500	6	4	antiphase_hc_sio.wav	1	6	6	noise_calib_stim_RIGHT.wav	2	29	blb_dichoticlistening_pa-pa.mp3	pa	pa	0	left
6.6.1	mac	2023-07-17	14:04:50	14:24:50	1196291	63e51be199687d0e5eec6f0b	2	1	main_z	24	main_z	87	stimuli_target_rectanglediamonds.svg	stimuli_distractor_diamondtriangles.svg	6	yes	44	1	379	6	4	antiphase_hc_sio.wav	1	6	6	noise_calib_stim_RIGHT.wav	2	29	blb_dichoticlistening_pa-pa.mp3	pa	pa	0	left
6.6.1	mac	2023-07-17	14:04:50	14:24:50	1196291	63e51be199687d0e5eec6f0b	2	1	main_z	24	advance_on_keypress_ZEE	88	stimuli_target_rectanglediamonds.svg	stimuli_distractor_diamondtriangles.svg	6	yes	57	0	298	6	4	antiphase_hc_sio.wav	1	6	6	noise_calib_stim_RIGHT.wav	2	29	blb_dichoticlistening_pa-pa.mp3	pa	pa	0	left
6.6.1	mac	2023-07-17	14:04:50	14:24:51	1197713	63e51be199687d0e5eec6f0b	2	1	main_z	24	main_z	89	stimuli_distractor_diamondtriangles.svg	stimuli_target_diamondsquares.svg	32	yes	44	1	485	6	4	antiphase_hc_sio.wav	1	6	6	noise_calib_stim_RIGHT.wav	2	29	blb_dichoticlistening_pa-pa.mp3	pa	pa	0	left
6.6.1	mac	2023-07-17	14:04:50	14:24:51	1197713	63e51be199687d0e5eec6f0b	2	1	main_z	24	advance_on_keypress_ZEE	90	stimuli_distractor_diamondtriangles.svg	stimuli_target_diamondsquares.svg	32	yes	57	0	292	6	4	antiphase_hc_sio.wav	1	6	6	noise_calib_stim_RIGHT.wav	2	29	blb_dichoticlistening_pa-pa.mp3	pa	pa	0	left
6.6.1	mac	2023-07-17	14:04:50	14:24:52	1199104	63e51be199687d0e5eec6f0b	2	1	main_z	24	main_z	91	stimuli_distractor_trianglediamonds.svg	stimuli_target_squarediamonds.svg	12	yes	44	1	477	6	4	antiphase_hc_sio.wav	1	6	6	noise_calib_stim_RIGHT.wav	2	29	blb_dichoticlistening_pa-pa.mp3	pa	pa	0	left
6.6.1	mac	2023-07-17	14:04:50	14:24:52	1199104	63e51be199687d0e5eec6f0b	2	1	main_z	24	advance_on_keypress_ZEE	92	stimuli_distractor_trianglediamonds.svg	stimuli_target_squarediamonds.svg	12	yes	57	0	322	6	4	antiphase_hc_sio.wav	1	6	6	noise_calib_stim_RIGHT.wav	2	29	blb_dichoticlistening_pa-pa.mp3	pa	pa	0	left
6.6.1	mac	2023-07-17	14:04:50	14:24:54	1200627	63e51be199687d0e5eec6f0b	2	1	main_z	24	main_z	93	stimuli_target_trianglesquares.svg	stimuli_distractor_diamondtriangles.svg	22	yes	44	1	582	6	4	antiphase_hc_sio.wav	1	6	6	noise_calib_stim_RIGHT.wav	2	29	blb_dichoticlistening_pa-pa.mp3	pa	pa	0	left
6.6.1	mac	2023-07-17	14:04:50	14:24:54	1200627	63e51be199687d0e5eec6f0b	2	1	main_z	24	advance_on_keypress_ZEE	94	stimuli_target_trianglesquares.svg	stimuli_distractor_diamondtriangles.svg	22	yes	57	0	289	6	4	antiphase_hc_sio.wav	1	6	6	noise_calib_stim_RIGHT.wav	2	29	blb_dichoticlistening_pa-pa.mp3	pa	pa	0	left
6.6.1	mac	2023-07-17	14:04:50	14:24:57	1203546	63e51be199687d0e5eec6f0b	2	1	main_z	24	main_z	95	stimuli_distractor_diamondtriangles.svg	stimuli_distractor_diamondtriangles.svg	39	no	0	1	2000	6	4	antiphase_hc_sio.wav	1	6	6	noise_calib_stim_RIGHT.wav	2	29	blb_dichoticlistening_pa-pa.mp3	pa	pa	0	left
6.6.1	mac	2023-07-17	14:04:50	14:24:57	1203546	63e51be199687d0e5eec6f0b	2	1	main_z	24	advance_on_keypress_ZEE	96	stimuli_distractor_diamondtriangles.svg	stimuli_distractor_diamondtriangles.svg	39	no	57	0	455	6	4	antiphase_hc_sio.wav	1	6	6	noise_calib_stim_RIGHT.wav	2	29	blb_dichoticlistening_pa-pa.mp3	pa	pa	0	left
6.6.1	mac	2023-07-17	14:04:50	14:24:58	1205111	63e51be199687d0e5eec6f0b	2	1	main_z	24	main_z	97	stimuli_target_trianglesquares.svg	stimuli_distractor_trianglediamonds.svg	18	yes	44	1	484	6	4	antiphase_hc_sio.wav	1	6	6	noise_calib_stim_RIGHT.wav	2	29	blb_dichoticlistening_pa-pa.mp3	pa	pa	0	left
6.6.1	mac	2023-07-17	14:04:50	14:24:58	1205111	63e51be199687d0e5eec6f0b	2	1	main_z	24	advance_on_keypress_ZEE	98	stimuli_target_trianglesquares.svg	stimuli_distractor_trianglediamonds.svg	18	yes	57	0	301	6	4	antiphase_hc_sio.wav	1	6	6	noise_calib_stim_RIGHT.wav	2	29	blb_dichoticlistening_pa-pa.mp3	pa	pa	0	left
6.6.1	mac	2023-07-17	14:04:50	14:25:00	1206438	63e51be199687d0e5eec6f0b	2	1	main_z	24	main_z	99	stimuli_distractor_diamondtriangles.svg	stimuli_target_rectanglediamonds.svg	14	yes	44	1	394	6	4	antiphase_hc_sio.wav	1	6	6	noise_calib_stim_RIGHT.wav	2	29	blb_dichoticlistening_pa-pa.mp3	pa	pa	0	left
6.6.1	mac	2023-07-17	14:04:50	14:25:00	1206438	63e51be199687d0e5eec6f0b	2	1	main_z	24	advance_on_keypress_ZEE	100	stimuli_distractor_diamondtriangles.svg	stimuli_target_rectanglediamonds.svg	14	yes	57	0	309	6	4	antiphase_hc_sio.wav	1	6	6	noise_calib_stim_RIGHT.wav	2	29	blb_dichoticlistening_pa-pa.mp3	pa	pa	0	left
6.6.1	mac	2023-07-17	14:04:50	14:25:01	1207762	63e51be199687d0e5eec6f0b	2	1	main_z	24	main_z	101	stimuli_target_squaretriangles.svg	stimuli_distractor_diamondtriangles.svg	7	yes	44	1	384	6	4	antiphase_hc_sio.wav	1	6	6	noise_calib_stim_RIGHT.wav	2	29	blb_dichoticlistening_pa-pa.mp3	pa	pa	0	left
6.6.1	mac	2023-07-17	14:04:50	14:25:01	1207762	63e51be199687d0e5eec6f0b	2	1	main_z	24	advance_on_keypress_ZEE	102	stimuli_target_squaretriangles.svg	stimuli_distractor_diamondtriangles.svg	7	yes	57	0	284	6	4	antiphase_hc_sio.wav	1	6	6	noise_calib_stim_RIGHT.wav	2	29	blb_dichoticlistening_pa-pa.mp3	pa	pa	0	left
6.6.1	mac	2023-07-17	14:04:50	14:25:03	1209176	63e51be199687d0e5eec6f0b	2	1	main_z	24	main_z	103	stimuli_target_rectangletriangles.svg	stimuli_distractor_diamondtriangles.svg	5	yes	44	1	500	6	4	antiphase_hc_sio.wav	1	6	6	noise_calib_stim_RIGHT.wav	2	29	blb_dichoticlistening_pa-pa.mp3	pa	pa	0	left
6.6.1	mac	2023-07-17	14:04:50	14:25:03	1209176	63e51be199687d0e5eec6f0b	2	1	main_z	24	advance_on_keypress_ZEE	104	stimuli_target_rectangletriangles.svg	stimuli_distractor_diamondtriangles.svg	5	yes	57	0	269	6	4	antiphase_hc_sio.wav	1	6	6	noise_calib_stim_RIGHT.wav	2	29	blb_dichoticlistening_pa-pa.mp3	pa	pa	0	left
6.6.1	mac	2023-07-17	14:04:50	14:25:05	1212080	63e51be199687d0e5eec6f0b	2	1	main_z	24	main_z	105	stimuli_distractor_trianglediamonds.svg	stimuli_distractor_diamondtriangles.svg	36	no	0	1	2000	6	4	antiphase_hc_sio.wav	1	6	6	noise_calib_stim_RIGHT.wav	2	29	blb_dichoticlistening_pa-pa.mp3	pa	pa	0	left
6.6.1	mac	2023-07-17	14:04:50	14:25:05	1212080	63e51be199687d0e5eec6f0b	2	1	main_z	24	advance_on_keypress_ZEE	106	stimuli_distractor_trianglediamonds.svg	stimuli_distractor_diamondtriangles.svg	36	no	57	0	371	6	4	antiphase_hc_sio.wav	1	6	6	noise_calib_stim_RIGHT.wav	2	29	blb_dichoticlistening_pa-pa.mp3	pa	pa	0	left
6.6.1	mac	2023-07-17	14:04:50	14:25:07	1213645	63e51be199687d0e5eec6f0b	2	1	main_z	24	main_z	107	stimuli_target_rectangletriangles.svg	stimuli_distractor_trianglediamonds.svg	1	yes	44	1	568	6	4	antiphase_hc_sio.wav	1	6	6	noise_calib_stim_RIGHT.wav	2	29	blb_dichoticlistening_pa-pa.mp3	pa	pa	0	left
6.6.1	mac	2023-07-17	14:04:50	14:25:07	1213645	63e51be199687d0e5eec6f0b	2	1	main_z	24	advance_on_keypress_ZEE	108	stimuli_target_rectangletriangles.svg	stimuli_distractor_trianglediamonds.svg	1	yes	57	0	255	6	4	antiphase_hc_sio.wav	1	6	6	noise_calib_stim_RIGHT.wav	2	29	blb_dichoticlistening_pa-pa.mp3	pa	pa	0	left
6.6.1	mac	2023-07-17	14:04:50	14:25:08	1215000	63e51be199687d0e5eec6f0b	2	1	main_z	24	main_z	109	stimuli_distractor_diamondtriangles.svg	stimuli_target_rectangletriangles.svg	13	yes	44	1	472	6	4	antiphase_hc_sio.wav	1	6	6	noise_calib_stim_RIGHT.wav	2	29	blb_dichoticlistening_pa-pa.mp3	pa	pa	0	left
6.6.1	mac	2023-07-17	14:04:50	14:25:08	1215000	63e51be199687d0e5eec6f0b	2	1	main_z	24	advance_on_keypress_ZEE	110	stimuli_distractor_diamondtriangles.svg	stimuli_target_rectangletriangles.svg	13	yes	57	0	291	6	4	antiphase_hc_sio.wav	1	6	6	noise_calib_stim_RIGHT.wav	2	29	blb_dichoticlistening_pa-pa.mp3	pa	pa	0	left
6.6.1	mac	2023-07-17	14:04:50	14:25:10	1216352	63e51be199687d0e5eec6f0b	2	1	main_z	24	main_z	111	stimuli_target_rectanglediamonds.svg	stimuli_distractor_trianglediamonds.svg	2	yes	44	1	424	6	4	antiphase_hc_sio.wav	1	6	6	noise_calib_stim_RIGHT.wav	2	29	blb_dichoticlistening_pa-pa.mp3	pa	pa	0	left
6.6.1	mac	2023-07-17	14:04:50	14:25:10	1216352	63e51be199687d0e5eec6f0b	2	1	main_z	24	advance_on_keypress_ZEE	112	stimuli_target_rectanglediamonds.svg	stimuli_distractor_trianglediamonds.svg	2	yes	57	0	322	6	4	antiphase_hc_sio.wav	1	6	6	noise_calib_stim_RIGHT.wav	2	29	blb_dichoticlistening_pa-pa.mp3	pa	pa	0	left
6.6.1	mac	2023-07-17	14:04:50	14:25:11	1217680	63e51be199687d0e5eec6f0b	2	1	main_z	24	main_z	113	stimuli_target_squarediamonds.svg	stimuli_distractor_diamondtriangles.svg	8	yes	44	1	386	6	4	antiphase_hc_sio.wav	1	6	6	noise_calib_stim_RIGHT.wav	2	29	blb_dichoticlistening_pa-pa.mp3	pa	pa	0	left
6.6.1	mac	2023-07-17	14:04:50	14:25:11	1217680	63e51be199687d0e5eec6f0b	2	1	main_z	24	advance_on_keypress_ZEE	114	stimuli_target_squarediamonds.svg	stimuli_distractor_diamondtriangles.svg	8	yes	57	0	313	6	4	antiphase_hc_sio.wav	1	6	6	noise_calib_stim_RIGHT.wav	2	29	blb_dichoticlistening_pa-pa.mp3	pa	pa	0	left
6.6.1	mac	2023-07-17	14:04:50	14:25:14	1220629	63e51be199687d0e5eec6f0b	2	1	main_z	24	main_z	115	stimuli_distractor_trianglediamonds.svg	stimuli_distractor_diamondtriangles.svg	35	no	0	1	2000	6	4	antiphase_hc_sio.wav	1	6	6	noise_calib_stim_RIGHT.wav	2	29	blb_dichoticlistening_pa-pa.mp3	pa	pa	0	left
6.6.1	mac	2023-07-17	14:04:50	14:25:14	1220629	63e51be199687d0e5eec6f0b	2	1	main_z	24	advance_on_keypress_ZEE	116	stimuli_distractor_trianglediamonds.svg	stimuli_distractor_diamondtriangles.svg	35	no	57	0	474	6	4	antiphase_hc_sio.wav	1	6	6	noise_calib_stim_RIGHT.wav	2	29	blb_dichoticlistening_pa-pa.mp3	pa	pa	0	left
6.6.1	mac	2023-07-17	14:04:50	14:25:16	1222150	63e51be199687d0e5eec6f0b	2	1	main_z	24	main_z	117	stimuli_distractor_trianglediamonds.svg	stimuli_target_diamondsquares.svg	28	yes	44	1	405	6	4	antiphase_hc_sio.wav	1	6	6	noise_calib_stim_RIGHT.wav	2	29	blb_dichoticlistening_pa-pa.mp3	pa	pa	0	left
6.6.1	mac	2023-07-17	14:04:50	14:25:16	1222150	63e51be199687d0e5eec6f0b	2	1	main_z	24	advance_on_keypress_ZEE	118	stimuli_distractor_trianglediamonds.svg	stimuli_target_diamondsquares.svg	28	yes	57	0	274	6	4	antiphase_hc_sio.wav	1	6	6	noise_calib_stim_RIGHT.wav	2	29	blb_dichoticlistening_pa-pa.mp3	pa	pa	0	left
6.6.1	mac	2023-07-17	14:04:50	14:25:17	1223453	63e51be199687d0e5eec6f0b	2	1	main_z	24	main_z	119	stimuli_target_diamondrectangles.svg	stimuli_distractor_diamondtriangles.svg	23	yes	44	1	409	6	4	antiphase_hc_sio.wav	1	6	6	noise_calib_stim_RIGHT.wav	2	29	blb_dichoticlistening_pa-pa.mp3	pa	pa	0	left
6.6.1	mac	2023-07-17	14:04:50	14:25:17	1223453	63e51be199687d0e5eec6f0b	2	1	main_z	24	advance_on_keypress_ZEE	120	stimuli_target_diamondrectangles.svg	stimuli_distractor_diamondtriangles.svg	23	yes	57	0	267	6	4	antiphase_hc_sio.wav	1	6	6	noise_calib_stim_RIGHT.wav	2	29	blb_dichoticlistening_pa-pa.mp3	pa	pa	0	left
6.6.1	mac	2023-07-17	14:04:50	14:25:18	1224723	63e51be199687d0e5eec6f0b	2	1	main_z	24	main_z	121	stimuli_distractor_diamondtriangles.svg	stimuli_distractor_diamondtriangles.svg	40	no	44	0	360	6	4	antiphase_hc_sio.wav	1	6	6	noise_calib_stim_RIGHT.wav	2	29	blb_dichoticlistening_pa-pa.mp3	pa	pa	0	left
6.6.1	mac	2023-07-17	14:04:50	14:25:18	1224723	63e51be199687d0e5eec6f0b	2	1	main_z	24	advance_on_keypress_ZEE	122	stimuli_distractor_diamondtriangles.svg	stimuli_distractor_diamondtriangles.svg	40	no	57	0	904	6	4	antiphase_hc_sio.wav	1	6	6	noise_calib_stim_RIGHT.wav	2	29	blb_dichoticlistening_pa-pa.mp3	pa	pa	0	left
6.6.1	mac	2023-07-17	14:04:50	14:25:20	1226804	63e51be199687d0e5eec6f0b	2	1	main_z	24	main_z	123	stimuli_distractor_trianglediamonds.svg	stimuli_target_squaretriangles.svg	11	yes	44	1	560	6	4	antiphase_hc_sio.wav	1	6	6	noise_calib_stim_RIGHT.wav	2	29	blb_dichoticlistening_pa-pa.mp3	pa	pa	0	left
6.6.1	mac	2023-07-17	14:04:50	14:25:20	1226804	63e51be199687d0e5eec6f0b	2	1	main_z	24	advance_on_keypress_ZEE	124	stimuli_distractor_trianglediamonds.svg	stimuli_target_squaretriangles.svg	11	yes	57	0	310	6	4	antiphase_hc_sio.wav	1	6	6	noise_calib_stim_RIGHT.wav	2	29	blb_dichoticlistening_pa-pa.mp3	pa	pa	0	left
6.6.1	mac	2023-07-17	14:04:50	14:25:22	1228795	63e51be199687d0e5eec6f0b	2	1	main_z	24	main_z	125	stimuli_target_trianglerectangles.svg	stimuli_distractor_diamondtriangles.svg	21	yes	44	1	1051	6	4	antiphase_hc_sio.wav	1	6	6	noise_calib_stim_RIGHT.wav	2	29	blb_dichoticlistening_pa-pa.mp3	pa	pa	0	left
6.6.1	mac	2023-07-17	14:04:50	14:25:22	1228795	63e51be199687d0e5eec6f0b	2	1	main_z	24	advance_on_keypress_ZEE	126	stimuli_target_trianglerectangles.svg	stimuli_distractor_diamondtriangles.svg	21	yes	57	0	342	6	4	antiphase_hc_sio.wav	1	6	6	noise_calib_stim_RIGHT.wav	2	29	blb_dichoticlistening_pa-pa.mp3	pa	pa	0	left
6.6.1	mac	2023-07-17	14:04:50	14:25:24	1230475	63e51be199687d0e5eec6f0b	2	1	main_z	24	main_z	127	stimuli_target_diamondrectangles.svg	stimuli_distractor_trianglediamonds.svg	19	yes	44	1	713	6	4	antiphase_hc_sio.wav	1	6	6	noise_calib_stim_RIGHT.wav	2	29	blb_dichoticlistening_pa-pa.mp3	pa	pa	0	left
6.6.1	mac	2023-07-17	14:04:50	14:25:24	1230475	63e51be199687d0e5eec6f0b	2	1	main_z	24	advance_on_keypress_ZEE	128	stimuli_target_diamondrectangles.svg	stimuli_distractor_trianglediamonds.svg	19	yes	57	0	267	6	4	antiphase_hc_sio.wav	1	6	6	noise_calib_stim_RIGHT.wav	2	29	blb_dichoticlistening_pa-pa.mp3	pa	pa	0	left
6.6.1	mac	2023-07-17	14:04:50	14:25:25	1231785	63e51be199687d0e5eec6f0b	2	1	main_z	24	main_z	129	stimuli_target_diamondsquares.svg	stimuli_distractor_trianglediamonds.svg	20	yes	44	1	398	6	4	antiphase_hc_sio.wav	1	6	6	noise_calib_stim_RIGHT.wav	2	29	blb_dichoticlistening_pa-pa.mp3	pa	pa	0	left
6.6.1	mac	2023-07-17	14:04:50	14:25:25	1231785	63e51be199687d0e5eec6f0b	2	1	main_z	24	advance_on_keypress_ZEE	130	stimuli_target_diamondsquares.svg	stimuli_distractor_trianglediamonds.svg	20	yes	57	0	248	6	4	antiphase_hc_sio.wav	1	6	6	noise_calib_stim_RIGHT.wav	2	29	blb_dichoticlistening_pa-pa.mp3	pa	pa	0	left
6.6.1	mac	2023-07-17	14:04:50	14:25:27	1233165	63e51be199687d0e5eec6f0b	2	1	main_z	24	main_z	131	stimuli_distractor_diamondtriangles.svg	stimuli_target_diamondrectangles.svg	31	yes	44	1	488	6	4	antiphase_hc_sio.wav	1	6	6	noise_calib_stim_RIGHT.wav	2	29	blb_dichoticlistening_pa-pa.mp3	pa	pa	0	left
6.6.1	mac	2023-07-17	14:04:50	14:25:27	1233165	63e51be199687d0e5eec6f0b	2	1	main_z	24	advance_on_keypress_ZEE	132	stimuli_distractor_diamondtriangles.svg	stimuli_target_diamondrectangles.svg	31	yes	57	0	227	6	4	antiphase_hc_sio.wav	1	6	6	noise_calib_stim_RIGHT.wav	2	29	blb_dichoticlistening_pa-pa.mp3	pa	pa	0	left
6.6.1	mac	2023-07-17	14:04:50	14:25:28	1234514	63e51be199687d0e5eec6f0b	2	1	main_z	24	main_z	133	stimuli_distractor_trianglediamonds.svg	stimuli_target_trianglesquares.svg	26	yes	44	1	486	6	4	antiphase_hc_sio.wav	1	6	6	noise_calib_stim_RIGHT.wav	2	29	blb_dichoticlistening_pa-pa.mp3	pa	pa	0	left
6.6.1	mac	2023-07-17	14:04:50	14:25:28	1234514	63e51be199687d0e5eec6f0b	2	1	main_z	24	advance_on_keypress_ZEE	134	stimuli_distractor_trianglediamonds.svg	stimuli_target_trianglesquares.svg	26	yes	57	0	256	6	4	antiphase_hc_sio.wav	1	6	6	noise_calib_stim_RIGHT.wav	2	29	blb_dichoticlistening_pa-pa.mp3	pa	pa	0	left
6.6.1	mac	2023-07-17	14:04:50	14:25:29	1235806	63e51be199687d0e5eec6f0b	2	1	main_z	24	main_z	135	stimuli_distractor_diamondtriangles.svg	stimuli_target_trianglesquares.svg	30	yes	44	1	412	6	4	antiphase_hc_sio.wav	1	6	6	noise_calib_stim_RIGHT.wav	2	29	blb_dichoticlistening_pa-pa.mp3	pa	pa	0	left
6.6.1	mac	2023-07-17	14:04:50	14:25:29	1235806	63e51be199687d0e5eec6f0b	2	1	main_z	24	advance_on_keypress_ZEE	136	stimuli_distractor_diamondtriangles.svg	stimuli_target_trianglesquares.svg	30	yes	57	0	263	6	4	antiphase_hc_sio.wav	1	6	6	noise_calib_stim_RIGHT.wav	2	29	blb_dichoticlistening_pa-pa.mp3	pa	pa	0	left
6.6.1	mac	2023-07-17	14:04:50	14:25:30	1237136	63e51be199687d0e5eec6f0b	2	1	main_z	24	main_z	137	stimuli_distractor_diamondtriangles.svg	stimuli_distractor_trianglediamonds.svg	38	no	44	0	425	6	4	antiphase_hc_sio.wav	1	6	6	noise_calib_stim_RIGHT.wav	2	29	blb_dichoticlistening_pa-pa.mp3	pa	pa	0	left
6.6.1	mac	2023-07-17	14:04:50	14:25:30	1237136	63e51be199687d0e5eec6f0b	2	1	main_z	24	advance_on_keypress_ZEE	138	stimuli_distractor_diamondtriangles.svg	stimuli_distractor_trianglediamonds.svg	38	no	57	0	339	6	4	antiphase_hc_sio.wav	1	6	6	noise_calib_stim_RIGHT.wav	2	29	blb_dichoticlistening_pa-pa.mp3	pa	pa	0	left
6.6.1	mac	2023-07-17	14:04:50	14:25:33	1240097	63e51be199687d0e5eec6f0b	2	1	main_z	24	main_z	139	stimuli_distractor_trianglediamonds.svg	stimuli_distractor_trianglediamonds.svg	33	no	0	1	2000	6	4	antiphase_hc_sio.wav	1	6	6	noise_calib_stim_RIGHT.wav	2	29	blb_dichoticlistening_pa-pa.mp3	pa	pa	0	left
6.6.1	mac	2023-07-17	14:04:50	14:25:33	1240097	63e51be199687d0e5eec6f0b	2	1	main_z	24	advance_on_keypress_ZEE	140	stimuli_distractor_trianglediamonds.svg	stimuli_distractor_trianglediamonds.svg	33	no	57	0	369	6	4	antiphase_hc_sio.wav	1	6	6	noise_calib_stim_RIGHT.wav	2	29	blb_dichoticlistening_pa-pa.mp3	pa	pa	0	left
6.6.1	mac	2023-07-17	14:04:50	14:25:35	1241838	63e51be199687d0e5eec6f0b	2	1	main_z	24	main_z	141	stimuli_distractor_diamondtriangles.svg	stimuli_target_squaretriangles.svg	15	yes	44	1	743	6	4	antiphase_hc_sio.wav	1	6	6	noise_calib_stim_RIGHT.wav	2	29	blb_dichoticlistening_pa-pa.mp3	pa	pa	0	left
6.6.1	mac	2023-07-17	14:04:50	14:25:35	1241838	63e51be199687d0e5eec6f0b	2	1	main_z	24	advance_on_keypress_ZEE	142	stimuli_distractor_diamondtriangles.svg	stimuli_target_squaretriangles.svg	15	yes	57	0	267	6	4	antiphase_hc_sio.wav	1	6	6	noise_calib_stim_RIGHT.wav	2	29	blb_dichoticlistening_pa-pa.mp3	pa	pa	0	left
6.6.1	mac	2023-07-17	14:04:50	14:25:37	1243741	63e51be199687d0e5eec6f0b	2	1	main_z	24	main_z	143	stimuli_target_diamondsquares.svg	stimuli_distractor_diamondtriangles.svg	24	yes	44	1	1013	6	4	antiphase_hc_sio.wav	1	6	6	noise_calib_stim_RIGHT.wav	2	29	blb_dichoticlistening_pa-pa.mp3	pa	pa	0	left
6.6.1	mac	2023-07-17	14:04:50	14:25:37	1243741	63e51be199687d0e5eec6f0b	2	1	main_z	24	advance_on_keypress_ZEE	144	stimuli_target_diamondsquares.svg	stimuli_distractor_diamondtriangles.svg	24	yes	57	0	320	6	4	antiphase_hc_sio.wav	1	6	6	noise_calib_stim_RIGHT.wav	2	29	blb_dichoticlistening_pa-pa.mp3	pa	pa	0	left
6.6.1	mac	2023-07-17	14:04:50	14:25:39	1245148	63e51be199687d0e5eec6f0b	2	1	main_z	24	main_z	145	stimuli_distractor_trianglediamonds.svg	stimuli_target_rectangletriangles.svg	9	yes	44	1	454	6	4	antiphase_hc_sio.wav	1	6	6	noise_calib_stim_RIGHT.wav	2	29	blb_dichoticlistening_pa-pa.mp3	pa	pa	0	left
6.6.1	mac	2023-07-17	14:04:50	14:25:39	1245148	63e51be199687d0e5eec6f0b	2	1	main_z	24	advance_on_keypress_ZEE	146	stimuli_distractor_trianglediamonds.svg	stimuli_target_rectangletriangles.svg	9	yes	57	0	250	6	4	antiphase_hc_sio.wav	1	6	6	noise_calib_stim_RIGHT.wav	2	29	blb_dichoticlistening_pa-pa.mp3	pa	pa	0	left
6.6.1	mac	2023-07-17	14:04:50	14:25:40	1246495	63e51be199687d0e5eec6f0b	2	1	main_z	24	main_z	147	stimuli_target_squaretriangles.svg	stimuli_distractor_trianglediamonds.svg	3	yes	44	1	466	6	4	antiphase_hc_sio.wav	1	6	6	noise_calib_stim_RIGHT.wav	2	29	blb_dichoticlistening_pa-pa.mp3	pa	pa	0	left
6.6.1	mac	2023-07-17	14:04:50	14:25:40	1246495	63e51be199687d0e5eec6f0b	2	1	main_z	24	advance_on_keypress_ZEE	148	stimuli_target_squaretriangles.svg	stimuli_distractor_trianglediamonds.svg	3	yes	57	0	229	6	4	antiphase_hc_sio.wav	1	6	6	noise_calib_stim_RIGHT.wav	2	29	blb_dichoticlistening_pa-pa.mp3	pa	pa	0	left
6.6.1	mac	2023-07-17	14:04:50	14:25:41	1247867	63e51be199687d0e5eec6f0b	2	1	main_z	24	main_z	149	stimuli_distractor_trianglediamonds.svg	stimuli_target_rectanglediamonds.svg	10	yes	44	1	505	6	4	antiphase_hc_sio.wav	1	6	6	noise_calib_stim_RIGHT.wav	2	29	blb_dichoticlistening_pa-pa.mp3	pa	pa	0	left
6.6.1	mac	2023-07-17	14:04:50	14:25:41	1247867	63e51be199687d0e5eec6f0b	2	1	main_z	24	advance_on_keypress_ZEE	150	stimuli_distractor_trianglediamonds.svg	stimuli_target_rectanglediamonds.svg	10	yes	57	0	218	6	4	antiphase_hc_sio.wav	1	6	6	noise_calib_stim_RIGHT.wav	2	29	blb_dichoticlistening_pa-pa.mp3	pa	pa	0	left
6.6.1	mac	2023-07-17	14:04:50	14:25:43	1249242	63e51be199687d0e5eec6f0b	2	1	main_z	24	main_z	151	stimuli_target_squarediamonds.svg	stimuli_distractor_trianglediamonds.svg	4	yes	44	1	515	6	4	antiphase_hc_sio.wav	1	6	6	noise_calib_stim_RIGHT.wav	2	29	blb_dichoticlistening_pa-pa.mp3	pa	pa	0	left
6.6.1	mac	2023-07-17	14:04:50	14:25:43	1249242	63e51be199687d0e5eec6f0b	2	1	main_z	24	advance_on_keypress_ZEE	152	stimuli_target_squarediamonds.svg	stimuli_distractor_trianglediamonds.svg	4	yes	57	0	196	6	4	antiphase_hc_sio.wav	1	6	6	noise_calib_stim_RIGHT.wav	2	29	blb_dichoticlistening_pa-pa.mp3	pa	pa	0	left
6.6.1	mac	2023-07-17	14:04:50	14:25:44	1250606	63e51be199687d0e5eec6f0b	2	1	main_z	24	main_z	153	stimuli_distractor_diamondtriangles.svg	stimuli_target_trianglerectangles.svg	29	yes	44	1	528	6	4	antiphase_hc_sio.wav	1	6	6	noise_calib_stim_RIGHT.wav	2	29	blb_dichoticlistening_pa-pa.mp3	pa	pa	0	left
6.6.1	mac	2023-07-17	14:04:50	14:25:44	1250606	63e51be199687d0e5eec6f0b	2	1	main_z	24	advance_on_keypress_ZEE	154	stimuli_distractor_diamondtriangles.svg	stimuli_target_trianglerectangles.svg	29	yes	57	0	292	6	4	antiphase_hc_sio.wav	1	6	6	noise_calib_stim_RIGHT.wav	2	29	blb_dichoticlistening_pa-pa.mp3	pa	pa	0	left
6.6.1	mac	2023-07-17	14:04:50	14:25:45	1251965	63e51be199687d0e5eec6f0b	2	1	main_z	24	main_z	155	stimuli_distractor_trianglediamonds.svg	stimuli_target_diamondrectangles.svg	27	yes	44	1	438	6	4	antiphase_hc_sio.wav	1	6	6	noise_calib_stim_RIGHT.wav	2	29	blb_dichoticlistening_pa-pa.mp3	pa	pa	0	left
6.6.1	mac	2023-07-17	14:04:50	14:25:45	1251965	63e51be199687d0e5eec6f0b	2	1	main_z	24	advance_on_keypress_ZEE	156	stimuli_distractor_trianglediamonds.svg	stimuli_target_diamondrectangles.svg	27	yes	57	0	207	6	4	antiphase_hc_sio.wav	1	6	6	noise_calib_stim_RIGHT.wav	2	29	blb_dichoticlistening_pa-pa.mp3	pa	pa	0	left
6.6.1	mac	2023-07-17	14:04:50	14:25:46	1253140	63e51be199687d0e5eec6f0b	2	1	main_z	24	main_z	157	stimuli_distractor_trianglediamonds.svg	stimuli_target_trianglerectangles.svg	25	yes	44	1	345	6	4	antiphase_hc_sio.wav	1	6	6	noise_calib_stim_RIGHT.wav	2	29	blb_dichoticlistening_pa-pa.mp3	pa	pa	0	left
6.6.1	mac	2023-07-17	14:04:50	14:25:46	1253140	63e51be199687d0e5eec6f0b	2	1	main_z	24	advance_on_keypress_ZEE	158	stimuli_distractor_trianglediamonds.svg	stimuli_target_trianglerectangles.svg	25	yes	57	0	217	6	4	antiphase_hc_sio.wav	1	6	6	noise_calib_stim_RIGHT.wav	2	29	blb_dichoticlistening_pa-pa.mp3	pa	pa	0	left
6.6.1	mac	2023-07-17	14:04:50	14:25:48	1254625	63e51be199687d0e5eec6f0b	2	1	main_z	24	main_z	159	stimuli_distractor_diamondtriangles.svg	stimuli_distractor_trianglediamonds.svg	37	no	44	0	647	6	4	antiphase_hc_sio.wav	1	6	6	noise_calib_stim_RIGHT.wav	2	29	blb_dichoticlistening_pa-pa.mp3	pa	pa	0	left
6.6.1	mac	2023-07-17	14:04:50	14:25:48	1254625	63e51be199687d0e5eec6f0b	2	1	main_z	24	advance_on_keypress_ZEE	160	stimuli_distractor_diamondtriangles.svg	stimuli_distractor_trianglediamonds.svg	37	no	57	0	270	6	4	antiphase_hc_sio.wav	1	6	6	noise_calib_stim_RIGHT.wav	2	29	blb_dichoticlistening_pa-pa.mp3	pa	pa	0	left
6.6.1	mac	2023-07-17	14:04:50	14:26:18	1285135	63e51be199687d0e5eec6f0b	2	1	practice_slash	26	practice_slash	1	stimuli_target_rectanglediamonds.svg	stimuli_distractor_trianglediamonds.svg	4	yes	53	1	572	6	4	antiphase_hc_sio.wav	1	6	6	noise_calib_stim_RIGHT.wav	2	29	blb_dichoticlistening_pa-pa.mp3	pa	pa	0	left
6.6.1	mac	2023-07-17	14:04:50	14:26:18	1285135	63e51be199687d0e5eec6f0b	2	1	practice_slash	26	advance_on_keypress_SLASH	2	stimuli_target_rectanglediamonds.svg	stimuli_distractor_trianglediamonds.svg	4	yes	57	0	659	6	4	antiphase_hc_sio.wav	1	6	6	noise_calib_stim_RIGHT.wav	2	29	blb_dichoticlistening_pa-pa.mp3	pa	pa	0	left
6.6.1	mac	2023-07-17	14:04:50	14:26:21	1287847	63e51be199687d0e5eec6f0b	2	1	practice_slash	26	practice_slash	3	stimuli_target_rectanglediamonds.svg	stimuli_distractor_diamondtriangles.svg	1	yes	53	1	418	6	4	antiphase_hc_sio.wav	1	6	6	noise_calib_stim_RIGHT.wav	2	29	blb_dichoticlistening_pa-pa.mp3	pa	pa	0	left
6.6.1	mac	2023-07-17	14:04:50	14:26:21	1287847	63e51be199687d0e5eec6f0b	2	1	practice_slash	26	advance_on_keypress_SLASH	4	stimuli_target_rectanglediamonds.svg	stimuli_distractor_diamondtriangles.svg	1	yes	57	0	800	6	4	antiphase_hc_sio.wav	1	6	6	noise_calib_stim_RIGHT.wav	2	29	blb_dichoticlistening_pa-pa.mp3	pa	pa	0	left
6.6.1	mac	2023-07-17	14:04:50	14:26:24	1291053	63e51be199687d0e5eec6f0b	2	1	practice_slash	26	practice_slash	5	stimuli_target_squarediamonds.svg	stimuli_distractor_trianglediamonds.svg	5	yes	53	1	761	6	4	antiphase_hc_sio.wav	1	6	6	noise_calib_stim_RIGHT.wav	2	29	blb_dichoticlistening_pa-pa.mp3	pa	pa	0	left
6.6.1	mac	2023-07-17	14:04:50	14:26:24	1291053	63e51be199687d0e5eec6f0b	2	1	practice_slash	26	advance_on_keypress_SLASH	6	stimuli_target_squarediamonds.svg	stimuli_distractor_trianglediamonds.svg	5	yes	57	0	304	6	4	antiphase_hc_sio.wav	1	6	6	noise_calib_stim_RIGHT.wav	2	29	blb_dichoticlistening_pa-pa.mp3	pa	pa	0	left
6.6.1	mac	2023-07-17	14:04:50	14:26:28	1294980	63e51be199687d0e5eec6f0b	2	1	practice_slash	26	practice_slash	7	stimuli_distractor_trianglediamonds.svg	stimuli_distractor_diamondtriangles.svg	16	no	0	1	2000	6	4	antiphase_hc_sio.wav	1	6	6	noise_calib_stim_RIGHT.wav	2	29	blb_dichoticlistening_pa-pa.mp3	pa	pa	0	left
6.6.1	mac	2023-07-17	14:04:50	14:26:28	1294980	63e51be199687d0e5eec6f0b	2	1	practice_slash	26	advance_on_keypress_SLASH	8	stimuli_distractor_trianglediamonds.svg	stimuli_distractor_diamondtriangles.svg	16	no	57	0	662	6	4	antiphase_hc_sio.wav	1	6	6	noise_calib_stim_RIGHT.wav	2	29	blb_dichoticlistening_pa-pa.mp3	pa	pa	0	left
6.6.1	mac	2023-07-17	14:04:50	14:26:31	1297790	63e51be199687d0e5eec6f0b	2	1	practice_slash	26	practice_slash	9	stimuli_distractor_trianglediamonds.svg	stimuli_target_rectanglediamonds.svg	10	yes	53	1	511	6	4	antiphase_hc_sio.wav	1	6	6	noise_calib_stim_RIGHT.wav	2	29	blb_dichoticlistening_pa-pa.mp3	pa	pa	0	left
6.6.1	mac	2023-07-17	14:04:50	14:26:31	1297790	63e51be199687d0e5eec6f0b	2	1	practice_slash	26	advance_on_keypress_SLASH	10	stimuli_distractor_trianglediamonds.svg	stimuli_target_rectanglediamonds.svg	10	yes	57	0	370	6	4	antiphase_hc_sio.wav	1	6	6	noise_calib_stim_RIGHT.wav	2	29	blb_dichoticlistening_pa-pa.mp3	pa	pa	0	left
6.6.1	mac	2023-07-17	14:04:50	14:26:35	1301798	63e51be199687d0e5eec6f0b	2	1	practice_slash	26	practice_slash	11	stimuli_distractor_diamondtriangles.svg	stimuli_distractor_trianglediamonds.svg	14	no	0	1	2000	6	4	antiphase_hc_sio.wav	1	6	6	noise_calib_stim_RIGHT.wav	2	29	blb_dichoticlistening_pa-pa.mp3	pa	pa	0	left
6.6.1	mac	2023-07-17	14:04:50	14:26:35	1301798	63e51be199687d0e5eec6f0b	2	1	practice_slash	26	advance_on_keypress_SLASH	12	stimuli_distractor_diamondtriangles.svg	stimuli_distractor_trianglediamonds.svg	14	no	57	0	640	6	4	antiphase_hc_sio.wav	1	6	6	noise_calib_stim_RIGHT.wav	2	29	blb_dichoticlistening_pa-pa.mp3	pa	pa	0	left
6.6.1	mac	2023-07-17	14:04:50	14:26:38	1304643	63e51be199687d0e5eec6f0b	2	1	practice_slash	26	practice_slash	13	stimuli_target_diamondsquares.svg	stimuli_distractor_trianglediamonds.svg	6	yes	53	1	580	6	4	antiphase_hc_sio.wav	1	6	6	noise_calib_stim_RIGHT.wav	2	29	blb_dichoticlistening_pa-pa.mp3	pa	pa	0	left
6.6.1	mac	2023-07-17	14:04:50	14:26:38	1304643	63e51be199687d0e5eec6f0b	2	1	practice_slash	26	advance_on_keypress_SLASH	14	stimuli_target_diamondsquares.svg	stimuli_distractor_trianglediamonds.svg	6	yes	57	0	1124	6	4	antiphase_hc_sio.wav	1	6	6	noise_calib_stim_RIGHT.wav	2	29	blb_dichoticlistening_pa-pa.mp3	pa	pa	0	left
6.6.1	mac	2023-07-17	14:04:50	14:26:41	1308008	63e51be199687d0e5eec6f0b	2	1	practice_slash	26	practice_slash	15	stimuli_target_diamondsquares.svg	stimuli_distractor_diamondtriangles.svg	3	yes	53	1	611	6	4	antiphase_hc_sio.wav	1	6	6	noise_calib_stim_RIGHT.wav	2	29	blb_dichoticlistening_pa-pa.mp3	pa	pa	0	left
6.6.1	mac	2023-07-17	14:04:50	14:26:41	1308008	63e51be199687d0e5eec6f0b	2	1	practice_slash	26	advance_on_keypress_SLASH	16	stimuli_target_diamondsquares.svg	stimuli_distractor_diamondtriangles.svg	3	yes	57	0	382	6	4	antiphase_hc_sio.wav	1	6	6	noise_calib_stim_RIGHT.wav	2	29	blb_dichoticlistening_pa-pa.mp3	pa	pa	0	left
6.6.1	mac	2023-07-17	14:04:50	14:26:44	1310493	63e51be199687d0e5eec6f0b	2	1	practice_slash	26	practice_slash	17	stimuli_distractor_trianglediamonds.svg	stimuli_target_squarediamonds.svg	11	yes	53	1	465	6	4	antiphase_hc_sio.wav	1	6	6	noise_calib_stim_RIGHT.wav	2	29	blb_dichoticlistening_pa-pa.mp3	pa	pa	0	left
6.6.1	mac	2023-07-17	14:04:50	14:26:44	1310493	63e51be199687d0e5eec6f0b	2	1	practice_slash	26	advance_on_keypress_SLASH	18	stimuli_distractor_trianglediamonds.svg	stimuli_target_squarediamonds.svg	11	yes	57	0	246	6	4	antiphase_hc_sio.wav	1	6	6	noise_calib_stim_RIGHT.wav	2	29	blb_dichoticlistening_pa-pa.mp3	pa	pa	0	left
