build	computer.platform	date	time	timestamp	time_elapsed_ms	subject	group	session	blockcode	blocknum	trialcode	trialnum	stimulus_left	stimulus_right	stim_index	target_present	response	correct	latency	headphonecheck_countTestTrials	headphonecheck_index	headphonecheck_testSound	headphonecheck_correctResponse	stereocheck_countTestTrials	stereocheck_index	stereocheck_testSound	stereocheck_correctResponse	DL_index	DL_soundfile	DL_leftSound	DL_rightSound	DL_dualSound	DL_choice
6.6.1	win	2023-07-07	10:39:21	0	0	62b4403257f7d42730f83394	2	1	headphonecheck_calibration	4	headphonecheck_calibrationIntro	1			0		calibrationButton	0	6795	0	0			0	0			1				0	
6.6.1	win	2023-07-07	10:39:21	0	0	62b4403257f7d42730f83394	2	1	headphonecheck_testphase	5	test_collectResponse	3			0		second	0	9827	1	4	antiphase_hc_sio.wav	1	0	0			1				0	
6.6.1	win	2023-07-07	10:39:21	0	0	62b4403257f7d42730f83394	2	1	headphonecheck_testphase	5	test_collectResponse	6			0		first	1	671	2	3	antiphase_hc_soi.wav	1	0	0			1				0	
6.6.1	win	2023-07-07	10:39:21	0	0	62b4403257f7d42730f83394	2	1	headphonecheck_testphase	5	test_collectResponse	9			0		third	1	417	3	6	antiphase_hc_ois.wav	3	0	0			1				0	
6.6.1	win	2023-07-07	10:39:21	0	0	62b4403257f7d42730f83394	2	1	headphonecheck_testphase	5	test_collectResponse	12			0		second	1	322	4	1	antiphase_hc_iso.wav	2	0	0			1				0	
6.6.1	win	2023-07-07	10:39:21	0	0	62b4403257f7d42730f83394	2	1	headphonecheck_testphase	5	test_collectResponse	15			0		second	1	442	5	5	antiphase_hc_osi.wav	2	0	0			1				0	
6.6.1	win	2023-07-07	10:39:21	0	0	62b4403257f7d42730f83394	2	1	headphonecheck_testphase	5	test_collectResponse	18			0		third	1	372	6	2	antiphase_hc_ios.wav	3	0	0			1				0	
6.6.1	win	2023-07-07	10:39:21	0	0	62b4403257f7d42730f83394	2	1	stereocheck_calibration	7	stereocheck_calibrationIntro	1			0		stereocheck_calibrationButton	0	4891	6	2	antiphase_hc_ios.wav	3	0	0			1				0	
6.6.1	win	2023-07-07	10:39:21	0	0	62b4403257f7d42730f83394	2	1	stereocheck_testphase	8	stereocheck_test_collectResponse	3			0		stereocheck_left	1	698	6	2	antiphase_hc_ios.wav	3	1	3	noise_calib_stim_LEFT.wav	1	1				0	
6.6.1	win	2023-07-07	10:39:21	0	0	62b4403257f7d42730f83394	2	1	stereocheck_testphase	8	stereocheck_test_collectResponse	6			0		stereocheck_left	1	352	6	2	antiphase_hc_ios.wav	3	2	2	noise_calib_stim_LEFT.wav	1	1				0	
6.6.1	win	2023-07-07	10:39:21	0	0	62b4403257f7d42730f83394	2	1	stereocheck_testphase	8	stereocheck_test_collectResponse	9			0		stereocheck_left	1	324	6	2	antiphase_hc_ios.wav	3	3	1	noise_calib_stim_LEFT.wav	1	1				0	
6.6.1	win	2023-07-07	10:39:21	0	0	62b4403257f7d42730f83394	2	1	stereocheck_testphase	8	stereocheck_test_collectResponse	12			0		stereocheck_right	1	348	6	2	antiphase_hc_ios.wav	3	4	6	noise_calib_stim_RIGHT.wav	2	1				0	
6.6.1	win	2023-07-07	10:39:21	0	0	62b4403257f7d42730f83394	2	1	stereocheck_testphase	8	stereocheck_test_collectResponse	15			0		stereocheck_right	1	298	6	2	antiphase_hc_ios.wav	3	5	4	noise_calib_stim_RIGHT.wav	2	1				0	
6.6.1	win	2023-07-07	10:39:21	0	0	62b4403257f7d42730f83394	2	1	stereocheck_testphase	8	stereocheck_test_collectResponse	18			0		stereocheck_right	1	304	6	2	antiphase_hc_ios.wav	3	6	5	noise_calib_stim_RIGHT.wav	2	1				0	
6.6.1	win	2023-07-07	10:39:21	0	0	62b4403257f7d42730f83394	2	1	DL_practice	11	DL_practice	2			0		ka	0	1019	6	2	antiphase_hc_ios.wav	3	6	5	noise_calib_stim_RIGHT.wav	2	18	blb_dichoticlistening_ga-ta.mp3	ga	ta	1	other
6.6.1	win	2023-07-07	10:39:21	0	0	62b4403257f7d42730f83394	2	1	DL_practice	11	DL_practice	3			0		ga	1	992	6	2	antiphase_hc_ios.wav	3	6	5	noise_calib_stim_RIGHT.wav	2	15	blb_dichoticlistening_ga-ga.mp3	ga	ga	0	left
6.6.1	win	2023-07-07	10:39:21	0	0	62b4403257f7d42730f83394	2	1	DL_practice	11	DL_practice	4			0		ka	1	926	6	2	antiphase_hc_ios.wav	3	6	5	noise_calib_stim_RIGHT.wav	2	22	blb_dichoticlistening_ka-ka.mp3	ka	ka	0	left
6.6.1	win	2023-07-07	10:39:21	0	0	62b4403257f7d42730f83394	2	1	DL_practice	11	DL_practice	5			0		ba	1	1606	6	2	antiphase_hc_ios.wav	3	6	5	noise_calib_stim_RIGHT.wav	2	7	blb_dichoticlistening_da-ba.mp3	da	ba	1	right
6.6.1	win	2023-07-07	10:39:21	0	0	62b4403257f7d42730f83394	2	1	DL_practice	11	DL_practice	6			0		pa	1	1195	6	2	antiphase_hc_ios.wav	3	6	5	noise_calib_stim_RIGHT.wav	2	29	blb_dichoticlistening_pa-pa.mp3	pa	pa	0	left
6.6.1	win	2023-07-07	10:39:21	0	0	62b4403257f7d42730f83394	2	1	DL_practice	11	DL_practice	7			0		da	1	1152	6	2	antiphase_hc_ios.wav	3	6	5	noise_calib_stim_RIGHT.wav	2	8	blb_dichoticlistening_da-da.mp3	da	da	0	left
6.6.1	win	2023-07-07	10:39:21	0	0	62b4403257f7d42730f83394	2	1	DL_practice	11	DL_practice	8			0		ka	1	1118	6	2	antiphase_hc_ios.wav	3	6	5	noise_calib_stim_RIGHT.wav	2	23	blb_dichoticlistening_ka-pa.mp3	ka	pa	1	left
6.6.1	win	2023-07-07	10:39:21	0	0	62b4403257f7d42730f83394	2	1	DL_practice	11	DL_practice	9			0		ka	0	896	6	2	antiphase_hc_ios.wav	3	6	5	noise_calib_stim_RIGHT.wav	2	36	blb_dichoticlistening_ta-ta.mp3	ta	ta	0	other
6.6.1	win	2023-07-07	10:39:21	0	0	62b4403257f7d42730f83394	2	1	DL_practice	11	DL_practice	10			0		ba	1	1208	6	2	antiphase_hc_ios.wav	3	6	5	noise_calib_stim_RIGHT.wav	2	1	blb_dichoticlistening_ba-ba.mp3	ba	ba	0	left
6.6.1	win	2023-07-07	10:39:21	0	0	62b4403257f7d42730f83394	2	1	DL_test	13	DL_test	1			0		ba	1	3362	6	2	antiphase_hc_ios.wav	3	6	5	noise_calib_stim_RIGHT.wav	2	3	blb_dichoticlistening_ba-ga.mp3	ba	ga	1	left
6.6.1	win	2023-07-07	10:39:21	0	0	62b4403257f7d42730f83394	2	1	DL_test	13	DL_test	2			0		ka	0	1217	6	2	antiphase_hc_ios.wav	3	6	5	noise_calib_stim_RIGHT.wav	2	6	blb_dichoticlistening_ba-ta.mp3	ba	ta	1	other
6.6.1	win	2023-07-07	10:39:21	0	0	62b4403257f7d42730f83394	2	1	DL_test	13	DL_test	3			0		pa	1	1382	6	2	antiphase_hc_ios.wav	3	6	5	noise_calib_stim_RIGHT.wav	2	25	blb_dichoticlistening_pa-ba.mp3	pa	ba	1	left
6.6.1	win	2023-07-07	10:39:21	0	0	62b4403257f7d42730f83394	2	1	DL_test	13	DL_test	4			0		ka	0	1052	6	2	antiphase_hc_ios.wav	3	6	5	noise_calib_stim_RIGHT.wav	2	32	blb_dichoticlistening_ta-da.mp3	ta	da	1	other
6.6.1	win	2023-07-07	10:39:21	0	0	62b4403257f7d42730f83394	2	1	DL_test	13	DL_test	5			0		ka	1	951	6	2	antiphase_hc_ios.wav	3	6	5	noise_calib_stim_RIGHT.wav	2	22	blb_dichoticlistening_ka-ka.mp3	ka	ka	0	left
6.6.1	win	2023-07-07	10:39:21	0	0	62b4403257f7d42730f83394	2	1	DL_test	13	DL_test	6			0		ba	1	1199	6	2	antiphase_hc_ios.wav	3	6	5	noise_calib_stim_RIGHT.wav	2	1	blb_dichoticlistening_ba-ba.mp3	ba	ba	0	left
6.6.1	win	2023-07-07	10:39:21	0	0	62b4403257f7d42730f83394	2	1	DL_test	13	DL_test	7			0		pa	1	1092	6	2	antiphase_hc_ios.wav	3	6	5	noise_calib_stim_RIGHT.wav	2	35	blb_dichoticlistening_ta-pa.mp3	ta	pa	1	right
6.6.1	win	2023-07-07	10:39:21	0	0	62b4403257f7d42730f83394	2	1	DL_test	13	DL_test	8			0		pa	1	2430	6	2	antiphase_hc_ios.wav	3	6	5	noise_calib_stim_RIGHT.wav	2	17	blb_dichoticlistening_ga-pa.mp3	ga	pa	1	right
6.6.1	win	2023-07-07	10:39:21	0	0	62b4403257f7d42730f83394	2	1	DL_test	13	DL_test	9			0		ka	1	1009	6	2	antiphase_hc_ios.wav	3	6	5	noise_calib_stim_RIGHT.wav	2	20	blb_dichoticlistening_ka-da.mp3	ka	da	1	left
6.6.1	win	2023-07-07	10:39:21	0	0	62b4403257f7d42730f83394	2	1	DL_test	13	DL_test	10			0		ga	1	942	6	2	antiphase_hc_ios.wav	3	6	5	noise_calib_stim_RIGHT.wav	2	9	blb_dichoticlistening_da-ga.mp3	da	ga	1	right
6.6.1	win	2023-07-07	10:39:21	0	0	62b4403257f7d42730f83394	2	1	DL_test	13	DL_test	11			0		ba	1	1205	6	2	antiphase_hc_ios.wav	3	6	5	noise_calib_stim_RIGHT.wav	2	2	blb_dichoticlistening_ba-da.mp3	ba	da	1	left
6.6.1	win	2023-07-07	10:39:21	0	0	62b4403257f7d42730f83394	2	1	DL_test	13	DL_test	12			0		da	1	922	6	2	antiphase_hc_ios.wav	3	6	5	noise_calib_stim_RIGHT.wav	2	8	blb_dichoticlistening_da-da.mp3	da	da	0	left
6.6.1	win	2023-07-07	10:39:21	0	0	62b4403257f7d42730f83394	2	1	DL_test	13	DL_test	13			0		ba	1	1251	6	2	antiphase_hc_ios.wav	3	6	5	noise_calib_stim_RIGHT.wav	2	13	blb_dichoticlistening_ga-ba.mp3	ga	ba	1	right
6.6.1	win	2023-07-07	10:39:21	0	0	62b4403257f7d42730f83394	2	1	DL_test	13	DL_test	14			0		pa	1	1278	6	2	antiphase_hc_ios.wav	3	6	5	noise_calib_stim_RIGHT.wav	2	5	blb_dichoticlistening_ba-pa.mp3	ba	pa	1	right
6.6.1	win	2023-07-07	10:39:21	0	0	62b4403257f7d42730f83394	2	1	DL_test	13	DL_test	15			0		pa	1	1616	6	2	antiphase_hc_ios.wav	3	6	5	noise_calib_stim_RIGHT.wav	2	23	blb_dichoticlistening_ka-pa.mp3	ka	pa	1	right
6.6.1	win	2023-07-07	10:39:21	0	0	62b4403257f7d42730f83394	2	1	DL_test	13	DL_test	16			0		ba	1	1381	6	2	antiphase_hc_ios.wav	3	6	5	noise_calib_stim_RIGHT.wav	2	7	blb_dichoticlistening_da-ba.mp3	da	ba	1	right
6.6.1	win	2023-07-07	10:39:21	0	0	62b4403257f7d42730f83394	2	1	DL_test	13	DL_test	17			0		ka	1	1034	6	2	antiphase_hc_ios.wav	3	6	5	noise_calib_stim_RIGHT.wav	2	28	blb_dichoticlistening_pa-ka.mp3	pa	ka	1	right
6.6.1	win	2023-07-07	10:39:21	0	0	62b4403257f7d42730f83394	2	1	DL_test	13	DL_test	18			0		pa	1	1133	6	2	antiphase_hc_ios.wav	3	6	5	noise_calib_stim_RIGHT.wav	2	29	blb_dichoticlistening_pa-pa.mp3	pa	pa	0	left
6.6.1	win	2023-07-07	10:39:21	0	0	62b4403257f7d42730f83394	2	1	DL_test	13	DL_test	19			0		ga	1	973	6	2	antiphase_hc_ios.wav	3	6	5	noise_calib_stim_RIGHT.wav	2	15	blb_dichoticlistening_ga-ga.mp3	ga	ga	0	left
6.6.1	win	2023-07-07	10:39:21	0	0	62b4403257f7d42730f83394	2	1	DL_test	13	DL_test	20			0		ka	1	852	6	2	antiphase_hc_ios.wav	3	6	5	noise_calib_stim_RIGHT.wav	2	21	blb_dichoticlistening_ka-ga.mp3	ka	ga	1	left
6.6.1	win	2023-07-07	10:39:21	0	0	62b4403257f7d42730f83394	2	1	DL_test	13	DL_test	21			0		pa	1	1159	6	2	antiphase_hc_ios.wav	3	6	5	noise_calib_stim_RIGHT.wav	2	30	blb_dichoticlistening_pa-ta.mp3	pa	ta	1	left
6.6.1	win	2023-07-07	10:39:21	0	0	62b4403257f7d42730f83394	2	1	DL_test	13	DL_test	22			0		ka	0	1360	6	2	antiphase_hc_ios.wav	3	6	5	noise_calib_stim_RIGHT.wav	2	36	blb_dichoticlistening_ta-ta.mp3	ta	ta	0	other
6.6.1	win	2023-07-07	10:39:21	0	0	62b4403257f7d42730f83394	2	1	DL_test	13	DL_test	23			0		pa	1	1629	6	2	antiphase_hc_ios.wav	3	6	5	noise_calib_stim_RIGHT.wav	2	26	blb_dichoticlistening_pa-da.mp3	pa	da	1	left
6.6.1	win	2023-07-07	10:39:21	0	0	62b4403257f7d42730f83394	2	1	DL_test	13	DL_test	24			0		ka	1	938	6	2	antiphase_hc_ios.wav	3	6	5	noise_calib_stim_RIGHT.wav	2	16	blb_dichoticlistening_ga-ka.mp3	ga	ka	1	right
6.6.1	win	2023-07-07	10:39:21	0	0	62b4403257f7d42730f83394	2	1	DL_test	13	DL_test	25			0		pa	1	1233	6	2	antiphase_hc_ios.wav	3	6	5	noise_calib_stim_RIGHT.wav	2	11	blb_dichoticlistening_da-pa.mp3	da	pa	1	right
6.6.1	win	2023-07-07	10:39:21	0	0	62b4403257f7d42730f83394	2	1	DL_test	13	DL_test	26			0		ka	1	2405	6	2	antiphase_hc_ios.wav	3	6	5	noise_calib_stim_RIGHT.wav	2	4	blb_dichoticlistening_ba-ka.mp3	ba	ka	1	right
6.6.1	win	2023-07-07	10:39:21	0	0	62b4403257f7d42730f83394	2	1	DL_test	13	DL_test	27			0		ka	1	962	6	2	antiphase_hc_ios.wav	3	6	5	noise_calib_stim_RIGHT.wav	2	24	blb_dichoticlistening_ka-ta.mp3	ka	ta	1	left
6.6.1	win	2023-07-07	10:39:21	0	0	62b4403257f7d42730f83394	2	1	DL_test	13	DL_test	28			0		pa	0	1137	6	2	antiphase_hc_ios.wav	3	6	5	noise_calib_stim_RIGHT.wav	2	31	blb_dichoticlistening_ta-ba.mp3	ta	ba	1	other
6.6.1	win	2023-07-07	10:39:21	0	0	62b4403257f7d42730f83394	2	1	DL_test	13	DL_test	29			0		ga	1	1098	6	2	antiphase_hc_ios.wav	3	6	5	noise_calib_stim_RIGHT.wav	2	14	blb_dichoticlistening_ga-da.mp3	ga	da	1	left
6.6.1	win	2023-07-07	10:39:21	0	0	62b4403257f7d42730f83394	2	1	DL_test	13	DL_test	30			0		pa	0	1083	6	2	antiphase_hc_ios.wav	3	6	5	noise_calib_stim_RIGHT.wav	2	10	blb_dichoticlistening_da-ka.mp3	da	ka	1	other
6.6.1	win	2023-07-07	10:39:21	0	0	62b4403257f7d42730f83394	2	1	DL_test	13	DL_test	31			0		ka	1	973	6	2	antiphase_hc_ios.wav	3	6	5	noise_calib_stim_RIGHT.wav	2	34	blb_dichoticlistening_ta-ka.mp3	ta	ka	1	right
6.6.1	win	2023-07-07	10:39:21	0	0	62b4403257f7d42730f83394	2	1	DL_test	13	DL_test	32			0		ta	1	2260	6	2	antiphase_hc_ios.wav	3	6	5	noise_calib_stim_RIGHT.wav	2	12	blb_dichoticlistening_da-ta.mp3	da	ta	1	right
6.6.1	win	2023-07-07	10:39:21	0	0	62b4403257f7d42730f83394	2	1	DL_test	13	DL_test	33			0		pa	0	1191	6	2	antiphase_hc_ios.wav	3	6	5	noise_calib_stim_RIGHT.wav	2	19	blb_dichoticlistening_ka-ba.mp3	ka	ba	1	other
6.6.1	win	2023-07-07	10:39:21	0	0	62b4403257f7d42730f83394	2	1	DL_test	13	DL_test	34			0		ka	0	853	6	2	antiphase_hc_ios.wav	3	6	5	noise_calib_stim_RIGHT.wav	2	33	blb_dichoticlistening_ta-ga.mp3	ta	ga	1	other
6.6.1	win	2023-07-07	10:39:21	0	0	62b4403257f7d42730f83394	2	1	DL_test	13	DL_test	35			0		pa	1	1016	6	2	antiphase_hc_ios.wav	3	6	5	noise_calib_stim_RIGHT.wav	2	27	blb_dichoticlistening_pa-ga.mp3	pa	ga	1	left
6.6.1	win	2023-07-07	10:39:21	0	0	62b4403257f7d42730f83394	2	1	DL_test	13	DL_test	36			0		ka	0	1197	6	2	antiphase_hc_ios.wav	3	6	5	noise_calib_stim_RIGHT.wav	2	18	blb_dichoticlistening_ga-ta.mp3	ga	ta	1	other
6.6.1	win	2023-07-07	10:39:21	0	0	62b4403257f7d42730f83394	2	1	DL_test	14	DL_test	1			0		ga	1	711	6	2	antiphase_hc_ios.wav	3	6	5	noise_calib_stim_RIGHT.wav	2	14	blb_dichoticlistening_ga-da.mp3	ga	da	1	left
6.6.1	win	2023-07-07	10:39:21	0	0	62b4403257f7d42730f83394	2	1	DL_test	14	DL_test	2			0		ka	1	672	6	2	antiphase_hc_ios.wav	3	6	5	noise_calib_stim_RIGHT.wav	2	22	blb_dichoticlistening_ka-ka.mp3	ka	ka	0	left
6.6.1	win	2023-07-07	10:39:21	0	0	62b4403257f7d42730f83394	2	1	DL_test	14	DL_test	3			0		ta	1	1907	6	2	antiphase_hc_ios.wav	3	6	5	noise_calib_stim_RIGHT.wav	2	36	blb_dichoticlistening_ta-ta.mp3	ta	ta	0	left
6.6.1	win	2023-07-07	10:39:21	0	0	62b4403257f7d42730f83394	2	1	DL_test	14	DL_test	4			0		ka	1	876	6	2	antiphase_hc_ios.wav	3	6	5	noise_calib_stim_RIGHT.wav	2	34	blb_dichoticlistening_ta-ka.mp3	ta	ka	1	right
6.6.1	win	2023-07-07	10:39:21	0	0	62b4403257f7d42730f83394	2	1	DL_test	14	DL_test	5			0		pa	1	919	6	2	antiphase_hc_ios.wav	3	6	5	noise_calib_stim_RIGHT.wav	2	30	blb_dichoticlistening_pa-ta.mp3	pa	ta	1	left
6.6.1	win	2023-07-07	10:39:21	0	0	62b4403257f7d42730f83394	2	1	DL_test	14	DL_test	6			0		pa	0	1295	6	2	antiphase_hc_ios.wav	3	6	5	noise_calib_stim_RIGHT.wav	2	31	blb_dichoticlistening_ta-ba.mp3	ta	ba	1	other
6.6.1	win	2023-07-07	10:39:21	0	0	62b4403257f7d42730f83394	2	1	DL_test	14	DL_test	7			0		pa	0	1081	6	2	antiphase_hc_ios.wav	3	6	5	noise_calib_stim_RIGHT.wav	2	10	blb_dichoticlistening_da-ka.mp3	da	ka	1	other
6.6.1	win	2023-07-07	10:39:21	0	0	62b4403257f7d42730f83394	2	1	DL_test	14	DL_test	8			0		ka	1	1442	6	2	antiphase_hc_ios.wav	3	6	5	noise_calib_stim_RIGHT.wav	2	19	blb_dichoticlistening_ka-ba.mp3	ka	ba	1	left
6.6.1	win	2023-07-07	10:39:21	0	0	62b4403257f7d42730f83394	2	1	DL_test	14	DL_test	9			0		ba	1	1094	6	2	antiphase_hc_ios.wav	3	6	5	noise_calib_stim_RIGHT.wav	2	1	blb_dichoticlistening_ba-ba.mp3	ba	ba	0	left
6.6.1	win	2023-07-07	10:39:21	0	0	62b4403257f7d42730f83394	2	1	DL_test	14	DL_test	10			0		ka	0	1015	6	2	antiphase_hc_ios.wav	3	6	5	noise_calib_stim_RIGHT.wav	2	33	blb_dichoticlistening_ta-ga.mp3	ta	ga	1	other
6.6.1	win	2023-07-07	10:39:21	0	0	62b4403257f7d42730f83394	2	1	DL_test	14	DL_test	11			0		ga	1	1044	6	2	antiphase_hc_ios.wav	3	6	5	noise_calib_stim_RIGHT.wav	2	15	blb_dichoticlistening_ga-ga.mp3	ga	ga	0	left
6.6.1	win	2023-07-07	10:39:21	0	0	62b4403257f7d42730f83394	2	1	DL_test	14	DL_test	12			0		ka	0	1767	6	2	antiphase_hc_ios.wav	3	6	5	noise_calib_stim_RIGHT.wav	2	6	blb_dichoticlistening_ba-ta.mp3	ba	ta	1	other
6.6.1	win	2023-07-07	10:39:21	0	0	62b4403257f7d42730f83394	2	1	DL_test	14	DL_test	13			0		ba	1	1270	6	2	antiphase_hc_ios.wav	3	6	5	noise_calib_stim_RIGHT.wav	2	7	blb_dichoticlistening_da-ba.mp3	da	ba	1	right
6.6.1	win	2023-07-07	10:39:21	0	0	62b4403257f7d42730f83394	2	1	DL_test	14	DL_test	14			0		pa	1	1425	6	2	antiphase_hc_ios.wav	3	6	5	noise_calib_stim_RIGHT.wav	2	17	blb_dichoticlistening_ga-pa.mp3	ga	pa	1	right
6.6.1	win	2023-07-07	10:39:21	0	0	62b4403257f7d42730f83394	2	1	DL_test	14	DL_test	15			0		pa	1	1093	6	2	antiphase_hc_ios.wav	3	6	5	noise_calib_stim_RIGHT.wav	2	25	blb_dichoticlistening_pa-ba.mp3	pa	ba	1	left
6.6.1	win	2023-07-07	10:39:21	0	0	62b4403257f7d42730f83394	2	1	DL_test	14	DL_test	16			0		pa	1	1191	6	2	antiphase_hc_ios.wav	3	6	5	noise_calib_stim_RIGHT.wav	2	5	blb_dichoticlistening_ba-pa.mp3	ba	pa	1	right
6.6.1	win	2023-07-07	10:39:21	0	0	62b4403257f7d42730f83394	2	1	DL_test	14	DL_test	17			0		pa	1	1093	6	2	antiphase_hc_ios.wav	3	6	5	noise_calib_stim_RIGHT.wav	2	27	blb_dichoticlistening_pa-ga.mp3	pa	ga	1	left
6.6.1	win	2023-07-07	10:39:21	0	0	62b4403257f7d42730f83394	2	1	DL_test	14	DL_test	18			0		pa	1	942	6	2	antiphase_hc_ios.wav	3	6	5	noise_calib_stim_RIGHT.wav	2	29	blb_dichoticlistening_pa-pa.mp3	pa	pa	0	left
6.6.1	win	2023-07-07	10:39:21	0	0	62b4403257f7d42730f83394	2	1	DL_test	14	DL_test	19			0		ka	1	830	6	2	antiphase_hc_ios.wav	3	6	5	noise_calib_stim_RIGHT.wav	2	21	blb_dichoticlistening_ka-ga.mp3	ka	ga	1	left
6.6.1	win	2023-07-07	10:39:21	0	0	62b4403257f7d42730f83394	2	1	DL_test	14	DL_test	20			0		ba	1	2122	6	2	antiphase_hc_ios.wav	3	6	5	noise_calib_stim_RIGHT.wav	2	3	blb_dichoticlistening_ba-ga.mp3	ba	ga	1	left
6.6.1	win	2023-07-07	10:39:21	0	0	62b4403257f7d42730f83394	2	1	DL_test	14	DL_test	21			0		pa	1	1331	6	2	antiphase_hc_ios.wav	3	6	5	noise_calib_stim_RIGHT.wav	2	35	blb_dichoticlistening_ta-pa.mp3	ta	pa	1	right
6.6.1	win	2023-07-07	10:39:21	0	0	62b4403257f7d42730f83394	2	1	DL_test	14	DL_test	22			0		ka	0	811	6	2	antiphase_hc_ios.wav	3	6	5	noise_calib_stim_RIGHT.wav	2	32	blb_dichoticlistening_ta-da.mp3	ta	da	1	other
6.6.1	win	2023-07-07	10:39:21	0	0	62b4403257f7d42730f83394	2	1	DL_test	14	DL_test	23			0		pa	1	1000	6	2	antiphase_hc_ios.wav	3	6	5	noise_calib_stim_RIGHT.wav	2	11	blb_dichoticlistening_da-pa.mp3	da	pa	1	right
6.6.1	win	2023-07-07	10:39:21	0	0	62b4403257f7d42730f83394	2	1	DL_test	14	DL_test	24			0		da	1	1087	6	2	antiphase_hc_ios.wav	3	6	5	noise_calib_stim_RIGHT.wav	2	2	blb_dichoticlistening_ba-da.mp3	ba	da	1	right
6.6.1	win	2023-07-07	10:39:21	0	0	62b4403257f7d42730f83394	2	1	DL_test	14	DL_test	25			0		pa	1	1088	6	2	antiphase_hc_ios.wav	3	6	5	noise_calib_stim_RIGHT.wav	2	26	blb_dichoticlistening_pa-da.mp3	pa	da	1	left
6.6.1	win	2023-07-07	10:39:21	0	0	62b4403257f7d42730f83394	2	1	DL_test	14	DL_test	26			0		ka	1	971	6	2	antiphase_hc_ios.wav	3	6	5	noise_calib_stim_RIGHT.wav	2	16	blb_dichoticlistening_ga-ka.mp3	ga	ka	1	right
6.6.1	win	2023-07-07	10:39:21	0	0	62b4403257f7d42730f83394	2	1	DL_test	14	DL_test	27			0		ga	1	762	6	2	antiphase_hc_ios.wav	3	6	5	noise_calib_stim_RIGHT.wav	2	9	blb_dichoticlistening_da-ga.mp3	da	ga	1	right
6.6.1	win	2023-07-07	10:39:21	0	0	62b4403257f7d42730f83394	2	1	DL_test	14	DL_test	28			0		ka	1	729	6	2	antiphase_hc_ios.wav	3	6	5	noise_calib_stim_RIGHT.wav	2	4	blb_dichoticlistening_ba-ka.mp3	ba	ka	1	right
6.6.1	win	2023-07-07	10:39:21	0	0	62b4403257f7d42730f83394	2	1	DL_test	14	DL_test	29			0		ka	0	873	6	2	antiphase_hc_ios.wav	3	6	5	noise_calib_stim_RIGHT.wav	2	18	blb_dichoticlistening_ga-ta.mp3	ga	ta	1	other
6.6.1	win	2023-07-07	10:39:21	0	0	62b4403257f7d42730f83394	2	1	DL_test	14	DL_test	30			0		pa	1	1027	6	2	antiphase_hc_ios.wav	3	6	5	noise_calib_stim_RIGHT.wav	2	28	blb_dichoticlistening_pa-ka.mp3	pa	ka	1	left
6.6.1	win	2023-07-07	10:39:21	0	0	62b4403257f7d42730f83394	2	1	DL_test	14	DL_test	31			0		ba	1	1336	6	2	antiphase_hc_ios.wav	3	6	5	noise_calib_stim_RIGHT.wav	2	13	blb_dichoticlistening_ga-ba.mp3	ga	ba	1	right
6.6.1	win	2023-07-07	10:39:21	0	0	62b4403257f7d42730f83394	2	1	DL_test	14	DL_test	32			0		da	1	783	6	2	antiphase_hc_ios.wav	3	6	5	noise_calib_stim_RIGHT.wav	2	8	blb_dichoticlistening_da-da.mp3	da	da	0	left
6.6.1	win	2023-07-07	10:39:21	0	0	62b4403257f7d42730f83394	2	1	DL_test	14	DL_test	33			0		pa	1	1205	6	2	antiphase_hc_ios.wav	3	6	5	noise_calib_stim_RIGHT.wav	2	23	blb_dichoticlistening_ka-pa.mp3	ka	pa	1	right
6.6.1	win	2023-07-07	10:39:21	0	0	62b4403257f7d42730f83394	2	1	DL_test	14	DL_test	34			0		ka	0	739	6	2	antiphase_hc_ios.wav	3	6	5	noise_calib_stim_RIGHT.wav	2	12	blb_dichoticlistening_da-ta.mp3	da	ta	1	other
6.6.1	win	2023-07-07	10:39:21	0	0	62b4403257f7d42730f83394	2	1	DL_test	14	DL_test	35			0		ka	1	818	6	2	antiphase_hc_ios.wav	3	6	5	noise_calib_stim_RIGHT.wav	2	20	blb_dichoticlistening_ka-da.mp3	ka	da	1	left
6.6.1	win	2023-07-07	10:39:21	0	0	62b4403257f7d42730f83394	2	1	DL_test	14	DL_test	36			0		ka	1	526	6	2	antiphase_hc_ios.wav	3	6	5	noise_calib_stim_RIGHT.wav	2	24	blb_dichoticlistening_ka-ta.mp3	ka	ta	1	left
6.6.1	win	2023-07-07	10:39:21	0	0	62b4403257f7d42730f83394	2	1	DL_test	15	DL_test	1			0		pa	1	807	6	2	antiphase_hc_ios.wav	3	6	5	noise_calib_stim_RIGHT.wav	2	35	blb_dichoticlistening_ta-pa.mp3	ta	pa	1	right
6.6.1	win	2023-07-07	10:39:21	0	0	62b4403257f7d42730f83394	2	1	DL_test	15	DL_test	2			0		pa	0	749	6	2	antiphase_hc_ios.wav	3	6	5	noise_calib_stim_RIGHT.wav	2	19	blb_dichoticlistening_ka-ba.mp3	ka	ba	1	other
6.6.1	win	2023-07-07	10:39:21	0	0	62b4403257f7d42730f83394	2	1	DL_test	15	DL_test	3			0		ba	1	1187	6	2	antiphase_hc_ios.wav	3	6	5	noise_calib_stim_RIGHT.wav	2	3	blb_dichoticlistening_ba-ga.mp3	ba	ga	1	left
6.6.1	win	2023-07-07	10:39:21	0	0	62b4403257f7d42730f83394	2	1	DL_test	15	DL_test	4			0		ka	0	1201	6	2	antiphase_hc_ios.wav	3	6	5	noise_calib_stim_RIGHT.wav	2	33	blb_dichoticlistening_ta-ga.mp3	ta	ga	1	other
6.6.1	win	2023-07-07	10:39:21	0	0	62b4403257f7d42730f83394	2	1	DL_test	15	DL_test	5			0		pa	1	838	6	2	antiphase_hc_ios.wav	3	6	5	noise_calib_stim_RIGHT.wav	2	23	blb_dichoticlistening_ka-pa.mp3	ka	pa	1	right
6.6.1	win	2023-07-07	10:39:21	0	0	62b4403257f7d42730f83394	2	1	DL_test	15	DL_test	6			0		ba	1	1395	6	2	antiphase_hc_ios.wav	3	6	5	noise_calib_stim_RIGHT.wav	2	7	blb_dichoticlistening_da-ba.mp3	da	ba	1	right
6.6.1	win	2023-07-07	10:39:21	0	0	62b4403257f7d42730f83394	2	1	DL_test	15	DL_test	7			0		pa	0	1121	6	2	antiphase_hc_ios.wav	3	6	5	noise_calib_stim_RIGHT.wav	2	10	blb_dichoticlistening_da-ka.mp3	da	ka	1	other
6.6.1	win	2023-07-07	10:39:21	0	0	62b4403257f7d42730f83394	2	1	DL_test	15	DL_test	8			0		ka	1	705	6	2	antiphase_hc_ios.wav	3	6	5	noise_calib_stim_RIGHT.wav	2	20	blb_dichoticlistening_ka-da.mp3	ka	da	1	left
6.6.1	win	2023-07-07	10:39:21	0	0	62b4403257f7d42730f83394	2	1	DL_test	15	DL_test	9			0		ka	1	1291	6	2	antiphase_hc_ios.wav	3	6	5	noise_calib_stim_RIGHT.wav	2	21	blb_dichoticlistening_ka-ga.mp3	ka	ga	1	left
6.6.1	win	2023-07-07	10:39:21	0	0	62b4403257f7d42730f83394	2	1	DL_test	15	DL_test	10			0		pa	1	773	6	2	antiphase_hc_ios.wav	3	6	5	noise_calib_stim_RIGHT.wav	2	25	blb_dichoticlistening_pa-ba.mp3	pa	ba	1	left
6.6.1	win	2023-07-07	10:39:21	0	0	62b4403257f7d42730f83394	2	1	DL_test	15	DL_test	11			0		pa	1	1067	6	2	antiphase_hc_ios.wav	3	6	5	noise_calib_stim_RIGHT.wav	2	29	blb_dichoticlistening_pa-pa.mp3	pa	pa	0	left
6.6.1	win	2023-07-07	10:39:21	0	0	62b4403257f7d42730f83394	2	1	DL_test	15	DL_test	12			0		ka	0	2333	6	2	antiphase_hc_ios.wav	3	6	5	noise_calib_stim_RIGHT.wav	2	6	blb_dichoticlistening_ba-ta.mp3	ba	ta	1	other
6.6.1	win	2023-07-07	10:39:21	0	0	62b4403257f7d42730f83394	2	1	DL_test	15	DL_test	13			0		pa	1	862	6	2	antiphase_hc_ios.wav	3	6	5	noise_calib_stim_RIGHT.wav	2	11	blb_dichoticlistening_da-pa.mp3	da	pa	1	right
6.6.1	win	2023-07-07	10:39:21	0	0	62b4403257f7d42730f83394	2	1	DL_test	15	DL_test	14			0		da	1	1208	6	2	antiphase_hc_ios.wav	3	6	5	noise_calib_stim_RIGHT.wav	2	8	blb_dichoticlistening_da-da.mp3	da	da	0	left
6.6.1	win	2023-07-07	10:39:21	0	0	62b4403257f7d42730f83394	2	1	DL_test	15	DL_test	15			0		ka	1	853	6	2	antiphase_hc_ios.wav	3	6	5	noise_calib_stim_RIGHT.wav	2	22	blb_dichoticlistening_ka-ka.mp3	ka	ka	0	left
6.6.1	win	2023-07-07	10:39:21	0	0	62b4403257f7d42730f83394	2	1	DL_test	15	DL_test	16			0		pa	1	919	6	2	antiphase_hc_ios.wav	3	6	5	noise_calib_stim_RIGHT.wav	2	5	blb_dichoticlistening_ba-pa.mp3	ba	pa	1	right
6.6.1	win	2023-07-07	10:39:21	0	0	62b4403257f7d42730f83394	2	1	DL_test	15	DL_test	17			0		pa	1	1752	6	2	antiphase_hc_ios.wav	3	6	5	noise_calib_stim_RIGHT.wav	2	30	blb_dichoticlistening_pa-ta.mp3	pa	ta	1	left
6.6.1	win	2023-07-07	10:39:21	0	0	62b4403257f7d42730f83394	2	1	DL_test	15	DL_test	18			0		pa	0	983	6	2	antiphase_hc_ios.wav	3	6	5	noise_calib_stim_RIGHT.wav	2	31	blb_dichoticlistening_ta-ba.mp3	ta	ba	1	other
6.6.1	win	2023-07-07	10:39:21	0	0	62b4403257f7d42730f83394	2	1	DL_test	15	DL_test	19			0		pa	1	829	6	2	antiphase_hc_ios.wav	3	6	5	noise_calib_stim_RIGHT.wav	2	27	blb_dichoticlistening_pa-ga.mp3	pa	ga	1	left
6.6.1	win	2023-07-07	10:39:21	0	0	62b4403257f7d42730f83394	2	1	DL_test	15	DL_test	20			0		ba	1	1137	6	2	antiphase_hc_ios.wav	3	6	5	noise_calib_stim_RIGHT.wav	2	2	blb_dichoticlistening_ba-da.mp3	ba	da	1	left
6.6.1	win	2023-07-07	10:39:21	0	0	62b4403257f7d42730f83394	2	1	DL_test	15	DL_test	21			0		ga	1	745	6	2	antiphase_hc_ios.wav	3	6	5	noise_calib_stim_RIGHT.wav	2	15	blb_dichoticlistening_ga-ga.mp3	ga	ga	0	left
6.6.1	win	2023-07-07	10:39:21	0	0	62b4403257f7d42730f83394	2	1	DL_test	15	DL_test	22			0		pa	1	1289	6	2	antiphase_hc_ios.wav	3	6	5	noise_calib_stim_RIGHT.wav	2	17	blb_dichoticlistening_ga-pa.mp3	ga	pa	1	right
6.6.1	win	2023-07-07	10:39:21	0	0	62b4403257f7d42730f83394	2	1	DL_test	15	DL_test	23			0		ka	1	1346	6	2	antiphase_hc_ios.wav	3	6	5	noise_calib_stim_RIGHT.wav	2	24	blb_dichoticlistening_ka-ta.mp3	ka	ta	1	left
6.6.1	win	2023-07-07	10:39:21	0	0	62b4403257f7d42730f83394	2	1	DL_test	15	DL_test	24			0		ka	1	1169	6	2	antiphase_hc_ios.wav	3	6	5	noise_calib_stim_RIGHT.wav	2	28	blb_dichoticlistening_pa-ka.mp3	pa	ka	1	right
6.6.1	win	2023-07-07	10:39:21	0	0	62b4403257f7d42730f83394	2	1	DL_test	15	DL_test	25			0		ka	1	657	6	2	antiphase_hc_ios.wav	3	6	5	noise_calib_stim_RIGHT.wav	2	4	blb_dichoticlistening_ba-ka.mp3	ba	ka	1	right
6.6.1	win	2023-07-07	10:39:21	0	0	62b4403257f7d42730f83394	2	1	DL_test	15	DL_test	26			0		ka	1	547	6	2	antiphase_hc_ios.wav	3	6	5	noise_calib_stim_RIGHT.wav	2	34	blb_dichoticlistening_ta-ka.mp3	ta	ka	1	right
6.6.1	win	2023-07-07	10:39:21	0	0	62b4403257f7d42730f83394	2	1	DL_test	15	DL_test	27			0		ka	0	771	6	2	antiphase_hc_ios.wav	3	6	5	noise_calib_stim_RIGHT.wav	2	12	blb_dichoticlistening_da-ta.mp3	da	ta	1	other
6.6.1	win	2023-07-07	10:39:21	0	0	62b4403257f7d42730f83394	2	1	DL_test	15	DL_test	28			0		ka	0	745	6	2	antiphase_hc_ios.wav	3	6	5	noise_calib_stim_RIGHT.wav	2	18	blb_dichoticlistening_ga-ta.mp3	ga	ta	1	other
6.6.1	win	2023-07-07	10:39:21	0	0	62b4403257f7d42730f83394	2	1	DL_test	15	DL_test	29			0		ka	1	808	6	2	antiphase_hc_ios.wav	3	6	5	noise_calib_stim_RIGHT.wav	2	16	blb_dichoticlistening_ga-ka.mp3	ga	ka	1	right
6.6.1	win	2023-07-07	10:39:21	0	0	62b4403257f7d42730f83394	2	1	DL_test	15	DL_test	30			0		pa	1	989	6	2	antiphase_hc_ios.wav	3	6	5	noise_calib_stim_RIGHT.wav	2	26	blb_dichoticlistening_pa-da.mp3	pa	da	1	left
6.6.1	win	2023-07-07	10:39:21	0	0	62b4403257f7d42730f83394	2	1	DL_test	15	DL_test	31			0		ka	0	883	6	2	antiphase_hc_ios.wav	3	6	5	noise_calib_stim_RIGHT.wav	2	36	blb_dichoticlistening_ta-ta.mp3	ta	ta	0	other
6.6.1	win	2023-07-07	10:39:21	0	0	62b4403257f7d42730f83394	2	1	DL_test	15	DL_test	32			0		ba	1	1086	6	2	antiphase_hc_ios.wav	3	6	5	noise_calib_stim_RIGHT.wav	2	1	blb_dichoticlistening_ba-ba.mp3	ba	ba	0	left
6.6.1	win	2023-07-07	10:39:21	0	0	62b4403257f7d42730f83394	2	1	DL_test	15	DL_test	33			0		ga	1	584	6	2	antiphase_hc_ios.wav	3	6	5	noise_calib_stim_RIGHT.wav	2	14	blb_dichoticlistening_ga-da.mp3	ga	da	1	left
6.6.1	win	2023-07-07	10:39:21	0	0	62b4403257f7d42730f83394	2	1	DL_test	15	DL_test	34			0		ga	1	911	6	2	antiphase_hc_ios.wav	3	6	5	noise_calib_stim_RIGHT.wav	2	13	blb_dichoticlistening_ga-ba.mp3	ga	ba	1	left
6.6.1	win	2023-07-07	10:39:21	0	0	62b4403257f7d42730f83394	2	1	DL_test	15	DL_test	35			0		ka	0	1520	6	2	antiphase_hc_ios.wav	3	6	5	noise_calib_stim_RIGHT.wav	2	32	blb_dichoticlistening_ta-da.mp3	ta	da	1	other
6.6.1	win	2023-07-07	10:39:21	0	0	62b4403257f7d42730f83394	2	1	DL_test	15	DL_test	36			0		ga	1	849	6	2	antiphase_hc_ios.wav	3	6	5	noise_calib_stim_RIGHT.wav	2	9	blb_dichoticlistening_da-ga.mp3	da	ga	1	right
6.6.1	win	2023-07-07	10:39:21	0	0	62b4403257f7d42730f83394	2	1	DL_test	16	DL_test	1			0		ba	1	1375	6	2	antiphase_hc_ios.wav	3	6	5	noise_calib_stim_RIGHT.wav	2	13	blb_dichoticlistening_ga-ba.mp3	ga	ba	1	right
6.6.1	win	2023-07-07	10:39:21	0	0	62b4403257f7d42730f83394	2	1	DL_test	16	DL_test	2			0		ka	1	1158	6	2	antiphase_hc_ios.wav	3	6	5	noise_calib_stim_RIGHT.wav	2	4	blb_dichoticlistening_ba-ka.mp3	ba	ka	1	right
6.6.1	win	2023-07-07	10:39:21	0	0	62b4403257f7d42730f83394	2	1	DL_test	16	DL_test	3			0		ka	1	1045	6	2	antiphase_hc_ios.wav	3	6	5	noise_calib_stim_RIGHT.wav	2	19	blb_dichoticlistening_ka-ba.mp3	ka	ba	1	left
6.6.1	win	2023-07-07	10:39:21	0	0	62b4403257f7d42730f83394	2	1	DL_test	16	DL_test	4			0		ka	1	552	6	2	antiphase_hc_ios.wav	3	6	5	noise_calib_stim_RIGHT.wav	2	24	blb_dichoticlistening_ka-ta.mp3	ka	ta	1	left
6.6.1	win	2023-07-07	10:39:21	0	0	62b4403257f7d42730f83394	2	1	DL_test	16	DL_test	5			0		ka	0	822	6	2	antiphase_hc_ios.wav	3	6	5	noise_calib_stim_RIGHT.wav	2	31	blb_dichoticlistening_ta-ba.mp3	ta	ba	1	other
6.6.1	win	2023-07-07	10:39:21	0	0	62b4403257f7d42730f83394	2	1	DL_test	16	DL_test	6			0		ga	1	1019	6	2	antiphase_hc_ios.wav	3	6	5	noise_calib_stim_RIGHT.wav	2	18	blb_dichoticlistening_ga-ta.mp3	ga	ta	1	left
6.6.1	win	2023-07-07	10:39:21	0	0	62b4403257f7d42730f83394	2	1	DL_test	16	DL_test	7			0		pa	1	967	6	2	antiphase_hc_ios.wav	3	6	5	noise_calib_stim_RIGHT.wav	2	5	blb_dichoticlistening_ba-pa.mp3	ba	pa	1	right
6.6.1	win	2023-07-07	10:39:21	0	0	62b4403257f7d42730f83394	2	1	DL_test	16	DL_test	8			0		ba	1	1237	6	2	antiphase_hc_ios.wav	3	6	5	noise_calib_stim_RIGHT.wav	2	2	blb_dichoticlistening_ba-da.mp3	ba	da	1	left
6.6.1	win	2023-07-07	10:39:21	0	0	62b4403257f7d42730f83394	2	1	DL_test	16	DL_test	9			0		da	1	825	6	2	antiphase_hc_ios.wav	3	6	5	noise_calib_stim_RIGHT.wav	2	8	blb_dichoticlistening_da-da.mp3	da	da	0	left
6.6.1	win	2023-07-07	10:39:21	0	0	62b4403257f7d42730f83394	2	1	DL_test	16	DL_test	10			0		ka	1	1029	6	2	antiphase_hc_ios.wav	3	6	5	noise_calib_stim_RIGHT.wav	2	20	blb_dichoticlistening_ka-da.mp3	ka	da	1	left
6.6.1	win	2023-07-07	10:39:21	0	0	62b4403257f7d42730f83394	2	1	DL_test	16	DL_test	11			0		pa	0	1042	6	2	antiphase_hc_ios.wav	3	6	5	noise_calib_stim_RIGHT.wav	2	10	blb_dichoticlistening_da-ka.mp3	da	ka	1	other
6.6.1	win	2023-07-07	10:39:21	0	0	62b4403257f7d42730f83394	2	1	DL_test	16	DL_test	12			0		ga	1	790	6	2	antiphase_hc_ios.wav	3	6	5	noise_calib_stim_RIGHT.wav	2	9	blb_dichoticlistening_da-ga.mp3	da	ga	1	right
6.6.1	win	2023-07-07	10:39:21	0	0	62b4403257f7d42730f83394	2	1	DL_test	16	DL_test	13			0		pa	1	932	6	2	antiphase_hc_ios.wav	3	6	5	noise_calib_stim_RIGHT.wav	2	29	blb_dichoticlistening_pa-pa.mp3	pa	pa	0	left
6.6.1	win	2023-07-07	10:39:21	0	0	62b4403257f7d42730f83394	2	1	DL_test	16	DL_test	14			0		pa	1	877	6	2	antiphase_hc_ios.wav	3	6	5	noise_calib_stim_RIGHT.wav	2	25	blb_dichoticlistening_pa-ba.mp3	pa	ba	1	left
6.6.1	win	2023-07-07	10:39:21	0	0	62b4403257f7d42730f83394	2	1	DL_test	16	DL_test	15			0		pa	1	661	6	2	antiphase_hc_ios.wav	3	6	5	noise_calib_stim_RIGHT.wav	2	35	blb_dichoticlistening_ta-pa.mp3	ta	pa	1	right
6.6.1	win	2023-07-07	10:39:21	0	0	62b4403257f7d42730f83394	2	1	DL_test	16	DL_test	16			0		ba	1	1536	6	2	antiphase_hc_ios.wav	3	6	5	noise_calib_stim_RIGHT.wav	2	1	blb_dichoticlistening_ba-ba.mp3	ba	ba	0	left
6.6.1	win	2023-07-07	10:39:21	0	0	62b4403257f7d42730f83394	2	1	DL_test	16	DL_test	17			0		ka	0	1408	6	2	antiphase_hc_ios.wav	3	6	5	noise_calib_stim_RIGHT.wav	2	32	blb_dichoticlistening_ta-da.mp3	ta	da	1	other
6.6.1	win	2023-07-07	10:39:21	0	0	62b4403257f7d42730f83394	2	1	DL_test	16	DL_test	18			0		ka	0	853	6	2	antiphase_hc_ios.wav	3	6	5	noise_calib_stim_RIGHT.wav	2	12	blb_dichoticlistening_da-ta.mp3	da	ta	1	other
6.6.1	win	2023-07-07	10:39:21	0	0	62b4403257f7d42730f83394	2	1	DL_test	16	DL_test	19			0		ka	0	1552	6	2	antiphase_hc_ios.wav	3	6	5	noise_calib_stim_RIGHT.wav	2	33	blb_dichoticlistening_ta-ga.mp3	ta	ga	1	other
6.6.1	win	2023-07-07	10:39:21	0	0	62b4403257f7d42730f83394	2	1	DL_test	16	DL_test	20			0		pa	1	784	6	2	antiphase_hc_ios.wav	3	6	5	noise_calib_stim_RIGHT.wav	2	11	blb_dichoticlistening_da-pa.mp3	da	pa	1	right
6.6.1	win	2023-07-07	10:39:21	0	0	62b4403257f7d42730f83394	2	1	DL_test	16	DL_test	21			0		ga	1	1125	6	2	antiphase_hc_ios.wav	3	6	5	noise_calib_stim_RIGHT.wav	2	14	blb_dichoticlistening_ga-da.mp3	ga	da	1	left
6.6.1	win	2023-07-07	10:39:21	0	0	62b4403257f7d42730f83394	2	1	DL_test	16	DL_test	22			0		ka	0	845	6	2	antiphase_hc_ios.wav	3	6	5	noise_calib_stim_RIGHT.wav	2	27	blb_dichoticlistening_pa-ga.mp3	pa	ga	1	other
6.6.1	win	2023-07-07	10:39:21	0	0	62b4403257f7d42730f83394	2	1	DL_test	16	DL_test	23			0		ka	0	656	6	2	antiphase_hc_ios.wav	3	6	5	noise_calib_stim_RIGHT.wav	2	36	blb_dichoticlistening_ta-ta.mp3	ta	ta	0	other
6.6.1	win	2023-07-07	10:39:21	0	0	62b4403257f7d42730f83394	2	1	DL_test	16	DL_test	24			0		pa	0	1811	6	2	antiphase_hc_ios.wav	3	6	5	noise_calib_stim_RIGHT.wav	2	6	blb_dichoticlistening_ba-ta.mp3	ba	ta	1	other
6.6.1	win	2023-07-07	10:39:21	0	0	62b4403257f7d42730f83394	2	1	DL_test	16	DL_test	25			0		pa	1	1031	6	2	antiphase_hc_ios.wav	3	6	5	noise_calib_stim_RIGHT.wav	2	26	blb_dichoticlistening_pa-da.mp3	pa	da	1	left
6.6.1	win	2023-07-07	10:39:21	0	0	62b4403257f7d42730f83394	2	1	DL_test	16	DL_test	26			0		ka	1	1453	6	2	antiphase_hc_ios.wav	3	6	5	noise_calib_stim_RIGHT.wav	2	28	blb_dichoticlistening_pa-ka.mp3	pa	ka	1	right
6.6.1	win	2023-07-07	10:39:21	0	0	62b4403257f7d42730f83394	2	1	DL_test	16	DL_test	27			0		pa	1	1330	6	2	antiphase_hc_ios.wav	3	6	5	noise_calib_stim_RIGHT.wav	2	23	blb_dichoticlistening_ka-pa.mp3	ka	pa	1	right
6.6.1	win	2023-07-07	10:39:21	0	0	62b4403257f7d42730f83394	2	1	DL_test	16	DL_test	28			0		pa	1	985	6	2	antiphase_hc_ios.wav	3	6	5	noise_calib_stim_RIGHT.wav	2	30	blb_dichoticlistening_pa-ta.mp3	pa	ta	1	left
6.6.1	win	2023-07-07	10:39:21	0	0	62b4403257f7d42730f83394	2	1	DL_test	16	DL_test	29			0		ga	1	974	6	2	antiphase_hc_ios.wav	3	6	5	noise_calib_stim_RIGHT.wav	2	15	blb_dichoticlistening_ga-ga.mp3	ga	ga	0	left
6.6.1	win	2023-07-07	10:39:21	0	0	62b4403257f7d42730f83394	2	1	DL_test	16	DL_test	30			0		ba	1	1461	6	2	antiphase_hc_ios.wav	3	6	5	noise_calib_stim_RIGHT.wav	2	3	blb_dichoticlistening_ba-ga.mp3	ba	ga	1	left
6.6.1	win	2023-07-07	10:39:21	0	0	62b4403257f7d42730f83394	2	1	DL_test	16	DL_test	31			0		ka	1	1120	6	2	antiphase_hc_ios.wav	3	6	5	noise_calib_stim_RIGHT.wav	2	16	blb_dichoticlistening_ga-ka.mp3	ga	ka	1	right
6.6.1	win	2023-07-07	10:39:21	0	0	62b4403257f7d42730f83394	2	1	DL_test	16	DL_test	32			0		ka	1	673	6	2	antiphase_hc_ios.wav	3	6	5	noise_calib_stim_RIGHT.wav	2	22	blb_dichoticlistening_ka-ka.mp3	ka	ka	0	left
6.6.1	win	2023-07-07	10:39:21	0	0	62b4403257f7d42730f83394	2	1	DL_test	16	DL_test	33			0		pa	1	820	6	2	antiphase_hc_ios.wav	3	6	5	noise_calib_stim_RIGHT.wav	2	17	blb_dichoticlistening_ga-pa.mp3	ga	pa	1	right
6.6.1	win	2023-07-07	10:39:21	0	0	62b4403257f7d42730f83394	2	1	DL_test	16	DL_test	34			0		ba	1	1489	6	2	antiphase_hc_ios.wav	3	6	5	noise_calib_stim_RIGHT.wav	2	7	blb_dichoticlistening_da-ba.mp3	da	ba	1	right
6.6.1	win	2023-07-07	10:39:21	0	0	62b4403257f7d42730f83394	2	1	DL_test	16	DL_test	35			0		ka	1	1003	6	2	antiphase_hc_ios.wav	3	6	5	noise_calib_stim_RIGHT.wav	2	34	blb_dichoticlistening_ta-ka.mp3	ta	ka	1	right
6.6.1	win	2023-07-07	10:39:21	0	0	62b4403257f7d42730f83394	2	1	DL_test	16	DL_test	36			0		ka	1	1023	6	2	antiphase_hc_ios.wav	3	6	5	noise_calib_stim_RIGHT.wav	2	21	blb_dichoticlistening_ka-ga.mp3	ka	ga	1	left
6.6.1	win	2023-07-07	10:39:21	10:49:50	626076	62b4403257f7d42730f83394	2	1	practice_z	22	practice_z	1	stimuli_distractor_trianglediamonds.svg	stimuli_target_squarediamonds.svg	11	yes	0	0	2000	6	2	antiphase_hc_ios.wav	3	6	5	noise_calib_stim_RIGHT.wav	2	21	blb_dichoticlistening_ka-ga.mp3	ka	ga	1	left
6.6.1	win	2023-07-07	10:39:21	10:49:50	626076	62b4403257f7d42730f83394	2	1	practice_z	22	advance_on_keypress_ZEE	2	stimuli_distractor_trianglediamonds.svg	stimuli_target_squarediamonds.svg	11	yes	57	0	1229	6	2	antiphase_hc_ios.wav	3	6	5	noise_calib_stim_RIGHT.wav	2	21	blb_dichoticlistening_ka-ga.mp3	ka	ga	1	left
6.6.1	win	2023-07-07	10:39:21	10:49:54	629345	62b4403257f7d42730f83394	2	1	practice_z	22	practice_z	3	stimuli_target_squarediamonds.svg	stimuli_distractor_diamondtriangles.svg	2	yes	44	1	386	6	2	antiphase_hc_ios.wav	3	6	5	noise_calib_stim_RIGHT.wav	2	21	blb_dichoticlistening_ka-ga.mp3	ka	ga	1	left
6.6.1	win	2023-07-07	10:39:21	10:49:54	629345	62b4403257f7d42730f83394	2	1	practice_z	22	advance_on_keypress_ZEE	4	stimuli_target_squarediamonds.svg	stimuli_distractor_diamondtriangles.svg	2	yes	57	0	547	6	2	antiphase_hc_ios.wav	3	6	5	noise_calib_stim_RIGHT.wav	2	21	blb_dichoticlistening_ka-ga.mp3	ka	ga	1	left
6.6.1	win	2023-07-07	10:39:21	10:49:57	632402	62b4403257f7d42730f83394	2	1	practice_z	22	practice_z	5	stimuli_distractor_diamondtriangles.svg	stimuli_distractor_diamondtriangles.svg	13	no	44	0	859	6	2	antiphase_hc_ios.wav	3	6	5	noise_calib_stim_RIGHT.wav	2	21	blb_dichoticlistening_ka-ga.mp3	ka	ga	1	left
6.6.1	win	2023-07-07	10:39:21	10:49:57	632402	62b4403257f7d42730f83394	2	1	practice_z	22	advance_on_keypress_ZEE	6	stimuli_distractor_diamondtriangles.svg	stimuli_distractor_diamondtriangles.svg	13	no	57	0	1520	6	2	antiphase_hc_ios.wav	3	6	5	noise_calib_stim_RIGHT.wav	2	21	blb_dichoticlistening_ka-ga.mp3	ka	ga	1	left
6.6.1	win	2023-07-07	10:39:21	10:50:00	636026	62b4403257f7d42730f83394	2	1	practice_z	22	practice_z	7	stimuli_target_diamondsquares.svg	stimuli_distractor_diamondtriangles.svg	3	yes	44	1	450	6	2	antiphase_hc_ios.wav	3	6	5	noise_calib_stim_RIGHT.wav	2	21	blb_dichoticlistening_ka-ga.mp3	ka	ga	1	left
6.6.1	win	2023-07-07	10:39:21	10:50:00	636026	62b4403257f7d42730f83394	2	1	practice_z	22	advance_on_keypress_ZEE	8	stimuli_target_diamondsquares.svg	stimuli_distractor_diamondtriangles.svg	3	yes	57	0	583	6	2	antiphase_hc_ios.wav	3	6	5	noise_calib_stim_RIGHT.wav	2	21	blb_dichoticlistening_ka-ga.mp3	ka	ga	1	left
6.6.1	win	2023-07-07	10:39:21	10:50:05	640259	62b4403257f7d42730f83394	2	1	practice_z	22	practice_z	9	stimuli_distractor_trianglediamonds.svg	stimuli_distractor_trianglediamonds.svg	15	no	0	1	2000	6	2	antiphase_hc_ios.wav	3	6	5	noise_calib_stim_RIGHT.wav	2	21	blb_dichoticlistening_ka-ga.mp3	ka	ga	1	left
6.6.1	win	2023-07-07	10:39:21	10:50:05	640259	62b4403257f7d42730f83394	2	1	practice_z	22	advance_on_keypress_ZEE	10	stimuli_distractor_trianglediamonds.svg	stimuli_distractor_trianglediamonds.svg	15	no	57	0	406	6	2	antiphase_hc_ios.wav	3	6	5	noise_calib_stim_RIGHT.wav	2	21	blb_dichoticlistening_ka-ga.mp3	ka	ga	1	left
6.6.1	win	2023-07-07	10:39:21	10:50:07	643010	62b4403257f7d42730f83394	2	1	practice_z	22	practice_z	11	stimuli_distractor_diamondtriangles.svg	stimuli_target_trianglerectangles.svg	9	yes	44	1	702	6	2	antiphase_hc_ios.wav	3	6	5	noise_calib_stim_RIGHT.wav	2	21	blb_dichoticlistening_ka-ga.mp3	ka	ga	1	left
6.6.1	win	2023-07-07	10:39:21	10:50:07	643010	62b4403257f7d42730f83394	2	1	practice_z	22	advance_on_keypress_ZEE	12	stimuli_distractor_diamondtriangles.svg	stimuli_target_trianglerectangles.svg	9	yes	57	0	464	6	2	antiphase_hc_ios.wav	3	6	5	noise_calib_stim_RIGHT.wav	2	21	blb_dichoticlistening_ka-ga.mp3	ka	ga	1	left
6.6.1	win	2023-07-07	10:39:21	10:50:10	645674	62b4403257f7d42730f83394	2	1	practice_z	22	practice_z	13	stimuli_target_squarediamonds.svg	stimuli_distractor_trianglediamonds.svg	5	yes	44	1	548	6	2	antiphase_hc_ios.wav	3	6	5	noise_calib_stim_RIGHT.wav	2	21	blb_dichoticlistening_ka-ga.mp3	ka	ga	1	left
6.6.1	win	2023-07-07	10:39:21	10:50:10	645674	62b4403257f7d42730f83394	2	1	practice_z	22	advance_on_keypress_ZEE	14	stimuli_target_squarediamonds.svg	stimuli_distractor_trianglediamonds.svg	5	yes	57	0	421	6	2	antiphase_hc_ios.wav	3	6	5	noise_calib_stim_RIGHT.wav	2	21	blb_dichoticlistening_ka-ga.mp3	ka	ga	1	left
6.6.1	win	2023-07-07	10:39:21	10:50:13	648378	62b4403257f7d42730f83394	2	1	practice_z	22	practice_z	15	stimuli_target_rectanglediamonds.svg	stimuli_distractor_diamondtriangles.svg	1	yes	44	1	635	6	2	antiphase_hc_ios.wav	3	6	5	noise_calib_stim_RIGHT.wav	2	21	blb_dichoticlistening_ka-ga.mp3	ka	ga	1	left
6.6.1	win	2023-07-07	10:39:21	10:50:13	648378	62b4403257f7d42730f83394	2	1	practice_z	22	advance_on_keypress_ZEE	16	stimuli_target_rectanglediamonds.svg	stimuli_distractor_diamondtriangles.svg	1	yes	57	0	457	6	2	antiphase_hc_ios.wav	3	6	5	noise_calib_stim_RIGHT.wav	2	21	blb_dichoticlistening_ka-ga.mp3	ka	ga	1	left
6.6.1	win	2023-07-07	10:39:21	10:50:17	652475	62b4403257f7d42730f83394	2	1	practice_z	22	practice_z	17	stimuli_distractor_trianglediamonds.svg	stimuli_target_rectanglediamonds.svg	10	yes	0	0	2000	6	2	antiphase_hc_ios.wav	3	6	5	noise_calib_stim_RIGHT.wav	2	21	blb_dichoticlistening_ka-ga.mp3	ka	ga	1	left
6.6.1	win	2023-07-07	10:39:21	10:50:17	652475	62b4403257f7d42730f83394	2	1	practice_z	22	advance_on_keypress_ZEE	18	stimuli_distractor_trianglediamonds.svg	stimuli_target_rectanglediamonds.svg	10	yes	57	0	534	6	2	antiphase_hc_ios.wav	3	6	5	noise_calib_stim_RIGHT.wav	2	21	blb_dichoticlistening_ka-ga.mp3	ka	ga	1	left
6.6.1	win	2023-07-07	10:39:21	10:50:20	655321	62b4403257f7d42730f83394	2	1	practice_z	22	practice_z	19	stimuli_distractor_trianglediamonds.svg	stimuli_distractor_diamondtriangles.svg	16	no	44	0	663	6	2	antiphase_hc_ios.wav	3	6	5	noise_calib_stim_RIGHT.wav	2	21	blb_dichoticlistening_ka-ga.mp3	ka	ga	1	left
6.6.1	win	2023-07-07	10:39:21	10:50:20	655321	62b4403257f7d42730f83394	2	1	practice_z	22	advance_on_keypress_ZEE	20	stimuli_distractor_trianglediamonds.svg	stimuli_distractor_diamondtriangles.svg	16	no	57	0	875	6	2	antiphase_hc_ios.wav	3	6	5	noise_calib_stim_RIGHT.wav	2	21	blb_dichoticlistening_ka-ga.mp3	ka	ga	1	left
6.6.1	win	2023-07-07	10:39:21	10:50:24	659859	62b4403257f7d42730f83394	2	1	practice_z	22	practice_z	21	stimuli_distractor_diamondtriangles.svg	stimuli_target_diamondrectangles.svg	8	yes	0	0	2000	6	2	antiphase_hc_ios.wav	3	6	5	noise_calib_stim_RIGHT.wav	2	21	blb_dichoticlistening_ka-ga.mp3	ka	ga	1	left
6.6.1	win	2023-07-07	10:39:21	10:50:24	659859	62b4403257f7d42730f83394	2	1	practice_z	22	advance_on_keypress_ZEE	22	stimuli_distractor_diamondtriangles.svg	stimuli_target_diamondrectangles.svg	8	yes	57	0	478	6	2	antiphase_hc_ios.wav	3	6	5	noise_calib_stim_RIGHT.wav	2	21	blb_dichoticlistening_ka-ga.mp3	ka	ga	1	left
6.6.1	win	2023-07-07	10:39:21	10:50:27	662626	62b4403257f7d42730f83394	2	1	practice_z	22	practice_z	23	stimuli_distractor_diamondtriangles.svg	stimuli_distractor_trianglediamonds.svg	14	no	44	0	634	6	2	antiphase_hc_ios.wav	3	6	5	noise_calib_stim_RIGHT.wav	2	21	blb_dichoticlistening_ka-ga.mp3	ka	ga	1	left
6.6.1	win	2023-07-07	10:39:21	10:50:27	662626	62b4403257f7d42730f83394	2	1	practice_z	22	advance_on_keypress_ZEE	24	stimuli_distractor_diamondtriangles.svg	stimuli_distractor_trianglediamonds.svg	14	no	57	0	551	6	2	antiphase_hc_ios.wav	3	6	5	noise_calib_stim_RIGHT.wav	2	21	blb_dichoticlistening_ka-ga.mp3	ka	ga	1	left
6.6.1	win	2023-07-07	10:39:21	10:50:30	665282	62b4403257f7d42730f83394	2	1	practice_z	22	practice_z	25	stimuli_target_rectanglediamonds.svg	stimuli_distractor_trianglediamonds.svg	4	yes	44	1	456	6	2	antiphase_hc_ios.wav	3	6	5	noise_calib_stim_RIGHT.wav	2	21	blb_dichoticlistening_ka-ga.mp3	ka	ga	1	left
6.6.1	win	2023-07-07	10:39:21	10:50:30	665282	62b4403257f7d42730f83394	2	1	practice_z	22	advance_on_keypress_ZEE	26	stimuli_target_rectanglediamonds.svg	stimuli_distractor_trianglediamonds.svg	4	yes	57	0	445	6	2	antiphase_hc_ios.wav	3	6	5	noise_calib_stim_RIGHT.wav	2	21	blb_dichoticlistening_ka-ga.mp3	ka	ga	1	left
6.6.1	win	2023-07-07	10:39:21	10:50:32	668057	62b4403257f7d42730f83394	2	1	practice_z	22	practice_z	27	stimuli_target_diamondsquares.svg	stimuli_distractor_trianglediamonds.svg	6	yes	44	1	682	6	2	antiphase_hc_ios.wav	3	6	5	noise_calib_stim_RIGHT.wav	2	21	blb_dichoticlistening_ka-ga.mp3	ka	ga	1	left
6.6.1	win	2023-07-07	10:39:21	10:50:32	668057	62b4403257f7d42730f83394	2	1	practice_z	22	advance_on_keypress_ZEE	28	stimuli_target_diamondsquares.svg	stimuli_distractor_trianglediamonds.svg	6	yes	57	0	70	6	2	antiphase_hc_ios.wav	3	6	5	noise_calib_stim_RIGHT.wav	2	21	blb_dichoticlistening_ka-ga.mp3	ka	ga	1	left
6.6.1	win	2023-07-07	10:39:21	10:50:36	671776	62b4403257f7d42730f83394	2	1	practice_z	22	practice_z	29	stimuli_distractor_trianglediamonds.svg	stimuli_target_diamondrectangles.svg	12	yes	0	0	2000	6	2	antiphase_hc_ios.wav	3	6	5	noise_calib_stim_RIGHT.wav	2	21	blb_dichoticlistening_ka-ga.mp3	ka	ga	1	left
6.6.1	win	2023-07-07	10:39:21	10:50:36	671776	62b4403257f7d42730f83394	2	1	practice_z	22	advance_on_keypress_ZEE	30	stimuli_distractor_trianglediamonds.svg	stimuli_target_diamondrectangles.svg	12	yes	57	0	649	6	2	antiphase_hc_ios.wav	3	6	5	noise_calib_stim_RIGHT.wav	2	21	blb_dichoticlistening_ka-ga.mp3	ka	ga	1	left
6.6.1	win	2023-07-07	10:39:21	10:50:39	674617	62b4403257f7d42730f83394	2	1	practice_z	22	practice_z	31	stimuli_distractor_diamondtriangles.svg	stimuli_target_rectangletriangles.svg	7	yes	44	1	542	6	2	antiphase_hc_ios.wav	3	6	5	noise_calib_stim_RIGHT.wav	2	21	blb_dichoticlistening_ka-ga.mp3	ka	ga	1	left
6.6.1	win	2023-07-07	10:39:21	10:50:39	674617	62b4403257f7d42730f83394	2	1	practice_z	22	advance_on_keypress_ZEE	32	stimuli_distractor_diamondtriangles.svg	stimuli_target_rectangletriangles.svg	7	yes	57	0	552	6	2	antiphase_hc_ios.wav	3	6	5	noise_calib_stim_RIGHT.wav	2	21	blb_dichoticlistening_ka-ga.mp3	ka	ga	1	left
6.6.1	win	2023-07-07	10:39:21	10:50:48	683807	62b4403257f7d42730f83394	2	1	main_z	24	main_z	1	stimuli_distractor_trianglediamonds.svg	stimuli_distractor_trianglediamonds.svg	33	no	44	0	1500	6	2	antiphase_hc_ios.wav	3	6	5	noise_calib_stim_RIGHT.wav	2	21	blb_dichoticlistening_ka-ga.mp3	ka	ga	1	left
6.6.1	win	2023-07-07	10:39:21	10:50:48	683807	62b4403257f7d42730f83394	2	1	main_z	24	advance_on_keypress_ZEE	2	stimuli_distractor_trianglediamonds.svg	stimuli_distractor_trianglediamonds.svg	33	no	57	0	968	6	2	antiphase_hc_ios.wav	3	6	5	noise_calib_stim_RIGHT.wav	2	21	blb_dichoticlistening_ka-ga.mp3	ka	ga	1	left
6.6.1	win	2023-07-07	10:39:21	10:50:51	686143	62b4403257f7d42730f83394	2	1	main_z	24	main_z	3	stimuli_distractor_trianglediamonds.svg	stimuli_distractor_trianglediamonds.svg	34	no	44	0	720	6	2	antiphase_hc_ios.wav	3	6	5	noise_calib_stim_RIGHT.wav	2	21	blb_dichoticlistening_ka-ga.mp3	ka	ga	1	left
6.6.1	win	2023-07-07	10:39:21	10:50:51	686143	62b4403257f7d42730f83394	2	1	main_z	24	advance_on_keypress_ZEE	4	stimuli_distractor_trianglediamonds.svg	stimuli_distractor_trianglediamonds.svg	34	no	57	0	3275	6	2	antiphase_hc_ios.wav	3	6	5	noise_calib_stim_RIGHT.wav	2	21	blb_dichoticlistening_ka-ga.mp3	ka	ga	1	left
6.6.1	win	2023-07-07	10:39:21	10:50:55	690695	62b4403257f7d42730f83394	2	1	main_z	24	main_z	5	stimuli_distractor_diamondtriangles.svg	stimuli_distractor_trianglediamonds.svg	37	no	44	0	639	6	2	antiphase_hc_ios.wav	3	6	5	noise_calib_stim_RIGHT.wav	2	21	blb_dichoticlistening_ka-ga.mp3	ka	ga	1	left
6.6.1	win	2023-07-07	10:39:21	10:50:55	690695	62b4403257f7d42730f83394	2	1	main_z	24	advance_on_keypress_ZEE	6	stimuli_distractor_diamondtriangles.svg	stimuli_distractor_trianglediamonds.svg	37	no	57	0	877	6	2	antiphase_hc_ios.wav	3	6	5	noise_calib_stim_RIGHT.wav	2	21	blb_dichoticlistening_ka-ga.mp3	ka	ga	1	left
6.6.1	win	2023-07-07	10:39:21	10:50:57	692791	62b4403257f7d42730f83394	2	1	main_z	24	main_z	7	stimuli_target_diamondrectangles.svg	stimuli_distractor_diamondtriangles.svg	23	yes	44	1	584	6	2	antiphase_hc_ios.wav	3	6	5	noise_calib_stim_RIGHT.wav	2	21	blb_dichoticlistening_ka-ga.mp3	ka	ga	1	left
6.6.1	win	2023-07-07	10:39:21	10:50:57	692791	62b4403257f7d42730f83394	2	1	main_z	24	advance_on_keypress_ZEE	8	stimuli_target_diamondrectangles.svg	stimuli_distractor_diamondtriangles.svg	23	yes	57	0	889	6	2	antiphase_hc_ios.wav	3	6	5	noise_calib_stim_RIGHT.wav	2	21	blb_dichoticlistening_ka-ga.mp3	ka	ga	1	left
6.6.1	win	2023-07-07	10:39:21	10:50:59	694871	62b4403257f7d42730f83394	2	1	main_z	24	main_z	9	stimuli_target_diamondsquares.svg	stimuli_distractor_diamondtriangles.svg	24	yes	44	1	548	6	2	antiphase_hc_ios.wav	3	6	5	noise_calib_stim_RIGHT.wav	2	21	blb_dichoticlistening_ka-ga.mp3	ka	ga	1	left
6.6.1	win	2023-07-07	10:39:21	10:50:59	694871	62b4403257f7d42730f83394	2	1	main_z	24	advance_on_keypress_ZEE	10	stimuli_target_diamondsquares.svg	stimuli_distractor_diamondtriangles.svg	24	yes	57	0	734	6	2	antiphase_hc_ios.wav	3	6	5	noise_calib_stim_RIGHT.wav	2	21	blb_dichoticlistening_ka-ga.mp3	ka	ga	1	left
6.6.1	win	2023-07-07	10:39:21	10:51:03	698256	62b4403257f7d42730f83394	2	1	main_z	24	main_z	11	stimuli_distractor_trianglediamonds.svg	stimuli_target_rectanglediamonds.svg	10	yes	0	0	2000	6	2	antiphase_hc_ios.wav	3	6	5	noise_calib_stim_RIGHT.wav	2	21	blb_dichoticlistening_ka-ga.mp3	ka	ga	1	left
6.6.1	win	2023-07-07	10:39:21	10:51:03	698256	62b4403257f7d42730f83394	2	1	main_z	24	advance_on_keypress_ZEE	12	stimuli_distractor_trianglediamonds.svg	stimuli_target_rectanglediamonds.svg	10	yes	57	0	478	6	2	antiphase_hc_ios.wav	3	6	5	noise_calib_stim_RIGHT.wav	2	21	blb_dichoticlistening_ka-ga.mp3	ka	ga	1	left
6.6.1	win	2023-07-07	10:39:21	10:51:04	699847	62b4403257f7d42730f83394	2	1	main_z	24	main_z	13	stimuli_target_diamondsquares.svg	stimuli_distractor_trianglediamonds.svg	20	yes	44	1	474	6	2	antiphase_hc_ios.wav	3	6	5	noise_calib_stim_RIGHT.wav	2	21	blb_dichoticlistening_ka-ga.mp3	ka	ga	1	left
6.6.1	win	2023-07-07	10:39:21	10:51:04	699847	62b4403257f7d42730f83394	2	1	main_z	24	advance_on_keypress_ZEE	14	stimuli_target_diamondsquares.svg	stimuli_distractor_trianglediamonds.svg	20	yes	57	0	758	6	2	antiphase_hc_ios.wav	3	6	5	noise_calib_stim_RIGHT.wav	2	21	blb_dichoticlistening_ka-ga.mp3	ka	ga	1	left
6.6.1	win	2023-07-07	10:39:21	10:51:08	703256	62b4403257f7d42730f83394	2	1	main_z	24	main_z	15	stimuli_distractor_diamondtriangles.svg	stimuli_target_squaretriangles.svg	15	yes	0	0	2000	6	2	antiphase_hc_ios.wav	3	6	5	noise_calib_stim_RIGHT.wav	2	21	blb_dichoticlistening_ka-ga.mp3	ka	ga	1	left
6.6.1	win	2023-07-07	10:39:21	10:51:08	703256	62b4403257f7d42730f83394	2	1	main_z	24	advance_on_keypress_ZEE	16	stimuli_distractor_diamondtriangles.svg	stimuli_target_squaretriangles.svg	15	yes	57	0	534	6	2	antiphase_hc_ios.wav	3	6	5	noise_calib_stim_RIGHT.wav	2	21	blb_dichoticlistening_ka-ga.mp3	ka	ga	1	left
6.6.1	win	2023-07-07	10:39:21	10:51:11	706440	62b4403257f7d42730f83394	2	1	main_z	24	main_z	17	stimuli_distractor_diamondtriangles.svg	stimuli_distractor_trianglediamonds.svg	38	no	0	1	2000	6	2	antiphase_hc_ios.wav	3	6	5	noise_calib_stim_RIGHT.wav	2	21	blb_dichoticlistening_ka-ga.mp3	ka	ga	1	left
6.6.1	win	2023-07-07	10:39:21	10:51:11	706440	62b4403257f7d42730f83394	2	1	main_z	24	advance_on_keypress_ZEE	18	stimuli_distractor_diamondtriangles.svg	stimuli_distractor_trianglediamonds.svg	38	no	57	0	375	6	2	antiphase_hc_ios.wav	3	6	5	noise_calib_stim_RIGHT.wav	2	21	blb_dichoticlistening_ka-ga.mp3	ka	ga	1	left
6.6.1	win	2023-07-07	10:39:21	10:51:12	707847	62b4403257f7d42730f83394	2	1	main_z	24	main_z	19	stimuli_target_trianglesquares.svg	stimuli_distractor_diamondtriangles.svg	22	yes	44	1	391	6	2	antiphase_hc_ios.wav	3	6	5	noise_calib_stim_RIGHT.wav	2	21	blb_dichoticlistening_ka-ga.mp3	ka	ga	1	left
6.6.1	win	2023-07-07	10:39:21	10:51:12	707847	62b4403257f7d42730f83394	2	1	main_z	24	advance_on_keypress_ZEE	20	stimuli_target_trianglesquares.svg	stimuli_distractor_diamondtriangles.svg	22	yes	57	0	1007	6	2	antiphase_hc_ios.wav	3	6	5	noise_calib_stim_RIGHT.wav	2	21	blb_dichoticlistening_ka-ga.mp3	ka	ga	1	left
6.6.1	win	2023-07-07	10:39:21	10:51:16	711490	62b4403257f7d42730f83394	2	1	main_z	24	main_z	21	stimuli_distractor_diamondtriangles.svg	stimuli_target_trianglesquares.svg	30	yes	0	0	2000	6	2	antiphase_hc_ios.wav	3	6	5	noise_calib_stim_RIGHT.wav	2	21	blb_dichoticlistening_ka-ga.mp3	ka	ga	1	left
6.6.1	win	2023-07-07	10:39:21	10:51:16	711490	62b4403257f7d42730f83394	2	1	main_z	24	advance_on_keypress_ZEE	22	stimuli_distractor_diamondtriangles.svg	stimuli_target_trianglesquares.svg	30	yes	57	0	645	6	2	antiphase_hc_ios.wav	3	6	5	noise_calib_stim_RIGHT.wav	2	21	blb_dichoticlistening_ka-ga.mp3	ka	ga	1	left
6.6.1	win	2023-07-07	10:39:21	10:51:18	713831	62b4403257f7d42730f83394	2	1	main_z	24	main_z	23	stimuli_distractor_trianglediamonds.svg	stimuli_target_squaretriangles.svg	11	yes	44	1	1058	6	2	antiphase_hc_ios.wav	3	6	5	noise_calib_stim_RIGHT.wav	2	21	blb_dichoticlistening_ka-ga.mp3	ka	ga	1	left
6.6.1	win	2023-07-07	10:39:21	10:51:18	713831	62b4403257f7d42730f83394	2	1	main_z	24	advance_on_keypress_ZEE	24	stimuli_distractor_trianglediamonds.svg	stimuli_target_squaretriangles.svg	11	yes	57	0	791	6	2	antiphase_hc_ios.wav	3	6	5	noise_calib_stim_RIGHT.wav	2	21	blb_dichoticlistening_ka-ga.mp3	ka	ga	1	left
6.6.1	win	2023-07-07	10:39:21	10:51:22	717256	62b4403257f7d42730f83394	2	1	main_z	24	main_z	25	stimuli_distractor_trianglediamonds.svg	stimuli_target_squarediamonds.svg	12	yes	0	0	2000	6	2	antiphase_hc_ios.wav	3	6	5	noise_calib_stim_RIGHT.wav	2	21	blb_dichoticlistening_ka-ga.mp3	ka	ga	1	left
6.6.1	win	2023-07-07	10:39:21	10:51:22	717256	62b4403257f7d42730f83394	2	1	main_z	24	advance_on_keypress_ZEE	26	stimuli_distractor_trianglediamonds.svg	stimuli_target_squarediamonds.svg	12	yes	57	0	366	6	2	antiphase_hc_ios.wav	3	6	5	noise_calib_stim_RIGHT.wav	2	21	blb_dichoticlistening_ka-ga.mp3	ka	ga	1	left
6.6.1	win	2023-07-07	10:39:21	10:51:23	718687	62b4403257f7d42730f83394	2	1	main_z	24	main_z	27	stimuli_target_squaretriangles.svg	stimuli_distractor_trianglediamonds.svg	3	yes	44	1	414	6	2	antiphase_hc_ios.wav	3	6	5	noise_calib_stim_RIGHT.wav	2	21	blb_dichoticlistening_ka-ga.mp3	ka	ga	1	left
6.6.1	win	2023-07-07	10:39:21	10:51:23	718687	62b4403257f7d42730f83394	2	1	main_z	24	advance_on_keypress_ZEE	28	stimuli_target_squaretriangles.svg	stimuli_distractor_trianglediamonds.svg	3	yes	57	0	797	6	2	antiphase_hc_ios.wav	3	6	5	noise_calib_stim_RIGHT.wav	2	21	blb_dichoticlistening_ka-ga.mp3	ka	ga	1	left
6.6.1	win	2023-07-07	10:39:21	10:51:27	722140	62b4403257f7d42730f83394	2	1	main_z	24	main_z	29	stimuli_distractor_diamondtriangles.svg	stimuli_target_trianglerectangles.svg	29	yes	0	0	2000	6	2	antiphase_hc_ios.wav	3	6	5	noise_calib_stim_RIGHT.wav	2	21	blb_dichoticlistening_ka-ga.mp3	ka	ga	1	left
6.6.1	win	2023-07-07	10:39:21	10:51:27	722140	62b4403257f7d42730f83394	2	1	main_z	24	advance_on_keypress_ZEE	30	stimuli_distractor_diamondtriangles.svg	stimuli_target_trianglerectangles.svg	29	yes	57	0	411	6	2	antiphase_hc_ios.wav	3	6	5	noise_calib_stim_RIGHT.wav	2	21	blb_dichoticlistening_ka-ga.mp3	ka	ga	1	left
6.6.1	win	2023-07-07	10:39:21	10:51:30	725190	62b4403257f7d42730f83394	2	1	main_z	24	main_z	31	stimuli_distractor_diamondtriangles.svg	stimuli_target_squarediamonds.svg	16	yes	0	0	2000	6	2	antiphase_hc_ios.wav	3	6	5	noise_calib_stim_RIGHT.wav	2	21	blb_dichoticlistening_ka-ga.mp3	ka	ga	1	left
6.6.1	win	2023-07-07	10:39:21	10:51:30	725190	62b4403257f7d42730f83394	2	1	main_z	24	advance_on_keypress_ZEE	32	stimuli_distractor_diamondtriangles.svg	stimuli_target_squarediamonds.svg	16	yes	57	0	465	6	2	antiphase_hc_ios.wav	3	6	5	noise_calib_stim_RIGHT.wav	2	21	blb_dichoticlistening_ka-ga.mp3	ka	ga	1	left
6.6.1	win	2023-07-07	10:39:21	10:51:31	726683	62b4403257f7d42730f83394	2	1	main_z	24	main_z	33	stimuli_target_trianglesquares.svg	stimuli_distractor_trianglediamonds.svg	18	yes	44	1	373	6	2	antiphase_hc_ios.wav	3	6	5	noise_calib_stim_RIGHT.wav	2	21	blb_dichoticlistening_ka-ga.mp3	ka	ga	1	left
6.6.1	win	2023-07-07	10:39:21	10:51:31	726683	62b4403257f7d42730f83394	2	1	main_z	24	advance_on_keypress_ZEE	34	stimuli_target_trianglesquares.svg	stimuli_distractor_trianglediamonds.svg	18	yes	57	0	653	6	2	antiphase_hc_ios.wav	3	6	5	noise_calib_stim_RIGHT.wav	2	21	blb_dichoticlistening_ka-ga.mp3	ka	ga	1	left
6.6.1	win	2023-07-07	10:39:21	10:51:33	728615	62b4403257f7d42730f83394	2	1	main_z	24	main_z	35	stimuli_distractor_diamondtriangles.svg	stimuli_target_diamondsquares.svg	32	yes	44	1	642	6	2	antiphase_hc_ios.wav	3	6	5	noise_calib_stim_RIGHT.wav	2	21	blb_dichoticlistening_ka-ga.mp3	ka	ga	1	left
6.6.1	win	2023-07-07	10:39:21	10:51:33	728615	62b4403257f7d42730f83394	2	1	main_z	24	advance_on_keypress_ZEE	36	stimuli_distractor_diamondtriangles.svg	stimuli_target_diamondsquares.svg	32	yes	57	0	576	6	2	antiphase_hc_ios.wav	3	6	5	noise_calib_stim_RIGHT.wav	2	21	blb_dichoticlistening_ka-ga.mp3	ka	ga	1	left
6.6.1	win	2023-07-07	10:39:21	10:51:35	730303	62b4403257f7d42730f83394	2	1	main_z	24	main_z	37	stimuli_target_trianglerectangles.svg	stimuli_distractor_trianglediamonds.svg	17	yes	44	1	480	6	2	antiphase_hc_ios.wav	3	6	5	noise_calib_stim_RIGHT.wav	2	21	blb_dichoticlistening_ka-ga.mp3	ka	ga	1	left
6.6.1	win	2023-07-07	10:39:21	10:51:35	730303	62b4403257f7d42730f83394	2	1	main_z	24	advance_on_keypress_ZEE	38	stimuli_target_trianglerectangles.svg	stimuli_distractor_trianglediamonds.svg	17	yes	57	0	524	6	2	antiphase_hc_ios.wav	3	6	5	noise_calib_stim_RIGHT.wav	2	21	blb_dichoticlistening_ka-ga.mp3	ka	ga	1	left
6.6.1	win	2023-07-07	10:39:21	10:51:38	733474	62b4403257f7d42730f83394	2	1	main_z	24	main_z	39	stimuli_distractor_trianglediamonds.svg	stimuli_target_diamondsquares.svg	28	yes	0	0	2000	6	2	antiphase_hc_ios.wav	3	6	5	noise_calib_stim_RIGHT.wav	2	21	blb_dichoticlistening_ka-ga.mp3	ka	ga	1	left
6.6.1	win	2023-07-07	10:39:21	10:51:38	733474	62b4403257f7d42730f83394	2	1	main_z	24	advance_on_keypress_ZEE	40	stimuli_distractor_trianglediamonds.svg	stimuli_target_diamondsquares.svg	28	yes	57	0	1605	6	2	antiphase_hc_ios.wav	3	6	5	noise_calib_stim_RIGHT.wav	2	21	blb_dichoticlistening_ka-ga.mp3	ka	ga	1	left
6.6.1	win	2023-07-07	10:39:21	10:51:41	736295	62b4403257f7d42730f83394	2	1	main_z	24	main_z	41	stimuli_distractor_trianglediamonds.svg	stimuli_target_rectangletriangles.svg	9	yes	44	1	572	6	2	antiphase_hc_ios.wav	3	6	5	noise_calib_stim_RIGHT.wav	2	21	blb_dichoticlistening_ka-ga.mp3	ka	ga	1	left
6.6.1	win	2023-07-07	10:39:21	10:51:41	736295	62b4403257f7d42730f83394	2	1	main_z	24	advance_on_keypress_ZEE	42	stimuli_distractor_trianglediamonds.svg	stimuli_target_rectangletriangles.svg	9	yes	57	0	597	6	2	antiphase_hc_ios.wav	3	6	5	noise_calib_stim_RIGHT.wav	2	21	blb_dichoticlistening_ka-ga.mp3	ka	ga	1	left
6.6.1	win	2023-07-07	10:39:21	10:51:42	737999	62b4403257f7d42730f83394	2	1	main_z	24	main_z	43	stimuli_target_rectangletriangles.svg	stimuli_distractor_trianglediamonds.svg	1	yes	44	1	459	6	2	antiphase_hc_ios.wav	3	6	5	noise_calib_stim_RIGHT.wav	2	21	blb_dichoticlistening_ka-ga.mp3	ka	ga	1	left
6.6.1	win	2023-07-07	10:39:21	10:51:42	737999	62b4403257f7d42730f83394	2	1	main_z	24	advance_on_keypress_ZEE	44	stimuli_target_rectangletriangles.svg	stimuli_distractor_trianglediamonds.svg	1	yes	57	0	568	6	2	antiphase_hc_ios.wav	3	6	5	noise_calib_stim_RIGHT.wav	2	21	blb_dichoticlistening_ka-ga.mp3	ka	ga	1	left
6.6.1	win	2023-07-07	10:39:21	10:51:44	739639	62b4403257f7d42730f83394	2	1	main_z	24	main_z	45	stimuli_target_rectanglediamonds.svg	stimuli_distractor_diamondtriangles.svg	6	yes	44	1	433	6	2	antiphase_hc_ios.wav	3	6	5	noise_calib_stim_RIGHT.wav	2	21	blb_dichoticlistening_ka-ga.mp3	ka	ga	1	left
6.6.1	win	2023-07-07	10:39:21	10:51:44	739639	62b4403257f7d42730f83394	2	1	main_z	24	advance_on_keypress_ZEE	46	stimuli_target_rectanglediamonds.svg	stimuli_distractor_diamondtriangles.svg	6	yes	57	0	511	6	2	antiphase_hc_ios.wav	3	6	5	noise_calib_stim_RIGHT.wav	2	21	blb_dichoticlistening_ka-ga.mp3	ka	ga	1	left
6.6.1	win	2023-07-07	10:39:21	10:51:47	742790	62b4403257f7d42730f83394	2	1	main_z	24	main_z	47	stimuli_distractor_diamondtriangles.svg	stimuli_target_diamondrectangles.svg	31	yes	0	0	2000	6	2	antiphase_hc_ios.wav	3	6	5	noise_calib_stim_RIGHT.wav	2	21	blb_dichoticlistening_ka-ga.mp3	ka	ga	1	left
6.6.1	win	2023-07-07	10:39:21	10:51:47	742790	62b4403257f7d42730f83394	2	1	main_z	24	advance_on_keypress_ZEE	48	stimuli_distractor_diamondtriangles.svg	stimuli_target_diamondrectangles.svg	31	yes	57	0	441	6	2	antiphase_hc_ios.wav	3	6	5	noise_calib_stim_RIGHT.wav	2	21	blb_dichoticlistening_ka-ga.mp3	ka	ga	1	left
6.6.1	win	2023-07-07	10:39:21	10:51:49	744519	62b4403257f7d42730f83394	2	1	main_z	24	main_z	49	stimuli_distractor_trianglediamonds.svg	stimuli_target_diamondrectangles.svg	27	yes	44	1	646	6	2	antiphase_hc_ios.wav	3	6	5	noise_calib_stim_RIGHT.wav	2	21	blb_dichoticlistening_ka-ga.mp3	ka	ga	1	left
6.6.1	win	2023-07-07	10:39:21	10:51:49	744519	62b4403257f7d42730f83394	2	1	main_z	24	advance_on_keypress_ZEE	50	stimuli_distractor_trianglediamonds.svg	stimuli_target_diamondrectangles.svg	27	yes	57	0	539	6	2	antiphase_hc_ios.wav	3	6	5	noise_calib_stim_RIGHT.wav	2	21	blb_dichoticlistening_ka-ga.mp3	ka	ga	1	left
6.6.1	win	2023-07-07	10:39:21	10:51:51	746295	62b4403257f7d42730f83394	2	1	main_z	24	main_z	51	stimuli_target_rectanglediamonds.svg	stimuli_distractor_trianglediamonds.svg	2	yes	44	1	588	6	2	antiphase_hc_ios.wav	3	6	5	noise_calib_stim_RIGHT.wav	2	21	blb_dichoticlistening_ka-ga.mp3	ka	ga	1	left
6.6.1	win	2023-07-07	10:39:21	10:51:51	746295	62b4403257f7d42730f83394	2	1	main_z	24	advance_on_keypress_ZEE	52	stimuli_target_rectanglediamonds.svg	stimuli_distractor_trianglediamonds.svg	2	yes	57	0	509	6	2	antiphase_hc_ios.wav	3	6	5	noise_calib_stim_RIGHT.wav	2	21	blb_dichoticlistening_ka-ga.mp3	ka	ga	1	left
6.6.1	win	2023-07-07	10:39:21	10:51:52	747895	62b4403257f7d42730f83394	2	1	main_z	24	main_z	53	stimuli_target_diamondrectangles.svg	stimuli_distractor_trianglediamonds.svg	19	yes	44	1	455	6	2	antiphase_hc_ios.wav	3	6	5	noise_calib_stim_RIGHT.wav	2	21	blb_dichoticlistening_ka-ga.mp3	ka	ga	1	left
6.6.1	win	2023-07-07	10:39:21	10:51:52	747895	62b4403257f7d42730f83394	2	1	main_z	24	advance_on_keypress_ZEE	54	stimuli_target_diamondrectangles.svg	stimuli_distractor_trianglediamonds.svg	19	yes	57	0	533	6	2	antiphase_hc_ios.wav	3	6	5	noise_calib_stim_RIGHT.wav	2	21	blb_dichoticlistening_ka-ga.mp3	ka	ga	1	left
6.6.1	win	2023-07-07	10:39:21	10:51:55	751073	62b4403257f7d42730f83394	2	1	main_z	24	main_z	55	stimuli_distractor_trianglediamonds.svg	stimuli_target_trianglerectangles.svg	25	yes	0	0	2000	6	2	antiphase_hc_ios.wav	3	6	5	noise_calib_stim_RIGHT.wav	2	21	blb_dichoticlistening_ka-ga.mp3	ka	ga	1	left
6.6.1	win	2023-07-07	10:39:21	10:51:55	751073	62b4403257f7d42730f83394	2	1	main_z	24	advance_on_keypress_ZEE	56	stimuli_distractor_trianglediamonds.svg	stimuli_target_trianglerectangles.svg	25	yes	57	0	413	6	2	antiphase_hc_ios.wav	3	6	5	noise_calib_stim_RIGHT.wav	2	21	blb_dichoticlistening_ka-ga.mp3	ka	ga	1	left
6.6.1	win	2023-07-07	10:39:21	10:51:57	752703	62b4403257f7d42730f83394	2	1	main_z	24	main_z	57	stimuli_target_squarediamonds.svg	stimuli_distractor_diamondtriangles.svg	8	yes	44	1	563	6	2	antiphase_hc_ios.wav	3	6	5	noise_calib_stim_RIGHT.wav	2	21	blb_dichoticlistening_ka-ga.mp3	ka	ga	1	left
6.6.1	win	2023-07-07	10:39:21	10:51:57	752703	62b4403257f7d42730f83394	2	1	main_z	24	advance_on_keypress_ZEE	58	stimuli_target_squarediamonds.svg	stimuli_distractor_diamondtriangles.svg	8	yes	57	0	556	6	2	antiphase_hc_ios.wav	3	6	5	noise_calib_stim_RIGHT.wav	2	21	blb_dichoticlistening_ka-ga.mp3	ka	ga	1	left
6.6.1	win	2023-07-07	10:39:21	10:52:00	755907	62b4403257f7d42730f83394	2	1	main_z	24	main_z	59	stimuli_distractor_diamondtriangles.svg	stimuli_target_rectangletriangles.svg	13	yes	0	0	2000	6	2	antiphase_hc_ios.wav	3	6	5	noise_calib_stim_RIGHT.wav	2	21	blb_dichoticlistening_ka-ga.mp3	ka	ga	1	left
6.6.1	win	2023-07-07	10:39:21	10:52:00	755907	62b4403257f7d42730f83394	2	1	main_z	24	advance_on_keypress_ZEE	60	stimuli_distractor_diamondtriangles.svg	stimuli_target_rectangletriangles.svg	13	yes	57	0	396	6	2	antiphase_hc_ios.wav	3	6	5	noise_calib_stim_RIGHT.wav	2	21	blb_dichoticlistening_ka-ga.mp3	ka	ga	1	left
6.6.1	win	2023-07-07	10:39:21	10:52:02	757479	62b4403257f7d42730f83394	2	1	main_z	24	main_z	61	stimuli_target_squaretriangles.svg	stimuli_distractor_diamondtriangles.svg	7	yes	44	1	522	6	2	antiphase_hc_ios.wav	3	6	5	noise_calib_stim_RIGHT.wav	2	21	blb_dichoticlistening_ka-ga.mp3	ka	ga	1	left
6.6.1	win	2023-07-07	10:39:21	10:52:02	757479	62b4403257f7d42730f83394	2	1	main_z	24	advance_on_keypress_ZEE	62	stimuli_target_squaretriangles.svg	stimuli_distractor_diamondtriangles.svg	7	yes	57	0	605	6	2	antiphase_hc_ios.wav	3	6	5	noise_calib_stim_RIGHT.wav	2	21	blb_dichoticlistening_ka-ga.mp3	ka	ga	1	left
6.6.1	win	2023-07-07	10:39:21	10:52:04	759383	62b4403257f7d42730f83394	2	1	main_z	24	main_z	63	stimuli_distractor_diamondtriangles.svg	stimuli_distractor_diamondtriangles.svg	39	no	44	0	660	6	2	antiphase_hc_ios.wav	3	6	5	noise_calib_stim_RIGHT.wav	2	21	blb_dichoticlistening_ka-ga.mp3	ka	ga	1	left
6.6.1	win	2023-07-07	10:39:21	10:52:04	759383	62b4403257f7d42730f83394	2	1	main_z	24	advance_on_keypress_ZEE	64	stimuli_distractor_diamondtriangles.svg	stimuli_distractor_diamondtriangles.svg	39	no	57	0	465	6	2	antiphase_hc_ios.wav	3	6	5	noise_calib_stim_RIGHT.wav	2	21	blb_dichoticlistening_ka-ga.mp3	ka	ga	1	left
6.6.1	win	2023-07-07	10:39:21	10:52:07	762490	62b4403257f7d42730f83394	2	1	main_z	24	main_z	65	stimuli_distractor_trianglediamonds.svg	stimuli_distractor_diamondtriangles.svg	35	no	0	1	2000	6	2	antiphase_hc_ios.wav	3	6	5	noise_calib_stim_RIGHT.wav	2	21	blb_dichoticlistening_ka-ga.mp3	ka	ga	1	left
6.6.1	win	2023-07-07	10:39:21	10:52:07	762490	62b4403257f7d42730f83394	2	1	main_z	24	advance_on_keypress_ZEE	66	stimuli_distractor_trianglediamonds.svg	stimuli_distractor_diamondtriangles.svg	35	no	57	0	437	6	2	antiphase_hc_ios.wav	3	6	5	noise_calib_stim_RIGHT.wav	2	21	blb_dichoticlistening_ka-ga.mp3	ka	ga	1	left
6.6.1	win	2023-07-07	10:39:21	10:52:08	763983	62b4403257f7d42730f83394	2	1	main_z	24	main_z	67	stimuli_target_squarediamonds.svg	stimuli_distractor_trianglediamonds.svg	4	yes	44	1	410	6	2	antiphase_hc_ios.wav	3	6	5	noise_calib_stim_RIGHT.wav	2	21	blb_dichoticlistening_ka-ga.mp3	ka	ga	1	left
6.6.1	win	2023-07-07	10:39:21	10:52:08	763983	62b4403257f7d42730f83394	2	1	main_z	24	advance_on_keypress_ZEE	68	stimuli_target_squarediamonds.svg	stimuli_distractor_trianglediamonds.svg	4	yes	57	0	609	6	2	antiphase_hc_ios.wav	3	6	5	noise_calib_stim_RIGHT.wav	2	21	blb_dichoticlistening_ka-ga.mp3	ka	ga	1	left
6.6.1	win	2023-07-07	10:39:21	10:52:12	767224	62b4403257f7d42730f83394	2	1	main_z	24	main_z	69	stimuli_distractor_diamondtriangles.svg	stimuli_distractor_diamondtriangles.svg	40	no	0	1	2000	6	2	antiphase_hc_ios.wav	3	6	5	noise_calib_stim_RIGHT.wav	2	21	blb_dichoticlistening_ka-ga.mp3	ka	ga	1	left
6.6.1	win	2023-07-07	10:39:21	10:52:12	767224	62b4403257f7d42730f83394	2	1	main_z	24	advance_on_keypress_ZEE	70	stimuli_distractor_diamondtriangles.svg	stimuli_distractor_diamondtriangles.svg	40	no	57	0	455	6	2	antiphase_hc_ios.wav	3	6	5	noise_calib_stim_RIGHT.wav	2	21	blb_dichoticlistening_ka-ga.mp3	ka	ga	1	left
6.6.1	win	2023-07-07	10:39:21	10:52:13	768743	62b4403257f7d42730f83394	2	1	main_z	24	main_z	71	stimuli_target_rectangletriangles.svg	stimuli_distractor_diamondtriangles.svg	5	yes	44	1	420	6	2	antiphase_hc_ios.wav	3	6	5	noise_calib_stim_RIGHT.wav	2	21	blb_dichoticlistening_ka-ga.mp3	ka	ga	1	left
6.6.1	win	2023-07-07	10:39:21	10:52:13	768743	62b4403257f7d42730f83394	2	1	main_z	24	advance_on_keypress_ZEE	72	stimuli_target_rectangletriangles.svg	stimuli_distractor_diamondtriangles.svg	5	yes	57	0	602	6	2	antiphase_hc_ios.wav	3	6	5	noise_calib_stim_RIGHT.wav	2	21	blb_dichoticlistening_ka-ga.mp3	ka	ga	1	left
6.6.1	win	2023-07-07	10:39:21	10:52:16	771990	62b4403257f7d42730f83394	2	1	main_z	24	main_z	73	stimuli_distractor_trianglediamonds.svg	stimuli_distractor_diamondtriangles.svg	36	no	0	1	2000	6	2	antiphase_hc_ios.wav	3	6	5	noise_calib_stim_RIGHT.wav	2	21	blb_dichoticlistening_ka-ga.mp3	ka	ga	1	left
6.6.1	win	2023-07-07	10:39:21	10:52:16	771990	62b4403257f7d42730f83394	2	1	main_z	24	advance_on_keypress_ZEE	74	stimuli_distractor_trianglediamonds.svg	stimuli_distractor_diamondtriangles.svg	36	no	57	0	401	6	2	antiphase_hc_ios.wav	3	6	5	noise_calib_stim_RIGHT.wav	2	21	blb_dichoticlistening_ka-ga.mp3	ka	ga	1	left
6.6.1	win	2023-07-07	10:39:21	10:52:18	773455	62b4403257f7d42730f83394	2	1	main_z	24	main_z	75	stimuli_target_trianglerectangles.svg	stimuli_distractor_diamondtriangles.svg	21	yes	44	1	415	6	2	antiphase_hc_ios.wav	3	6	5	noise_calib_stim_RIGHT.wav	2	21	blb_dichoticlistening_ka-ga.mp3	ka	ga	1	left
6.6.1	win	2023-07-07	10:39:21	10:52:18	773455	62b4403257f7d42730f83394	2	1	main_z	24	advance_on_keypress_ZEE	76	stimuli_target_trianglerectangles.svg	stimuli_distractor_diamondtriangles.svg	21	yes	57	0	662	6	2	antiphase_hc_ios.wav	3	6	5	noise_calib_stim_RIGHT.wav	2	21	blb_dichoticlistening_ka-ga.mp3	ka	ga	1	left
6.6.1	win	2023-07-07	10:39:21	10:52:20	775967	62b4403257f7d42730f83394	2	1	main_z	24	main_z	77	stimuli_distractor_trianglediamonds.svg	stimuli_target_trianglesquares.svg	26	yes	44	1	1194	6	2	antiphase_hc_ios.wav	3	6	5	noise_calib_stim_RIGHT.wav	2	21	blb_dichoticlistening_ka-ga.mp3	ka	ga	1	left
6.6.1	win	2023-07-07	10:39:21	10:52:20	775967	62b4403257f7d42730f83394	2	1	main_z	24	advance_on_keypress_ZEE	78	stimuli_distractor_trianglediamonds.svg	stimuli_target_trianglesquares.svg	26	yes	57	0	554	6	2	antiphase_hc_ios.wav	3	6	5	noise_calib_stim_RIGHT.wav	2	21	blb_dichoticlistening_ka-ga.mp3	ka	ga	1	left
6.6.1	win	2023-07-07	10:39:21	10:52:24	779157	62b4403257f7d42730f83394	2	1	main_z	24	main_z	79	stimuli_distractor_diamondtriangles.svg	stimuli_target_rectanglediamonds.svg	14	yes	0	0	2000	6	2	antiphase_hc_ios.wav	3	6	5	noise_calib_stim_RIGHT.wav	2	21	blb_dichoticlistening_ka-ga.mp3	ka	ga	1	left
6.6.1	win	2023-07-07	10:39:21	10:52:24	779157	62b4403257f7d42730f83394	2	1	main_z	24	advance_on_keypress_ZEE	80	stimuli_distractor_diamondtriangles.svg	stimuli_target_rectanglediamonds.svg	14	yes	57	0	426	6	2	antiphase_hc_ios.wav	3	6	5	noise_calib_stim_RIGHT.wav	2	21	blb_dichoticlistening_ka-ga.mp3	ka	ga	1	left
6.6.1	win	2023-07-07	10:39:21	10:52:27	782223	62b4403257f7d42730f83394	2	1	main_z	24	main_z	81	stimuli_distractor_diamondtriangles.svg	stimuli_distractor_diamondtriangles.svg	40	no	0	1	2000	6	2	antiphase_hc_ios.wav	3	6	5	noise_calib_stim_RIGHT.wav	2	21	blb_dichoticlistening_ka-ga.mp3	ka	ga	1	left
6.6.1	win	2023-07-07	10:39:21	10:52:27	782223	62b4403257f7d42730f83394	2	1	main_z	24	advance_on_keypress_ZEE	82	stimuli_distractor_diamondtriangles.svg	stimuli_distractor_diamondtriangles.svg	40	no	57	0	391	6	2	antiphase_hc_ios.wav	3	6	5	noise_calib_stim_RIGHT.wav	2	21	blb_dichoticlistening_ka-ga.mp3	ka	ga	1	left
6.6.1	win	2023-07-07	10:39:21	10:52:28	783735	62b4403257f7d42730f83394	2	1	main_z	24	main_z	83	stimuli_target_rectanglediamonds.svg	stimuli_distractor_diamondtriangles.svg	6	yes	44	1	479	6	2	antiphase_hc_ios.wav	3	6	5	noise_calib_stim_RIGHT.wav	2	21	blb_dichoticlistening_ka-ga.mp3	ka	ga	1	left
6.6.1	win	2023-07-07	10:39:21	10:52:28	783735	62b4403257f7d42730f83394	2	1	main_z	24	advance_on_keypress_ZEE	84	stimuli_target_rectanglediamonds.svg	stimuli_distractor_diamondtriangles.svg	6	yes	57	0	571	6	2	antiphase_hc_ios.wav	3	6	5	noise_calib_stim_RIGHT.wav	2	21	blb_dichoticlistening_ka-ga.mp3	ka	ga	1	left
6.6.1	win	2023-07-07	10:39:21	10:52:31	786957	62b4403257f7d42730f83394	2	1	main_z	24	main_z	85	stimuli_distractor_diamondtriangles.svg	stimuli_target_diamondsquares.svg	32	yes	0	0	2000	6	2	antiphase_hc_ios.wav	3	6	5	noise_calib_stim_RIGHT.wav	2	21	blb_dichoticlistening_ka-ga.mp3	ka	ga	1	left
6.6.1	win	2023-07-07	10:39:21	10:52:31	786957	62b4403257f7d42730f83394	2	1	main_z	24	advance_on_keypress_ZEE	86	stimuli_distractor_diamondtriangles.svg	stimuli_target_diamondsquares.svg	32	yes	57	0	386	6	2	antiphase_hc_ios.wav	3	6	5	noise_calib_stim_RIGHT.wav	2	21	blb_dichoticlistening_ka-ga.mp3	ka	ga	1	left
6.6.1	win	2023-07-07	10:39:21	10:52:34	789990	62b4403257f7d42730f83394	2	1	main_z	24	main_z	87	stimuli_distractor_diamondtriangles.svg	stimuli_target_trianglerectangles.svg	29	yes	0	0	2000	6	2	antiphase_hc_ios.wav	3	6	5	noise_calib_stim_RIGHT.wav	2	21	blb_dichoticlistening_ka-ga.mp3	ka	ga	1	left
6.6.1	win	2023-07-07	10:39:21	10:52:34	789990	62b4403257f7d42730f83394	2	1	main_z	24	advance_on_keypress_ZEE	88	stimuli_distractor_diamondtriangles.svg	stimuli_target_trianglerectangles.svg	29	yes	57	0	416	6	2	antiphase_hc_ios.wav	3	6	5	noise_calib_stim_RIGHT.wav	2	21	blb_dichoticlistening_ka-ga.mp3	ka	ga	1	left
6.6.1	win	2023-07-07	10:39:21	10:52:36	791439	62b4403257f7d42730f83394	2	1	main_z	24	main_z	89	stimuli_target_rectangletriangles.svg	stimuli_distractor_diamondtriangles.svg	5	yes	44	1	382	6	2	antiphase_hc_ios.wav	3	6	5	noise_calib_stim_RIGHT.wav	2	21	blb_dichoticlistening_ka-ga.mp3	ka	ga	1	left
6.6.1	win	2023-07-07	10:39:21	10:52:36	791439	62b4403257f7d42730f83394	2	1	main_z	24	advance_on_keypress_ZEE	90	stimuli_target_rectangletriangles.svg	stimuli_distractor_diamondtriangles.svg	5	yes	57	0	607	6	2	antiphase_hc_ios.wav	3	6	5	noise_calib_stim_RIGHT.wav	2	21	blb_dichoticlistening_ka-ga.mp3	ka	ga	1	left
6.6.1	win	2023-07-07	10:39:21	10:52:38	793272	62b4403257f7d42730f83394	2	1	main_z	24	main_z	91	stimuli_target_squarediamonds.svg	stimuli_distractor_trianglediamonds.svg	4	yes	44	1	581	6	2	antiphase_hc_ios.wav	3	6	5	noise_calib_stim_RIGHT.wav	2	21	blb_dichoticlistening_ka-ga.mp3	ka	ga	1	left
6.6.1	win	2023-07-07	10:39:21	10:52:38	793272	62b4403257f7d42730f83394	2	1	main_z	24	advance_on_keypress_ZEE	92	stimuli_target_squarediamonds.svg	stimuli_distractor_trianglediamonds.svg	4	yes	57	0	573	6	2	antiphase_hc_ios.wav	3	6	5	noise_calib_stim_RIGHT.wav	2	21	blb_dichoticlistening_ka-ga.mp3	ka	ga	1	left
6.6.1	win	2023-07-07	10:39:21	10:52:41	796490	62b4403257f7d42730f83394	2	1	main_z	24	main_z	93	stimuli_distractor_trianglediamonds.svg	stimuli_target_rectangletriangles.svg	9	yes	0	0	2000	6	2	antiphase_hc_ios.wav	3	6	5	noise_calib_stim_RIGHT.wav	2	21	blb_dichoticlistening_ka-ga.mp3	ka	ga	1	left
6.6.1	win	2023-07-07	10:39:21	10:52:41	796490	62b4403257f7d42730f83394	2	1	main_z	24	advance_on_keypress_ZEE	94	stimuli_distractor_trianglediamonds.svg	stimuli_target_rectangletriangles.svg	9	yes	57	0	396	6	2	antiphase_hc_ios.wav	3	6	5	noise_calib_stim_RIGHT.wav	2	21	blb_dichoticlistening_ka-ga.mp3	ka	ga	1	left
6.6.1	win	2023-07-07	10:39:21	10:52:44	799540	62b4403257f7d42730f83394	2	1	main_z	24	main_z	95	stimuli_distractor_diamondtriangles.svg	stimuli_distractor_trianglediamonds.svg	37	no	0	1	2000	6	2	antiphase_hc_ios.wav	3	6	5	noise_calib_stim_RIGHT.wav	2	21	blb_dichoticlistening_ka-ga.mp3	ka	ga	1	left
6.6.1	win	2023-07-07	10:39:21	10:52:44	799540	62b4403257f7d42730f83394	2	1	main_z	24	advance_on_keypress_ZEE	96	stimuli_distractor_diamondtriangles.svg	stimuli_distractor_trianglediamonds.svg	37	no	57	0	379	6	2	antiphase_hc_ios.wav	3	6	5	noise_calib_stim_RIGHT.wav	2	21	blb_dichoticlistening_ka-ga.mp3	ka	ga	1	left
6.6.1	win	2023-07-07	10:39:21	10:52:47	802573	62b4403257f7d42730f83394	2	1	main_z	24	main_z	97	stimuli_distractor_diamondtriangles.svg	stimuli_target_rectangletriangles.svg	13	yes	0	0	2000	6	2	antiphase_hc_ios.wav	3	6	5	noise_calib_stim_RIGHT.wav	2	21	blb_dichoticlistening_ka-ga.mp3	ka	ga	1	left
6.6.1	win	2023-07-07	10:39:21	10:52:47	802573	62b4403257f7d42730f83394	2	1	main_z	24	advance_on_keypress_ZEE	98	stimuli_distractor_diamondtriangles.svg	stimuli_target_rectangletriangles.svg	13	yes	57	0	377	6	2	antiphase_hc_ios.wav	3	6	5	noise_calib_stim_RIGHT.wav	2	21	blb_dichoticlistening_ka-ga.mp3	ka	ga	1	left
6.6.1	win	2023-07-07	10:39:21	10:52:48	803991	62b4403257f7d42730f83394	2	1	main_z	24	main_z	99	stimuli_target_trianglerectangles.svg	stimuli_distractor_trianglediamonds.svg	17	yes	44	1	401	6	2	antiphase_hc_ios.wav	3	6	5	noise_calib_stim_RIGHT.wav	2	21	blb_dichoticlistening_ka-ga.mp3	ka	ga	1	left
6.6.1	win	2023-07-07	10:39:21	10:52:48	803991	62b4403257f7d42730f83394	2	1	main_z	24	advance_on_keypress_ZEE	100	stimuli_target_trianglerectangles.svg	stimuli_distractor_trianglediamonds.svg	17	yes	57	0	576	6	2	antiphase_hc_ios.wav	3	6	5	noise_calib_stim_RIGHT.wav	2	21	blb_dichoticlistening_ka-ga.mp3	ka	ga	1	left
6.6.1	win	2023-07-07	10:39:21	10:52:52	807207	62b4403257f7d42730f83394	2	1	main_z	24	main_z	101	stimuli_distractor_trianglediamonds.svg	stimuli_distractor_trianglediamonds.svg	33	no	0	1	2000	6	2	antiphase_hc_ios.wav	3	6	5	noise_calib_stim_RIGHT.wav	2	21	blb_dichoticlistening_ka-ga.mp3	ka	ga	1	left
6.6.1	win	2023-07-07	10:39:21	10:52:52	807207	62b4403257f7d42730f83394	2	1	main_z	24	advance_on_keypress_ZEE	102	stimuli_distractor_trianglediamonds.svg	stimuli_distractor_trianglediamonds.svg	33	no	57	0	392	6	2	antiphase_hc_ios.wav	3	6	5	noise_calib_stim_RIGHT.wav	2	21	blb_dichoticlistening_ka-ga.mp3	ka	ga	1	left
6.6.1	win	2023-07-07	10:39:21	10:52:53	808679	62b4403257f7d42730f83394	2	1	main_z	24	main_z	103	stimuli_distractor_trianglediamonds.svg	stimuli_target_diamondrectangles.svg	27	yes	44	1	439	6	2	antiphase_hc_ios.wav	3	6	5	noise_calib_stim_RIGHT.wav	2	21	blb_dichoticlistening_ka-ga.mp3	ka	ga	1	left
6.6.1	win	2023-07-07	10:39:21	10:52:53	808679	62b4403257f7d42730f83394	2	1	main_z	24	advance_on_keypress_ZEE	104	stimuli_distractor_trianglediamonds.svg	stimuli_target_diamondrectangles.svg	27	yes	57	0	765	6	2	antiphase_hc_ios.wav	3	6	5	noise_calib_stim_RIGHT.wav	2	21	blb_dichoticlistening_ka-ga.mp3	ka	ga	1	left
6.6.1	win	2023-07-07	10:39:21	10:52:55	810487	62b4403257f7d42730f83394	2	1	main_z	24	main_z	105	stimuli_target_squaretriangles.svg	stimuli_distractor_diamondtriangles.svg	7	yes	44	1	397	6	2	antiphase_hc_ios.wav	3	6	5	noise_calib_stim_RIGHT.wav	2	21	blb_dichoticlistening_ka-ga.mp3	ka	ga	1	left
6.6.1	win	2023-07-07	10:39:21	10:52:55	810487	62b4403257f7d42730f83394	2	1	main_z	24	advance_on_keypress_ZEE	106	stimuli_target_squaretriangles.svg	stimuli_distractor_diamondtriangles.svg	7	yes	57	0	605	6	2	antiphase_hc_ios.wav	3	6	5	noise_calib_stim_RIGHT.wav	2	21	blb_dichoticlistening_ka-ga.mp3	ka	ga	1	left
6.6.1	win	2023-07-07	10:39:21	10:52:58	813740	62b4403257f7d42730f83394	2	1	main_z	24	main_z	107	stimuli_distractor_trianglediamonds.svg	stimuli_distractor_diamondtriangles.svg	36	no	0	1	2000	6	2	antiphase_hc_ios.wav	3	6	5	noise_calib_stim_RIGHT.wav	2	21	blb_dichoticlistening_ka-ga.mp3	ka	ga	1	left
6.6.1	win	2023-07-07	10:39:21	10:52:58	813740	62b4403257f7d42730f83394	2	1	main_z	24	advance_on_keypress_ZEE	108	stimuli_distractor_trianglediamonds.svg	stimuli_distractor_diamondtriangles.svg	36	no	57	0	387	6	2	antiphase_hc_ios.wav	3	6	5	noise_calib_stim_RIGHT.wav	2	21	blb_dichoticlistening_ka-ga.mp3	ka	ga	1	left
6.6.1	win	2023-07-07	10:39:21	10:53:00	815183	62b4403257f7d42730f83394	2	1	main_z	24	main_z	109	stimuli_target_trianglesquares.svg	stimuli_distractor_diamondtriangles.svg	22	yes	44	1	410	6	2	antiphase_hc_ios.wav	3	6	5	noise_calib_stim_RIGHT.wav	2	21	blb_dichoticlistening_ka-ga.mp3	ka	ga	1	left
6.6.1	win	2023-07-07	10:39:21	10:53:00	815183	62b4403257f7d42730f83394	2	1	main_z	24	advance_on_keypress_ZEE	110	stimuli_target_trianglesquares.svg	stimuli_distractor_diamondtriangles.svg	22	yes	57	0	649	6	2	antiphase_hc_ios.wav	3	6	5	noise_calib_stim_RIGHT.wav	2	21	blb_dichoticlistening_ka-ga.mp3	ka	ga	1	left
6.6.1	win	2023-07-07	10:39:21	10:53:01	816984	62b4403257f7d42730f83394	2	1	main_z	24	main_z	111	stimuli_distractor_trianglediamonds.svg	stimuli_target_diamondsquares.svg	28	yes	44	1	511	6	2	antiphase_hc_ios.wav	3	6	5	noise_calib_stim_RIGHT.wav	2	21	blb_dichoticlistening_ka-ga.mp3	ka	ga	1	left
6.6.1	win	2023-07-07	10:39:21	10:53:01	816984	62b4403257f7d42730f83394	2	1	main_z	24	advance_on_keypress_ZEE	112	stimuli_distractor_trianglediamonds.svg	stimuli_target_diamondsquares.svg	28	yes	57	0	505	6	2	antiphase_hc_ios.wav	3	6	5	noise_calib_stim_RIGHT.wav	2	21	blb_dichoticlistening_ka-ga.mp3	ka	ga	1	left
6.6.1	win	2023-07-07	10:39:21	10:53:05	820123	62b4403257f7d42730f83394	2	1	main_z	24	main_z	113	stimuli_distractor_diamondtriangles.svg	stimuli_target_squarediamonds.svg	16	yes	0	0	2000	6	2	antiphase_hc_ios.wav	3	6	5	noise_calib_stim_RIGHT.wav	2	21	blb_dichoticlistening_ka-ga.mp3	ka	ga	1	left
6.6.1	win	2023-07-07	10:39:21	10:53:05	820123	62b4403257f7d42730f83394	2	1	main_z	24	advance_on_keypress_ZEE	114	stimuli_distractor_diamondtriangles.svg	stimuli_target_squarediamonds.svg	16	yes	57	0	468	6	2	antiphase_hc_ios.wav	3	6	5	noise_calib_stim_RIGHT.wav	2	21	blb_dichoticlistening_ka-ga.mp3	ka	ga	1	left
6.6.1	win	2023-07-07	10:39:21	10:53:06	821623	62b4403257f7d42730f83394	2	1	main_z	24	main_z	115	stimuli_target_rectangletriangles.svg	stimuli_distractor_trianglediamonds.svg	1	yes	44	1	383	6	2	antiphase_hc_ios.wav	3	6	5	noise_calib_stim_RIGHT.wav	2	21	blb_dichoticlistening_ka-ga.mp3	ka	ga	1	left
6.6.1	win	2023-07-07	10:39:21	10:53:06	821623	62b4403257f7d42730f83394	2	1	main_z	24	advance_on_keypress_ZEE	116	stimuli_target_rectangletriangles.svg	stimuli_distractor_trianglediamonds.svg	1	yes	57	0	511	6	2	antiphase_hc_ios.wav	3	6	5	noise_calib_stim_RIGHT.wav	2	21	blb_dichoticlistening_ka-ga.mp3	ka	ga	1	left
6.6.1	win	2023-07-07	10:39:21	10:53:09	824774	62b4403257f7d42730f83394	2	1	main_z	24	main_z	117	stimuli_distractor_diamondtriangles.svg	stimuli_distractor_diamondtriangles.svg	39	no	0	1	2000	6	2	antiphase_hc_ios.wav	3	6	5	noise_calib_stim_RIGHT.wav	2	21	blb_dichoticlistening_ka-ga.mp3	ka	ga	1	left
6.6.1	win	2023-07-07	10:39:21	10:53:09	824774	62b4403257f7d42730f83394	2	1	main_z	24	advance_on_keypress_ZEE	118	stimuli_distractor_diamondtriangles.svg	stimuli_distractor_diamondtriangles.svg	39	no	57	0	425	6	2	antiphase_hc_ios.wav	3	6	5	noise_calib_stim_RIGHT.wav	2	21	blb_dichoticlistening_ka-ga.mp3	ka	ga	1	left
6.6.1	win	2023-07-07	10:39:21	10:53:11	826503	62b4403257f7d42730f83394	2	1	main_z	24	main_z	119	stimuli_distractor_diamondtriangles.svg	stimuli_target_trianglesquares.svg	30	yes	44	1	663	6	2	antiphase_hc_ios.wav	3	6	5	noise_calib_stim_RIGHT.wav	2	21	blb_dichoticlistening_ka-ga.mp3	ka	ga	1	left
6.6.1	win	2023-07-07	10:39:21	10:53:11	826503	62b4403257f7d42730f83394	2	1	main_z	24	advance_on_keypress_ZEE	120	stimuli_distractor_diamondtriangles.svg	stimuli_target_trianglesquares.svg	30	yes	57	0	556	6	2	antiphase_hc_ios.wav	3	6	5	noise_calib_stim_RIGHT.wav	2	21	blb_dichoticlistening_ka-ga.mp3	ka	ga	1	left
6.6.1	win	2023-07-07	10:39:21	10:53:13	828495	62b4403257f7d42730f83394	2	1	main_z	24	main_z	121	stimuli_distractor_diamondtriangles.svg	stimuli_target_rectanglediamonds.svg	14	yes	44	1	788	6	2	antiphase_hc_ios.wav	3	6	5	noise_calib_stim_RIGHT.wav	2	21	blb_dichoticlistening_ka-ga.mp3	ka	ga	1	left
6.6.1	win	2023-07-07	10:39:21	10:53:13	828495	62b4403257f7d42730f83394	2	1	main_z	24	advance_on_keypress_ZEE	122	stimuli_distractor_diamondtriangles.svg	stimuli_target_rectanglediamonds.svg	14	yes	57	0	485	6	2	antiphase_hc_ios.wav	3	6	5	noise_calib_stim_RIGHT.wav	2	21	blb_dichoticlistening_ka-ga.mp3	ka	ga	1	left
6.6.1	win	2023-07-07	10:39:21	10:53:15	830119	62b4403257f7d42730f83394	2	1	main_z	24	main_z	123	stimuli_target_squaretriangles.svg	stimuli_distractor_trianglediamonds.svg	3	yes	44	1	496	6	2	antiphase_hc_ios.wav	3	6	5	noise_calib_stim_RIGHT.wav	2	21	blb_dichoticlistening_ka-ga.mp3	ka	ga	1	left
6.6.1	win	2023-07-07	10:39:21	10:53:15	830119	62b4403257f7d42730f83394	2	1	main_z	24	advance_on_keypress_ZEE	124	stimuli_target_squaretriangles.svg	stimuli_distractor_trianglediamonds.svg	3	yes	57	0	475	6	2	antiphase_hc_ios.wav	3	6	5	noise_calib_stim_RIGHT.wav	2	21	blb_dichoticlistening_ka-ga.mp3	ka	ga	1	left
6.6.1	win	2023-07-07	10:39:21	10:53:18	833240	62b4403257f7d42730f83394	2	1	main_z	24	main_z	125	stimuli_distractor_diamondtriangles.svg	stimuli_distractor_trianglediamonds.svg	38	no	0	1	2000	6	2	antiphase_hc_ios.wav	3	6	5	noise_calib_stim_RIGHT.wav	2	21	blb_dichoticlistening_ka-ga.mp3	ka	ga	1	left
6.6.1	win	2023-07-07	10:39:21	10:53:18	833240	62b4403257f7d42730f83394	2	1	main_z	24	advance_on_keypress_ZEE	126	stimuli_distractor_diamondtriangles.svg	stimuli_distractor_trianglediamonds.svg	38	no	57	0	974	6	2	antiphase_hc_ios.wav	3	6	5	noise_calib_stim_RIGHT.wav	2	21	blb_dichoticlistening_ka-ga.mp3	ka	ga	1	left
6.6.1	win	2023-07-07	10:39:21	10:53:20	835263	62b4403257f7d42730f83394	2	1	main_z	24	main_z	127	stimuli_target_rectanglediamonds.svg	stimuli_distractor_trianglediamonds.svg	2	yes	44	1	406	6	2	antiphase_hc_ios.wav	3	6	5	noise_calib_stim_RIGHT.wav	2	21	blb_dichoticlistening_ka-ga.mp3	ka	ga	1	left
6.6.1	win	2023-07-07	10:39:21	10:53:20	835263	62b4403257f7d42730f83394	2	1	main_z	24	advance_on_keypress_ZEE	128	stimuli_target_rectanglediamonds.svg	stimuli_distractor_trianglediamonds.svg	2	yes	57	0	765	6	2	antiphase_hc_ios.wav	3	6	5	noise_calib_stim_RIGHT.wav	2	21	blb_dichoticlistening_ka-ga.mp3	ka	ga	1	left
6.6.1	win	2023-07-07	10:39:21	10:53:22	837167	62b4403257f7d42730f83394	2	1	main_z	24	main_z	129	stimuli_distractor_trianglediamonds.svg	stimuli_target_squaretriangles.svg	11	yes	44	1	494	6	2	antiphase_hc_ios.wav	3	6	5	noise_calib_stim_RIGHT.wav	2	21	blb_dichoticlistening_ka-ga.mp3	ka	ga	1	left
6.6.1	win	2023-07-07	10:39:21	10:53:22	837167	62b4403257f7d42730f83394	2	1	main_z	24	advance_on_keypress_ZEE	130	stimuli_distractor_trianglediamonds.svg	stimuli_target_squaretriangles.svg	11	yes	57	0	553	6	2	antiphase_hc_ios.wav	3	6	5	noise_calib_stim_RIGHT.wav	2	21	blb_dichoticlistening_ka-ga.mp3	ka	ga	1	left
6.6.1	win	2023-07-07	10:39:21	10:53:25	840357	62b4403257f7d42730f83394	2	1	main_z	24	main_z	131	stimuli_distractor_trianglediamonds.svg	stimuli_target_rectanglediamonds.svg	10	yes	0	0	2000	6	2	antiphase_hc_ios.wav	3	6	5	noise_calib_stim_RIGHT.wav	2	21	blb_dichoticlistening_ka-ga.mp3	ka	ga	1	left
6.6.1	win	2023-07-07	10:39:21	10:53:25	840357	62b4403257f7d42730f83394	2	1	main_z	24	advance_on_keypress_ZEE	132	stimuli_distractor_trianglediamonds.svg	stimuli_target_rectanglediamonds.svg	10	yes	57	0	434	6	2	antiphase_hc_ios.wav	3	6	5	noise_calib_stim_RIGHT.wav	2	21	blb_dichoticlistening_ka-ga.mp3	ka	ga	1	left
6.6.1	win	2023-07-07	10:39:21	10:53:28	843440	62b4403257f7d42730f83394	2	1	main_z	24	main_z	133	stimuli_target_diamondrectangles.svg	stimuli_distractor_diamondtriangles.svg	23	yes	0	0	2000	6	2	antiphase_hc_ios.wav	3	6	5	noise_calib_stim_RIGHT.wav	2	21	blb_dichoticlistening_ka-ga.mp3	ka	ga	1	left
6.6.1	win	2023-07-07	10:39:21	10:53:28	843440	62b4403257f7d42730f83394	2	1	main_z	24	advance_on_keypress_ZEE	134	stimuli_target_diamondrectangles.svg	stimuli_distractor_diamondtriangles.svg	23	yes	57	0	630	6	2	antiphase_hc_ios.wav	3	6	5	noise_calib_stim_RIGHT.wav	2	21	blb_dichoticlistening_ka-ga.mp3	ka	ga	1	left
6.6.1	win	2023-07-07	10:39:21	10:53:30	845808	62b4403257f7d42730f83394	2	1	main_z	24	main_z	135	stimuli_distractor_trianglediamonds.svg	stimuli_distractor_diamondtriangles.svg	35	no	44	0	1085	6	2	antiphase_hc_ios.wav	3	6	5	noise_calib_stim_RIGHT.wav	2	21	blb_dichoticlistening_ka-ga.mp3	ka	ga	1	left
6.6.1	win	2023-07-07	10:39:21	10:53:30	845808	62b4403257f7d42730f83394	2	1	main_z	24	advance_on_keypress_ZEE	136	stimuli_distractor_trianglediamonds.svg	stimuli_distractor_diamondtriangles.svg	35	no	57	0	560	6	2	antiphase_hc_ios.wav	3	6	5	noise_calib_stim_RIGHT.wav	2	21	blb_dichoticlistening_ka-ga.mp3	ka	ga	1	left
6.6.1	win	2023-07-07	10:39:21	10:53:32	847381	62b4403257f7d42730f83394	2	1	main_z	24	main_z	137	stimuli_target_diamondsquares.svg	stimuli_distractor_trianglediamonds.svg	20	yes	44	1	370	6	2	antiphase_hc_ios.wav	3	6	5	noise_calib_stim_RIGHT.wav	2	21	blb_dichoticlistening_ka-ga.mp3	ka	ga	1	left
6.6.1	win	2023-07-07	10:39:21	10:53:32	847381	62b4403257f7d42730f83394	2	1	main_z	24	advance_on_keypress_ZEE	138	stimuli_target_diamondsquares.svg	stimuli_distractor_trianglediamonds.svg	20	yes	57	0	553	6	2	antiphase_hc_ios.wav	3	6	5	noise_calib_stim_RIGHT.wav	2	21	blb_dichoticlistening_ka-ga.mp3	ka	ga	1	left
6.6.1	win	2023-07-07	10:39:21	10:53:33	849063	62b4403257f7d42730f83394	2	1	main_z	24	main_z	139	stimuli_distractor_trianglediamonds.svg	stimuli_target_trianglesquares.svg	26	yes	44	1	490	6	2	antiphase_hc_ios.wav	3	6	5	noise_calib_stim_RIGHT.wav	2	21	blb_dichoticlistening_ka-ga.mp3	ka	ga	1	left
6.6.1	win	2023-07-07	10:39:21	10:53:33	849063	62b4403257f7d42730f83394	2	1	main_z	24	advance_on_keypress_ZEE	140	stimuli_distractor_trianglediamonds.svg	stimuli_target_trianglesquares.svg	26	yes	57	0	510	6	2	antiphase_hc_ios.wav	3	6	5	noise_calib_stim_RIGHT.wav	2	21	blb_dichoticlistening_ka-ga.mp3	ka	ga	1	left
6.6.1	win	2023-07-07	10:39:21	10:53:37	852207	62b4403257f7d42730f83394	2	1	main_z	24	main_z	141	stimuli_target_squarediamonds.svg	stimuli_distractor_diamondtriangles.svg	8	yes	0	0	2000	6	2	antiphase_hc_ios.wav	3	6	5	noise_calib_stim_RIGHT.wav	2	21	blb_dichoticlistening_ka-ga.mp3	ka	ga	1	left
6.6.1	win	2023-07-07	10:39:21	10:53:37	852207	62b4403257f7d42730f83394	2	1	main_z	24	advance_on_keypress_ZEE	142	stimuli_target_squarediamonds.svg	stimuli_distractor_diamondtriangles.svg	8	yes	57	0	512	6	2	antiphase_hc_ios.wav	3	6	5	noise_calib_stim_RIGHT.wav	2	21	blb_dichoticlistening_ka-ga.mp3	ka	ga	1	left
6.6.1	win	2023-07-07	10:39:21	10:53:38	854055	62b4403257f7d42730f83394	2	1	main_z	24	main_z	143	stimuli_distractor_trianglediamonds.svg	stimuli_target_trianglerectangles.svg	25	yes	44	1	682	6	2	antiphase_hc_ios.wav	3	6	5	noise_calib_stim_RIGHT.wav	2	21	blb_dichoticlistening_ka-ga.mp3	ka	ga	1	left
6.6.1	win	2023-07-07	10:39:21	10:53:38	854055	62b4403257f7d42730f83394	2	1	main_z	24	advance_on_keypress_ZEE	144	stimuli_distractor_trianglediamonds.svg	stimuli_target_trianglerectangles.svg	25	yes	57	0	534	6	2	antiphase_hc_ios.wav	3	6	5	noise_calib_stim_RIGHT.wav	2	21	blb_dichoticlistening_ka-ga.mp3	ka	ga	1	left
6.6.1	win	2023-07-07	10:39:21	10:53:40	855687	62b4403257f7d42730f83394	2	1	main_z	24	main_z	145	stimuli_target_trianglesquares.svg	stimuli_distractor_trianglediamonds.svg	18	yes	44	1	447	6	2	antiphase_hc_ios.wav	3	6	5	noise_calib_stim_RIGHT.wav	2	21	blb_dichoticlistening_ka-ga.mp3	ka	ga	1	left
6.6.1	win	2023-07-07	10:39:21	10:53:40	855687	62b4403257f7d42730f83394	2	1	main_z	24	advance_on_keypress_ZEE	146	stimuli_target_trianglesquares.svg	stimuli_distractor_trianglediamonds.svg	18	yes	57	0	565	6	2	antiphase_hc_ios.wav	3	6	5	noise_calib_stim_RIGHT.wav	2	21	blb_dichoticlistening_ka-ga.mp3	ka	ga	1	left
6.6.1	win	2023-07-07	10:39:21	10:53:43	858907	62b4403257f7d42730f83394	2	1	main_z	24	main_z	147	stimuli_target_diamondrectangles.svg	stimuli_distractor_trianglediamonds.svg	19	yes	0	0	2000	6	2	antiphase_hc_ios.wav	3	6	5	noise_calib_stim_RIGHT.wav	2	21	blb_dichoticlistening_ka-ga.mp3	ka	ga	1	left
6.6.1	win	2023-07-07	10:39:21	10:53:43	858907	62b4403257f7d42730f83394	2	1	main_z	24	advance_on_keypress_ZEE	148	stimuli_target_diamondrectangles.svg	stimuli_distractor_trianglediamonds.svg	19	yes	57	0	468	6	2	antiphase_hc_ios.wav	3	6	5	noise_calib_stim_RIGHT.wav	2	21	blb_dichoticlistening_ka-ga.mp3	ka	ga	1	left
6.6.1	win	2023-07-07	10:39:21	10:53:46	862024	62b4403257f7d42730f83394	2	1	main_z	24	main_z	149	stimuli_distractor_diamondtriangles.svg	stimuli_target_squaretriangles.svg	15	yes	0	0	2000	6	2	antiphase_hc_ios.wav	3	6	5	noise_calib_stim_RIGHT.wav	2	21	blb_dichoticlistening_ka-ga.mp3	ka	ga	1	left
6.6.1	win	2023-07-07	10:39:21	10:53:46	862024	62b4403257f7d42730f83394	2	1	main_z	24	advance_on_keypress_ZEE	150	stimuli_distractor_diamondtriangles.svg	stimuli_target_squaretriangles.svg	15	yes	57	0	367	6	2	antiphase_hc_ios.wav	3	6	5	noise_calib_stim_RIGHT.wav	2	21	blb_dichoticlistening_ka-ga.mp3	ka	ga	1	left
6.6.1	win	2023-07-07	10:39:21	10:53:48	863567	62b4403257f7d42730f83394	2	1	main_z	24	main_z	151	stimuli_distractor_trianglediamonds.svg	stimuli_distractor_trianglediamonds.svg	34	no	44	0	527	6	2	antiphase_hc_ios.wav	3	6	5	noise_calib_stim_RIGHT.wav	2	21	blb_dichoticlistening_ka-ga.mp3	ka	ga	1	left
6.6.1	win	2023-07-07	10:39:21	10:53:48	863567	62b4403257f7d42730f83394	2	1	main_z	24	advance_on_keypress_ZEE	152	stimuli_distractor_trianglediamonds.svg	stimuli_distractor_trianglediamonds.svg	34	no	57	0	538	6	2	antiphase_hc_ios.wav	3	6	5	noise_calib_stim_RIGHT.wav	2	21	blb_dichoticlistening_ka-ga.mp3	ka	ga	1	left
6.6.1	win	2023-07-07	10:39:21	10:53:50	865287	62b4403257f7d42730f83394	2	1	main_z	24	main_z	153	stimuli_distractor_trianglediamonds.svg	stimuli_target_squarediamonds.svg	12	yes	44	1	547	6	2	antiphase_hc_ios.wav	3	6	5	noise_calib_stim_RIGHT.wav	2	21	blb_dichoticlistening_ka-ga.mp3	ka	ga	1	left
6.6.1	win	2023-07-07	10:39:21	10:53:50	865287	62b4403257f7d42730f83394	2	1	main_z	24	advance_on_keypress_ZEE	154	stimuli_distractor_trianglediamonds.svg	stimuli_target_squarediamonds.svg	12	yes	57	0	468	6	2	antiphase_hc_ios.wav	3	6	5	noise_calib_stim_RIGHT.wav	2	21	blb_dichoticlistening_ka-ga.mp3	ka	ga	1	left
6.6.1	win	2023-07-07	10:39:21	10:53:51	866991	62b4403257f7d42730f83394	2	1	main_z	24	main_z	155	stimuli_target_diamondsquares.svg	stimuli_distractor_diamondtriangles.svg	24	yes	44	1	584	6	2	antiphase_hc_ios.wav	3	6	5	noise_calib_stim_RIGHT.wav	2	21	blb_dichoticlistening_ka-ga.mp3	ka	ga	1	left
6.6.1	win	2023-07-07	10:39:21	10:53:51	866991	62b4403257f7d42730f83394	2	1	main_z	24	advance_on_keypress_ZEE	156	stimuli_target_diamondsquares.svg	stimuli_distractor_diamondtriangles.svg	24	yes	57	0	520	6	2	antiphase_hc_ios.wav	3	6	5	noise_calib_stim_RIGHT.wav	2	21	blb_dichoticlistening_ka-ga.mp3	ka	ga	1	left
6.6.1	win	2023-07-07	10:39:21	10:53:53	868599	62b4403257f7d42730f83394	2	1	main_z	24	main_z	157	stimuli_target_trianglerectangles.svg	stimuli_distractor_diamondtriangles.svg	21	yes	44	1	442	6	2	antiphase_hc_ios.wav	3	6	5	noise_calib_stim_RIGHT.wav	2	21	blb_dichoticlistening_ka-ga.mp3	ka	ga	1	left
6.6.1	win	2023-07-07	10:39:21	10:53:53	868599	62b4403257f7d42730f83394	2	1	main_z	24	advance_on_keypress_ZEE	158	stimuli_target_trianglerectangles.svg	stimuli_distractor_diamondtriangles.svg	21	yes	57	0	520	6	2	antiphase_hc_ios.wav	3	6	5	noise_calib_stim_RIGHT.wav	2	21	blb_dichoticlistening_ka-ga.mp3	ka	ga	1	left
6.6.1	win	2023-07-07	10:39:21	10:53:56	871757	62b4403257f7d42730f83394	2	1	main_z	24	main_z	159	stimuli_distractor_diamondtriangles.svg	stimuli_target_diamondrectangles.svg	31	yes	0	0	2000	6	2	antiphase_hc_ios.wav	3	6	5	noise_calib_stim_RIGHT.wav	2	21	blb_dichoticlistening_ka-ga.mp3	ka	ga	1	left
6.6.1	win	2023-07-07	10:39:21	10:53:56	871757	62b4403257f7d42730f83394	2	1	main_z	24	advance_on_keypress_ZEE	160	stimuli_distractor_diamondtriangles.svg	stimuli_target_diamondrectangles.svg	31	yes	57	0	802	6	2	antiphase_hc_ios.wav	3	6	5	noise_calib_stim_RIGHT.wav	2	21	blb_dichoticlistening_ka-ga.mp3	ka	ga	1	left
6.6.1	win	2023-07-07	10:39:21	10:56:12	1007427	62b4403257f7d42730f83394	2	1	practice_slash	26	practice_slash	1	stimuli_distractor_diamondtriangles.svg	stimuli_distractor_trianglediamonds.svg	14	no	0	1	2000	6	2	antiphase_hc_ios.wav	3	6	5	noise_calib_stim_RIGHT.wav	2	21	blb_dichoticlistening_ka-ga.mp3	ka	ga	1	left
6.6.1	win	2023-07-07	10:39:21	10:56:12	1007427	62b4403257f7d42730f83394	2	1	practice_slash	26	advance_on_keypress_SLASH	2	stimuli_distractor_diamondtriangles.svg	stimuli_distractor_trianglediamonds.svg	14	no	57	0	879	6	2	antiphase_hc_ios.wav	3	6	5	noise_calib_stim_RIGHT.wav	2	21	blb_dichoticlistening_ka-ga.mp3	ka	ga	1	left
6.6.1	win	2023-07-07	10:39:21	10:56:15	1010561	62b4403257f7d42730f83394	2	1	practice_slash	26	practice_slash	3	stimuli_target_squarediamonds.svg	stimuli_distractor_diamondtriangles.svg	2	yes	53	1	602	6	2	antiphase_hc_ios.wav	3	6	5	noise_calib_stim_RIGHT.wav	2	21	blb_dichoticlistening_ka-ga.mp3	ka	ga	1	left
6.6.1	win	2023-07-07	10:39:21	10:56:15	1010561	62b4403257f7d42730f83394	2	1	practice_slash	26	advance_on_keypress_SLASH	4	stimuli_target_squarediamonds.svg	stimuli_distractor_diamondtriangles.svg	2	yes	57	0	1730	6	2	antiphase_hc_ios.wav	3	6	5	noise_calib_stim_RIGHT.wav	2	21	blb_dichoticlistening_ka-ga.mp3	ka	ga	1	left
6.6.1	win	2023-07-07	10:39:21	10:56:19	1014394	62b4403257f7d42730f83394	2	1	practice_slash	26	practice_slash	5	stimuli_target_diamondsquares.svg	stimuli_distractor_diamondtriangles.svg	3	yes	53	1	451	6	2	antiphase_hc_ios.wav	3	6	5	noise_calib_stim_RIGHT.wav	2	21	blb_dichoticlistening_ka-ga.mp3	ka	ga	1	left
6.6.1	win	2023-07-07	10:39:21	10:56:19	1014394	62b4403257f7d42730f83394	2	1	practice_slash	26	advance_on_keypress_SLASH	6	stimuli_target_diamondsquares.svg	stimuli_distractor_diamondtriangles.svg	3	yes	57	0	528	6	2	antiphase_hc_ios.wav	3	6	5	noise_calib_stim_RIGHT.wav	2	21	blb_dichoticlistening_ka-ga.mp3	ka	ga	1	left
6.6.1	win	2023-07-07	10:39:21	10:56:21	1017042	62b4403257f7d42730f83394	2	1	practice_slash	26	practice_slash	7	stimuli_target_rectanglediamonds.svg	stimuli_distractor_diamondtriangles.svg	1	yes	53	1	465	6	2	antiphase_hc_ios.wav	3	6	5	noise_calib_stim_RIGHT.wav	2	21	blb_dichoticlistening_ka-ga.mp3	ka	ga	1	left
6.6.1	win	2023-07-07	10:39:21	10:56:21	1017042	62b4403257f7d42730f83394	2	1	practice_slash	26	advance_on_keypress_SLASH	8	stimuli_target_rectanglediamonds.svg	stimuli_distractor_diamondtriangles.svg	1	yes	57	0	462	6	2	antiphase_hc_ios.wav	3	6	5	noise_calib_stim_RIGHT.wav	2	21	blb_dichoticlistening_ka-ga.mp3	ka	ga	1	left
6.6.1	win	2023-07-07	10:39:21	10:56:26	1021160	62b4403257f7d42730f83394	2	1	practice_slash	26	practice_slash	9	stimuli_distractor_diamondtriangles.svg	stimuli_target_diamondrectangles.svg	8	yes	0	0	2000	6	2	antiphase_hc_ios.wav	3	6	5	noise_calib_stim_RIGHT.wav	2	21	blb_dichoticlistening_ka-ga.mp3	ka	ga	1	left
6.6.1	win	2023-07-07	10:39:21	10:56:26	1021160	62b4403257f7d42730f83394	2	1	practice_slash	26	advance_on_keypress_SLASH	10	stimuli_distractor_diamondtriangles.svg	stimuli_target_diamondrectangles.svg	8	yes	57	0	522	6	2	antiphase_hc_ios.wav	3	6	5	noise_calib_stim_RIGHT.wav	2	21	blb_dichoticlistening_ka-ga.mp3	ka	ga	1	left
6.6.1	win	2023-07-07	10:39:21	10:56:28	1023930	62b4403257f7d42730f83394	2	1	practice_slash	26	practice_slash	11	stimuli_distractor_trianglediamonds.svg	stimuli_target_squarediamonds.svg	11	yes	53	1	603	6	2	antiphase_hc_ios.wav	3	6	5	noise_calib_stim_RIGHT.wav	2	21	blb_dichoticlistening_ka-ga.mp3	ka	ga	1	left
6.6.1	win	2023-07-07	10:39:21	10:56:28	1023930	62b4403257f7d42730f83394	2	1	practice_slash	26	advance_on_keypress_SLASH	12	stimuli_distractor_trianglediamonds.svg	stimuli_target_squarediamonds.svg	11	yes	57	0	443	6	2	antiphase_hc_ios.wav	3	6	5	noise_calib_stim_RIGHT.wav	2	21	blb_dichoticlistening_ka-ga.mp3	ka	ga	1	left
6.6.1	win	2023-07-07	10:39:21	10:56:31	1026570	62b4403257f7d42730f83394	2	1	practice_slash	26	practice_slash	13	stimuli_distractor_diamondtriangles.svg	stimuli_target_rectangletriangles.svg	7	yes	53	1	544	6	2	antiphase_hc_ios.wav	3	6	5	noise_calib_stim_RIGHT.wav	2	21	blb_dichoticlistening_ka-ga.mp3	ka	ga	1	left
6.6.1	win	2023-07-07	10:39:21	10:56:31	1026570	62b4403257f7d42730f83394	2	1	practice_slash	26	advance_on_keypress_SLASH	14	stimuli_distractor_diamondtriangles.svg	stimuli_target_rectangletriangles.svg	7	yes	57	0	705	6	2	antiphase_hc_ios.wav	3	6	5	noise_calib_stim_RIGHT.wav	2	21	blb_dichoticlistening_ka-ga.mp3	ka	ga	1	left
6.6.1	win	2023-07-07	10:39:21	10:56:34	1029370	62b4403257f7d42730f83394	2	1	practice_slash	26	practice_slash	15	stimuli_target_squarediamonds.svg	stimuli_distractor_trianglediamonds.svg	5	yes	53	1	443	6	2	antiphase_hc_ios.wav	3	6	5	noise_calib_stim_RIGHT.wav	2	21	blb_dichoticlistening_ka-ga.mp3	ka	ga	1	left
6.6.1	win	2023-07-07	10:39:21	10:56:34	1029370	62b4403257f7d42730f83394	2	1	practice_slash	26	advance_on_keypress_SLASH	16	stimuli_target_squarediamonds.svg	stimuli_distractor_trianglediamonds.svg	5	yes	57	0	457	6	2	antiphase_hc_ios.wav	3	6	5	noise_calib_stim_RIGHT.wav	2	21	blb_dichoticlistening_ka-ga.mp3	ka	ga	1	left
6.6.1	win	2023-07-07	10:39:21	10:56:38	1033476	62b4403257f7d42730f83394	2	1	practice_slash	26	practice_slash	17	stimuli_distractor_trianglediamonds.svg	stimuli_distractor_diamondtriangles.svg	16	no	0	1	2000	6	2	antiphase_hc_ios.wav	3	6	5	noise_calib_stim_RIGHT.wav	2	21	blb_dichoticlistening_ka-ga.mp3	ka	ga	1	left
6.6.1	win	2023-07-07	10:39:21	10:56:38	1033476	62b4403257f7d42730f83394	2	1	practice_slash	26	advance_on_keypress_SLASH	18	stimuli_distractor_trianglediamonds.svg	stimuli_distractor_diamondtriangles.svg	16	no	57	0	469	6	2	antiphase_hc_ios.wav	3	6	5	noise_calib_stim_RIGHT.wav	2	21	blb_dichoticlistening_ka-ga.mp3	ka	ga	1	left
