build	computer.platform	date	time	timestamp	time_elapsed_ms	subject	group	session	blockcode	blocknum	trialcode	trialnum	stimulus_left	stimulus_right	stim_index	target_present	response	correct	latency	headphonecheck_countTestTrials	headphonecheck_index	headphonecheck_testSound	headphonecheck_correctResponse	stereocheck_countTestTrials	stereocheck_index	stereocheck_testSound	stereocheck_correctResponse	DL_index	DL_soundfile	DL_leftSound	DL_rightSound	DL_dualSound	DL_choice
6.6.1	win	2023-06-13	20:10:30	0	0	62e185484154c451882a8a3d	2	1	headphonecheck_calibration	4	headphonecheck_calibrationIntro	1			0		calibrationButton	0	1438	0	0			0	0			1				0	
6.6.1	win	2023-06-13	20:10:30	0	0	62e185484154c451882a8a3d	2	1	headphonecheck_testphase	5	test_collectResponse	3			0		first	1	403	1	4	antiphase_hc_sio.wav	1	0	0			1				0	
6.6.1	win	2023-06-13	20:10:30	0	0	62e185484154c451882a8a3d	2	1	headphonecheck_testphase	5	test_collectResponse	6			0		third	0	140	2	1	antiphase_hc_iso.wav	2	0	0			1				0	
6.6.1	win	2023-06-13	20:10:30	0	0	62e185484154c451882a8a3d	2	1	headphonecheck_testphase	5	test_collectResponse	9			0		first	0	116	3	2	antiphase_hc_ios.wav	3	0	0			1				0	
6.6.1	win	2023-06-13	20:10:30	0	0	62e185484154c451882a8a3d	2	1	headphonecheck_testphase	5	test_collectResponse	12			0		second	1	342	4	5	antiphase_hc_osi.wav	2	0	0			1				0	
6.6.1	win	2023-06-13	20:10:30	0	0	62e185484154c451882a8a3d	2	1	headphonecheck_testphase	5	test_collectResponse	15			0		second	0	18	5	6	antiphase_hc_ois.wav	3	0	0			1				0	
6.6.1	win	2023-06-13	20:10:30	0	0	62e185484154c451882a8a3d	2	1	headphonecheck_testphase	5	test_collectResponse	18			0		third	0	472	6	3	antiphase_hc_soi.wav	1	0	0			1				0	
6.6.1	win	2023-06-13	20:10:30	0	0	62e185484154c451882a8a3d	2	1	stereocheck_calibration	7	stereocheck_calibrationIntro	1			0		stereocheck_calibrationButton	0	855	6	3	antiphase_hc_soi.wav	1	0	0			1				0	
6.6.1	win	2023-06-13	20:10:30	0	0	62e185484154c451882a8a3d	2	1	stereocheck_testphase	8	stereocheck_test_collectResponse	3			0		stereocheck_left	0	203	6	3	antiphase_hc_soi.wav	1	1	5	noise_calib_stim_RIGHT.wav	2	1				0	
6.6.1	win	2023-06-13	20:10:30	0	0	62e185484154c451882a8a3d	2	1	stereocheck_testphase	8	stereocheck_test_collectResponse	6			0		stereocheck_right	0	17	6	3	antiphase_hc_soi.wav	1	2	1	noise_calib_stim_LEFT.wav	1	1				0	
6.6.1	win	2023-06-13	20:10:30	0	0	62e185484154c451882a8a3d	2	1	stereocheck_testphase	8	stereocheck_test_collectResponse	9			0		stereocheck_left	0	381	6	3	antiphase_hc_soi.wav	1	3	4	noise_calib_stim_RIGHT.wav	2	1				0	
6.6.1	win	2023-06-13	20:10:30	0	0	62e185484154c451882a8a3d	2	1	stereocheck_testphase	8	stereocheck_test_collectResponse	12			0		stereocheck_right	0	206	6	3	antiphase_hc_soi.wav	1	4	3	noise_calib_stim_LEFT.wav	1	1				0	
6.6.1	win	2023-06-13	20:10:30	0	0	62e185484154c451882a8a3d	2	1	stereocheck_testphase	8	stereocheck_test_collectResponse	15			0		stereocheck_left	0	192	6	3	antiphase_hc_soi.wav	1	5	6	noise_calib_stim_RIGHT.wav	2	1				0	
6.6.1	win	2023-06-13	20:10:30	0	0	62e185484154c451882a8a3d	2	1	stereocheck_testphase	8	stereocheck_test_collectResponse	18			0		stereocheck_right	0	124	6	3	antiphase_hc_soi.wav	1	6	2	noise_calib_stim_LEFT.wav	1	1				0	
6.6.1	win	2023-06-13	20:10:30	0	0	62e185484154c451882a8a3d	2	1	DL_practice	11	DL_practice	2			0		ka	0	1857	6	3	antiphase_hc_soi.wav	1	6	2	noise_calib_stim_LEFT.wav	1	36	blb_dichoticlistening_ta-ta.mp3	ta	ta	0	other
6.6.1	win	2023-06-13	20:10:30	0	0	62e185484154c451882a8a3d	2	1	DL_practice	11	DL_practice	3			0		da	1	854	6	3	antiphase_hc_soi.wav	1	6	2	noise_calib_stim_LEFT.wav	1	8	blb_dichoticlistening_da-da.mp3	da	da	0	left
6.6.1	win	2023-06-13	20:10:30	0	0	62e185484154c451882a8a3d	2	1	DL_practice	11	DL_practice	4			0		ga	1	1081	6	3	antiphase_hc_soi.wav	1	6	2	noise_calib_stim_LEFT.wav	1	18	blb_dichoticlistening_ga-ta.mp3	ga	ta	1	left
6.6.1	win	2023-06-13	20:10:30	0	0	62e185484154c451882a8a3d	2	1	DL_practice	11	DL_practice	5			0		ka	1	699	6	3	antiphase_hc_soi.wav	1	6	2	noise_calib_stim_LEFT.wav	1	22	blb_dichoticlistening_ka-ka.mp3	ka	ka	0	left
6.6.1	win	2023-06-13	20:10:30	0	0	62e185484154c451882a8a3d	2	1	DL_practice	11	DL_practice	6			0		ba	1	1647	6	3	antiphase_hc_soi.wav	1	6	2	noise_calib_stim_LEFT.wav	1	1	blb_dichoticlistening_ba-ba.mp3	ba	ba	0	left
6.6.1	win	2023-06-13	20:10:30	0	0	62e185484154c451882a8a3d	2	1	DL_practice	11	DL_practice	7			0		ga	1	1492	6	3	antiphase_hc_soi.wav	1	6	2	noise_calib_stim_LEFT.wav	1	15	blb_dichoticlistening_ga-ga.mp3	ga	ga	0	left
6.6.1	win	2023-06-13	20:10:30	0	0	62e185484154c451882a8a3d	2	1	DL_practice	11	DL_practice	8			0		pa	1	1327	6	3	antiphase_hc_soi.wav	1	6	2	noise_calib_stim_LEFT.wav	1	29	blb_dichoticlistening_pa-pa.mp3	pa	pa	0	left
6.6.1	win	2023-06-13	20:10:30	0	0	62e185484154c451882a8a3d	2	1	DL_practice	11	DL_practice	9			0		ta	0	920	6	3	antiphase_hc_soi.wav	1	6	2	noise_calib_stim_LEFT.wav	1	23	blb_dichoticlistening_ka-pa.mp3	ka	pa	1	other
6.6.1	win	2023-06-13	20:10:30	0	0	62e185484154c451882a8a3d	2	1	DL_practice	11	DL_practice	10			0		da	1	1153	6	3	antiphase_hc_soi.wav	1	6	2	noise_calib_stim_LEFT.wav	1	7	blb_dichoticlistening_da-ba.mp3	da	ba	1	left
6.6.1	win	2023-06-13	20:10:30	0	0	62e185484154c451882a8a3d	2	1	DL_test	13	DL_test	1			0		pa	0	1989	6	3	antiphase_hc_soi.wav	1	6	2	noise_calib_stim_LEFT.wav	1	10	blb_dichoticlistening_da-ka.mp3	da	ka	1	other
6.6.1	win	2023-06-13	20:10:30	0	0	62e185484154c451882a8a3d	2	1	DL_test	13	DL_test	2			0		pa	1	3722	6	3	antiphase_hc_soi.wav	1	6	2	noise_calib_stim_LEFT.wav	1	26	blb_dichoticlistening_pa-da.mp3	pa	da	1	left
6.6.1	win	2023-06-13	20:10:30	0	0	62e185484154c451882a8a3d	2	1	DL_test	13	DL_test	3			0		pa	1	789	6	3	antiphase_hc_soi.wav	1	6	2	noise_calib_stim_LEFT.wav	1	30	blb_dichoticlistening_pa-ta.mp3	pa	ta	1	left
6.6.1	win	2023-06-13	20:10:30	0	0	62e185484154c451882a8a3d	2	1	DL_test	13	DL_test	4			0		ka	0	1026	6	3	antiphase_hc_soi.wav	1	6	2	noise_calib_stim_LEFT.wav	1	36	blb_dichoticlistening_ta-ta.mp3	ta	ta	0	other
6.6.1	win	2023-06-13	20:10:30	0	0	62e185484154c451882a8a3d	2	1	DL_test	13	DL_test	5			0		da	0	832	6	3	antiphase_hc_soi.wav	1	6	2	noise_calib_stim_LEFT.wav	1	1	blb_dichoticlistening_ba-ba.mp3	ba	ba	0	other
6.6.1	win	2023-06-13	20:10:30	0	0	62e185484154c451882a8a3d	2	1	DL_test	13	DL_test	6			0		da	0	677	6	3	antiphase_hc_soi.wav	1	6	2	noise_calib_stim_LEFT.wav	1	18	blb_dichoticlistening_ga-ta.mp3	ga	ta	1	other
6.6.1	win	2023-06-13	20:10:30	0	0	62e185484154c451882a8a3d	2	1	DL_test	13	DL_test	7			0		ta	1	1378	6	3	antiphase_hc_soi.wav	1	6	2	noise_calib_stim_LEFT.wav	1	31	blb_dichoticlistening_ta-ba.mp3	ta	ba	1	left
6.6.1	win	2023-06-13	20:10:30	0	0	62e185484154c451882a8a3d	2	1	DL_test	13	DL_test	8			0		ka	1	1178	6	3	antiphase_hc_soi.wav	1	6	2	noise_calib_stim_LEFT.wav	1	19	blb_dichoticlistening_ka-ba.mp3	ka	ba	1	left
6.6.1	win	2023-06-13	20:10:30	0	0	62e185484154c451882a8a3d	2	1	DL_test	13	DL_test	9			0		ga	1	1538	6	3	antiphase_hc_soi.wav	1	6	2	noise_calib_stim_LEFT.wav	1	13	blb_dichoticlistening_ga-ba.mp3	ga	ba	1	left
6.6.1	win	2023-06-13	20:10:30	0	0	62e185484154c451882a8a3d	2	1	DL_test	13	DL_test	10			0		pa	0	1755	6	3	antiphase_hc_soi.wav	1	6	2	noise_calib_stim_LEFT.wav	1	4	blb_dichoticlistening_ba-ka.mp3	ba	ka	1	other
6.6.1	win	2023-06-13	20:10:30	0	0	62e185484154c451882a8a3d	2	1	DL_test	13	DL_test	11			0		pa	1	575	6	3	antiphase_hc_soi.wav	1	6	2	noise_calib_stim_LEFT.wav	1	28	blb_dichoticlistening_pa-ka.mp3	pa	ka	1	left
6.6.1	win	2023-06-13	20:10:30	0	0	62e185484154c451882a8a3d	2	1	DL_test	13	DL_test	12			0		pa	1	467	6	3	antiphase_hc_soi.wav	1	6	2	noise_calib_stim_LEFT.wav	1	35	blb_dichoticlistening_ta-pa.mp3	ta	pa	1	right
6.6.1	win	2023-06-13	20:10:30	0	0	62e185484154c451882a8a3d	2	1	DL_test	13	DL_test	13			0		ka	1	648	6	3	antiphase_hc_soi.wav	1	6	2	noise_calib_stim_LEFT.wav	1	22	blb_dichoticlistening_ka-ka.mp3	ka	ka	0	left
6.6.1	win	2023-06-13	20:10:30	0	0	62e185484154c451882a8a3d	2	1	DL_test	13	DL_test	14			0		ga	1	772	6	3	antiphase_hc_soi.wav	1	6	2	noise_calib_stim_LEFT.wav	1	9	blb_dichoticlistening_da-ga.mp3	da	ga	1	right
6.6.1	win	2023-06-13	20:10:30	0	0	62e185484154c451882a8a3d	2	1	DL_test	13	DL_test	15			0		ga	0	780	6	3	antiphase_hc_soi.wav	1	6	2	noise_calib_stim_LEFT.wav	1	2	blb_dichoticlistening_ba-da.mp3	ba	da	1	other
6.6.1	win	2023-06-13	20:10:30	0	0	62e185484154c451882a8a3d	2	1	DL_test	13	DL_test	16			0		ka	1	1220	6	3	antiphase_hc_soi.wav	1	6	2	noise_calib_stim_LEFT.wav	1	20	blb_dichoticlistening_ka-da.mp3	ka	da	1	left
6.6.1	win	2023-06-13	20:10:30	0	0	62e185484154c451882a8a3d	2	1	DL_test	13	DL_test	17			0		pa	1	818	6	3	antiphase_hc_soi.wav	1	6	2	noise_calib_stim_LEFT.wav	1	29	blb_dichoticlistening_pa-pa.mp3	pa	pa	0	left
6.6.1	win	2023-06-13	20:10:30	0	0	62e185484154c451882a8a3d	2	1	DL_test	13	DL_test	18			0		ga	0	888	6	3	antiphase_hc_soi.wav	1	6	2	noise_calib_stim_LEFT.wav	1	6	blb_dichoticlistening_ba-ta.mp3	ba	ta	1	other
6.6.1	win	2023-06-13	20:10:30	0	0	62e185484154c451882a8a3d	2	1	DL_test	13	DL_test	19			0		ka	1	2098	6	3	antiphase_hc_soi.wav	1	6	2	noise_calib_stim_LEFT.wav	1	24	blb_dichoticlistening_ka-ta.mp3	ka	ta	1	left
6.6.1	win	2023-06-13	20:10:30	0	0	62e185484154c451882a8a3d	2	1	DL_test	13	DL_test	20			0		ga	1	812	6	3	antiphase_hc_soi.wav	1	6	2	noise_calib_stim_LEFT.wav	1	17	blb_dichoticlistening_ga-pa.mp3	ga	pa	1	left
6.6.1	win	2023-06-13	20:10:30	0	0	62e185484154c451882a8a3d	2	1	DL_test	13	DL_test	21			0		ka	1	818	6	3	antiphase_hc_soi.wav	1	6	2	noise_calib_stim_LEFT.wav	1	23	blb_dichoticlistening_ka-pa.mp3	ka	pa	1	left
6.6.1	win	2023-06-13	20:10:30	0	0	62e185484154c451882a8a3d	2	1	DL_test	13	DL_test	22			0		ga	1	816	6	3	antiphase_hc_soi.wav	1	6	2	noise_calib_stim_LEFT.wav	1	3	blb_dichoticlistening_ba-ga.mp3	ba	ga	1	right
6.6.1	win	2023-06-13	20:10:30	0	0	62e185484154c451882a8a3d	2	1	DL_test	13	DL_test	23			0		ga	1	866	6	3	antiphase_hc_soi.wav	1	6	2	noise_calib_stim_LEFT.wav	1	15	blb_dichoticlistening_ga-ga.mp3	ga	ga	0	left
6.6.1	win	2023-06-13	20:10:30	0	0	62e185484154c451882a8a3d	2	1	DL_test	13	DL_test	24			0		ga	1	617	6	3	antiphase_hc_soi.wav	1	6	2	noise_calib_stim_LEFT.wav	1	14	blb_dichoticlistening_ga-da.mp3	ga	da	1	left
6.6.1	win	2023-06-13	20:10:30	0	0	62e185484154c451882a8a3d	2	1	DL_test	13	DL_test	25			0		ta	1	1575	6	3	antiphase_hc_soi.wav	1	6	2	noise_calib_stim_LEFT.wav	1	12	blb_dichoticlistening_da-ta.mp3	da	ta	1	right
6.6.1	win	2023-06-13	20:10:30	0	0	62e185484154c451882a8a3d	2	1	DL_test	13	DL_test	26			0		ka	0	823	6	3	antiphase_hc_soi.wav	1	6	2	noise_calib_stim_LEFT.wav	1	11	blb_dichoticlistening_da-pa.mp3	da	pa	1	other
6.6.1	win	2023-06-13	20:10:30	0	0	62e185484154c451882a8a3d	2	1	DL_test	13	DL_test	27			0		pa	1	997	6	3	antiphase_hc_soi.wav	1	6	2	noise_calib_stim_LEFT.wav	1	25	blb_dichoticlistening_pa-ba.mp3	pa	ba	1	left
6.6.1	win	2023-06-13	20:10:30	0	0	62e185484154c451882a8a3d	2	1	DL_test	13	DL_test	28			0		ka	0	1340	6	3	antiphase_hc_soi.wav	1	6	2	noise_calib_stim_LEFT.wav	1	33	blb_dichoticlistening_ta-ga.mp3	ta	ga	1	other
6.6.1	win	2023-06-13	20:10:30	0	0	62e185484154c451882a8a3d	2	1	DL_test	13	DL_test	29			0		ga	0	476	6	3	antiphase_hc_soi.wav	1	6	2	noise_calib_stim_LEFT.wav	1	8	blb_dichoticlistening_da-da.mp3	da	da	0	other
6.6.1	win	2023-06-13	20:10:30	0	0	62e185484154c451882a8a3d	2	1	DL_test	13	DL_test	30			0		ga	1	1824	6	3	antiphase_hc_soi.wav	1	6	2	noise_calib_stim_LEFT.wav	1	16	blb_dichoticlistening_ga-ka.mp3	ga	ka	1	left
6.6.1	win	2023-06-13	20:10:30	0	0	62e185484154c451882a8a3d	2	1	DL_test	13	DL_test	31			0		pa	1	710	6	3	antiphase_hc_soi.wav	1	6	2	noise_calib_stim_LEFT.wav	1	5	blb_dichoticlistening_ba-pa.mp3	ba	pa	1	right
6.6.1	win	2023-06-13	20:10:30	0	0	62e185484154c451882a8a3d	2	1	DL_test	13	DL_test	32			0		ka	1	721	6	3	antiphase_hc_soi.wav	1	6	2	noise_calib_stim_LEFT.wav	1	21	blb_dichoticlistening_ka-ga.mp3	ka	ga	1	left
6.6.1	win	2023-06-13	20:10:30	0	0	62e185484154c451882a8a3d	2	1	DL_test	13	DL_test	33			0		ka	1	563	6	3	antiphase_hc_soi.wav	1	6	2	noise_calib_stim_LEFT.wav	1	34	blb_dichoticlistening_ta-ka.mp3	ta	ka	1	right
6.6.1	win	2023-06-13	20:10:30	0	0	62e185484154c451882a8a3d	2	1	DL_test	13	DL_test	34			0		ga	0	1075	6	3	antiphase_hc_soi.wav	1	6	2	noise_calib_stim_LEFT.wav	1	7	blb_dichoticlistening_da-ba.mp3	da	ba	1	other
6.6.1	win	2023-06-13	20:10:30	0	0	62e185484154c451882a8a3d	2	1	DL_test	13	DL_test	35			0		pa	1	1231	6	3	antiphase_hc_soi.wav	1	6	2	noise_calib_stim_LEFT.wav	1	27	blb_dichoticlistening_pa-ga.mp3	pa	ga	1	left
6.6.1	win	2023-06-13	20:10:30	0	0	62e185484154c451882a8a3d	2	1	DL_test	13	DL_test	36			0		ka	0	1637	6	3	antiphase_hc_soi.wav	1	6	2	noise_calib_stim_LEFT.wav	1	32	blb_dichoticlistening_ta-da.mp3	ta	da	1	other
6.6.1	win	2023-06-13	20:10:30	0	0	62e185484154c451882a8a3d	2	1	DL_test	14	DL_test	1			0		ka	0	755	6	3	antiphase_hc_soi.wav	1	6	2	noise_calib_stim_LEFT.wav	1	6	blb_dichoticlistening_ba-ta.mp3	ba	ta	1	other
6.6.1	win	2023-06-13	20:10:30	0	0	62e185484154c451882a8a3d	2	1	DL_test	14	DL_test	2			0		ga	1	563	6	3	antiphase_hc_soi.wav	1	6	2	noise_calib_stim_LEFT.wav	1	16	blb_dichoticlistening_ga-ka.mp3	ga	ka	1	left
6.6.1	win	2023-06-13	20:10:30	0	0	62e185484154c451882a8a3d	2	1	DL_test	14	DL_test	3			0		ga	0	580	6	3	antiphase_hc_soi.wav	1	6	2	noise_calib_stim_LEFT.wav	1	7	blb_dichoticlistening_da-ba.mp3	da	ba	1	other
6.6.1	win	2023-06-13	20:10:30	0	0	62e185484154c451882a8a3d	2	1	DL_test	14	DL_test	4			0		ga	1	724	6	3	antiphase_hc_soi.wav	1	6	2	noise_calib_stim_LEFT.wav	1	14	blb_dichoticlistening_ga-da.mp3	ga	da	1	left
6.6.1	win	2023-06-13	20:10:30	0	0	62e185484154c451882a8a3d	2	1	DL_test	14	DL_test	5			0		ka	1	997	6	3	antiphase_hc_soi.wav	1	6	2	noise_calib_stim_LEFT.wav	1	23	blb_dichoticlistening_ka-pa.mp3	ka	pa	1	left
6.6.1	win	2023-06-13	20:10:30	0	0	62e185484154c451882a8a3d	2	1	DL_test	14	DL_test	6			0		ka	1	748	6	3	antiphase_hc_soi.wav	1	6	2	noise_calib_stim_LEFT.wav	1	10	blb_dichoticlistening_da-ka.mp3	da	ka	1	right
6.6.1	win	2023-06-13	20:10:30	0	0	62e185484154c451882a8a3d	2	1	DL_test	14	DL_test	7			0		ka	1	789	6	3	antiphase_hc_soi.wav	1	6	2	noise_calib_stim_LEFT.wav	1	22	blb_dichoticlistening_ka-ka.mp3	ka	ka	0	left
6.6.1	win	2023-06-13	20:10:30	0	0	62e185484154c451882a8a3d	2	1	DL_test	14	DL_test	8			0		ta	1	1044	6	3	antiphase_hc_soi.wav	1	6	2	noise_calib_stim_LEFT.wav	1	36	blb_dichoticlistening_ta-ta.mp3	ta	ta	0	left
6.6.1	win	2023-06-13	20:10:30	0	0	62e185484154c451882a8a3d	2	1	DL_test	14	DL_test	9			0		ta	1	593	6	3	antiphase_hc_soi.wav	1	6	2	noise_calib_stim_LEFT.wav	1	35	blb_dichoticlistening_ta-pa.mp3	ta	pa	1	left
6.6.1	win	2023-06-13	20:10:30	0	0	62e185484154c451882a8a3d	2	1	DL_test	14	DL_test	10			0		pa	1	720	6	3	antiphase_hc_soi.wav	1	6	2	noise_calib_stim_LEFT.wav	1	29	blb_dichoticlistening_pa-pa.mp3	pa	pa	0	left
6.6.1	win	2023-06-13	20:10:30	0	0	62e185484154c451882a8a3d	2	1	DL_test	14	DL_test	11			0		ka	1	978	6	3	antiphase_hc_soi.wav	1	6	2	noise_calib_stim_LEFT.wav	1	20	blb_dichoticlistening_ka-da.mp3	ka	da	1	left
6.6.1	win	2023-06-13	20:10:30	0	0	62e185484154c451882a8a3d	2	1	DL_test	14	DL_test	12			0		ga	1	794	6	3	antiphase_hc_soi.wav	1	6	2	noise_calib_stim_LEFT.wav	1	3	blb_dichoticlistening_ba-ga.mp3	ba	ga	1	right
6.6.1	win	2023-06-13	20:10:30	0	0	62e185484154c451882a8a3d	2	1	DL_test	14	DL_test	13			0		ga	1	873	6	3	antiphase_hc_soi.wav	1	6	2	noise_calib_stim_LEFT.wav	1	33	blb_dichoticlistening_ta-ga.mp3	ta	ga	1	right
6.6.1	win	2023-06-13	20:10:30	0	0	62e185484154c451882a8a3d	2	1	DL_test	14	DL_test	14			0		ka	1	708	6	3	antiphase_hc_soi.wav	1	6	2	noise_calib_stim_LEFT.wav	1	21	blb_dichoticlistening_ka-ga.mp3	ka	ga	1	left
6.6.1	win	2023-06-13	20:10:30	0	0	62e185484154c451882a8a3d	2	1	DL_test	14	DL_test	15			0		pa	1	849	6	3	antiphase_hc_soi.wav	1	6	2	noise_calib_stim_LEFT.wav	1	30	blb_dichoticlistening_pa-ta.mp3	pa	ta	1	left
6.6.1	win	2023-06-13	20:10:30	0	0	62e185484154c451882a8a3d	2	1	DL_test	14	DL_test	16			0		pa	1	571	6	3	antiphase_hc_soi.wav	1	6	2	noise_calib_stim_LEFT.wav	1	5	blb_dichoticlistening_ba-pa.mp3	ba	pa	1	right
6.6.1	win	2023-06-13	20:10:30	0	0	62e185484154c451882a8a3d	2	1	DL_test	14	DL_test	17			0		ta	0	612	6	3	antiphase_hc_soi.wav	1	6	2	noise_calib_stim_LEFT.wav	1	28	blb_dichoticlistening_pa-ka.mp3	pa	ka	1	other
6.6.1	win	2023-06-13	20:10:30	0	0	62e185484154c451882a8a3d	2	1	DL_test	14	DL_test	18			0		pa	0	570	6	3	antiphase_hc_soi.wav	1	6	2	noise_calib_stim_LEFT.wav	1	18	blb_dichoticlistening_ga-ta.mp3	ga	ta	1	other
6.6.1	win	2023-06-13	20:10:30	0	0	62e185484154c451882a8a3d	2	1	DL_test	14	DL_test	19			0		ga	1	1170	6	3	antiphase_hc_soi.wav	1	6	2	noise_calib_stim_LEFT.wav	1	15	blb_dichoticlistening_ga-ga.mp3	ga	ga	0	left
6.6.1	win	2023-06-13	20:10:30	0	0	62e185484154c451882a8a3d	2	1	DL_test	14	DL_test	20			0		ka	1	714	6	3	antiphase_hc_soi.wav	1	6	2	noise_calib_stim_LEFT.wav	1	34	blb_dichoticlistening_ta-ka.mp3	ta	ka	1	right
6.6.1	win	2023-06-13	20:10:30	0	0	62e185484154c451882a8a3d	2	1	DL_test	14	DL_test	21			0		pa	0	788	6	3	antiphase_hc_soi.wav	1	6	2	noise_calib_stim_LEFT.wav	1	1	blb_dichoticlistening_ba-ba.mp3	ba	ba	0	other
6.6.1	win	2023-06-13	20:10:30	0	0	62e185484154c451882a8a3d	2	1	DL_test	14	DL_test	22			0		ka	1	1090	6	3	antiphase_hc_soi.wav	1	6	2	noise_calib_stim_LEFT.wav	1	24	blb_dichoticlistening_ka-ta.mp3	ka	ta	1	left
6.6.1	win	2023-06-13	20:10:30	0	0	62e185484154c451882a8a3d	2	1	DL_test	14	DL_test	23			0		ka	1	804	6	3	antiphase_hc_soi.wav	1	6	2	noise_calib_stim_LEFT.wav	1	19	blb_dichoticlistening_ka-ba.mp3	ka	ba	1	left
6.6.1	win	2023-06-13	20:10:30	0	0	62e185484154c451882a8a3d	2	1	DL_test	14	DL_test	24			0		ga	1	835	6	3	antiphase_hc_soi.wav	1	6	2	noise_calib_stim_LEFT.wav	1	13	blb_dichoticlistening_ga-ba.mp3	ga	ba	1	left
6.6.1	win	2023-06-13	20:10:30	0	0	62e185484154c451882a8a3d	2	1	DL_test	14	DL_test	25			0		ga	1	1360	6	3	antiphase_hc_soi.wav	1	6	2	noise_calib_stim_LEFT.wav	1	27	blb_dichoticlistening_pa-ga.mp3	pa	ga	1	right
6.6.1	win	2023-06-13	20:10:30	0	0	62e185484154c451882a8a3d	2	1	DL_test	14	DL_test	26			0		ga	0	720	6	3	antiphase_hc_soi.wav	1	6	2	noise_calib_stim_LEFT.wav	1	2	blb_dichoticlistening_ba-da.mp3	ba	da	1	other
6.6.1	win	2023-06-13	20:10:30	0	0	62e185484154c451882a8a3d	2	1	DL_test	14	DL_test	27			0		da	0	490	6	3	antiphase_hc_soi.wav	1	6	2	noise_calib_stim_LEFT.wav	1	17	blb_dichoticlistening_ga-pa.mp3	ga	pa	1	other
6.6.1	win	2023-06-13	20:10:30	0	0	62e185484154c451882a8a3d	2	1	DL_test	14	DL_test	28			0		pa	1	1454	6	3	antiphase_hc_soi.wav	1	6	2	noise_calib_stim_LEFT.wav	1	26	blb_dichoticlistening_pa-da.mp3	pa	da	1	left
6.6.1	win	2023-06-13	20:10:30	0	0	62e185484154c451882a8a3d	2	1	DL_test	14	DL_test	29			0		ka	0	1250	6	3	antiphase_hc_soi.wav	1	6	2	noise_calib_stim_LEFT.wav	1	12	blb_dichoticlistening_da-ta.mp3	da	ta	1	other
6.6.1	win	2023-06-13	20:10:30	0	0	62e185484154c451882a8a3d	2	1	DL_test	14	DL_test	30			0		pa	0	1062	6	3	antiphase_hc_soi.wav	1	6	2	noise_calib_stim_LEFT.wav	1	31	blb_dichoticlistening_ta-ba.mp3	ta	ba	1	other
6.6.1	win	2023-06-13	20:10:30	0	0	62e185484154c451882a8a3d	2	1	DL_test	14	DL_test	31			0		ga	1	842	6	3	antiphase_hc_soi.wav	1	6	2	noise_calib_stim_LEFT.wav	1	9	blb_dichoticlistening_da-ga.mp3	da	ga	1	right
6.6.1	win	2023-06-13	20:10:30	0	0	62e185484154c451882a8a3d	2	1	DL_test	14	DL_test	32			0		pa	1	1031	6	3	antiphase_hc_soi.wav	1	6	2	noise_calib_stim_LEFT.wav	1	25	blb_dichoticlistening_pa-ba.mp3	pa	ba	1	left
6.6.1	win	2023-06-13	20:10:30	0	0	62e185484154c451882a8a3d	2	1	DL_test	14	DL_test	33			0		ga	0	884	6	3	antiphase_hc_soi.wav	1	6	2	noise_calib_stim_LEFT.wav	1	8	blb_dichoticlistening_da-da.mp3	da	da	0	other
6.6.1	win	2023-06-13	20:10:30	0	0	62e185484154c451882a8a3d	2	1	DL_test	14	DL_test	34			0		ka	0	510	6	3	antiphase_hc_soi.wav	1	6	2	noise_calib_stim_LEFT.wav	1	32	blb_dichoticlistening_ta-da.mp3	ta	da	1	other
6.6.1	win	2023-06-13	20:10:30	0	0	62e185484154c451882a8a3d	2	1	DL_test	14	DL_test	35			0		ka	1	673	6	3	antiphase_hc_soi.wav	1	6	2	noise_calib_stim_LEFT.wav	1	4	blb_dichoticlistening_ba-ka.mp3	ba	ka	1	right
6.6.1	win	2023-06-13	20:10:30	0	0	62e185484154c451882a8a3d	2	1	DL_test	14	DL_test	36			0		ka	0	763	6	3	antiphase_hc_soi.wav	1	6	2	noise_calib_stim_LEFT.wav	1	11	blb_dichoticlistening_da-pa.mp3	da	pa	1	other
6.6.1	win	2023-06-13	20:10:30	0	0	62e185484154c451882a8a3d	2	1	DL_test	15	DL_test	1			0		ga	1	1235	6	3	antiphase_hc_soi.wav	1	6	2	noise_calib_stim_LEFT.wav	1	16	blb_dichoticlistening_ga-ka.mp3	ga	ka	1	left
6.6.1	win	2023-06-13	20:10:30	0	0	62e185484154c451882a8a3d	2	1	DL_test	15	DL_test	2			0		ga	0	672	6	3	antiphase_hc_soi.wav	1	6	2	noise_calib_stim_LEFT.wav	1	6	blb_dichoticlistening_ba-ta.mp3	ba	ta	1	other
6.6.1	win	2023-06-13	20:10:30	0	0	62e185484154c451882a8a3d	2	1	DL_test	15	DL_test	3			0		ka	0	526	6	3	antiphase_hc_soi.wav	1	6	2	noise_calib_stim_LEFT.wav	1	26	blb_dichoticlistening_pa-da.mp3	pa	da	1	other
6.6.1	win	2023-06-13	20:10:30	0	0	62e185484154c451882a8a3d	2	1	DL_test	15	DL_test	4			0		pa	1	925	6	3	antiphase_hc_soi.wav	1	6	2	noise_calib_stim_LEFT.wav	1	29	blb_dichoticlistening_pa-pa.mp3	pa	pa	0	left
6.6.1	win	2023-06-13	20:10:30	0	0	62e185484154c451882a8a3d	2	1	DL_test	15	DL_test	5			0		ka	1	654	6	3	antiphase_hc_soi.wav	1	6	2	noise_calib_stim_LEFT.wav	1	21	blb_dichoticlistening_ka-ga.mp3	ka	ga	1	left
6.6.1	win	2023-06-13	20:10:30	0	0	62e185484154c451882a8a3d	2	1	DL_test	15	DL_test	6			0		ka	1	587	6	3	antiphase_hc_soi.wav	1	6	2	noise_calib_stim_LEFT.wav	1	20	blb_dichoticlistening_ka-da.mp3	ka	da	1	left
6.6.1	win	2023-06-13	20:10:30	0	0	62e185484154c451882a8a3d	2	1	DL_test	15	DL_test	7			0		ga	0	1011	6	3	antiphase_hc_soi.wav	1	6	2	noise_calib_stim_LEFT.wav	1	12	blb_dichoticlistening_da-ta.mp3	da	ta	1	other
6.6.1	win	2023-06-13	20:10:30	0	0	62e185484154c451882a8a3d	2	1	DL_test	15	DL_test	8			0		ga	1	785	6	3	antiphase_hc_soi.wav	1	6	2	noise_calib_stim_LEFT.wav	1	3	blb_dichoticlistening_ba-ga.mp3	ba	ga	1	right
6.6.1	win	2023-06-13	20:10:30	0	0	62e185484154c451882a8a3d	2	1	DL_test	15	DL_test	9			0		ga	0	759	6	3	antiphase_hc_soi.wav	1	6	2	noise_calib_stim_LEFT.wav	1	8	blb_dichoticlistening_da-da.mp3	da	da	0	other
6.6.1	win	2023-06-13	20:10:30	0	0	62e185484154c451882a8a3d	2	1	DL_test	15	DL_test	10			0		pa	1	1134	6	3	antiphase_hc_soi.wav	1	6	2	noise_calib_stim_LEFT.wav	1	25	blb_dichoticlistening_pa-ba.mp3	pa	ba	1	left
6.6.1	win	2023-06-13	20:10:30	0	0	62e185484154c451882a8a3d	2	1	DL_test	15	DL_test	11			0		ta	1	1129	6	3	antiphase_hc_soi.wav	1	6	2	noise_calib_stim_LEFT.wav	1	36	blb_dichoticlistening_ta-ta.mp3	ta	ta	0	left
6.6.1	win	2023-06-13	20:10:30	0	0	62e185484154c451882a8a3d	2	1	DL_test	15	DL_test	12			0		ka	1	1754	6	3	antiphase_hc_soi.wav	1	6	2	noise_calib_stim_LEFT.wav	1	22	blb_dichoticlistening_ka-ka.mp3	ka	ka	0	left
6.6.1	win	2023-06-13	20:10:30	0	0	62e185484154c451882a8a3d	2	1	DL_test	15	DL_test	13			0		ga	1	698	6	3	antiphase_hc_soi.wav	1	6	2	noise_calib_stim_LEFT.wav	1	15	blb_dichoticlistening_ga-ga.mp3	ga	ga	0	left
6.6.1	win	2023-06-13	20:10:30	0	0	62e185484154c451882a8a3d	2	1	DL_test	15	DL_test	14			0		ka	1	933	6	3	antiphase_hc_soi.wav	1	6	2	noise_calib_stim_LEFT.wav	1	34	blb_dichoticlistening_ta-ka.mp3	ta	ka	1	right
6.6.1	win	2023-06-13	20:10:30	0	0	62e185484154c451882a8a3d	2	1	DL_test	15	DL_test	15			0		pa	1	862	6	3	antiphase_hc_soi.wav	1	6	2	noise_calib_stim_LEFT.wav	1	23	blb_dichoticlistening_ka-pa.mp3	ka	pa	1	right
6.6.1	win	2023-06-13	20:10:30	0	0	62e185484154c451882a8a3d	2	1	DL_test	15	DL_test	16			0		pa	1	891	6	3	antiphase_hc_soi.wav	1	6	2	noise_calib_stim_LEFT.wav	1	5	blb_dichoticlistening_ba-pa.mp3	ba	pa	1	right
6.6.1	win	2023-06-13	20:10:30	0	0	62e185484154c451882a8a3d	2	1	DL_test	15	DL_test	17			0		ba	1	1806	6	3	antiphase_hc_soi.wav	1	6	2	noise_calib_stim_LEFT.wav	1	1	blb_dichoticlistening_ba-ba.mp3	ba	ba	0	left
6.6.1	win	2023-06-13	20:10:30	0	0	62e185484154c451882a8a3d	2	1	DL_test	15	DL_test	18			0		ba	1	843	6	3	antiphase_hc_soi.wav	1	6	2	noise_calib_stim_LEFT.wav	1	2	blb_dichoticlistening_ba-da.mp3	ba	da	1	left
6.6.1	win	2023-06-13	20:10:30	0	0	62e185484154c451882a8a3d	2	1	DL_test	15	DL_test	19			0		ga	1	977	6	3	antiphase_hc_soi.wav	1	6	2	noise_calib_stim_LEFT.wav	1	18	blb_dichoticlistening_ga-ta.mp3	ga	ta	1	left
6.6.1	win	2023-06-13	20:10:30	0	0	62e185484154c451882a8a3d	2	1	DL_test	15	DL_test	20			0		pa	1	1177	6	3	antiphase_hc_soi.wav	1	6	2	noise_calib_stim_LEFT.wav	1	28	blb_dichoticlistening_pa-ka.mp3	pa	ka	1	left
6.6.1	win	2023-06-13	20:10:30	0	0	62e185484154c451882a8a3d	2	1	DL_test	15	DL_test	21			0		pa	1	720	6	3	antiphase_hc_soi.wav	1	6	2	noise_calib_stim_LEFT.wav	1	30	blb_dichoticlistening_pa-ta.mp3	pa	ta	1	left
6.6.1	win	2023-06-13	20:10:30	0	0	62e185484154c451882a8a3d	2	1	DL_test	15	DL_test	22			0		ga	1	1562	6	3	antiphase_hc_soi.wav	1	6	2	noise_calib_stim_LEFT.wav	1	17	blb_dichoticlistening_ga-pa.mp3	ga	pa	1	left
6.6.1	win	2023-06-13	20:10:30	0	0	62e185484154c451882a8a3d	2	1	DL_test	15	DL_test	23			0		ga	0	2362	6	3	antiphase_hc_soi.wav	1	6	2	noise_calib_stim_LEFT.wav	1	7	blb_dichoticlistening_da-ba.mp3	da	ba	1	other
6.6.1	win	2023-06-13	20:10:30	0	0	62e185484154c451882a8a3d	2	1	DL_test	15	DL_test	24			0		pa	1	1930	6	3	antiphase_hc_soi.wav	1	6	2	noise_calib_stim_LEFT.wav	1	35	blb_dichoticlistening_ta-pa.mp3	ta	pa	1	right
6.6.1	win	2023-06-13	20:10:30	0	0	62e185484154c451882a8a3d	2	1	DL_test	15	DL_test	25			0		ga	1	1260	6	3	antiphase_hc_soi.wav	1	6	2	noise_calib_stim_LEFT.wav	1	13	blb_dichoticlistening_ga-ba.mp3	ga	ba	1	left
6.6.1	win	2023-06-13	20:10:30	0	0	62e185484154c451882a8a3d	2	1	DL_test	15	DL_test	26			0		ka	0	999	6	3	antiphase_hc_soi.wav	1	6	2	noise_calib_stim_LEFT.wav	1	27	blb_dichoticlistening_pa-ga.mp3	pa	ga	1	other
6.6.1	win	2023-06-13	20:10:30	0	0	62e185484154c451882a8a3d	2	1	DL_test	15	DL_test	27			0		ka	1	646	6	3	antiphase_hc_soi.wav	1	6	2	noise_calib_stim_LEFT.wav	1	19	blb_dichoticlistening_ka-ba.mp3	ka	ba	1	left
6.6.1	win	2023-06-13	20:10:30	0	0	62e185484154c451882a8a3d	2	1	DL_test	15	DL_test	28			0		ga	1	586	6	3	antiphase_hc_soi.wav	1	6	2	noise_calib_stim_LEFT.wav	1	9	blb_dichoticlistening_da-ga.mp3	da	ga	1	right
6.6.1	win	2023-06-13	20:10:30	0	0	62e185484154c451882a8a3d	2	1	DL_test	15	DL_test	29			0		ka	0	777	6	3	antiphase_hc_soi.wav	1	6	2	noise_calib_stim_LEFT.wav	1	31	blb_dichoticlistening_ta-ba.mp3	ta	ba	1	other
6.6.1	win	2023-06-13	20:10:30	0	0	62e185484154c451882a8a3d	2	1	DL_test	15	DL_test	30			0		ta	0	497	6	3	antiphase_hc_soi.wav	1	6	2	noise_calib_stim_LEFT.wav	1	11	blb_dichoticlistening_da-pa.mp3	da	pa	1	other
6.6.1	win	2023-06-13	20:10:30	0	0	62e185484154c451882a8a3d	2	1	DL_test	15	DL_test	31			0		ka	0	1281	6	3	antiphase_hc_soi.wav	1	6	2	noise_calib_stim_LEFT.wav	1	32	blb_dichoticlistening_ta-da.mp3	ta	da	1	other
6.6.1	win	2023-06-13	20:10:30	0	0	62e185484154c451882a8a3d	2	1	DL_test	15	DL_test	32			0		ka	1	760	6	3	antiphase_hc_soi.wav	1	6	2	noise_calib_stim_LEFT.wav	1	10	blb_dichoticlistening_da-ka.mp3	da	ka	1	right
6.6.1	win	2023-06-13	20:10:30	0	0	62e185484154c451882a8a3d	2	1	DL_test	15	DL_test	33			0		ga	0	959	6	3	antiphase_hc_soi.wav	1	6	2	noise_calib_stim_LEFT.wav	1	4	blb_dichoticlistening_ba-ka.mp3	ba	ka	1	other
6.6.1	win	2023-06-13	20:10:30	0	0	62e185484154c451882a8a3d	2	1	DL_test	15	DL_test	34			0		ka	1	705	6	3	antiphase_hc_soi.wav	1	6	2	noise_calib_stim_LEFT.wav	1	24	blb_dichoticlistening_ka-ta.mp3	ka	ta	1	left
6.6.1	win	2023-06-13	20:10:30	0	0	62e185484154c451882a8a3d	2	1	DL_test	15	DL_test	35			0		ga	1	899	6	3	antiphase_hc_soi.wav	1	6	2	noise_calib_stim_LEFT.wav	1	14	blb_dichoticlistening_ga-da.mp3	ga	da	1	left
6.6.1	win	2023-06-13	20:10:30	0	0	62e185484154c451882a8a3d	2	1	DL_test	15	DL_test	36			0		ka	0	815	6	3	antiphase_hc_soi.wav	1	6	2	noise_calib_stim_LEFT.wav	1	33	blb_dichoticlistening_ta-ga.mp3	ta	ga	1	other
6.6.1	win	2023-06-13	20:10:30	0	0	62e185484154c451882a8a3d	2	1	DL_test	16	DL_test	1			0		ka	1	1218	6	3	antiphase_hc_soi.wav	1	6	2	noise_calib_stim_LEFT.wav	1	20	blb_dichoticlistening_ka-da.mp3	ka	da	1	left
6.6.1	win	2023-06-13	20:10:30	0	0	62e185484154c451882a8a3d	2	1	DL_test	16	DL_test	2			0		ka	1	664	6	3	antiphase_hc_soi.wav	1	6	2	noise_calib_stim_LEFT.wav	1	19	blb_dichoticlistening_ka-ba.mp3	ka	ba	1	left
6.6.1	win	2023-06-13	20:10:30	0	0	62e185484154c451882a8a3d	2	1	DL_test	16	DL_test	3			0		ka	0	492	6	3	antiphase_hc_soi.wav	1	6	2	noise_calib_stim_LEFT.wav	1	31	blb_dichoticlistening_ta-ba.mp3	ta	ba	1	other
6.6.1	win	2023-06-13	20:10:30	0	0	62e185484154c451882a8a3d	2	1	DL_test	16	DL_test	4			0		ga	1	726	6	3	antiphase_hc_soi.wav	1	6	2	noise_calib_stim_LEFT.wav	1	14	blb_dichoticlistening_ga-da.mp3	ga	da	1	left
6.6.1	win	2023-06-13	20:10:30	0	0	62e185484154c451882a8a3d	2	1	DL_test	16	DL_test	5			0		ta	1	1448	6	3	antiphase_hc_soi.wav	1	6	2	noise_calib_stim_LEFT.wav	1	30	blb_dichoticlistening_pa-ta.mp3	pa	ta	1	right
6.6.1	win	2023-06-13	20:10:30	0	0	62e185484154c451882a8a3d	2	1	DL_test	16	DL_test	6			0		ta	1	868	6	3	antiphase_hc_soi.wav	1	6	2	noise_calib_stim_LEFT.wav	1	6	blb_dichoticlistening_ba-ta.mp3	ba	ta	1	right
6.6.1	win	2023-06-13	20:10:30	0	0	62e185484154c451882a8a3d	2	1	DL_test	16	DL_test	7			0		ga	1	940	6	3	antiphase_hc_soi.wav	1	6	2	noise_calib_stim_LEFT.wav	1	18	blb_dichoticlistening_ga-ta.mp3	ga	ta	1	left
6.6.1	win	2023-06-13	20:10:30	0	0	62e185484154c451882a8a3d	2	1	DL_test	16	DL_test	8			0		ga	0	1098	6	3	antiphase_hc_soi.wav	1	6	2	noise_calib_stim_LEFT.wav	1	2	blb_dichoticlistening_ba-da.mp3	ba	da	1	other
6.6.1	win	2023-06-13	20:10:30	0	0	62e185484154c451882a8a3d	2	1	DL_test	16	DL_test	9			0		ka	1	556	6	3	antiphase_hc_soi.wav	1	6	2	noise_calib_stim_LEFT.wav	1	21	blb_dichoticlistening_ka-ga.mp3	ka	ga	1	left
6.6.1	win	2023-06-13	20:10:30	0	0	62e185484154c451882a8a3d	2	1	DL_test	16	DL_test	10			0		ta	1	1381	6	3	antiphase_hc_soi.wav	1	6	2	noise_calib_stim_LEFT.wav	1	35	blb_dichoticlistening_ta-pa.mp3	ta	pa	1	left
6.6.1	win	2023-06-13	20:10:30	0	0	62e185484154c451882a8a3d	2	1	DL_test	16	DL_test	11			0		ga	1	836	6	3	antiphase_hc_soi.wav	1	6	2	noise_calib_stim_LEFT.wav	1	17	blb_dichoticlistening_ga-pa.mp3	ga	pa	1	left
6.6.1	win	2023-06-13	20:10:30	0	0	62e185484154c451882a8a3d	2	1	DL_test	16	DL_test	12			0		pa	1	611	6	3	antiphase_hc_soi.wav	1	6	2	noise_calib_stim_LEFT.wav	1	5	blb_dichoticlistening_ba-pa.mp3	ba	pa	1	right
6.6.1	win	2023-06-13	20:10:30	0	0	62e185484154c451882a8a3d	2	1	DL_test	16	DL_test	13			0		ba	1	2256	6	3	antiphase_hc_soi.wav	1	6	2	noise_calib_stim_LEFT.wav	1	1	blb_dichoticlistening_ba-ba.mp3	ba	ba	0	left
6.6.1	win	2023-06-13	20:10:30	0	0	62e185484154c451882a8a3d	2	1	DL_test	16	DL_test	14			0		ba	0	805	6	3	antiphase_hc_soi.wav	1	6	2	noise_calib_stim_LEFT.wav	1	27	blb_dichoticlistening_pa-ga.mp3	pa	ga	1	other
6.6.1	win	2023-06-13	20:10:30	0	0	62e185484154c451882a8a3d	2	1	DL_test	16	DL_test	15			0		ga	0	1147	6	3	antiphase_hc_soi.wav	1	6	2	noise_calib_stim_LEFT.wav	1	7	blb_dichoticlistening_da-ba.mp3	da	ba	1	other
6.6.1	win	2023-06-13	20:10:30	0	0	62e185484154c451882a8a3d	2	1	DL_test	16	DL_test	16			0		ka	1	1043	6	3	antiphase_hc_soi.wav	1	6	2	noise_calib_stim_LEFT.wav	1	22	blb_dichoticlistening_ka-ka.mp3	ka	ka	0	left
6.6.1	win	2023-06-13	20:10:30	0	0	62e185484154c451882a8a3d	2	1	DL_test	16	DL_test	17			0		ka	0	1783	6	3	antiphase_hc_soi.wav	1	6	2	noise_calib_stim_LEFT.wav	1	26	blb_dichoticlistening_pa-da.mp3	pa	da	1	other
6.6.1	win	2023-06-13	20:10:30	0	0	62e185484154c451882a8a3d	2	1	DL_test	16	DL_test	18			0		ga	1	783	6	3	antiphase_hc_soi.wav	1	6	2	noise_calib_stim_LEFT.wav	1	9	blb_dichoticlistening_da-ga.mp3	da	ga	1	right
6.6.1	win	2023-06-13	20:10:30	0	0	62e185484154c451882a8a3d	2	1	DL_test	16	DL_test	19			0		ta	1	1102	6	3	antiphase_hc_soi.wav	1	6	2	noise_calib_stim_LEFT.wav	1	36	blb_dichoticlistening_ta-ta.mp3	ta	ta	0	left
6.6.1	win	2023-06-13	20:10:30	0	0	62e185484154c451882a8a3d	2	1	DL_test	16	DL_test	20			0		ka	0	865	6	3	antiphase_hc_soi.wav	1	6	2	noise_calib_stim_LEFT.wav	1	33	blb_dichoticlistening_ta-ga.mp3	ta	ga	1	other
6.6.1	win	2023-06-13	20:10:30	0	0	62e185484154c451882a8a3d	2	1	DL_test	16	DL_test	21			0		ga	0	885	6	3	antiphase_hc_soi.wav	1	6	2	noise_calib_stim_LEFT.wav	1	12	blb_dichoticlistening_da-ta.mp3	da	ta	1	other
6.6.1	win	2023-06-13	20:10:30	0	0	62e185484154c451882a8a3d	2	1	DL_test	16	DL_test	22			0		ga	1	728	6	3	antiphase_hc_soi.wav	1	6	2	noise_calib_stim_LEFT.wav	1	16	blb_dichoticlistening_ga-ka.mp3	ga	ka	1	left
6.6.1	win	2023-06-13	20:10:30	0	0	62e185484154c451882a8a3d	2	1	DL_test	16	DL_test	23			0		ga	0	721	6	3	antiphase_hc_soi.wav	1	6	2	noise_calib_stim_LEFT.wav	1	8	blb_dichoticlistening_da-da.mp3	da	da	0	other
6.6.1	win	2023-06-13	20:10:30	0	0	62e185484154c451882a8a3d	2	1	DL_test	16	DL_test	24			0		ga	1	562	6	3	antiphase_hc_soi.wav	1	6	2	noise_calib_stim_LEFT.wav	1	3	blb_dichoticlistening_ba-ga.mp3	ba	ga	1	right
6.6.1	win	2023-06-13	20:10:30	0	0	62e185484154c451882a8a3d	2	1	DL_test	16	DL_test	25			0		ka	1	745	6	3	antiphase_hc_soi.wav	1	6	2	noise_calib_stim_LEFT.wav	1	24	blb_dichoticlistening_ka-ta.mp3	ka	ta	1	left
6.6.1	win	2023-06-13	20:10:30	0	0	62e185484154c451882a8a3d	2	1	DL_test	16	DL_test	26			0		ka	0	963	6	3	antiphase_hc_soi.wav	1	6	2	noise_calib_stim_LEFT.wav	1	11	blb_dichoticlistening_da-pa.mp3	da	pa	1	other
6.6.1	win	2023-06-13	20:10:30	0	0	62e185484154c451882a8a3d	2	1	DL_test	16	DL_test	27			0		ga	1	1099	6	3	antiphase_hc_soi.wav	1	6	2	noise_calib_stim_LEFT.wav	1	13	blb_dichoticlistening_ga-ba.mp3	ga	ba	1	left
6.6.1	win	2023-06-13	20:10:30	0	0	62e185484154c451882a8a3d	2	1	DL_test	16	DL_test	28			0		ga	1	551	6	3	antiphase_hc_soi.wav	1	6	2	noise_calib_stim_LEFT.wav	1	15	blb_dichoticlistening_ga-ga.mp3	ga	ga	0	left
6.6.1	win	2023-06-13	20:10:30	0	0	62e185484154c451882a8a3d	2	1	DL_test	16	DL_test	29			0		ka	1	663	6	3	antiphase_hc_soi.wav	1	6	2	noise_calib_stim_LEFT.wav	1	23	blb_dichoticlistening_ka-pa.mp3	ka	pa	1	left
6.6.1	win	2023-06-13	20:10:30	0	0	62e185484154c451882a8a3d	2	1	DL_test	16	DL_test	30			0		pa	1	923	6	3	antiphase_hc_soi.wav	1	6	2	noise_calib_stim_LEFT.wav	1	29	blb_dichoticlistening_pa-pa.mp3	pa	pa	0	left
6.6.1	win	2023-06-13	20:10:30	0	0	62e185484154c451882a8a3d	2	1	DL_test	16	DL_test	31			0		ka	1	821	6	3	antiphase_hc_soi.wav	1	6	2	noise_calib_stim_LEFT.wav	1	10	blb_dichoticlistening_da-ka.mp3	da	ka	1	right
6.6.1	win	2023-06-13	20:10:30	0	0	62e185484154c451882a8a3d	2	1	DL_test	16	DL_test	32			0		ka	0	1035	6	3	antiphase_hc_soi.wav	1	6	2	noise_calib_stim_LEFT.wav	1	32	blb_dichoticlistening_ta-da.mp3	ta	da	1	other
6.6.1	win	2023-06-13	20:10:30	0	0	62e185484154c451882a8a3d	2	1	DL_test	16	DL_test	33			0		pa	1	816	6	3	antiphase_hc_soi.wav	1	6	2	noise_calib_stim_LEFT.wav	1	25	blb_dichoticlistening_pa-ba.mp3	pa	ba	1	left
6.6.1	win	2023-06-13	20:10:30	0	0	62e185484154c451882a8a3d	2	1	DL_test	16	DL_test	34			0		ka	1	734	6	3	antiphase_hc_soi.wav	1	6	2	noise_calib_stim_LEFT.wav	1	28	blb_dichoticlistening_pa-ka.mp3	pa	ka	1	right
6.6.1	win	2023-06-13	20:10:30	0	0	62e185484154c451882a8a3d	2	1	DL_test	16	DL_test	35			0		ka	1	576	6	3	antiphase_hc_soi.wav	1	6	2	noise_calib_stim_LEFT.wav	1	34	blb_dichoticlistening_ta-ka.mp3	ta	ka	1	right
6.6.1	win	2023-06-13	20:10:30	0	0	62e185484154c451882a8a3d	2	1	DL_test	16	DL_test	36			0		da	0	1360	6	3	antiphase_hc_soi.wav	1	6	2	noise_calib_stim_LEFT.wav	1	4	blb_dichoticlistening_ba-ka.mp3	ba	ka	1	other
6.6.1	win	2023-06-13	20:10:30	20:18:24	445448	62e185484154c451882a8a3d	2	1	practice_z	22	practice_z	1	stimuli_distractor_trianglediamonds.svg	stimuli_distractor_trianglediamonds.svg	15	no	44	0	428	6	3	antiphase_hc_soi.wav	1	6	2	noise_calib_stim_LEFT.wav	1	4	blb_dichoticlistening_ba-ka.mp3	ba	ka	1	other
6.6.1	win	2023-06-13	20:10:30	20:18:24	445448	62e185484154c451882a8a3d	2	1	practice_z	22	advance_on_keypress_ZEE	2	stimuli_distractor_trianglediamonds.svg	stimuli_distractor_trianglediamonds.svg	15	no	57	0	2682	6	3	antiphase_hc_soi.wav	1	6	2	noise_calib_stim_LEFT.wav	1	4	blb_dichoticlistening_ba-ka.mp3	ba	ka	1	other
6.6.1	win	2023-06-13	20:10:30	20:18:29	450464	62e185484154c451882a8a3d	2	1	practice_z	22	practice_z	3	stimuli_distractor_diamondtriangles.svg	stimuli_target_diamondrectangles.svg	8	yes	44	1	678	6	3	antiphase_hc_soi.wav	1	6	2	noise_calib_stim_LEFT.wav	1	4	blb_dichoticlistening_ba-ka.mp3	ba	ka	1	other
6.6.1	win	2023-06-13	20:10:30	20:18:29	450464	62e185484154c451882a8a3d	2	1	practice_z	22	advance_on_keypress_ZEE	4	stimuli_distractor_diamondtriangles.svg	stimuli_target_diamondrectangles.svg	8	yes	57	0	498	6	3	antiphase_hc_soi.wav	1	6	2	noise_calib_stim_LEFT.wav	1	4	blb_dichoticlistening_ba-ka.mp3	ba	ka	1	other
6.6.1	win	2023-06-13	20:10:30	20:18:32	453192	62e185484154c451882a8a3d	2	1	practice_z	22	practice_z	5	stimuli_distractor_trianglediamonds.svg	stimuli_target_squarediamonds.svg	11	yes	44	1	589	6	3	antiphase_hc_soi.wav	1	6	2	noise_calib_stim_LEFT.wav	1	4	blb_dichoticlistening_ba-ka.mp3	ba	ka	1	other
6.6.1	win	2023-06-13	20:10:30	20:18:32	453192	62e185484154c451882a8a3d	2	1	practice_z	22	advance_on_keypress_ZEE	6	stimuli_distractor_trianglediamonds.svg	stimuli_target_squarediamonds.svg	11	yes	57	0	101	6	3	antiphase_hc_soi.wav	1	6	2	noise_calib_stim_LEFT.wav	1	4	blb_dichoticlistening_ba-ka.mp3	ba	ka	1	other
6.6.1	win	2023-06-13	20:10:30	20:18:34	455512	62e185484154c451882a8a3d	2	1	practice_z	22	practice_z	7	stimuli_distractor_diamondtriangles.svg	stimuli_distractor_trianglediamonds.svg	14	no	44	0	576	6	3	antiphase_hc_soi.wav	1	6	2	noise_calib_stim_LEFT.wav	1	4	blb_dichoticlistening_ba-ka.mp3	ba	ka	1	other
6.6.1	win	2023-06-13	20:10:30	20:18:34	455512	62e185484154c451882a8a3d	2	1	practice_z	22	advance_on_keypress_ZEE	8	stimuli_distractor_diamondtriangles.svg	stimuli_distractor_trianglediamonds.svg	14	no	57	0	96	6	3	antiphase_hc_soi.wav	1	6	2	noise_calib_stim_LEFT.wav	1	4	blb_dichoticlistening_ba-ka.mp3	ba	ka	1	other
6.6.1	win	2023-06-13	20:10:30	20:18:36	457912	62e185484154c451882a8a3d	2	1	practice_z	22	practice_z	9	stimuli_distractor_trianglediamonds.svg	stimuli_distractor_diamondtriangles.svg	16	no	44	0	676	6	3	antiphase_hc_soi.wav	1	6	2	noise_calib_stim_LEFT.wav	1	4	blb_dichoticlistening_ba-ka.mp3	ba	ka	1	other
6.6.1	win	2023-06-13	20:10:30	20:18:36	457912	62e185484154c451882a8a3d	2	1	practice_z	22	advance_on_keypress_ZEE	10	stimuli_distractor_trianglediamonds.svg	stimuli_distractor_diamondtriangles.svg	16	no	57	0	464	6	3	antiphase_hc_soi.wav	1	6	2	noise_calib_stim_LEFT.wav	1	4	blb_dichoticlistening_ba-ka.mp3	ba	ka	1	other
6.6.1	win	2023-06-13	20:10:30	20:18:39	460761	62e185484154c451882a8a3d	2	1	practice_z	22	practice_z	11	stimuli_target_rectanglediamonds.svg	stimuli_distractor_trianglediamonds.svg	4	yes	44	1	741	6	3	antiphase_hc_soi.wav	1	6	2	noise_calib_stim_LEFT.wav	1	4	blb_dichoticlistening_ba-ka.mp3	ba	ka	1	other
6.6.1	win	2023-06-13	20:10:30	20:18:39	460761	62e185484154c451882a8a3d	2	1	practice_z	22	advance_on_keypress_ZEE	12	stimuli_target_rectanglediamonds.svg	stimuli_distractor_trianglediamonds.svg	4	yes	57	0	31	6	3	antiphase_hc_soi.wav	1	6	2	noise_calib_stim_LEFT.wav	1	4	blb_dichoticlistening_ba-ka.mp3	ba	ka	1	other
6.6.1	win	2023-06-13	20:10:30	20:18:43	464437	62e185484154c451882a8a3d	2	1	practice_z	22	practice_z	13	stimuli_distractor_diamondtriangles.svg	stimuli_distractor_diamondtriangles.svg	13	no	0	1	2000	6	3	antiphase_hc_soi.wav	1	6	2	noise_calib_stim_LEFT.wav	1	4	blb_dichoticlistening_ba-ka.mp3	ba	ka	1	other
6.6.1	win	2023-06-13	20:10:30	20:18:43	464437	62e185484154c451882a8a3d	2	1	practice_z	22	advance_on_keypress_ZEE	14	stimuli_distractor_diamondtriangles.svg	stimuli_distractor_diamondtriangles.svg	13	no	57	0	211	6	3	antiphase_hc_soi.wav	1	6	2	noise_calib_stim_LEFT.wav	1	4	blb_dichoticlistening_ba-ka.mp3	ba	ka	1	other
6.6.1	win	2023-06-13	20:10:30	20:18:45	466968	62e185484154c451882a8a3d	2	1	practice_z	22	practice_z	15	stimuli_target_diamondsquares.svg	stimuli_distractor_trianglediamonds.svg	6	yes	44	1	665	6	3	antiphase_hc_soi.wav	1	6	2	noise_calib_stim_LEFT.wav	1	4	blb_dichoticlistening_ba-ka.mp3	ba	ka	1	other
6.6.1	win	2023-06-13	20:10:30	20:18:45	466968	62e185484154c451882a8a3d	2	1	practice_z	22	advance_on_keypress_ZEE	16	stimuli_target_diamondsquares.svg	stimuli_distractor_trianglediamonds.svg	6	yes	57	0	150	6	3	antiphase_hc_soi.wav	1	6	2	noise_calib_stim_LEFT.wav	1	4	blb_dichoticlistening_ba-ka.mp3	ba	ka	1	other
6.6.1	win	2023-06-13	20:10:30	20:18:48	469313	62e185484154c451882a8a3d	2	1	practice_z	22	practice_z	17	stimuli_target_rectanglediamonds.svg	stimuli_distractor_diamondtriangles.svg	1	yes	44	1	543	6	3	antiphase_hc_soi.wav	1	6	2	noise_calib_stim_LEFT.wav	1	4	blb_dichoticlistening_ba-ka.mp3	ba	ka	1	other
6.6.1	win	2023-06-13	20:10:30	20:18:48	469313	62e185484154c451882a8a3d	2	1	practice_z	22	advance_on_keypress_ZEE	18	stimuli_target_rectanglediamonds.svg	stimuli_distractor_diamondtriangles.svg	1	yes	57	0	577	6	3	antiphase_hc_soi.wav	1	6	2	noise_calib_stim_LEFT.wav	1	4	blb_dichoticlistening_ba-ka.mp3	ba	ka	1	other
6.6.1	win	2023-06-13	20:10:30	20:18:51	472224	62e185484154c451882a8a3d	2	1	practice_z	22	practice_z	19	stimuli_distractor_diamondtriangles.svg	stimuli_target_rectangletriangles.svg	7	yes	44	1	704	6	3	antiphase_hc_soi.wav	1	6	2	noise_calib_stim_LEFT.wav	1	4	blb_dichoticlistening_ba-ka.mp3	ba	ka	1	other
6.6.1	win	2023-06-13	20:10:30	20:18:51	472224	62e185484154c451882a8a3d	2	1	practice_z	22	advance_on_keypress_ZEE	20	stimuli_distractor_diamondtriangles.svg	stimuli_target_rectangletriangles.svg	7	yes	57	0	107	6	3	antiphase_hc_soi.wav	1	6	2	noise_calib_stim_LEFT.wav	1	4	blb_dichoticlistening_ba-ka.mp3	ba	ka	1	other
6.6.1	win	2023-06-13	20:10:30	20:18:53	474871	62e185484154c451882a8a3d	2	1	practice_z	22	practice_z	21	stimuli_distractor_trianglediamonds.svg	stimuli_target_rectanglediamonds.svg	10	yes	44	1	902	6	3	antiphase_hc_soi.wav	1	6	2	noise_calib_stim_LEFT.wav	1	4	blb_dichoticlistening_ba-ka.mp3	ba	ka	1	other
6.6.1	win	2023-06-13	20:10:30	20:18:53	474871	62e185484154c451882a8a3d	2	1	practice_z	22	advance_on_keypress_ZEE	22	stimuli_distractor_trianglediamonds.svg	stimuli_target_rectanglediamonds.svg	10	yes	57	0	649	6	3	antiphase_hc_soi.wav	1	6	2	noise_calib_stim_LEFT.wav	1	4	blb_dichoticlistening_ba-ka.mp3	ba	ka	1	other
6.6.1	win	2023-06-13	20:10:30	20:18:56	477736	62e185484154c451882a8a3d	2	1	practice_z	22	practice_z	23	stimuli_distractor_diamondtriangles.svg	stimuli_target_trianglerectangles.svg	9	yes	44	1	566	6	3	antiphase_hc_soi.wav	1	6	2	noise_calib_stim_LEFT.wav	1	4	blb_dichoticlistening_ba-ka.mp3	ba	ka	1	other
6.6.1	win	2023-06-13	20:10:30	20:18:56	477736	62e185484154c451882a8a3d	2	1	practice_z	22	advance_on_keypress_ZEE	24	stimuli_distractor_diamondtriangles.svg	stimuli_target_trianglerectangles.svg	9	yes	57	0	454	6	3	antiphase_hc_soi.wav	1	6	2	noise_calib_stim_LEFT.wav	1	4	blb_dichoticlistening_ba-ka.mp3	ba	ka	1	other
6.6.1	win	2023-06-13	20:10:30	20:19:00	481836	62e185484154c451882a8a3d	2	1	practice_z	22	practice_z	25	stimuli_target_diamondsquares.svg	stimuli_distractor_diamondtriangles.svg	3	yes	0	0	2000	6	3	antiphase_hc_soi.wav	1	6	2	noise_calib_stim_LEFT.wav	1	4	blb_dichoticlistening_ba-ka.mp3	ba	ka	1	other
6.6.1	win	2023-06-13	20:10:30	20:19:00	481836	62e185484154c451882a8a3d	2	1	practice_z	22	advance_on_keypress_ZEE	26	stimuli_target_diamondsquares.svg	stimuli_distractor_diamondtriangles.svg	3	yes	57	0	570	6	3	antiphase_hc_soi.wav	1	6	2	noise_calib_stim_LEFT.wav	1	4	blb_dichoticlistening_ba-ka.mp3	ba	ka	1	other
6.6.1	win	2023-06-13	20:10:30	20:19:03	484544	62e185484154c451882a8a3d	2	1	practice_z	22	practice_z	27	stimuli_target_squarediamonds.svg	stimuli_distractor_diamondtriangles.svg	2	yes	44	1	490	6	3	antiphase_hc_soi.wav	1	6	2	noise_calib_stim_LEFT.wav	1	4	blb_dichoticlistening_ba-ka.mp3	ba	ka	1	other
6.6.1	win	2023-06-13	20:10:30	20:19:03	484544	62e185484154c451882a8a3d	2	1	practice_z	22	advance_on_keypress_ZEE	28	stimuli_target_squarediamonds.svg	stimuli_distractor_diamondtriangles.svg	2	yes	57	0	759	6	3	antiphase_hc_soi.wav	1	6	2	noise_calib_stim_LEFT.wav	1	4	blb_dichoticlistening_ba-ka.mp3	ba	ka	1	other
6.6.1	win	2023-06-13	20:10:30	20:19:07	488872	62e185484154c451882a8a3d	2	1	practice_z	22	practice_z	29	stimuli_distractor_trianglediamonds.svg	stimuli_target_diamondrectangles.svg	12	yes	44	1	1935	6	3	antiphase_hc_soi.wav	1	6	2	noise_calib_stim_LEFT.wav	1	4	blb_dichoticlistening_ba-ka.mp3	ba	ka	1	other
6.6.1	win	2023-06-13	20:10:30	20:19:07	488872	62e185484154c451882a8a3d	2	1	practice_z	22	advance_on_keypress_ZEE	30	stimuli_distractor_trianglediamonds.svg	stimuli_target_diamondrectangles.svg	12	yes	57	0	3337	6	3	antiphase_hc_soi.wav	1	6	2	noise_calib_stim_LEFT.wav	1	4	blb_dichoticlistening_ba-ka.mp3	ba	ka	1	other
6.6.1	win	2023-06-13	20:10:30	20:19:14	495853	62e185484154c451882a8a3d	2	1	practice_z	22	practice_z	31	stimuli_target_squarediamonds.svg	stimuli_distractor_trianglediamonds.svg	5	yes	0	0	2000	6	3	antiphase_hc_soi.wav	1	6	2	noise_calib_stim_LEFT.wav	1	4	blb_dichoticlistening_ba-ka.mp3	ba	ka	1	other
6.6.1	win	2023-06-13	20:10:30	20:19:14	495853	62e185484154c451882a8a3d	2	1	practice_z	22	advance_on_keypress_ZEE	32	stimuli_target_squarediamonds.svg	stimuli_distractor_trianglediamonds.svg	5	yes	57	0	1674	6	3	antiphase_hc_soi.wav	1	6	2	noise_calib_stim_LEFT.wav	1	4	blb_dichoticlistening_ba-ka.mp3	ba	ka	1	other
6.6.1	win	2023-06-13	20:10:30	20:19:21	502950	62e185484154c451882a8a3d	2	1	main_z	24	main_z	1	stimuli_target_trianglesquares.svg	stimuli_distractor_trianglediamonds.svg	18	yes	44	1	449	6	3	antiphase_hc_soi.wav	1	6	2	noise_calib_stim_LEFT.wav	1	4	blb_dichoticlistening_ba-ka.mp3	ba	ka	1	other
6.6.1	win	2023-06-13	20:10:30	20:19:21	502950	62e185484154c451882a8a3d	2	1	main_z	24	advance_on_keypress_ZEE	2	stimuli_target_trianglesquares.svg	stimuli_distractor_trianglediamonds.svg	18	yes	57	0	606	6	3	antiphase_hc_soi.wav	1	6	2	noise_calib_stim_LEFT.wav	1	4	blb_dichoticlistening_ba-ka.mp3	ba	ka	1	other
6.6.1	win	2023-06-13	20:10:30	20:19:23	504790	62e185484154c451882a8a3d	2	1	main_z	24	main_z	3	stimuli_distractor_trianglediamonds.svg	stimuli_target_rectanglediamonds.svg	10	yes	44	1	589	6	3	antiphase_hc_soi.wav	1	6	2	noise_calib_stim_LEFT.wav	1	4	blb_dichoticlistening_ba-ka.mp3	ba	ka	1	other
6.6.1	win	2023-06-13	20:10:30	20:19:23	504790	62e185484154c451882a8a3d	2	1	main_z	24	advance_on_keypress_ZEE	4	stimuli_distractor_trianglediamonds.svg	stimuli_target_rectanglediamonds.svg	10	yes	57	0	341	6	3	antiphase_hc_soi.wav	1	6	2	noise_calib_stim_LEFT.wav	1	4	blb_dichoticlistening_ba-ka.mp3	ba	ka	1	other
6.6.1	win	2023-06-13	20:10:30	20:19:25	506310	62e185484154c451882a8a3d	2	1	main_z	24	main_z	5	stimuli_distractor_trianglediamonds.svg	stimuli_target_diamondrectangles.svg	27	yes	44	1	542	6	3	antiphase_hc_soi.wav	1	6	2	noise_calib_stim_LEFT.wav	1	4	blb_dichoticlistening_ba-ka.mp3	ba	ka	1	other
6.6.1	win	2023-06-13	20:10:30	20:19:25	506310	62e185484154c451882a8a3d	2	1	main_z	24	advance_on_keypress_ZEE	6	stimuli_distractor_trianglediamonds.svg	stimuli_target_diamondrectangles.svg	27	yes	57	0	248	6	3	antiphase_hc_soi.wav	1	6	2	noise_calib_stim_LEFT.wav	1	4	blb_dichoticlistening_ba-ka.mp3	ba	ka	1	other
6.6.1	win	2023-06-13	20:10:30	20:19:28	509201	62e185484154c451882a8a3d	2	1	main_z	24	main_z	7	stimuli_distractor_trianglediamonds.svg	stimuli_target_squaretriangles.svg	11	yes	0	0	2000	6	3	antiphase_hc_soi.wav	1	6	2	noise_calib_stim_LEFT.wav	1	4	blb_dichoticlistening_ba-ka.mp3	ba	ka	1	other
6.6.1	win	2023-06-13	20:10:30	20:19:28	509201	62e185484154c451882a8a3d	2	1	main_z	24	advance_on_keypress_ZEE	8	stimuli_distractor_trianglediamonds.svg	stimuli_target_squaretriangles.svg	11	yes	57	0	140	6	3	antiphase_hc_soi.wav	1	6	2	noise_calib_stim_LEFT.wav	1	4	blb_dichoticlistening_ba-ka.mp3	ba	ka	1	other
6.6.1	win	2023-06-13	20:10:30	20:19:29	510478	62e185484154c451882a8a3d	2	1	main_z	24	main_z	9	stimuli_target_trianglerectangles.svg	stimuli_distractor_diamondtriangles.svg	21	yes	44	1	493	6	3	antiphase_hc_soi.wav	1	6	2	noise_calib_stim_LEFT.wav	1	4	blb_dichoticlistening_ba-ka.mp3	ba	ka	1	other
6.6.1	win	2023-06-13	20:10:30	20:19:29	510478	62e185484154c451882a8a3d	2	1	main_z	24	advance_on_keypress_ZEE	10	stimuli_target_trianglerectangles.svg	stimuli_distractor_diamondtriangles.svg	21	yes	57	0	249	6	3	antiphase_hc_soi.wav	1	6	2	noise_calib_stim_LEFT.wav	1	4	blb_dichoticlistening_ba-ka.mp3	ba	ka	1	other
6.6.1	win	2023-06-13	20:10:30	20:19:30	511846	62e185484154c451882a8a3d	2	1	main_z	24	main_z	11	stimuli_target_rectangletriangles.svg	stimuli_distractor_trianglediamonds.svg	1	yes	44	1	478	6	3	antiphase_hc_soi.wav	1	6	2	noise_calib_stim_LEFT.wav	1	4	blb_dichoticlistening_ba-ka.mp3	ba	ka	1	other
6.6.1	win	2023-06-13	20:10:30	20:19:30	511846	62e185484154c451882a8a3d	2	1	main_z	24	advance_on_keypress_ZEE	12	stimuli_target_rectangletriangles.svg	stimuli_distractor_trianglediamonds.svg	1	yes	57	0	211	6	3	antiphase_hc_soi.wav	1	6	2	noise_calib_stim_LEFT.wav	1	4	blb_dichoticlistening_ba-ka.mp3	ba	ka	1	other
6.6.1	win	2023-06-13	20:10:30	20:19:32	513214	62e185484154c451882a8a3d	2	1	main_z	24	main_z	13	stimuli_target_squarediamonds.svg	stimuli_distractor_trianglediamonds.svg	4	yes	44	1	529	6	3	antiphase_hc_soi.wav	1	6	2	noise_calib_stim_LEFT.wav	1	4	blb_dichoticlistening_ba-ka.mp3	ba	ka	1	other
6.6.1	win	2023-06-13	20:10:30	20:19:32	513214	62e185484154c451882a8a3d	2	1	main_z	24	advance_on_keypress_ZEE	14	stimuli_target_squarediamonds.svg	stimuli_distractor_trianglediamonds.svg	4	yes	57	0	252	6	3	antiphase_hc_soi.wav	1	6	2	noise_calib_stim_LEFT.wav	1	4	blb_dichoticlistening_ba-ka.mp3	ba	ka	1	other
6.6.1	win	2023-06-13	20:10:30	20:19:35	516101	62e185484154c451882a8a3d	2	1	main_z	24	main_z	15	stimuli_distractor_trianglediamonds.svg	stimuli_distractor_diamondtriangles.svg	36	no	0	1	2000	6	3	antiphase_hc_soi.wav	1	6	2	noise_calib_stim_LEFT.wav	1	4	blb_dichoticlistening_ba-ka.mp3	ba	ka	1	other
6.6.1	win	2023-06-13	20:10:30	20:19:35	516101	62e185484154c451882a8a3d	2	1	main_z	24	advance_on_keypress_ZEE	16	stimuli_distractor_trianglediamonds.svg	stimuli_distractor_diamondtriangles.svg	36	no	57	0	224	6	3	antiphase_hc_soi.wav	1	6	2	noise_calib_stim_LEFT.wav	1	4	blb_dichoticlistening_ba-ka.mp3	ba	ka	1	other
6.6.1	win	2023-06-13	20:10:30	20:19:36	517566	62e185484154c451882a8a3d	2	1	main_z	24	main_z	17	stimuli_distractor_trianglediamonds.svg	stimuli_target_rectangletriangles.svg	9	yes	44	1	598	6	3	antiphase_hc_soi.wav	1	6	2	noise_calib_stim_LEFT.wav	1	4	blb_dichoticlistening_ba-ka.mp3	ba	ka	1	other
6.6.1	win	2023-06-13	20:10:30	20:19:36	517566	62e185484154c451882a8a3d	2	1	main_z	24	advance_on_keypress_ZEE	18	stimuli_distractor_trianglediamonds.svg	stimuli_target_rectangletriangles.svg	9	yes	57	0	462	6	3	antiphase_hc_soi.wav	1	6	2	noise_calib_stim_LEFT.wav	1	4	blb_dichoticlistening_ba-ka.mp3	ba	ka	1	other
6.6.1	win	2023-06-13	20:10:30	20:19:38	519230	62e185484154c451882a8a3d	2	1	main_z	24	main_z	19	stimuli_target_trianglesquares.svg	stimuli_distractor_diamondtriangles.svg	22	yes	44	1	562	6	3	antiphase_hc_soi.wav	1	6	2	noise_calib_stim_LEFT.wav	1	4	blb_dichoticlistening_ba-ka.mp3	ba	ka	1	other
6.6.1	win	2023-06-13	20:10:30	20:19:38	519230	62e185484154c451882a8a3d	2	1	main_z	24	advance_on_keypress_ZEE	20	stimuli_target_trianglesquares.svg	stimuli_distractor_diamondtriangles.svg	22	yes	57	0	276	6	3	antiphase_hc_soi.wav	1	6	2	noise_calib_stim_LEFT.wav	1	4	blb_dichoticlistening_ba-ka.mp3	ba	ka	1	other
6.6.1	win	2023-06-13	20:10:30	20:19:41	522134	62e185484154c451882a8a3d	2	1	main_z	24	main_z	21	stimuli_distractor_trianglediamonds.svg	stimuli_distractor_trianglediamonds.svg	33	no	0	1	2000	6	3	antiphase_hc_soi.wav	1	6	2	noise_calib_stim_LEFT.wav	1	4	blb_dichoticlistening_ba-ka.mp3	ba	ka	1	other
6.6.1	win	2023-06-13	20:10:30	20:19:41	522134	62e185484154c451882a8a3d	2	1	main_z	24	advance_on_keypress_ZEE	22	stimuli_distractor_trianglediamonds.svg	stimuli_distractor_trianglediamonds.svg	33	no	57	0	343	6	3	antiphase_hc_soi.wav	1	6	2	noise_calib_stim_LEFT.wav	1	4	blb_dichoticlistening_ba-ka.mp3	ba	ka	1	other
6.6.1	win	2023-06-13	20:10:30	20:19:42	523694	62e185484154c451882a8a3d	2	1	main_z	24	main_z	23	stimuli_target_rectanglediamonds.svg	stimuli_distractor_diamondtriangles.svg	6	yes	44	1	576	6	3	antiphase_hc_soi.wav	1	6	2	noise_calib_stim_LEFT.wav	1	4	blb_dichoticlistening_ba-ka.mp3	ba	ka	1	other
6.6.1	win	2023-06-13	20:10:30	20:19:42	523694	62e185484154c451882a8a3d	2	1	main_z	24	advance_on_keypress_ZEE	24	stimuli_target_rectanglediamonds.svg	stimuli_distractor_diamondtriangles.svg	6	yes	57	0	289	6	3	antiphase_hc_soi.wav	1	6	2	noise_calib_stim_LEFT.wav	1	4	blb_dichoticlistening_ba-ka.mp3	ba	ka	1	other
6.6.1	win	2023-06-13	20:10:30	20:19:44	525158	62e185484154c451882a8a3d	2	1	main_z	24	main_z	25	stimuli_target_trianglerectangles.svg	stimuli_distractor_trianglediamonds.svg	17	yes	44	1	540	6	3	antiphase_hc_soi.wav	1	6	2	noise_calib_stim_LEFT.wav	1	4	blb_dichoticlistening_ba-ka.mp3	ba	ka	1	other
6.6.1	win	2023-06-13	20:10:30	20:19:44	525158	62e185484154c451882a8a3d	2	1	main_z	24	advance_on_keypress_ZEE	26	stimuli_target_trianglerectangles.svg	stimuli_distractor_trianglediamonds.svg	17	yes	57	0	198	6	3	antiphase_hc_soi.wav	1	6	2	noise_calib_stim_LEFT.wav	1	4	blb_dichoticlistening_ba-ka.mp3	ba	ka	1	other
6.6.1	win	2023-06-13	20:10:30	20:19:45	526590	62e185484154c451882a8a3d	2	1	main_z	24	main_z	27	stimuli_distractor_diamondtriangles.svg	stimuli_target_trianglesquares.svg	30	yes	44	1	589	6	3	antiphase_hc_soi.wav	1	6	2	noise_calib_stim_LEFT.wav	1	4	blb_dichoticlistening_ba-ka.mp3	ba	ka	1	other
6.6.1	win	2023-06-13	20:10:30	20:19:45	526590	62e185484154c451882a8a3d	2	1	main_z	24	advance_on_keypress_ZEE	28	stimuli_distractor_diamondtriangles.svg	stimuli_target_trianglesquares.svg	30	yes	57	0	221	6	3	antiphase_hc_soi.wav	1	6	2	noise_calib_stim_LEFT.wav	1	4	blb_dichoticlistening_ba-ka.mp3	ba	ka	1	other
6.6.1	win	2023-06-13	20:10:30	20:19:46	527982	62e185484154c451882a8a3d	2	1	main_z	24	main_z	29	stimuli_target_rectangletriangles.svg	stimuli_distractor_diamondtriangles.svg	5	yes	44	1	531	6	3	antiphase_hc_soi.wav	1	6	2	noise_calib_stim_LEFT.wav	1	4	blb_dichoticlistening_ba-ka.mp3	ba	ka	1	other
6.6.1	win	2023-06-13	20:10:30	20:19:46	527982	62e185484154c451882a8a3d	2	1	main_z	24	advance_on_keypress_ZEE	30	stimuli_target_rectangletriangles.svg	stimuli_distractor_diamondtriangles.svg	5	yes	57	0	133	6	3	antiphase_hc_soi.wav	1	6	2	noise_calib_stim_LEFT.wav	1	4	blb_dichoticlistening_ba-ka.mp3	ba	ka	1	other
6.6.1	win	2023-06-13	20:10:30	20:19:49	530768	62e185484154c451882a8a3d	2	1	main_z	24	main_z	31	stimuli_distractor_diamondtriangles.svg	stimuli_target_trianglerectangles.svg	29	yes	0	0	2000	6	3	antiphase_hc_soi.wav	1	6	2	noise_calib_stim_LEFT.wav	1	4	blb_dichoticlistening_ba-ka.mp3	ba	ka	1	other
6.6.1	win	2023-06-13	20:10:30	20:19:49	530768	62e185484154c451882a8a3d	2	1	main_z	24	advance_on_keypress_ZEE	32	stimuli_distractor_diamondtriangles.svg	stimuli_target_trianglerectangles.svg	29	yes	57	0	718	6	3	antiphase_hc_soi.wav	1	6	2	noise_calib_stim_LEFT.wav	1	4	blb_dichoticlistening_ba-ka.mp3	ba	ka	1	other
6.6.1	win	2023-06-13	20:10:30	20:19:51	532814	62e185484154c451882a8a3d	2	1	main_z	24	main_z	33	stimuli_target_diamondsquares.svg	stimuli_distractor_diamondtriangles.svg	24	yes	44	1	680	6	3	antiphase_hc_soi.wav	1	6	2	noise_calib_stim_LEFT.wav	1	4	blb_dichoticlistening_ba-ka.mp3	ba	ka	1	other
6.6.1	win	2023-06-13	20:10:30	20:19:51	532814	62e185484154c451882a8a3d	2	1	main_z	24	advance_on_keypress_ZEE	34	stimuli_target_diamondsquares.svg	stimuli_distractor_diamondtriangles.svg	24	yes	57	0	252	6	3	antiphase_hc_soi.wav	1	6	2	noise_calib_stim_LEFT.wav	1	4	blb_dichoticlistening_ba-ka.mp3	ba	ka	1	other
6.6.1	win	2023-06-13	20:10:30	20:19:54	535702	62e185484154c451882a8a3d	2	1	main_z	24	main_z	35	stimuli_distractor_trianglediamonds.svg	stimuli_target_trianglerectangles.svg	25	yes	0	0	2000	6	3	antiphase_hc_soi.wav	1	6	2	noise_calib_stim_LEFT.wav	1	4	blb_dichoticlistening_ba-ka.mp3	ba	ka	1	other
6.6.1	win	2023-06-13	20:10:30	20:19:54	535702	62e185484154c451882a8a3d	2	1	main_z	24	advance_on_keypress_ZEE	36	stimuli_distractor_trianglediamonds.svg	stimuli_target_trianglerectangles.svg	25	yes	57	0	128	6	3	antiphase_hc_soi.wav	1	6	2	noise_calib_stim_LEFT.wav	1	4	blb_dichoticlistening_ba-ka.mp3	ba	ka	1	other
6.6.1	win	2023-06-13	20:10:30	20:19:55	537038	62e185484154c451882a8a3d	2	1	main_z	24	main_z	37	stimuli_distractor_diamondtriangles.svg	stimuli_distractor_trianglediamonds.svg	38	no	44	0	570	6	3	antiphase_hc_soi.wav	1	6	2	noise_calib_stim_LEFT.wav	1	4	blb_dichoticlistening_ba-ka.mp3	ba	ka	1	other
6.6.1	win	2023-06-13	20:10:30	20:19:55	537038	62e185484154c451882a8a3d	2	1	main_z	24	advance_on_keypress_ZEE	38	stimuli_distractor_diamondtriangles.svg	stimuli_distractor_trianglediamonds.svg	38	no	57	0	355	6	3	antiphase_hc_soi.wav	1	6	2	noise_calib_stim_LEFT.wav	1	4	blb_dichoticlistening_ba-ka.mp3	ba	ka	1	other
6.6.1	win	2023-06-13	20:10:30	20:19:58	540034	62e185484154c451882a8a3d	2	1	main_z	24	main_z	39	stimuli_distractor_diamondtriangles.svg	stimuli_distractor_trianglediamonds.svg	37	no	0	1	2000	6	3	antiphase_hc_soi.wav	1	6	2	noise_calib_stim_LEFT.wav	1	4	blb_dichoticlistening_ba-ka.mp3	ba	ka	1	other
6.6.1	win	2023-06-13	20:10:30	20:19:58	540034	62e185484154c451882a8a3d	2	1	main_z	24	advance_on_keypress_ZEE	40	stimuli_distractor_diamondtriangles.svg	stimuli_distractor_trianglediamonds.svg	37	no	57	0	531	6	3	antiphase_hc_soi.wav	1	6	2	noise_calib_stim_LEFT.wav	1	4	blb_dichoticlistening_ba-ka.mp3	ba	ka	1	other
6.6.1	win	2023-06-13	20:10:30	20:20:00	541678	62e185484154c451882a8a3d	2	1	main_z	24	main_z	41	stimuli_distractor_trianglediamonds.svg	stimuli_target_trianglesquares.svg	26	yes	44	1	461	6	3	antiphase_hc_soi.wav	1	6	2	noise_calib_stim_LEFT.wav	1	4	blb_dichoticlistening_ba-ka.mp3	ba	ka	1	other
6.6.1	win	2023-06-13	20:10:30	20:20:00	541678	62e185484154c451882a8a3d	2	1	main_z	24	advance_on_keypress_ZEE	42	stimuli_distractor_trianglediamonds.svg	stimuli_target_trianglesquares.svg	26	yes	57	0	218	6	3	antiphase_hc_soi.wav	1	6	2	noise_calib_stim_LEFT.wav	1	4	blb_dichoticlistening_ba-ka.mp3	ba	ka	1	other
6.6.1	win	2023-06-13	20:10:30	20:20:01	542998	62e185484154c451882a8a3d	2	1	main_z	24	main_z	43	stimuli_distractor_trianglediamonds.svg	stimuli_target_diamondsquares.svg	28	yes	44	1	464	6	3	antiphase_hc_soi.wav	1	6	2	noise_calib_stim_LEFT.wav	1	4	blb_dichoticlistening_ba-ka.mp3	ba	ka	1	other
6.6.1	win	2023-06-13	20:10:30	20:20:01	542998	62e185484154c451882a8a3d	2	1	main_z	24	advance_on_keypress_ZEE	44	stimuli_distractor_trianglediamonds.svg	stimuli_target_diamondsquares.svg	28	yes	57	0	205	6	3	antiphase_hc_soi.wav	1	6	2	noise_calib_stim_LEFT.wav	1	4	blb_dichoticlistening_ba-ka.mp3	ba	ka	1	other
6.6.1	win	2023-06-13	20:10:30	20:20:04	545834	62e185484154c451882a8a3d	2	1	main_z	24	main_z	45	stimuli_distractor_diamondtriangles.svg	stimuli_target_diamondsquares.svg	32	yes	0	0	2000	6	3	antiphase_hc_soi.wav	1	6	2	noise_calib_stim_LEFT.wav	1	4	blb_dichoticlistening_ba-ka.mp3	ba	ka	1	other
6.6.1	win	2023-06-13	20:10:30	20:20:04	545834	62e185484154c451882a8a3d	2	1	main_z	24	advance_on_keypress_ZEE	46	stimuli_distractor_diamondtriangles.svg	stimuli_target_diamondsquares.svg	32	yes	57	0	243	6	3	antiphase_hc_soi.wav	1	6	2	noise_calib_stim_LEFT.wav	1	4	blb_dichoticlistening_ba-ka.mp3	ba	ka	1	other
6.6.1	win	2023-06-13	20:10:30	20:20:06	547232	62e185484154c451882a8a3d	2	1	main_z	24	main_z	47	stimuli_distractor_trianglediamonds.svg	stimuli_target_squarediamonds.svg	12	yes	44	1	505	6	3	antiphase_hc_soi.wav	1	6	2	noise_calib_stim_LEFT.wav	1	4	blb_dichoticlistening_ba-ka.mp3	ba	ka	1	other
6.6.1	win	2023-06-13	20:10:30	20:20:06	547232	62e185484154c451882a8a3d	2	1	main_z	24	advance_on_keypress_ZEE	48	stimuli_distractor_trianglediamonds.svg	stimuli_target_squarediamonds.svg	12	yes	57	0	219	6	3	antiphase_hc_soi.wav	1	6	2	noise_calib_stim_LEFT.wav	1	4	blb_dichoticlistening_ba-ka.mp3	ba	ka	1	other
6.6.1	win	2023-06-13	20:10:30	20:20:07	548750	62e185484154c451882a8a3d	2	1	main_z	24	main_z	49	stimuli_distractor_diamondtriangles.svg	stimuli_target_rectangletriangles.svg	13	yes	44	1	649	6	3	antiphase_hc_soi.wav	1	6	2	noise_calib_stim_LEFT.wav	1	4	blb_dichoticlistening_ba-ka.mp3	ba	ka	1	other
6.6.1	win	2023-06-13	20:10:30	20:20:07	548750	62e185484154c451882a8a3d	2	1	main_z	24	advance_on_keypress_ZEE	50	stimuli_distractor_diamondtriangles.svg	stimuli_target_rectangletriangles.svg	13	yes	57	0	215	6	3	antiphase_hc_soi.wav	1	6	2	noise_calib_stim_LEFT.wav	1	4	blb_dichoticlistening_ba-ka.mp3	ba	ka	1	other
6.6.1	win	2023-06-13	20:10:30	20:20:09	550198	62e185484154c451882a8a3d	2	1	main_z	24	main_z	51	stimuli_target_rectanglediamonds.svg	stimuli_distractor_trianglediamonds.svg	2	yes	44	1	581	6	3	antiphase_hc_soi.wav	1	6	2	noise_calib_stim_LEFT.wav	1	4	blb_dichoticlistening_ba-ka.mp3	ba	ka	1	other
6.6.1	win	2023-06-13	20:10:30	20:20:09	550198	62e185484154c451882a8a3d	2	1	main_z	24	advance_on_keypress_ZEE	52	stimuli_target_rectanglediamonds.svg	stimuli_distractor_trianglediamonds.svg	2	yes	57	0	189	6	3	antiphase_hc_soi.wav	1	6	2	noise_calib_stim_LEFT.wav	1	4	blb_dichoticlistening_ba-ka.mp3	ba	ka	1	other
6.6.1	win	2023-06-13	20:10:30	20:20:10	551702	62e185484154c451882a8a3d	2	1	main_z	24	main_z	53	stimuli_distractor_diamondtriangles.svg	stimuli_target_squaretriangles.svg	15	yes	44	1	685	6	3	antiphase_hc_soi.wav	1	6	2	noise_calib_stim_LEFT.wav	1	4	blb_dichoticlistening_ba-ka.mp3	ba	ka	1	other
6.6.1	win	2023-06-13	20:10:30	20:20:10	551702	62e185484154c451882a8a3d	2	1	main_z	24	advance_on_keypress_ZEE	54	stimuli_distractor_diamondtriangles.svg	stimuli_target_squaretriangles.svg	15	yes	57	0	104	6	3	antiphase_hc_soi.wav	1	6	2	noise_calib_stim_LEFT.wav	1	4	blb_dichoticlistening_ba-ka.mp3	ba	ka	1	other
6.6.1	win	2023-06-13	20:10:30	20:20:11	552966	62e185484154c451882a8a3d	2	1	main_z	24	main_z	55	stimuli_target_squaretriangles.svg	stimuli_distractor_trianglediamonds.svg	3	yes	44	1	515	6	3	antiphase_hc_soi.wav	1	6	2	noise_calib_stim_LEFT.wav	1	4	blb_dichoticlistening_ba-ka.mp3	ba	ka	1	other
6.6.1	win	2023-06-13	20:10:30	20:20:11	552966	62e185484154c451882a8a3d	2	1	main_z	24	advance_on_keypress_ZEE	56	stimuli_target_squaretriangles.svg	stimuli_distractor_trianglediamonds.svg	3	yes	57	0	173	6	3	antiphase_hc_soi.wav	1	6	2	noise_calib_stim_LEFT.wav	1	4	blb_dichoticlistening_ba-ka.mp3	ba	ka	1	other
6.6.1	win	2023-06-13	20:10:30	20:20:13	554373	62e185484154c451882a8a3d	2	1	main_z	24	main_z	57	stimuli_distractor_diamondtriangles.svg	stimuli_target_diamondrectangles.svg	31	yes	44	1	589	6	3	antiphase_hc_soi.wav	1	6	2	noise_calib_stim_LEFT.wav	1	4	blb_dichoticlistening_ba-ka.mp3	ba	ka	1	other
6.6.1	win	2023-06-13	20:10:30	20:20:13	554373	62e185484154c451882a8a3d	2	1	main_z	24	advance_on_keypress_ZEE	58	stimuli_distractor_diamondtriangles.svg	stimuli_target_diamondrectangles.svg	31	yes	57	0	213	6	3	antiphase_hc_soi.wav	1	6	2	noise_calib_stim_LEFT.wav	1	4	blb_dichoticlistening_ba-ka.mp3	ba	ka	1	other
6.6.1	win	2023-06-13	20:10:30	20:20:14	555765	62e185484154c451882a8a3d	2	1	main_z	24	main_z	59	stimuli_target_diamondrectangles.svg	stimuli_distractor_diamondtriangles.svg	23	yes	44	1	548	6	3	antiphase_hc_soi.wav	1	6	2	noise_calib_stim_LEFT.wav	1	4	blb_dichoticlistening_ba-ka.mp3	ba	ka	1	other
6.6.1	win	2023-06-13	20:10:30	20:20:14	555765	62e185484154c451882a8a3d	2	1	main_z	24	advance_on_keypress_ZEE	60	stimuli_target_diamondrectangles.svg	stimuli_distractor_diamondtriangles.svg	23	yes	57	0	213	6	3	antiphase_hc_soi.wav	1	6	2	noise_calib_stim_LEFT.wav	1	4	blb_dichoticlistening_ba-ka.mp3	ba	ka	1	other
6.6.1	win	2023-06-13	20:10:30	20:20:17	558617	62e185484154c451882a8a3d	2	1	main_z	24	main_z	61	stimuli_distractor_trianglediamonds.svg	stimuli_distractor_diamondtriangles.svg	35	no	0	1	2000	6	3	antiphase_hc_soi.wav	1	6	2	noise_calib_stim_LEFT.wav	1	4	blb_dichoticlistening_ba-ka.mp3	ba	ka	1	other
6.6.1	win	2023-06-13	20:10:30	20:20:17	558617	62e185484154c451882a8a3d	2	1	main_z	24	advance_on_keypress_ZEE	62	stimuli_distractor_trianglediamonds.svg	stimuli_distractor_diamondtriangles.svg	35	no	57	0	59	6	3	antiphase_hc_soi.wav	1	6	2	noise_calib_stim_LEFT.wav	1	4	blb_dichoticlistening_ba-ka.mp3	ba	ka	1	other
6.6.1	win	2023-06-13	20:10:30	20:20:18	559973	62e185484154c451882a8a3d	2	1	main_z	24	main_z	63	stimuli_distractor_diamondtriangles.svg	stimuli_target_rectanglediamonds.svg	14	yes	44	1	656	6	3	antiphase_hc_soi.wav	1	6	2	noise_calib_stim_LEFT.wav	1	4	blb_dichoticlistening_ba-ka.mp3	ba	ka	1	other
6.6.1	win	2023-06-13	20:10:30	20:20:18	559973	62e185484154c451882a8a3d	2	1	main_z	24	advance_on_keypress_ZEE	64	stimuli_distractor_diamondtriangles.svg	stimuli_target_rectanglediamonds.svg	14	yes	57	0	173	6	3	antiphase_hc_soi.wav	1	6	2	noise_calib_stim_LEFT.wav	1	4	blb_dichoticlistening_ba-ka.mp3	ba	ka	1	other
6.6.1	win	2023-06-13	20:10:30	20:20:21	562784	62e185484154c451882a8a3d	2	1	main_z	24	main_z	65	stimuli_distractor_diamondtriangles.svg	stimuli_distractor_diamondtriangles.svg	39	no	0	1	2000	6	3	antiphase_hc_soi.wav	1	6	2	noise_calib_stim_LEFT.wav	1	4	blb_dichoticlistening_ba-ka.mp3	ba	ka	1	other
6.6.1	win	2023-06-13	20:10:30	20:20:21	562784	62e185484154c451882a8a3d	2	1	main_z	24	advance_on_keypress_ZEE	66	stimuli_distractor_diamondtriangles.svg	stimuli_distractor_diamondtriangles.svg	39	no	57	0	228	6	3	antiphase_hc_soi.wav	1	6	2	noise_calib_stim_LEFT.wav	1	4	blb_dichoticlistening_ba-ka.mp3	ba	ka	1	other
6.6.1	win	2023-06-13	20:10:30	20:20:23	564205	62e185484154c451882a8a3d	2	1	main_z	24	main_z	67	stimuli_distractor_diamondtriangles.svg	stimuli_target_squarediamonds.svg	16	yes	44	1	554	6	3	antiphase_hc_soi.wav	1	6	2	noise_calib_stim_LEFT.wav	1	4	blb_dichoticlistening_ba-ka.mp3	ba	ka	1	other
6.6.1	win	2023-06-13	20:10:30	20:20:23	564205	62e185484154c451882a8a3d	2	1	main_z	24	advance_on_keypress_ZEE	68	stimuli_distractor_diamondtriangles.svg	stimuli_target_squarediamonds.svg	16	yes	57	0	180	6	3	antiphase_hc_soi.wav	1	6	2	noise_calib_stim_LEFT.wav	1	4	blb_dichoticlistening_ba-ka.mp3	ba	ka	1	other
6.6.1	win	2023-06-13	20:10:30	20:20:24	565501	62e185484154c451882a8a3d	2	1	main_z	24	main_z	69	stimuli_target_squarediamonds.svg	stimuli_distractor_diamondtriangles.svg	8	yes	44	1	467	6	3	antiphase_hc_soi.wav	1	6	2	noise_calib_stim_LEFT.wav	1	4	blb_dichoticlistening_ba-ka.mp3	ba	ka	1	other
6.6.1	win	2023-06-13	20:10:30	20:20:24	565501	62e185484154c451882a8a3d	2	1	main_z	24	advance_on_keypress_ZEE	70	stimuli_target_squarediamonds.svg	stimuli_distractor_diamondtriangles.svg	8	yes	57	0	240	6	3	antiphase_hc_soi.wav	1	6	2	noise_calib_stim_LEFT.wav	1	4	blb_dichoticlistening_ba-ka.mp3	ba	ka	1	other
6.6.1	win	2023-06-13	20:10:30	20:20:27	568384	62e185484154c451882a8a3d	2	1	main_z	24	main_z	71	stimuli_distractor_diamondtriangles.svg	stimuli_distractor_diamondtriangles.svg	40	no	0	1	2000	6	3	antiphase_hc_soi.wav	1	6	2	noise_calib_stim_LEFT.wav	1	4	blb_dichoticlistening_ba-ka.mp3	ba	ka	1	other
6.6.1	win	2023-06-13	20:10:30	20:20:27	568384	62e185484154c451882a8a3d	2	1	main_z	24	advance_on_keypress_ZEE	72	stimuli_distractor_diamondtriangles.svg	stimuli_distractor_diamondtriangles.svg	40	no	57	0	77	6	3	antiphase_hc_soi.wav	1	6	2	noise_calib_stim_LEFT.wav	1	4	blb_dichoticlistening_ba-ka.mp3	ba	ka	1	other
6.6.1	win	2023-06-13	20:10:30	20:20:28	569918	62e185484154c451882a8a3d	2	1	main_z	24	main_z	73	stimuli_distractor_trianglediamonds.svg	stimuli_distractor_trianglediamonds.svg	34	no	44	0	817	6	3	antiphase_hc_soi.wav	1	6	2	noise_calib_stim_LEFT.wav	1	4	blb_dichoticlistening_ba-ka.mp3	ba	ka	1	other
6.6.1	win	2023-06-13	20:10:30	20:20:28	569918	62e185484154c451882a8a3d	2	1	main_z	24	advance_on_keypress_ZEE	74	stimuli_distractor_trianglediamonds.svg	stimuli_distractor_trianglediamonds.svg	34	no	57	0	439	6	3	antiphase_hc_soi.wav	1	6	2	noise_calib_stim_LEFT.wav	1	4	blb_dichoticlistening_ba-ka.mp3	ba	ka	1	other
6.6.1	win	2023-06-13	20:10:30	20:20:30	571877	62e185484154c451882a8a3d	2	1	main_z	24	main_z	75	stimuli_target_squaretriangles.svg	stimuli_distractor_diamondtriangles.svg	7	yes	44	1	877	6	3	antiphase_hc_soi.wav	1	6	2	noise_calib_stim_LEFT.wav	1	4	blb_dichoticlistening_ba-ka.mp3	ba	ka	1	other
6.6.1	win	2023-06-13	20:10:30	20:20:30	571877	62e185484154c451882a8a3d	2	1	main_z	24	advance_on_keypress_ZEE	76	stimuli_target_squaretriangles.svg	stimuli_distractor_diamondtriangles.svg	7	yes	57	0	265	6	3	antiphase_hc_soi.wav	1	6	2	noise_calib_stim_LEFT.wav	1	4	blb_dichoticlistening_ba-ka.mp3	ba	ka	1	other
6.6.1	win	2023-06-13	20:10:30	20:20:32	573373	62e185484154c451882a8a3d	2	1	main_z	24	main_z	77	stimuli_target_diamondrectangles.svg	stimuli_distractor_trianglediamonds.svg	19	yes	44	1	589	6	3	antiphase_hc_soi.wav	1	6	2	noise_calib_stim_LEFT.wav	1	4	blb_dichoticlistening_ba-ka.mp3	ba	ka	1	other
6.6.1	win	2023-06-13	20:10:30	20:20:32	573373	62e185484154c451882a8a3d	2	1	main_z	24	advance_on_keypress_ZEE	78	stimuli_target_diamondrectangles.svg	stimuli_distractor_trianglediamonds.svg	19	yes	57	0	221	6	3	antiphase_hc_soi.wav	1	6	2	noise_calib_stim_LEFT.wav	1	4	blb_dichoticlistening_ba-ka.mp3	ba	ka	1	other
6.6.1	win	2023-06-13	20:10:30	20:20:33	574773	62e185484154c451882a8a3d	2	1	main_z	24	main_z	79	stimuli_target_diamondsquares.svg	stimuli_distractor_trianglediamonds.svg	20	yes	44	1	539	6	3	antiphase_hc_soi.wav	1	6	2	noise_calib_stim_LEFT.wav	1	4	blb_dichoticlistening_ba-ka.mp3	ba	ka	1	other
6.6.1	win	2023-06-13	20:10:30	20:20:33	574773	62e185484154c451882a8a3d	2	1	main_z	24	advance_on_keypress_ZEE	80	stimuli_target_diamondsquares.svg	stimuli_distractor_trianglediamonds.svg	20	yes	57	0	197	6	3	antiphase_hc_soi.wav	1	6	2	noise_calib_stim_LEFT.wav	1	4	blb_dichoticlistening_ba-ka.mp3	ba	ka	1	other
6.6.1	win	2023-06-13	20:10:30	20:20:36	577617	62e185484154c451882a8a3d	2	1	main_z	24	main_z	81	stimuli_distractor_trianglediamonds.svg	stimuli_distractor_trianglediamonds.svg	33	no	0	1	2000	6	3	antiphase_hc_soi.wav	1	6	2	noise_calib_stim_LEFT.wav	1	4	blb_dichoticlistening_ba-ka.mp3	ba	ka	1	other
6.6.1	win	2023-06-13	20:10:30	20:20:36	577617	62e185484154c451882a8a3d	2	1	main_z	24	advance_on_keypress_ZEE	82	stimuli_distractor_trianglediamonds.svg	stimuli_distractor_trianglediamonds.svg	33	no	57	0	571	6	3	antiphase_hc_soi.wav	1	6	2	noise_calib_stim_LEFT.wav	1	4	blb_dichoticlistening_ba-ka.mp3	ba	ka	1	other
6.6.1	win	2023-06-13	20:10:30	20:20:38	579365	62e185484154c451882a8a3d	2	1	main_z	24	main_z	83	stimuli_distractor_diamondtriangles.svg	stimuli_target_rectangletriangles.svg	13	yes	44	1	531	6	3	antiphase_hc_soi.wav	1	6	2	noise_calib_stim_LEFT.wav	1	4	blb_dichoticlistening_ba-ka.mp3	ba	ka	1	other
6.6.1	win	2023-06-13	20:10:30	20:20:38	579365	62e185484154c451882a8a3d	2	1	main_z	24	advance_on_keypress_ZEE	84	stimuli_distractor_diamondtriangles.svg	stimuli_target_rectangletriangles.svg	13	yes	57	0	205	6	3	antiphase_hc_soi.wav	1	6	2	noise_calib_stim_LEFT.wav	1	4	blb_dichoticlistening_ba-ka.mp3	ba	ka	1	other
6.6.1	win	2023-06-13	20:10:30	20:20:39	580757	62e185484154c451882a8a3d	2	1	main_z	24	main_z	85	stimuli_distractor_trianglediamonds.svg	stimuli_target_trianglesquares.svg	26	yes	44	1	540	6	3	antiphase_hc_soi.wav	1	6	2	noise_calib_stim_LEFT.wav	1	4	blb_dichoticlistening_ba-ka.mp3	ba	ka	1	other
6.6.1	win	2023-06-13	20:10:30	20:20:39	580757	62e185484154c451882a8a3d	2	1	main_z	24	advance_on_keypress_ZEE	86	stimuli_distractor_trianglediamonds.svg	stimuli_target_trianglesquares.svg	26	yes	57	0	230	6	3	antiphase_hc_soi.wav	1	6	2	noise_calib_stim_LEFT.wav	1	4	blb_dichoticlistening_ba-ka.mp3	ba	ka	1	other
6.6.1	win	2023-06-13	20:10:30	20:20:41	582141	62e185484154c451882a8a3d	2	1	main_z	24	main_z	87	stimuli_target_squarediamonds.svg	stimuli_distractor_trianglediamonds.svg	4	yes	44	1	524	6	3	antiphase_hc_soi.wav	1	6	2	noise_calib_stim_LEFT.wav	1	4	blb_dichoticlistening_ba-ka.mp3	ba	ka	1	other
6.6.1	win	2023-06-13	20:10:30	20:20:41	582141	62e185484154c451882a8a3d	2	1	main_z	24	advance_on_keypress_ZEE	88	stimuli_target_squarediamonds.svg	stimuli_distractor_trianglediamonds.svg	4	yes	57	0	191	6	3	antiphase_hc_soi.wav	1	6	2	noise_calib_stim_LEFT.wav	1	4	blb_dichoticlistening_ba-ka.mp3	ba	ka	1	other
6.6.1	win	2023-06-13	20:10:30	20:20:43	584967	62e185484154c451882a8a3d	2	1	main_z	24	main_z	89	stimuli_distractor_diamondtriangles.svg	stimuli_target_squarediamonds.svg	16	yes	0	0	2000	6	3	antiphase_hc_soi.wav	1	6	2	noise_calib_stim_LEFT.wav	1	4	blb_dichoticlistening_ba-ka.mp3	ba	ka	1	other
6.6.1	win	2023-06-13	20:10:30	20:20:43	584967	62e185484154c451882a8a3d	2	1	main_z	24	advance_on_keypress_ZEE	90	stimuli_distractor_diamondtriangles.svg	stimuli_target_squarediamonds.svg	16	yes	57	0	229	6	3	antiphase_hc_soi.wav	1	6	2	noise_calib_stim_LEFT.wav	1	4	blb_dichoticlistening_ba-ka.mp3	ba	ka	1	other
6.6.1	win	2023-06-13	20:10:30	20:20:45	586429	62e185484154c451882a8a3d	2	1	main_z	24	main_z	91	stimuli_distractor_trianglediamonds.svg	stimuli_distractor_trianglediamonds.svg	34	no	44	0	595	6	3	antiphase_hc_soi.wav	1	6	2	noise_calib_stim_LEFT.wav	1	4	blb_dichoticlistening_ba-ka.mp3	ba	ka	1	other
6.6.1	win	2023-06-13	20:10:30	20:20:45	586429	62e185484154c451882a8a3d	2	1	main_z	24	advance_on_keypress_ZEE	92	stimuli_distractor_trianglediamonds.svg	stimuli_distractor_trianglediamonds.svg	34	no	57	0	243	6	3	antiphase_hc_soi.wav	1	6	2	noise_calib_stim_LEFT.wav	1	4	blb_dichoticlistening_ba-ka.mp3	ba	ka	1	other
6.6.1	win	2023-06-13	20:10:30	20:20:48	589300	62e185484154c451882a8a3d	2	1	main_z	24	main_z	93	stimuli_distractor_diamondtriangles.svg	stimuli_target_trianglesquares.svg	30	yes	0	0	2000	6	3	antiphase_hc_soi.wav	1	6	2	noise_calib_stim_LEFT.wav	1	4	blb_dichoticlistening_ba-ka.mp3	ba	ka	1	other
6.6.1	win	2023-06-13	20:10:30	20:20:48	589300	62e185484154c451882a8a3d	2	1	main_z	24	advance_on_keypress_ZEE	94	stimuli_distractor_diamondtriangles.svg	stimuli_target_trianglesquares.svg	30	yes	57	0	232	6	3	antiphase_hc_soi.wav	1	6	2	noise_calib_stim_LEFT.wav	1	4	blb_dichoticlistening_ba-ka.mp3	ba	ka	1	other
6.6.1	win	2023-06-13	20:10:30	20:20:49	590709	62e185484154c451882a8a3d	2	1	main_z	24	main_z	95	stimuli_target_diamondrectangles.svg	stimuli_distractor_trianglediamonds.svg	19	yes	44	1	525	6	3	antiphase_hc_soi.wav	1	6	2	noise_calib_stim_LEFT.wav	1	4	blb_dichoticlistening_ba-ka.mp3	ba	ka	1	other
6.6.1	win	2023-06-13	20:10:30	20:20:49	590709	62e185484154c451882a8a3d	2	1	main_z	24	advance_on_keypress_ZEE	96	stimuli_target_diamondrectangles.svg	stimuli_distractor_trianglediamonds.svg	19	yes	57	0	176	6	3	antiphase_hc_soi.wav	1	6	2	noise_calib_stim_LEFT.wav	1	4	blb_dichoticlistening_ba-ka.mp3	ba	ka	1	other
6.6.1	win	2023-06-13	20:10:30	20:20:50	592005	62e185484154c451882a8a3d	2	1	main_z	24	main_z	97	stimuli_target_trianglerectangles.svg	stimuli_distractor_diamondtriangles.svg	21	yes	44	1	488	6	3	antiphase_hc_soi.wav	1	6	2	noise_calib_stim_LEFT.wav	1	4	blb_dichoticlistening_ba-ka.mp3	ba	ka	1	other
6.6.1	win	2023-06-13	20:10:30	20:20:50	592005	62e185484154c451882a8a3d	2	1	main_z	24	advance_on_keypress_ZEE	98	stimuli_target_trianglerectangles.svg	stimuli_distractor_diamondtriangles.svg	21	yes	57	0	252	6	3	antiphase_hc_soi.wav	1	6	2	noise_calib_stim_LEFT.wav	1	4	blb_dichoticlistening_ba-ka.mp3	ba	ka	1	other
6.6.1	win	2023-06-13	20:10:30	20:20:53	594900	62e185484154c451882a8a3d	2	1	main_z	24	main_z	99	stimuli_distractor_trianglediamonds.svg	stimuli_target_rectangletriangles.svg	9	yes	0	0	2000	6	3	antiphase_hc_soi.wav	1	6	2	noise_calib_stim_LEFT.wav	1	4	blb_dichoticlistening_ba-ka.mp3	ba	ka	1	other
6.6.1	win	2023-06-13	20:10:30	20:20:53	594900	62e185484154c451882a8a3d	2	1	main_z	24	advance_on_keypress_ZEE	100	stimuli_distractor_trianglediamonds.svg	stimuli_target_rectangletriangles.svg	9	yes	57	0	256	6	3	antiphase_hc_soi.wav	1	6	2	noise_calib_stim_LEFT.wav	1	4	blb_dichoticlistening_ba-ka.mp3	ba	ka	1	other
6.6.1	win	2023-06-13	20:10:30	20:20:55	596437	62e185484154c451882a8a3d	2	1	main_z	24	main_z	101	stimuli_distractor_diamondtriangles.svg	stimuli_target_diamondsquares.svg	32	yes	44	1	637	6	3	antiphase_hc_soi.wav	1	6	2	noise_calib_stim_LEFT.wav	1	4	blb_dichoticlistening_ba-ka.mp3	ba	ka	1	other
6.6.1	win	2023-06-13	20:10:30	20:20:55	596437	62e185484154c451882a8a3d	2	1	main_z	24	advance_on_keypress_ZEE	102	stimuli_distractor_diamondtriangles.svg	stimuli_target_diamondsquares.svg	32	yes	57	0	243	6	3	antiphase_hc_soi.wav	1	6	2	noise_calib_stim_LEFT.wav	1	4	blb_dichoticlistening_ba-ka.mp3	ba	ka	1	other
6.6.1	win	2023-06-13	20:10:30	20:20:58	599317	62e185484154c451882a8a3d	2	1	main_z	24	main_z	103	stimuli_distractor_trianglediamonds.svg	stimuli_target_trianglerectangles.svg	25	yes	0	0	2000	6	3	antiphase_hc_soi.wav	1	6	2	noise_calib_stim_LEFT.wav	1	4	blb_dichoticlistening_ba-ka.mp3	ba	ka	1	other
6.6.1	win	2023-06-13	20:10:30	20:20:58	599317	62e185484154c451882a8a3d	2	1	main_z	24	advance_on_keypress_ZEE	104	stimuli_distractor_trianglediamonds.svg	stimuli_target_trianglerectangles.svg	25	yes	57	0	408	6	3	antiphase_hc_soi.wav	1	6	2	noise_calib_stim_LEFT.wav	1	4	blb_dichoticlistening_ba-ka.mp3	ba	ka	1	other
6.6.1	win	2023-06-13	20:10:30	20:21:01	602367	62e185484154c451882a8a3d	2	1	main_z	24	main_z	105	stimuli_distractor_diamondtriangles.svg	stimuli_distractor_trianglediamonds.svg	37	no	0	1	2000	6	3	antiphase_hc_soi.wav	1	6	2	noise_calib_stim_LEFT.wav	1	4	blb_dichoticlistening_ba-ka.mp3	ba	ka	1	other
6.6.1	win	2023-06-13	20:10:30	20:21:01	602367	62e185484154c451882a8a3d	2	1	main_z	24	advance_on_keypress_ZEE	106	stimuli_distractor_diamondtriangles.svg	stimuli_distractor_trianglediamonds.svg	37	no	57	0	222	6	3	antiphase_hc_soi.wav	1	6	2	noise_calib_stim_LEFT.wav	1	4	blb_dichoticlistening_ba-ka.mp3	ba	ka	1	other
6.6.1	win	2023-06-13	20:10:30	20:21:02	603709	62e185484154c451882a8a3d	2	1	main_z	24	main_z	107	stimuli_target_squaretriangles.svg	stimuli_distractor_trianglediamonds.svg	3	yes	44	1	476	6	3	antiphase_hc_soi.wav	1	6	2	noise_calib_stim_LEFT.wav	1	4	blb_dichoticlistening_ba-ka.mp3	ba	ka	1	other
6.6.1	win	2023-06-13	20:10:30	20:21:02	603709	62e185484154c451882a8a3d	2	1	main_z	24	advance_on_keypress_ZEE	108	stimuli_target_squaretriangles.svg	stimuli_distractor_trianglediamonds.svg	3	yes	57	0	208	6	3	antiphase_hc_soi.wav	1	6	2	noise_calib_stim_LEFT.wav	1	4	blb_dichoticlistening_ba-ka.mp3	ba	ka	1	other
6.6.1	win	2023-06-13	20:10:30	20:21:03	605005	62e185484154c451882a8a3d	2	1	main_z	24	main_z	109	stimuli_target_diamondsquares.svg	stimuli_distractor_diamondtriangles.svg	24	yes	44	1	455	6	3	antiphase_hc_soi.wav	1	6	2	noise_calib_stim_LEFT.wav	1	4	blb_dichoticlistening_ba-ka.mp3	ba	ka	1	other
6.6.1	win	2023-06-13	20:10:30	20:21:03	605005	62e185484154c451882a8a3d	2	1	main_z	24	advance_on_keypress_ZEE	110	stimuli_target_diamondsquares.svg	stimuli_distractor_diamondtriangles.svg	24	yes	57	0	212	6	3	antiphase_hc_soi.wav	1	6	2	noise_calib_stim_LEFT.wav	1	4	blb_dichoticlistening_ba-ka.mp3	ba	ka	1	other
6.6.1	win	2023-06-13	20:10:30	20:21:06	607850	62e185484154c451882a8a3d	2	1	main_z	24	main_z	111	stimuli_distractor_trianglediamonds.svg	stimuli_distractor_diamondtriangles.svg	35	no	0	1	2000	6	3	antiphase_hc_soi.wav	1	6	2	noise_calib_stim_LEFT.wav	1	4	blb_dichoticlistening_ba-ka.mp3	ba	ka	1	other
6.6.1	win	2023-06-13	20:10:30	20:21:06	607850	62e185484154c451882a8a3d	2	1	main_z	24	advance_on_keypress_ZEE	112	stimuli_distractor_trianglediamonds.svg	stimuli_distractor_diamondtriangles.svg	35	no	57	0	154	6	3	antiphase_hc_soi.wav	1	6	2	noise_calib_stim_LEFT.wav	1	4	blb_dichoticlistening_ba-ka.mp3	ba	ka	1	other
6.6.1	win	2023-06-13	20:10:30	20:21:07	609077	62e185484154c451882a8a3d	2	1	main_z	24	main_z	113	stimuli_target_rectangletriangles.svg	stimuli_distractor_trianglediamonds.svg	1	yes	44	1	427	6	3	antiphase_hc_soi.wav	1	6	2	noise_calib_stim_LEFT.wav	1	4	blb_dichoticlistening_ba-ka.mp3	ba	ka	1	other
6.6.1	win	2023-06-13	20:10:30	20:21:07	609077	62e185484154c451882a8a3d	2	1	main_z	24	advance_on_keypress_ZEE	114	stimuli_target_rectangletriangles.svg	stimuli_distractor_trianglediamonds.svg	1	yes	57	0	258	6	3	antiphase_hc_soi.wav	1	6	2	noise_calib_stim_LEFT.wav	1	4	blb_dichoticlistening_ba-ka.mp3	ba	ka	1	other
6.6.1	win	2023-06-13	20:10:30	20:21:09	610389	62e185484154c451882a8a3d	2	1	main_z	24	main_z	115	stimuli_target_rectangletriangles.svg	stimuli_distractor_diamondtriangles.svg	5	yes	44	1	422	6	3	antiphase_hc_soi.wav	1	6	2	noise_calib_stim_LEFT.wav	1	4	blb_dichoticlistening_ba-ka.mp3	ba	ka	1	other
6.6.1	win	2023-06-13	20:10:30	20:21:09	610389	62e185484154c451882a8a3d	2	1	main_z	24	advance_on_keypress_ZEE	116	stimuli_target_rectangletriangles.svg	stimuli_distractor_diamondtriangles.svg	5	yes	57	0	269	6	3	antiphase_hc_soi.wav	1	6	2	noise_calib_stim_LEFT.wav	1	4	blb_dichoticlistening_ba-ka.mp3	ba	ka	1	other
6.6.1	win	2023-06-13	20:10:30	20:21:10	611725	62e185484154c451882a8a3d	2	1	main_z	24	main_z	117	stimuli_target_squaretriangles.svg	stimuli_distractor_diamondtriangles.svg	7	yes	44	1	425	6	3	antiphase_hc_soi.wav	1	6	2	noise_calib_stim_LEFT.wav	1	4	blb_dichoticlistening_ba-ka.mp3	ba	ka	1	other
6.6.1	win	2023-06-13	20:10:30	20:21:10	611725	62e185484154c451882a8a3d	2	1	main_z	24	advance_on_keypress_ZEE	118	stimuli_target_squaretriangles.svg	stimuli_distractor_diamondtriangles.svg	7	yes	57	0	280	6	3	antiphase_hc_soi.wav	1	6	2	noise_calib_stim_LEFT.wav	1	4	blb_dichoticlistening_ba-ka.mp3	ba	ka	1	other
6.6.1	win	2023-06-13	20:10:30	20:21:11	613053	62e185484154c451882a8a3d	2	1	main_z	24	main_z	119	stimuli_target_diamondrectangles.svg	stimuli_distractor_diamondtriangles.svg	23	yes	44	1	420	6	3	antiphase_hc_soi.wav	1	6	2	noise_calib_stim_LEFT.wav	1	4	blb_dichoticlistening_ba-ka.mp3	ba	ka	1	other
6.6.1	win	2023-06-13	20:10:30	20:21:11	613053	62e185484154c451882a8a3d	2	1	main_z	24	advance_on_keypress_ZEE	120	stimuli_target_diamondrectangles.svg	stimuli_distractor_diamondtriangles.svg	23	yes	57	0	226	6	3	antiphase_hc_soi.wav	1	6	2	noise_calib_stim_LEFT.wav	1	4	blb_dichoticlistening_ba-ka.mp3	ba	ka	1	other
6.6.1	win	2023-06-13	20:10:30	20:21:14	615917	62e185484154c451882a8a3d	2	1	main_z	24	main_z	121	stimuli_distractor_diamondtriangles.svg	stimuli_distractor_diamondtriangles.svg	39	no	0	1	2000	6	3	antiphase_hc_soi.wav	1	6	2	noise_calib_stim_LEFT.wav	1	4	blb_dichoticlistening_ba-ka.mp3	ba	ka	1	other
6.6.1	win	2023-06-13	20:10:30	20:21:14	615917	62e185484154c451882a8a3d	2	1	main_z	24	advance_on_keypress_ZEE	122	stimuli_distractor_diamondtriangles.svg	stimuli_distractor_diamondtriangles.svg	39	no	57	0	344	6	3	antiphase_hc_soi.wav	1	6	2	noise_calib_stim_LEFT.wav	1	4	blb_dichoticlistening_ba-ka.mp3	ba	ka	1	other
6.6.1	win	2023-06-13	20:10:30	20:21:17	618900	62e185484154c451882a8a3d	2	1	main_z	24	main_z	123	stimuli_distractor_diamondtriangles.svg	stimuli_target_trianglerectangles.svg	29	yes	0	0	2000	6	3	antiphase_hc_soi.wav	1	6	2	noise_calib_stim_LEFT.wav	1	4	blb_dichoticlistening_ba-ka.mp3	ba	ka	1	other
6.6.1	win	2023-06-13	20:10:30	20:21:17	618900	62e185484154c451882a8a3d	2	1	main_z	24	advance_on_keypress_ZEE	124	stimuli_distractor_diamondtriangles.svg	stimuli_target_trianglerectangles.svg	29	yes	57	0	200	6	3	antiphase_hc_soi.wav	1	6	2	noise_calib_stim_LEFT.wav	1	4	blb_dichoticlistening_ba-ka.mp3	ba	ka	1	other
6.6.1	win	2023-06-13	20:10:30	20:21:19	620197	62e185484154c451882a8a3d	2	1	main_z	24	main_z	125	stimuli_target_rectanglediamonds.svg	stimuli_distractor_diamondtriangles.svg	6	yes	44	1	447	6	3	antiphase_hc_soi.wav	1	6	2	noise_calib_stim_LEFT.wav	1	4	blb_dichoticlistening_ba-ka.mp3	ba	ka	1	other
6.6.1	win	2023-06-13	20:10:30	20:21:19	620197	62e185484154c451882a8a3d	2	1	main_z	24	advance_on_keypress_ZEE	126	stimuli_target_rectanglediamonds.svg	stimuli_distractor_diamondtriangles.svg	6	yes	57	0	253	6	3	antiphase_hc_soi.wav	1	6	2	noise_calib_stim_LEFT.wav	1	4	blb_dichoticlistening_ba-ka.mp3	ba	ka	1	other
6.6.1	win	2023-06-13	20:10:30	20:21:21	623083	62e185484154c451882a8a3d	2	1	main_z	24	main_z	127	stimuli_distractor_diamondtriangles.svg	stimuli_distractor_trianglediamonds.svg	38	no	0	1	2000	6	3	antiphase_hc_soi.wav	1	6	2	noise_calib_stim_LEFT.wav	1	4	blb_dichoticlistening_ba-ka.mp3	ba	ka	1	other
6.6.1	win	2023-06-13	20:10:30	20:21:21	623083	62e185484154c451882a8a3d	2	1	main_z	24	advance_on_keypress_ZEE	128	stimuli_distractor_diamondtriangles.svg	stimuli_distractor_trianglediamonds.svg	38	no	57	0	225	6	3	antiphase_hc_soi.wav	1	6	2	noise_calib_stim_LEFT.wav	1	4	blb_dichoticlistening_ba-ka.mp3	ba	ka	1	other
6.6.1	win	2023-06-13	20:10:30	20:21:23	624445	62e185484154c451882a8a3d	2	1	main_z	24	main_z	129	stimuli_distractor_trianglediamonds.svg	stimuli_target_diamondrectangles.svg	27	yes	44	1	495	6	3	antiphase_hc_soi.wav	1	6	2	noise_calib_stim_LEFT.wav	1	4	blb_dichoticlistening_ba-ka.mp3	ba	ka	1	other
6.6.1	win	2023-06-13	20:10:30	20:21:23	624445	62e185484154c451882a8a3d	2	1	main_z	24	advance_on_keypress_ZEE	130	stimuli_distractor_trianglediamonds.svg	stimuli_target_diamondrectangles.svg	27	yes	57	0	251	6	3	antiphase_hc_soi.wav	1	6	2	noise_calib_stim_LEFT.wav	1	4	blb_dichoticlistening_ba-ka.mp3	ba	ka	1	other
6.6.1	win	2023-06-13	20:10:30	20:21:26	627333	62e185484154c451882a8a3d	2	1	main_z	24	main_z	131	stimuli_target_squarediamonds.svg	stimuli_distractor_diamondtriangles.svg	8	yes	0	0	2000	6	3	antiphase_hc_soi.wav	1	6	2	noise_calib_stim_LEFT.wav	1	4	blb_dichoticlistening_ba-ka.mp3	ba	ka	1	other
6.6.1	win	2023-06-13	20:10:30	20:21:26	627333	62e185484154c451882a8a3d	2	1	main_z	24	advance_on_keypress_ZEE	132	stimuli_target_squarediamonds.svg	stimuli_distractor_diamondtriangles.svg	8	yes	57	0	127	6	3	antiphase_hc_soi.wav	1	6	2	noise_calib_stim_LEFT.wav	1	4	blb_dichoticlistening_ba-ka.mp3	ba	ka	1	other
6.6.1	win	2023-06-13	20:10:30	20:21:29	630100	62e185484154c451882a8a3d	2	1	main_z	24	main_z	133	stimuli_distractor_trianglediamonds.svg	stimuli_target_rectanglediamonds.svg	10	yes	0	0	2000	6	3	antiphase_hc_soi.wav	1	6	2	noise_calib_stim_LEFT.wav	1	4	blb_dichoticlistening_ba-ka.mp3	ba	ka	1	other
6.6.1	win	2023-06-13	20:10:30	20:21:29	630100	62e185484154c451882a8a3d	2	1	main_z	24	advance_on_keypress_ZEE	134	stimuli_distractor_trianglediamonds.svg	stimuli_target_rectanglediamonds.svg	10	yes	57	0	57	6	3	antiphase_hc_soi.wav	1	6	2	noise_calib_stim_LEFT.wav	1	4	blb_dichoticlistening_ba-ka.mp3	ba	ka	1	other
6.6.1	win	2023-06-13	20:10:30	20:21:30	631333	62e185484154c451882a8a3d	2	1	main_z	24	main_z	135	stimuli_distractor_diamondtriangles.svg	stimuli_target_squaretriangles.svg	15	yes	44	1	533	6	3	antiphase_hc_soi.wav	1	6	2	noise_calib_stim_LEFT.wav	1	4	blb_dichoticlistening_ba-ka.mp3	ba	ka	1	other
6.6.1	win	2023-06-13	20:10:30	20:21:30	631333	62e185484154c451882a8a3d	2	1	main_z	24	advance_on_keypress_ZEE	136	stimuli_distractor_diamondtriangles.svg	stimuli_target_squaretriangles.svg	15	yes	57	0	191	6	3	antiphase_hc_soi.wav	1	6	2	noise_calib_stim_LEFT.wav	1	4	blb_dichoticlistening_ba-ka.mp3	ba	ka	1	other
6.6.1	win	2023-06-13	20:10:30	20:21:31	632637	62e185484154c451882a8a3d	2	1	main_z	24	main_z	137	stimuli_distractor_trianglediamonds.svg	stimuli_target_diamondsquares.svg	28	yes	44	1	471	6	3	antiphase_hc_soi.wav	1	6	2	noise_calib_stim_LEFT.wav	1	4	blb_dichoticlistening_ba-ka.mp3	ba	ka	1	other
6.6.1	win	2023-06-13	20:10:30	20:21:31	632637	62e185484154c451882a8a3d	2	1	main_z	24	advance_on_keypress_ZEE	138	stimuli_distractor_trianglediamonds.svg	stimuli_target_diamondsquares.svg	28	yes	57	0	203	6	3	antiphase_hc_soi.wav	1	6	2	noise_calib_stim_LEFT.wav	1	4	blb_dichoticlistening_ba-ka.mp3	ba	ka	1	other
6.6.1	win	2023-06-13	20:10:30	20:21:34	635483	62e185484154c451882a8a3d	2	1	main_z	24	main_z	139	stimuli_distractor_diamondtriangles.svg	stimuli_target_rectanglediamonds.svg	14	yes	0	0	2000	6	3	antiphase_hc_soi.wav	1	6	2	noise_calib_stim_LEFT.wav	1	4	blb_dichoticlistening_ba-ka.mp3	ba	ka	1	other
6.6.1	win	2023-06-13	20:10:30	20:21:34	635483	62e185484154c451882a8a3d	2	1	main_z	24	advance_on_keypress_ZEE	140	stimuli_distractor_diamondtriangles.svg	stimuli_target_rectanglediamonds.svg	14	yes	57	0	89	6	3	antiphase_hc_soi.wav	1	6	2	noise_calib_stim_LEFT.wav	1	4	blb_dichoticlistening_ba-ka.mp3	ba	ka	1	other
6.6.1	win	2023-06-13	20:10:30	20:21:35	636731	62e185484154c451882a8a3d	2	1	main_z	24	main_z	141	stimuli_target_diamondsquares.svg	stimuli_distractor_trianglediamonds.svg	20	yes	44	1	509	6	3	antiphase_hc_soi.wav	1	6	2	noise_calib_stim_LEFT.wav	1	4	blb_dichoticlistening_ba-ka.mp3	ba	ka	1	other
6.6.1	win	2023-06-13	20:10:30	20:21:35	636731	62e185484154c451882a8a3d	2	1	main_z	24	advance_on_keypress_ZEE	142	stimuli_target_diamondsquares.svg	stimuli_distractor_trianglediamonds.svg	20	yes	57	0	278	6	3	antiphase_hc_soi.wav	1	6	2	noise_calib_stim_LEFT.wav	1	4	blb_dichoticlistening_ba-ka.mp3	ba	ka	1	other
6.6.1	win	2023-06-13	20:10:30	20:21:36	638061	62e185484154c451882a8a3d	2	1	main_z	24	main_z	143	stimuli_target_trianglesquares.svg	stimuli_distractor_diamondtriangles.svg	22	yes	44	1	411	6	3	antiphase_hc_soi.wav	1	6	2	noise_calib_stim_LEFT.wav	1	4	blb_dichoticlistening_ba-ka.mp3	ba	ka	1	other
6.6.1	win	2023-06-13	20:10:30	20:21:36	638061	62e185484154c451882a8a3d	2	1	main_z	24	advance_on_keypress_ZEE	144	stimuli_target_trianglesquares.svg	stimuli_distractor_diamondtriangles.svg	22	yes	57	0	338	6	3	antiphase_hc_soi.wav	1	6	2	noise_calib_stim_LEFT.wav	1	4	blb_dichoticlistening_ba-ka.mp3	ba	ka	1	other
6.6.1	win	2023-06-13	20:10:30	20:21:38	639748	62e185484154c451882a8a3d	2	1	main_z	24	main_z	145	stimuli_distractor_trianglediamonds.svg	stimuli_target_squarediamonds.svg	12	yes	44	1	715	6	3	antiphase_hc_soi.wav	1	6	2	noise_calib_stim_LEFT.wav	1	4	blb_dichoticlistening_ba-ka.mp3	ba	ka	1	other
6.6.1	win	2023-06-13	20:10:30	20:21:38	639748	62e185484154c451882a8a3d	2	1	main_z	24	advance_on_keypress_ZEE	146	stimuli_distractor_trianglediamonds.svg	stimuli_target_squarediamonds.svg	12	yes	57	0	318	6	3	antiphase_hc_soi.wav	1	6	2	noise_calib_stim_LEFT.wav	1	4	blb_dichoticlistening_ba-ka.mp3	ba	ka	1	other
6.6.1	win	2023-06-13	20:10:30	20:21:40	641276	62e185484154c451882a8a3d	2	1	main_z	24	main_z	147	stimuli_target_rectanglediamonds.svg	stimuli_distractor_trianglediamonds.svg	2	yes	44	1	560	6	3	antiphase_hc_soi.wav	1	6	2	noise_calib_stim_LEFT.wav	1	4	blb_dichoticlistening_ba-ka.mp3	ba	ka	1	other
6.6.1	win	2023-06-13	20:10:30	20:21:40	641276	62e185484154c451882a8a3d	2	1	main_z	24	advance_on_keypress_ZEE	148	stimuli_target_rectanglediamonds.svg	stimuli_distractor_trianglediamonds.svg	2	yes	57	0	193	6	3	antiphase_hc_soi.wav	1	6	2	noise_calib_stim_LEFT.wav	1	4	blb_dichoticlistening_ba-ka.mp3	ba	ka	1	other
6.6.1	win	2023-06-13	20:10:30	20:21:41	642788	62e185484154c451882a8a3d	2	1	main_z	24	main_z	149	stimuli_distractor_trianglediamonds.svg	stimuli_target_squaretriangles.svg	11	yes	44	1	688	6	3	antiphase_hc_soi.wav	1	6	2	noise_calib_stim_LEFT.wav	1	4	blb_dichoticlistening_ba-ka.mp3	ba	ka	1	other
6.6.1	win	2023-06-13	20:10:30	20:21:41	642788	62e185484154c451882a8a3d	2	1	main_z	24	advance_on_keypress_ZEE	150	stimuli_distractor_trianglediamonds.svg	stimuli_target_squaretriangles.svg	11	yes	57	0	252	6	3	antiphase_hc_soi.wav	1	6	2	noise_calib_stim_LEFT.wav	1	4	blb_dichoticlistening_ba-ka.mp3	ba	ka	1	other
6.6.1	win	2023-06-13	20:10:30	20:21:44	645683	62e185484154c451882a8a3d	2	1	main_z	24	main_z	151	stimuli_target_trianglerectangles.svg	stimuli_distractor_trianglediamonds.svg	17	yes	0	0	2000	6	3	antiphase_hc_soi.wav	1	6	2	noise_calib_stim_LEFT.wav	1	4	blb_dichoticlistening_ba-ka.mp3	ba	ka	1	other
6.6.1	win	2023-06-13	20:10:30	20:21:44	645683	62e185484154c451882a8a3d	2	1	main_z	24	advance_on_keypress_ZEE	152	stimuli_target_trianglerectangles.svg	stimuli_distractor_trianglediamonds.svg	17	yes	57	0	41	6	3	antiphase_hc_soi.wav	1	6	2	noise_calib_stim_LEFT.wav	1	4	blb_dichoticlistening_ba-ka.mp3	ba	ka	1	other
6.6.1	win	2023-06-13	20:10:30	20:21:47	648366	62e185484154c451882a8a3d	2	1	main_z	24	main_z	153	stimuli_distractor_diamondtriangles.svg	stimuli_distractor_diamondtriangles.svg	40	no	0	1	2000	6	3	antiphase_hc_soi.wav	1	6	2	noise_calib_stim_LEFT.wav	1	4	blb_dichoticlistening_ba-ka.mp3	ba	ka	1	other
6.6.1	win	2023-06-13	20:10:30	20:21:47	648366	62e185484154c451882a8a3d	2	1	main_z	24	advance_on_keypress_ZEE	154	stimuli_distractor_diamondtriangles.svg	stimuli_distractor_diamondtriangles.svg	40	no	57	0	461	6	3	antiphase_hc_soi.wav	1	6	2	noise_calib_stim_LEFT.wav	1	4	blb_dichoticlistening_ba-ka.mp3	ba	ka	1	other
6.6.1	win	2023-06-13	20:10:30	20:21:48	649893	62e185484154c451882a8a3d	2	1	main_z	24	main_z	155	stimuli_distractor_diamondtriangles.svg	stimuli_target_diamondrectangles.svg	31	yes	44	1	426	6	3	antiphase_hc_soi.wav	1	6	2	noise_calib_stim_LEFT.wav	1	4	blb_dichoticlistening_ba-ka.mp3	ba	ka	1	other
6.6.1	win	2023-06-13	20:10:30	20:21:48	649893	62e185484154c451882a8a3d	2	1	main_z	24	advance_on_keypress_ZEE	156	stimuli_distractor_diamondtriangles.svg	stimuli_target_diamondrectangles.svg	31	yes	57	0	248	6	3	antiphase_hc_soi.wav	1	6	2	noise_calib_stim_LEFT.wav	1	4	blb_dichoticlistening_ba-ka.mp3	ba	ka	1	other
6.6.1	win	2023-06-13	20:10:30	20:21:50	651452	62e185484154c451882a8a3d	2	1	main_z	24	main_z	157	stimuli_target_trianglesquares.svg	stimuli_distractor_trianglediamonds.svg	18	yes	44	1	669	6	3	antiphase_hc_soi.wav	1	6	2	noise_calib_stim_LEFT.wav	1	4	blb_dichoticlistening_ba-ka.mp3	ba	ka	1	other
6.6.1	win	2023-06-13	20:10:30	20:21:50	651452	62e185484154c451882a8a3d	2	1	main_z	24	advance_on_keypress_ZEE	158	stimuli_target_trianglesquares.svg	stimuli_distractor_trianglediamonds.svg	18	yes	57	0	266	6	3	antiphase_hc_soi.wav	1	6	2	noise_calib_stim_LEFT.wav	1	4	blb_dichoticlistening_ba-ka.mp3	ba	ka	1	other
6.6.1	win	2023-06-13	20:10:30	20:21:53	654366	62e185484154c451882a8a3d	2	1	main_z	24	main_z	159	stimuli_distractor_trianglediamonds.svg	stimuli_distractor_diamondtriangles.svg	36	no	0	1	2000	6	3	antiphase_hc_soi.wav	1	6	2	noise_calib_stim_LEFT.wav	1	4	blb_dichoticlistening_ba-ka.mp3	ba	ka	1	other
6.6.1	win	2023-06-13	20:10:30	20:21:53	654366	62e185484154c451882a8a3d	2	1	main_z	24	advance_on_keypress_ZEE	160	stimuli_distractor_trianglediamonds.svg	stimuli_distractor_diamondtriangles.svg	36	no	57	0	413	6	3	antiphase_hc_soi.wav	1	6	2	noise_calib_stim_LEFT.wav	1	4	blb_dichoticlistening_ba-ka.mp3	ba	ka	1	other
6.6.1	win	2023-06-13	20:10:30	20:22:04	665286	62e185484154c451882a8a3d	2	1	practice_slash	26	practice_slash	1	stimuli_distractor_trianglediamonds.svg	stimuli_target_squarediamonds.svg	11	yes	53	1	701	6	3	antiphase_hc_soi.wav	1	6	2	noise_calib_stim_LEFT.wav	1	4	blb_dichoticlistening_ba-ka.mp3	ba	ka	1	other
6.6.1	win	2023-06-13	20:10:30	20:22:04	665286	62e185484154c451882a8a3d	2	1	practice_slash	26	advance_on_keypress_SLASH	2	stimuli_distractor_trianglediamonds.svg	stimuli_target_squarediamonds.svg	11	yes	57	0	401	6	3	antiphase_hc_soi.wav	1	6	2	noise_calib_stim_LEFT.wav	1	4	blb_dichoticlistening_ba-ka.mp3	ba	ka	1	other
6.6.1	win	2023-06-13	20:10:30	20:22:06	667414	62e185484154c451882a8a3d	2	1	practice_slash	26	practice_slash	3	stimuli_target_squarediamonds.svg	stimuli_distractor_trianglediamonds.svg	5	yes	53	1	79	6	3	antiphase_hc_soi.wav	1	6	2	noise_calib_stim_LEFT.wav	1	4	blb_dichoticlistening_ba-ka.mp3	ba	ka	1	other
6.6.1	win	2023-06-13	20:10:30	20:22:06	667414	62e185484154c451882a8a3d	2	1	practice_slash	26	advance_on_keypress_SLASH	4	stimuli_target_squarediamonds.svg	stimuli_distractor_trianglediamonds.svg	5	yes	57	0	235	6	3	antiphase_hc_soi.wav	1	6	2	noise_calib_stim_LEFT.wav	1	4	blb_dichoticlistening_ba-ka.mp3	ba	ka	1	other
6.6.1	win	2023-06-13	20:10:30	20:22:10	671300	62e185484154c451882a8a3d	2	1	practice_slash	26	practice_slash	5	stimuli_distractor_trianglediamonds.svg	stimuli_distractor_diamondtriangles.svg	16	no	0	1	2000	6	3	antiphase_hc_soi.wav	1	6	2	noise_calib_stim_LEFT.wav	1	4	blb_dichoticlistening_ba-ka.mp3	ba	ka	1	other
6.6.1	win	2023-06-13	20:10:30	20:22:10	671300	62e185484154c451882a8a3d	2	1	practice_slash	26	advance_on_keypress_SLASH	6	stimuli_distractor_trianglediamonds.svg	stimuli_distractor_diamondtriangles.svg	16	no	57	0	392	6	3	antiphase_hc_soi.wav	1	6	2	noise_calib_stim_LEFT.wav	1	4	blb_dichoticlistening_ba-ka.mp3	ba	ka	1	other
6.6.1	win	2023-06-13	20:10:30	20:22:12	673830	62e185484154c451882a8a3d	2	1	practice_slash	26	practice_slash	7	stimuli_target_diamondsquares.svg	stimuli_distractor_trianglediamonds.svg	6	yes	53	1	495	6	3	antiphase_hc_soi.wav	1	6	2	noise_calib_stim_LEFT.wav	1	4	blb_dichoticlistening_ba-ka.mp3	ba	ka	1	other
6.6.1	win	2023-06-13	20:10:30	20:22:12	673830	62e185484154c451882a8a3d	2	1	practice_slash	26	advance_on_keypress_SLASH	8	stimuli_target_diamondsquares.svg	stimuli_distractor_trianglediamonds.svg	6	yes	57	0	107	6	3	antiphase_hc_soi.wav	1	6	2	noise_calib_stim_LEFT.wav	1	4	blb_dichoticlistening_ba-ka.mp3	ba	ka	1	other
6.6.1	win	2023-06-13	20:10:30	20:22:16	677584	62e185484154c451882a8a3d	2	1	practice_slash	26	practice_slash	9	stimuli_distractor_trianglediamonds.svg	stimuli_target_diamondrectangles.svg	12	yes	0	0	2000	6	3	antiphase_hc_soi.wav	1	6	2	noise_calib_stim_LEFT.wav	1	4	blb_dichoticlistening_ba-ka.mp3	ba	ka	1	other
6.6.1	win	2023-06-13	20:10:30	20:22:16	677584	62e185484154c451882a8a3d	2	1	practice_slash	26	advance_on_keypress_SLASH	10	stimuli_distractor_trianglediamonds.svg	stimuli_target_diamondrectangles.svg	12	yes	57	0	261	6	3	antiphase_hc_soi.wav	1	6	2	noise_calib_stim_LEFT.wav	1	4	blb_dichoticlistening_ba-ka.mp3	ba	ka	1	other
6.6.1	win	2023-06-13	20:10:30	20:22:20	681484	62e185484154c451882a8a3d	2	1	practice_slash	26	practice_slash	11	stimuli_distractor_diamondtriangles.svg	stimuli_distractor_diamondtriangles.svg	13	no	0	1	2000	6	3	antiphase_hc_soi.wav	1	6	2	noise_calib_stim_LEFT.wav	1	4	blb_dichoticlistening_ba-ka.mp3	ba	ka	1	other
6.6.1	win	2023-06-13	20:10:30	20:22:20	681484	62e185484154c451882a8a3d	2	1	practice_slash	26	advance_on_keypress_SLASH	12	stimuli_distractor_diamondtriangles.svg	stimuli_distractor_diamondtriangles.svg	13	no	57	0	9	6	3	antiphase_hc_soi.wav	1	6	2	noise_calib_stim_LEFT.wav	1	4	blb_dichoticlistening_ba-ka.mp3	ba	ka	1	other
6.6.1	win	2023-06-13	20:10:30	20:22:22	683701	62e185484154c451882a8a3d	2	1	practice_slash	26	practice_slash	13	stimuli_target_rectanglediamonds.svg	stimuli_distractor_diamondtriangles.svg	1	yes	53	1	551	6	3	antiphase_hc_soi.wav	1	6	2	noise_calib_stim_LEFT.wav	1	4	blb_dichoticlistening_ba-ka.mp3	ba	ka	1	other
6.6.1	win	2023-06-13	20:10:30	20:22:22	683701	62e185484154c451882a8a3d	2	1	practice_slash	26	advance_on_keypress_SLASH	14	stimuli_target_rectanglediamonds.svg	stimuli_distractor_diamondtriangles.svg	1	yes	57	0	176	6	3	antiphase_hc_soi.wav	1	6	2	noise_calib_stim_LEFT.wav	1	4	blb_dichoticlistening_ba-ka.mp3	ba	ka	1	other
6.6.1	win	2023-06-13	20:10:30	20:22:26	687517	62e185484154c451882a8a3d	2	1	practice_slash	26	practice_slash	15	stimuli_distractor_diamondtriangles.svg	stimuli_distractor_trianglediamonds.svg	14	no	0	1	2000	6	3	antiphase_hc_soi.wav	1	6	2	noise_calib_stim_LEFT.wav	1	4	blb_dichoticlistening_ba-ka.mp3	ba	ka	1	other
6.6.1	win	2023-06-13	20:10:30	20:22:26	687517	62e185484154c451882a8a3d	2	1	practice_slash	26	advance_on_keypress_SLASH	16	stimuli_distractor_diamondtriangles.svg	stimuli_distractor_trianglediamonds.svg	14	no	57	0	16	6	3	antiphase_hc_soi.wav	1	6	2	noise_calib_stim_LEFT.wav	1	4	blb_dichoticlistening_ba-ka.mp3	ba	ka	1	other
6.6.1	win	2023-06-13	20:10:30	20:22:30	691184	62e185484154c451882a8a3d	2	1	practice_slash	26	practice_slash	17	stimuli_distractor_trianglediamonds.svg	stimuli_distractor_trianglediamonds.svg	15	no	0	1	2000	6	3	antiphase_hc_soi.wav	1	6	2	noise_calib_stim_LEFT.wav	1	4	blb_dichoticlistening_ba-ka.mp3	ba	ka	1	other
6.6.1	win	2023-06-13	20:10:30	20:22:30	691184	62e185484154c451882a8a3d	2	1	practice_slash	26	advance_on_keypress_SLASH	18	stimuli_distractor_trianglediamonds.svg	stimuli_distractor_trianglediamonds.svg	15	no	57	0	109	6	3	antiphase_hc_soi.wav	1	6	2	noise_calib_stim_LEFT.wav	1	4	blb_dichoticlistening_ba-ka.mp3	ba	ka	1	other
6.6.1	win	2023-06-13	20:10:30	20:22:32	693430	62e185484154c451882a8a3d	2	1	practice_slash	26	practice_slash	19	stimuli_distractor_diamondtriangles.svg	stimuli_target_rectangletriangles.svg	7	yes	53	1	496	6	3	antiphase_hc_soi.wav	1	6	2	noise_calib_stim_LEFT.wav	1	4	blb_dichoticlistening_ba-ka.mp3	ba	ka	1	other
6.6.1	win	2023-06-13	20:10:30	20:22:32	693430	62e185484154c451882a8a3d	2	1	practice_slash	26	advance_on_keypress_SLASH	20	stimuli_distractor_diamondtriangles.svg	stimuli_target_rectangletriangles.svg	7	yes	57	0	163	6	3	antiphase_hc_soi.wav	1	6	2	noise_calib_stim_LEFT.wav	1	4	blb_dichoticlistening_ba-ka.mp3	ba	ka	1	other
