build	computer.platform	date	time	timestamp	time_elapsed_ms	subject	group	session	blockcode	blocknum	trialcode	trialnum	stimulus_left	stimulus_right	stim_index	target_present	response	correct	latency	headphonecheck_countTestTrials	headphonecheck_index	headphonecheck_testSound	headphonecheck_correctResponse	stereocheck_countTestTrials	stereocheck_index	stereocheck_testSound	stereocheck_correctResponse	DL_index	DL_soundfile	DL_leftSound	DL_rightSound	DL_dualSound	DL_choice
6.6.1	win	2023-06-02	04:56:45	0	0	632c0075227e9b734c80424d	1	1	headphonecheck_calibration	4	headphonecheck_calibrationIntro	1			0		calibrationButton	0	3691	0	0			0	0			1				0	
6.6.1	win	2023-06-02	04:56:45	0	0	632c0075227e9b734c80424d	1	1	headphonecheck_testphase	5	test_collectResponse	3			0		first	1	661	1	3	antiphase_hc_soi.wav	1	0	0			1				0	
6.6.1	win	2023-06-02	04:56:45	0	0	632c0075227e9b734c80424d	1	1	headphonecheck_testphase	5	test_collectResponse	6			0		third	1	304	2	6	antiphase_hc_ois.wav	3	0	0			1				0	
6.6.1	win	2023-06-02	04:56:45	0	0	632c0075227e9b734c80424d	1	1	headphonecheck_testphase	5	test_collectResponse	9			0		first	1	234	3	4	antiphase_hc_sio.wav	1	0	0			1				0	
6.6.1	win	2023-06-02	04:56:45	0	0	632c0075227e9b734c80424d	1	1	headphonecheck_testphase	5	test_collectResponse	12			0		second	1	243	4	5	antiphase_hc_osi.wav	2	0	0			1				0	
6.6.1	win	2023-06-02	04:56:45	0	0	632c0075227e9b734c80424d	1	1	headphonecheck_testphase	5	test_collectResponse	15			0		third	1	250	5	2	antiphase_hc_ios.wav	3	0	0			1				0	
6.6.1	win	2023-06-02	04:56:45	0	0	632c0075227e9b734c80424d	1	1	headphonecheck_testphase	5	test_collectResponse	18			0		second	1	326	6	1	antiphase_hc_iso.wav	2	0	0			1				0	
6.6.1	win	2023-06-02	04:56:45	0	0	632c0075227e9b734c80424d	1	1	stereocheck_calibration	7	stereocheck_calibrationIntro	1			0		stereocheck_calibrationButton	0	3557	6	1	antiphase_hc_iso.wav	2	0	0			1				0	
6.6.1	win	2023-06-02	04:56:45	0	0	632c0075227e9b734c80424d	1	1	stereocheck_testphase	8	stereocheck_test_collectResponse	3			0		stereocheck_left	1	611	6	1	antiphase_hc_iso.wav	2	1	3	noise_calib_stim_LEFT.wav	1	1				0	
6.6.1	win	2023-06-02	04:56:45	0	0	632c0075227e9b734c80424d	1	1	stereocheck_testphase	8	stereocheck_test_collectResponse	6			0		stereocheck_right	1	372	6	1	antiphase_hc_iso.wav	2	2	6	noise_calib_stim_RIGHT.wav	2	1				0	
6.6.1	win	2023-06-02	04:56:45	0	0	632c0075227e9b734c80424d	1	1	stereocheck_testphase	8	stereocheck_test_collectResponse	9			0		stereocheck_left	1	321	6	1	antiphase_hc_iso.wav	2	3	1	noise_calib_stim_LEFT.wav	1	1				0	
6.6.1	win	2023-06-02	04:56:45	0	0	632c0075227e9b734c80424d	1	1	stereocheck_testphase	8	stereocheck_test_collectResponse	12			0		stereocheck_left	1	356	6	1	antiphase_hc_iso.wav	2	4	2	noise_calib_stim_LEFT.wav	1	1				0	
6.6.1	win	2023-06-02	04:56:45	0	0	632c0075227e9b734c80424d	1	1	stereocheck_testphase	8	stereocheck_test_collectResponse	15			0		stereocheck_right	1	363	6	1	antiphase_hc_iso.wav	2	5	5	noise_calib_stim_RIGHT.wav	2	1				0	
6.6.1	win	2023-06-02	04:56:45	0	0	632c0075227e9b734c80424d	1	1	stereocheck_testphase	8	stereocheck_test_collectResponse	18			0		stereocheck_right	1	387	6	1	antiphase_hc_iso.wav	2	6	4	noise_calib_stim_RIGHT.wav	2	1				0	
6.6.1	win	2023-06-02	04:56:45	0	0	632c0075227e9b734c80424d	1	1	DL_practice	11	DL_practice	2			0		ta	1	2229	6	1	antiphase_hc_iso.wav	2	6	4	noise_calib_stim_RIGHT.wav	2	18	blb_dichoticlistening_ga-ta.mp3	ga	ta	1	right
6.6.1	win	2023-06-02	04:56:45	0	0	632c0075227e9b734c80424d	1	1	DL_practice	11	DL_practice	3			0		ba	1	1852	6	1	antiphase_hc_iso.wav	2	6	4	noise_calib_stim_RIGHT.wav	2	7	blb_dichoticlistening_da-ba.mp3	da	ba	1	right
6.6.1	win	2023-06-02	04:56:45	0	0	632c0075227e9b734c80424d	1	1	DL_practice	11	DL_practice	4			0		da	1	696	6	1	antiphase_hc_iso.wav	2	6	4	noise_calib_stim_RIGHT.wav	2	8	blb_dichoticlistening_da-da.mp3	da	da	0	left
6.6.1	win	2023-06-02	04:56:45	0	0	632c0075227e9b734c80424d	1	1	DL_practice	11	DL_practice	5			0		ba	1	1283	6	1	antiphase_hc_iso.wav	2	6	4	noise_calib_stim_RIGHT.wav	2	1	blb_dichoticlistening_ba-ba.mp3	ba	ba	0	left
6.6.1	win	2023-06-02	04:56:45	0	0	632c0075227e9b734c80424d	1	1	DL_practice	11	DL_practice	6			0		pa	1	1220	6	1	antiphase_hc_iso.wav	2	6	4	noise_calib_stim_RIGHT.wav	2	29	blb_dichoticlistening_pa-pa.mp3	pa	pa	0	left
6.6.1	win	2023-06-02	04:56:45	0	0	632c0075227e9b734c80424d	1	1	DL_practice	11	DL_practice	7			0		ta	1	1682	6	1	antiphase_hc_iso.wav	2	6	4	noise_calib_stim_RIGHT.wav	2	36	blb_dichoticlistening_ta-ta.mp3	ta	ta	0	left
6.6.1	win	2023-06-02	04:56:45	0	0	632c0075227e9b734c80424d	1	1	DL_practice	11	DL_practice	8			0		pa	1	1869	6	1	antiphase_hc_iso.wav	2	6	4	noise_calib_stim_RIGHT.wav	2	23	blb_dichoticlistening_ka-pa.mp3	ka	pa	1	right
6.6.1	win	2023-06-02	04:56:45	0	0	632c0075227e9b734c80424d	1	1	DL_practice	11	DL_practice	9			0		ka	1	838	6	1	antiphase_hc_iso.wav	2	6	4	noise_calib_stim_RIGHT.wav	2	22	blb_dichoticlistening_ka-ka.mp3	ka	ka	0	left
6.6.1	win	2023-06-02	04:56:45	0	0	632c0075227e9b734c80424d	1	1	DL_practice	11	DL_practice	10			0		ga	1	1126	6	1	antiphase_hc_iso.wav	2	6	4	noise_calib_stim_RIGHT.wav	2	15	blb_dichoticlistening_ga-ga.mp3	ga	ga	0	left
6.6.1	win	2023-06-02	04:56:45	0	0	632c0075227e9b734c80424d	1	1	DL_test	13	DL_test	1			0		da	1	1154	6	1	antiphase_hc_iso.wav	2	6	4	noise_calib_stim_RIGHT.wav	2	14	blb_dichoticlistening_ga-da.mp3	ga	da	1	right
6.6.1	win	2023-06-02	04:56:45	0	0	632c0075227e9b734c80424d	1	1	DL_test	13	DL_test	2			0		ba	1	1200	6	1	antiphase_hc_iso.wav	2	6	4	noise_calib_stim_RIGHT.wav	2	7	blb_dichoticlistening_da-ba.mp3	da	ba	1	right
6.6.1	win	2023-06-02	04:56:45	0	0	632c0075227e9b734c80424d	1	1	DL_test	13	DL_test	3			0		ka	1	1369	6	1	antiphase_hc_iso.wav	2	6	4	noise_calib_stim_RIGHT.wav	2	21	blb_dichoticlistening_ka-ga.mp3	ka	ga	1	left
6.6.1	win	2023-06-02	04:56:45	0	0	632c0075227e9b734c80424d	1	1	DL_test	13	DL_test	4			0		ga	1	929	6	1	antiphase_hc_iso.wav	2	6	4	noise_calib_stim_RIGHT.wav	2	3	blb_dichoticlistening_ba-ga.mp3	ba	ga	1	right
6.6.1	win	2023-06-02	04:56:45	0	0	632c0075227e9b734c80424d	1	1	DL_test	13	DL_test	5			0		ta	1	931	6	1	antiphase_hc_iso.wav	2	6	4	noise_calib_stim_RIGHT.wav	2	18	blb_dichoticlistening_ga-ta.mp3	ga	ta	1	right
6.6.1	win	2023-06-02	04:56:45	0	0	632c0075227e9b734c80424d	1	1	DL_test	13	DL_test	6			0		pa	1	835	6	1	antiphase_hc_iso.wav	2	6	4	noise_calib_stim_RIGHT.wav	2	29	blb_dichoticlistening_pa-pa.mp3	pa	pa	0	left
6.6.1	win	2023-06-02	04:56:45	0	0	632c0075227e9b734c80424d	1	1	DL_test	13	DL_test	7			0		ta	1	1163	6	1	antiphase_hc_iso.wav	2	6	4	noise_calib_stim_RIGHT.wav	2	36	blb_dichoticlistening_ta-ta.mp3	ta	ta	0	left
6.6.1	win	2023-06-02	04:56:45	0	0	632c0075227e9b734c80424d	1	1	DL_test	13	DL_test	8			0		pa	1	725	6	1	antiphase_hc_iso.wav	2	6	4	noise_calib_stim_RIGHT.wav	2	11	blb_dichoticlistening_da-pa.mp3	da	pa	1	right
6.6.1	win	2023-06-02	04:56:45	0	0	632c0075227e9b734c80424d	1	1	DL_test	13	DL_test	9			0		ta	0	757	6	1	antiphase_hc_iso.wav	2	6	4	noise_calib_stim_RIGHT.wav	2	28	blb_dichoticlistening_pa-ka.mp3	pa	ka	1	other
6.6.1	win	2023-06-02	04:56:45	0	0	632c0075227e9b734c80424d	1	1	DL_test	13	DL_test	10			0		da	0	1197	6	1	antiphase_hc_iso.wav	2	6	4	noise_calib_stim_RIGHT.wav	2	1	blb_dichoticlistening_ba-ba.mp3	ba	ba	0	other
6.6.1	win	2023-06-02	04:56:45	0	0	632c0075227e9b734c80424d	1	1	DL_test	13	DL_test	11			0		da	1	869	6	1	antiphase_hc_iso.wav	2	6	4	noise_calib_stim_RIGHT.wav	2	8	blb_dichoticlistening_da-da.mp3	da	da	0	left
6.6.1	win	2023-06-02	04:56:45	0	0	632c0075227e9b734c80424d	1	1	DL_test	13	DL_test	12			0		da	1	1180	6	1	antiphase_hc_iso.wav	2	6	4	noise_calib_stim_RIGHT.wav	2	26	blb_dichoticlistening_pa-da.mp3	pa	da	1	right
6.6.1	win	2023-06-02	04:56:45	0	0	632c0075227e9b734c80424d	1	1	DL_test	13	DL_test	13			0		ta	1	1482	6	1	antiphase_hc_iso.wav	2	6	4	noise_calib_stim_RIGHT.wav	2	30	blb_dichoticlistening_pa-ta.mp3	pa	ta	1	right
6.6.1	win	2023-06-02	04:56:45	0	0	632c0075227e9b734c80424d	1	1	DL_test	13	DL_test	14			0		ga	1	1295	6	1	antiphase_hc_iso.wav	2	6	4	noise_calib_stim_RIGHT.wav	2	15	blb_dichoticlistening_ga-ga.mp3	ga	ga	0	left
6.6.1	win	2023-06-02	04:56:45	0	0	632c0075227e9b734c80424d	1	1	DL_test	13	DL_test	15			0		ta	1	1023	6	1	antiphase_hc_iso.wav	2	6	4	noise_calib_stim_RIGHT.wav	2	24	blb_dichoticlistening_ka-ta.mp3	ka	ta	1	right
6.6.1	win	2023-06-02	04:56:45	0	0	632c0075227e9b734c80424d	1	1	DL_test	13	DL_test	16			0		pa	1	1251	6	1	antiphase_hc_iso.wav	2	6	4	noise_calib_stim_RIGHT.wav	2	35	blb_dichoticlistening_ta-pa.mp3	ta	pa	1	right
6.6.1	win	2023-06-02	04:56:45	0	0	632c0075227e9b734c80424d	1	1	DL_test	13	DL_test	17			0		ta	1	713	6	1	antiphase_hc_iso.wav	2	6	4	noise_calib_stim_RIGHT.wav	2	12	blb_dichoticlistening_da-ta.mp3	da	ta	1	right
6.6.1	win	2023-06-02	04:56:45	0	0	632c0075227e9b734c80424d	1	1	DL_test	13	DL_test	18			0		pa	1	806	6	1	antiphase_hc_iso.wav	2	6	4	noise_calib_stim_RIGHT.wav	2	25	blb_dichoticlistening_pa-ba.mp3	pa	ba	1	left
6.6.1	win	2023-06-02	04:56:45	0	0	632c0075227e9b734c80424d	1	1	DL_test	13	DL_test	19			0		pa	1	853	6	1	antiphase_hc_iso.wav	2	6	4	noise_calib_stim_RIGHT.wav	2	23	blb_dichoticlistening_ka-pa.mp3	ka	pa	1	right
6.6.1	win	2023-06-02	04:56:45	0	0	632c0075227e9b734c80424d	1	1	DL_test	13	DL_test	20			0		ka	1	1478	6	1	antiphase_hc_iso.wav	2	6	4	noise_calib_stim_RIGHT.wav	2	4	blb_dichoticlistening_ba-ka.mp3	ba	ka	1	right
6.6.1	win	2023-06-02	04:56:45	0	0	632c0075227e9b734c80424d	1	1	DL_test	13	DL_test	21			0		pa	0	960	6	1	antiphase_hc_iso.wav	2	6	4	noise_calib_stim_RIGHT.wav	2	10	blb_dichoticlistening_da-ka.mp3	da	ka	1	other
6.6.1	win	2023-06-02	04:56:45	0	0	632c0075227e9b734c80424d	1	1	DL_test	13	DL_test	22			0		pa	0	1150	6	1	antiphase_hc_iso.wav	2	6	4	noise_calib_stim_RIGHT.wav	2	6	blb_dichoticlistening_ba-ta.mp3	ba	ta	1	other
6.6.1	win	2023-06-02	04:56:45	0	0	632c0075227e9b734c80424d	1	1	DL_test	13	DL_test	23			0		pa	0	735	6	1	antiphase_hc_iso.wav	2	6	4	noise_calib_stim_RIGHT.wav	2	19	blb_dichoticlistening_ka-ba.mp3	ka	ba	1	other
6.6.1	win	2023-06-02	04:56:45	0	0	632c0075227e9b734c80424d	1	1	DL_test	13	DL_test	24			0		da	1	1655	6	1	antiphase_hc_iso.wav	2	6	4	noise_calib_stim_RIGHT.wav	2	2	blb_dichoticlistening_ba-da.mp3	ba	da	1	right
6.6.1	win	2023-06-02	04:56:45	0	0	632c0075227e9b734c80424d	1	1	DL_test	13	DL_test	25			0		da	1	5874	6	1	antiphase_hc_iso.wav	2	6	4	noise_calib_stim_RIGHT.wav	2	9	blb_dichoticlistening_da-ga.mp3	da	ga	1	left
6.6.1	win	2023-06-02	04:56:45	0	0	632c0075227e9b734c80424d	1	1	DL_test	13	DL_test	26			0		da	1	2418	6	1	antiphase_hc_iso.wav	2	6	4	noise_calib_stim_RIGHT.wav	2	32	blb_dichoticlistening_ta-da.mp3	ta	da	1	right
6.6.1	win	2023-06-02	04:56:45	0	0	632c0075227e9b734c80424d	1	1	DL_test	13	DL_test	27			0		ka	1	1539	6	1	antiphase_hc_iso.wav	2	6	4	noise_calib_stim_RIGHT.wav	2	22	blb_dichoticlistening_ka-ka.mp3	ka	ka	0	left
6.6.1	win	2023-06-02	04:56:45	0	0	632c0075227e9b734c80424d	1	1	DL_test	13	DL_test	28			0		pa	0	1271	6	1	antiphase_hc_iso.wav	2	6	4	noise_calib_stim_RIGHT.wav	2	31	blb_dichoticlistening_ta-ba.mp3	ta	ba	1	other
6.6.1	win	2023-06-02	04:56:45	0	0	632c0075227e9b734c80424d	1	1	DL_test	13	DL_test	29			0		pa	1	691	6	1	antiphase_hc_iso.wav	2	6	4	noise_calib_stim_RIGHT.wav	2	5	blb_dichoticlistening_ba-pa.mp3	ba	pa	1	right
6.6.1	win	2023-06-02	04:56:45	0	0	632c0075227e9b734c80424d	1	1	DL_test	13	DL_test	30			0		ka	1	1484	6	1	antiphase_hc_iso.wav	2	6	4	noise_calib_stim_RIGHT.wav	2	16	blb_dichoticlistening_ga-ka.mp3	ga	ka	1	right
6.6.1	win	2023-06-02	04:56:45	0	0	632c0075227e9b734c80424d	1	1	DL_test	13	DL_test	31			0		ga	1	1530	6	1	antiphase_hc_iso.wav	2	6	4	noise_calib_stim_RIGHT.wav	2	27	blb_dichoticlistening_pa-ga.mp3	pa	ga	1	right
6.6.1	win	2023-06-02	04:56:45	0	0	632c0075227e9b734c80424d	1	1	DL_test	13	DL_test	32			0		da	0	2621	6	1	antiphase_hc_iso.wav	2	6	4	noise_calib_stim_RIGHT.wav	2	33	blb_dichoticlistening_ta-ga.mp3	ta	ga	1	other
6.6.1	win	2023-06-02	04:56:45	0	0	632c0075227e9b734c80424d	1	1	DL_test	13	DL_test	33			0		ka	1	1479	6	1	antiphase_hc_iso.wav	2	6	4	noise_calib_stim_RIGHT.wav	2	34	blb_dichoticlistening_ta-ka.mp3	ta	ka	1	right
6.6.1	win	2023-06-02	04:56:45	0	0	632c0075227e9b734c80424d	1	1	DL_test	13	DL_test	34			0		pa	1	650	6	1	antiphase_hc_iso.wav	2	6	4	noise_calib_stim_RIGHT.wav	2	17	blb_dichoticlistening_ga-pa.mp3	ga	pa	1	right
6.6.1	win	2023-06-02	04:56:45	0	0	632c0075227e9b734c80424d	1	1	DL_test	13	DL_test	35			0		da	0	1341	6	1	antiphase_hc_iso.wav	2	6	4	noise_calib_stim_RIGHT.wav	2	13	blb_dichoticlistening_ga-ba.mp3	ga	ba	1	other
6.6.1	win	2023-06-02	04:56:45	0	0	632c0075227e9b734c80424d	1	1	DL_test	13	DL_test	36			0		da	1	972	6	1	antiphase_hc_iso.wav	2	6	4	noise_calib_stim_RIGHT.wav	2	20	blb_dichoticlistening_ka-da.mp3	ka	da	1	right
6.6.1	win	2023-06-02	04:56:45	0	0	632c0075227e9b734c80424d	1	1	DL_test	14	DL_test	1			0		pa	0	778	6	1	antiphase_hc_iso.wav	2	6	4	noise_calib_stim_RIGHT.wav	2	10	blb_dichoticlistening_da-ka.mp3	da	ka	1	other
6.6.1	win	2023-06-02	04:56:45	0	0	632c0075227e9b734c80424d	1	1	DL_test	14	DL_test	2			0		pa	0	1212	6	1	antiphase_hc_iso.wav	2	6	4	noise_calib_stim_RIGHT.wav	2	19	blb_dichoticlistening_ka-ba.mp3	ka	ba	1	other
6.6.1	win	2023-06-02	04:56:45	0	0	632c0075227e9b734c80424d	1	1	DL_test	14	DL_test	3			0		ga	1	913	6	1	antiphase_hc_iso.wav	2	6	4	noise_calib_stim_RIGHT.wav	2	15	blb_dichoticlistening_ga-ga.mp3	ga	ga	0	left
6.6.1	win	2023-06-02	04:56:45	0	0	632c0075227e9b734c80424d	1	1	DL_test	14	DL_test	4			0		ba	1	1687	6	1	antiphase_hc_iso.wav	2	6	4	noise_calib_stim_RIGHT.wav	2	31	blb_dichoticlistening_ta-ba.mp3	ta	ba	1	right
6.6.1	win	2023-06-02	04:56:45	0	0	632c0075227e9b734c80424d	1	1	DL_test	14	DL_test	5			0		da	1	911	6	1	antiphase_hc_iso.wav	2	6	4	noise_calib_stim_RIGHT.wav	2	26	blb_dichoticlistening_pa-da.mp3	pa	da	1	right
6.6.1	win	2023-06-02	04:56:45	0	0	632c0075227e9b734c80424d	1	1	DL_test	14	DL_test	6			0		da	1	1140	6	1	antiphase_hc_iso.wav	2	6	4	noise_calib_stim_RIGHT.wav	2	2	blb_dichoticlistening_ba-da.mp3	ba	da	1	right
6.6.1	win	2023-06-02	04:56:45	0	0	632c0075227e9b734c80424d	1	1	DL_test	14	DL_test	7			0		ba	1	977	6	1	antiphase_hc_iso.wav	2	6	4	noise_calib_stim_RIGHT.wav	2	13	blb_dichoticlistening_ga-ba.mp3	ga	ba	1	right
6.6.1	win	2023-06-02	04:56:45	0	0	632c0075227e9b734c80424d	1	1	DL_test	14	DL_test	8			0		ga	1	2975	6	1	antiphase_hc_iso.wav	2	6	4	noise_calib_stim_RIGHT.wav	2	21	blb_dichoticlistening_ka-ga.mp3	ka	ga	1	right
6.6.1	win	2023-06-02	04:56:45	0	0	632c0075227e9b734c80424d	1	1	DL_test	14	DL_test	9			0		ta	0	1693	6	1	antiphase_hc_iso.wav	2	6	4	noise_calib_stim_RIGHT.wav	2	20	blb_dichoticlistening_ka-da.mp3	ka	da	1	other
6.6.1	win	2023-06-02	04:56:45	0	0	632c0075227e9b734c80424d	1	1	DL_test	14	DL_test	10			0		ga	1	1229	6	1	antiphase_hc_iso.wav	2	6	4	noise_calib_stim_RIGHT.wav	2	3	blb_dichoticlistening_ba-ga.mp3	ba	ga	1	right
6.6.1	win	2023-06-02	04:56:45	0	0	632c0075227e9b734c80424d	1	1	DL_test	14	DL_test	11			0		pa	1	1155	6	1	antiphase_hc_iso.wav	2	6	4	noise_calib_stim_RIGHT.wav	2	30	blb_dichoticlistening_pa-ta.mp3	pa	ta	1	left
6.6.1	win	2023-06-02	04:56:45	0	0	632c0075227e9b734c80424d	1	1	DL_test	14	DL_test	12			0		ta	1	675	6	1	antiphase_hc_iso.wav	2	6	4	noise_calib_stim_RIGHT.wav	2	34	blb_dichoticlistening_ta-ka.mp3	ta	ka	1	left
6.6.1	win	2023-06-02	04:56:45	0	0	632c0075227e9b734c80424d	1	1	DL_test	14	DL_test	13			0		ka	1	973	6	1	antiphase_hc_iso.wav	2	6	4	noise_calib_stim_RIGHT.wav	2	16	blb_dichoticlistening_ga-ka.mp3	ga	ka	1	right
6.6.1	win	2023-06-02	04:56:45	0	0	632c0075227e9b734c80424d	1	1	DL_test	14	DL_test	14			0		ka	1	695	6	1	antiphase_hc_iso.wav	2	6	4	noise_calib_stim_RIGHT.wav	2	4	blb_dichoticlistening_ba-ka.mp3	ba	ka	1	right
6.6.1	win	2023-06-02	04:56:45	0	0	632c0075227e9b734c80424d	1	1	DL_test	14	DL_test	15			0		ta	1	1099	6	1	antiphase_hc_iso.wav	2	6	4	noise_calib_stim_RIGHT.wav	2	18	blb_dichoticlistening_ga-ta.mp3	ga	ta	1	right
6.6.1	win	2023-06-02	04:56:45	0	0	632c0075227e9b734c80424d	1	1	DL_test	14	DL_test	16			0		ta	1	1175	6	1	antiphase_hc_iso.wav	2	6	4	noise_calib_stim_RIGHT.wav	2	36	blb_dichoticlistening_ta-ta.mp3	ta	ta	0	left
6.6.1	win	2023-06-02	04:56:45	0	0	632c0075227e9b734c80424d	1	1	DL_test	14	DL_test	17			0		ta	1	529	6	1	antiphase_hc_iso.wav	2	6	4	noise_calib_stim_RIGHT.wav	2	12	blb_dichoticlistening_da-ta.mp3	da	ta	1	right
6.6.1	win	2023-06-02	04:56:45	0	0	632c0075227e9b734c80424d	1	1	DL_test	14	DL_test	18			0		da	1	1205	6	1	antiphase_hc_iso.wav	2	6	4	noise_calib_stim_RIGHT.wav	2	14	blb_dichoticlistening_ga-da.mp3	ga	da	1	right
6.6.1	win	2023-06-02	04:56:45	0	0	632c0075227e9b734c80424d	1	1	DL_test	14	DL_test	19			0		ba	1	804	6	1	antiphase_hc_iso.wav	2	6	4	noise_calib_stim_RIGHT.wav	2	1	blb_dichoticlistening_ba-ba.mp3	ba	ba	0	left
6.6.1	win	2023-06-02	04:56:45	0	0	632c0075227e9b734c80424d	1	1	DL_test	14	DL_test	20			0		pa	1	1895	6	1	antiphase_hc_iso.wav	2	6	4	noise_calib_stim_RIGHT.wav	2	28	blb_dichoticlistening_pa-ka.mp3	pa	ka	1	left
6.6.1	win	2023-06-02	04:56:45	0	0	632c0075227e9b734c80424d	1	1	DL_test	14	DL_test	21			0		da	1	1263	6	1	antiphase_hc_iso.wav	2	6	4	noise_calib_stim_RIGHT.wav	2	32	blb_dichoticlistening_ta-da.mp3	ta	da	1	right
6.6.1	win	2023-06-02	04:56:45	0	0	632c0075227e9b734c80424d	1	1	DL_test	14	DL_test	22			0		pa	1	1206	6	1	antiphase_hc_iso.wav	2	6	4	noise_calib_stim_RIGHT.wav	2	17	blb_dichoticlistening_ga-pa.mp3	ga	pa	1	right
6.6.1	win	2023-06-02	04:56:45	0	0	632c0075227e9b734c80424d	1	1	DL_test	14	DL_test	23			0		pa	1	2275	6	1	antiphase_hc_iso.wav	2	6	4	noise_calib_stim_RIGHT.wav	2	29	blb_dichoticlistening_pa-pa.mp3	pa	pa	0	left
6.6.1	win	2023-06-02	04:56:45	0	0	632c0075227e9b734c80424d	1	1	DL_test	14	DL_test	24			0		pa	0	2732	6	1	antiphase_hc_iso.wav	2	6	4	noise_calib_stim_RIGHT.wav	2	9	blb_dichoticlistening_da-ga.mp3	da	ga	1	other
6.6.1	win	2023-06-02	04:56:45	0	0	632c0075227e9b734c80424d	1	1	DL_test	14	DL_test	25			0		ba	1	2770	6	1	antiphase_hc_iso.wav	2	6	4	noise_calib_stim_RIGHT.wav	2	7	blb_dichoticlistening_da-ba.mp3	da	ba	1	right
6.6.1	win	2023-06-02	04:56:45	0	0	632c0075227e9b734c80424d	1	1	DL_test	14	DL_test	26			0		pa	1	1142	6	1	antiphase_hc_iso.wav	2	6	4	noise_calib_stim_RIGHT.wav	2	5	blb_dichoticlistening_ba-pa.mp3	ba	pa	1	right
6.6.1	win	2023-06-02	04:56:45	0	0	632c0075227e9b734c80424d	1	1	DL_test	14	DL_test	27			0		ka	1	789	6	1	antiphase_hc_iso.wav	2	6	4	noise_calib_stim_RIGHT.wav	2	22	blb_dichoticlistening_ka-ka.mp3	ka	ka	0	left
6.6.1	win	2023-06-02	04:56:45	0	0	632c0075227e9b734c80424d	1	1	DL_test	14	DL_test	28			0		ka	1	774	6	1	antiphase_hc_iso.wav	2	6	4	noise_calib_stim_RIGHT.wav	2	24	blb_dichoticlistening_ka-ta.mp3	ka	ta	1	left
6.6.1	win	2023-06-02	04:56:45	0	0	632c0075227e9b734c80424d	1	1	DL_test	14	DL_test	29			0		pa	1	771	6	1	antiphase_hc_iso.wav	2	6	4	noise_calib_stim_RIGHT.wav	2	25	blb_dichoticlistening_pa-ba.mp3	pa	ba	1	left
6.6.1	win	2023-06-02	04:56:45	0	0	632c0075227e9b734c80424d	1	1	DL_test	14	DL_test	30			0		da	0	1817	6	1	antiphase_hc_iso.wav	2	6	4	noise_calib_stim_RIGHT.wav	2	33	blb_dichoticlistening_ta-ga.mp3	ta	ga	1	other
6.6.1	win	2023-06-02	04:56:45	0	0	632c0075227e9b734c80424d	1	1	DL_test	14	DL_test	31			0		da	0	1667	6	1	antiphase_hc_iso.wav	2	6	4	noise_calib_stim_RIGHT.wav	2	27	blb_dichoticlistening_pa-ga.mp3	pa	ga	1	other
6.6.1	win	2023-06-02	04:56:45	0	0	632c0075227e9b734c80424d	1	1	DL_test	14	DL_test	32			0		pa	1	975	6	1	antiphase_hc_iso.wav	2	6	4	noise_calib_stim_RIGHT.wav	2	35	blb_dichoticlistening_ta-pa.mp3	ta	pa	1	right
6.6.1	win	2023-06-02	04:56:45	0	0	632c0075227e9b734c80424d	1	1	DL_test	14	DL_test	33			0		pa	1	1797	6	1	antiphase_hc_iso.wav	2	6	4	noise_calib_stim_RIGHT.wav	2	23	blb_dichoticlistening_ka-pa.mp3	ka	pa	1	right
6.6.1	win	2023-06-02	04:56:45	0	0	632c0075227e9b734c80424d	1	1	DL_test	14	DL_test	34			0		pa	0	2980	6	1	antiphase_hc_iso.wav	2	6	4	noise_calib_stim_RIGHT.wav	2	6	blb_dichoticlistening_ba-ta.mp3	ba	ta	1	other
6.6.1	win	2023-06-02	04:56:45	0	0	632c0075227e9b734c80424d	1	1	DL_test	14	DL_test	35			0		da	1	1205	6	1	antiphase_hc_iso.wav	2	6	4	noise_calib_stim_RIGHT.wav	2	8	blb_dichoticlistening_da-da.mp3	da	da	0	left
6.6.1	win	2023-06-02	04:56:45	0	0	632c0075227e9b734c80424d	1	1	DL_test	14	DL_test	36			0		pa	1	1046	6	1	antiphase_hc_iso.wav	2	6	4	noise_calib_stim_RIGHT.wav	2	11	blb_dichoticlistening_da-pa.mp3	da	pa	1	right
6.6.1	win	2023-06-02	04:56:45	0	0	632c0075227e9b734c80424d	1	1	DL_test	15	DL_test	1			0		ta	0	1838	6	1	antiphase_hc_iso.wav	2	6	4	noise_calib_stim_RIGHT.wav	2	20	blb_dichoticlistening_ka-da.mp3	ka	da	1	other
6.6.1	win	2023-06-02	04:56:45	0	0	632c0075227e9b734c80424d	1	1	DL_test	15	DL_test	2			0		ga	1	1426	6	1	antiphase_hc_iso.wav	2	6	4	noise_calib_stim_RIGHT.wav	2	27	blb_dichoticlistening_pa-ga.mp3	pa	ga	1	right
6.6.1	win	2023-06-02	04:56:45	0	0	632c0075227e9b734c80424d	1	1	DL_test	15	DL_test	3			0		da	1	1236	6	1	antiphase_hc_iso.wav	2	6	4	noise_calib_stim_RIGHT.wav	2	26	blb_dichoticlistening_pa-da.mp3	pa	da	1	right
6.6.1	win	2023-06-02	04:56:45	0	0	632c0075227e9b734c80424d	1	1	DL_test	15	DL_test	4			0		pa	0	1160	6	1	antiphase_hc_iso.wav	2	6	4	noise_calib_stim_RIGHT.wav	2	10	blb_dichoticlistening_da-ka.mp3	da	ka	1	other
6.6.1	win	2023-06-02	04:56:45	0	0	632c0075227e9b734c80424d	1	1	DL_test	15	DL_test	5			0		ba	1	1487	6	1	antiphase_hc_iso.wav	2	6	4	noise_calib_stim_RIGHT.wav	2	1	blb_dichoticlistening_ba-ba.mp3	ba	ba	0	left
6.6.1	win	2023-06-02	04:56:45	0	0	632c0075227e9b734c80424d	1	1	DL_test	15	DL_test	6			0		da	1	1532	6	1	antiphase_hc_iso.wav	2	6	4	noise_calib_stim_RIGHT.wav	2	9	blb_dichoticlistening_da-ga.mp3	da	ga	1	left
6.6.1	win	2023-06-02	04:56:45	0	0	632c0075227e9b734c80424d	1	1	DL_test	15	DL_test	7			0		ba	1	2768	6	1	antiphase_hc_iso.wav	2	6	4	noise_calib_stim_RIGHT.wav	2	2	blb_dichoticlistening_ba-da.mp3	ba	da	1	left
6.6.1	win	2023-06-02	04:56:45	0	0	632c0075227e9b734c80424d	1	1	DL_test	15	DL_test	8			0		ta	1	1293	6	1	antiphase_hc_iso.wav	2	6	4	noise_calib_stim_RIGHT.wav	2	24	blb_dichoticlistening_ka-ta.mp3	ka	ta	1	right
6.6.1	win	2023-06-02	04:56:45	0	0	632c0075227e9b734c80424d	1	1	DL_test	15	DL_test	9			0		ta	1	1875	6	1	antiphase_hc_iso.wav	2	6	4	noise_calib_stim_RIGHT.wav	2	30	blb_dichoticlistening_pa-ta.mp3	pa	ta	1	right
6.6.1	win	2023-06-02	04:56:45	0	0	632c0075227e9b734c80424d	1	1	DL_test	15	DL_test	10			0		pa	1	1048	6	1	antiphase_hc_iso.wav	2	6	4	noise_calib_stim_RIGHT.wav	2	29	blb_dichoticlistening_pa-pa.mp3	pa	pa	0	left
6.6.1	win	2023-06-02	04:56:45	0	0	632c0075227e9b734c80424d	1	1	DL_test	15	DL_test	11			0		ga	1	1629	6	1	antiphase_hc_iso.wav	2	6	4	noise_calib_stim_RIGHT.wav	2	16	blb_dichoticlistening_ga-ka.mp3	ga	ka	1	left
6.6.1	win	2023-06-02	04:56:45	0	0	632c0075227e9b734c80424d	1	1	DL_test	15	DL_test	12			0		ga	1	1003	6	1	antiphase_hc_iso.wav	2	6	4	noise_calib_stim_RIGHT.wav	2	18	blb_dichoticlistening_ga-ta.mp3	ga	ta	1	left
6.6.1	win	2023-06-02	04:56:45	0	0	632c0075227e9b734c80424d	1	1	DL_test	15	DL_test	13			0		ga	1	708	6	1	antiphase_hc_iso.wav	2	6	4	noise_calib_stim_RIGHT.wav	2	14	blb_dichoticlistening_ga-da.mp3	ga	da	1	left
6.6.1	win	2023-06-02	04:56:45	0	0	632c0075227e9b734c80424d	1	1	DL_test	15	DL_test	14			0		ba	1	1436	6	1	antiphase_hc_iso.wav	2	6	4	noise_calib_stim_RIGHT.wav	2	31	blb_dichoticlistening_ta-ba.mp3	ta	ba	1	right
6.6.1	win	2023-06-02	04:56:45	0	0	632c0075227e9b734c80424d	1	1	DL_test	15	DL_test	15			0		ba	1	581	6	1	antiphase_hc_iso.wav	2	6	4	noise_calib_stim_RIGHT.wav	2	6	blb_dichoticlistening_ba-ta.mp3	ba	ta	1	left
6.6.1	win	2023-06-02	04:56:45	0	0	632c0075227e9b734c80424d	1	1	DL_test	15	DL_test	16			0		ba	1	593	6	1	antiphase_hc_iso.wav	2	6	4	noise_calib_stim_RIGHT.wav	2	25	blb_dichoticlistening_pa-ba.mp3	pa	ba	1	right
6.6.1	win	2023-06-02	04:56:45	0	0	632c0075227e9b734c80424d	1	1	DL_test	15	DL_test	17			0		ka	1	1806	6	1	antiphase_hc_iso.wav	2	6	4	noise_calib_stim_RIGHT.wav	2	22	blb_dichoticlistening_ka-ka.mp3	ka	ka	0	left
6.6.1	win	2023-06-02	04:56:45	0	0	632c0075227e9b734c80424d	1	1	DL_test	15	DL_test	18			0		ka	1	563	6	1	antiphase_hc_iso.wav	2	6	4	noise_calib_stim_RIGHT.wav	2	28	blb_dichoticlistening_pa-ka.mp3	pa	ka	1	right
6.6.1	win	2023-06-02	04:56:45	0	0	632c0075227e9b734c80424d	1	1	DL_test	15	DL_test	19			0		ga	1	913	6	1	antiphase_hc_iso.wav	2	6	4	noise_calib_stim_RIGHT.wav	2	15	blb_dichoticlistening_ga-ga.mp3	ga	ga	0	left
6.6.1	win	2023-06-02	04:56:45	0	0	632c0075227e9b734c80424d	1	1	DL_test	15	DL_test	20			0		ga	0	532	6	1	antiphase_hc_iso.wav	2	6	4	noise_calib_stim_RIGHT.wav	2	12	blb_dichoticlistening_da-ta.mp3	da	ta	1	other
6.6.1	win	2023-06-02	04:56:45	0	0	632c0075227e9b734c80424d	1	1	DL_test	15	DL_test	21			0		ba	1	1412	6	1	antiphase_hc_iso.wav	2	6	4	noise_calib_stim_RIGHT.wav	2	5	blb_dichoticlistening_ba-pa.mp3	ba	pa	1	left
6.6.1	win	2023-06-02	04:56:45	0	0	632c0075227e9b734c80424d	1	1	DL_test	15	DL_test	22			0		da	1	930	6	1	antiphase_hc_iso.wav	2	6	4	noise_calib_stim_RIGHT.wav	2	11	blb_dichoticlistening_da-pa.mp3	da	pa	1	left
6.6.1	win	2023-06-02	04:56:45	0	0	632c0075227e9b734c80424d	1	1	DL_test	15	DL_test	23			0		da	1	574	6	1	antiphase_hc_iso.wav	2	6	4	noise_calib_stim_RIGHT.wav	2	32	blb_dichoticlistening_ta-da.mp3	ta	da	1	right
6.6.1	win	2023-06-02	04:56:45	0	0	632c0075227e9b734c80424d	1	1	DL_test	15	DL_test	24			0		ba	1	960	6	1	antiphase_hc_iso.wav	2	6	4	noise_calib_stim_RIGHT.wav	2	7	blb_dichoticlistening_da-ba.mp3	da	ba	1	right
6.6.1	win	2023-06-02	04:56:45	0	0	632c0075227e9b734c80424d	1	1	DL_test	15	DL_test	25			0		ba	1	741	6	1	antiphase_hc_iso.wav	2	6	4	noise_calib_stim_RIGHT.wav	2	4	blb_dichoticlistening_ba-ka.mp3	ba	ka	1	left
6.6.1	win	2023-06-02	04:56:45	0	0	632c0075227e9b734c80424d	1	1	DL_test	15	DL_test	26			0		ga	1	973	6	1	antiphase_hc_iso.wav	2	6	4	noise_calib_stim_RIGHT.wav	2	33	blb_dichoticlistening_ta-ga.mp3	ta	ga	1	right
6.6.1	win	2023-06-02	04:56:45	0	0	632c0075227e9b734c80424d	1	1	DL_test	15	DL_test	27			0		pa	1	1509	6	1	antiphase_hc_iso.wav	2	6	4	noise_calib_stim_RIGHT.wav	2	35	blb_dichoticlistening_ta-pa.mp3	ta	pa	1	right
6.6.1	win	2023-06-02	04:56:45	0	0	632c0075227e9b734c80424d	1	1	DL_test	15	DL_test	28			0		ga	1	992	6	1	antiphase_hc_iso.wav	2	6	4	noise_calib_stim_RIGHT.wav	2	21	blb_dichoticlistening_ka-ga.mp3	ka	ga	1	right
6.6.1	win	2023-06-02	04:56:45	0	0	632c0075227e9b734c80424d	1	1	DL_test	15	DL_test	29			0		ka	1	821	6	1	antiphase_hc_iso.wav	2	6	4	noise_calib_stim_RIGHT.wav	2	34	blb_dichoticlistening_ta-ka.mp3	ta	ka	1	right
6.6.1	win	2023-06-02	04:56:45	0	0	632c0075227e9b734c80424d	1	1	DL_test	15	DL_test	30			0		ga	1	1054	6	1	antiphase_hc_iso.wav	2	6	4	noise_calib_stim_RIGHT.wav	2	17	blb_dichoticlistening_ga-pa.mp3	ga	pa	1	left
6.6.1	win	2023-06-02	04:56:45	0	0	632c0075227e9b734c80424d	1	1	DL_test	15	DL_test	31			0		ka	1	1008	6	1	antiphase_hc_iso.wav	2	6	4	noise_calib_stim_RIGHT.wav	2	23	blb_dichoticlistening_ka-pa.mp3	ka	pa	1	left
6.6.1	win	2023-06-02	04:56:45	0	0	632c0075227e9b734c80424d	1	1	DL_test	15	DL_test	32			0		pa	0	2244	6	1	antiphase_hc_iso.wav	2	6	4	noise_calib_stim_RIGHT.wav	2	36	blb_dichoticlistening_ta-ta.mp3	ta	ta	0	other
6.6.1	win	2023-06-02	04:56:45	0	0	632c0075227e9b734c80424d	1	1	DL_test	15	DL_test	33			0		ba	1	2224	6	1	antiphase_hc_iso.wav	2	6	4	noise_calib_stim_RIGHT.wav	2	13	blb_dichoticlistening_ga-ba.mp3	ga	ba	1	right
6.6.1	win	2023-06-02	04:56:45	0	0	632c0075227e9b734c80424d	1	1	DL_test	15	DL_test	34			0		da	1	4811	6	1	antiphase_hc_iso.wav	2	6	4	noise_calib_stim_RIGHT.wav	2	8	blb_dichoticlistening_da-da.mp3	da	da	0	left
6.6.1	win	2023-06-02	04:56:45	0	0	632c0075227e9b734c80424d	1	1	DL_test	15	DL_test	35			0		ga	1	1058	6	1	antiphase_hc_iso.wav	2	6	4	noise_calib_stim_RIGHT.wav	2	3	blb_dichoticlistening_ba-ga.mp3	ba	ga	1	right
6.6.1	win	2023-06-02	04:56:45	0	0	632c0075227e9b734c80424d	1	1	DL_test	15	DL_test	36			0		ba	1	1336	6	1	antiphase_hc_iso.wav	2	6	4	noise_calib_stim_RIGHT.wav	2	19	blb_dichoticlistening_ka-ba.mp3	ka	ba	1	right
6.6.1	win	2023-06-02	04:56:45	0	0	632c0075227e9b734c80424d	1	1	DL_test	16	DL_test	1			0		da	1	1134	6	1	antiphase_hc_iso.wav	2	6	4	noise_calib_stim_RIGHT.wav	2	14	blb_dichoticlistening_ga-da.mp3	ga	da	1	right
6.6.1	win	2023-06-02	04:56:45	0	0	632c0075227e9b734c80424d	1	1	DL_test	16	DL_test	2			0		ta	0	1033	6	1	antiphase_hc_iso.wav	2	6	4	noise_calib_stim_RIGHT.wav	2	28	blb_dichoticlistening_pa-ka.mp3	pa	ka	1	other
6.6.1	win	2023-06-02	04:56:45	0	0	632c0075227e9b734c80424d	1	1	DL_test	16	DL_test	3			0		ta	1	759	6	1	antiphase_hc_iso.wav	2	6	4	noise_calib_stim_RIGHT.wav	2	36	blb_dichoticlistening_ta-ta.mp3	ta	ta	0	left
6.6.1	win	2023-06-02	04:56:45	0	0	632c0075227e9b734c80424d	1	1	DL_test	16	DL_test	4			0		ta	1	657	6	1	antiphase_hc_iso.wav	2	6	4	noise_calib_stim_RIGHT.wav	2	30	blb_dichoticlistening_pa-ta.mp3	pa	ta	1	right
6.6.1	win	2023-06-02	04:56:45	0	0	632c0075227e9b734c80424d	1	1	DL_test	16	DL_test	5			0		da	1	1316	6	1	antiphase_hc_iso.wav	2	6	4	noise_calib_stim_RIGHT.wav	2	9	blb_dichoticlistening_da-ga.mp3	da	ga	1	left
6.6.1	win	2023-06-02	04:56:45	0	0	632c0075227e9b734c80424d	1	1	DL_test	16	DL_test	6			0		ba	1	1074	6	1	antiphase_hc_iso.wav	2	6	4	noise_calib_stim_RIGHT.wav	2	1	blb_dichoticlistening_ba-ba.mp3	ba	ba	0	left
6.6.1	win	2023-06-02	04:56:45	0	0	632c0075227e9b734c80424d	1	1	DL_test	16	DL_test	7			0		pa	0	2018	6	1	antiphase_hc_iso.wav	2	6	4	noise_calib_stim_RIGHT.wav	2	33	blb_dichoticlistening_ta-ga.mp3	ta	ga	1	other
6.6.1	win	2023-06-02	04:56:45	0	0	632c0075227e9b734c80424d	1	1	DL_test	16	DL_test	8			0		ba	1	1972	6	1	antiphase_hc_iso.wav	2	6	4	noise_calib_stim_RIGHT.wav	2	7	blb_dichoticlistening_da-ba.mp3	da	ba	1	right
6.6.1	win	2023-06-02	04:56:45	0	0	632c0075227e9b734c80424d	1	1	DL_test	16	DL_test	9			0		pa	1	1393	6	1	antiphase_hc_iso.wav	2	6	4	noise_calib_stim_RIGHT.wav	2	11	blb_dichoticlistening_da-pa.mp3	da	pa	1	right
6.6.1	win	2023-06-02	04:56:45	0	0	632c0075227e9b734c80424d	1	1	DL_test	16	DL_test	10			0		ka	1	1195	6	1	antiphase_hc_iso.wav	2	6	4	noise_calib_stim_RIGHT.wav	2	4	blb_dichoticlistening_ba-ka.mp3	ba	ka	1	right
6.6.1	win	2023-06-02	04:56:45	0	0	632c0075227e9b734c80424d	1	1	DL_test	16	DL_test	11			0		ta	1	2396	6	1	antiphase_hc_iso.wav	2	6	4	noise_calib_stim_RIGHT.wav	2	18	blb_dichoticlistening_ga-ta.mp3	ga	ta	1	right
6.6.1	win	2023-06-02	04:56:45	0	0	632c0075227e9b734c80424d	1	1	DL_test	16	DL_test	12			0		pa	1	836	6	1	antiphase_hc_iso.wav	2	6	4	noise_calib_stim_RIGHT.wav	2	17	blb_dichoticlistening_ga-pa.mp3	ga	pa	1	right
6.6.1	win	2023-06-02	04:56:45	0	0	632c0075227e9b734c80424d	1	1	DL_test	16	DL_test	13			0		ta	1	753	6	1	antiphase_hc_iso.wav	2	6	4	noise_calib_stim_RIGHT.wav	2	24	blb_dichoticlistening_ka-ta.mp3	ka	ta	1	right
6.6.1	win	2023-06-02	04:56:45	0	0	632c0075227e9b734c80424d	1	1	DL_test	16	DL_test	14			0		pa	0	2320	6	1	antiphase_hc_iso.wav	2	6	4	noise_calib_stim_RIGHT.wav	2	31	blb_dichoticlistening_ta-ba.mp3	ta	ba	1	other
6.6.1	win	2023-06-02	04:56:45	0	0	632c0075227e9b734c80424d	1	1	DL_test	16	DL_test	15			0		ta	1	996	6	1	antiphase_hc_iso.wav	2	6	4	noise_calib_stim_RIGHT.wav	2	12	blb_dichoticlistening_da-ta.mp3	da	ta	1	right
6.6.1	win	2023-06-02	04:56:45	0	0	632c0075227e9b734c80424d	1	1	DL_test	16	DL_test	16			0		pa	1	766	6	1	antiphase_hc_iso.wav	2	6	4	noise_calib_stim_RIGHT.wav	2	29	blb_dichoticlistening_pa-pa.mp3	pa	pa	0	left
6.6.1	win	2023-06-02	04:56:45	0	0	632c0075227e9b734c80424d	1	1	DL_test	16	DL_test	17			0		pa	1	755	6	1	antiphase_hc_iso.wav	2	6	4	noise_calib_stim_RIGHT.wav	2	25	blb_dichoticlistening_pa-ba.mp3	pa	ba	1	left
6.6.1	win	2023-06-02	04:56:45	0	0	632c0075227e9b734c80424d	1	1	DL_test	16	DL_test	18			0		ga	1	960	6	1	antiphase_hc_iso.wav	2	6	4	noise_calib_stim_RIGHT.wav	2	3	blb_dichoticlistening_ba-ga.mp3	ba	ga	1	right
6.6.1	win	2023-06-02	04:56:45	0	0	632c0075227e9b734c80424d	1	1	DL_test	16	DL_test	19			0		da	1	2988	6	1	antiphase_hc_iso.wav	2	6	4	noise_calib_stim_RIGHT.wav	2	20	blb_dichoticlistening_ka-da.mp3	ka	da	1	right
6.6.1	win	2023-06-02	04:56:45	0	0	632c0075227e9b734c80424d	1	1	DL_test	16	DL_test	20			0		pa	1	1154	6	1	antiphase_hc_iso.wav	2	6	4	noise_calib_stim_RIGHT.wav	2	5	blb_dichoticlistening_ba-pa.mp3	ba	pa	1	right
6.6.1	win	2023-06-02	04:56:45	0	0	632c0075227e9b734c80424d	1	1	DL_test	16	DL_test	21			0		ka	1	975	6	1	antiphase_hc_iso.wav	2	6	4	noise_calib_stim_RIGHT.wav	2	16	blb_dichoticlistening_ga-ka.mp3	ga	ka	1	right
6.6.1	win	2023-06-02	04:56:45	0	0	632c0075227e9b734c80424d	1	1	DL_test	16	DL_test	22			0		ba	1	1460	6	1	antiphase_hc_iso.wav	2	6	4	noise_calib_stim_RIGHT.wav	2	13	blb_dichoticlistening_ga-ba.mp3	ga	ba	1	right
6.6.1	win	2023-06-02	04:56:45	0	0	632c0075227e9b734c80424d	1	1	DL_test	16	DL_test	23			0		da	1	791	6	1	antiphase_hc_iso.wav	2	6	4	noise_calib_stim_RIGHT.wav	2	2	blb_dichoticlistening_ba-da.mp3	ba	da	1	right
6.6.1	win	2023-06-02	04:56:45	0	0	632c0075227e9b734c80424d	1	1	DL_test	16	DL_test	24			0		pa	0	2576	6	1	antiphase_hc_iso.wav	2	6	4	noise_calib_stim_RIGHT.wav	2	19	blb_dichoticlistening_ka-ba.mp3	ka	ba	1	other
6.6.1	win	2023-06-02	04:56:45	0	0	632c0075227e9b734c80424d	1	1	DL_test	16	DL_test	25			0		ka	1	1092	6	1	antiphase_hc_iso.wav	2	6	4	noise_calib_stim_RIGHT.wav	2	22	blb_dichoticlistening_ka-ka.mp3	ka	ka	0	left
6.6.1	win	2023-06-02	04:56:45	0	0	632c0075227e9b734c80424d	1	1	DL_test	16	DL_test	26			0		da	0	1145	6	1	antiphase_hc_iso.wav	2	6	4	noise_calib_stim_RIGHT.wav	2	27	blb_dichoticlistening_pa-ga.mp3	pa	ga	1	other
6.6.1	win	2023-06-02	04:56:45	0	0	632c0075227e9b734c80424d	1	1	DL_test	16	DL_test	27			0		ta	1	1523	6	1	antiphase_hc_iso.wav	2	6	4	noise_calib_stim_RIGHT.wav	2	6	blb_dichoticlistening_ba-ta.mp3	ba	ta	1	right
6.6.1	win	2023-06-02	04:56:45	0	0	632c0075227e9b734c80424d	1	1	DL_test	16	DL_test	28			0		ta	1	1410	6	1	antiphase_hc_iso.wav	2	6	4	noise_calib_stim_RIGHT.wav	2	34	blb_dichoticlistening_ta-ka.mp3	ta	ka	1	left
6.6.1	win	2023-06-02	04:56:45	0	0	632c0075227e9b734c80424d	1	1	DL_test	16	DL_test	29			0		da	1	1178	6	1	antiphase_hc_iso.wav	2	6	4	noise_calib_stim_RIGHT.wav	2	8	blb_dichoticlistening_da-da.mp3	da	da	0	left
6.6.1	win	2023-06-02	04:56:45	0	0	632c0075227e9b734c80424d	1	1	DL_test	16	DL_test	30			0		da	1	1275	6	1	antiphase_hc_iso.wav	2	6	4	noise_calib_stim_RIGHT.wav	2	26	blb_dichoticlistening_pa-da.mp3	pa	da	1	right
6.6.1	win	2023-06-02	04:56:45	0	0	632c0075227e9b734c80424d	1	1	DL_test	16	DL_test	31			0		pa	1	1408	6	1	antiphase_hc_iso.wav	2	6	4	noise_calib_stim_RIGHT.wav	2	23	blb_dichoticlistening_ka-pa.mp3	ka	pa	1	right
6.6.1	win	2023-06-02	04:56:45	0	0	632c0075227e9b734c80424d	1	1	DL_test	16	DL_test	32			0		da	1	2416	6	1	antiphase_hc_iso.wav	2	6	4	noise_calib_stim_RIGHT.wav	2	32	blb_dichoticlistening_ta-da.mp3	ta	da	1	right
6.6.1	win	2023-06-02	04:56:45	0	0	632c0075227e9b734c80424d	1	1	DL_test	16	DL_test	33			0		ga	1	902	6	1	antiphase_hc_iso.wav	2	6	4	noise_calib_stim_RIGHT.wav	2	15	blb_dichoticlistening_ga-ga.mp3	ga	ga	0	left
6.6.1	win	2023-06-02	04:56:45	0	0	632c0075227e9b734c80424d	1	1	DL_test	16	DL_test	34			0		pa	1	1092	6	1	antiphase_hc_iso.wav	2	6	4	noise_calib_stim_RIGHT.wav	2	35	blb_dichoticlistening_ta-pa.mp3	ta	pa	1	right
6.6.1	win	2023-06-02	04:56:45	0	0	632c0075227e9b734c80424d	1	1	DL_test	16	DL_test	35			0		ka	1	1052	6	1	antiphase_hc_iso.wav	2	6	4	noise_calib_stim_RIGHT.wav	2	21	blb_dichoticlistening_ka-ga.mp3	ka	ga	1	left
6.6.1	win	2023-06-02	04:56:45	0	0	632c0075227e9b734c80424d	1	1	DL_test	16	DL_test	36			0		pa	0	1299	6	1	antiphase_hc_iso.wav	2	6	4	noise_calib_stim_RIGHT.wav	2	10	blb_dichoticlistening_da-ka.mp3	da	ka	1	other
6.6.1	win	2023-06-02	04:56:45	05:10:14	806530	632c0075227e9b734c80424d	1	1	practice_slash	22	practice_slash	1	stimuli_distractor_diamondtriangles.svg	stimuli_target_diamondrectangles.svg	8	yes	0	0	2000	6	1	antiphase_hc_iso.wav	2	6	4	noise_calib_stim_RIGHT.wav	2	10	blb_dichoticlistening_da-ka.mp3	da	ka	1	other
6.6.1	win	2023-06-02	04:56:45	05:10:14	806530	632c0075227e9b734c80424d	1	1	practice_slash	22	advance_on_keypress_SLASH	2	stimuli_distractor_diamondtriangles.svg	stimuli_target_diamondrectangles.svg	8	yes	57	0	3567	6	1	antiphase_hc_iso.wav	2	6	4	noise_calib_stim_RIGHT.wav	2	10	blb_dichoticlistening_da-ka.mp3	da	ka	1	other
6.6.1	win	2023-06-02	04:56:45	05:10:21	812777	632c0075227e9b734c80424d	1	1	practice_slash	22	practice_slash	3	stimuli_distractor_diamondtriangles.svg	stimuli_distractor_trianglediamonds.svg	14	no	53	0	1004	6	1	antiphase_hc_iso.wav	2	6	4	noise_calib_stim_RIGHT.wav	2	10	blb_dichoticlistening_da-ka.mp3	da	ka	1	other
6.6.1	win	2023-06-02	04:56:45	05:10:21	812777	632c0075227e9b734c80424d	1	1	practice_slash	22	advance_on_keypress_SLASH	4	stimuli_distractor_diamondtriangles.svg	stimuli_distractor_trianglediamonds.svg	14	no	57	0	2194	6	1	antiphase_hc_iso.wav	2	6	4	noise_calib_stim_RIGHT.wav	2	10	blb_dichoticlistening_da-ka.mp3	da	ka	1	other
6.6.1	win	2023-06-02	04:56:45	05:10:26	818082	632c0075227e9b734c80424d	1	1	practice_slash	22	practice_slash	5	stimuli_target_diamondsquares.svg	stimuli_distractor_trianglediamonds.svg	6	yes	53	1	1463	6	1	antiphase_hc_iso.wav	2	6	4	noise_calib_stim_RIGHT.wav	2	10	blb_dichoticlistening_da-ka.mp3	da	ka	1	other
6.6.1	win	2023-06-02	04:56:45	05:10:26	818082	632c0075227e9b734c80424d	1	1	practice_slash	22	advance_on_keypress_SLASH	6	stimuli_target_diamondsquares.svg	stimuli_distractor_trianglediamonds.svg	6	yes	57	0	3241	6	1	antiphase_hc_iso.wav	2	6	4	noise_calib_stim_RIGHT.wav	2	10	blb_dichoticlistening_da-ka.mp3	da	ka	1	other
6.6.1	win	2023-06-02	04:56:45	05:10:32	823916	632c0075227e9b734c80424d	1	1	practice_slash	22	practice_slash	7	stimuli_target_squarediamonds.svg	stimuli_distractor_diamondtriangles.svg	2	yes	53	1	916	6	1	antiphase_hc_iso.wav	2	6	4	noise_calib_stim_RIGHT.wav	2	10	blb_dichoticlistening_da-ka.mp3	da	ka	1	other
6.6.1	win	2023-06-02	04:56:45	05:10:32	823916	632c0075227e9b734c80424d	1	1	practice_slash	22	advance_on_keypress_SLASH	8	stimuli_target_squarediamonds.svg	stimuli_distractor_diamondtriangles.svg	2	yes	57	0	1732	6	1	antiphase_hc_iso.wav	2	6	4	noise_calib_stim_RIGHT.wav	2	10	blb_dichoticlistening_da-ka.mp3	da	ka	1	other
6.6.1	win	2023-06-02	04:56:45	05:10:36	828224	632c0075227e9b734c80424d	1	1	practice_slash	22	practice_slash	9	stimuli_distractor_trianglediamonds.svg	stimuli_distractor_diamondtriangles.svg	16	no	53	0	923	6	1	antiphase_hc_iso.wav	2	6	4	noise_calib_stim_RIGHT.wav	2	10	blb_dichoticlistening_da-ka.mp3	da	ka	1	other
6.6.1	win	2023-06-02	04:56:45	05:10:36	828224	632c0075227e9b734c80424d	1	1	practice_slash	22	advance_on_keypress_SLASH	10	stimuli_distractor_trianglediamonds.svg	stimuli_distractor_diamondtriangles.svg	16	no	57	0	6917	6	1	antiphase_hc_iso.wav	2	6	4	noise_calib_stim_RIGHT.wav	2	10	blb_dichoticlistening_da-ka.mp3	da	ka	1	other
6.6.1	win	2023-06-02	04:56:45	05:10:46	837989	632c0075227e9b734c80424d	1	1	practice_slash	22	practice_slash	11	stimuli_target_diamondsquares.svg	stimuli_distractor_diamondtriangles.svg	3	yes	53	1	1178	6	1	antiphase_hc_iso.wav	2	6	4	noise_calib_stim_RIGHT.wav	2	10	blb_dichoticlistening_da-ka.mp3	da	ka	1	other
6.6.1	win	2023-06-02	04:56:45	05:10:46	837989	632c0075227e9b734c80424d	1	1	practice_slash	22	advance_on_keypress_SLASH	12	stimuli_target_diamondsquares.svg	stimuli_distractor_diamondtriangles.svg	3	yes	57	0	1175	6	1	antiphase_hc_iso.wav	2	6	4	noise_calib_stim_RIGHT.wav	2	10	blb_dichoticlistening_da-ka.mp3	da	ka	1	other
6.6.1	win	2023-06-02	04:56:45	05:10:51	842795	632c0075227e9b734c80424d	1	1	practice_slash	22	practice_slash	13	stimuli_distractor_trianglediamonds.svg	stimuli_distractor_trianglediamonds.svg	15	no	0	1	2000	6	1	antiphase_hc_iso.wav	2	6	4	noise_calib_stim_RIGHT.wav	2	10	blb_dichoticlistening_da-ka.mp3	da	ka	1	other
6.6.1	win	2023-06-02	04:56:45	05:10:51	842795	632c0075227e9b734c80424d	1	1	practice_slash	22	advance_on_keypress_SLASH	14	stimuli_distractor_trianglediamonds.svg	stimuli_distractor_trianglediamonds.svg	15	no	57	0	1204	6	1	antiphase_hc_iso.wav	2	6	4	noise_calib_stim_RIGHT.wav	2	10	blb_dichoticlistening_da-ka.mp3	da	ka	1	other
6.6.1	win	2023-06-02	04:56:45	05:10:55	846666	632c0075227e9b734c80424d	1	1	practice_slash	22	practice_slash	15	stimuli_distractor_trianglediamonds.svg	stimuli_target_rectanglediamonds.svg	10	yes	53	1	1017	6	1	antiphase_hc_iso.wav	2	6	4	noise_calib_stim_RIGHT.wav	2	10	blb_dichoticlistening_da-ka.mp3	da	ka	1	other
6.6.1	win	2023-06-02	04:56:45	05:10:55	846666	632c0075227e9b734c80424d	1	1	practice_slash	22	advance_on_keypress_SLASH	16	stimuli_distractor_trianglediamonds.svg	stimuli_target_rectanglediamonds.svg	10	yes	57	0	2022	6	1	antiphase_hc_iso.wav	2	6	4	noise_calib_stim_RIGHT.wav	2	10	blb_dichoticlistening_da-ka.mp3	da	ka	1	other
6.6.1	win	2023-06-02	04:56:45	05:10:59	851107	632c0075227e9b734c80424d	1	1	practice_slash	22	practice_slash	17	stimuli_target_rectanglediamonds.svg	stimuli_distractor_diamondtriangles.svg	1	yes	53	1	753	6	1	antiphase_hc_iso.wav	2	6	4	noise_calib_stim_RIGHT.wav	2	10	blb_dichoticlistening_da-ka.mp3	da	ka	1	other
6.6.1	win	2023-06-02	04:56:45	05:10:59	851107	632c0075227e9b734c80424d	1	1	practice_slash	22	advance_on_keypress_SLASH	18	stimuli_target_rectanglediamonds.svg	stimuli_distractor_diamondtriangles.svg	1	yes	57	0	585	6	1	antiphase_hc_iso.wav	2	6	4	noise_calib_stim_RIGHT.wav	2	10	blb_dichoticlistening_da-ka.mp3	da	ka	1	other
6.6.1	win	2023-06-02	04:56:45	05:11:02	854410	632c0075227e9b734c80424d	1	1	practice_slash	22	practice_slash	19	stimuli_target_rectanglediamonds.svg	stimuli_distractor_trianglediamonds.svg	4	yes	53	1	1056	6	1	antiphase_hc_iso.wav	2	6	4	noise_calib_stim_RIGHT.wav	2	10	blb_dichoticlistening_da-ka.mp3	da	ka	1	other
6.6.1	win	2023-06-02	04:56:45	05:11:02	854410	632c0075227e9b734c80424d	1	1	practice_slash	22	advance_on_keypress_SLASH	20	stimuli_target_rectanglediamonds.svg	stimuli_distractor_trianglediamonds.svg	4	yes	57	0	1035	6	1	antiphase_hc_iso.wav	2	6	4	noise_calib_stim_RIGHT.wav	2	10	blb_dichoticlistening_da-ka.mp3	da	ka	1	other
6.6.1	win	2023-06-02	04:56:45	05:11:06	857921	632c0075227e9b734c80424d	1	1	practice_slash	22	practice_slash	21	stimuli_distractor_trianglediamonds.svg	stimuli_target_squarediamonds.svg	11	yes	53	1	815	6	1	antiphase_hc_iso.wav	2	6	4	noise_calib_stim_RIGHT.wav	2	10	blb_dichoticlistening_da-ka.mp3	da	ka	1	other
6.6.1	win	2023-06-02	04:56:45	05:11:06	857921	632c0075227e9b734c80424d	1	1	practice_slash	22	advance_on_keypress_SLASH	22	stimuli_distractor_trianglediamonds.svg	stimuli_target_squarediamonds.svg	11	yes	57	0	460	6	1	antiphase_hc_iso.wav	2	6	4	noise_calib_stim_RIGHT.wav	2	10	blb_dichoticlistening_da-ka.mp3	da	ka	1	other
6.6.1	win	2023-06-02	04:56:45	05:11:10	862042	632c0075227e9b734c80424d	1	1	practice_slash	22	practice_slash	23	stimuli_distractor_diamondtriangles.svg	stimuli_target_trianglerectangles.svg	9	yes	0	0	2000	6	1	antiphase_hc_iso.wav	2	6	4	noise_calib_stim_RIGHT.wav	2	10	blb_dichoticlistening_da-ka.mp3	da	ka	1	other
6.6.1	win	2023-06-02	04:56:45	05:11:10	862042	632c0075227e9b734c80424d	1	1	practice_slash	22	advance_on_keypress_SLASH	24	stimuli_distractor_diamondtriangles.svg	stimuli_target_trianglerectangles.svg	9	yes	57	0	164	6	1	antiphase_hc_iso.wav	2	6	4	noise_calib_stim_RIGHT.wav	2	10	blb_dichoticlistening_da-ka.mp3	da	ka	1	other
6.6.1	win	2023-06-02	04:56:45	05:11:14	865847	632c0075227e9b734c80424d	1	1	practice_slash	22	practice_slash	25	stimuli_distractor_diamondtriangles.svg	stimuli_distractor_diamondtriangles.svg	13	no	0	1	2000	6	1	antiphase_hc_iso.wav	2	6	4	noise_calib_stim_RIGHT.wav	2	10	blb_dichoticlistening_da-ka.mp3	da	ka	1	other
6.6.1	win	2023-06-02	04:56:45	05:11:14	865847	632c0075227e9b734c80424d	1	1	practice_slash	22	advance_on_keypress_SLASH	26	stimuli_distractor_diamondtriangles.svg	stimuli_distractor_diamondtriangles.svg	13	no	57	0	345	6	1	antiphase_hc_iso.wav	2	6	4	noise_calib_stim_RIGHT.wav	2	10	blb_dichoticlistening_da-ka.mp3	da	ka	1	other
6.6.1	win	2023-06-02	04:56:45	05:11:17	868901	632c0075227e9b734c80424d	1	1	practice_slash	22	practice_slash	27	stimuli_target_squarediamonds.svg	stimuli_distractor_trianglediamonds.svg	5	yes	53	1	1033	6	1	antiphase_hc_iso.wav	2	6	4	noise_calib_stim_RIGHT.wav	2	10	blb_dichoticlistening_da-ka.mp3	da	ka	1	other
6.6.1	win	2023-06-02	04:56:45	05:11:17	868901	632c0075227e9b734c80424d	1	1	practice_slash	22	advance_on_keypress_SLASH	28	stimuli_target_squarediamonds.svg	stimuli_distractor_trianglediamonds.svg	5	yes	57	0	588	6	1	antiphase_hc_iso.wav	2	6	4	noise_calib_stim_RIGHT.wav	2	10	blb_dichoticlistening_da-ka.mp3	da	ka	1	other
6.6.1	win	2023-06-02	04:56:45	05:11:20	871874	632c0075227e9b734c80424d	1	1	practice_slash	22	practice_slash	29	stimuli_distractor_diamondtriangles.svg	stimuli_target_rectangletriangles.svg	7	yes	53	1	723	6	1	antiphase_hc_iso.wav	2	6	4	noise_calib_stim_RIGHT.wav	2	10	blb_dichoticlistening_da-ka.mp3	da	ka	1	other
6.6.1	win	2023-06-02	04:56:45	05:11:20	871874	632c0075227e9b734c80424d	1	1	practice_slash	22	advance_on_keypress_SLASH	30	stimuli_distractor_diamondtriangles.svg	stimuli_target_rectangletriangles.svg	7	yes	57	0	468	6	1	antiphase_hc_iso.wav	2	6	4	noise_calib_stim_RIGHT.wav	2	10	blb_dichoticlistening_da-ka.mp3	da	ka	1	other
6.6.1	win	2023-06-02	04:56:45	05:11:23	875420	632c0075227e9b734c80424d	1	1	practice_slash	22	practice_slash	31	stimuli_distractor_trianglediamonds.svg	stimuli_target_diamondrectangles.svg	12	yes	53	1	1407	6	1	antiphase_hc_iso.wav	2	6	4	noise_calib_stim_RIGHT.wav	2	10	blb_dichoticlistening_da-ka.mp3	da	ka	1	other
6.6.1	win	2023-06-02	04:56:45	05:11:23	875420	632c0075227e9b734c80424d	1	1	practice_slash	22	advance_on_keypress_SLASH	32	stimuli_distractor_trianglediamonds.svg	stimuli_target_diamondrectangles.svg	12	yes	57	0	1020	6	1	antiphase_hc_iso.wav	2	6	4	noise_calib_stim_RIGHT.wav	2	10	blb_dichoticlistening_da-ka.mp3	da	ka	1	other
6.6.1	win	2023-06-02	04:56:45	05:11:36	887749	632c0075227e9b734c80424d	1	1	main_slash	24	main_slash	1	stimuli_target_diamondsquares.svg	stimuli_distractor_trianglediamonds.svg	20	yes	53	1	899	6	1	antiphase_hc_iso.wav	2	6	4	noise_calib_stim_RIGHT.wav	2	10	blb_dichoticlistening_da-ka.mp3	da	ka	1	other
6.6.1	win	2023-06-02	04:56:45	05:11:36	887749	632c0075227e9b734c80424d	1	1	main_slash	24	advance_on_keypress_SLASH	2	stimuli_target_diamondsquares.svg	stimuli_distractor_trianglediamonds.svg	20	yes	57	0	1253	6	1	antiphase_hc_iso.wav	2	6	4	noise_calib_stim_RIGHT.wav	2	10	blb_dichoticlistening_da-ka.mp3	da	ka	1	other
6.6.1	win	2023-06-02	04:56:45	05:11:40	891663	632c0075227e9b734c80424d	1	1	main_slash	24	main_slash	3	stimuli_distractor_trianglediamonds.svg	stimuli_distractor_trianglediamonds.svg	33	no	0	1	2000	6	1	antiphase_hc_iso.wav	2	6	4	noise_calib_stim_RIGHT.wav	2	10	blb_dichoticlistening_da-ka.mp3	da	ka	1	other
6.6.1	win	2023-06-02	04:56:45	05:11:40	891663	632c0075227e9b734c80424d	1	1	main_slash	24	advance_on_keypress_SLASH	4	stimuli_distractor_trianglediamonds.svg	stimuli_distractor_trianglediamonds.svg	33	no	57	0	686	6	1	antiphase_hc_iso.wav	2	6	4	noise_calib_stim_RIGHT.wav	2	10	blb_dichoticlistening_da-ka.mp3	da	ka	1	other
6.6.1	win	2023-06-02	04:56:45	05:11:42	894574	632c0075227e9b734c80424d	1	1	main_slash	24	main_slash	5	stimuli_distractor_diamondtriangles.svg	stimuli_distractor_trianglediamonds.svg	37	no	53	0	1586	6	1	antiphase_hc_iso.wav	2	6	4	noise_calib_stim_RIGHT.wav	2	10	blb_dichoticlistening_da-ka.mp3	da	ka	1	other
6.6.1	win	2023-06-02	04:56:45	05:11:42	894574	632c0075227e9b734c80424d	1	1	main_slash	24	advance_on_keypress_SLASH	6	stimuli_distractor_diamondtriangles.svg	stimuli_distractor_trianglediamonds.svg	37	no	57	0	1080	6	1	antiphase_hc_iso.wav	2	6	4	noise_calib_stim_RIGHT.wav	2	10	blb_dichoticlistening_da-ka.mp3	da	ka	1	other
6.6.1	win	2023-06-02	04:56:45	05:11:46	898312	632c0075227e9b734c80424d	1	1	main_slash	24	main_slash	7	stimuli_distractor_trianglediamonds.svg	stimuli_distractor_diamondtriangles.svg	35	no	0	1	2000	6	1	antiphase_hc_iso.wav	2	6	4	noise_calib_stim_RIGHT.wav	2	10	blb_dichoticlistening_da-ka.mp3	da	ka	1	other
6.6.1	win	2023-06-02	04:56:45	05:11:46	898312	632c0075227e9b734c80424d	1	1	main_slash	24	advance_on_keypress_SLASH	8	stimuli_distractor_trianglediamonds.svg	stimuli_distractor_diamondtriangles.svg	35	no	57	0	984	6	1	antiphase_hc_iso.wav	2	6	4	noise_calib_stim_RIGHT.wav	2	10	blb_dichoticlistening_da-ka.mp3	da	ka	1	other
6.6.1	win	2023-06-02	04:56:45	05:11:50	901923	632c0075227e9b734c80424d	1	1	main_slash	24	main_slash	9	stimuli_distractor_diamondtriangles.svg	stimuli_target_trianglerectangles.svg	29	yes	53	1	1966	6	1	antiphase_hc_iso.wav	2	6	4	noise_calib_stim_RIGHT.wav	2	10	blb_dichoticlistening_da-ka.mp3	da	ka	1	other
6.6.1	win	2023-06-02	04:56:45	05:11:50	901923	632c0075227e9b734c80424d	1	1	main_slash	24	advance_on_keypress_SLASH	10	stimuli_distractor_diamondtriangles.svg	stimuli_target_trianglerectangles.svg	29	yes	57	0	926	6	1	antiphase_hc_iso.wav	2	6	4	noise_calib_stim_RIGHT.wav	2	10	blb_dichoticlistening_da-ka.mp3	da	ka	1	other
6.6.1	win	2023-06-02	04:56:45	05:11:52	904295	632c0075227e9b734c80424d	1	1	main_slash	24	main_slash	11	stimuli_distractor_diamondtriangles.svg	stimuli_target_squaretriangles.svg	15	yes	53	1	798	6	1	antiphase_hc_iso.wav	2	6	4	noise_calib_stim_RIGHT.wav	2	10	blb_dichoticlistening_da-ka.mp3	da	ka	1	other
6.6.1	win	2023-06-02	04:56:45	05:11:52	904295	632c0075227e9b734c80424d	1	1	main_slash	24	advance_on_keypress_SLASH	12	stimuli_distractor_diamondtriangles.svg	stimuli_target_squaretriangles.svg	15	yes	57	0	765	6	1	antiphase_hc_iso.wav	2	6	4	noise_calib_stim_RIGHT.wav	2	10	blb_dichoticlistening_da-ka.mp3	da	ka	1	other
6.6.1	win	2023-06-02	04:56:45	05:11:54	906323	632c0075227e9b734c80424d	1	1	main_slash	24	main_slash	13	stimuli_distractor_trianglediamonds.svg	stimuli_target_rectanglediamonds.svg	10	yes	53	1	620	6	1	antiphase_hc_iso.wav	2	6	4	noise_calib_stim_RIGHT.wav	2	10	blb_dichoticlistening_da-ka.mp3	da	ka	1	other
6.6.1	win	2023-06-02	04:56:45	05:11:54	906323	632c0075227e9b734c80424d	1	1	main_slash	24	advance_on_keypress_SLASH	14	stimuli_distractor_trianglediamonds.svg	stimuli_target_rectanglediamonds.svg	10	yes	57	0	682	6	1	antiphase_hc_iso.wav	2	6	4	noise_calib_stim_RIGHT.wav	2	10	blb_dichoticlistening_da-ka.mp3	da	ka	1	other
6.6.1	win	2023-06-02	04:56:45	05:11:58	909651	632c0075227e9b734c80424d	1	1	main_slash	24	main_slash	15	stimuli_distractor_diamondtriangles.svg	stimuli_distractor_diamondtriangles.svg	40	no	0	1	2000	6	1	antiphase_hc_iso.wav	2	6	4	noise_calib_stim_RIGHT.wav	2	10	blb_dichoticlistening_da-ka.mp3	da	ka	1	other
6.6.1	win	2023-06-02	04:56:45	05:11:58	909651	632c0075227e9b734c80424d	1	1	main_slash	24	advance_on_keypress_SLASH	16	stimuli_distractor_diamondtriangles.svg	stimuli_distractor_diamondtriangles.svg	40	no	57	0	418	6	1	antiphase_hc_iso.wav	2	6	4	noise_calib_stim_RIGHT.wav	2	10	blb_dichoticlistening_da-ka.mp3	da	ka	1	other
6.6.1	win	2023-06-02	04:56:45	05:11:59	911299	632c0075227e9b734c80424d	1	1	main_slash	24	main_slash	17	stimuli_target_rectanglediamonds.svg	stimuli_distractor_diamondtriangles.svg	6	yes	53	1	575	6	1	antiphase_hc_iso.wav	2	6	4	noise_calib_stim_RIGHT.wav	2	10	blb_dichoticlistening_da-ka.mp3	da	ka	1	other
6.6.1	win	2023-06-02	04:56:45	05:11:59	911299	632c0075227e9b734c80424d	1	1	main_slash	24	advance_on_keypress_SLASH	18	stimuli_target_rectanglediamonds.svg	stimuli_distractor_diamondtriangles.svg	6	yes	57	0	495	6	1	antiphase_hc_iso.wav	2	6	4	noise_calib_stim_RIGHT.wav	2	10	blb_dichoticlistening_da-ka.mp3	da	ka	1	other
6.6.1	win	2023-06-02	04:56:45	05:12:02	914447	632c0075227e9b734c80424d	1	1	main_slash	24	main_slash	19	stimuli_distractor_trianglediamonds.svg	stimuli_target_diamondrectangles.svg	27	yes	0	0	2000	6	1	antiphase_hc_iso.wav	2	6	4	noise_calib_stim_RIGHT.wav	2	10	blb_dichoticlistening_da-ka.mp3	da	ka	1	other
6.6.1	win	2023-06-02	04:56:45	05:12:02	914447	632c0075227e9b734c80424d	1	1	main_slash	24	advance_on_keypress_SLASH	20	stimuli_distractor_trianglediamonds.svg	stimuli_target_diamondrectangles.svg	27	yes	57	0	727	6	1	antiphase_hc_iso.wav	2	6	4	noise_calib_stim_RIGHT.wav	2	10	blb_dichoticlistening_da-ka.mp3	da	ka	1	other
6.6.1	win	2023-06-02	04:56:45	05:12:06	917833	632c0075227e9b734c80424d	1	1	main_slash	24	main_slash	21	stimuli_distractor_trianglediamonds.svg	stimuli_distractor_diamondtriangles.svg	36	no	0	1	2000	6	1	antiphase_hc_iso.wav	2	6	4	noise_calib_stim_RIGHT.wav	2	10	blb_dichoticlistening_da-ka.mp3	da	ka	1	other
6.6.1	win	2023-06-02	04:56:45	05:12:06	917833	632c0075227e9b734c80424d	1	1	main_slash	24	advance_on_keypress_SLASH	22	stimuli_distractor_trianglediamonds.svg	stimuli_distractor_diamondtriangles.svg	36	no	57	0	661	6	1	antiphase_hc_iso.wav	2	6	4	noise_calib_stim_RIGHT.wav	2	10	blb_dichoticlistening_da-ka.mp3	da	ka	1	other
6.6.1	win	2023-06-02	04:56:45	05:12:08	919843	632c0075227e9b734c80424d	1	1	main_slash	24	main_slash	23	stimuli_target_rectangletriangles.svg	stimuli_distractor_trianglediamonds.svg	1	yes	53	1	689	6	1	antiphase_hc_iso.wav	2	6	4	noise_calib_stim_RIGHT.wav	2	10	blb_dichoticlistening_da-ka.mp3	da	ka	1	other
6.6.1	win	2023-06-02	04:56:45	05:12:08	919843	632c0075227e9b734c80424d	1	1	main_slash	24	advance_on_keypress_SLASH	24	stimuli_target_rectangletriangles.svg	stimuli_distractor_trianglediamonds.svg	1	yes	57	0	443	6	1	antiphase_hc_iso.wav	2	6	4	noise_calib_stim_RIGHT.wav	2	10	blb_dichoticlistening_da-ka.mp3	da	ka	1	other
6.6.1	win	2023-06-02	04:56:45	05:12:09	921464	632c0075227e9b734c80424d	1	1	main_slash	24	main_slash	25	stimuli_target_squaretriangles.svg	stimuli_distractor_trianglediamonds.svg	3	yes	53	1	536	6	1	antiphase_hc_iso.wav	2	6	4	noise_calib_stim_RIGHT.wav	2	10	blb_dichoticlistening_da-ka.mp3	da	ka	1	other
6.6.1	win	2023-06-02	04:56:45	05:12:09	921464	632c0075227e9b734c80424d	1	1	main_slash	24	advance_on_keypress_SLASH	26	stimuli_target_squaretriangles.svg	stimuli_distractor_trianglediamonds.svg	3	yes	57	0	369	6	1	antiphase_hc_iso.wav	2	6	4	noise_calib_stim_RIGHT.wav	2	10	blb_dichoticlistening_da-ka.mp3	da	ka	1	other
6.6.1	win	2023-06-02	04:56:45	05:12:12	924479	632c0075227e9b734c80424d	1	1	main_slash	24	main_slash	27	stimuli_target_trianglesquares.svg	stimuli_distractor_trianglediamonds.svg	18	yes	0	0	2000	6	1	antiphase_hc_iso.wav	2	6	4	noise_calib_stim_RIGHT.wav	2	10	blb_dichoticlistening_da-ka.mp3	da	ka	1	other
6.6.1	win	2023-06-02	04:56:45	05:12:12	924479	632c0075227e9b734c80424d	1	1	main_slash	24	advance_on_keypress_SLASH	28	stimuli_target_trianglesquares.svg	stimuli_distractor_trianglediamonds.svg	18	yes	57	0	519	6	1	antiphase_hc_iso.wav	2	6	4	noise_calib_stim_RIGHT.wav	2	10	blb_dichoticlistening_da-ka.mp3	da	ka	1	other
6.6.1	win	2023-06-02	04:56:45	05:12:15	926841	632c0075227e9b734c80424d	1	1	main_slash	24	main_slash	29	stimuli_target_diamondsquares.svg	stimuli_distractor_diamondtriangles.svg	24	yes	53	1	1192	6	1	antiphase_hc_iso.wav	2	6	4	noise_calib_stim_RIGHT.wav	2	10	blb_dichoticlistening_da-ka.mp3	da	ka	1	other
6.6.1	win	2023-06-02	04:56:45	05:12:15	926841	632c0075227e9b734c80424d	1	1	main_slash	24	advance_on_keypress_SLASH	30	stimuli_target_diamondsquares.svg	stimuli_distractor_diamondtriangles.svg	24	yes	57	0	1095	6	1	antiphase_hc_iso.wav	2	6	4	noise_calib_stim_RIGHT.wav	2	10	blb_dichoticlistening_da-ka.mp3	da	ka	1	other
6.6.1	win	2023-06-02	04:56:45	05:12:17	929201	632c0075227e9b734c80424d	1	1	main_slash	24	main_slash	31	stimuli_target_rectanglediamonds.svg	stimuli_distractor_trianglediamonds.svg	2	yes	53	1	609	6	1	antiphase_hc_iso.wav	2	6	4	noise_calib_stim_RIGHT.wav	2	10	blb_dichoticlistening_da-ka.mp3	da	ka	1	other
6.6.1	win	2023-06-02	04:56:45	05:12:17	929201	632c0075227e9b734c80424d	1	1	main_slash	24	advance_on_keypress_SLASH	32	stimuli_target_rectanglediamonds.svg	stimuli_distractor_trianglediamonds.svg	2	yes	57	0	1022	6	1	antiphase_hc_iso.wav	2	6	4	noise_calib_stim_RIGHT.wav	2	10	blb_dichoticlistening_da-ka.mp3	da	ka	1	other
6.6.1	win	2023-06-02	04:56:45	05:12:19	931497	632c0075227e9b734c80424d	1	1	main_slash	24	main_slash	33	stimuli_distractor_diamondtriangles.svg	stimuli_target_rectangletriangles.svg	13	yes	53	1	611	6	1	antiphase_hc_iso.wav	2	6	4	noise_calib_stim_RIGHT.wav	2	10	blb_dichoticlistening_da-ka.mp3	da	ka	1	other
6.6.1	win	2023-06-02	04:56:45	05:12:19	931497	632c0075227e9b734c80424d	1	1	main_slash	24	advance_on_keypress_SLASH	34	stimuli_distractor_diamondtriangles.svg	stimuli_target_rectangletriangles.svg	13	yes	57	0	857	6	1	antiphase_hc_iso.wav	2	6	4	noise_calib_stim_RIGHT.wav	2	10	blb_dichoticlistening_da-ka.mp3	da	ka	1	other
6.6.1	win	2023-06-02	04:56:45	05:12:22	933687	632c0075227e9b734c80424d	1	1	main_slash	24	main_slash	35	stimuli_distractor_trianglediamonds.svg	stimuli_target_squaretriangles.svg	11	yes	53	1	685	6	1	antiphase_hc_iso.wav	2	6	4	noise_calib_stim_RIGHT.wav	2	10	blb_dichoticlistening_da-ka.mp3	da	ka	1	other
6.6.1	win	2023-06-02	04:56:45	05:12:22	933687	632c0075227e9b734c80424d	1	1	main_slash	24	advance_on_keypress_SLASH	36	stimuli_distractor_trianglediamonds.svg	stimuli_target_squaretriangles.svg	11	yes	57	0	440	6	1	antiphase_hc_iso.wav	2	6	4	noise_calib_stim_RIGHT.wav	2	10	blb_dichoticlistening_da-ka.mp3	da	ka	1	other
6.6.1	win	2023-06-02	04:56:45	05:12:23	935601	632c0075227e9b734c80424d	1	1	main_slash	24	main_slash	37	stimuli_target_trianglerectangles.svg	stimuli_distractor_diamondtriangles.svg	21	yes	53	1	838	6	1	antiphase_hc_iso.wav	2	6	4	noise_calib_stim_RIGHT.wav	2	10	blb_dichoticlistening_da-ka.mp3	da	ka	1	other
6.6.1	win	2023-06-02	04:56:45	05:12:23	935601	632c0075227e9b734c80424d	1	1	main_slash	24	advance_on_keypress_SLASH	38	stimuli_target_trianglerectangles.svg	stimuli_distractor_diamondtriangles.svg	21	yes	57	0	1130	6	1	antiphase_hc_iso.wav	2	6	4	noise_calib_stim_RIGHT.wav	2	10	blb_dichoticlistening_da-ka.mp3	da	ka	1	other
6.6.1	win	2023-06-02	04:56:45	05:12:26	938123	632c0075227e9b734c80424d	1	1	main_slash	24	main_slash	39	stimuli_target_squarediamonds.svg	stimuli_distractor_diamondtriangles.svg	8	yes	53	1	747	6	1	antiphase_hc_iso.wav	2	6	4	noise_calib_stim_RIGHT.wav	2	10	blb_dichoticlistening_da-ka.mp3	da	ka	1	other
6.6.1	win	2023-06-02	04:56:45	05:12:26	938123	632c0075227e9b734c80424d	1	1	main_slash	24	advance_on_keypress_SLASH	40	stimuli_target_squarediamonds.svg	stimuli_distractor_diamondtriangles.svg	8	yes	57	0	732	6	1	antiphase_hc_iso.wav	2	6	4	noise_calib_stim_RIGHT.wav	2	10	blb_dichoticlistening_da-ka.mp3	da	ka	1	other
6.6.1	win	2023-06-02	04:56:45	05:12:29	941496	632c0075227e9b734c80424d	1	1	main_slash	24	main_slash	41	stimuli_distractor_trianglediamonds.svg	stimuli_distractor_trianglediamonds.svg	34	no	0	1	2000	6	1	antiphase_hc_iso.wav	2	6	4	noise_calib_stim_RIGHT.wav	2	10	blb_dichoticlistening_da-ka.mp3	da	ka	1	other
6.6.1	win	2023-06-02	04:56:45	05:12:29	941496	632c0075227e9b734c80424d	1	1	main_slash	24	advance_on_keypress_SLASH	42	stimuli_distractor_trianglediamonds.svg	stimuli_distractor_trianglediamonds.svg	34	no	57	0	385	6	1	antiphase_hc_iso.wav	2	6	4	noise_calib_stim_RIGHT.wav	2	10	blb_dichoticlistening_da-ka.mp3	da	ka	1	other
6.6.1	win	2023-06-02	04:56:45	05:12:31	943162	632c0075227e9b734c80424d	1	1	main_slash	24	main_slash	43	stimuli_target_rectangletriangles.svg	stimuli_distractor_diamondtriangles.svg	5	yes	53	1	616	6	1	antiphase_hc_iso.wav	2	6	4	noise_calib_stim_RIGHT.wav	2	10	blb_dichoticlistening_da-ka.mp3	da	ka	1	other
6.6.1	win	2023-06-02	04:56:45	05:12:31	943162	632c0075227e9b734c80424d	1	1	main_slash	24	advance_on_keypress_SLASH	44	stimuli_target_rectangletriangles.svg	stimuli_distractor_diamondtriangles.svg	5	yes	57	0	2790	6	1	antiphase_hc_iso.wav	2	6	4	noise_calib_stim_RIGHT.wav	2	10	blb_dichoticlistening_da-ka.mp3	da	ka	1	other
6.6.1	win	2023-06-02	04:56:45	05:12:36	948616	632c0075227e9b734c80424d	1	1	main_slash	24	main_slash	45	stimuli_target_trianglesquares.svg	stimuli_distractor_diamondtriangles.svg	22	yes	0	0	2000	6	1	antiphase_hc_iso.wav	2	6	4	noise_calib_stim_RIGHT.wav	2	10	blb_dichoticlistening_da-ka.mp3	da	ka	1	other
6.6.1	win	2023-06-02	04:56:45	05:12:36	948616	632c0075227e9b734c80424d	1	1	main_slash	24	advance_on_keypress_SLASH	46	stimuli_target_trianglesquares.svg	stimuli_distractor_diamondtriangles.svg	22	yes	57	0	400	6	1	antiphase_hc_iso.wav	2	6	4	noise_calib_stim_RIGHT.wav	2	10	blb_dichoticlistening_da-ka.mp3	da	ka	1	other
6.6.1	win	2023-06-02	04:56:45	05:12:38	950219	632c0075227e9b734c80424d	1	1	main_slash	24	main_slash	47	stimuli_distractor_trianglediamonds.svg	stimuli_target_squarediamonds.svg	12	yes	53	1	534	6	1	antiphase_hc_iso.wav	2	6	4	noise_calib_stim_RIGHT.wav	2	10	blb_dichoticlistening_da-ka.mp3	da	ka	1	other
6.6.1	win	2023-06-02	04:56:45	05:12:38	950219	632c0075227e9b734c80424d	1	1	main_slash	24	advance_on_keypress_SLASH	48	stimuli_distractor_trianglediamonds.svg	stimuli_target_squarediamonds.svg	12	yes	57	0	567	6	1	antiphase_hc_iso.wav	2	6	4	noise_calib_stim_RIGHT.wav	2	10	blb_dichoticlistening_da-ka.mp3	da	ka	1	other
6.6.1	win	2023-06-02	04:56:45	05:12:40	951937	632c0075227e9b734c80424d	1	1	main_slash	24	main_slash	49	stimuli_distractor_diamondtriangles.svg	stimuli_target_rectanglediamonds.svg	14	yes	53	1	469	6	1	antiphase_hc_iso.wav	2	6	4	noise_calib_stim_RIGHT.wav	2	10	blb_dichoticlistening_da-ka.mp3	da	ka	1	other
6.6.1	win	2023-06-02	04:56:45	05:12:40	951937	632c0075227e9b734c80424d	1	1	main_slash	24	advance_on_keypress_SLASH	50	stimuli_distractor_diamondtriangles.svg	stimuli_target_rectanglediamonds.svg	14	yes	57	0	729	6	1	antiphase_hc_iso.wav	2	6	4	noise_calib_stim_RIGHT.wav	2	10	blb_dichoticlistening_da-ka.mp3	da	ka	1	other
6.6.1	win	2023-06-02	04:56:45	05:12:43	955329	632c0075227e9b734c80424d	1	1	main_slash	24	main_slash	51	stimuli_distractor_diamondtriangles.svg	stimuli_target_trianglesquares.svg	30	yes	0	0	2000	6	1	antiphase_hc_iso.wav	2	6	4	noise_calib_stim_RIGHT.wav	2	10	blb_dichoticlistening_da-ka.mp3	da	ka	1	other
6.6.1	win	2023-06-02	04:56:45	05:12:43	955329	632c0075227e9b734c80424d	1	1	main_slash	24	advance_on_keypress_SLASH	52	stimuli_distractor_diamondtriangles.svg	stimuli_target_trianglesquares.svg	30	yes	57	0	895	6	1	antiphase_hc_iso.wav	2	6	4	noise_calib_stim_RIGHT.wav	2	10	blb_dichoticlistening_da-ka.mp3	da	ka	1	other
6.6.1	win	2023-06-02	04:56:45	05:12:45	957336	632c0075227e9b734c80424d	1	1	main_slash	24	main_slash	53	stimuli_distractor_diamondtriangles.svg	stimuli_target_squarediamonds.svg	16	yes	53	1	466	6	1	antiphase_hc_iso.wav	2	6	4	noise_calib_stim_RIGHT.wav	2	10	blb_dichoticlistening_da-ka.mp3	da	ka	1	other
6.6.1	win	2023-06-02	04:56:45	05:12:45	957336	632c0075227e9b734c80424d	1	1	main_slash	24	advance_on_keypress_SLASH	54	stimuli_distractor_diamondtriangles.svg	stimuli_target_squarediamonds.svg	16	yes	57	0	750	6	1	antiphase_hc_iso.wav	2	6	4	noise_calib_stim_RIGHT.wav	2	10	blb_dichoticlistening_da-ka.mp3	da	ka	1	other
6.6.1	win	2023-06-02	04:56:45	05:12:49	960736	632c0075227e9b734c80424d	1	1	main_slash	24	main_slash	55	stimuli_target_trianglerectangles.svg	stimuli_distractor_trianglediamonds.svg	17	yes	0	0	2000	6	1	antiphase_hc_iso.wav	2	6	4	noise_calib_stim_RIGHT.wav	2	10	blb_dichoticlistening_da-ka.mp3	da	ka	1	other
6.6.1	win	2023-06-02	04:56:45	05:12:49	960736	632c0075227e9b734c80424d	1	1	main_slash	24	advance_on_keypress_SLASH	56	stimuli_target_trianglerectangles.svg	stimuli_distractor_trianglediamonds.svg	17	yes	57	0	267	6	1	antiphase_hc_iso.wav	2	6	4	noise_calib_stim_RIGHT.wav	2	10	blb_dichoticlistening_da-ka.mp3	da	ka	1	other
6.6.1	win	2023-06-02	04:56:45	05:12:50	962196	632c0075227e9b734c80424d	1	1	main_slash	24	main_slash	57	stimuli_target_squarediamonds.svg	stimuli_distractor_trianglediamonds.svg	4	yes	53	1	551	6	1	antiphase_hc_iso.wav	2	6	4	noise_calib_stim_RIGHT.wav	2	10	blb_dichoticlistening_da-ka.mp3	da	ka	1	other
6.6.1	win	2023-06-02	04:56:45	05:12:50	962196	632c0075227e9b734c80424d	1	1	main_slash	24	advance_on_keypress_SLASH	58	stimuli_target_squarediamonds.svg	stimuli_distractor_trianglediamonds.svg	4	yes	57	0	639	6	1	antiphase_hc_iso.wav	2	6	4	noise_calib_stim_RIGHT.wav	2	10	blb_dichoticlistening_da-ka.mp3	da	ka	1	other
6.6.1	win	2023-06-02	04:56:45	05:12:53	965483	632c0075227e9b734c80424d	1	1	main_slash	24	main_slash	59	stimuli_distractor_diamondtriangles.svg	stimuli_target_diamondrectangles.svg	31	yes	0	0	2000	6	1	antiphase_hc_iso.wav	2	6	4	noise_calib_stim_RIGHT.wav	2	10	blb_dichoticlistening_da-ka.mp3	da	ka	1	other
6.6.1	win	2023-06-02	04:56:45	05:12:53	965483	632c0075227e9b734c80424d	1	1	main_slash	24	advance_on_keypress_SLASH	60	stimuli_distractor_diamondtriangles.svg	stimuli_target_diamondrectangles.svg	31	yes	57	0	546	6	1	antiphase_hc_iso.wav	2	6	4	noise_calib_stim_RIGHT.wav	2	10	blb_dichoticlistening_da-ka.mp3	da	ka	1	other
6.6.1	win	2023-06-02	04:56:45	05:12:57	968692	632c0075227e9b734c80424d	1	1	main_slash	24	main_slash	61	stimuli_distractor_trianglediamonds.svg	stimuli_target_trianglesquares.svg	26	yes	0	0	2000	6	1	antiphase_hc_iso.wav	2	6	4	noise_calib_stim_RIGHT.wav	2	10	blb_dichoticlistening_da-ka.mp3	da	ka	1	other
6.6.1	win	2023-06-02	04:56:45	05:12:57	968692	632c0075227e9b734c80424d	1	1	main_slash	24	advance_on_keypress_SLASH	62	stimuli_distractor_trianglediamonds.svg	stimuli_target_trianglesquares.svg	26	yes	57	0	415	6	1	antiphase_hc_iso.wav	2	6	4	noise_calib_stim_RIGHT.wav	2	10	blb_dichoticlistening_da-ka.mp3	da	ka	1	other
6.6.1	win	2023-06-02	04:56:45	05:13:00	971760	632c0075227e9b734c80424d	1	1	main_slash	24	main_slash	63	stimuli_target_diamondrectangles.svg	stimuli_distractor_trianglediamonds.svg	19	yes	0	0	2000	6	1	antiphase_hc_iso.wav	2	6	4	noise_calib_stim_RIGHT.wav	2	10	blb_dichoticlistening_da-ka.mp3	da	ka	1	other
6.6.1	win	2023-06-02	04:56:45	05:13:00	971760	632c0075227e9b734c80424d	1	1	main_slash	24	advance_on_keypress_SLASH	64	stimuli_target_diamondrectangles.svg	stimuli_distractor_trianglediamonds.svg	19	yes	57	0	338	6	1	antiphase_hc_iso.wav	2	6	4	noise_calib_stim_RIGHT.wav	2	10	blb_dichoticlistening_da-ka.mp3	da	ka	1	other
6.6.1	win	2023-06-02	04:56:45	05:13:01	973421	632c0075227e9b734c80424d	1	1	main_slash	24	main_slash	65	stimuli_target_squaretriangles.svg	stimuli_distractor_diamondtriangles.svg	7	yes	53	1	666	6	1	antiphase_hc_iso.wav	2	6	4	noise_calib_stim_RIGHT.wav	2	10	blb_dichoticlistening_da-ka.mp3	da	ka	1	other
6.6.1	win	2023-06-02	04:56:45	05:13:01	973421	632c0075227e9b734c80424d	1	1	main_slash	24	advance_on_keypress_SLASH	66	stimuli_target_squaretriangles.svg	stimuli_distractor_diamondtriangles.svg	7	yes	57	0	382	6	1	antiphase_hc_iso.wav	2	6	4	noise_calib_stim_RIGHT.wav	2	10	blb_dichoticlistening_da-ka.mp3	da	ka	1	other
6.6.1	win	2023-06-02	04:56:45	05:13:04	976470	632c0075227e9b734c80424d	1	1	main_slash	24	main_slash	67	stimuli_distractor_trianglediamonds.svg	stimuli_target_trianglerectangles.svg	25	yes	0	0	2000	6	1	antiphase_hc_iso.wav	2	6	4	noise_calib_stim_RIGHT.wav	2	10	blb_dichoticlistening_da-ka.mp3	da	ka	1	other
6.6.1	win	2023-06-02	04:56:45	05:13:04	976470	632c0075227e9b734c80424d	1	1	main_slash	24	advance_on_keypress_SLASH	68	stimuli_distractor_trianglediamonds.svg	stimuli_target_trianglerectangles.svg	25	yes	57	0	355	6	1	antiphase_hc_iso.wav	2	6	4	noise_calib_stim_RIGHT.wav	2	10	blb_dichoticlistening_da-ka.mp3	da	ka	1	other
6.6.1	win	2023-06-02	04:56:45	05:13:07	979459	632c0075227e9b734c80424d	1	1	main_slash	24	main_slash	69	stimuli_target_diamondrectangles.svg	stimuli_distractor_diamondtriangles.svg	23	yes	0	0	2000	6	1	antiphase_hc_iso.wav	2	6	4	noise_calib_stim_RIGHT.wav	2	10	blb_dichoticlistening_da-ka.mp3	da	ka	1	other
6.6.1	win	2023-06-02	04:56:45	05:13:07	979459	632c0075227e9b734c80424d	1	1	main_slash	24	advance_on_keypress_SLASH	70	stimuli_target_diamondrectangles.svg	stimuli_distractor_diamondtriangles.svg	23	yes	57	0	329	6	1	antiphase_hc_iso.wav	2	6	4	noise_calib_stim_RIGHT.wav	2	10	blb_dichoticlistening_da-ka.mp3	da	ka	1	other
6.6.1	win	2023-06-02	04:56:45	05:13:10	982444	632c0075227e9b734c80424d	1	1	main_slash	24	main_slash	71	stimuli_distractor_diamondtriangles.svg	stimuli_distractor_trianglediamonds.svg	38	no	0	1	2000	6	1	antiphase_hc_iso.wav	2	6	4	noise_calib_stim_RIGHT.wav	2	10	blb_dichoticlistening_da-ka.mp3	da	ka	1	other
6.6.1	win	2023-06-02	04:56:45	05:13:10	982444	632c0075227e9b734c80424d	1	1	main_slash	24	advance_on_keypress_SLASH	72	stimuli_distractor_diamondtriangles.svg	stimuli_distractor_trianglediamonds.svg	38	no	57	0	207	6	1	antiphase_hc_iso.wav	2	6	4	noise_calib_stim_RIGHT.wav	2	10	blb_dichoticlistening_da-ka.mp3	da	ka	1	other
6.6.1	win	2023-06-02	04:56:45	05:13:13	985280	632c0075227e9b734c80424d	1	1	main_slash	24	main_slash	73	stimuli_distractor_trianglediamonds.svg	stimuli_target_diamondsquares.svg	28	yes	0	0	2000	6	1	antiphase_hc_iso.wav	2	6	4	noise_calib_stim_RIGHT.wav	2	10	blb_dichoticlistening_da-ka.mp3	da	ka	1	other
6.6.1	win	2023-06-02	04:56:45	05:13:13	985280	632c0075227e9b734c80424d	1	1	main_slash	24	advance_on_keypress_SLASH	74	stimuli_distractor_trianglediamonds.svg	stimuli_target_diamondsquares.svg	28	yes	57	0	284	6	1	antiphase_hc_iso.wav	2	6	4	noise_calib_stim_RIGHT.wav	2	10	blb_dichoticlistening_da-ka.mp3	da	ka	1	other
6.6.1	win	2023-06-02	04:56:45	05:13:16	988248	632c0075227e9b734c80424d	1	1	main_slash	24	main_slash	75	stimuli_distractor_diamondtriangles.svg	stimuli_distractor_diamondtriangles.svg	39	no	0	1	2000	6	1	antiphase_hc_iso.wav	2	6	4	noise_calib_stim_RIGHT.wav	2	10	blb_dichoticlistening_da-ka.mp3	da	ka	1	other
6.6.1	win	2023-06-02	04:56:45	05:13:16	988248	632c0075227e9b734c80424d	1	1	main_slash	24	advance_on_keypress_SLASH	76	stimuli_distractor_diamondtriangles.svg	stimuli_distractor_diamondtriangles.svg	39	no	57	0	92	6	1	antiphase_hc_iso.wav	2	6	4	noise_calib_stim_RIGHT.wav	2	10	blb_dichoticlistening_da-ka.mp3	da	ka	1	other
6.6.1	win	2023-06-02	04:56:45	05:13:19	990993	632c0075227e9b734c80424d	1	1	main_slash	24	main_slash	77	stimuli_distractor_diamondtriangles.svg	stimuli_target_diamondsquares.svg	32	yes	0	0	2000	6	1	antiphase_hc_iso.wav	2	6	4	noise_calib_stim_RIGHT.wav	2	10	blb_dichoticlistening_da-ka.mp3	da	ka	1	other
6.6.1	win	2023-06-02	04:56:45	05:13:19	990993	632c0075227e9b734c80424d	1	1	main_slash	24	advance_on_keypress_SLASH	78	stimuli_distractor_diamondtriangles.svg	stimuli_target_diamondsquares.svg	32	yes	57	0	299	6	1	antiphase_hc_iso.wav	2	6	4	noise_calib_stim_RIGHT.wav	2	10	blb_dichoticlistening_da-ka.mp3	da	ka	1	other
6.6.1	win	2023-06-02	04:56:45	05:13:21	992988	632c0075227e9b734c80424d	1	1	main_slash	24	main_slash	79	stimuli_distractor_trianglediamonds.svg	stimuli_target_rectangletriangles.svg	9	yes	53	1	1045	6	1	antiphase_hc_iso.wav	2	6	4	noise_calib_stim_RIGHT.wav	2	10	blb_dichoticlistening_da-ka.mp3	da	ka	1	other
6.6.1	win	2023-06-02	04:56:45	05:13:21	992988	632c0075227e9b734c80424d	1	1	main_slash	24	advance_on_keypress_SLASH	80	stimuli_distractor_trianglediamonds.svg	stimuli_target_rectangletriangles.svg	9	yes	57	0	690	6	1	antiphase_hc_iso.wav	2	6	4	noise_calib_stim_RIGHT.wav	2	10	blb_dichoticlistening_da-ka.mp3	da	ka	1	other
6.6.1	win	2023-06-02	04:56:45	05:13:23	995048	632c0075227e9b734c80424d	1	1	main_slash	24	main_slash	81	stimuli_distractor_diamondtriangles.svg	stimuli_target_rectanglediamonds.svg	14	yes	53	1	709	6	1	antiphase_hc_iso.wav	2	6	4	noise_calib_stim_RIGHT.wav	2	10	blb_dichoticlistening_da-ka.mp3	da	ka	1	other
6.6.1	win	2023-06-02	04:56:45	05:13:23	995048	632c0075227e9b734c80424d	1	1	main_slash	24	advance_on_keypress_SLASH	82	stimuli_distractor_diamondtriangles.svg	stimuli_target_rectanglediamonds.svg	14	yes	57	0	623	6	1	antiphase_hc_iso.wav	2	6	4	noise_calib_stim_RIGHT.wav	2	10	blb_dichoticlistening_da-ka.mp3	da	ka	1	other
6.6.1	win	2023-06-02	04:56:45	05:13:25	996981	632c0075227e9b734c80424d	1	1	main_slash	24	main_slash	83	stimuli_target_rectangletriangles.svg	stimuli_distractor_trianglediamonds.svg	1	yes	53	1	644	6	1	antiphase_hc_iso.wav	2	6	4	noise_calib_stim_RIGHT.wav	2	10	blb_dichoticlistening_da-ka.mp3	da	ka	1	other
6.6.1	win	2023-06-02	04:56:45	05:13:25	996981	632c0075227e9b734c80424d	1	1	main_slash	24	advance_on_keypress_SLASH	84	stimuli_target_rectangletriangles.svg	stimuli_distractor_trianglediamonds.svg	1	yes	57	0	656	6	1	antiphase_hc_iso.wav	2	6	4	noise_calib_stim_RIGHT.wav	2	10	blb_dichoticlistening_da-ka.mp3	da	ka	1	other
6.6.1	win	2023-06-02	04:56:45	05:13:28	1000287	632c0075227e9b734c80424d	1	1	main_slash	24	main_slash	85	stimuli_distractor_trianglediamonds.svg	stimuli_distractor_diamondtriangles.svg	35	no	0	1	2000	6	1	antiphase_hc_iso.wav	2	6	4	noise_calib_stim_RIGHT.wav	2	10	blb_dichoticlistening_da-ka.mp3	da	ka	1	other
6.6.1	win	2023-06-02	04:56:45	05:13:28	1000287	632c0075227e9b734c80424d	1	1	main_slash	24	advance_on_keypress_SLASH	86	stimuli_distractor_trianglediamonds.svg	stimuli_distractor_diamondtriangles.svg	35	no	57	0	297	6	1	antiphase_hc_iso.wav	2	6	4	noise_calib_stim_RIGHT.wav	2	10	blb_dichoticlistening_da-ka.mp3	da	ka	1	other
6.6.1	win	2023-06-02	04:56:45	05:13:31	1003229	632c0075227e9b734c80424d	1	1	main_slash	24	main_slash	87	stimuli_target_trianglesquares.svg	stimuli_distractor_diamondtriangles.svg	22	yes	0	0	2000	6	1	antiphase_hc_iso.wav	2	6	4	noise_calib_stim_RIGHT.wav	2	10	blb_dichoticlistening_da-ka.mp3	da	ka	1	other
6.6.1	win	2023-06-02	04:56:45	05:13:31	1003229	632c0075227e9b734c80424d	1	1	main_slash	24	advance_on_keypress_SLASH	88	stimuli_target_trianglesquares.svg	stimuli_distractor_diamondtriangles.svg	22	yes	57	0	457	6	1	antiphase_hc_iso.wav	2	6	4	noise_calib_stim_RIGHT.wav	2	10	blb_dichoticlistening_da-ka.mp3	da	ka	1	other
6.6.1	win	2023-06-02	04:56:45	05:13:34	1006358	632c0075227e9b734c80424d	1	1	main_slash	24	main_slash	89	stimuli_distractor_diamondtriangles.svg	stimuli_distractor_trianglediamonds.svg	38	no	0	1	2000	6	1	antiphase_hc_iso.wav	2	6	4	noise_calib_stim_RIGHT.wav	2	10	blb_dichoticlistening_da-ka.mp3	da	ka	1	other
6.6.1	win	2023-06-02	04:56:45	05:13:34	1006358	632c0075227e9b734c80424d	1	1	main_slash	24	advance_on_keypress_SLASH	90	stimuli_distractor_diamondtriangles.svg	stimuli_distractor_trianglediamonds.svg	38	no	57	0	298	6	1	antiphase_hc_iso.wav	2	6	4	noise_calib_stim_RIGHT.wav	2	10	blb_dichoticlistening_da-ka.mp3	da	ka	1	other
6.6.1	win	2023-06-02	04:56:45	05:13:37	1009311	632c0075227e9b734c80424d	1	1	main_slash	24	main_slash	91	stimuli_distractor_trianglediamonds.svg	stimuli_target_diamondrectangles.svg	27	yes	0	0	2000	6	1	antiphase_hc_iso.wav	2	6	4	noise_calib_stim_RIGHT.wav	2	10	blb_dichoticlistening_da-ka.mp3	da	ka	1	other
6.6.1	win	2023-06-02	04:56:45	05:13:37	1009311	632c0075227e9b734c80424d	1	1	main_slash	24	advance_on_keypress_SLASH	92	stimuli_distractor_trianglediamonds.svg	stimuli_target_diamondrectangles.svg	27	yes	57	0	522	6	1	antiphase_hc_iso.wav	2	6	4	noise_calib_stim_RIGHT.wav	2	10	blb_dichoticlistening_da-ka.mp3	da	ka	1	other
6.6.1	win	2023-06-02	04:56:45	05:13:39	1011625	632c0075227e9b734c80424d	1	1	main_slash	24	main_slash	93	stimuli_target_diamondrectangles.svg	stimuli_distractor_diamondtriangles.svg	23	yes	53	1	1131	6	1	antiphase_hc_iso.wav	2	6	4	noise_calib_stim_RIGHT.wav	2	10	blb_dichoticlistening_da-ka.mp3	da	ka	1	other
6.6.1	win	2023-06-02	04:56:45	05:13:39	1011625	632c0075227e9b734c80424d	1	1	main_slash	24	advance_on_keypress_SLASH	94	stimuli_target_diamondrectangles.svg	stimuli_distractor_diamondtriangles.svg	23	yes	57	0	907	6	1	antiphase_hc_iso.wav	2	6	4	noise_calib_stim_RIGHT.wav	2	10	blb_dichoticlistening_da-ka.mp3	da	ka	1	other
6.6.1	win	2023-06-02	04:56:45	05:13:43	1015188	632c0075227e9b734c80424d	1	1	main_slash	24	main_slash	95	stimuli_distractor_trianglediamonds.svg	stimuli_target_trianglerectangles.svg	25	yes	0	0	2000	6	1	antiphase_hc_iso.wav	2	6	4	noise_calib_stim_RIGHT.wav	2	10	blb_dichoticlistening_da-ka.mp3	da	ka	1	other
6.6.1	win	2023-06-02	04:56:45	05:13:43	1015188	632c0075227e9b734c80424d	1	1	main_slash	24	advance_on_keypress_SLASH	96	stimuli_distractor_trianglediamonds.svg	stimuli_target_trianglerectangles.svg	25	yes	57	0	331	6	1	antiphase_hc_iso.wav	2	6	4	noise_calib_stim_RIGHT.wav	2	10	blb_dichoticlistening_da-ka.mp3	da	ka	1	other
6.6.1	win	2023-06-02	04:56:45	05:13:45	1017037	632c0075227e9b734c80424d	1	1	main_slash	24	main_slash	97	stimuli_target_squaretriangles.svg	stimuli_distractor_diamondtriangles.svg	7	yes	53	1	852	6	1	antiphase_hc_iso.wav	2	6	4	noise_calib_stim_RIGHT.wav	2	10	blb_dichoticlistening_da-ka.mp3	da	ka	1	other
6.6.1	win	2023-06-02	04:56:45	05:13:45	1017037	632c0075227e9b734c80424d	1	1	main_slash	24	advance_on_keypress_SLASH	98	stimuli_target_squaretriangles.svg	stimuli_distractor_diamondtriangles.svg	7	yes	57	0	616	6	1	antiphase_hc_iso.wav	2	6	4	noise_calib_stim_RIGHT.wav	2	10	blb_dichoticlistening_da-ka.mp3	da	ka	1	other
6.6.1	win	2023-06-02	04:56:45	05:13:47	1018793	632c0075227e9b734c80424d	1	1	main_slash	24	main_slash	99	stimuli_distractor_trianglediamonds.svg	stimuli_target_squarediamonds.svg	12	yes	53	1	493	6	1	antiphase_hc_iso.wav	2	6	4	noise_calib_stim_RIGHT.wav	2	10	blb_dichoticlistening_da-ka.mp3	da	ka	1	other
6.6.1	win	2023-06-02	04:56:45	05:13:47	1018793	632c0075227e9b734c80424d	1	1	main_slash	24	advance_on_keypress_SLASH	100	stimuli_distractor_trianglediamonds.svg	stimuli_target_squarediamonds.svg	12	yes	57	0	528	6	1	antiphase_hc_iso.wav	2	6	4	noise_calib_stim_RIGHT.wav	2	10	blb_dichoticlistening_da-ka.mp3	da	ka	1	other
6.6.1	win	2023-06-02	04:56:45	05:13:48	1020534	632c0075227e9b734c80424d	1	1	main_slash	24	main_slash	101	stimuli_target_rectanglediamonds.svg	stimuli_distractor_diamondtriangles.svg	6	yes	53	1	544	6	1	antiphase_hc_iso.wav	2	6	4	noise_calib_stim_RIGHT.wav	2	10	blb_dichoticlistening_da-ka.mp3	da	ka	1	other
6.6.1	win	2023-06-02	04:56:45	05:13:48	1020534	632c0075227e9b734c80424d	1	1	main_slash	24	advance_on_keypress_SLASH	102	stimuli_target_rectanglediamonds.svg	stimuli_distractor_diamondtriangles.svg	6	yes	57	0	601	6	1	antiphase_hc_iso.wav	2	6	4	noise_calib_stim_RIGHT.wav	2	10	blb_dichoticlistening_da-ka.mp3	da	ka	1	other
6.6.1	win	2023-06-02	04:56:45	05:13:50	1022214	632c0075227e9b734c80424d	1	1	main_slash	24	main_slash	103	stimuli_target_rectanglediamonds.svg	stimuli_distractor_trianglediamonds.svg	2	yes	53	1	431	6	1	antiphase_hc_iso.wav	2	6	4	noise_calib_stim_RIGHT.wav	2	10	blb_dichoticlistening_da-ka.mp3	da	ka	1	other
6.6.1	win	2023-06-02	04:56:45	05:13:50	1022214	632c0075227e9b734c80424d	1	1	main_slash	24	advance_on_keypress_SLASH	104	stimuli_target_rectanglediamonds.svg	stimuli_distractor_trianglediamonds.svg	2	yes	57	0	548	6	1	antiphase_hc_iso.wav	2	6	4	noise_calib_stim_RIGHT.wav	2	10	blb_dichoticlistening_da-ka.mp3	da	ka	1	other
6.6.1	win	2023-06-02	04:56:45	05:13:53	1025425	632c0075227e9b734c80424d	1	1	main_slash	24	main_slash	105	stimuli_target_diamondsquares.svg	stimuli_distractor_diamondtriangles.svg	24	yes	0	0	2000	6	1	antiphase_hc_iso.wav	2	6	4	noise_calib_stim_RIGHT.wav	2	10	blb_dichoticlistening_da-ka.mp3	da	ka	1	other
6.6.1	win	2023-06-02	04:56:45	05:13:53	1025425	632c0075227e9b734c80424d	1	1	main_slash	24	advance_on_keypress_SLASH	106	stimuli_target_diamondsquares.svg	stimuli_distractor_diamondtriangles.svg	24	yes	57	0	483	6	1	antiphase_hc_iso.wav	2	6	4	noise_calib_stim_RIGHT.wav	2	10	blb_dichoticlistening_da-ka.mp3	da	ka	1	other
6.6.1	win	2023-06-02	04:56:45	05:13:55	1027117	632c0075227e9b734c80424d	1	1	main_slash	24	main_slash	107	stimuli_distractor_trianglediamonds.svg	stimuli_target_rectanglediamonds.svg	10	yes	53	1	557	6	1	antiphase_hc_iso.wav	2	6	4	noise_calib_stim_RIGHT.wav	2	10	blb_dichoticlistening_da-ka.mp3	da	ka	1	other
6.6.1	win	2023-06-02	04:56:45	05:13:55	1027117	632c0075227e9b734c80424d	1	1	main_slash	24	advance_on_keypress_SLASH	108	stimuli_distractor_trianglediamonds.svg	stimuli_target_rectanglediamonds.svg	10	yes	57	0	789	6	1	antiphase_hc_iso.wav	2	6	4	noise_calib_stim_RIGHT.wav	2	10	blb_dichoticlistening_da-ka.mp3	da	ka	1	other
6.6.1	win	2023-06-02	04:56:45	05:13:58	1030572	632c0075227e9b734c80424d	1	1	main_slash	24	main_slash	109	stimuli_distractor_trianglediamonds.svg	stimuli_target_diamondsquares.svg	28	yes	0	0	2000	6	1	antiphase_hc_iso.wav	2	6	4	noise_calib_stim_RIGHT.wav	2	10	blb_dichoticlistening_da-ka.mp3	da	ka	1	other
6.6.1	win	2023-06-02	04:56:45	05:13:58	1030572	632c0075227e9b734c80424d	1	1	main_slash	24	advance_on_keypress_SLASH	110	stimuli_distractor_trianglediamonds.svg	stimuli_target_diamondsquares.svg	28	yes	57	0	824	6	1	antiphase_hc_iso.wav	2	6	4	noise_calib_stim_RIGHT.wav	2	10	blb_dichoticlistening_da-ka.mp3	da	ka	1	other
6.6.1	win	2023-06-02	04:56:45	05:14:02	1034037	632c0075227e9b734c80424d	1	1	main_slash	24	main_slash	111	stimuli_distractor_diamondtriangles.svg	stimuli_distractor_diamondtriangles.svg	40	no	0	1	2000	6	1	antiphase_hc_iso.wav	2	6	4	noise_calib_stim_RIGHT.wav	2	10	blb_dichoticlistening_da-ka.mp3	da	ka	1	other
6.6.1	win	2023-06-02	04:56:45	05:14:02	1034037	632c0075227e9b734c80424d	1	1	main_slash	24	advance_on_keypress_SLASH	112	stimuli_distractor_diamondtriangles.svg	stimuli_distractor_diamondtriangles.svg	40	no	57	0	459	6	1	antiphase_hc_iso.wav	2	6	4	noise_calib_stim_RIGHT.wav	2	10	blb_dichoticlistening_da-ka.mp3	da	ka	1	other
6.6.1	win	2023-06-02	04:56:45	05:14:04	1035749	632c0075227e9b734c80424d	1	1	main_slash	24	main_slash	113	stimuli_distractor_diamondtriangles.svg	stimuli_target_rectangletriangles.svg	13	yes	53	1	591	6	1	antiphase_hc_iso.wav	2	6	4	noise_calib_stim_RIGHT.wav	2	10	blb_dichoticlistening_da-ka.mp3	da	ka	1	other
6.6.1	win	2023-06-02	04:56:45	05:14:04	1035749	632c0075227e9b734c80424d	1	1	main_slash	24	advance_on_keypress_SLASH	114	stimuli_distractor_diamondtriangles.svg	stimuli_target_rectangletriangles.svg	13	yes	57	0	878	6	1	antiphase_hc_iso.wav	2	6	4	noise_calib_stim_RIGHT.wav	2	10	blb_dichoticlistening_da-ka.mp3	da	ka	1	other
6.6.1	win	2023-06-02	04:56:45	05:14:07	1039275	632c0075227e9b734c80424d	1	1	main_slash	24	main_slash	115	stimuli_target_diamondrectangles.svg	stimuli_distractor_trianglediamonds.svg	19	yes	0	0	2000	6	1	antiphase_hc_iso.wav	2	6	4	noise_calib_stim_RIGHT.wav	2	10	blb_dichoticlistening_da-ka.mp3	da	ka	1	other
6.6.1	win	2023-06-02	04:56:45	05:14:07	1039275	632c0075227e9b734c80424d	1	1	main_slash	24	advance_on_keypress_SLASH	116	stimuli_target_diamondrectangles.svg	stimuli_distractor_trianglediamonds.svg	19	yes	57	0	766	6	1	antiphase_hc_iso.wav	2	6	4	noise_calib_stim_RIGHT.wav	2	10	blb_dichoticlistening_da-ka.mp3	da	ka	1	other
6.6.1	win	2023-06-02	04:56:45	05:14:11	1042695	632c0075227e9b734c80424d	1	1	main_slash	24	main_slash	117	stimuli_distractor_diamondtriangles.svg	stimuli_target_diamondrectangles.svg	31	yes	0	0	2000	6	1	antiphase_hc_iso.wav	2	6	4	noise_calib_stim_RIGHT.wav	2	10	blb_dichoticlistening_da-ka.mp3	da	ka	1	other
6.6.1	win	2023-06-02	04:56:45	05:14:11	1042695	632c0075227e9b734c80424d	1	1	main_slash	24	advance_on_keypress_SLASH	118	stimuli_distractor_diamondtriangles.svg	stimuli_target_diamondrectangles.svg	31	yes	57	0	362	6	1	antiphase_hc_iso.wav	2	6	4	noise_calib_stim_RIGHT.wav	2	10	blb_dichoticlistening_da-ka.mp3	da	ka	1	other
6.6.1	win	2023-06-02	04:56:45	05:14:14	1045720	632c0075227e9b734c80424d	1	1	main_slash	24	main_slash	119	stimuli_distractor_diamondtriangles.svg	stimuli_target_diamondsquares.svg	32	yes	0	0	2000	6	1	antiphase_hc_iso.wav	2	6	4	noise_calib_stim_RIGHT.wav	2	10	blb_dichoticlistening_da-ka.mp3	da	ka	1	other
6.6.1	win	2023-06-02	04:56:45	05:14:14	1045720	632c0075227e9b734c80424d	1	1	main_slash	24	advance_on_keypress_SLASH	120	stimuli_distractor_diamondtriangles.svg	stimuli_target_diamondsquares.svg	32	yes	57	0	496	6	1	antiphase_hc_iso.wav	2	6	4	noise_calib_stim_RIGHT.wav	2	10	blb_dichoticlistening_da-ka.mp3	da	ka	1	other
6.6.1	win	2023-06-02	04:56:45	05:14:17	1048869	632c0075227e9b734c80424d	1	1	main_slash	24	main_slash	121	stimuli_target_trianglesquares.svg	stimuli_distractor_trianglediamonds.svg	18	yes	0	0	2000	6	1	antiphase_hc_iso.wav	2	6	4	noise_calib_stim_RIGHT.wav	2	10	blb_dichoticlistening_da-ka.mp3	da	ka	1	other
6.6.1	win	2023-06-02	04:56:45	05:14:17	1048869	632c0075227e9b734c80424d	1	1	main_slash	24	advance_on_keypress_SLASH	122	stimuli_target_trianglesquares.svg	stimuli_distractor_trianglediamonds.svg	18	yes	57	0	327	6	1	antiphase_hc_iso.wav	2	6	4	noise_calib_stim_RIGHT.wav	2	10	blb_dichoticlistening_da-ka.mp3	da	ka	1	other
6.6.1	win	2023-06-02	04:56:45	05:14:20	1051852	632c0075227e9b734c80424d	1	1	main_slash	24	main_slash	123	stimuli_distractor_diamondtriangles.svg	stimuli_distractor_diamondtriangles.svg	39	no	0	1	2000	6	1	antiphase_hc_iso.wav	2	6	4	noise_calib_stim_RIGHT.wav	2	10	blb_dichoticlistening_da-ka.mp3	da	ka	1	other
6.6.1	win	2023-06-02	04:56:45	05:14:20	1051852	632c0075227e9b734c80424d	1	1	main_slash	24	advance_on_keypress_SLASH	124	stimuli_distractor_diamondtriangles.svg	stimuli_distractor_diamondtriangles.svg	39	no	57	0	310	6	1	antiphase_hc_iso.wav	2	6	4	noise_calib_stim_RIGHT.wav	2	10	blb_dichoticlistening_da-ka.mp3	da	ka	1	other
6.6.1	win	2023-06-02	04:56:45	05:14:23	1054826	632c0075227e9b734c80424d	1	1	main_slash	24	main_slash	125	stimuli_distractor_trianglediamonds.svg	stimuli_distractor_trianglediamonds.svg	33	no	0	1	2000	6	1	antiphase_hc_iso.wav	2	6	4	noise_calib_stim_RIGHT.wav	2	10	blb_dichoticlistening_da-ka.mp3	da	ka	1	other
6.6.1	win	2023-06-02	04:56:45	05:14:23	1054826	632c0075227e9b734c80424d	1	1	main_slash	24	advance_on_keypress_SLASH	126	stimuli_distractor_trianglediamonds.svg	stimuli_distractor_trianglediamonds.svg	33	no	57	0	165	6	1	antiphase_hc_iso.wav	2	6	4	noise_calib_stim_RIGHT.wav	2	10	blb_dichoticlistening_da-ka.mp3	da	ka	1	other
6.6.1	win	2023-06-02	04:56:45	05:14:25	1056788	632c0075227e9b734c80424d	1	1	main_slash	24	main_slash	127	stimuli_distractor_trianglediamonds.svg	stimuli_target_squaretriangles.svg	11	yes	53	1	1133	6	1	antiphase_hc_iso.wav	2	6	4	noise_calib_stim_RIGHT.wav	2	10	blb_dichoticlistening_da-ka.mp3	da	ka	1	other
6.6.1	win	2023-06-02	04:56:45	05:14:25	1056788	632c0075227e9b734c80424d	1	1	main_slash	24	advance_on_keypress_SLASH	128	stimuli_distractor_trianglediamonds.svg	stimuli_target_squaretriangles.svg	11	yes	57	0	598	6	1	antiphase_hc_iso.wav	2	6	4	noise_calib_stim_RIGHT.wav	2	10	blb_dichoticlistening_da-ka.mp3	da	ka	1	other
6.6.1	win	2023-06-02	04:56:45	05:14:28	1060034	632c0075227e9b734c80424d	1	1	main_slash	24	main_slash	129	stimuli_distractor_diamondtriangles.svg	stimuli_target_trianglesquares.svg	30	yes	0	0	2000	6	1	antiphase_hc_iso.wav	2	6	4	noise_calib_stim_RIGHT.wav	2	10	blb_dichoticlistening_da-ka.mp3	da	ka	1	other
6.6.1	win	2023-06-02	04:56:45	05:14:28	1060034	632c0075227e9b734c80424d	1	1	main_slash	24	advance_on_keypress_SLASH	130	stimuli_distractor_diamondtriangles.svg	stimuli_target_trianglesquares.svg	30	yes	57	0	3449	6	1	antiphase_hc_iso.wav	2	6	4	noise_calib_stim_RIGHT.wav	2	10	blb_dichoticlistening_da-ka.mp3	da	ka	1	other
6.6.1	win	2023-06-02	04:56:45	05:14:33	1064665	632c0075227e9b734c80424d	1	1	main_slash	24	main_slash	131	stimuli_target_squaretriangles.svg	stimuli_distractor_trianglediamonds.svg	3	yes	53	1	511	6	1	antiphase_hc_iso.wav	2	6	4	noise_calib_stim_RIGHT.wav	2	10	blb_dichoticlistening_da-ka.mp3	da	ka	1	other
6.6.1	win	2023-06-02	04:56:45	05:14:33	1064665	632c0075227e9b734c80424d	1	1	main_slash	24	advance_on_keypress_SLASH	132	stimuli_target_squaretriangles.svg	stimuli_distractor_trianglediamonds.svg	3	yes	57	0	524	6	1	antiphase_hc_iso.wav	2	6	4	noise_calib_stim_RIGHT.wav	2	10	blb_dichoticlistening_da-ka.mp3	da	ka	1	other
6.6.1	win	2023-06-02	04:56:45	05:14:34	1066396	632c0075227e9b734c80424d	1	1	main_slash	24	main_slash	133	stimuli_distractor_diamondtriangles.svg	stimuli_target_squaretriangles.svg	15	yes	53	1	534	6	1	antiphase_hc_iso.wav	2	6	4	noise_calib_stim_RIGHT.wav	2	10	blb_dichoticlistening_da-ka.mp3	da	ka	1	other
6.6.1	win	2023-06-02	04:56:45	05:14:34	1066396	632c0075227e9b734c80424d	1	1	main_slash	24	advance_on_keypress_SLASH	134	stimuli_distractor_diamondtriangles.svg	stimuli_target_squaretriangles.svg	15	yes	57	0	375	6	1	antiphase_hc_iso.wav	2	6	4	noise_calib_stim_RIGHT.wav	2	10	blb_dichoticlistening_da-ka.mp3	da	ka	1	other
6.6.1	win	2023-06-02	04:56:45	05:14:37	1069400	632c0075227e9b734c80424d	1	1	main_slash	24	main_slash	135	stimuli_distractor_diamondtriangles.svg	stimuli_distractor_trianglediamonds.svg	37	no	0	1	2000	6	1	antiphase_hc_iso.wav	2	6	4	noise_calib_stim_RIGHT.wav	2	10	blb_dichoticlistening_da-ka.mp3	da	ka	1	other
6.6.1	win	2023-06-02	04:56:45	05:14:37	1069400	632c0075227e9b734c80424d	1	1	main_slash	24	advance_on_keypress_SLASH	136	stimuli_distractor_diamondtriangles.svg	stimuli_distractor_trianglediamonds.svg	37	no	57	0	403	6	1	antiphase_hc_iso.wav	2	6	4	noise_calib_stim_RIGHT.wav	2	10	blb_dichoticlistening_da-ka.mp3	da	ka	1	other
6.6.1	win	2023-06-02	04:56:45	05:14:39	1070978	632c0075227e9b734c80424d	1	1	main_slash	24	main_slash	137	stimuli_target_squarediamonds.svg	stimuli_distractor_diamondtriangles.svg	8	yes	53	1	510	6	1	antiphase_hc_iso.wav	2	6	4	noise_calib_stim_RIGHT.wav	2	10	blb_dichoticlistening_da-ka.mp3	da	ka	1	other
6.6.1	win	2023-06-02	04:56:45	05:14:39	1070978	632c0075227e9b734c80424d	1	1	main_slash	24	advance_on_keypress_SLASH	138	stimuli_target_squarediamonds.svg	stimuli_distractor_diamondtriangles.svg	8	yes	57	0	404	6	1	antiphase_hc_iso.wav	2	6	4	noise_calib_stim_RIGHT.wav	2	10	blb_dichoticlistening_da-ka.mp3	da	ka	1	other
6.6.1	win	2023-06-02	04:56:45	05:14:40	1072541	632c0075227e9b734c80424d	1	1	main_slash	24	main_slash	139	stimuli_distractor_trianglediamonds.svg	stimuli_target_rectangletriangles.svg	9	yes	53	1	514	6	1	antiphase_hc_iso.wav	2	6	4	noise_calib_stim_RIGHT.wav	2	10	blb_dichoticlistening_da-ka.mp3	da	ka	1	other
6.6.1	win	2023-06-02	04:56:45	05:14:40	1072541	632c0075227e9b734c80424d	1	1	main_slash	24	advance_on_keypress_SLASH	140	stimuli_distractor_trianglediamonds.svg	stimuli_target_rectangletriangles.svg	9	yes	57	0	372	6	1	antiphase_hc_iso.wav	2	6	4	noise_calib_stim_RIGHT.wav	2	10	blb_dichoticlistening_da-ka.mp3	da	ka	1	other
6.6.1	win	2023-06-02	04:56:45	05:14:43	1075572	632c0075227e9b734c80424d	1	1	main_slash	24	main_slash	141	stimuli_distractor_diamondtriangles.svg	stimuli_target_trianglerectangles.svg	29	yes	0	0	2000	6	1	antiphase_hc_iso.wav	2	6	4	noise_calib_stim_RIGHT.wav	2	10	blb_dichoticlistening_da-ka.mp3	da	ka	1	other
6.6.1	win	2023-06-02	04:56:45	05:14:43	1075572	632c0075227e9b734c80424d	1	1	main_slash	24	advance_on_keypress_SLASH	142	stimuli_distractor_diamondtriangles.svg	stimuli_target_trianglerectangles.svg	29	yes	57	0	593	6	1	antiphase_hc_iso.wav	2	6	4	noise_calib_stim_RIGHT.wav	2	10	blb_dichoticlistening_da-ka.mp3	da	ka	1	other
6.6.1	win	2023-06-02	04:56:45	05:14:47	1078808	632c0075227e9b734c80424d	1	1	main_slash	24	main_slash	143	stimuli_target_trianglerectangles.svg	stimuli_distractor_trianglediamonds.svg	17	yes	0	0	2000	6	1	antiphase_hc_iso.wav	2	6	4	noise_calib_stim_RIGHT.wav	2	10	blb_dichoticlistening_da-ka.mp3	da	ka	1	other
6.6.1	win	2023-06-02	04:56:45	05:14:47	1078808	632c0075227e9b734c80424d	1	1	main_slash	24	advance_on_keypress_SLASH	144	stimuli_target_trianglerectangles.svg	stimuli_distractor_trianglediamonds.svg	17	yes	57	0	645	6	1	antiphase_hc_iso.wav	2	6	4	noise_calib_stim_RIGHT.wav	2	10	blb_dichoticlistening_da-ka.mp3	da	ka	1	other
6.6.1	win	2023-06-02	04:56:45	05:14:50	1082111	632c0075227e9b734c80424d	1	1	main_slash	24	main_slash	145	stimuli_distractor_trianglediamonds.svg	stimuli_target_trianglesquares.svg	26	yes	0	0	2000	6	1	antiphase_hc_iso.wav	2	6	4	noise_calib_stim_RIGHT.wav	2	10	blb_dichoticlistening_da-ka.mp3	da	ka	1	other
6.6.1	win	2023-06-02	04:56:45	05:14:50	1082111	632c0075227e9b734c80424d	1	1	main_slash	24	advance_on_keypress_SLASH	146	stimuli_distractor_trianglediamonds.svg	stimuli_target_trianglesquares.svg	26	yes	57	0	422	6	1	antiphase_hc_iso.wav	2	6	4	noise_calib_stim_RIGHT.wav	2	10	blb_dichoticlistening_da-ka.mp3	da	ka	1	other
6.6.1	win	2023-06-02	04:56:45	05:14:52	1083816	632c0075227e9b734c80424d	1	1	main_slash	24	main_slash	147	stimuli_distractor_diamondtriangles.svg	stimuli_target_squarediamonds.svg	16	yes	53	1	619	6	1	antiphase_hc_iso.wav	2	6	4	noise_calib_stim_RIGHT.wav	2	10	blb_dichoticlistening_da-ka.mp3	da	ka	1	other
6.6.1	win	2023-06-02	04:56:45	05:14:52	1083816	632c0075227e9b734c80424d	1	1	main_slash	24	advance_on_keypress_SLASH	148	stimuli_distractor_diamondtriangles.svg	stimuli_target_squarediamonds.svg	16	yes	57	0	857	6	1	antiphase_hc_iso.wav	2	6	4	noise_calib_stim_RIGHT.wav	2	10	blb_dichoticlistening_da-ka.mp3	da	ka	1	other
6.6.1	win	2023-06-02	04:56:45	05:14:54	1086073	632c0075227e9b734c80424d	1	1	main_slash	24	main_slash	149	stimuli_target_squarediamonds.svg	stimuli_distractor_trianglediamonds.svg	4	yes	53	1	758	6	1	antiphase_hc_iso.wav	2	6	4	noise_calib_stim_RIGHT.wav	2	10	blb_dichoticlistening_da-ka.mp3	da	ka	1	other
6.6.1	win	2023-06-02	04:56:45	05:14:54	1086073	632c0075227e9b734c80424d	1	1	main_slash	24	advance_on_keypress_SLASH	150	stimuli_target_squarediamonds.svg	stimuli_distractor_trianglediamonds.svg	4	yes	57	0	846	6	1	antiphase_hc_iso.wav	2	6	4	noise_calib_stim_RIGHT.wav	2	10	blb_dichoticlistening_da-ka.mp3	da	ka	1	other
6.6.1	win	2023-06-02	04:56:45	05:14:57	1089550	632c0075227e9b734c80424d	1	1	main_slash	24	main_slash	151	stimuli_target_diamondsquares.svg	stimuli_distractor_trianglediamonds.svg	20	yes	0	0	2000	6	1	antiphase_hc_iso.wav	2	6	4	noise_calib_stim_RIGHT.wav	2	10	blb_dichoticlistening_da-ka.mp3	da	ka	1	other
6.6.1	win	2023-06-02	04:56:45	05:14:57	1089550	632c0075227e9b734c80424d	1	1	main_slash	24	advance_on_keypress_SLASH	152	stimuli_target_diamondsquares.svg	stimuli_distractor_trianglediamonds.svg	20	yes	57	0	536	6	1	antiphase_hc_iso.wav	2	6	4	noise_calib_stim_RIGHT.wav	2	10	blb_dichoticlistening_da-ka.mp3	da	ka	1	other
6.6.1	win	2023-06-02	04:56:45	05:15:01	1092720	632c0075227e9b734c80424d	1	1	main_slash	24	main_slash	153	stimuli_target_trianglerectangles.svg	stimuli_distractor_diamondtriangles.svg	21	yes	0	0	2000	6	1	antiphase_hc_iso.wav	2	6	4	noise_calib_stim_RIGHT.wav	2	10	blb_dichoticlistening_da-ka.mp3	da	ka	1	other
6.6.1	win	2023-06-02	04:56:45	05:15:01	1092720	632c0075227e9b734c80424d	1	1	main_slash	24	advance_on_keypress_SLASH	154	stimuli_target_trianglerectangles.svg	stimuli_distractor_diamondtriangles.svg	21	yes	57	0	478	6	1	antiphase_hc_iso.wav	2	6	4	noise_calib_stim_RIGHT.wav	2	10	blb_dichoticlistening_da-ka.mp3	da	ka	1	other
6.6.1	win	2023-06-02	04:56:45	05:15:02	1094321	632c0075227e9b734c80424d	1	1	main_slash	24	main_slash	155	stimuli_target_rectangletriangles.svg	stimuli_distractor_diamondtriangles.svg	5	yes	53	1	465	6	1	antiphase_hc_iso.wav	2	6	4	noise_calib_stim_RIGHT.wav	2	10	blb_dichoticlistening_da-ka.mp3	da	ka	1	other
6.6.1	win	2023-06-02	04:56:45	05:15:02	1094321	632c0075227e9b734c80424d	1	1	main_slash	24	advance_on_keypress_SLASH	156	stimuli_target_rectangletriangles.svg	stimuli_distractor_diamondtriangles.svg	5	yes	57	0	909	6	1	antiphase_hc_iso.wav	2	6	4	noise_calib_stim_RIGHT.wav	2	10	blb_dichoticlistening_da-ka.mp3	da	ka	1	other
6.6.1	win	2023-06-02	04:56:45	05:15:06	1097874	632c0075227e9b734c80424d	1	1	main_slash	24	main_slash	157	stimuli_distractor_trianglediamonds.svg	stimuli_distractor_diamondtriangles.svg	36	no	0	1	2000	6	1	antiphase_hc_iso.wav	2	6	4	noise_calib_stim_RIGHT.wav	2	10	blb_dichoticlistening_da-ka.mp3	da	ka	1	other
6.6.1	win	2023-06-02	04:56:45	05:15:06	1097874	632c0075227e9b734c80424d	1	1	main_slash	24	advance_on_keypress_SLASH	158	stimuli_distractor_trianglediamonds.svg	stimuli_distractor_diamondtriangles.svg	36	no	57	0	501	6	1	antiphase_hc_iso.wav	2	6	4	noise_calib_stim_RIGHT.wav	2	10	blb_dichoticlistening_da-ka.mp3	da	ka	1	other
6.6.1	win	2023-06-02	04:56:45	05:15:09	1101040	632c0075227e9b734c80424d	1	1	main_slash	24	main_slash	159	stimuli_distractor_trianglediamonds.svg	stimuli_distractor_trianglediamonds.svg	34	no	0	1	2000	6	1	antiphase_hc_iso.wav	2	6	4	noise_calib_stim_RIGHT.wav	2	10	blb_dichoticlistening_da-ka.mp3	da	ka	1	other
6.6.1	win	2023-06-02	04:56:45	05:15:09	1101040	632c0075227e9b734c80424d	1	1	main_slash	24	advance_on_keypress_SLASH	160	stimuli_distractor_trianglediamonds.svg	stimuli_distractor_trianglediamonds.svg	34	no	57	0	276	6	1	antiphase_hc_iso.wav	2	6	4	noise_calib_stim_RIGHT.wav	2	10	blb_dichoticlistening_da-ka.mp3	da	ka	1	other
6.6.1	win	2023-06-02	04:56:45	05:15:30	1122280	632c0075227e9b734c80424d	1	1	practice_z	26	practice_z	1	stimuli_target_diamondsquares.svg	stimuli_distractor_trianglediamonds.svg	6	yes	0	0	2000	6	1	antiphase_hc_iso.wav	2	6	4	noise_calib_stim_RIGHT.wav	2	10	blb_dichoticlistening_da-ka.mp3	da	ka	1	other
6.6.1	win	2023-06-02	04:56:45	05:15:30	1122280	632c0075227e9b734c80424d	1	1	practice_z	26	advance_on_keypress_ZEE	2	stimuli_target_diamondsquares.svg	stimuli_distractor_trianglediamonds.svg	6	yes	57	0	851	6	1	antiphase_hc_iso.wav	2	6	4	noise_calib_stim_RIGHT.wav	2	10	blb_dichoticlistening_da-ka.mp3	da	ka	1	other
6.6.1	win	2023-06-02	04:56:45	05:15:33	1125261	632c0075227e9b734c80424d	1	1	practice_z	26	practice_z	3	stimuli_distractor_diamondtriangles.svg	stimuli_target_rectangletriangles.svg	7	yes	44	1	463	6	1	antiphase_hc_iso.wav	2	6	4	noise_calib_stim_RIGHT.wav	2	10	blb_dichoticlistening_da-ka.mp3	da	ka	1	other
6.6.1	win	2023-06-02	04:56:45	05:15:33	1125261	632c0075227e9b734c80424d	1	1	practice_z	26	advance_on_keypress_ZEE	4	stimuli_distractor_diamondtriangles.svg	stimuli_target_rectangletriangles.svg	7	yes	57	0	506	6	1	antiphase_hc_iso.wav	2	6	4	noise_calib_stim_RIGHT.wav	2	10	blb_dichoticlistening_da-ka.mp3	da	ka	1	other
6.6.1	win	2023-06-02	04:56:45	05:15:36	1127851	632c0075227e9b734c80424d	1	1	practice_z	26	practice_z	5	stimuli_target_squarediamonds.svg	stimuli_distractor_diamondtriangles.svg	2	yes	44	1	421	6	1	antiphase_hc_iso.wav	2	6	4	noise_calib_stim_RIGHT.wav	2	10	blb_dichoticlistening_da-ka.mp3	da	ka	1	other
6.6.1	win	2023-06-02	04:56:45	05:15:36	1127851	632c0075227e9b734c80424d	1	1	practice_z	26	advance_on_keypress_ZEE	6	stimuli_target_squarediamonds.svg	stimuli_distractor_diamondtriangles.svg	2	yes	57	0	377	6	1	antiphase_hc_iso.wav	2	6	4	noise_calib_stim_RIGHT.wav	2	10	blb_dichoticlistening_da-ka.mp3	da	ka	1	other
6.6.1	win	2023-06-02	04:56:45	05:15:40	1131909	632c0075227e9b734c80424d	1	1	practice_z	26	practice_z	7	stimuli_distractor_trianglediamonds.svg	stimuli_target_diamondrectangles.svg	12	yes	0	0	2000	6	1	antiphase_hc_iso.wav	2	6	4	noise_calib_stim_RIGHT.wav	2	10	blb_dichoticlistening_da-ka.mp3	da	ka	1	other
6.6.1	win	2023-06-02	04:56:45	05:15:40	1131909	632c0075227e9b734c80424d	1	1	practice_z	26	advance_on_keypress_ZEE	8	stimuli_distractor_trianglediamonds.svg	stimuli_target_diamondrectangles.svg	12	yes	57	0	676	6	1	antiphase_hc_iso.wav	2	6	4	noise_calib_stim_RIGHT.wav	2	10	blb_dichoticlistening_da-ka.mp3	da	ka	1	other
6.6.1	win	2023-06-02	04:56:45	05:15:43	1134704	632c0075227e9b734c80424d	1	1	practice_z	26	practice_z	9	stimuli_distractor_trianglediamonds.svg	stimuli_distractor_diamondtriangles.svg	16	no	44	0	446	6	1	antiphase_hc_iso.wav	2	6	4	noise_calib_stim_RIGHT.wav	2	10	blb_dichoticlistening_da-ka.mp3	da	ka	1	other
6.6.1	win	2023-06-02	04:56:45	05:15:43	1134704	632c0075227e9b734c80424d	1	1	practice_z	26	advance_on_keypress_ZEE	10	stimuli_distractor_trianglediamonds.svg	stimuli_distractor_diamondtriangles.svg	16	no	57	0	522	6	1	antiphase_hc_iso.wav	2	6	4	noise_calib_stim_RIGHT.wav	2	10	blb_dichoticlistening_da-ka.mp3	da	ka	1	other
6.6.1	win	2023-06-02	04:56:45	05:15:47	1138874	632c0075227e9b734c80424d	1	1	practice_z	26	practice_z	11	stimuli_distractor_diamondtriangles.svg	stimuli_distractor_trianglediamonds.svg	14	no	0	1	2000	6	1	antiphase_hc_iso.wav	2	6	4	noise_calib_stim_RIGHT.wav	2	10	blb_dichoticlistening_da-ka.mp3	da	ka	1	other
6.6.1	win	2023-06-02	04:56:45	05:15:47	1138874	632c0075227e9b734c80424d	1	1	practice_z	26	advance_on_keypress_ZEE	12	stimuli_distractor_diamondtriangles.svg	stimuli_distractor_trianglediamonds.svg	14	no	57	0	441	6	1	antiphase_hc_iso.wav	2	6	4	noise_calib_stim_RIGHT.wav	2	10	blb_dichoticlistening_da-ka.mp3	da	ka	1	other
6.6.1	win	2023-06-02	04:56:45	05:15:51	1142954	632c0075227e9b734c80424d	1	1	practice_z	26	practice_z	13	stimuli_distractor_diamondtriangles.svg	stimuli_target_trianglerectangles.svg	9	yes	0	0	2000	6	1	antiphase_hc_iso.wav	2	6	4	noise_calib_stim_RIGHT.wav	2	10	blb_dichoticlistening_da-ka.mp3	da	ka	1	other
