build	computer.platform	date	time	timestamp	time_elapsed_ms	subject	group	session	blockcode	blocknum	trialcode	trialnum	stimulus_left	stimulus_right	stim_index	target_present	response	correct	latency	headphonecheck_countTestTrials	headphonecheck_index	headphonecheck_testSound	headphonecheck_correctResponse	stereocheck_countTestTrials	stereocheck_index	stereocheck_testSound	stereocheck_correctResponse	DL_index	DL_soundfile	DL_leftSound	DL_rightSound	DL_dualSound	DL_choice
6.6.1	win	2023-06-02	05:30:49	05:34:07	191808	5a6f1ccade1f390001dbd8b7	3	1	practice_slash	5	practice_slash	1	stimuli_distractor_trianglediamonds.svg	stimuli_target_squarediamonds.svg	11	yes	0	0	2000	0	0			0	0			1				0	
6.6.1	win	2023-06-02	05:30:49	05:34:07	191808	5a6f1ccade1f390001dbd8b7	3	1	practice_slash	5	advance_on_keypress_SLASH	2	stimuli_distractor_trianglediamonds.svg	stimuli_target_squarediamonds.svg	11	yes	57	0	4273	0	0			0	0			1				0	
6.6.1	win	2023-06-02	05:30:49	05:34:15	199725	5a6f1ccade1f390001dbd8b7	3	1	practice_slash	5	practice_slash	3	stimuli_distractor_diamondtriangles.svg	stimuli_distractor_diamondtriangles.svg	13	no	0	1	2000	0	0			0	0			1				0	
6.6.1	win	2023-06-02	05:30:49	05:34:15	199725	5a6f1ccade1f390001dbd8b7	3	1	practice_slash	5	advance_on_keypress_SLASH	4	stimuli_distractor_diamondtriangles.svg	stimuli_distractor_diamondtriangles.svg	13	no	57	0	876	0	0			0	0			1				0	
6.6.1	win	2023-06-02	05:30:49	05:34:18	203274	5a6f1ccade1f390001dbd8b7	3	1	practice_slash	5	practice_slash	5	stimuli_distractor_trianglediamonds.svg	stimuli_target_rectanglediamonds.svg	10	yes	53	1	1016	0	0			0	0			1				0	
6.6.1	win	2023-06-02	05:30:49	05:34:18	203274	5a6f1ccade1f390001dbd8b7	3	1	practice_slash	5	advance_on_keypress_SLASH	6	stimuli_distractor_trianglediamonds.svg	stimuli_target_rectanglediamonds.svg	10	yes	57	0	1391	0	0			0	0			1				0	
6.6.1	win	2023-06-02	05:30:49	05:34:23	208325	5a6f1ccade1f390001dbd8b7	3	1	practice_slash	5	practice_slash	7	stimuli_distractor_diamondtriangles.svg	stimuli_target_trianglerectangles.svg	9	yes	0	0	2000	0	0			0	0			1				0	
6.6.1	win	2023-06-02	05:30:49	05:34:23	208325	5a6f1ccade1f390001dbd8b7	3	1	practice_slash	5	advance_on_keypress_SLASH	8	stimuli_distractor_diamondtriangles.svg	stimuli_target_trianglerectangles.svg	9	yes	57	0	2500	0	0			0	0			1				0	
6.6.1	win	2023-06-02	05:30:49	05:34:30	214475	5a6f1ccade1f390001dbd8b7	3	1	practice_slash	5	practice_slash	9	stimuli_distractor_trianglediamonds.svg	stimuli_distractor_diamondtriangles.svg	16	no	0	1	2000	0	0			0	0			1				0	
6.6.1	win	2023-06-02	05:30:49	05:34:30	214475	5a6f1ccade1f390001dbd8b7	3	1	practice_slash	5	advance_on_keypress_SLASH	10	stimuli_distractor_trianglediamonds.svg	stimuli_distractor_diamondtriangles.svg	16	no	57	0	1502	0	0			0	0			1				0	
6.6.1	win	2023-06-02	05:30:49	05:34:35	219625	5a6f1ccade1f390001dbd8b7	3	1	practice_slash	5	practice_slash	11	stimuli_target_diamondsquares.svg	stimuli_distractor_diamondtriangles.svg	3	yes	0	0	2000	0	0			0	0			1				0	
6.6.1	win	2023-06-02	05:30:49	05:34:35	219625	5a6f1ccade1f390001dbd8b7	3	1	practice_slash	5	advance_on_keypress_SLASH	12	stimuli_target_diamondsquares.svg	stimuli_distractor_diamondtriangles.svg	3	yes	57	0	1311	0	0			0	0			1				0	
6.6.1	win	2023-06-02	05:30:49	05:34:40	224592	5a6f1ccade1f390001dbd8b7	3	1	practice_slash	5	practice_slash	13	stimuli_distractor_diamondtriangles.svg	stimuli_distractor_trianglediamonds.svg	14	no	0	1	2000	0	0			0	0			1				0	
6.6.1	win	2023-06-02	05:30:49	05:34:40	224592	5a6f1ccade1f390001dbd8b7	3	1	practice_slash	5	advance_on_keypress_SLASH	14	stimuli_distractor_diamondtriangles.svg	stimuli_distractor_trianglediamonds.svg	14	no	57	0	802	0	0			0	0			1				0	
6.6.1	win	2023-06-02	05:30:49	05:34:44	229041	5a6f1ccade1f390001dbd8b7	3	1	practice_slash	5	practice_slash	15	stimuli_distractor_trianglediamonds.svg	stimuli_target_diamondrectangles.svg	12	yes	0	0	2000	0	0			0	0			1				0	
6.6.1	win	2023-06-02	05:30:49	05:34:44	229041	5a6f1ccade1f390001dbd8b7	3	1	practice_slash	5	advance_on_keypress_SLASH	16	stimuli_distractor_trianglediamonds.svg	stimuli_target_diamondrectangles.svg	12	yes	57	0	1327	0	0			0	0			1				0	
6.6.1	win	2023-06-02	05:30:49	05:34:48	233346	5a6f1ccade1f390001dbd8b7	3	1	practice_slash	5	practice_slash	17	stimuli_distractor_diamondtriangles.svg	stimuli_target_rectangletriangles.svg	7	yes	53	1	1321	0	0			0	0			1				0	
6.6.1	win	2023-06-02	05:30:49	05:34:48	233346	5a6f1ccade1f390001dbd8b7	3	1	practice_slash	5	advance_on_keypress_SLASH	18	stimuli_distractor_diamondtriangles.svg	stimuli_target_rectangletriangles.svg	7	yes	57	0	747	0	0			0	0			1				0	
6.6.1	win	2023-06-02	05:30:49	05:34:52	236601	5a6f1ccade1f390001dbd8b7	3	1	practice_slash	5	practice_slash	19	stimuli_target_rectanglediamonds.svg	stimuli_distractor_trianglediamonds.svg	4	yes	53	1	860	0	0			0	0			1				0	
6.6.1	win	2023-06-02	05:30:49	05:34:52	236601	5a6f1ccade1f390001dbd8b7	3	1	practice_slash	5	advance_on_keypress_SLASH	20	stimuli_target_rectanglediamonds.svg	stimuli_distractor_trianglediamonds.svg	4	yes	57	0	889	0	0			0	0			1				0	
6.6.1	win	2023-06-02	05:30:49	05:34:56	240635	5a6f1ccade1f390001dbd8b7	3	1	practice_slash	5	practice_slash	21	stimuli_target_diamondsquares.svg	stimuli_distractor_trianglediamonds.svg	6	yes	53	1	1492	0	0			0	0			1				0	
6.6.1	win	2023-06-02	05:30:49	05:34:56	240635	5a6f1ccade1f390001dbd8b7	3	1	practice_slash	5	advance_on_keypress_SLASH	22	stimuli_target_diamondsquares.svg	stimuli_distractor_trianglediamonds.svg	6	yes	57	0	623	0	0			0	0			1				0	
6.6.1	win	2023-06-02	05:30:49	05:34:59	243978	5a6f1ccade1f390001dbd8b7	3	1	practice_slash	5	practice_slash	23	stimuli_target_squarediamonds.svg	stimuli_distractor_trianglediamonds.svg	5	yes	53	1	1069	0	0			0	0			1				0	
6.6.1	win	2023-06-02	05:30:49	05:34:59	243978	5a6f1ccade1f390001dbd8b7	3	1	practice_slash	5	advance_on_keypress_SLASH	24	stimuli_target_squarediamonds.svg	stimuli_distractor_trianglediamonds.svg	5	yes	57	0	602	0	0			0	0			1				0	
6.6.1	win	2023-06-02	05:30:49	05:35:03	248225	5a6f1ccade1f390001dbd8b7	3	1	practice_slash	5	practice_slash	25	stimuli_distractor_trianglediamonds.svg	stimuli_distractor_trianglediamonds.svg	15	no	0	1	2000	0	0			0	0			1				0	
6.6.1	win	2023-06-02	05:30:49	05:35:03	248225	5a6f1ccade1f390001dbd8b7	3	1	practice_slash	5	advance_on_keypress_SLASH	26	stimuli_distractor_trianglediamonds.svg	stimuli_distractor_trianglediamonds.svg	15	no	57	0	751	0	0			0	0			1				0	
6.6.1	win	2023-06-02	05:30:49	05:35:07	252034	5a6f1ccade1f390001dbd8b7	3	1	practice_slash	5	practice_slash	27	stimuli_distractor_diamondtriangles.svg	stimuli_target_diamondrectangles.svg	8	yes	53	1	1409	0	0			0	0			1				0	
6.6.1	win	2023-06-02	05:30:49	05:35:07	252034	5a6f1ccade1f390001dbd8b7	3	1	practice_slash	5	advance_on_keypress_SLASH	28	stimuli_distractor_diamondtriangles.svg	stimuli_target_diamondrectangles.svg	8	yes	57	0	727	0	0			0	0			1				0	
6.6.1	win	2023-06-02	05:30:49	05:35:10	255394	5a6f1ccade1f390001dbd8b7	3	1	practice_slash	5	practice_slash	29	stimuli_target_squarediamonds.svg	stimuli_distractor_diamondtriangles.svg	2	yes	53	1	969	0	0			0	0			1				0	
6.6.1	win	2023-06-02	05:30:49	05:35:10	255394	5a6f1ccade1f390001dbd8b7	3	1	practice_slash	5	advance_on_keypress_SLASH	30	stimuli_target_squarediamonds.svg	stimuli_distractor_diamondtriangles.svg	2	yes	57	0	753	0	0			0	0			1				0	
6.6.1	win	2023-06-02	05:30:49	05:35:14	258513	5a6f1ccade1f390001dbd8b7	3	1	practice_slash	5	practice_slash	31	stimuli_target_rectanglediamonds.svg	stimuli_distractor_diamondtriangles.svg	1	yes	53	1	722	0	0			0	0			1				0	
6.6.1	win	2023-06-02	05:30:49	05:35:14	258513	5a6f1ccade1f390001dbd8b7	3	1	practice_slash	5	advance_on_keypress_SLASH	32	stimuli_target_rectanglediamonds.svg	stimuli_distractor_diamondtriangles.svg	1	yes	57	0	1005	0	0			0	0			1				0	
6.6.1	win	2023-06-02	05:30:49	05:35:26	270959	5a6f1ccade1f390001dbd8b7	3	1	main_slash	7	main_slash	1	stimuli_target_diamondrectangles.svg	stimuli_distractor_diamondtriangles.svg	23	yes	53	1	953	0	0			0	0			1				0	
6.6.1	win	2023-06-02	05:30:49	05:35:26	270959	5a6f1ccade1f390001dbd8b7	3	1	main_slash	7	advance_on_keypress_SLASH	2	stimuli_target_diamondrectangles.svg	stimuli_distractor_diamondtriangles.svg	23	yes	57	0	2811	0	0			0	0			1				0	
6.6.1	win	2023-06-02	05:30:49	05:35:31	276422	5a6f1ccade1f390001dbd8b7	3	1	main_slash	7	main_slash	3	stimuli_target_trianglerectangles.svg	stimuli_distractor_trianglediamonds.svg	17	yes	0	0	2000	0	0			0	0			1				0	
6.6.1	win	2023-06-02	05:30:49	05:35:31	276422	5a6f1ccade1f390001dbd8b7	3	1	main_slash	7	advance_on_keypress_SLASH	4	stimuli_target_trianglerectangles.svg	stimuli_distractor_trianglediamonds.svg	17	yes	57	0	976	0	0			0	0			1				0	
6.6.1	win	2023-06-02	05:30:49	05:35:34	278990	5a6f1ccade1f390001dbd8b7	3	1	main_slash	7	main_slash	5	stimuli_distractor_trianglediamonds.svg	stimuli_target_trianglesquares.svg	26	yes	53	1	952	0	0			0	0			1				0	
6.6.1	win	2023-06-02	05:30:49	05:35:34	278990	5a6f1ccade1f390001dbd8b7	3	1	main_slash	7	advance_on_keypress_SLASH	6	stimuli_distractor_trianglediamonds.svg	stimuli_target_trianglesquares.svg	26	yes	57	0	1049	0	0			0	0			1				0	
6.6.1	win	2023-06-02	05:30:49	05:35:37	281639	5a6f1ccade1f390001dbd8b7	3	1	main_slash	7	main_slash	7	stimuli_distractor_trianglediamonds.svg	stimuli_target_rectanglediamonds.svg	10	yes	53	1	950	0	0			0	0			1				0	
6.6.1	win	2023-06-02	05:30:49	05:35:37	281639	5a6f1ccade1f390001dbd8b7	3	1	main_slash	7	advance_on_keypress_SLASH	8	stimuli_distractor_trianglediamonds.svg	stimuli_target_rectanglediamonds.svg	10	yes	57	0	927	0	0			0	0			1				0	
6.6.1	win	2023-06-02	05:30:49	05:35:39	284071	5a6f1ccade1f390001dbd8b7	3	1	main_slash	7	main_slash	9	stimuli_distractor_diamondtriangles.svg	stimuli_target_rectanglediamonds.svg	14	yes	53	1	865	0	0			0	0			1				0	
6.6.1	win	2023-06-02	05:30:49	05:35:39	284071	5a6f1ccade1f390001dbd8b7	3	1	main_slash	7	advance_on_keypress_SLASH	10	stimuli_distractor_diamondtriangles.svg	stimuli_target_rectanglediamonds.svg	14	yes	57	0	2030	0	0			0	0			1				0	
6.6.1	win	2023-06-02	05:30:49	05:35:44	288755	5a6f1ccade1f390001dbd8b7	3	1	main_slash	7	main_slash	11	stimuli_distractor_trianglediamonds.svg	stimuli_target_diamondrectangles.svg	27	yes	0	0	2000	0	0			0	0			1				0	
6.6.1	win	2023-06-02	05:30:49	05:35:44	288755	5a6f1ccade1f390001dbd8b7	3	1	main_slash	7	advance_on_keypress_SLASH	12	stimuli_distractor_trianglediamonds.svg	stimuli_target_diamondrectangles.svg	27	yes	57	0	675	0	0			0	0			1				0	
6.6.1	win	2023-06-02	05:30:49	05:35:46	291151	5a6f1ccade1f390001dbd8b7	3	1	main_slash	7	main_slash	13	stimuli_target_diamondrectangles.svg	stimuli_distractor_trianglediamonds.svg	19	yes	53	1	1079	0	0			0	0			1				0	
6.6.1	win	2023-06-02	05:30:49	05:35:46	291151	5a6f1ccade1f390001dbd8b7	3	1	main_slash	7	advance_on_keypress_SLASH	14	stimuli_target_diamondrectangles.svg	stimuli_distractor_trianglediamonds.svg	19	yes	57	0	1603	0	0			0	0			1				0	
6.6.1	win	2023-06-02	05:30:49	05:35:49	294263	5a6f1ccade1f390001dbd8b7	3	1	main_slash	7	main_slash	15	stimuli_target_rectanglediamonds.svg	stimuli_distractor_diamondtriangles.svg	6	yes	53	1	857	0	0			0	0			1				0	
6.6.1	win	2023-06-02	05:30:49	05:35:49	294263	5a6f1ccade1f390001dbd8b7	3	1	main_slash	7	advance_on_keypress_SLASH	16	stimuli_target_rectanglediamonds.svg	stimuli_distractor_diamondtriangles.svg	6	yes	57	0	631	0	0			0	0			1				0	
6.6.1	win	2023-06-02	05:30:49	05:35:52	296583	5a6f1ccade1f390001dbd8b7	3	1	main_slash	7	main_slash	17	stimuli_distractor_diamondtriangles.svg	stimuli_target_trianglerectangles.svg	29	yes	53	1	1044	0	0			0	0			1				0	
6.6.1	win	2023-06-02	05:30:49	05:35:52	296583	5a6f1ccade1f390001dbd8b7	3	1	main_slash	7	advance_on_keypress_SLASH	18	stimuli_distractor_diamondtriangles.svg	stimuli_target_trianglerectangles.svg	29	yes	57	0	577	0	0			0	0			1				0	
6.6.1	win	2023-06-02	05:30:49	05:35:55	299821	5a6f1ccade1f390001dbd8b7	3	1	main_slash	7	main_slash	19	stimuli_distractor_trianglediamonds.svg	stimuli_distractor_trianglediamonds.svg	33	no	0	1	2000	0	0			0	0			1				0	
6.6.1	win	2023-06-02	05:30:49	05:35:55	299821	5a6f1ccade1f390001dbd8b7	3	1	main_slash	7	advance_on_keypress_SLASH	20	stimuli_distractor_trianglediamonds.svg	stimuli_distractor_trianglediamonds.svg	33	no	57	0	688	0	0			0	0			1				0	
6.6.1	win	2023-06-02	05:30:49	05:35:57	302103	5a6f1ccade1f390001dbd8b7	3	1	main_slash	7	main_slash	21	stimuli_target_squaretriangles.svg	stimuli_distractor_diamondtriangles.svg	7	yes	53	1	947	0	0			0	0			1				0	
6.6.1	win	2023-06-02	05:30:49	05:35:57	302103	5a6f1ccade1f390001dbd8b7	3	1	main_slash	7	advance_on_keypress_SLASH	22	stimuli_target_squaretriangles.svg	stimuli_distractor_diamondtriangles.svg	7	yes	57	0	1021	0	0			0	0			1				0	
6.6.1	win	2023-06-02	05:30:49	05:36:01	305772	5a6f1ccade1f390001dbd8b7	3	1	main_slash	7	main_slash	23	stimuli_target_diamondsquares.svg	stimuli_distractor_trianglediamonds.svg	20	yes	0	0	2000	0	0			0	0			1				0	
6.6.1	win	2023-06-02	05:30:49	05:36:01	305772	5a6f1ccade1f390001dbd8b7	3	1	main_slash	7	advance_on_keypress_SLASH	24	stimuli_target_diamondsquares.svg	stimuli_distractor_trianglediamonds.svg	20	yes	57	0	714	0	0			0	0			1				0	
6.6.1	win	2023-06-02	05:30:49	05:36:04	309138	5a6f1ccade1f390001dbd8b7	3	1	main_slash	7	main_slash	25	stimuli_distractor_diamondtriangles.svg	stimuli_distractor_trianglediamonds.svg	38	no	0	1	2000	0	0			0	0			1				0	
6.6.1	win	2023-06-02	05:30:49	05:36:04	309138	5a6f1ccade1f390001dbd8b7	3	1	main_slash	7	advance_on_keypress_SLASH	26	stimuli_distractor_diamondtriangles.svg	stimuli_distractor_trianglediamonds.svg	38	no	57	0	595	0	0			0	0			1				0	
6.6.1	win	2023-06-02	05:30:49	05:36:06	311038	5a6f1ccade1f390001dbd8b7	3	1	main_slash	7	main_slash	27	stimuli_distractor_trianglediamonds.svg	stimuli_target_squarediamonds.svg	12	yes	53	1	650	0	0			0	0			1				0	
6.6.1	win	2023-06-02	05:30:49	05:36:06	311038	5a6f1ccade1f390001dbd8b7	3	1	main_slash	7	advance_on_keypress_SLASH	28	stimuli_distractor_trianglediamonds.svg	stimuli_target_squarediamonds.svg	12	yes	57	0	1295	0	0			0	0			1				0	
6.6.1	win	2023-06-02	05:30:49	05:36:10	314988	5a6f1ccade1f390001dbd8b7	3	1	main_slash	7	main_slash	29	stimuli_distractor_diamondtriangles.svg	stimuli_target_diamondrectangles.svg	31	yes	0	0	2000	0	0			0	0			1				0	
6.6.1	win	2023-06-02	05:30:49	05:36:10	314988	5a6f1ccade1f390001dbd8b7	3	1	main_slash	7	advance_on_keypress_SLASH	30	stimuli_distractor_diamondtriangles.svg	stimuli_target_diamondrectangles.svg	31	yes	57	0	705	0	0			0	0			1				0	
6.6.1	win	2023-06-02	05:30:49	05:36:13	318087	5a6f1ccade1f390001dbd8b7	3	1	main_slash	7	main_slash	31	stimuli_target_rectanglediamonds.svg	stimuli_distractor_trianglediamonds.svg	2	yes	53	1	1748	0	0			0	0			1				0	
6.6.1	win	2023-06-02	05:30:49	05:36:13	318087	5a6f1ccade1f390001dbd8b7	3	1	main_slash	7	advance_on_keypress_SLASH	32	stimuli_target_rectanglediamonds.svg	stimuli_distractor_trianglediamonds.svg	2	yes	57	0	813	0	0			0	0			1				0	
6.6.1	win	2023-06-02	05:30:49	05:36:17	321555	5a6f1ccade1f390001dbd8b7	3	1	main_slash	7	main_slash	33	stimuli_distractor_diamondtriangles.svg	stimuli_distractor_diamondtriangles.svg	39	no	0	1	2000	0	0			0	0			1				0	
6.6.1	win	2023-06-02	05:30:49	05:36:17	321555	5a6f1ccade1f390001dbd8b7	3	1	main_slash	7	advance_on_keypress_SLASH	34	stimuli_distractor_diamondtriangles.svg	stimuli_distractor_diamondtriangles.svg	39	no	57	0	691	0	0			0	0			1				0	
6.6.1	win	2023-06-02	05:30:49	05:36:18	323478	5a6f1ccade1f390001dbd8b7	3	1	main_slash	7	main_slash	35	stimuli_target_squaretriangles.svg	stimuli_distractor_trianglediamonds.svg	3	yes	53	1	590	0	0			0	0			1				0	
6.6.1	win	2023-06-02	05:30:49	05:36:18	323478	5a6f1ccade1f390001dbd8b7	3	1	main_slash	7	advance_on_keypress_SLASH	36	stimuli_target_squaretriangles.svg	stimuli_distractor_trianglediamonds.svg	3	yes	57	0	902	0	0			0	0			1				0	
6.6.1	win	2023-06-02	05:30:49	05:36:21	325582	5a6f1ccade1f390001dbd8b7	3	1	main_slash	7	main_slash	37	stimuli_target_squarediamonds.svg	stimuli_distractor_trianglediamonds.svg	4	yes	53	1	561	0	0			0	0			1				0	
6.6.1	win	2023-06-02	05:30:49	05:36:21	325582	5a6f1ccade1f390001dbd8b7	3	1	main_slash	7	advance_on_keypress_SLASH	38	stimuli_target_squarediamonds.svg	stimuli_distractor_trianglediamonds.svg	4	yes	57	0	594	0	0			0	0			1				0	
6.6.1	win	2023-06-02	05:30:49	05:36:24	328822	5a6f1ccade1f390001dbd8b7	3	1	main_slash	7	main_slash	39	stimuli_distractor_trianglediamonds.svg	stimuli_target_trianglerectangles.svg	25	yes	0	0	2000	0	0			0	0			1				0	
6.6.1	win	2023-06-02	05:30:49	05:36:24	328822	5a6f1ccade1f390001dbd8b7	3	1	main_slash	7	advance_on_keypress_SLASH	40	stimuli_distractor_trianglediamonds.svg	stimuli_target_trianglerectangles.svg	25	yes	57	0	560	0	0			0	0			1				0	
6.6.1	win	2023-06-02	05:30:49	05:36:26	331039	5a6f1ccade1f390001dbd8b7	3	1	main_slash	7	main_slash	41	stimuli_target_trianglerectangles.svg	stimuli_distractor_diamondtriangles.svg	21	yes	53	1	1017	0	0			0	0			1				0	
6.6.1	win	2023-06-02	05:30:49	05:36:26	331039	5a6f1ccade1f390001dbd8b7	3	1	main_slash	7	advance_on_keypress_SLASH	42	stimuli_target_trianglerectangles.svg	stimuli_distractor_diamondtriangles.svg	21	yes	57	0	599	0	0			0	0			1				0	
6.6.1	win	2023-06-02	05:30:49	05:36:28	333286	5a6f1ccade1f390001dbd8b7	3	1	main_slash	7	main_slash	43	stimuli_target_trianglesquares.svg	stimuli_distractor_diamondtriangles.svg	22	yes	53	1	998	0	0			0	0			1				0	
6.6.1	win	2023-06-02	05:30:49	05:36:28	333286	5a6f1ccade1f390001dbd8b7	3	1	main_slash	7	advance_on_keypress_SLASH	44	stimuli_target_trianglesquares.svg	stimuli_distractor_diamondtriangles.svg	22	yes	57	0	917	0	0			0	0			1				0	
6.6.1	win	2023-06-02	05:30:49	05:36:32	336855	5a6f1ccade1f390001dbd8b7	3	1	main_slash	7	main_slash	45	stimuli_distractor_trianglediamonds.svg	stimuli_distractor_trianglediamonds.svg	34	no	0	1	2000	0	0			0	0			1				0	
6.6.1	win	2023-06-02	05:30:49	05:36:32	336855	5a6f1ccade1f390001dbd8b7	3	1	main_slash	7	advance_on_keypress_SLASH	46	stimuli_distractor_trianglediamonds.svg	stimuli_distractor_trianglediamonds.svg	34	no	57	0	719	0	0			0	0			1				0	
6.6.1	win	2023-06-02	05:30:49	05:36:34	339110	5a6f1ccade1f390001dbd8b7	3	1	main_slash	7	main_slash	47	stimuli_target_rectangletriangles.svg	stimuli_distractor_diamondtriangles.svg	5	yes	53	1	889	0	0			0	0			1				0	
6.6.1	win	2023-06-02	05:30:49	05:36:34	339110	5a6f1ccade1f390001dbd8b7	3	1	main_slash	7	advance_on_keypress_SLASH	48	stimuli_target_rectangletriangles.svg	stimuli_distractor_diamondtriangles.svg	5	yes	57	0	509	0	0			0	0			1				0	
6.6.1	win	2023-06-02	05:30:49	05:36:36	341046	5a6f1ccade1f390001dbd8b7	3	1	main_slash	7	main_slash	49	stimuli_distractor_diamondtriangles.svg	stimuli_target_rectangletriangles.svg	13	yes	53	1	791	0	0			0	0			1				0	
6.6.1	win	2023-06-02	05:30:49	05:36:36	341046	5a6f1ccade1f390001dbd8b7	3	1	main_slash	7	advance_on_keypress_SLASH	50	stimuli_distractor_diamondtriangles.svg	stimuli_target_rectangletriangles.svg	13	yes	57	0	879	0	0			0	0			1				0	
6.6.1	win	2023-06-02	05:30:49	05:36:39	343494	5a6f1ccade1f390001dbd8b7	3	1	main_slash	7	main_slash	51	stimuli_distractor_trianglediamonds.svg	stimuli_target_squaretriangles.svg	11	yes	53	1	923	0	0			0	0			1				0	
6.6.1	win	2023-06-02	05:30:49	05:36:39	343494	5a6f1ccade1f390001dbd8b7	3	1	main_slash	7	advance_on_keypress_SLASH	52	stimuli_distractor_trianglediamonds.svg	stimuli_target_squaretriangles.svg	11	yes	57	0	581	0	0			0	0			1				0	
6.6.1	win	2023-06-02	05:30:49	05:36:41	345582	5a6f1ccade1f390001dbd8b7	3	1	main_slash	7	main_slash	53	stimuli_target_squarediamonds.svg	stimuli_distractor_diamondtriangles.svg	8	yes	53	1	861	0	0			0	0			1				0	
6.6.1	win	2023-06-02	05:30:49	05:36:41	345582	5a6f1ccade1f390001dbd8b7	3	1	main_slash	7	advance_on_keypress_SLASH	54	stimuli_target_squarediamonds.svg	stimuli_distractor_diamondtriangles.svg	8	yes	57	0	1002	0	0			0	0			1				0	
6.6.1	win	2023-06-02	05:30:49	05:36:43	347862	5a6f1ccade1f390001dbd8b7	3	1	main_slash	7	main_slash	55	stimuli_distractor_trianglediamonds.svg	stimuli_target_rectangletriangles.svg	9	yes	53	1	641	0	0			0	0			1				0	
6.6.1	win	2023-06-02	05:30:49	05:36:43	347862	5a6f1ccade1f390001dbd8b7	3	1	main_slash	7	advance_on_keypress_SLASH	56	stimuli_distractor_trianglediamonds.svg	stimuli_target_rectangletriangles.svg	9	yes	57	0	1199	0	0			0	0			1				0	
6.6.1	win	2023-06-02	05:30:49	05:36:47	351705	5a6f1ccade1f390001dbd8b7	3	1	main_slash	7	main_slash	57	stimuli_distractor_trianglediamonds.svg	stimuli_distractor_diamondtriangles.svg	35	no	0	1	2000	0	0			0	0			1				0	
6.6.1	win	2023-06-02	05:30:49	05:36:47	351705	5a6f1ccade1f390001dbd8b7	3	1	main_slash	7	advance_on_keypress_SLASH	58	stimuli_distractor_trianglediamonds.svg	stimuli_distractor_diamondtriangles.svg	35	no	57	0	573	0	0			0	0			1				0	
6.6.1	win	2023-06-02	05:30:49	05:36:49	353734	5a6f1ccade1f390001dbd8b7	3	1	main_slash	7	main_slash	59	stimuli_distractor_diamondtriangles.svg	stimuli_target_squarediamonds.svg	16	yes	53	1	813	0	0			0	0			1				0	
6.6.1	win	2023-06-02	05:30:49	05:36:49	353734	5a6f1ccade1f390001dbd8b7	3	1	main_slash	7	advance_on_keypress_SLASH	60	stimuli_distractor_diamondtriangles.svg	stimuli_target_squarediamonds.svg	16	yes	57	0	787	0	0			0	0			1				0	
6.6.1	win	2023-06-02	05:30:49	05:36:51	356254	5a6f1ccade1f390001dbd8b7	3	1	main_slash	7	main_slash	61	stimuli_distractor_diamondtriangles.svg	stimuli_target_diamondsquares.svg	32	yes	53	1	1083	0	0			0	0			1				0	
6.6.1	win	2023-06-02	05:30:49	05:36:51	356254	5a6f1ccade1f390001dbd8b7	3	1	main_slash	7	advance_on_keypress_SLASH	62	stimuli_distractor_diamondtriangles.svg	stimuli_target_diamondsquares.svg	32	yes	57	0	831	0	0			0	0			1				0	
6.6.1	win	2023-06-02	05:30:49	05:36:55	359739	5a6f1ccade1f390001dbd8b7	3	1	main_slash	7	main_slash	63	stimuli_distractor_diamondtriangles.svg	stimuli_distractor_diamondtriangles.svg	40	no	0	1	2000	0	0			0	0			1				0	
6.6.1	win	2023-06-02	05:30:49	05:36:55	359739	5a6f1ccade1f390001dbd8b7	3	1	main_slash	7	advance_on_keypress_SLASH	64	stimuli_distractor_diamondtriangles.svg	stimuli_distractor_diamondtriangles.svg	40	no	57	0	531	0	0			0	0			1				0	
6.6.1	win	2023-06-02	05:30:49	05:36:58	362922	5a6f1ccade1f390001dbd8b7	3	1	main_slash	7	main_slash	65	stimuli_distractor_diamondtriangles.svg	stimuli_target_trianglesquares.svg	30	yes	0	0	2000	0	0			0	0			1				0	
6.6.1	win	2023-06-02	05:30:49	05:36:58	362922	5a6f1ccade1f390001dbd8b7	3	1	main_slash	7	advance_on_keypress_SLASH	66	stimuli_distractor_diamondtriangles.svg	stimuli_target_trianglesquares.svg	30	yes	57	0	540	0	0			0	0			1				0	
6.6.1	win	2023-06-02	05:30:49	05:37:01	366105	5a6f1ccade1f390001dbd8b7	3	1	main_slash	7	main_slash	67	stimuli_distractor_trianglediamonds.svg	stimuli_distractor_diamondtriangles.svg	36	no	0	1	2000	0	0			0	0			1				0	
6.6.1	win	2023-06-02	05:30:49	05:37:01	366105	5a6f1ccade1f390001dbd8b7	3	1	main_slash	7	advance_on_keypress_SLASH	68	stimuli_distractor_trianglediamonds.svg	stimuli_distractor_diamondtriangles.svg	36	no	57	0	981	0	0			0	0			1				0	
6.6.1	win	2023-06-02	05:30:49	05:37:03	368262	5a6f1ccade1f390001dbd8b7	3	1	main_slash	7	main_slash	69	stimuli_target_rectangletriangles.svg	stimuli_distractor_trianglediamonds.svg	1	yes	53	1	524	0	0			0	0			1				0	
6.6.1	win	2023-06-02	05:30:49	05:37:03	368262	5a6f1ccade1f390001dbd8b7	3	1	main_slash	7	advance_on_keypress_SLASH	70	stimuli_target_rectangletriangles.svg	stimuli_distractor_trianglediamonds.svg	1	yes	57	0	1055	0	0			0	0			1				0	
6.6.1	win	2023-06-02	05:30:49	05:37:06	370502	5a6f1ccade1f390001dbd8b7	3	1	main_slash	7	main_slash	71	stimuli_target_diamondsquares.svg	stimuli_distractor_diamondtriangles.svg	24	yes	53	1	547	0	0			0	0			1				0	
6.6.1	win	2023-06-02	05:30:49	05:37:06	370502	5a6f1ccade1f390001dbd8b7	3	1	main_slash	7	advance_on_keypress_SLASH	72	stimuli_target_diamondsquares.svg	stimuli_distractor_diamondtriangles.svg	24	yes	57	0	701	0	0			0	0			1				0	
6.6.1	win	2023-06-02	05:30:49	05:37:07	372462	5a6f1ccade1f390001dbd8b7	3	1	main_slash	7	main_slash	73	stimuli_target_trianglesquares.svg	stimuli_distractor_trianglediamonds.svg	18	yes	53	1	607	0	0			0	0			1				0	
6.6.1	win	2023-06-02	05:30:49	05:37:07	372462	5a6f1ccade1f390001dbd8b7	3	1	main_slash	7	advance_on_keypress_SLASH	74	stimuli_target_trianglesquares.svg	stimuli_distractor_trianglediamonds.svg	18	yes	57	0	543	0	0			0	0			1				0	
6.6.1	win	2023-06-02	05:30:49	05:37:11	375638	5a6f1ccade1f390001dbd8b7	3	1	main_slash	7	main_slash	75	stimuli_distractor_diamondtriangles.svg	stimuli_distractor_trianglediamonds.svg	37	no	0	1	2000	0	0			0	0			1				0	
6.6.1	win	2023-06-02	05:30:49	05:37:11	375638	5a6f1ccade1f390001dbd8b7	3	1	main_slash	7	advance_on_keypress_SLASH	76	stimuli_distractor_diamondtriangles.svg	stimuli_distractor_trianglediamonds.svg	37	no	57	0	456	0	0			0	0			1				0	
6.6.1	win	2023-06-02	05:30:49	05:37:13	377638	5a6f1ccade1f390001dbd8b7	3	1	main_slash	7	main_slash	77	stimuli_distractor_diamondtriangles.svg	stimuli_target_squaretriangles.svg	15	yes	53	1	900	0	0			0	0			1				0	
6.6.1	win	2023-06-02	05:30:49	05:37:13	377638	5a6f1ccade1f390001dbd8b7	3	1	main_slash	7	advance_on_keypress_SLASH	78	stimuli_distractor_diamondtriangles.svg	stimuli_target_squaretriangles.svg	15	yes	57	0	575	0	0			0	0			1				0	
6.6.1	win	2023-06-02	05:30:49	05:37:16	380855	5a6f1ccade1f390001dbd8b7	3	1	main_slash	7	main_slash	79	stimuli_distractor_trianglediamonds.svg	stimuli_target_diamondsquares.svg	28	yes	0	0	2000	0	0			0	0			1				0	
6.6.1	win	2023-06-02	05:30:49	05:37:16	380855	5a6f1ccade1f390001dbd8b7	3	1	main_slash	7	advance_on_keypress_SLASH	80	stimuli_distractor_trianglediamonds.svg	stimuli_target_diamondsquares.svg	28	yes	57	0	471	0	0			0	0			1				0	
6.6.1	win	2023-06-02	05:30:49	05:37:19	383971	5a6f1ccade1f390001dbd8b7	3	1	main_slash	7	main_slash	81	stimuli_distractor_diamondtriangles.svg	stimuli_distractor_trianglediamonds.svg	37	no	0	1	2000	0	0			0	0			1				0	
6.6.1	win	2023-06-02	05:30:49	05:37:19	383971	5a6f1ccade1f390001dbd8b7	3	1	main_slash	7	advance_on_keypress_SLASH	82	stimuli_distractor_diamondtriangles.svg	stimuli_distractor_trianglediamonds.svg	37	no	57	0	426	0	0			0	0			1				0	
6.6.1	win	2023-06-02	05:30:49	05:37:22	387038	5a6f1ccade1f390001dbd8b7	3	1	main_slash	7	main_slash	83	stimuli_distractor_trianglediamonds.svg	stimuli_target_diamondsquares.svg	28	yes	0	0	2000	0	0			0	0			1				0	
6.6.1	win	2023-06-02	05:30:49	05:37:22	387038	5a6f1ccade1f390001dbd8b7	3	1	main_slash	7	advance_on_keypress_SLASH	84	stimuli_distractor_trianglediamonds.svg	stimuli_target_diamondsquares.svg	28	yes	57	0	568	0	0			0	0			1				0	
6.6.1	win	2023-06-02	05:30:49	05:37:25	390255	5a6f1ccade1f390001dbd8b7	3	1	main_slash	7	main_slash	85	stimuli_distractor_diamondtriangles.svg	stimuli_distractor_trianglediamonds.svg	38	no	0	1	2000	0	0			0	0			1				0	
6.6.1	win	2023-06-02	05:30:49	05:37:25	390255	5a6f1ccade1f390001dbd8b7	3	1	main_slash	7	advance_on_keypress_SLASH	86	stimuli_distractor_diamondtriangles.svg	stimuli_distractor_trianglediamonds.svg	38	no	57	0	607	0	0			0	0			1				0	
6.6.1	win	2023-06-02	05:30:49	05:37:28	392606	5a6f1ccade1f390001dbd8b7	3	1	main_slash	7	main_slash	87	stimuli_distractor_diamondtriangles.svg	stimuli_target_trianglesquares.svg	30	yes	53	1	1101	0	0			0	0			1				0	
6.6.1	win	2023-06-02	05:30:49	05:37:28	392606	5a6f1ccade1f390001dbd8b7	3	1	main_slash	7	advance_on_keypress_SLASH	88	stimuli_distractor_diamondtriangles.svg	stimuli_target_trianglesquares.svg	30	yes	57	0	745	0	0			0	0			1				0	
6.6.1	win	2023-06-02	05:30:49	05:37:31	396005	5a6f1ccade1f390001dbd8b7	3	1	main_slash	7	main_slash	89	stimuli_distractor_diamondtriangles.svg	stimuli_target_squaretriangles.svg	15	yes	0	0	2000	0	0			0	0			1				0	
6.6.1	win	2023-06-02	05:30:49	05:37:31	396005	5a6f1ccade1f390001dbd8b7	3	1	main_slash	7	advance_on_keypress_SLASH	90	stimuli_distractor_diamondtriangles.svg	stimuli_target_squaretriangles.svg	15	yes	57	0	585	0	0			0	0			1				0	
6.6.1	win	2023-06-02	05:30:49	05:37:34	399238	5a6f1ccade1f390001dbd8b7	3	1	main_slash	7	main_slash	91	stimuli_distractor_trianglediamonds.svg	stimuli_distractor_trianglediamonds.svg	34	no	0	1	2000	0	0			0	0			1				0	
6.6.1	win	2023-06-02	05:30:49	05:37:34	399238	5a6f1ccade1f390001dbd8b7	3	1	main_slash	7	advance_on_keypress_SLASH	92	stimuli_distractor_trianglediamonds.svg	stimuli_distractor_trianglediamonds.svg	34	no	57	0	680	0	0			0	0			1				0	
6.6.1	win	2023-06-02	05:30:49	05:37:37	401558	5a6f1ccade1f390001dbd8b7	3	1	main_slash	7	main_slash	93	stimuli_target_trianglerectangles.svg	stimuli_distractor_trianglediamonds.svg	17	yes	53	1	987	0	0			0	0			1				0	
6.6.1	win	2023-06-02	05:30:49	05:37:37	401558	5a6f1ccade1f390001dbd8b7	3	1	main_slash	7	advance_on_keypress_SLASH	94	stimuli_target_trianglerectangles.svg	stimuli_distractor_trianglediamonds.svg	17	yes	57	0	466	0	0			0	0			1				0	
6.6.1	win	2023-06-02	05:30:49	05:37:39	403638	5a6f1ccade1f390001dbd8b7	3	1	main_slash	7	main_slash	95	stimuli_target_squarediamonds.svg	stimuli_distractor_trianglediamonds.svg	4	yes	53	1	966	0	0			0	0			1				0	
6.6.1	win	2023-06-02	05:30:49	05:37:39	403638	5a6f1ccade1f390001dbd8b7	3	1	main_slash	7	advance_on_keypress_SLASH	96	stimuli_target_squarediamonds.svg	stimuli_distractor_trianglediamonds.svg	4	yes	57	0	472	0	0			0	0			1				0	
6.6.1	win	2023-06-02	05:30:49	05:37:42	406755	5a6f1ccade1f390001dbd8b7	3	1	main_slash	7	main_slash	97	stimuli_distractor_trianglediamonds.svg	stimuli_distractor_diamondtriangles.svg	35	no	0	1	2000	0	0			0	0			1				0	
6.6.1	win	2023-06-02	05:30:49	05:37:42	406755	5a6f1ccade1f390001dbd8b7	3	1	main_slash	7	advance_on_keypress_SLASH	98	stimuli_distractor_trianglediamonds.svg	stimuli_distractor_diamondtriangles.svg	35	no	57	0	531	0	0			0	0			1				0	
6.6.1	win	2023-06-02	05:30:49	05:37:45	409938	5a6f1ccade1f390001dbd8b7	3	1	main_slash	7	main_slash	99	stimuli_distractor_trianglediamonds.svg	stimuli_distractor_diamondtriangles.svg	36	no	0	1	2000	0	0			0	0			1				0	
6.6.1	win	2023-06-02	05:30:49	05:37:45	409938	5a6f1ccade1f390001dbd8b7	3	1	main_slash	7	advance_on_keypress_SLASH	100	stimuli_distractor_trianglediamonds.svg	stimuli_distractor_diamondtriangles.svg	36	no	57	0	1124	0	0			0	0			1				0	
6.6.1	win	2023-06-02	05:30:49	05:37:49	413705	5a6f1ccade1f390001dbd8b7	3	1	main_slash	7	main_slash	101	stimuli_distractor_trianglediamonds.svg	stimuli_distractor_trianglediamonds.svg	33	no	0	1	2000	0	0			0	0			1				0	
6.6.1	win	2023-06-02	05:30:49	05:37:49	413705	5a6f1ccade1f390001dbd8b7	3	1	main_slash	7	advance_on_keypress_SLASH	102	stimuli_distractor_trianglediamonds.svg	stimuli_distractor_trianglediamonds.svg	33	no	57	0	541	0	0			0	0			1				0	
6.6.1	win	2023-06-02	05:30:49	05:37:51	416110	5a6f1ccade1f390001dbd8b7	3	1	main_slash	7	main_slash	103	stimuli_target_trianglesquares.svg	stimuli_distractor_diamondtriangles.svg	22	yes	53	1	1222	0	0			0	0			1				0	
6.6.1	win	2023-06-02	05:30:49	05:37:51	416110	5a6f1ccade1f390001dbd8b7	3	1	main_slash	7	advance_on_keypress_SLASH	104	stimuli_target_trianglesquares.svg	stimuli_distractor_diamondtriangles.svg	22	yes	57	0	701	0	0			0	0			1				0	
6.6.1	win	2023-06-02	05:30:49	05:37:53	418438	5a6f1ccade1f390001dbd8b7	3	1	main_slash	7	main_slash	105	stimuli_target_squaretriangles.svg	stimuli_distractor_diamondtriangles.svg	7	yes	53	1	984	0	0			0	0			1				0	
6.6.1	win	2023-06-02	05:30:49	05:37:53	418438	5a6f1ccade1f390001dbd8b7	3	1	main_slash	7	advance_on_keypress_SLASH	106	stimuli_target_squaretriangles.svg	stimuli_distractor_diamondtriangles.svg	7	yes	57	0	352	0	0			0	0			1				0	
6.6.1	win	2023-06-02	05:30:49	05:37:55	420462	5a6f1ccade1f390001dbd8b7	3	1	main_slash	7	main_slash	107	stimuli_target_diamondrectangles.svg	stimuli_distractor_diamondtriangles.svg	23	yes	53	1	1024	0	0			0	0			1				0	
6.6.1	win	2023-06-02	05:30:49	05:37:55	420462	5a6f1ccade1f390001dbd8b7	3	1	main_slash	7	advance_on_keypress_SLASH	108	stimuli_target_diamondrectangles.svg	stimuli_distractor_diamondtriangles.svg	23	yes	57	0	455	0	0			0	0			1				0	
6.6.1	win	2023-06-02	05:30:49	05:37:58	422478	5a6f1ccade1f390001dbd8b7	3	1	main_slash	7	main_slash	109	stimuli_target_diamondsquares.svg	stimuli_distractor_trianglediamonds.svg	20	yes	53	1	923	0	0			0	0			1				0	
6.6.1	win	2023-06-02	05:30:49	05:37:58	422478	5a6f1ccade1f390001dbd8b7	3	1	main_slash	7	advance_on_keypress_SLASH	110	stimuli_target_diamondsquares.svg	stimuli_distractor_trianglediamonds.svg	20	yes	57	0	422	0	0			0	0			1				0	
6.6.1	win	2023-06-02	05:30:49	05:38:00	424526	5a6f1ccade1f390001dbd8b7	3	1	main_slash	7	main_slash	111	stimuli_distractor_diamondtriangles.svg	stimuli_target_diamondrectangles.svg	31	yes	53	1	988	0	0			0	0			1				0	
6.6.1	win	2023-06-02	05:30:49	05:38:00	424526	5a6f1ccade1f390001dbd8b7	3	1	main_slash	7	advance_on_keypress_SLASH	112	stimuli_distractor_diamondtriangles.svg	stimuli_target_diamondrectangles.svg	31	yes	57	0	348	0	0			0	0			1				0	
6.6.1	win	2023-06-02	05:30:49	05:38:01	426390	5a6f1ccade1f390001dbd8b7	3	1	main_slash	7	main_slash	113	stimuli_distractor_diamondtriangles.svg	stimuli_target_rectangletriangles.svg	13	yes	53	1	869	0	0			0	0			1				0	
6.6.1	win	2023-06-02	05:30:49	05:38:01	426390	5a6f1ccade1f390001dbd8b7	3	1	main_slash	7	advance_on_keypress_SLASH	114	stimuli_distractor_diamondtriangles.svg	stimuli_target_rectangletriangles.svg	13	yes	57	0	361	0	0			0	0			1				0	
6.6.1	win	2023-06-02	05:30:49	05:38:03	428310	5a6f1ccade1f390001dbd8b7	3	1	main_slash	7	main_slash	115	stimuli_target_rectangletriangles.svg	stimuli_distractor_diamondtriangles.svg	5	yes	53	1	905	0	0			0	0			1				0	
6.6.1	win	2023-06-02	05:30:49	05:38:03	428310	5a6f1ccade1f390001dbd8b7	3	1	main_slash	7	advance_on_keypress_SLASH	116	stimuli_target_rectangletriangles.svg	stimuli_distractor_diamondtriangles.svg	5	yes	57	0	261	0	0			0	0			1				0	
6.6.1	win	2023-06-02	05:30:49	05:38:05	430126	5a6f1ccade1f390001dbd8b7	3	1	main_slash	7	main_slash	117	stimuli_target_rectangletriangles.svg	stimuli_distractor_trianglediamonds.svg	1	yes	53	1	922	0	0			0	0			1				0	
6.6.1	win	2023-06-02	05:30:49	05:38:05	430126	5a6f1ccade1f390001dbd8b7	3	1	main_slash	7	advance_on_keypress_SLASH	118	stimuli_target_rectangletriangles.svg	stimuli_distractor_trianglediamonds.svg	1	yes	57	0	268	0	0			0	0			1				0	
6.6.1	win	2023-06-02	05:30:49	05:38:07	431670	5a6f1ccade1f390001dbd8b7	3	1	main_slash	7	main_slash	119	stimuli_distractor_trianglediamonds.svg	stimuli_target_squaretriangles.svg	11	yes	53	1	632	0	0			0	0			1				0	
6.6.1	win	2023-06-02	05:30:49	05:38:07	431670	5a6f1ccade1f390001dbd8b7	3	1	main_slash	7	advance_on_keypress_SLASH	120	stimuli_distractor_trianglediamonds.svg	stimuli_target_squaretriangles.svg	11	yes	57	0	414	0	0			0	0			1				0	
6.6.1	win	2023-06-02	05:30:49	05:38:09	433726	5a6f1ccade1f390001dbd8b7	3	1	main_slash	7	main_slash	121	stimuli_target_trianglerectangles.svg	stimuli_distractor_diamondtriangles.svg	21	yes	53	1	988	0	0			0	0			1				0	
6.6.1	win	2023-06-02	05:30:49	05:38:09	433726	5a6f1ccade1f390001dbd8b7	3	1	main_slash	7	advance_on_keypress_SLASH	122	stimuli_target_trianglerectangles.svg	stimuli_distractor_diamondtriangles.svg	21	yes	57	0	332	0	0			0	0			1				0	
6.6.1	win	2023-06-02	05:30:49	05:38:10	435350	5a6f1ccade1f390001dbd8b7	3	1	main_slash	7	main_slash	123	stimuli_distractor_diamondtriangles.svg	stimuli_target_diamondsquares.svg	32	yes	53	1	646	0	0			0	0			1				0	
6.6.1	win	2023-06-02	05:30:49	05:38:10	435350	5a6f1ccade1f390001dbd8b7	3	1	main_slash	7	advance_on_keypress_SLASH	124	stimuli_distractor_diamondtriangles.svg	stimuli_target_diamondsquares.svg	32	yes	57	0	763	0	0			0	0			1				0	
6.6.1	win	2023-06-02	05:30:49	05:38:14	438771	5a6f1ccade1f390001dbd8b7	3	1	main_slash	7	main_slash	125	stimuli_distractor_diamondtriangles.svg	stimuli_distractor_diamondtriangles.svg	40	no	0	1	2000	0	0			0	0			1				0	
6.6.1	win	2023-06-02	05:30:49	05:38:14	438771	5a6f1ccade1f390001dbd8b7	3	1	main_slash	7	advance_on_keypress_SLASH	126	stimuli_distractor_diamondtriangles.svg	stimuli_distractor_diamondtriangles.svg	40	no	57	0	610	0	0			0	0			1				0	
6.6.1	win	2023-06-02	05:30:49	05:38:16	440990	5a6f1ccade1f390001dbd8b7	3	1	main_slash	7	main_slash	127	stimuli_distractor_diamondtriangles.svg	stimuli_target_squarediamonds.svg	16	yes	53	1	969	0	0			0	0			1				0	
6.6.1	win	2023-06-02	05:30:49	05:38:16	440990	5a6f1ccade1f390001dbd8b7	3	1	main_slash	7	advance_on_keypress_SLASH	128	stimuli_distractor_diamondtriangles.svg	stimuli_target_squarediamonds.svg	16	yes	57	0	745	0	0			0	0			1				0	
6.6.1	win	2023-06-02	05:30:49	05:38:19	444388	5a6f1ccade1f390001dbd8b7	3	1	main_slash	7	main_slash	129	stimuli_distractor_trianglediamonds.svg	stimuli_target_diamondrectangles.svg	27	yes	0	0	2000	0	0			0	0			1				0	
6.6.1	win	2023-06-02	05:30:49	05:38:19	444388	5a6f1ccade1f390001dbd8b7	3	1	main_slash	7	advance_on_keypress_SLASH	130	stimuli_distractor_trianglediamonds.svg	stimuli_target_diamondrectangles.svg	27	yes	57	0	514	0	0			0	0			1				0	
6.6.1	win	2023-06-02	05:30:49	05:38:22	446710	5a6f1ccade1f390001dbd8b7	3	1	main_slash	7	main_slash	131	stimuli_distractor_trianglediamonds.svg	stimuli_target_trianglerectangles.svg	25	yes	53	1	1156	0	0			0	0			1				0	
6.6.1	win	2023-06-02	05:30:49	05:38:22	446710	5a6f1ccade1f390001dbd8b7	3	1	main_slash	7	advance_on_keypress_SLASH	132	stimuli_distractor_trianglediamonds.svg	stimuli_target_trianglerectangles.svg	25	yes	57	0	533	0	0			0	0			1				0	
6.6.1	win	2023-06-02	05:30:49	05:38:24	448758	5a6f1ccade1f390001dbd8b7	3	1	main_slash	7	main_slash	133	stimuli_distractor_trianglediamonds.svg	stimuli_target_trianglesquares.svg	26	yes	53	1	870	0	0			0	0			1				0	
6.6.1	win	2023-06-02	05:30:49	05:38:24	448758	5a6f1ccade1f390001dbd8b7	3	1	main_slash	7	advance_on_keypress_SLASH	134	stimuli_distractor_trianglediamonds.svg	stimuli_target_trianglesquares.svg	26	yes	57	0	482	0	0			0	0			1				0	
6.6.1	win	2023-06-02	05:30:49	05:38:26	450718	5a6f1ccade1f390001dbd8b7	3	1	main_slash	7	main_slash	135	stimuli_distractor_trianglediamonds.svg	stimuli_target_rectanglediamonds.svg	10	yes	53	1	830	0	0			0	0			1				0	
6.6.1	win	2023-06-02	05:30:49	05:38:26	450718	5a6f1ccade1f390001dbd8b7	3	1	main_slash	7	advance_on_keypress_SLASH	136	stimuli_distractor_trianglediamonds.svg	stimuli_target_rectanglediamonds.svg	10	yes	57	0	524	0	0			0	0			1				0	
6.6.1	win	2023-06-02	05:30:49	05:38:28	452670	5a6f1ccade1f390001dbd8b7	3	1	main_slash	7	main_slash	137	stimuli_distractor_trianglediamonds.svg	stimuli_target_rectangletriangles.svg	9	yes	53	1	782	0	0			0	0			1				0	
6.6.1	win	2023-06-02	05:30:49	05:38:28	452670	5a6f1ccade1f390001dbd8b7	3	1	main_slash	7	advance_on_keypress_SLASH	138	stimuli_distractor_trianglediamonds.svg	stimuli_target_rectangletriangles.svg	9	yes	57	0	462	0	0			0	0			1				0	
6.6.1	win	2023-06-02	05:30:49	05:38:29	454390	5a6f1ccade1f390001dbd8b7	3	1	main_slash	7	main_slash	139	stimuli_distractor_diamondtriangles.svg	stimuli_target_rectanglediamonds.svg	14	yes	53	1	602	0	0			0	0			1				0	
6.6.1	win	2023-06-02	05:30:49	05:38:29	454390	5a6f1ccade1f390001dbd8b7	3	1	main_slash	7	advance_on_keypress_SLASH	140	stimuli_distractor_diamondtriangles.svg	stimuli_target_rectanglediamonds.svg	14	yes	57	0	441	0	0			0	0			1				0	
6.6.1	win	2023-06-02	05:30:49	05:38:32	456542	5a6f1ccade1f390001dbd8b7	3	1	main_slash	7	main_slash	141	stimuli_distractor_diamondtriangles.svg	stimuli_target_trianglerectangles.svg	29	yes	53	1	1071	0	0			0	0			1				0	
6.6.1	win	2023-06-02	05:30:49	05:38:32	456542	5a6f1ccade1f390001dbd8b7	3	1	main_slash	7	advance_on_keypress_SLASH	142	stimuli_distractor_diamondtriangles.svg	stimuli_target_trianglerectangles.svg	29	yes	57	0	308	0	0			0	0			1				0	
6.6.1	win	2023-06-02	05:30:49	05:38:33	458390	5a6f1ccade1f390001dbd8b7	3	1	main_slash	7	main_slash	143	stimuli_target_rectanglediamonds.svg	stimuli_distractor_trianglediamonds.svg	2	yes	53	1	902	0	0			0	0			1				0	
6.6.1	win	2023-06-02	05:30:49	05:38:33	458390	5a6f1ccade1f390001dbd8b7	3	1	main_slash	7	advance_on_keypress_SLASH	144	stimuli_target_rectanglediamonds.svg	stimuli_distractor_trianglediamonds.svg	2	yes	57	0	305	0	0			0	0			1				0	
6.6.1	win	2023-06-02	05:30:49	05:38:35	460238	5a6f1ccade1f390001dbd8b7	3	1	main_slash	7	main_slash	145	stimuli_distractor_trianglediamonds.svg	stimuli_target_squarediamonds.svg	12	yes	53	1	900	0	0			0	0			1				0	
6.6.1	win	2023-06-02	05:30:49	05:38:35	460238	5a6f1ccade1f390001dbd8b7	3	1	main_slash	7	advance_on_keypress_SLASH	146	stimuli_distractor_trianglediamonds.svg	stimuli_target_squarediamonds.svg	12	yes	57	0	528	0	0			0	0			1				0	
6.6.1	win	2023-06-02	05:30:49	05:38:37	462310	5a6f1ccade1f390001dbd8b7	3	1	main_slash	7	main_slash	147	stimuli_target_squaretriangles.svg	stimuli_distractor_trianglediamonds.svg	3	yes	53	1	889	0	0			0	0			1				0	
6.6.1	win	2023-06-02	05:30:49	05:38:37	462310	5a6f1ccade1f390001dbd8b7	3	1	main_slash	7	advance_on_keypress_SLASH	148	stimuli_target_squaretriangles.svg	stimuli_distractor_trianglediamonds.svg	3	yes	57	0	509	0	0			0	0			1				0	
6.6.1	win	2023-06-02	05:30:49	05:38:39	464318	5a6f1ccade1f390001dbd8b7	3	1	main_slash	7	main_slash	149	stimuli_target_squarediamonds.svg	stimuli_distractor_diamondtriangles.svg	8	yes	53	1	864	0	0			0	0			1				0	
6.6.1	win	2023-06-02	05:30:49	05:38:39	464318	5a6f1ccade1f390001dbd8b7	3	1	main_slash	7	advance_on_keypress_SLASH	150	stimuli_target_squarediamonds.svg	stimuli_distractor_diamondtriangles.svg	8	yes	57	0	420	0	0			0	0			1				0	
6.6.1	win	2023-06-02	05:30:49	05:38:41	466238	5a6f1ccade1f390001dbd8b7	3	1	main_slash	7	main_slash	151	stimuli_target_rectanglediamonds.svg	stimuli_distractor_diamondtriangles.svg	6	yes	53	1	850	0	0			0	0			1				0	
6.6.1	win	2023-06-02	05:30:49	05:38:41	466238	5a6f1ccade1f390001dbd8b7	3	1	main_slash	7	advance_on_keypress_SLASH	152	stimuli_target_rectanglediamonds.svg	stimuli_distractor_diamondtriangles.svg	6	yes	57	0	368	0	0			0	0			1				0	
6.6.1	win	2023-06-02	05:30:49	05:38:44	468590	5a6f1ccade1f390001dbd8b7	3	1	main_slash	7	main_slash	153	stimuli_target_diamondrectangles.svg	stimuli_distractor_trianglediamonds.svg	19	yes	53	1	1336	0	0			0	0			1				0	
6.6.1	win	2023-06-02	05:30:49	05:38:44	468590	5a6f1ccade1f390001dbd8b7	3	1	main_slash	7	advance_on_keypress_SLASH	154	stimuli_target_diamondrectangles.svg	stimuli_distractor_trianglediamonds.svg	19	yes	57	0	274	0	0			0	0			1				0	
6.6.1	win	2023-06-02	05:30:49	05:38:47	471505	5a6f1ccade1f390001dbd8b7	3	1	main_slash	7	main_slash	155	stimuli_distractor_diamondtriangles.svg	stimuli_distractor_diamondtriangles.svg	39	no	0	1	2000	0	0			0	0			1				0	
6.6.1	win	2023-06-02	05:30:49	05:38:47	471505	5a6f1ccade1f390001dbd8b7	3	1	main_slash	7	advance_on_keypress_SLASH	156	stimuli_distractor_diamondtriangles.svg	stimuli_distractor_diamondtriangles.svg	39	no	57	0	525	0	0			0	0			1				0	
6.6.1	win	2023-06-02	05:30:49	05:38:49	473574	5a6f1ccade1f390001dbd8b7	3	1	main_slash	7	main_slash	157	stimuli_target_diamondsquares.svg	stimuli_distractor_diamondtriangles.svg	24	yes	53	1	903	0	0			0	0			1				0	
6.6.1	win	2023-06-02	05:30:49	05:38:49	473574	5a6f1ccade1f390001dbd8b7	3	1	main_slash	7	advance_on_keypress_SLASH	158	stimuli_target_diamondsquares.svg	stimuli_distractor_diamondtriangles.svg	24	yes	57	0	370	0	0			0	0			1				0	
6.6.1	win	2023-06-02	05:30:49	05:38:50	475454	5a6f1ccade1f390001dbd8b7	3	1	main_slash	7	main_slash	159	stimuli_target_trianglesquares.svg	stimuli_distractor_trianglediamonds.svg	18	yes	53	1	866	0	0			0	0			1				0	
6.6.1	win	2023-06-02	05:30:49	05:38:50	475454	5a6f1ccade1f390001dbd8b7	3	1	main_slash	7	advance_on_keypress_SLASH	160	stimuli_target_trianglesquares.svg	stimuli_distractor_trianglediamonds.svg	18	yes	57	0	255	0	0			0	0			1				0	
6.6.1	win	2023-06-02	05:30:49	05:39:47	531674	5a6f1ccade1f390001dbd8b7	3	1	practice_z	9	practice_z	1	stimuli_distractor_trianglediamonds.svg	stimuli_target_diamondrectangles.svg	12	yes	0	0	2000	0	0			0	0			1				0	
6.6.1	win	2023-06-02	05:30:49	05:39:47	531674	5a6f1ccade1f390001dbd8b7	3	1	practice_z	9	advance_on_keypress_ZEE	2	stimuli_distractor_trianglediamonds.svg	stimuli_target_diamondrectangles.svg	12	yes	57	0	2110	0	0			0	0			1				0	
6.6.1	win	2023-06-02	05:30:49	05:39:52	537441	5a6f1ccade1f390001dbd8b7	3	1	practice_z	9	practice_z	3	stimuli_distractor_trianglediamonds.svg	stimuli_distractor_diamondtriangles.svg	16	no	0	1	2000	0	0			0	0			1				0	
6.6.1	win	2023-06-02	05:30:49	05:39:52	537441	5a6f1ccade1f390001dbd8b7	3	1	practice_z	9	advance_on_keypress_ZEE	4	stimuli_distractor_trianglediamonds.svg	stimuli_distractor_diamondtriangles.svg	16	no	57	0	631	0	0			0	0			1				0	
6.6.1	win	2023-06-02	05:30:49	05:39:57	541724	5a6f1ccade1f390001dbd8b7	3	1	practice_z	9	practice_z	5	stimuli_target_squarediamonds.svg	stimuli_distractor_trianglediamonds.svg	5	yes	0	0	2000	0	0			0	0			1				0	
6.6.1	win	2023-06-02	05:30:49	05:39:57	541724	5a6f1ccade1f390001dbd8b7	3	1	practice_z	9	advance_on_keypress_ZEE	6	stimuli_target_squarediamonds.svg	stimuli_distractor_trianglediamonds.svg	5	yes	57	0	5044	0	0			0	0			1				0	
6.6.1	win	2023-06-02	05:30:49	05:40:04	549137	5a6f1ccade1f390001dbd8b7	3	1	practice_z	9	practice_z	7	stimuli_distractor_diamondtriangles.svg	stimuli_target_rectangletriangles.svg	7	yes	44	1	713	0	0			0	0			1				0	
6.6.1	win	2023-06-02	05:30:49	05:40:04	549137	5a6f1ccade1f390001dbd8b7	3	1	practice_z	9	advance_on_keypress_ZEE	8	stimuli_distractor_diamondtriangles.svg	stimuli_target_rectangletriangles.svg	7	yes	57	0	500	0	0			0	0			1				0	
6.6.1	win	2023-06-02	05:30:49	05:40:07	552073	5a6f1ccade1f390001dbd8b7	3	1	practice_z	9	practice_z	9	stimuli_target_squarediamonds.svg	stimuli_distractor_diamondtriangles.svg	2	yes	44	1	782	0	0			0	0			1				0	
6.6.1	win	2023-06-02	05:30:49	05:40:07	552073	5a6f1ccade1f390001dbd8b7	3	1	practice_z	9	advance_on_keypress_ZEE	10	stimuli_target_squarediamonds.svg	stimuli_distractor_diamondtriangles.svg	2	yes	57	0	502	0	0			0	0			1				0	
6.6.1	win	2023-06-02	05:30:49	05:40:11	556224	5a6f1ccade1f390001dbd8b7	3	1	practice_z	9	practice_z	11	stimuli_distractor_trianglediamonds.svg	stimuli_distractor_trianglediamonds.svg	15	no	0	1	2000	0	0			0	0			1				0	
6.6.1	win	2023-06-02	05:30:49	05:40:11	556224	5a6f1ccade1f390001dbd8b7	3	1	practice_z	9	advance_on_keypress_ZEE	12	stimuli_distractor_trianglediamonds.svg	stimuli_distractor_trianglediamonds.svg	15	no	57	0	680	0	0			0	0			1				0	
6.6.1	win	2023-06-02	05:30:49	05:40:14	559265	5a6f1ccade1f390001dbd8b7	3	1	practice_z	9	practice_z	13	stimuli_target_rectanglediamonds.svg	stimuli_distractor_diamondtriangles.svg	1	yes	44	1	708	0	0			0	0			1				0	
6.6.1	win	2023-06-02	05:30:49	05:40:14	559265	5a6f1ccade1f390001dbd8b7	3	1	practice_z	9	advance_on_keypress_ZEE	14	stimuli_target_rectanglediamonds.svg	stimuli_distractor_diamondtriangles.svg	1	yes	57	0	559	0	0			0	0			1				0	
6.6.1	win	2023-06-02	05:30:49	05:40:18	563458	5a6f1ccade1f390001dbd8b7	3	1	practice_z	9	practice_z	15	stimuli_distractor_diamondtriangles.svg	stimuli_distractor_diamondtriangles.svg	13	no	0	1	2000	0	0			0	0			1				0	
6.6.1	win	2023-06-02	05:30:49	05:40:18	563458	5a6f1ccade1f390001dbd8b7	3	1	practice_z	9	advance_on_keypress_ZEE	16	stimuli_distractor_diamondtriangles.svg	stimuli_distractor_diamondtriangles.svg	13	no	57	0	543	0	0			0	0			1				0	
6.6.1	win	2023-06-02	05:30:49	05:40:22	566473	5a6f1ccade1f390001dbd8b7	3	1	practice_z	9	practice_z	17	stimuli_target_rectanglediamonds.svg	stimuli_distractor_trianglediamonds.svg	4	yes	44	1	832	0	0			0	0			1				0	
6.6.1	win	2023-06-02	05:30:49	05:40:22	566473	5a6f1ccade1f390001dbd8b7	3	1	practice_z	9	advance_on_keypress_ZEE	18	stimuli_target_rectanglediamonds.svg	stimuli_distractor_trianglediamonds.svg	4	yes	57	0	566	0	0			0	0			1				0	
6.6.1	win	2023-06-02	05:30:49	05:40:25	569649	5a6f1ccade1f390001dbd8b7	3	1	practice_z	9	practice_z	19	stimuli_target_diamondsquares.svg	stimuli_distractor_trianglediamonds.svg	6	yes	44	1	958	0	0			0	0			1				0	
6.6.1	win	2023-06-02	05:30:49	05:40:25	569649	5a6f1ccade1f390001dbd8b7	3	1	practice_z	9	advance_on_keypress_ZEE	20	stimuli_target_diamondsquares.svg	stimuli_distractor_trianglediamonds.svg	6	yes	57	0	487	0	0			0	0			1				0	
6.6.1	win	2023-06-02	05:30:49	05:40:28	572697	5a6f1ccade1f390001dbd8b7	3	1	practice_z	9	practice_z	21	stimuli_distractor_diamondtriangles.svg	stimuli_target_trianglerectangles.svg	9	yes	44	1	906	0	0			0	0			1				0	
6.6.1	win	2023-06-02	05:30:49	05:40:28	572697	5a6f1ccade1f390001dbd8b7	3	1	practice_z	9	advance_on_keypress_ZEE	22	stimuli_distractor_diamondtriangles.svg	stimuli_target_trianglerectangles.svg	9	yes	57	0	486	0	0			0	0			1				0	
6.6.1	win	2023-06-02	05:30:49	05:40:32	576824	5a6f1ccade1f390001dbd8b7	3	1	practice_z	9	practice_z	23	stimuli_distractor_diamondtriangles.svg	stimuli_distractor_trianglediamonds.svg	14	no	0	1	2000	0	0			0	0			1				0	
6.6.1	win	2023-06-02	05:30:49	05:40:32	576824	5a6f1ccade1f390001dbd8b7	3	1	practice_z	9	advance_on_keypress_ZEE	24	stimuli_distractor_diamondtriangles.svg	stimuli_distractor_trianglediamonds.svg	14	no	57	0	456	0	0			0	0			1				0	
6.6.1	win	2023-06-02	05:30:49	05:40:35	579553	5a6f1ccade1f390001dbd8b7	3	1	practice_z	9	practice_z	25	stimuli_distractor_trianglediamonds.svg	stimuli_target_rectanglediamonds.svg	10	yes	44	1	629	0	0			0	0			1				0	
6.6.1	win	2023-06-02	05:30:49	05:40:35	579553	5a6f1ccade1f390001dbd8b7	3	1	practice_z	9	advance_on_keypress_ZEE	26	stimuli_distractor_trianglediamonds.svg	stimuli_target_rectanglediamonds.svg	10	yes	57	0	451	0	0			0	0			1				0	
6.6.1	win	2023-06-02	05:30:49	05:40:39	583658	5a6f1ccade1f390001dbd8b7	3	1	practice_z	9	practice_z	27	stimuli_distractor_diamondtriangles.svg	stimuli_target_diamondrectangles.svg	8	yes	0	0	2000	0	0			0	0			1				0	
6.6.1	win	2023-06-02	05:30:49	05:40:39	583658	5a6f1ccade1f390001dbd8b7	3	1	practice_z	9	advance_on_keypress_ZEE	28	stimuli_distractor_diamondtriangles.svg	stimuli_target_diamondrectangles.svg	8	yes	57	0	526	0	0			0	0			1				0	
6.6.1	win	2023-06-02	05:30:49	05:40:42	586721	5a6f1ccade1f390001dbd8b7	3	1	practice_z	9	practice_z	29	stimuli_target_diamondsquares.svg	stimuli_distractor_diamondtriangles.svg	3	yes	44	1	880	0	0			0	0			1				0	
6.6.1	win	2023-06-02	05:30:49	05:40:42	586721	5a6f1ccade1f390001dbd8b7	3	1	practice_z	9	advance_on_keypress_ZEE	30	stimuli_target_diamondsquares.svg	stimuli_distractor_diamondtriangles.svg	3	yes	57	0	468	0	0			0	0			1				0	
6.6.1	win	2023-06-02	05:30:49	05:40:44	589362	5a6f1ccade1f390001dbd8b7	3	1	practice_z	9	practice_z	31	stimuli_distractor_trianglediamonds.svg	stimuli_target_squarediamonds.svg	11	yes	44	1	520	0	0			0	0			1				0	
6.6.1	win	2023-06-02	05:30:49	05:40:44	589362	5a6f1ccade1f390001dbd8b7	3	1	practice_z	9	advance_on_keypress_ZEE	32	stimuli_distractor_trianglediamonds.svg	stimuli_target_squarediamonds.svg	11	yes	57	0	523	0	0			0	0			1				0	
6.6.1	win	2023-06-02	05:30:49	05:40:50	594726	5a6f1ccade1f390001dbd8b7	3	1	main_z	11	main_z	1	stimuli_target_rectanglediamonds.svg	stimuli_distractor_trianglediamonds.svg	2	yes	44	1	705	0	0			0	0			1				0	
6.6.1	win	2023-06-02	05:30:49	05:40:50	594726	5a6f1ccade1f390001dbd8b7	3	1	main_z	11	advance_on_keypress_ZEE	2	stimuli_target_rectanglediamonds.svg	stimuli_distractor_trianglediamonds.svg	2	yes	57	0	540	0	0			0	0			1				0	
6.6.1	win	2023-06-02	05:30:49	05:40:52	596710	5a6f1ccade1f390001dbd8b7	3	1	main_z	11	main_z	3	stimuli_target_squarediamonds.svg	stimuli_distractor_trianglediamonds.svg	4	yes	44	1	806	0	0			0	0			1				0	
6.6.1	win	2023-06-02	05:30:49	05:40:52	596710	5a6f1ccade1f390001dbd8b7	3	1	main_z	11	advance_on_keypress_ZEE	4	stimuli_target_squarediamonds.svg	stimuli_distractor_trianglediamonds.svg	4	yes	57	0	381	0	0			0	0			1				0	
6.6.1	win	2023-06-02	05:30:49	05:40:55	599738	5a6f1ccade1f390001dbd8b7	3	1	main_z	11	main_z	5	stimuli_target_diamondrectangles.svg	stimuli_distractor_diamondtriangles.svg	23	yes	0	0	2000	0	0			0	0			1				0	
6.6.1	win	2023-06-02	05:30:49	05:40:55	599738	5a6f1ccade1f390001dbd8b7	3	1	main_z	11	advance_on_keypress_ZEE	6	stimuli_target_diamondrectangles.svg	stimuli_distractor_diamondtriangles.svg	23	yes	57	0	596	0	0			0	0			1				0	
6.6.1	win	2023-06-02	05:30:49	05:40:58	602988	5a6f1ccade1f390001dbd8b7	3	1	main_z	11	main_z	7	stimuli_distractor_trianglediamonds.svg	stimuli_distractor_trianglediamonds.svg	33	no	0	1	2000	0	0			0	0			1				0	
6.6.1	win	2023-06-02	05:30:49	05:40:58	602988	5a6f1ccade1f390001dbd8b7	3	1	main_z	11	advance_on_keypress_ZEE	8	stimuli_distractor_trianglediamonds.svg	stimuli_distractor_trianglediamonds.svg	33	no	57	0	378	0	0			0	0			1				0	
6.6.1	win	2023-06-02	05:30:49	05:41:00	604854	5a6f1ccade1f390001dbd8b7	3	1	main_z	11	main_z	9	stimuli_target_diamondsquares.svg	stimuli_distractor_trianglediamonds.svg	20	yes	44	1	850	0	0			0	0			1				0	
6.6.1	win	2023-06-02	05:30:49	05:41:00	604854	5a6f1ccade1f390001dbd8b7	3	1	main_z	11	advance_on_keypress_ZEE	10	stimuli_target_diamondsquares.svg	stimuli_distractor_trianglediamonds.svg	20	yes	57	0	407	0	0			0	0			1				0	
6.6.1	win	2023-06-02	05:30:49	05:41:03	607904	5a6f1ccade1f390001dbd8b7	3	1	main_z	11	main_z	11	stimuli_distractor_trianglediamonds.svg	stimuli_distractor_trianglediamonds.svg	34	no	0	1	2000	0	0			0	0			1				0	
6.6.1	win	2023-06-02	05:30:49	05:41:03	607904	5a6f1ccade1f390001dbd8b7	3	1	main_z	11	advance_on_keypress_ZEE	12	stimuli_distractor_trianglediamonds.svg	stimuli_distractor_trianglediamonds.svg	34	no	57	0	348	0	0			0	0			1				0	
6.6.1	win	2023-06-02	05:30:49	05:41:05	609710	5a6f1ccade1f390001dbd8b7	3	1	main_z	11	main_z	13	stimuli_distractor_diamondtriangles.svg	stimuli_target_trianglesquares.svg	30	yes	44	1	806	0	0			0	0			1				0	
6.6.1	win	2023-06-02	05:30:49	05:41:05	609710	5a6f1ccade1f390001dbd8b7	3	1	main_z	11	advance_on_keypress_ZEE	14	stimuli_distractor_diamondtriangles.svg	stimuli_target_trianglesquares.svg	30	yes	57	0	397	0	0			0	0			1				0	
6.6.1	win	2023-06-02	05:30:49	05:41:07	611638	5a6f1ccade1f390001dbd8b7	3	1	main_z	11	main_z	15	stimuli_distractor_diamondtriangles.svg	stimuli_target_trianglerectangles.svg	29	yes	44	1	884	0	0			0	0			1				0	
6.6.1	win	2023-06-02	05:30:49	05:41:07	611638	5a6f1ccade1f390001dbd8b7	3	1	main_z	11	advance_on_keypress_ZEE	16	stimuli_distractor_diamondtriangles.svg	stimuli_target_trianglerectangles.svg	29	yes	57	0	247	0	0			0	0			1				0	
6.6.1	win	2023-06-02	05:30:49	05:41:08	613078	5a6f1ccade1f390001dbd8b7	3	1	main_z	11	main_z	17	stimuli_distractor_trianglediamonds.svg	stimuli_target_rectangletriangles.svg	9	yes	44	1	540	0	0			0	0			1				0	
6.6.1	win	2023-06-02	05:30:49	05:41:08	613078	5a6f1ccade1f390001dbd8b7	3	1	main_z	11	advance_on_keypress_ZEE	18	stimuli_distractor_trianglediamonds.svg	stimuli_target_rectangletriangles.svg	9	yes	57	0	366	0	0			0	0			1				0	
6.6.1	win	2023-06-02	05:30:49	05:41:10	614550	5a6f1ccade1f390001dbd8b7	3	1	main_z	11	main_z	19	stimuli_distractor_diamondtriangles.svg	stimuli_target_rectangletriangles.svg	13	yes	44	1	462	0	0			0	0			1				0	
6.6.1	win	2023-06-02	05:30:49	05:41:10	614550	5a6f1ccade1f390001dbd8b7	3	1	main_z	11	advance_on_keypress_ZEE	20	stimuli_distractor_diamondtriangles.svg	stimuli_target_rectangletriangles.svg	13	yes	57	0	363	0	0			0	0			1				0	
6.6.1	win	2023-06-02	05:30:49	05:41:11	616262	5a6f1ccade1f390001dbd8b7	3	1	main_z	11	main_z	21	stimuli_distractor_trianglediamonds.svg	stimuli_target_squaretriangles.svg	11	yes	44	1	691	0	0			0	0			1				0	
6.6.1	win	2023-06-02	05:30:49	05:41:11	616262	5a6f1ccade1f390001dbd8b7	3	1	main_z	11	advance_on_keypress_ZEE	22	stimuli_distractor_trianglediamonds.svg	stimuli_target_squaretriangles.svg	11	yes	57	0	319	0	0			0	0			1				0	
6.6.1	win	2023-06-02	05:30:49	05:41:13	617750	5a6f1ccade1f390001dbd8b7	3	1	main_z	11	main_z	23	stimuli_target_squaretriangles.svg	stimuli_distractor_trianglediamonds.svg	3	yes	44	1	529	0	0			0	0			1				0	
6.6.1	win	2023-06-02	05:30:49	05:41:13	617750	5a6f1ccade1f390001dbd8b7	3	1	main_z	11	advance_on_keypress_ZEE	24	stimuli_target_squaretriangles.svg	stimuli_distractor_trianglediamonds.svg	3	yes	57	0	378	0	0			0	0			1				0	
6.6.1	win	2023-06-02	05:30:49	05:41:16	620788	5a6f1ccade1f390001dbd8b7	3	1	main_z	11	main_z	25	stimuli_distractor_trianglediamonds.svg	stimuli_target_trianglerectangles.svg	25	yes	0	0	2000	0	0			0	0			1				0	
6.6.1	win	2023-06-02	05:30:49	05:41:16	620788	5a6f1ccade1f390001dbd8b7	3	1	main_z	11	advance_on_keypress_ZEE	26	stimuli_distractor_trianglediamonds.svg	stimuli_target_trianglerectangles.svg	25	yes	57	0	498	0	0			0	0			1				0	
6.6.1	win	2023-06-02	05:30:49	05:41:19	623938	5a6f1ccade1f390001dbd8b7	3	1	main_z	11	main_z	27	stimuli_distractor_trianglediamonds.svg	stimuli_distractor_diamondtriangles.svg	36	no	0	1	2000	0	0			0	0			1				0	
6.6.1	win	2023-06-02	05:30:49	05:41:19	623938	5a6f1ccade1f390001dbd8b7	3	1	main_z	11	advance_on_keypress_ZEE	28	stimuli_distractor_trianglediamonds.svg	stimuli_distractor_diamondtriangles.svg	36	no	57	0	475	0	0			0	0			1				0	
6.6.1	win	2023-06-02	05:30:49	05:41:21	625886	5a6f1ccade1f390001dbd8b7	3	1	main_z	11	main_z	29	stimuli_distractor_diamondtriangles.svg	stimuli_distractor_diamondtriangles.svg	39	no	44	0	831	0	0			0	0			1				0	
6.6.1	win	2023-06-02	05:30:49	05:41:21	625886	5a6f1ccade1f390001dbd8b7	3	1	main_z	11	advance_on_keypress_ZEE	30	stimuli_distractor_diamondtriangles.svg	stimuli_distractor_diamondtriangles.svg	39	no	57	0	285	0	0			0	0			1				0	
6.6.1	win	2023-06-02	05:30:49	05:41:24	628821	5a6f1ccade1f390001dbd8b7	3	1	main_z	11	main_z	31	stimuli_distractor_diamondtriangles.svg	stimuli_distractor_diamondtriangles.svg	40	no	0	1	2000	0	0			0	0			1				0	
6.6.1	win	2023-06-02	05:30:49	05:41:24	628821	5a6f1ccade1f390001dbd8b7	3	1	main_z	11	advance_on_keypress_ZEE	32	stimuli_distractor_diamondtriangles.svg	stimuli_distractor_diamondtriangles.svg	40	no	57	0	407	0	0			0	0			1				0	
6.6.1	win	2023-06-02	05:30:49	05:41:26	630734	5a6f1ccade1f390001dbd8b7	3	1	main_z	11	main_z	33	stimuli_target_rectangletriangles.svg	stimuli_distractor_diamondtriangles.svg	5	yes	44	1	862	0	0			0	0			1				0	
6.6.1	win	2023-06-02	05:30:49	05:41:26	630734	5a6f1ccade1f390001dbd8b7	3	1	main_z	11	advance_on_keypress_ZEE	34	stimuli_target_rectangletriangles.svg	stimuli_distractor_diamondtriangles.svg	5	yes	57	0	260	0	0			0	0			1				0	
6.6.1	win	2023-06-02	05:30:49	05:41:28	632478	5a6f1ccade1f390001dbd8b7	3	1	main_z	11	main_z	35	stimuli_target_rectanglediamonds.svg	stimuli_distractor_diamondtriangles.svg	6	yes	44	1	840	0	0			0	0			1				0	
6.6.1	win	2023-06-02	05:30:49	05:41:28	632478	5a6f1ccade1f390001dbd8b7	3	1	main_z	11	advance_on_keypress_ZEE	36	stimuli_target_rectanglediamonds.svg	stimuli_distractor_diamondtriangles.svg	6	yes	57	0	390	0	0			0	0			1				0	
6.6.1	win	2023-06-02	05:30:49	05:41:29	634414	5a6f1ccade1f390001dbd8b7	3	1	main_z	11	main_z	37	stimuli_distractor_trianglediamonds.svg	stimuli_target_diamondrectangles.svg	27	yes	44	1	909	0	0			0	0			1				0	
6.6.1	win	2023-06-02	05:30:49	05:41:29	634414	5a6f1ccade1f390001dbd8b7	3	1	main_z	11	advance_on_keypress_ZEE	38	stimuli_distractor_trianglediamonds.svg	stimuli_target_diamondrectangles.svg	27	yes	57	0	416	0	0			0	0			1				0	
6.6.1	win	2023-06-02	05:30:49	05:41:31	636342	5a6f1ccade1f390001dbd8b7	3	1	main_z	11	main_z	39	stimuli_target_diamondrectangles.svg	stimuli_distractor_trianglediamonds.svg	19	yes	44	1	870	0	0			0	0			1				0	
6.6.1	win	2023-06-02	05:30:49	05:41:31	636342	5a6f1ccade1f390001dbd8b7	3	1	main_z	11	advance_on_keypress_ZEE	40	stimuli_target_diamondrectangles.svg	stimuli_distractor_trianglediamonds.svg	19	yes	57	0	299	0	0			0	0			1				0	
6.6.1	win	2023-06-02	05:30:49	05:41:33	638118	5a6f1ccade1f390001dbd8b7	3	1	main_z	11	main_z	41	stimuli_target_rectangletriangles.svg	stimuli_distractor_trianglediamonds.svg	1	yes	44	1	829	0	0			0	0			1				0	
6.6.1	win	2023-06-02	05:30:49	05:41:33	638118	5a6f1ccade1f390001dbd8b7	3	1	main_z	11	advance_on_keypress_ZEE	42	stimuli_target_rectangletriangles.svg	stimuli_distractor_trianglediamonds.svg	1	yes	57	0	251	0	0			0	0			1				0	
6.6.1	win	2023-06-02	05:30:49	05:41:36	641021	5a6f1ccade1f390001dbd8b7	3	1	main_z	11	main_z	43	stimuli_distractor_trianglediamonds.svg	stimuli_distractor_diamondtriangles.svg	35	no	0	1	2000	0	0			0	0			1				0	
6.6.1	win	2023-06-02	05:30:49	05:41:36	641021	5a6f1ccade1f390001dbd8b7	3	1	main_z	11	advance_on_keypress_ZEE	44	stimuli_distractor_trianglediamonds.svg	stimuli_distractor_diamondtriangles.svg	35	no	57	0	471	0	0			0	0			1				0	
6.6.1	win	2023-06-02	05:30:49	05:41:38	642710	5a6f1ccade1f390001dbd8b7	3	1	main_z	11	main_z	45	stimuli_distractor_trianglediamonds.svg	stimuli_target_trianglesquares.svg	26	yes	44	1	571	0	0			0	0			1				0	
6.6.1	win	2023-06-02	05:30:49	05:41:38	642710	5a6f1ccade1f390001dbd8b7	3	1	main_z	11	advance_on_keypress_ZEE	46	stimuli_distractor_trianglediamonds.svg	stimuli_target_trianglesquares.svg	26	yes	57	0	324	0	0			0	0			1				0	
6.6.1	win	2023-06-02	05:30:49	05:41:39	644406	5a6f1ccade1f390001dbd8b7	3	1	main_z	11	main_z	47	stimuli_target_trianglerectangles.svg	stimuli_distractor_trianglediamonds.svg	17	yes	44	1	734	0	0			0	0			1				0	
6.6.1	win	2023-06-02	05:30:49	05:41:39	644406	5a6f1ccade1f390001dbd8b7	3	1	main_z	11	advance_on_keypress_ZEE	48	stimuli_target_trianglerectangles.svg	stimuli_distractor_trianglediamonds.svg	17	yes	57	0	256	0	0			0	0			1				0	
6.6.1	win	2023-06-02	05:30:49	05:41:41	646038	5a6f1ccade1f390001dbd8b7	3	1	main_z	11	main_z	49	stimuli_target_trianglesquares.svg	stimuli_distractor_trianglediamonds.svg	18	yes	44	1	733	0	0			0	0			1				0	
6.6.1	win	2023-06-02	05:30:49	05:41:41	646038	5a6f1ccade1f390001dbd8b7	3	1	main_z	11	advance_on_keypress_ZEE	50	stimuli_target_trianglesquares.svg	stimuli_distractor_trianglediamonds.svg	18	yes	57	0	327	0	0			0	0			1				0	
6.6.1	win	2023-06-02	05:30:49	05:41:43	647774	5a6f1ccade1f390001dbd8b7	3	1	main_z	11	main_z	51	stimuli_distractor_trianglediamonds.svg	stimuli_target_squarediamonds.svg	12	yes	44	1	769	0	0			0	0			1				0	
6.6.1	win	2023-06-02	05:30:49	05:41:43	647774	5a6f1ccade1f390001dbd8b7	3	1	main_z	11	advance_on_keypress_ZEE	52	stimuli_distractor_trianglediamonds.svg	stimuli_target_squarediamonds.svg	12	yes	57	0	329	0	0			0	0			1				0	
6.6.1	win	2023-06-02	05:30:49	05:41:44	649470	5a6f1ccade1f390001dbd8b7	3	1	main_z	11	main_z	53	stimuli_distractor_trianglediamonds.svg	stimuli_target_rectanglediamonds.svg	10	yes	44	1	715	0	0			0	0			1				0	
6.6.1	win	2023-06-02	05:30:49	05:41:44	649470	5a6f1ccade1f390001dbd8b7	3	1	main_z	11	advance_on_keypress_ZEE	54	stimuli_distractor_trianglediamonds.svg	stimuli_target_rectanglediamonds.svg	10	yes	57	0	229	0	0			0	0			1				0	
6.6.1	win	2023-06-02	05:30:49	05:41:47	652355	5a6f1ccade1f390001dbd8b7	3	1	main_z	11	main_z	55	stimuli_distractor_diamondtriangles.svg	stimuli_target_diamondrectangles.svg	31	yes	0	0	2000	0	0			0	0			1				0	
6.6.1	win	2023-06-02	05:30:49	05:41:47	652355	5a6f1ccade1f390001dbd8b7	3	1	main_z	11	advance_on_keypress_ZEE	56	stimuli_distractor_diamondtriangles.svg	stimuli_target_diamondrectangles.svg	31	yes	57	0	522	0	0			0	0			1				0	
6.6.1	win	2023-06-02	05:30:49	05:41:49	654230	5a6f1ccade1f390001dbd8b7	3	1	main_z	11	main_z	57	stimuli_distractor_diamondtriangles.svg	stimuli_target_diamondsquares.svg	32	yes	44	1	708	0	0			0	0			1				0	
6.6.1	win	2023-06-02	05:30:49	05:41:49	654230	5a6f1ccade1f390001dbd8b7	3	1	main_z	11	advance_on_keypress_ZEE	58	stimuli_distractor_diamondtriangles.svg	stimuli_target_diamondsquares.svg	32	yes	57	0	319	0	0			0	0			1				0	
6.6.1	win	2023-06-02	05:30:49	05:41:51	656054	5a6f1ccade1f390001dbd8b7	3	1	main_z	11	main_z	59	stimuli_distractor_trianglediamonds.svg	stimuli_target_diamondsquares.svg	28	yes	44	1	865	0	0			0	0			1				0	
6.6.1	win	2023-06-02	05:30:49	05:41:51	656054	5a6f1ccade1f390001dbd8b7	3	1	main_z	11	advance_on_keypress_ZEE	60	stimuli_distractor_trianglediamonds.svg	stimuli_target_diamondsquares.svg	28	yes	57	0	270	0	0			0	0			1				0	
6.6.1	win	2023-06-02	05:30:49	05:41:53	657806	5a6f1ccade1f390001dbd8b7	3	1	main_z	11	main_z	61	stimuli_target_trianglerectangles.svg	stimuli_distractor_diamondtriangles.svg	21	yes	44	1	834	0	0			0	0			1				0	
6.6.1	win	2023-06-02	05:30:49	05:41:53	657806	5a6f1ccade1f390001dbd8b7	3	1	main_z	11	advance_on_keypress_ZEE	62	stimuli_target_trianglerectangles.svg	stimuli_distractor_diamondtriangles.svg	21	yes	57	0	464	0	0			0	0			1				0	
6.6.1	win	2023-06-02	05:30:49	05:41:55	659902	5a6f1ccade1f390001dbd8b7	3	1	main_z	11	main_z	63	stimuli_target_squarediamonds.svg	stimuli_distractor_diamondtriangles.svg	8	yes	44	1	980	0	0			0	0			1				0	
6.6.1	win	2023-06-02	05:30:49	05:41:55	659902	5a6f1ccade1f390001dbd8b7	3	1	main_z	11	advance_on_keypress_ZEE	64	stimuli_target_squarediamonds.svg	stimuli_distractor_diamondtriangles.svg	8	yes	57	0	428	0	0			0	0			1				0	
6.6.1	win	2023-06-02	05:30:49	05:41:58	662988	5a6f1ccade1f390001dbd8b7	3	1	main_z	11	main_z	65	stimuli_distractor_diamondtriangles.svg	stimuli_distractor_trianglediamonds.svg	38	no	0	1	2000	0	0			0	0			1				0	
6.6.1	win	2023-06-02	05:30:49	05:41:58	662988	5a6f1ccade1f390001dbd8b7	3	1	main_z	11	advance_on_keypress_ZEE	66	stimuli_distractor_diamondtriangles.svg	stimuli_distractor_trianglediamonds.svg	38	no	57	0	401	0	0			0	0			1				0	
6.6.1	win	2023-06-02	05:30:49	05:42:00	664822	5a6f1ccade1f390001dbd8b7	3	1	main_z	11	main_z	67	stimuli_target_trianglesquares.svg	stimuli_distractor_diamondtriangles.svg	22	yes	44	1	783	0	0			0	0			1				0	
6.6.1	win	2023-06-02	05:30:49	05:42:00	664822	5a6f1ccade1f390001dbd8b7	3	1	main_z	11	advance_on_keypress_ZEE	68	stimuli_target_trianglesquares.svg	stimuli_distractor_diamondtriangles.svg	22	yes	57	0	296	0	0			0	0			1				0	
6.6.1	win	2023-06-02	05:30:49	05:42:02	666582	5a6f1ccade1f390001dbd8b7	3	1	main_z	11	main_z	69	stimuli_target_squaretriangles.svg	stimuli_distractor_diamondtriangles.svg	7	yes	44	1	810	0	0			0	0			1				0	
6.6.1	win	2023-06-02	05:30:49	05:42:02	666582	5a6f1ccade1f390001dbd8b7	3	1	main_z	11	advance_on_keypress_ZEE	70	stimuli_target_squaretriangles.svg	stimuli_distractor_diamondtriangles.svg	7	yes	57	0	441	0	0			0	0			1				0	
6.6.1	win	2023-06-02	05:30:49	05:42:03	668462	5a6f1ccade1f390001dbd8b7	3	1	main_z	11	main_z	71	stimuli_target_diamondsquares.svg	stimuli_distractor_diamondtriangles.svg	24	yes	44	1	807	0	0			0	0			1				0	
6.6.1	win	2023-06-02	05:30:49	05:42:03	668462	5a6f1ccade1f390001dbd8b7	3	1	main_z	11	advance_on_keypress_ZEE	72	stimuli_target_diamondsquares.svg	stimuli_distractor_diamondtriangles.svg	24	yes	57	0	358	0	0			0	0			1				0	
6.6.1	win	2023-06-02	05:30:49	05:42:05	670222	5a6f1ccade1f390001dbd8b7	3	1	main_z	11	main_z	73	stimuli_distractor_diamondtriangles.svg	stimuli_target_rectanglediamonds.svg	14	yes	44	1	767	0	0			0	0			1				0	
6.6.1	win	2023-06-02	05:30:49	05:42:05	670222	5a6f1ccade1f390001dbd8b7	3	1	main_z	11	advance_on_keypress_ZEE	74	stimuli_distractor_diamondtriangles.svg	stimuli_target_rectanglediamonds.svg	14	yes	57	0	264	0	0			0	0			1				0	
6.6.1	win	2023-06-02	05:30:49	05:42:07	672358	5a6f1ccade1f390001dbd8b7	3	1	main_z	11	main_z	75	stimuli_distractor_diamondtriangles.svg	stimuli_distractor_trianglediamonds.svg	37	no	44	0	1220	0	0			0	0			1				0	
6.6.1	win	2023-06-02	05:30:49	05:42:07	672358	5a6f1ccade1f390001dbd8b7	3	1	main_z	11	advance_on_keypress_ZEE	76	stimuli_distractor_diamondtriangles.svg	stimuli_distractor_trianglediamonds.svg	37	no	57	0	362	0	0			0	0			1				0	
6.6.1	win	2023-06-02	05:30:49	05:42:09	674134	5a6f1ccade1f390001dbd8b7	3	1	main_z	11	main_z	77	stimuli_distractor_diamondtriangles.svg	stimuli_target_squaretriangles.svg	15	yes	44	1	762	0	0			0	0			1				0	
6.6.1	win	2023-06-02	05:30:49	05:42:09	674134	5a6f1ccade1f390001dbd8b7	3	1	main_z	11	advance_on_keypress_ZEE	78	stimuli_distractor_diamondtriangles.svg	stimuli_target_squaretriangles.svg	15	yes	57	0	243	0	0			0	0			1				0	
6.6.1	win	2023-06-02	05:30:49	05:42:11	675518	5a6f1ccade1f390001dbd8b7	3	1	main_z	11	main_z	79	stimuli_distractor_diamondtriangles.svg	stimuli_target_squarediamonds.svg	16	yes	44	1	496	0	0			0	0			1				0	
6.6.1	win	2023-06-02	05:30:49	05:42:11	675518	5a6f1ccade1f390001dbd8b7	3	1	main_z	11	advance_on_keypress_ZEE	80	stimuli_distractor_diamondtriangles.svg	stimuli_target_squarediamonds.svg	16	yes	57	0	363	0	0			0	0			1				0	
6.6.1	win	2023-06-02	05:30:49	05:42:13	677606	5a6f1ccade1f390001dbd8b7	3	1	main_z	11	main_z	81	stimuli_distractor_diamondtriangles.svg	stimuli_target_diamondsquares.svg	32	yes	44	1	1068	0	0			0	0			1				0	
6.6.1	win	2023-06-02	05:30:49	05:42:13	677606	5a6f1ccade1f390001dbd8b7	3	1	main_z	11	advance_on_keypress_ZEE	82	stimuli_distractor_diamondtriangles.svg	stimuli_target_diamondsquares.svg	32	yes	57	0	544	0	0			0	0			1				0	
6.6.1	win	2023-06-02	05:30:49	05:42:15	679670	5a6f1ccade1f390001dbd8b7	3	1	main_z	11	main_z	83	stimuli_distractor_trianglediamonds.svg	stimuli_target_rectangletriangles.svg	9	yes	44	1	865	0	0			0	0			1				0	
6.6.1	win	2023-06-02	05:30:49	05:42:15	679670	5a6f1ccade1f390001dbd8b7	3	1	main_z	11	advance_on_keypress_ZEE	84	stimuli_distractor_trianglediamonds.svg	stimuli_target_rectangletriangles.svg	9	yes	57	0	293	0	0			0	0			1				0	
6.6.1	win	2023-06-02	05:30:49	05:42:16	681350	5a6f1ccade1f390001dbd8b7	3	1	main_z	11	main_z	85	stimuli_target_rectangletriangles.svg	stimuli_distractor_diamondtriangles.svg	5	yes	44	1	745	0	0			0	0			1				0	
6.6.1	win	2023-06-02	05:30:49	05:42:16	681350	5a6f1ccade1f390001dbd8b7	3	1	main_z	11	advance_on_keypress_ZEE	86	stimuli_target_rectangletriangles.svg	stimuli_distractor_diamondtriangles.svg	5	yes	57	0	266	0	0			0	0			1				0	
6.6.1	win	2023-06-02	05:30:49	05:42:18	683214	5a6f1ccade1f390001dbd8b7	3	1	main_z	11	main_z	87	stimuli_target_diamondrectangles.svg	stimuli_distractor_diamondtriangles.svg	23	yes	44	1	942	0	0			0	0			1				0	
6.6.1	win	2023-06-02	05:30:49	05:42:18	683214	5a6f1ccade1f390001dbd8b7	3	1	main_z	11	advance_on_keypress_ZEE	88	stimuli_target_diamondrectangles.svg	stimuli_distractor_diamondtriangles.svg	23	yes	57	0	240	0	0			0	0			1				0	
6.6.1	win	2023-06-02	05:30:49	05:42:21	686088	5a6f1ccade1f390001dbd8b7	3	1	main_z	11	main_z	89	stimuli_distractor_trianglediamonds.svg	stimuli_distractor_diamondtriangles.svg	36	no	0	1	2000	0	0			0	0			1				0	
6.6.1	win	2023-06-02	05:30:49	05:42:21	686088	5a6f1ccade1f390001dbd8b7	3	1	main_z	11	advance_on_keypress_ZEE	90	stimuli_distractor_trianglediamonds.svg	stimuli_distractor_diamondtriangles.svg	36	no	57	0	789	0	0			0	0			1				0	
6.6.1	win	2023-06-02	05:30:49	05:42:23	688222	5a6f1ccade1f390001dbd8b7	3	1	main_z	11	main_z	91	stimuli_distractor_diamondtriangles.svg	stimuli_target_rectanglediamonds.svg	14	yes	44	1	700	0	0			0	0			1				0	
6.6.1	win	2023-06-02	05:30:49	05:42:23	688222	5a6f1ccade1f390001dbd8b7	3	1	main_z	11	advance_on_keypress_ZEE	92	stimuli_distractor_diamondtriangles.svg	stimuli_target_rectanglediamonds.svg	14	yes	57	0	288	0	0			0	0			1				0	
6.6.1	win	2023-06-02	05:30:49	05:42:25	689862	5a6f1ccade1f390001dbd8b7	3	1	main_z	11	main_z	93	stimuli_target_diamondsquares.svg	stimuli_distractor_diamondtriangles.svg	24	yes	44	1	707	0	0			0	0			1				0	
6.6.1	win	2023-06-02	05:30:49	05:42:25	689862	5a6f1ccade1f390001dbd8b7	3	1	main_z	11	advance_on_keypress_ZEE	94	stimuli_target_diamondsquares.svg	stimuli_distractor_diamondtriangles.svg	24	yes	57	0	294	0	0			0	0			1				0	
6.6.1	win	2023-06-02	05:30:49	05:42:26	691294	5a6f1ccade1f390001dbd8b7	3	1	main_z	11	main_z	95	stimuli_distractor_trianglediamonds.svg	stimuli_target_squaretriangles.svg	11	yes	44	1	489	0	0			0	0			1				0	
6.6.1	win	2023-06-02	05:30:49	05:42:26	691294	5a6f1ccade1f390001dbd8b7	3	1	main_z	11	advance_on_keypress_ZEE	96	stimuli_distractor_trianglediamonds.svg	stimuli_target_squaretriangles.svg	11	yes	57	0	397	0	0			0	0			1				0	
6.6.1	win	2023-06-02	05:30:49	05:42:28	693278	5a6f1ccade1f390001dbd8b7	3	1	main_z	11	main_z	97	stimuli_distractor_diamondtriangles.svg	stimuli_target_trianglerectangles.svg	29	yes	44	1	940	0	0			0	0			1				0	
6.6.1	win	2023-06-02	05:30:49	05:42:28	693278	5a6f1ccade1f390001dbd8b7	3	1	main_z	11	advance_on_keypress_ZEE	98	stimuli_distractor_diamondtriangles.svg	stimuli_target_trianglerectangles.svg	29	yes	57	0	173	0	0			0	0			1				0	
6.6.1	win	2023-06-02	05:30:49	05:42:30	694790	5a6f1ccade1f390001dbd8b7	3	1	main_z	11	main_z	99	stimuli_distractor_diamondtriangles.svg	stimuli_distractor_trianglediamonds.svg	38	no	44	0	702	0	0			0	0			1				0	
6.6.1	win	2023-06-02	05:30:49	05:42:30	694790	5a6f1ccade1f390001dbd8b7	3	1	main_z	11	advance_on_keypress_ZEE	100	stimuli_distractor_diamondtriangles.svg	stimuli_distractor_trianglediamonds.svg	38	no	57	0	265	0	0			0	0			1				0	
6.6.1	win	2023-06-02	05:30:49	05:42:32	696965	5a6f1ccade1f390001dbd8b7	3	1	main_z	11	main_z	101	stimuli_target_diamondsquares.svg	stimuli_distractor_trianglediamonds.svg	20	yes	44	1	1261	0	0			0	0			1				0	
6.6.1	win	2023-06-02	05:30:49	05:42:32	696965	5a6f1ccade1f390001dbd8b7	3	1	main_z	11	advance_on_keypress_ZEE	102	stimuli_target_diamondsquares.svg	stimuli_distractor_trianglediamonds.svg	20	yes	57	0	274	0	0			0	0			1				0	
6.6.1	win	2023-06-02	05:30:49	05:42:34	698798	5a6f1ccade1f390001dbd8b7	3	1	main_z	11	main_z	103	stimuli_distractor_diamondtriangles.svg	stimuli_target_diamondrectangles.svg	31	yes	44	1	910	0	0			0	0			1				0	
6.6.1	win	2023-06-02	05:30:49	05:42:34	698798	5a6f1ccade1f390001dbd8b7	3	1	main_z	11	advance_on_keypress_ZEE	104	stimuli_distractor_diamondtriangles.svg	stimuli_target_diamondrectangles.svg	31	yes	57	0	249	0	0			0	0			1				0	
6.6.1	win	2023-06-02	05:30:49	05:42:36	700534	5a6f1ccade1f390001dbd8b7	3	1	main_z	11	main_z	105	stimuli_target_trianglesquares.svg	stimuli_distractor_diamondtriangles.svg	22	yes	44	1	845	0	0			0	0			1				0	
6.6.1	win	2023-06-02	05:30:49	05:42:36	700534	5a6f1ccade1f390001dbd8b7	3	1	main_z	11	advance_on_keypress_ZEE	106	stimuli_target_trianglesquares.svg	stimuli_distractor_diamondtriangles.svg	22	yes	57	0	251	0	0			0	0			1				0	
6.6.1	win	2023-06-02	05:30:49	05:42:38	703438	5a6f1ccade1f390001dbd8b7	3	1	main_z	11	main_z	107	stimuli_distractor_diamondtriangles.svg	stimuli_distractor_trianglediamonds.svg	37	no	0	1	2000	0	0			0	0			1				0	
6.6.1	win	2023-06-02	05:30:49	05:42:38	703438	5a6f1ccade1f390001dbd8b7	3	1	main_z	11	advance_on_keypress_ZEE	108	stimuli_distractor_diamondtriangles.svg	stimuli_distractor_trianglediamonds.svg	37	no	57	0	567	0	0			0	0			1				0	
6.6.1	win	2023-06-02	05:30:49	05:42:42	706654	5a6f1ccade1f390001dbd8b7	3	1	main_z	11	main_z	109	stimuli_distractor_diamondtriangles.svg	stimuli_distractor_diamondtriangles.svg	40	no	0	1	2000	0	0			0	0			1				0	
6.6.1	win	2023-06-02	05:30:49	05:42:42	706654	5a6f1ccade1f390001dbd8b7	3	1	main_z	11	advance_on_keypress_ZEE	110	stimuli_distractor_diamondtriangles.svg	stimuli_distractor_diamondtriangles.svg	40	no	57	0	478	0	0			0	0			1				0	
6.6.1	win	2023-06-02	05:30:49	05:42:44	708702	5a6f1ccade1f390001dbd8b7	3	1	main_z	11	main_z	111	stimuli_target_rectanglediamonds.svg	stimuli_distractor_diamondtriangles.svg	6	yes	44	1	913	0	0			0	0			1				0	
6.6.1	win	2023-06-02	05:30:49	05:42:44	708702	5a6f1ccade1f390001dbd8b7	3	1	main_z	11	advance_on_keypress_ZEE	112	stimuli_target_rectanglediamonds.svg	stimuli_distractor_diamondtriangles.svg	6	yes	57	0	220	0	0			0	0			1				0	
6.6.1	win	2023-06-02	05:30:49	05:42:45	709973	5a6f1ccade1f390001dbd8b7	3	1	main_z	11	main_z	113	stimuli_target_rectanglediamonds.svg	stimuli_distractor_trianglediamonds.svg	2	yes	44	1	402	0	0			0	0			1				0	
6.6.1	win	2023-06-02	05:30:49	05:42:45	709973	5a6f1ccade1f390001dbd8b7	3	1	main_z	11	advance_on_keypress_ZEE	114	stimuli_target_rectanglediamonds.svg	stimuli_distractor_trianglediamonds.svg	2	yes	57	0	393	0	0			0	0			1				0	
6.6.1	win	2023-06-02	05:30:49	05:42:47	711573	5a6f1ccade1f390001dbd8b7	3	1	main_z	11	main_z	115	stimuli_target_squaretriangles.svg	stimuli_distractor_trianglediamonds.svg	3	yes	44	1	569	0	0			0	0			1				0	
6.6.1	win	2023-06-02	05:30:49	05:42:47	711573	5a6f1ccade1f390001dbd8b7	3	1	main_z	11	advance_on_keypress_ZEE	116	stimuli_target_squaretriangles.svg	stimuli_distractor_trianglediamonds.svg	3	yes	57	0	321	0	0			0	0			1				0	
6.6.1	win	2023-06-02	05:30:49	05:42:48	713365	5a6f1ccade1f390001dbd8b7	3	1	main_z	11	main_z	117	stimuli_distractor_trianglediamonds.svg	stimuli_target_diamondsquares.svg	28	yes	44	1	828	0	0			0	0			1				0	
6.6.1	win	2023-06-02	05:30:49	05:42:48	713365	5a6f1ccade1f390001dbd8b7	3	1	main_z	11	advance_on_keypress_ZEE	118	stimuli_distractor_trianglediamonds.svg	stimuli_target_diamondsquares.svg	28	yes	57	0	322	0	0			0	0			1				0	
6.6.1	win	2023-06-02	05:30:49	05:42:50	714878	5a6f1ccade1f390001dbd8b7	3	1	main_z	11	main_z	119	stimuli_distractor_diamondtriangles.svg	stimuli_target_rectangletriangles.svg	13	yes	44	1	540	0	0			0	0			1				0	
6.6.1	win	2023-06-02	05:30:49	05:42:50	714878	5a6f1ccade1f390001dbd8b7	3	1	main_z	11	advance_on_keypress_ZEE	120	stimuli_distractor_diamondtriangles.svg	stimuli_target_rectangletriangles.svg	13	yes	57	0	374	0	0			0	0			1				0	
6.6.1	win	2023-06-02	05:30:49	05:42:52	716701	5a6f1ccade1f390001dbd8b7	3	1	main_z	11	main_z	121	stimuli_distractor_diamondtriangles.svg	stimuli_target_squarediamonds.svg	16	yes	44	1	814	0	0			0	0			1				0	
6.6.1	win	2023-06-02	05:30:49	05:42:52	716701	5a6f1ccade1f390001dbd8b7	3	1	main_z	11	advance_on_keypress_ZEE	122	stimuli_distractor_diamondtriangles.svg	stimuli_target_squarediamonds.svg	16	yes	57	0	220	0	0			0	0			1				0	
6.6.1	win	2023-06-02	05:30:49	05:42:53	718053	5a6f1ccade1f390001dbd8b7	3	1	main_z	11	main_z	123	stimuli_target_squarediamonds.svg	stimuli_distractor_diamondtriangles.svg	8	yes	44	1	482	0	0			0	0			1				0	
6.6.1	win	2023-06-02	05:30:49	05:42:53	718053	5a6f1ccade1f390001dbd8b7	3	1	main_z	11	advance_on_keypress_ZEE	124	stimuli_target_squarediamonds.svg	stimuli_distractor_diamondtriangles.svg	8	yes	57	0	606	0	0			0	0			1				0	
6.6.1	win	2023-06-02	05:30:49	05:42:55	719782	5a6f1ccade1f390001dbd8b7	3	1	main_z	11	main_z	125	stimuli_target_squaretriangles.svg	stimuli_distractor_diamondtriangles.svg	7	yes	44	1	477	0	0			0	0			1				0	
6.6.1	win	2023-06-02	05:30:49	05:42:55	719782	5a6f1ccade1f390001dbd8b7	3	1	main_z	11	advance_on_keypress_ZEE	126	stimuli_target_squaretriangles.svg	stimuli_distractor_diamondtriangles.svg	7	yes	57	0	378	0	0			0	0			1				0	
6.6.1	win	2023-06-02	05:30:49	05:42:56	721429	5a6f1ccade1f390001dbd8b7	3	1	main_z	11	main_z	127	stimuli_target_trianglesquares.svg	stimuli_distractor_trianglediamonds.svg	18	yes	44	1	625	0	0			0	0			1				0	
6.6.1	win	2023-06-02	05:30:49	05:42:56	721429	5a6f1ccade1f390001dbd8b7	3	1	main_z	11	advance_on_keypress_ZEE	128	stimuli_target_trianglesquares.svg	stimuli_distractor_trianglediamonds.svg	18	yes	57	0	296	0	0			0	0			1				0	
6.6.1	win	2023-06-02	05:30:49	05:42:58	722957	5a6f1ccade1f390001dbd8b7	3	1	main_z	11	main_z	129	stimuli_distractor_diamondtriangles.svg	stimuli_target_trianglesquares.svg	30	yes	44	1	586	0	0			0	0			1				0	
6.6.1	win	2023-06-02	05:30:49	05:42:58	722957	5a6f1ccade1f390001dbd8b7	3	1	main_z	11	advance_on_keypress_ZEE	130	stimuli_distractor_diamondtriangles.svg	stimuli_target_trianglesquares.svg	30	yes	57	0	250	0	0			0	0			1				0	
6.6.1	win	2023-06-02	05:30:49	05:43:00	724741	5a6f1ccade1f390001dbd8b7	3	1	main_z	11	main_z	131	stimuli_target_rectangletriangles.svg	stimuli_distractor_trianglediamonds.svg	1	yes	44	1	887	0	0			0	0			1				0	
6.6.1	win	2023-06-02	05:30:49	05:43:00	724741	5a6f1ccade1f390001dbd8b7	3	1	main_z	11	advance_on_keypress_ZEE	132	stimuli_target_rectangletriangles.svg	stimuli_distractor_trianglediamonds.svg	1	yes	57	0	371	0	0			0	0			1				0	
6.6.1	win	2023-06-02	05:30:49	05:43:01	726270	5a6f1ccade1f390001dbd8b7	3	1	main_z	11	main_z	133	stimuli_target_squarediamonds.svg	stimuli_distractor_trianglediamonds.svg	4	yes	44	1	507	0	0			0	0			1				0	
6.6.1	win	2023-06-02	05:30:49	05:43:01	726270	5a6f1ccade1f390001dbd8b7	3	1	main_z	11	advance_on_keypress_ZEE	134	stimuli_target_squarediamonds.svg	stimuli_distractor_trianglediamonds.svg	4	yes	57	0	325	0	0			0	0			1				0	
6.6.1	win	2023-06-02	05:30:49	05:43:03	727753	5a6f1ccade1f390001dbd8b7	3	1	main_z	11	main_z	135	stimuli_distractor_diamondtriangles.svg	stimuli_target_squaretriangles.svg	15	yes	44	1	505	0	0			0	0			1				0	
6.6.1	win	2023-06-02	05:30:49	05:43:03	727753	5a6f1ccade1f390001dbd8b7	3	1	main_z	11	advance_on_keypress_ZEE	136	stimuli_distractor_diamondtriangles.svg	stimuli_target_squaretriangles.svg	15	yes	57	0	346	0	0			0	0			1				0	
6.6.1	win	2023-06-02	05:30:49	05:43:06	730754	5a6f1ccade1f390001dbd8b7	3	1	main_z	11	main_z	137	stimuli_distractor_trianglediamonds.svg	stimuli_distractor_trianglediamonds.svg	34	no	0	1	2000	0	0			0	0			1				0	
6.6.1	win	2023-06-02	05:30:49	05:43:06	730754	5a6f1ccade1f390001dbd8b7	3	1	main_z	11	advance_on_keypress_ZEE	138	stimuli_distractor_trianglediamonds.svg	stimuli_distractor_trianglediamonds.svg	34	no	57	0	578	0	0			0	0			1				0	
6.6.1	win	2023-06-02	05:30:49	05:43:09	733988	5a6f1ccade1f390001dbd8b7	3	1	main_z	11	main_z	139	stimuli_distractor_trianglediamonds.svg	stimuli_target_diamondrectangles.svg	27	yes	0	0	2000	0	0			0	0			1				0	
6.6.1	win	2023-06-02	05:30:49	05:43:09	733988	5a6f1ccade1f390001dbd8b7	3	1	main_z	11	advance_on_keypress_ZEE	140	stimuli_distractor_trianglediamonds.svg	stimuli_target_diamondrectangles.svg	27	yes	57	0	473	0	0			0	0			1				0	
6.6.1	win	2023-06-02	05:30:49	05:43:11	736101	5a6f1ccade1f390001dbd8b7	3	1	main_z	11	main_z	141	stimuli_target_trianglerectangles.svg	stimuli_distractor_diamondtriangles.svg	21	yes	44	1	997	0	0			0	0			1				0	
6.6.1	win	2023-06-02	05:30:49	05:43:11	736101	5a6f1ccade1f390001dbd8b7	3	1	main_z	11	advance_on_keypress_ZEE	142	stimuli_target_trianglerectangles.svg	stimuli_distractor_diamondtriangles.svg	21	yes	57	0	292	0	0			0	0			1				0	
6.6.1	win	2023-06-02	05:30:49	05:43:13	737958	5a6f1ccade1f390001dbd8b7	3	1	main_z	11	main_z	143	stimuli_distractor_trianglediamonds.svg	stimuli_target_squarediamonds.svg	12	yes	44	1	920	0	0			0	0			1				0	
6.6.1	win	2023-06-02	05:30:49	05:43:13	737958	5a6f1ccade1f390001dbd8b7	3	1	main_z	11	advance_on_keypress_ZEE	144	stimuli_distractor_trianglediamonds.svg	stimuli_target_squarediamonds.svg	12	yes	57	0	250	0	0			0	0			1				0	
6.6.1	win	2023-06-02	05:30:49	05:43:15	739710	5a6f1ccade1f390001dbd8b7	3	1	main_z	11	main_z	145	stimuli_distractor_trianglediamonds.svg	stimuli_target_rectanglediamonds.svg	10	yes	44	1	855	0	0			0	0			1				0	
6.6.1	win	2023-06-02	05:30:49	05:43:15	739710	5a6f1ccade1f390001dbd8b7	3	1	main_z	11	advance_on_keypress_ZEE	146	stimuli_distractor_trianglediamonds.svg	stimuli_target_rectanglediamonds.svg	10	yes	57	0	268	0	0			0	0			1				0	
6.6.1	win	2023-06-02	05:30:49	05:43:17	741605	5a6f1ccade1f390001dbd8b7	3	1	main_z	11	main_z	147	stimuli_target_diamondrectangles.svg	stimuli_distractor_trianglediamonds.svg	19	yes	44	1	984	0	0			0	0			1				0	
6.6.1	win	2023-06-02	05:30:49	05:43:17	741605	5a6f1ccade1f390001dbd8b7	3	1	main_z	11	advance_on_keypress_ZEE	148	stimuli_target_diamondrectangles.svg	stimuli_distractor_trianglediamonds.svg	19	yes	57	0	256	0	0			0	0			1				0	
6.6.1	win	2023-06-02	05:30:49	05:43:20	744504	5a6f1ccade1f390001dbd8b7	3	1	main_z	11	main_z	149	stimuli_distractor_trianglediamonds.svg	stimuli_target_trianglerectangles.svg	25	yes	0	0	2000	0	0			0	0			1				0	
6.6.1	win	2023-06-02	05:30:49	05:43:20	744504	5a6f1ccade1f390001dbd8b7	3	1	main_z	11	advance_on_keypress_ZEE	150	stimuli_distractor_trianglediamonds.svg	stimuli_target_trianglerectangles.svg	25	yes	57	0	492	0	0			0	0			1				0	
6.6.1	win	2023-06-02	05:30:49	05:43:23	747638	5a6f1ccade1f390001dbd8b7	3	1	main_z	11	main_z	151	stimuli_distractor_trianglediamonds.svg	stimuli_distractor_diamondtriangles.svg	35	no	0	1	2000	0	0			0	0			1				0	
6.6.1	win	2023-06-02	05:30:49	05:43:23	747638	5a6f1ccade1f390001dbd8b7	3	1	main_z	11	advance_on_keypress_ZEE	152	stimuli_distractor_trianglediamonds.svg	stimuli_distractor_diamondtriangles.svg	35	no	57	0	295	0	0			0	0			1				0	
6.6.1	win	2023-06-02	05:30:49	05:43:25	749469	5a6f1ccade1f390001dbd8b7	3	1	main_z	11	main_z	153	stimuli_target_trianglerectangles.svg	stimuli_distractor_trianglediamonds.svg	17	yes	44	1	882	0	0			0	0			1				0	
6.6.1	win	2023-06-02	05:30:49	05:43:25	749469	5a6f1ccade1f390001dbd8b7	3	1	main_z	11	advance_on_keypress_ZEE	154	stimuli_target_trianglerectangles.svg	stimuli_distractor_trianglediamonds.svg	17	yes	57	0	222	0	0			0	0			1				0	
6.6.1	win	2023-06-02	05:30:49	05:43:26	751301	5a6f1ccade1f390001dbd8b7	3	1	main_z	11	main_z	155	stimuli_distractor_trianglediamonds.svg	stimuli_target_trianglesquares.svg	26	yes	44	1	964	0	0			0	0			1				0	
6.6.1	win	2023-06-02	05:30:49	05:43:26	751301	5a6f1ccade1f390001dbd8b7	3	1	main_z	11	advance_on_keypress_ZEE	156	stimuli_distractor_trianglediamonds.svg	stimuli_target_trianglesquares.svg	26	yes	57	0	212	0	0			0	0			1				0	
6.6.1	win	2023-06-02	05:30:49	05:43:29	754172	5a6f1ccade1f390001dbd8b7	3	1	main_z	11	main_z	157	stimuli_distractor_trianglediamonds.svg	stimuli_distractor_trianglediamonds.svg	33	no	0	1	2000	0	0			0	0			1				0	
6.6.1	win	2023-06-02	05:30:49	05:43:29	754172	5a6f1ccade1f390001dbd8b7	3	1	main_z	11	advance_on_keypress_ZEE	158	stimuli_distractor_trianglediamonds.svg	stimuli_distractor_trianglediamonds.svg	33	no	57	0	537	0	0			0	0			1				0	
6.6.1	win	2023-06-02	05:30:49	05:43:32	757354	5a6f1ccade1f390001dbd8b7	3	1	main_z	11	main_z	159	stimuli_distractor_diamondtriangles.svg	stimuli_distractor_diamondtriangles.svg	39	no	0	1	2000	0	0			0	0			1				0	
6.6.1	win	2023-06-02	05:30:49	05:43:32	757354	5a6f1ccade1f390001dbd8b7	3	1	main_z	11	advance_on_keypress_ZEE	160	stimuli_distractor_diamondtriangles.svg	stimuli_distractor_diamondtriangles.svg	39	no	57	0	514	0	0			0	0			1				0	
6.6.1	win	2023-06-02	05:30:49	05:43:32	757354	5a6f1ccade1f390001dbd8b7	3	1	headphonecheck_calibration	14	headphonecheck_calibrationIntro	1	stimuli_distractor_diamondtriangles.svg	stimuli_distractor_diamondtriangles.svg	39	no	calibrationButton	0	16167	0	0			0	0			1				0	
6.6.1	win	2023-06-02	05:30:49	05:43:32	757354	5a6f1ccade1f390001dbd8b7	3	1	headphonecheck_testphase	15	test_collectResponse	3	stimuli_distractor_diamondtriangles.svg	stimuli_distractor_diamondtriangles.svg	39	no	first	1	975	1	3	antiphase_hc_soi.wav	1	0	0			1				0	
6.6.1	win	2023-06-02	05:30:49	05:43:32	757354	5a6f1ccade1f390001dbd8b7	3	1	headphonecheck_testphase	15	test_collectResponse	6	stimuli_distractor_diamondtriangles.svg	stimuli_distractor_diamondtriangles.svg	39	no	third	1	646	2	6	antiphase_hc_ois.wav	3	0	0			1				0	
6.6.1	win	2023-06-02	05:30:49	05:43:32	757354	5a6f1ccade1f390001dbd8b7	3	1	headphonecheck_testphase	15	test_collectResponse	9	stimuli_distractor_diamondtriangles.svg	stimuli_distractor_diamondtriangles.svg	39	no	second	1	617	3	5	antiphase_hc_osi.wav	2	0	0			1				0	
6.6.1	win	2023-06-02	05:30:49	05:43:32	757354	5a6f1ccade1f390001dbd8b7	3	1	headphonecheck_testphase	15	test_collectResponse	12	stimuli_distractor_diamondtriangles.svg	stimuli_distractor_diamondtriangles.svg	39	no	third	1	329	4	2	antiphase_hc_ios.wav	3	0	0			1				0	
6.6.1	win	2023-06-02	05:30:49	05:43:32	757354	5a6f1ccade1f390001dbd8b7	3	1	headphonecheck_testphase	15	test_collectResponse	15	stimuli_distractor_diamondtriangles.svg	stimuli_distractor_diamondtriangles.svg	39	no	second	1	305	5	1	antiphase_hc_iso.wav	2	0	0			1				0	
6.6.1	win	2023-06-02	05:30:49	05:43:32	757354	5a6f1ccade1f390001dbd8b7	3	1	headphonecheck_testphase	15	test_collectResponse	18	stimuli_distractor_diamondtriangles.svg	stimuli_distractor_diamondtriangles.svg	39	no	first	1	689	6	4	antiphase_hc_sio.wav	1	0	0			1				0	
6.6.1	win	2023-06-02	05:30:49	05:43:32	757354	5a6f1ccade1f390001dbd8b7	3	1	stereocheck_calibration	17	stereocheck_calibrationIntro	1	stimuli_distractor_diamondtriangles.svg	stimuli_distractor_diamondtriangles.svg	39	no	stereocheck_calibrationButton	0	6094	6	4	antiphase_hc_sio.wav	1	0	0			1				0	
6.6.1	win	2023-06-02	05:30:49	05:43:32	757354	5a6f1ccade1f390001dbd8b7	3	1	stereocheck_testphase	18	stereocheck_test_collectResponse	3	stimuli_distractor_diamondtriangles.svg	stimuli_distractor_diamondtriangles.svg	39	no	stereocheck_right	1	1522	6	4	antiphase_hc_sio.wav	1	1	4	noise_calib_stim_RIGHT.wav	2	1				0	
6.6.1	win	2023-06-02	05:30:49	05:43:32	757354	5a6f1ccade1f390001dbd8b7	3	1	stereocheck_testphase	18	stereocheck_test_collectResponse	6	stimuli_distractor_diamondtriangles.svg	stimuli_distractor_diamondtriangles.svg	39	no	stereocheck_left	1	750	6	4	antiphase_hc_sio.wav	1	2	2	noise_calib_stim_LEFT.wav	1	1				0	
6.6.1	win	2023-06-02	05:30:49	05:43:32	757354	5a6f1ccade1f390001dbd8b7	3	1	stereocheck_testphase	18	stereocheck_test_collectResponse	9	stimuli_distractor_diamondtriangles.svg	stimuli_distractor_diamondtriangles.svg	39	no	stereocheck_right	1	529	6	4	antiphase_hc_sio.wav	1	3	5	noise_calib_stim_RIGHT.wav	2	1				0	
6.6.1	win	2023-06-02	05:30:49	05:43:32	757354	5a6f1ccade1f390001dbd8b7	3	1	stereocheck_testphase	18	stereocheck_test_collectResponse	12	stimuli_distractor_diamondtriangles.svg	stimuli_distractor_diamondtriangles.svg	39	no	stereocheck_left	1	356	6	4	antiphase_hc_sio.wav	1	4	3	noise_calib_stim_LEFT.wav	1	1				0	
6.6.1	win	2023-06-02	05:30:49	05:43:32	757354	5a6f1ccade1f390001dbd8b7	3	1	stereocheck_testphase	18	stereocheck_test_collectResponse	15	stimuli_distractor_diamondtriangles.svg	stimuli_distractor_diamondtriangles.svg	39	no	stereocheck_left	1	213	6	4	antiphase_hc_sio.wav	1	5	1	noise_calib_stim_LEFT.wav	1	1				0	
6.6.1	win	2023-06-02	05:30:49	05:43:32	757354	5a6f1ccade1f390001dbd8b7	3	1	stereocheck_testphase	18	stereocheck_test_collectResponse	18	stimuli_distractor_diamondtriangles.svg	stimuli_distractor_diamondtriangles.svg	39	no	stereocheck_right	1	336	6	4	antiphase_hc_sio.wav	1	6	6	noise_calib_stim_RIGHT.wav	2	1				0	
6.6.1	win	2023-06-02	05:30:49	05:43:32	757354	5a6f1ccade1f390001dbd8b7	3	1	DL_practice	21	DL_practice	2	stimuli_distractor_diamondtriangles.svg	stimuli_distractor_diamondtriangles.svg	39	no	da	1	1547	6	4	antiphase_hc_sio.wav	1	6	6	noise_calib_stim_RIGHT.wav	2	8	blb_dichoticlistening_da-da.mp3	da	da	0	left
6.6.1	win	2023-06-02	05:30:49	05:43:32	757354	5a6f1ccade1f390001dbd8b7	3	1	DL_practice	21	DL_practice	3	stimuli_distractor_diamondtriangles.svg	stimuli_distractor_diamondtriangles.svg	39	no	ga	1	963	6	4	antiphase_hc_sio.wav	1	6	6	noise_calib_stim_RIGHT.wav	2	18	blb_dichoticlistening_ga-ta.mp3	ga	ta	1	left
6.6.1	win	2023-06-02	05:30:49	05:43:32	757354	5a6f1ccade1f390001dbd8b7	3	1	DL_practice	21	DL_practice	4	stimuli_distractor_diamondtriangles.svg	stimuli_distractor_diamondtriangles.svg	39	no	ba	1	1099	6	4	antiphase_hc_sio.wav	1	6	6	noise_calib_stim_RIGHT.wav	2	1	blb_dichoticlistening_ba-ba.mp3	ba	ba	0	left
6.6.1	win	2023-06-02	05:30:49	05:43:32	757354	5a6f1ccade1f390001dbd8b7	3	1	DL_practice	21	DL_practice	5	stimuli_distractor_diamondtriangles.svg	stimuli_distractor_diamondtriangles.svg	39	no	ka	0	724	6	4	antiphase_hc_sio.wav	1	6	6	noise_calib_stim_RIGHT.wav	2	36	blb_dichoticlistening_ta-ta.mp3	ta	ta	0	other
6.6.1	win	2023-06-02	05:30:49	05:43:32	757354	5a6f1ccade1f390001dbd8b7	3	1	DL_practice	21	DL_practice	6	stimuli_distractor_diamondtriangles.svg	stimuli_distractor_diamondtriangles.svg	39	no	ba	1	2181	6	4	antiphase_hc_sio.wav	1	6	6	noise_calib_stim_RIGHT.wav	2	7	blb_dichoticlistening_da-ba.mp3	da	ba	1	right
6.6.1	win	2023-06-02	05:30:49	05:43:32	757354	5a6f1ccade1f390001dbd8b7	3	1	DL_practice	21	DL_practice	7	stimuli_distractor_diamondtriangles.svg	stimuli_distractor_diamondtriangles.svg	39	no	pa	1	1187	6	4	antiphase_hc_sio.wav	1	6	6	noise_calib_stim_RIGHT.wav	2	29	blb_dichoticlistening_pa-pa.mp3	pa	pa	0	left
6.6.1	win	2023-06-02	05:30:49	05:43:32	757354	5a6f1ccade1f390001dbd8b7	3	1	DL_practice	21	DL_practice	8	stimuli_distractor_diamondtriangles.svg	stimuli_distractor_diamondtriangles.svg	39	no	ka	1	961	6	4	antiphase_hc_sio.wav	1	6	6	noise_calib_stim_RIGHT.wav	2	22	blb_dichoticlistening_ka-ka.mp3	ka	ka	0	left
6.6.1	win	2023-06-02	05:30:49	05:43:32	757354	5a6f1ccade1f390001dbd8b7	3	1	DL_practice	21	DL_practice	9	stimuli_distractor_diamondtriangles.svg	stimuli_distractor_diamondtriangles.svg	39	no	ga	1	801	6	4	antiphase_hc_sio.wav	1	6	6	noise_calib_stim_RIGHT.wav	2	15	blb_dichoticlistening_ga-ga.mp3	ga	ga	0	left
6.6.1	win	2023-06-02	05:30:49	05:43:32	757354	5a6f1ccade1f390001dbd8b7	3	1	DL_practice	21	DL_practice	10	stimuli_distractor_diamondtriangles.svg	stimuli_distractor_diamondtriangles.svg	39	no	ka	1	1103	6	4	antiphase_hc_sio.wav	1	6	6	noise_calib_stim_RIGHT.wav	2	23	blb_dichoticlistening_ka-pa.mp3	ka	pa	1	left
6.6.1	win	2023-06-02	05:30:49	05:43:32	757354	5a6f1ccade1f390001dbd8b7	3	1	DL_test	23	DL_test	1	stimuli_distractor_diamondtriangles.svg	stimuli_distractor_diamondtriangles.svg	39	no	ba	1	1409	6	4	antiphase_hc_sio.wav	1	6	6	noise_calib_stim_RIGHT.wav	2	6	blb_dichoticlistening_ba-ta.mp3	ba	ta	1	left
6.6.1	win	2023-06-02	05:30:49	05:43:32	757354	5a6f1ccade1f390001dbd8b7	3	1	DL_test	23	DL_test	2	stimuli_distractor_diamondtriangles.svg	stimuli_distractor_diamondtriangles.svg	39	no	ba	1	1103	6	4	antiphase_hc_sio.wav	1	6	6	noise_calib_stim_RIGHT.wav	2	4	blb_dichoticlistening_ba-ka.mp3	ba	ka	1	left
6.6.1	win	2023-06-02	05:30:49	05:43:32	757354	5a6f1ccade1f390001dbd8b7	3	1	DL_test	23	DL_test	3	stimuli_distractor_diamondtriangles.svg	stimuli_distractor_diamondtriangles.svg	39	no	da	1	1257	6	4	antiphase_hc_sio.wav	1	6	6	noise_calib_stim_RIGHT.wav	2	32	blb_dichoticlistening_ta-da.mp3	ta	da	1	right
6.6.1	win	2023-06-02	05:30:49	05:43:32	757354	5a6f1ccade1f390001dbd8b7	3	1	DL_test	23	DL_test	4	stimuli_distractor_diamondtriangles.svg	stimuli_distractor_diamondtriangles.svg	39	no	ga	1	781	6	4	antiphase_hc_sio.wav	1	6	6	noise_calib_stim_RIGHT.wav	2	27	blb_dichoticlistening_pa-ga.mp3	pa	ga	1	right
6.6.1	win	2023-06-02	05:30:49	05:43:32	757354	5a6f1ccade1f390001dbd8b7	3	1	DL_test	23	DL_test	5	stimuli_distractor_diamondtriangles.svg	stimuli_distractor_diamondtriangles.svg	39	no	ba	1	1707	6	4	antiphase_hc_sio.wav	1	6	6	noise_calib_stim_RIGHT.wav	2	5	blb_dichoticlistening_ba-pa.mp3	ba	pa	1	left
6.6.1	win	2023-06-02	05:30:49	05:43:32	757354	5a6f1ccade1f390001dbd8b7	3	1	DL_test	23	DL_test	6	stimuli_distractor_diamondtriangles.svg	stimuli_distractor_diamondtriangles.svg	39	no	da	1	965	6	4	antiphase_hc_sio.wav	1	6	6	noise_calib_stim_RIGHT.wav	2	11	blb_dichoticlistening_da-pa.mp3	da	pa	1	left
6.6.1	win	2023-06-02	05:30:49	05:43:32	757354	5a6f1ccade1f390001dbd8b7	3	1	DL_test	23	DL_test	7	stimuli_distractor_diamondtriangles.svg	stimuli_distractor_diamondtriangles.svg	39	no	ba	1	1476	6	4	antiphase_hc_sio.wav	1	6	6	noise_calib_stim_RIGHT.wav	2	31	blb_dichoticlistening_ta-ba.mp3	ta	ba	1	right
6.6.1	win	2023-06-02	05:30:49	05:43:32	757354	5a6f1ccade1f390001dbd8b7	3	1	DL_test	23	DL_test	8	stimuli_distractor_diamondtriangles.svg	stimuli_distractor_diamondtriangles.svg	39	no	ka	0	4479	6	4	antiphase_hc_sio.wav	1	6	6	noise_calib_stim_RIGHT.wav	2	30	blb_dichoticlistening_pa-ta.mp3	pa	ta	1	other
6.6.1	win	2023-06-02	05:30:49	05:43:32	757354	5a6f1ccade1f390001dbd8b7	3	1	DL_test	23	DL_test	9	stimuli_distractor_diamondtriangles.svg	stimuli_distractor_diamondtriangles.svg	39	no	ka	1	1737	6	4	antiphase_hc_sio.wav	1	6	6	noise_calib_stim_RIGHT.wav	2	22	blb_dichoticlistening_ka-ka.mp3	ka	ka	0	left
6.6.1	win	2023-06-02	05:30:49	05:43:32	757354	5a6f1ccade1f390001dbd8b7	3	1	DL_test	23	DL_test	10	stimuli_distractor_diamondtriangles.svg	stimuli_distractor_diamondtriangles.svg	39	no	da	1	1313	6	4	antiphase_hc_sio.wav	1	6	6	noise_calib_stim_RIGHT.wav	2	8	blb_dichoticlistening_da-da.mp3	da	da	0	left
6.6.1	win	2023-06-02	05:30:49	05:43:32	757354	5a6f1ccade1f390001dbd8b7	3	1	DL_test	23	DL_test	11	stimuli_distractor_diamondtriangles.svg	stimuli_distractor_diamondtriangles.svg	39	no	ga	1	955	6	4	antiphase_hc_sio.wav	1	6	6	noise_calib_stim_RIGHT.wav	2	18	blb_dichoticlistening_ga-ta.mp3	ga	ta	1	left
6.6.1	win	2023-06-02	05:30:49	05:43:32	757354	5a6f1ccade1f390001dbd8b7	3	1	DL_test	23	DL_test	12	stimuli_distractor_diamondtriangles.svg	stimuli_distractor_diamondtriangles.svg	39	no	da	1	881	6	4	antiphase_hc_sio.wav	1	6	6	noise_calib_stim_RIGHT.wav	2	26	blb_dichoticlistening_pa-da.mp3	pa	da	1	right
6.6.1	win	2023-06-02	05:30:49	05:43:32	757354	5a6f1ccade1f390001dbd8b7	3	1	DL_test	23	DL_test	13	stimuli_distractor_diamondtriangles.svg	stimuli_distractor_diamondtriangles.svg	39	no	ka	0	813	6	4	antiphase_hc_sio.wav	1	6	6	noise_calib_stim_RIGHT.wav	2	29	blb_dichoticlistening_pa-pa.mp3	pa	pa	0	other
6.6.1	win	2023-06-02	05:30:49	05:43:32	757354	5a6f1ccade1f390001dbd8b7	3	1	DL_test	23	DL_test	14	stimuli_distractor_diamondtriangles.svg	stimuli_distractor_diamondtriangles.svg	39	no	da	1	842	6	4	antiphase_hc_sio.wav	1	6	6	noise_calib_stim_RIGHT.wav	2	10	blb_dichoticlistening_da-ka.mp3	da	ka	1	left
6.6.1	win	2023-06-02	05:30:49	05:43:32	757354	5a6f1ccade1f390001dbd8b7	3	1	DL_test	23	DL_test	15	stimuli_distractor_diamondtriangles.svg	stimuli_distractor_diamondtriangles.svg	39	no	ga	1	629	6	4	antiphase_hc_sio.wav	1	6	6	noise_calib_stim_RIGHT.wav	2	17	blb_dichoticlistening_ga-pa.mp3	ga	pa	1	left
6.6.1	win	2023-06-02	05:30:49	05:43:32	757354	5a6f1ccade1f390001dbd8b7	3	1	DL_test	23	DL_test	16	stimuli_distractor_diamondtriangles.svg	stimuli_distractor_diamondtriangles.svg	39	no	ga	1	1258	6	4	antiphase_hc_sio.wav	1	6	6	noise_calib_stim_RIGHT.wav	2	14	blb_dichoticlistening_ga-da.mp3	ga	da	1	left
6.6.1	win	2023-06-02	05:30:49	05:43:32	757354	5a6f1ccade1f390001dbd8b7	3	1	DL_test	23	DL_test	17	stimuli_distractor_diamondtriangles.svg	stimuli_distractor_diamondtriangles.svg	39	no	ka	1	1301	6	4	antiphase_hc_sio.wav	1	6	6	noise_calib_stim_RIGHT.wav	2	24	blb_dichoticlistening_ka-ta.mp3	ka	ta	1	left
6.6.1	win	2023-06-02	05:30:49	05:43:32	757354	5a6f1ccade1f390001dbd8b7	3	1	DL_test	23	DL_test	18	stimuli_distractor_diamondtriangles.svg	stimuli_distractor_diamondtriangles.svg	39	no	ba	1	1663	6	4	antiphase_hc_sio.wav	1	6	6	noise_calib_stim_RIGHT.wav	2	25	blb_dichoticlistening_pa-ba.mp3	pa	ba	1	right
6.6.1	win	2023-06-02	05:30:49	05:43:32	757354	5a6f1ccade1f390001dbd8b7	3	1	DL_test	23	DL_test	19	stimuli_distractor_diamondtriangles.svg	stimuli_distractor_diamondtriangles.svg	39	no	ka	1	986	6	4	antiphase_hc_sio.wav	1	6	6	noise_calib_stim_RIGHT.wav	2	23	blb_dichoticlistening_ka-pa.mp3	ka	pa	1	left
6.6.1	win	2023-06-02	05:30:49	05:43:32	757354	5a6f1ccade1f390001dbd8b7	3	1	DL_test	23	DL_test	20	stimuli_distractor_diamondtriangles.svg	stimuli_distractor_diamondtriangles.svg	39	no	ga	1	904	6	4	antiphase_hc_sio.wav	1	6	6	noise_calib_stim_RIGHT.wav	2	15	blb_dichoticlistening_ga-ga.mp3	ga	ga	0	left
6.6.1	win	2023-06-02	05:30:49	05:43:32	757354	5a6f1ccade1f390001dbd8b7	3	1	DL_test	23	DL_test	21	stimuli_distractor_diamondtriangles.svg	stimuli_distractor_diamondtriangles.svg	39	no	ga	1	1113	6	4	antiphase_hc_sio.wav	1	6	6	noise_calib_stim_RIGHT.wav	2	33	blb_dichoticlistening_ta-ga.mp3	ta	ga	1	right
6.6.1	win	2023-06-02	05:30:49	05:43:32	757354	5a6f1ccade1f390001dbd8b7	3	1	DL_test	23	DL_test	22	stimuli_distractor_diamondtriangles.svg	stimuli_distractor_diamondtriangles.svg	39	no	ba	1	1251	6	4	antiphase_hc_sio.wav	1	6	6	noise_calib_stim_RIGHT.wav	2	7	blb_dichoticlistening_da-ba.mp3	da	ba	1	right
6.6.1	win	2023-06-02	05:30:49	05:43:32	757354	5a6f1ccade1f390001dbd8b7	3	1	DL_test	23	DL_test	23	stimuli_distractor_diamondtriangles.svg	stimuli_distractor_diamondtriangles.svg	39	no	ka	1	999	6	4	antiphase_hc_sio.wav	1	6	6	noise_calib_stim_RIGHT.wav	2	34	blb_dichoticlistening_ta-ka.mp3	ta	ka	1	right
6.6.1	win	2023-06-02	05:30:49	05:43:32	757354	5a6f1ccade1f390001dbd8b7	3	1	DL_test	23	DL_test	24	stimuli_distractor_diamondtriangles.svg	stimuli_distractor_diamondtriangles.svg	39	no	ga	1	732	6	4	antiphase_hc_sio.wav	1	6	6	noise_calib_stim_RIGHT.wav	2	16	blb_dichoticlistening_ga-ka.mp3	ga	ka	1	left
6.6.1	win	2023-06-02	05:30:49	05:43:32	757354	5a6f1ccade1f390001dbd8b7	3	1	DL_test	23	DL_test	25	stimuli_distractor_diamondtriangles.svg	stimuli_distractor_diamondtriangles.svg	39	no	ba	1	1021	6	4	antiphase_hc_sio.wav	1	6	6	noise_calib_stim_RIGHT.wav	2	19	blb_dichoticlistening_ka-ba.mp3	ka	ba	1	right
