build	computer.platform	date	time	timestamp	time_elapsed_ms	subject	group	session	blockcode	blocknum	trialcode	trialnum	stimulus_left	stimulus_right	stim_index	target_present	response	correct	latency	headphonecheck_countTestTrials	headphonecheck_index	headphonecheck_testSound	headphonecheck_correctResponse	stereocheck_countTestTrials	stereocheck_index	stereocheck_testSound	stereocheck_correctResponse	DL_index	DL_soundfile	DL_leftSound	DL_rightSound	DL_dualSound	DL_choice
6.6.1	win	2023-06-27	11:10:00	0	0	5da179412996110016d853d5	1	1	headphonecheck_calibration	4	headphonecheck_calibrationIntro	1			0		calibrationButton	0	3979	0	0			0	0			1				0	
6.6.1	win	2023-06-27	11:10:00	0	0	5da179412996110016d853d5	1	1	headphonecheck_testphase	5	test_collectResponse	3			0		second	1	5219	1	5	antiphase_hc_osi.wav	2	0	0			1				0	
6.6.1	win	2023-06-27	11:10:00	0	0	5da179412996110016d853d5	1	1	headphonecheck_testphase	5	test_collectResponse	6			0		first	1	442	2	4	antiphase_hc_sio.wav	1	0	0			1				0	
6.6.1	win	2023-06-27	11:10:00	0	0	5da179412996110016d853d5	1	1	headphonecheck_testphase	5	test_collectResponse	9			0		first	1	507	3	3	antiphase_hc_soi.wav	1	0	0			1				0	
6.6.1	win	2023-06-27	11:10:00	0	0	5da179412996110016d853d5	1	1	headphonecheck_testphase	5	test_collectResponse	12			0		second	1	321	4	1	antiphase_hc_iso.wav	2	0	0			1				0	
6.6.1	win	2023-06-27	11:10:00	0	0	5da179412996110016d853d5	1	1	headphonecheck_testphase	5	test_collectResponse	15			0		third	1	293	5	6	antiphase_hc_ois.wav	3	0	0			1				0	
6.6.1	win	2023-06-27	11:10:00	0	0	5da179412996110016d853d5	1	1	headphonecheck_testphase	5	test_collectResponse	18			0		third	1	311	6	2	antiphase_hc_ios.wav	3	0	0			1				0	
6.6.1	win	2023-06-27	11:10:00	0	0	5da179412996110016d853d5	1	1	stereocheck_calibration	7	stereocheck_calibrationIntro	1			0		stereocheck_calibrationButton	0	3671	6	2	antiphase_hc_ios.wav	3	0	0			1				0	
6.6.1	win	2023-06-27	11:10:00	0	0	5da179412996110016d853d5	1	1	stereocheck_testphase	8	stereocheck_test_collectResponse	3			0		stereocheck_left	1	2400	6	2	antiphase_hc_ios.wav	3	1	2	noise_calib_stim_LEFT.wav	1	1				0	
6.6.1	win	2023-06-27	11:10:00	0	0	5da179412996110016d853d5	1	1	stereocheck_testphase	8	stereocheck_test_collectResponse	6			0		stereocheck_left	1	935	6	2	antiphase_hc_ios.wav	3	2	3	noise_calib_stim_LEFT.wav	1	1				0	
6.6.1	win	2023-06-27	11:10:00	0	0	5da179412996110016d853d5	1	1	stereocheck_testphase	8	stereocheck_test_collectResponse	9			0		stereocheck_right	1	577	6	2	antiphase_hc_ios.wav	3	3	4	noise_calib_stim_RIGHT.wav	2	1				0	
6.6.1	win	2023-06-27	11:10:00	0	0	5da179412996110016d853d5	1	1	stereocheck_testphase	8	stereocheck_test_collectResponse	12			0		stereocheck_left	1	422	6	2	antiphase_hc_ios.wav	3	4	1	noise_calib_stim_LEFT.wav	1	1				0	
6.6.1	win	2023-06-27	11:10:00	0	0	5da179412996110016d853d5	1	1	stereocheck_testphase	8	stereocheck_test_collectResponse	15			0		stereocheck_right	1	305	6	2	antiphase_hc_ios.wav	3	5	5	noise_calib_stim_RIGHT.wav	2	1				0	
6.6.1	win	2023-06-27	11:10:00	0	0	5da179412996110016d853d5	1	1	stereocheck_testphase	8	stereocheck_test_collectResponse	18			0		stereocheck_right	1	285	6	2	antiphase_hc_ios.wav	3	6	6	noise_calib_stim_RIGHT.wav	2	1				0	
6.6.1	win	2023-06-27	11:10:00	0	0	5da179412996110016d853d5	1	1	DL_practice	11	DL_practice	2			0		da	1	975	6	2	antiphase_hc_ios.wav	3	6	6	noise_calib_stim_RIGHT.wav	2	8	blb_dichoticlistening_da-da.mp3	da	da	0	left
6.6.1	win	2023-06-27	11:10:00	0	0	5da179412996110016d853d5	1	1	DL_practice	11	DL_practice	3			0		ga	1	969	6	2	antiphase_hc_ios.wav	3	6	6	noise_calib_stim_RIGHT.wav	2	18	blb_dichoticlistening_ga-ta.mp3	ga	ta	1	left
6.6.1	win	2023-06-27	11:10:00	0	0	5da179412996110016d853d5	1	1	DL_practice	11	DL_practice	4			0		ba	1	1195	6	2	antiphase_hc_ios.wav	3	6	6	noise_calib_stim_RIGHT.wav	2	1	blb_dichoticlistening_ba-ba.mp3	ba	ba	0	left
6.6.1	win	2023-06-27	11:10:00	0	0	5da179412996110016d853d5	1	1	DL_practice	11	DL_practice	5			0		ga	1	739	6	2	antiphase_hc_ios.wav	3	6	6	noise_calib_stim_RIGHT.wav	2	15	blb_dichoticlistening_ga-ga.mp3	ga	ga	0	left
6.6.1	win	2023-06-27	11:10:00	0	0	5da179412996110016d853d5	1	1	DL_practice	11	DL_practice	6			0		da	1	1389	6	2	antiphase_hc_ios.wav	3	6	6	noise_calib_stim_RIGHT.wav	2	7	blb_dichoticlistening_da-ba.mp3	da	ba	1	left
6.6.1	win	2023-06-27	11:10:00	0	0	5da179412996110016d853d5	1	1	DL_practice	11	DL_practice	7			0		ka	1	1195	6	2	antiphase_hc_ios.wav	3	6	6	noise_calib_stim_RIGHT.wav	2	22	blb_dichoticlistening_ka-ka.mp3	ka	ka	0	left
6.6.1	win	2023-06-27	11:10:00	0	0	5da179412996110016d853d5	1	1	DL_practice	11	DL_practice	8			0		ta	1	2030	6	2	antiphase_hc_ios.wav	3	6	6	noise_calib_stim_RIGHT.wav	2	36	blb_dichoticlistening_ta-ta.mp3	ta	ta	0	left
6.6.1	win	2023-06-27	11:10:00	0	0	5da179412996110016d853d5	1	1	DL_practice	11	DL_practice	9			0		pa	1	1039	6	2	antiphase_hc_ios.wav	3	6	6	noise_calib_stim_RIGHT.wav	2	29	blb_dichoticlistening_pa-pa.mp3	pa	pa	0	left
6.6.1	win	2023-06-27	11:10:00	0	0	5da179412996110016d853d5	1	1	DL_practice	11	DL_practice	10			0		ka	1	931	6	2	antiphase_hc_ios.wav	3	6	6	noise_calib_stim_RIGHT.wav	2	23	blb_dichoticlistening_ka-pa.mp3	ka	pa	1	left
6.6.1	win	2023-06-27	11:10:00	0	0	5da179412996110016d853d5	1	1	DL_test	13	DL_test	1			0		ka	1	1067	6	2	antiphase_hc_ios.wav	3	6	6	noise_calib_stim_RIGHT.wav	2	19	blb_dichoticlistening_ka-ba.mp3	ka	ba	1	left
6.6.1	win	2023-06-27	11:10:00	0	0	5da179412996110016d853d5	1	1	DL_test	13	DL_test	2			0		pa	0	1700	6	2	antiphase_hc_ios.wav	3	6	6	noise_calib_stim_RIGHT.wav	2	6	blb_dichoticlistening_ba-ta.mp3	ba	ta	1	other
6.6.1	win	2023-06-27	11:10:00	0	0	5da179412996110016d853d5	1	1	DL_test	13	DL_test	3			0		ka	1	907	6	2	antiphase_hc_ios.wav	3	6	6	noise_calib_stim_RIGHT.wav	2	24	blb_dichoticlistening_ka-ta.mp3	ka	ta	1	left
6.6.1	win	2023-06-27	11:10:00	0	0	5da179412996110016d853d5	1	1	DL_test	13	DL_test	4			0		ka	0	896	6	2	antiphase_hc_ios.wav	3	6	6	noise_calib_stim_RIGHT.wav	2	33	blb_dichoticlistening_ta-ga.mp3	ta	ga	1	other
6.6.1	win	2023-06-27	11:10:00	0	0	5da179412996110016d853d5	1	1	DL_test	13	DL_test	5			0		da	1	1010	6	2	antiphase_hc_ios.wav	3	6	6	noise_calib_stim_RIGHT.wav	2	12	blb_dichoticlistening_da-ta.mp3	da	ta	1	left
6.6.1	win	2023-06-27	11:10:00	0	0	5da179412996110016d853d5	1	1	DL_test	13	DL_test	6			0		ka	1	1269	6	2	antiphase_hc_ios.wav	3	6	6	noise_calib_stim_RIGHT.wav	2	21	blb_dichoticlistening_ka-ga.mp3	ka	ga	1	left
6.6.1	win	2023-06-27	11:10:00	0	0	5da179412996110016d853d5	1	1	DL_test	13	DL_test	7			0		pa	1	1027	6	2	antiphase_hc_ios.wav	3	6	6	noise_calib_stim_RIGHT.wav	2	11	blb_dichoticlistening_da-pa.mp3	da	pa	1	right
6.6.1	win	2023-06-27	11:10:00	0	0	5da179412996110016d853d5	1	1	DL_test	13	DL_test	8			0		pa	1	1029	6	2	antiphase_hc_ios.wav	3	6	6	noise_calib_stim_RIGHT.wav	2	30	blb_dichoticlistening_pa-ta.mp3	pa	ta	1	left
6.6.1	win	2023-06-27	11:10:00	0	0	5da179412996110016d853d5	1	1	DL_test	13	DL_test	9			0		pa	1	896	6	2	antiphase_hc_ios.wav	3	6	6	noise_calib_stim_RIGHT.wav	2	29	blb_dichoticlistening_pa-pa.mp3	pa	pa	0	left
6.6.1	win	2023-06-27	11:10:00	0	0	5da179412996110016d853d5	1	1	DL_test	13	DL_test	10			0		ka	1	738	6	2	antiphase_hc_ios.wav	3	6	6	noise_calib_stim_RIGHT.wav	2	4	blb_dichoticlistening_ba-ka.mp3	ba	ka	1	right
6.6.1	win	2023-06-27	11:10:00	0	0	5da179412996110016d853d5	1	1	DL_test	13	DL_test	11			0		pa	1	888	6	2	antiphase_hc_ios.wav	3	6	6	noise_calib_stim_RIGHT.wav	2	25	blb_dichoticlistening_pa-ba.mp3	pa	ba	1	left
6.6.1	win	2023-06-27	11:10:00	0	0	5da179412996110016d853d5	1	1	DL_test	13	DL_test	12			0		da	1	1125	6	2	antiphase_hc_ios.wav	3	6	6	noise_calib_stim_RIGHT.wav	2	7	blb_dichoticlistening_da-ba.mp3	da	ba	1	left
6.6.1	win	2023-06-27	11:10:00	0	0	5da179412996110016d853d5	1	1	DL_test	13	DL_test	13			0		ga	1	1075	6	2	antiphase_hc_ios.wav	3	6	6	noise_calib_stim_RIGHT.wav	2	9	blb_dichoticlistening_da-ga.mp3	da	ga	1	right
6.6.1	win	2023-06-27	11:10:00	0	0	5da179412996110016d853d5	1	1	DL_test	13	DL_test	14			0		ta	1	1196	6	2	antiphase_hc_ios.wav	3	6	6	noise_calib_stim_RIGHT.wav	2	32	blb_dichoticlistening_ta-da.mp3	ta	da	1	left
6.6.1	win	2023-06-27	11:10:00	0	0	5da179412996110016d853d5	1	1	DL_test	13	DL_test	15			0		da	0	1056	6	2	antiphase_hc_ios.wav	3	6	6	noise_calib_stim_RIGHT.wav	2	13	blb_dichoticlistening_ga-ba.mp3	ga	ba	1	other
6.6.1	win	2023-06-27	11:10:00	0	0	5da179412996110016d853d5	1	1	DL_test	13	DL_test	16			0		da	1	807	6	2	antiphase_hc_ios.wav	3	6	6	noise_calib_stim_RIGHT.wav	2	8	blb_dichoticlistening_da-da.mp3	da	da	0	left
6.6.1	win	2023-06-27	11:10:00	0	0	5da179412996110016d853d5	1	1	DL_test	13	DL_test	17			0		ka	1	983	6	2	antiphase_hc_ios.wav	3	6	6	noise_calib_stim_RIGHT.wav	2	22	blb_dichoticlistening_ka-ka.mp3	ka	ka	0	left
6.6.1	win	2023-06-27	11:10:00	0	0	5da179412996110016d853d5	1	1	DL_test	13	DL_test	18			0		pa	1	670	6	2	antiphase_hc_ios.wav	3	6	6	noise_calib_stim_RIGHT.wav	2	5	blb_dichoticlistening_ba-pa.mp3	ba	pa	1	right
6.6.1	win	2023-06-27	11:10:00	0	0	5da179412996110016d853d5	1	1	DL_test	13	DL_test	19			0		ka	1	1005	6	2	antiphase_hc_ios.wav	3	6	6	noise_calib_stim_RIGHT.wav	2	20	blb_dichoticlistening_ka-da.mp3	ka	da	1	left
6.6.1	win	2023-06-27	11:10:00	0	0	5da179412996110016d853d5	1	1	DL_test	13	DL_test	20			0		pa	1	1078	6	2	antiphase_hc_ios.wav	3	6	6	noise_calib_stim_RIGHT.wav	2	27	blb_dichoticlistening_pa-ga.mp3	pa	ga	1	left
6.6.1	win	2023-06-27	11:10:00	0	0	5da179412996110016d853d5	1	1	DL_test	13	DL_test	21			0		ta	1	1244	6	2	antiphase_hc_ios.wav	3	6	6	noise_calib_stim_RIGHT.wav	2	35	blb_dichoticlistening_ta-pa.mp3	ta	pa	1	left
6.6.1	win	2023-06-27	11:10:00	0	0	5da179412996110016d853d5	1	1	DL_test	13	DL_test	22			0		ga	1	855	6	2	antiphase_hc_ios.wav	3	6	6	noise_calib_stim_RIGHT.wav	2	3	blb_dichoticlistening_ba-ga.mp3	ba	ga	1	right
6.6.1	win	2023-06-27	11:10:00	0	0	5da179412996110016d853d5	1	1	DL_test	13	DL_test	23			0		ka	0	1408	6	2	antiphase_hc_ios.wav	3	6	6	noise_calib_stim_RIGHT.wav	2	31	blb_dichoticlistening_ta-ba.mp3	ta	ba	1	other
6.6.1	win	2023-06-27	11:10:00	0	0	5da179412996110016d853d5	1	1	DL_test	13	DL_test	24			0		ka	1	851	6	2	antiphase_hc_ios.wav	3	6	6	noise_calib_stim_RIGHT.wav	2	28	blb_dichoticlistening_pa-ka.mp3	pa	ka	1	right
6.6.1	win	2023-06-27	11:10:00	0	0	5da179412996110016d853d5	1	1	DL_test	13	DL_test	25			0		da	1	1262	6	2	antiphase_hc_ios.wav	3	6	6	noise_calib_stim_RIGHT.wav	2	10	blb_dichoticlistening_da-ka.mp3	da	ka	1	left
6.6.1	win	2023-06-27	11:10:00	0	0	5da179412996110016d853d5	1	1	DL_test	13	DL_test	26			0		da	1	1341	6	2	antiphase_hc_ios.wav	3	6	6	noise_calib_stim_RIGHT.wav	2	14	blb_dichoticlistening_ga-da.mp3	ga	da	1	right
6.6.1	win	2023-06-27	11:10:00	0	0	5da179412996110016d853d5	1	1	DL_test	13	DL_test	27			0		ka	1	878	6	2	antiphase_hc_ios.wav	3	6	6	noise_calib_stim_RIGHT.wav	2	23	blb_dichoticlistening_ka-pa.mp3	ka	pa	1	left
6.6.1	win	2023-06-27	11:10:00	0	0	5da179412996110016d853d5	1	1	DL_test	13	DL_test	28			0		ga	1	1779	6	2	antiphase_hc_ios.wav	3	6	6	noise_calib_stim_RIGHT.wav	2	17	blb_dichoticlistening_ga-pa.mp3	ga	pa	1	left
6.6.1	win	2023-06-27	11:10:00	0	0	5da179412996110016d853d5	1	1	DL_test	13	DL_test	29			0		ta	1	1203	6	2	antiphase_hc_ios.wav	3	6	6	noise_calib_stim_RIGHT.wav	2	36	blb_dichoticlistening_ta-ta.mp3	ta	ta	0	left
6.6.1	win	2023-06-27	11:10:00	0	0	5da179412996110016d853d5	1	1	DL_test	13	DL_test	30			0		ka	1	1205	6	2	antiphase_hc_ios.wav	3	6	6	noise_calib_stim_RIGHT.wav	2	34	blb_dichoticlistening_ta-ka.mp3	ta	ka	1	right
6.6.1	win	2023-06-27	11:10:00	0	0	5da179412996110016d853d5	1	1	DL_test	13	DL_test	31			0		ba	1	2168	6	2	antiphase_hc_ios.wav	3	6	6	noise_calib_stim_RIGHT.wav	2	1	blb_dichoticlistening_ba-ba.mp3	ba	ba	0	left
6.6.1	win	2023-06-27	11:10:00	0	0	5da179412996110016d853d5	1	1	DL_test	13	DL_test	32			0		pa	1	1337	6	2	antiphase_hc_ios.wav	3	6	6	noise_calib_stim_RIGHT.wav	2	26	blb_dichoticlistening_pa-da.mp3	pa	da	1	left
6.6.1	win	2023-06-27	11:10:00	0	0	5da179412996110016d853d5	1	1	DL_test	13	DL_test	33			0		ga	1	849	6	2	antiphase_hc_ios.wav	3	6	6	noise_calib_stim_RIGHT.wav	2	15	blb_dichoticlistening_ga-ga.mp3	ga	ga	0	left
6.6.1	win	2023-06-27	11:10:00	0	0	5da179412996110016d853d5	1	1	DL_test	13	DL_test	34			0		da	1	964	6	2	antiphase_hc_ios.wav	3	6	6	noise_calib_stim_RIGHT.wav	2	2	blb_dichoticlistening_ba-da.mp3	ba	da	1	right
6.6.1	win	2023-06-27	11:10:00	0	0	5da179412996110016d853d5	1	1	DL_test	13	DL_test	35			0		da	0	1462	6	2	antiphase_hc_ios.wav	3	6	6	noise_calib_stim_RIGHT.wav	2	18	blb_dichoticlistening_ga-ta.mp3	ga	ta	1	other
6.6.1	win	2023-06-27	11:10:00	0	0	5da179412996110016d853d5	1	1	DL_test	13	DL_test	36			0		ga	1	783	6	2	antiphase_hc_ios.wav	3	6	6	noise_calib_stim_RIGHT.wav	2	16	blb_dichoticlistening_ga-ka.mp3	ga	ka	1	left
6.6.1	win	2023-06-27	11:10:00	0	0	5da179412996110016d853d5	1	1	DL_test	14	DL_test	1			0		pa	1	987	6	2	antiphase_hc_ios.wav	3	6	6	noise_calib_stim_RIGHT.wav	2	25	blb_dichoticlistening_pa-ba.mp3	pa	ba	1	left
6.6.1	win	2023-06-27	11:10:00	0	0	5da179412996110016d853d5	1	1	DL_test	14	DL_test	2			0		da	1	1491	6	2	antiphase_hc_ios.wav	3	6	6	noise_calib_stim_RIGHT.wav	2	14	blb_dichoticlistening_ga-da.mp3	ga	da	1	right
6.6.1	win	2023-06-27	11:10:00	0	0	5da179412996110016d853d5	1	1	DL_test	14	DL_test	3			0		pa	1	1410	6	2	antiphase_hc_ios.wav	3	6	6	noise_calib_stim_RIGHT.wav	2	11	blb_dichoticlistening_da-pa.mp3	da	pa	1	right
6.6.1	win	2023-06-27	11:10:00	0	0	5da179412996110016d853d5	1	1	DL_test	14	DL_test	4			0		ga	1	1343	6	2	antiphase_hc_ios.wav	3	6	6	noise_calib_stim_RIGHT.wav	2	16	blb_dichoticlistening_ga-ka.mp3	ga	ka	1	left
6.6.1	win	2023-06-27	11:10:00	0	0	5da179412996110016d853d5	1	1	DL_test	14	DL_test	5			0		ta	1	1024	6	2	antiphase_hc_ios.wav	3	6	6	noise_calib_stim_RIGHT.wav	2	35	blb_dichoticlistening_ta-pa.mp3	ta	pa	1	left
6.6.1	win	2023-06-27	11:10:00	0	0	5da179412996110016d853d5	1	1	DL_test	14	DL_test	6			0		da	1	1126	6	2	antiphase_hc_ios.wav	3	6	6	noise_calib_stim_RIGHT.wav	2	8	blb_dichoticlistening_da-da.mp3	da	da	0	left
6.6.1	win	2023-06-27	11:10:00	0	0	5da179412996110016d853d5	1	1	DL_test	14	DL_test	7			0		ta	1	1474	6	2	antiphase_hc_ios.wav	3	6	6	noise_calib_stim_RIGHT.wav	2	36	blb_dichoticlistening_ta-ta.mp3	ta	ta	0	left
6.6.1	win	2023-06-27	11:10:00	0	0	5da179412996110016d853d5	1	1	DL_test	14	DL_test	8			0		da	1	1448	6	2	antiphase_hc_ios.wav	3	6	6	noise_calib_stim_RIGHT.wav	2	2	blb_dichoticlistening_ba-da.mp3	ba	da	1	right
6.6.1	win	2023-06-27	11:10:00	0	0	5da179412996110016d853d5	1	1	DL_test	14	DL_test	9			0		ga	1	1523	6	2	antiphase_hc_ios.wav	3	6	6	noise_calib_stim_RIGHT.wav	2	15	blb_dichoticlistening_ga-ga.mp3	ga	ga	0	left
6.6.1	win	2023-06-27	11:10:00	0	0	5da179412996110016d853d5	1	1	DL_test	14	DL_test	10			0		ka	1	1104	6	2	antiphase_hc_ios.wav	3	6	6	noise_calib_stim_RIGHT.wav	2	19	blb_dichoticlistening_ka-ba.mp3	ka	ba	1	left
6.6.1	win	2023-06-27	11:10:00	0	0	5da179412996110016d853d5	1	1	DL_test	14	DL_test	11			0		pa	1	1621	6	2	antiphase_hc_ios.wav	3	6	6	noise_calib_stim_RIGHT.wav	2	28	blb_dichoticlistening_pa-ka.mp3	pa	ka	1	left
6.6.1	win	2023-06-27	11:10:00	0	0	5da179412996110016d853d5	1	1	DL_test	14	DL_test	12			0		ga	1	816	6	2	antiphase_hc_ios.wav	3	6	6	noise_calib_stim_RIGHT.wav	2	9	blb_dichoticlistening_da-ga.mp3	da	ga	1	right
6.6.1	win	2023-06-27	11:10:00	0	0	5da179412996110016d853d5	1	1	DL_test	14	DL_test	13			0		da	1	1002	6	2	antiphase_hc_ios.wav	3	6	6	noise_calib_stim_RIGHT.wav	2	10	blb_dichoticlistening_da-ka.mp3	da	ka	1	left
6.6.1	win	2023-06-27	11:10:00	0	0	5da179412996110016d853d5	1	1	DL_test	14	DL_test	14			0		ba	1	1417	6	2	antiphase_hc_ios.wav	3	6	6	noise_calib_stim_RIGHT.wav	2	6	blb_dichoticlistening_ba-ta.mp3	ba	ta	1	left
6.6.1	win	2023-06-27	11:10:00	0	0	5da179412996110016d853d5	1	1	DL_test	14	DL_test	15			0		pa	1	1050	6	2	antiphase_hc_ios.wav	3	6	6	noise_calib_stim_RIGHT.wav	2	29	blb_dichoticlistening_pa-pa.mp3	pa	pa	0	left
6.6.1	win	2023-06-27	11:10:00	0	0	5da179412996110016d853d5	1	1	DL_test	14	DL_test	16			0		pa	1	1391	6	2	antiphase_hc_ios.wav	3	6	6	noise_calib_stim_RIGHT.wav	2	27	blb_dichoticlistening_pa-ga.mp3	pa	ga	1	left
6.6.1	win	2023-06-27	11:10:00	0	0	5da179412996110016d853d5	1	1	DL_test	14	DL_test	17			0		ga	1	1224	6	2	antiphase_hc_ios.wav	3	6	6	noise_calib_stim_RIGHT.wav	2	18	blb_dichoticlistening_ga-ta.mp3	ga	ta	1	left
6.6.1	win	2023-06-27	11:10:00	0	0	5da179412996110016d853d5	1	1	DL_test	14	DL_test	18			0		ba	1	1199	6	2	antiphase_hc_ios.wav	3	6	6	noise_calib_stim_RIGHT.wav	2	3	blb_dichoticlistening_ba-ga.mp3	ba	ga	1	left
6.6.1	win	2023-06-27	11:10:00	0	0	5da179412996110016d853d5	1	1	DL_test	14	DL_test	19			0		da	1	2040	6	2	antiphase_hc_ios.wav	3	6	6	noise_calib_stim_RIGHT.wav	2	12	blb_dichoticlistening_da-ta.mp3	da	ta	1	left
6.6.1	win	2023-06-27	11:10:00	0	0	5da179412996110016d853d5	1	1	DL_test	14	DL_test	20			0		ka	1	787	6	2	antiphase_hc_ios.wav	3	6	6	noise_calib_stim_RIGHT.wav	2	34	blb_dichoticlistening_ta-ka.mp3	ta	ka	1	right
6.6.1	win	2023-06-27	11:10:00	0	0	5da179412996110016d853d5	1	1	DL_test	14	DL_test	21			0		ta	0	1737	6	2	antiphase_hc_ios.wav	3	6	6	noise_calib_stim_RIGHT.wav	2	20	blb_dichoticlistening_ka-da.mp3	ka	da	1	other
6.6.1	win	2023-06-27	11:10:00	0	0	5da179412996110016d853d5	1	1	DL_test	14	DL_test	22			0		ta	0	1353	6	2	antiphase_hc_ios.wav	3	6	6	noise_calib_stim_RIGHT.wav	2	13	blb_dichoticlistening_ga-ba.mp3	ga	ba	1	other
6.6.1	win	2023-06-27	11:10:00	0	0	5da179412996110016d853d5	1	1	DL_test	14	DL_test	23			0		pa	0	1522	6	2	antiphase_hc_ios.wav	3	6	6	noise_calib_stim_RIGHT.wav	2	4	blb_dichoticlistening_ba-ka.mp3	ba	ka	1	other
6.6.1	win	2023-06-27	11:10:00	0	0	5da179412996110016d853d5	1	1	DL_test	14	DL_test	24			0		ba	1	2204	6	2	antiphase_hc_ios.wav	3	6	6	noise_calib_stim_RIGHT.wav	2	1	blb_dichoticlistening_ba-ba.mp3	ba	ba	0	left
6.6.1	win	2023-06-27	11:10:00	0	0	5da179412996110016d853d5	1	1	DL_test	14	DL_test	25			0		ba	1	1355	6	2	antiphase_hc_ios.wav	3	6	6	noise_calib_stim_RIGHT.wav	2	5	blb_dichoticlistening_ba-pa.mp3	ba	pa	1	left
6.6.1	win	2023-06-27	11:10:00	0	0	5da179412996110016d853d5	1	1	DL_test	14	DL_test	26			0		ta	1	1077	6	2	antiphase_hc_ios.wav	3	6	6	noise_calib_stim_RIGHT.wav	2	31	blb_dichoticlistening_ta-ba.mp3	ta	ba	1	left
6.6.1	win	2023-06-27	11:10:00	0	0	5da179412996110016d853d5	1	1	DL_test	14	DL_test	27			0		da	1	1095	6	2	antiphase_hc_ios.wav	3	6	6	noise_calib_stim_RIGHT.wav	2	7	blb_dichoticlistening_da-ba.mp3	da	ba	1	left
6.6.1	win	2023-06-27	11:10:00	0	0	5da179412996110016d853d5	1	1	DL_test	14	DL_test	28			0		ta	1	1808	6	2	antiphase_hc_ios.wav	3	6	6	noise_calib_stim_RIGHT.wav	2	33	blb_dichoticlistening_ta-ga.mp3	ta	ga	1	left
6.6.1	win	2023-06-27	11:10:00	0	0	5da179412996110016d853d5	1	1	DL_test	14	DL_test	29			0		ga	1	1115	6	2	antiphase_hc_ios.wav	3	6	6	noise_calib_stim_RIGHT.wav	2	17	blb_dichoticlistening_ga-pa.mp3	ga	pa	1	left
6.6.1	win	2023-06-27	11:10:00	0	0	5da179412996110016d853d5	1	1	DL_test	14	DL_test	30			0		pa	1	1131	6	2	antiphase_hc_ios.wav	3	6	6	noise_calib_stim_RIGHT.wav	2	26	blb_dichoticlistening_pa-da.mp3	pa	da	1	left
6.6.1	win	2023-06-27	11:10:00	0	0	5da179412996110016d853d5	1	1	DL_test	14	DL_test	31			0		ta	1	1331	6	2	antiphase_hc_ios.wav	3	6	6	noise_calib_stim_RIGHT.wav	2	32	blb_dichoticlistening_ta-da.mp3	ta	da	1	left
6.6.1	win	2023-06-27	11:10:00	0	0	5da179412996110016d853d5	1	1	DL_test	14	DL_test	32			0		ka	1	1122	6	2	antiphase_hc_ios.wav	3	6	6	noise_calib_stim_RIGHT.wav	2	22	blb_dichoticlistening_ka-ka.mp3	ka	ka	0	left
6.6.1	win	2023-06-27	11:10:00	0	0	5da179412996110016d853d5	1	1	DL_test	14	DL_test	33			0		ka	1	877	6	2	antiphase_hc_ios.wav	3	6	6	noise_calib_stim_RIGHT.wav	2	23	blb_dichoticlistening_ka-pa.mp3	ka	pa	1	left
6.6.1	win	2023-06-27	11:10:00	0	0	5da179412996110016d853d5	1	1	DL_test	14	DL_test	34			0		ka	1	1237	6	2	antiphase_hc_ios.wav	3	6	6	noise_calib_stim_RIGHT.wav	2	24	blb_dichoticlistening_ka-ta.mp3	ka	ta	1	left
6.6.1	win	2023-06-27	11:10:00	0	0	5da179412996110016d853d5	1	1	DL_test	14	DL_test	35			0		pa	1	934	6	2	antiphase_hc_ios.wav	3	6	6	noise_calib_stim_RIGHT.wav	2	30	blb_dichoticlistening_pa-ta.mp3	pa	ta	1	left
6.6.1	win	2023-06-27	11:10:00	0	0	5da179412996110016d853d5	1	1	DL_test	14	DL_test	36			0		ga	1	1060	6	2	antiphase_hc_ios.wav	3	6	6	noise_calib_stim_RIGHT.wav	2	21	blb_dichoticlistening_ka-ga.mp3	ka	ga	1	right
6.6.1	win	2023-06-27	11:10:00	0	0	5da179412996110016d853d5	1	1	DL_test	15	DL_test	1			0		pa	1	1319	6	2	antiphase_hc_ios.wav	3	6	6	noise_calib_stim_RIGHT.wav	2	11	blb_dichoticlistening_da-pa.mp3	da	pa	1	right
6.6.1	win	2023-06-27	11:10:00	0	0	5da179412996110016d853d5	1	1	DL_test	15	DL_test	2			0		da	1	840	6	2	antiphase_hc_ios.wav	3	6	6	noise_calib_stim_RIGHT.wav	2	8	blb_dichoticlistening_da-da.mp3	da	da	0	left
6.6.1	win	2023-06-27	11:10:00	0	0	5da179412996110016d853d5	1	1	DL_test	15	DL_test	3			0		ba	1	1385	6	2	antiphase_hc_ios.wav	3	6	6	noise_calib_stim_RIGHT.wav	2	1	blb_dichoticlistening_ba-ba.mp3	ba	ba	0	left
6.6.1	win	2023-06-27	11:10:00	0	0	5da179412996110016d853d5	1	1	DL_test	15	DL_test	4			0		da	1	1657	6	2	antiphase_hc_ios.wav	3	6	6	noise_calib_stim_RIGHT.wav	2	10	blb_dichoticlistening_da-ka.mp3	da	ka	1	left
6.6.1	win	2023-06-27	11:10:00	0	0	5da179412996110016d853d5	1	1	DL_test	15	DL_test	5			0		ta	1	1222	6	2	antiphase_hc_ios.wav	3	6	6	noise_calib_stim_RIGHT.wav	2	32	blb_dichoticlistening_ta-da.mp3	ta	da	1	left
6.6.1	win	2023-06-27	11:10:00	0	0	5da179412996110016d853d5	1	1	DL_test	15	DL_test	6			0		ta	1	1149	6	2	antiphase_hc_ios.wav	3	6	6	noise_calib_stim_RIGHT.wav	2	24	blb_dichoticlistening_ka-ta.mp3	ka	ta	1	right
6.6.1	win	2023-06-27	11:10:00	0	0	5da179412996110016d853d5	1	1	DL_test	15	DL_test	7			0		ba	1	1379	6	2	antiphase_hc_ios.wav	3	6	6	noise_calib_stim_RIGHT.wav	2	3	blb_dichoticlistening_ba-ga.mp3	ba	ga	1	left
6.6.1	win	2023-06-27	11:10:00	0	0	5da179412996110016d853d5	1	1	DL_test	15	DL_test	8			0		ka	1	1013	6	2	antiphase_hc_ios.wav	3	6	6	noise_calib_stim_RIGHT.wav	2	21	blb_dichoticlistening_ka-ga.mp3	ka	ga	1	left
6.6.1	win	2023-06-27	11:10:00	0	0	5da179412996110016d853d5	1	1	DL_test	15	DL_test	9			0		da	1	1075	6	2	antiphase_hc_ios.wav	3	6	6	noise_calib_stim_RIGHT.wav	2	12	blb_dichoticlistening_da-ta.mp3	da	ta	1	left
6.6.1	win	2023-06-27	11:10:00	0	0	5da179412996110016d853d5	1	1	DL_test	15	DL_test	10			0		pa	1	904	6	2	antiphase_hc_ios.wav	3	6	6	noise_calib_stim_RIGHT.wav	2	29	blb_dichoticlistening_pa-pa.mp3	pa	pa	0	left
6.6.1	win	2023-06-27	11:10:00	0	0	5da179412996110016d853d5	1	1	DL_test	15	DL_test	11			0		pa	1	1514	6	2	antiphase_hc_ios.wav	3	6	6	noise_calib_stim_RIGHT.wav	2	35	blb_dichoticlistening_ta-pa.mp3	ta	pa	1	right
6.6.1	win	2023-06-27	11:10:00	0	0	5da179412996110016d853d5	1	1	DL_test	15	DL_test	12			0		ka	1	945	6	2	antiphase_hc_ios.wav	3	6	6	noise_calib_stim_RIGHT.wav	2	19	blb_dichoticlistening_ka-ba.mp3	ka	ba	1	left
6.6.1	win	2023-06-27	11:10:00	0	0	5da179412996110016d853d5	1	1	DL_test	15	DL_test	13			0		ta	1	1143	6	2	antiphase_hc_ios.wav	3	6	6	noise_calib_stim_RIGHT.wav	2	30	blb_dichoticlistening_pa-ta.mp3	pa	ta	1	right
6.6.1	win	2023-06-27	11:10:00	0	0	5da179412996110016d853d5	1	1	DL_test	15	DL_test	14			0		ka	1	951	6	2	antiphase_hc_ios.wav	3	6	6	noise_calib_stim_RIGHT.wav	2	16	blb_dichoticlistening_ga-ka.mp3	ga	ka	1	right
6.6.1	win	2023-06-27	11:10:00	0	0	5da179412996110016d853d5	1	1	DL_test	15	DL_test	15			0		ga	1	1097	6	2	antiphase_hc_ios.wav	3	6	6	noise_calib_stim_RIGHT.wav	2	18	blb_dichoticlistening_ga-ta.mp3	ga	ta	1	left
6.6.1	win	2023-06-27	11:10:00	0	0	5da179412996110016d853d5	1	1	DL_test	15	DL_test	16			0		ka	1	1228	6	2	antiphase_hc_ios.wav	3	6	6	noise_calib_stim_RIGHT.wav	2	22	blb_dichoticlistening_ka-ka.mp3	ka	ka	0	left
6.6.1	win	2023-06-27	11:10:00	0	0	5da179412996110016d853d5	1	1	DL_test	15	DL_test	17			0		ga	1	683	6	2	antiphase_hc_ios.wav	3	6	6	noise_calib_stim_RIGHT.wav	2	15	blb_dichoticlistening_ga-ga.mp3	ga	ga	0	left
6.6.1	win	2023-06-27	11:10:00	0	0	5da179412996110016d853d5	1	1	DL_test	15	DL_test	18			0		pa	1	857	6	2	antiphase_hc_ios.wav	3	6	6	noise_calib_stim_RIGHT.wav	2	5	blb_dichoticlistening_ba-pa.mp3	ba	pa	1	right
6.6.1	win	2023-06-27	11:10:00	0	0	5da179412996110016d853d5	1	1	DL_test	15	DL_test	19			0		ka	1	893	6	2	antiphase_hc_ios.wav	3	6	6	noise_calib_stim_RIGHT.wav	2	28	blb_dichoticlistening_pa-ka.mp3	pa	ka	1	right
6.6.1	win	2023-06-27	11:10:00	0	0	5da179412996110016d853d5	1	1	DL_test	15	DL_test	20			0		ba	1	1402	6	2	antiphase_hc_ios.wav	3	6	6	noise_calib_stim_RIGHT.wav	2	4	blb_dichoticlistening_ba-ka.mp3	ba	ka	1	left
6.6.1	win	2023-06-27	11:10:00	0	0	5da179412996110016d853d5	1	1	DL_test	15	DL_test	21			0		pa	1	1110	6	2	antiphase_hc_ios.wav	3	6	6	noise_calib_stim_RIGHT.wav	2	25	blb_dichoticlistening_pa-ba.mp3	pa	ba	1	left
6.6.1	win	2023-06-27	11:10:00	0	0	5da179412996110016d853d5	1	1	DL_test	15	DL_test	22			0		ga	1	811	6	2	antiphase_hc_ios.wav	3	6	6	noise_calib_stim_RIGHT.wav	2	14	blb_dichoticlistening_ga-da.mp3	ga	da	1	left
6.6.1	win	2023-06-27	11:10:00	0	0	5da179412996110016d853d5	1	1	DL_test	15	DL_test	23			0		ga	1	762	6	2	antiphase_hc_ios.wav	3	6	6	noise_calib_stim_RIGHT.wav	2	9	blb_dichoticlistening_da-ga.mp3	da	ga	1	right
6.6.1	win	2023-06-27	11:10:00	0	0	5da179412996110016d853d5	1	1	DL_test	15	DL_test	24			0		pa	1	954	6	2	antiphase_hc_ios.wav	3	6	6	noise_calib_stim_RIGHT.wav	2	27	blb_dichoticlistening_pa-ga.mp3	pa	ga	1	left
6.6.1	win	2023-06-27	11:10:00	0	0	5da179412996110016d853d5	1	1	DL_test	15	DL_test	25			0		ka	0	865	6	2	antiphase_hc_ios.wav	3	6	6	noise_calib_stim_RIGHT.wav	2	33	blb_dichoticlistening_ta-ga.mp3	ta	ga	1	other
6.6.1	win	2023-06-27	11:10:00	0	0	5da179412996110016d853d5	1	1	DL_test	15	DL_test	26			0		da	1	1063	6	2	antiphase_hc_ios.wav	3	6	6	noise_calib_stim_RIGHT.wav	2	2	blb_dichoticlistening_ba-da.mp3	ba	da	1	right
6.6.1	win	2023-06-27	11:10:00	0	0	5da179412996110016d853d5	1	1	DL_test	15	DL_test	27			0		ka	1	1051	6	2	antiphase_hc_ios.wav	3	6	6	noise_calib_stim_RIGHT.wav	2	23	blb_dichoticlistening_ka-pa.mp3	ka	pa	1	left
6.6.1	win	2023-06-27	11:10:00	0	0	5da179412996110016d853d5	1	1	DL_test	15	DL_test	28			0		ba	1	1404	6	2	antiphase_hc_ios.wav	3	6	6	noise_calib_stim_RIGHT.wav	2	6	blb_dichoticlistening_ba-ta.mp3	ba	ta	1	left
6.6.1	win	2023-06-27	11:10:00	0	0	5da179412996110016d853d5	1	1	DL_test	15	DL_test	29			0		ta	1	948	6	2	antiphase_hc_ios.wav	3	6	6	noise_calib_stim_RIGHT.wav	2	31	blb_dichoticlistening_ta-ba.mp3	ta	ba	1	left
6.6.1	win	2023-06-27	11:10:00	0	0	5da179412996110016d853d5	1	1	DL_test	15	DL_test	30			0		pa	1	1098	6	2	antiphase_hc_ios.wav	3	6	6	noise_calib_stim_RIGHT.wav	2	26	blb_dichoticlistening_pa-da.mp3	pa	da	1	left
6.6.1	win	2023-06-27	11:10:00	0	0	5da179412996110016d853d5	1	1	DL_test	15	DL_test	31			0		ka	1	821	6	2	antiphase_hc_ios.wav	3	6	6	noise_calib_stim_RIGHT.wav	2	34	blb_dichoticlistening_ta-ka.mp3	ta	ka	1	right
6.6.1	win	2023-06-27	11:10:00	0	0	5da179412996110016d853d5	1	1	DL_test	15	DL_test	32			0		ba	1	1790	6	2	antiphase_hc_ios.wav	3	6	6	noise_calib_stim_RIGHT.wav	2	13	blb_dichoticlistening_ga-ba.mp3	ga	ba	1	right
6.6.1	win	2023-06-27	11:10:00	0	0	5da179412996110016d853d5	1	1	DL_test	15	DL_test	33			0		ka	1	947	6	2	antiphase_hc_ios.wav	3	6	6	noise_calib_stim_RIGHT.wav	2	20	blb_dichoticlistening_ka-da.mp3	ka	da	1	left
6.6.1	win	2023-06-27	11:10:00	0	0	5da179412996110016d853d5	1	1	DL_test	15	DL_test	34			0		ga	1	1206	6	2	antiphase_hc_ios.wav	3	6	6	noise_calib_stim_RIGHT.wav	2	17	blb_dichoticlistening_ga-pa.mp3	ga	pa	1	left
6.6.1	win	2023-06-27	11:10:00	0	0	5da179412996110016d853d5	1	1	DL_test	15	DL_test	35			0		da	1	1020	6	2	antiphase_hc_ios.wav	3	6	6	noise_calib_stim_RIGHT.wav	2	7	blb_dichoticlistening_da-ba.mp3	da	ba	1	left
6.6.1	win	2023-06-27	11:10:00	0	0	5da179412996110016d853d5	1	1	DL_test	15	DL_test	36			0		ta	1	1192	6	2	antiphase_hc_ios.wav	3	6	6	noise_calib_stim_RIGHT.wav	2	36	blb_dichoticlistening_ta-ta.mp3	ta	ta	0	left
6.6.1	win	2023-06-27	11:10:00	0	0	5da179412996110016d853d5	1	1	DL_test	16	DL_test	1			0		ga	1	1447	6	2	antiphase_hc_ios.wav	3	6	6	noise_calib_stim_RIGHT.wav	2	9	blb_dichoticlistening_da-ga.mp3	da	ga	1	right
6.6.1	win	2023-06-27	11:10:00	0	0	5da179412996110016d853d5	1	1	DL_test	16	DL_test	2			0		pa	1	1122	6	2	antiphase_hc_ios.wav	3	6	6	noise_calib_stim_RIGHT.wav	2	30	blb_dichoticlistening_pa-ta.mp3	pa	ta	1	left
6.6.1	win	2023-06-27	11:10:00	0	0	5da179412996110016d853d5	1	1	DL_test	16	DL_test	3			0		ka	1	1089	6	2	antiphase_hc_ios.wav	3	6	6	noise_calib_stim_RIGHT.wav	2	23	blb_dichoticlistening_ka-pa.mp3	ka	pa	1	left
6.6.1	win	2023-06-27	11:10:00	0	0	5da179412996110016d853d5	1	1	DL_test	16	DL_test	4			0		ka	1	795	6	2	antiphase_hc_ios.wav	3	6	6	noise_calib_stim_RIGHT.wav	2	34	blb_dichoticlistening_ta-ka.mp3	ta	ka	1	right
6.6.1	win	2023-06-27	11:10:00	0	0	5da179412996110016d853d5	1	1	DL_test	16	DL_test	5			0		ka	1	1118	6	2	antiphase_hc_ios.wav	3	6	6	noise_calib_stim_RIGHT.wav	2	20	blb_dichoticlistening_ka-da.mp3	ka	da	1	left
6.6.1	win	2023-06-27	11:10:00	0	0	5da179412996110016d853d5	1	1	DL_test	16	DL_test	6			0		ka	1	673	6	2	antiphase_hc_ios.wav	3	6	6	noise_calib_stim_RIGHT.wav	2	22	blb_dichoticlistening_ka-ka.mp3	ka	ka	0	left
6.6.1	win	2023-06-27	11:10:00	0	0	5da179412996110016d853d5	1	1	DL_test	16	DL_test	7			0		pa	1	1006	6	2	antiphase_hc_ios.wav	3	6	6	noise_calib_stim_RIGHT.wav	2	11	blb_dichoticlistening_da-pa.mp3	da	pa	1	right
6.6.1	win	2023-06-27	11:10:00	0	0	5da179412996110016d853d5	1	1	DL_test	16	DL_test	8			0		pa	1	1186	6	2	antiphase_hc_ios.wav	3	6	6	noise_calib_stim_RIGHT.wav	2	26	blb_dichoticlistening_pa-da.mp3	pa	da	1	left
6.6.1	win	2023-06-27	11:10:00	0	0	5da179412996110016d853d5	1	1	DL_test	16	DL_test	9			0		da	1	1276	6	2	antiphase_hc_ios.wav	3	6	6	noise_calib_stim_RIGHT.wav	2	12	blb_dichoticlistening_da-ta.mp3	da	ta	1	left
6.6.1	win	2023-06-27	11:10:00	0	0	5da179412996110016d853d5	1	1	DL_test	16	DL_test	10			0		ba	1	1566	6	2	antiphase_hc_ios.wav	3	6	6	noise_calib_stim_RIGHT.wav	2	2	blb_dichoticlistening_ba-da.mp3	ba	da	1	left
6.6.1	win	2023-06-27	11:10:00	0	0	5da179412996110016d853d5	1	1	DL_test	16	DL_test	11			0		ba	1	848	6	2	antiphase_hc_ios.wav	3	6	6	noise_calib_stim_RIGHT.wav	2	1	blb_dichoticlistening_ba-ba.mp3	ba	ba	0	left
6.6.1	win	2023-06-27	11:10:00	0	0	5da179412996110016d853d5	1	1	DL_test	16	DL_test	12			0		ka	1	1144	6	2	antiphase_hc_ios.wav	3	6	6	noise_calib_stim_RIGHT.wav	2	21	blb_dichoticlistening_ka-ga.mp3	ka	ga	1	left
6.6.1	win	2023-06-27	11:10:00	0	0	5da179412996110016d853d5	1	1	DL_test	16	DL_test	13			0		da	1	1508	6	2	antiphase_hc_ios.wav	3	6	6	noise_calib_stim_RIGHT.wav	2	14	blb_dichoticlistening_ga-da.mp3	ga	da	1	right
6.6.1	win	2023-06-27	11:10:00	0	0	5da179412996110016d853d5	1	1	DL_test	16	DL_test	14			0		pa	1	1341	6	2	antiphase_hc_ios.wav	3	6	6	noise_calib_stim_RIGHT.wav	2	28	blb_dichoticlistening_pa-ka.mp3	pa	ka	1	left
6.6.1	win	2023-06-27	11:10:00	0	0	5da179412996110016d853d5	1	1	DL_test	16	DL_test	15			0		ka	1	749	6	2	antiphase_hc_ios.wav	3	6	6	noise_calib_stim_RIGHT.wav	2	19	blb_dichoticlistening_ka-ba.mp3	ka	ba	1	left
6.6.1	win	2023-06-27	11:10:00	0	0	5da179412996110016d853d5	1	1	DL_test	16	DL_test	16			0		ga	1	776	6	2	antiphase_hc_ios.wav	3	6	6	noise_calib_stim_RIGHT.wav	2	15	blb_dichoticlistening_ga-ga.mp3	ga	ga	0	left
6.6.1	win	2023-06-27	11:10:00	0	0	5da179412996110016d853d5	1	1	DL_test	16	DL_test	17			0		da	1	772	6	2	antiphase_hc_ios.wav	3	6	6	noise_calib_stim_RIGHT.wav	2	8	blb_dichoticlistening_da-da.mp3	da	da	0	left
6.6.1	win	2023-06-27	11:10:00	0	0	5da179412996110016d853d5	1	1	DL_test	16	DL_test	18			0		ta	1	1599	6	2	antiphase_hc_ios.wav	3	6	6	noise_calib_stim_RIGHT.wav	2	6	blb_dichoticlistening_ba-ta.mp3	ba	ta	1	right
6.6.1	win	2023-06-27	11:10:00	0	0	5da179412996110016d853d5	1	1	DL_test	16	DL_test	19			0		pa	0	787	6	2	antiphase_hc_ios.wav	3	6	6	noise_calib_stim_RIGHT.wav	2	24	blb_dichoticlistening_ka-ta.mp3	ka	ta	1	other
6.6.1	win	2023-06-27	11:10:00	0	0	5da179412996110016d853d5	1	1	DL_test	16	DL_test	20			0		ga	1	1219	6	2	antiphase_hc_ios.wav	3	6	6	noise_calib_stim_RIGHT.wav	2	16	blb_dichoticlistening_ga-ka.mp3	ga	ka	1	left
6.6.1	win	2023-06-27	11:10:00	0	0	5da179412996110016d853d5	1	1	DL_test	16	DL_test	21			0		ka	0	649	6	2	antiphase_hc_ios.wav	3	6	6	noise_calib_stim_RIGHT.wav	2	31	blb_dichoticlistening_ta-ba.mp3	ta	ba	1	other
6.6.1	win	2023-06-27	11:10:00	0	0	5da179412996110016d853d5	1	1	DL_test	16	DL_test	22			0		pa	1	658	6	2	antiphase_hc_ios.wav	3	6	6	noise_calib_stim_RIGHT.wav	2	5	blb_dichoticlistening_ba-pa.mp3	ba	pa	1	right
6.6.1	win	2023-06-27	11:10:00	0	0	5da179412996110016d853d5	1	1	DL_test	16	DL_test	23			0		pa	1	844	6	2	antiphase_hc_ios.wav	3	6	6	noise_calib_stim_RIGHT.wav	2	25	blb_dichoticlistening_pa-ba.mp3	pa	ba	1	left
6.6.1	win	2023-06-27	11:10:00	0	0	5da179412996110016d853d5	1	1	DL_test	16	DL_test	24			0		pa	1	857	6	2	antiphase_hc_ios.wav	3	6	6	noise_calib_stim_RIGHT.wav	2	27	blb_dichoticlistening_pa-ga.mp3	pa	ga	1	left
6.6.1	win	2023-06-27	11:10:00	0	0	5da179412996110016d853d5	1	1	DL_test	16	DL_test	25			0		ta	1	901	6	2	antiphase_hc_ios.wav	3	6	6	noise_calib_stim_RIGHT.wav	2	36	blb_dichoticlistening_ta-ta.mp3	ta	ta	0	left
6.6.1	win	2023-06-27	11:10:00	0	0	5da179412996110016d853d5	1	1	DL_test	16	DL_test	26			0		pa	1	1097	6	2	antiphase_hc_ios.wav	3	6	6	noise_calib_stim_RIGHT.wav	2	17	blb_dichoticlistening_ga-pa.mp3	ga	pa	1	right
6.6.1	win	2023-06-27	11:10:00	0	0	5da179412996110016d853d5	1	1	DL_test	16	DL_test	27			0		ba	1	1738	6	2	antiphase_hc_ios.wav	3	6	6	noise_calib_stim_RIGHT.wav	2	4	blb_dichoticlistening_ba-ka.mp3	ba	ka	1	left
6.6.1	win	2023-06-27	11:10:00	0	0	5da179412996110016d853d5	1	1	DL_test	16	DL_test	28			0		ka	0	1160	6	2	antiphase_hc_ios.wav	3	6	6	noise_calib_stim_RIGHT.wav	2	33	blb_dichoticlistening_ta-ga.mp3	ta	ga	1	other
6.6.1	win	2023-06-27	11:10:00	0	0	5da179412996110016d853d5	1	1	DL_test	16	DL_test	29			0		pa	0	1202	6	2	antiphase_hc_ios.wav	3	6	6	noise_calib_stim_RIGHT.wav	2	32	blb_dichoticlistening_ta-da.mp3	ta	da	1	other
6.6.1	win	2023-06-27	11:10:00	0	0	5da179412996110016d853d5	1	1	DL_test	16	DL_test	30			0		pa	0	896	6	2	antiphase_hc_ios.wav	3	6	6	noise_calib_stim_RIGHT.wav	2	10	blb_dichoticlistening_da-ka.mp3	da	ka	1	other
6.6.1	win	2023-06-27	11:10:00	0	0	5da179412996110016d853d5	1	1	DL_test	16	DL_test	31			0		pa	1	647	6	2	antiphase_hc_ios.wav	3	6	6	noise_calib_stim_RIGHT.wav	2	29	blb_dichoticlistening_pa-pa.mp3	pa	pa	0	left
6.6.1	win	2023-06-27	11:10:00	0	0	5da179412996110016d853d5	1	1	DL_test	16	DL_test	32			0		ba	1	1420	6	2	antiphase_hc_ios.wav	3	6	6	noise_calib_stim_RIGHT.wav	2	13	blb_dichoticlistening_ga-ba.mp3	ga	ba	1	right
6.6.1	win	2023-06-27	11:10:00	0	0	5da179412996110016d853d5	1	1	DL_test	16	DL_test	33			0		da	1	767	6	2	antiphase_hc_ios.wav	3	6	6	noise_calib_stim_RIGHT.wav	2	7	blb_dichoticlistening_da-ba.mp3	da	ba	1	left
6.6.1	win	2023-06-27	11:10:00	0	0	5da179412996110016d853d5	1	1	DL_test	16	DL_test	34			0		ga	1	1000	6	2	antiphase_hc_ios.wav	3	6	6	noise_calib_stim_RIGHT.wav	2	18	blb_dichoticlistening_ga-ta.mp3	ga	ta	1	left
6.6.1	win	2023-06-27	11:10:00	0	0	5da179412996110016d853d5	1	1	DL_test	16	DL_test	35			0		ba	1	1502	6	2	antiphase_hc_ios.wav	3	6	6	noise_calib_stim_RIGHT.wav	2	3	blb_dichoticlistening_ba-ga.mp3	ba	ga	1	left
6.6.1	win	2023-06-27	11:10:00	0	0	5da179412996110016d853d5	1	1	DL_test	16	DL_test	36			0		ta	1	1442	6	2	antiphase_hc_ios.wav	3	6	6	noise_calib_stim_RIGHT.wav	2	35	blb_dichoticlistening_ta-pa.mp3	ta	pa	1	left
6.6.1	win	2023-06-27	11:10:00	11:30:53	1248253	5da179412996110016d853d5	1	1	practice_slash	22	practice_slash	1	stimuli_distractor_trianglediamonds.svg	stimuli_target_squarediamonds.svg	11	yes	53	1	1635	6	2	antiphase_hc_ios.wav	3	6	6	noise_calib_stim_RIGHT.wav	2	35	blb_dichoticlistening_ta-pa.mp3	ta	pa	1	left
6.6.1	win	2023-06-27	11:10:00	11:30:53	1248253	5da179412996110016d853d5	1	1	practice_slash	22	advance_on_keypress_SLASH	2	stimuli_distractor_trianglediamonds.svg	stimuli_target_squarediamonds.svg	11	yes	57	0	2187	6	2	antiphase_hc_ios.wav	3	6	6	noise_calib_stim_RIGHT.wav	2	35	blb_dichoticlistening_ta-pa.mp3	ta	pa	1	left
6.6.1	win	2023-06-27	11:10:00	11:30:58	1254082	5da179412996110016d853d5	1	1	practice_slash	22	practice_slash	3	stimuli_distractor_diamondtriangles.svg	stimuli_target_trianglerectangles.svg	9	yes	0	0	2000	6	2	antiphase_hc_ios.wav	3	6	6	noise_calib_stim_RIGHT.wav	2	35	blb_dichoticlistening_ta-pa.mp3	ta	pa	1	left
6.6.1	win	2023-06-27	11:10:00	11:30:58	1254082	5da179412996110016d853d5	1	1	practice_slash	22	advance_on_keypress_SLASH	4	stimuli_distractor_diamondtriangles.svg	stimuli_target_trianglerectangles.svg	9	yes	57	0	772	6	2	antiphase_hc_ios.wav	3	6	6	noise_calib_stim_RIGHT.wav	2	35	blb_dichoticlistening_ta-pa.mp3	ta	pa	1	left
6.6.1	win	2023-06-27	11:10:00	11:31:03	1258499	5da179412996110016d853d5	1	1	practice_slash	22	practice_slash	5	stimuli_distractor_diamondtriangles.svg	stimuli_distractor_diamondtriangles.svg	13	no	0	1	2000	6	2	antiphase_hc_ios.wav	3	6	6	noise_calib_stim_RIGHT.wav	2	35	blb_dichoticlistening_ta-pa.mp3	ta	pa	1	left
6.6.1	win	2023-06-27	11:10:00	11:31:03	1258499	5da179412996110016d853d5	1	1	practice_slash	22	advance_on_keypress_SLASH	6	stimuli_distractor_diamondtriangles.svg	stimuli_distractor_diamondtriangles.svg	13	no	57	0	1023	6	2	antiphase_hc_ios.wav	3	6	6	noise_calib_stim_RIGHT.wav	2	35	blb_dichoticlistening_ta-pa.mp3	ta	pa	1	left
6.6.1	win	2023-06-27	11:10:00	11:31:08	1263165	5da179412996110016d853d5	1	1	practice_slash	22	practice_slash	7	stimuli_distractor_diamondtriangles.svg	stimuli_distractor_trianglediamonds.svg	14	no	0	1	2000	6	2	antiphase_hc_ios.wav	3	6	6	noise_calib_stim_RIGHT.wav	2	35	blb_dichoticlistening_ta-pa.mp3	ta	pa	1	left
6.6.1	win	2023-06-27	11:10:00	11:31:08	1263165	5da179412996110016d853d5	1	1	practice_slash	22	advance_on_keypress_SLASH	8	stimuli_distractor_diamondtriangles.svg	stimuli_distractor_trianglediamonds.svg	14	no	57	0	751	6	2	antiphase_hc_ios.wav	3	6	6	noise_calib_stim_RIGHT.wav	2	35	blb_dichoticlistening_ta-pa.mp3	ta	pa	1	left
6.6.1	win	2023-06-27	11:10:00	11:31:11	1266120	5da179412996110016d853d5	1	1	practice_slash	22	practice_slash	9	stimuli_target_rectanglediamonds.svg	stimuli_distractor_diamondtriangles.svg	1	yes	53	1	556	6	2	antiphase_hc_ios.wav	3	6	6	noise_calib_stim_RIGHT.wav	2	35	blb_dichoticlistening_ta-pa.mp3	ta	pa	1	left
6.6.1	win	2023-06-27	11:10:00	11:31:11	1266120	5da179412996110016d853d5	1	1	practice_slash	22	advance_on_keypress_SLASH	10	stimuli_target_rectanglediamonds.svg	stimuli_distractor_diamondtriangles.svg	1	yes	57	0	1078	6	2	antiphase_hc_ios.wav	3	6	6	noise_calib_stim_RIGHT.wav	2	35	blb_dichoticlistening_ta-pa.mp3	ta	pa	1	left
6.6.1	win	2023-06-27	11:10:00	11:31:14	1269426	5da179412996110016d853d5	1	1	practice_slash	22	practice_slash	11	stimuli_distractor_diamondtriangles.svg	stimuli_target_rectangletriangles.svg	7	yes	53	1	579	6	2	antiphase_hc_ios.wav	3	6	6	noise_calib_stim_RIGHT.wav	2	35	blb_dichoticlistening_ta-pa.mp3	ta	pa	1	left
6.6.1	win	2023-06-27	11:10:00	11:31:14	1269426	5da179412996110016d853d5	1	1	practice_slash	22	advance_on_keypress_SLASH	12	stimuli_distractor_diamondtriangles.svg	stimuli_target_rectangletriangles.svg	7	yes	57	0	701	6	2	antiphase_hc_ios.wav	3	6	6	noise_calib_stim_RIGHT.wav	2	35	blb_dichoticlistening_ta-pa.mp3	ta	pa	1	left
6.6.1	win	2023-06-27	11:10:00	11:31:17	1272603	5da179412996110016d853d5	1	1	practice_slash	22	practice_slash	13	stimuli_distractor_trianglediamonds.svg	stimuli_target_diamondrectangles.svg	12	yes	53	1	823	6	2	antiphase_hc_ios.wav	3	6	6	noise_calib_stim_RIGHT.wav	2	35	blb_dichoticlistening_ta-pa.mp3	ta	pa	1	left
6.6.1	win	2023-06-27	11:10:00	11:31:17	1272603	5da179412996110016d853d5	1	1	practice_slash	22	advance_on_keypress_SLASH	14	stimuli_distractor_trianglediamonds.svg	stimuli_target_diamondrectangles.svg	12	yes	57	0	390	6	2	antiphase_hc_ios.wav	3	6	6	noise_calib_stim_RIGHT.wav	2	35	blb_dichoticlistening_ta-pa.mp3	ta	pa	1	left
6.6.1	win	2023-06-27	11:10:00	11:31:20	1275292	5da179412996110016d853d5	1	1	practice_slash	22	practice_slash	15	stimuli_target_squarediamonds.svg	stimuli_distractor_trianglediamonds.svg	5	yes	53	1	661	6	2	antiphase_hc_ios.wav	3	6	6	noise_calib_stim_RIGHT.wav	2	35	blb_dichoticlistening_ta-pa.mp3	ta	pa	1	left
6.6.1	win	2023-06-27	11:10:00	11:31:20	1275292	5da179412996110016d853d5	1	1	practice_slash	22	advance_on_keypress_SLASH	16	stimuli_target_squarediamonds.svg	stimuli_distractor_trianglediamonds.svg	5	yes	57	0	557	6	2	antiphase_hc_ios.wav	3	6	6	noise_calib_stim_RIGHT.wav	2	35	blb_dichoticlistening_ta-pa.mp3	ta	pa	1	left
6.6.1	win	2023-06-27	11:10:00	11:31:22	1278023	5da179412996110016d853d5	1	1	practice_slash	22	practice_slash	17	stimuli_target_rectanglediamonds.svg	stimuli_distractor_trianglediamonds.svg	4	yes	53	1	527	6	2	antiphase_hc_ios.wav	3	6	6	noise_calib_stim_RIGHT.wav	2	35	blb_dichoticlistening_ta-pa.mp3	ta	pa	1	left
6.6.1	win	2023-06-27	11:10:00	11:31:22	1278023	5da179412996110016d853d5	1	1	practice_slash	22	advance_on_keypress_SLASH	18	stimuli_target_rectanglediamonds.svg	stimuli_distractor_trianglediamonds.svg	4	yes	57	0	390	6	2	antiphase_hc_ios.wav	3	6	6	noise_calib_stim_RIGHT.wav	2	35	blb_dichoticlistening_ta-pa.mp3	ta	pa	1	left
6.6.1	win	2023-06-27	11:10:00	11:31:26	1281190	5da179412996110016d853d5	1	1	practice_slash	22	practice_slash	19	stimuli_target_diamondsquares.svg	stimuli_distractor_trianglediamonds.svg	6	yes	53	1	1129	6	2	antiphase_hc_ios.wav	3	6	6	noise_calib_stim_RIGHT.wav	2	35	blb_dichoticlistening_ta-pa.mp3	ta	pa	1	left
6.6.1	win	2023-06-27	11:10:00	11:31:26	1281190	5da179412996110016d853d5	1	1	practice_slash	22	advance_on_keypress_SLASH	20	stimuli_target_diamondsquares.svg	stimuli_distractor_trianglediamonds.svg	6	yes	57	0	680	6	2	antiphase_hc_ios.wav	3	6	6	noise_calib_stim_RIGHT.wav	2	35	blb_dichoticlistening_ta-pa.mp3	ta	pa	1	left
6.6.1	win	2023-06-27	11:10:00	11:31:28	1284044	5da179412996110016d853d5	1	1	practice_slash	22	practice_slash	21	stimuli_distractor_trianglediamonds.svg	stimuli_target_rectanglediamonds.svg	10	yes	53	1	515	6	2	antiphase_hc_ios.wav	3	6	6	noise_calib_stim_RIGHT.wav	2	35	blb_dichoticlistening_ta-pa.mp3	ta	pa	1	left
6.6.1	win	2023-06-27	11:10:00	11:31:28	1284044	5da179412996110016d853d5	1	1	practice_slash	22	advance_on_keypress_SLASH	22	stimuli_distractor_trianglediamonds.svg	stimuli_target_rectanglediamonds.svg	10	yes	57	0	275	6	2	antiphase_hc_ios.wav	3	6	6	noise_calib_stim_RIGHT.wav	2	35	blb_dichoticlistening_ta-pa.mp3	ta	pa	1	left
6.6.1	win	2023-06-27	11:10:00	11:31:32	1287961	5da179412996110016d853d5	1	1	practice_slash	22	practice_slash	23	stimuli_distractor_trianglediamonds.svg	stimuli_distractor_diamondtriangles.svg	16	no	0	1	2000	6	2	antiphase_hc_ios.wav	3	6	6	noise_calib_stim_RIGHT.wav	2	35	blb_dichoticlistening_ta-pa.mp3	ta	pa	1	left
6.6.1	win	2023-06-27	11:10:00	11:31:32	1287961	5da179412996110016d853d5	1	1	practice_slash	22	advance_on_keypress_SLASH	24	stimuli_distractor_trianglediamonds.svg	stimuli_distractor_diamondtriangles.svg	16	no	57	0	852	6	2	antiphase_hc_ios.wav	3	6	6	noise_calib_stim_RIGHT.wav	2	35	blb_dichoticlistening_ta-pa.mp3	ta	pa	1	left
6.6.1	win	2023-06-27	11:10:00	11:31:37	1292461	5da179412996110016d853d5	1	1	practice_slash	22	practice_slash	25	stimuli_distractor_trianglediamonds.svg	stimuli_distractor_trianglediamonds.svg	15	no	0	1	2000	6	2	antiphase_hc_ios.wav	3	6	6	noise_calib_stim_RIGHT.wav	2	35	blb_dichoticlistening_ta-pa.mp3	ta	pa	1	left
6.6.1	win	2023-06-27	11:10:00	11:31:37	1292461	5da179412996110016d853d5	1	1	practice_slash	22	advance_on_keypress_SLASH	26	stimuli_distractor_trianglediamonds.svg	stimuli_distractor_trianglediamonds.svg	15	no	57	0	642	6	2	antiphase_hc_ios.wav	3	6	6	noise_calib_stim_RIGHT.wav	2	35	blb_dichoticlistening_ta-pa.mp3	ta	pa	1	left
6.6.1	win	2023-06-27	11:10:00	11:31:40	1295870	5da179412996110016d853d5	1	1	practice_slash	22	practice_slash	27	stimuli_target_squarediamonds.svg	stimuli_distractor_diamondtriangles.svg	2	yes	53	1	1126	6	2	antiphase_hc_ios.wav	3	6	6	noise_calib_stim_RIGHT.wav	2	35	blb_dichoticlistening_ta-pa.mp3	ta	pa	1	left
6.6.1	win	2023-06-27	11:10:00	11:31:40	1295870	5da179412996110016d853d5	1	1	practice_slash	22	advance_on_keypress_SLASH	28	stimuli_target_squarediamonds.svg	stimuli_distractor_diamondtriangles.svg	2	yes	57	0	556	6	2	antiphase_hc_ios.wav	3	6	6	noise_calib_stim_RIGHT.wav	2	35	blb_dichoticlistening_ta-pa.mp3	ta	pa	1	left
6.6.1	win	2023-06-27	11:10:00	11:31:43	1298854	5da179412996110016d853d5	1	1	practice_slash	22	practice_slash	29	stimuli_distractor_diamondtriangles.svg	stimuli_target_diamondrectangles.svg	8	yes	53	1	795	6	2	antiphase_hc_ios.wav	3	6	6	noise_calib_stim_RIGHT.wav	2	35	blb_dichoticlistening_ta-pa.mp3	ta	pa	1	left
6.6.1	win	2023-06-27	11:10:00	11:31:43	1298854	5da179412996110016d853d5	1	1	practice_slash	22	advance_on_keypress_SLASH	30	stimuli_distractor_diamondtriangles.svg	stimuli_target_diamondrectangles.svg	8	yes	57	0	811	6	2	antiphase_hc_ios.wav	3	6	6	noise_calib_stim_RIGHT.wav	2	35	blb_dichoticlistening_ta-pa.mp3	ta	pa	1	left
6.6.1	win	2023-06-27	11:10:00	11:31:47	1302307	5da179412996110016d853d5	1	1	practice_slash	22	practice_slash	31	stimuli_target_diamondsquares.svg	stimuli_distractor_diamondtriangles.svg	3	yes	53	1	981	6	2	antiphase_hc_ios.wav	3	6	6	noise_calib_stim_RIGHT.wav	2	35	blb_dichoticlistening_ta-pa.mp3	ta	pa	1	left
6.6.1	win	2023-06-27	11:10:00	11:31:47	1302307	5da179412996110016d853d5	1	1	practice_slash	22	advance_on_keypress_SLASH	32	stimuli_target_diamondsquares.svg	stimuli_distractor_diamondtriangles.svg	3	yes	57	0	515	6	2	antiphase_hc_ios.wav	3	6	6	noise_calib_stim_RIGHT.wav	2	35	blb_dichoticlistening_ta-pa.mp3	ta	pa	1	left
6.6.1	win	2023-06-27	11:10:00	11:31:55	1310827	5da179412996110016d853d5	1	1	main_slash	24	main_slash	1	stimuli_distractor_diamondtriangles.svg	stimuli_distractor_trianglediamonds.svg	38	no	0	1	2000	6	2	antiphase_hc_ios.wav	3	6	6	noise_calib_stim_RIGHT.wav	2	35	blb_dichoticlistening_ta-pa.mp3	ta	pa	1	left
6.6.1	win	2023-06-27	11:10:00	11:31:55	1310827	5da179412996110016d853d5	1	1	main_slash	24	advance_on_keypress_SLASH	2	stimuli_distractor_diamondtriangles.svg	stimuli_distractor_trianglediamonds.svg	38	no	57	0	840	6	2	antiphase_hc_ios.wav	3	6	6	noise_calib_stim_RIGHT.wav	2	35	blb_dichoticlistening_ta-pa.mp3	ta	pa	1	left
6.6.1	win	2023-06-27	11:10:00	11:31:59	1314307	5da179412996110016d853d5	1	1	main_slash	24	main_slash	3	stimuli_distractor_diamondtriangles.svg	stimuli_distractor_trianglediamonds.svg	37	no	0	1	2000	6	2	antiphase_hc_ios.wav	3	6	6	noise_calib_stim_RIGHT.wav	2	35	blb_dichoticlistening_ta-pa.mp3	ta	pa	1	left
6.6.1	win	2023-06-27	11:10:00	11:31:59	1314307	5da179412996110016d853d5	1	1	main_slash	24	advance_on_keypress_SLASH	4	stimuli_distractor_diamondtriangles.svg	stimuli_distractor_trianglediamonds.svg	37	no	57	0	581	6	2	antiphase_hc_ios.wav	3	6	6	noise_calib_stim_RIGHT.wav	2	35	blb_dichoticlistening_ta-pa.mp3	ta	pa	1	left
6.6.1	win	2023-06-27	11:10:00	11:32:01	1316428	5da179412996110016d853d5	1	1	main_slash	24	main_slash	5	stimuli_target_squarediamonds.svg	stimuli_distractor_trianglediamonds.svg	4	yes	53	1	888	6	2	antiphase_hc_ios.wav	3	6	6	noise_calib_stim_RIGHT.wav	2	35	blb_dichoticlistening_ta-pa.mp3	ta	pa	1	left
6.6.1	win	2023-06-27	11:10:00	11:32:01	1316428	5da179412996110016d853d5	1	1	main_slash	24	advance_on_keypress_SLASH	6	stimuli_target_squarediamonds.svg	stimuli_distractor_trianglediamonds.svg	4	yes	57	0	1041	6	2	antiphase_hc_ios.wav	3	6	6	noise_calib_stim_RIGHT.wav	2	35	blb_dichoticlistening_ta-pa.mp3	ta	pa	1	left
6.6.1	win	2023-06-27	11:10:00	11:32:05	1320106	5da179412996110016d853d5	1	1	main_slash	24	main_slash	7	stimuli_distractor_diamondtriangles.svg	stimuli_distractor_diamondtriangles.svg	40	no	0	1	2000	6	2	antiphase_hc_ios.wav	3	6	6	noise_calib_stim_RIGHT.wav	2	35	blb_dichoticlistening_ta-pa.mp3	ta	pa	1	left
6.6.1	win	2023-06-27	11:10:00	11:32:05	1320106	5da179412996110016d853d5	1	1	main_slash	24	advance_on_keypress_SLASH	8	stimuli_distractor_diamondtriangles.svg	stimuli_distractor_diamondtriangles.svg	40	no	57	0	287	6	2	antiphase_hc_ios.wav	3	6	6	noise_calib_stim_RIGHT.wav	2	35	blb_dichoticlistening_ta-pa.mp3	ta	pa	1	left
6.6.1	win	2023-06-27	11:10:00	11:32:07	1323039	5da179412996110016d853d5	1	1	main_slash	24	main_slash	9	stimuli_distractor_trianglediamonds.svg	stimuli_distractor_trianglediamonds.svg	33	no	0	1	2000	6	2	antiphase_hc_ios.wav	3	6	6	noise_calib_stim_RIGHT.wav	2	35	blb_dichoticlistening_ta-pa.mp3	ta	pa	1	left
6.6.1	win	2023-06-27	11:10:00	11:32:07	1323039	5da179412996110016d853d5	1	1	main_slash	24	advance_on_keypress_SLASH	10	stimuli_distractor_trianglediamonds.svg	stimuli_distractor_trianglediamonds.svg	33	no	57	0	305	6	2	antiphase_hc_ios.wav	3	6	6	noise_calib_stim_RIGHT.wav	2	35	blb_dichoticlistening_ta-pa.mp3	ta	pa	1	left
6.6.1	win	2023-06-27	11:10:00	11:32:09	1325103	5da179412996110016d853d5	1	1	main_slash	24	main_slash	11	stimuli_distractor_diamondtriangles.svg	stimuli_target_diamondsquares.svg	32	yes	53	1	1114	6	2	antiphase_hc_ios.wav	3	6	6	noise_calib_stim_RIGHT.wav	2	35	blb_dichoticlistening_ta-pa.mp3	ta	pa	1	left
6.6.1	win	2023-06-27	11:10:00	11:32:09	1325103	5da179412996110016d853d5	1	1	main_slash	24	advance_on_keypress_SLASH	12	stimuli_distractor_diamondtriangles.svg	stimuli_target_diamondsquares.svg	32	yes	57	0	1016	6	2	antiphase_hc_ios.wav	3	6	6	noise_calib_stim_RIGHT.wav	2	35	blb_dichoticlistening_ta-pa.mp3	ta	pa	1	left
6.6.1	win	2023-06-27	11:10:00	11:32:12	1327876	5da179412996110016d853d5	1	1	main_slash	24	main_slash	13	stimuli_target_diamondsquares.svg	stimuli_distractor_trianglediamonds.svg	20	yes	53	1	1105	6	2	antiphase_hc_ios.wav	3	6	6	noise_calib_stim_RIGHT.wav	2	35	blb_dichoticlistening_ta-pa.mp3	ta	pa	1	left
6.6.1	win	2023-06-27	11:10:00	11:32:12	1327876	5da179412996110016d853d5	1	1	main_slash	24	advance_on_keypress_SLASH	14	stimuli_target_diamondsquares.svg	stimuli_distractor_trianglediamonds.svg	20	yes	57	0	395	6	2	antiphase_hc_ios.wav	3	6	6	noise_calib_stim_RIGHT.wav	2	35	blb_dichoticlistening_ta-pa.mp3	ta	pa	1	left
6.6.1	win	2023-06-27	11:10:00	11:32:14	1330051	5da179412996110016d853d5	1	1	main_slash	24	main_slash	15	stimuli_target_rectangletriangles.svg	stimuli_distractor_trianglediamonds.svg	1	yes	53	1	1129	6	2	antiphase_hc_ios.wav	3	6	6	noise_calib_stim_RIGHT.wav	2	35	blb_dichoticlistening_ta-pa.mp3	ta	pa	1	left
6.6.1	win	2023-06-27	11:10:00	11:32:14	1330051	5da179412996110016d853d5	1	1	main_slash	24	advance_on_keypress_SLASH	16	stimuli_target_rectangletriangles.svg	stimuli_distractor_trianglediamonds.svg	1	yes	57	0	279	6	2	antiphase_hc_ios.wav	3	6	6	noise_calib_stim_RIGHT.wav	2	35	blb_dichoticlistening_ta-pa.mp3	ta	pa	1	left
6.6.1	win	2023-06-27	11:10:00	11:32:16	1331655	5da179412996110016d853d5	1	1	main_slash	24	main_slash	17	stimuli_distractor_trianglediamonds.svg	stimuli_target_rectangletriangles.svg	9	yes	53	1	667	6	2	antiphase_hc_ios.wav	3	6	6	noise_calib_stim_RIGHT.wav	2	35	blb_dichoticlistening_ta-pa.mp3	ta	pa	1	left
6.6.1	win	2023-06-27	11:10:00	11:32:16	1331655	5da179412996110016d853d5	1	1	main_slash	24	advance_on_keypress_SLASH	18	stimuli_distractor_trianglediamonds.svg	stimuli_target_rectangletriangles.svg	9	yes	57	0	352	6	2	antiphase_hc_ios.wav	3	6	6	noise_calib_stim_RIGHT.wav	2	35	blb_dichoticlistening_ta-pa.mp3	ta	pa	1	left
6.6.1	win	2023-06-27	11:10:00	11:32:19	1334654	5da179412996110016d853d5	1	1	main_slash	24	main_slash	19	stimuli_target_trianglerectangles.svg	stimuli_distractor_trianglediamonds.svg	17	yes	0	0	2000	6	2	antiphase_hc_ios.wav	3	6	6	noise_calib_stim_RIGHT.wav	2	35	blb_dichoticlistening_ta-pa.mp3	ta	pa	1	left
6.6.1	win	2023-06-27	11:10:00	11:32:19	1334654	5da179412996110016d853d5	1	1	main_slash	24	advance_on_keypress_SLASH	20	stimuli_target_trianglerectangles.svg	stimuli_distractor_trianglediamonds.svg	17	yes	57	0	316	6	2	antiphase_hc_ios.wav	3	6	6	noise_calib_stim_RIGHT.wav	2	35	blb_dichoticlistening_ta-pa.mp3	ta	pa	1	left
6.6.1	win	2023-06-27	11:10:00	11:32:22	1337212	5da179412996110016d853d5	1	1	main_slash	24	main_slash	21	stimuli_distractor_diamondtriangles.svg	stimuli_target_trianglerectangles.svg	29	yes	53	1	1591	6	2	antiphase_hc_ios.wav	3	6	6	noise_calib_stim_RIGHT.wav	2	35	blb_dichoticlistening_ta-pa.mp3	ta	pa	1	left
6.6.1	win	2023-06-27	11:10:00	11:32:22	1337212	5da179412996110016d853d5	1	1	main_slash	24	advance_on_keypress_SLASH	22	stimuli_distractor_diamondtriangles.svg	stimuli_target_trianglerectangles.svg	29	yes	57	0	458	6	2	antiphase_hc_ios.wav	3	6	6	noise_calib_stim_RIGHT.wav	2	35	blb_dichoticlistening_ta-pa.mp3	ta	pa	1	left
6.6.1	win	2023-06-27	11:10:00	11:32:23	1339075	5da179412996110016d853d5	1	1	main_slash	24	main_slash	23	stimuli_distractor_trianglediamonds.svg	stimuli_target_rectanglediamonds.svg	10	yes	53	1	771	6	2	antiphase_hc_ios.wav	3	6	6	noise_calib_stim_RIGHT.wav	2	35	blb_dichoticlistening_ta-pa.mp3	ta	pa	1	left
6.6.1	win	2023-06-27	11:10:00	11:32:23	1339075	5da179412996110016d853d5	1	1	main_slash	24	advance_on_keypress_SLASH	24	stimuli_distractor_trianglediamonds.svg	stimuli_target_rectanglediamonds.svg	10	yes	57	0	913	6	2	antiphase_hc_ios.wav	3	6	6	noise_calib_stim_RIGHT.wav	2	35	blb_dichoticlistening_ta-pa.mp3	ta	pa	1	left
6.6.1	win	2023-06-27	11:10:00	11:32:26	1341855	5da179412996110016d853d5	1	1	main_slash	24	main_slash	25	stimuli_target_squaretriangles.svg	stimuli_distractor_diamondtriangles.svg	7	yes	53	1	1218	6	2	antiphase_hc_ios.wav	3	6	6	noise_calib_stim_RIGHT.wav	2	35	blb_dichoticlistening_ta-pa.mp3	ta	pa	1	left
6.6.1	win	2023-06-27	11:10:00	11:32:26	1341855	5da179412996110016d853d5	1	1	main_slash	24	advance_on_keypress_SLASH	26	stimuli_target_squaretriangles.svg	stimuli_distractor_diamondtriangles.svg	7	yes	57	0	291	6	2	antiphase_hc_ios.wav	3	6	6	noise_calib_stim_RIGHT.wav	2	35	blb_dichoticlistening_ta-pa.mp3	ta	pa	1	left
6.6.1	win	2023-06-27	11:10:00	11:32:28	1343976	5da179412996110016d853d5	1	1	main_slash	24	main_slash	27	stimuli_distractor_trianglediamonds.svg	stimuli_target_diamondrectangles.svg	27	yes	53	1	1190	6	2	antiphase_hc_ios.wav	3	6	6	noise_calib_stim_RIGHT.wav	2	35	blb_dichoticlistening_ta-pa.mp3	ta	pa	1	left
6.6.1	win	2023-06-27	11:10:00	11:32:28	1343976	5da179412996110016d853d5	1	1	main_slash	24	advance_on_keypress_SLASH	28	stimuli_distractor_trianglediamonds.svg	stimuli_target_diamondrectangles.svg	27	yes	57	0	288	6	2	antiphase_hc_ios.wav	3	6	6	noise_calib_stim_RIGHT.wav	2	35	blb_dichoticlistening_ta-pa.mp3	ta	pa	1	left
6.6.1	win	2023-06-27	11:10:00	11:32:31	1346903	5da179412996110016d853d5	1	1	main_slash	24	main_slash	29	stimuli_distractor_diamondtriangles.svg	stimuli_distractor_diamondtriangles.svg	39	no	0	1	2000	6	2	antiphase_hc_ios.wav	3	6	6	noise_calib_stim_RIGHT.wav	2	35	blb_dichoticlistening_ta-pa.mp3	ta	pa	1	left
6.6.1	win	2023-06-27	11:10:00	11:32:31	1346903	5da179412996110016d853d5	1	1	main_slash	24	advance_on_keypress_SLASH	30	stimuli_distractor_diamondtriangles.svg	stimuli_distractor_diamondtriangles.svg	39	no	57	0	235	6	2	antiphase_hc_ios.wav	3	6	6	noise_calib_stim_RIGHT.wav	2	35	blb_dichoticlistening_ta-pa.mp3	ta	pa	1	left
6.6.1	win	2023-06-27	11:10:00	11:32:33	1348761	5da179412996110016d853d5	1	1	main_slash	24	main_slash	31	stimuli_distractor_trianglediamonds.svg	stimuli_target_diamondsquares.svg	28	yes	53	1	975	6	2	antiphase_hc_ios.wav	3	6	6	noise_calib_stim_RIGHT.wav	2	35	blb_dichoticlistening_ta-pa.mp3	ta	pa	1	left
6.6.1	win	2023-06-27	11:10:00	11:32:33	1348761	5da179412996110016d853d5	1	1	main_slash	24	advance_on_keypress_SLASH	32	stimuli_distractor_trianglediamonds.svg	stimuli_target_diamondsquares.svg	28	yes	57	0	445	6	2	antiphase_hc_ios.wav	3	6	6	noise_calib_stim_RIGHT.wav	2	35	blb_dichoticlistening_ta-pa.mp3	ta	pa	1	left
6.6.1	win	2023-06-27	11:10:00	11:32:35	1350963	5da179412996110016d853d5	1	1	main_slash	24	main_slash	33	stimuli_target_trianglesquares.svg	stimuli_distractor_diamondtriangles.svg	22	yes	53	1	1112	6	2	antiphase_hc_ios.wav	3	6	6	noise_calib_stim_RIGHT.wav	2	35	blb_dichoticlistening_ta-pa.mp3	ta	pa	1	left
6.6.1	win	2023-06-27	11:10:00	11:32:35	1350963	5da179412996110016d853d5	1	1	main_slash	24	advance_on_keypress_SLASH	34	stimuli_target_trianglesquares.svg	stimuli_distractor_diamondtriangles.svg	22	yes	57	0	277	6	2	antiphase_hc_ios.wav	3	6	6	noise_calib_stim_RIGHT.wav	2	35	blb_dichoticlistening_ta-pa.mp3	ta	pa	1	left
6.6.1	win	2023-06-27	11:10:00	11:32:38	1353583	5da179412996110016d853d5	1	1	main_slash	24	main_slash	35	stimuli_distractor_trianglediamonds.svg	stimuli_distractor_diamondtriangles.svg	36	no	53	0	1714	6	2	antiphase_hc_ios.wav	3	6	6	noise_calib_stim_RIGHT.wav	2	35	blb_dichoticlistening_ta-pa.mp3	ta	pa	1	left
6.6.1	win	2023-06-27	11:10:00	11:32:38	1353583	5da179412996110016d853d5	1	1	main_slash	24	advance_on_keypress_SLASH	36	stimuli_distractor_trianglediamonds.svg	stimuli_distractor_diamondtriangles.svg	36	no	57	0	243	6	2	antiphase_hc_ios.wav	3	6	6	noise_calib_stim_RIGHT.wav	2	35	blb_dichoticlistening_ta-pa.mp3	ta	pa	1	left
6.6.1	win	2023-06-27	11:10:00	11:32:40	1355768	5da179412996110016d853d5	1	1	main_slash	24	main_slash	37	stimuli_distractor_diamondtriangles.svg	stimuli_target_rectanglediamonds.svg	14	yes	53	1	1300	6	2	antiphase_hc_ios.wav	3	6	6	noise_calib_stim_RIGHT.wav	2	35	blb_dichoticlistening_ta-pa.mp3	ta	pa	1	left
6.6.1	win	2023-06-27	11:10:00	11:32:40	1355768	5da179412996110016d853d5	1	1	main_slash	24	advance_on_keypress_SLASH	38	stimuli_distractor_diamondtriangles.svg	stimuli_target_rectanglediamonds.svg	14	yes	57	0	357	6	2	antiphase_hc_ios.wav	3	6	6	noise_calib_stim_RIGHT.wav	2	35	blb_dichoticlistening_ta-pa.mp3	ta	pa	1	left
6.6.1	win	2023-06-27	11:10:00	11:32:42	1357798	5da179412996110016d853d5	1	1	main_slash	24	main_slash	39	stimuli_target_trianglerectangles.svg	stimuli_distractor_diamondtriangles.svg	21	yes	53	1	1030	6	2	antiphase_hc_ios.wav	3	6	6	noise_calib_stim_RIGHT.wav	2	35	blb_dichoticlistening_ta-pa.mp3	ta	pa	1	left
6.6.1	win	2023-06-27	11:10:00	11:32:42	1357798	5da179412996110016d853d5	1	1	main_slash	24	advance_on_keypress_SLASH	40	stimuli_target_trianglerectangles.svg	stimuli_distractor_diamondtriangles.svg	21	yes	57	0	269	6	2	antiphase_hc_ios.wav	3	6	6	noise_calib_stim_RIGHT.wav	2	35	blb_dichoticlistening_ta-pa.mp3	ta	pa	1	left
6.6.1	win	2023-06-27	11:10:00	11:32:44	1359476	5da179412996110016d853d5	1	1	main_slash	24	main_slash	41	stimuli_distractor_trianglediamonds.svg	stimuli_target_squaretriangles.svg	11	yes	53	1	759	6	2	antiphase_hc_ios.wav	3	6	6	noise_calib_stim_RIGHT.wav	2	35	blb_dichoticlistening_ta-pa.mp3	ta	pa	1	left
6.6.1	win	2023-06-27	11:10:00	11:32:44	1359476	5da179412996110016d853d5	1	1	main_slash	24	advance_on_keypress_SLASH	42	stimuli_distractor_trianglediamonds.svg	stimuli_target_squaretriangles.svg	11	yes	57	0	393	6	2	antiphase_hc_ios.wav	3	6	6	noise_calib_stim_RIGHT.wav	2	35	blb_dichoticlistening_ta-pa.mp3	ta	pa	1	left
6.6.1	win	2023-06-27	11:10:00	11:32:45	1361076	5da179412996110016d853d5	1	1	main_slash	24	main_slash	43	stimuli_target_squarediamonds.svg	stimuli_distractor_diamondtriangles.svg	8	yes	53	1	575	6	2	antiphase_hc_ios.wav	3	6	6	noise_calib_stim_RIGHT.wav	2	35	blb_dichoticlistening_ta-pa.mp3	ta	pa	1	left
6.6.1	win	2023-06-27	11:10:00	11:32:45	1361076	5da179412996110016d853d5	1	1	main_slash	24	advance_on_keypress_SLASH	44	stimuli_target_squarediamonds.svg	stimuli_distractor_diamondtriangles.svg	8	yes	57	0	346	6	2	antiphase_hc_ios.wav	3	6	6	noise_calib_stim_RIGHT.wav	2	35	blb_dichoticlistening_ta-pa.mp3	ta	pa	1	left
6.6.1	win	2023-06-27	11:10:00	11:32:47	1362642	5da179412996110016d853d5	1	1	main_slash	24	main_slash	45	stimuli_target_rectanglediamonds.svg	stimuli_distractor_diamondtriangles.svg	6	yes	53	1	575	6	2	antiphase_hc_ios.wav	3	6	6	noise_calib_stim_RIGHT.wav	2	35	blb_dichoticlistening_ta-pa.mp3	ta	pa	1	left
6.6.1	win	2023-06-27	11:10:00	11:32:47	1362642	5da179412996110016d853d5	1	1	main_slash	24	advance_on_keypress_SLASH	46	stimuli_target_rectanglediamonds.svg	stimuli_distractor_diamondtriangles.svg	6	yes	57	0	403	6	2	antiphase_hc_ios.wav	3	6	6	noise_calib_stim_RIGHT.wav	2	35	blb_dichoticlistening_ta-pa.mp3	ta	pa	1	left
6.6.1	win	2023-06-27	11:10:00	11:32:49	1364413	5da179412996110016d853d5	1	1	main_slash	24	main_slash	47	stimuli_target_trianglesquares.svg	stimuli_distractor_trianglediamonds.svg	18	yes	53	1	729	6	2	antiphase_hc_ios.wav	3	6	6	noise_calib_stim_RIGHT.wav	2	35	blb_dichoticlistening_ta-pa.mp3	ta	pa	1	left
6.6.1	win	2023-06-27	11:10:00	11:32:49	1364413	5da179412996110016d853d5	1	1	main_slash	24	advance_on_keypress_SLASH	48	stimuli_target_trianglesquares.svg	stimuli_distractor_trianglediamonds.svg	18	yes	57	0	292	6	2	antiphase_hc_ios.wav	3	6	6	noise_calib_stim_RIGHT.wav	2	35	blb_dichoticlistening_ta-pa.mp3	ta	pa	1	left
6.6.1	win	2023-06-27	11:10:00	11:32:50	1365927	5da179412996110016d853d5	1	1	main_slash	24	main_slash	49	stimuli_target_diamondsquares.svg	stimuli_distractor_diamondtriangles.svg	24	yes	53	1	577	6	2	antiphase_hc_ios.wav	3	6	6	noise_calib_stim_RIGHT.wav	2	35	blb_dichoticlistening_ta-pa.mp3	ta	pa	1	left
6.6.1	win	2023-06-27	11:10:00	11:32:50	1365927	5da179412996110016d853d5	1	1	main_slash	24	advance_on_keypress_SLASH	50	stimuli_target_diamondsquares.svg	stimuli_distractor_diamondtriangles.svg	24	yes	57	0	349	6	2	antiphase_hc_ios.wav	3	6	6	noise_calib_stim_RIGHT.wav	2	35	blb_dichoticlistening_ta-pa.mp3	ta	pa	1	left
6.6.1	win	2023-06-27	11:10:00	11:32:52	1367433	5da179412996110016d853d5	1	1	main_slash	24	main_slash	51	stimuli_distractor_diamondtriangles.svg	stimuli_target_rectangletriangles.svg	13	yes	53	1	512	6	2	antiphase_hc_ios.wav	3	6	6	noise_calib_stim_RIGHT.wav	2	35	blb_dichoticlistening_ta-pa.mp3	ta	pa	1	left
6.6.1	win	2023-06-27	11:10:00	11:32:52	1367433	5da179412996110016d853d5	1	1	main_slash	24	advance_on_keypress_SLASH	52	stimuli_distractor_diamondtriangles.svg	stimuli_target_rectangletriangles.svg	13	yes	57	0	377	6	2	antiphase_hc_ios.wav	3	6	6	noise_calib_stim_RIGHT.wav	2	35	blb_dichoticlistening_ta-pa.mp3	ta	pa	1	left
6.6.1	win	2023-06-27	11:10:00	11:32:55	1370450	5da179412996110016d853d5	1	1	main_slash	24	main_slash	53	stimuli_distractor_trianglediamonds.svg	stimuli_distractor_diamondtriangles.svg	35	no	0	1	2000	6	2	antiphase_hc_ios.wav	3	6	6	noise_calib_stim_RIGHT.wav	2	35	blb_dichoticlistening_ta-pa.mp3	ta	pa	1	left
6.6.1	win	2023-06-27	11:10:00	11:32:55	1370450	5da179412996110016d853d5	1	1	main_slash	24	advance_on_keypress_SLASH	54	stimuli_distractor_trianglediamonds.svg	stimuli_distractor_diamondtriangles.svg	35	no	57	0	331	6	2	antiphase_hc_ios.wav	3	6	6	noise_calib_stim_RIGHT.wav	2	35	blb_dichoticlistening_ta-pa.mp3	ta	pa	1	left
6.6.1	win	2023-06-27	11:10:00	11:32:58	1373434	5da179412996110016d853d5	1	1	main_slash	24	main_slash	55	stimuli_distractor_trianglediamonds.svg	stimuli_distractor_trianglediamonds.svg	34	no	0	1	2000	6	2	antiphase_hc_ios.wav	3	6	6	noise_calib_stim_RIGHT.wav	2	35	blb_dichoticlistening_ta-pa.mp3	ta	pa	1	left
6.6.1	win	2023-06-27	11:10:00	11:32:58	1373434	5da179412996110016d853d5	1	1	main_slash	24	advance_on_keypress_SLASH	56	stimuli_distractor_trianglediamonds.svg	stimuli_distractor_trianglediamonds.svg	34	no	57	0	400	6	2	antiphase_hc_ios.wav	3	6	6	noise_calib_stim_RIGHT.wav	2	35	blb_dichoticlistening_ta-pa.mp3	ta	pa	1	left
6.6.1	win	2023-06-27	11:10:00	11:33:00	1375219	5da179412996110016d853d5	1	1	main_slash	24	main_slash	57	stimuli_distractor_diamondtriangles.svg	stimuli_target_squarediamonds.svg	16	yes	53	1	737	6	2	antiphase_hc_ios.wav	3	6	6	noise_calib_stim_RIGHT.wav	2	35	blb_dichoticlistening_ta-pa.mp3	ta	pa	1	left
6.6.1	win	2023-06-27	11:10:00	11:33:00	1375219	5da179412996110016d853d5	1	1	main_slash	24	advance_on_keypress_SLASH	58	stimuli_distractor_diamondtriangles.svg	stimuli_target_squarediamonds.svg	16	yes	57	0	247	6	2	antiphase_hc_ios.wav	3	6	6	noise_calib_stim_RIGHT.wav	2	35	blb_dichoticlistening_ta-pa.mp3	ta	pa	1	left
6.6.1	win	2023-06-27	11:10:00	11:33:01	1376798	5da179412996110016d853d5	1	1	main_slash	24	main_slash	59	stimuli_distractor_diamondtriangles.svg	stimuli_target_squaretriangles.svg	15	yes	53	1	682	6	2	antiphase_hc_ios.wav	3	6	6	noise_calib_stim_RIGHT.wav	2	35	blb_dichoticlistening_ta-pa.mp3	ta	pa	1	left
6.6.1	win	2023-06-27	11:10:00	11:33:01	1376798	5da179412996110016d853d5	1	1	main_slash	24	advance_on_keypress_SLASH	60	stimuli_distractor_diamondtriangles.svg	stimuli_target_squaretriangles.svg	15	yes	57	0	222	6	2	antiphase_hc_ios.wav	3	6	6	noise_calib_stim_RIGHT.wav	2	35	blb_dichoticlistening_ta-pa.mp3	ta	pa	1	left
6.6.1	win	2023-06-27	11:10:00	11:33:03	1378595	5da179412996110016d853d5	1	1	main_slash	24	main_slash	61	stimuli_distractor_trianglediamonds.svg	stimuli_target_trianglerectangles.svg	25	yes	53	1	930	6	2	antiphase_hc_ios.wav	3	6	6	noise_calib_stim_RIGHT.wav	2	35	blb_dichoticlistening_ta-pa.mp3	ta	pa	1	left
6.6.1	win	2023-06-27	11:10:00	11:33:03	1378595	5da179412996110016d853d5	1	1	main_slash	24	advance_on_keypress_SLASH	62	stimuli_distractor_trianglediamonds.svg	stimuli_target_trianglerectangles.svg	25	yes	57	0	260	6	2	antiphase_hc_ios.wav	3	6	6	noise_calib_stim_RIGHT.wav	2	35	blb_dichoticlistening_ta-pa.mp3	ta	pa	1	left
6.6.1	win	2023-06-27	11:10:00	11:33:05	1380398	5da179412996110016d853d5	1	1	main_slash	24	main_slash	63	stimuli_target_diamondrectangles.svg	stimuli_distractor_diamondtriangles.svg	23	yes	53	1	901	6	2	antiphase_hc_ios.wav	3	6	6	noise_calib_stim_RIGHT.wav	2	35	blb_dichoticlistening_ta-pa.mp3	ta	pa	1	left
6.6.1	win	2023-06-27	11:10:00	11:33:05	1380398	5da179412996110016d853d5	1	1	main_slash	24	advance_on_keypress_SLASH	64	stimuli_target_diamondrectangles.svg	stimuli_distractor_diamondtriangles.svg	23	yes	57	0	292	6	2	antiphase_hc_ios.wav	3	6	6	noise_calib_stim_RIGHT.wav	2	35	blb_dichoticlistening_ta-pa.mp3	ta	pa	1	left
6.6.1	win	2023-06-27	11:10:00	11:33:06	1381828	5da179412996110016d853d5	1	1	main_slash	24	main_slash	65	stimuli_distractor_trianglediamonds.svg	stimuli_target_squarediamonds.svg	12	yes	53	1	497	6	2	antiphase_hc_ios.wav	3	6	6	noise_calib_stim_RIGHT.wav	2	35	blb_dichoticlistening_ta-pa.mp3	ta	pa	1	left
6.6.1	win	2023-06-27	11:10:00	11:33:06	1381828	5da179412996110016d853d5	1	1	main_slash	24	advance_on_keypress_SLASH	66	stimuli_distractor_trianglediamonds.svg	stimuli_target_squarediamonds.svg	12	yes	57	0	233	6	2	antiphase_hc_ios.wav	3	6	6	noise_calib_stim_RIGHT.wav	2	35	blb_dichoticlistening_ta-pa.mp3	ta	pa	1	left
6.6.1	win	2023-06-27	11:10:00	11:33:08	1383271	5da179412996110016d853d5	1	1	main_slash	24	main_slash	67	stimuli_target_rectanglediamonds.svg	stimuli_distractor_trianglediamonds.svg	2	yes	53	1	556	6	2	antiphase_hc_ios.wav	3	6	6	noise_calib_stim_RIGHT.wav	2	35	blb_dichoticlistening_ta-pa.mp3	ta	pa	1	left
6.6.1	win	2023-06-27	11:10:00	11:33:08	1383271	5da179412996110016d853d5	1	1	main_slash	24	advance_on_keypress_SLASH	68	stimuli_target_rectanglediamonds.svg	stimuli_distractor_trianglediamonds.svg	2	yes	57	0	258	6	2	antiphase_hc_ios.wav	3	6	6	noise_calib_stim_RIGHT.wav	2	35	blb_dichoticlistening_ta-pa.mp3	ta	pa	1	left
6.6.1	win	2023-06-27	11:10:00	11:33:09	1384905	5da179412996110016d853d5	1	1	main_slash	24	main_slash	69	stimuli_distractor_diamondtriangles.svg	stimuli_target_trianglesquares.svg	30	yes	53	1	741	6	2	antiphase_hc_ios.wav	3	6	6	noise_calib_stim_RIGHT.wav	2	35	blb_dichoticlistening_ta-pa.mp3	ta	pa	1	left
6.6.1	win	2023-06-27	11:10:00	11:33:09	1384905	5da179412996110016d853d5	1	1	main_slash	24	advance_on_keypress_SLASH	70	stimuli_distractor_diamondtriangles.svg	stimuli_target_trianglesquares.svg	30	yes	57	0	242	6	2	antiphase_hc_ios.wav	3	6	6	noise_calib_stim_RIGHT.wav	2	35	blb_dichoticlistening_ta-pa.mp3	ta	pa	1	left
6.6.1	win	2023-06-27	11:10:00	11:33:11	1386503	5da179412996110016d853d5	1	1	main_slash	24	main_slash	71	stimuli_target_squaretriangles.svg	stimuli_distractor_trianglediamonds.svg	3	yes	53	1	722	6	2	antiphase_hc_ios.wav	3	6	6	noise_calib_stim_RIGHT.wav	2	35	blb_dichoticlistening_ta-pa.mp3	ta	pa	1	left
6.6.1	win	2023-06-27	11:10:00	11:33:11	1386503	5da179412996110016d853d5	1	1	main_slash	24	advance_on_keypress_SLASH	72	stimuli_target_squaretriangles.svg	stimuli_distractor_trianglediamonds.svg	3	yes	57	0	236	6	2	antiphase_hc_ios.wav	3	6	6	noise_calib_stim_RIGHT.wav	2	35	blb_dichoticlistening_ta-pa.mp3	ta	pa	1	left
6.6.1	win	2023-06-27	11:10:00	11:33:13	1388118	5da179412996110016d853d5	1	1	main_slash	24	main_slash	73	stimuli_distractor_diamondtriangles.svg	stimuli_target_diamondrectangles.svg	31	yes	53	1	737	6	2	antiphase_hc_ios.wav	3	6	6	noise_calib_stim_RIGHT.wav	2	35	blb_dichoticlistening_ta-pa.mp3	ta	pa	1	left
6.6.1	win	2023-06-27	11:10:00	11:33:13	1388118	5da179412996110016d853d5	1	1	main_slash	24	advance_on_keypress_SLASH	74	stimuli_distractor_diamondtriangles.svg	stimuli_target_diamondrectangles.svg	31	yes	57	0	234	6	2	antiphase_hc_ios.wav	3	6	6	noise_calib_stim_RIGHT.wav	2	35	blb_dichoticlistening_ta-pa.mp3	ta	pa	1	left
6.6.1	win	2023-06-27	11:10:00	11:33:14	1389566	5da179412996110016d853d5	1	1	main_slash	24	main_slash	75	stimuli_target_rectangletriangles.svg	stimuli_distractor_diamondtriangles.svg	5	yes	53	1	569	6	2	antiphase_hc_ios.wav	3	6	6	noise_calib_stim_RIGHT.wav	2	35	blb_dichoticlistening_ta-pa.mp3	ta	pa	1	left
6.6.1	win	2023-06-27	11:10:00	11:33:14	1389566	5da179412996110016d853d5	1	1	main_slash	24	advance_on_keypress_SLASH	76	stimuli_target_rectangletriangles.svg	stimuli_distractor_diamondtriangles.svg	5	yes	57	0	271	6	2	antiphase_hc_ios.wav	3	6	6	noise_calib_stim_RIGHT.wav	2	35	blb_dichoticlistening_ta-pa.mp3	ta	pa	1	left
6.6.1	win	2023-06-27	11:10:00	11:33:16	1391203	5da179412996110016d853d5	1	1	main_slash	24	main_slash	77	stimuli_distractor_trianglediamonds.svg	stimuli_target_trianglesquares.svg	26	yes	53	1	724	6	2	antiphase_hc_ios.wav	3	6	6	noise_calib_stim_RIGHT.wav	2	35	blb_dichoticlistening_ta-pa.mp3	ta	pa	1	left
6.6.1	win	2023-06-27	11:10:00	11:33:16	1391203	5da179412996110016d853d5	1	1	main_slash	24	advance_on_keypress_SLASH	78	stimuli_distractor_trianglediamonds.svg	stimuli_target_trianglesquares.svg	26	yes	57	0	262	6	2	antiphase_hc_ios.wav	3	6	6	noise_calib_stim_RIGHT.wav	2	35	blb_dichoticlistening_ta-pa.mp3	ta	pa	1	left
6.6.1	win	2023-06-27	11:10:00	11:33:17	1392685	5da179412996110016d853d5	1	1	main_slash	24	main_slash	79	stimuli_target_diamondrectangles.svg	stimuli_distractor_trianglediamonds.svg	19	yes	53	1	572	6	2	antiphase_hc_ios.wav	3	6	6	noise_calib_stim_RIGHT.wav	2	35	blb_dichoticlistening_ta-pa.mp3	ta	pa	1	left
6.6.1	win	2023-06-27	11:10:00	11:33:17	1392685	5da179412996110016d853d5	1	1	main_slash	24	advance_on_keypress_SLASH	80	stimuli_target_diamondrectangles.svg	stimuli_distractor_trianglediamonds.svg	19	yes	57	0	169	6	2	antiphase_hc_ios.wav	3	6	6	noise_calib_stim_RIGHT.wav	2	35	blb_dichoticlistening_ta-pa.mp3	ta	pa	1	left
6.6.1	win	2023-06-27	11:10:00	11:33:20	1395496	5da179412996110016d853d5	1	1	main_slash	24	main_slash	81	stimuli_distractor_diamondtriangles.svg	stimuli_distractor_trianglediamonds.svg	38	no	0	1	2000	6	2	antiphase_hc_ios.wav	3	6	6	noise_calib_stim_RIGHT.wav	2	35	blb_dichoticlistening_ta-pa.mp3	ta	pa	1	left
6.6.1	win	2023-06-27	11:10:00	11:33:20	1395496	5da179412996110016d853d5	1	1	main_slash	24	advance_on_keypress_SLASH	82	stimuli_distractor_diamondtriangles.svg	stimuli_distractor_trianglediamonds.svg	38	no	57	0	735	6	2	antiphase_hc_ios.wav	3	6	6	noise_calib_stim_RIGHT.wav	2	35	blb_dichoticlistening_ta-pa.mp3	ta	pa	1	left
6.6.1	win	2023-06-27	11:10:00	11:33:22	1397302	5da179412996110016d853d5	1	1	main_slash	24	main_slash	83	stimuli_distractor_diamondtriangles.svg	stimuli_target_rectanglediamonds.svg	14	yes	53	1	424	6	2	antiphase_hc_ios.wav	3	6	6	noise_calib_stim_RIGHT.wav	2	35	blb_dichoticlistening_ta-pa.mp3	ta	pa	1	left
6.6.1	win	2023-06-27	11:10:00	11:33:22	1397302	5da179412996110016d853d5	1	1	main_slash	24	advance_on_keypress_SLASH	84	stimuli_distractor_diamondtriangles.svg	stimuli_target_rectanglediamonds.svg	14	yes	57	0	181	6	2	antiphase_hc_ios.wav	3	6	6	noise_calib_stim_RIGHT.wav	2	35	blb_dichoticlistening_ta-pa.mp3	ta	pa	1	left
6.6.1	win	2023-06-27	11:10:00	11:33:23	1398604	5da179412996110016d853d5	1	1	main_slash	24	main_slash	85	stimuli_target_squarediamonds.svg	stimuli_distractor_diamondtriangles.svg	8	yes	53	1	475	6	2	antiphase_hc_ios.wav	3	6	6	noise_calib_stim_RIGHT.wav	2	35	blb_dichoticlistening_ta-pa.mp3	ta	pa	1	left
6.6.1	win	2023-06-27	11:10:00	11:33:23	1398604	5da179412996110016d853d5	1	1	main_slash	24	advance_on_keypress_SLASH	86	stimuli_target_squarediamonds.svg	stimuli_distractor_diamondtriangles.svg	8	yes	57	0	203	6	2	antiphase_hc_ios.wav	3	6	6	noise_calib_stim_RIGHT.wav	2	35	blb_dichoticlistening_ta-pa.mp3	ta	pa	1	left
6.6.1	win	2023-06-27	11:10:00	11:33:24	1399973	5da179412996110016d853d5	1	1	main_slash	24	main_slash	87	stimuli_distractor_trianglediamonds.svg	stimuli_target_trianglerectangles.svg	25	yes	53	1	527	6	2	antiphase_hc_ios.wav	3	6	6	noise_calib_stim_RIGHT.wav	2	35	blb_dichoticlistening_ta-pa.mp3	ta	pa	1	left
6.6.1	win	2023-06-27	11:10:00	11:33:24	1399973	5da179412996110016d853d5	1	1	main_slash	24	advance_on_keypress_SLASH	88	stimuli_distractor_trianglediamonds.svg	stimuli_target_trianglerectangles.svg	25	yes	57	0	179	6	2	antiphase_hc_ios.wav	3	6	6	noise_calib_stim_RIGHT.wav	2	35	blb_dichoticlistening_ta-pa.mp3	ta	pa	1	left
6.6.1	win	2023-06-27	11:10:00	11:33:26	1401504	5da179412996110016d853d5	1	1	main_slash	24	main_slash	89	stimuli_target_trianglesquares.svg	stimuli_distractor_diamondtriangles.svg	22	yes	53	1	708	6	2	antiphase_hc_ios.wav	3	6	6	noise_calib_stim_RIGHT.wav	2	35	blb_dichoticlistening_ta-pa.mp3	ta	pa	1	left
6.6.1	win	2023-06-27	11:10:00	11:33:26	1401504	5da179412996110016d853d5	1	1	main_slash	24	advance_on_keypress_SLASH	90	stimuli_target_trianglesquares.svg	stimuli_distractor_diamondtriangles.svg	22	yes	57	0	178	6	2	antiphase_hc_ios.wav	3	6	6	noise_calib_stim_RIGHT.wav	2	35	blb_dichoticlistening_ta-pa.mp3	ta	pa	1	left
6.6.1	win	2023-06-27	11:10:00	11:33:27	1402837	5da179412996110016d853d5	1	1	main_slash	24	main_slash	91	stimuli_distractor_diamondtriangles.svg	stimuli_target_diamondrectangles.svg	31	yes	53	1	525	6	2	antiphase_hc_ios.wav	3	6	6	noise_calib_stim_RIGHT.wav	2	35	blb_dichoticlistening_ta-pa.mp3	ta	pa	1	left
6.6.1	win	2023-06-27	11:10:00	11:33:27	1402837	5da179412996110016d853d5	1	1	main_slash	24	advance_on_keypress_SLASH	92	stimuli_distractor_diamondtriangles.svg	stimuli_target_diamondrectangles.svg	31	yes	57	0	238	6	2	antiphase_hc_ios.wav	3	6	6	noise_calib_stim_RIGHT.wav	2	35	blb_dichoticlistening_ta-pa.mp3	ta	pa	1	left
6.6.1	win	2023-06-27	11:10:00	11:33:29	1404172	5da179412996110016d853d5	1	1	main_slash	24	main_slash	93	stimuli_distractor_diamondtriangles.svg	stimuli_target_rectangletriangles.svg	13	yes	53	1	460	6	2	antiphase_hc_ios.wav	3	6	6	noise_calib_stim_RIGHT.wav	2	35	blb_dichoticlistening_ta-pa.mp3	ta	pa	1	left
6.6.1	win	2023-06-27	11:10:00	11:33:29	1404172	5da179412996110016d853d5	1	1	main_slash	24	advance_on_keypress_SLASH	94	stimuli_distractor_diamondtriangles.svg	stimuli_target_rectangletriangles.svg	13	yes	57	0	196	6	2	antiphase_hc_ios.wav	3	6	6	noise_calib_stim_RIGHT.wav	2	35	blb_dichoticlistening_ta-pa.mp3	ta	pa	1	left
6.6.1	win	2023-06-27	11:10:00	11:33:31	1407012	5da179412996110016d853d5	1	1	main_slash	24	main_slash	95	stimuli_distractor_diamondtriangles.svg	stimuli_distractor_diamondtriangles.svg	39	no	0	1	2000	6	2	antiphase_hc_ios.wav	3	6	6	noise_calib_stim_RIGHT.wav	2	35	blb_dichoticlistening_ta-pa.mp3	ta	pa	1	left
6.6.1	win	2023-06-27	11:10:00	11:33:31	1407012	5da179412996110016d853d5	1	1	main_slash	24	advance_on_keypress_SLASH	96	stimuli_distractor_diamondtriangles.svg	stimuli_distractor_diamondtriangles.svg	39	no	57	0	347	6	2	antiphase_hc_ios.wav	3	6	6	noise_calib_stim_RIGHT.wav	2	35	blb_dichoticlistening_ta-pa.mp3	ta	pa	1	left
6.6.1	win	2023-06-27	11:10:00	11:33:34	1410011	5da179412996110016d853d5	1	1	main_slash	24	main_slash	97	stimuli_distractor_diamondtriangles.svg	stimuli_distractor_diamondtriangles.svg	40	no	0	1	2000	6	2	antiphase_hc_ios.wav	3	6	6	noise_calib_stim_RIGHT.wav	2	35	blb_dichoticlistening_ta-pa.mp3	ta	pa	1	left
6.6.1	win	2023-06-27	11:10:00	11:33:34	1410011	5da179412996110016d853d5	1	1	main_slash	24	advance_on_keypress_SLASH	98	stimuli_distractor_diamondtriangles.svg	stimuli_distractor_diamondtriangles.svg	40	no	57	0	458	6	2	antiphase_hc_ios.wav	3	6	6	noise_calib_stim_RIGHT.wav	2	35	blb_dichoticlistening_ta-pa.mp3	ta	pa	1	left
6.6.1	win	2023-06-27	11:10:00	11:33:38	1413111	5da179412996110016d853d5	1	1	main_slash	24	main_slash	99	stimuli_distractor_trianglediamonds.svg	stimuli_distractor_trianglediamonds.svg	34	no	0	1	2000	6	2	antiphase_hc_ios.wav	3	6	6	noise_calib_stim_RIGHT.wav	2	35	blb_dichoticlistening_ta-pa.mp3	ta	pa	1	left
6.6.1	win	2023-06-27	11:10:00	11:33:38	1413111	5da179412996110016d853d5	1	1	main_slash	24	advance_on_keypress_SLASH	100	stimuli_distractor_trianglediamonds.svg	stimuli_distractor_trianglediamonds.svg	34	no	57	0	311	6	2	antiphase_hc_ios.wav	3	6	6	noise_calib_stim_RIGHT.wav	2	35	blb_dichoticlistening_ta-pa.mp3	ta	pa	1	left
6.6.1	win	2023-06-27	11:10:00	11:33:39	1414717	5da179412996110016d853d5	1	1	main_slash	24	main_slash	101	stimuli_distractor_trianglediamonds.svg	stimuli_target_diamondsquares.svg	28	yes	53	1	656	6	2	antiphase_hc_ios.wav	3	6	6	noise_calib_stim_RIGHT.wav	2	35	blb_dichoticlistening_ta-pa.mp3	ta	pa	1	left
6.6.1	win	2023-06-27	11:10:00	11:33:39	1414717	5da179412996110016d853d5	1	1	main_slash	24	advance_on_keypress_SLASH	102	stimuli_distractor_trianglediamonds.svg	stimuli_target_diamondsquares.svg	28	yes	57	0	243	6	2	antiphase_hc_ios.wav	3	6	6	noise_calib_stim_RIGHT.wav	2	35	blb_dichoticlistening_ta-pa.mp3	ta	pa	1	left
6.6.1	win	2023-06-27	11:10:00	11:33:41	1416263	5da179412996110016d853d5	1	1	main_slash	24	main_slash	103	stimuli_target_diamondsquares.svg	stimuli_distractor_diamondtriangles.svg	24	yes	53	1	670	6	2	antiphase_hc_ios.wav	3	6	6	noise_calib_stim_RIGHT.wav	2	35	blb_dichoticlistening_ta-pa.mp3	ta	pa	1	left
6.6.1	win	2023-06-27	11:10:00	11:33:41	1416263	5da179412996110016d853d5	1	1	main_slash	24	advance_on_keypress_SLASH	104	stimuli_target_diamondsquares.svg	stimuli_distractor_diamondtriangles.svg	24	yes	57	0	319	6	2	antiphase_hc_ios.wav	3	6	6	noise_calib_stim_RIGHT.wav	2	35	blb_dichoticlistening_ta-pa.mp3	ta	pa	1	left
6.6.1	win	2023-06-27	11:10:00	11:33:42	1418045	5da179412996110016d853d5	1	1	main_slash	24	main_slash	105	stimuli_target_rectangletriangles.svg	stimuli_distractor_trianglediamonds.svg	1	yes	53	1	818	6	2	antiphase_hc_ios.wav	3	6	6	noise_calib_stim_RIGHT.wav	2	35	blb_dichoticlistening_ta-pa.mp3	ta	pa	1	left
6.6.1	win	2023-06-27	11:10:00	11:33:42	1418045	5da179412996110016d853d5	1	1	main_slash	24	advance_on_keypress_SLASH	106	stimuli_target_rectangletriangles.svg	stimuli_distractor_trianglediamonds.svg	1	yes	57	0	237	6	2	antiphase_hc_ios.wav	3	6	6	noise_calib_stim_RIGHT.wav	2	35	blb_dichoticlistening_ta-pa.mp3	ta	pa	1	left
6.6.1	win	2023-06-27	11:10:00	11:33:44	1419352	5da179412996110016d853d5	1	1	main_slash	24	main_slash	107	stimuli_distractor_trianglediamonds.svg	stimuli_target_rectangletriangles.svg	9	yes	53	1	425	6	2	antiphase_hc_ios.wav	3	6	6	noise_calib_stim_RIGHT.wav	2	35	blb_dichoticlistening_ta-pa.mp3	ta	pa	1	left
6.6.1	win	2023-06-27	11:10:00	11:33:44	1419352	5da179412996110016d853d5	1	1	main_slash	24	advance_on_keypress_SLASH	108	stimuli_distractor_trianglediamonds.svg	stimuli_target_rectangletriangles.svg	9	yes	57	0	290	6	2	antiphase_hc_ios.wav	3	6	6	noise_calib_stim_RIGHT.wav	2	35	blb_dichoticlistening_ta-pa.mp3	ta	pa	1	left
6.6.1	win	2023-06-27	11:10:00	11:33:45	1420706	5da179412996110016d853d5	1	1	main_slash	24	main_slash	109	stimuli_distractor_diamondtriangles.svg	stimuli_target_squaretriangles.svg	15	yes	53	1	430	6	2	antiphase_hc_ios.wav	3	6	6	noise_calib_stim_RIGHT.wav	2	35	blb_dichoticlistening_ta-pa.mp3	ta	pa	1	left
6.6.1	win	2023-06-27	11:10:00	11:33:45	1420706	5da179412996110016d853d5	1	1	main_slash	24	advance_on_keypress_SLASH	110	stimuli_distractor_diamondtriangles.svg	stimuli_target_squaretriangles.svg	15	yes	57	0	288	6	2	antiphase_hc_ios.wav	3	6	6	noise_calib_stim_RIGHT.wav	2	35	blb_dichoticlistening_ta-pa.mp3	ta	pa	1	left
6.6.1	win	2023-06-27	11:10:00	11:33:47	1422122	5da179412996110016d853d5	1	1	main_slash	24	main_slash	111	stimuli_target_rectangletriangles.svg	stimuli_distractor_diamondtriangles.svg	5	yes	53	1	479	6	2	antiphase_hc_ios.wav	3	6	6	noise_calib_stim_RIGHT.wav	2	35	blb_dichoticlistening_ta-pa.mp3	ta	pa	1	left
6.6.1	win	2023-06-27	11:10:00	11:33:47	1422122	5da179412996110016d853d5	1	1	main_slash	24	advance_on_keypress_SLASH	112	stimuli_target_rectangletriangles.svg	stimuli_distractor_diamondtriangles.svg	5	yes	57	0	296	6	2	antiphase_hc_ios.wav	3	6	6	noise_calib_stim_RIGHT.wav	2	35	blb_dichoticlistening_ta-pa.mp3	ta	pa	1	left
6.6.1	win	2023-06-27	11:10:00	11:33:49	1425076	5da179412996110016d853d5	1	1	main_slash	24	main_slash	113	stimuli_target_trianglerectangles.svg	stimuli_distractor_diamondtriangles.svg	21	yes	0	0	2000	6	2	antiphase_hc_ios.wav	3	6	6	noise_calib_stim_RIGHT.wav	2	35	blb_dichoticlistening_ta-pa.mp3	ta	pa	1	left
6.6.1	win	2023-06-27	11:10:00	11:33:49	1425076	5da179412996110016d853d5	1	1	main_slash	24	advance_on_keypress_SLASH	114	stimuli_target_trianglerectangles.svg	stimuli_distractor_diamondtriangles.svg	21	yes	57	0	728	6	2	antiphase_hc_ios.wav	3	6	6	noise_calib_stim_RIGHT.wav	2	35	blb_dichoticlistening_ta-pa.mp3	ta	pa	1	left
6.6.1	win	2023-06-27	11:10:00	11:33:51	1426926	5da179412996110016d853d5	1	1	main_slash	24	main_slash	115	stimuli_target_diamondsquares.svg	stimuli_distractor_trianglediamonds.svg	20	yes	53	1	484	6	2	antiphase_hc_ios.wav	3	6	6	noise_calib_stim_RIGHT.wav	2	35	blb_dichoticlistening_ta-pa.mp3	ta	pa	1	left
6.6.1	win	2023-06-27	11:10:00	11:33:51	1426926	5da179412996110016d853d5	1	1	main_slash	24	advance_on_keypress_SLASH	116	stimuli_target_diamondsquares.svg	stimuli_distractor_trianglediamonds.svg	20	yes	57	0	255	6	2	antiphase_hc_ios.wav	3	6	6	noise_calib_stim_RIGHT.wav	2	35	blb_dichoticlistening_ta-pa.mp3	ta	pa	1	left
6.6.1	win	2023-06-27	11:10:00	11:33:53	1428358	5da179412996110016d853d5	1	1	main_slash	24	main_slash	117	stimuli_distractor_trianglediamonds.svg	stimuli_target_rectanglediamonds.svg	10	yes	53	1	534	6	2	antiphase_hc_ios.wav	3	6	6	noise_calib_stim_RIGHT.wav	2	35	blb_dichoticlistening_ta-pa.mp3	ta	pa	1	left
6.6.1	win	2023-06-27	11:10:00	11:33:53	1428358	5da179412996110016d853d5	1	1	main_slash	24	advance_on_keypress_SLASH	118	stimuli_distractor_trianglediamonds.svg	stimuli_target_rectanglediamonds.svg	10	yes	57	0	167	6	2	antiphase_hc_ios.wav	3	6	6	noise_calib_stim_RIGHT.wav	2	35	blb_dichoticlistening_ta-pa.mp3	ta	pa	1	left
6.6.1	win	2023-06-27	11:10:00	11:33:54	1429728	5da179412996110016d853d5	1	1	main_slash	24	main_slash	119	stimuli_target_trianglerectangles.svg	stimuli_distractor_trianglediamonds.svg	17	yes	53	1	553	6	2	antiphase_hc_ios.wav	3	6	6	noise_calib_stim_RIGHT.wav	2	35	blb_dichoticlistening_ta-pa.mp3	ta	pa	1	left
6.6.1	win	2023-06-27	11:10:00	11:33:54	1429728	5da179412996110016d853d5	1	1	main_slash	24	advance_on_keypress_SLASH	120	stimuli_target_trianglerectangles.svg	stimuli_distractor_trianglediamonds.svg	17	yes	57	0	199	6	2	antiphase_hc_ios.wav	3	6	6	noise_calib_stim_RIGHT.wav	2	35	blb_dichoticlistening_ta-pa.mp3	ta	pa	1	left
6.6.1	win	2023-06-27	11:10:00	11:33:56	1431214	5da179412996110016d853d5	1	1	main_slash	24	main_slash	121	stimuli_distractor_diamondtriangles.svg	stimuli_target_diamondsquares.svg	32	yes	53	1	639	6	2	antiphase_hc_ios.wav	3	6	6	noise_calib_stim_RIGHT.wav	2	35	blb_dichoticlistening_ta-pa.mp3	ta	pa	1	left
6.6.1	win	2023-06-27	11:10:00	11:33:56	1431214	5da179412996110016d853d5	1	1	main_slash	24	advance_on_keypress_SLASH	122	stimuli_distractor_diamondtriangles.svg	stimuli_target_diamondsquares.svg	32	yes	57	0	170	6	2	antiphase_hc_ios.wav	3	6	6	noise_calib_stim_RIGHT.wav	2	35	blb_dichoticlistening_ta-pa.mp3	ta	pa	1	left
6.6.1	win	2023-06-27	11:10:00	11:33:57	1432576	5da179412996110016d853d5	1	1	main_slash	24	main_slash	123	stimuli_target_diamondrectangles.svg	stimuli_distractor_diamondtriangles.svg	23	yes	53	1	551	6	2	antiphase_hc_ios.wav	3	6	6	noise_calib_stim_RIGHT.wav	2	35	blb_dichoticlistening_ta-pa.mp3	ta	pa	1	left
6.6.1	win	2023-06-27	11:10:00	11:33:57	1432576	5da179412996110016d853d5	1	1	main_slash	24	advance_on_keypress_SLASH	124	stimuli_target_diamondrectangles.svg	stimuli_distractor_diamondtriangles.svg	23	yes	57	0	150	6	2	antiphase_hc_ios.wav	3	6	6	noise_calib_stim_RIGHT.wav	2	35	blb_dichoticlistening_ta-pa.mp3	ta	pa	1	left
6.6.1	win	2023-06-27	11:10:00	11:33:58	1433761	5da179412996110016d853d5	1	1	main_slash	24	main_slash	125	stimuli_distractor_diamondtriangles.svg	stimuli_target_squarediamonds.svg	16	yes	53	1	386	6	2	antiphase_hc_ios.wav	3	6	6	noise_calib_stim_RIGHT.wav	2	35	blb_dichoticlistening_ta-pa.mp3	ta	pa	1	left
6.6.1	win	2023-06-27	11:10:00	11:33:58	1433761	5da179412996110016d853d5	1	1	main_slash	24	advance_on_keypress_SLASH	126	stimuli_distractor_diamondtriangles.svg	stimuli_target_squarediamonds.svg	16	yes	57	0	195	6	2	antiphase_hc_ios.wav	3	6	6	noise_calib_stim_RIGHT.wav	2	35	blb_dichoticlistening_ta-pa.mp3	ta	pa	1	left
6.6.1	win	2023-06-27	11:10:00	11:34:00	1435108	5da179412996110016d853d5	1	1	main_slash	24	main_slash	127	stimuli_target_squaretriangles.svg	stimuli_distractor_trianglediamonds.svg	3	yes	53	1	499	6	2	antiphase_hc_ios.wav	3	6	6	noise_calib_stim_RIGHT.wav	2	35	blb_dichoticlistening_ta-pa.mp3	ta	pa	1	left
6.6.1	win	2023-06-27	11:10:00	11:34:00	1435108	5da179412996110016d853d5	1	1	main_slash	24	advance_on_keypress_SLASH	128	stimuli_target_squaretriangles.svg	stimuli_distractor_trianglediamonds.svg	3	yes	57	0	155	6	2	antiphase_hc_ios.wav	3	6	6	noise_calib_stim_RIGHT.wav	2	35	blb_dichoticlistening_ta-pa.mp3	ta	pa	1	left
6.6.1	win	2023-06-27	11:10:00	11:34:01	1436440	5da179412996110016d853d5	1	1	main_slash	24	main_slash	129	stimuli_distractor_trianglediamonds.svg	stimuli_target_trianglesquares.svg	26	yes	53	1	532	6	2	antiphase_hc_ios.wav	3	6	6	noise_calib_stim_RIGHT.wav	2	35	blb_dichoticlistening_ta-pa.mp3	ta	pa	1	left
6.6.1	win	2023-06-27	11:10:00	11:34:01	1436440	5da179412996110016d853d5	1	1	main_slash	24	advance_on_keypress_SLASH	130	stimuli_distractor_trianglediamonds.svg	stimuli_target_trianglesquares.svg	26	yes	57	0	182	6	2	antiphase_hc_ios.wav	3	6	6	noise_calib_stim_RIGHT.wav	2	35	blb_dichoticlistening_ta-pa.mp3	ta	pa	1	left
6.6.1	win	2023-06-27	11:10:00	11:34:02	1437767	5da179412996110016d853d5	1	1	main_slash	24	main_slash	131	stimuli_distractor_trianglediamonds.svg	stimuli_distractor_diamondtriangles.svg	36	no	53	0	494	6	2	antiphase_hc_ios.wav	3	6	6	noise_calib_stim_RIGHT.wav	2	35	blb_dichoticlistening_ta-pa.mp3	ta	pa	1	left
6.6.1	win	2023-06-27	11:10:00	11:34:02	1437767	5da179412996110016d853d5	1	1	main_slash	24	advance_on_keypress_SLASH	132	stimuli_distractor_trianglediamonds.svg	stimuli_distractor_diamondtriangles.svg	36	no	57	0	240	6	2	antiphase_hc_ios.wav	3	6	6	noise_calib_stim_RIGHT.wav	2	35	blb_dichoticlistening_ta-pa.mp3	ta	pa	1	left
6.6.1	win	2023-06-27	11:10:00	11:34:04	1439815	5da179412996110016d853d5	1	1	main_slash	24	main_slash	133	stimuli_target_squarediamonds.svg	stimuli_distractor_trianglediamonds.svg	4	yes	53	1	1174	6	2	antiphase_hc_ios.wav	3	6	6	noise_calib_stim_RIGHT.wav	2	35	blb_dichoticlistening_ta-pa.mp3	ta	pa	1	left
6.6.1	win	2023-06-27	11:10:00	11:34:04	1439815	5da179412996110016d853d5	1	1	main_slash	24	advance_on_keypress_SLASH	134	stimuli_target_squarediamonds.svg	stimuli_distractor_trianglediamonds.svg	4	yes	57	0	177	6	2	antiphase_hc_ios.wav	3	6	6	noise_calib_stim_RIGHT.wav	2	35	blb_dichoticlistening_ta-pa.mp3	ta	pa	1	left
6.6.1	win	2023-06-27	11:10:00	11:34:05	1441043	5da179412996110016d853d5	1	1	main_slash	24	main_slash	135	stimuli_distractor_trianglediamonds.svg	stimuli_target_squaretriangles.svg	11	yes	53	1	419	6	2	antiphase_hc_ios.wav	3	6	6	noise_calib_stim_RIGHT.wav	2	35	blb_dichoticlistening_ta-pa.mp3	ta	pa	1	left
6.6.1	win	2023-06-27	11:10:00	11:34:05	1441043	5da179412996110016d853d5	1	1	main_slash	24	advance_on_keypress_SLASH	136	stimuli_distractor_trianglediamonds.svg	stimuli_target_squaretriangles.svg	11	yes	57	0	173	6	2	antiphase_hc_ios.wav	3	6	6	noise_calib_stim_RIGHT.wav	2	35	blb_dichoticlistening_ta-pa.mp3	ta	pa	1	left
6.6.1	win	2023-06-27	11:10:00	11:34:07	1442711	5da179412996110016d853d5	1	1	main_slash	24	main_slash	137	stimuli_distractor_diamondtriangles.svg	stimuli_distractor_trianglediamonds.svg	37	no	53	0	854	6	2	antiphase_hc_ios.wav	3	6	6	noise_calib_stim_RIGHT.wav	2	35	blb_dichoticlistening_ta-pa.mp3	ta	pa	1	left
6.6.1	win	2023-06-27	11:10:00	11:34:07	1442711	5da179412996110016d853d5	1	1	main_slash	24	advance_on_keypress_SLASH	138	stimuli_distractor_diamondtriangles.svg	stimuli_distractor_trianglediamonds.svg	37	no	57	0	168	6	2	antiphase_hc_ios.wav	3	6	6	noise_calib_stim_RIGHT.wav	2	35	blb_dichoticlistening_ta-pa.mp3	ta	pa	1	left
6.6.1	win	2023-06-27	11:10:00	11:34:09	1444709	5da179412996110016d853d5	1	1	main_slash	24	main_slash	139	stimuli_target_squaretriangles.svg	stimuli_distractor_diamondtriangles.svg	7	yes	53	1	1185	6	2	antiphase_hc_ios.wav	3	6	6	noise_calib_stim_RIGHT.wav	2	35	blb_dichoticlistening_ta-pa.mp3	ta	pa	1	left
6.6.1	win	2023-06-27	11:10:00	11:34:09	1444709	5da179412996110016d853d5	1	1	main_slash	24	advance_on_keypress_SLASH	140	stimuli_target_squaretriangles.svg	stimuli_distractor_diamondtriangles.svg	7	yes	57	0	137	6	2	antiphase_hc_ios.wav	3	6	6	noise_calib_stim_RIGHT.wav	2	35	blb_dichoticlistening_ta-pa.mp3	ta	pa	1	left
6.6.1	win	2023-06-27	11:10:00	11:34:10	1446060	5da179412996110016d853d5	1	1	main_slash	24	main_slash	141	stimuli_target_trianglesquares.svg	stimuli_distractor_trianglediamonds.svg	18	yes	53	1	571	6	2	antiphase_hc_ios.wav	3	6	6	noise_calib_stim_RIGHT.wav	2	35	blb_dichoticlistening_ta-pa.mp3	ta	pa	1	left
6.6.1	win	2023-06-27	11:10:00	11:34:10	1446060	5da179412996110016d853d5	1	1	main_slash	24	advance_on_keypress_SLASH	142	stimuli_target_trianglesquares.svg	stimuli_distractor_trianglediamonds.svg	18	yes	57	0	156	6	2	antiphase_hc_ios.wav	3	6	6	noise_calib_stim_RIGHT.wav	2	35	blb_dichoticlistening_ta-pa.mp3	ta	pa	1	left
6.6.1	win	2023-06-27	11:10:00	11:34:12	1447398	5da179412996110016d853d5	1	1	main_slash	24	main_slash	143	stimuli_target_rectanglediamonds.svg	stimuli_distractor_diamondtriangles.svg	6	yes	53	1	542	6	2	antiphase_hc_ios.wav	3	6	6	noise_calib_stim_RIGHT.wav	2	35	blb_dichoticlistening_ta-pa.mp3	ta	pa	1	left
6.6.1	win	2023-06-27	11:10:00	11:34:12	1447398	5da179412996110016d853d5	1	1	main_slash	24	advance_on_keypress_SLASH	144	stimuli_target_rectanglediamonds.svg	stimuli_distractor_diamondtriangles.svg	6	yes	57	0	101	6	2	antiphase_hc_ios.wav	3	6	6	noise_calib_stim_RIGHT.wav	2	35	blb_dichoticlistening_ta-pa.mp3	ta	pa	1	left
6.6.1	win	2023-06-27	11:10:00	11:34:13	1448585	5da179412996110016d853d5	1	1	main_slash	24	main_slash	145	stimuli_distractor_trianglediamonds.svg	stimuli_target_squarediamonds.svg	12	yes	53	1	445	6	2	antiphase_hc_ios.wav	3	6	6	noise_calib_stim_RIGHT.wav	2	35	blb_dichoticlistening_ta-pa.mp3	ta	pa	1	left
6.6.1	win	2023-06-27	11:10:00	11:34:13	1448585	5da179412996110016d853d5	1	1	main_slash	24	advance_on_keypress_SLASH	146	stimuli_distractor_trianglediamonds.svg	stimuli_target_squarediamonds.svg	12	yes	57	0	148	6	2	antiphase_hc_ios.wav	3	6	6	noise_calib_stim_RIGHT.wav	2	35	blb_dichoticlistening_ta-pa.mp3	ta	pa	1	left
6.6.1	win	2023-06-27	11:10:00	11:34:16	1451389	5da179412996110016d853d5	1	1	main_slash	24	main_slash	147	stimuli_distractor_trianglediamonds.svg	stimuli_distractor_diamondtriangles.svg	35	no	0	1	2000	6	2	antiphase_hc_ios.wav	3	6	6	noise_calib_stim_RIGHT.wav	2	35	blb_dichoticlistening_ta-pa.mp3	ta	pa	1	left
6.6.1	win	2023-06-27	11:10:00	11:34:16	1451389	5da179412996110016d853d5	1	1	main_slash	24	advance_on_keypress_SLASH	148	stimuli_distractor_trianglediamonds.svg	stimuli_distractor_diamondtriangles.svg	35	no	57	0	599	6	2	antiphase_hc_ios.wav	3	6	6	noise_calib_stim_RIGHT.wav	2	35	blb_dichoticlistening_ta-pa.mp3	ta	pa	1	left
6.6.1	win	2023-06-27	11:10:00	11:34:19	1454639	5da179412996110016d853d5	1	1	main_slash	24	main_slash	149	stimuli_distractor_trianglediamonds.svg	stimuli_distractor_trianglediamonds.svg	33	no	0	1	2000	6	2	antiphase_hc_ios.wav	3	6	6	noise_calib_stim_RIGHT.wav	2	35	blb_dichoticlistening_ta-pa.mp3	ta	pa	1	left
6.6.1	win	2023-06-27	11:10:00	11:34:19	1454639	5da179412996110016d853d5	1	1	main_slash	24	advance_on_keypress_SLASH	150	stimuli_distractor_trianglediamonds.svg	stimuli_distractor_trianglediamonds.svg	33	no	57	0	103	6	2	antiphase_hc_ios.wav	3	6	6	noise_calib_stim_RIGHT.wav	2	35	blb_dichoticlistening_ta-pa.mp3	ta	pa	1	left
6.6.1	win	2023-06-27	11:10:00	11:34:20	1455994	5da179412996110016d853d5	1	1	main_slash	24	main_slash	151	stimuli_target_diamondrectangles.svg	stimuli_distractor_trianglediamonds.svg	19	yes	53	1	606	6	2	antiphase_hc_ios.wav	3	6	6	noise_calib_stim_RIGHT.wav	2	35	blb_dichoticlistening_ta-pa.mp3	ta	pa	1	left
6.6.1	win	2023-06-27	11:10:00	11:34:20	1455994	5da179412996110016d853d5	1	1	main_slash	24	advance_on_keypress_SLASH	152	stimuli_target_diamondrectangles.svg	stimuli_distractor_trianglediamonds.svg	19	yes	57	0	106	6	2	antiphase_hc_ios.wav	3	6	6	noise_calib_stim_RIGHT.wav	2	35	blb_dichoticlistening_ta-pa.mp3	ta	pa	1	left
6.6.1	win	2023-06-27	11:10:00	11:34:22	1457458	5da179412996110016d853d5	1	1	main_slash	24	main_slash	153	stimuli_distractor_diamondtriangles.svg	stimuli_target_trianglesquares.svg	30	yes	53	1	719	6	2	antiphase_hc_ios.wav	3	6	6	noise_calib_stim_RIGHT.wav	2	35	blb_dichoticlistening_ta-pa.mp3	ta	pa	1	left
6.6.1	win	2023-06-27	11:10:00	11:34:22	1457458	5da179412996110016d853d5	1	1	main_slash	24	advance_on_keypress_SLASH	154	stimuli_distractor_diamondtriangles.svg	stimuli_target_trianglesquares.svg	30	yes	57	0	224	6	2	antiphase_hc_ios.wav	3	6	6	noise_calib_stim_RIGHT.wav	2	35	blb_dichoticlistening_ta-pa.mp3	ta	pa	1	left
6.6.1	win	2023-06-27	11:10:00	11:34:25	1460321	5da179412996110016d853d5	1	1	main_slash	24	main_slash	155	stimuli_target_rectanglediamonds.svg	stimuli_distractor_trianglediamonds.svg	2	yes	0	0	2000	6	2	antiphase_hc_ios.wav	3	6	6	noise_calib_stim_RIGHT.wav	2	35	blb_dichoticlistening_ta-pa.mp3	ta	pa	1	left
6.6.1	win	2023-06-27	11:10:00	11:34:25	1460321	5da179412996110016d853d5	1	1	main_slash	24	advance_on_keypress_SLASH	156	stimuli_target_rectanglediamonds.svg	stimuli_distractor_trianglediamonds.svg	2	yes	57	0	277	6	2	antiphase_hc_ios.wav	3	6	6	noise_calib_stim_RIGHT.wav	2	35	blb_dichoticlistening_ta-pa.mp3	ta	pa	1	left
6.6.1	win	2023-06-27	11:10:00	11:34:26	1461905	5da179412996110016d853d5	1	1	main_slash	24	main_slash	157	stimuli_distractor_diamondtriangles.svg	stimuli_target_trianglerectangles.svg	29	yes	53	1	667	6	2	antiphase_hc_ios.wav	3	6	6	noise_calib_stim_RIGHT.wav	2	35	blb_dichoticlistening_ta-pa.mp3	ta	pa	1	left
6.6.1	win	2023-06-27	11:10:00	11:34:26	1461905	5da179412996110016d853d5	1	1	main_slash	24	advance_on_keypress_SLASH	158	stimuli_distractor_diamondtriangles.svg	stimuli_target_trianglerectangles.svg	29	yes	57	0	127	6	2	antiphase_hc_ios.wav	3	6	6	noise_calib_stim_RIGHT.wav	2	35	blb_dichoticlistening_ta-pa.mp3	ta	pa	1	left
6.6.1	win	2023-06-27	11:10:00	11:34:28	1463288	5da179412996110016d853d5	1	1	main_slash	24	main_slash	159	stimuli_distractor_trianglediamonds.svg	stimuli_target_diamondrectangles.svg	27	yes	53	1	617	6	2	antiphase_hc_ios.wav	3	6	6	noise_calib_stim_RIGHT.wav	2	35	blb_dichoticlistening_ta-pa.mp3	ta	pa	1	left
6.6.1	win	2023-06-27	11:10:00	11:34:28	1463288	5da179412996110016d853d5	1	1	main_slash	24	advance_on_keypress_SLASH	160	stimuli_distractor_trianglediamonds.svg	stimuli_target_diamondrectangles.svg	27	yes	57	0	101	6	2	antiphase_hc_ios.wav	3	6	6	noise_calib_stim_RIGHT.wav	2	35	blb_dichoticlistening_ta-pa.mp3	ta	pa	1	left
6.6.1	win	2023-06-27	11:10:00	11:34:44	1479229	5da179412996110016d853d5	1	1	practice_z	26	practice_z	1	stimuli_distractor_trianglediamonds.svg	stimuli_target_squarediamonds.svg	11	yes	44	1	576	6	2	antiphase_hc_ios.wav	3	6	6	noise_calib_stim_RIGHT.wav	2	35	blb_dichoticlistening_ta-pa.mp3	ta	pa	1	left
6.6.1	win	2023-06-27	11:10:00	11:34:44	1479229	5da179412996110016d853d5	1	1	practice_z	26	advance_on_keypress_ZEE	2	stimuli_distractor_trianglediamonds.svg	stimuli_target_squarediamonds.svg	11	yes	57	0	641	6	2	antiphase_hc_ios.wav	3	6	6	noise_calib_stim_RIGHT.wav	2	35	blb_dichoticlistening_ta-pa.mp3	ta	pa	1	left
6.6.1	win	2023-06-27	11:10:00	11:34:47	1482124	5da179412996110016d853d5	1	1	practice_z	26	practice_z	3	stimuli_target_rectanglediamonds.svg	stimuli_distractor_diamondtriangles.svg	1	yes	44	1	604	6	2	antiphase_hc_ios.wav	3	6	6	noise_calib_stim_RIGHT.wav	2	35	blb_dichoticlistening_ta-pa.mp3	ta	pa	1	left
6.6.1	win	2023-06-27	11:10:00	11:34:47	1482124	5da179412996110016d853d5	1	1	practice_z	26	advance_on_keypress_ZEE	4	stimuli_target_rectanglediamonds.svg	stimuli_distractor_diamondtriangles.svg	1	yes	57	0	543	6	2	antiphase_hc_ios.wav	3	6	6	noise_calib_stim_RIGHT.wav	2	35	blb_dichoticlistening_ta-pa.mp3	ta	pa	1	left
6.6.1	win	2023-06-27	11:10:00	11:34:49	1484838	5da179412996110016d853d5	1	1	practice_z	26	practice_z	5	stimuli_target_diamondsquares.svg	stimuli_distractor_diamondtriangles.svg	3	yes	44	1	536	6	2	antiphase_hc_ios.wav	3	6	6	noise_calib_stim_RIGHT.wav	2	35	blb_dichoticlistening_ta-pa.mp3	ta	pa	1	left
6.6.1	win	2023-06-27	11:10:00	11:34:49	1484838	5da179412996110016d853d5	1	1	practice_z	26	advance_on_keypress_ZEE	6	stimuli_target_diamondsquares.svg	stimuli_distractor_diamondtriangles.svg	3	yes	57	0	283	6	2	antiphase_hc_ios.wav	3	6	6	noise_calib_stim_RIGHT.wav	2	35	blb_dichoticlistening_ta-pa.mp3	ta	pa	1	left
6.6.1	win	2023-06-27	11:10:00	11:34:52	1487285	5da179412996110016d853d5	1	1	practice_z	26	practice_z	7	stimuli_target_diamondsquares.svg	stimuli_distractor_trianglediamonds.svg	6	yes	44	1	507	6	2	antiphase_hc_ios.wav	3	6	6	noise_calib_stim_RIGHT.wav	2	35	blb_dichoticlistening_ta-pa.mp3	ta	pa	1	left
6.6.1	win	2023-06-27	11:10:00	11:34:52	1487285	5da179412996110016d853d5	1	1	practice_z	26	advance_on_keypress_ZEE	8	stimuli_target_diamondsquares.svg	stimuli_distractor_trianglediamonds.svg	6	yes	57	0	252	6	2	antiphase_hc_ios.wav	3	6	6	noise_calib_stim_RIGHT.wav	2	35	blb_dichoticlistening_ta-pa.mp3	ta	pa	1	left
6.6.1	win	2023-06-27	11:10:00	11:34:54	1489640	5da179412996110016d853d5	1	1	practice_z	26	practice_z	9	stimuli_distractor_diamondtriangles.svg	stimuli_target_rectangletriangles.svg	7	yes	44	1	455	6	2	antiphase_hc_ios.wav	3	6	6	noise_calib_stim_RIGHT.wav	2	35	blb_dichoticlistening_ta-pa.mp3	ta	pa	1	left
6.6.1	win	2023-06-27	11:10:00	11:34:54	1489640	5da179412996110016d853d5	1	1	practice_z	26	advance_on_keypress_ZEE	10	stimuli_distractor_diamondtriangles.svg	stimuli_target_rectangletriangles.svg	7	yes	57	0	327	6	2	antiphase_hc_ios.wav	3	6	6	noise_calib_stim_RIGHT.wav	2	35	blb_dichoticlistening_ta-pa.mp3	ta	pa	1	left
6.6.1	win	2023-06-27	11:10:00	11:34:57	1492191	5da179412996110016d853d5	1	1	practice_z	26	practice_z	11	stimuli_target_squarediamonds.svg	stimuli_distractor_trianglediamonds.svg	5	yes	44	1	588	6	2	antiphase_hc_ios.wav	3	6	6	noise_calib_stim_RIGHT.wav	2	35	blb_dichoticlistening_ta-pa.mp3	ta	pa	1	left
6.6.1	win	2023-06-27	11:10:00	11:34:57	1492191	5da179412996110016d853d5	1	1	practice_z	26	advance_on_keypress_ZEE	12	stimuli_target_squarediamonds.svg	stimuli_distractor_trianglediamonds.svg	5	yes	57	0	319	6	2	antiphase_hc_ios.wav	3	6	6	noise_calib_stim_RIGHT.wav	2	35	blb_dichoticlistening_ta-pa.mp3	ta	pa	1	left
6.6.1	win	2023-06-27	11:10:00	11:34:59	1494859	5da179412996110016d853d5	1	1	practice_z	26	practice_z	13	stimuli_distractor_diamondtriangles.svg	stimuli_target_diamondrectangles.svg	8	yes	44	1	708	6	2	antiphase_hc_ios.wav	3	6	6	noise_calib_stim_RIGHT.wav	2	35	blb_dichoticlistening_ta-pa.mp3	ta	pa	1	left
6.6.1	win	2023-06-27	11:10:00	11:34:59	1494859	5da179412996110016d853d5	1	1	practice_z	26	advance_on_keypress_ZEE	14	stimuli_distractor_diamondtriangles.svg	stimuli_target_diamondrectangles.svg	8	yes	57	0	779	6	2	antiphase_hc_ios.wav	3	6	6	noise_calib_stim_RIGHT.wav	2	35	blb_dichoticlistening_ta-pa.mp3	ta	pa	1	left
