build	computer.platform	date	time	timestamp	time_elapsed_ms	subject	group	session	blockcode	blocknum	trialcode	trialnum	stimulus_left	stimulus_right	stim_index	target_present	response	correct	latency	headphonecheck_countTestTrials	headphonecheck_index	headphonecheck_testSound	headphonecheck_correctResponse	stereocheck_countTestTrials	stereocheck_index	stereocheck_testSound	stereocheck_correctResponse	DL_index	DL_soundfile	DL_leftSound	DL_rightSound	DL_dualSound	DL_choice
6.6.1	win	2023-07-07	20:50:49	20:53:07	133951	5eb8ff91a1bdb386c80cd7ea	3	1	practice_slash	5	practice_slash	1	stimuli_distractor_trianglediamonds.svg	stimuli_target_diamondrectangles.svg	12	yes	53	1	1749	0	0			0	0			1				0	
6.6.1	win	2023-07-07	20:50:49	20:53:07	133951	5eb8ff91a1bdb386c80cd7ea	3	1	practice_slash	5	advance_on_keypress_SLASH	2	stimuli_distractor_trianglediamonds.svg	stimuli_target_diamondrectangles.svg	12	yes	57	0	822	0	0			0	0			1				0	
6.6.1	win	2023-07-07	20:50:49	20:53:12	138441	5eb8ff91a1bdb386c80cd7ea	3	1	practice_slash	5	practice_slash	3	stimuli_target_diamondsquares.svg	stimuli_distractor_trianglediamonds.svg	6	yes	0	0	2000	0	0			0	0			1				0	
6.6.1	win	2023-07-07	20:50:49	20:53:12	138441	5eb8ff91a1bdb386c80cd7ea	3	1	practice_slash	5	advance_on_keypress_SLASH	4	stimuli_target_diamondsquares.svg	stimuli_distractor_trianglediamonds.svg	6	yes	57	0	613	0	0			0	0			1				0	
6.6.1	win	2023-07-07	20:50:49	20:53:15	141642	5eb8ff91a1bdb386c80cd7ea	3	1	practice_slash	5	practice_slash	5	stimuli_target_squarediamonds.svg	stimuli_distractor_diamondtriangles.svg	2	yes	53	1	941	0	0			0	0			1				0	
6.6.1	win	2023-07-07	20:50:49	20:53:15	141642	5eb8ff91a1bdb386c80cd7ea	3	1	practice_slash	5	advance_on_keypress_SLASH	6	stimuli_target_squarediamonds.svg	stimuli_distractor_diamondtriangles.svg	2	yes	57	0	553	0	0			0	0			1				0	
6.6.1	win	2023-07-07	20:50:49	20:53:19	145857	5eb8ff91a1bdb386c80cd7ea	3	1	practice_slash	5	practice_slash	7	stimuli_distractor_diamondtriangles.svg	stimuli_distractor_diamondtriangles.svg	13	no	0	1	2000	0	0			0	0			1				0	
6.6.1	win	2023-07-07	20:50:49	20:53:19	145857	5eb8ff91a1bdb386c80cd7ea	3	1	practice_slash	5	advance_on_keypress_SLASH	8	stimuli_distractor_diamondtriangles.svg	stimuli_distractor_diamondtriangles.svg	13	no	57	0	430	0	0			0	0			1				0	
6.6.1	win	2023-07-07	20:50:49	20:53:22	148857	5eb8ff91a1bdb386c80cd7ea	3	1	practice_slash	5	practice_slash	9	stimuli_target_rectanglediamonds.svg	stimuli_distractor_trianglediamonds.svg	4	yes	53	1	923	0	0			0	0			1				0	
6.6.1	win	2023-07-07	20:50:49	20:53:22	148857	5eb8ff91a1bdb386c80cd7ea	3	1	practice_slash	5	advance_on_keypress_SLASH	10	stimuli_target_rectanglediamonds.svg	stimuli_distractor_trianglediamonds.svg	4	yes	57	0	492	0	0			0	0			1				0	
6.6.1	win	2023-07-07	20:50:49	20:53:25	151773	5eb8ff91a1bdb386c80cd7ea	3	1	practice_slash	5	practice_slash	11	stimuli_distractor_diamondtriangles.svg	stimuli_target_rectangletriangles.svg	7	yes	53	1	767	0	0			0	0			1				0	
6.6.1	win	2023-07-07	20:50:49	20:53:25	151773	5eb8ff91a1bdb386c80cd7ea	3	1	practice_slash	5	advance_on_keypress_SLASH	12	stimuli_distractor_diamondtriangles.svg	stimuli_target_rectangletriangles.svg	7	yes	57	0	409	0	0			0	0			1				0	
6.6.1	win	2023-07-07	20:50:49	20:53:28	154554	5eb8ff91a1bdb386c80cd7ea	3	1	practice_slash	5	practice_slash	13	stimuli_distractor_trianglediamonds.svg	stimuli_target_squarediamonds.svg	11	yes	53	1	692	0	0			0	0			1				0	
6.6.1	win	2023-07-07	20:50:49	20:53:28	154554	5eb8ff91a1bdb386c80cd7ea	3	1	practice_slash	5	advance_on_keypress_SLASH	14	stimuli_distractor_trianglediamonds.svg	stimuli_target_squarediamonds.svg	11	yes	57	0	480	0	0			0	0			1				0	
6.6.1	win	2023-07-07	20:50:49	20:53:32	158669	5eb8ff91a1bdb386c80cd7ea	3	1	practice_slash	5	practice_slash	15	stimuli_distractor_trianglediamonds.svg	stimuli_distractor_diamondtriangles.svg	16	no	0	1	2000	0	0			0	0			1				0	
6.6.1	win	2023-07-07	20:50:49	20:53:32	158669	5eb8ff91a1bdb386c80cd7ea	3	1	practice_slash	5	advance_on_keypress_SLASH	16	stimuli_distractor_trianglediamonds.svg	stimuli_distractor_diamondtriangles.svg	16	no	57	0	390	0	0			0	0			1				0	
6.6.1	win	2023-07-07	20:50:49	20:53:35	161528	5eb8ff91a1bdb386c80cd7ea	3	1	practice_slash	5	practice_slash	17	stimuli_target_rectanglediamonds.svg	stimuli_distractor_diamondtriangles.svg	1	yes	53	1	834	0	0			0	0			1				0	
6.6.1	win	2023-07-07	20:50:49	20:53:35	161528	5eb8ff91a1bdb386c80cd7ea	3	1	practice_slash	5	advance_on_keypress_SLASH	18	stimuli_target_rectanglediamonds.svg	stimuli_distractor_diamondtriangles.svg	1	yes	57	0	400	0	0			0	0			1				0	
6.6.1	win	2023-07-07	20:50:49	20:53:39	165567	5eb8ff91a1bdb386c80cd7ea	3	1	practice_slash	5	practice_slash	19	stimuli_distractor_diamondtriangles.svg	stimuli_target_diamondrectangles.svg	8	yes	0	0	2000	0	0			0	0			1				0	
6.6.1	win	2023-07-07	20:50:49	20:53:39	165567	5eb8ff91a1bdb386c80cd7ea	3	1	practice_slash	5	advance_on_keypress_SLASH	20	stimuli_distractor_diamondtriangles.svg	stimuli_target_diamondrectangles.svg	8	yes	57	0	1332	0	0			0	0			1				0	
6.6.1	win	2023-07-07	20:50:49	20:53:44	170560	5eb8ff91a1bdb386c80cd7ea	3	1	practice_slash	5	practice_slash	21	stimuli_distractor_diamondtriangles.svg	stimuli_distractor_trianglediamonds.svg	14	no	0	1	2000	0	0			0	0			1				0	
6.6.1	win	2023-07-07	20:50:49	20:53:44	170560	5eb8ff91a1bdb386c80cd7ea	3	1	practice_slash	5	advance_on_keypress_SLASH	22	stimuli_distractor_diamondtriangles.svg	stimuli_distractor_trianglediamonds.svg	14	no	57	0	292	0	0			0	0			1				0	
6.6.1	win	2023-07-07	20:50:49	20:53:47	173446	5eb8ff91a1bdb386c80cd7ea	3	1	practice_slash	5	practice_slash	23	stimuli_distractor_trianglediamonds.svg	stimuli_target_rectanglediamonds.svg	10	yes	53	1	959	0	0			0	0			1				0	
6.6.1	win	2023-07-07	20:50:49	20:53:47	173446	5eb8ff91a1bdb386c80cd7ea	3	1	practice_slash	5	advance_on_keypress_SLASH	24	stimuli_distractor_trianglediamonds.svg	stimuli_target_rectanglediamonds.svg	10	yes	57	0	490	0	0			0	0			1				0	
6.6.1	win	2023-07-07	20:50:49	20:53:51	177577	5eb8ff91a1bdb386c80cd7ea	3	1	practice_slash	5	practice_slash	25	stimuli_distractor_trianglediamonds.svg	stimuli_distractor_trianglediamonds.svg	15	no	0	1	2000	0	0			0	0			1				0	
6.6.1	win	2023-07-07	20:50:49	20:53:51	177577	5eb8ff91a1bdb386c80cd7ea	3	1	practice_slash	5	advance_on_keypress_SLASH	26	stimuli_distractor_trianglediamonds.svg	stimuli_distractor_trianglediamonds.svg	15	no	57	0	408	0	0			0	0			1				0	
6.6.1	win	2023-07-07	20:50:49	20:53:54	181054	5eb8ff91a1bdb386c80cd7ea	3	1	practice_slash	5	practice_slash	27	stimuli_distractor_diamondtriangles.svg	stimuli_target_trianglerectangles.svg	9	yes	53	1	1434	0	0			0	0			1				0	
6.6.1	win	2023-07-07	20:50:49	20:53:54	181054	5eb8ff91a1bdb386c80cd7ea	3	1	practice_slash	5	advance_on_keypress_SLASH	28	stimuli_distractor_diamondtriangles.svg	stimuli_target_trianglerectangles.svg	9	yes	57	0	329	0	0			0	0			1				0	
6.6.1	win	2023-07-07	20:50:49	20:53:57	183902	5eb8ff91a1bdb386c80cd7ea	3	1	practice_slash	5	practice_slash	29	stimuli_target_diamondsquares.svg	stimuli_distractor_diamondtriangles.svg	3	yes	53	1	859	0	0			0	0			1				0	
6.6.1	win	2023-07-07	20:50:49	20:53:57	183902	5eb8ff91a1bdb386c80cd7ea	3	1	practice_slash	5	advance_on_keypress_SLASH	30	stimuli_target_diamondsquares.svg	stimuli_distractor_diamondtriangles.svg	3	yes	57	0	375	0	0			0	0			1				0	
6.6.1	win	2023-07-07	20:50:49	20:54:00	186689	5eb8ff91a1bdb386c80cd7ea	3	1	practice_slash	5	practice_slash	31	stimuli_target_squarediamonds.svg	stimuli_distractor_trianglediamonds.svg	5	yes	53	1	773	0	0			0	0			1				0	
6.6.1	win	2023-07-07	20:50:49	20:54:00	186689	5eb8ff91a1bdb386c80cd7ea	3	1	practice_slash	5	advance_on_keypress_SLASH	32	stimuli_target_squarediamonds.svg	stimuli_distractor_trianglediamonds.svg	5	yes	57	0	260	0	0			0	0			1				0	
6.6.1	win	2023-07-07	20:50:49	20:54:09	195201	5eb8ff91a1bdb386c80cd7ea	3	1	main_slash	7	main_slash	1	stimuli_distractor_trianglediamonds.svg	stimuli_distractor_trianglediamonds.svg	33	no	0	1	2000	0	0			0	0			1				0	
6.6.1	win	2023-07-07	20:50:49	20:54:09	195201	5eb8ff91a1bdb386c80cd7ea	3	1	main_slash	7	advance_on_keypress_SLASH	2	stimuli_distractor_trianglediamonds.svg	stimuli_distractor_trianglediamonds.svg	33	no	57	0	978	0	0			0	0			1				0	
6.6.1	win	2023-07-07	20:50:49	20:54:12	198825	5eb8ff91a1bdb386c80cd7ea	3	1	main_slash	7	main_slash	3	stimuli_distractor_diamondtriangles.svg	stimuli_distractor_diamondtriangles.svg	40	no	0	1	2000	0	0			0	0			1				0	
6.6.1	win	2023-07-07	20:50:49	20:54:12	198825	5eb8ff91a1bdb386c80cd7ea	3	1	main_slash	7	advance_on_keypress_SLASH	4	stimuli_distractor_diamondtriangles.svg	stimuli_distractor_diamondtriangles.svg	40	no	57	0	251	0	0			0	0			1				0	
6.6.1	win	2023-07-07	20:50:49	20:54:14	200526	5eb8ff91a1bdb386c80cd7ea	3	1	main_slash	7	main_slash	5	stimuli_distractor_diamondtriangles.svg	stimuli_target_diamondsquares.svg	32	yes	53	1	812	0	0			0	0			1				0	
6.6.1	win	2023-07-07	20:50:49	20:54:14	200526	5eb8ff91a1bdb386c80cd7ea	3	1	main_slash	7	advance_on_keypress_SLASH	6	stimuli_distractor_diamondtriangles.svg	stimuli_target_diamondsquares.svg	32	yes	57	0	593	0	0			0	0			1				0	
6.6.1	win	2023-07-07	20:50:49	20:54:16	202504	5eb8ff91a1bdb386c80cd7ea	3	1	main_slash	7	main_slash	7	stimuli_target_squaretriangles.svg	stimuli_distractor_trianglediamonds.svg	3	yes	53	1	743	0	0			0	0			1				0	
6.6.1	win	2023-07-07	20:50:49	20:54:16	202504	5eb8ff91a1bdb386c80cd7ea	3	1	main_slash	7	advance_on_keypress_SLASH	8	stimuli_target_squaretriangles.svg	stimuli_distractor_trianglediamonds.svg	3	yes	57	0	276	0	0			0	0			1				0	
6.6.1	win	2023-07-07	20:50:49	20:54:19	205422	5eb8ff91a1bdb386c80cd7ea	3	1	main_slash	7	main_slash	9	stimuli_distractor_trianglediamonds.svg	stimuli_distractor_trianglediamonds.svg	34	no	0	1	2000	0	0			0	0			1				0	
6.6.1	win	2023-07-07	20:50:49	20:54:19	205422	5eb8ff91a1bdb386c80cd7ea	3	1	main_slash	7	advance_on_keypress_SLASH	10	stimuli_distractor_trianglediamonds.svg	stimuli_distractor_trianglediamonds.svg	34	no	57	0	284	0	0			0	0			1				0	
6.6.1	win	2023-07-07	20:50:49	20:54:20	207060	5eb8ff91a1bdb386c80cd7ea	3	1	main_slash	7	main_slash	11	stimuli_target_rectanglediamonds.svg	stimuli_distractor_trianglediamonds.svg	2	yes	53	1	709	0	0			0	0			1				0	
6.6.1	win	2023-07-07	20:50:49	20:54:20	207060	5eb8ff91a1bdb386c80cd7ea	3	1	main_slash	7	advance_on_keypress_SLASH	12	stimuli_target_rectanglediamonds.svg	stimuli_distractor_trianglediamonds.svg	2	yes	57	0	381	0	0			0	0			1				0	
6.6.1	win	2023-07-07	20:50:49	20:54:23	209191	5eb8ff91a1bdb386c80cd7ea	3	1	main_slash	7	main_slash	13	stimuli_distractor_diamondtriangles.svg	stimuli_target_diamondrectangles.svg	31	yes	53	1	1109	0	0			0	0			1				0	
6.6.1	win	2023-07-07	20:50:49	20:54:23	209191	5eb8ff91a1bdb386c80cd7ea	3	1	main_slash	7	advance_on_keypress_SLASH	14	stimuli_distractor_diamondtriangles.svg	stimuli_target_diamondrectangles.svg	31	yes	57	0	483	0	0			0	0			1				0	
6.6.1	win	2023-07-07	20:50:49	20:54:24	211121	5eb8ff91a1bdb386c80cd7ea	3	1	main_slash	7	main_slash	15	stimuli_target_squarediamonds.svg	stimuli_distractor_diamondtriangles.svg	8	yes	53	1	795	0	0			0	0			1				0	
6.6.1	win	2023-07-07	20:50:49	20:54:24	211121	5eb8ff91a1bdb386c80cd7ea	3	1	main_slash	7	advance_on_keypress_SLASH	16	stimuli_target_squarediamonds.svg	stimuli_distractor_diamondtriangles.svg	8	yes	57	0	411	0	0			0	0			1				0	
6.6.1	win	2023-07-07	20:50:49	20:54:26	212989	5eb8ff91a1bdb386c80cd7ea	3	1	main_slash	7	main_slash	17	stimuli_target_diamondsquares.svg	stimuli_distractor_diamondtriangles.svg	24	yes	53	1	798	0	0			0	0			1				0	
6.6.1	win	2023-07-07	20:50:49	20:54:26	212989	5eb8ff91a1bdb386c80cd7ea	3	1	main_slash	7	advance_on_keypress_SLASH	18	stimuli_target_diamondsquares.svg	stimuli_distractor_diamondtriangles.svg	24	yes	57	0	283	0	0			0	0			1				0	
6.6.1	win	2023-07-07	20:50:49	20:54:28	214718	5eb8ff91a1bdb386c80cd7ea	3	1	main_slash	7	main_slash	19	stimuli_distractor_trianglediamonds.svg	stimuli_target_rectanglediamonds.svg	10	yes	53	1	793	0	0			0	0			1				0	
6.6.1	win	2023-07-07	20:50:49	20:54:28	214718	5eb8ff91a1bdb386c80cd7ea	3	1	main_slash	7	advance_on_keypress_SLASH	20	stimuli_distractor_trianglediamonds.svg	stimuli_target_rectanglediamonds.svg	10	yes	57	0	255	0	0			0	0			1				0	
6.6.1	win	2023-07-07	20:50:49	20:54:30	216822	5eb8ff91a1bdb386c80cd7ea	3	1	main_slash	7	main_slash	21	stimuli_distractor_diamondtriangles.svg	stimuli_target_squarediamonds.svg	16	yes	53	1	1207	0	0			0	0			1				0	
6.6.1	win	2023-07-07	20:50:49	20:54:30	216822	5eb8ff91a1bdb386c80cd7ea	3	1	main_slash	7	advance_on_keypress_SLASH	22	stimuli_distractor_diamondtriangles.svg	stimuli_target_squarediamonds.svg	16	yes	57	0	385	0	0			0	0			1				0	
6.6.1	win	2023-07-07	20:50:49	20:54:32	218772	5eb8ff91a1bdb386c80cd7ea	3	1	main_slash	7	main_slash	23	stimuli_distractor_diamondtriangles.svg	stimuli_target_squaretriangles.svg	15	yes	53	1	919	0	0			0	0			1				0	
6.6.1	win	2023-07-07	20:50:49	20:54:32	218772	5eb8ff91a1bdb386c80cd7ea	3	1	main_slash	7	advance_on_keypress_SLASH	24	stimuli_distractor_diamondtriangles.svg	stimuli_target_squaretriangles.svg	15	yes	57	0	249	0	0			0	0			1				0	
6.6.1	win	2023-07-07	20:50:49	20:54:34	220771	5eb8ff91a1bdb386c80cd7ea	3	1	main_slash	7	main_slash	25	stimuli_distractor_trianglediamonds.svg	stimuli_target_diamondrectangles.svg	27	yes	53	1	1096	0	0			0	0			1				0	
6.6.1	win	2023-07-07	20:50:49	20:54:34	220771	5eb8ff91a1bdb386c80cd7ea	3	1	main_slash	7	advance_on_keypress_SLASH	26	stimuli_distractor_trianglediamonds.svg	stimuli_target_diamondrectangles.svg	27	yes	57	0	271	0	0			0	0			1				0	
6.6.1	win	2023-07-07	20:50:49	20:54:37	223679	5eb8ff91a1bdb386c80cd7ea	3	1	main_slash	7	main_slash	27	stimuli_distractor_trianglediamonds.svg	stimuli_distractor_diamondtriangles.svg	35	no	0	1	2000	0	0			0	0			1				0	
6.6.1	win	2023-07-07	20:50:49	20:54:37	223679	5eb8ff91a1bdb386c80cd7ea	3	1	main_slash	7	advance_on_keypress_SLASH	28	stimuli_distractor_trianglediamonds.svg	stimuli_distractor_diamondtriangles.svg	35	no	57	0	274	0	0			0	0			1				0	
6.6.1	win	2023-07-07	20:50:49	20:54:39	225452	5eb8ff91a1bdb386c80cd7ea	3	1	main_slash	7	main_slash	29	stimuli_distractor_trianglediamonds.svg	stimuli_target_rectangletriangles.svg	9	yes	53	1	867	0	0			0	0			1				0	
6.6.1	win	2023-07-07	20:50:49	20:54:39	225452	5eb8ff91a1bdb386c80cd7ea	3	1	main_slash	7	advance_on_keypress_SLASH	30	stimuli_distractor_trianglediamonds.svg	stimuli_target_rectangletriangles.svg	9	yes	57	0	272	0	0			0	0			1				0	
6.6.1	win	2023-07-07	20:50:49	20:54:40	227093	5eb8ff91a1bdb386c80cd7ea	3	1	main_slash	7	main_slash	31	stimuli_distractor_diamondtriangles.svg	stimuli_target_trianglesquares.svg	30	yes	53	1	719	0	0			0	0			1				0	
6.6.1	win	2023-07-07	20:50:49	20:54:40	227093	5eb8ff91a1bdb386c80cd7ea	3	1	main_slash	7	advance_on_keypress_SLASH	32	stimuli_distractor_diamondtriangles.svg	stimuli_target_trianglesquares.svg	30	yes	57	0	234	0	0			0	0			1				0	
6.6.1	win	2023-07-07	20:50:49	20:54:42	228752	5eb8ff91a1bdb386c80cd7ea	3	1	main_slash	7	main_slash	33	stimuli_distractor_trianglediamonds.svg	stimuli_target_trianglerectangles.svg	25	yes	53	1	759	0	0			0	0			1				0	
6.6.1	win	2023-07-07	20:50:49	20:54:42	228752	5eb8ff91a1bdb386c80cd7ea	3	1	main_slash	7	advance_on_keypress_SLASH	34	stimuli_distractor_trianglediamonds.svg	stimuli_target_trianglerectangles.svg	25	yes	57	0	274	0	0			0	0			1				0	
6.6.1	win	2023-07-07	20:50:49	20:54:44	230417	5eb8ff91a1bdb386c80cd7ea	3	1	main_slash	7	main_slash	35	stimuli_target_rectangletriangles.svg	stimuli_distractor_diamondtriangles.svg	5	yes	53	1	752	0	0			0	0			1				0	
6.6.1	win	2023-07-07	20:50:49	20:54:44	230417	5eb8ff91a1bdb386c80cd7ea	3	1	main_slash	7	advance_on_keypress_SLASH	36	stimuli_target_rectangletriangles.svg	stimuli_distractor_diamondtriangles.svg	5	yes	57	0	246	0	0			0	0			1				0	
6.6.1	win	2023-07-07	20:50:49	20:54:45	232082	5eb8ff91a1bdb386c80cd7ea	3	1	main_slash	7	main_slash	37	stimuli_target_squarediamonds.svg	stimuli_distractor_trianglediamonds.svg	4	yes	53	1	760	0	0			0	0			1				0	
6.6.1	win	2023-07-07	20:50:49	20:54:45	232082	5eb8ff91a1bdb386c80cd7ea	3	1	main_slash	7	advance_on_keypress_SLASH	38	stimuli_target_squarediamonds.svg	stimuli_distractor_trianglediamonds.svg	4	yes	57	0	260	0	0			0	0			1				0	
6.6.1	win	2023-07-07	20:50:49	20:54:47	233733	5eb8ff91a1bdb386c80cd7ea	3	1	main_slash	7	main_slash	39	stimuli_distractor_trianglediamonds.svg	stimuli_target_trianglesquares.svg	26	yes	53	1	740	0	0			0	0			1				0	
6.6.1	win	2023-07-07	20:50:49	20:54:47	233733	5eb8ff91a1bdb386c80cd7ea	3	1	main_slash	7	advance_on_keypress_SLASH	40	stimuli_distractor_trianglediamonds.svg	stimuli_target_trianglesquares.svg	26	yes	57	0	259	0	0			0	0			1				0	
6.6.1	win	2023-07-07	20:50:49	20:54:49	235839	5eb8ff91a1bdb386c80cd7ea	3	1	main_slash	7	main_slash	41	stimuli_distractor_trianglediamonds.svg	stimuli_distractor_diamondtriangles.svg	36	no	53	0	1214	0	0			0	0			1				0	
6.6.1	win	2023-07-07	20:50:49	20:54:49	235839	5eb8ff91a1bdb386c80cd7ea	3	1	main_slash	7	advance_on_keypress_SLASH	42	stimuli_distractor_trianglediamonds.svg	stimuli_distractor_diamondtriangles.svg	36	no	57	0	251	0	0			0	0			1				0	
6.6.1	win	2023-07-07	20:50:49	20:54:51	237598	5eb8ff91a1bdb386c80cd7ea	3	1	main_slash	7	main_slash	43	stimuli_distractor_trianglediamonds.svg	stimuli_target_squarediamonds.svg	12	yes	53	1	860	0	0			0	0			1				0	
6.6.1	win	2023-07-07	20:50:49	20:54:51	237598	5eb8ff91a1bdb386c80cd7ea	3	1	main_slash	7	advance_on_keypress_SLASH	44	stimuli_distractor_trianglediamonds.svg	stimuli_target_squarediamonds.svg	12	yes	57	0	228	0	0			0	0			1				0	
6.6.1	win	2023-07-07	20:50:49	20:54:53	239258	5eb8ff91a1bdb386c80cd7ea	3	1	main_slash	7	main_slash	45	stimuli_target_rectanglediamonds.svg	stimuli_distractor_diamondtriangles.svg	6	yes	53	1	772	0	0			0	0			1				0	
6.6.1	win	2023-07-07	20:50:49	20:54:53	239258	5eb8ff91a1bdb386c80cd7ea	3	1	main_slash	7	advance_on_keypress_SLASH	46	stimuli_target_rectanglediamonds.svg	stimuli_distractor_diamondtriangles.svg	6	yes	57	0	237	0	0			0	0			1				0	
6.6.1	win	2023-07-07	20:50:49	20:54:54	240945	5eb8ff91a1bdb386c80cd7ea	3	1	main_slash	7	main_slash	47	stimuli_target_trianglesquares.svg	stimuli_distractor_trianglediamonds.svg	18	yes	53	1	809	0	0			0	0			1				0	
6.6.1	win	2023-07-07	20:50:49	20:54:54	240945	5eb8ff91a1bdb386c80cd7ea	3	1	main_slash	7	advance_on_keypress_SLASH	48	stimuli_target_trianglesquares.svg	stimuli_distractor_trianglediamonds.svg	18	yes	57	0	236	0	0			0	0			1				0	
6.6.1	win	2023-07-07	20:50:49	20:54:56	242608	5eb8ff91a1bdb386c80cd7ea	3	1	main_slash	7	main_slash	49	stimuli_target_trianglerectangles.svg	stimuli_distractor_trianglediamonds.svg	17	yes	53	1	783	0	0			0	0			1				0	
6.6.1	win	2023-07-07	20:50:49	20:54:56	242608	5eb8ff91a1bdb386c80cd7ea	3	1	main_slash	7	advance_on_keypress_SLASH	50	stimuli_target_trianglerectangles.svg	stimuli_distractor_trianglediamonds.svg	17	yes	57	0	228	0	0			0	0			1				0	
6.6.1	win	2023-07-07	20:50:49	20:54:58	244283	5eb8ff91a1bdb386c80cd7ea	3	1	main_slash	7	main_slash	51	stimuli_distractor_diamondtriangles.svg	stimuli_target_trianglerectangles.svg	29	yes	53	1	790	0	0			0	0			1				0	
6.6.1	win	2023-07-07	20:50:49	20:54:58	244283	5eb8ff91a1bdb386c80cd7ea	3	1	main_slash	7	advance_on_keypress_SLASH	52	stimuli_distractor_diamondtriangles.svg	stimuli_target_trianglerectangles.svg	29	yes	57	0	200	0	0			0	0			1				0	
6.6.1	win	2023-07-07	20:50:49	20:54:59	245874	5eb8ff91a1bdb386c80cd7ea	3	1	main_slash	7	main_slash	53	stimuli_distractor_trianglediamonds.svg	stimuli_target_squaretriangles.svg	11	yes	53	1	744	0	0			0	0			1				0	
6.6.1	win	2023-07-07	20:50:49	20:54:59	245874	5eb8ff91a1bdb386c80cd7ea	3	1	main_slash	7	advance_on_keypress_SLASH	54	stimuli_distractor_trianglediamonds.svg	stimuli_target_squaretriangles.svg	11	yes	57	0	213	0	0			0	0			1				0	
6.6.1	win	2023-07-07	20:50:49	20:55:02	248717	5eb8ff91a1bdb386c80cd7ea	3	1	main_slash	7	main_slash	55	stimuli_distractor_diamondtriangles.svg	stimuli_distractor_trianglediamonds.svg	37	no	0	1	2000	0	0			0	0			1				0	
6.6.1	win	2023-07-07	20:50:49	20:55:02	248717	5eb8ff91a1bdb386c80cd7ea	3	1	main_slash	7	advance_on_keypress_SLASH	56	stimuli_distractor_diamondtriangles.svg	stimuli_distractor_trianglediamonds.svg	37	no	57	0	265	0	0			0	0			1				0	
6.6.1	win	2023-07-07	20:50:49	20:55:04	250598	5eb8ff91a1bdb386c80cd7ea	3	1	main_slash	7	main_slash	57	stimuli_target_diamondsquares.svg	stimuli_distractor_trianglediamonds.svg	20	yes	53	1	975	0	0			0	0			1				0	
6.6.1	win	2023-07-07	20:50:49	20:55:04	250598	5eb8ff91a1bdb386c80cd7ea	3	1	main_slash	7	advance_on_keypress_SLASH	58	stimuli_target_diamondsquares.svg	stimuli_distractor_trianglediamonds.svg	20	yes	57	0	215	0	0			0	0			1				0	
6.6.1	win	2023-07-07	20:50:49	20:55:06	252177	5eb8ff91a1bdb386c80cd7ea	3	1	main_slash	7	main_slash	59	stimuli_distractor_trianglediamonds.svg	stimuli_target_diamondsquares.svg	28	yes	53	1	703	0	0			0	0			1				0	
6.6.1	win	2023-07-07	20:50:49	20:55:06	252177	5eb8ff91a1bdb386c80cd7ea	3	1	main_slash	7	advance_on_keypress_SLASH	60	stimuli_distractor_trianglediamonds.svg	stimuli_target_diamondsquares.svg	28	yes	57	0	220	0	0			0	0			1				0	
6.6.1	win	2023-07-07	20:50:49	20:55:08	255049	5eb8ff91a1bdb386c80cd7ea	3	1	main_slash	7	main_slash	61	stimuli_distractor_diamondtriangles.svg	stimuli_target_rectangletriangles.svg	13	yes	0	0	2000	0	0			0	0			1				0	
6.6.1	win	2023-07-07	20:50:49	20:55:08	255049	5eb8ff91a1bdb386c80cd7ea	3	1	main_slash	7	advance_on_keypress_SLASH	62	stimuli_distractor_diamondtriangles.svg	stimuli_target_rectangletriangles.svg	13	yes	57	0	331	0	0			0	0			1				0	
6.6.1	win	2023-07-07	20:50:49	20:55:11	257388	5eb8ff91a1bdb386c80cd7ea	3	1	main_slash	7	main_slash	63	stimuli_distractor_diamondtriangles.svg	stimuli_distractor_trianglediamonds.svg	38	no	53	0	1375	0	0			0	0			1				0	
6.6.1	win	2023-07-07	20:50:49	20:55:11	257388	5eb8ff91a1bdb386c80cd7ea	3	1	main_slash	7	advance_on_keypress_SLASH	64	stimuli_distractor_diamondtriangles.svg	stimuli_distractor_trianglediamonds.svg	38	no	57	0	371	0	0			0	0			1				0	
6.6.1	win	2023-07-07	20:50:49	20:55:12	259176	5eb8ff91a1bdb386c80cd7ea	3	1	main_slash	7	main_slash	65	stimuli_target_squaretriangles.svg	stimuli_distractor_diamondtriangles.svg	7	yes	53	1	782	0	0			0	0			1				0	
6.6.1	win	2023-07-07	20:50:49	20:55:12	259176	5eb8ff91a1bdb386c80cd7ea	3	1	main_slash	7	advance_on_keypress_SLASH	66	stimuli_target_squaretriangles.svg	stimuli_distractor_diamondtriangles.svg	7	yes	57	0	179	0	0			0	0			1				0	
6.6.1	win	2023-07-07	20:50:49	20:55:14	260814	5eb8ff91a1bdb386c80cd7ea	3	1	main_slash	7	main_slash	67	stimuli_target_diamondrectangles.svg	stimuli_distractor_trianglediamonds.svg	19	yes	53	1	802	0	0			0	0			1				0	
6.6.1	win	2023-07-07	20:50:49	20:55:14	260814	5eb8ff91a1bdb386c80cd7ea	3	1	main_slash	7	advance_on_keypress_SLASH	68	stimuli_target_diamondrectangles.svg	stimuli_distractor_trianglediamonds.svg	19	yes	57	0	158	0	0			0	0			1				0	
6.6.1	win	2023-07-07	20:50:49	20:55:16	262372	5eb8ff91a1bdb386c80cd7ea	3	1	main_slash	7	main_slash	69	stimuli_distractor_diamondtriangles.svg	stimuli_target_rectanglediamonds.svg	14	yes	53	1	739	0	0			0	0			1				0	
6.6.1	win	2023-07-07	20:50:49	20:55:16	262372	5eb8ff91a1bdb386c80cd7ea	3	1	main_slash	7	advance_on_keypress_SLASH	70	stimuli_distractor_diamondtriangles.svg	stimuli_target_rectanglediamonds.svg	14	yes	57	0	187	0	0			0	0			1				0	
6.6.1	win	2023-07-07	20:50:49	20:55:17	263891	5eb8ff91a1bdb386c80cd7ea	3	1	main_slash	7	main_slash	71	stimuli_target_diamondrectangles.svg	stimuli_distractor_diamondtriangles.svg	23	yes	53	1	688	0	0			0	0			1				0	
6.6.1	win	2023-07-07	20:50:49	20:55:17	263891	5eb8ff91a1bdb386c80cd7ea	3	1	main_slash	7	advance_on_keypress_SLASH	72	stimuli_target_diamondrectangles.svg	stimuli_distractor_diamondtriangles.svg	23	yes	57	0	198	0	0			0	0			1				0	
6.6.1	win	2023-07-07	20:50:49	20:55:19	265463	5eb8ff91a1bdb386c80cd7ea	3	1	main_slash	7	main_slash	73	stimuli_target_trianglesquares.svg	stimuli_distractor_diamondtriangles.svg	22	yes	53	1	719	0	0			0	0			1				0	
6.6.1	win	2023-07-07	20:50:49	20:55:19	265463	5eb8ff91a1bdb386c80cd7ea	3	1	main_slash	7	advance_on_keypress_SLASH	74	stimuli_target_trianglesquares.svg	stimuli_distractor_diamondtriangles.svg	22	yes	57	0	182	0	0			0	0			1				0	
6.6.1	win	2023-07-07	20:50:49	20:55:20	266999	5eb8ff91a1bdb386c80cd7ea	3	1	main_slash	7	main_slash	75	stimuli_target_trianglerectangles.svg	stimuli_distractor_diamondtriangles.svg	21	yes	53	1	691	0	0			0	0			1				0	
6.6.1	win	2023-07-07	20:50:49	20:55:20	266999	5eb8ff91a1bdb386c80cd7ea	3	1	main_slash	7	advance_on_keypress_SLASH	76	stimuli_target_trianglerectangles.svg	stimuli_distractor_diamondtriangles.svg	21	yes	57	0	196	0	0			0	0			1				0	
6.6.1	win	2023-07-07	20:50:49	20:55:23	269830	5eb8ff91a1bdb386c80cd7ea	3	1	main_slash	7	main_slash	77	stimuli_target_rectangletriangles.svg	stimuli_distractor_trianglediamonds.svg	1	yes	0	0	2000	0	0			0	0			1				0	
6.6.1	win	2023-07-07	20:50:49	20:55:23	269830	5eb8ff91a1bdb386c80cd7ea	3	1	main_slash	7	advance_on_keypress_SLASH	78	stimuli_target_rectangletriangles.svg	stimuli_distractor_trianglediamonds.svg	1	yes	57	0	277	0	0			0	0			1				0	
6.6.1	win	2023-07-07	20:50:49	20:55:26	272737	5eb8ff91a1bdb386c80cd7ea	3	1	main_slash	7	main_slash	79	stimuli_distractor_diamondtriangles.svg	stimuli_distractor_diamondtriangles.svg	39	no	0	1	2000	0	0			0	0			1				0	
6.6.1	win	2023-07-07	20:50:49	20:55:26	272737	5eb8ff91a1bdb386c80cd7ea	3	1	main_slash	7	advance_on_keypress_SLASH	80	stimuli_distractor_diamondtriangles.svg	stimuli_distractor_diamondtriangles.svg	39	no	57	0	251	0	0			0	0			1				0	
6.6.1	win	2023-07-07	20:50:49	20:55:28	274418	5eb8ff91a1bdb386c80cd7ea	3	1	main_slash	7	main_slash	81	stimuli_target_rectangletriangles.svg	stimuli_distractor_trianglediamonds.svg	1	yes	53	1	787	0	0			0	0			1				0	
6.6.1	win	2023-07-07	20:50:49	20:55:28	274418	5eb8ff91a1bdb386c80cd7ea	3	1	main_slash	7	advance_on_keypress_SLASH	82	stimuli_target_rectangletriangles.svg	stimuli_distractor_trianglediamonds.svg	1	yes	57	0	166	0	0			0	0			1				0	
6.6.1	win	2023-07-07	20:50:49	20:55:29	275955	5eb8ff91a1bdb386c80cd7ea	3	1	main_slash	7	main_slash	83	stimuli_distractor_trianglediamonds.svg	stimuli_target_diamondrectangles.svg	27	yes	53	1	722	0	0			0	0			1				0	
6.6.1	win	2023-07-07	20:50:49	20:55:29	275955	5eb8ff91a1bdb386c80cd7ea	3	1	main_slash	7	advance_on_keypress_SLASH	84	stimuli_distractor_trianglediamonds.svg	stimuli_target_diamondrectangles.svg	27	yes	57	0	205	0	0			0	0			1				0	
6.6.1	win	2023-07-07	20:50:49	20:55:31	277523	5eb8ff91a1bdb386c80cd7ea	3	1	main_slash	7	main_slash	85	stimuli_distractor_trianglediamonds.svg	stimuli_target_squaretriangles.svg	11	yes	53	1	724	0	0			0	0			1				0	
6.6.1	win	2023-07-07	20:50:49	20:55:31	277523	5eb8ff91a1bdb386c80cd7ea	3	1	main_slash	7	advance_on_keypress_SLASH	86	stimuli_distractor_trianglediamonds.svg	stimuli_target_squaretriangles.svg	11	yes	57	0	205	0	0			0	0			1				0	
6.6.1	win	2023-07-07	20:50:49	20:55:32	279116	5eb8ff91a1bdb386c80cd7ea	3	1	main_slash	7	main_slash	87	stimuli_target_trianglerectangles.svg	stimuli_distractor_diamondtriangles.svg	21	yes	53	1	747	0	0			0	0			1				0	
6.6.1	win	2023-07-07	20:50:49	20:55:32	279116	5eb8ff91a1bdb386c80cd7ea	3	1	main_slash	7	advance_on_keypress_SLASH	88	stimuli_target_trianglerectangles.svg	stimuli_distractor_diamondtriangles.svg	21	yes	57	0	188	0	0			0	0			1				0	
6.6.1	win	2023-07-07	20:50:49	20:55:34	280682	5eb8ff91a1bdb386c80cd7ea	3	1	main_slash	7	main_slash	89	stimuli_distractor_trianglediamonds.svg	stimuli_target_trianglerectangles.svg	25	yes	53	1	743	0	0			0	0			1				0	
6.6.1	win	2023-07-07	20:50:49	20:55:34	280682	5eb8ff91a1bdb386c80cd7ea	3	1	main_slash	7	advance_on_keypress_SLASH	90	stimuli_distractor_trianglediamonds.svg	stimuli_target_trianglerectangles.svg	25	yes	57	0	176	0	0			0	0			1				0	
6.6.1	win	2023-07-07	20:50:49	20:55:36	282190	5eb8ff91a1bdb386c80cd7ea	3	1	main_slash	7	main_slash	91	stimuli_distractor_diamondtriangles.svg	stimuli_target_trianglerectangles.svg	29	yes	53	1	697	0	0			0	0			1				0	
6.6.1	win	2023-07-07	20:50:49	20:55:36	282190	5eb8ff91a1bdb386c80cd7ea	3	1	main_slash	7	advance_on_keypress_SLASH	92	stimuli_distractor_diamondtriangles.svg	stimuli_target_trianglerectangles.svg	29	yes	57	0	152	0	0			0	0			1				0	
6.6.1	win	2023-07-07	20:50:49	20:55:37	283751	5eb8ff91a1bdb386c80cd7ea	3	1	main_slash	7	main_slash	93	stimuli_distractor_diamondtriangles.svg	stimuli_target_rectangletriangles.svg	13	yes	53	1	759	0	0			0	0			1				0	
6.6.1	win	2023-07-07	20:50:49	20:55:37	283751	5eb8ff91a1bdb386c80cd7ea	3	1	main_slash	7	advance_on_keypress_SLASH	94	stimuli_distractor_diamondtriangles.svg	stimuli_target_rectangletriangles.svg	13	yes	57	0	147	0	0			0	0			1				0	
6.6.1	win	2023-07-07	20:50:49	20:55:39	285330	5eb8ff91a1bdb386c80cd7ea	3	1	main_slash	7	main_slash	95	stimuli_distractor_diamondtriangles.svg	stimuli_target_rectanglediamonds.svg	14	yes	53	1	781	0	0			0	0			1				0	
6.6.1	win	2023-07-07	20:50:49	20:55:39	285330	5eb8ff91a1bdb386c80cd7ea	3	1	main_slash	7	advance_on_keypress_SLASH	96	stimuli_distractor_diamondtriangles.svg	stimuli_target_rectanglediamonds.svg	14	yes	57	0	201	0	0			0	0			1				0	
6.6.1	win	2023-07-07	20:50:49	20:55:40	287083	5eb8ff91a1bdb386c80cd7ea	3	1	main_slash	7	main_slash	97	stimuli_target_trianglesquares.svg	stimuli_distractor_trianglediamonds.svg	18	yes	53	1	913	0	0			0	0			1				0	
6.6.1	win	2023-07-07	20:50:49	20:55:40	287083	5eb8ff91a1bdb386c80cd7ea	3	1	main_slash	7	advance_on_keypress_SLASH	98	stimuli_target_trianglesquares.svg	stimuli_distractor_trianglediamonds.svg	18	yes	57	0	178	0	0			0	0			1				0	
6.6.1	win	2023-07-07	20:50:49	20:55:42	288759	5eb8ff91a1bdb386c80cd7ea	3	1	main_slash	7	main_slash	99	stimuli_target_squaretriangles.svg	stimuli_distractor_trianglediamonds.svg	3	yes	53	1	869	0	0			0	0			1				0	
6.6.1	win	2023-07-07	20:50:49	20:55:42	288759	5eb8ff91a1bdb386c80cd7ea	3	1	main_slash	7	advance_on_keypress_SLASH	100	stimuli_target_squaretriangles.svg	stimuli_distractor_trianglediamonds.svg	3	yes	57	0	107	0	0			0	0			1				0	
6.6.1	win	2023-07-07	20:50:49	20:55:44	290281	5eb8ff91a1bdb386c80cd7ea	3	1	main_slash	7	main_slash	101	stimuli_target_squarediamonds.svg	stimuli_distractor_diamondtriangles.svg	8	yes	53	1	771	0	0			0	0			1				0	
6.6.1	win	2023-07-07	20:50:49	20:55:44	290281	5eb8ff91a1bdb386c80cd7ea	3	1	main_slash	7	advance_on_keypress_SLASH	102	stimuli_target_squarediamonds.svg	stimuli_distractor_diamondtriangles.svg	8	yes	57	0	153	0	0			0	0			1				0	
6.6.1	win	2023-07-07	20:50:49	20:55:45	291882	5eb8ff91a1bdb386c80cd7ea	3	1	main_slash	7	main_slash	103	stimuli_distractor_trianglediamonds.svg	stimuli_target_squarediamonds.svg	12	yes	53	1	802	0	0			0	0			1				0	
6.6.1	win	2023-07-07	20:50:49	20:55:45	291882	5eb8ff91a1bdb386c80cd7ea	3	1	main_slash	7	advance_on_keypress_SLASH	104	stimuli_distractor_trianglediamonds.svg	stimuli_target_squarediamonds.svg	12	yes	57	0	154	0	0			0	0			1				0	
6.6.1	win	2023-07-07	20:50:49	20:55:47	293734	5eb8ff91a1bdb386c80cd7ea	3	1	main_slash	7	main_slash	105	stimuli_target_diamondrectangles.svg	stimuli_distractor_trianglediamonds.svg	19	yes	53	1	1033	0	0			0	0			1				0	
6.6.1	win	2023-07-07	20:50:49	20:55:47	293734	5eb8ff91a1bdb386c80cd7ea	3	1	main_slash	7	advance_on_keypress_SLASH	106	stimuli_target_diamondrectangles.svg	stimuli_distractor_trianglediamonds.svg	19	yes	57	0	158	0	0			0	0			1				0	
6.6.1	win	2023-07-07	20:50:49	20:55:49	295331	5eb8ff91a1bdb386c80cd7ea	3	1	main_slash	7	main_slash	107	stimuli_distractor_trianglediamonds.svg	stimuli_target_diamondsquares.svg	28	yes	53	1	793	0	0			0	0			1				0	
6.6.1	win	2023-07-07	20:50:49	20:55:49	295331	5eb8ff91a1bdb386c80cd7ea	3	1	main_slash	7	advance_on_keypress_SLASH	108	stimuli_distractor_trianglediamonds.svg	stimuli_target_diamondsquares.svg	28	yes	57	0	201	0	0			0	0			1				0	
6.6.1	win	2023-07-07	20:50:49	20:55:50	296936	5eb8ff91a1bdb386c80cd7ea	3	1	main_slash	7	main_slash	109	stimuli_target_diamondsquares.svg	stimuli_distractor_diamondtriangles.svg	24	yes	53	1	761	0	0			0	0			1				0	
6.6.1	win	2023-07-07	20:50:49	20:55:50	296936	5eb8ff91a1bdb386c80cd7ea	3	1	main_slash	7	advance_on_keypress_SLASH	110	stimuli_target_diamondsquares.svg	stimuli_distractor_diamondtriangles.svg	24	yes	57	0	139	0	0			0	0			1				0	
6.6.1	win	2023-07-07	20:50:49	20:55:52	298473	5eb8ff91a1bdb386c80cd7ea	3	1	main_slash	7	main_slash	111	stimuli_target_trianglesquares.svg	stimuli_distractor_diamondtriangles.svg	22	yes	53	1	762	0	0			0	0			1				0	
6.6.1	win	2023-07-07	20:50:49	20:55:52	298473	5eb8ff91a1bdb386c80cd7ea	3	1	main_slash	7	advance_on_keypress_SLASH	112	stimuli_target_trianglesquares.svg	stimuli_distractor_diamondtriangles.svg	22	yes	57	0	170	0	0			0	0			1				0	
6.6.1	win	2023-07-07	20:50:49	20:55:55	301285	5eb8ff91a1bdb386c80cd7ea	3	1	main_slash	7	main_slash	113	stimuli_distractor_trianglediamonds.svg	stimuli_distractor_diamondtriangles.svg	35	no	0	1	2000	0	0			0	0			1				0	
6.6.1	win	2023-07-07	20:50:49	20:55:55	301285	5eb8ff91a1bdb386c80cd7ea	3	1	main_slash	7	advance_on_keypress_SLASH	114	stimuli_distractor_trianglediamonds.svg	stimuli_distractor_diamondtriangles.svg	35	no	57	0	297	0	0			0	0			1				0	
6.6.1	win	2023-07-07	20:50:49	20:55:56	303025	5eb8ff91a1bdb386c80cd7ea	3	1	main_slash	7	main_slash	115	stimuli_distractor_diamondtriangles.svg	stimuli_distractor_diamondtriangles.svg	40	no	53	0	786	0	0			0	0			1				0	
6.6.1	win	2023-07-07	20:50:49	20:55:56	303025	5eb8ff91a1bdb386c80cd7ea	3	1	main_slash	7	advance_on_keypress_SLASH	116	stimuli_distractor_diamondtriangles.svg	stimuli_distractor_diamondtriangles.svg	40	no	57	0	155	0	0			0	0			1				0	
6.6.1	win	2023-07-07	20:50:49	20:55:58	304602	5eb8ff91a1bdb386c80cd7ea	3	1	main_slash	7	main_slash	117	stimuli_target_diamondsquares.svg	stimuli_distractor_trianglediamonds.svg	20	yes	53	1	777	0	0			0	0			1				0	
6.6.1	win	2023-07-07	20:50:49	20:55:58	304602	5eb8ff91a1bdb386c80cd7ea	3	1	main_slash	7	advance_on_keypress_SLASH	118	stimuli_target_diamondsquares.svg	stimuli_distractor_trianglediamonds.svg	20	yes	57	0	203	0	0			0	0			1				0	
6.6.1	win	2023-07-07	20:50:49	20:56:00	306233	5eb8ff91a1bdb386c80cd7ea	3	1	main_slash	7	main_slash	119	stimuli_target_diamondrectangles.svg	stimuli_distractor_diamondtriangles.svg	23	yes	53	1	788	0	0			0	0			1				0	
6.6.1	win	2023-07-07	20:50:49	20:56:00	306233	5eb8ff91a1bdb386c80cd7ea	3	1	main_slash	7	advance_on_keypress_SLASH	120	stimuli_target_diamondrectangles.svg	stimuli_distractor_diamondtriangles.svg	23	yes	57	0	165	0	0			0	0			1				0	
6.6.1	win	2023-07-07	20:50:49	20:56:01	307823	5eb8ff91a1bdb386c80cd7ea	3	1	main_slash	7	main_slash	121	stimuli_target_squaretriangles.svg	stimuli_distractor_diamondtriangles.svg	7	yes	53	1	766	0	0			0	0			1				0	
6.6.1	win	2023-07-07	20:50:49	20:56:01	307823	5eb8ff91a1bdb386c80cd7ea	3	1	main_slash	7	advance_on_keypress_SLASH	122	stimuli_target_squaretriangles.svg	stimuli_distractor_diamondtriangles.svg	7	yes	57	0	203	0	0			0	0			1				0	
6.6.1	win	2023-07-07	20:50:49	20:56:04	310669	5eb8ff91a1bdb386c80cd7ea	3	1	main_slash	7	main_slash	123	stimuli_distractor_trianglediamonds.svg	stimuli_distractor_trianglediamonds.svg	33	no	0	1	2000	0	0			0	0			1				0	
6.6.1	win	2023-07-07	20:50:49	20:56:04	310669	5eb8ff91a1bdb386c80cd7ea	3	1	main_slash	7	advance_on_keypress_SLASH	124	stimuli_distractor_trianglediamonds.svg	stimuli_distractor_trianglediamonds.svg	33	no	57	0	289	0	0			0	0			1				0	
6.6.1	win	2023-07-07	20:50:49	20:56:07	313592	5eb8ff91a1bdb386c80cd7ea	3	1	main_slash	7	main_slash	125	stimuli_distractor_diamondtriangles.svg	stimuli_distractor_trianglediamonds.svg	38	no	0	1	2000	0	0			0	0			1				0	
6.6.1	win	2023-07-07	20:50:49	20:56:07	313592	5eb8ff91a1bdb386c80cd7ea	3	1	main_slash	7	advance_on_keypress_SLASH	126	stimuli_distractor_diamondtriangles.svg	stimuli_distractor_trianglediamonds.svg	38	no	57	0	287	0	0			0	0			1				0	
6.6.1	win	2023-07-07	20:50:49	20:56:10	316515	5eb8ff91a1bdb386c80cd7ea	3	1	main_slash	7	main_slash	127	stimuli_distractor_trianglediamonds.svg	stimuli_distractor_trianglediamonds.svg	34	no	0	1	2000	0	0			0	0			1				0	
6.6.1	win	2023-07-07	20:50:49	20:56:10	316515	5eb8ff91a1bdb386c80cd7ea	3	1	main_slash	7	advance_on_keypress_SLASH	128	stimuli_distractor_trianglediamonds.svg	stimuli_distractor_trianglediamonds.svg	34	no	57	0	294	0	0			0	0			1				0	
6.6.1	win	2023-07-07	20:50:49	20:56:12	318190	5eb8ff91a1bdb386c80cd7ea	3	1	main_slash	7	main_slash	129	stimuli_target_rectanglediamonds.svg	stimuli_distractor_diamondtriangles.svg	6	yes	53	1	752	0	0			0	0			1				0	
6.6.1	win	2023-07-07	20:50:49	20:56:12	318190	5eb8ff91a1bdb386c80cd7ea	3	1	main_slash	7	advance_on_keypress_SLASH	130	stimuli_target_rectanglediamonds.svg	stimuli_distractor_diamondtriangles.svg	6	yes	57	0	190	0	0			0	0			1				0	
6.6.1	win	2023-07-07	20:50:49	20:56:13	319766	5eb8ff91a1bdb386c80cd7ea	3	1	main_slash	7	main_slash	131	stimuli_target_rectangletriangles.svg	stimuli_distractor_diamondtriangles.svg	5	yes	53	1	741	0	0			0	0			1				0	
6.6.1	win	2023-07-07	20:50:49	20:56:13	319766	5eb8ff91a1bdb386c80cd7ea	3	1	main_slash	7	advance_on_keypress_SLASH	132	stimuli_target_rectangletriangles.svg	stimuli_distractor_diamondtriangles.svg	5	yes	57	0	200	0	0			0	0			1				0	
6.6.1	win	2023-07-07	20:50:49	20:56:15	321346	5eb8ff91a1bdb386c80cd7ea	3	1	main_slash	7	main_slash	133	stimuli_distractor_diamondtriangles.svg	stimuli_target_diamondrectangles.svg	31	yes	53	1	727	0	0			0	0			1				0	
6.6.1	win	2023-07-07	20:50:49	20:56:15	321346	5eb8ff91a1bdb386c80cd7ea	3	1	main_slash	7	advance_on_keypress_SLASH	134	stimuli_distractor_diamondtriangles.svg	stimuli_target_diamondrectangles.svg	31	yes	57	0	192	0	0			0	0			1				0	
6.6.1	win	2023-07-07	20:50:49	20:56:16	322945	5eb8ff91a1bdb386c80cd7ea	3	1	main_slash	7	main_slash	135	stimuli_distractor_diamondtriangles.svg	stimuli_target_trianglesquares.svg	30	yes	53	1	747	0	0			0	0			1				0	
6.6.1	win	2023-07-07	20:50:49	20:56:16	322945	5eb8ff91a1bdb386c80cd7ea	3	1	main_slash	7	advance_on_keypress_SLASH	136	stimuli_distractor_diamondtriangles.svg	stimuli_target_trianglesquares.svg	30	yes	57	0	199	0	0			0	0			1				0	
6.6.1	win	2023-07-07	20:50:49	20:56:18	324512	5eb8ff91a1bdb386c80cd7ea	3	1	main_slash	7	main_slash	137	stimuli_distractor_trianglediamonds.svg	stimuli_target_rectanglediamonds.svg	10	yes	53	1	726	0	0			0	0			1				0	
6.6.1	win	2023-07-07	20:50:49	20:56:18	324512	5eb8ff91a1bdb386c80cd7ea	3	1	main_slash	7	advance_on_keypress_SLASH	138	stimuli_distractor_trianglediamonds.svg	stimuli_target_rectanglediamonds.svg	10	yes	57	0	202	0	0			0	0			1				0	
6.6.1	win	2023-07-07	20:50:49	20:56:21	327356	5eb8ff91a1bdb386c80cd7ea	3	1	main_slash	7	main_slash	139	stimuli_distractor_diamondtriangles.svg	stimuli_distractor_trianglediamonds.svg	37	no	0	1	2000	0	0			0	0			1				0	
6.6.1	win	2023-07-07	20:50:49	20:56:21	327356	5eb8ff91a1bdb386c80cd7ea	3	1	main_slash	7	advance_on_keypress_SLASH	140	stimuli_distractor_diamondtriangles.svg	stimuli_distractor_trianglediamonds.svg	37	no	57	0	391	0	0			0	0			1				0	
6.6.1	win	2023-07-07	20:50:49	20:56:22	329093	5eb8ff91a1bdb386c80cd7ea	3	1	main_slash	7	main_slash	141	stimuli_distractor_trianglediamonds.svg	stimuli_target_trianglesquares.svg	26	yes	53	1	714	0	0			0	0			1				0	
6.6.1	win	2023-07-07	20:50:49	20:56:22	329093	5eb8ff91a1bdb386c80cd7ea	3	1	main_slash	7	advance_on_keypress_SLASH	142	stimuli_distractor_trianglediamonds.svg	stimuli_target_trianglesquares.svg	26	yes	57	0	225	0	0			0	0			1				0	
6.6.1	win	2023-07-07	20:50:49	20:56:24	330775	5eb8ff91a1bdb386c80cd7ea	3	1	main_slash	7	main_slash	143	stimuli_distractor_trianglediamonds.svg	stimuli_distractor_diamondtriangles.svg	36	no	53	0	826	0	0			0	0			1				0	
6.6.1	win	2023-07-07	20:50:49	20:56:24	330775	5eb8ff91a1bdb386c80cd7ea	3	1	main_slash	7	advance_on_keypress_SLASH	144	stimuli_distractor_trianglediamonds.svg	stimuli_distractor_diamondtriangles.svg	36	no	57	0	166	0	0			0	0			1				0	
6.6.1	win	2023-07-07	20:50:49	20:56:26	332358	5eb8ff91a1bdb386c80cd7ea	3	1	main_slash	7	main_slash	145	stimuli_distractor_diamondtriangles.svg	stimuli_target_squarediamonds.svg	16	yes	53	1	761	0	0			0	0			1				0	
6.6.1	win	2023-07-07	20:50:49	20:56:26	332358	5eb8ff91a1bdb386c80cd7ea	3	1	main_slash	7	advance_on_keypress_SLASH	146	stimuli_distractor_diamondtriangles.svg	stimuli_target_squarediamonds.svg	16	yes	57	0	146	0	0			0	0			1				0	
6.6.1	win	2023-07-07	20:50:49	20:56:28	335139	5eb8ff91a1bdb386c80cd7ea	3	1	main_slash	7	main_slash	147	stimuli_distractor_diamondtriangles.svg	stimuli_distractor_diamondtriangles.svg	39	no	0	1	2000	0	0			0	0			1				0	
6.6.1	win	2023-07-07	20:50:49	20:56:28	335139	5eb8ff91a1bdb386c80cd7ea	3	1	main_slash	7	advance_on_keypress_SLASH	148	stimuli_distractor_diamondtriangles.svg	stimuli_distractor_diamondtriangles.svg	39	no	57	0	265	0	0			0	0			1				0	
6.6.1	win	2023-07-07	20:50:49	20:56:30	336740	5eb8ff91a1bdb386c80cd7ea	3	1	main_slash	7	main_slash	149	stimuli_distractor_trianglediamonds.svg	stimuli_target_rectangletriangles.svg	9	yes	53	1	695	0	0			0	0			1				0	
6.6.1	win	2023-07-07	20:50:49	20:56:30	336740	5eb8ff91a1bdb386c80cd7ea	3	1	main_slash	7	advance_on_keypress_SLASH	150	stimuli_distractor_trianglediamonds.svg	stimuli_target_rectangletriangles.svg	9	yes	57	0	239	0	0			0	0			1				0	
6.6.1	win	2023-07-07	20:50:49	20:56:32	338232	5eb8ff91a1bdb386c80cd7ea	3	1	main_slash	7	main_slash	151	stimuli_distractor_diamondtriangles.svg	stimuli_target_squaretriangles.svg	15	yes	53	1	617	0	0			0	0			1				0	
6.6.1	win	2023-07-07	20:50:49	20:56:32	338232	5eb8ff91a1bdb386c80cd7ea	3	1	main_slash	7	advance_on_keypress_SLASH	152	stimuli_distractor_diamondtriangles.svg	stimuli_target_squaretriangles.svg	15	yes	57	0	247	0	0			0	0			1				0	
6.6.1	win	2023-07-07	20:50:49	20:56:33	339795	5eb8ff91a1bdb386c80cd7ea	3	1	main_slash	7	main_slash	153	stimuli_target_trianglerectangles.svg	stimuli_distractor_trianglediamonds.svg	17	yes	53	1	676	0	0			0	0			1				0	
6.6.1	win	2023-07-07	20:50:49	20:56:33	339795	5eb8ff91a1bdb386c80cd7ea	3	1	main_slash	7	advance_on_keypress_SLASH	154	stimuli_target_trianglerectangles.svg	stimuli_distractor_trianglediamonds.svg	17	yes	57	0	271	0	0			0	0			1				0	
6.6.1	win	2023-07-07	20:50:49	20:56:35	341405	5eb8ff91a1bdb386c80cd7ea	3	1	main_slash	7	main_slash	155	stimuli_target_squarediamonds.svg	stimuli_distractor_trianglediamonds.svg	4	yes	53	1	698	0	0			0	0			1				0	
6.6.1	win	2023-07-07	20:50:49	20:56:35	341405	5eb8ff91a1bdb386c80cd7ea	3	1	main_slash	7	advance_on_keypress_SLASH	156	stimuli_target_squarediamonds.svg	stimuli_distractor_trianglediamonds.svg	4	yes	57	0	239	0	0			0	0			1				0	
6.6.1	win	2023-07-07	20:50:49	20:56:36	343059	5eb8ff91a1bdb386c80cd7ea	3	1	main_slash	7	main_slash	157	stimuli_distractor_diamondtriangles.svg	stimuli_target_diamondsquares.svg	32	yes	53	1	783	0	0			0	0			1				0	
6.6.1	win	2023-07-07	20:50:49	20:56:36	343059	5eb8ff91a1bdb386c80cd7ea	3	1	main_slash	7	advance_on_keypress_SLASH	158	stimuli_distractor_diamondtriangles.svg	stimuli_target_diamondsquares.svg	32	yes	57	0	259	0	0			0	0			1				0	
6.6.1	win	2023-07-07	20:50:49	20:56:38	344724	5eb8ff91a1bdb386c80cd7ea	3	1	main_slash	7	main_slash	159	stimuli_target_rectanglediamonds.svg	stimuli_distractor_trianglediamonds.svg	2	yes	53	1	778	0	0			0	0			1				0	
6.6.1	win	2023-07-07	20:50:49	20:56:38	344724	5eb8ff91a1bdb386c80cd7ea	3	1	main_slash	7	advance_on_keypress_SLASH	160	stimuli_target_rectanglediamonds.svg	stimuli_distractor_trianglediamonds.svg	2	yes	57	0	218	0	0			0	0			1				0	
6.6.1	win	2023-07-07	20:50:49	20:57:02	368300	5eb8ff91a1bdb386c80cd7ea	3	1	practice_z	9	practice_z	1	stimuli_target_rectanglediamonds.svg	stimuli_distractor_diamondtriangles.svg	1	yes	44	1	751	0	0			0	0			1				0	
6.6.1	win	2023-07-07	20:50:49	20:57:02	368300	5eb8ff91a1bdb386c80cd7ea	3	1	practice_z	9	advance_on_keypress_ZEE	2	stimuli_target_rectanglediamonds.svg	stimuli_distractor_diamondtriangles.svg	1	yes	57	0	7282	0	0			0	0			1				0	
6.6.1	win	2023-07-07	20:50:49	20:57:11	377860	5eb8ff91a1bdb386c80cd7ea	3	1	practice_z	9	practice_z	3	stimuli_distractor_trianglediamonds.svg	stimuli_target_squarediamonds.svg	11	yes	44	1	626	0	0			0	0			1				0	
6.6.1	win	2023-07-07	20:50:49	20:57:11	377860	5eb8ff91a1bdb386c80cd7ea	3	1	practice_z	9	advance_on_keypress_ZEE	4	stimuli_distractor_trianglediamonds.svg	stimuli_target_squarediamonds.svg	11	yes	57	0	516	0	0			0	0			1				0	
6.6.1	win	2023-07-07	20:50:49	20:57:14	380720	5eb8ff91a1bdb386c80cd7ea	3	1	practice_z	9	practice_z	5	stimuli_distractor_diamondtriangles.svg	stimuli_target_diamondrectangles.svg	8	yes	44	1	690	0	0			0	0			1				0	
6.6.1	win	2023-07-07	20:50:49	20:57:14	380720	5eb8ff91a1bdb386c80cd7ea	3	1	practice_z	9	advance_on_keypress_ZEE	6	stimuli_distractor_diamondtriangles.svg	stimuli_target_diamondrectangles.svg	8	yes	57	0	2154	0	0			0	0			1				0	
6.6.1	win	2023-07-07	20:50:49	20:57:19	385280	5eb8ff91a1bdb386c80cd7ea	3	1	practice_z	9	practice_z	7	stimuli_target_diamondsquares.svg	stimuli_distractor_trianglediamonds.svg	6	yes	44	1	763	0	0			0	0			1				0	
6.6.1	win	2023-07-07	20:50:49	20:57:19	385280	5eb8ff91a1bdb386c80cd7ea	3	1	practice_z	9	advance_on_keypress_ZEE	8	stimuli_target_diamondsquares.svg	stimuli_distractor_trianglediamonds.svg	6	yes	57	0	374	0	0			0	0			1				0	
6.6.1	win	2023-07-07	20:50:49	20:57:21	388074	5eb8ff91a1bdb386c80cd7ea	3	1	practice_z	9	practice_z	9	stimuli_distractor_trianglediamonds.svg	stimuli_target_rectanglediamonds.svg	10	yes	44	1	784	0	0			0	0			1				0	
6.6.1	win	2023-07-07	20:50:49	20:57:21	388074	5eb8ff91a1bdb386c80cd7ea	3	1	practice_z	9	advance_on_keypress_ZEE	10	stimuli_distractor_trianglediamonds.svg	stimuli_target_rectanglediamonds.svg	10	yes	57	0	297	0	0			0	0			1				0	
6.6.1	win	2023-07-07	20:50:49	20:57:24	390643	5eb8ff91a1bdb386c80cd7ea	3	1	practice_z	9	practice_z	11	stimuli_target_squarediamonds.svg	stimuli_distractor_trianglediamonds.svg	5	yes	44	1	647	0	0			0	0			1				0	
6.6.1	win	2023-07-07	20:50:49	20:57:24	390643	5eb8ff91a1bdb386c80cd7ea	3	1	practice_z	9	advance_on_keypress_ZEE	12	stimuli_target_squarediamonds.svg	stimuli_distractor_trianglediamonds.svg	5	yes	57	0	417	0	0			0	0			1				0	
6.6.1	win	2023-07-07	20:50:49	20:57:28	394730	5eb8ff91a1bdb386c80cd7ea	3	1	practice_z	9	practice_z	13	stimuli_distractor_trianglediamonds.svg	stimuli_distractor_trianglediamonds.svg	15	no	0	1	2000	0	0			0	0			1				0	
6.6.1	win	2023-07-07	20:50:49	20:57:28	394730	5eb8ff91a1bdb386c80cd7ea	3	1	practice_z	9	advance_on_keypress_ZEE	14	stimuli_distractor_trianglediamonds.svg	stimuli_distractor_trianglediamonds.svg	15	no	57	0	660	0	0			0	0			1				0	
6.6.1	win	2023-07-07	20:50:49	20:57:31	397769	5eb8ff91a1bdb386c80cd7ea	3	1	practice_z	9	practice_z	15	stimuli_distractor_diamondtriangles.svg	stimuli_target_trianglerectangles.svg	9	yes	44	1	740	0	0			0	0			1				0	
6.6.1	win	2023-07-07	20:50:49	20:57:31	397769	5eb8ff91a1bdb386c80cd7ea	3	1	practice_z	9	advance_on_keypress_ZEE	16	stimuli_distractor_diamondtriangles.svg	stimuli_target_trianglerectangles.svg	9	yes	57	0	523	0	0			0	0			1				0	
6.6.1	win	2023-07-07	20:50:49	20:57:34	400650	5eb8ff91a1bdb386c80cd7ea	3	1	practice_z	9	practice_z	17	stimuli_target_diamondsquares.svg	stimuli_distractor_diamondtriangles.svg	3	yes	44	1	715	0	0			0	0			1				0	
6.6.1	win	2023-07-07	20:50:49	20:57:34	400650	5eb8ff91a1bdb386c80cd7ea	3	1	practice_z	9	advance_on_keypress_ZEE	18	stimuli_target_diamondsquares.svg	stimuli_distractor_diamondtriangles.svg	3	yes	57	0	390	0	0			0	0			1				0	
6.6.1	win	2023-07-07	20:50:49	20:57:38	404674	5eb8ff91a1bdb386c80cd7ea	3	1	practice_z	9	practice_z	19	stimuli_distractor_diamondtriangles.svg	stimuli_distractor_trianglediamonds.svg	14	no	0	1	2000	0	0			0	0			1				0	
6.6.1	win	2023-07-07	20:50:49	20:57:38	404674	5eb8ff91a1bdb386c80cd7ea	3	1	practice_z	9	advance_on_keypress_ZEE	20	stimuli_distractor_diamondtriangles.svg	stimuli_distractor_trianglediamonds.svg	14	no	57	0	388	0	0			0	0			1				0	
6.6.1	win	2023-07-07	20:50:49	20:57:42	408699	5eb8ff91a1bdb386c80cd7ea	3	1	practice_z	9	practice_z	21	stimuli_distractor_diamondtriangles.svg	stimuli_distractor_diamondtriangles.svg	13	no	0	1	2000	0	0			0	0			1				0	
6.6.1	win	2023-07-07	20:50:49	20:57:42	408699	5eb8ff91a1bdb386c80cd7ea	3	1	practice_z	9	advance_on_keypress_ZEE	22	stimuli_distractor_diamondtriangles.svg	stimuli_distractor_diamondtriangles.svg	13	no	57	0	439	0	0			0	0			1				0	
6.6.1	win	2023-07-07	20:50:49	20:57:45	411533	5eb8ff91a1bdb386c80cd7ea	3	1	practice_z	9	practice_z	23	stimuli_distractor_trianglediamonds.svg	stimuli_target_diamondrectangles.svg	12	yes	44	1	758	0	0			0	0			1				0	
6.6.1	win	2023-07-07	20:50:49	20:57:45	411533	5eb8ff91a1bdb386c80cd7ea	3	1	practice_z	9	advance_on_keypress_ZEE	24	stimuli_distractor_trianglediamonds.svg	stimuli_target_diamondrectangles.svg	12	yes	57	0	330	0	0			0	0			1				0	
6.6.1	win	2023-07-07	20:50:49	20:57:48	414258	5eb8ff91a1bdb386c80cd7ea	3	1	practice_z	9	practice_z	25	stimuli_target_rectanglediamonds.svg	stimuli_distractor_trianglediamonds.svg	4	yes	44	1	761	0	0			0	0			1				0	
6.6.1	win	2023-07-07	20:50:49	20:57:48	414258	5eb8ff91a1bdb386c80cd7ea	3	1	practice_z	9	advance_on_keypress_ZEE	26	stimuli_target_rectanglediamonds.svg	stimuli_distractor_trianglediamonds.svg	4	yes	57	0	378	0	0			0	0			1				0	
6.6.1	win	2023-07-07	20:50:49	20:57:50	417017	5eb8ff91a1bdb386c80cd7ea	3	1	practice_z	9	practice_z	27	stimuli_target_squarediamonds.svg	stimuli_distractor_diamondtriangles.svg	2	yes	44	1	747	0	0			0	0			1				0	
6.6.1	win	2023-07-07	20:50:49	20:57:50	417017	5eb8ff91a1bdb386c80cd7ea	3	1	practice_z	9	advance_on_keypress_ZEE	28	stimuli_target_squarediamonds.svg	stimuli_distractor_diamondtriangles.svg	2	yes	57	0	430	0	0			0	0			1				0	
6.6.1	win	2023-07-07	20:50:49	20:57:54	421093	5eb8ff91a1bdb386c80cd7ea	3	1	practice_z	9	practice_z	29	stimuli_distractor_trianglediamonds.svg	stimuli_distractor_diamondtriangles.svg	16	no	0	1	2000	0	0			0	0			1				0	
6.6.1	win	2023-07-07	20:50:49	20:57:54	421093	5eb8ff91a1bdb386c80cd7ea	3	1	practice_z	9	advance_on_keypress_ZEE	30	stimuli_distractor_trianglediamonds.svg	stimuli_distractor_diamondtriangles.svg	16	no	57	0	355	0	0			0	0			1				0	
6.6.1	win	2023-07-07	20:50:49	20:57:57	423810	5eb8ff91a1bdb386c80cd7ea	3	1	practice_z	9	practice_z	31	stimuli_distractor_diamondtriangles.svg	stimuli_target_rectangletriangles.svg	7	yes	44	1	724	0	0			0	0			1				0	
6.6.1	win	2023-07-07	20:50:49	20:57:57	423810	5eb8ff91a1bdb386c80cd7ea	3	1	practice_z	9	advance_on_keypress_ZEE	32	stimuli_distractor_diamondtriangles.svg	stimuli_target_rectangletriangles.svg	7	yes	57	0	447	0	0			0	0			1				0	
6.6.1	win	2023-07-07	20:50:49	20:58:02	428568	5eb8ff91a1bdb386c80cd7ea	3	1	main_z	11	main_z	1	stimuli_distractor_trianglediamonds.svg	stimuli_target_diamondrectangles.svg	27	yes	44	1	770	0	0			0	0			1				0	
6.6.1	win	2023-07-07	20:50:49	20:58:02	428568	5eb8ff91a1bdb386c80cd7ea	3	1	main_z	11	advance_on_keypress_ZEE	2	stimuli_distractor_trianglediamonds.svg	stimuli_target_diamondrectangles.svg	27	yes	57	0	630	0	0			0	0			1				0	
6.6.1	win	2023-07-07	20:50:49	20:58:04	430535	5eb8ff91a1bdb386c80cd7ea	3	1	main_z	11	main_z	3	stimuli_distractor_trianglediamonds.svg	stimuli_target_squaretriangles.svg	11	yes	44	1	684	0	0			0	0			1				0	
6.6.1	win	2023-07-07	20:50:49	20:58:04	430535	5eb8ff91a1bdb386c80cd7ea	3	1	main_z	11	advance_on_keypress_ZEE	4	stimuli_distractor_trianglediamonds.svg	stimuli_target_squaretriangles.svg	11	yes	57	0	1243	0	0			0	0			1				0	
6.6.1	win	2023-07-07	20:50:49	20:58:07	433281	5eb8ff91a1bdb386c80cd7ea	3	1	main_z	11	main_z	5	stimuli_distractor_trianglediamonds.svg	stimuli_distractor_trianglediamonds.svg	34	no	44	0	857	0	0			0	0			1				0	
6.6.1	win	2023-07-07	20:50:49	20:58:07	433281	5eb8ff91a1bdb386c80cd7ea	3	1	main_z	11	advance_on_keypress_ZEE	6	stimuli_distractor_trianglediamonds.svg	stimuli_distractor_trianglediamonds.svg	34	no	57	0	493	0	0			0	0			1				0	
6.6.1	win	2023-07-07	20:50:49	20:58:09	435313	5eb8ff91a1bdb386c80cd7ea	3	1	main_z	11	main_z	7	stimuli_target_rectanglediamonds.svg	stimuli_distractor_trianglediamonds.svg	2	yes	44	1	886	0	0			0	0			1				0	
6.6.1	win	2023-07-07	20:50:49	20:58:09	435313	5eb8ff91a1bdb386c80cd7ea	3	1	main_z	11	advance_on_keypress_ZEE	8	stimuli_target_rectanglediamonds.svg	stimuli_distractor_trianglediamonds.svg	2	yes	57	0	367	0	0			0	0			1				0	
6.6.1	win	2023-07-07	20:50:49	20:58:10	436975	5eb8ff91a1bdb386c80cd7ea	3	1	main_z	11	main_z	9	stimuli_distractor_diamondtriangles.svg	stimuli_target_rectangletriangles.svg	13	yes	44	1	635	0	0			0	0			1				0	
6.6.1	win	2023-07-07	20:50:49	20:58:10	436975	5eb8ff91a1bdb386c80cd7ea	3	1	main_z	11	advance_on_keypress_ZEE	10	stimuli_distractor_diamondtriangles.svg	stimuli_target_rectangletriangles.svg	13	yes	57	0	294	0	0			0	0			1				0	
6.6.1	win	2023-07-07	20:50:49	20:58:13	439902	5eb8ff91a1bdb386c80cd7ea	3	1	main_z	11	main_z	11	stimuli_distractor_diamondtriangles.svg	stimuli_distractor_diamondtriangles.svg	39	no	0	1	2000	0	0			0	0			1				0	
6.6.1	win	2023-07-07	20:50:49	20:58:13	439902	5eb8ff91a1bdb386c80cd7ea	3	1	main_z	11	advance_on_keypress_ZEE	12	stimuli_distractor_diamondtriangles.svg	stimuli_distractor_diamondtriangles.svg	39	no	57	0	246	0	0			0	0			1				0	
6.6.1	win	2023-07-07	20:50:49	20:58:15	441620	5eb8ff91a1bdb386c80cd7ea	3	1	main_z	11	main_z	13	stimuli_distractor_diamondtriangles.svg	stimuli_target_trianglesquares.svg	30	yes	44	1	838	0	0			0	0			1				0	
6.6.1	win	2023-07-07	20:50:49	20:58:15	441620	5eb8ff91a1bdb386c80cd7ea	3	1	main_z	11	advance_on_keypress_ZEE	14	stimuli_distractor_diamondtriangles.svg	stimuli_target_trianglesquares.svg	30	yes	57	0	198	0	0			0	0			1				0	
6.6.1	win	2023-07-07	20:50:49	20:58:16	443154	5eb8ff91a1bdb386c80cd7ea	3	1	main_z	11	main_z	15	stimuli_distractor_diamondtriangles.svg	stimuli_target_trianglerectangles.svg	29	yes	44	1	675	0	0			0	0			1				0	
6.6.1	win	2023-07-07	20:50:49	20:58:16	443154	5eb8ff91a1bdb386c80cd7ea	3	1	main_z	11	advance_on_keypress_ZEE	16	stimuli_distractor_diamondtriangles.svg	stimuli_target_trianglerectangles.svg	29	yes	57	0	278	0	0			0	0			1				0	
6.6.1	win	2023-07-07	20:50:49	20:58:18	444804	5eb8ff91a1bdb386c80cd7ea	3	1	main_z	11	main_z	17	stimuli_target_rectanglediamonds.svg	stimuli_distractor_diamondtriangles.svg	6	yes	44	1	737	0	0			0	0			1				0	
6.6.1	win	2023-07-07	20:50:49	20:58:18	444804	5eb8ff91a1bdb386c80cd7ea	3	1	main_z	11	advance_on_keypress_ZEE	18	stimuli_target_rectanglediamonds.svg	stimuli_distractor_diamondtriangles.svg	6	yes	57	0	229	0	0			0	0			1				0	
6.6.1	win	2023-07-07	20:50:49	20:58:20	446339	5eb8ff91a1bdb386c80cd7ea	3	1	main_z	11	main_z	19	stimuli_target_squarediamonds.svg	stimuli_distractor_diamondtriangles.svg	8	yes	44	1	640	0	0			0	0			1				0	
6.6.1	win	2023-07-07	20:50:49	20:58:20	446339	5eb8ff91a1bdb386c80cd7ea	3	1	main_z	11	advance_on_keypress_ZEE	20	stimuli_target_squarediamonds.svg	stimuli_distractor_diamondtriangles.svg	8	yes	57	0	253	0	0			0	0			1				0	
6.6.1	win	2023-07-07	20:50:49	20:58:23	449251	5eb8ff91a1bdb386c80cd7ea	3	1	main_z	11	main_z	21	stimuli_target_trianglerectangles.svg	stimuli_distractor_diamondtriangles.svg	21	yes	0	0	2000	0	0			0	0			1				0	
6.6.1	win	2023-07-07	20:50:49	20:58:23	449251	5eb8ff91a1bdb386c80cd7ea	3	1	main_z	11	advance_on_keypress_ZEE	22	stimuli_target_trianglerectangles.svg	stimuli_distractor_diamondtriangles.svg	21	yes	57	0	257	0	0			0	0			1				0	
6.6.1	win	2023-07-07	20:50:49	20:58:24	451084	5eb8ff91a1bdb386c80cd7ea	3	1	main_z	11	main_z	23	stimuli_target_diamondrectangles.svg	stimuli_distractor_diamondtriangles.svg	23	yes	44	1	939	0	0			0	0			1				0	
6.6.1	win	2023-07-07	20:50:49	20:58:24	451084	5eb8ff91a1bdb386c80cd7ea	3	1	main_z	11	advance_on_keypress_ZEE	24	stimuli_target_diamondrectangles.svg	stimuli_distractor_diamondtriangles.svg	23	yes	57	0	193	0	0			0	0			1				0	
6.6.1	win	2023-07-07	20:50:49	20:58:26	452590	5eb8ff91a1bdb386c80cd7ea	3	1	main_z	11	main_z	25	stimuli_target_squarediamonds.svg	stimuli_distractor_trianglediamonds.svg	4	yes	44	1	673	0	0			0	0			1				0	
6.6.1	win	2023-07-07	20:50:49	20:58:26	452590	5eb8ff91a1bdb386c80cd7ea	3	1	main_z	11	advance_on_keypress_ZEE	26	stimuli_target_squarediamonds.svg	stimuli_distractor_trianglediamonds.svg	4	yes	57	0	216	0	0			0	0			1				0	
6.6.1	win	2023-07-07	20:50:49	20:58:29	455456	5eb8ff91a1bdb386c80cd7ea	3	1	main_z	11	main_z	27	stimuli_distractor_diamondtriangles.svg	stimuli_distractor_trianglediamonds.svg	38	no	0	1	2000	0	0			0	0			1				0	
6.6.1	win	2023-07-07	20:50:49	20:58:29	455456	5eb8ff91a1bdb386c80cd7ea	3	1	main_z	11	advance_on_keypress_ZEE	28	stimuli_distractor_diamondtriangles.svg	stimuli_distractor_trianglediamonds.svg	38	no	57	0	397	0	0			0	0			1				0	
6.6.1	win	2023-07-07	20:50:49	20:58:31	457273	5eb8ff91a1bdb386c80cd7ea	3	1	main_z	11	main_z	29	stimuli_distractor_trianglediamonds.svg	stimuli_target_trianglerectangles.svg	25	yes	44	1	764	0	0			0	0			1				0	
6.6.1	win	2023-07-07	20:50:49	20:58:31	457273	5eb8ff91a1bdb386c80cd7ea	3	1	main_z	11	advance_on_keypress_ZEE	30	stimuli_distractor_trianglediamonds.svg	stimuli_target_trianglerectangles.svg	25	yes	57	0	136	0	0			0	0			1				0	
6.6.1	win	2023-07-07	20:50:49	20:58:32	458822	5eb8ff91a1bdb386c80cd7ea	3	1	main_z	11	main_z	31	stimuli_distractor_trianglediamonds.svg	stimuli_target_rectanglediamonds.svg	10	yes	44	1	775	0	0			0	0			1				0	
6.6.1	win	2023-07-07	20:50:49	20:58:32	458822	5eb8ff91a1bdb386c80cd7ea	3	1	main_z	11	advance_on_keypress_ZEE	32	stimuli_distractor_trianglediamonds.svg	stimuli_target_rectanglediamonds.svg	10	yes	57	0	229	0	0			0	0			1				0	
6.6.1	win	2023-07-07	20:50:49	20:58:34	460445	5eb8ff91a1bdb386c80cd7ea	3	1	main_z	11	main_z	33	stimuli_target_squaretriangles.svg	stimuli_distractor_trianglediamonds.svg	3	yes	44	1	762	0	0			0	0			1				0	
6.6.1	win	2023-07-07	20:50:49	20:58:34	460445	5eb8ff91a1bdb386c80cd7ea	3	1	main_z	11	advance_on_keypress_ZEE	34	stimuli_target_squaretriangles.svg	stimuli_distractor_trianglediamonds.svg	3	yes	57	0	225	0	0			0	0			1				0	
6.6.1	win	2023-07-07	20:50:49	20:58:35	462011	5eb8ff91a1bdb386c80cd7ea	3	1	main_z	11	main_z	35	stimuli_distractor_trianglediamonds.svg	stimuli_target_rectangletriangles.svg	9	yes	44	1	708	0	0			0	0			1				0	
6.6.1	win	2023-07-07	20:50:49	20:58:35	462011	5eb8ff91a1bdb386c80cd7ea	3	1	main_z	11	advance_on_keypress_ZEE	36	stimuli_distractor_trianglediamonds.svg	stimuli_target_rectangletriangles.svg	9	yes	57	0	188	0	0			0	0			1				0	
6.6.1	win	2023-07-07	20:50:49	20:58:38	464840	5eb8ff91a1bdb386c80cd7ea	3	1	main_z	11	main_z	37	stimuli_distractor_trianglediamonds.svg	stimuli_distractor_diamondtriangles.svg	36	no	0	1	2000	0	0			0	0			1				0	
6.6.1	win	2023-07-07	20:50:49	20:58:38	464840	5eb8ff91a1bdb386c80cd7ea	3	1	main_z	11	advance_on_keypress_ZEE	38	stimuli_distractor_trianglediamonds.svg	stimuli_distractor_diamondtriangles.svg	36	no	57	0	400	0	0			0	0			1				0	
6.6.1	win	2023-07-07	20:50:49	20:58:40	466525	5eb8ff91a1bdb386c80cd7ea	3	1	main_z	11	main_z	39	stimuli_distractor_trianglediamonds.svg	stimuli_target_trianglesquares.svg	26	yes	44	1	636	0	0			0	0			1				0	
6.6.1	win	2023-07-07	20:50:49	20:58:40	466525	5eb8ff91a1bdb386c80cd7ea	3	1	main_z	11	advance_on_keypress_ZEE	40	stimuli_distractor_trianglediamonds.svg	stimuli_target_trianglesquares.svg	26	yes	57	0	250	0	0			0	0			1				0	
6.6.1	win	2023-07-07	20:50:49	20:58:41	468013	5eb8ff91a1bdb386c80cd7ea	3	1	main_z	11	main_z	41	stimuli_target_trianglerectangles.svg	stimuli_distractor_trianglediamonds.svg	17	yes	44	1	586	0	0			0	0			1				0	
6.6.1	win	2023-07-07	20:50:49	20:58:41	468013	5eb8ff91a1bdb386c80cd7ea	3	1	main_z	11	advance_on_keypress_ZEE	42	stimuli_target_trianglerectangles.svg	stimuli_distractor_trianglediamonds.svg	17	yes	57	0	293	0	0			0	0			1				0	
6.6.1	win	2023-07-07	20:50:49	20:58:44	470938	5eb8ff91a1bdb386c80cd7ea	3	1	main_z	11	main_z	43	stimuli_distractor_trianglediamonds.svg	stimuli_distractor_trianglediamonds.svg	33	no	0	1	2000	0	0			0	0			1				0	
6.6.1	win	2023-07-07	20:50:49	20:58:44	470938	5eb8ff91a1bdb386c80cd7ea	3	1	main_z	11	advance_on_keypress_ZEE	44	stimuli_distractor_trianglediamonds.svg	stimuli_distractor_trianglediamonds.svg	33	no	57	0	455	0	0			0	0			1				0	
6.6.1	win	2023-07-07	20:50:49	20:58:47	474027	5eb8ff91a1bdb386c80cd7ea	3	1	main_z	11	main_z	45	stimuli_distractor_diamondtriangles.svg	stimuli_distractor_trianglediamonds.svg	37	no	0	1	2000	0	0			0	0			1				0	
6.6.1	win	2023-07-07	20:50:49	20:58:47	474027	5eb8ff91a1bdb386c80cd7ea	3	1	main_z	11	advance_on_keypress_ZEE	46	stimuli_distractor_diamondtriangles.svg	stimuli_distractor_trianglediamonds.svg	37	no	57	0	251	0	0			0	0			1				0	
6.6.1	win	2023-07-07	20:50:49	20:58:50	476916	5eb8ff91a1bdb386c80cd7ea	3	1	main_z	11	main_z	47	stimuli_distractor_diamondtriangles.svg	stimuli_distractor_diamondtriangles.svg	40	no	0	1	2000	0	0			0	0			1				0	
6.6.1	win	2023-07-07	20:50:49	20:58:50	476916	5eb8ff91a1bdb386c80cd7ea	3	1	main_z	11	advance_on_keypress_ZEE	48	stimuli_distractor_diamondtriangles.svg	stimuli_distractor_diamondtriangles.svg	40	no	57	0	255	0	0			0	0			1				0	
6.6.1	win	2023-07-07	20:50:49	20:58:52	478558	5eb8ff91a1bdb386c80cd7ea	3	1	main_z	11	main_z	49	stimuli_distractor_diamondtriangles.svg	stimuli_target_squarediamonds.svg	16	yes	44	1	752	0	0			0	0			1				0	
6.6.1	win	2023-07-07	20:50:49	20:58:52	478558	5eb8ff91a1bdb386c80cd7ea	3	1	main_z	11	advance_on_keypress_ZEE	50	stimuli_distractor_diamondtriangles.svg	stimuli_target_squarediamonds.svg	16	yes	57	0	190	0	0			0	0			1				0	
6.6.1	win	2023-07-07	20:50:49	20:58:53	480176	5eb8ff91a1bdb386c80cd7ea	3	1	main_z	11	main_z	51	stimuli_target_diamondrectangles.svg	stimuli_distractor_trianglediamonds.svg	19	yes	44	1	783	0	0			0	0			1				0	
6.6.1	win	2023-07-07	20:50:49	20:58:53	480176	5eb8ff91a1bdb386c80cd7ea	3	1	main_z	11	advance_on_keypress_ZEE	52	stimuli_target_diamondrectangles.svg	stimuli_distractor_trianglediamonds.svg	19	yes	57	0	229	0	0			0	0			1				0	
6.6.1	win	2023-07-07	20:50:49	20:58:55	481793	5eb8ff91a1bdb386c80cd7ea	3	1	main_z	11	main_z	53	stimuli_target_trianglesquares.svg	stimuli_distractor_trianglediamonds.svg	18	yes	44	1	746	0	0			0	0			1				0	
6.6.1	win	2023-07-07	20:50:49	20:58:55	481793	5eb8ff91a1bdb386c80cd7ea	3	1	main_z	11	advance_on_keypress_ZEE	54	stimuli_target_trianglesquares.svg	stimuli_distractor_trianglediamonds.svg	18	yes	57	0	251	0	0			0	0			1				0	
6.6.1	win	2023-07-07	20:50:49	20:58:57	483406	5eb8ff91a1bdb386c80cd7ea	3	1	main_z	11	main_z	55	stimuli_distractor_diamondtriangles.svg	stimuli_target_rectanglediamonds.svg	14	yes	44	1	717	0	0			0	0			1				0	
6.6.1	win	2023-07-07	20:50:49	20:58:57	483406	5eb8ff91a1bdb386c80cd7ea	3	1	main_z	11	advance_on_keypress_ZEE	56	stimuli_distractor_diamondtriangles.svg	stimuli_target_rectanglediamonds.svg	14	yes	57	0	204	0	0			0	0			1				0	
6.6.1	win	2023-07-07	20:50:49	20:58:58	484957	5eb8ff91a1bdb386c80cd7ea	3	1	main_z	11	main_z	57	stimuli_distractor_diamondtriangles.svg	stimuli_target_squaretriangles.svg	15	yes	44	1	702	0	0			0	0			1				0	
6.6.1	win	2023-07-07	20:50:49	20:58:58	484957	5eb8ff91a1bdb386c80cd7ea	3	1	main_z	11	advance_on_keypress_ZEE	58	stimuli_distractor_diamondtriangles.svg	stimuli_target_squaretriangles.svg	15	yes	57	0	236	0	0			0	0			1				0	
6.6.1	win	2023-07-07	20:50:49	20:59:01	487844	5eb8ff91a1bdb386c80cd7ea	3	1	main_z	11	main_z	59	stimuli_distractor_trianglediamonds.svg	stimuli_distractor_diamondtriangles.svg	35	no	0	1	2000	0	0			0	0			1				0	
6.6.1	win	2023-07-07	20:50:49	20:59:01	487844	5eb8ff91a1bdb386c80cd7ea	3	1	main_z	11	advance_on_keypress_ZEE	60	stimuli_distractor_trianglediamonds.svg	stimuli_distractor_diamondtriangles.svg	35	no	57	0	293	0	0			0	0			1				0	
6.6.1	win	2023-07-07	20:50:49	20:59:03	489568	5eb8ff91a1bdb386c80cd7ea	3	1	main_z	11	main_z	61	stimuli_target_rectangletriangles.svg	stimuli_distractor_diamondtriangles.svg	5	yes	44	1	769	0	0			0	0			1				0	
6.6.1	win	2023-07-07	20:50:49	20:59:03	489568	5eb8ff91a1bdb386c80cd7ea	3	1	main_z	11	advance_on_keypress_ZEE	62	stimuli_target_rectangletriangles.svg	stimuli_distractor_diamondtriangles.svg	5	yes	57	0	179	0	0			0	0			1				0	
6.6.1	win	2023-07-07	20:50:49	20:59:04	491068	5eb8ff91a1bdb386c80cd7ea	3	1	main_z	11	main_z	63	stimuli_target_diamondsquares.svg	stimuli_distractor_trianglediamonds.svg	20	yes	44	1	668	0	0			0	0			1				0	
6.6.1	win	2023-07-07	20:50:49	20:59:04	491068	5eb8ff91a1bdb386c80cd7ea	3	1	main_z	11	advance_on_keypress_ZEE	64	stimuli_target_diamondsquares.svg	stimuli_distractor_trianglediamonds.svg	20	yes	57	0	231	0	0			0	0			1				0	
6.6.1	win	2023-07-07	20:50:49	20:59:06	492676	5eb8ff91a1bdb386c80cd7ea	3	1	main_z	11	main_z	65	stimuli_distractor_trianglediamonds.svg	stimuli_target_squarediamonds.svg	12	yes	44	1	723	0	0			0	0			1				0	
6.6.1	win	2023-07-07	20:50:49	20:59:06	492676	5eb8ff91a1bdb386c80cd7ea	3	1	main_z	11	advance_on_keypress_ZEE	66	stimuli_distractor_trianglediamonds.svg	stimuli_target_squarediamonds.svg	12	yes	57	0	220	0	0			0	0			1				0	
6.6.1	win	2023-07-07	20:50:49	20:59:08	494298	5eb8ff91a1bdb386c80cd7ea	3	1	main_z	11	main_z	67	stimuli_target_diamondsquares.svg	stimuli_distractor_diamondtriangles.svg	24	yes	44	1	757	0	0			0	0			1				0	
6.6.1	win	2023-07-07	20:50:49	20:59:08	494298	5eb8ff91a1bdb386c80cd7ea	3	1	main_z	11	advance_on_keypress_ZEE	68	stimuli_target_diamondsquares.svg	stimuli_distractor_diamondtriangles.svg	24	yes	57	0	289	0	0			0	0			1				0	
6.6.1	win	2023-07-07	20:50:49	20:59:09	496032	5eb8ff91a1bdb386c80cd7ea	3	1	main_z	11	main_z	69	stimuli_target_rectangletriangles.svg	stimuli_distractor_trianglediamonds.svg	1	yes	44	1	803	0	0			0	0			1				0	
6.6.1	win	2023-07-07	20:50:49	20:59:09	496032	5eb8ff91a1bdb386c80cd7ea	3	1	main_z	11	advance_on_keypress_ZEE	70	stimuli_target_rectangletriangles.svg	stimuli_distractor_trianglediamonds.svg	1	yes	57	0	210	0	0			0	0			1				0	
6.6.1	win	2023-07-07	20:50:49	20:59:11	497689	5eb8ff91a1bdb386c80cd7ea	3	1	main_z	11	main_z	71	stimuli_distractor_trianglediamonds.svg	stimuli_target_diamondsquares.svg	28	yes	44	1	780	0	0			0	0			1				0	
6.6.1	win	2023-07-07	20:50:49	20:59:11	497689	5eb8ff91a1bdb386c80cd7ea	3	1	main_z	11	advance_on_keypress_ZEE	72	stimuli_distractor_trianglediamonds.svg	stimuli_target_diamondsquares.svg	28	yes	57	0	221	0	0			0	0			1				0	
6.6.1	win	2023-07-07	20:50:49	20:59:13	499404	5eb8ff91a1bdb386c80cd7ea	3	1	main_z	11	main_z	73	stimuli_target_squaretriangles.svg	stimuli_distractor_diamondtriangles.svg	7	yes	44	1	840	0	0			0	0			1				0	
6.6.1	win	2023-07-07	20:50:49	20:59:13	499404	5eb8ff91a1bdb386c80cd7ea	3	1	main_z	11	advance_on_keypress_ZEE	74	stimuli_target_squaretriangles.svg	stimuli_distractor_diamondtriangles.svg	7	yes	57	0	254	0	0			0	0			1				0	
6.6.1	win	2023-07-07	20:50:49	20:59:14	501142	5eb8ff91a1bdb386c80cd7ea	3	1	main_z	11	main_z	75	stimuli_distractor_diamondtriangles.svg	stimuli_target_diamondsquares.svg	32	yes	44	1	819	0	0			0	0			1				0	
6.6.1	win	2023-07-07	20:50:49	20:59:14	501142	5eb8ff91a1bdb386c80cd7ea	3	1	main_z	11	advance_on_keypress_ZEE	76	stimuli_distractor_diamondtriangles.svg	stimuli_target_diamondsquares.svg	32	yes	57	0	221	0	0			0	0			1				0	
6.6.1	win	2023-07-07	20:50:49	20:59:16	502836	5eb8ff91a1bdb386c80cd7ea	3	1	main_z	11	main_z	77	stimuli_target_trianglesquares.svg	stimuli_distractor_diamondtriangles.svg	22	yes	44	1	826	0	0			0	0			1				0	
6.6.1	win	2023-07-07	20:50:49	20:59:16	502836	5eb8ff91a1bdb386c80cd7ea	3	1	main_z	11	advance_on_keypress_ZEE	78	stimuli_target_trianglesquares.svg	stimuli_distractor_diamondtriangles.svg	22	yes	57	0	231	0	0			0	0			1				0	
6.6.1	win	2023-07-07	20:50:49	20:59:18	504556	5eb8ff91a1bdb386c80cd7ea	3	1	main_z	11	main_z	79	stimuli_distractor_diamondtriangles.svg	stimuli_target_diamondrectangles.svg	31	yes	44	1	843	0	0			0	0			1				0	
6.6.1	win	2023-07-07	20:50:49	20:59:18	504556	5eb8ff91a1bdb386c80cd7ea	3	1	main_z	11	advance_on_keypress_ZEE	80	stimuli_distractor_diamondtriangles.svg	stimuli_target_diamondrectangles.svg	31	yes	57	0	225	0	0			0	0			1				0	
6.6.1	win	2023-07-07	20:50:49	20:59:20	506264	5eb8ff91a1bdb386c80cd7ea	3	1	main_z	11	main_z	81	stimuli_distractor_trianglediamonds.svg	stimuli_target_diamondrectangles.svg	27	yes	44	1	848	0	0			0	0			1				0	
6.6.1	win	2023-07-07	20:50:49	20:59:20	506264	5eb8ff91a1bdb386c80cd7ea	3	1	main_z	11	advance_on_keypress_ZEE	82	stimuli_distractor_trianglediamonds.svg	stimuli_target_diamondrectangles.svg	27	yes	57	0	244	0	0			0	0			1				0	
6.6.1	win	2023-07-07	20:50:49	20:59:21	508093	5eb8ff91a1bdb386c80cd7ea	3	1	main_z	11	main_z	83	stimuli_target_diamondsquares.svg	stimuli_distractor_diamondtriangles.svg	24	yes	44	1	957	0	0			0	0			1				0	
6.6.1	win	2023-07-07	20:50:49	20:59:21	508093	5eb8ff91a1bdb386c80cd7ea	3	1	main_z	11	advance_on_keypress_ZEE	84	stimuli_target_diamondsquares.svg	stimuli_distractor_diamondtriangles.svg	24	yes	57	0	293	0	0			0	0			1				0	
6.6.1	win	2023-07-07	20:50:49	20:59:23	509735	5eb8ff91a1bdb386c80cd7ea	3	1	main_z	11	main_z	85	stimuli_distractor_diamondtriangles.svg	stimuli_target_diamondsquares.svg	32	yes	44	1	694	0	0			0	0			1				0	
6.6.1	win	2023-07-07	20:50:49	20:59:23	509735	5eb8ff91a1bdb386c80cd7ea	3	1	main_z	11	advance_on_keypress_ZEE	86	stimuli_distractor_diamondtriangles.svg	stimuli_target_diamondsquares.svg	32	yes	57	0	269	0	0			0	0			1				0	
6.6.1	win	2023-07-07	20:50:49	20:59:25	511330	5eb8ff91a1bdb386c80cd7ea	3	1	main_z	11	main_z	87	stimuli_target_diamondsquares.svg	stimuli_distractor_trianglediamonds.svg	20	yes	44	1	672	0	0			0	0			1				0	
6.6.1	win	2023-07-07	20:50:49	20:59:25	511330	5eb8ff91a1bdb386c80cd7ea	3	1	main_z	11	advance_on_keypress_ZEE	88	stimuli_target_diamondsquares.svg	stimuli_distractor_trianglediamonds.svg	20	yes	57	0	237	0	0			0	0			1				0	
6.6.1	win	2023-07-07	20:50:49	20:59:27	513638	5eb8ff91a1bdb386c80cd7ea	3	1	main_z	11	main_z	89	stimuli_distractor_trianglediamonds.svg	stimuli_distractor_diamondtriangles.svg	36	no	44	0	1407	0	0			0	0			1				0	
6.6.1	win	2023-07-07	20:50:49	20:59:27	513638	5eb8ff91a1bdb386c80cd7ea	3	1	main_z	11	advance_on_keypress_ZEE	90	stimuli_distractor_trianglediamonds.svg	stimuli_distractor_diamondtriangles.svg	36	no	57	0	217	0	0			0	0			1				0	
6.6.1	win	2023-07-07	20:50:49	20:59:30	516520	5eb8ff91a1bdb386c80cd7ea	3	1	main_z	11	main_z	91	stimuli_distractor_trianglediamonds.svg	stimuli_distractor_trianglediamonds.svg	33	no	0	1	2000	0	0			0	0			1				0	
6.6.1	win	2023-07-07	20:50:49	20:59:30	516520	5eb8ff91a1bdb386c80cd7ea	3	1	main_z	11	advance_on_keypress_ZEE	92	stimuli_distractor_trianglediamonds.svg	stimuli_distractor_trianglediamonds.svg	33	no	57	0	368	0	0			0	0			1				0	
6.6.1	win	2023-07-07	20:50:49	20:59:33	519526	5eb8ff91a1bdb386c80cd7ea	3	1	main_z	11	main_z	93	stimuli_target_trianglerectangles.svg	stimuli_distractor_trianglediamonds.svg	17	yes	0	0	2000	0	0			0	0			1				0	
6.6.1	win	2023-07-07	20:50:49	20:59:33	519526	5eb8ff91a1bdb386c80cd7ea	3	1	main_z	11	advance_on_keypress_ZEE	94	stimuli_target_trianglerectangles.svg	stimuli_distractor_trianglediamonds.svg	17	yes	57	0	343	0	0			0	0			1				0	
6.6.1	win	2023-07-07	20:50:49	20:59:35	521272	5eb8ff91a1bdb386c80cd7ea	3	1	main_z	11	main_z	95	stimuli_distractor_trianglediamonds.svg	stimuli_target_rectangletriangles.svg	9	yes	44	1	772	0	0			0	0			1				0	
6.6.1	win	2023-07-07	20:50:49	20:59:35	521272	5eb8ff91a1bdb386c80cd7ea	3	1	main_z	11	advance_on_keypress_ZEE	96	stimuli_distractor_trianglediamonds.svg	stimuli_target_rectangletriangles.svg	9	yes	57	0	191	0	0			0	0			1				0	
6.6.1	win	2023-07-07	20:50:49	20:59:36	522780	5eb8ff91a1bdb386c80cd7ea	3	1	main_z	11	main_z	97	stimuli_distractor_diamondtriangles.svg	stimuli_target_rectanglediamonds.svg	14	yes	44	1	660	0	0			0	0			1				0	
6.6.1	win	2023-07-07	20:50:49	20:59:36	522780	5eb8ff91a1bdb386c80cd7ea	3	1	main_z	11	advance_on_keypress_ZEE	98	stimuli_distractor_diamondtriangles.svg	stimuli_target_rectanglediamonds.svg	14	yes	57	0	239	0	0			0	0			1				0	
6.6.1	win	2023-07-07	20:50:49	20:59:38	524552	5eb8ff91a1bdb386c80cd7ea	3	1	main_z	11	main_z	99	stimuli_distractor_trianglediamonds.svg	stimuli_target_trianglerectangles.svg	25	yes	44	1	895	0	0			0	0			1				0	
6.6.1	win	2023-07-07	20:50:49	20:59:38	524552	5eb8ff91a1bdb386c80cd7ea	3	1	main_z	11	advance_on_keypress_ZEE	100	stimuli_distractor_trianglediamonds.svg	stimuli_target_trianglerectangles.svg	25	yes	57	0	221	0	0			0	0			1				0	
6.6.1	win	2023-07-07	20:50:49	20:59:39	526100	5eb8ff91a1bdb386c80cd7ea	3	1	main_z	11	main_z	101	stimuli_distractor_trianglediamonds.svg	stimuli_target_rectanglediamonds.svg	10	yes	44	1	689	0	0			0	0			1				0	
6.6.1	win	2023-07-07	20:50:49	20:59:39	526100	5eb8ff91a1bdb386c80cd7ea	3	1	main_z	11	advance_on_keypress_ZEE	102	stimuli_distractor_trianglediamonds.svg	stimuli_target_rectanglediamonds.svg	10	yes	57	0	151	0	0			0	0			1				0	
6.6.1	win	2023-07-07	20:50:49	20:59:41	527503	5eb8ff91a1bdb386c80cd7ea	3	1	main_z	11	main_z	103	stimuli_target_rectanglediamonds.svg	stimuli_distractor_diamondtriangles.svg	6	yes	44	1	606	0	0			0	0			1				0	
6.6.1	win	2023-07-07	20:50:49	20:59:41	527503	5eb8ff91a1bdb386c80cd7ea	3	1	main_z	11	advance_on_keypress_ZEE	104	stimuli_target_rectanglediamonds.svg	stimuli_distractor_diamondtriangles.svg	6	yes	57	0	121	0	0			0	0			1				0	
6.6.1	win	2023-07-07	20:50:49	20:59:42	528891	5eb8ff91a1bdb386c80cd7ea	3	1	main_z	11	main_z	105	stimuli_target_squaretriangles.svg	stimuli_distractor_diamondtriangles.svg	7	yes	44	1	624	0	0			0	0			1				0	
6.6.1	win	2023-07-07	20:50:49	20:59:42	528891	5eb8ff91a1bdb386c80cd7ea	3	1	main_z	11	advance_on_keypress_ZEE	106	stimuli_target_squaretriangles.svg	stimuli_distractor_diamondtriangles.svg	7	yes	57	0	165	0	0			0	0			1				0	
6.6.1	win	2023-07-07	20:50:49	20:59:44	530366	5eb8ff91a1bdb386c80cd7ea	3	1	main_z	11	main_z	107	stimuli_distractor_diamondtriangles.svg	stimuli_target_trianglesquares.svg	30	yes	44	1	664	0	0			0	0			1				0	
6.6.1	win	2023-07-07	20:50:49	20:59:44	530366	5eb8ff91a1bdb386c80cd7ea	3	1	main_z	11	advance_on_keypress_ZEE	108	stimuli_distractor_diamondtriangles.svg	stimuli_target_trianglesquares.svg	30	yes	57	0	123	0	0			0	0			1				0	
6.6.1	win	2023-07-07	20:50:49	20:59:46	533123	5eb8ff91a1bdb386c80cd7ea	3	1	main_z	11	main_z	109	stimuli_distractor_trianglediamonds.svg	stimuli_distractor_diamondtriangles.svg	35	no	0	1	2000	0	0			0	0			1				0	
6.6.1	win	2023-07-07	20:50:49	20:59:46	533123	5eb8ff91a1bdb386c80cd7ea	3	1	main_z	11	advance_on_keypress_ZEE	110	stimuli_distractor_trianglediamonds.svg	stimuli_distractor_diamondtriangles.svg	35	no	57	0	618	0	0			0	0			1				0	
6.6.1	win	2023-07-07	20:50:49	20:59:48	535079	5eb8ff91a1bdb386c80cd7ea	3	1	main_z	11	main_z	111	stimuli_target_rectangletriangles.svg	stimuli_distractor_diamondtriangles.svg	5	yes	44	1	695	0	0			0	0			1				0	
6.6.1	win	2023-07-07	20:50:49	20:59:48	535079	5eb8ff91a1bdb386c80cd7ea	3	1	main_z	11	advance_on_keypress_ZEE	112	stimuli_target_rectangletriangles.svg	stimuli_distractor_diamondtriangles.svg	5	yes	57	0	133	0	0			0	0			1				0	
6.6.1	win	2023-07-07	20:50:49	20:59:50	536564	5eb8ff91a1bdb386c80cd7ea	3	1	main_z	11	main_z	113	stimuli_target_diamondrectangles.svg	stimuli_distractor_trianglediamonds.svg	19	yes	44	1	710	0	0			0	0			1				0	
6.6.1	win	2023-07-07	20:50:49	20:59:50	536564	5eb8ff91a1bdb386c80cd7ea	3	1	main_z	11	advance_on_keypress_ZEE	114	stimuli_target_diamondrectangles.svg	stimuli_distractor_trianglediamonds.svg	19	yes	57	0	175	0	0			0	0			1				0	
6.6.1	win	2023-07-07	20:50:49	20:59:51	538028	5eb8ff91a1bdb386c80cd7ea	3	1	main_z	11	main_z	115	stimuli_target_rectanglediamonds.svg	stimuli_distractor_trianglediamonds.svg	2	yes	44	1	658	0	0			0	0			1				0	
6.6.1	win	2023-07-07	20:50:49	20:59:51	538028	5eb8ff91a1bdb386c80cd7ea	3	1	main_z	11	advance_on_keypress_ZEE	116	stimuli_target_rectanglediamonds.svg	stimuli_distractor_trianglediamonds.svg	2	yes	57	0	174	0	0			0	0			1				0	
6.6.1	win	2023-07-07	20:50:49	20:59:53	539615	5eb8ff91a1bdb386c80cd7ea	3	1	main_z	11	main_z	117	stimuli_distractor_diamondtriangles.svg	stimuli_target_diamondrectangles.svg	31	yes	44	1	776	0	0			0	0			1				0	
6.6.1	win	2023-07-07	20:50:49	20:59:53	539615	5eb8ff91a1bdb386c80cd7ea	3	1	main_z	11	advance_on_keypress_ZEE	118	stimuli_distractor_diamondtriangles.svg	stimuli_target_diamondrectangles.svg	31	yes	57	0	155	0	0			0	0			1				0	
6.6.1	win	2023-07-07	20:50:49	20:59:54	541023	5eb8ff91a1bdb386c80cd7ea	3	1	main_z	11	main_z	119	stimuli_distractor_trianglediamonds.svg	stimuli_target_squaretriangles.svg	11	yes	44	1	613	0	0			0	0			1				0	
6.6.1	win	2023-07-07	20:50:49	20:59:54	541023	5eb8ff91a1bdb386c80cd7ea	3	1	main_z	11	advance_on_keypress_ZEE	120	stimuli_distractor_trianglediamonds.svg	stimuli_target_squaretriangles.svg	11	yes	57	0	171	0	0			0	0			1				0	
6.6.1	win	2023-07-07	20:50:49	20:59:56	542388	5eb8ff91a1bdb386c80cd7ea	3	1	main_z	11	main_z	121	stimuli_target_trianglesquares.svg	stimuli_distractor_diamondtriangles.svg	22	yes	44	1	558	0	0			0	0			1				0	
6.6.1	win	2023-07-07	20:50:49	20:59:56	542388	5eb8ff91a1bdb386c80cd7ea	3	1	main_z	11	advance_on_keypress_ZEE	122	stimuli_target_trianglesquares.svg	stimuli_distractor_diamondtriangles.svg	22	yes	57	0	131	0	0			0	0			1				0	
6.6.1	win	2023-07-07	20:50:49	20:59:57	543774	5eb8ff91a1bdb386c80cd7ea	3	1	main_z	11	main_z	123	stimuli_distractor_diamondtriangles.svg	stimuli_target_squaretriangles.svg	15	yes	44	1	608	0	0			0	0			1				0	
6.6.1	win	2023-07-07	20:50:49	20:59:57	543774	5eb8ff91a1bdb386c80cd7ea	3	1	main_z	11	advance_on_keypress_ZEE	124	stimuli_distractor_diamondtriangles.svg	stimuli_target_squaretriangles.svg	15	yes	57	0	130	0	0			0	0			1				0	
6.6.1	win	2023-07-07	20:50:49	20:59:58	545124	5eb8ff91a1bdb386c80cd7ea	3	1	main_z	11	main_z	125	stimuli_target_diamondrectangles.svg	stimuli_distractor_diamondtriangles.svg	23	yes	44	1	589	0	0			0	0			1				0	
6.6.1	win	2023-07-07	20:50:49	20:59:58	545124	5eb8ff91a1bdb386c80cd7ea	3	1	main_z	11	advance_on_keypress_ZEE	126	stimuli_target_diamondrectangles.svg	stimuli_distractor_diamondtriangles.svg	23	yes	57	0	106	0	0			0	0			1				0	
6.6.1	win	2023-07-07	20:50:49	21:00:00	546332	5eb8ff91a1bdb386c80cd7ea	3	1	main_z	11	main_z	127	stimuli_target_squarediamonds.svg	stimuli_distractor_diamondtriangles.svg	8	yes	44	1	460	0	0			0	0			1				0	
6.6.1	win	2023-07-07	20:50:49	21:00:00	546332	5eb8ff91a1bdb386c80cd7ea	3	1	main_z	11	advance_on_keypress_ZEE	128	stimuli_target_squarediamonds.svg	stimuli_distractor_diamondtriangles.svg	8	yes	57	0	136	0	0			0	0			1				0	
6.6.1	win	2023-07-07	20:50:49	21:00:02	549108	5eb8ff91a1bdb386c80cd7ea	3	1	main_z	11	main_z	129	stimuli_distractor_diamondtriangles.svg	stimuli_distractor_diamondtriangles.svg	39	no	0	1	2000	0	0			0	0			1				0	
6.6.1	win	2023-07-07	20:50:49	21:00:02	549108	5eb8ff91a1bdb386c80cd7ea	3	1	main_z	11	advance_on_keypress_ZEE	130	stimuli_distractor_diamondtriangles.svg	stimuli_distractor_diamondtriangles.svg	39	no	57	0	507	0	0			0	0			1				0	
6.6.1	win	2023-07-07	20:50:49	21:00:04	550703	5eb8ff91a1bdb386c80cd7ea	3	1	main_z	11	main_z	131	stimuli_distractor_diamondtriangles.svg	stimuli_target_squarediamonds.svg	16	yes	44	1	456	0	0			0	0			1				0	
6.6.1	win	2023-07-07	20:50:49	21:00:04	550703	5eb8ff91a1bdb386c80cd7ea	3	1	main_z	11	advance_on_keypress_ZEE	132	stimuli_distractor_diamondtriangles.svg	stimuli_target_squarediamonds.svg	16	yes	57	0	137	0	0			0	0			1				0	
6.6.1	win	2023-07-07	20:50:49	21:00:05	552033	5eb8ff91a1bdb386c80cd7ea	3	1	main_z	11	main_z	133	stimuli_distractor_diamondtriangles.svg	stimuli_target_trianglerectangles.svg	29	yes	44	1	549	0	0			0	0			1				0	
6.6.1	win	2023-07-07	20:50:49	21:00:05	552033	5eb8ff91a1bdb386c80cd7ea	3	1	main_z	11	advance_on_keypress_ZEE	134	stimuli_distractor_diamondtriangles.svg	stimuli_target_trianglerectangles.svg	29	yes	57	0	143	0	0			0	0			1				0	
6.6.1	win	2023-07-07	20:50:49	21:00:07	553437	5eb8ff91a1bdb386c80cd7ea	3	1	main_z	11	main_z	135	stimuli_target_rectangletriangles.svg	stimuli_distractor_trianglediamonds.svg	1	yes	44	1	606	0	0			0	0			1				0	
6.6.1	win	2023-07-07	20:50:49	21:00:07	553437	5eb8ff91a1bdb386c80cd7ea	3	1	main_z	11	advance_on_keypress_ZEE	136	stimuli_target_rectangletriangles.svg	stimuli_distractor_trianglediamonds.svg	1	yes	57	0	86	0	0			0	0			1				0	
6.6.1	win	2023-07-07	20:50:49	21:00:09	556173	5eb8ff91a1bdb386c80cd7ea	3	1	main_z	11	main_z	137	stimuli_distractor_diamondtriangles.svg	stimuli_distractor_trianglediamonds.svg	38	no	0	1	2000	0	0			0	0			1				0	
6.6.1	win	2023-07-07	20:50:49	21:00:09	556173	5eb8ff91a1bdb386c80cd7ea	3	1	main_z	11	advance_on_keypress_ZEE	138	stimuli_distractor_diamondtriangles.svg	stimuli_distractor_trianglediamonds.svg	38	no	57	0	258	0	0			0	0			1				0	
6.6.1	win	2023-07-07	20:50:49	21:00:11	557590	5eb8ff91a1bdb386c80cd7ea	3	1	main_z	11	main_z	139	stimuli_distractor_diamondtriangles.svg	stimuli_target_rectangletriangles.svg	13	yes	44	1	528	0	0			0	0			1				0	
6.6.1	win	2023-07-07	20:50:49	21:00:11	557590	5eb8ff91a1bdb386c80cd7ea	3	1	main_z	11	advance_on_keypress_ZEE	140	stimuli_distractor_diamondtriangles.svg	stimuli_target_rectangletriangles.svg	13	yes	57	0	94	0	0			0	0			1				0	
6.6.1	win	2023-07-07	20:50:49	21:00:12	558765	5eb8ff91a1bdb386c80cd7ea	3	1	main_z	11	main_z	141	stimuli_distractor_diamondtriangles.svg	stimuli_distractor_trianglediamonds.svg	37	no	44	0	449	0	0			0	0			1				0	
6.6.1	win	2023-07-07	20:50:49	21:00:12	558765	5eb8ff91a1bdb386c80cd7ea	3	1	main_z	11	advance_on_keypress_ZEE	142	stimuli_distractor_diamondtriangles.svg	stimuli_distractor_trianglediamonds.svg	37	no	57	0	128	0	0			0	0			1				0	
6.6.1	win	2023-07-07	20:50:49	21:00:13	560070	5eb8ff91a1bdb386c80cd7ea	3	1	main_z	11	main_z	143	stimuli_target_trianglesquares.svg	stimuli_distractor_trianglediamonds.svg	18	yes	44	1	512	0	0			0	0			1				0	
6.6.1	win	2023-07-07	20:50:49	21:00:13	560070	5eb8ff91a1bdb386c80cd7ea	3	1	main_z	11	advance_on_keypress_ZEE	144	stimuli_target_trianglesquares.svg	stimuli_distractor_trianglediamonds.svg	18	yes	57	0	128	0	0			0	0			1				0	
6.6.1	win	2023-07-07	20:50:49	21:00:15	561342	5eb8ff91a1bdb386c80cd7ea	3	1	main_z	11	main_z	145	stimuli_target_squaretriangles.svg	stimuli_distractor_trianglediamonds.svg	3	yes	44	1	473	0	0			0	0			1				0	
6.6.1	win	2023-07-07	20:50:49	21:00:15	561342	5eb8ff91a1bdb386c80cd7ea	3	1	main_z	11	advance_on_keypress_ZEE	146	stimuli_target_squaretriangles.svg	stimuli_distractor_trianglediamonds.svg	3	yes	57	0	117	0	0			0	0			1				0	
6.6.1	win	2023-07-07	20:50:49	21:00:17	564107	5eb8ff91a1bdb386c80cd7ea	3	1	main_z	11	main_z	147	stimuli_distractor_diamondtriangles.svg	stimuli_distractor_diamondtriangles.svg	40	no	0	1	2000	0	0			0	0			1				0	
6.6.1	win	2023-07-07	20:50:49	21:00:17	564107	5eb8ff91a1bdb386c80cd7ea	3	1	main_z	11	advance_on_keypress_ZEE	148	stimuli_distractor_diamondtriangles.svg	stimuli_distractor_diamondtriangles.svg	40	no	57	0	263	0	0			0	0			1				0	
6.6.1	win	2023-07-07	20:50:49	21:00:19	565530	5eb8ff91a1bdb386c80cd7ea	3	1	main_z	11	main_z	149	stimuli_distractor_trianglediamonds.svg	stimuli_target_squarediamonds.svg	12	yes	44	1	533	0	0			0	0			1				0	
6.6.1	win	2023-07-07	20:50:49	21:00:19	565530	5eb8ff91a1bdb386c80cd7ea	3	1	main_z	11	advance_on_keypress_ZEE	150	stimuli_distractor_trianglediamonds.svg	stimuli_target_squarediamonds.svg	12	yes	57	0	88	0	0			0	0			1				0	
6.6.1	win	2023-07-07	20:50:49	21:00:22	568266	5eb8ff91a1bdb386c80cd7ea	3	1	main_z	11	main_z	151	stimuli_distractor_trianglediamonds.svg	stimuli_distractor_trianglediamonds.svg	34	no	0	1	2000	0	0			0	0			1				0	
6.6.1	win	2023-07-07	20:50:49	21:00:22	568266	5eb8ff91a1bdb386c80cd7ea	3	1	main_z	11	advance_on_keypress_ZEE	152	stimuli_distractor_trianglediamonds.svg	stimuli_distractor_trianglediamonds.svg	34	no	57	0	365	0	0			0	0			1				0	
6.6.1	win	2023-07-07	20:50:49	21:00:23	569812	5eb8ff91a1bdb386c80cd7ea	3	1	main_z	11	main_z	153	stimuli_distractor_trianglediamonds.svg	stimuli_target_diamondsquares.svg	28	yes	44	1	537	0	0			0	0			1				0	
6.6.1	win	2023-07-07	20:50:49	21:00:23	569812	5eb8ff91a1bdb386c80cd7ea	3	1	main_z	11	advance_on_keypress_ZEE	154	stimuli_distractor_trianglediamonds.svg	stimuli_target_diamondsquares.svg	28	yes	57	0	125	0	0			0	0			1				0	
6.6.1	win	2023-07-07	20:50:49	21:00:24	571059	5eb8ff91a1bdb386c80cd7ea	3	1	main_z	11	main_z	155	stimuli_target_squarediamonds.svg	stimuli_distractor_trianglediamonds.svg	4	yes	44	1	456	0	0			0	0			1				0	
6.6.1	win	2023-07-07	20:50:49	21:00:24	571059	5eb8ff91a1bdb386c80cd7ea	3	1	main_z	11	advance_on_keypress_ZEE	156	stimuli_target_squarediamonds.svg	stimuli_distractor_trianglediamonds.svg	4	yes	57	0	103	0	0			0	0			1				0	
6.6.1	win	2023-07-07	20:50:49	21:00:26	572334	5eb8ff91a1bdb386c80cd7ea	3	1	main_z	11	main_z	157	stimuli_distractor_trianglediamonds.svg	stimuli_target_trianglesquares.svg	26	yes	44	1	510	0	0			0	0			1				0	
6.6.1	win	2023-07-07	20:50:49	21:00:26	572334	5eb8ff91a1bdb386c80cd7ea	3	1	main_z	11	advance_on_keypress_ZEE	158	stimuli_distractor_trianglediamonds.svg	stimuli_target_trianglesquares.svg	26	yes	57	0	82	0	0			0	0			1				0	
6.6.1	win	2023-07-07	20:50:49	21:00:27	573583	5eb8ff91a1bdb386c80cd7ea	3	1	main_z	11	main_z	159	stimuli_target_trianglerectangles.svg	stimuli_distractor_diamondtriangles.svg	21	yes	44	1	512	0	0			0	0			1				0	
6.6.1	win	2023-07-07	20:50:49	21:00:27	573583	5eb8ff91a1bdb386c80cd7ea	3	1	main_z	11	advance_on_keypress_ZEE	160	stimuli_target_trianglerectangles.svg	stimuli_distractor_diamondtriangles.svg	21	yes	57	0	63	0	0			0	0			1				0	
6.6.1	win	2023-07-07	20:50:49	21:00:27	573583	5eb8ff91a1bdb386c80cd7ea	3	1	headphonecheck_calibration	14	headphonecheck_calibrationIntro	1	stimuli_target_trianglerectangles.svg	stimuli_distractor_diamondtriangles.svg	21	yes	calibrationButton	0	3449	0	0			0	0			1				0	
6.6.1	win	2023-07-07	20:50:49	21:00:27	573583	5eb8ff91a1bdb386c80cd7ea	3	1	headphonecheck_testphase	15	test_collectResponse	3	stimuli_target_trianglerectangles.svg	stimuli_distractor_diamondtriangles.svg	21	yes	second	1	24360	1	1	antiphase_hc_iso.wav	2	0	0			1				0	
6.6.1	win	2023-07-07	20:50:49	21:00:27	573583	5eb8ff91a1bdb386c80cd7ea	3	1	headphonecheck_testphase	15	test_collectResponse	6	stimuli_target_trianglerectangles.svg	stimuli_distractor_diamondtriangles.svg	21	yes	first	1	462	2	4	antiphase_hc_sio.wav	1	0	0			1				0	
6.6.1	win	2023-07-07	20:50:49	21:00:27	573583	5eb8ff91a1bdb386c80cd7ea	3	1	headphonecheck_testphase	15	test_collectResponse	9	stimuli_target_trianglerectangles.svg	stimuli_distractor_diamondtriangles.svg	21	yes	second	1	474	3	5	antiphase_hc_osi.wav	2	0	0			1				0	
6.6.1	win	2023-07-07	20:50:49	21:00:27	573583	5eb8ff91a1bdb386c80cd7ea	3	1	headphonecheck_testphase	15	test_collectResponse	12	stimuli_target_trianglerectangles.svg	stimuli_distractor_diamondtriangles.svg	21	yes	first	1	376	4	3	antiphase_hc_soi.wav	1	0	0			1				0	
6.6.1	win	2023-07-07	20:50:49	21:00:27	573583	5eb8ff91a1bdb386c80cd7ea	3	1	headphonecheck_testphase	15	test_collectResponse	15	stimuli_target_trianglerectangles.svg	stimuli_distractor_diamondtriangles.svg	21	yes	third	1	395	5	6	antiphase_hc_ois.wav	3	0	0			1				0	
6.6.1	win	2023-07-07	20:50:49	21:00:27	573583	5eb8ff91a1bdb386c80cd7ea	3	1	headphonecheck_testphase	15	test_collectResponse	18	stimuli_target_trianglerectangles.svg	stimuli_distractor_diamondtriangles.svg	21	yes	third	1	415	6	2	antiphase_hc_ios.wav	3	0	0			1				0	
6.6.1	win	2023-07-07	20:50:49	21:00:27	573583	5eb8ff91a1bdb386c80cd7ea	3	1	stereocheck_calibration	17	stereocheck_calibrationIntro	1	stimuli_target_trianglerectangles.svg	stimuli_distractor_diamondtriangles.svg	21	yes	stereocheck_calibrationButton	0	3727	6	2	antiphase_hc_ios.wav	3	0	0			1				0	
6.6.1	win	2023-07-07	20:50:49	21:00:27	573583	5eb8ff91a1bdb386c80cd7ea	3	1	stereocheck_testphase	18	stereocheck_test_collectResponse	3	stimuli_target_trianglerectangles.svg	stimuli_distractor_diamondtriangles.svg	21	yes	stereocheck_left	1	404	6	2	antiphase_hc_ios.wav	3	1	2	noise_calib_stim_LEFT.wav	1	1				0	
6.6.1	win	2023-07-07	20:50:49	21:00:27	573583	5eb8ff91a1bdb386c80cd7ea	3	1	stereocheck_testphase	18	stereocheck_test_collectResponse	6	stimuli_target_trianglerectangles.svg	stimuli_distractor_diamondtriangles.svg	21	yes	stereocheck_left	1	427	6	2	antiphase_hc_ios.wav	3	2	3	noise_calib_stim_LEFT.wav	1	1				0	
6.6.1	win	2023-07-07	20:50:49	21:00:27	573583	5eb8ff91a1bdb386c80cd7ea	3	1	stereocheck_testphase	18	stereocheck_test_collectResponse	9	stimuli_target_trianglerectangles.svg	stimuli_distractor_diamondtriangles.svg	21	yes	stereocheck_right	1	375	6	2	antiphase_hc_ios.wav	3	3	6	noise_calib_stim_RIGHT.wav	2	1				0	
6.6.1	win	2023-07-07	20:50:49	21:00:27	573583	5eb8ff91a1bdb386c80cd7ea	3	1	stereocheck_testphase	18	stereocheck_test_collectResponse	12	stimuli_target_trianglerectangles.svg	stimuli_distractor_diamondtriangles.svg	21	yes	stereocheck_left	1	301	6	2	antiphase_hc_ios.wav	3	4	1	noise_calib_stim_LEFT.wav	1	1				0	
6.6.1	win	2023-07-07	20:50:49	21:00:27	573583	5eb8ff91a1bdb386c80cd7ea	3	1	stereocheck_testphase	18	stereocheck_test_collectResponse	15	stimuli_target_trianglerectangles.svg	stimuli_distractor_diamondtriangles.svg	21	yes	stereocheck_right	1	387	6	2	antiphase_hc_ios.wav	3	5	5	noise_calib_stim_RIGHT.wav	2	1				0	
6.6.1	win	2023-07-07	20:50:49	21:00:27	573583	5eb8ff91a1bdb386c80cd7ea	3	1	stereocheck_testphase	18	stereocheck_test_collectResponse	18	stimuli_target_trianglerectangles.svg	stimuli_distractor_diamondtriangles.svg	21	yes	stereocheck_right	1	407	6	2	antiphase_hc_ios.wav	3	6	4	noise_calib_stim_RIGHT.wav	2	1				0	
6.6.1	win	2023-07-07	20:50:49	21:00:27	573583	5eb8ff91a1bdb386c80cd7ea	3	1	DL_practice	21	DL_practice	2	stimuli_target_trianglerectangles.svg	stimuli_distractor_diamondtriangles.svg	21	yes	ga	1	1897	6	2	antiphase_hc_ios.wav	3	6	4	noise_calib_stim_RIGHT.wav	2	15	blb_dichoticlistening_ga-ga.mp3	ga	ga	0	left
6.6.1	win	2023-07-07	20:50:49	21:00:27	573583	5eb8ff91a1bdb386c80cd7ea	3	1	DL_practice	21	DL_practice	3	stimuli_target_trianglerectangles.svg	stimuli_distractor_diamondtriangles.svg	21	yes	ka	1	790	6	2	antiphase_hc_ios.wav	3	6	4	noise_calib_stim_RIGHT.wav	2	22	blb_dichoticlistening_ka-ka.mp3	ka	ka	0	left
6.6.1	win	2023-07-07	20:50:49	21:00:27	573583	5eb8ff91a1bdb386c80cd7ea	3	1	DL_practice	21	DL_practice	4	stimuli_target_trianglerectangles.svg	stimuli_distractor_diamondtriangles.svg	21	yes	pa	1	1227	6	2	antiphase_hc_ios.wav	3	6	4	noise_calib_stim_RIGHT.wav	2	23	blb_dichoticlistening_ka-pa.mp3	ka	pa	1	right
6.6.1	win	2023-07-07	20:50:49	21:00:27	573583	5eb8ff91a1bdb386c80cd7ea	3	1	DL_practice	21	DL_practice	5	stimuli_target_trianglerectangles.svg	stimuli_distractor_diamondtriangles.svg	21	yes	da	1	2344	6	2	antiphase_hc_ios.wav	3	6	4	noise_calib_stim_RIGHT.wav	2	8	blb_dichoticlistening_da-da.mp3	da	da	0	left
6.6.1	win	2023-07-07	20:50:49	21:00:27	573583	5eb8ff91a1bdb386c80cd7ea	3	1	DL_practice	21	DL_practice	6	stimuli_target_trianglerectangles.svg	stimuli_distractor_diamondtriangles.svg	21	yes	da	1	1908	6	2	antiphase_hc_ios.wav	3	6	4	noise_calib_stim_RIGHT.wav	2	7	blb_dichoticlistening_da-ba.mp3	da	ba	1	left
6.6.1	win	2023-07-07	20:50:49	21:00:27	573583	5eb8ff91a1bdb386c80cd7ea	3	1	DL_practice	21	DL_practice	7	stimuli_target_trianglerectangles.svg	stimuli_distractor_diamondtriangles.svg	21	yes	ta	1	1745	6	2	antiphase_hc_ios.wav	3	6	4	noise_calib_stim_RIGHT.wav	2	36	blb_dichoticlistening_ta-ta.mp3	ta	ta	0	left
6.6.1	win	2023-07-07	20:50:49	21:00:27	573583	5eb8ff91a1bdb386c80cd7ea	3	1	DL_practice	21	DL_practice	8	stimuli_target_trianglerectangles.svg	stimuli_distractor_diamondtriangles.svg	21	yes	ba	1	1171	6	2	antiphase_hc_ios.wav	3	6	4	noise_calib_stim_RIGHT.wav	2	1	blb_dichoticlistening_ba-ba.mp3	ba	ba	0	left
6.6.1	win	2023-07-07	20:50:49	21:00:27	573583	5eb8ff91a1bdb386c80cd7ea	3	1	DL_practice	21	DL_practice	9	stimuli_target_trianglerectangles.svg	stimuli_distractor_diamondtriangles.svg	21	yes	ka	0	1883	6	2	antiphase_hc_ios.wav	3	6	4	noise_calib_stim_RIGHT.wav	2	18	blb_dichoticlistening_ga-ta.mp3	ga	ta	1	other
6.6.1	win	2023-07-07	20:50:49	21:00:27	573583	5eb8ff91a1bdb386c80cd7ea	3	1	DL_practice	21	DL_practice	10	stimuli_target_trianglerectangles.svg	stimuli_distractor_diamondtriangles.svg	21	yes	pa	1	1132	6	2	antiphase_hc_ios.wav	3	6	4	noise_calib_stim_RIGHT.wav	2	29	blb_dichoticlistening_pa-pa.mp3	pa	pa	0	left
6.6.1	win	2023-07-07	20:50:49	21:00:27	573583	5eb8ff91a1bdb386c80cd7ea	3	1	DL_test	23	DL_test	1	stimuli_target_trianglerectangles.svg	stimuli_distractor_diamondtriangles.svg	21	yes	pa	0	2070	6	2	antiphase_hc_ios.wav	3	6	4	noise_calib_stim_RIGHT.wav	2	10	blb_dichoticlistening_da-ka.mp3	da	ka	1	other
6.6.1	win	2023-07-07	20:50:49	21:00:27	573583	5eb8ff91a1bdb386c80cd7ea	3	1	DL_test	23	DL_test	2	stimuli_target_trianglerectangles.svg	stimuli_distractor_diamondtriangles.svg	21	yes	ga	1	1047	6	2	antiphase_hc_ios.wav	3	6	4	noise_calib_stim_RIGHT.wav	2	15	blb_dichoticlistening_ga-ga.mp3	ga	ga	0	left
6.6.1	win	2023-07-07	20:50:49	21:00:27	573583	5eb8ff91a1bdb386c80cd7ea	3	1	DL_test	23	DL_test	3	stimuli_target_trianglerectangles.svg	stimuli_distractor_diamondtriangles.svg	21	yes	ka	1	1192	6	2	antiphase_hc_ios.wav	3	6	4	noise_calib_stim_RIGHT.wav	2	4	blb_dichoticlistening_ba-ka.mp3	ba	ka	1	right
6.6.1	win	2023-07-07	20:50:49	21:00:27	573583	5eb8ff91a1bdb386c80cd7ea	3	1	DL_test	23	DL_test	4	stimuli_target_trianglerectangles.svg	stimuli_distractor_diamondtriangles.svg	21	yes	ta	1	1810	6	2	antiphase_hc_ios.wav	3	6	4	noise_calib_stim_RIGHT.wav	2	36	blb_dichoticlistening_ta-ta.mp3	ta	ta	0	left
6.6.1	win	2023-07-07	20:50:49	21:00:27	573583	5eb8ff91a1bdb386c80cd7ea	3	1	DL_test	23	DL_test	5	stimuli_target_trianglerectangles.svg	stimuli_distractor_diamondtriangles.svg	21	yes	ga	1	2048	6	2	antiphase_hc_ios.wav	3	6	4	noise_calib_stim_RIGHT.wav	2	17	blb_dichoticlistening_ga-pa.mp3	ga	pa	1	left
6.6.1	win	2023-07-07	20:50:49	21:00:27	573583	5eb8ff91a1bdb386c80cd7ea	3	1	DL_test	23	DL_test	6	stimuli_target_trianglerectangles.svg	stimuli_distractor_diamondtriangles.svg	21	yes	ta	1	1909	6	2	antiphase_hc_ios.wav	3	6	4	noise_calib_stim_RIGHT.wav	2	35	blb_dichoticlistening_ta-pa.mp3	ta	pa	1	left
6.6.1	win	2023-07-07	20:50:49	21:00:27	573583	5eb8ff91a1bdb386c80cd7ea	3	1	DL_test	23	DL_test	7	stimuli_target_trianglerectangles.svg	stimuli_distractor_diamondtriangles.svg	21	yes	ta	0	1919	6	2	antiphase_hc_ios.wav	3	6	4	noise_calib_stim_RIGHT.wav	2	11	blb_dichoticlistening_da-pa.mp3	da	pa	1	other
6.6.1	win	2023-07-07	20:50:49	21:00:27	573583	5eb8ff91a1bdb386c80cd7ea	3	1	DL_test	23	DL_test	8	stimuli_target_trianglerectangles.svg	stimuli_distractor_diamondtriangles.svg	21	yes	ka	1	1701	6	2	antiphase_hc_ios.wav	3	6	4	noise_calib_stim_RIGHT.wav	2	23	blb_dichoticlistening_ka-pa.mp3	ka	pa	1	left
6.6.1	win	2023-07-07	20:50:49	21:00:27	573583	5eb8ff91a1bdb386c80cd7ea	3	1	DL_test	23	DL_test	9	stimuli_target_trianglerectangles.svg	stimuli_distractor_diamondtriangles.svg	21	yes	ka	1	1467	6	2	antiphase_hc_ios.wav	3	6	4	noise_calib_stim_RIGHT.wav	2	20	blb_dichoticlistening_ka-da.mp3	ka	da	1	left
6.6.1	win	2023-07-07	20:50:49	21:00:27	573583	5eb8ff91a1bdb386c80cd7ea	3	1	DL_test	23	DL_test	10	stimuli_target_trianglerectangles.svg	stimuli_distractor_diamondtriangles.svg	21	yes	ga	1	1193	6	2	antiphase_hc_ios.wav	3	6	4	noise_calib_stim_RIGHT.wav	2	3	blb_dichoticlistening_ba-ga.mp3	ba	ga	1	right
6.6.1	win	2023-07-07	20:50:49	21:00:27	573583	5eb8ff91a1bdb386c80cd7ea	3	1	DL_test	23	DL_test	11	stimuli_target_trianglerectangles.svg	stimuli_distractor_diamondtriangles.svg	21	yes	ka	1	993	6	2	antiphase_hc_ios.wav	3	6	4	noise_calib_stim_RIGHT.wav	2	34	blb_dichoticlistening_ta-ka.mp3	ta	ka	1	right
6.6.1	win	2023-07-07	20:50:49	21:00:27	573583	5eb8ff91a1bdb386c80cd7ea	3	1	DL_test	23	DL_test	12	stimuli_target_trianglerectangles.svg	stimuli_distractor_diamondtriangles.svg	21	yes	ka	0	1899	6	2	antiphase_hc_ios.wav	3	6	4	noise_calib_stim_RIGHT.wav	2	12	blb_dichoticlistening_da-ta.mp3	da	ta	1	other
6.6.1	win	2023-07-07	20:50:49	21:00:27	573583	5eb8ff91a1bdb386c80cd7ea	3	1	DL_test	23	DL_test	13	stimuli_target_trianglerectangles.svg	stimuli_distractor_diamondtriangles.svg	21	yes	ka	1	1031	6	2	antiphase_hc_ios.wav	3	6	4	noise_calib_stim_RIGHT.wav	2	16	blb_dichoticlistening_ga-ka.mp3	ga	ka	1	right
6.6.1	win	2023-07-07	20:50:49	21:00:27	573583	5eb8ff91a1bdb386c80cd7ea	3	1	DL_test	23	DL_test	14	stimuli_target_trianglerectangles.svg	stimuli_distractor_diamondtriangles.svg	21	yes	ka	1	925	6	2	antiphase_hc_ios.wav	3	6	4	noise_calib_stim_RIGHT.wav	2	22	blb_dichoticlistening_ka-ka.mp3	ka	ka	0	left
6.6.1	win	2023-07-07	20:50:49	21:00:27	573583	5eb8ff91a1bdb386c80cd7ea	3	1	DL_test	23	DL_test	15	stimuli_target_trianglerectangles.svg	stimuli_distractor_diamondtriangles.svg	21	yes	pa	1	1837	6	2	antiphase_hc_ios.wav	3	6	4	noise_calib_stim_RIGHT.wav	2	26	blb_dichoticlistening_pa-da.mp3	pa	da	1	left
6.6.1	win	2023-07-07	20:50:49	21:00:27	573583	5eb8ff91a1bdb386c80cd7ea	3	1	DL_test	23	DL_test	16	stimuli_target_trianglerectangles.svg	stimuli_distractor_diamondtriangles.svg	21	yes	ga	1	1821	6	2	antiphase_hc_ios.wav	3	6	4	noise_calib_stim_RIGHT.wav	2	18	blb_dichoticlistening_ga-ta.mp3	ga	ta	1	left
6.6.1	win	2023-07-07	20:50:49	21:00:27	573583	5eb8ff91a1bdb386c80cd7ea	3	1	DL_test	23	DL_test	17	stimuli_target_trianglerectangles.svg	stimuli_distractor_diamondtriangles.svg	21	yes	da	1	2014	6	2	antiphase_hc_ios.wav	3	6	4	noise_calib_stim_RIGHT.wav	2	8	blb_dichoticlistening_da-da.mp3	da	da	0	left
6.6.1	win	2023-07-07	20:50:49	21:00:27	573583	5eb8ff91a1bdb386c80cd7ea	3	1	DL_test	23	DL_test	18	stimuli_target_trianglerectangles.svg	stimuli_distractor_diamondtriangles.svg	21	yes	pa	1	1376	6	2	antiphase_hc_ios.wav	3	6	4	noise_calib_stim_RIGHT.wav	2	29	blb_dichoticlistening_pa-pa.mp3	pa	pa	0	left
6.6.1	win	2023-07-07	20:50:49	21:00:27	573583	5eb8ff91a1bdb386c80cd7ea	3	1	DL_test	23	DL_test	19	stimuli_target_trianglerectangles.svg	stimuli_distractor_diamondtriangles.svg	21	yes	ka	1	1203	6	2	antiphase_hc_ios.wav	3	6	4	noise_calib_stim_RIGHT.wav	2	28	blb_dichoticlistening_pa-ka.mp3	pa	ka	1	right
6.6.1	win	2023-07-07	20:50:49	21:00:27	573583	5eb8ff91a1bdb386c80cd7ea	3	1	DL_test	23	DL_test	20	stimuli_target_trianglerectangles.svg	stimuli_distractor_diamondtriangles.svg	21	yes	ba	1	2991	6	2	antiphase_hc_ios.wav	3	6	4	noise_calib_stim_RIGHT.wav	2	25	blb_dichoticlistening_pa-ba.mp3	pa	ba	1	right
6.6.1	win	2023-07-07	20:50:49	21:00:27	573583	5eb8ff91a1bdb386c80cd7ea	3	1	DL_test	23	DL_test	21	stimuli_target_trianglerectangles.svg	stimuli_distractor_diamondtriangles.svg	21	yes	da	1	1157	6	2	antiphase_hc_ios.wav	3	6	4	noise_calib_stim_RIGHT.wav	2	7	blb_dichoticlistening_da-ba.mp3	da	ba	1	left
6.6.1	win	2023-07-07	20:50:49	21:00:27	573583	5eb8ff91a1bdb386c80cd7ea	3	1	DL_test	23	DL_test	22	stimuli_target_trianglerectangles.svg	stimuli_distractor_diamondtriangles.svg	21	yes	ga	1	1130	6	2	antiphase_hc_ios.wav	3	6	4	noise_calib_stim_RIGHT.wav	2	13	blb_dichoticlistening_ga-ba.mp3	ga	ba	1	left
6.6.1	win	2023-07-07	20:50:49	21:00:27	573583	5eb8ff91a1bdb386c80cd7ea	3	1	DL_test	23	DL_test	23	stimuli_target_trianglerectangles.svg	stimuli_distractor_diamondtriangles.svg	21	yes	ka	0	1169	6	2	antiphase_hc_ios.wav	3	6	4	noise_calib_stim_RIGHT.wav	2	31	blb_dichoticlistening_ta-ba.mp3	ta	ba	1	other
6.6.1	win	2023-07-07	20:50:49	21:00:27	573583	5eb8ff91a1bdb386c80cd7ea	3	1	DL_test	23	DL_test	24	stimuli_target_trianglerectangles.svg	stimuli_distractor_diamondtriangles.svg	21	yes	ka	0	1209	6	2	antiphase_hc_ios.wav	3	6	4	noise_calib_stim_RIGHT.wav	2	6	blb_dichoticlistening_ba-ta.mp3	ba	ta	1	other
6.6.1	win	2023-07-07	20:50:49	21:00:27	573583	5eb8ff91a1bdb386c80cd7ea	3	1	DL_test	23	DL_test	25	stimuli_target_trianglerectangles.svg	stimuli_distractor_diamondtriangles.svg	21	yes	pa	1	2389	6	2	antiphase_hc_ios.wav	3	6	4	noise_calib_stim_RIGHT.wav	2	27	blb_dichoticlistening_pa-ga.mp3	pa	ga	1	left
6.6.1	win	2023-07-07	20:50:49	21:00:27	573583	5eb8ff91a1bdb386c80cd7ea	3	1	DL_test	23	DL_test	26	stimuli_target_trianglerectangles.svg	stimuli_distractor_diamondtriangles.svg	21	yes	da	1	1391	6	2	antiphase_hc_ios.wav	3	6	4	noise_calib_stim_RIGHT.wav	2	14	blb_dichoticlistening_ga-da.mp3	ga	da	1	right
