build	computer.platform	date	time	timestamp	time_elapsed_ms	subject	group	session	blockcode	blocknum	trialcode	trialnum	stimulus_left	stimulus_right	stim_index	target_present	response	correct	latency	headphonecheck_countTestTrials	headphonecheck_index	headphonecheck_testSound	headphonecheck_correctResponse	stereocheck_countTestTrials	stereocheck_index	stereocheck_testSound	stereocheck_correctResponse	DL_index	DL_soundfile	DL_leftSound	DL_rightSound	DL_dualSound	DL_choice
6.6.1	mac	2023-06-28	15:09:21	15:11:43	140058	5caba2588d77140014bac508	4	1	practice_z	5	practice_z	1	stimuli_distractor_diamondtriangles.svg	stimuli_distractor_diamondtriangles.svg	13	no	0	1	2000	0	0			0	0			1				0	
6.6.1	mac	2023-06-28	15:09:21	15:11:43	140058	5caba2588d77140014bac508	4	1	practice_z	5	advance_on_keypress_ZEE	2	stimuli_distractor_diamondtriangles.svg	stimuli_distractor_diamondtriangles.svg	13	no	57	0	4027	0	0			0	0			1				0	
6.6.1	mac	2023-06-28	15:09:21	15:11:50	146755	5caba2588d77140014bac508	4	1	practice_z	5	practice_z	3	stimuli_target_diamondsquares.svg	stimuli_distractor_trianglediamonds.svg	6	yes	44	1	1030	0	0			0	0			1				0	
6.6.1	mac	2023-06-28	15:09:21	15:11:50	146755	5caba2588d77140014bac508	4	1	practice_z	5	advance_on_keypress_ZEE	4	stimuli_target_diamondsquares.svg	stimuli_distractor_trianglediamonds.svg	6	yes	57	0	835	0	0			0	0			1				0	
6.6.1	mac	2023-06-28	15:09:21	15:11:53	150226	5caba2588d77140014bac508	4	1	practice_z	5	practice_z	5	stimuli_distractor_diamondtriangles.svg	stimuli_target_diamondrectangles.svg	8	yes	44	1	998	0	0			0	0			1				0	
6.6.1	mac	2023-06-28	15:09:21	15:11:53	150226	5caba2588d77140014bac508	4	1	practice_z	5	advance_on_keypress_ZEE	6	stimuli_distractor_diamondtriangles.svg	stimuli_target_diamondrectangles.svg	8	yes	57	0	448	0	0			0	0			1				0	
6.6.1	mac	2023-06-28	15:09:21	15:11:56	153253	5caba2588d77140014bac508	4	1	practice_z	5	practice_z	7	stimuli_target_rectanglediamonds.svg	stimuli_distractor_diamondtriangles.svg	1	yes	44	1	943	0	0			0	0			1				0	
6.6.1	mac	2023-06-28	15:09:21	15:11:56	153253	5caba2588d77140014bac508	4	1	practice_z	5	advance_on_keypress_ZEE	8	stimuli_target_rectanglediamonds.svg	stimuli_distractor_diamondtriangles.svg	1	yes	57	0	394	0	0			0	0			1				0	
6.6.1	mac	2023-06-28	15:09:21	15:11:59	156043	5caba2588d77140014bac508	4	1	practice_z	5	practice_z	9	stimuli_distractor_trianglediamonds.svg	stimuli_target_squarediamonds.svg	11	yes	44	1	751	0	0			0	0			1				0	
6.6.1	mac	2023-06-28	15:09:21	15:11:59	156043	5caba2588d77140014bac508	4	1	practice_z	5	advance_on_keypress_ZEE	10	stimuli_distractor_trianglediamonds.svg	stimuli_target_squarediamonds.svg	11	yes	57	0	921	0	0			0	0			1				0	
6.6.1	mac	2023-06-28	15:09:21	15:12:04	160589	5caba2588d77140014bac508	4	1	practice_z	5	practice_z	11	stimuli_distractor_diamondtriangles.svg	stimuli_distractor_trianglediamonds.svg	14	no	0	1	2000	0	0			0	0			1				0	
6.6.1	mac	2023-06-28	15:09:21	15:12:04	160589	5caba2588d77140014bac508	4	1	practice_z	5	advance_on_keypress_ZEE	12	stimuli_distractor_diamondtriangles.svg	stimuli_distractor_trianglediamonds.svg	14	no	57	0	907	0	0			0	0			1				0	
6.6.1	mac	2023-06-28	15:09:21	15:12:07	164071	5caba2588d77140014bac508	4	1	practice_z	5	practice_z	13	stimuli_distractor_trianglediamonds.svg	stimuli_target_rectanglediamonds.svg	10	yes	44	1	940	0	0			0	0			1				0	
6.6.1	mac	2023-06-28	15:09:21	15:12:07	164071	5caba2588d77140014bac508	4	1	practice_z	5	advance_on_keypress_ZEE	14	stimuli_distractor_trianglediamonds.svg	stimuli_target_rectanglediamonds.svg	10	yes	57	0	803	0	0			0	0			1				0	
6.6.1	mac	2023-06-28	15:09:21	15:12:11	167433	5caba2588d77140014bac508	4	1	practice_z	5	practice_z	15	stimuli_target_squarediamonds.svg	stimuli_distractor_diamondtriangles.svg	2	yes	44	1	922	0	0			0	0			1				0	
6.6.1	mac	2023-06-28	15:09:21	15:12:11	167433	5caba2588d77140014bac508	4	1	practice_z	5	advance_on_keypress_ZEE	16	stimuli_target_squarediamonds.svg	stimuli_distractor_diamondtriangles.svg	2	yes	57	0	477	0	0			0	0			1				0	
6.6.1	mac	2023-06-28	15:09:21	15:12:14	170552	5caba2588d77140014bac508	4	1	practice_z	5	practice_z	17	stimuli_target_squarediamonds.svg	stimuli_distractor_trianglediamonds.svg	5	yes	44	1	1011	0	0			0	0			1				0	
6.6.1	mac	2023-06-28	15:09:21	15:12:14	170552	5caba2588d77140014bac508	4	1	practice_z	5	advance_on_keypress_ZEE	18	stimuli_target_squarediamonds.svg	stimuli_distractor_trianglediamonds.svg	5	yes	57	0	443	0	0			0	0			1				0	
6.6.1	mac	2023-06-28	15:09:21	15:12:17	173703	5caba2588d77140014bac508	4	1	practice_z	5	practice_z	19	stimuli_distractor_diamondtriangles.svg	stimuli_target_rectangletriangles.svg	7	yes	44	1	1061	0	0			0	0			1				0	
6.6.1	mac	2023-06-28	15:09:21	15:12:17	173703	5caba2588d77140014bac508	4	1	practice_z	5	advance_on_keypress_ZEE	20	stimuli_distractor_diamondtriangles.svg	stimuli_target_rectangletriangles.svg	7	yes	57	0	293	0	0			0	0			1				0	
6.6.1	mac	2023-06-28	15:09:21	15:12:21	177623	5caba2588d77140014bac508	4	1	practice_z	5	practice_z	21	stimuli_distractor_trianglediamonds.svg	stimuli_distractor_diamondtriangles.svg	16	no	0	1	2000	0	0			0	0			1				0	
6.6.1	mac	2023-06-28	15:09:21	15:12:21	177623	5caba2588d77140014bac508	4	1	practice_z	5	advance_on_keypress_ZEE	22	stimuli_distractor_trianglediamonds.svg	stimuli_distractor_diamondtriangles.svg	16	no	57	0	1156	0	0			0	0			1				0	
6.6.1	mac	2023-06-28	15:09:21	15:12:24	181329	5caba2588d77140014bac508	4	1	practice_z	5	practice_z	23	stimuli_target_diamondsquares.svg	stimuli_distractor_diamondtriangles.svg	3	yes	44	1	920	0	0			0	0			1				0	
6.6.1	mac	2023-06-28	15:09:21	15:12:24	181329	5caba2588d77140014bac508	4	1	practice_z	5	advance_on_keypress_ZEE	24	stimuli_target_diamondsquares.svg	stimuli_distractor_diamondtriangles.svg	3	yes	57	0	456	0	0			0	0			1				0	
6.6.1	mac	2023-06-28	15:09:21	15:12:27	184298	5caba2588d77140014bac508	4	1	practice_z	5	practice_z	25	stimuli_target_rectanglediamonds.svg	stimuli_distractor_trianglediamonds.svg	4	yes	44	1	890	0	0			0	0			1				0	
6.6.1	mac	2023-06-28	15:09:21	15:12:27	184298	5caba2588d77140014bac508	4	1	practice_z	5	advance_on_keypress_ZEE	26	stimuli_target_rectanglediamonds.svg	stimuli_distractor_trianglediamonds.svg	4	yes	57	0	336	0	0			0	0			1				0	
6.6.1	mac	2023-06-28	15:09:21	15:12:30	187326	5caba2588d77140014bac508	4	1	practice_z	5	practice_z	27	stimuli_distractor_trianglediamonds.svg	stimuli_target_diamondrectangles.svg	12	yes	44	1	1070	0	0			0	0			1				0	
6.6.1	mac	2023-06-28	15:09:21	15:12:30	187326	5caba2588d77140014bac508	4	1	practice_z	5	advance_on_keypress_ZEE	28	stimuli_distractor_trianglediamonds.svg	stimuli_target_diamondrectangles.svg	12	yes	57	0	399	0	0			0	0			1				0	
6.6.1	mac	2023-06-28	15:09:21	15:12:34	190429	5caba2588d77140014bac508	4	1	practice_z	5	practice_z	29	stimuli_distractor_trianglediamonds.svg	stimuli_distractor_trianglediamonds.svg	15	no	44	0	1072	0	0			0	0			1				0	
6.6.1	mac	2023-06-28	15:09:21	15:12:34	190429	5caba2588d77140014bac508	4	1	practice_z	5	advance_on_keypress_ZEE	30	stimuli_distractor_trianglediamonds.svg	stimuli_distractor_trianglediamonds.svg	15	no	57	0	518	0	0			0	0			1				0	
6.6.1	mac	2023-06-28	15:09:21	15:12:37	193421	5caba2588d77140014bac508	4	1	practice_z	5	practice_z	31	stimuli_distractor_diamondtriangles.svg	stimuli_target_trianglerectangles.svg	9	yes	44	1	846	0	0			0	0			1				0	
6.6.1	mac	2023-06-28	15:09:21	15:12:37	193421	5caba2588d77140014bac508	4	1	practice_z	5	advance_on_keypress_ZEE	32	stimuli_distractor_diamondtriangles.svg	stimuli_target_trianglerectangles.svg	9	yes	57	0	688	0	0			0	0			1				0	
6.6.1	mac	2023-06-28	15:09:21	15:12:48	204355	5caba2588d77140014bac508	4	1	main_z	7	main_z	1	stimuli_distractor_diamondtriangles.svg	stimuli_target_diamondsquares.svg	32	yes	44	1	626	0	0			0	0			1				0	
6.6.1	mac	2023-06-28	15:09:21	15:12:48	204355	5caba2588d77140014bac508	4	1	main_z	7	advance_on_keypress_ZEE	2	stimuli_distractor_diamondtriangles.svg	stimuli_target_diamondsquares.svg	32	yes	57	0	1231	0	0			0	0			1				0	
6.6.1	mac	2023-06-28	15:09:21	15:12:51	208223	5caba2588d77140014bac508	4	1	main_z	7	main_z	3	stimuli_distractor_diamondtriangles.svg	stimuli_distractor_trianglediamonds.svg	37	no	0	1	2000	0	0			0	0			1				0	
6.6.1	mac	2023-06-28	15:09:21	15:12:51	208223	5caba2588d77140014bac508	4	1	main_z	7	advance_on_keypress_ZEE	4	stimuli_distractor_diamondtriangles.svg	stimuli_distractor_trianglediamonds.svg	37	no	57	0	771	0	0			0	0			1				0	
6.6.1	mac	2023-06-28	15:09:21	15:12:55	211623	5caba2588d77140014bac508	4	1	main_z	7	main_z	5	stimuli_distractor_trianglediamonds.svg	stimuli_distractor_trianglediamonds.svg	34	no	0	1	2000	0	0			0	0			1				0	
6.6.1	mac	2023-06-28	15:09:21	15:12:55	211623	5caba2588d77140014bac508	4	1	main_z	7	advance_on_keypress_ZEE	6	stimuli_distractor_trianglediamonds.svg	stimuli_distractor_trianglediamonds.svg	34	no	57	0	553	0	0			0	0			1				0	
6.6.1	mac	2023-06-28	15:09:21	15:12:57	213574	5caba2588d77140014bac508	4	1	main_z	7	main_z	7	stimuli_distractor_trianglediamonds.svg	stimuli_target_squarediamonds.svg	12	yes	44	1	766	0	0			0	0			1				0	
6.6.1	mac	2023-06-28	15:09:21	15:12:57	213574	5caba2588d77140014bac508	4	1	main_z	7	advance_on_keypress_ZEE	8	stimuli_distractor_trianglediamonds.svg	stimuli_target_squarediamonds.svg	12	yes	57	0	1018	0	0			0	0			1				0	
6.6.1	mac	2023-06-28	15:09:21	15:12:59	216205	5caba2588d77140014bac508	4	1	main_z	7	main_z	9	stimuli_target_diamondrectangles.svg	stimuli_distractor_diamondtriangles.svg	23	yes	44	1	981	0	0			0	0			1				0	
6.6.1	mac	2023-06-28	15:09:21	15:12:59	216205	5caba2588d77140014bac508	4	1	main_z	7	advance_on_keypress_ZEE	10	stimuli_target_diamondrectangles.svg	stimuli_distractor_diamondtriangles.svg	23	yes	57	0	4183	0	0			0	0			1				0	
6.6.1	mac	2023-06-28	15:09:21	15:13:06	223021	5caba2588d77140014bac508	4	1	main_z	7	main_z	11	stimuli_distractor_diamondtriangles.svg	stimuli_distractor_trianglediamonds.svg	38	no	0	1	2000	0	0			0	0			1				0	
6.6.1	mac	2023-06-28	15:09:21	15:13:06	223021	5caba2588d77140014bac508	4	1	main_z	7	advance_on_keypress_ZEE	12	stimuli_distractor_diamondtriangles.svg	stimuli_distractor_trianglediamonds.svg	38	no	57	0	493	0	0			0	0			1				0	
6.6.1	mac	2023-06-28	15:09:21	15:13:08	225065	5caba2588d77140014bac508	4	1	main_z	7	main_z	13	stimuli_target_rectanglediamonds.svg	stimuli_distractor_diamondtriangles.svg	6	yes	44	1	924	0	0			0	0			1				0	
6.6.1	mac	2023-06-28	15:09:21	15:13:08	225065	5caba2588d77140014bac508	4	1	main_z	7	advance_on_keypress_ZEE	14	stimuli_target_rectanglediamonds.svg	stimuli_distractor_diamondtriangles.svg	6	yes	57	0	592	0	0			0	0			1				0	
6.6.1	mac	2023-06-28	15:09:21	15:13:10	227087	5caba2588d77140014bac508	4	1	main_z	7	main_z	15	stimuli_target_squaretriangles.svg	stimuli_distractor_diamondtriangles.svg	7	yes	44	1	811	0	0			0	0			1				0	
6.6.1	mac	2023-06-28	15:09:21	15:13:10	227087	5caba2588d77140014bac508	4	1	main_z	7	advance_on_keypress_ZEE	16	stimuli_target_squaretriangles.svg	stimuli_distractor_diamondtriangles.svg	7	yes	57	0	364	0	0			0	0			1				0	
6.6.1	mac	2023-06-28	15:09:21	15:13:12	229104	5caba2588d77140014bac508	4	1	main_z	7	main_z	17	stimuli_target_trianglerectangles.svg	stimuli_distractor_diamondtriangles.svg	21	yes	44	1	1013	0	0			0	0			1				0	
6.6.1	mac	2023-06-28	15:09:21	15:13:12	229104	5caba2588d77140014bac508	4	1	main_z	7	advance_on_keypress_ZEE	18	stimuli_target_trianglerectangles.svg	stimuli_distractor_diamondtriangles.svg	21	yes	57	0	408	0	0			0	0			1				0	
6.6.1	mac	2023-06-28	15:09:21	15:13:14	231075	5caba2588d77140014bac508	4	1	main_z	7	main_z	19	stimuli_distractor_diamondtriangles.svg	stimuli_target_squaretriangles.svg	15	yes	44	1	930	0	0			0	0			1				0	
6.6.1	mac	2023-06-28	15:09:21	15:13:14	231075	5caba2588d77140014bac508	4	1	main_z	7	advance_on_keypress_ZEE	20	stimuli_distractor_diamondtriangles.svg	stimuli_target_squaretriangles.svg	15	yes	57	0	408	0	0			0	0			1				0	
6.6.1	mac	2023-06-28	15:09:21	15:13:16	233055	5caba2588d77140014bac508	4	1	main_z	7	main_z	21	stimuli_target_trianglesquares.svg	stimuli_distractor_diamondtriangles.svg	22	yes	44	1	948	0	0			0	0			1				0	
6.6.1	mac	2023-06-28	15:09:21	15:13:16	233055	5caba2588d77140014bac508	4	1	main_z	7	advance_on_keypress_ZEE	22	stimuli_target_trianglesquares.svg	stimuli_distractor_diamondtriangles.svg	22	yes	57	0	397	0	0			0	0			1				0	
6.6.1	mac	2023-06-28	15:09:21	15:13:18	235012	5caba2588d77140014bac508	4	1	main_z	7	main_z	23	stimuli_distractor_trianglediamonds.svg	stimuli_target_trianglesquares.svg	26	yes	44	1	920	0	0			0	0			1				0	
6.6.1	mac	2023-06-28	15:09:21	15:13:18	235012	5caba2588d77140014bac508	4	1	main_z	7	advance_on_keypress_ZEE	24	stimuli_distractor_trianglediamonds.svg	stimuli_target_trianglesquares.svg	26	yes	57	0	447	0	0			0	0			1				0	
6.6.1	mac	2023-06-28	15:09:21	15:13:20	237055	5caba2588d77140014bac508	4	1	main_z	7	main_z	25	stimuli_target_trianglesquares.svg	stimuli_distractor_trianglediamonds.svg	18	yes	44	1	964	0	0			0	0			1				0	
6.6.1	mac	2023-06-28	15:09:21	15:13:20	237055	5caba2588d77140014bac508	4	1	main_z	7	advance_on_keypress_ZEE	26	stimuli_target_trianglesquares.svg	stimuli_distractor_trianglediamonds.svg	18	yes	57	0	450	0	0			0	0			1				0	
6.6.1	mac	2023-06-28	15:09:21	15:13:22	239028	5caba2588d77140014bac508	4	1	main_z	7	main_z	27	stimuli_distractor_diamondtriangles.svg	stimuli_target_trianglerectangles.svg	29	yes	44	1	885	0	0			0	0			1				0	
6.6.1	mac	2023-06-28	15:09:21	15:13:22	239028	5caba2588d77140014bac508	4	1	main_z	7	advance_on_keypress_ZEE	28	stimuli_distractor_diamondtriangles.svg	stimuli_target_trianglerectangles.svg	29	yes	57	0	411	0	0			0	0			1				0	
6.6.1	mac	2023-06-28	15:09:21	15:13:24	240904	5caba2588d77140014bac508	4	1	main_z	7	main_z	29	stimuli_distractor_diamondtriangles.svg	stimuli_target_diamondrectangles.svg	31	yes	44	1	829	0	0			0	0			1				0	
6.6.1	mac	2023-06-28	15:09:21	15:13:24	240904	5caba2588d77140014bac508	4	1	main_z	7	advance_on_keypress_ZEE	30	stimuli_distractor_diamondtriangles.svg	stimuli_target_diamondrectangles.svg	31	yes	57	0	300	0	0			0	0			1				0	
6.6.1	mac	2023-06-28	15:09:21	15:13:27	243839	5caba2588d77140014bac508	4	1	main_z	7	main_z	31	stimuli_distractor_trianglediamonds.svg	stimuli_distractor_trianglediamonds.svg	33	no	0	1	2000	0	0			0	0			1				0	
6.6.1	mac	2023-06-28	15:09:21	15:13:27	243839	5caba2588d77140014bac508	4	1	main_z	7	advance_on_keypress_ZEE	32	stimuli_distractor_trianglediamonds.svg	stimuli_distractor_trianglediamonds.svg	33	no	57	0	590	0	0			0	0			1				0	
6.6.1	mac	2023-06-28	15:09:21	15:13:29	246073	5caba2588d77140014bac508	4	1	main_z	7	main_z	33	stimuli_target_trianglerectangles.svg	stimuli_distractor_trianglediamonds.svg	17	yes	44	1	1015	0	0			0	0			1				0	
6.6.1	mac	2023-06-28	15:09:21	15:13:29	246073	5caba2588d77140014bac508	4	1	main_z	7	advance_on_keypress_ZEE	34	stimuli_target_trianglerectangles.svg	stimuli_distractor_trianglediamonds.svg	17	yes	57	0	695	0	0			0	0			1				0	
6.6.1	mac	2023-06-28	15:09:21	15:13:31	248095	5caba2588d77140014bac508	4	1	main_z	7	main_z	35	stimuli_distractor_trianglediamonds.svg	stimuli_target_trianglerectangles.svg	25	yes	44	1	688	0	0			0	0			1				0	
6.6.1	mac	2023-06-28	15:09:21	15:13:31	248095	5caba2588d77140014bac508	4	1	main_z	7	advance_on_keypress_ZEE	36	stimuli_distractor_trianglediamonds.svg	stimuli_target_trianglerectangles.svg	25	yes	57	0	381	0	0			0	0			1				0	
6.6.1	mac	2023-06-28	15:09:21	15:13:33	250022	5caba2588d77140014bac508	4	1	main_z	7	main_z	37	stimuli_distractor_trianglediamonds.svg	stimuli_target_rectangletriangles.svg	9	yes	44	1	914	0	0			0	0			1				0	
6.6.1	mac	2023-06-28	15:09:21	15:13:33	250022	5caba2588d77140014bac508	4	1	main_z	7	advance_on_keypress_ZEE	38	stimuli_distractor_trianglediamonds.svg	stimuli_target_rectangletriangles.svg	9	yes	57	0	284	0	0			0	0			1				0	
6.6.1	mac	2023-06-28	15:09:21	15:13:36	252938	5caba2588d77140014bac508	4	1	main_z	7	main_z	39	stimuli_distractor_diamondtriangles.svg	stimuli_distractor_diamondtriangles.svg	39	no	0	1	2000	0	0			0	0			1				0	
6.6.1	mac	2023-06-28	15:09:21	15:13:36	252938	5caba2588d77140014bac508	4	1	main_z	7	advance_on_keypress_ZEE	40	stimuli_distractor_diamondtriangles.svg	stimuli_distractor_diamondtriangles.svg	39	no	57	0	384	0	0			0	0			1				0	
6.6.1	mac	2023-06-28	15:09:21	15:13:38	254658	5caba2588d77140014bac508	4	1	main_z	7	main_z	41	stimuli_distractor_trianglediamonds.svg	stimuli_target_diamondsquares.svg	28	yes	44	1	701	0	0			0	0			1				0	
6.6.1	mac	2023-06-28	15:09:21	15:13:38	254658	5caba2588d77140014bac508	4	1	main_z	7	advance_on_keypress_ZEE	42	stimuli_distractor_trianglediamonds.svg	stimuli_target_diamondsquares.svg	28	yes	57	0	438	0	0			0	0			1				0	
6.6.1	mac	2023-06-28	15:09:21	15:13:40	256589	5caba2588d77140014bac508	4	1	main_z	7	main_z	43	stimuli_distractor_trianglediamonds.svg	stimuli_target_rectanglediamonds.svg	10	yes	44	1	864	0	0			0	0			1				0	
6.6.1	mac	2023-06-28	15:09:21	15:13:40	256589	5caba2588d77140014bac508	4	1	main_z	7	advance_on_keypress_ZEE	44	stimuli_distractor_trianglediamonds.svg	stimuli_target_rectanglediamonds.svg	10	yes	57	0	308	0	0			0	0			1				0	
6.6.1	mac	2023-06-28	15:09:21	15:13:41	258219	5caba2588d77140014bac508	4	1	main_z	7	main_z	45	stimuli_distractor_trianglediamonds.svg	stimuli_target_diamondrectangles.svg	27	yes	44	1	695	0	0			0	0			1				0	
6.6.1	mac	2023-06-28	15:09:21	15:13:41	258219	5caba2588d77140014bac508	4	1	main_z	7	advance_on_keypress_ZEE	46	stimuli_distractor_trianglediamonds.svg	stimuli_target_diamondrectangles.svg	27	yes	57	0	230	0	0			0	0			1				0	
6.6.1	mac	2023-06-28	15:09:21	15:13:43	259829	5caba2588d77140014bac508	4	1	main_z	7	main_z	47	stimuli_distractor_diamondtriangles.svg	stimuli_target_rectanglediamonds.svg	14	yes	44	1	738	0	0			0	0			1				0	
6.6.1	mac	2023-06-28	15:09:21	15:13:43	259829	5caba2588d77140014bac508	4	1	main_z	7	advance_on_keypress_ZEE	48	stimuli_distractor_diamondtriangles.svg	stimuli_target_rectanglediamonds.svg	14	yes	57	0	307	0	0			0	0			1				0	
6.6.1	mac	2023-06-28	15:09:21	15:13:45	261436	5caba2588d77140014bac508	4	1	main_z	7	main_z	49	stimuli_target_rectangletriangles.svg	stimuli_distractor_trianglediamonds.svg	1	yes	44	1	677	0	0			0	0			1				0	
6.6.1	mac	2023-06-28	15:09:21	15:13:45	261436	5caba2588d77140014bac508	4	1	main_z	7	advance_on_keypress_ZEE	50	stimuli_target_rectangletriangles.svg	stimuli_distractor_trianglediamonds.svg	1	yes	57	0	239	0	0			0	0			1				0	
6.6.1	mac	2023-06-28	15:09:21	15:13:47	263903	5caba2588d77140014bac508	4	1	main_z	7	main_z	51	stimuli_distractor_trianglediamonds.svg	stimuli_distractor_diamondtriangles.svg	35	no	44	0	1594	0	0			0	0			1				0	
6.6.1	mac	2023-06-28	15:09:21	15:13:47	263903	5caba2588d77140014bac508	4	1	main_z	7	advance_on_keypress_ZEE	52	stimuli_distractor_trianglediamonds.svg	stimuli_distractor_diamondtriangles.svg	35	no	57	0	479	0	0			0	0			1				0	
6.6.1	mac	2023-06-28	15:09:21	15:13:49	265678	5caba2588d77140014bac508	4	1	main_z	7	main_z	53	stimuli_target_squarediamonds.svg	stimuli_distractor_diamondtriangles.svg	8	yes	44	1	654	0	0			0	0			1				0	
6.6.1	mac	2023-06-28	15:09:21	15:13:49	265678	5caba2588d77140014bac508	4	1	main_z	7	advance_on_keypress_ZEE	54	stimuli_target_squarediamonds.svg	stimuli_distractor_diamondtriangles.svg	8	yes	57	0	388	0	0			0	0			1				0	
6.6.1	mac	2023-06-28	15:09:21	15:13:51	267617	5caba2588d77140014bac508	4	1	main_z	7	main_z	55	stimuli_target_diamondsquares.svg	stimuli_distractor_trianglediamonds.svg	20	yes	44	1	925	0	0			0	0			1				0	
6.6.1	mac	2023-06-28	15:09:21	15:13:51	267617	5caba2588d77140014bac508	4	1	main_z	7	advance_on_keypress_ZEE	56	stimuli_target_diamondsquares.svg	stimuli_distractor_trianglediamonds.svg	20	yes	57	0	564	0	0			0	0			1				0	
6.6.1	mac	2023-06-28	15:09:21	15:13:53	269716	5caba2588d77140014bac508	4	1	main_z	7	main_z	57	stimuli_distractor_diamondtriangles.svg	stimuli_target_trianglesquares.svg	30	yes	44	1	908	0	0			0	0			1				0	
6.6.1	mac	2023-06-28	15:09:21	15:13:53	269716	5caba2588d77140014bac508	4	1	main_z	7	advance_on_keypress_ZEE	58	stimuli_distractor_diamondtriangles.svg	stimuli_target_trianglesquares.svg	30	yes	57	0	513	0	0			0	0			1				0	
6.6.1	mac	2023-06-28	15:09:21	15:13:56	272567	5caba2588d77140014bac508	4	1	main_z	7	main_z	59	stimuli_target_diamondrectangles.svg	stimuli_distractor_trianglediamonds.svg	19	yes	44	1	1708	0	0			0	0			1				0	
6.6.1	mac	2023-06-28	15:09:21	15:13:56	272567	5caba2588d77140014bac508	4	1	main_z	7	advance_on_keypress_ZEE	60	stimuli_target_diamondrectangles.svg	stimuli_distractor_trianglediamonds.svg	19	yes	57	0	2082	0	0			0	0			1				0	
6.6.1	mac	2023-06-28	15:09:21	15:13:59	275835	5caba2588d77140014bac508	4	1	main_z	7	main_z	61	stimuli_distractor_trianglediamonds.svg	stimuli_target_squaretriangles.svg	11	yes	44	1	561	0	0			0	0			1				0	
6.6.1	mac	2023-06-28	15:09:21	15:13:59	275835	5caba2588d77140014bac508	4	1	main_z	7	advance_on_keypress_ZEE	62	stimuli_distractor_trianglediamonds.svg	stimuli_target_squaretriangles.svg	11	yes	57	0	447	0	0			0	0			1				0	
6.6.1	mac	2023-06-28	15:09:21	15:14:01	277661	5caba2588d77140014bac508	4	1	main_z	7	main_z	63	stimuli_target_rectangletriangles.svg	stimuli_distractor_diamondtriangles.svg	5	yes	44	1	736	0	0			0	0			1				0	
6.6.1	mac	2023-06-28	15:09:21	15:14:01	277661	5caba2588d77140014bac508	4	1	main_z	7	advance_on_keypress_ZEE	64	stimuli_target_rectangletriangles.svg	stimuli_distractor_diamondtriangles.svg	5	yes	57	0	644	0	0			0	0			1				0	
6.6.1	mac	2023-06-28	15:09:21	15:14:03	279769	5caba2588d77140014bac508	4	1	main_z	7	main_z	65	stimuli_target_diamondsquares.svg	stimuli_distractor_diamondtriangles.svg	24	yes	44	1	828	0	0			0	0			1				0	
6.6.1	mac	2023-06-28	15:09:21	15:14:03	279769	5caba2588d77140014bac508	4	1	main_z	7	advance_on_keypress_ZEE	66	stimuli_target_diamondsquares.svg	stimuli_distractor_diamondtriangles.svg	24	yes	57	0	413	0	0			0	0			1				0	
6.6.1	mac	2023-06-28	15:09:21	15:14:05	281594	5caba2588d77140014bac508	4	1	main_z	7	main_z	67	stimuli_target_squarediamonds.svg	stimuli_distractor_trianglediamonds.svg	4	yes	44	1	770	0	0			0	0			1				0	
6.6.1	mac	2023-06-28	15:09:21	15:14:05	281594	5caba2588d77140014bac508	4	1	main_z	7	advance_on_keypress_ZEE	68	stimuli_target_squarediamonds.svg	stimuli_distractor_trianglediamonds.svg	4	yes	57	0	380	0	0			0	0			1				0	
6.6.1	mac	2023-06-28	15:09:21	15:14:08	284605	5caba2588d77140014bac508	4	1	main_z	7	main_z	69	stimuli_distractor_diamondtriangles.svg	stimuli_distractor_diamondtriangles.svg	40	no	0	1	2000	0	0			0	0			1				0	
6.6.1	mac	2023-06-28	15:09:21	15:14:08	284605	5caba2588d77140014bac508	4	1	main_z	7	advance_on_keypress_ZEE	70	stimuli_distractor_diamondtriangles.svg	stimuli_distractor_diamondtriangles.svg	40	no	57	0	443	0	0			0	0			1				0	
6.6.1	mac	2023-06-28	15:09:21	15:14:11	287671	5caba2588d77140014bac508	4	1	main_z	7	main_z	71	stimuli_distractor_trianglediamonds.svg	stimuli_distractor_diamondtriangles.svg	36	no	0	1	2000	0	0			0	0			1				0	
6.6.1	mac	2023-06-28	15:09:21	15:14:11	287671	5caba2588d77140014bac508	4	1	main_z	7	advance_on_keypress_ZEE	72	stimuli_distractor_trianglediamonds.svg	stimuli_distractor_diamondtriangles.svg	36	no	57	0	405	0	0			0	0			1				0	
6.6.1	mac	2023-06-28	15:09:21	15:14:13	289606	5caba2588d77140014bac508	4	1	main_z	7	main_z	73	stimuli_distractor_diamondtriangles.svg	stimuli_target_rectangletriangles.svg	13	yes	44	1	898	0	0			0	0			1				0	
6.6.1	mac	2023-06-28	15:09:21	15:14:13	289606	5caba2588d77140014bac508	4	1	main_z	7	advance_on_keypress_ZEE	74	stimuli_distractor_diamondtriangles.svg	stimuli_target_rectangletriangles.svg	13	yes	57	0	396	0	0			0	0			1				0	
6.6.1	mac	2023-06-28	15:09:21	15:14:15	291687	5caba2588d77140014bac508	4	1	main_z	7	main_z	75	stimuli_distractor_diamondtriangles.svg	stimuli_target_squarediamonds.svg	16	yes	44	1	1046	0	0			0	0			1				0	
6.6.1	mac	2023-06-28	15:09:21	15:14:15	291687	5caba2588d77140014bac508	4	1	main_z	7	advance_on_keypress_ZEE	76	stimuli_distractor_diamondtriangles.svg	stimuli_target_squarediamonds.svg	16	yes	57	0	507	0	0			0	0			1				0	
6.6.1	mac	2023-06-28	15:09:21	15:14:17	293676	5caba2588d77140014bac508	4	1	main_z	7	main_z	77	stimuli_target_rectanglediamonds.svg	stimuli_distractor_trianglediamonds.svg	2	yes	44	1	852	0	0			0	0			1				0	
6.6.1	mac	2023-06-28	15:09:21	15:14:17	293676	5caba2588d77140014bac508	4	1	main_z	7	advance_on_keypress_ZEE	78	stimuli_target_rectanglediamonds.svg	stimuli_distractor_trianglediamonds.svg	2	yes	57	0	234	0	0			0	0			1				0	
6.6.1	mac	2023-06-28	15:09:21	15:14:19	295475	5caba2588d77140014bac508	4	1	main_z	7	main_z	79	stimuli_target_squaretriangles.svg	stimuli_distractor_trianglediamonds.svg	3	yes	44	1	933	0	0			0	0			1				0	
6.6.1	mac	2023-06-28	15:09:21	15:14:19	295475	5caba2588d77140014bac508	4	1	main_z	7	advance_on_keypress_ZEE	80	stimuli_target_squaretriangles.svg	stimuli_distractor_trianglediamonds.svg	3	yes	57	0	411	0	0			0	0			1				0	
6.6.1	mac	2023-06-28	15:09:21	15:14:21	297406	5caba2588d77140014bac508	4	1	main_z	7	main_z	81	stimuli_distractor_diamondtriangles.svg	stimuli_target_squarediamonds.svg	16	yes	44	1	882	0	0			0	0			1				0	
6.6.1	mac	2023-06-28	15:09:21	15:14:21	297406	5caba2588d77140014bac508	4	1	main_z	7	advance_on_keypress_ZEE	82	stimuli_distractor_diamondtriangles.svg	stimuli_target_squarediamonds.svg	16	yes	57	0	634	0	0			0	0			1				0	
6.6.1	mac	2023-06-28	15:09:21	15:14:23	299567	5caba2588d77140014bac508	4	1	main_z	7	main_z	83	stimuli_target_rectanglediamonds.svg	stimuli_distractor_diamondtriangles.svg	6	yes	44	1	893	0	0			0	0			1				0	
6.6.1	mac	2023-06-28	15:09:21	15:14:23	299567	5caba2588d77140014bac508	4	1	main_z	7	advance_on_keypress_ZEE	84	stimuli_target_rectanglediamonds.svg	stimuli_distractor_diamondtriangles.svg	6	yes	57	0	425	0	0			0	0			1				0	
6.6.1	mac	2023-06-28	15:09:21	15:14:25	301528	5caba2588d77140014bac508	4	1	main_z	7	main_z	85	stimuli_target_diamondsquares.svg	stimuli_distractor_diamondtriangles.svg	24	yes	44	1	920	0	0			0	0			1				0	
6.6.1	mac	2023-06-28	15:09:21	15:14:25	301528	5caba2588d77140014bac508	4	1	main_z	7	advance_on_keypress_ZEE	86	stimuli_target_diamondsquares.svg	stimuli_distractor_diamondtriangles.svg	24	yes	57	0	337	0	0			0	0			1				0	
6.6.1	mac	2023-06-28	15:09:21	15:14:27	303386	5caba2588d77140014bac508	4	1	main_z	7	main_z	87	stimuli_distractor_trianglediamonds.svg	stimuli_target_trianglesquares.svg	26	yes	44	1	893	0	0			0	0			1				0	
6.6.1	mac	2023-06-28	15:09:21	15:14:27	303386	5caba2588d77140014bac508	4	1	main_z	7	advance_on_keypress_ZEE	88	stimuli_distractor_trianglediamonds.svg	stimuli_target_trianglesquares.svg	26	yes	57	0	263	0	0			0	0			1				0	
6.6.1	mac	2023-06-28	15:09:21	15:14:28	305087	5caba2588d77140014bac508	4	1	main_z	7	main_z	89	stimuli_target_rectangletriangles.svg	stimuli_distractor_diamondtriangles.svg	5	yes	44	1	796	0	0			0	0			1				0	
6.6.1	mac	2023-06-28	15:09:21	15:14:28	305087	5caba2588d77140014bac508	4	1	main_z	7	advance_on_keypress_ZEE	90	stimuli_target_rectangletriangles.svg	stimuli_distractor_diamondtriangles.svg	5	yes	57	0	269	0	0			0	0			1				0	
6.6.1	mac	2023-06-28	15:09:21	15:14:31	307989	5caba2588d77140014bac508	4	1	main_z	7	main_z	91	stimuli_distractor_trianglediamonds.svg	stimuli_distractor_diamondtriangles.svg	36	no	0	1	2000	0	0			0	0			1				0	
6.6.1	mac	2023-06-28	15:09:21	15:14:31	307989	5caba2588d77140014bac508	4	1	main_z	7	advance_on_keypress_ZEE	92	stimuli_distractor_trianglediamonds.svg	stimuli_distractor_diamondtriangles.svg	36	no	57	0	481	0	0			0	0			1				0	
6.6.1	mac	2023-06-28	15:09:21	15:14:33	310031	5caba2588d77140014bac508	4	1	main_z	7	main_z	93	stimuli_target_trianglerectangles.svg	stimuli_distractor_trianglediamonds.svg	17	yes	44	1	923	0	0			0	0			1				0	
6.6.1	mac	2023-06-28	15:09:21	15:14:33	310031	5caba2588d77140014bac508	4	1	main_z	7	advance_on_keypress_ZEE	94	stimuli_target_trianglerectangles.svg	stimuli_distractor_trianglediamonds.svg	17	yes	57	0	647	0	0			0	0			1				0	
6.6.1	mac	2023-06-28	15:09:21	15:14:35	312002	5caba2588d77140014bac508	4	1	main_z	7	main_z	95	stimuli_target_rectangletriangles.svg	stimuli_distractor_trianglediamonds.svg	1	yes	44	1	694	0	0			0	0			1				0	
6.6.1	mac	2023-06-28	15:09:21	15:14:35	312002	5caba2588d77140014bac508	4	1	main_z	7	advance_on_keypress_ZEE	96	stimuli_target_rectangletriangles.svg	stimuli_distractor_trianglediamonds.svg	1	yes	57	0	334	0	0			0	0			1				0	
6.6.1	mac	2023-06-28	15:09:21	15:14:37	313766	5caba2588d77140014bac508	4	1	main_z	7	main_z	97	stimuli_target_diamondsquares.svg	stimuli_distractor_trianglediamonds.svg	20	yes	44	1	793	0	0			0	0			1				0	
6.6.1	mac	2023-06-28	15:09:21	15:14:37	313766	5caba2588d77140014bac508	4	1	main_z	7	advance_on_keypress_ZEE	98	stimuli_target_diamondsquares.svg	stimuli_distractor_trianglediamonds.svg	20	yes	57	0	354	0	0			0	0			1				0	
6.6.1	mac	2023-06-28	15:09:21	15:14:38	315313	5caba2588d77140014bac508	4	1	main_z	7	main_z	99	stimuli_distractor_trianglediamonds.svg	stimuli_target_diamondsquares.svg	28	yes	44	1	572	0	0			0	0			1				0	
6.6.1	mac	2023-06-28	15:09:21	15:14:38	315313	5caba2588d77140014bac508	4	1	main_z	7	advance_on_keypress_ZEE	100	stimuli_distractor_trianglediamonds.svg	stimuli_target_diamondsquares.svg	28	yes	57	0	283	0	0			0	0			1				0	
6.6.1	mac	2023-06-28	15:09:21	15:14:40	316837	5caba2588d77140014bac508	4	1	main_z	7	main_z	101	stimuli_distractor_diamondtriangles.svg	stimuli_target_squaretriangles.svg	15	yes	44	1	612	0	0			0	0			1				0	
6.6.1	mac	2023-06-28	15:09:21	15:14:40	316837	5caba2588d77140014bac508	4	1	main_z	7	advance_on_keypress_ZEE	102	stimuli_distractor_diamondtriangles.svg	stimuli_target_squaretriangles.svg	15	yes	57	0	245	0	0			0	0			1				0	
6.6.1	mac	2023-06-28	15:09:21	15:14:41	318319	5caba2588d77140014bac508	4	1	main_z	7	main_z	103	stimuli_target_diamondrectangles.svg	stimuli_distractor_trianglediamonds.svg	19	yes	44	1	595	0	0			0	0			1				0	
6.6.1	mac	2023-06-28	15:09:21	15:14:41	318319	5caba2588d77140014bac508	4	1	main_z	7	advance_on_keypress_ZEE	104	stimuli_target_diamondrectangles.svg	stimuli_distractor_trianglediamonds.svg	19	yes	57	0	316	0	0			0	0			1				0	
6.6.1	mac	2023-06-28	15:09:21	15:14:43	319864	5caba2588d77140014bac508	4	1	main_z	7	main_z	105	stimuli_distractor_trianglediamonds.svg	stimuli_target_diamondrectangles.svg	27	yes	44	1	590	0	0			0	0			1				0	
6.6.1	mac	2023-06-28	15:09:21	15:14:43	319864	5caba2588d77140014bac508	4	1	main_z	7	advance_on_keypress_ZEE	106	stimuli_distractor_trianglediamonds.svg	stimuli_target_diamondrectangles.svg	27	yes	57	0	292	0	0			0	0			1				0	
6.6.1	mac	2023-06-28	15:09:21	15:14:46	322771	5caba2588d77140014bac508	4	1	main_z	7	main_z	107	stimuli_distractor_trianglediamonds.svg	stimuli_distractor_trianglediamonds.svg	33	no	0	1	2000	0	0			0	0			1				0	
6.6.1	mac	2023-06-28	15:09:21	15:14:46	322771	5caba2588d77140014bac508	4	1	main_z	7	advance_on_keypress_ZEE	108	stimuli_distractor_trianglediamonds.svg	stimuli_distractor_trianglediamonds.svg	33	no	57	0	1213	0	0			0	0			1				0	
6.6.1	mac	2023-06-28	15:09:21	15:14:50	326623	5caba2588d77140014bac508	4	1	main_z	7	main_z	109	stimuli_distractor_diamondtriangles.svg	stimuli_distractor_diamondtriangles.svg	39	no	0	1	2000	0	0			0	0			1				0	
6.6.1	mac	2023-06-28	15:09:21	15:14:50	326623	5caba2588d77140014bac508	4	1	main_z	7	advance_on_keypress_ZEE	110	stimuli_distractor_diamondtriangles.svg	stimuli_distractor_diamondtriangles.svg	39	no	57	0	719	0	0			0	0			1				0	
6.6.1	mac	2023-06-28	15:09:21	15:14:52	328610	5caba2588d77140014bac508	4	1	main_z	7	main_z	111	stimuli_target_squarediamonds.svg	stimuli_distractor_diamondtriangles.svg	8	yes	44	1	636	0	0			0	0			1				0	
6.6.1	mac	2023-06-28	15:09:21	15:14:52	328610	5caba2588d77140014bac508	4	1	main_z	7	advance_on_keypress_ZEE	112	stimuli_target_squarediamonds.svg	stimuli_distractor_diamondtriangles.svg	8	yes	57	0	492	0	0			0	0			1				0	
6.6.1	mac	2023-06-28	15:09:21	15:14:54	330939	5caba2588d77140014bac508	4	1	main_z	7	main_z	113	stimuli_distractor_diamondtriangles.svg	stimuli_distractor_trianglediamonds.svg	38	no	44	0	1215	0	0			0	0			1				0	
6.6.1	mac	2023-06-28	15:09:21	15:14:54	330939	5caba2588d77140014bac508	4	1	main_z	7	advance_on_keypress_ZEE	114	stimuli_distractor_diamondtriangles.svg	stimuli_distractor_trianglediamonds.svg	38	no	57	0	738	0	0			0	0			1				0	
6.6.1	mac	2023-06-28	15:09:21	15:14:56	333185	5caba2588d77140014bac508	4	1	main_z	7	main_z	115	stimuli_distractor_diamondtriangles.svg	stimuli_target_trianglerectangles.svg	29	yes	44	1	877	0	0			0	0			1				0	
6.6.1	mac	2023-06-28	15:09:21	15:14:56	333185	5caba2588d77140014bac508	4	1	main_z	7	advance_on_keypress_ZEE	116	stimuli_distractor_diamondtriangles.svg	stimuli_target_trianglerectangles.svg	29	yes	57	0	262	0	0			0	0			1				0	
6.6.1	mac	2023-06-28	15:09:21	15:14:58	334778	5caba2588d77140014bac508	4	1	main_z	7	main_z	117	stimuli_distractor_trianglediamonds.svg	stimuli_target_trianglerectangles.svg	25	yes	44	1	686	0	0			0	0			1				0	
6.6.1	mac	2023-06-28	15:09:21	15:14:58	334778	5caba2588d77140014bac508	4	1	main_z	7	advance_on_keypress_ZEE	118	stimuli_distractor_trianglediamonds.svg	stimuli_target_trianglerectangles.svg	25	yes	57	0	225	0	0			0	0			1				0	
6.6.1	mac	2023-06-28	15:09:21	15:14:59	336310	5caba2588d77140014bac508	4	1	main_z	7	main_z	119	stimuli_target_trianglesquares.svg	stimuli_distractor_trianglediamonds.svg	18	yes	44	1	686	0	0			0	0			1				0	
6.6.1	mac	2023-06-28	15:09:21	15:14:59	336310	5caba2588d77140014bac508	4	1	main_z	7	advance_on_keypress_ZEE	120	stimuli_target_trianglesquares.svg	stimuli_distractor_trianglediamonds.svg	18	yes	57	0	246	0	0			0	0			1				0	
6.6.1	mac	2023-06-28	15:09:21	15:15:01	337783	5caba2588d77140014bac508	4	1	main_z	7	main_z	121	stimuli_distractor_trianglediamonds.svg	stimuli_target_squaretriangles.svg	11	yes	44	1	592	0	0			0	0			1				0	
6.6.1	mac	2023-06-28	15:09:21	15:15:01	337783	5caba2588d77140014bac508	4	1	main_z	7	advance_on_keypress_ZEE	122	stimuli_distractor_trianglediamonds.svg	stimuli_target_squaretriangles.svg	11	yes	57	0	263	0	0			0	0			1				0	
6.6.1	mac	2023-06-28	15:09:21	15:15:03	339600	5caba2588d77140014bac508	4	1	main_z	7	main_z	123	stimuli_distractor_diamondtriangles.svg	stimuli_distractor_trianglediamonds.svg	37	no	44	0	926	0	0			0	0			1				0	
6.6.1	mac	2023-06-28	15:09:21	15:15:03	339600	5caba2588d77140014bac508	4	1	main_z	7	advance_on_keypress_ZEE	124	stimuli_distractor_diamondtriangles.svg	stimuli_distractor_trianglediamonds.svg	37	no	57	0	275	0	0			0	0			1				0	
6.6.1	mac	2023-06-28	15:09:21	15:15:04	341082	5caba2588d77140014bac508	4	1	main_z	7	main_z	125	stimuli_distractor_diamondtriangles.svg	stimuli_target_diamondrectangles.svg	31	yes	44	1	593	0	0			0	0			1				0	
6.6.1	mac	2023-06-28	15:09:21	15:15:04	341082	5caba2588d77140014bac508	4	1	main_z	7	advance_on_keypress_ZEE	126	stimuli_distractor_diamondtriangles.svg	stimuli_target_diamondrectangles.svg	31	yes	57	0	225	0	0			0	0			1				0	
6.6.1	mac	2023-06-28	15:09:21	15:15:06	342664	5caba2588d77140014bac508	4	1	main_z	7	main_z	127	stimuli_distractor_trianglediamonds.svg	stimuli_target_rectanglediamonds.svg	10	yes	44	1	706	0	0			0	0			1				0	
6.6.1	mac	2023-06-28	15:09:21	15:15:06	342664	5caba2588d77140014bac508	4	1	main_z	7	advance_on_keypress_ZEE	128	stimuli_distractor_trianglediamonds.svg	stimuli_target_rectanglediamonds.svg	10	yes	57	0	280	0	0			0	0			1				0	
6.6.1	mac	2023-06-28	15:09:21	15:15:07	344334	5caba2588d77140014bac508	4	1	main_z	7	main_z	129	stimuli_distractor_diamondtriangles.svg	stimuli_target_rectangletriangles.svg	13	yes	44	1	762	0	0			0	0			1				0	
6.6.1	mac	2023-06-28	15:09:21	15:15:07	344334	5caba2588d77140014bac508	4	1	main_z	7	advance_on_keypress_ZEE	130	stimuli_distractor_diamondtriangles.svg	stimuli_target_rectangletriangles.svg	13	yes	57	0	280	0	0			0	0			1				0	
6.6.1	mac	2023-06-28	15:09:21	15:15:09	345936	5caba2588d77140014bac508	4	1	main_z	7	main_z	131	stimuli_distractor_diamondtriangles.svg	stimuli_target_rectanglediamonds.svg	14	yes	44	1	695	0	0			0	0			1				0	
6.6.1	mac	2023-06-28	15:09:21	15:15:09	345936	5caba2588d77140014bac508	4	1	main_z	7	advance_on_keypress_ZEE	132	stimuli_distractor_diamondtriangles.svg	stimuli_target_rectanglediamonds.svg	14	yes	57	0	298	0	0			0	0			1				0	
6.6.1	mac	2023-06-28	15:09:21	15:15:11	347794	5caba2588d77140014bac508	4	1	main_z	7	main_z	133	stimuli_target_squaretriangles.svg	stimuli_distractor_diamondtriangles.svg	7	yes	44	1	922	0	0			0	0			1				0	
6.6.1	mac	2023-06-28	15:09:21	15:15:11	347794	5caba2588d77140014bac508	4	1	main_z	7	advance_on_keypress_ZEE	134	stimuli_target_squaretriangles.svg	stimuli_distractor_diamondtriangles.svg	7	yes	57	0	253	0	0			0	0			1				0	
6.6.1	mac	2023-06-28	15:09:21	15:15:14	350673	5caba2588d77140014bac508	4	1	main_z	7	main_z	135	stimuli_distractor_trianglediamonds.svg	stimuli_distractor_diamondtriangles.svg	35	no	0	1	2000	0	0			0	0			1				0	
6.6.1	mac	2023-06-28	15:09:21	15:15:14	350673	5caba2588d77140014bac508	4	1	main_z	7	advance_on_keypress_ZEE	136	stimuli_distractor_trianglediamonds.svg	stimuli_distractor_diamondtriangles.svg	35	no	57	0	527	0	0			0	0			1				0	
6.6.1	mac	2023-06-28	15:09:21	15:15:16	352555	5caba2588d77140014bac508	4	1	main_z	7	main_z	137	stimuli_distractor_diamondtriangles.svg	stimuli_target_diamondsquares.svg	32	yes	44	1	731	0	0			0	0			1				0	
6.6.1	mac	2023-06-28	15:09:21	15:15:16	352555	5caba2588d77140014bac508	4	1	main_z	7	advance_on_keypress_ZEE	138	stimuli_distractor_diamondtriangles.svg	stimuli_target_diamondsquares.svg	32	yes	57	0	290	0	0			0	0			1				0	
6.6.1	mac	2023-06-28	15:09:21	15:15:17	354115	5caba2588d77140014bac508	4	1	main_z	7	main_z	139	stimuli_distractor_diamondtriangles.svg	stimuli_target_trianglesquares.svg	30	yes	44	1	642	0	0			0	0			1				0	
6.6.1	mac	2023-06-28	15:09:21	15:15:17	354115	5caba2588d77140014bac508	4	1	main_z	7	advance_on_keypress_ZEE	140	stimuli_distractor_diamondtriangles.svg	stimuli_target_trianglesquares.svg	30	yes	57	0	269	0	0			0	0			1				0	
6.6.1	mac	2023-06-28	15:09:21	15:15:19	355606	5caba2588d77140014bac508	4	1	main_z	7	main_z	141	stimuli_target_squaretriangles.svg	stimuli_distractor_trianglediamonds.svg	3	yes	44	1	600	0	0			0	0			1				0	
6.6.1	mac	2023-06-28	15:09:21	15:15:19	355606	5caba2588d77140014bac508	4	1	main_z	7	advance_on_keypress_ZEE	142	stimuli_target_squaretriangles.svg	stimuli_distractor_trianglediamonds.svg	3	yes	57	0	259	0	0			0	0			1				0	
6.6.1	mac	2023-06-28	15:09:21	15:15:20	357249	5caba2588d77140014bac508	4	1	main_z	7	main_z	143	stimuli_target_diamondrectangles.svg	stimuli_distractor_diamondtriangles.svg	23	yes	44	1	758	0	0			0	0			1				0	
6.6.1	mac	2023-06-28	15:09:21	15:15:20	357249	5caba2588d77140014bac508	4	1	main_z	7	advance_on_keypress_ZEE	144	stimuli_target_diamondrectangles.svg	stimuli_distractor_diamondtriangles.svg	23	yes	57	0	243	0	0			0	0			1				0	
6.6.1	mac	2023-06-28	15:09:21	15:15:22	358781	5caba2588d77140014bac508	4	1	main_z	7	main_z	145	stimuli_distractor_trianglediamonds.svg	stimuli_target_rectangletriangles.svg	9	yes	44	1	673	0	0			0	0			1				0	
6.6.1	mac	2023-06-28	15:09:21	15:15:22	358781	5caba2588d77140014bac508	4	1	main_z	7	advance_on_keypress_ZEE	146	stimuli_distractor_trianglediamonds.svg	stimuli_target_rectangletriangles.svg	9	yes	57	0	264	0	0			0	0			1				0	
6.6.1	mac	2023-06-28	15:09:21	15:15:24	360346	5caba2588d77140014bac508	4	1	main_z	7	main_z	147	stimuli_target_rectanglediamonds.svg	stimuli_distractor_trianglediamonds.svg	2	yes	44	1	672	0	0			0	0			1				0	
6.6.1	mac	2023-06-28	15:09:21	15:15:24	360346	5caba2588d77140014bac508	4	1	main_z	7	advance_on_keypress_ZEE	148	stimuli_target_rectanglediamonds.svg	stimuli_distractor_trianglediamonds.svg	2	yes	57	0	290	0	0			0	0			1				0	
6.6.1	mac	2023-06-28	15:09:21	15:15:25	362096	5caba2588d77140014bac508	4	1	main_z	7	main_z	149	stimuli_target_trianglerectangles.svg	stimuli_distractor_diamondtriangles.svg	21	yes	44	1	838	0	0			0	0			1				0	
6.6.1	mac	2023-06-28	15:09:21	15:15:25	362096	5caba2588d77140014bac508	4	1	main_z	7	advance_on_keypress_ZEE	150	stimuli_target_trianglerectangles.svg	stimuli_distractor_diamondtriangles.svg	21	yes	57	0	602	0	0			0	0			1				0	
6.6.1	mac	2023-06-28	15:09:21	15:15:27	363941	5caba2588d77140014bac508	4	1	main_z	7	main_z	151	stimuli_target_trianglesquares.svg	stimuli_distractor_diamondtriangles.svg	22	yes	44	1	618	0	0			0	0			1				0	
6.6.1	mac	2023-06-28	15:09:21	15:15:27	363941	5caba2588d77140014bac508	4	1	main_z	7	advance_on_keypress_ZEE	152	stimuli_target_trianglesquares.svg	stimuli_distractor_diamondtriangles.svg	22	yes	57	0	297	0	0			0	0			1				0	
6.6.1	mac	2023-06-28	15:09:21	15:15:28	365305	5caba2588d77140014bac508	4	1	main_z	7	main_z	153	stimuli_target_squarediamonds.svg	stimuli_distractor_trianglediamonds.svg	4	yes	44	1	432	0	0			0	0			1				0	
6.6.1	mac	2023-06-28	15:09:21	15:15:28	365305	5caba2588d77140014bac508	4	1	main_z	7	advance_on_keypress_ZEE	154	stimuli_target_squarediamonds.svg	stimuli_distractor_trianglediamonds.svg	4	yes	57	0	353	0	0			0	0			1				0	
6.6.1	mac	2023-06-28	15:09:21	15:15:30	366732	5caba2588d77140014bac508	4	1	main_z	7	main_z	155	stimuli_distractor_trianglediamonds.svg	stimuli_target_squarediamonds.svg	12	yes	44	1	441	0	0			0	0			1				0	
6.6.1	mac	2023-06-28	15:09:21	15:15:30	366732	5caba2588d77140014bac508	4	1	main_z	7	advance_on_keypress_ZEE	156	stimuli_distractor_trianglediamonds.svg	stimuli_target_squarediamonds.svg	12	yes	57	0	346	0	0			0	0			1				0	
6.6.1	mac	2023-06-28	15:09:21	15:15:33	369706	5caba2588d77140014bac508	4	1	main_z	7	main_z	157	stimuli_distractor_trianglediamonds.svg	stimuli_distractor_trianglediamonds.svg	34	no	0	1	2000	0	0			0	0			1				0	
6.6.1	mac	2023-06-28	15:09:21	15:15:33	369706	5caba2588d77140014bac508	4	1	main_z	7	advance_on_keypress_ZEE	158	stimuli_distractor_trianglediamonds.svg	stimuli_distractor_trianglediamonds.svg	34	no	57	0	469	0	0			0	0			1				0	
6.6.1	mac	2023-06-28	15:09:21	15:15:36	372805	5caba2588d77140014bac508	4	1	main_z	7	main_z	159	stimuli_distractor_diamondtriangles.svg	stimuli_distractor_diamondtriangles.svg	40	no	0	1	2000	0	0			0	0			1				0	
6.6.1	mac	2023-06-28	15:09:21	15:15:36	372805	5caba2588d77140014bac508	4	1	main_z	7	advance_on_keypress_ZEE	160	stimuli_distractor_diamondtriangles.svg	stimuli_distractor_diamondtriangles.svg	40	no	57	0	408	0	0			0	0			1				0	
6.6.1	mac	2023-06-28	15:09:21	15:16:33	430330	5caba2588d77140014bac508	4	1	practice_slash	9	practice_slash	1	stimuli_distractor_trianglediamonds.svg	stimuli_distractor_diamondtriangles.svg	16	no	0	1	2000	0	0			0	0			1				0	
6.6.1	mac	2023-06-28	15:09:21	15:16:33	430330	5caba2588d77140014bac508	4	1	practice_slash	9	advance_on_keypress_SLASH	2	stimuli_distractor_trianglediamonds.svg	stimuli_distractor_diamondtriangles.svg	16	no	57	0	367	0	0			0	0			1				0	
6.6.1	mac	2023-06-28	15:09:21	15:16:36	433206	5caba2588d77140014bac508	4	1	practice_slash	9	practice_slash	3	stimuli_distractor_trianglediamonds.svg	stimuli_target_squarediamonds.svg	11	yes	53	1	862	0	0			0	0			1				0	
6.6.1	mac	2023-06-28	15:09:21	15:16:36	433206	5caba2588d77140014bac508	4	1	practice_slash	9	advance_on_keypress_SLASH	4	stimuli_distractor_trianglediamonds.svg	stimuli_target_squarediamonds.svg	11	yes	57	0	500	0	0			0	0			1				0	
6.6.1	mac	2023-06-28	15:09:21	15:16:39	436032	5caba2588d77140014bac508	4	1	practice_slash	9	practice_slash	5	stimuli_distractor_diamondtriangles.svg	stimuli_target_rectangletriangles.svg	7	yes	53	1	690	0	0			0	0			1				0	
6.6.1	mac	2023-06-28	15:09:21	15:16:39	436032	5caba2588d77140014bac508	4	1	practice_slash	9	advance_on_keypress_SLASH	6	stimuli_distractor_diamondtriangles.svg	stimuli_target_rectangletriangles.svg	7	yes	57	0	589	0	0			0	0			1				0	
6.6.1	mac	2023-06-28	15:09:21	15:16:42	438893	5caba2588d77140014bac508	4	1	practice_slash	9	practice_slash	7	stimuli_distractor_diamondtriangles.svg	stimuli_target_trianglerectangles.svg	9	yes	53	1	651	0	0			0	0			1				0	
6.6.1	mac	2023-06-28	15:09:21	15:16:42	438893	5caba2588d77140014bac508	4	1	practice_slash	9	advance_on_keypress_SLASH	8	stimuli_distractor_diamondtriangles.svg	stimuli_target_trianglerectangles.svg	9	yes	57	0	631	0	0			0	0			1				0	
6.6.1	mac	2023-06-28	15:09:21	15:16:45	441794	5caba2588d77140014bac508	4	1	practice_slash	9	practice_slash	9	stimuli_distractor_diamondtriangles.svg	stimuli_target_diamondrectangles.svg	8	yes	53	1	636	0	0			0	0			1				0	
6.6.1	mac	2023-06-28	15:09:21	15:16:45	441794	5caba2588d77140014bac508	4	1	practice_slash	9	advance_on_keypress_SLASH	10	stimuli_distractor_diamondtriangles.svg	stimuli_target_diamondrectangles.svg	8	yes	57	0	646	0	0			0	0			1				0	
6.6.1	mac	2023-06-28	15:09:21	15:16:49	446073	5caba2588d77140014bac508	4	1	practice_slash	9	practice_slash	11	stimuli_distractor_diamondtriangles.svg	stimuli_distractor_trianglediamonds.svg	14	no	0	1	2000	0	0			0	0			1				0	
6.6.1	mac	2023-06-28	15:09:21	15:16:49	446073	5caba2588d77140014bac508	4	1	practice_slash	9	advance_on_keypress_SLASH	12	stimuli_distractor_diamondtriangles.svg	stimuli_distractor_trianglediamonds.svg	14	no	57	0	517	0	0			0	0			1				0	
6.6.1	mac	2023-06-28	15:09:21	15:16:52	448860	5caba2588d77140014bac508	4	1	practice_slash	9	practice_slash	13	stimuli_target_squarediamonds.svg	stimuli_distractor_trianglediamonds.svg	5	yes	53	1	635	0	0			0	0			1				0	
6.6.1	mac	2023-06-28	15:09:21	15:16:52	448860	5caba2588d77140014bac508	4	1	practice_slash	9	advance_on_keypress_SLASH	14	stimuli_target_squarediamonds.svg	stimuli_distractor_trianglediamonds.svg	5	yes	57	0	491	0	0			0	0			1				0	
6.6.1	mac	2023-06-28	15:09:21	15:16:55	451920	5caba2588d77140014bac508	4	1	practice_slash	9	practice_slash	15	stimuli_target_diamondsquares.svg	stimuli_distractor_trianglediamonds.svg	6	yes	53	1	944	0	0			0	0			1				0	
6.6.1	mac	2023-06-28	15:09:21	15:16:55	451920	5caba2588d77140014bac508	4	1	practice_slash	9	advance_on_keypress_SLASH	16	stimuli_target_diamondsquares.svg	stimuli_distractor_trianglediamonds.svg	6	yes	57	0	315	0	0			0	0			1				0	
6.6.1	mac	2023-06-28	15:09:21	15:16:58	454639	5caba2588d77140014bac508	4	1	practice_slash	9	practice_slash	17	stimuli_target_diamondsquares.svg	stimuli_distractor_diamondtriangles.svg	3	yes	53	1	763	0	0			0	0			1				0	
6.6.1	mac	2023-06-28	15:09:21	15:16:58	454639	5caba2588d77140014bac508	4	1	practice_slash	9	advance_on_keypress_SLASH	18	stimuli_target_diamondsquares.svg	stimuli_distractor_diamondtriangles.svg	3	yes	57	0	293	0	0			0	0			1				0	
6.6.1	mac	2023-06-28	15:09:21	15:17:01	457466	5caba2588d77140014bac508	4	1	practice_slash	9	practice_slash	19	stimuli_distractor_trianglediamonds.svg	stimuli_target_rectanglediamonds.svg	10	yes	53	1	893	0	0			0	0			1				0	
6.6.1	mac	2023-06-28	15:09:21	15:17:01	457466	5caba2588d77140014bac508	4	1	practice_slash	9	advance_on_keypress_SLASH	20	stimuli_distractor_trianglediamonds.svg	stimuli_target_rectanglediamonds.svg	10	yes	57	0	565	0	0			0	0			1				0	
6.6.1	mac	2023-06-28	15:09:21	15:17:03	460309	5caba2588d77140014bac508	4	1	practice_slash	9	practice_slash	21	stimuli_target_squarediamonds.svg	stimuli_distractor_diamondtriangles.svg	2	yes	53	1	652	0	0			0	0			1				0	
6.6.1	mac	2023-06-28	15:09:21	15:17:03	460309	5caba2588d77140014bac508	4	1	practice_slash	9	advance_on_keypress_SLASH	22	stimuli_target_squarediamonds.svg	stimuli_distractor_diamondtriangles.svg	2	yes	57	0	616	0	0			0	0			1				0	
6.6.1	mac	2023-06-28	15:09:21	15:17:07	463358	5caba2588d77140014bac508	4	1	practice_slash	9	practice_slash	23	stimuli_target_rectanglediamonds.svg	stimuli_distractor_diamondtriangles.svg	1	yes	53	1	799	0	0			0	0			1				0	
6.6.1	mac	2023-06-28	15:09:21	15:17:07	463358	5caba2588d77140014bac508	4	1	practice_slash	9	advance_on_keypress_SLASH	24	stimuli_target_rectanglediamonds.svg	stimuli_distractor_diamondtriangles.svg	1	yes	57	0	307	0	0			0	0			1				0	
6.6.1	mac	2023-06-28	15:09:21	15:17:10	467291	5caba2588d77140014bac508	4	1	practice_slash	9	practice_slash	25	stimuli_distractor_trianglediamonds.svg	stimuli_distractor_trianglediamonds.svg	15	no	0	1	2000	0	0			0	0			1				0	
6.6.1	mac	2023-06-28	15:09:21	15:17:10	467291	5caba2588d77140014bac508	4	1	practice_slash	9	advance_on_keypress_SLASH	26	stimuli_distractor_trianglediamonds.svg	stimuli_distractor_trianglediamonds.svg	15	no	57	0	400	0	0			0	0			1				0	
6.6.1	mac	2023-06-28	15:09:21	15:17:13	470049	5caba2588d77140014bac508	4	1	practice_slash	9	practice_slash	27	stimuli_distractor_trianglediamonds.svg	stimuli_target_diamondrectangles.svg	12	yes	53	1	724	0	0			0	0			1				0	
6.6.1	mac	2023-06-28	15:09:21	15:17:13	470049	5caba2588d77140014bac508	4	1	practice_slash	9	advance_on_keypress_SLASH	28	stimuli_distractor_trianglediamonds.svg	stimuli_target_diamondrectangles.svg	12	yes	57	0	667	0	0			0	0			1				0	
6.6.1	mac	2023-06-28	15:09:21	15:17:17	473631	5caba2588d77140014bac508	4	1	practice_slash	9	practice_slash	29	stimuli_distractor_diamondtriangles.svg	stimuli_distractor_diamondtriangles.svg	13	no	53	0	1288	0	0			0	0			1				0	
6.6.1	mac	2023-06-28	15:09:21	15:17:17	473631	5caba2588d77140014bac508	4	1	practice_slash	9	advance_on_keypress_SLASH	30	stimuli_distractor_diamondtriangles.svg	stimuli_distractor_diamondtriangles.svg	13	no	57	0	518	0	0			0	0			1				0	
6.6.1	mac	2023-06-28	15:09:21	15:17:20	476787	5caba2588d77140014bac508	4	1	practice_slash	9	practice_slash	31	stimuli_target_rectanglediamonds.svg	stimuli_distractor_trianglediamonds.svg	4	yes	53	1	1012	0	0			0	0			1				0	
6.6.1	mac	2023-06-28	15:09:21	15:17:20	476787	5caba2588d77140014bac508	4	1	practice_slash	9	advance_on_keypress_SLASH	32	stimuli_target_rectanglediamonds.svg	stimuli_distractor_trianglediamonds.svg	4	yes	57	0	526	0	0			0	0			1				0	
6.6.1	mac	2023-06-28	15:09:21	15:17:26	482608	5caba2588d77140014bac508	4	1	main_slash	11	main_slash	1	stimuli_distractor_trianglediamonds.svg	stimuli_distractor_diamondtriangles.svg	35	no	0	1	2000	0	0			0	0			1				0	
6.6.1	mac	2023-06-28	15:09:21	15:17:26	482608	5caba2588d77140014bac508	4	1	main_slash	11	advance_on_keypress_SLASH	2	stimuli_distractor_trianglediamonds.svg	stimuli_distractor_diamondtriangles.svg	35	no	57	0	387	0	0			0	0			1				0	
6.6.1	mac	2023-06-28	15:09:21	15:17:28	484823	5caba2588d77140014bac508	4	1	main_slash	11	main_slash	3	stimuli_distractor_diamondtriangles.svg	stimuli_distractor_trianglediamonds.svg	38	no	53	0	1198	0	0			0	0			1				0	
6.6.1	mac	2023-06-28	15:09:21	15:17:28	484823	5caba2588d77140014bac508	4	1	main_slash	11	advance_on_keypress_SLASH	4	stimuli_distractor_diamondtriangles.svg	stimuli_distractor_trianglediamonds.svg	38	no	57	0	585	0	0			0	0			1				0	
6.6.1	mac	2023-06-28	15:09:21	15:17:30	486900	5caba2588d77140014bac508	4	1	main_slash	11	main_slash	5	stimuli_target_trianglerectangles.svg	stimuli_distractor_diamondtriangles.svg	21	yes	53	1	859	0	0			0	0			1				0	
6.6.1	mac	2023-06-28	15:09:21	15:17:30	486900	5caba2588d77140014bac508	4	1	main_slash	11	advance_on_keypress_SLASH	6	stimuli_target_trianglerectangles.svg	stimuli_distractor_diamondtriangles.svg	21	yes	57	0	320	0	0			0	0			1				0	
6.6.1	mac	2023-06-28	15:09:21	15:17:33	489838	5caba2588d77140014bac508	4	1	main_slash	11	main_slash	7	stimuli_distractor_diamondtriangles.svg	stimuli_distractor_diamondtriangles.svg	39	no	0	1	2000	0	0			0	0			1				0	
6.6.1	mac	2023-06-28	15:09:21	15:17:33	489838	5caba2588d77140014bac508	4	1	main_slash	11	advance_on_keypress_SLASH	8	stimuli_distractor_diamondtriangles.svg	stimuli_distractor_diamondtriangles.svg	39	no	57	0	261	0	0			0	0			1				0	
6.6.1	mac	2023-06-28	15:09:21	15:17:35	491516	5caba2588d77140014bac508	4	1	main_slash	11	main_slash	9	stimuli_target_rectangletriangles.svg	stimuli_distractor_trianglediamonds.svg	1	yes	53	1	777	0	0			0	0			1				0	
6.6.1	mac	2023-06-28	15:09:21	15:17:35	491516	5caba2588d77140014bac508	4	1	main_slash	11	advance_on_keypress_SLASH	10	stimuli_target_rectangletriangles.svg	stimuli_distractor_trianglediamonds.svg	1	yes	57	0	451	0	0			0	0			1				0	
6.6.1	mac	2023-06-28	15:09:21	15:17:37	493623	5caba2588d77140014bac508	4	1	main_slash	11	main_slash	11	stimuli_distractor_diamondtriangles.svg	stimuli_distractor_trianglediamonds.svg	37	no	53	0	1032	0	0			0	0			1				0	
6.6.1	mac	2023-06-28	15:09:21	15:17:37	493623	5caba2588d77140014bac508	4	1	main_slash	11	advance_on_keypress_SLASH	12	stimuli_distractor_diamondtriangles.svg	stimuli_distractor_trianglediamonds.svg	37	no	57	0	418	0	0			0	0			1				0	
6.6.1	mac	2023-06-28	15:09:21	15:17:39	495766	5caba2588d77140014bac508	4	1	main_slash	11	main_slash	13	stimuli_target_squarediamonds.svg	stimuli_distractor_trianglediamonds.svg	4	yes	53	1	1092	0	0			0	0			1				0	
6.6.1	mac	2023-06-28	15:09:21	15:17:39	495766	5caba2588d77140014bac508	4	1	main_slash	11	advance_on_keypress_SLASH	14	stimuli_target_squarediamonds.svg	stimuli_distractor_trianglediamonds.svg	4	yes	57	0	244	0	0			0	0			1				0	
6.6.1	mac	2023-06-28	15:09:21	15:17:41	497591	5caba2588d77140014bac508	4	1	main_slash	11	main_slash	15	stimuli_target_diamondrectangles.svg	stimuli_distractor_diamondtriangles.svg	23	yes	53	1	967	0	0			0	0			1				0	
6.6.1	mac	2023-06-28	15:09:21	15:17:41	497591	5caba2588d77140014bac508	4	1	main_slash	11	advance_on_keypress_SLASH	16	stimuli_target_diamondrectangles.svg	stimuli_distractor_diamondtriangles.svg	23	yes	57	0	259	0	0			0	0			1				0	
6.6.1	mac	2023-06-28	15:09:21	15:17:44	500471	5caba2588d77140014bac508	4	1	main_slash	11	main_slash	17	stimuli_distractor_trianglediamonds.svg	stimuli_distractor_trianglediamonds.svg	34	no	0	1	2000	0	0			0	0			1				0	
6.6.1	mac	2023-06-28	15:09:21	15:17:44	500471	5caba2588d77140014bac508	4	1	main_slash	11	advance_on_keypress_SLASH	18	stimuli_distractor_trianglediamonds.svg	stimuli_distractor_trianglediamonds.svg	34	no	57	0	396	0	0			0	0			1				0	
6.6.1	mac	2023-06-28	15:09:21	15:17:46	502450	5caba2588d77140014bac508	4	1	main_slash	11	main_slash	19	stimuli_target_trianglerectangles.svg	stimuli_distractor_trianglediamonds.svg	17	yes	53	1	942	0	0			0	0			1				0	
6.6.1	mac	2023-06-28	15:09:21	15:17:46	502450	5caba2588d77140014bac508	4	1	main_slash	11	advance_on_keypress_SLASH	20	stimuli_target_trianglerectangles.svg	stimuli_distractor_trianglediamonds.svg	17	yes	57	0	289	0	0			0	0			1				0	
6.6.1	mac	2023-06-28	15:09:21	15:17:47	504279	5caba2588d77140014bac508	4	1	main_slash	11	main_slash	21	stimuli_distractor_trianglediamonds.svg	stimuli_target_rectangletriangles.svg	9	yes	53	1	920	0	0			0	0			1				0	
6.6.1	mac	2023-06-28	15:09:21	15:17:47	504279	5caba2588d77140014bac508	4	1	main_slash	11	advance_on_keypress_SLASH	22	stimuli_distractor_trianglediamonds.svg	stimuli_target_rectangletriangles.svg	9	yes	57	0	264	0	0			0	0			1				0	
6.6.1	mac	2023-06-28	15:09:21	15:17:49	505889	5caba2588d77140014bac508	4	1	main_slash	11	main_slash	23	stimuli_distractor_trianglediamonds.svg	stimuli_target_squarediamonds.svg	12	yes	53	1	714	0	0			0	0			1				0	
6.6.1	mac	2023-06-28	15:09:21	15:17:49	505889	5caba2588d77140014bac508	4	1	main_slash	11	advance_on_keypress_SLASH	24	stimuli_distractor_trianglediamonds.svg	stimuli_target_squarediamonds.svg	12	yes	57	0	241	0	0			0	0			1				0	
6.6.1	mac	2023-06-28	15:09:21	15:17:52	508755	5caba2588d77140014bac508	4	1	main_slash	11	main_slash	25	stimuli_distractor_trianglediamonds.svg	stimuli_distractor_trianglediamonds.svg	33	no	0	1	2000	0	0			0	0			1				0	
6.6.1	mac	2023-06-28	15:09:21	15:17:52	508755	5caba2588d77140014bac508	4	1	main_slash	11	advance_on_keypress_SLASH	26	stimuli_distractor_trianglediamonds.svg	stimuli_distractor_trianglediamonds.svg	33	no	57	0	475	0	0			0	0			1				0	
6.6.1	mac	2023-06-28	15:09:21	15:17:54	510622	5caba2588d77140014bac508	4	1	main_slash	11	main_slash	27	stimuli_target_trianglesquares.svg	stimuli_distractor_trianglediamonds.svg	18	yes	53	1	764	0	0			0	0			1				0	
6.6.1	mac	2023-06-28	15:09:21	15:17:54	510622	5caba2588d77140014bac508	4	1	main_slash	11	advance_on_keypress_SLASH	28	stimuli_target_trianglesquares.svg	stimuli_distractor_trianglediamonds.svg	18	yes	57	0	262	0	0			0	0			1				0	
6.6.1	mac	2023-06-28	15:09:21	15:17:56	512423	5caba2588d77140014bac508	4	1	main_slash	11	main_slash	29	stimuli_target_diamondsquares.svg	stimuli_distractor_trianglediamonds.svg	20	yes	53	1	898	0	0			0	0			1				0	
6.6.1	mac	2023-06-28	15:09:21	15:17:56	512423	5caba2588d77140014bac508	4	1	main_slash	11	advance_on_keypress_SLASH	30	stimuli_target_diamondsquares.svg	stimuli_distractor_trianglediamonds.svg	20	yes	57	0	289	0	0			0	0			1				0	
6.6.1	mac	2023-06-28	15:09:21	15:17:57	514167	5caba2588d77140014bac508	4	1	main_slash	11	main_slash	31	stimuli_target_squaretriangles.svg	stimuli_distractor_diamondtriangles.svg	7	yes	53	1	826	0	0			0	0			1				0	
6.6.1	mac	2023-06-28	15:09:21	15:17:57	514167	5caba2588d77140014bac508	4	1	main_slash	11	advance_on_keypress_SLASH	32	stimuli_target_squaretriangles.svg	stimuli_distractor_diamondtriangles.svg	7	yes	57	0	251	0	0			0	0			1				0	
6.6.1	mac	2023-06-28	15:09:21	15:17:59	515728	5caba2588d77140014bac508	4	1	main_slash	11	main_slash	33	stimuli_distractor_diamondtriangles.svg	stimuli_target_trianglerectangles.svg	29	yes	53	1	687	0	0			0	0			1				0	
6.6.1	mac	2023-06-28	15:09:21	15:17:59	515728	5caba2588d77140014bac508	4	1	main_slash	11	advance_on_keypress_SLASH	34	stimuli_distractor_diamondtriangles.svg	stimuli_target_trianglerectangles.svg	29	yes	57	0	326	0	0			0	0			1				0	
6.6.1	mac	2023-06-28	15:09:21	15:18:01	517387	5caba2588d77140014bac508	4	1	main_slash	11	main_slash	35	stimuli_target_rectangletriangles.svg	stimuli_distractor_diamondtriangles.svg	5	yes	53	1	713	0	0			0	0			1				0	
6.6.1	mac	2023-06-28	15:09:21	15:18:01	517387	5caba2588d77140014bac508	4	1	main_slash	11	advance_on_keypress_SLASH	36	stimuli_target_rectangletriangles.svg	stimuli_distractor_diamondtriangles.svg	5	yes	57	0	310	0	0			0	0			1				0	
6.6.1	mac	2023-06-28	15:09:21	15:18:02	519083	5caba2588d77140014bac508	4	1	main_slash	11	main_slash	37	stimuli_distractor_diamondtriangles.svg	stimuli_target_squaretriangles.svg	15	yes	53	1	758	0	0			0	0			1				0	
6.6.1	mac	2023-06-28	15:09:21	15:18:02	519083	5caba2588d77140014bac508	4	1	main_slash	11	advance_on_keypress_SLASH	38	stimuli_distractor_diamondtriangles.svg	stimuli_target_squaretriangles.svg	15	yes	57	0	287	0	0			0	0			1				0	
6.6.1	mac	2023-06-28	15:09:21	15:18:05	521988	5caba2588d77140014bac508	4	1	main_slash	11	main_slash	39	stimuli_distractor_diamondtriangles.svg	stimuli_target_rectangletriangles.svg	13	yes	0	0	2000	0	0			0	0			1				0	
6.6.1	mac	2023-06-28	15:09:21	15:18:05	521988	5caba2588d77140014bac508	4	1	main_slash	11	advance_on_keypress_SLASH	40	stimuli_distractor_diamondtriangles.svg	stimuli_target_rectangletriangles.svg	13	yes	57	0	646	0	0			0	0			1				0	
6.6.1	mac	2023-06-28	15:09:21	15:18:07	523943	5caba2588d77140014bac508	4	1	main_slash	11	main_slash	41	stimuli_distractor_diamondtriangles.svg	stimuli_target_diamondrectangles.svg	31	yes	53	1	669	0	0			0	0			1				0	
6.6.1	mac	2023-06-28	15:09:21	15:18:07	523943	5caba2588d77140014bac508	4	1	main_slash	11	advance_on_keypress_SLASH	42	stimuli_distractor_diamondtriangles.svg	stimuli_target_diamondrectangles.svg	31	yes	57	0	356	0	0			0	0			1				0	
6.6.1	mac	2023-06-28	15:09:21	15:18:09	525547	5caba2588d77140014bac508	4	1	main_slash	11	main_slash	43	stimuli_target_rectanglediamonds.svg	stimuli_distractor_diamondtriangles.svg	6	yes	53	1	623	0	0			0	0			1				0	
6.6.1	mac	2023-06-28	15:09:21	15:18:09	525547	5caba2588d77140014bac508	4	1	main_slash	11	advance_on_keypress_SLASH	44	stimuli_target_rectanglediamonds.svg	stimuli_distractor_diamondtriangles.svg	6	yes	57	0	285	0	0			0	0			1				0	
6.6.1	mac	2023-06-28	15:09:21	15:18:10	527068	5caba2588d77140014bac508	4	1	main_slash	11	main_slash	45	stimuli_distractor_diamondtriangles.svg	stimuli_target_squarediamonds.svg	16	yes	53	1	610	0	0			0	0			1				0	
6.6.1	mac	2023-06-28	15:09:21	15:18:10	527068	5caba2588d77140014bac508	4	1	main_slash	11	advance_on_keypress_SLASH	46	stimuli_distractor_diamondtriangles.svg	stimuli_target_squarediamonds.svg	16	yes	57	0	267	0	0			0	0			1				0	
6.6.1	mac	2023-06-28	15:09:21	15:18:12	528352	5caba2588d77140014bac508	4	1	main_slash	11	main_slash	47	stimuli_distractor_diamondtriangles.svg	stimuli_target_rectanglediamonds.svg	14	yes	53	1	396	0	0			0	0			1				0	
6.6.1	mac	2023-06-28	15:09:21	15:18:12	528352	5caba2588d77140014bac508	4	1	main_slash	11	advance_on_keypress_SLASH	48	stimuli_distractor_diamondtriangles.svg	stimuli_target_rectanglediamonds.svg	14	yes	57	0	302	0	0			0	0			1				0	
6.6.1	mac	2023-06-28	15:09:21	15:18:13	529986	5caba2588d77140014bac508	4	1	main_slash	11	main_slash	49	stimuli_distractor_diamondtriangles.svg	stimuli_target_diamondsquares.svg	32	yes	53	1	696	0	0			0	0			1				0	
6.6.1	mac	2023-06-28	15:09:21	15:18:13	529986	5caba2588d77140014bac508	4	1	main_slash	11	advance_on_keypress_SLASH	50	stimuli_distractor_diamondtriangles.svg	stimuli_target_diamondsquares.svg	32	yes	57	0	251	0	0			0	0			1				0	
6.6.1	mac	2023-06-28	15:09:21	15:18:15	531390	5caba2588d77140014bac508	4	1	main_slash	11	main_slash	51	stimuli_distractor_trianglediamonds.svg	stimuli_target_rectanglediamonds.svg	10	yes	53	1	518	0	0			0	0			1				0	
6.6.1	mac	2023-06-28	15:09:21	15:18:15	531390	5caba2588d77140014bac508	4	1	main_slash	11	advance_on_keypress_SLASH	52	stimuli_distractor_trianglediamonds.svg	stimuli_target_rectanglediamonds.svg	10	yes	57	0	395	0	0			0	0			1				0	
6.6.1	mac	2023-06-28	15:09:21	15:18:16	533076	5caba2588d77140014bac508	4	1	main_slash	11	main_slash	53	stimuli_distractor_trianglediamonds.svg	stimuli_target_squaretriangles.svg	11	yes	53	1	652	0	0			0	0			1				0	
6.6.1	mac	2023-06-28	15:09:21	15:18:16	533076	5caba2588d77140014bac508	4	1	main_slash	11	advance_on_keypress_SLASH	54	stimuli_distractor_trianglediamonds.svg	stimuli_target_squaretriangles.svg	11	yes	57	0	418	0	0			0	0			1				0	
6.6.1	mac	2023-06-28	15:09:21	15:18:18	534817	5caba2588d77140014bac508	4	1	main_slash	11	main_slash	55	stimuli_distractor_trianglediamonds.svg	stimuli_target_diamondsquares.svg	28	yes	53	1	693	0	0			0	0			1				0	
6.6.1	mac	2023-06-28	15:09:21	15:18:18	534817	5caba2588d77140014bac508	4	1	main_slash	11	advance_on_keypress_SLASH	56	stimuli_distractor_trianglediamonds.svg	stimuli_target_diamondsquares.svg	28	yes	57	0	323	0	0			0	0			1				0	
6.6.1	mac	2023-06-28	15:09:21	15:18:20	537094	5caba2588d77140014bac508	4	1	main_slash	11	main_slash	57	stimuli_distractor_trianglediamonds.svg	stimuli_target_trianglerectangles.svg	25	yes	53	1	1336	0	0			0	0			1				0	
6.6.1	mac	2023-06-28	15:09:21	15:18:20	537094	5caba2588d77140014bac508	4	1	main_slash	11	advance_on_keypress_SLASH	58	stimuli_distractor_trianglediamonds.svg	stimuli_target_trianglerectangles.svg	25	yes	57	0	872	0	0			0	0			1				0	
6.6.1	mac	2023-06-28	15:09:21	15:18:23	539344	5caba2588d77140014bac508	4	1	main_slash	11	main_slash	59	stimuli_distractor_trianglediamonds.svg	stimuli_target_trianglesquares.svg	26	yes	53	1	752	0	0			0	0			1				0	
6.6.1	mac	2023-06-28	15:09:21	15:18:23	539344	5caba2588d77140014bac508	4	1	main_slash	11	advance_on_keypress_SLASH	60	stimuli_distractor_trianglediamonds.svg	stimuli_target_trianglesquares.svg	26	yes	57	0	633	0	0			0	0			1				0	
6.6.1	mac	2023-06-28	15:09:21	15:18:25	541435	5caba2588d77140014bac508	4	1	main_slash	11	main_slash	61	stimuli_target_diamondrectangles.svg	stimuli_distractor_trianglediamonds.svg	19	yes	53	1	827	0	0			0	0			1				0	
6.6.1	mac	2023-06-28	15:09:21	15:18:25	541435	5caba2588d77140014bac508	4	1	main_slash	11	advance_on_keypress_SLASH	62	stimuli_target_diamondrectangles.svg	stimuli_distractor_trianglediamonds.svg	19	yes	57	0	381	0	0			0	0			1				0	
6.6.1	mac	2023-06-28	15:09:21	15:18:27	543378	5caba2588d77140014bac508	4	1	main_slash	11	main_slash	63	stimuli_distractor_diamondtriangles.svg	stimuli_target_trianglesquares.svg	30	yes	53	1	919	0	0			0	0			1				0	
6.6.1	mac	2023-06-28	15:09:21	15:18:27	543378	5caba2588d77140014bac508	4	1	main_slash	11	advance_on_keypress_SLASH	64	stimuli_distractor_diamondtriangles.svg	stimuli_target_trianglesquares.svg	30	yes	57	0	434	0	0			0	0			1				0	
6.6.1	mac	2023-06-28	15:09:21	15:18:28	545216	5caba2588d77140014bac508	4	1	main_slash	11	main_slash	65	stimuli_target_diamondsquares.svg	stimuli_distractor_diamondtriangles.svg	24	yes	53	1	775	0	0			0	0			1				0	
6.6.1	mac	2023-06-28	15:09:21	15:18:28	545216	5caba2588d77140014bac508	4	1	main_slash	11	advance_on_keypress_SLASH	66	stimuli_target_diamondsquares.svg	stimuli_distractor_diamondtriangles.svg	24	yes	57	0	387	0	0			0	0			1				0	
6.6.1	mac	2023-06-28	15:09:21	15:18:30	546975	5caba2588d77140014bac508	4	1	main_slash	11	main_slash	67	stimuli_target_squaretriangles.svg	stimuli_distractor_trianglediamonds.svg	3	yes	53	1	751	0	0			0	0			1				0	
6.6.1	mac	2023-06-28	15:09:21	15:18:30	546975	5caba2588d77140014bac508	4	1	main_slash	11	advance_on_keypress_SLASH	68	stimuli_target_squaretriangles.svg	stimuli_distractor_trianglediamonds.svg	3	yes	57	0	352	0	0			0	0			1				0	
6.6.1	mac	2023-06-28	15:09:21	15:18:33	549956	5caba2588d77140014bac508	4	1	main_slash	11	main_slash	69	stimuli_distractor_diamondtriangles.svg	stimuli_distractor_diamondtriangles.svg	40	no	0	1	2000	0	0			0	0			1				0	
6.6.1	mac	2023-06-28	15:09:21	15:18:33	549956	5caba2588d77140014bac508	4	1	main_slash	11	advance_on_keypress_SLASH	70	stimuli_distractor_diamondtriangles.svg	stimuli_distractor_diamondtriangles.svg	40	no	57	0	949	0	0			0	0			1				0	
6.6.1	mac	2023-06-28	15:09:21	15:18:36	552390	5caba2588d77140014bac508	4	1	main_slash	11	main_slash	71	stimuli_target_squarediamonds.svg	stimuli_distractor_diamondtriangles.svg	8	yes	53	1	851	0	0			0	0			1				0	
6.6.1	mac	2023-06-28	15:09:21	15:18:36	552390	5caba2588d77140014bac508	4	1	main_slash	11	advance_on_keypress_SLASH	72	stimuli_target_squarediamonds.svg	stimuli_distractor_diamondtriangles.svg	8	yes	57	0	600	0	0			0	0			1				0	
6.6.1	mac	2023-06-28	15:09:21	15:18:39	555621	5caba2588d77140014bac508	4	1	main_slash	11	main_slash	73	stimuli_distractor_trianglediamonds.svg	stimuli_distractor_diamondtriangles.svg	36	no	0	1	2000	0	0			0	0			1				0	
6.6.1	mac	2023-06-28	15:09:21	15:18:39	555621	5caba2588d77140014bac508	4	1	main_slash	11	advance_on_keypress_SLASH	74	stimuli_distractor_trianglediamonds.svg	stimuli_distractor_diamondtriangles.svg	36	no	57	0	513	0	0			0	0			1				0	
6.6.1	mac	2023-06-28	15:09:21	15:18:41	557535	5caba2588d77140014bac508	4	1	main_slash	11	main_slash	75	stimuli_target_rectanglediamonds.svg	stimuli_distractor_trianglediamonds.svg	2	yes	53	1	761	0	0			0	0			1				0	
6.6.1	mac	2023-06-28	15:09:21	15:18:41	557535	5caba2588d77140014bac508	4	1	main_slash	11	advance_on_keypress_SLASH	76	stimuli_target_rectanglediamonds.svg	stimuli_distractor_trianglediamonds.svg	2	yes	57	0	309	0	0			0	0			1				0	
6.6.1	mac	2023-06-28	15:09:21	15:18:42	559210	5caba2588d77140014bac508	4	1	main_slash	11	main_slash	77	stimuli_distractor_trianglediamonds.svg	stimuli_target_diamondrectangles.svg	27	yes	53	1	736	0	0			0	0			1				0	
6.6.1	mac	2023-06-28	15:09:21	15:18:42	559210	5caba2588d77140014bac508	4	1	main_slash	11	advance_on_keypress_SLASH	78	stimuli_distractor_trianglediamonds.svg	stimuli_target_diamondrectangles.svg	27	yes	57	0	322	0	0			0	0			1				0	
6.6.1	mac	2023-06-28	15:09:21	15:18:44	560999	5caba2588d77140014bac508	4	1	main_slash	11	main_slash	79	stimuli_target_trianglesquares.svg	stimuli_distractor_diamondtriangles.svg	22	yes	53	1	840	0	0			0	0			1				0	
6.6.1	mac	2023-06-28	15:09:21	15:18:44	560999	5caba2588d77140014bac508	4	1	main_slash	11	advance_on_keypress_SLASH	80	stimuli_target_trianglesquares.svg	stimuli_distractor_diamondtriangles.svg	22	yes	57	0	305	0	0			0	0			1				0	
6.6.1	mac	2023-06-28	15:09:21	15:18:46	562767	5caba2588d77140014bac508	4	1	main_slash	11	main_slash	81	stimuli_target_trianglesquares.svg	stimuli_distractor_diamondtriangles.svg	22	yes	53	1	843	0	0			0	0			1				0	
6.6.1	mac	2023-06-28	15:09:21	15:18:46	562767	5caba2588d77140014bac508	4	1	main_slash	11	advance_on_keypress_SLASH	82	stimuli_target_trianglesquares.svg	stimuli_distractor_diamondtriangles.svg	22	yes	57	0	379	0	0			0	0			1				0	
6.6.1	mac	2023-06-28	15:09:21	15:18:48	564713	5caba2588d77140014bac508	4	1	main_slash	11	main_slash	83	stimuli_target_diamondrectangles.svg	stimuli_distractor_trianglediamonds.svg	19	yes	53	1	955	0	0			0	0			1				0	
6.6.1	mac	2023-06-28	15:09:21	15:18:48	564713	5caba2588d77140014bac508	4	1	main_slash	11	advance_on_keypress_SLASH	84	stimuli_target_diamondrectangles.svg	stimuli_distractor_trianglediamonds.svg	19	yes	57	0	333	0	0			0	0			1				0	
6.6.1	mac	2023-06-28	15:09:21	15:18:50	566525	5caba2588d77140014bac508	4	1	main_slash	11	main_slash	85	stimuli_distractor_trianglediamonds.svg	stimuli_target_squarediamonds.svg	12	yes	53	1	850	0	0			0	0			1				0	
6.6.1	mac	2023-06-28	15:09:21	15:18:50	566525	5caba2588d77140014bac508	4	1	main_slash	11	advance_on_keypress_SLASH	86	stimuli_distractor_trianglediamonds.svg	stimuli_target_squarediamonds.svg	12	yes	57	0	416	0	0			0	0			1				0	
6.6.1	mac	2023-06-28	15:09:21	15:18:52	568445	5caba2588d77140014bac508	4	1	main_slash	11	main_slash	87	stimuli_target_squarediamonds.svg	stimuli_distractor_trianglediamonds.svg	4	yes	53	1	871	0	0			0	0			1				0	
6.6.1	mac	2023-06-28	15:09:21	15:18:52	568445	5caba2588d77140014bac508	4	1	main_slash	11	advance_on_keypress_SLASH	88	stimuli_target_squarediamonds.svg	stimuli_distractor_trianglediamonds.svg	4	yes	57	0	374	0	0			0	0			1				0	
6.6.1	mac	2023-06-28	15:09:21	15:18:53	570246	5caba2588d77140014bac508	4	1	main_slash	11	main_slash	89	stimuli_target_rectanglediamonds.svg	stimuli_distractor_trianglediamonds.svg	2	yes	53	1	805	0	0			0	0			1				0	
6.6.1	mac	2023-06-28	15:09:21	15:18:53	570246	5caba2588d77140014bac508	4	1	main_slash	11	advance_on_keypress_SLASH	90	stimuli_target_rectanglediamonds.svg	stimuli_distractor_trianglediamonds.svg	2	yes	57	0	563	0	0			0	0			1				0	
6.6.1	mac	2023-06-28	15:09:21	15:18:55	572234	5caba2588d77140014bac508	4	1	main_slash	11	main_slash	91	stimuli_target_squarediamonds.svg	stimuli_distractor_diamondtriangles.svg	8	yes	53	1	793	0	0			0	0			1				0	
6.6.1	mac	2023-06-28	15:09:21	15:18:55	572234	5caba2588d77140014bac508	4	1	main_slash	11	advance_on_keypress_SLASH	92	stimuli_target_squarediamonds.svg	stimuli_distractor_diamondtriangles.svg	8	yes	57	0	304	0	0			0	0			1				0	
6.6.1	mac	2023-06-28	15:09:21	15:18:57	573924	5caba2588d77140014bac508	4	1	main_slash	11	main_slash	93	stimuli_distractor_diamondtriangles.svg	stimuli_target_diamondrectangles.svg	31	yes	53	1	750	0	0			0	0			1				0	
6.6.1	mac	2023-06-28	15:09:21	15:18:57	573924	5caba2588d77140014bac508	4	1	main_slash	11	advance_on_keypress_SLASH	94	stimuli_distractor_diamondtriangles.svg	stimuli_target_diamondrectangles.svg	31	yes	57	0	277	0	0			0	0			1				0	
6.6.1	mac	2023-06-28	15:09:21	15:18:59	575661	5caba2588d77140014bac508	4	1	main_slash	11	main_slash	95	stimuli_distractor_trianglediamonds.svg	stimuli_target_diamondrectangles.svg	27	yes	53	1	837	0	0			0	0			1				0	
6.6.1	mac	2023-06-28	15:09:21	15:18:59	575661	5caba2588d77140014bac508	4	1	main_slash	11	advance_on_keypress_SLASH	96	stimuli_distractor_trianglediamonds.svg	stimuli_target_diamondrectangles.svg	27	yes	57	0	253	0	0			0	0			1				0	
6.6.1	mac	2023-06-28	15:09:21	15:19:02	578539	5caba2588d77140014bac508	4	1	main_slash	11	main_slash	97	stimuli_distractor_trianglediamonds.svg	stimuli_distractor_trianglediamonds.svg	33	no	0	1	2000	0	0			0	0			1				0	
6.6.1	mac	2023-06-28	15:09:21	15:19:02	578539	5caba2588d77140014bac508	4	1	main_slash	11	advance_on_keypress_SLASH	98	stimuli_distractor_trianglediamonds.svg	stimuli_distractor_trianglediamonds.svg	33	no	57	0	640	0	0			0	0			1				0	
6.6.1	mac	2023-06-28	15:09:21	15:19:04	580533	5caba2588d77140014bac508	4	1	main_slash	11	main_slash	99	stimuli_target_rectangletriangles.svg	stimuli_distractor_trianglediamonds.svg	1	yes	53	1	725	0	0			0	0			1				0	
6.6.1	mac	2023-06-28	15:09:21	15:19:04	580533	5caba2588d77140014bac508	4	1	main_slash	11	advance_on_keypress_SLASH	100	stimuli_target_rectangletriangles.svg	stimuli_distractor_trianglediamonds.svg	1	yes	57	0	513	0	0			0	0			1				0	
6.6.1	mac	2023-06-28	15:09:21	15:19:05	582318	5caba2588d77140014bac508	4	1	main_slash	11	main_slash	101	stimuli_target_squaretriangles.svg	stimuli_distractor_trianglediamonds.svg	3	yes	53	1	645	0	0			0	0			1				0	
6.6.1	mac	2023-06-28	15:09:21	15:19:05	582318	5caba2588d77140014bac508	4	1	main_slash	11	advance_on_keypress_SLASH	102	stimuli_target_squaretriangles.svg	stimuli_distractor_trianglediamonds.svg	3	yes	57	0	382	0	0			0	0			1				0	
6.6.1	mac	2023-06-28	15:09:21	15:19:08	585321	5caba2588d77140014bac508	4	1	main_slash	11	main_slash	103	stimuli_distractor_diamondtriangles.svg	stimuli_distractor_diamondtriangles.svg	39	no	0	1	2000	0	0			0	0			1				0	
6.6.1	mac	2023-06-28	15:09:21	15:19:08	585321	5caba2588d77140014bac508	4	1	main_slash	11	advance_on_keypress_SLASH	104	stimuli_distractor_diamondtriangles.svg	stimuli_distractor_diamondtriangles.svg	39	no	57	0	395	0	0			0	0			1				0	
6.6.1	mac	2023-06-28	15:09:21	15:19:10	586974	5caba2588d77140014bac508	4	1	main_slash	11	main_slash	105	stimuli_distractor_trianglediamonds.svg	stimuli_target_diamondsquares.svg	28	yes	53	1	618	0	0			0	0			1				0	
6.6.1	mac	2023-06-28	15:09:21	15:19:10	586974	5caba2588d77140014bac508	4	1	main_slash	11	advance_on_keypress_SLASH	106	stimuli_distractor_trianglediamonds.svg	stimuli_target_diamondsquares.svg	28	yes	57	0	387	0	0			0	0			1				0	
6.6.1	mac	2023-06-28	15:09:21	15:19:12	588656	5caba2588d77140014bac508	4	1	main_slash	11	main_slash	107	stimuli_target_squaretriangles.svg	stimuli_distractor_diamondtriangles.svg	7	yes	53	1	665	0	0			0	0			1				0	
6.6.1	mac	2023-06-28	15:09:21	15:19:12	588656	5caba2588d77140014bac508	4	1	main_slash	11	advance_on_keypress_SLASH	108	stimuli_target_squaretriangles.svg	stimuli_distractor_diamondtriangles.svg	7	yes	57	0	292	0	0			0	0			1				0	
6.6.1	mac	2023-06-28	15:09:21	15:19:14	590380	5caba2588d77140014bac508	4	1	main_slash	11	main_slash	109	stimuli_distractor_trianglediamonds.svg	stimuli_target_trianglerectangles.svg	25	yes	53	1	806	0	0			0	0			1				0	
6.6.1	mac	2023-06-28	15:09:21	15:19:14	590380	5caba2588d77140014bac508	4	1	main_slash	11	advance_on_keypress_SLASH	110	stimuli_distractor_trianglediamonds.svg	stimuli_target_trianglerectangles.svg	25	yes	57	0	275	0	0			0	0			1				0	
6.6.1	mac	2023-06-28	15:09:21	15:19:15	592211	5caba2588d77140014bac508	4	1	main_slash	11	main_slash	111	stimuli_distractor_diamondtriangles.svg	stimuli_target_squaretriangles.svg	15	yes	53	1	938	0	0			0	0			1				0	
6.6.1	mac	2023-06-28	15:09:21	15:19:15	592211	5caba2588d77140014bac508	4	1	main_slash	11	advance_on_keypress_SLASH	112	stimuli_distractor_diamondtriangles.svg	stimuli_target_squaretriangles.svg	15	yes	57	0	242	0	0			0	0			1				0	
6.6.1	mac	2023-06-28	15:09:21	15:19:17	594001	5caba2588d77140014bac508	4	1	main_slash	11	main_slash	113	stimuli_distractor_diamondtriangles.svg	stimuli_target_diamondsquares.svg	32	yes	53	1	927	0	0			0	0			1				0	
6.6.1	mac	2023-06-28	15:09:21	15:19:17	594001	5caba2588d77140014bac508	4	1	main_slash	11	advance_on_keypress_SLASH	114	stimuli_distractor_diamondtriangles.svg	stimuli_target_diamondsquares.svg	32	yes	57	0	246	0	0			0	0			1				0	
6.6.1	mac	2023-06-28	15:09:21	15:19:19	595569	5caba2588d77140014bac508	4	1	main_slash	11	main_slash	115	stimuli_distractor_diamondtriangles.svg	stimuli_target_squarediamonds.svg	16	yes	53	1	694	0	0			0	0			1				0	
6.6.1	mac	2023-06-28	15:09:21	15:19:19	595569	5caba2588d77140014bac508	4	1	main_slash	11	advance_on_keypress_SLASH	116	stimuli_distractor_diamondtriangles.svg	stimuli_target_squarediamonds.svg	16	yes	57	0	298	0	0			0	0			1				0	
6.6.1	mac	2023-06-28	15:09:21	15:19:20	597215	5caba2588d77140014bac508	4	1	main_slash	11	main_slash	117	stimuli_distractor_trianglediamonds.svg	stimuli_target_trianglesquares.svg	26	yes	53	1	708	0	0			0	0			1				0	
6.6.1	mac	2023-06-28	15:09:21	15:19:20	597215	5caba2588d77140014bac508	4	1	main_slash	11	advance_on_keypress_SLASH	118	stimuli_distractor_trianglediamonds.svg	stimuli_target_trianglesquares.svg	26	yes	57	0	277	0	0			0	0			1				0	
6.6.1	mac	2023-06-28	15:09:21	15:19:23	600106	5caba2588d77140014bac508	4	1	main_slash	11	main_slash	119	stimuli_distractor_trianglediamonds.svg	stimuli_distractor_diamondtriangles.svg	36	no	0	1	2000	0	0			0	0			1				0	
6.6.1	mac	2023-06-28	15:09:21	15:19:23	600106	5caba2588d77140014bac508	4	1	main_slash	11	advance_on_keypress_SLASH	120	stimuli_distractor_trianglediamonds.svg	stimuli_distractor_diamondtriangles.svg	36	no	57	0	907	0	0			0	0			1				0	
6.6.1	mac	2023-06-28	15:09:21	15:19:27	603638	5caba2588d77140014bac508	4	1	main_slash	11	main_slash	121	stimuli_distractor_diamondtriangles.svg	stimuli_distractor_trianglediamonds.svg	38	no	0	1	2000	0	0			0	0			1				0	
6.6.1	mac	2023-06-28	15:09:21	15:19:27	603638	5caba2588d77140014bac508	4	1	main_slash	11	advance_on_keypress_SLASH	122	stimuli_distractor_diamondtriangles.svg	stimuli_distractor_trianglediamonds.svg	38	no	57	0	402	0	0			0	0			1				0	
6.6.1	mac	2023-06-28	15:09:21	15:19:29	605538	5caba2588d77140014bac508	4	1	main_slash	11	main_slash	123	stimuli_distractor_diamondtriangles.svg	stimuli_target_trianglesquares.svg	30	yes	53	1	864	0	0			0	0			1				0	
6.6.1	mac	2023-06-28	15:09:21	15:19:29	605538	5caba2588d77140014bac508	4	1	main_slash	11	advance_on_keypress_SLASH	124	stimuli_distractor_diamondtriangles.svg	stimuli_target_trianglesquares.svg	30	yes	57	0	442	0	0			0	0			1				0	
6.6.1	mac	2023-06-28	15:09:21	15:19:31	607382	5caba2588d77140014bac508	4	1	main_slash	11	main_slash	125	stimuli_distractor_diamondtriangles.svg	stimuli_target_trianglerectangles.svg	29	yes	53	1	775	0	0			0	0			1				0	
6.6.1	mac	2023-06-28	15:09:21	15:19:31	607382	5caba2588d77140014bac508	4	1	main_slash	11	advance_on_keypress_SLASH	126	stimuli_distractor_diamondtriangles.svg	stimuli_target_trianglerectangles.svg	29	yes	57	0	269	0	0			0	0			1				0	
6.6.1	mac	2023-06-28	15:09:21	15:19:32	609016	5caba2588d77140014bac508	4	1	main_slash	11	main_slash	127	stimuli_distractor_diamondtriangles.svg	stimuli_target_rectanglediamonds.svg	14	yes	53	1	742	0	0			0	0			1				0	
6.6.1	mac	2023-06-28	15:09:21	15:19:32	609016	5caba2588d77140014bac508	4	1	main_slash	11	advance_on_keypress_SLASH	128	stimuli_distractor_diamondtriangles.svg	stimuli_target_rectanglediamonds.svg	14	yes	57	0	256	0	0			0	0			1				0	
6.6.1	mac	2023-06-28	15:09:21	15:19:34	610695	5caba2588d77140014bac508	4	1	main_slash	11	main_slash	129	stimuli_target_trianglesquares.svg	stimuli_distractor_trianglediamonds.svg	18	yes	53	1	804	0	0			0	0			1				0	
6.6.1	mac	2023-06-28	15:09:21	15:19:34	610695	5caba2588d77140014bac508	4	1	main_slash	11	advance_on_keypress_SLASH	130	stimuli_target_trianglesquares.svg	stimuli_distractor_trianglediamonds.svg	18	yes	57	0	272	0	0			0	0			1				0	
6.6.1	mac	2023-06-28	15:09:21	15:19:37	613587	5caba2588d77140014bac508	4	1	main_slash	11	main_slash	131	stimuli_target_trianglerectangles.svg	stimuli_distractor_trianglediamonds.svg	17	yes	0	0	2000	0	0			0	0			1				0	
6.6.1	mac	2023-06-28	15:09:21	15:19:37	613587	5caba2588d77140014bac508	4	1	main_slash	11	advance_on_keypress_SLASH	132	stimuli_target_trianglerectangles.svg	stimuli_distractor_trianglediamonds.svg	17	yes	57	0	554	0	0			0	0			1				0	
6.6.1	mac	2023-06-28	15:09:21	15:19:39	615444	5caba2588d77140014bac508	4	1	main_slash	11	main_slash	133	stimuli_target_rectanglediamonds.svg	stimuli_distractor_diamondtriangles.svg	6	yes	53	1	670	0	0			0	0			1				0	
6.6.1	mac	2023-06-28	15:09:21	15:19:39	615444	5caba2588d77140014bac508	4	1	main_slash	11	advance_on_keypress_SLASH	134	stimuli_target_rectanglediamonds.svg	stimuli_distractor_diamondtriangles.svg	6	yes	57	0	264	0	0			0	0			1				0	
6.6.1	mac	2023-06-28	15:09:21	15:19:41	617363	5caba2588d77140014bac508	4	1	main_slash	11	main_slash	135	stimuli_distractor_trianglediamonds.svg	stimuli_target_squaretriangles.svg	11	yes	53	1	1022	0	0			0	0			1				0	
6.6.1	mac	2023-06-28	15:09:21	15:19:41	617363	5caba2588d77140014bac508	4	1	main_slash	11	advance_on_keypress_SLASH	136	stimuli_distractor_trianglediamonds.svg	stimuli_target_squaretriangles.svg	11	yes	57	0	208	0	0			0	0			1				0	
6.6.1	mac	2023-06-28	15:09:21	15:19:43	620189	5caba2588d77140014bac508	4	1	main_slash	11	main_slash	137	stimuli_distractor_diamondtriangles.svg	stimuli_distractor_trianglediamonds.svg	37	no	0	1	2000	0	0			0	0			1				0	
6.6.1	mac	2023-06-28	15:09:21	15:19:43	620189	5caba2588d77140014bac508	4	1	main_slash	11	advance_on_keypress_SLASH	138	stimuli_distractor_diamondtriangles.svg	stimuli_distractor_trianglediamonds.svg	37	no	57	0	444	0	0			0	0			1				0	
6.6.1	mac	2023-06-28	15:09:21	15:19:45	621943	5caba2588d77140014bac508	4	1	main_slash	11	main_slash	139	stimuli_target_diamondsquares.svg	stimuli_distractor_diamondtriangles.svg	24	yes	53	1	685	0	0			0	0			1				0	
6.6.1	mac	2023-06-28	15:09:21	15:19:45	621943	5caba2588d77140014bac508	4	1	main_slash	11	advance_on_keypress_SLASH	140	stimuli_target_diamondsquares.svg	stimuli_distractor_diamondtriangles.svg	24	yes	57	0	265	0	0			0	0			1				0	
6.6.1	mac	2023-06-28	15:09:21	15:19:47	623424	5caba2588d77140014bac508	4	1	main_slash	11	main_slash	141	stimuli_target_diamondsquares.svg	stimuli_distractor_trianglediamonds.svg	20	yes	53	1	583	0	0			0	0			1				0	
6.6.1	mac	2023-06-28	15:09:21	15:19:47	623424	5caba2588d77140014bac508	4	1	main_slash	11	advance_on_keypress_SLASH	142	stimuli_target_diamondsquares.svg	stimuli_distractor_trianglediamonds.svg	20	yes	57	0	347	0	0			0	0			1				0	
6.6.1	mac	2023-06-28	15:09:21	15:19:50	626405	5caba2588d77140014bac508	4	1	main_slash	11	main_slash	143	stimuli_distractor_trianglediamonds.svg	stimuli_distractor_trianglediamonds.svg	34	no	0	1	2000	0	0			0	0			1				0	
6.6.1	mac	2023-06-28	15:09:21	15:19:50	626405	5caba2588d77140014bac508	4	1	main_slash	11	advance_on_keypress_SLASH	144	stimuli_distractor_trianglediamonds.svg	stimuli_distractor_trianglediamonds.svg	34	no	57	0	450	0	0			0	0			1				0	
6.6.1	mac	2023-06-28	15:09:21	15:19:51	628162	5caba2588d77140014bac508	4	1	main_slash	11	main_slash	145	stimuli_target_rectangletriangles.svg	stimuli_distractor_diamondtriangles.svg	5	yes	53	1	673	0	0			0	0			1				0	
6.6.1	mac	2023-06-28	15:09:21	15:19:51	628162	5caba2588d77140014bac508	4	1	main_slash	11	advance_on_keypress_SLASH	146	stimuli_target_rectangletriangles.svg	stimuli_distractor_diamondtriangles.svg	5	yes	57	0	335	0	0			0	0			1				0	
6.6.1	mac	2023-06-28	15:09:21	15:19:53	629790	5caba2588d77140014bac508	4	1	main_slash	11	main_slash	147	stimuli_distractor_diamondtriangles.svg	stimuli_target_rectangletriangles.svg	13	yes	53	1	666	0	0			0	0			1				0	
6.6.1	mac	2023-06-28	15:09:21	15:19:53	629790	5caba2588d77140014bac508	4	1	main_slash	11	advance_on_keypress_SLASH	148	stimuli_distractor_diamondtriangles.svg	stimuli_target_rectangletriangles.svg	13	yes	57	0	509	0	0			0	0			1				0	
6.6.1	mac	2023-06-28	15:09:21	15:19:55	631803	5caba2588d77140014bac508	4	1	main_slash	11	main_slash	149	stimuli_target_trianglerectangles.svg	stimuli_distractor_diamondtriangles.svg	21	yes	53	1	879	0	0			0	0			1				0	
6.6.1	mac	2023-06-28	15:09:21	15:19:55	631803	5caba2588d77140014bac508	4	1	main_slash	11	advance_on_keypress_SLASH	150	stimuli_target_trianglerectangles.svg	stimuli_distractor_diamondtriangles.svg	21	yes	57	0	301	0	0			0	0			1				0	
6.6.1	mac	2023-06-28	15:09:21	15:19:57	633513	5caba2588d77140014bac508	4	1	main_slash	11	main_slash	151	stimuli_distractor_trianglediamonds.svg	stimuli_target_rectangletriangles.svg	9	yes	53	1	774	0	0			0	0			1				0	
6.6.1	mac	2023-06-28	15:09:21	15:19:57	633513	5caba2588d77140014bac508	4	1	main_slash	11	advance_on_keypress_SLASH	152	stimuli_distractor_trianglediamonds.svg	stimuli_target_rectangletriangles.svg	9	yes	57	0	291	0	0			0	0			1				0	
6.6.1	mac	2023-06-28	15:09:21	15:19:59	635631	5caba2588d77140014bac508	4	1	main_slash	11	main_slash	153	stimuli_distractor_trianglediamonds.svg	stimuli_target_rectanglediamonds.svg	10	yes	53	1	1190	0	0			0	0			1				0	
6.6.1	mac	2023-06-28	15:09:21	15:19:59	635631	5caba2588d77140014bac508	4	1	main_slash	11	advance_on_keypress_SLASH	154	stimuli_distractor_trianglediamonds.svg	stimuli_target_rectanglediamonds.svg	10	yes	57	0	336	0	0			0	0			1				0	
6.6.1	mac	2023-06-28	15:09:21	15:20:01	637564	5caba2588d77140014bac508	4	1	main_slash	11	main_slash	155	stimuli_target_diamondrectangles.svg	stimuli_distractor_diamondtriangles.svg	23	yes	53	1	973	0	0			0	0			1				0	
6.6.1	mac	2023-06-28	15:09:21	15:20:01	637564	5caba2588d77140014bac508	4	1	main_slash	11	advance_on_keypress_SLASH	156	stimuli_target_diamondrectangles.svg	stimuli_distractor_diamondtriangles.svg	23	yes	57	0	232	0	0			0	0			1				0	
6.6.1	mac	2023-06-28	15:09:21	15:20:04	640421	5caba2588d77140014bac508	4	1	main_slash	11	main_slash	157	stimuli_distractor_trianglediamonds.svg	stimuli_distractor_diamondtriangles.svg	35	no	0	1	2000	0	0			0	0			1				0	
6.6.1	mac	2023-06-28	15:09:21	15:20:04	640421	5caba2588d77140014bac508	4	1	main_slash	11	advance_on_keypress_SLASH	158	stimuli_distractor_trianglediamonds.svg	stimuli_distractor_diamondtriangles.svg	35	no	57	0	447	0	0			0	0			1				0	
6.6.1	mac	2023-06-28	15:09:21	15:20:07	643504	5caba2588d77140014bac508	4	1	main_slash	11	main_slash	159	stimuli_distractor_diamondtriangles.svg	stimuli_distractor_diamondtriangles.svg	40	no	0	1	2000	0	0			0	0			1				0	
6.6.1	mac	2023-06-28	15:09:21	15:20:07	643504	5caba2588d77140014bac508	4	1	main_slash	11	advance_on_keypress_SLASH	160	stimuli_distractor_diamondtriangles.svg	stimuli_distractor_diamondtriangles.svg	40	no	57	0	671	0	0			0	0			1				0	
6.6.1	mac	2023-06-28	15:09:21	15:20:07	643504	5caba2588d77140014bac508	4	1	headphonecheck_calibration	14	headphonecheck_calibrationIntro	1	stimuli_distractor_diamondtriangles.svg	stimuli_distractor_diamondtriangles.svg	40	no	calibrationButton	0	1597	0	0			0	0			1				0	
6.6.1	mac	2023-06-28	15:09:21	15:20:07	643504	5caba2588d77140014bac508	4	1	headphonecheck_testphase	15	test_collectResponse	3	stimuli_distractor_diamondtriangles.svg	stimuli_distractor_diamondtriangles.svg	40	no	first	1	3356	1	4	antiphase_hc_sio.wav	1	0	0			1				0	
6.6.1	mac	2023-06-28	15:09:21	15:20:07	643504	5caba2588d77140014bac508	4	1	headphonecheck_testphase	15	test_collectResponse	6	stimuli_distractor_diamondtriangles.svg	stimuli_distractor_diamondtriangles.svg	40	no	second	1	491	2	1	antiphase_hc_iso.wav	2	0	0			1				0	
6.6.1	mac	2023-06-28	15:09:21	15:20:07	643504	5caba2588d77140014bac508	4	1	headphonecheck_testphase	15	test_collectResponse	9	stimuli_distractor_diamondtriangles.svg	stimuli_distractor_diamondtriangles.svg	40	no	third	1	483	3	2	antiphase_hc_ios.wav	3	0	0			1				0	
6.6.1	mac	2023-06-28	15:09:21	15:20:07	643504	5caba2588d77140014bac508	4	1	headphonecheck_testphase	15	test_collectResponse	12	stimuli_distractor_diamondtriangles.svg	stimuli_distractor_diamondtriangles.svg	40	no	third	1	426	4	6	antiphase_hc_ois.wav	3	0	0			1				0	
6.6.1	mac	2023-06-28	15:09:21	15:20:07	643504	5caba2588d77140014bac508	4	1	headphonecheck_testphase	15	test_collectResponse	15	stimuli_distractor_diamondtriangles.svg	stimuli_distractor_diamondtriangles.svg	40	no	second	1	281	5	5	antiphase_hc_osi.wav	2	0	0			1				0	
6.6.1	mac	2023-06-28	15:09:21	15:20:07	643504	5caba2588d77140014bac508	4	1	headphonecheck_testphase	15	test_collectResponse	18	stimuli_distractor_diamondtriangles.svg	stimuli_distractor_diamondtriangles.svg	40	no	first	1	350	6	3	antiphase_hc_soi.wav	1	0	0			1				0	
6.6.1	mac	2023-06-28	15:09:21	15:20:07	643504	5caba2588d77140014bac508	4	1	stereocheck_calibration	17	stereocheck_calibrationIntro	1	stimuli_distractor_diamondtriangles.svg	stimuli_distractor_diamondtriangles.svg	40	no	stereocheck_calibrationButton	0	3858	6	3	antiphase_hc_soi.wav	1	0	0			1				0	
6.6.1	mac	2023-06-28	15:09:21	15:20:07	643504	5caba2588d77140014bac508	4	1	stereocheck_testphase	18	stereocheck_test_collectResponse	3	stimuli_distractor_diamondtriangles.svg	stimuli_distractor_diamondtriangles.svg	40	no	stereocheck_right	1	1237	6	3	antiphase_hc_soi.wav	1	1	6	noise_calib_stim_RIGHT.wav	2	1				0	
6.6.1	mac	2023-06-28	15:09:21	15:20:07	643504	5caba2588d77140014bac508	4	1	stereocheck_testphase	18	stereocheck_test_collectResponse	6	stimuli_distractor_diamondtriangles.svg	stimuli_distractor_diamondtriangles.svg	40	no	stereocheck_right	1	874	6	3	antiphase_hc_soi.wav	1	2	5	noise_calib_stim_RIGHT.wav	2	1				0	
6.6.1	mac	2023-06-28	15:09:21	15:20:07	643504	5caba2588d77140014bac508	4	1	stereocheck_testphase	18	stereocheck_test_collectResponse	9	stimuli_distractor_diamondtriangles.svg	stimuli_distractor_diamondtriangles.svg	40	no	stereocheck_left	1	307	6	3	antiphase_hc_soi.wav	1	3	2	noise_calib_stim_LEFT.wav	1	1				0	
6.6.1	mac	2023-06-28	15:09:21	15:20:07	643504	5caba2588d77140014bac508	4	1	stereocheck_testphase	18	stereocheck_test_collectResponse	12	stimuli_distractor_diamondtriangles.svg	stimuli_distractor_diamondtriangles.svg	40	no	stereocheck_left	1	309	6	3	antiphase_hc_soi.wav	1	4	3	noise_calib_stim_LEFT.wav	1	1				0	
6.6.1	mac	2023-06-28	15:09:21	15:20:07	643504	5caba2588d77140014bac508	4	1	stereocheck_testphase	18	stereocheck_test_collectResponse	15	stimuli_distractor_diamondtriangles.svg	stimuli_distractor_diamondtriangles.svg	40	no	stereocheck_left	1	329	6	3	antiphase_hc_soi.wav	1	5	1	noise_calib_stim_LEFT.wav	1	1				0	
6.6.1	mac	2023-06-28	15:09:21	15:20:07	643504	5caba2588d77140014bac508	4	1	stereocheck_testphase	18	stereocheck_test_collectResponse	18	stimuli_distractor_diamondtriangles.svg	stimuli_distractor_diamondtriangles.svg	40	no	stereocheck_right	1	63	6	3	antiphase_hc_soi.wav	1	6	4	noise_calib_stim_RIGHT.wav	2	1				0	
6.6.1	mac	2023-06-28	15:09:21	15:20:07	643504	5caba2588d77140014bac508	4	1	DL_practice	21	DL_practice	2	stimuli_distractor_diamondtriangles.svg	stimuli_distractor_diamondtriangles.svg	40	no	ka	0	3516	6	3	antiphase_hc_soi.wav	1	6	4	noise_calib_stim_RIGHT.wav	2	18	blb_dichoticlistening_ga-ta.mp3	ga	ta	1	other
6.6.1	mac	2023-06-28	15:09:21	15:20:07	643504	5caba2588d77140014bac508	4	1	DL_practice	21	DL_practice	3	stimuli_distractor_diamondtriangles.svg	stimuli_distractor_diamondtriangles.svg	40	no	da	1	1256	6	3	antiphase_hc_soi.wav	1	6	4	noise_calib_stim_RIGHT.wav	2	8	blb_dichoticlistening_da-da.mp3	da	da	0	left
6.6.1	mac	2023-06-28	15:09:21	15:20:07	643504	5caba2588d77140014bac508	4	1	DL_practice	21	DL_practice	4	stimuli_distractor_diamondtriangles.svg	stimuli_distractor_diamondtriangles.svg	40	no	pa	1	1502	6	3	antiphase_hc_soi.wav	1	6	4	noise_calib_stim_RIGHT.wav	2	29	blb_dichoticlistening_pa-pa.mp3	pa	pa	0	left
6.6.1	mac	2023-06-28	15:09:21	15:20:07	643504	5caba2588d77140014bac508	4	1	DL_practice	21	DL_practice	5	stimuli_distractor_diamondtriangles.svg	stimuli_distractor_diamondtriangles.svg	40	no	ga	1	1012	6	3	antiphase_hc_soi.wav	1	6	4	noise_calib_stim_RIGHT.wav	2	15	blb_dichoticlistening_ga-ga.mp3	ga	ga	0	left
6.6.1	mac	2023-06-28	15:09:21	15:20:07	643504	5caba2588d77140014bac508	4	1	DL_practice	21	DL_practice	6	stimuli_distractor_diamondtriangles.svg	stimuli_distractor_diamondtriangles.svg	40	no	ka	0	1061	6	3	antiphase_hc_soi.wav	1	6	4	noise_calib_stim_RIGHT.wav	2	36	blb_dichoticlistening_ta-ta.mp3	ta	ta	0	other
6.6.1	mac	2023-06-28	15:09:21	15:20:07	643504	5caba2588d77140014bac508	4	1	DL_practice	21	DL_practice	7	stimuli_distractor_diamondtriangles.svg	stimuli_distractor_diamondtriangles.svg	40	no	ka	1	652	6	3	antiphase_hc_soi.wav	1	6	4	noise_calib_stim_RIGHT.wav	2	22	blb_dichoticlistening_ka-ka.mp3	ka	ka	0	left
6.6.1	mac	2023-06-28	15:09:21	15:20:07	643504	5caba2588d77140014bac508	4	1	DL_practice	21	DL_practice	8	stimuli_distractor_diamondtriangles.svg	stimuli_distractor_diamondtriangles.svg	40	no	pa	1	2217	6	3	antiphase_hc_soi.wav	1	6	4	noise_calib_stim_RIGHT.wav	2	23	blb_dichoticlistening_ka-pa.mp3	ka	pa	1	right
6.6.1	mac	2023-06-28	15:09:21	15:20:07	643504	5caba2588d77140014bac508	4	1	DL_practice	21	DL_practice	9	stimuli_distractor_diamondtriangles.svg	stimuli_distractor_diamondtriangles.svg	40	no	ba	1	1553	6	3	antiphase_hc_soi.wav	1	6	4	noise_calib_stim_RIGHT.wav	2	1	blb_dichoticlistening_ba-ba.mp3	ba	ba	0	left
6.6.1	mac	2023-06-28	15:09:21	15:20:07	643504	5caba2588d77140014bac508	4	1	DL_practice	21	DL_practice	10	stimuli_distractor_diamondtriangles.svg	stimuli_distractor_diamondtriangles.svg	40	no	da	1	1907	6	3	antiphase_hc_soi.wav	1	6	4	noise_calib_stim_RIGHT.wav	2	7	blb_dichoticlistening_da-ba.mp3	da	ba	1	left
6.6.1	mac	2023-06-28	15:09:21	15:20:07	643504	5caba2588d77140014bac508	4	1	DL_test	23	DL_test	1	stimuli_distractor_diamondtriangles.svg	stimuli_distractor_diamondtriangles.svg	40	no	da	1	937	6	3	antiphase_hc_soi.wav	1	6	4	noise_calib_stim_RIGHT.wav	2	8	blb_dichoticlistening_da-da.mp3	da	da	0	left
6.6.1	mac	2023-06-28	15:09:21	15:20:07	643504	5caba2588d77140014bac508	4	1	DL_test	23	DL_test	2	stimuli_distractor_diamondtriangles.svg	stimuli_distractor_diamondtriangles.svg	40	no	ka	1	964	6	3	antiphase_hc_soi.wav	1	6	4	noise_calib_stim_RIGHT.wav	2	34	blb_dichoticlistening_ta-ka.mp3	ta	ka	1	right
6.6.1	mac	2023-06-28	15:09:21	15:20:07	643504	5caba2588d77140014bac508	4	1	DL_test	23	DL_test	3	stimuli_distractor_diamondtriangles.svg	stimuli_distractor_diamondtriangles.svg	40	no	ba	1	1462	6	3	antiphase_hc_soi.wav	1	6	4	noise_calib_stim_RIGHT.wav	2	13	blb_dichoticlistening_ga-ba.mp3	ga	ba	1	right
6.6.1	mac	2023-06-28	15:09:21	15:20:07	643504	5caba2588d77140014bac508	4	1	DL_test	23	DL_test	4	stimuli_distractor_diamondtriangles.svg	stimuli_distractor_diamondtriangles.svg	40	no	ka	0	1533	6	3	antiphase_hc_soi.wav	1	6	4	noise_calib_stim_RIGHT.wav	2	31	blb_dichoticlistening_ta-ba.mp3	ta	ba	1	other
6.6.1	mac	2023-06-28	15:09:21	15:20:07	643504	5caba2588d77140014bac508	4	1	DL_test	23	DL_test	5	stimuli_distractor_diamondtriangles.svg	stimuli_distractor_diamondtriangles.svg	40	no	ga	1	1408	6	3	antiphase_hc_soi.wav	1	6	4	noise_calib_stim_RIGHT.wav	2	9	blb_dichoticlistening_da-ga.mp3	da	ga	1	right
6.6.1	mac	2023-06-28	15:09:21	15:20:07	643504	5caba2588d77140014bac508	4	1	DL_test	23	DL_test	6	stimuli_distractor_diamondtriangles.svg	stimuli_distractor_diamondtriangles.svg	40	no	ka	1	1329	6	3	antiphase_hc_soi.wav	1	6	4	noise_calib_stim_RIGHT.wav	2	20	blb_dichoticlistening_ka-da.mp3	ka	da	1	left
6.6.1	mac	2023-06-28	15:09:21	15:20:07	643504	5caba2588d77140014bac508	4	1	DL_test	23	DL_test	7	stimuli_distractor_diamondtriangles.svg	stimuli_distractor_diamondtriangles.svg	40	no	ka	0	1205	6	3	antiphase_hc_soi.wav	1	6	4	noise_calib_stim_RIGHT.wav	2	6	blb_dichoticlistening_ba-ta.mp3	ba	ta	1	other
6.6.1	mac	2023-06-28	15:09:21	15:20:07	643504	5caba2588d77140014bac508	4	1	DL_test	23	DL_test	8	stimuli_distractor_diamondtriangles.svg	stimuli_distractor_diamondtriangles.svg	40	no	ka	1	1230	6	3	antiphase_hc_soi.wav	1	6	4	noise_calib_stim_RIGHT.wav	2	28	blb_dichoticlistening_pa-ka.mp3	pa	ka	1	right
6.6.1	mac	2023-06-28	15:09:21	15:20:07	643504	5caba2588d77140014bac508	4	1	DL_test	23	DL_test	9	stimuli_distractor_diamondtriangles.svg	stimuli_distractor_diamondtriangles.svg	40	no	ka	0	862	6	3	antiphase_hc_soi.wav	1	6	4	noise_calib_stim_RIGHT.wav	2	36	blb_dichoticlistening_ta-ta.mp3	ta	ta	0	other
6.6.1	mac	2023-06-28	15:09:21	15:20:07	643504	5caba2588d77140014bac508	4	1	DL_test	23	DL_test	10	stimuli_distractor_diamondtriangles.svg	stimuli_distractor_diamondtriangles.svg	40	no	ba	1	1788	6	3	antiphase_hc_soi.wav	1	6	4	noise_calib_stim_RIGHT.wav	2	4	blb_dichoticlistening_ba-ka.mp3	ba	ka	1	left
6.6.1	mac	2023-06-28	15:09:21	15:20:07	643504	5caba2588d77140014bac508	4	1	DL_test	23	DL_test	11	stimuli_distractor_diamondtriangles.svg	stimuli_distractor_diamondtriangles.svg	40	no	pa	1	1692	6	3	antiphase_hc_soi.wav	1	6	4	noise_calib_stim_RIGHT.wav	2	26	blb_dichoticlistening_pa-da.mp3	pa	da	1	left
6.6.1	mac	2023-06-28	15:09:21	15:20:07	643504	5caba2588d77140014bac508	4	1	DL_test	23	DL_test	12	stimuli_distractor_diamondtriangles.svg	stimuli_distractor_diamondtriangles.svg	40	no	pa	1	970	6	3	antiphase_hc_soi.wav	1	6	4	noise_calib_stim_RIGHT.wav	2	25	blb_dichoticlistening_pa-ba.mp3	pa	ba	1	left
6.6.1	mac	2023-06-28	15:09:21	15:20:07	643504	5caba2588d77140014bac508	4	1	DL_test	23	DL_test	13	stimuli_distractor_diamondtriangles.svg	stimuli_distractor_diamondtriangles.svg	40	no	ka	0	1083	6	3	antiphase_hc_soi.wav	1	6	4	noise_calib_stim_RIGHT.wav	2	33	blb_dichoticlistening_ta-ga.mp3	ta	ga	1	other
6.6.1	mac	2023-06-28	15:09:21	15:20:07	643504	5caba2588d77140014bac508	4	1	DL_test	23	DL_test	14	stimuli_distractor_diamondtriangles.svg	stimuli_distractor_diamondtriangles.svg	40	no	ka	1	682	6	3	antiphase_hc_soi.wav	1	6	4	noise_calib_stim_RIGHT.wav	2	22	blb_dichoticlistening_ka-ka.mp3	ka	ka	0	left
6.6.1	mac	2023-06-28	15:09:21	15:20:07	643504	5caba2588d77140014bac508	4	1	DL_test	23	DL_test	15	stimuli_distractor_diamondtriangles.svg	stimuli_distractor_diamondtriangles.svg	40	no	ba	1	1135	6	3	antiphase_hc_soi.wav	1	6	4	noise_calib_stim_RIGHT.wav	2	1	blb_dichoticlistening_ba-ba.mp3	ba	ba	0	left
6.6.1	mac	2023-06-28	15:09:21	15:20:07	643504	5caba2588d77140014bac508	4	1	DL_test	23	DL_test	16	stimuli_distractor_diamondtriangles.svg	stimuli_distractor_diamondtriangles.svg	40	no	ka	1	1467	6	3	antiphase_hc_soi.wav	1	6	4	noise_calib_stim_RIGHT.wav	2	16	blb_dichoticlistening_ga-ka.mp3	ga	ka	1	right
6.6.1	mac	2023-06-28	15:09:21	15:20:07	643504	5caba2588d77140014bac508	4	1	DL_test	23	DL_test	17	stimuli_distractor_diamondtriangles.svg	stimuli_distractor_diamondtriangles.svg	40	no	da	1	1169	6	3	antiphase_hc_soi.wav	1	6	4	noise_calib_stim_RIGHT.wav	2	7	blb_dichoticlistening_da-ba.mp3	da	ba	1	left
6.6.1	mac	2023-06-28	15:09:21	15:20:07	643504	5caba2588d77140014bac508	4	1	DL_test	23	DL_test	18	stimuli_distractor_diamondtriangles.svg	stimuli_distractor_diamondtriangles.svg	40	no	pa	1	1187	6	3	antiphase_hc_soi.wav	1	6	4	noise_calib_stim_RIGHT.wav	2	17	blb_dichoticlistening_ga-pa.mp3	ga	pa	1	right
6.6.1	mac	2023-06-28	15:09:21	15:20:07	643504	5caba2588d77140014bac508	4	1	DL_test	23	DL_test	19	stimuli_distractor_diamondtriangles.svg	stimuli_distractor_diamondtriangles.svg	40	no	ga	1	1101	6	3	antiphase_hc_soi.wav	1	6	4	noise_calib_stim_RIGHT.wav	2	15	blb_dichoticlistening_ga-ga.mp3	ga	ga	0	left
6.6.1	mac	2023-06-28	15:09:21	15:20:07	643504	5caba2588d77140014bac508	4	1	DL_test	23	DL_test	20	stimuli_distractor_diamondtriangles.svg	stimuli_distractor_diamondtriangles.svg	40	no	pa	1	1113	6	3	antiphase_hc_soi.wav	1	6	4	noise_calib_stim_RIGHT.wav	2	29	blb_dichoticlistening_pa-pa.mp3	pa	pa	0	left
6.6.1	mac	2023-06-28	15:09:21	15:20:07	643504	5caba2588d77140014bac508	4	1	DL_test	23	DL_test	21	stimuli_distractor_diamondtriangles.svg	stimuli_distractor_diamondtriangles.svg	40	no	da	1	1238	6	3	antiphase_hc_soi.wav	1	6	4	noise_calib_stim_RIGHT.wav	2	2	blb_dichoticlistening_ba-da.mp3	ba	da	1	right
6.6.1	mac	2023-06-28	15:09:21	15:20:07	643504	5caba2588d77140014bac508	4	1	DL_test	23	DL_test	22	stimuli_distractor_diamondtriangles.svg	stimuli_distractor_diamondtriangles.svg	40	no	ga	1	1245	6	3	antiphase_hc_soi.wav	1	6	4	noise_calib_stim_RIGHT.wav	2	21	blb_dichoticlistening_ka-ga.mp3	ka	ga	1	right
6.6.1	mac	2023-06-28	15:09:21	15:20:07	643504	5caba2588d77140014bac508	4	1	DL_test	23	DL_test	23	stimuli_distractor_diamondtriangles.svg	stimuli_distractor_diamondtriangles.svg	40	no	pa	1	1100	6	3	antiphase_hc_soi.wav	1	6	4	noise_calib_stim_RIGHT.wav	2	5	blb_dichoticlistening_ba-pa.mp3	ba	pa	1	right
6.6.1	mac	2023-06-28	15:09:21	15:20:07	643504	5caba2588d77140014bac508	4	1	DL_test	23	DL_test	24	stimuli_distractor_diamondtriangles.svg	stimuli_distractor_diamondtriangles.svg	40	no	ka	0	1521	6	3	antiphase_hc_soi.wav	1	6	4	noise_calib_stim_RIGHT.wav	2	35	blb_dichoticlistening_ta-pa.mp3	ta	pa	1	other
6.6.1	mac	2023-06-28	15:09:21	15:20:07	643504	5caba2588d77140014bac508	4	1	DL_test	23	DL_test	25	stimuli_distractor_diamondtriangles.svg	stimuli_distractor_diamondtriangles.svg	40	no	pa	0	2140	6	3	antiphase_hc_soi.wav	1	6	4	noise_calib_stim_RIGHT.wav	2	10	blb_dichoticlistening_da-ka.mp3	da	ka	1	other
