build	computer.platform	date	time	timestamp	time_elapsed_ms	subject	group	session	blockcode	blocknum	trialcode	trialnum	stimulus_left	stimulus_right	stim_index	target_present	response	correct	latency	headphonecheck_countTestTrials	headphonecheck_index	headphonecheck_testSound	headphonecheck_correctResponse	stereocheck_countTestTrials	stereocheck_index	stereocheck_testSound	stereocheck_correctResponse	DL_index	DL_soundfile	DL_leftSound	DL_rightSound	DL_dualSound	DL_choice
6.6.1	and	2023-07-06	21:57:40	0	0	5e9bda4fc2758f0f5713a3f8	2	1	headphonecheck_calibration	4	headphonecheck_calibrationIntro	1			0		calibrationButton	0	2516	0	0			0	0			1				0	
6.6.1	and	2023-07-06	21:57:40	0	0	5e9bda4fc2758f0f5713a3f8	2	1	headphonecheck_testphase	5	test_collectResponse	3			0		second	0	16558	1	2	antiphase_hc_ios.wav	3	0	0			1				0	
6.6.1	and	2023-07-06	21:57:40	0	0	5e9bda4fc2758f0f5713a3f8	2	1	headphonecheck_testphase	5	test_collectResponse	6			0		first	1	4455	2	4	antiphase_hc_sio.wav	1	0	0			1				0	
6.6.1	and	2023-07-06	21:57:40	0	0	5e9bda4fc2758f0f5713a3f8	2	1	headphonecheck_testphase	5	test_collectResponse	9			0		third	0	6637	3	3	antiphase_hc_soi.wav	1	0	0			1				0	
6.6.1	and	2023-07-06	21:57:40	0	0	5e9bda4fc2758f0f5713a3f8	2	1	headphonecheck_testphase	5	test_collectResponse	12			0		second	1	1158	4	1	antiphase_hc_iso.wav	2	0	0			1				0	
6.6.1	and	2023-07-06	21:57:40	0	0	5e9bda4fc2758f0f5713a3f8	2	1	headphonecheck_testphase	5	test_collectResponse	15			0		first	0	918	5	5	antiphase_hc_osi.wav	2	0	0			1				0	
6.6.1	and	2023-07-06	21:57:40	0	0	5e9bda4fc2758f0f5713a3f8	2	1	headphonecheck_testphase	5	test_collectResponse	18			0		third	1	531	6	6	antiphase_hc_ois.wav	3	0	0			1				0	
6.6.1	and	2023-07-06	21:57:40	0	0	5e9bda4fc2758f0f5713a3f8	2	1	stereocheck_calibration	7	stereocheck_calibrationIntro	1			0		stereocheck_calibrationButton	0	44551	6	6	antiphase_hc_ois.wav	3	0	0			1				0	
6.6.1	and	2023-07-06	21:57:40	0	0	5e9bda4fc2758f0f5713a3f8	2	1	stereocheck_testphase	8	stereocheck_test_collectResponse	3			0		stereocheck_right	0	20251	6	6	antiphase_hc_ois.wav	3	1	2	noise_calib_stim_LEFT.wav	1	1				0	
6.6.1	and	2023-07-06	21:57:40	0	0	5e9bda4fc2758f0f5713a3f8	2	1	stereocheck_testphase	8	stereocheck_test_collectResponse	6			0		stereocheck_right	1	2988	6	6	antiphase_hc_ois.wav	3	2	4	noise_calib_stim_RIGHT.wav	2	1				0	
6.6.1	and	2023-07-06	21:57:40	0	0	5e9bda4fc2758f0f5713a3f8	2	1	stereocheck_testphase	8	stereocheck_test_collectResponse	9			0		stereocheck_left	0	1599	6	6	antiphase_hc_ois.wav	3	3	6	noise_calib_stim_RIGHT.wav	2	1				0	
6.6.1	and	2023-07-06	21:57:40	0	0	5e9bda4fc2758f0f5713a3f8	2	1	stereocheck_testphase	8	stereocheck_test_collectResponse	12			0		stereocheck_left	1	884	6	6	antiphase_hc_ois.wav	3	4	3	noise_calib_stim_LEFT.wav	1	1				0	
6.6.1	and	2023-07-06	21:57:40	0	0	5e9bda4fc2758f0f5713a3f8	2	1	stereocheck_testphase	8	stereocheck_test_collectResponse	15			0		stereocheck_left	1	453	6	6	antiphase_hc_ois.wav	3	5	1	noise_calib_stim_LEFT.wav	1	1				0	
6.6.1	and	2023-07-06	21:57:40	0	0	5e9bda4fc2758f0f5713a3f8	2	1	stereocheck_testphase	8	stereocheck_test_collectResponse	18			0		stereocheck_right	1	1355	6	6	antiphase_hc_ois.wav	3	6	5	noise_calib_stim_RIGHT.wav	2	1				0	
6.6.1	and	2023-07-06	21:57:40	0	0	5e9bda4fc2758f0f5713a3f8	2	1	DL_practice	11	DL_practice	2			0		ga	1	1696	6	6	antiphase_hc_ois.wav	3	6	5	noise_calib_stim_RIGHT.wav	2	18	blb_dichoticlistening_ga-ta.mp3	ga	ta	1	left
6.6.1	and	2023-07-06	21:57:40	0	0	5e9bda4fc2758f0f5713a3f8	2	1	DL_practice	11	DL_practice	3			0		ba	1	2001	6	6	antiphase_hc_ois.wav	3	6	5	noise_calib_stim_RIGHT.wav	2	1	blb_dichoticlistening_ba-ba.mp3	ba	ba	0	left
6.6.1	and	2023-07-06	21:57:40	0	0	5e9bda4fc2758f0f5713a3f8	2	1	DL_practice	11	DL_practice	4			0		pa	1	1303	6	6	antiphase_hc_ois.wav	3	6	5	noise_calib_stim_RIGHT.wav	2	29	blb_dichoticlistening_pa-pa.mp3	pa	pa	0	left
6.6.1	and	2023-07-06	21:57:40	0	0	5e9bda4fc2758f0f5713a3f8	2	1	DL_practice	11	DL_practice	5			0		ba	1	1788	6	6	antiphase_hc_ois.wav	3	6	5	noise_calib_stim_RIGHT.wav	2	7	blb_dichoticlistening_da-ba.mp3	da	ba	1	right
6.6.1	and	2023-07-06	21:57:40	0	0	5e9bda4fc2758f0f5713a3f8	2	1	DL_practice	11	DL_practice	6			0		ka	1	2186	6	6	antiphase_hc_ois.wav	3	6	5	noise_calib_stim_RIGHT.wav	2	22	blb_dichoticlistening_ka-ka.mp3	ka	ka	0	left
6.6.1	and	2023-07-06	21:57:40	0	0	5e9bda4fc2758f0f5713a3f8	2	1	DL_practice	11	DL_practice	7			0		ka	1	1460	6	6	antiphase_hc_ois.wav	3	6	5	noise_calib_stim_RIGHT.wav	2	23	blb_dichoticlistening_ka-pa.mp3	ka	pa	1	left
6.6.1	and	2023-07-06	21:57:40	0	0	5e9bda4fc2758f0f5713a3f8	2	1	DL_practice	11	DL_practice	8			0		ga	1	1383	6	6	antiphase_hc_ois.wav	3	6	5	noise_calib_stim_RIGHT.wav	2	15	blb_dichoticlistening_ga-ga.mp3	ga	ga	0	left
6.6.1	and	2023-07-06	21:57:40	0	0	5e9bda4fc2758f0f5713a3f8	2	1	DL_practice	11	DL_practice	9			0		da	1	2374	6	6	antiphase_hc_ois.wav	3	6	5	noise_calib_stim_RIGHT.wav	2	8	blb_dichoticlistening_da-da.mp3	da	da	0	left
6.6.1	and	2023-07-06	21:57:40	0	0	5e9bda4fc2758f0f5713a3f8	2	1	DL_practice	11	DL_practice	10			0		ta	1	1968	6	6	antiphase_hc_ois.wav	3	6	5	noise_calib_stim_RIGHT.wav	2	36	blb_dichoticlistening_ta-ta.mp3	ta	ta	0	left
6.6.1	and	2023-07-06	21:57:40	0	0	5e9bda4fc2758f0f5713a3f8	2	1	DL_test	13	DL_test	1			0		ba	1	1924	6	6	antiphase_hc_ois.wav	3	6	5	noise_calib_stim_RIGHT.wav	2	6	blb_dichoticlistening_ba-ta.mp3	ba	ta	1	left
6.6.1	and	2023-07-06	21:57:40	0	0	5e9bda4fc2758f0f5713a3f8	2	1	DL_test	13	DL_test	2			0		da	1	991	6	6	antiphase_hc_ois.wav	3	6	5	noise_calib_stim_RIGHT.wav	2	11	blb_dichoticlistening_da-pa.mp3	da	pa	1	left
6.6.1	and	2023-07-06	21:57:40	0	0	5e9bda4fc2758f0f5713a3f8	2	1	DL_test	13	DL_test	3			0		pa	0	1914	6	6	antiphase_hc_ois.wav	3	6	5	noise_calib_stim_RIGHT.wav	2	31	blb_dichoticlistening_ta-ba.mp3	ta	ba	1	other
6.6.1	and	2023-07-06	21:57:40	0	0	5e9bda4fc2758f0f5713a3f8	2	1	DL_test	13	DL_test	4			0		ta	1	1064	6	6	antiphase_hc_ois.wav	3	6	5	noise_calib_stim_RIGHT.wav	2	36	blb_dichoticlistening_ta-ta.mp3	ta	ta	0	left
6.6.1	and	2023-07-06	21:57:40	0	0	5e9bda4fc2758f0f5713a3f8	2	1	DL_test	13	DL_test	5			0		ba	1	1336	6	6	antiphase_hc_ois.wav	3	6	5	noise_calib_stim_RIGHT.wav	2	5	blb_dichoticlistening_ba-pa.mp3	ba	pa	1	left
6.6.1	and	2023-07-06	21:57:40	0	0	5e9bda4fc2758f0f5713a3f8	2	1	DL_test	13	DL_test	6			0		ka	1	1327	6	6	antiphase_hc_ois.wav	3	6	5	noise_calib_stim_RIGHT.wav	2	19	blb_dichoticlistening_ka-ba.mp3	ka	ba	1	left
6.6.1	and	2023-07-06	21:57:40	0	0	5e9bda4fc2758f0f5713a3f8	2	1	DL_test	13	DL_test	7			0		da	1	3818	6	6	antiphase_hc_ois.wav	3	6	5	noise_calib_stim_RIGHT.wav	2	32	blb_dichoticlistening_ta-da.mp3	ta	da	1	right
6.6.1	and	2023-07-06	21:57:40	0	0	5e9bda4fc2758f0f5713a3f8	2	1	DL_test	13	DL_test	8			0		da	1	1223	6	6	antiphase_hc_ois.wav	3	6	5	noise_calib_stim_RIGHT.wav	2	20	blb_dichoticlistening_ka-da.mp3	ka	da	1	right
6.6.1	and	2023-07-06	21:57:40	0	0	5e9bda4fc2758f0f5713a3f8	2	1	DL_test	13	DL_test	9			0		ga	1	1649	6	6	antiphase_hc_ois.wav	3	6	5	noise_calib_stim_RIGHT.wav	2	15	blb_dichoticlistening_ga-ga.mp3	ga	ga	0	left
6.6.1	and	2023-07-06	21:57:40	0	0	5e9bda4fc2758f0f5713a3f8	2	1	DL_test	13	DL_test	10			0		ga	1	1044	6	6	antiphase_hc_ois.wav	3	6	5	noise_calib_stim_RIGHT.wav	2	17	blb_dichoticlistening_ga-pa.mp3	ga	pa	1	left
6.6.1	and	2023-07-06	21:57:40	0	0	5e9bda4fc2758f0f5713a3f8	2	1	DL_test	13	DL_test	11			0		ga	1	753	6	6	antiphase_hc_ois.wav	3	6	5	noise_calib_stim_RIGHT.wav	2	16	blb_dichoticlistening_ga-ka.mp3	ga	ka	1	left
6.6.1	and	2023-07-06	21:57:40	0	0	5e9bda4fc2758f0f5713a3f8	2	1	DL_test	13	DL_test	12			0		ba	1	1557	6	6	antiphase_hc_ois.wav	3	6	5	noise_calib_stim_RIGHT.wav	2	3	blb_dichoticlistening_ba-ga.mp3	ba	ga	1	left
6.6.1	and	2023-07-06	21:57:40	0	0	5e9bda4fc2758f0f5713a3f8	2	1	DL_test	13	DL_test	13			0		ta	1	1341	6	6	antiphase_hc_ois.wav	3	6	5	noise_calib_stim_RIGHT.wav	2	35	blb_dichoticlistening_ta-pa.mp3	ta	pa	1	left
6.6.1	and	2023-07-06	21:57:40	0	0	5e9bda4fc2758f0f5713a3f8	2	1	DL_test	13	DL_test	14			0		ka	1	1579	6	6	antiphase_hc_ois.wav	3	6	5	noise_calib_stim_RIGHT.wav	2	28	blb_dichoticlistening_pa-ka.mp3	pa	ka	1	right
6.6.1	and	2023-07-06	21:57:40	0	0	5e9bda4fc2758f0f5713a3f8	2	1	DL_test	13	DL_test	15			0		ka	1	839	6	6	antiphase_hc_ois.wav	3	6	5	noise_calib_stim_RIGHT.wav	2	34	blb_dichoticlistening_ta-ka.mp3	ta	ka	1	right
6.6.1	and	2023-07-06	21:57:40	0	0	5e9bda4fc2758f0f5713a3f8	2	1	DL_test	13	DL_test	16			0		ka	1	705	6	6	antiphase_hc_ois.wav	3	6	5	noise_calib_stim_RIGHT.wav	2	23	blb_dichoticlistening_ka-pa.mp3	ka	pa	1	left
6.6.1	and	2023-07-06	21:57:40	0	0	5e9bda4fc2758f0f5713a3f8	2	1	DL_test	13	DL_test	17			0		ga	1	1061	6	6	antiphase_hc_ois.wav	3	6	5	noise_calib_stim_RIGHT.wav	2	21	blb_dichoticlistening_ka-ga.mp3	ka	ga	1	right
6.6.1	and	2023-07-06	21:57:40	0	0	5e9bda4fc2758f0f5713a3f8	2	1	DL_test	13	DL_test	18			0		pa	1	1478	6	6	antiphase_hc_ois.wav	3	6	5	noise_calib_stim_RIGHT.wav	2	29	blb_dichoticlistening_pa-pa.mp3	pa	pa	0	left
6.6.1	and	2023-07-06	21:57:40	0	0	5e9bda4fc2758f0f5713a3f8	2	1	DL_test	13	DL_test	19			0		ta	0	1393	6	6	antiphase_hc_ois.wav	3	6	5	noise_calib_stim_RIGHT.wav	2	22	blb_dichoticlistening_ka-ka.mp3	ka	ka	0	other
6.6.1	and	2023-07-06	21:57:40	0	0	5e9bda4fc2758f0f5713a3f8	2	1	DL_test	13	DL_test	20			0		ga	1	1151	6	6	antiphase_hc_ois.wav	3	6	5	noise_calib_stim_RIGHT.wav	2	14	blb_dichoticlistening_ga-da.mp3	ga	da	1	left
6.6.1	and	2023-07-06	21:57:40	0	0	5e9bda4fc2758f0f5713a3f8	2	1	DL_test	13	DL_test	21			0		ba	1	2446	6	6	antiphase_hc_ois.wav	3	6	5	noise_calib_stim_RIGHT.wav	2	7	blb_dichoticlistening_da-ba.mp3	da	ba	1	right
6.6.1	and	2023-07-06	21:57:40	0	0	5e9bda4fc2758f0f5713a3f8	2	1	DL_test	13	DL_test	22			0		ga	1	1305	6	6	antiphase_hc_ois.wav	3	6	5	noise_calib_stim_RIGHT.wav	2	33	blb_dichoticlistening_ta-ga.mp3	ta	ga	1	right
6.6.1	and	2023-07-06	21:57:40	0	0	5e9bda4fc2758f0f5713a3f8	2	1	DL_test	13	DL_test	23			0		ba	1	8390	6	6	antiphase_hc_ois.wav	3	6	5	noise_calib_stim_RIGHT.wav	2	25	blb_dichoticlistening_pa-ba.mp3	pa	ba	1	right
6.6.1	and	2023-07-06	21:57:40	0	0	5e9bda4fc2758f0f5713a3f8	2	1	DL_test	13	DL_test	24			0		ka	1	1383	6	6	antiphase_hc_ois.wav	3	6	5	noise_calib_stim_RIGHT.wav	2	24	blb_dichoticlistening_ka-ta.mp3	ka	ta	1	left
6.6.1	and	2023-07-06	21:57:40	0	0	5e9bda4fc2758f0f5713a3f8	2	1	DL_test	13	DL_test	25			0		da	1	970	6	6	antiphase_hc_ois.wav	3	6	5	noise_calib_stim_RIGHT.wav	2	8	blb_dichoticlistening_da-da.mp3	da	da	0	left
6.6.1	and	2023-07-06	21:57:40	0	0	5e9bda4fc2758f0f5713a3f8	2	1	DL_test	13	DL_test	26			0		ba	1	975	6	6	antiphase_hc_ois.wav	3	6	5	noise_calib_stim_RIGHT.wav	2	2	blb_dichoticlistening_ba-da.mp3	ba	da	1	left
6.6.1	and	2023-07-06	21:57:40	0	0	5e9bda4fc2758f0f5713a3f8	2	1	DL_test	13	DL_test	27			0		pa	1	1616	6	6	antiphase_hc_ois.wav	3	6	5	noise_calib_stim_RIGHT.wav	2	30	blb_dichoticlistening_pa-ta.mp3	pa	ta	1	left
6.6.1	and	2023-07-06	21:57:40	0	0	5e9bda4fc2758f0f5713a3f8	2	1	DL_test	13	DL_test	28			0		ba	1	2781	6	6	antiphase_hc_ois.wav	3	6	5	noise_calib_stim_RIGHT.wav	2	1	blb_dichoticlistening_ba-ba.mp3	ba	ba	0	left
6.6.1	and	2023-07-06	21:57:40	0	0	5e9bda4fc2758f0f5713a3f8	2	1	DL_test	13	DL_test	29			0		da	1	1037	6	6	antiphase_hc_ois.wav	3	6	5	noise_calib_stim_RIGHT.wav	2	12	blb_dichoticlistening_da-ta.mp3	da	ta	1	left
6.6.1	and	2023-07-06	21:57:40	0	0	5e9bda4fc2758f0f5713a3f8	2	1	DL_test	13	DL_test	30			0		ba	1	1049	6	6	antiphase_hc_ois.wav	3	6	5	noise_calib_stim_RIGHT.wav	2	4	blb_dichoticlistening_ba-ka.mp3	ba	ka	1	left
6.6.1	and	2023-07-06	21:57:40	0	0	5e9bda4fc2758f0f5713a3f8	2	1	DL_test	13	DL_test	31			0		ba	1	871	6	6	antiphase_hc_ois.wav	3	6	5	noise_calib_stim_RIGHT.wav	2	13	blb_dichoticlistening_ga-ba.mp3	ga	ba	1	right
6.6.1	and	2023-07-06	21:57:40	0	0	5e9bda4fc2758f0f5713a3f8	2	1	DL_test	13	DL_test	32			0		ka	0	1127	6	6	antiphase_hc_ois.wav	3	6	5	noise_calib_stim_RIGHT.wav	2	27	blb_dichoticlistening_pa-ga.mp3	pa	ga	1	other
6.6.1	and	2023-07-06	21:57:40	0	0	5e9bda4fc2758f0f5713a3f8	2	1	DL_test	13	DL_test	33			0		da	1	1198	6	6	antiphase_hc_ois.wav	3	6	5	noise_calib_stim_RIGHT.wav	2	10	blb_dichoticlistening_da-ka.mp3	da	ka	1	left
6.6.1	and	2023-07-06	21:57:40	0	0	5e9bda4fc2758f0f5713a3f8	2	1	DL_test	13	DL_test	34			0		da	1	2062	6	6	antiphase_hc_ois.wav	3	6	5	noise_calib_stim_RIGHT.wav	2	26	blb_dichoticlistening_pa-da.mp3	pa	da	1	right
6.6.1	and	2023-07-06	21:57:40	0	0	5e9bda4fc2758f0f5713a3f8	2	1	DL_test	13	DL_test	35			0		da	1	1512	6	6	antiphase_hc_ois.wav	3	6	5	noise_calib_stim_RIGHT.wav	2	9	blb_dichoticlistening_da-ga.mp3	da	ga	1	left
6.6.1	and	2023-07-06	21:57:40	0	0	5e9bda4fc2758f0f5713a3f8	2	1	DL_test	13	DL_test	36			0		ga	1	940	6	6	antiphase_hc_ois.wav	3	6	5	noise_calib_stim_RIGHT.wav	2	18	blb_dichoticlistening_ga-ta.mp3	ga	ta	1	left
6.6.1	and	2023-07-06	21:57:40	0	0	5e9bda4fc2758f0f5713a3f8	2	1	DL_test	14	DL_test	1			0		ta	1	1237	6	6	antiphase_hc_ois.wav	3	6	5	noise_calib_stim_RIGHT.wav	2	30	blb_dichoticlistening_pa-ta.mp3	pa	ta	1	right
6.6.1	and	2023-07-06	21:57:40	0	0	5e9bda4fc2758f0f5713a3f8	2	1	DL_test	14	DL_test	2			0		ga	1	1048	6	6	antiphase_hc_ois.wav	3	6	5	noise_calib_stim_RIGHT.wav	2	16	blb_dichoticlistening_ga-ka.mp3	ga	ka	1	left
6.6.1	and	2023-07-06	21:57:40	0	0	5e9bda4fc2758f0f5713a3f8	2	1	DL_test	14	DL_test	3			0		ka	1	872	6	6	antiphase_hc_ois.wav	3	6	5	noise_calib_stim_RIGHT.wav	2	22	blb_dichoticlistening_ka-ka.mp3	ka	ka	0	left
6.6.1	and	2023-07-06	21:57:40	0	0	5e9bda4fc2758f0f5713a3f8	2	1	DL_test	14	DL_test	4			0		ka	1	1087	6	6	antiphase_hc_ois.wav	3	6	5	noise_calib_stim_RIGHT.wav	2	34	blb_dichoticlistening_ta-ka.mp3	ta	ka	1	right
6.6.1	and	2023-07-06	21:57:40	0	0	5e9bda4fc2758f0f5713a3f8	2	1	DL_test	14	DL_test	5			0		ga	1	1014	6	6	antiphase_hc_ois.wav	3	6	5	noise_calib_stim_RIGHT.wav	2	33	blb_dichoticlistening_ta-ga.mp3	ta	ga	1	right
6.6.1	and	2023-07-06	21:57:40	0	0	5e9bda4fc2758f0f5713a3f8	2	1	DL_test	14	DL_test	6			0		ga	1	3117	6	6	antiphase_hc_ois.wav	3	6	5	noise_calib_stim_RIGHT.wav	2	15	blb_dichoticlistening_ga-ga.mp3	ga	ga	0	left
6.6.1	and	2023-07-06	21:57:40	0	0	5e9bda4fc2758f0f5713a3f8	2	1	DL_test	14	DL_test	7			0		ba	1	1248	6	6	antiphase_hc_ois.wav	3	6	5	noise_calib_stim_RIGHT.wav	2	7	blb_dichoticlistening_da-ba.mp3	da	ba	1	right
6.6.1	and	2023-07-06	21:57:40	0	0	5e9bda4fc2758f0f5713a3f8	2	1	DL_test	14	DL_test	8			0		ta	1	4496	6	6	antiphase_hc_ois.wav	3	6	5	noise_calib_stim_RIGHT.wav	2	36	blb_dichoticlistening_ta-ta.mp3	ta	ta	0	left
6.6.1	and	2023-07-06	21:57:40	0	0	5e9bda4fc2758f0f5713a3f8	2	1	DL_test	14	DL_test	9			0		pa	1	1722	6	6	antiphase_hc_ois.wav	3	6	5	noise_calib_stim_RIGHT.wav	2	23	blb_dichoticlistening_ka-pa.mp3	ka	pa	1	right
6.6.1	and	2023-07-06	21:57:40	0	0	5e9bda4fc2758f0f5713a3f8	2	1	DL_test	14	DL_test	10			0		pa	0	2180	6	6	antiphase_hc_ois.wav	3	6	5	noise_calib_stim_RIGHT.wav	2	32	blb_dichoticlistening_ta-da.mp3	ta	da	1	other
6.6.1	and	2023-07-06	21:57:40	0	0	5e9bda4fc2758f0f5713a3f8	2	1	DL_test	14	DL_test	11			0		pa	1	986	6	6	antiphase_hc_ois.wav	3	6	5	noise_calib_stim_RIGHT.wav	2	29	blb_dichoticlistening_pa-pa.mp3	pa	pa	0	left
6.6.1	and	2023-07-06	21:57:40	0	0	5e9bda4fc2758f0f5713a3f8	2	1	DL_test	14	DL_test	12			0		ka	1	1924	6	6	antiphase_hc_ois.wav	3	6	5	noise_calib_stim_RIGHT.wav	2	28	blb_dichoticlistening_pa-ka.mp3	pa	ka	1	right
6.6.1	and	2023-07-06	21:57:40	0	0	5e9bda4fc2758f0f5713a3f8	2	1	DL_test	14	DL_test	13			0		ka	1	913	6	6	antiphase_hc_ois.wav	3	6	5	noise_calib_stim_RIGHT.wav	2	24	blb_dichoticlistening_ka-ta.mp3	ka	ta	1	left
6.6.1	and	2023-07-06	21:57:40	0	0	5e9bda4fc2758f0f5713a3f8	2	1	DL_test	14	DL_test	14			0		pa	1	1254	6	6	antiphase_hc_ois.wav	3	6	5	noise_calib_stim_RIGHT.wav	2	25	blb_dichoticlistening_pa-ba.mp3	pa	ba	1	left
6.6.1	and	2023-07-06	21:57:40	0	0	5e9bda4fc2758f0f5713a3f8	2	1	DL_test	14	DL_test	15			0		da	1	1347	6	6	antiphase_hc_ois.wav	3	6	5	noise_calib_stim_RIGHT.wav	2	11	blb_dichoticlistening_da-pa.mp3	da	pa	1	left
6.6.1	and	2023-07-06	21:57:40	0	0	5e9bda4fc2758f0f5713a3f8	2	1	DL_test	14	DL_test	16			0		ba	1	1172	6	6	antiphase_hc_ois.wav	3	6	5	noise_calib_stim_RIGHT.wav	2	5	blb_dichoticlistening_ba-pa.mp3	ba	pa	1	left
6.6.1	and	2023-07-06	21:57:40	0	0	5e9bda4fc2758f0f5713a3f8	2	1	DL_test	14	DL_test	17			0		da	1	1665	6	6	antiphase_hc_ois.wav	3	6	5	noise_calib_stim_RIGHT.wav	2	8	blb_dichoticlistening_da-da.mp3	da	da	0	left
6.6.1	and	2023-07-06	21:57:40	0	0	5e9bda4fc2758f0f5713a3f8	2	1	DL_test	14	DL_test	18			0		ka	0	1412	6	6	antiphase_hc_ois.wav	3	6	5	noise_calib_stim_RIGHT.wav	2	31	blb_dichoticlistening_ta-ba.mp3	ta	ba	1	other
6.6.1	and	2023-07-06	21:57:40	0	0	5e9bda4fc2758f0f5713a3f8	2	1	DL_test	14	DL_test	19			0		ba	1	1704	6	6	antiphase_hc_ois.wav	3	6	5	noise_calib_stim_RIGHT.wav	2	2	blb_dichoticlistening_ba-da.mp3	ba	da	1	left
6.6.1	and	2023-07-06	21:57:40	0	0	5e9bda4fc2758f0f5713a3f8	2	1	DL_test	14	DL_test	20			0		pa	1	1673	6	6	antiphase_hc_ois.wav	3	6	5	noise_calib_stim_RIGHT.wav	2	26	blb_dichoticlistening_pa-da.mp3	pa	da	1	left
6.6.1	and	2023-07-06	21:57:40	0	0	5e9bda4fc2758f0f5713a3f8	2	1	DL_test	14	DL_test	21			0		da	1	1120	6	6	antiphase_hc_ois.wav	3	6	5	noise_calib_stim_RIGHT.wav	2	12	blb_dichoticlistening_da-ta.mp3	da	ta	1	left
6.6.1	and	2023-07-06	21:57:40	0	0	5e9bda4fc2758f0f5713a3f8	2	1	DL_test	14	DL_test	22			0		ba	1	5310	6	6	antiphase_hc_ois.wav	3	6	5	noise_calib_stim_RIGHT.wav	2	13	blb_dichoticlistening_ga-ba.mp3	ga	ba	1	right
6.6.1	and	2023-07-06	21:57:40	0	0	5e9bda4fc2758f0f5713a3f8	2	1	DL_test	14	DL_test	23			0		ga	1	1006	6	6	antiphase_hc_ois.wav	3	6	5	noise_calib_stim_RIGHT.wav	2	9	blb_dichoticlistening_da-ga.mp3	da	ga	1	right
6.6.1	and	2023-07-06	21:57:40	0	0	5e9bda4fc2758f0f5713a3f8	2	1	DL_test	14	DL_test	24			0		ga	1	1460	6	6	antiphase_hc_ois.wav	3	6	5	noise_calib_stim_RIGHT.wav	2	27	blb_dichoticlistening_pa-ga.mp3	pa	ga	1	right
6.6.1	and	2023-07-06	21:57:40	0	0	5e9bda4fc2758f0f5713a3f8	2	1	DL_test	14	DL_test	25			0		ga	1	965	6	6	antiphase_hc_ois.wav	3	6	5	noise_calib_stim_RIGHT.wav	2	21	blb_dichoticlistening_ka-ga.mp3	ka	ga	1	right
6.6.1	and	2023-07-06	21:57:40	0	0	5e9bda4fc2758f0f5713a3f8	2	1	DL_test	14	DL_test	26			0		pa	0	1216	6	6	antiphase_hc_ois.wav	3	6	5	noise_calib_stim_RIGHT.wav	2	20	blb_dichoticlistening_ka-da.mp3	ka	da	1	other
6.6.1	and	2023-07-06	21:57:40	0	0	5e9bda4fc2758f0f5713a3f8	2	1	DL_test	14	DL_test	27			0		ba	1	1348	6	6	antiphase_hc_ois.wav	3	6	5	noise_calib_stim_RIGHT.wav	2	4	blb_dichoticlistening_ba-ka.mp3	ba	ka	1	left
6.6.1	and	2023-07-06	21:57:40	0	0	5e9bda4fc2758f0f5713a3f8	2	1	DL_test	14	DL_test	28			0		ba	1	1078	6	6	antiphase_hc_ois.wav	3	6	5	noise_calib_stim_RIGHT.wav	2	19	blb_dichoticlistening_ka-ba.mp3	ka	ba	1	right
6.6.1	and	2023-07-06	21:57:40	0	0	5e9bda4fc2758f0f5713a3f8	2	1	DL_test	14	DL_test	29			0		ba	1	638	6	6	antiphase_hc_ois.wav	3	6	5	noise_calib_stim_RIGHT.wav	2	3	blb_dichoticlistening_ba-ga.mp3	ba	ga	1	left
6.6.1	and	2023-07-06	21:57:40	0	0	5e9bda4fc2758f0f5713a3f8	2	1	DL_test	14	DL_test	30			0		ga	1	982	6	6	antiphase_hc_ois.wav	3	6	5	noise_calib_stim_RIGHT.wav	2	17	blb_dichoticlistening_ga-pa.mp3	ga	pa	1	left
6.6.1	and	2023-07-06	21:57:40	0	0	5e9bda4fc2758f0f5713a3f8	2	1	DL_test	14	DL_test	31			0		ga	1	749	6	6	antiphase_hc_ois.wav	3	6	5	noise_calib_stim_RIGHT.wav	2	18	blb_dichoticlistening_ga-ta.mp3	ga	ta	1	left
6.6.1	and	2023-07-06	21:57:40	0	0	5e9bda4fc2758f0f5713a3f8	2	1	DL_test	14	DL_test	32			0		ba	1	1145	6	6	antiphase_hc_ois.wav	3	6	5	noise_calib_stim_RIGHT.wav	2	1	blb_dichoticlistening_ba-ba.mp3	ba	ba	0	left
6.6.1	and	2023-07-06	21:57:40	0	0	5e9bda4fc2758f0f5713a3f8	2	1	DL_test	14	DL_test	33			0		ba	1	934	6	6	antiphase_hc_ois.wav	3	6	5	noise_calib_stim_RIGHT.wav	2	6	blb_dichoticlistening_ba-ta.mp3	ba	ta	1	left
6.6.1	and	2023-07-06	21:57:40	0	0	5e9bda4fc2758f0f5713a3f8	2	1	DL_test	14	DL_test	34			0		ka	0	1753	6	6	antiphase_hc_ois.wav	3	6	5	noise_calib_stim_RIGHT.wav	2	35	blb_dichoticlistening_ta-pa.mp3	ta	pa	1	other
6.6.1	and	2023-07-06	21:57:40	0	0	5e9bda4fc2758f0f5713a3f8	2	1	DL_test	14	DL_test	35			0		ga	1	1567	6	6	antiphase_hc_ois.wav	3	6	5	noise_calib_stim_RIGHT.wav	2	14	blb_dichoticlistening_ga-da.mp3	ga	da	1	left
6.6.1	and	2023-07-06	21:57:40	0	0	5e9bda4fc2758f0f5713a3f8	2	1	DL_test	14	DL_test	36			0		ga	0	10242	6	6	antiphase_hc_ois.wav	3	6	5	noise_calib_stim_RIGHT.wav	2	10	blb_dichoticlistening_da-ka.mp3	da	ka	1	other
6.6.1	and	2023-07-06	21:57:40	0	0	5e9bda4fc2758f0f5713a3f8	2	1	DL_test	15	DL_test	1			0		ta	1	3149	6	6	antiphase_hc_ois.wav	3	6	5	noise_calib_stim_RIGHT.wav	2	35	blb_dichoticlistening_ta-pa.mp3	ta	pa	1	left
6.6.1	and	2023-07-06	21:57:40	0	0	5e9bda4fc2758f0f5713a3f8	2	1	DL_test	15	DL_test	2			0		ba	1	1294	6	6	antiphase_hc_ois.wav	3	6	5	noise_calib_stim_RIGHT.wav	2	31	blb_dichoticlistening_ta-ba.mp3	ta	ba	1	right
6.6.1	and	2023-07-06	21:57:40	0	0	5e9bda4fc2758f0f5713a3f8	2	1	DL_test	15	DL_test	3			0		da	1	810	6	6	antiphase_hc_ois.wav	3	6	5	noise_calib_stim_RIGHT.wav	2	8	blb_dichoticlistening_da-da.mp3	da	da	0	left
6.6.1	and	2023-07-06	21:57:40	0	0	5e9bda4fc2758f0f5713a3f8	2	1	DL_test	15	DL_test	4			0		pa	1	1117	6	6	antiphase_hc_ois.wav	3	6	5	noise_calib_stim_RIGHT.wav	2	25	blb_dichoticlistening_pa-ba.mp3	pa	ba	1	left
6.6.1	and	2023-07-06	21:57:40	0	0	5e9bda4fc2758f0f5713a3f8	2	1	DL_test	15	DL_test	5			0		ga	1	896	6	6	antiphase_hc_ois.wav	3	6	5	noise_calib_stim_RIGHT.wav	2	15	blb_dichoticlistening_ga-ga.mp3	ga	ga	0	left
6.6.1	and	2023-07-06	21:57:40	0	0	5e9bda4fc2758f0f5713a3f8	2	1	DL_test	15	DL_test	6			0		ka	0	1164	6	6	antiphase_hc_ois.wav	3	6	5	noise_calib_stim_RIGHT.wav	2	36	blb_dichoticlistening_ta-ta.mp3	ta	ta	0	other
6.6.1	and	2023-07-06	21:57:40	0	0	5e9bda4fc2758f0f5713a3f8	2	1	DL_test	15	DL_test	7			0		ga	1	1056	6	6	antiphase_hc_ois.wav	3	6	5	noise_calib_stim_RIGHT.wav	2	17	blb_dichoticlistening_ga-pa.mp3	ga	pa	1	left
6.6.1	and	2023-07-06	21:57:40	0	0	5e9bda4fc2758f0f5713a3f8	2	1	DL_test	15	DL_test	8			0		ka	1	934	6	6	antiphase_hc_ois.wav	3	6	5	noise_calib_stim_RIGHT.wav	2	24	blb_dichoticlistening_ka-ta.mp3	ka	ta	1	left
6.6.1	and	2023-07-06	21:57:40	0	0	5e9bda4fc2758f0f5713a3f8	2	1	DL_test	15	DL_test	9			0		ba	1	1440	6	6	antiphase_hc_ois.wav	3	6	5	noise_calib_stim_RIGHT.wav	2	19	blb_dichoticlistening_ka-ba.mp3	ka	ba	1	right
6.6.1	and	2023-07-06	21:57:40	0	0	5e9bda4fc2758f0f5713a3f8	2	1	DL_test	15	DL_test	10			0		ba	0	3292	6	6	antiphase_hc_ois.wav	3	6	5	noise_calib_stim_RIGHT.wav	2	23	blb_dichoticlistening_ka-pa.mp3	ka	pa	1	other
6.6.1	and	2023-07-06	21:57:40	0	0	5e9bda4fc2758f0f5713a3f8	2	1	DL_test	15	DL_test	11			0		pa	1	1752	6	6	antiphase_hc_ois.wav	3	6	5	noise_calib_stim_RIGHT.wav	2	30	blb_dichoticlistening_pa-ta.mp3	pa	ta	1	left
6.6.1	and	2023-07-06	21:57:40	0	0	5e9bda4fc2758f0f5713a3f8	2	1	DL_test	15	DL_test	12			0		da	1	2141	6	6	antiphase_hc_ois.wav	3	6	5	noise_calib_stim_RIGHT.wav	2	26	blb_dichoticlistening_pa-da.mp3	pa	da	1	right
6.6.1	and	2023-07-06	21:57:40	0	0	5e9bda4fc2758f0f5713a3f8	2	1	DL_test	15	DL_test	13			0		ba	1	1333	6	6	antiphase_hc_ois.wav	3	6	5	noise_calib_stim_RIGHT.wav	2	13	blb_dichoticlistening_ga-ba.mp3	ga	ba	1	right
6.6.1	and	2023-07-06	21:57:40	0	0	5e9bda4fc2758f0f5713a3f8	2	1	DL_test	15	DL_test	14			0		ka	1	2526	6	6	antiphase_hc_ois.wav	3	6	5	noise_calib_stim_RIGHT.wav	2	22	blb_dichoticlistening_ka-ka.mp3	ka	ka	0	left
6.6.1	and	2023-07-06	21:57:40	0	0	5e9bda4fc2758f0f5713a3f8	2	1	DL_test	15	DL_test	15			0		ka	1	1077	6	6	antiphase_hc_ois.wav	3	6	5	noise_calib_stim_RIGHT.wav	2	20	blb_dichoticlistening_ka-da.mp3	ka	da	1	left
6.6.1	and	2023-07-06	21:57:40	0	0	5e9bda4fc2758f0f5713a3f8	2	1	DL_test	15	DL_test	16			0		ga	1	1700	6	6	antiphase_hc_ois.wav	3	6	5	noise_calib_stim_RIGHT.wav	2	16	blb_dichoticlistening_ga-ka.mp3	ga	ka	1	left
6.6.1	and	2023-07-06	21:57:40	0	0	5e9bda4fc2758f0f5713a3f8	2	1	DL_test	15	DL_test	17			0		pa	1	1117	6	6	antiphase_hc_ois.wav	3	6	5	noise_calib_stim_RIGHT.wav	2	29	blb_dichoticlistening_pa-pa.mp3	pa	pa	0	left
6.6.1	and	2023-07-06	21:57:40	0	0	5e9bda4fc2758f0f5713a3f8	2	1	DL_test	15	DL_test	18			0		ba	1	1573	6	6	antiphase_hc_ois.wav	3	6	5	noise_calib_stim_RIGHT.wav	2	7	blb_dichoticlistening_da-ba.mp3	da	ba	1	right
6.6.1	and	2023-07-06	21:57:40	0	0	5e9bda4fc2758f0f5713a3f8	2	1	DL_test	15	DL_test	19			0		ta	0	1348	6	6	antiphase_hc_ois.wav	3	6	5	noise_calib_stim_RIGHT.wav	2	9	blb_dichoticlistening_da-ga.mp3	da	ga	1	other
6.6.1	and	2023-07-06	21:57:40	0	0	5e9bda4fc2758f0f5713a3f8	2	1	DL_test	15	DL_test	20			0		pa	0	3786	6	6	antiphase_hc_ois.wav	3	6	5	noise_calib_stim_RIGHT.wav	2	33	blb_dichoticlistening_ta-ga.mp3	ta	ga	1	other
6.6.1	and	2023-07-06	21:57:40	0	0	5e9bda4fc2758f0f5713a3f8	2	1	DL_test	15	DL_test	21			0		ga	1	1394	6	6	antiphase_hc_ois.wav	3	6	5	noise_calib_stim_RIGHT.wav	2	18	blb_dichoticlistening_ga-ta.mp3	ga	ta	1	left
6.6.1	and	2023-07-06	21:57:40	0	0	5e9bda4fc2758f0f5713a3f8	2	1	DL_test	15	DL_test	22			0		da	1	1097	6	6	antiphase_hc_ois.wav	3	6	5	noise_calib_stim_RIGHT.wav	2	12	blb_dichoticlistening_da-ta.mp3	da	ta	1	left
6.6.1	and	2023-07-06	21:57:40	0	0	5e9bda4fc2758f0f5713a3f8	2	1	DL_test	15	DL_test	23			0		ga	1	1072	6	6	antiphase_hc_ois.wav	3	6	5	noise_calib_stim_RIGHT.wav	2	14	blb_dichoticlistening_ga-da.mp3	ga	da	1	left
6.6.1	and	2023-07-06	21:57:40	0	0	5e9bda4fc2758f0f5713a3f8	2	1	DL_test	15	DL_test	24			0		da	1	2967	6	6	antiphase_hc_ois.wav	3	6	5	noise_calib_stim_RIGHT.wav	2	10	blb_dichoticlistening_da-ka.mp3	da	ka	1	left
6.6.1	and	2023-07-06	21:57:40	0	0	5e9bda4fc2758f0f5713a3f8	2	1	DL_test	15	DL_test	25			0		ba	1	1128	6	6	antiphase_hc_ois.wav	3	6	5	noise_calib_stim_RIGHT.wav	2	3	blb_dichoticlistening_ba-ga.mp3	ba	ga	1	left
6.6.1	and	2023-07-06	21:57:40	0	0	5e9bda4fc2758f0f5713a3f8	2	1	DL_test	15	DL_test	26			0		ba	1	1134	6	6	antiphase_hc_ois.wav	3	6	5	noise_calib_stim_RIGHT.wav	2	4	blb_dichoticlistening_ba-ka.mp3	ba	ka	1	left
6.6.1	and	2023-07-06	21:57:40	0	0	5e9bda4fc2758f0f5713a3f8	2	1	DL_test	15	DL_test	27			0		ba	1	885	6	6	antiphase_hc_ois.wav	3	6	5	noise_calib_stim_RIGHT.wav	2	5	blb_dichoticlistening_ba-pa.mp3	ba	pa	1	left
6.6.1	and	2023-07-06	21:57:40	0	0	5e9bda4fc2758f0f5713a3f8	2	1	DL_test	15	DL_test	28			0		ba	1	977	6	6	antiphase_hc_ois.wav	3	6	5	noise_calib_stim_RIGHT.wav	2	1	blb_dichoticlistening_ba-ba.mp3	ba	ba	0	left
6.6.1	and	2023-07-06	21:57:40	0	0	5e9bda4fc2758f0f5713a3f8	2	1	DL_test	15	DL_test	29			0		ka	0	1461	6	6	antiphase_hc_ois.wav	3	6	5	noise_calib_stim_RIGHT.wav	2	27	blb_dichoticlistening_pa-ga.mp3	pa	ga	1	other
6.6.1	and	2023-07-06	21:57:40	0	0	5e9bda4fc2758f0f5713a3f8	2	1	DL_test	15	DL_test	30			0		ga	0	2937	6	6	antiphase_hc_ois.wav	3	6	5	noise_calib_stim_RIGHT.wav	2	6	blb_dichoticlistening_ba-ta.mp3	ba	ta	1	other
6.6.1	and	2023-07-06	21:57:40	0	0	5e9bda4fc2758f0f5713a3f8	2	1	DL_test	15	DL_test	31			0		ta	1	1308	6	6	antiphase_hc_ois.wav	3	6	5	noise_calib_stim_RIGHT.wav	2	34	blb_dichoticlistening_ta-ka.mp3	ta	ka	1	left
6.6.1	and	2023-07-06	21:57:40	0	0	5e9bda4fc2758f0f5713a3f8	2	1	DL_test	15	DL_test	32			0		da	1	1413	6	6	antiphase_hc_ois.wav	3	6	5	noise_calib_stim_RIGHT.wav	2	32	blb_dichoticlistening_ta-da.mp3	ta	da	1	right
6.6.1	and	2023-07-06	21:57:40	0	0	5e9bda4fc2758f0f5713a3f8	2	1	DL_test	15	DL_test	33			0		ta	0	1905	6	6	antiphase_hc_ois.wav	3	6	5	noise_calib_stim_RIGHT.wav	2	11	blb_dichoticlistening_da-pa.mp3	da	pa	1	other
6.6.1	and	2023-07-06	21:57:40	0	0	5e9bda4fc2758f0f5713a3f8	2	1	DL_test	15	DL_test	34			0		ga	0	2128	6	6	antiphase_hc_ois.wav	3	6	5	noise_calib_stim_RIGHT.wav	2	2	blb_dichoticlistening_ba-da.mp3	ba	da	1	other
6.6.1	and	2023-07-06	21:57:40	0	0	5e9bda4fc2758f0f5713a3f8	2	1	DL_test	15	DL_test	35			0		ka	1	904	6	6	antiphase_hc_ois.wav	3	6	5	noise_calib_stim_RIGHT.wav	2	28	blb_dichoticlistening_pa-ka.mp3	pa	ka	1	right
6.6.1	and	2023-07-06	21:57:40	0	0	5e9bda4fc2758f0f5713a3f8	2	1	DL_test	15	DL_test	36			0		ta	0	2000	6	6	antiphase_hc_ois.wav	3	6	5	noise_calib_stim_RIGHT.wav	2	21	blb_dichoticlistening_ka-ga.mp3	ka	ga	1	other
6.6.1	and	2023-07-06	21:57:40	0	0	5e9bda4fc2758f0f5713a3f8	2	1	DL_test	16	DL_test	1			0		ta	1	1404	6	6	antiphase_hc_ois.wav	3	6	5	noise_calib_stim_RIGHT.wav	2	35	blb_dichoticlistening_ta-pa.mp3	ta	pa	1	left
6.6.1	and	2023-07-06	21:57:40	0	0	5e9bda4fc2758f0f5713a3f8	2	1	DL_test	16	DL_test	2			0		ka	1	1511	6	6	antiphase_hc_ois.wav	3	6	5	noise_calib_stim_RIGHT.wav	2	4	blb_dichoticlistening_ba-ka.mp3	ba	ka	1	right
6.6.1	and	2023-07-06	21:57:40	0	0	5e9bda4fc2758f0f5713a3f8	2	1	DL_test	16	DL_test	3			0		da	1	1513	6	6	antiphase_hc_ois.wav	3	6	5	noise_calib_stim_RIGHT.wav	2	11	blb_dichoticlistening_da-pa.mp3	da	pa	1	left
6.6.1	and	2023-07-06	21:57:40	0	0	5e9bda4fc2758f0f5713a3f8	2	1	DL_test	16	DL_test	4			0		da	1	2648	6	6	antiphase_hc_ois.wav	3	6	5	noise_calib_stim_RIGHT.wav	2	7	blb_dichoticlistening_da-ba.mp3	da	ba	1	left
6.6.1	and	2023-07-06	21:57:40	0	0	5e9bda4fc2758f0f5713a3f8	2	1	DL_test	16	DL_test	5			0		ga	1	1297	6	6	antiphase_hc_ois.wav	3	6	5	noise_calib_stim_RIGHT.wav	2	15	blb_dichoticlistening_ga-ga.mp3	ga	ga	0	left
6.6.1	and	2023-07-06	21:57:40	0	0	5e9bda4fc2758f0f5713a3f8	2	1	DL_test	16	DL_test	6			0		ta	1	1439	6	6	antiphase_hc_ois.wav	3	6	5	noise_calib_stim_RIGHT.wav	2	36	blb_dichoticlistening_ta-ta.mp3	ta	ta	0	left
6.6.1	and	2023-07-06	21:57:40	0	0	5e9bda4fc2758f0f5713a3f8	2	1	DL_test	16	DL_test	7			0		ba	1	1440	6	6	antiphase_hc_ois.wav	3	6	5	noise_calib_stim_RIGHT.wav	2	5	blb_dichoticlistening_ba-pa.mp3	ba	pa	1	left
6.6.1	and	2023-07-06	21:57:40	0	0	5e9bda4fc2758f0f5713a3f8	2	1	DL_test	16	DL_test	8			0		ka	1	1813	6	6	antiphase_hc_ois.wav	3	6	5	noise_calib_stim_RIGHT.wav	2	34	blb_dichoticlistening_ta-ka.mp3	ta	ka	1	right
6.6.1	and	2023-07-06	21:57:40	0	0	5e9bda4fc2758f0f5713a3f8	2	1	DL_test	16	DL_test	9			0		ka	0	2029	6	6	antiphase_hc_ois.wav	3	6	5	noise_calib_stim_RIGHT.wav	2	6	blb_dichoticlistening_ba-ta.mp3	ba	ta	1	other
6.6.1	and	2023-07-06	21:57:40	0	0	5e9bda4fc2758f0f5713a3f8	2	1	DL_test	16	DL_test	10			0		pa	1	1345	6	6	antiphase_hc_ois.wav	3	6	5	noise_calib_stim_RIGHT.wav	2	29	blb_dichoticlistening_pa-pa.mp3	pa	pa	0	left
6.6.1	and	2023-07-06	21:57:40	0	0	5e9bda4fc2758f0f5713a3f8	2	1	DL_test	16	DL_test	11			0		ta	1	1645	6	6	antiphase_hc_ois.wav	3	6	5	noise_calib_stim_RIGHT.wav	2	30	blb_dichoticlistening_pa-ta.mp3	pa	ta	1	right
6.6.1	and	2023-07-06	21:57:40	0	0	5e9bda4fc2758f0f5713a3f8	2	1	DL_test	16	DL_test	12			0		ga	1	2045	6	6	antiphase_hc_ois.wav	3	6	5	noise_calib_stim_RIGHT.wav	2	33	blb_dichoticlistening_ta-ga.mp3	ta	ga	1	right
6.6.1	and	2023-07-06	21:57:40	0	0	5e9bda4fc2758f0f5713a3f8	2	1	DL_test	16	DL_test	13			0		ga	1	1342	6	6	antiphase_hc_ois.wav	3	6	5	noise_calib_stim_RIGHT.wav	2	14	blb_dichoticlistening_ga-da.mp3	ga	da	1	left
6.6.1	and	2023-07-06	21:57:40	0	0	5e9bda4fc2758f0f5713a3f8	2	1	DL_test	16	DL_test	14			0		ga	1	885	6	6	antiphase_hc_ois.wav	3	6	5	noise_calib_stim_RIGHT.wav	2	9	blb_dichoticlistening_da-ga.mp3	da	ga	1	right
6.6.1	and	2023-07-06	21:57:40	0	0	5e9bda4fc2758f0f5713a3f8	2	1	DL_test	16	DL_test	15			0		ka	1	1260	6	6	antiphase_hc_ois.wav	3	6	5	noise_calib_stim_RIGHT.wav	2	23	blb_dichoticlistening_ka-pa.mp3	ka	pa	1	left
6.6.1	and	2023-07-06	21:57:40	0	0	5e9bda4fc2758f0f5713a3f8	2	1	DL_test	16	DL_test	16			0		da	1	1867	6	6	antiphase_hc_ois.wav	3	6	5	noise_calib_stim_RIGHT.wav	2	10	blb_dichoticlistening_da-ka.mp3	da	ka	1	left
6.6.1	and	2023-07-06	21:57:40	0	0	5e9bda4fc2758f0f5713a3f8	2	1	DL_test	16	DL_test	17			0		pa	1	2200	6	6	antiphase_hc_ois.wav	3	6	5	noise_calib_stim_RIGHT.wav	2	25	blb_dichoticlistening_pa-ba.mp3	pa	ba	1	left
6.6.1	and	2023-07-06	21:57:40	0	0	5e9bda4fc2758f0f5713a3f8	2	1	DL_test	16	DL_test	18			0		ba	1	3095	6	6	antiphase_hc_ois.wav	3	6	5	noise_calib_stim_RIGHT.wav	2	19	blb_dichoticlistening_ka-ba.mp3	ka	ba	1	right
6.6.1	and	2023-07-06	21:57:40	0	0	5e9bda4fc2758f0f5713a3f8	2	1	DL_test	16	DL_test	19			0		ba	1	1416	6	6	antiphase_hc_ois.wav	3	6	5	noise_calib_stim_RIGHT.wav	2	1	blb_dichoticlistening_ba-ba.mp3	ba	ba	0	left
6.6.1	and	2023-07-06	21:57:40	0	0	5e9bda4fc2758f0f5713a3f8	2	1	DL_test	16	DL_test	20			0		ba	1	765	6	6	antiphase_hc_ois.wav	3	6	5	noise_calib_stim_RIGHT.wav	2	2	blb_dichoticlistening_ba-da.mp3	ba	da	1	left
6.6.1	and	2023-07-06	21:57:40	0	0	5e9bda4fc2758f0f5713a3f8	2	1	DL_test	16	DL_test	21			0		ta	1	1790	6	6	antiphase_hc_ois.wav	3	6	5	noise_calib_stim_RIGHT.wav	2	31	blb_dichoticlistening_ta-ba.mp3	ta	ba	1	left
6.6.1	and	2023-07-06	21:57:40	0	0	5e9bda4fc2758f0f5713a3f8	2	1	DL_test	16	DL_test	22			0		da	1	2170	6	6	antiphase_hc_ois.wav	3	6	5	noise_calib_stim_RIGHT.wav	2	32	blb_dichoticlistening_ta-da.mp3	ta	da	1	right
6.6.1	and	2023-07-06	21:57:40	0	0	5e9bda4fc2758f0f5713a3f8	2	1	DL_test	16	DL_test	23			0		ka	1	2855	6	6	antiphase_hc_ois.wav	3	6	5	noise_calib_stim_RIGHT.wav	2	28	blb_dichoticlistening_pa-ka.mp3	pa	ka	1	right
6.6.1	and	2023-07-06	21:57:40	0	0	5e9bda4fc2758f0f5713a3f8	2	1	DL_test	16	DL_test	24			0		ga	1	1401	6	6	antiphase_hc_ois.wav	3	6	5	noise_calib_stim_RIGHT.wav	2	27	blb_dichoticlistening_pa-ga.mp3	pa	ga	1	right
6.6.1	and	2023-07-06	21:57:40	0	0	5e9bda4fc2758f0f5713a3f8	2	1	DL_test	16	DL_test	25			0		ga	1	2316	6	6	antiphase_hc_ois.wav	3	6	5	noise_calib_stim_RIGHT.wav	2	18	blb_dichoticlistening_ga-ta.mp3	ga	ta	1	left
6.6.1	and	2023-07-06	21:57:40	0	0	5e9bda4fc2758f0f5713a3f8	2	1	DL_test	16	DL_test	26			0		ka	1	3721	6	6	antiphase_hc_ois.wav	3	6	5	noise_calib_stim_RIGHT.wav	2	24	blb_dichoticlistening_ka-ta.mp3	ka	ta	1	left
6.6.1	and	2023-07-06	21:57:40	0	0	5e9bda4fc2758f0f5713a3f8	2	1	DL_test	16	DL_test	27			0		ba	1	2899	6	6	antiphase_hc_ois.wav	3	6	5	noise_calib_stim_RIGHT.wav	2	13	blb_dichoticlistening_ga-ba.mp3	ga	ba	1	right
6.6.1	and	2023-07-06	21:57:40	0	0	5e9bda4fc2758f0f5713a3f8	2	1	DL_test	16	DL_test	28			0		ga	1	1212	6	6	antiphase_hc_ois.wav	3	6	5	noise_calib_stim_RIGHT.wav	2	3	blb_dichoticlistening_ba-ga.mp3	ba	ga	1	right
6.6.1	and	2023-07-06	21:57:40	0	0	5e9bda4fc2758f0f5713a3f8	2	1	DL_test	16	DL_test	29			0		ka	1	3440	6	6	antiphase_hc_ois.wav	3	6	5	noise_calib_stim_RIGHT.wav	2	20	blb_dichoticlistening_ka-da.mp3	ka	da	1	left
6.6.1	and	2023-07-06	21:57:40	0	0	5e9bda4fc2758f0f5713a3f8	2	1	DL_test	16	DL_test	30			0		ga	1	1041	6	6	antiphase_hc_ois.wav	3	6	5	noise_calib_stim_RIGHT.wav	2	16	blb_dichoticlistening_ga-ka.mp3	ga	ka	1	left
6.6.1	and	2023-07-06	21:57:40	0	0	5e9bda4fc2758f0f5713a3f8	2	1	DL_test	16	DL_test	31			0		ka	1	1535	6	6	antiphase_hc_ois.wav	3	6	5	noise_calib_stim_RIGHT.wav	2	22	blb_dichoticlistening_ka-ka.mp3	ka	ka	0	left
6.6.1	and	2023-07-06	21:57:40	0	0	5e9bda4fc2758f0f5713a3f8	2	1	DL_test	16	DL_test	32			0		ga	1	1267	6	6	antiphase_hc_ois.wav	3	6	5	noise_calib_stim_RIGHT.wav	2	17	blb_dichoticlistening_ga-pa.mp3	ga	pa	1	left
6.6.1	and	2023-07-06	21:57:40	0	0	5e9bda4fc2758f0f5713a3f8	2	1	DL_test	16	DL_test	33			0		ga	1	1684	6	6	antiphase_hc_ois.wav	3	6	5	noise_calib_stim_RIGHT.wav	2	21	blb_dichoticlistening_ka-ga.mp3	ka	ga	1	right
6.6.1	and	2023-07-06	21:57:40	0	0	5e9bda4fc2758f0f5713a3f8	2	1	DL_test	16	DL_test	34			0		da	1	2118	6	6	antiphase_hc_ois.wav	3	6	5	noise_calib_stim_RIGHT.wav	2	26	blb_dichoticlistening_pa-da.mp3	pa	da	1	right
6.6.1	and	2023-07-06	21:57:40	0	0	5e9bda4fc2758f0f5713a3f8	2	1	DL_test	16	DL_test	35			0		da	1	2175	6	6	antiphase_hc_ois.wav	3	6	5	noise_calib_stim_RIGHT.wav	2	8	blb_dichoticlistening_da-da.mp3	da	da	0	left
6.6.1	and	2023-07-06	21:57:40	0	0	5e9bda4fc2758f0f5713a3f8	2	1	DL_test	16	DL_test	36			0		da	1	2318	6	6	antiphase_hc_ois.wav	3	6	5	noise_calib_stim_RIGHT.wav	2	12	blb_dichoticlistening_da-ta.mp3	da	ta	1	left
6.6.1	and	2023-07-06	21:57:40	22:23:22	1505192	5e9bda4fc2758f0f5713a3f8	2	1	practice_z	22	practice_z	1	stimuli_distractor_diamondtriangles.svg	stimuli_distractor_diamondtriangles.svg	13	no	0	1	2000	6	6	antiphase_hc_ois.wav	3	6	5	noise_calib_stim_RIGHT.wav	2	12	blb_dichoticlistening_da-ta.mp3	da	ta	1	left
6.6.1	and	2023-07-06	21:57:40	22:23:22	1505192	5e9bda4fc2758f0f5713a3f8	2	1	practice_z	22	advance_on_keypress_ZEE	2	stimuli_distractor_diamondtriangles.svg	stimuli_distractor_diamondtriangles.svg	13	no	57	0	1228	6	6	antiphase_hc_ois.wav	3	6	5	noise_calib_stim_RIGHT.wav	2	12	blb_dichoticlistening_da-ta.mp3	da	ta	1	left
6.6.1	and	2023-07-06	21:57:40	22:23:27	1509950	5e9bda4fc2758f0f5713a3f8	2	1	practice_z	22	practice_z	3	stimuli_distractor_diamondtriangles.svg	stimuli_target_rectangletriangles.svg	7	yes	44	1	1871	6	6	antiphase_hc_ois.wav	3	6	5	noise_calib_stim_RIGHT.wav	2	12	blb_dichoticlistening_da-ta.mp3	da	ta	1	left
6.6.1	and	2023-07-06	21:57:40	22:23:27	1509950	5e9bda4fc2758f0f5713a3f8	2	1	practice_z	22	advance_on_keypress_ZEE	4	stimuli_distractor_diamondtriangles.svg	stimuli_target_rectangletriangles.svg	7	yes	57	0	1647	6	6	antiphase_hc_ois.wav	3	6	5	noise_calib_stim_RIGHT.wav	2	12	blb_dichoticlistening_da-ta.mp3	da	ta	1	left
6.6.1	and	2023-07-06	21:57:40	22:23:32	1515049	5e9bda4fc2758f0f5713a3f8	2	1	practice_z	22	practice_z	5	stimuli_distractor_trianglediamonds.svg	stimuli_target_diamondrectangles.svg	12	yes	44	1	1773	6	6	antiphase_hc_ois.wav	3	6	5	noise_calib_stim_RIGHT.wav	2	12	blb_dichoticlistening_da-ta.mp3	da	ta	1	left
6.6.1	and	2023-07-06	21:57:40	22:23:32	1515049	5e9bda4fc2758f0f5713a3f8	2	1	practice_z	22	advance_on_keypress_ZEE	6	stimuli_distractor_trianglediamonds.svg	stimuli_target_diamondrectangles.svg	12	yes	57	0	973	6	6	antiphase_hc_ois.wav	3	6	5	noise_calib_stim_RIGHT.wav	2	12	blb_dichoticlistening_da-ta.mp3	da	ta	1	left
6.6.1	and	2023-07-06	21:57:40	22:23:36	1518837	5e9bda4fc2758f0f5713a3f8	2	1	practice_z	22	practice_z	7	stimuli_target_rectanglediamonds.svg	stimuli_distractor_diamondtriangles.svg	1	yes	44	1	1158	6	6	antiphase_hc_ois.wav	3	6	5	noise_calib_stim_RIGHT.wav	2	12	blb_dichoticlistening_da-ta.mp3	da	ta	1	left
6.6.1	and	2023-07-06	21:57:40	22:23:36	1518837	5e9bda4fc2758f0f5713a3f8	2	1	practice_z	22	advance_on_keypress_ZEE	8	stimuli_target_rectanglediamonds.svg	stimuli_distractor_diamondtriangles.svg	1	yes	57	0	506	6	6	antiphase_hc_ois.wav	3	6	5	noise_calib_stim_RIGHT.wav	2	12	blb_dichoticlistening_da-ta.mp3	da	ta	1	left
6.6.1	and	2023-07-06	21:57:40	22:23:39	1522655	5e9bda4fc2758f0f5713a3f8	2	1	practice_z	22	practice_z	9	stimuli_distractor_trianglediamonds.svg	stimuli_target_rectanglediamonds.svg	10	yes	44	1	1655	6	6	antiphase_hc_ois.wav	3	6	5	noise_calib_stim_RIGHT.wav	2	12	blb_dichoticlistening_da-ta.mp3	da	ta	1	left
6.6.1	and	2023-07-06	21:57:40	22:23:39	1522655	5e9bda4fc2758f0f5713a3f8	2	1	practice_z	22	advance_on_keypress_ZEE	10	stimuli_distractor_trianglediamonds.svg	stimuli_target_rectanglediamonds.svg	10	yes	57	0	521	6	6	antiphase_hc_ois.wav	3	6	5	noise_calib_stim_RIGHT.wav	2	12	blb_dichoticlistening_da-ta.mp3	da	ta	1	left
6.6.1	and	2023-07-06	21:57:40	22:23:43	1526573	5e9bda4fc2758f0f5713a3f8	2	1	practice_z	22	practice_z	11	stimuli_distractor_diamondtriangles.svg	stimuli_target_trianglerectangles.svg	9	yes	44	1	1723	6	6	antiphase_hc_ois.wav	3	6	5	noise_calib_stim_RIGHT.wav	2	12	blb_dichoticlistening_da-ta.mp3	da	ta	1	left
6.6.1	and	2023-07-06	21:57:40	22:23:43	1526573	5e9bda4fc2758f0f5713a3f8	2	1	practice_z	22	advance_on_keypress_ZEE	12	stimuli_distractor_diamondtriangles.svg	stimuli_target_trianglerectangles.svg	9	yes	57	0	581	6	6	antiphase_hc_ois.wav	3	6	5	noise_calib_stim_RIGHT.wav	2	12	blb_dichoticlistening_da-ta.mp3	da	ta	1	left
6.6.1	and	2023-07-06	21:57:40	22:23:47	1530699	5e9bda4fc2758f0f5713a3f8	2	1	practice_z	22	practice_z	13	stimuli_target_diamondsquares.svg	stimuli_distractor_diamondtriangles.svg	3	yes	44	1	1888	6	6	antiphase_hc_ois.wav	3	6	5	noise_calib_stim_RIGHT.wav	2	12	blb_dichoticlistening_da-ta.mp3	da	ta	1	left
6.6.1	and	2023-07-06	21:57:40	22:23:47	1530699	5e9bda4fc2758f0f5713a3f8	2	1	practice_z	22	advance_on_keypress_ZEE	14	stimuli_target_diamondsquares.svg	stimuli_distractor_diamondtriangles.svg	3	yes	57	0	498	6	6	antiphase_hc_ois.wav	3	6	5	noise_calib_stim_RIGHT.wav	2	12	blb_dichoticlistening_da-ta.mp3	da	ta	1	left
6.6.1	and	2023-07-06	21:57:40	22:23:51	1534680	5e9bda4fc2758f0f5713a3f8	2	1	practice_z	22	practice_z	15	stimuli_distractor_trianglediamonds.svg	stimuli_target_squarediamonds.svg	11	yes	44	1	1820	6	6	antiphase_hc_ois.wav	3	6	5	noise_calib_stim_RIGHT.wav	2	12	blb_dichoticlistening_da-ta.mp3	da	ta	1	left
6.6.1	and	2023-07-06	21:57:40	22:23:51	1534680	5e9bda4fc2758f0f5713a3f8	2	1	practice_z	22	advance_on_keypress_ZEE	16	stimuli_distractor_trianglediamonds.svg	stimuli_target_squarediamonds.svg	11	yes	57	0	603	6	6	antiphase_hc_ois.wav	3	6	5	noise_calib_stim_RIGHT.wav	2	12	blb_dichoticlistening_da-ta.mp3	da	ta	1	left
6.6.1	and	2023-07-06	21:57:40	22:23:55	1537869	5e9bda4fc2758f0f5713a3f8	2	1	practice_z	22	practice_z	17	stimuli_distractor_diamondtriangles.svg	stimuli_target_diamondrectangles.svg	8	yes	44	1	957	6	6	antiphase_hc_ois.wav	3	6	5	noise_calib_stim_RIGHT.wav	2	12	blb_dichoticlistening_da-ta.mp3	da	ta	1	left
6.6.1	and	2023-07-06	21:57:40	22:23:55	1537869	5e9bda4fc2758f0f5713a3f8	2	1	practice_z	22	advance_on_keypress_ZEE	18	stimuli_distractor_diamondtriangles.svg	stimuli_target_diamondrectangles.svg	8	yes	57	0	562	6	6	antiphase_hc_ois.wav	3	6	5	noise_calib_stim_RIGHT.wav	2	12	blb_dichoticlistening_da-ta.mp3	da	ta	1	left
6.6.1	and	2023-07-06	21:57:40	22:23:58	1541021	5e9bda4fc2758f0f5713a3f8	2	1	practice_z	22	practice_z	19	stimuli_distractor_diamondtriangles.svg	stimuli_distractor_trianglediamonds.svg	14	no	44	0	956	6	6	antiphase_hc_ois.wav	3	6	5	noise_calib_stim_RIGHT.wav	2	12	blb_dichoticlistening_da-ta.mp3	da	ta	1	left
6.6.1	and	2023-07-06	21:57:40	22:23:58	1541021	5e9bda4fc2758f0f5713a3f8	2	1	practice_z	22	advance_on_keypress_ZEE	20	stimuli_distractor_diamondtriangles.svg	stimuli_distractor_trianglediamonds.svg	14	no	57	0	537	6	6	antiphase_hc_ois.wav	3	6	5	noise_calib_stim_RIGHT.wav	2	12	blb_dichoticlistening_da-ta.mp3	da	ta	1	left
6.6.1	and	2023-07-06	21:57:40	22:24:01	1544151	5e9bda4fc2758f0f5713a3f8	2	1	practice_z	22	practice_z	21	stimuli_target_squarediamonds.svg	stimuli_distractor_trianglediamonds.svg	5	yes	44	1	960	6	6	antiphase_hc_ois.wav	3	6	5	noise_calib_stim_RIGHT.wav	2	12	blb_dichoticlistening_da-ta.mp3	da	ta	1	left
6.6.1	and	2023-07-06	21:57:40	22:24:01	1544151	5e9bda4fc2758f0f5713a3f8	2	1	practice_z	22	advance_on_keypress_ZEE	22	stimuli_target_squarediamonds.svg	stimuli_distractor_trianglediamonds.svg	5	yes	57	0	526	6	6	antiphase_hc_ois.wav	3	6	5	noise_calib_stim_RIGHT.wav	2	12	blb_dichoticlistening_da-ta.mp3	da	ta	1	left
6.6.1	and	2023-07-06	21:57:40	22:24:05	1548330	5e9bda4fc2758f0f5713a3f8	2	1	practice_z	22	practice_z	23	stimuli_distractor_trianglediamonds.svg	stimuli_distractor_diamondtriangles.svg	16	no	0	1	2000	6	6	antiphase_hc_ois.wav	3	6	5	noise_calib_stim_RIGHT.wav	2	12	blb_dichoticlistening_da-ta.mp3	da	ta	1	left
6.6.1	and	2023-07-06	21:57:40	22:24:05	1548330	5e9bda4fc2758f0f5713a3f8	2	1	practice_z	22	advance_on_keypress_ZEE	24	stimuli_distractor_trianglediamonds.svg	stimuli_distractor_diamondtriangles.svg	16	no	57	0	313	6	6	antiphase_hc_ois.wav	3	6	5	noise_calib_stim_RIGHT.wav	2	12	blb_dichoticlistening_da-ta.mp3	da	ta	1	left
6.6.1	and	2023-07-06	21:57:40	22:24:09	1551761	5e9bda4fc2758f0f5713a3f8	2	1	practice_z	22	practice_z	25	stimuli_target_diamondsquares.svg	stimuli_distractor_trianglediamonds.svg	6	yes	44	1	1469	6	6	antiphase_hc_ois.wav	3	6	5	noise_calib_stim_RIGHT.wav	2	12	blb_dichoticlistening_da-ta.mp3	da	ta	1	left
6.6.1	and	2023-07-06	21:57:40	22:24:09	1551761	5e9bda4fc2758f0f5713a3f8	2	1	practice_z	22	advance_on_keypress_ZEE	26	stimuli_target_diamondsquares.svg	stimuli_distractor_trianglediamonds.svg	6	yes	57	0	618	6	6	antiphase_hc_ois.wav	3	6	5	noise_calib_stim_RIGHT.wav	2	12	blb_dichoticlistening_da-ta.mp3	da	ta	1	left
6.6.1	and	2023-07-06	21:57:40	22:24:12	1555663	5e9bda4fc2758f0f5713a3f8	2	1	practice_z	22	practice_z	27	stimuli_target_squarediamonds.svg	stimuli_distractor_diamondtriangles.svg	2	yes	44	1	1634	6	6	antiphase_hc_ois.wav	3	6	5	noise_calib_stim_RIGHT.wav	2	12	blb_dichoticlistening_da-ta.mp3	da	ta	1	left
6.6.1	and	2023-07-06	21:57:40	22:24:12	1555663	5e9bda4fc2758f0f5713a3f8	2	1	practice_z	22	advance_on_keypress_ZEE	28	stimuli_target_squarediamonds.svg	stimuli_distractor_diamondtriangles.svg	2	yes	57	0	506	6	6	antiphase_hc_ois.wav	3	6	5	noise_calib_stim_RIGHT.wav	2	12	blb_dichoticlistening_da-ta.mp3	da	ta	1	left
6.6.1	and	2023-07-06	21:57:40	22:24:16	1559252	5e9bda4fc2758f0f5713a3f8	2	1	practice_z	22	practice_z	29	stimuli_target_rectanglediamonds.svg	stimuli_distractor_trianglediamonds.svg	4	yes	44	1	1437	6	6	antiphase_hc_ois.wav	3	6	5	noise_calib_stim_RIGHT.wav	2	12	blb_dichoticlistening_da-ta.mp3	da	ta	1	left
6.6.1	and	2023-07-06	21:57:40	22:24:16	1559252	5e9bda4fc2758f0f5713a3f8	2	1	practice_z	22	advance_on_keypress_ZEE	30	stimuli_target_rectanglediamonds.svg	stimuli_distractor_trianglediamonds.svg	4	yes	57	0	530	6	6	antiphase_hc_ois.wav	3	6	5	noise_calib_stim_RIGHT.wav	2	12	blb_dichoticlistening_da-ta.mp3	da	ta	1	left
6.6.1	and	2023-07-06	21:57:40	22:24:20	1563427	5e9bda4fc2758f0f5713a3f8	2	1	practice_z	22	practice_z	31	stimuli_distractor_trianglediamonds.svg	stimuli_distractor_trianglediamonds.svg	15	no	0	1	2000	6	6	antiphase_hc_ois.wav	3	6	5	noise_calib_stim_RIGHT.wav	2	12	blb_dichoticlistening_da-ta.mp3	da	ta	1	left
6.6.1	and	2023-07-06	21:57:40	22:24:20	1563427	5e9bda4fc2758f0f5713a3f8	2	1	practice_z	22	advance_on_keypress_ZEE	32	stimuli_distractor_trianglediamonds.svg	stimuli_distractor_trianglediamonds.svg	15	no	57	0	143	6	6	antiphase_hc_ois.wav	3	6	5	noise_calib_stim_RIGHT.wav	2	12	blb_dichoticlistening_da-ta.mp3	da	ta	1	left
6.6.1	and	2023-07-06	21:57:40	22:24:28	1571028	5e9bda4fc2758f0f5713a3f8	2	1	main_z	24	main_z	1	stimuli_target_diamondrectangles.svg	stimuli_distractor_diamondtriangles.svg	23	yes	44	1	1288	6	6	antiphase_hc_ois.wav	3	6	5	noise_calib_stim_RIGHT.wav	2	12	blb_dichoticlistening_da-ta.mp3	da	ta	1	left
6.6.1	and	2023-07-06	21:57:40	22:24:28	1571028	5e9bda4fc2758f0f5713a3f8	2	1	main_z	24	advance_on_keypress_ZEE	2	stimuli_target_diamondrectangles.svg	stimuli_distractor_diamondtriangles.svg	23	yes	57	0	1045	6	6	antiphase_hc_ois.wav	3	6	5	noise_calib_stim_RIGHT.wav	2	12	blb_dichoticlistening_da-ta.mp3	da	ta	1	left
6.6.1	and	2023-07-06	21:57:40	22:24:31	1574239	5e9bda4fc2758f0f5713a3f8	2	1	main_z	24	main_z	3	stimuli_target_squarediamonds.svg	stimuli_distractor_trianglediamonds.svg	4	yes	44	1	1513	6	6	antiphase_hc_ois.wav	3	6	5	noise_calib_stim_RIGHT.wav	2	12	blb_dichoticlistening_da-ta.mp3	da	ta	1	left
6.6.1	and	2023-07-06	21:57:40	22:24:31	1574239	5e9bda4fc2758f0f5713a3f8	2	1	main_z	24	advance_on_keypress_ZEE	4	stimuli_target_squarediamonds.svg	stimuli_distractor_trianglediamonds.svg	4	yes	57	0	911	6	6	antiphase_hc_ois.wav	3	6	5	noise_calib_stim_RIGHT.wav	2	12	blb_dichoticlistening_da-ta.mp3	da	ta	1	left
6.6.1	and	2023-07-06	21:57:40	22:24:34	1577077	5e9bda4fc2758f0f5713a3f8	2	1	main_z	24	main_z	5	stimuli_target_rectangletriangles.svg	stimuli_distractor_trianglediamonds.svg	1	yes	44	1	1289	6	6	antiphase_hc_ois.wav	3	6	5	noise_calib_stim_RIGHT.wav	2	12	blb_dichoticlistening_da-ta.mp3	da	ta	1	left
6.6.1	and	2023-07-06	21:57:40	22:24:34	1577077	5e9bda4fc2758f0f5713a3f8	2	1	main_z	24	advance_on_keypress_ZEE	6	stimuli_target_rectangletriangles.svg	stimuli_distractor_trianglediamonds.svg	1	yes	57	0	684	6	6	antiphase_hc_ois.wav	3	6	5	noise_calib_stim_RIGHT.wav	2	12	blb_dichoticlistening_da-ta.mp3	da	ta	1	left
6.6.1	and	2023-07-06	21:57:40	22:24:37	1580408	5e9bda4fc2758f0f5713a3f8	2	1	main_z	24	main_z	7	stimuli_distractor_trianglediamonds.svg	stimuli_target_squaretriangles.svg	11	yes	0	0	2000	6	6	antiphase_hc_ois.wav	3	6	5	noise_calib_stim_RIGHT.wav	2	12	blb_dichoticlistening_da-ta.mp3	da	ta	1	left
6.6.1	and	2023-07-06	21:57:40	22:24:37	1580408	5e9bda4fc2758f0f5713a3f8	2	1	main_z	24	advance_on_keypress_ZEE	8	stimuli_distractor_trianglediamonds.svg	stimuli_target_squaretriangles.svg	11	yes	57	0	355	6	6	antiphase_hc_ois.wav	3	6	5	noise_calib_stim_RIGHT.wav	2	12	blb_dichoticlistening_da-ta.mp3	da	ta	1	left
6.6.1	and	2023-07-06	21:57:40	22:24:39	1582694	5e9bda4fc2758f0f5713a3f8	2	1	main_z	24	main_z	9	stimuli_target_trianglesquares.svg	stimuli_distractor_trianglediamonds.svg	18	yes	44	1	1284	6	6	antiphase_hc_ois.wav	3	6	5	noise_calib_stim_RIGHT.wav	2	12	blb_dichoticlistening_da-ta.mp3	da	ta	1	left
6.6.1	and	2023-07-06	21:57:40	22:24:39	1582694	5e9bda4fc2758f0f5713a3f8	2	1	main_z	24	advance_on_keypress_ZEE	10	stimuli_target_trianglesquares.svg	stimuli_distractor_trianglediamonds.svg	18	yes	57	0	959	6	6	antiphase_hc_ois.wav	3	6	5	noise_calib_stim_RIGHT.wav	2	12	blb_dichoticlistening_da-ta.mp3	da	ta	1	left
6.6.1	and	2023-07-06	21:57:40	22:24:43	1585885	5e9bda4fc2758f0f5713a3f8	2	1	main_z	24	main_z	11	stimuli_target_trianglesquares.svg	stimuli_distractor_diamondtriangles.svg	22	yes	44	1	1579	6	6	antiphase_hc_ois.wav	3	6	5	noise_calib_stim_RIGHT.wav	2	12	blb_dichoticlistening_da-ta.mp3	da	ta	1	left
6.6.1	and	2023-07-06	21:57:40	22:24:43	1585885	5e9bda4fc2758f0f5713a3f8	2	1	main_z	24	advance_on_keypress_ZEE	12	stimuli_target_trianglesquares.svg	stimuli_distractor_diamondtriangles.svg	22	yes	57	0	716	6	6	antiphase_hc_ois.wav	3	6	5	noise_calib_stim_RIGHT.wav	2	12	blb_dichoticlistening_da-ta.mp3	da	ta	1	left
6.6.1	and	2023-07-06	21:57:40	22:24:46	1588836	5e9bda4fc2758f0f5713a3f8	2	1	main_z	24	main_z	13	stimuli_target_squarediamonds.svg	stimuli_distractor_diamondtriangles.svg	8	yes	44	1	1598	6	6	antiphase_hc_ois.wav	3	6	5	noise_calib_stim_RIGHT.wav	2	12	blb_dichoticlistening_da-ta.mp3	da	ta	1	left
6.6.1	and	2023-07-06	21:57:40	22:24:46	1588836	5e9bda4fc2758f0f5713a3f8	2	1	main_z	24	advance_on_keypress_ZEE	14	stimuli_target_squarediamonds.svg	stimuli_distractor_diamondtriangles.svg	8	yes	57	0	775	6	6	antiphase_hc_ois.wav	3	6	5	noise_calib_stim_RIGHT.wav	2	12	blb_dichoticlistening_da-ta.mp3	da	ta	1	left
6.6.1	and	2023-07-06	21:57:40	22:24:48	1591624	5e9bda4fc2758f0f5713a3f8	2	1	main_z	24	main_z	15	stimuli_distractor_diamondtriangles.svg	stimuli_target_diamondrectangles.svg	31	yes	44	1	1370	6	6	antiphase_hc_ois.wav	3	6	5	noise_calib_stim_RIGHT.wav	2	12	blb_dichoticlistening_da-ta.mp3	da	ta	1	left
6.6.1	and	2023-07-06	21:57:40	22:24:48	1591624	5e9bda4fc2758f0f5713a3f8	2	1	main_z	24	advance_on_keypress_ZEE	16	stimuli_distractor_diamondtriangles.svg	stimuli_target_diamondrectangles.svg	31	yes	57	0	672	6	6	antiphase_hc_ois.wav	3	6	5	noise_calib_stim_RIGHT.wav	2	12	blb_dichoticlistening_da-ta.mp3	da	ta	1	left
6.6.1	and	2023-07-06	21:57:40	22:24:51	1594440	5e9bda4fc2758f0f5713a3f8	2	1	main_z	24	main_z	17	stimuli_target_rectanglediamonds.svg	stimuli_distractor_diamondtriangles.svg	6	yes	44	1	1515	6	6	antiphase_hc_ois.wav	3	6	5	noise_calib_stim_RIGHT.wav	2	12	blb_dichoticlistening_da-ta.mp3	da	ta	1	left
6.6.1	and	2023-07-06	21:57:40	22:24:51	1594440	5e9bda4fc2758f0f5713a3f8	2	1	main_z	24	advance_on_keypress_ZEE	18	stimuli_target_rectanglediamonds.svg	stimuli_distractor_diamondtriangles.svg	6	yes	57	0	767	6	6	antiphase_hc_ois.wav	3	6	5	noise_calib_stim_RIGHT.wav	2	12	blb_dichoticlistening_da-ta.mp3	da	ta	1	left
6.6.1	and	2023-07-06	21:57:40	22:24:54	1597253	5e9bda4fc2758f0f5713a3f8	2	1	main_z	24	main_z	19	stimuli_distractor_trianglediamonds.svg	stimuli_target_rectangletriangles.svg	9	yes	44	1	1412	6	6	antiphase_hc_ois.wav	3	6	5	noise_calib_stim_RIGHT.wav	2	12	blb_dichoticlistening_da-ta.mp3	da	ta	1	left
6.6.1	and	2023-07-06	21:57:40	22:24:54	1597253	5e9bda4fc2758f0f5713a3f8	2	1	main_z	24	advance_on_keypress_ZEE	20	stimuli_distractor_trianglediamonds.svg	stimuli_target_rectangletriangles.svg	9	yes	57	0	736	6	6	antiphase_hc_ois.wav	3	6	5	noise_calib_stim_RIGHT.wav	2	12	blb_dichoticlistening_da-ta.mp3	da	ta	1	left
6.6.1	and	2023-07-06	21:57:40	22:24:57	1600640	5e9bda4fc2758f0f5713a3f8	2	1	main_z	24	main_z	21	stimuli_distractor_trianglediamonds.svg	stimuli_distractor_diamondtriangles.svg	36	no	0	1	2000	6	6	antiphase_hc_ois.wav	3	6	5	noise_calib_stim_RIGHT.wav	2	12	blb_dichoticlistening_da-ta.mp3	da	ta	1	left
6.6.1	and	2023-07-06	21:57:40	22:24:57	1600640	5e9bda4fc2758f0f5713a3f8	2	1	main_z	24	advance_on_keypress_ZEE	22	stimuli_distractor_trianglediamonds.svg	stimuli_distractor_diamondtriangles.svg	36	no	57	0	485	6	6	antiphase_hc_ois.wav	3	6	5	noise_calib_stim_RIGHT.wav	2	12	blb_dichoticlistening_da-ta.mp3	da	ta	1	left
6.6.1	and	2023-07-06	21:57:40	22:25:00	1603003	5e9bda4fc2758f0f5713a3f8	2	1	main_z	24	main_z	23	stimuli_target_rectanglediamonds.svg	stimuli_distractor_trianglediamonds.svg	2	yes	44	1	1231	6	6	antiphase_hc_ois.wav	3	6	5	noise_calib_stim_RIGHT.wav	2	12	blb_dichoticlistening_da-ta.mp3	da	ta	1	left
6.6.1	and	2023-07-06	21:57:40	22:25:00	1603003	5e9bda4fc2758f0f5713a3f8	2	1	main_z	24	advance_on_keypress_ZEE	24	stimuli_target_rectanglediamonds.svg	stimuli_distractor_trianglediamonds.svg	2	yes	57	0	766	6	6	antiphase_hc_ois.wav	3	6	5	noise_calib_stim_RIGHT.wav	2	12	blb_dichoticlistening_da-ta.mp3	da	ta	1	left
6.6.1	and	2023-07-06	21:57:40	22:25:02	1605534	5e9bda4fc2758f0f5713a3f8	2	1	main_z	24	main_z	25	stimuli_distractor_diamondtriangles.svg	stimuli_target_squarediamonds.svg	16	yes	44	1	1128	6	6	antiphase_hc_ois.wav	3	6	5	noise_calib_stim_RIGHT.wav	2	12	blb_dichoticlistening_da-ta.mp3	da	ta	1	left
6.6.1	and	2023-07-06	21:57:40	22:25:02	1605534	5e9bda4fc2758f0f5713a3f8	2	1	main_z	24	advance_on_keypress_ZEE	26	stimuli_distractor_diamondtriangles.svg	stimuli_target_squarediamonds.svg	16	yes	57	0	688	6	6	antiphase_hc_ois.wav	3	6	5	noise_calib_stim_RIGHT.wav	2	12	blb_dichoticlistening_da-ta.mp3	da	ta	1	left
6.6.1	and	2023-07-06	21:57:40	22:25:05	1607901	5e9bda4fc2758f0f5713a3f8	2	1	main_z	24	main_z	27	stimuli_target_diamondrectangles.svg	stimuli_distractor_trianglediamonds.svg	19	yes	44	1	1047	6	6	antiphase_hc_ois.wav	3	6	5	noise_calib_stim_RIGHT.wav	2	12	blb_dichoticlistening_da-ta.mp3	da	ta	1	left
6.6.1	and	2023-07-06	21:57:40	22:25:05	1607901	5e9bda4fc2758f0f5713a3f8	2	1	main_z	24	advance_on_keypress_ZEE	28	stimuli_target_diamondrectangles.svg	stimuli_distractor_trianglediamonds.svg	19	yes	57	0	577	6	6	antiphase_hc_ois.wav	3	6	5	noise_calib_stim_RIGHT.wav	2	12	blb_dichoticlistening_da-ta.mp3	da	ta	1	left
6.6.1	and	2023-07-06	21:57:40	22:25:08	1611125	5e9bda4fc2758f0f5713a3f8	2	1	main_z	24	main_z	29	stimuli_distractor_trianglediamonds.svg	stimuli_distractor_diamondtriangles.svg	35	no	0	1	2000	6	6	antiphase_hc_ois.wav	3	6	5	noise_calib_stim_RIGHT.wav	2	12	blb_dichoticlistening_da-ta.mp3	da	ta	1	left
6.6.1	and	2023-07-06	21:57:40	22:25:08	1611125	5e9bda4fc2758f0f5713a3f8	2	1	main_z	24	advance_on_keypress_ZEE	30	stimuli_distractor_trianglediamonds.svg	stimuli_distractor_diamondtriangles.svg	35	no	57	0	1185	6	6	antiphase_hc_ois.wav	3	6	5	noise_calib_stim_RIGHT.wav	2	12	blb_dichoticlistening_da-ta.mp3	da	ta	1	left
6.6.1	and	2023-07-06	21:57:40	22:25:12	1614938	5e9bda4fc2758f0f5713a3f8	2	1	main_z	24	main_z	31	stimuli_target_trianglerectangles.svg	stimuli_distractor_diamondtriangles.svg	21	yes	0	0	2000	6	6	antiphase_hc_ois.wav	3	6	5	noise_calib_stim_RIGHT.wav	2	12	blb_dichoticlistening_da-ta.mp3	da	ta	1	left
6.6.1	and	2023-07-06	21:57:40	22:25:12	1614938	5e9bda4fc2758f0f5713a3f8	2	1	main_z	24	advance_on_keypress_ZEE	32	stimuli_target_trianglerectangles.svg	stimuli_distractor_diamondtriangles.svg	21	yes	57	0	456	6	6	antiphase_hc_ois.wav	3	6	5	noise_calib_stim_RIGHT.wav	2	12	blb_dichoticlistening_da-ta.mp3	da	ta	1	left
6.6.1	and	2023-07-06	21:57:40	22:25:15	1617832	5e9bda4fc2758f0f5713a3f8	2	1	main_z	24	main_z	33	stimuli_target_diamondsquares.svg	stimuli_distractor_trianglediamonds.svg	20	yes	44	1	1793	6	6	antiphase_hc_ois.wav	3	6	5	noise_calib_stim_RIGHT.wav	2	12	blb_dichoticlistening_da-ta.mp3	da	ta	1	left
6.6.1	and	2023-07-06	21:57:40	22:25:15	1617832	5e9bda4fc2758f0f5713a3f8	2	1	main_z	24	advance_on_keypress_ZEE	34	stimuli_target_diamondsquares.svg	stimuli_distractor_trianglediamonds.svg	20	yes	57	0	751	6	6	antiphase_hc_ois.wav	3	6	5	noise_calib_stim_RIGHT.wav	2	12	blb_dichoticlistening_da-ta.mp3	da	ta	1	left
6.6.1	and	2023-07-06	21:57:40	22:25:18	1620880	5e9bda4fc2758f0f5713a3f8	2	1	main_z	24	main_z	35	stimuli_distractor_diamondtriangles.svg	stimuli_distractor_trianglediamonds.svg	38	no	44	0	1636	6	6	antiphase_hc_ois.wav	3	6	5	noise_calib_stim_RIGHT.wav	2	12	blb_dichoticlistening_da-ta.mp3	da	ta	1	left
6.6.1	and	2023-07-06	21:57:40	22:25:18	1620880	5e9bda4fc2758f0f5713a3f8	2	1	main_z	24	advance_on_keypress_ZEE	36	stimuli_distractor_diamondtriangles.svg	stimuli_distractor_trianglediamonds.svg	38	no	57	0	664	6	6	antiphase_hc_ois.wav	3	6	5	noise_calib_stim_RIGHT.wav	2	12	blb_dichoticlistening_da-ta.mp3	da	ta	1	left
6.6.1	and	2023-07-06	21:57:40	22:25:21	1624193	5e9bda4fc2758f0f5713a3f8	2	1	main_z	24	main_z	37	stimuli_distractor_diamondtriangles.svg	stimuli_distractor_diamondtriangles.svg	40	no	0	1	2000	6	6	antiphase_hc_ois.wav	3	6	5	noise_calib_stim_RIGHT.wav	2	12	blb_dichoticlistening_da-ta.mp3	da	ta	1	left
6.6.1	and	2023-07-06	21:57:40	22:25:21	1624193	5e9bda4fc2758f0f5713a3f8	2	1	main_z	24	advance_on_keypress_ZEE	38	stimuli_distractor_diamondtriangles.svg	stimuli_distractor_diamondtriangles.svg	40	no	57	0	433	6	6	antiphase_hc_ois.wav	3	6	5	noise_calib_stim_RIGHT.wav	2	12	blb_dichoticlistening_da-ta.mp3	da	ta	1	left
6.6.1	and	2023-07-06	21:57:40	22:25:23	1626455	5e9bda4fc2758f0f5713a3f8	2	1	main_z	24	main_z	39	stimuli_target_diamondsquares.svg	stimuli_distractor_diamondtriangles.svg	24	yes	44	1	1202	6	6	antiphase_hc_ois.wav	3	6	5	noise_calib_stim_RIGHT.wav	2	12	blb_dichoticlistening_da-ta.mp3	da	ta	1	left
6.6.1	and	2023-07-06	21:57:40	22:25:23	1626455	5e9bda4fc2758f0f5713a3f8	2	1	main_z	24	advance_on_keypress_ZEE	40	stimuli_target_diamondsquares.svg	stimuli_distractor_diamondtriangles.svg	24	yes	57	0	599	6	6	antiphase_hc_ois.wav	3	6	5	noise_calib_stim_RIGHT.wav	2	12	blb_dichoticlistening_da-ta.mp3	da	ta	1	left
6.6.1	and	2023-07-06	21:57:40	22:25:26	1629691	5e9bda4fc2758f0f5713a3f8	2	1	main_z	24	main_z	41	stimuli_distractor_trianglediamonds.svg	stimuli_distractor_trianglediamonds.svg	34	no	0	1	2000	6	6	antiphase_hc_ois.wav	3	6	5	noise_calib_stim_RIGHT.wav	2	12	blb_dichoticlistening_da-ta.mp3	da	ta	1	left
6.6.1	and	2023-07-06	21:57:40	22:25:26	1629691	5e9bda4fc2758f0f5713a3f8	2	1	main_z	24	advance_on_keypress_ZEE	42	stimuli_distractor_trianglediamonds.svg	stimuli_distractor_trianglediamonds.svg	34	no	57	0	716	6	6	antiphase_hc_ois.wav	3	6	5	noise_calib_stim_RIGHT.wav	2	12	blb_dichoticlistening_da-ta.mp3	da	ta	1	left
6.6.1	and	2023-07-06	21:57:40	22:25:30	1633040	5e9bda4fc2758f0f5713a3f8	2	1	main_z	24	main_z	43	stimuli_distractor_trianglediamonds.svg	stimuli_target_squarediamonds.svg	12	yes	0	0	2000	6	6	antiphase_hc_ois.wav	3	6	5	noise_calib_stim_RIGHT.wav	2	12	blb_dichoticlistening_da-ta.mp3	da	ta	1	left
6.6.1	and	2023-07-06	21:57:40	22:25:30	1633040	5e9bda4fc2758f0f5713a3f8	2	1	main_z	24	advance_on_keypress_ZEE	44	stimuli_distractor_trianglediamonds.svg	stimuli_target_squarediamonds.svg	12	yes	57	0	553	6	6	antiphase_hc_ois.wav	3	6	5	noise_calib_stim_RIGHT.wav	2	12	blb_dichoticlistening_da-ta.mp3	da	ta	1	left
6.6.1	and	2023-07-06	21:57:40	22:25:32	1635362	5e9bda4fc2758f0f5713a3f8	2	1	main_z	24	main_z	45	stimuli_distractor_trianglediamonds.svg	stimuli_target_diamondsquares.svg	28	yes	44	1	1142	6	6	antiphase_hc_ois.wav	3	6	5	noise_calib_stim_RIGHT.wav	2	12	blb_dichoticlistening_da-ta.mp3	da	ta	1	left
6.6.1	and	2023-07-06	21:57:40	22:25:32	1635362	5e9bda4fc2758f0f5713a3f8	2	1	main_z	24	advance_on_keypress_ZEE	46	stimuli_distractor_trianglediamonds.svg	stimuli_target_diamondsquares.svg	28	yes	57	0	536	6	6	antiphase_hc_ois.wav	3	6	5	noise_calib_stim_RIGHT.wav	2	12	blb_dichoticlistening_da-ta.mp3	da	ta	1	left
6.6.1	and	2023-07-06	21:57:40	22:25:35	1637827	5e9bda4fc2758f0f5713a3f8	2	1	main_z	24	main_z	47	stimuli_distractor_diamondtriangles.svg	stimuli_target_trianglesquares.svg	30	yes	44	1	1290	6	6	antiphase_hc_ois.wav	3	6	5	noise_calib_stim_RIGHT.wav	2	12	blb_dichoticlistening_da-ta.mp3	da	ta	1	left
6.6.1	and	2023-07-06	21:57:40	22:25:35	1637827	5e9bda4fc2758f0f5713a3f8	2	1	main_z	24	advance_on_keypress_ZEE	48	stimuli_distractor_diamondtriangles.svg	stimuli_target_trianglesquares.svg	30	yes	57	0	1083	6	6	antiphase_hc_ois.wav	3	6	5	noise_calib_stim_RIGHT.wav	2	12	blb_dichoticlistening_da-ta.mp3	da	ta	1	left
6.6.1	and	2023-07-06	21:57:40	22:25:37	1640729	5e9bda4fc2758f0f5713a3f8	2	1	main_z	24	main_z	49	stimuli_distractor_diamondtriangles.svg	stimuli_target_diamondsquares.svg	32	yes	44	1	1170	6	6	antiphase_hc_ois.wav	3	6	5	noise_calib_stim_RIGHT.wav	2	12	blb_dichoticlistening_da-ta.mp3	da	ta	1	left
6.6.1	and	2023-07-06	21:57:40	22:25:37	1640729	5e9bda4fc2758f0f5713a3f8	2	1	main_z	24	advance_on_keypress_ZEE	50	stimuli_distractor_diamondtriangles.svg	stimuli_target_diamondsquares.svg	32	yes	57	0	675	6	6	antiphase_hc_ois.wav	3	6	5	noise_calib_stim_RIGHT.wav	2	12	blb_dichoticlistening_da-ta.mp3	da	ta	1	left
6.6.1	and	2023-07-06	21:57:40	22:25:40	1643173	5e9bda4fc2758f0f5713a3f8	2	1	main_z	24	main_z	51	stimuli_distractor_trianglediamonds.svg	stimuli_target_trianglerectangles.svg	25	yes	44	1	1117	6	6	antiphase_hc_ois.wav	3	6	5	noise_calib_stim_RIGHT.wav	2	12	blb_dichoticlistening_da-ta.mp3	da	ta	1	left
6.6.1	and	2023-07-06	21:57:40	22:25:40	1643173	5e9bda4fc2758f0f5713a3f8	2	1	main_z	24	advance_on_keypress_ZEE	52	stimuli_distractor_trianglediamonds.svg	stimuli_target_trianglerectangles.svg	25	yes	57	0	690	6	6	antiphase_hc_ois.wav	3	6	5	noise_calib_stim_RIGHT.wav	2	12	blb_dichoticlistening_da-ta.mp3	da	ta	1	left
6.6.1	and	2023-07-06	21:57:40	22:25:43	1646487	5e9bda4fc2758f0f5713a3f8	2	1	main_z	24	main_z	53	stimuli_distractor_trianglediamonds.svg	stimuli_distractor_trianglediamonds.svg	33	no	0	1	2000	6	6	antiphase_hc_ois.wav	3	6	5	noise_calib_stim_RIGHT.wav	2	12	blb_dichoticlistening_da-ta.mp3	da	ta	1	left
6.6.1	and	2023-07-06	21:57:40	22:25:43	1646487	5e9bda4fc2758f0f5713a3f8	2	1	main_z	24	advance_on_keypress_ZEE	54	stimuli_distractor_trianglediamonds.svg	stimuli_distractor_trianglediamonds.svg	33	no	57	0	536	6	6	antiphase_hc_ois.wav	3	6	5	noise_calib_stim_RIGHT.wav	2	12	blb_dichoticlistening_da-ta.mp3	da	ta	1	left
6.6.1	and	2023-07-06	21:57:40	22:25:46	1649674	5e9bda4fc2758f0f5713a3f8	2	1	main_z	24	main_z	55	stimuli_distractor_diamondtriangles.svg	stimuli_target_rectangletriangles.svg	13	yes	0	0	2000	6	6	antiphase_hc_ois.wav	3	6	5	noise_calib_stim_RIGHT.wav	2	12	blb_dichoticlistening_da-ta.mp3	da	ta	1	left
6.6.1	and	2023-07-06	21:57:40	22:25:46	1649674	5e9bda4fc2758f0f5713a3f8	2	1	main_z	24	advance_on_keypress_ZEE	56	stimuli_distractor_diamondtriangles.svg	stimuli_target_rectangletriangles.svg	13	yes	57	0	318	6	6	antiphase_hc_ois.wav	3	6	5	noise_calib_stim_RIGHT.wav	2	12	blb_dichoticlistening_da-ta.mp3	da	ta	1	left
6.6.1	and	2023-07-06	21:57:40	22:25:49	1652629	5e9bda4fc2758f0f5713a3f8	2	1	main_z	24	main_z	57	stimuli_distractor_trianglediamonds.svg	stimuli_target_rectanglediamonds.svg	10	yes	0	0	2000	6	6	antiphase_hc_ois.wav	3	6	5	noise_calib_stim_RIGHT.wav	2	12	blb_dichoticlistening_da-ta.mp3	da	ta	1	left
6.6.1	and	2023-07-06	21:57:40	22:25:49	1652629	5e9bda4fc2758f0f5713a3f8	2	1	main_z	24	advance_on_keypress_ZEE	58	stimuli_distractor_trianglediamonds.svg	stimuli_target_rectanglediamonds.svg	10	yes	57	0	406	6	6	antiphase_hc_ois.wav	3	6	5	noise_calib_stim_RIGHT.wav	2	12	blb_dichoticlistening_da-ta.mp3	da	ta	1	left
6.6.1	and	2023-07-06	21:57:40	22:25:52	1654754	5e9bda4fc2758f0f5713a3f8	2	1	main_z	24	main_z	59	stimuli_distractor_diamondtriangles.svg	stimuli_target_trianglerectangles.svg	29	yes	44	1	1062	6	6	antiphase_hc_ois.wav	3	6	5	noise_calib_stim_RIGHT.wav	2	12	blb_dichoticlistening_da-ta.mp3	da	ta	1	left
6.6.1	and	2023-07-06	21:57:40	22:25:52	1654754	5e9bda4fc2758f0f5713a3f8	2	1	main_z	24	advance_on_keypress_ZEE	60	stimuli_distractor_diamondtriangles.svg	stimuli_target_trianglerectangles.svg	29	yes	57	0	587	6	6	antiphase_hc_ois.wav	3	6	5	noise_calib_stim_RIGHT.wav	2	12	blb_dichoticlistening_da-ta.mp3	da	ta	1	left
6.6.1	and	2023-07-06	21:57:40	22:25:54	1657260	5e9bda4fc2758f0f5713a3f8	2	1	main_z	24	main_z	61	stimuli_target_squaretriangles.svg	stimuli_distractor_trianglediamonds.svg	3	yes	44	1	1284	6	6	antiphase_hc_ois.wav	3	6	5	noise_calib_stim_RIGHT.wav	2	12	blb_dichoticlistening_da-ta.mp3	da	ta	1	left
6.6.1	and	2023-07-06	21:57:40	22:25:54	1657260	5e9bda4fc2758f0f5713a3f8	2	1	main_z	24	advance_on_keypress_ZEE	62	stimuli_target_squaretriangles.svg	stimuli_distractor_trianglediamonds.svg	3	yes	57	0	864	6	6	antiphase_hc_ois.wav	3	6	5	noise_calib_stim_RIGHT.wav	2	12	blb_dichoticlistening_da-ta.mp3	da	ta	1	left
6.6.1	and	2023-07-06	21:57:40	22:25:57	1660040	5e9bda4fc2758f0f5713a3f8	2	1	main_z	24	main_z	63	stimuli_distractor_diamondtriangles.svg	stimuli_target_squaretriangles.svg	15	yes	44	1	1268	6	6	antiphase_hc_ois.wav	3	6	5	noise_calib_stim_RIGHT.wav	2	12	blb_dichoticlistening_da-ta.mp3	da	ta	1	left
6.6.1	and	2023-07-06	21:57:40	22:25:57	1660040	5e9bda4fc2758f0f5713a3f8	2	1	main_z	24	advance_on_keypress_ZEE	64	stimuli_distractor_diamondtriangles.svg	stimuli_target_squaretriangles.svg	15	yes	57	0	487	6	6	antiphase_hc_ois.wav	3	6	5	noise_calib_stim_RIGHT.wav	2	12	blb_dichoticlistening_da-ta.mp3	da	ta	1	left
6.6.1	and	2023-07-06	21:57:40	22:26:00	1663153	5e9bda4fc2758f0f5713a3f8	2	1	main_z	24	main_z	65	stimuli_distractor_diamondtriangles.svg	stimuli_distractor_trianglediamonds.svg	37	no	0	1	2000	6	6	antiphase_hc_ois.wav	3	6	5	noise_calib_stim_RIGHT.wav	2	12	blb_dichoticlistening_da-ta.mp3	da	ta	1	left
6.6.1	and	2023-07-06	21:57:40	22:26:00	1663153	5e9bda4fc2758f0f5713a3f8	2	1	main_z	24	advance_on_keypress_ZEE	66	stimuli_distractor_diamondtriangles.svg	stimuli_distractor_trianglediamonds.svg	37	no	57	0	561	6	6	antiphase_hc_ois.wav	3	6	5	noise_calib_stim_RIGHT.wav	2	12	blb_dichoticlistening_da-ta.mp3	da	ta	1	left
6.6.1	and	2023-07-06	21:57:40	22:26:02	1665424	5e9bda4fc2758f0f5713a3f8	2	1	main_z	24	main_z	67	stimuli_distractor_trianglediamonds.svg	stimuli_target_diamondrectangles.svg	27	yes	44	1	1073	6	6	antiphase_hc_ois.wav	3	6	5	noise_calib_stim_RIGHT.wav	2	12	blb_dichoticlistening_da-ta.mp3	da	ta	1	left
6.6.1	and	2023-07-06	21:57:40	22:26:02	1665424	5e9bda4fc2758f0f5713a3f8	2	1	main_z	24	advance_on_keypress_ZEE	68	stimuli_distractor_trianglediamonds.svg	stimuli_target_diamondrectangles.svg	27	yes	57	0	538	6	6	antiphase_hc_ois.wav	3	6	5	noise_calib_stim_RIGHT.wav	2	12	blb_dichoticlistening_da-ta.mp3	da	ta	1	left
6.6.1	and	2023-07-06	21:57:40	22:26:05	1667970	5e9bda4fc2758f0f5713a3f8	2	1	main_z	24	main_z	69	stimuli_target_squaretriangles.svg	stimuli_distractor_diamondtriangles.svg	7	yes	44	1	1386	6	6	antiphase_hc_ois.wav	3	6	5	noise_calib_stim_RIGHT.wav	2	12	blb_dichoticlistening_da-ta.mp3	da	ta	1	left
6.6.1	and	2023-07-06	21:57:40	22:26:05	1667970	5e9bda4fc2758f0f5713a3f8	2	1	main_z	24	advance_on_keypress_ZEE	70	stimuli_target_squaretriangles.svg	stimuli_distractor_diamondtriangles.svg	7	yes	57	0	521	6	6	antiphase_hc_ois.wav	3	6	5	noise_calib_stim_RIGHT.wav	2	12	blb_dichoticlistening_da-ta.mp3	da	ta	1	left
6.6.1	and	2023-07-06	21:57:40	22:26:07	1670431	5e9bda4fc2758f0f5713a3f8	2	1	main_z	24	main_z	71	stimuli_target_trianglerectangles.svg	stimuli_distractor_trianglediamonds.svg	17	yes	44	1	1308	6	6	antiphase_hc_ois.wav	3	6	5	noise_calib_stim_RIGHT.wav	2	12	blb_dichoticlistening_da-ta.mp3	da	ta	1	left
6.6.1	and	2023-07-06	21:57:40	22:26:07	1670431	5e9bda4fc2758f0f5713a3f8	2	1	main_z	24	advance_on_keypress_ZEE	72	stimuli_target_trianglerectangles.svg	stimuli_distractor_trianglediamonds.svg	17	yes	57	0	443	6	6	antiphase_hc_ois.wav	3	6	5	noise_calib_stim_RIGHT.wav	2	12	blb_dichoticlistening_da-ta.mp3	da	ta	1	left
6.6.1	and	2023-07-06	21:57:40	22:26:10	1673525	5e9bda4fc2758f0f5713a3f8	2	1	main_z	24	main_z	73	stimuli_distractor_diamondtriangles.svg	stimuli_distractor_diamondtriangles.svg	39	no	0	1	2000	6	6	antiphase_hc_ois.wav	3	6	5	noise_calib_stim_RIGHT.wav	2	12	blb_dichoticlistening_da-ta.mp3	da	ta	1	left
6.6.1	and	2023-07-06	21:57:40	22:26:10	1673525	5e9bda4fc2758f0f5713a3f8	2	1	main_z	24	advance_on_keypress_ZEE	74	stimuli_distractor_diamondtriangles.svg	stimuli_distractor_diamondtriangles.svg	39	no	57	0	302	6	6	antiphase_hc_ois.wav	3	6	5	noise_calib_stim_RIGHT.wav	2	12	blb_dichoticlistening_da-ta.mp3	da	ta	1	left
6.6.1	and	2023-07-06	21:57:40	22:26:12	1675705	5e9bda4fc2758f0f5713a3f8	2	1	main_z	24	main_z	75	stimuli_target_rectangletriangles.svg	stimuli_distractor_diamondtriangles.svg	5	yes	44	1	1238	6	6	antiphase_hc_ois.wav	3	6	5	noise_calib_stim_RIGHT.wav	2	12	blb_dichoticlistening_da-ta.mp3	da	ta	1	left
6.6.1	and	2023-07-06	21:57:40	22:26:12	1675705	5e9bda4fc2758f0f5713a3f8	2	1	main_z	24	advance_on_keypress_ZEE	76	stimuli_target_rectangletriangles.svg	stimuli_distractor_diamondtriangles.svg	5	yes	57	0	1254	6	6	antiphase_hc_ois.wav	3	6	5	noise_calib_stim_RIGHT.wav	2	12	blb_dichoticlistening_da-ta.mp3	da	ta	1	left
6.6.1	and	2023-07-06	21:57:40	22:26:16	1679086	5e9bda4fc2758f0f5713a3f8	2	1	main_z	24	main_z	77	stimuli_distractor_diamondtriangles.svg	stimuli_target_rectanglediamonds.svg	14	yes	44	1	1501	6	6	antiphase_hc_ois.wav	3	6	5	noise_calib_stim_RIGHT.wav	2	12	blb_dichoticlistening_da-ta.mp3	da	ta	1	left
6.6.1	and	2023-07-06	21:57:40	22:26:16	1679086	5e9bda4fc2758f0f5713a3f8	2	1	main_z	24	advance_on_keypress_ZEE	78	stimuli_distractor_diamondtriangles.svg	stimuli_target_rectanglediamonds.svg	14	yes	57	0	554	6	6	antiphase_hc_ois.wav	3	6	5	noise_calib_stim_RIGHT.wav	2	12	blb_dichoticlistening_da-ta.mp3	da	ta	1	left
6.6.1	and	2023-07-06	21:57:40	22:26:18	1681422	5e9bda4fc2758f0f5713a3f8	2	1	main_z	24	main_z	79	stimuli_distractor_trianglediamonds.svg	stimuli_target_trianglesquares.svg	26	yes	44	1	1135	6	6	antiphase_hc_ois.wav	3	6	5	noise_calib_stim_RIGHT.wav	2	12	blb_dichoticlistening_da-ta.mp3	da	ta	1	left
6.6.1	and	2023-07-06	21:57:40	22:26:18	1681422	5e9bda4fc2758f0f5713a3f8	2	1	main_z	24	advance_on_keypress_ZEE	80	stimuli_distractor_trianglediamonds.svg	stimuli_target_trianglesquares.svg	26	yes	57	0	560	6	6	antiphase_hc_ois.wav	3	6	5	noise_calib_stim_RIGHT.wav	2	12	blb_dichoticlistening_da-ta.mp3	da	ta	1	left
6.6.1	and	2023-07-06	21:57:40	22:26:20	1683726	5e9bda4fc2758f0f5713a3f8	2	1	main_z	24	main_z	81	stimuli_target_rectanglediamonds.svg	stimuli_distractor_diamondtriangles.svg	6	yes	44	1	1107	6	6	antiphase_hc_ois.wav	3	6	5	noise_calib_stim_RIGHT.wav	2	12	blb_dichoticlistening_da-ta.mp3	da	ta	1	left
6.6.1	and	2023-07-06	21:57:40	22:26:20	1683726	5e9bda4fc2758f0f5713a3f8	2	1	main_z	24	advance_on_keypress_ZEE	82	stimuli_target_rectanglediamonds.svg	stimuli_distractor_diamondtriangles.svg	6	yes	57	0	486	6	6	antiphase_hc_ois.wav	3	6	5	noise_calib_stim_RIGHT.wav	2	12	blb_dichoticlistening_da-ta.mp3	da	ta	1	left
6.6.1	and	2023-07-06	21:57:40	22:26:23	1685945	5e9bda4fc2758f0f5713a3f8	2	1	main_z	24	main_z	83	stimuli_target_squarediamonds.svg	stimuli_distractor_diamondtriangles.svg	8	yes	44	1	1089	6	6	antiphase_hc_ois.wav	3	6	5	noise_calib_stim_RIGHT.wav	2	12	blb_dichoticlistening_da-ta.mp3	da	ta	1	left
6.6.1	and	2023-07-06	21:57:40	22:26:23	1685945	5e9bda4fc2758f0f5713a3f8	2	1	main_z	24	advance_on_keypress_ZEE	84	stimuli_target_squarediamonds.svg	stimuli_distractor_diamondtriangles.svg	8	yes	57	0	379	6	6	antiphase_hc_ois.wav	3	6	5	noise_calib_stim_RIGHT.wav	2	12	blb_dichoticlistening_da-ta.mp3	da	ta	1	left
6.6.1	and	2023-07-06	21:57:40	22:26:25	1687912	5e9bda4fc2758f0f5713a3f8	2	1	main_z	24	main_z	85	stimuli_target_rectanglediamonds.svg	stimuli_distractor_trianglediamonds.svg	2	yes	44	1	941	6	6	antiphase_hc_ois.wav	3	6	5	noise_calib_stim_RIGHT.wav	2	12	blb_dichoticlistening_da-ta.mp3	da	ta	1	left
6.6.1	and	2023-07-06	21:57:40	22:26:25	1687912	5e9bda4fc2758f0f5713a3f8	2	1	main_z	24	advance_on_keypress_ZEE	86	stimuli_target_rectanglediamonds.svg	stimuli_distractor_trianglediamonds.svg	2	yes	57	0	329	6	6	antiphase_hc_ois.wav	3	6	5	noise_calib_stim_RIGHT.wav	2	12	blb_dichoticlistening_da-ta.mp3	da	ta	1	left
6.6.1	and	2023-07-06	21:57:40	22:26:28	1690887	5e9bda4fc2758f0f5713a3f8	2	1	main_z	24	main_z	87	stimuli_distractor_trianglediamonds.svg	stimuli_distractor_trianglediamonds.svg	33	no	0	1	2000	6	6	antiphase_hc_ois.wav	3	6	5	noise_calib_stim_RIGHT.wav	2	12	blb_dichoticlistening_da-ta.mp3	da	ta	1	left
6.6.1	and	2023-07-06	21:57:40	22:26:28	1690887	5e9bda4fc2758f0f5713a3f8	2	1	main_z	24	advance_on_keypress_ZEE	88	stimuli_distractor_trianglediamonds.svg	stimuli_distractor_trianglediamonds.svg	33	no	57	0	445	6	6	antiphase_hc_ois.wav	3	6	5	noise_calib_stim_RIGHT.wav	2	12	blb_dichoticlistening_da-ta.mp3	da	ta	1	left
6.6.1	and	2023-07-06	21:57:40	22:26:30	1693204	5e9bda4fc2758f0f5713a3f8	2	1	main_z	24	main_z	89	stimuli_distractor_trianglediamonds.svg	stimuli_target_diamondsquares.svg	28	yes	44	1	1235	6	6	antiphase_hc_ois.wav	3	6	5	noise_calib_stim_RIGHT.wav	2	12	blb_dichoticlistening_da-ta.mp3	da	ta	1	left
6.6.1	and	2023-07-06	21:57:40	22:26:30	1693204	5e9bda4fc2758f0f5713a3f8	2	1	main_z	24	advance_on_keypress_ZEE	90	stimuli_distractor_trianglediamonds.svg	stimuli_target_diamondsquares.svg	28	yes	57	0	544	6	6	antiphase_hc_ois.wav	3	6	5	noise_calib_stim_RIGHT.wav	2	12	blb_dichoticlistening_da-ta.mp3	da	ta	1	left
6.6.1	and	2023-07-06	21:57:40	22:26:32	1695398	5e9bda4fc2758f0f5713a3f8	2	1	main_z	24	main_z	91	stimuli_target_diamondrectangles.svg	stimuli_distractor_diamondtriangles.svg	23	yes	44	1	1013	6	6	antiphase_hc_ois.wav	3	6	5	noise_calib_stim_RIGHT.wav	2	12	blb_dichoticlistening_da-ta.mp3	da	ta	1	left
6.6.1	and	2023-07-06	21:57:40	22:26:32	1695398	5e9bda4fc2758f0f5713a3f8	2	1	main_z	24	advance_on_keypress_ZEE	92	stimuli_target_diamondrectangles.svg	stimuli_distractor_diamondtriangles.svg	23	yes	57	0	440	6	6	antiphase_hc_ois.wav	3	6	5	noise_calib_stim_RIGHT.wav	2	12	blb_dichoticlistening_da-ta.mp3	da	ta	1	left
6.6.1	and	2023-07-06	21:57:40	22:26:34	1697419	5e9bda4fc2758f0f5713a3f8	2	1	main_z	24	main_z	93	stimuli_distractor_trianglediamonds.svg	stimuli_target_trianglerectangles.svg	25	yes	44	1	948	6	6	antiphase_hc_ois.wav	3	6	5	noise_calib_stim_RIGHT.wav	2	12	blb_dichoticlistening_da-ta.mp3	da	ta	1	left
6.6.1	and	2023-07-06	21:57:40	22:26:34	1697419	5e9bda4fc2758f0f5713a3f8	2	1	main_z	24	advance_on_keypress_ZEE	94	stimuli_distractor_trianglediamonds.svg	stimuli_target_trianglerectangles.svg	25	yes	57	0	395	6	6	antiphase_hc_ois.wav	3	6	5	noise_calib_stim_RIGHT.wav	2	12	blb_dichoticlistening_da-ta.mp3	da	ta	1	left
6.6.1	and	2023-07-06	21:57:40	22:26:36	1699408	5e9bda4fc2758f0f5713a3f8	2	1	main_z	24	main_z	95	stimuli_target_squaretriangles.svg	stimuli_distractor_trianglediamonds.svg	3	yes	44	1	959	6	6	antiphase_hc_ois.wav	3	6	5	noise_calib_stim_RIGHT.wav	2	12	blb_dichoticlistening_da-ta.mp3	da	ta	1	left
6.6.1	and	2023-07-06	21:57:40	22:26:36	1699408	5e9bda4fc2758f0f5713a3f8	2	1	main_z	24	advance_on_keypress_ZEE	96	stimuli_target_squaretriangles.svg	stimuli_distractor_trianglediamonds.svg	3	yes	57	0	436	6	6	antiphase_hc_ois.wav	3	6	5	noise_calib_stim_RIGHT.wav	2	12	blb_dichoticlistening_da-ta.mp3	da	ta	1	left
6.6.1	and	2023-07-06	21:57:40	22:26:38	1701445	5e9bda4fc2758f0f5713a3f8	2	1	main_z	24	main_z	97	stimuli_distractor_trianglediamonds.svg	stimuli_target_squarediamonds.svg	12	yes	44	1	960	6	6	antiphase_hc_ois.wav	3	6	5	noise_calib_stim_RIGHT.wav	2	12	blb_dichoticlistening_da-ta.mp3	da	ta	1	left
6.6.1	and	2023-07-06	21:57:40	22:26:38	1701445	5e9bda4fc2758f0f5713a3f8	2	1	main_z	24	advance_on_keypress_ZEE	98	stimuli_distractor_trianglediamonds.svg	stimuli_target_squarediamonds.svg	12	yes	57	0	386	6	6	antiphase_hc_ois.wav	3	6	5	noise_calib_stim_RIGHT.wav	2	12	blb_dichoticlistening_da-ta.mp3	da	ta	1	left
6.6.1	and	2023-07-06	21:57:40	22:26:40	1703437	5e9bda4fc2758f0f5713a3f8	2	1	main_z	24	main_z	99	stimuli_distractor_diamondtriangles.svg	stimuli_target_trianglerectangles.svg	29	yes	44	1	970	6	6	antiphase_hc_ois.wav	3	6	5	noise_calib_stim_RIGHT.wav	2	12	blb_dichoticlistening_da-ta.mp3	da	ta	1	left
6.6.1	and	2023-07-06	21:57:40	22:26:40	1703437	5e9bda4fc2758f0f5713a3f8	2	1	main_z	24	advance_on_keypress_ZEE	100	stimuli_distractor_diamondtriangles.svg	stimuli_target_trianglerectangles.svg	29	yes	57	0	401	6	6	antiphase_hc_ois.wav	3	6	5	noise_calib_stim_RIGHT.wav	2	12	blb_dichoticlistening_da-ta.mp3	da	ta	1	left
6.6.1	and	2023-07-06	21:57:40	22:26:42	1705466	5e9bda4fc2758f0f5713a3f8	2	1	main_z	24	main_z	101	stimuli_distractor_diamondtriangles.svg	stimuli_target_diamondsquares.svg	32	yes	44	1	1001	6	6	antiphase_hc_ois.wav	3	6	5	noise_calib_stim_RIGHT.wav	2	12	blb_dichoticlistening_da-ta.mp3	da	ta	1	left
6.6.1	and	2023-07-06	21:57:40	22:26:42	1705466	5e9bda4fc2758f0f5713a3f8	2	1	main_z	24	advance_on_keypress_ZEE	102	stimuli_distractor_diamondtriangles.svg	stimuli_target_diamondsquares.svg	32	yes	57	0	366	6	6	antiphase_hc_ois.wav	3	6	5	noise_calib_stim_RIGHT.wav	2	12	blb_dichoticlistening_da-ta.mp3	da	ta	1	left
6.6.1	and	2023-07-06	21:57:40	22:26:45	1707762	5e9bda4fc2758f0f5713a3f8	2	1	main_z	24	main_z	103	stimuli_distractor_trianglediamonds.svg	stimuli_target_rectanglediamonds.svg	10	yes	44	1	1296	6	6	antiphase_hc_ois.wav	3	6	5	noise_calib_stim_RIGHT.wav	2	12	blb_dichoticlistening_da-ta.mp3	da	ta	1	left
6.6.1	and	2023-07-06	21:57:40	22:26:45	1707762	5e9bda4fc2758f0f5713a3f8	2	1	main_z	24	advance_on_keypress_ZEE	104	stimuli_distractor_trianglediamonds.svg	stimuli_target_rectanglediamonds.svg	10	yes	57	0	381	6	6	antiphase_hc_ois.wav	3	6	5	noise_calib_stim_RIGHT.wav	2	12	blb_dichoticlistening_da-ta.mp3	da	ta	1	left
6.6.1	and	2023-07-06	21:57:40	22:26:47	1710028	5e9bda4fc2758f0f5713a3f8	2	1	main_z	24	main_z	105	stimuli_target_trianglerectangles.svg	stimuli_distractor_trianglediamonds.svg	17	yes	44	1	1245	6	6	antiphase_hc_ois.wav	3	6	5	noise_calib_stim_RIGHT.wav	2	12	blb_dichoticlistening_da-ta.mp3	da	ta	1	left
6.6.1	and	2023-07-06	21:57:40	22:26:47	1710028	5e9bda4fc2758f0f5713a3f8	2	1	main_z	24	advance_on_keypress_ZEE	106	stimuli_target_trianglerectangles.svg	stimuli_distractor_trianglediamonds.svg	17	yes	57	0	394	6	6	antiphase_hc_ois.wav	3	6	5	noise_calib_stim_RIGHT.wav	2	12	blb_dichoticlistening_da-ta.mp3	da	ta	1	left
6.6.1	and	2023-07-06	21:57:40	22:26:49	1712185	5e9bda4fc2758f0f5713a3f8	2	1	main_z	24	main_z	107	stimuli_target_diamondsquares.svg	stimuli_distractor_trianglediamonds.svg	20	yes	44	1	1117	6	6	antiphase_hc_ois.wav	3	6	5	noise_calib_stim_RIGHT.wav	2	12	blb_dichoticlistening_da-ta.mp3	da	ta	1	left
6.6.1	and	2023-07-06	21:57:40	22:26:49	1712185	5e9bda4fc2758f0f5713a3f8	2	1	main_z	24	advance_on_keypress_ZEE	108	stimuli_target_diamondsquares.svg	stimuli_distractor_trianglediamonds.svg	20	yes	57	0	465	6	6	antiphase_hc_ois.wav	3	6	5	noise_calib_stim_RIGHT.wav	2	12	blb_dichoticlistening_da-ta.mp3	da	ta	1	left
6.6.1	and	2023-07-06	21:57:40	22:26:51	1714426	5e9bda4fc2758f0f5713a3f8	2	1	main_z	24	main_z	109	stimuli_distractor_diamondtriangles.svg	stimuli_distractor_trianglediamonds.svg	37	no	44	0	1144	6	6	antiphase_hc_ois.wav	3	6	5	noise_calib_stim_RIGHT.wav	2	12	blb_dichoticlistening_da-ta.mp3	da	ta	1	left
6.6.1	and	2023-07-06	21:57:40	22:26:51	1714426	5e9bda4fc2758f0f5713a3f8	2	1	main_z	24	advance_on_keypress_ZEE	110	stimuli_distractor_diamondtriangles.svg	stimuli_distractor_trianglediamonds.svg	37	no	57	0	382	6	6	antiphase_hc_ois.wav	3	6	5	noise_calib_stim_RIGHT.wav	2	12	blb_dichoticlistening_da-ta.mp3	da	ta	1	left
6.6.1	and	2023-07-06	21:57:40	22:26:53	1716486	5e9bda4fc2758f0f5713a3f8	2	1	main_z	24	main_z	111	stimuli_distractor_diamondtriangles.svg	stimuli_target_squarediamonds.svg	16	yes	44	1	1034	6	6	antiphase_hc_ois.wav	3	6	5	noise_calib_stim_RIGHT.wav	2	12	blb_dichoticlistening_da-ta.mp3	da	ta	1	left
6.6.1	and	2023-07-06	21:57:40	22:26:53	1716486	5e9bda4fc2758f0f5713a3f8	2	1	main_z	24	advance_on_keypress_ZEE	112	stimuli_distractor_diamondtriangles.svg	stimuli_target_squarediamonds.svg	16	yes	57	0	378	6	6	antiphase_hc_ois.wav	3	6	5	noise_calib_stim_RIGHT.wav	2	12	blb_dichoticlistening_da-ta.mp3	da	ta	1	left
6.6.1	and	2023-07-06	21:57:40	22:26:55	1718475	5e9bda4fc2758f0f5713a3f8	2	1	main_z	24	main_z	113	stimuli_target_trianglesquares.svg	stimuli_distractor_diamondtriangles.svg	22	yes	44	1	974	6	6	antiphase_hc_ois.wav	3	6	5	noise_calib_stim_RIGHT.wav	2	12	blb_dichoticlistening_da-ta.mp3	da	ta	1	left
6.6.1	and	2023-07-06	21:57:40	22:26:55	1718475	5e9bda4fc2758f0f5713a3f8	2	1	main_z	24	advance_on_keypress_ZEE	114	stimuli_target_trianglesquares.svg	stimuli_distractor_diamondtriangles.svg	22	yes	57	0	449	6	6	antiphase_hc_ois.wav	3	6	5	noise_calib_stim_RIGHT.wav	2	12	blb_dichoticlistening_da-ta.mp3	da	ta	1	left
6.6.1	and	2023-07-06	21:57:40	22:26:57	1720609	5e9bda4fc2758f0f5713a3f8	2	1	main_z	24	main_z	115	stimuli_distractor_trianglediamonds.svg	stimuli_target_rectangletriangles.svg	9	yes	44	1	1041	6	6	antiphase_hc_ois.wav	3	6	5	noise_calib_stim_RIGHT.wav	2	12	blb_dichoticlistening_da-ta.mp3	da	ta	1	left
6.6.1	and	2023-07-06	21:57:40	22:26:57	1720609	5e9bda4fc2758f0f5713a3f8	2	1	main_z	24	advance_on_keypress_ZEE	116	stimuli_distractor_trianglediamonds.svg	stimuli_target_rectangletriangles.svg	9	yes	57	0	344	6	6	antiphase_hc_ois.wav	3	6	5	noise_calib_stim_RIGHT.wav	2	12	blb_dichoticlistening_da-ta.mp3	da	ta	1	left
6.6.1	and	2023-07-06	21:57:40	22:26:59	1722471	5e9bda4fc2758f0f5713a3f8	2	1	main_z	24	main_z	117	stimuli_distractor_trianglediamonds.svg	stimuli_target_squaretriangles.svg	11	yes	44	1	867	6	6	antiphase_hc_ois.wav	3	6	5	noise_calib_stim_RIGHT.wav	2	12	blb_dichoticlistening_da-ta.mp3	da	ta	1	left
6.6.1	and	2023-07-06	21:57:40	22:26:59	1722471	5e9bda4fc2758f0f5713a3f8	2	1	main_z	24	advance_on_keypress_ZEE	118	stimuli_distractor_trianglediamonds.svg	stimuli_target_squaretriangles.svg	11	yes	57	0	351	6	6	antiphase_hc_ois.wav	3	6	5	noise_calib_stim_RIGHT.wav	2	12	blb_dichoticlistening_da-ta.mp3	da	ta	1	left
6.6.1	and	2023-07-06	21:57:40	22:27:01	1724356	5e9bda4fc2758f0f5713a3f8	2	1	main_z	24	main_z	119	stimuli_distractor_diamondtriangles.svg	stimuli_target_squaretriangles.svg	15	yes	44	1	888	6	6	antiphase_hc_ois.wav	3	6	5	noise_calib_stim_RIGHT.wav	2	12	blb_dichoticlistening_da-ta.mp3	da	ta	1	left
6.6.1	and	2023-07-06	21:57:40	22:27:01	1724356	5e9bda4fc2758f0f5713a3f8	2	1	main_z	24	advance_on_keypress_ZEE	120	stimuli_distractor_diamondtriangles.svg	stimuli_target_squaretriangles.svg	15	yes	57	0	304	6	6	antiphase_hc_ois.wav	3	6	5	noise_calib_stim_RIGHT.wav	2	12	blb_dichoticlistening_da-ta.mp3	da	ta	1	left
6.6.1	and	2023-07-06	21:57:40	22:27:03	1726159	5e9bda4fc2758f0f5713a3f8	2	1	main_z	24	main_z	121	stimuli_distractor_diamondtriangles.svg	stimuli_target_rectangletriangles.svg	13	yes	44	1	845	6	6	antiphase_hc_ois.wav	3	6	5	noise_calib_stim_RIGHT.wav	2	12	blb_dichoticlistening_da-ta.mp3	da	ta	1	left
6.6.1	and	2023-07-06	21:57:40	22:27:03	1726159	5e9bda4fc2758f0f5713a3f8	2	1	main_z	24	advance_on_keypress_ZEE	122	stimuli_distractor_diamondtriangles.svg	stimuli_target_rectangletriangles.svg	13	yes	57	0	306	6	6	antiphase_hc_ois.wav	3	6	5	noise_calib_stim_RIGHT.wav	2	12	blb_dichoticlistening_da-ta.mp3	da	ta	1	left
6.6.1	and	2023-07-06	21:57:40	22:27:05	1727975	5e9bda4fc2758f0f5713a3f8	2	1	main_z	24	main_z	123	stimuli_distractor_diamondtriangles.svg	stimuli_target_diamondrectangles.svg	31	yes	44	1	873	6	6	antiphase_hc_ois.wav	3	6	5	noise_calib_stim_RIGHT.wav	2	12	blb_dichoticlistening_da-ta.mp3	da	ta	1	left
6.6.1	and	2023-07-06	21:57:40	22:27:05	1727975	5e9bda4fc2758f0f5713a3f8	2	1	main_z	24	advance_on_keypress_ZEE	124	stimuli_distractor_diamondtriangles.svg	stimuli_target_diamondrectangles.svg	31	yes	57	0	330	6	6	antiphase_hc_ois.wav	3	6	5	noise_calib_stim_RIGHT.wav	2	12	blb_dichoticlistening_da-ta.mp3	da	ta	1	left
6.6.1	and	2023-07-06	21:57:40	22:27:07	1730165	5e9bda4fc2758f0f5713a3f8	2	1	main_z	24	main_z	125	stimuli_distractor_trianglediamonds.svg	stimuli_distractor_diamondtriangles.svg	35	no	44	0	1217	6	6	antiphase_hc_ois.wav	3	6	5	noise_calib_stim_RIGHT.wav	2	12	blb_dichoticlistening_da-ta.mp3	da	ta	1	left
6.6.1	and	2023-07-06	21:57:40	22:27:07	1730165	5e9bda4fc2758f0f5713a3f8	2	1	main_z	24	advance_on_keypress_ZEE	126	stimuli_distractor_trianglediamonds.svg	stimuli_distractor_diamondtriangles.svg	35	no	57	0	285	6	6	antiphase_hc_ois.wav	3	6	5	noise_calib_stim_RIGHT.wav	2	12	blb_dichoticlistening_da-ta.mp3	da	ta	1	left
6.6.1	and	2023-07-06	21:57:40	22:27:09	1732088	5e9bda4fc2758f0f5713a3f8	2	1	main_z	24	main_z	127	stimuli_target_rectangletriangles.svg	stimuli_distractor_diamondtriangles.svg	5	yes	44	1	1004	6	6	antiphase_hc_ois.wav	3	6	5	noise_calib_stim_RIGHT.wav	2	12	blb_dichoticlistening_da-ta.mp3	da	ta	1	left
6.6.1	and	2023-07-06	21:57:40	22:27:09	1732088	5e9bda4fc2758f0f5713a3f8	2	1	main_z	24	advance_on_keypress_ZEE	128	stimuli_target_rectangletriangles.svg	stimuli_distractor_diamondtriangles.svg	5	yes	57	0	444	6	6	antiphase_hc_ois.wav	3	6	5	noise_calib_stim_RIGHT.wav	2	12	blb_dichoticlistening_da-ta.mp3	da	ta	1	left
6.6.1	and	2023-07-06	21:57:40	22:27:11	1734153	5e9bda4fc2758f0f5713a3f8	2	1	main_z	24	main_z	129	stimuli_target_squaretriangles.svg	stimuli_distractor_diamondtriangles.svg	7	yes	44	1	987	6	6	antiphase_hc_ois.wav	3	6	5	noise_calib_stim_RIGHT.wav	2	12	blb_dichoticlistening_da-ta.mp3	da	ta	1	left
6.6.1	and	2023-07-06	21:57:40	22:27:11	1734153	5e9bda4fc2758f0f5713a3f8	2	1	main_z	24	advance_on_keypress_ZEE	130	stimuli_target_squaretriangles.svg	stimuli_distractor_diamondtriangles.svg	7	yes	57	0	301	6	6	antiphase_hc_ois.wav	3	6	5	noise_calib_stim_RIGHT.wav	2	12	blb_dichoticlistening_da-ta.mp3	da	ta	1	left
6.6.1	and	2023-07-06	21:57:40	22:27:13	1736588	5e9bda4fc2758f0f5713a3f8	2	1	main_z	24	main_z	131	stimuli_target_trianglerectangles.svg	stimuli_distractor_diamondtriangles.svg	21	yes	44	1	1506	6	6	antiphase_hc_ois.wav	3	6	5	noise_calib_stim_RIGHT.wav	2	12	blb_dichoticlistening_da-ta.mp3	da	ta	1	left
6.6.1	and	2023-07-06	21:57:40	22:27:13	1736588	5e9bda4fc2758f0f5713a3f8	2	1	main_z	24	advance_on_keypress_ZEE	132	stimuli_target_trianglerectangles.svg	stimuli_distractor_diamondtriangles.svg	21	yes	57	0	277	6	6	antiphase_hc_ois.wav	3	6	5	noise_calib_stim_RIGHT.wav	2	12	blb_dichoticlistening_da-ta.mp3	da	ta	1	left
6.6.1	and	2023-07-06	21:57:40	22:27:15	1738527	5e9bda4fc2758f0f5713a3f8	2	1	main_z	24	main_z	133	stimuli_distractor_diamondtriangles.svg	stimuli_target_trianglesquares.svg	30	yes	44	1	1003	6	6	antiphase_hc_ois.wav	3	6	5	noise_calib_stim_RIGHT.wav	2	12	blb_dichoticlistening_da-ta.mp3	da	ta	1	left
6.6.1	and	2023-07-06	21:57:40	22:27:15	1738527	5e9bda4fc2758f0f5713a3f8	2	1	main_z	24	advance_on_keypress_ZEE	134	stimuli_distractor_diamondtriangles.svg	stimuli_target_trianglesquares.svg	30	yes	57	0	293	6	6	antiphase_hc_ois.wav	3	6	5	noise_calib_stim_RIGHT.wav	2	12	blb_dichoticlistening_da-ta.mp3	da	ta	1	left
6.6.1	and	2023-07-06	21:57:40	22:27:17	1740695	5e9bda4fc2758f0f5713a3f8	2	1	main_z	24	main_z	135	stimuli_distractor_trianglediamonds.svg	stimuli_distractor_diamondtriangles.svg	36	no	44	0	1230	6	6	antiphase_hc_ois.wav	3	6	5	noise_calib_stim_RIGHT.wav	2	12	blb_dichoticlistening_da-ta.mp3	da	ta	1	left
6.6.1	and	2023-07-06	21:57:40	22:27:17	1740695	5e9bda4fc2758f0f5713a3f8	2	1	main_z	24	advance_on_keypress_ZEE	136	stimuli_distractor_trianglediamonds.svg	stimuli_distractor_diamondtriangles.svg	36	no	57	0	325	6	6	antiphase_hc_ois.wav	3	6	5	noise_calib_stim_RIGHT.wav	2	12	blb_dichoticlistening_da-ta.mp3	da	ta	1	left
6.6.1	and	2023-07-06	21:57:40	22:27:20	1743647	5e9bda4fc2758f0f5713a3f8	2	1	main_z	24	main_z	137	stimuli_distractor_diamondtriangles.svg	stimuli_distractor_diamondtriangles.svg	40	no	0	1	2000	6	6	antiphase_hc_ois.wav	3	6	5	noise_calib_stim_RIGHT.wav	2	12	blb_dichoticlistening_da-ta.mp3	da	ta	1	left
6.6.1	and	2023-07-06	21:57:40	22:27:20	1743647	5e9bda4fc2758f0f5713a3f8	2	1	main_z	24	advance_on_keypress_ZEE	138	stimuli_distractor_diamondtriangles.svg	stimuli_distractor_diamondtriangles.svg	40	no	57	0	594	6	6	antiphase_hc_ois.wav	3	6	5	noise_calib_stim_RIGHT.wav	2	12	blb_dichoticlistening_da-ta.mp3	da	ta	1	left
6.6.1	and	2023-07-06	21:57:40	22:27:23	1745952	5e9bda4fc2758f0f5713a3f8	2	1	main_z	24	main_z	139	stimuli_distractor_trianglediamonds.svg	stimuli_target_diamondrectangles.svg	27	yes	44	1	1071	6	6	antiphase_hc_ois.wav	3	6	5	noise_calib_stim_RIGHT.wav	2	12	blb_dichoticlistening_da-ta.mp3	da	ta	1	left
6.6.1	and	2023-07-06	21:57:40	22:27:23	1745952	5e9bda4fc2758f0f5713a3f8	2	1	main_z	24	advance_on_keypress_ZEE	140	stimuli_distractor_trianglediamonds.svg	stimuli_target_diamondrectangles.svg	27	yes	57	0	713	6	6	antiphase_hc_ois.wav	3	6	5	noise_calib_stim_RIGHT.wav	2	12	blb_dichoticlistening_da-ta.mp3	da	ta	1	left
6.6.1	and	2023-07-06	21:57:40	22:27:25	1748397	5e9bda4fc2758f0f5713a3f8	2	1	main_z	24	main_z	141	stimuli_target_diamondrectangles.svg	stimuli_distractor_trianglediamonds.svg	19	yes	44	1	1096	6	6	antiphase_hc_ois.wav	3	6	5	noise_calib_stim_RIGHT.wav	2	12	blb_dichoticlistening_da-ta.mp3	da	ta	1	left
6.6.1	and	2023-07-06	21:57:40	22:27:25	1748397	5e9bda4fc2758f0f5713a3f8	2	1	main_z	24	advance_on_keypress_ZEE	142	stimuli_target_diamondrectangles.svg	stimuli_distractor_trianglediamonds.svg	19	yes	57	0	374	6	6	antiphase_hc_ois.wav	3	6	5	noise_calib_stim_RIGHT.wav	2	12	blb_dichoticlistening_da-ta.mp3	da	ta	1	left
6.6.1	and	2023-07-06	21:57:40	22:27:27	1750692	5e9bda4fc2758f0f5713a3f8	2	1	main_z	24	main_z	143	stimuli_target_rectangletriangles.svg	stimuli_distractor_trianglediamonds.svg	1	yes	44	1	1294	6	6	antiphase_hc_ois.wav	3	6	5	noise_calib_stim_RIGHT.wav	2	12	blb_dichoticlistening_da-ta.mp3	da	ta	1	left
6.6.1	and	2023-07-06	21:57:40	22:27:27	1750692	5e9bda4fc2758f0f5713a3f8	2	1	main_z	24	advance_on_keypress_ZEE	144	stimuli_target_rectangletriangles.svg	stimuli_distractor_trianglediamonds.svg	1	yes	57	0	283	6	6	antiphase_hc_ois.wav	3	6	5	noise_calib_stim_RIGHT.wav	2	12	blb_dichoticlistening_da-ta.mp3	da	ta	1	left
6.6.1	and	2023-07-06	21:57:40	22:27:29	1752726	5e9bda4fc2758f0f5713a3f8	2	1	main_z	24	main_z	145	stimuli_target_diamondsquares.svg	stimuli_distractor_diamondtriangles.svg	24	yes	44	1	1105	6	6	antiphase_hc_ois.wav	3	6	5	noise_calib_stim_RIGHT.wav	2	12	blb_dichoticlistening_da-ta.mp3	da	ta	1	left
6.6.1	and	2023-07-06	21:57:40	22:27:29	1752726	5e9bda4fc2758f0f5713a3f8	2	1	main_z	24	advance_on_keypress_ZEE	146	stimuli_target_diamondsquares.svg	stimuli_distractor_diamondtriangles.svg	24	yes	57	0	314	6	6	antiphase_hc_ois.wav	3	6	5	noise_calib_stim_RIGHT.wav	2	12	blb_dichoticlistening_da-ta.mp3	da	ta	1	left
6.6.1	and	2023-07-06	21:57:40	22:27:32	1755116	5e9bda4fc2758f0f5713a3f8	2	1	main_z	24	main_z	147	stimuli_distractor_diamondtriangles.svg	stimuli_distractor_trianglediamonds.svg	38	no	44	0	1432	6	6	antiphase_hc_ois.wav	3	6	5	noise_calib_stim_RIGHT.wav	2	12	blb_dichoticlistening_da-ta.mp3	da	ta	1	left
6.6.1	and	2023-07-06	21:57:40	22:27:32	1755116	5e9bda4fc2758f0f5713a3f8	2	1	main_z	24	advance_on_keypress_ZEE	148	stimuli_distractor_diamondtriangles.svg	stimuli_distractor_trianglediamonds.svg	38	no	57	0	413	6	6	antiphase_hc_ois.wav	3	6	5	noise_calib_stim_RIGHT.wav	2	12	blb_dichoticlistening_da-ta.mp3	da	ta	1	left
6.6.1	and	2023-07-06	21:57:40	22:27:34	1757248	5e9bda4fc2758f0f5713a3f8	2	1	main_z	24	main_z	149	stimuli_target_squarediamonds.svg	stimuli_distractor_trianglediamonds.svg	4	yes	44	1	1085	6	6	antiphase_hc_ois.wav	3	6	5	noise_calib_stim_RIGHT.wav	2	12	blb_dichoticlistening_da-ta.mp3	da	ta	1	left
6.6.1	and	2023-07-06	21:57:40	22:27:34	1757248	5e9bda4fc2758f0f5713a3f8	2	1	main_z	24	advance_on_keypress_ZEE	150	stimuli_target_squarediamonds.svg	stimuli_distractor_trianglediamonds.svg	4	yes	57	0	283	6	6	antiphase_hc_ois.wav	3	6	5	noise_calib_stim_RIGHT.wav	2	12	blb_dichoticlistening_da-ta.mp3	da	ta	1	left
6.6.1	and	2023-07-06	21:57:40	22:27:36	1759132	5e9bda4fc2758f0f5713a3f8	2	1	main_z	24	main_z	151	stimuli_distractor_diamondtriangles.svg	stimuli_target_rectanglediamonds.svg	14	yes	44	1	965	6	6	antiphase_hc_ois.wav	3	6	5	noise_calib_stim_RIGHT.wav	2	12	blb_dichoticlistening_da-ta.mp3	da	ta	1	left
6.6.1	and	2023-07-06	21:57:40	22:27:36	1759132	5e9bda4fc2758f0f5713a3f8	2	1	main_z	24	advance_on_keypress_ZEE	152	stimuli_distractor_diamondtriangles.svg	stimuli_target_rectanglediamonds.svg	14	yes	57	0	303	6	6	antiphase_hc_ois.wav	3	6	5	noise_calib_stim_RIGHT.wav	2	12	blb_dichoticlistening_da-ta.mp3	da	ta	1	left
6.6.1	and	2023-07-06	21:57:40	22:27:38	1761000	5e9bda4fc2758f0f5713a3f8	2	1	main_z	24	main_z	153	stimuli_target_trianglesquares.svg	stimuli_distractor_trianglediamonds.svg	18	yes	44	1	929	6	6	antiphase_hc_ois.wav	3	6	5	noise_calib_stim_RIGHT.wav	2	12	blb_dichoticlistening_da-ta.mp3	da	ta	1	left
6.6.1	and	2023-07-06	21:57:40	22:27:38	1761000	5e9bda4fc2758f0f5713a3f8	2	1	main_z	24	advance_on_keypress_ZEE	154	stimuli_target_trianglesquares.svg	stimuli_distractor_trianglediamonds.svg	18	yes	57	0	273	6	6	antiphase_hc_ois.wav	3	6	5	noise_calib_stim_RIGHT.wav	2	12	blb_dichoticlistening_da-ta.mp3	da	ta	1	left
6.6.1	and	2023-07-06	21:57:40	22:27:41	1763902	5e9bda4fc2758f0f5713a3f8	2	1	main_z	24	main_z	155	stimuli_distractor_diamondtriangles.svg	stimuli_distractor_diamondtriangles.svg	39	no	0	1	2000	6	6	antiphase_hc_ois.wav	3	6	5	noise_calib_stim_RIGHT.wav	2	12	blb_dichoticlistening_da-ta.mp3	da	ta	1	left
6.6.1	and	2023-07-06	21:57:40	22:27:41	1763902	5e9bda4fc2758f0f5713a3f8	2	1	main_z	24	advance_on_keypress_ZEE	156	stimuli_distractor_diamondtriangles.svg	stimuli_distractor_diamondtriangles.svg	39	no	57	0	512	6	6	antiphase_hc_ois.wav	3	6	5	noise_calib_stim_RIGHT.wav	2	12	blb_dichoticlistening_da-ta.mp3	da	ta	1	left
6.6.1	and	2023-07-06	21:57:40	22:27:44	1767049	5e9bda4fc2758f0f5713a3f8	2	1	main_z	24	main_z	157	stimuli_distractor_trianglediamonds.svg	stimuli_distractor_trianglediamonds.svg	34	no	0	1	2000	6	6	antiphase_hc_ois.wav	3	6	5	noise_calib_stim_RIGHT.wav	2	12	blb_dichoticlistening_da-ta.mp3	da	ta	1	left
6.6.1	and	2023-07-06	21:57:40	22:27:44	1767049	5e9bda4fc2758f0f5713a3f8	2	1	main_z	24	advance_on_keypress_ZEE	158	stimuli_distractor_trianglediamonds.svg	stimuli_distractor_trianglediamonds.svg	34	no	57	0	121	6	6	antiphase_hc_ois.wav	3	6	5	noise_calib_stim_RIGHT.wav	2	12	blb_dichoticlistening_da-ta.mp3	da	ta	1	left
6.6.1	and	2023-07-06	21:57:40	22:27:46	1768858	5e9bda4fc2758f0f5713a3f8	2	1	main_z	24	main_z	159	stimuli_distractor_trianglediamonds.svg	stimuli_target_trianglesquares.svg	26	yes	44	1	1063	6	6	antiphase_hc_ois.wav	3	6	5	noise_calib_stim_RIGHT.wav	2	12	blb_dichoticlistening_da-ta.mp3	da	ta	1	left
6.6.1	and	2023-07-06	21:57:40	22:27:46	1768858	5e9bda4fc2758f0f5713a3f8	2	1	main_z	24	advance_on_keypress_ZEE	160	stimuli_distractor_trianglediamonds.svg	stimuli_target_trianglesquares.svg	26	yes	57	0	314	6	6	antiphase_hc_ois.wav	3	6	5	noise_calib_stim_RIGHT.wav	2	12	blb_dichoticlistening_da-ta.mp3	da	ta	1	left
6.6.1	and	2023-07-06	21:57:40	22:28:42	1825299	5e9bda4fc2758f0f5713a3f8	2	1	practice_slash	26	practice_slash	1	stimuli_target_rectanglediamonds.svg	stimuli_distractor_diamondtriangles.svg	1	yes	53	1	832	6	6	antiphase_hc_ois.wav	3	6	5	noise_calib_stim_RIGHT.wav	2	12	blb_dichoticlistening_da-ta.mp3	da	ta	1	left
6.6.1	and	2023-07-06	21:57:40	22:28:42	1825299	5e9bda4fc2758f0f5713a3f8	2	1	practice_slash	26	advance_on_keypress_SLASH	2	stimuli_target_rectanglediamonds.svg	stimuli_distractor_diamondtriangles.svg	1	yes	57	0	593	6	6	antiphase_hc_ois.wav	3	6	5	noise_calib_stim_RIGHT.wav	2	12	blb_dichoticlistening_da-ta.mp3	da	ta	1	left
6.6.1	and	2023-07-06	21:57:40	22:28:45	1828089	5e9bda4fc2758f0f5713a3f8	2	1	practice_slash	26	practice_slash	3	stimuli_target_diamondsquares.svg	stimuli_distractor_trianglediamonds.svg	6	yes	53	1	543	6	6	antiphase_hc_ois.wav	3	6	5	noise_calib_stim_RIGHT.wav	2	12	blb_dichoticlistening_da-ta.mp3	da	ta	1	left
6.6.1	and	2023-07-06	21:57:40	22:28:45	1828089	5e9bda4fc2758f0f5713a3f8	2	1	practice_slash	26	advance_on_keypress_SLASH	4	stimuli_target_diamondsquares.svg	stimuli_distractor_trianglediamonds.svg	6	yes	57	0	434	6	6	antiphase_hc_ois.wav	3	6	5	noise_calib_stim_RIGHT.wav	2	12	blb_dichoticlistening_da-ta.mp3	da	ta	1	left
6.6.1	and	2023-07-06	21:57:40	22:28:48	1831281	5e9bda4fc2758f0f5713a3f8	2	1	practice_slash	26	practice_slash	5	stimuli_distractor_diamondtriangles.svg	stimuli_target_rectangletriangles.svg	7	yes	53	1	1118	6	6	antiphase_hc_ois.wav	3	6	5	noise_calib_stim_RIGHT.wav	2	12	blb_dichoticlistening_da-ta.mp3	da	ta	1	left
6.6.1	and	2023-07-06	21:57:40	22:28:48	1831281	5e9bda4fc2758f0f5713a3f8	2	1	practice_slash	26	advance_on_keypress_SLASH	6	stimuli_distractor_diamondtriangles.svg	stimuli_target_rectangletriangles.svg	7	yes	57	0	478	6	6	antiphase_hc_ois.wav	3	6	5	noise_calib_stim_RIGHT.wav	2	12	blb_dichoticlistening_da-ta.mp3	da	ta	1	left
6.6.1	and	2023-07-06	21:57:40	22:28:52	1835397	5e9bda4fc2758f0f5713a3f8	2	1	practice_slash	26	practice_slash	7	stimuli_distractor_trianglediamonds.svg	stimuli_distractor_trianglediamonds.svg	15	no	0	1	2000	6	6	antiphase_hc_ois.wav	3	6	5	noise_calib_stim_RIGHT.wav	2	12	blb_dichoticlistening_da-ta.mp3	da	ta	1	left
6.6.1	and	2023-07-06	21:57:40	22:28:52	1835397	5e9bda4fc2758f0f5713a3f8	2	1	practice_slash	26	advance_on_keypress_SLASH	8	stimuli_distractor_trianglediamonds.svg	stimuli_distractor_trianglediamonds.svg	15	no	57	0	540	6	6	antiphase_hc_ois.wav	3	6	5	noise_calib_stim_RIGHT.wav	2	12	blb_dichoticlistening_da-ta.mp3	da	ta	1	left
6.6.1	and	2023-07-06	21:57:40	22:28:55	1838321	5e9bda4fc2758f0f5713a3f8	2	1	practice_slash	26	practice_slash	9	stimuli_target_rectanglediamonds.svg	stimuli_distractor_trianglediamonds.svg	4	yes	53	1	759	6	6	antiphase_hc_ois.wav	3	6	5	noise_calib_stim_RIGHT.wav	2	12	blb_dichoticlistening_da-ta.mp3	da	ta	1	left
6.6.1	and	2023-07-06	21:57:40	22:28:55	1838321	5e9bda4fc2758f0f5713a3f8	2	1	practice_slash	26	advance_on_keypress_SLASH	10	stimuli_target_rectanglediamonds.svg	stimuli_distractor_trianglediamonds.svg	4	yes	57	0	631	6	6	antiphase_hc_ois.wav	3	6	5	noise_calib_stim_RIGHT.wav	2	12	blb_dichoticlistening_da-ta.mp3	da	ta	1	left
6.6.1	and	2023-07-06	21:57:40	22:28:59	1842040	5e9bda4fc2758f0f5713a3f8	2	1	practice_slash	26	practice_slash	11	stimuli_distractor_trianglediamonds.svg	stimuli_distractor_diamondtriangles.svg	16	no	53	0	1442	6	6	antiphase_hc_ois.wav	3	6	5	noise_calib_stim_RIGHT.wav	2	12	blb_dichoticlistening_da-ta.mp3	da	ta	1	left
6.6.1	and	2023-07-06	21:57:40	22:28:59	1842040	5e9bda4fc2758f0f5713a3f8	2	1	practice_slash	26	advance_on_keypress_SLASH	12	stimuli_distractor_trianglediamonds.svg	stimuli_distractor_diamondtriangles.svg	16	no	57	0	503	6	6	antiphase_hc_ois.wav	3	6	5	noise_calib_stim_RIGHT.wav	2	12	blb_dichoticlistening_da-ta.mp3	da	ta	1	left
6.6.1	and	2023-07-06	21:57:40	22:29:02	1845147	5e9bda4fc2758f0f5713a3f8	2	1	practice_slash	26	practice_slash	13	stimuli_distractor_trianglediamonds.svg	stimuli_target_rectanglediamonds.svg	10	yes	53	1	953	6	6	antiphase_hc_ois.wav	3	6	5	noise_calib_stim_RIGHT.wav	2	12	blb_dichoticlistening_da-ta.mp3	da	ta	1	left
6.6.1	and	2023-07-06	21:57:40	22:29:02	1845147	5e9bda4fc2758f0f5713a3f8	2	1	practice_slash	26	advance_on_keypress_SLASH	14	stimuli_distractor_trianglediamonds.svg	stimuli_target_rectanglediamonds.svg	10	yes	57	0	639	6	6	antiphase_hc_ois.wav	3	6	5	noise_calib_stim_RIGHT.wav	2	12	blb_dichoticlistening_da-ta.mp3	da	ta	1	left
6.6.1	and	2023-07-06	21:57:40	22:29:05	1848313	5e9bda4fc2758f0f5713a3f8	2	1	practice_slash	26	practice_slash	15	stimuli_distractor_diamondtriangles.svg	stimuli_target_diamondrectangles.svg	8	yes	53	1	902	6	6	antiphase_hc_ois.wav	3	6	5	noise_calib_stim_RIGHT.wav	2	12	blb_dichoticlistening_da-ta.mp3	da	ta	1	left
6.6.1	and	2023-07-06	21:57:40	22:29:05	1848313	5e9bda4fc2758f0f5713a3f8	2	1	practice_slash	26	advance_on_keypress_SLASH	16	stimuli_distractor_diamondtriangles.svg	stimuli_target_diamondrectangles.svg	8	yes	57	0	602	6	6	antiphase_hc_ois.wav	3	6	5	noise_calib_stim_RIGHT.wav	2	12	blb_dichoticlistening_da-ta.mp3	da	ta	1	left
6.6.1	and	2023-07-06	21:57:40	22:29:08	1851419	5e9bda4fc2758f0f5713a3f8	2	1	practice_slash	26	practice_slash	17	stimuli_target_squarediamonds.svg	stimuli_distractor_diamondtriangles.svg	2	yes	53	1	874	6	6	antiphase_hc_ois.wav	3	6	5	noise_calib_stim_RIGHT.wav	2	12	blb_dichoticlistening_da-ta.mp3	da	ta	1	left
6.6.1	and	2023-07-06	21:57:40	22:29:08	1851419	5e9bda4fc2758f0f5713a3f8	2	1	practice_slash	26	advance_on_keypress_SLASH	18	stimuli_target_squarediamonds.svg	stimuli_distractor_diamondtriangles.svg	2	yes	57	0	559	6	6	antiphase_hc_ois.wav	3	6	5	noise_calib_stim_RIGHT.wav	2	12	blb_dichoticlistening_da-ta.mp3	da	ta	1	left
