build	computer.platform	date	time	timestamp	time_elapsed_ms	subject	group	session	blockcode	blocknum	trialcode	trialnum	stimulus_left	stimulus_right	stim_index	target_present	response	correct	latency	headphonecheck_countTestTrials	headphonecheck_index	headphonecheck_testSound	headphonecheck_correctResponse	stereocheck_countTestTrials	stereocheck_index	stereocheck_testSound	stereocheck_correctResponse	DL_index	DL_soundfile	DL_leftSound	DL_rightSound	DL_dualSound	DL_choice
6.6.1	mac	2023-06-20	15:06:17	15:10:11	231102	604ece0ddcb93c1afcda5601	3	1	practice_slash	5	practice_slash	1	stimuli_distractor_diamondtriangles.svg	stimuli_target_trianglerectangles.svg	9	yes	53	1	1277	0	0			0	0			1				0	
6.6.1	mac	2023-06-20	15:06:17	15:10:11	231102	604ece0ddcb93c1afcda5601	3	1	practice_slash	5	advance_on_keypress_SLASH	2	stimuli_distractor_diamondtriangles.svg	stimuli_target_trianglerectangles.svg	9	yes	57	0	1805	0	0			0	0			1				0	
6.6.1	mac	2023-06-20	15:06:17	15:10:16	235786	604ece0ddcb93c1afcda5601	3	1	practice_slash	5	practice_slash	3	stimuli_target_diamondsquares.svg	stimuli_distractor_trianglediamonds.svg	6	yes	53	1	1227	0	0			0	0			1				0	
6.6.1	mac	2023-06-20	15:06:17	15:10:16	235786	604ece0ddcb93c1afcda5601	3	1	practice_slash	5	advance_on_keypress_SLASH	4	stimuli_target_diamondsquares.svg	stimuli_distractor_trianglediamonds.svg	6	yes	57	0	734	0	0			0	0			1				0	
6.6.1	mac	2023-06-20	15:06:17	15:10:19	239180	604ece0ddcb93c1afcda5601	3	1	practice_slash	5	practice_slash	5	stimuli_target_diamondsquares.svg	stimuli_distractor_diamondtriangles.svg	3	yes	53	1	1020	0	0			0	0			1				0	
6.6.1	mac	2023-06-20	15:06:17	15:10:19	239180	604ece0ddcb93c1afcda5601	3	1	practice_slash	5	advance_on_keypress_SLASH	6	stimuli_target_diamondsquares.svg	stimuli_distractor_diamondtriangles.svg	3	yes	57	0	1164	0	0			0	0			1				0	
6.6.1	mac	2023-06-20	15:06:17	15:10:24	243972	604ece0ddcb93c1afcda5601	3	1	practice_slash	5	practice_slash	7	stimuli_distractor_trianglediamonds.svg	stimuli_distractor_trianglediamonds.svg	15	no	0	1	2000	0	0			0	0			1				0	
6.6.1	mac	2023-06-20	15:06:17	15:10:24	243972	604ece0ddcb93c1afcda5601	3	1	practice_slash	5	advance_on_keypress_SLASH	8	stimuli_distractor_trianglediamonds.svg	stimuli_distractor_trianglediamonds.svg	15	no	57	0	1015	0	0			0	0			1				0	
6.6.1	mac	2023-06-20	15:06:17	15:10:27	247491	604ece0ddcb93c1afcda5601	3	1	practice_slash	5	practice_slash	9	stimuli_distractor_diamondtriangles.svg	stimuli_distractor_trianglediamonds.svg	14	no	53	0	866	0	0			0	0			1				0	
6.6.1	mac	2023-06-20	15:06:17	15:10:27	247491	604ece0ddcb93c1afcda5601	3	1	practice_slash	5	advance_on_keypress_SLASH	10	stimuli_distractor_diamondtriangles.svg	stimuli_distractor_trianglediamonds.svg	14	no	57	0	738	0	0			0	0			1				0	
6.6.1	mac	2023-06-20	15:06:17	15:10:32	251856	604ece0ddcb93c1afcda5601	3	1	practice_slash	5	practice_slash	11	stimuli_distractor_trianglediamonds.svg	stimuli_target_diamondrectangles.svg	12	yes	0	0	2000	0	0			0	0			1				0	
6.6.1	mac	2023-06-20	15:06:17	15:10:32	251856	604ece0ddcb93c1afcda5601	3	1	practice_slash	5	advance_on_keypress_SLASH	12	stimuli_distractor_trianglediamonds.svg	stimuli_target_diamondrectangles.svg	12	yes	57	0	586	0	0			0	0			1				0	
6.6.1	mac	2023-06-20	15:06:17	15:10:35	254632	604ece0ddcb93c1afcda5601	3	1	practice_slash	5	practice_slash	13	stimuli_target_squarediamonds.svg	stimuli_distractor_trianglediamonds.svg	5	yes	53	1	557	0	0			0	0			1				0	
6.6.1	mac	2023-06-20	15:06:17	15:10:35	254632	604ece0ddcb93c1afcda5601	3	1	practice_slash	5	advance_on_keypress_SLASH	14	stimuli_target_squarediamonds.svg	stimuli_distractor_trianglediamonds.svg	5	yes	57	0	1948	0	0			0	0			1				0	
6.6.1	mac	2023-06-20	15:06:17	15:10:39	258994	604ece0ddcb93c1afcda5601	3	1	practice_slash	5	practice_slash	15	stimuli_distractor_diamondtriangles.svg	stimuli_distractor_diamondtriangles.svg	13	no	53	0	786	0	0			0	0			1				0	
6.6.1	mac	2023-06-20	15:06:17	15:10:39	258994	604ece0ddcb93c1afcda5601	3	1	practice_slash	5	advance_on_keypress_SLASH	16	stimuli_distractor_diamondtriangles.svg	stimuli_distractor_diamondtriangles.svg	13	no	57	0	812	0	0			0	0			1				0	
6.6.1	mac	2023-06-20	15:06:17	15:10:42	262415	604ece0ddcb93c1afcda5601	3	1	practice_slash	5	practice_slash	17	stimuli_target_rectanglediamonds.svg	stimuli_distractor_diamondtriangles.svg	1	yes	53	1	974	0	0			0	0			1				0	
6.6.1	mac	2023-06-20	15:06:17	15:10:42	262415	604ece0ddcb93c1afcda5601	3	1	practice_slash	5	advance_on_keypress_SLASH	18	stimuli_target_rectanglediamonds.svg	stimuli_distractor_diamondtriangles.svg	1	yes	57	0	629	0	0			0	0			1				0	
6.6.1	mac	2023-06-20	15:06:17	15:10:47	266672	604ece0ddcb93c1afcda5601	3	1	practice_slash	5	practice_slash	19	stimuli_distractor_diamondtriangles.svg	stimuli_target_diamondrectangles.svg	8	yes	0	0	2000	0	0			0	0			1				0	
6.6.1	mac	2023-06-20	15:06:17	15:10:47	266672	604ece0ddcb93c1afcda5601	3	1	practice_slash	5	advance_on_keypress_SLASH	20	stimuli_distractor_diamondtriangles.svg	stimuli_target_diamondrectangles.svg	8	yes	57	0	733	0	0			0	0			1				0	
6.6.1	mac	2023-06-20	15:06:17	15:10:50	269860	604ece0ddcb93c1afcda5601	3	1	practice_slash	5	practice_slash	21	stimuli_target_squarediamonds.svg	stimuli_distractor_diamondtriangles.svg	2	yes	53	1	819	0	0			0	0			1				0	
6.6.1	mac	2023-06-20	15:06:17	15:10:50	269860	604ece0ddcb93c1afcda5601	3	1	practice_slash	5	advance_on_keypress_SLASH	22	stimuli_target_squarediamonds.svg	stimuli_distractor_diamondtriangles.svg	2	yes	57	0	483	0	0			0	0			1				0	
6.6.1	mac	2023-06-20	15:06:17	15:10:53	272902	604ece0ddcb93c1afcda5601	3	1	practice_slash	5	practice_slash	23	stimuli_distractor_trianglediamonds.svg	stimuli_target_rectanglediamonds.svg	10	yes	53	1	927	0	0			0	0			1				0	
6.6.1	mac	2023-06-20	15:06:17	15:10:53	272902	604ece0ddcb93c1afcda5601	3	1	practice_slash	5	advance_on_keypress_SLASH	24	stimuli_distractor_trianglediamonds.svg	stimuli_target_rectanglediamonds.svg	10	yes	57	0	668	0	0			0	0			1				0	
6.6.1	mac	2023-06-20	15:06:17	15:10:56	276007	604ece0ddcb93c1afcda5601	3	1	practice_slash	5	practice_slash	25	stimuli_distractor_trianglediamonds.svg	stimuli_distractor_diamondtriangles.svg	16	no	53	0	797	0	0			0	0			1				0	
6.6.1	mac	2023-06-20	15:06:17	15:10:56	276007	604ece0ddcb93c1afcda5601	3	1	practice_slash	5	advance_on_keypress_SLASH	26	stimuli_distractor_trianglediamonds.svg	stimuli_distractor_diamondtriangles.svg	16	no	57	0	616	0	0			0	0			1				0	
6.6.1	mac	2023-06-20	15:06:17	15:10:59	279084	604ece0ddcb93c1afcda5601	3	1	practice_slash	5	practice_slash	27	stimuli_distractor_diamondtriangles.svg	stimuli_target_rectangletriangles.svg	7	yes	53	1	825	0	0			0	0			1				0	
6.6.1	mac	2023-06-20	15:06:17	15:10:59	279084	604ece0ddcb93c1afcda5601	3	1	practice_slash	5	advance_on_keypress_SLASH	28	stimuli_distractor_diamondtriangles.svg	stimuli_target_rectangletriangles.svg	7	yes	57	0	459	0	0			0	0			1				0	
6.6.1	mac	2023-06-20	15:06:17	15:11:02	282075	604ece0ddcb93c1afcda5601	3	1	practice_slash	5	practice_slash	29	stimuli_distractor_trianglediamonds.svg	stimuli_target_squarediamonds.svg	11	yes	53	1	916	0	0			0	0			1				0	
6.6.1	mac	2023-06-20	15:06:17	15:11:02	282075	604ece0ddcb93c1afcda5601	3	1	practice_slash	5	advance_on_keypress_SLASH	30	stimuli_distractor_trianglediamonds.svg	stimuli_target_squarediamonds.svg	11	yes	57	0	571	0	0			0	0			1				0	
6.6.1	mac	2023-06-20	15:06:17	15:11:05	285173	604ece0ddcb93c1afcda5601	3	1	practice_slash	5	practice_slash	31	stimuli_target_rectanglediamonds.svg	stimuli_distractor_trianglediamonds.svg	4	yes	53	1	898	0	0			0	0			1				0	
6.6.1	mac	2023-06-20	15:06:17	15:11:05	285173	604ece0ddcb93c1afcda5601	3	1	practice_slash	5	advance_on_keypress_SLASH	32	stimuli_target_rectanglediamonds.svg	stimuli_distractor_trianglediamonds.svg	4	yes	57	0	506	0	0			0	0			1				0	
6.6.1	mac	2023-06-20	15:06:17	15:11:23	302857	604ece0ddcb93c1afcda5601	3	1	main_slash	7	main_slash	1	stimuli_distractor_diamondtriangles.svg	stimuli_target_trianglesquares.svg	30	yes	0	0	2000	0	0			0	0			1				0	
6.6.1	mac	2023-06-20	15:06:17	15:11:23	302857	604ece0ddcb93c1afcda5601	3	1	main_slash	7	advance_on_keypress_SLASH	2	stimuli_distractor_diamondtriangles.svg	stimuli_target_trianglesquares.svg	30	yes	57	0	867	0	0			0	0			1				0	
6.6.1	mac	2023-06-20	15:06:17	15:11:25	304793	604ece0ddcb93c1afcda5601	3	1	main_slash	7	main_slash	3	stimuli_target_rectangletriangles.svg	stimuli_distractor_diamondtriangles.svg	5	yes	53	1	435	0	0			0	0			1				0	
6.6.1	mac	2023-06-20	15:06:17	15:11:25	304793	604ece0ddcb93c1afcda5601	3	1	main_slash	7	advance_on_keypress_SLASH	4	stimuli_target_rectangletriangles.svg	stimuli_distractor_diamondtriangles.svg	5	yes	57	0	1651	0	0			0	0			1				0	
6.6.1	mac	2023-06-20	15:06:17	15:11:29	309072	604ece0ddcb93c1afcda5601	3	1	main_slash	7	main_slash	5	stimuli_target_trianglesquares.svg	stimuli_distractor_trianglediamonds.svg	18	yes	0	0	2000	0	0			0	0			1				0	
6.6.1	mac	2023-06-20	15:06:17	15:11:29	309072	604ece0ddcb93c1afcda5601	3	1	main_slash	7	advance_on_keypress_SLASH	6	stimuli_target_trianglesquares.svg	stimuli_distractor_trianglediamonds.svg	18	yes	57	0	1393	0	0			0	0			1				0	
6.6.1	mac	2023-06-20	15:06:17	15:11:33	313089	604ece0ddcb93c1afcda5601	3	1	main_slash	7	main_slash	7	stimuli_distractor_diamondtriangles.svg	stimuli_distractor_trianglediamonds.svg	37	no	0	1	2000	0	0			0	0			1				0	
6.6.1	mac	2023-06-20	15:06:17	15:11:33	313089	604ece0ddcb93c1afcda5601	3	1	main_slash	7	advance_on_keypress_SLASH	8	stimuli_distractor_diamondtriangles.svg	stimuli_distractor_trianglediamonds.svg	37	no	57	0	1431	0	0			0	0			1				0	
6.6.1	mac	2023-06-20	15:06:17	15:11:36	315644	604ece0ddcb93c1afcda5601	3	1	main_slash	7	main_slash	9	stimuli_target_squaretriangles.svg	stimuli_distractor_diamondtriangles.svg	7	yes	53	1	486	0	0			0	0			1				0	
6.6.1	mac	2023-06-20	15:06:17	15:11:36	315644	604ece0ddcb93c1afcda5601	3	1	main_slash	7	advance_on_keypress_SLASH	10	stimuli_target_squaretriangles.svg	stimuli_distractor_diamondtriangles.svg	7	yes	57	0	1249	0	0			0	0			1				0	
6.6.1	mac	2023-06-20	15:06:17	15:11:39	318623	604ece0ddcb93c1afcda5601	3	1	main_slash	7	main_slash	11	stimuli_distractor_trianglediamonds.svg	stimuli_target_diamondsquares.svg	28	yes	53	1	1098	0	0			0	0			1				0	
6.6.1	mac	2023-06-20	15:06:17	15:11:39	318623	604ece0ddcb93c1afcda5601	3	1	main_slash	7	advance_on_keypress_SLASH	12	stimuli_distractor_trianglediamonds.svg	stimuli_target_diamondsquares.svg	28	yes	57	0	1216	0	0			0	0			1				0	
6.6.1	mac	2023-06-20	15:06:17	15:11:41	321375	604ece0ddcb93c1afcda5601	3	1	main_slash	7	main_slash	13	stimuli_distractor_trianglediamonds.svg	stimuli_target_rectangletriangles.svg	9	yes	53	1	900	0	0			0	0			1				0	
6.6.1	mac	2023-06-20	15:06:17	15:11:41	321375	604ece0ddcb93c1afcda5601	3	1	main_slash	7	advance_on_keypress_SLASH	14	stimuli_distractor_trianglediamonds.svg	stimuli_target_rectangletriangles.svg	9	yes	57	0	1114	0	0			0	0			1				0	
6.6.1	mac	2023-06-20	15:06:17	15:11:44	323991	604ece0ddcb93c1afcda5601	3	1	main_slash	7	main_slash	15	stimuli_distractor_trianglediamonds.svg	stimuli_target_rectanglediamonds.svg	10	yes	53	1	866	0	0			0	0			1				0	
6.6.1	mac	2023-06-20	15:06:17	15:11:44	323991	604ece0ddcb93c1afcda5601	3	1	main_slash	7	advance_on_keypress_SLASH	16	stimuli_distractor_trianglediamonds.svg	stimuli_target_rectanglediamonds.svg	10	yes	57	0	91098	0	0			0	0			1				0	
6.6.1	mac	2023-06-20	15:06:17	15:13:17	416665	604ece0ddcb93c1afcda5601	3	1	main_slash	7	main_slash	17	stimuli_target_squarediamonds.svg	stimuli_distractor_trianglediamonds.svg	4	yes	53	1	939	0	0			0	0			1				0	
6.6.1	mac	2023-06-20	15:06:17	15:13:17	416665	604ece0ddcb93c1afcda5601	3	1	main_slash	7	advance_on_keypress_SLASH	18	stimuli_target_squarediamonds.svg	stimuli_distractor_trianglediamonds.svg	4	yes	57	0	1933	0	0			0	0			1				0	
6.6.1	mac	2023-06-20	15:06:17	15:13:21	421060	604ece0ddcb93c1afcda5601	3	1	main_slash	7	main_slash	19	stimuli_distractor_diamondtriangles.svg	stimuli_distractor_diamondtriangles.svg	40	no	53	0	1835	0	0			0	0			1				0	
6.6.1	mac	2023-06-20	15:06:17	15:13:21	421060	604ece0ddcb93c1afcda5601	3	1	main_slash	7	advance_on_keypress_SLASH	20	stimuli_distractor_diamondtriangles.svg	stimuli_distractor_diamondtriangles.svg	40	no	57	0	1143	0	0			0	0			1				0	
6.6.1	mac	2023-06-20	15:06:17	15:13:25	424823	604ece0ddcb93c1afcda5601	3	1	main_slash	7	main_slash	21	stimuli_distractor_trianglediamonds.svg	stimuli_distractor_diamondtriangles.svg	35	no	0	1	2000	0	0			0	0			1				0	
6.6.1	mac	2023-06-20	15:06:17	15:13:25	424823	604ece0ddcb93c1afcda5601	3	1	main_slash	7	advance_on_keypress_SLASH	22	stimuli_distractor_trianglediamonds.svg	stimuli_distractor_diamondtriangles.svg	35	no	57	0	19388	0	0			0	0			1				0	
6.6.1	mac	2023-06-20	15:06:17	15:13:47	446839	604ece0ddcb93c1afcda5601	3	1	main_slash	7	main_slash	23	stimuli_target_trianglerectangles.svg	stimuli_distractor_trianglediamonds.svg	17	yes	0	0	2000	0	0			0	0			1				0	
6.6.1	mac	2023-06-20	15:06:17	15:13:47	446839	604ece0ddcb93c1afcda5601	3	1	main_slash	7	advance_on_keypress_SLASH	24	stimuli_target_trianglerectangles.svg	stimuli_distractor_trianglediamonds.svg	17	yes	57	0	759	0	0			0	0			1				0	
6.6.1	mac	2023-06-20	15:06:17	15:13:49	449421	604ece0ddcb93c1afcda5601	3	1	main_slash	7	main_slash	25	stimuli_distractor_diamondtriangles.svg	stimuli_distractor_trianglediamonds.svg	38	no	53	0	1196	0	0			0	0			1				0	
6.6.1	mac	2023-06-20	15:06:17	15:13:49	449421	604ece0ddcb93c1afcda5601	3	1	main_slash	7	advance_on_keypress_SLASH	26	stimuli_distractor_diamondtriangles.svg	stimuli_distractor_trianglediamonds.svg	38	no	57	0	702	0	0			0	0			1				0	
6.6.1	mac	2023-06-20	15:06:17	15:13:53	452756	604ece0ddcb93c1afcda5601	3	1	main_slash	7	main_slash	27	stimuli_target_diamondrectangles.svg	stimuli_distractor_diamondtriangles.svg	23	yes	0	0	2000	0	0			0	0			1				0	
6.6.1	mac	2023-06-20	15:06:17	15:13:53	452756	604ece0ddcb93c1afcda5601	3	1	main_slash	7	advance_on_keypress_SLASH	28	stimuli_target_diamondrectangles.svg	stimuli_distractor_diamondtriangles.svg	23	yes	57	0	618	0	0			0	0			1				0	
6.6.1	mac	2023-06-20	15:06:17	15:13:55	455197	604ece0ddcb93c1afcda5601	3	1	main_slash	7	main_slash	29	stimuli_distractor_trianglediamonds.svg	stimuli_target_squarediamonds.svg	12	yes	53	1	1189	0	0			0	0			1				0	
6.6.1	mac	2023-06-20	15:06:17	15:13:55	455197	604ece0ddcb93c1afcda5601	3	1	main_slash	7	advance_on_keypress_SLASH	30	stimuli_distractor_trianglediamonds.svg	stimuli_target_squarediamonds.svg	12	yes	57	0	973	0	0			0	0			1				0	
6.6.1	mac	2023-06-20	15:06:17	15:13:59	458789	604ece0ddcb93c1afcda5601	3	1	main_slash	7	main_slash	31	stimuli_target_diamondsquares.svg	stimuli_distractor_diamondtriangles.svg	24	yes	0	0	2000	0	0			0	0			1				0	
6.6.1	mac	2023-06-20	15:06:17	15:13:59	458789	604ece0ddcb93c1afcda5601	3	1	main_slash	7	advance_on_keypress_SLASH	32	stimuli_target_diamondsquares.svg	stimuli_distractor_diamondtriangles.svg	24	yes	57	0	840	0	0			0	0			1				0	
6.6.1	mac	2023-06-20	15:06:17	15:14:01	461161	604ece0ddcb93c1afcda5601	3	1	main_slash	7	main_slash	33	stimuli_target_rectangletriangles.svg	stimuli_distractor_trianglediamonds.svg	1	yes	53	1	903	0	0			0	0			1				0	
6.6.1	mac	2023-06-20	15:06:17	15:14:01	461161	604ece0ddcb93c1afcda5601	3	1	main_slash	7	advance_on_keypress_SLASH	34	stimuli_target_rectangletriangles.svg	stimuli_distractor_trianglediamonds.svg	1	yes	57	0	971	0	0			0	0			1				0	
6.6.1	mac	2023-06-20	15:06:17	15:14:05	464756	604ece0ddcb93c1afcda5601	3	1	main_slash	7	main_slash	35	stimuli_distractor_diamondtriangles.svg	stimuli_target_squaretriangles.svg	15	yes	0	0	2000	0	0			0	0			1				0	
6.6.1	mac	2023-06-20	15:06:17	15:14:05	464756	604ece0ddcb93c1afcda5601	3	1	main_slash	7	advance_on_keypress_SLASH	36	stimuli_distractor_diamondtriangles.svg	stimuli_target_squaretriangles.svg	15	yes	57	0	475	0	0			0	0			1				0	
6.6.1	mac	2023-06-20	15:06:17	15:14:08	467872	604ece0ddcb93c1afcda5601	3	1	main_slash	7	main_slash	37	stimuli_distractor_diamondtriangles.svg	stimuli_target_diamondsquares.svg	32	yes	0	0	2000	0	0			0	0			1				0	
6.6.1	mac	2023-06-20	15:06:17	15:14:08	467872	604ece0ddcb93c1afcda5601	3	1	main_slash	7	advance_on_keypress_SLASH	38	stimuli_distractor_diamondtriangles.svg	stimuli_target_diamondsquares.svg	32	yes	57	0	457	0	0			0	0			1				0	
6.6.1	mac	2023-06-20	15:06:17	15:14:11	470972	604ece0ddcb93c1afcda5601	3	1	main_slash	7	main_slash	39	stimuli_distractor_trianglediamonds.svg	stimuli_target_trianglesquares.svg	26	yes	0	0	2000	0	0			0	0			1				0	
6.6.1	mac	2023-06-20	15:06:17	15:14:11	470972	604ece0ddcb93c1afcda5601	3	1	main_slash	7	advance_on_keypress_SLASH	40	stimuli_distractor_trianglediamonds.svg	stimuli_target_trianglesquares.svg	26	yes	57	0	349	0	0			0	0			1				0	
6.6.1	mac	2023-06-20	15:06:17	15:14:13	472815	604ece0ddcb93c1afcda5601	3	1	main_slash	7	main_slash	41	stimuli_distractor_diamondtriangles.svg	stimuli_target_trianglerectangles.svg	29	yes	53	1	857	0	0			0	0			1				0	
6.6.1	mac	2023-06-20	15:06:17	15:14:13	472815	604ece0ddcb93c1afcda5601	3	1	main_slash	7	advance_on_keypress_SLASH	42	stimuli_distractor_diamondtriangles.svg	stimuli_target_trianglerectangles.svg	29	yes	57	0	1018	0	0			0	0			1				0	
6.6.1	mac	2023-06-20	15:06:17	15:14:15	475558	604ece0ddcb93c1afcda5601	3	1	main_slash	7	main_slash	43	stimuli_target_trianglesquares.svg	stimuli_distractor_diamondtriangles.svg	22	yes	53	1	1100	0	0			0	0			1				0	
6.6.1	mac	2023-06-20	15:06:17	15:14:15	475558	604ece0ddcb93c1afcda5601	3	1	main_slash	7	advance_on_keypress_SLASH	44	stimuli_target_trianglesquares.svg	stimuli_distractor_diamondtriangles.svg	22	yes	57	0	787	0	0			0	0			1				0	
6.6.1	mac	2023-06-20	15:06:17	15:14:18	477907	604ece0ddcb93c1afcda5601	3	1	main_slash	7	main_slash	45	stimuli_distractor_diamondtriangles.svg	stimuli_target_squarediamonds.svg	16	yes	53	1	932	0	0			0	0			1				0	
6.6.1	mac	2023-06-20	15:06:17	15:14:18	477907	604ece0ddcb93c1afcda5601	3	1	main_slash	7	advance_on_keypress_SLASH	46	stimuli_distractor_diamondtriangles.svg	stimuli_target_squarediamonds.svg	16	yes	57	0	1282	0	0			0	0			1				0	
6.6.1	mac	2023-06-20	15:06:17	15:14:22	481822	604ece0ddcb93c1afcda5601	3	1	main_slash	7	main_slash	47	stimuli_target_diamondsquares.svg	stimuli_distractor_trianglediamonds.svg	20	yes	0	0	2000	0	0			0	0			1				0	
6.6.1	mac	2023-06-20	15:06:17	15:14:22	481822	604ece0ddcb93c1afcda5601	3	1	main_slash	7	advance_on_keypress_SLASH	48	stimuli_target_diamondsquares.svg	stimuli_distractor_trianglediamonds.svg	20	yes	57	0	716	0	0			0	0			1				0	
6.6.1	mac	2023-06-20	15:06:17	15:14:25	485172	604ece0ddcb93c1afcda5601	3	1	main_slash	7	main_slash	49	stimuli_distractor_trianglediamonds.svg	stimuli_distractor_diamondtriangles.svg	36	no	0	1	2000	0	0			0	0			1				0	
6.6.1	mac	2023-06-20	15:06:17	15:14:25	485172	604ece0ddcb93c1afcda5601	3	1	main_slash	7	advance_on_keypress_SLASH	50	stimuli_distractor_trianglediamonds.svg	stimuli_distractor_diamondtriangles.svg	36	no	57	0	377	0	0			0	0			1				0	
6.6.1	mac	2023-06-20	15:06:17	15:14:27	487239	604ece0ddcb93c1afcda5601	3	1	main_slash	7	main_slash	51	stimuli_distractor_trianglediamonds.svg	stimuli_target_squaretriangles.svg	11	yes	53	1	1048	0	0			0	0			1				0	
6.6.1	mac	2023-06-20	15:06:17	15:14:27	487239	604ece0ddcb93c1afcda5601	3	1	main_slash	7	advance_on_keypress_SLASH	52	stimuli_distractor_trianglediamonds.svg	stimuli_target_squaretriangles.svg	11	yes	57	0	742	0	0			0	0			1				0	
6.6.1	mac	2023-06-20	15:06:17	15:14:30	489685	604ece0ddcb93c1afcda5601	3	1	main_slash	7	main_slash	53	stimuli_distractor_trianglediamonds.svg	stimuli_target_diamondrectangles.svg	27	yes	53	1	1060	0	0			0	0			1				0	
6.6.1	mac	2023-06-20	15:06:17	15:14:30	489685	604ece0ddcb93c1afcda5601	3	1	main_slash	7	advance_on_keypress_SLASH	54	stimuli_distractor_trianglediamonds.svg	stimuli_target_diamondrectangles.svg	27	yes	57	0	633	0	0			0	0			1				0	
6.6.1	mac	2023-06-20	15:06:17	15:14:33	492940	604ece0ddcb93c1afcda5601	3	1	main_slash	7	main_slash	55	stimuli_distractor_diamondtriangles.svg	stimuli_distractor_diamondtriangles.svg	39	no	0	1	2000	0	0			0	0			1				0	
6.6.1	mac	2023-06-20	15:06:17	15:14:33	492940	604ece0ddcb93c1afcda5601	3	1	main_slash	7	advance_on_keypress_SLASH	56	stimuli_distractor_diamondtriangles.svg	stimuli_distractor_diamondtriangles.svg	39	no	57	0	30305	0	0			0	0			1				0	
6.6.1	mac	2023-06-20	15:06:17	15:15:05	524856	604ece0ddcb93c1afcda5601	3	1	main_slash	7	main_slash	57	stimuli_target_trianglerectangles.svg	stimuli_distractor_diamondtriangles.svg	21	yes	53	1	981	0	0			0	0			1				0	
6.6.1	mac	2023-06-20	15:06:17	15:15:05	524856	604ece0ddcb93c1afcda5601	3	1	main_slash	7	advance_on_keypress_SLASH	58	stimuli_target_trianglerectangles.svg	stimuli_distractor_diamondtriangles.svg	21	yes	57	0	646	0	0			0	0			1				0	
6.6.1	mac	2023-06-20	15:06:17	15:15:07	526962	604ece0ddcb93c1afcda5601	3	1	main_slash	7	main_slash	59	stimuli_target_rectanglediamonds.svg	stimuli_distractor_trianglediamonds.svg	2	yes	53	1	820	0	0			0	0			1				0	
6.6.1	mac	2023-06-20	15:06:17	15:15:07	526962	604ece0ddcb93c1afcda5601	3	1	main_slash	7	advance_on_keypress_SLASH	60	stimuli_target_rectanglediamonds.svg	stimuli_distractor_trianglediamonds.svg	2	yes	57	0	1337	0	0			0	0			1				0	
6.6.1	mac	2023-06-20	15:06:17	15:15:10	529755	604ece0ddcb93c1afcda5601	3	1	main_slash	7	main_slash	61	stimuli_target_rectanglediamonds.svg	stimuli_distractor_diamondtriangles.svg	6	yes	53	1	829	0	0			0	0			1				0	
6.6.1	mac	2023-06-20	15:06:17	15:15:10	529755	604ece0ddcb93c1afcda5601	3	1	main_slash	7	advance_on_keypress_SLASH	62	stimuli_target_rectanglediamonds.svg	stimuli_distractor_diamondtriangles.svg	6	yes	57	0	675	0	0			0	0			1				0	
6.6.1	mac	2023-06-20	15:06:17	15:15:13	533056	604ece0ddcb93c1afcda5601	3	1	main_slash	7	main_slash	63	stimuli_distractor_trianglediamonds.svg	stimuli_target_trianglerectangles.svg	25	yes	0	0	2000	0	0			0	0			1				0	
6.6.1	mac	2023-06-20	15:06:17	15:15:13	533056	604ece0ddcb93c1afcda5601	3	1	main_slash	7	advance_on_keypress_SLASH	64	stimuli_distractor_trianglediamonds.svg	stimuli_target_trianglerectangles.svg	25	yes	57	0	621	0	0			0	0			1				0	
6.6.1	mac	2023-06-20	15:06:17	15:15:15	535285	604ece0ddcb93c1afcda5601	3	1	main_slash	7	main_slash	65	stimuli_target_diamondrectangles.svg	stimuli_distractor_trianglediamonds.svg	19	yes	53	1	976	0	0			0	0			1				0	
6.6.1	mac	2023-06-20	15:06:17	15:15:15	535285	604ece0ddcb93c1afcda5601	3	1	main_slash	7	advance_on_keypress_SLASH	66	stimuli_target_diamondrectangles.svg	stimuli_distractor_trianglediamonds.svg	19	yes	57	0	735	0	0			0	0			1				0	
6.6.1	mac	2023-06-20	15:06:17	15:15:18	538007	604ece0ddcb93c1afcda5601	3	1	main_slash	7	main_slash	67	stimuli_distractor_diamondtriangles.svg	stimuli_target_diamondrectangles.svg	31	yes	53	1	1364	0	0			0	0			1				0	
6.6.1	mac	2023-06-20	15:06:17	15:15:18	538007	604ece0ddcb93c1afcda5601	3	1	main_slash	7	advance_on_keypress_SLASH	68	stimuli_distractor_diamondtriangles.svg	stimuli_target_diamondrectangles.svg	31	yes	57	0	794	0	0			0	0			1				0	
6.6.1	mac	2023-06-20	15:06:17	15:15:21	541439	604ece0ddcb93c1afcda5601	3	1	main_slash	7	main_slash	69	stimuli_distractor_trianglediamonds.svg	stimuli_distractor_trianglediamonds.svg	34	no	0	1	2000	0	0			0	0			1				0	
6.6.1	mac	2023-06-20	15:06:17	15:15:21	541439	604ece0ddcb93c1afcda5601	3	1	main_slash	7	advance_on_keypress_SLASH	70	stimuli_distractor_trianglediamonds.svg	stimuli_distractor_trianglediamonds.svg	34	no	57	0	1402	0	0			0	0			1				0	
6.6.1	mac	2023-06-20	15:06:17	15:15:24	544581	604ece0ddcb93c1afcda5601	3	1	main_slash	7	main_slash	71	stimuli_distractor_diamondtriangles.svg	stimuli_target_rectanglediamonds.svg	14	yes	53	1	1105	0	0			0	0			1				0	
6.6.1	mac	2023-06-20	15:06:17	15:15:24	544581	604ece0ddcb93c1afcda5601	3	1	main_slash	7	advance_on_keypress_SLASH	72	stimuli_distractor_diamondtriangles.svg	stimuli_target_rectanglediamonds.svg	14	yes	57	0	1245	0	0			0	0			1				0	
6.6.1	mac	2023-06-20	15:06:17	15:15:28	547774	604ece0ddcb93c1afcda5601	3	1	main_slash	7	main_slash	73	stimuli_target_squarediamonds.svg	stimuli_distractor_diamondtriangles.svg	8	yes	53	1	1316	0	0			0	0			1				0	
6.6.1	mac	2023-06-20	15:06:17	15:15:28	547774	604ece0ddcb93c1afcda5601	3	1	main_slash	7	advance_on_keypress_SLASH	74	stimuli_target_squarediamonds.svg	stimuli_distractor_diamondtriangles.svg	8	yes	57	0	1819	0	0			0	0			1				0	
6.6.1	mac	2023-06-20	15:06:17	15:15:32	552222	604ece0ddcb93c1afcda5601	3	1	main_slash	7	main_slash	75	stimuli_distractor_trianglediamonds.svg	stimuli_distractor_trianglediamonds.svg	33	no	0	1	2000	0	0			0	0			1				0	
6.6.1	mac	2023-06-20	15:06:17	15:15:32	552222	604ece0ddcb93c1afcda5601	3	1	main_slash	7	advance_on_keypress_SLASH	76	stimuli_distractor_trianglediamonds.svg	stimuli_distractor_trianglediamonds.svg	33	no	57	0	346	0	0			0	0			1				0	
6.6.1	mac	2023-06-20	15:06:17	15:15:34	554514	604ece0ddcb93c1afcda5601	3	1	main_slash	7	main_slash	77	stimuli_target_squaretriangles.svg	stimuli_distractor_trianglediamonds.svg	3	yes	53	1	1306	0	0			0	0			1				0	
6.6.1	mac	2023-06-20	15:06:17	15:15:34	554514	604ece0ddcb93c1afcda5601	3	1	main_slash	7	advance_on_keypress_SLASH	78	stimuli_target_squaretriangles.svg	stimuli_distractor_trianglediamonds.svg	3	yes	57	0	1187	0	0			0	0			1				0	
6.6.1	mac	2023-06-20	15:06:17	15:15:37	557196	604ece0ddcb93c1afcda5601	3	1	main_slash	7	main_slash	79	stimuli_distractor_diamondtriangles.svg	stimuli_target_rectangletriangles.svg	13	yes	53	1	871	0	0			0	0			1				0	
6.6.1	mac	2023-06-20	15:06:17	15:15:37	557196	604ece0ddcb93c1afcda5601	3	1	main_slash	7	advance_on_keypress_SLASH	80	stimuli_distractor_diamondtriangles.svg	stimuli_target_rectangletriangles.svg	13	yes	57	0	917	0	0			0	0			1				0	
6.6.1	mac	2023-06-20	15:06:17	15:15:39	559391	604ece0ddcb93c1afcda5601	3	1	main_slash	7	main_slash	81	stimuli_distractor_diamondtriangles.svg	stimuli_target_rectangletriangles.svg	13	yes	53	1	649	0	0			0	0			1				0	
6.6.1	mac	2023-06-20	15:06:17	15:15:39	559391	604ece0ddcb93c1afcda5601	3	1	main_slash	7	advance_on_keypress_SLASH	82	stimuli_distractor_diamondtriangles.svg	stimuli_target_rectangletriangles.svg	13	yes	57	0	724	0	0			0	0			1				0	
6.6.1	mac	2023-06-20	15:06:17	15:15:43	562741	604ece0ddcb93c1afcda5601	3	1	main_slash	7	main_slash	83	stimuli_target_trianglerectangles.svg	stimuli_distractor_trianglediamonds.svg	17	yes	0	0	2000	0	0			0	0			1				0	
6.6.1	mac	2023-06-20	15:06:17	15:15:43	562741	604ece0ddcb93c1afcda5601	3	1	main_slash	7	advance_on_keypress_SLASH	84	stimuli_target_trianglerectangles.svg	stimuli_distractor_trianglediamonds.svg	17	yes	57	0	745	0	0			0	0			1				0	
6.6.1	mac	2023-06-20	15:06:17	15:15:45	565353	604ece0ddcb93c1afcda5601	3	1	main_slash	7	main_slash	85	stimuli_target_squarediamonds.svg	stimuli_distractor_trianglediamonds.svg	4	yes	53	1	1227	0	0			0	0			1				0	
6.6.1	mac	2023-06-20	15:06:17	15:15:45	565353	604ece0ddcb93c1afcda5601	3	1	main_slash	7	advance_on_keypress_SLASH	86	stimuli_target_squarediamonds.svg	stimuli_distractor_trianglediamonds.svg	4	yes	57	0	670	0	0			0	0			1				0	
6.6.1	mac	2023-06-20	15:06:17	15:15:49	568656	604ece0ddcb93c1afcda5601	3	1	main_slash	7	main_slash	87	stimuli_distractor_trianglediamonds.svg	stimuli_distractor_trianglediamonds.svg	33	no	0	1	2000	0	0			0	0			1				0	
6.6.1	mac	2023-06-20	15:06:17	15:15:49	568656	604ece0ddcb93c1afcda5601	3	1	main_slash	7	advance_on_keypress_SLASH	88	stimuli_distractor_trianglediamonds.svg	stimuli_distractor_trianglediamonds.svg	33	no	57	0	354	0	0			0	0			1				0	
6.6.1	mac	2023-06-20	15:06:17	15:15:52	571639	604ece0ddcb93c1afcda5601	3	1	main_slash	7	main_slash	89	stimuli_distractor_diamondtriangles.svg	stimuli_target_diamondsquares.svg	32	yes	0	0	2000	0	0			0	0			1				0	
6.6.1	mac	2023-06-20	15:06:17	15:15:52	571639	604ece0ddcb93c1afcda5601	3	1	main_slash	7	advance_on_keypress_SLASH	90	stimuli_distractor_diamondtriangles.svg	stimuli_target_diamondsquares.svg	32	yes	57	0	595	0	0			0	0			1				0	
6.6.1	mac	2023-06-20	15:06:17	15:15:54	574507	604ece0ddcb93c1afcda5601	3	1	main_slash	7	main_slash	91	stimuli_target_diamondsquares.svg	stimuli_distractor_diamondtriangles.svg	24	yes	53	1	1632	0	0			0	0			1				0	
6.6.1	mac	2023-06-20	15:06:17	15:15:54	574507	604ece0ddcb93c1afcda5601	3	1	main_slash	7	advance_on_keypress_SLASH	92	stimuli_target_diamondsquares.svg	stimuli_distractor_diamondtriangles.svg	24	yes	57	0	790	0	0			0	0			1				0	
6.6.1	mac	2023-06-20	15:06:17	15:15:58	577922	604ece0ddcb93c1afcda5601	3	1	main_slash	7	main_slash	93	stimuli_distractor_trianglediamonds.svg	stimuli_target_trianglerectangles.svg	25	yes	0	0	2000	0	0			0	0			1				0	
6.6.1	mac	2023-06-20	15:06:17	15:15:58	577922	604ece0ddcb93c1afcda5601	3	1	main_slash	7	advance_on_keypress_SLASH	94	stimuli_distractor_trianglediamonds.svg	stimuli_target_trianglerectangles.svg	25	yes	57	0	609	0	0			0	0			1				0	
6.6.1	mac	2023-06-20	15:06:17	15:16:00	580360	604ece0ddcb93c1afcda5601	3	1	main_slash	7	main_slash	95	stimuli_distractor_trianglediamonds.svg	stimuli_target_diamondrectangles.svg	27	yes	53	1	1184	0	0			0	0			1				0	
6.6.1	mac	2023-06-20	15:06:17	15:16:00	580360	604ece0ddcb93c1afcda5601	3	1	main_slash	7	advance_on_keypress_SLASH	96	stimuli_distractor_trianglediamonds.svg	stimuli_target_diamondrectangles.svg	27	yes	57	0	668	0	0			0	0			1				0	
6.6.1	mac	2023-06-20	15:06:17	15:16:03	582691	604ece0ddcb93c1afcda5601	3	1	main_slash	7	main_slash	97	stimuli_distractor_trianglediamonds.svg	stimuli_target_diamondsquares.svg	28	yes	53	1	1032	0	0			0	0			1				0	
6.6.1	mac	2023-06-20	15:06:17	15:16:03	582691	604ece0ddcb93c1afcda5601	3	1	main_slash	7	advance_on_keypress_SLASH	98	stimuli_distractor_trianglediamonds.svg	stimuli_target_diamondsquares.svg	28	yes	57	0	631	0	0			0	0			1				0	
6.6.1	mac	2023-06-20	15:06:17	15:16:05	584912	604ece0ddcb93c1afcda5601	3	1	main_slash	7	main_slash	99	stimuli_distractor_diamondtriangles.svg	stimuli_target_squaretriangles.svg	15	yes	53	1	953	0	0			0	0			1				0	
6.6.1	mac	2023-06-20	15:06:17	15:16:05	584912	604ece0ddcb93c1afcda5601	3	1	main_slash	7	advance_on_keypress_SLASH	100	stimuli_distractor_diamondtriangles.svg	stimuli_target_squaretriangles.svg	15	yes	57	0	1072	0	0			0	0			1				0	
6.6.1	mac	2023-06-20	15:06:17	15:16:07	587478	604ece0ddcb93c1afcda5601	3	1	main_slash	7	main_slash	101	stimuli_distractor_trianglediamonds.svg	stimuli_target_squarediamonds.svg	12	yes	53	1	870	0	0			0	0			1				0	
6.6.1	mac	2023-06-20	15:06:17	15:16:07	587478	604ece0ddcb93c1afcda5601	3	1	main_slash	7	advance_on_keypress_SLASH	102	stimuli_distractor_trianglediamonds.svg	stimuli_target_squarediamonds.svg	12	yes	57	0	626	0	0			0	0			1				0	
6.6.1	mac	2023-06-20	15:06:17	15:16:11	590722	604ece0ddcb93c1afcda5601	3	1	main_slash	7	main_slash	103	stimuli_target_rectangletriangles.svg	stimuli_distractor_trianglediamonds.svg	1	yes	0	0	2000	0	0			0	0			1				0	
6.6.1	mac	2023-06-20	15:06:17	15:16:11	590722	604ece0ddcb93c1afcda5601	3	1	main_slash	7	advance_on_keypress_SLASH	104	stimuli_target_rectangletriangles.svg	stimuli_distractor_trianglediamonds.svg	1	yes	57	0	434	0	0			0	0			1				0	
6.6.1	mac	2023-06-20	15:06:17	15:16:13	592810	604ece0ddcb93c1afcda5601	3	1	main_slash	7	main_slash	105	stimuli_target_diamondrectangles.svg	stimuli_distractor_diamondtriangles.svg	23	yes	53	1	1018	0	0			0	0			1				0	
6.6.1	mac	2023-06-20	15:06:17	15:16:13	592810	604ece0ddcb93c1afcda5601	3	1	main_slash	7	advance_on_keypress_SLASH	106	stimuli_target_diamondrectangles.svg	stimuli_distractor_diamondtriangles.svg	23	yes	57	0	673	0	0			0	0			1				0	
6.6.1	mac	2023-06-20	15:06:17	15:16:15	594870	604ece0ddcb93c1afcda5601	3	1	main_slash	7	main_slash	107	stimuli_distractor_trianglediamonds.svg	stimuli_target_rectanglediamonds.svg	10	yes	53	1	762	0	0			0	0			1				0	
6.6.1	mac	2023-06-20	15:06:17	15:16:15	594870	604ece0ddcb93c1afcda5601	3	1	main_slash	7	advance_on_keypress_SLASH	108	stimuli_distractor_trianglediamonds.svg	stimuli_target_rectanglediamonds.svg	10	yes	57	0	658	0	0			0	0			1				0	
6.6.1	mac	2023-06-20	15:06:17	15:16:16	596252	604ece0ddcb93c1afcda5601	3	1	main_slash	7	main_slash	109	stimuli_distractor_diamondtriangles.svg	stimuli_distractor_trianglediamonds.svg	38	no	53	0	94	0	0			0	0			1				0	
6.6.1	mac	2023-06-20	15:06:17	15:16:16	596252	604ece0ddcb93c1afcda5601	3	1	main_slash	7	advance_on_keypress_SLASH	110	stimuli_distractor_diamondtriangles.svg	stimuli_distractor_trianglediamonds.svg	38	no	57	0	1117	0	0			0	0			1				0	
6.6.1	mac	2023-06-20	15:06:17	15:16:20	599989	604ece0ddcb93c1afcda5601	3	1	main_slash	7	main_slash	111	stimuli_target_squarediamonds.svg	stimuli_distractor_diamondtriangles.svg	8	yes	0	0	2000	0	0			0	0			1				0	
6.6.1	mac	2023-06-20	15:06:17	15:16:20	599989	604ece0ddcb93c1afcda5601	3	1	main_slash	7	advance_on_keypress_SLASH	112	stimuli_target_squarediamonds.svg	stimuli_distractor_diamondtriangles.svg	8	yes	57	0	412	0	0			0	0			1				0	
6.6.1	mac	2023-06-20	15:06:17	15:16:22	601726	604ece0ddcb93c1afcda5601	3	1	main_slash	7	main_slash	113	stimuli_target_trianglerectangles.svg	stimuli_distractor_diamondtriangles.svg	21	yes	53	1	686	0	0			0	0			1				0	
6.6.1	mac	2023-06-20	15:06:17	15:16:22	601726	604ece0ddcb93c1afcda5601	3	1	main_slash	7	advance_on_keypress_SLASH	114	stimuli_target_trianglerectangles.svg	stimuli_distractor_diamondtriangles.svg	21	yes	57	0	598	0	0			0	0			1				0	
6.6.1	mac	2023-06-20	15:06:17	15:16:24	603882	604ece0ddcb93c1afcda5601	3	1	main_slash	7	main_slash	115	stimuli_target_trianglesquares.svg	stimuli_distractor_diamondtriangles.svg	22	yes	53	1	924	0	0			0	0			1				0	
6.6.1	mac	2023-06-20	15:06:17	15:16:24	603882	604ece0ddcb93c1afcda5601	3	1	main_slash	7	advance_on_keypress_SLASH	116	stimuli_target_trianglesquares.svg	stimuli_distractor_diamondtriangles.svg	22	yes	57	0	568	0	0			0	0			1				0	
6.6.1	mac	2023-06-20	15:06:17	15:16:26	605944	604ece0ddcb93c1afcda5601	3	1	main_slash	7	main_slash	117	stimuli_distractor_trianglediamonds.svg	stimuli_target_rectangletriangles.svg	9	yes	53	1	869	0	0			0	0			1				0	
6.6.1	mac	2023-06-20	15:06:17	15:16:26	605944	604ece0ddcb93c1afcda5601	3	1	main_slash	7	advance_on_keypress_SLASH	118	stimuli_distractor_trianglediamonds.svg	stimuli_target_rectangletriangles.svg	9	yes	57	0	611	0	0			0	0			1				0	
6.6.1	mac	2023-06-20	15:06:17	15:16:28	608423	604ece0ddcb93c1afcda5601	3	1	main_slash	7	main_slash	119	stimuli_distractor_trianglediamonds.svg	stimuli_distractor_diamondtriangles.svg	35	no	53	0	1231	0	0			0	0			1				0	
6.6.1	mac	2023-06-20	15:06:17	15:16:28	608423	604ece0ddcb93c1afcda5601	3	1	main_slash	7	advance_on_keypress_SLASH	120	stimuli_distractor_trianglediamonds.svg	stimuli_distractor_diamondtriangles.svg	35	no	57	0	582	0	0			0	0			1				0	
6.6.1	mac	2023-06-20	15:06:17	15:16:30	610156	604ece0ddcb93c1afcda5601	3	1	main_slash	7	main_slash	121	stimuli_target_rectangletriangles.svg	stimuli_distractor_diamondtriangles.svg	5	yes	53	1	516	0	0			0	0			1				0	
6.6.1	mac	2023-06-20	15:06:17	15:16:30	610156	604ece0ddcb93c1afcda5601	3	1	main_slash	7	advance_on_keypress_SLASH	122	stimuli_target_rectangletriangles.svg	stimuli_distractor_diamondtriangles.svg	5	yes	57	0	729	0	0			0	0			1				0	
6.6.1	mac	2023-06-20	15:06:17	15:16:32	612332	604ece0ddcb93c1afcda5601	3	1	main_slash	7	main_slash	123	stimuli_distractor_diamondtriangles.svg	stimuli_target_squarediamonds.svg	16	yes	53	1	806	0	0			0	0			1				0	
6.6.1	mac	2023-06-20	15:06:17	15:16:32	612332	604ece0ddcb93c1afcda5601	3	1	main_slash	7	advance_on_keypress_SLASH	124	stimuli_distractor_diamondtriangles.svg	stimuli_target_squarediamonds.svg	16	yes	57	0	614	0	0			0	0			1				0	
6.6.1	mac	2023-06-20	15:06:17	15:16:35	615572	604ece0ddcb93c1afcda5601	3	1	main_slash	7	main_slash	125	stimuli_target_trianglesquares.svg	stimuli_distractor_trianglediamonds.svg	18	yes	0	0	2000	0	0			0	0			1				0	
6.6.1	mac	2023-06-20	15:06:17	15:16:35	615572	604ece0ddcb93c1afcda5601	3	1	main_slash	7	advance_on_keypress_SLASH	126	stimuli_target_trianglesquares.svg	stimuli_distractor_trianglediamonds.svg	18	yes	57	0	309	0	0			0	0			1				0	
6.6.1	mac	2023-06-20	15:06:17	15:16:37	617184	604ece0ddcb93c1afcda5601	3	1	main_slash	7	main_slash	127	stimuli_target_diamondsquares.svg	stimuli_distractor_trianglediamonds.svg	20	yes	53	1	659	0	0			0	0			1				0	
6.6.1	mac	2023-06-20	15:06:17	15:16:37	617184	604ece0ddcb93c1afcda5601	3	1	main_slash	7	advance_on_keypress_SLASH	128	stimuli_target_diamondsquares.svg	stimuli_distractor_trianglediamonds.svg	20	yes	57	0	532	0	0			0	0			1				0	
6.6.1	mac	2023-06-20	15:06:17	15:16:39	619394	604ece0ddcb93c1afcda5601	3	1	main_slash	7	main_slash	129	stimuli_target_squaretriangles.svg	stimuli_distractor_diamondtriangles.svg	7	yes	53	1	1054	0	0			0	0			1				0	
6.6.1	mac	2023-06-20	15:06:17	15:16:39	619394	604ece0ddcb93c1afcda5601	3	1	main_slash	7	advance_on_keypress_SLASH	130	stimuli_target_squaretriangles.svg	stimuli_distractor_diamondtriangles.svg	7	yes	57	0	930	0	0			0	0			1				0	
6.6.1	mac	2023-06-20	15:06:17	15:16:42	622556	604ece0ddcb93c1afcda5601	3	1	main_slash	7	main_slash	131	stimuli_distractor_diamondtriangles.svg	stimuli_target_trianglesquares.svg	30	yes	53	1	1598	0	0			0	0			1				0	
6.6.1	mac	2023-06-20	15:06:17	15:16:42	622556	604ece0ddcb93c1afcda5601	3	1	main_slash	7	advance_on_keypress_SLASH	132	stimuli_distractor_diamondtriangles.svg	stimuli_target_trianglesquares.svg	30	yes	57	0	589	0	0			0	0			1				0	
6.6.1	mac	2023-06-20	15:06:17	15:16:44	624562	604ece0ddcb93c1afcda5601	3	1	main_slash	7	main_slash	133	stimuli_target_squaretriangles.svg	stimuli_distractor_trianglediamonds.svg	3	yes	53	1	787	0	0			0	0			1				0	
6.6.1	mac	2023-06-20	15:06:17	15:16:44	624562	604ece0ddcb93c1afcda5601	3	1	main_slash	7	advance_on_keypress_SLASH	134	stimuli_target_squaretriangles.svg	stimuli_distractor_trianglediamonds.svg	3	yes	57	0	632	0	0			0	0			1				0	
6.6.1	mac	2023-06-20	15:06:17	15:16:46	626562	604ece0ddcb93c1afcda5601	3	1	main_slash	7	main_slash	135	stimuli_target_rectanglediamonds.svg	stimuli_distractor_diamondtriangles.svg	6	yes	53	1	737	0	0			0	0			1				0	
6.6.1	mac	2023-06-20	15:06:17	15:16:46	626562	604ece0ddcb93c1afcda5601	3	1	main_slash	7	advance_on_keypress_SLASH	136	stimuli_target_rectanglediamonds.svg	stimuli_distractor_diamondtriangles.svg	6	yes	57	0	665	0	0			0	0			1				0	
6.6.1	mac	2023-06-20	15:06:17	15:16:48	628252	604ece0ddcb93c1afcda5601	3	1	main_slash	7	main_slash	137	stimuli_distractor_trianglediamonds.svg	stimuli_target_squaretriangles.svg	11	yes	53	1	394	0	0			0	0			1				0	
6.6.1	mac	2023-06-20	15:06:17	15:16:48	628252	604ece0ddcb93c1afcda5601	3	1	main_slash	7	advance_on_keypress_SLASH	138	stimuli_distractor_trianglediamonds.svg	stimuli_target_squaretriangles.svg	11	yes	57	0	179719	0	0			0	0			1				0	
6.6.1	mac	2023-06-20	15:06:17	15:19:51	810606	604ece0ddcb93c1afcda5601	3	1	main_slash	7	main_slash	139	stimuli_distractor_diamondtriangles.svg	stimuli_distractor_trianglediamonds.svg	37	no	0	1	2000	0	0			0	0			1				0	
6.6.1	mac	2023-06-20	15:06:17	15:19:51	810606	604ece0ddcb93c1afcda5601	3	1	main_slash	7	advance_on_keypress_SLASH	140	stimuli_distractor_diamondtriangles.svg	stimuli_distractor_trianglediamonds.svg	37	no	57	0	418	0	0			0	0			1				0	
6.6.1	mac	2023-06-20	15:06:17	15:19:54	813656	604ece0ddcb93c1afcda5601	3	1	main_slash	7	main_slash	141	stimuli_distractor_diamondtriangles.svg	stimuli_distractor_diamondtriangles.svg	39	no	0	1	2000	0	0			0	0			1				0	
6.6.1	mac	2023-06-20	15:06:17	15:19:54	813656	604ece0ddcb93c1afcda5601	3	1	main_slash	7	advance_on_keypress_SLASH	142	stimuli_distractor_diamondtriangles.svg	stimuli_distractor_diamondtriangles.svg	39	no	57	0	256	0	0			0	0			1				0	
6.6.1	mac	2023-06-20	15:06:17	15:19:55	815522	604ece0ddcb93c1afcda5601	3	1	main_slash	7	main_slash	143	stimuli_distractor_diamondtriangles.svg	stimuli_distractor_diamondtriangles.svg	40	no	53	0	980	0	0			0	0			1				0	
6.6.1	mac	2023-06-20	15:06:17	15:19:55	815522	604ece0ddcb93c1afcda5601	3	1	main_slash	7	advance_on_keypress_SLASH	144	stimuli_distractor_diamondtriangles.svg	stimuli_distractor_diamondtriangles.svg	40	no	57	0	480	0	0			0	0			1				0	
6.6.1	mac	2023-06-20	15:06:17	15:19:57	817520	604ece0ddcb93c1afcda5601	3	1	main_slash	7	main_slash	145	stimuli_target_rectanglediamonds.svg	stimuli_distractor_trianglediamonds.svg	2	yes	53	1	878	0	0			0	0			1				0	
6.6.1	mac	2023-06-20	15:06:17	15:19:57	817520	604ece0ddcb93c1afcda5601	3	1	main_slash	7	advance_on_keypress_SLASH	146	stimuli_target_rectanglediamonds.svg	stimuli_distractor_trianglediamonds.svg	2	yes	57	0	583	0	0			0	0			1				0	
6.6.1	mac	2023-06-20	15:06:17	15:20:01	820739	604ece0ddcb93c1afcda5601	3	1	main_slash	7	main_slash	147	stimuli_target_diamondrectangles.svg	stimuli_distractor_trianglediamonds.svg	19	yes	0	0	2000	0	0			0	0			1				0	
6.6.1	mac	2023-06-20	15:06:17	15:20:01	820739	604ece0ddcb93c1afcda5601	3	1	main_slash	7	advance_on_keypress_SLASH	148	stimuli_target_diamondrectangles.svg	stimuli_distractor_trianglediamonds.svg	19	yes	57	0	302	0	0			0	0			1				0	
6.6.1	mac	2023-06-20	15:06:17	15:20:04	823672	604ece0ddcb93c1afcda5601	3	1	main_slash	7	main_slash	149	stimuli_distractor_trianglediamonds.svg	stimuli_target_trianglesquares.svg	26	yes	0	0	2000	0	0			0	0			1				0	
6.6.1	mac	2023-06-20	15:06:17	15:20:04	823672	604ece0ddcb93c1afcda5601	3	1	main_slash	7	advance_on_keypress_SLASH	150	stimuli_distractor_trianglediamonds.svg	stimuli_target_trianglesquares.svg	26	yes	57	0	562	0	0			0	0			1				0	
6.6.1	mac	2023-06-20	15:06:17	15:20:07	826872	604ece0ddcb93c1afcda5601	3	1	main_slash	7	main_slash	151	stimuli_distractor_diamondtriangles.svg	stimuli_target_trianglerectangles.svg	29	yes	0	0	2000	0	0			0	0			1				0	
6.6.1	mac	2023-06-20	15:06:17	15:20:07	826872	604ece0ddcb93c1afcda5601	3	1	main_slash	7	advance_on_keypress_SLASH	152	stimuli_distractor_diamondtriangles.svg	stimuli_target_trianglerectangles.svg	29	yes	57	0	529	0	0			0	0			1				0	
6.6.1	mac	2023-06-20	15:06:17	15:20:09	828677	604ece0ddcb93c1afcda5601	3	1	main_slash	7	main_slash	153	stimuli_distractor_diamondtriangles.svg	stimuli_target_rectanglediamonds.svg	14	yes	53	1	636	0	0			0	0			1				0	
6.6.1	mac	2023-06-20	15:06:17	15:20:09	828677	604ece0ddcb93c1afcda5601	3	1	main_slash	7	advance_on_keypress_SLASH	154	stimuli_distractor_diamondtriangles.svg	stimuli_target_rectanglediamonds.svg	14	yes	57	0	655	0	0			0	0			1				0	
6.6.1	mac	2023-06-20	15:06:17	15:20:12	831956	604ece0ddcb93c1afcda5601	3	1	main_slash	7	main_slash	155	stimuli_distractor_trianglediamonds.svg	stimuli_distractor_trianglediamonds.svg	34	no	0	1	2000	0	0			0	0			1				0	
6.6.1	mac	2023-06-20	15:06:17	15:20:12	831956	604ece0ddcb93c1afcda5601	3	1	main_slash	7	advance_on_keypress_SLASH	156	stimuli_distractor_trianglediamonds.svg	stimuli_distractor_trianglediamonds.svg	34	no	57	0	301	0	0			0	0			1				0	
6.6.1	mac	2023-06-20	15:06:17	15:20:15	834660	604ece0ddcb93c1afcda5601	3	1	main_slash	7	main_slash	157	stimuli_distractor_diamondtriangles.svg	stimuli_target_diamondrectangles.svg	31	yes	53	1	1769	0	0			0	0			1				0	
6.6.1	mac	2023-06-20	15:06:17	15:20:15	834660	604ece0ddcb93c1afcda5601	3	1	main_slash	7	advance_on_keypress_SLASH	158	stimuli_distractor_diamondtriangles.svg	stimuli_target_diamondrectangles.svg	31	yes	57	0	752	0	0			0	0			1				0	
6.6.1	mac	2023-06-20	15:06:17	15:20:18	838039	604ece0ddcb93c1afcda5601	3	1	main_slash	7	main_slash	159	stimuli_distractor_trianglediamonds.svg	stimuli_distractor_diamondtriangles.svg	36	no	0	1	2000	0	0			0	0			1				0	
6.6.1	mac	2023-06-20	15:06:17	15:20:18	838039	604ece0ddcb93c1afcda5601	3	1	main_slash	7	advance_on_keypress_SLASH	160	stimuli_distractor_trianglediamonds.svg	stimuli_distractor_diamondtriangles.svg	36	no	57	0	3442	0	0			0	0			1				0	
6.6.1	mac	2023-06-20	15:06:17	15:20:45	865359	604ece0ddcb93c1afcda5601	3	1	practice_z	9	practice_z	1	stimuli_distractor_trianglediamonds.svg	stimuli_target_rectanglediamonds.svg	10	yes	44	1	914	0	0			0	0			1				0	
6.6.1	mac	2023-06-20	15:06:17	15:20:45	865359	604ece0ddcb93c1afcda5601	3	1	practice_z	9	advance_on_keypress_ZEE	2	stimuli_distractor_trianglediamonds.svg	stimuli_target_rectanglediamonds.svg	10	yes	57	0	782	0	0			0	0			1				0	
6.6.1	mac	2023-06-20	15:06:17	15:20:48	868496	604ece0ddcb93c1afcda5601	3	1	practice_z	9	practice_z	3	stimuli_target_squarediamonds.svg	stimuli_distractor_trianglediamonds.svg	5	yes	44	1	721	0	0			0	0			1				0	
6.6.1	mac	2023-06-20	15:06:17	15:20:48	868496	604ece0ddcb93c1afcda5601	3	1	practice_z	9	advance_on_keypress_ZEE	4	stimuli_target_squarediamonds.svg	stimuli_distractor_trianglediamonds.svg	5	yes	57	0	460	0	0			0	0			1				0	
6.6.1	mac	2023-06-20	15:06:17	15:20:51	871492	604ece0ddcb93c1afcda5601	3	1	practice_z	9	practice_z	5	stimuli_distractor_trianglediamonds.svg	stimuli_target_squarediamonds.svg	11	yes	44	1	901	0	0			0	0			1				0	
6.6.1	mac	2023-06-20	15:06:17	15:20:51	871492	604ece0ddcb93c1afcda5601	3	1	practice_z	9	advance_on_keypress_ZEE	6	stimuli_distractor_trianglediamonds.svg	stimuli_target_squarediamonds.svg	11	yes	57	0	657	0	0			0	0			1				0	
6.6.1	mac	2023-06-20	15:06:17	15:20:56	875772	604ece0ddcb93c1afcda5601	3	1	practice_z	9	practice_z	7	stimuli_distractor_trianglediamonds.svg	stimuli_target_diamondrectangles.svg	12	yes	0	0	2000	0	0			0	0			1				0	
6.6.1	mac	2023-06-20	15:06:17	15:20:56	875772	604ece0ddcb93c1afcda5601	3	1	practice_z	9	advance_on_keypress_ZEE	8	stimuli_distractor_trianglediamonds.svg	stimuli_target_diamondrectangles.svg	12	yes	57	0	641	0	0			0	0			1				0	
6.6.1	mac	2023-06-20	15:06:17	15:20:59	878786	604ece0ddcb93c1afcda5601	3	1	practice_z	9	practice_z	9	stimuli_distractor_diamondtriangles.svg	stimuli_target_diamondrectangles.svg	8	yes	44	1	744	0	0			0	0			1				0	
6.6.1	mac	2023-06-20	15:06:17	15:20:59	878786	604ece0ddcb93c1afcda5601	3	1	practice_z	9	advance_on_keypress_ZEE	10	stimuli_distractor_diamondtriangles.svg	stimuli_target_diamondrectangles.svg	8	yes	57	0	444	0	0			0	0			1				0	
6.6.1	mac	2023-06-20	15:06:17	15:21:03	882873	604ece0ddcb93c1afcda5601	3	1	practice_z	9	practice_z	11	stimuli_distractor_trianglediamonds.svg	stimuli_distractor_trianglediamonds.svg	15	no	0	1	2000	0	0			0	0			1				0	
6.6.1	mac	2023-06-20	15:06:17	15:21:03	882873	604ece0ddcb93c1afcda5601	3	1	practice_z	9	advance_on_keypress_ZEE	12	stimuli_distractor_trianglediamonds.svg	stimuli_distractor_trianglediamonds.svg	15	no	57	0	462	0	0			0	0			1				0	
6.6.1	mac	2023-06-20	15:06:17	15:21:06	885749	604ece0ddcb93c1afcda5601	3	1	practice_z	9	practice_z	13	stimuli_target_rectanglediamonds.svg	stimuli_distractor_trianglediamonds.svg	4	yes	44	1	774	0	0			0	0			1				0	
6.6.1	mac	2023-06-20	15:06:17	15:21:06	885749	604ece0ddcb93c1afcda5601	3	1	practice_z	9	advance_on_keypress_ZEE	14	stimuli_target_rectanglediamonds.svg	stimuli_distractor_trianglediamonds.svg	4	yes	57	0	684	0	0			0	0			1				0	
6.6.1	mac	2023-06-20	15:06:17	15:21:10	890056	604ece0ddcb93c1afcda5601	3	1	practice_z	9	practice_z	15	stimuli_distractor_diamondtriangles.svg	stimuli_distractor_diamondtriangles.svg	13	no	0	1	2000	0	0			0	0			1				0	
6.6.1	mac	2023-06-20	15:06:17	15:21:10	890056	604ece0ddcb93c1afcda5601	3	1	practice_z	9	advance_on_keypress_ZEE	16	stimuli_distractor_diamondtriangles.svg	stimuli_distractor_diamondtriangles.svg	13	no	57	0	445	0	0			0	0			1				0	
6.6.1	mac	2023-06-20	15:06:17	15:21:13	893024	604ece0ddcb93c1afcda5601	3	1	practice_z	9	practice_z	17	stimuli_target_rectanglediamonds.svg	stimuli_distractor_diamondtriangles.svg	1	yes	44	1	882	0	0			0	0			1				0	
6.6.1	mac	2023-06-20	15:06:17	15:21:13	893024	604ece0ddcb93c1afcda5601	3	1	practice_z	9	advance_on_keypress_ZEE	18	stimuli_target_rectanglediamonds.svg	stimuli_distractor_diamondtriangles.svg	1	yes	57	0	536	0	0			0	0			1				0	
6.6.1	mac	2023-06-20	15:06:17	15:21:17	897129	604ece0ddcb93c1afcda5601	3	1	practice_z	9	practice_z	19	stimuli_target_diamondsquares.svg	stimuli_distractor_diamondtriangles.svg	3	yes	44	1	1936	0	0			0	0			1				0	
6.6.1	mac	2023-06-20	15:06:17	15:21:17	897129	604ece0ddcb93c1afcda5601	3	1	practice_z	9	advance_on_keypress_ZEE	20	stimuli_target_diamondsquares.svg	stimuli_distractor_diamondtriangles.svg	3	yes	57	0	442	0	0			0	0			1				0	
6.6.1	mac	2023-06-20	15:06:17	15:21:20	900299	604ece0ddcb93c1afcda5601	3	1	practice_z	9	practice_z	21	stimuli_distractor_trianglediamonds.svg	stimuli_distractor_diamondtriangles.svg	16	no	44	0	1090	0	0			0	0			1				0	
6.6.1	mac	2023-06-20	15:06:17	15:21:20	900299	604ece0ddcb93c1afcda5601	3	1	practice_z	9	advance_on_keypress_ZEE	22	stimuli_distractor_trianglediamonds.svg	stimuli_distractor_diamondtriangles.svg	16	no	57	0	385	0	0			0	0			1				0	
6.6.1	mac	2023-06-20	15:06:17	15:21:24	904306	604ece0ddcb93c1afcda5601	3	1	practice_z	9	practice_z	23	stimuli_target_diamondsquares.svg	stimuli_distractor_trianglediamonds.svg	6	yes	0	0	2000	0	0			0	0			1				0	
6.6.1	mac	2023-06-20	15:06:17	15:21:24	904306	604ece0ddcb93c1afcda5601	3	1	practice_z	9	advance_on_keypress_ZEE	24	stimuli_target_diamondsquares.svg	stimuli_distractor_trianglediamonds.svg	6	yes	57	0	291	0	0			0	0			1				0	
6.6.1	mac	2023-06-20	15:06:17	15:21:27	907316	604ece0ddcb93c1afcda5601	3	1	practice_z	9	practice_z	25	stimuli_distractor_diamondtriangles.svg	stimuli_target_trianglerectangles.svg	9	yes	44	1	1091	0	0			0	0			1				0	
6.6.1	mac	2023-06-20	15:06:17	15:21:27	907316	604ece0ddcb93c1afcda5601	3	1	practice_z	9	advance_on_keypress_ZEE	26	stimuli_distractor_diamondtriangles.svg	stimuli_target_trianglerectangles.svg	9	yes	57	0	545	0	0			0	0			1				0	
6.6.1	mac	2023-06-20	15:06:17	15:21:30	910318	604ece0ddcb93c1afcda5601	3	1	practice_z	9	practice_z	27	stimuli_target_squarediamonds.svg	stimuli_distractor_diamondtriangles.svg	2	yes	44	1	827	0	0			0	0			1				0	
6.6.1	mac	2023-06-20	15:06:17	15:21:30	910318	604ece0ddcb93c1afcda5601	3	1	practice_z	9	advance_on_keypress_ZEE	28	stimuli_target_squarediamonds.svg	stimuli_distractor_diamondtriangles.svg	2	yes	57	0	434	0	0			0	0			1				0	
6.6.1	mac	2023-06-20	15:06:17	15:21:33	913261	604ece0ddcb93c1afcda5601	3	1	practice_z	9	practice_z	29	stimuli_distractor_diamondtriangles.svg	stimuli_distractor_trianglediamonds.svg	14	no	44	0	886	0	0			0	0			1				0	
6.6.1	mac	2023-06-20	15:06:17	15:21:33	913261	604ece0ddcb93c1afcda5601	3	1	practice_z	9	advance_on_keypress_ZEE	30	stimuli_distractor_diamondtriangles.svg	stimuli_distractor_trianglediamonds.svg	14	no	57	0	361	0	0			0	0			1				0	
6.6.1	mac	2023-06-20	15:06:17	15:21:36	916054	604ece0ddcb93c1afcda5601	3	1	practice_z	9	practice_z	31	stimuli_distractor_diamondtriangles.svg	stimuli_target_rectangletriangles.svg	7	yes	44	1	796	0	0			0	0			1				0	
6.6.1	mac	2023-06-20	15:06:17	15:21:36	916054	604ece0ddcb93c1afcda5601	3	1	practice_z	9	advance_on_keypress_ZEE	32	stimuli_distractor_diamondtriangles.svg	stimuli_target_rectangletriangles.svg	7	yes	57	0	438	0	0			0	0			1				0	
6.6.1	mac	2023-06-20	15:06:17	15:21:40	920493	604ece0ddcb93c1afcda5601	3	1	main_z	11	main_z	1	stimuli_distractor_diamondtriangles.svg	stimuli_target_squaretriangles.svg	15	yes	44	1	784	0	0			0	0			1				0	
6.6.1	mac	2023-06-20	15:06:17	15:21:40	920493	604ece0ddcb93c1afcda5601	3	1	main_z	11	advance_on_keypress_ZEE	2	stimuli_distractor_diamondtriangles.svg	stimuli_target_squaretriangles.svg	15	yes	57	0	1346	0	0			0	0			1				0	
6.6.1	mac	2023-06-20	15:06:17	15:21:43	923196	604ece0ddcb93c1afcda5601	3	1	main_z	11	main_z	3	stimuli_target_trianglerectangles.svg	stimuli_distractor_diamondtriangles.svg	21	yes	44	1	721	0	0			0	0			1				0	
6.6.1	mac	2023-06-20	15:06:17	15:21:43	923196	604ece0ddcb93c1afcda5601	3	1	main_z	11	advance_on_keypress_ZEE	4	stimuli_target_trianglerectangles.svg	stimuli_distractor_diamondtriangles.svg	21	yes	57	0	693	0	0			0	0			1				0	
6.6.1	mac	2023-06-20	15:06:17	15:21:45	925297	604ece0ddcb93c1afcda5601	3	1	main_z	11	main_z	5	stimuli_distractor_diamondtriangles.svg	stimuli_target_squarediamonds.svg	16	yes	44	1	788	0	0			0	0			1				0	
6.6.1	mac	2023-06-20	15:06:17	15:21:45	925297	604ece0ddcb93c1afcda5601	3	1	main_z	11	advance_on_keypress_ZEE	6	stimuli_distractor_diamondtriangles.svg	stimuli_target_squarediamonds.svg	16	yes	57	0	1059	0	0			0	0			1				0	
6.6.1	mac	2023-06-20	15:06:17	15:21:47	927538	604ece0ddcb93c1afcda5601	3	1	main_z	11	main_z	7	stimuli_distractor_diamondtriangles.svg	stimuli_target_rectangletriangles.svg	13	yes	44	1	563	0	0			0	0			1				0	
6.6.1	mac	2023-06-20	15:06:17	15:21:47	927538	604ece0ddcb93c1afcda5601	3	1	main_z	11	advance_on_keypress_ZEE	8	stimuli_distractor_diamondtriangles.svg	stimuli_target_rectangletriangles.svg	13	yes	57	0	610	0	0			0	0			1				0	
6.6.1	mac	2023-06-20	15:06:17	15:21:51	930789	604ece0ddcb93c1afcda5601	3	1	main_z	11	main_z	9	stimuli_distractor_diamondtriangles.svg	stimuli_target_trianglerectangles.svg	29	yes	0	0	2000	0	0			0	0			1				0	
6.6.1	mac	2023-06-20	15:06:17	15:21:51	930789	604ece0ddcb93c1afcda5601	3	1	main_z	11	advance_on_keypress_ZEE	10	stimuli_distractor_diamondtriangles.svg	stimuli_target_trianglerectangles.svg	29	yes	57	0	296	0	0			0	0			1				0	
6.6.1	mac	2023-06-20	15:06:17	15:21:52	932376	604ece0ddcb93c1afcda5601	3	1	main_z	11	main_z	11	stimuli_distractor_trianglediamonds.svg	stimuli_target_rectangletriangles.svg	9	yes	44	1	651	0	0			0	0			1				0	
6.6.1	mac	2023-06-20	15:06:17	15:21:52	932376	604ece0ddcb93c1afcda5601	3	1	main_z	11	advance_on_keypress_ZEE	12	stimuli_distractor_trianglediamonds.svg	stimuli_target_rectangletriangles.svg	9	yes	57	0	608	0	0			0	0			1				0	
6.6.1	mac	2023-06-20	15:06:17	15:21:54	934194	604ece0ddcb93c1afcda5601	3	1	main_z	11	main_z	13	stimuli_distractor_trianglediamonds.svg	stimuli_distractor_diamondtriangles.svg	35	no	44	0	586	0	0			0	0			1				0	
6.6.1	mac	2023-06-20	15:06:17	15:21:54	934194	604ece0ddcb93c1afcda5601	3	1	main_z	11	advance_on_keypress_ZEE	14	stimuli_distractor_trianglediamonds.svg	stimuli_distractor_diamondtriangles.svg	35	no	57	0	617	0	0			0	0			1				0	
6.6.1	mac	2023-06-20	15:06:17	15:21:57	937439	604ece0ddcb93c1afcda5601	3	1	main_z	11	main_z	15	stimuli_distractor_diamondtriangles.svg	stimuli_distractor_diamondtriangles.svg	39	no	0	1	2000	0	0			0	0			1				0	
6.6.1	mac	2023-06-20	15:06:17	15:21:57	937439	604ece0ddcb93c1afcda5601	3	1	main_z	11	advance_on_keypress_ZEE	16	stimuli_distractor_diamondtriangles.svg	stimuli_distractor_diamondtriangles.svg	39	no	57	0	524	0	0			0	0			1				0	
6.6.1	mac	2023-06-20	15:06:17	15:22:00	939650	604ece0ddcb93c1afcda5601	3	1	main_z	11	main_z	17	stimuli_target_trianglesquares.svg	stimuli_distractor_diamondtriangles.svg	22	yes	44	1	1060	0	0			0	0			1				0	
6.6.1	mac	2023-06-20	15:06:17	15:22:00	939650	604ece0ddcb93c1afcda5601	3	1	main_z	11	advance_on_keypress_ZEE	18	stimuli_target_trianglesquares.svg	stimuli_distractor_diamondtriangles.svg	22	yes	57	0	828	0	0			0	0			1				0	
6.6.1	mac	2023-06-20	15:06:17	15:22:02	941687	604ece0ddcb93c1afcda5601	3	1	main_z	11	main_z	19	stimuli_target_squaretriangles.svg	stimuli_distractor_trianglediamonds.svg	3	yes	44	1	595	0	0			0	0			1				0	
6.6.1	mac	2023-06-20	15:06:17	15:22:02	941687	604ece0ddcb93c1afcda5601	3	1	main_z	11	advance_on_keypress_ZEE	20	stimuli_target_squaretriangles.svg	stimuli_distractor_trianglediamonds.svg	3	yes	57	0	639	0	0			0	0			1				0	
6.6.1	mac	2023-06-20	15:06:17	15:22:05	944956	604ece0ddcb93c1afcda5601	3	1	main_z	11	main_z	21	stimuli_distractor_trianglediamonds.svg	stimuli_target_diamondrectangles.svg	27	yes	0	0	2000	0	0			0	0			1				0	
6.6.1	mac	2023-06-20	15:06:17	15:22:05	944956	604ece0ddcb93c1afcda5601	3	1	main_z	11	advance_on_keypress_ZEE	22	stimuli_distractor_trianglediamonds.svg	stimuli_target_diamondrectangles.svg	27	yes	57	0	458	0	0			0	0			1				0	
6.6.1	mac	2023-06-20	15:06:17	15:22:07	946873	604ece0ddcb93c1afcda5601	3	1	main_z	11	main_z	23	stimuli_target_rectangletriangles.svg	stimuli_distractor_trianglediamonds.svg	1	yes	44	1	832	0	0			0	0			1				0	
6.6.1	mac	2023-06-20	15:06:17	15:22:07	946873	604ece0ddcb93c1afcda5601	3	1	main_z	11	advance_on_keypress_ZEE	24	stimuli_target_rectangletriangles.svg	stimuli_distractor_trianglediamonds.svg	1	yes	57	0	559	0	0			0	0			1				0	
6.6.1	mac	2023-06-20	15:06:17	15:22:09	948955	604ece0ddcb93c1afcda5601	3	1	main_z	11	main_z	25	stimuli_target_rectangletriangles.svg	stimuli_distractor_diamondtriangles.svg	5	yes	44	1	897	0	0			0	0			1				0	
6.6.1	mac	2023-06-20	15:06:17	15:22:09	948955	604ece0ddcb93c1afcda5601	3	1	main_z	11	advance_on_keypress_ZEE	26	stimuli_target_rectangletriangles.svg	stimuli_distractor_diamondtriangles.svg	5	yes	57	0	660	0	0			0	0			1				0	
6.6.1	mac	2023-06-20	15:06:17	15:22:12	952239	604ece0ddcb93c1afcda5601	3	1	main_z	11	main_z	27	stimuli_target_trianglesquares.svg	stimuli_distractor_trianglediamonds.svg	18	yes	0	0	2000	0	0			0	0			1				0	
6.6.1	mac	2023-06-20	15:06:17	15:22:12	952239	604ece0ddcb93c1afcda5601	3	1	main_z	11	advance_on_keypress_ZEE	28	stimuli_target_trianglesquares.svg	stimuli_distractor_trianglediamonds.svg	18	yes	57	0	447	0	0			0	0			1				0	
6.6.1	mac	2023-06-20	15:06:17	15:22:14	954100	604ece0ddcb93c1afcda5601	3	1	main_z	11	main_z	29	stimuli_target_diamondrectangles.svg	stimuli_distractor_diamondtriangles.svg	23	yes	44	1	775	0	0			0	0			1				0	
6.6.1	mac	2023-06-20	15:06:17	15:22:14	954100	604ece0ddcb93c1afcda5601	3	1	main_z	11	advance_on_keypress_ZEE	30	stimuli_target_diamondrectangles.svg	stimuli_distractor_diamondtriangles.svg	23	yes	57	0	508	0	0			0	0			1				0	
6.6.1	mac	2023-06-20	15:06:17	15:22:17	957223	604ece0ddcb93c1afcda5601	3	1	main_z	11	main_z	31	stimuli_distractor_diamondtriangles.svg	stimuli_distractor_trianglediamonds.svg	37	no	0	1	2000	0	0			0	0			1				0	
6.6.1	mac	2023-06-20	15:06:17	15:22:17	957223	604ece0ddcb93c1afcda5601	3	1	main_z	11	advance_on_keypress_ZEE	32	stimuli_distractor_diamondtriangles.svg	stimuli_distractor_trianglediamonds.svg	37	no	57	0	322	0	0			0	0			1				0	
6.6.1	mac	2023-06-20	15:06:17	15:22:20	960173	604ece0ddcb93c1afcda5601	3	1	main_z	11	main_z	33	stimuli_distractor_trianglediamonds.svg	stimuli_target_trianglesquares.svg	26	yes	0	0	2000	0	0			0	0			1				0	
6.6.1	mac	2023-06-20	15:06:17	15:22:20	960173	604ece0ddcb93c1afcda5601	3	1	main_z	11	advance_on_keypress_ZEE	34	stimuli_distractor_trianglediamonds.svg	stimuli_target_trianglesquares.svg	26	yes	57	0	451	0	0			0	0			1				0	
6.6.1	mac	2023-06-20	15:06:17	15:22:23	963256	604ece0ddcb93c1afcda5601	3	1	main_z	11	main_z	35	stimuli_target_trianglerectangles.svg	stimuli_distractor_trianglediamonds.svg	17	yes	0	0	2000	0	0			0	0			1				0	
6.6.1	mac	2023-06-20	15:06:17	15:22:23	963256	604ece0ddcb93c1afcda5601	3	1	main_z	11	advance_on_keypress_ZEE	36	stimuli_target_trianglerectangles.svg	stimuli_distractor_trianglediamonds.svg	17	yes	57	0	155	0	0			0	0			1				0	
6.6.1	mac	2023-06-20	15:06:17	15:22:25	964877	604ece0ddcb93c1afcda5601	3	1	main_z	11	main_z	37	stimuli_distractor_trianglediamonds.svg	stimuli_target_diamondsquares.svg	28	yes	44	1	836	0	0			0	0			1				0	
6.6.1	mac	2023-06-20	15:06:17	15:22:25	964877	604ece0ddcb93c1afcda5601	3	1	main_z	11	advance_on_keypress_ZEE	38	stimuli_distractor_trianglediamonds.svg	stimuli_target_diamondsquares.svg	28	yes	57	0	551	0	0			0	0			1				0	
6.6.1	mac	2023-06-20	15:06:17	15:22:28	968056	604ece0ddcb93c1afcda5601	3	1	main_z	11	main_z	39	stimuli_distractor_trianglediamonds.svg	stimuli_distractor_trianglediamonds.svg	34	no	0	1	2000	0	0			0	0			1				0	
6.6.1	mac	2023-06-20	15:06:17	15:22:28	968056	604ece0ddcb93c1afcda5601	3	1	main_z	11	advance_on_keypress_ZEE	40	stimuli_distractor_trianglediamonds.svg	stimuli_distractor_trianglediamonds.svg	34	no	57	0	302	0	0			0	0			1				0	
6.6.1	mac	2023-06-20	15:06:17	15:22:31	970989	604ece0ddcb93c1afcda5601	3	1	main_z	11	main_z	41	stimuli_target_squarediamonds.svg	stimuli_distractor_trianglediamonds.svg	4	yes	0	0	2000	0	0			0	0			1				0	
6.6.1	mac	2023-06-20	15:06:17	15:22:31	970989	604ece0ddcb93c1afcda5601	3	1	main_z	11	advance_on_keypress_ZEE	42	stimuli_target_squarediamonds.svg	stimuli_distractor_trianglediamonds.svg	4	yes	57	0	943	0	0			0	0			1				0	
6.6.1	mac	2023-06-20	15:06:17	15:22:33	973398	604ece0ddcb93c1afcda5601	3	1	main_z	11	main_z	43	stimuli_target_diamondrectangles.svg	stimuli_distractor_trianglediamonds.svg	19	yes	44	1	822	0	0			0	0			1				0	
6.6.1	mac	2023-06-20	15:06:17	15:22:33	973398	604ece0ddcb93c1afcda5601	3	1	main_z	11	advance_on_keypress_ZEE	44	stimuli_target_diamondrectangles.svg	stimuli_distractor_trianglediamonds.svg	19	yes	57	0	573	0	0			0	0			1				0	
6.6.1	mac	2023-06-20	15:06:17	15:22:35	975511	604ece0ddcb93c1afcda5601	3	1	main_z	11	main_z	45	stimuli_distractor_trianglediamonds.svg	stimuli_target_trianglerectangles.svg	25	yes	44	1	919	0	0			0	0			1				0	
6.6.1	mac	2023-06-20	15:06:17	15:22:35	975511	604ece0ddcb93c1afcda5601	3	1	main_z	11	advance_on_keypress_ZEE	46	stimuli_distractor_trianglediamonds.svg	stimuli_target_trianglerectangles.svg	25	yes	57	0	584	0	0			0	0			1				0	
6.6.1	mac	2023-06-20	15:06:17	15:22:39	978723	604ece0ddcb93c1afcda5601	3	1	main_z	11	main_z	47	stimuli_target_squaretriangles.svg	stimuli_distractor_diamondtriangles.svg	7	yes	0	0	2000	0	0			0	0			1				0	
6.6.1	mac	2023-06-20	15:06:17	15:22:39	978723	604ece0ddcb93c1afcda5601	3	1	main_z	11	advance_on_keypress_ZEE	48	stimuli_target_squaretriangles.svg	stimuli_distractor_diamondtriangles.svg	7	yes	57	0	341	0	0			0	0			1				0	
6.6.1	mac	2023-06-20	15:06:17	15:22:42	981689	604ece0ddcb93c1afcda5601	3	1	main_z	11	main_z	49	stimuli_target_squarediamonds.svg	stimuli_distractor_diamondtriangles.svg	8	yes	0	0	2000	0	0			0	0			1				0	
6.6.1	mac	2023-06-20	15:06:17	15:22:42	981689	604ece0ddcb93c1afcda5601	3	1	main_z	11	advance_on_keypress_ZEE	50	stimuli_target_squarediamonds.svg	stimuli_distractor_diamondtriangles.svg	8	yes	57	0	344	0	0			0	0			1				0	
6.6.1	mac	2023-06-20	15:06:17	15:22:43	982982	604ece0ddcb93c1afcda5601	3	1	main_z	11	main_z	51	stimuli_target_diamondsquares.svg	stimuli_distractor_trianglediamonds.svg	20	yes	44	1	307	0	0			0	0			1				0	
6.6.1	mac	2023-06-20	15:06:17	15:22:43	982982	604ece0ddcb93c1afcda5601	3	1	main_z	11	advance_on_keypress_ZEE	52	stimuli_target_diamondsquares.svg	stimuli_distractor_trianglediamonds.svg	20	yes	57	0	810	0	0			0	0			1				0	
6.6.1	mac	2023-06-20	15:06:17	15:22:46	986406	604ece0ddcb93c1afcda5601	3	1	main_z	11	main_z	53	stimuli_distractor_diamondtriangles.svg	stimuli_target_diamondrectangles.svg	31	yes	0	0	2000	0	0			0	0			1				0	
6.6.1	mac	2023-06-20	15:06:17	15:22:46	986406	604ece0ddcb93c1afcda5601	3	1	main_z	11	advance_on_keypress_ZEE	54	stimuli_distractor_diamondtriangles.svg	stimuli_target_diamondrectangles.svg	31	yes	57	0	303	0	0			0	0			1				0	
6.6.1	mac	2023-06-20	15:06:17	15:22:48	987824	604ece0ddcb93c1afcda5601	3	1	main_z	11	main_z	55	stimuli_target_rectanglediamonds.svg	stimuli_distractor_diamondtriangles.svg	6	yes	44	1	483	0	0			0	0			1				0	
6.6.1	mac	2023-06-20	15:06:17	15:22:48	987824	604ece0ddcb93c1afcda5601	3	1	main_z	11	advance_on_keypress_ZEE	56	stimuli_target_rectanglediamonds.svg	stimuli_distractor_diamondtriangles.svg	6	yes	57	0	544	0	0			0	0			1				0	
6.6.1	mac	2023-06-20	15:06:17	15:22:51	990990	604ece0ddcb93c1afcda5601	3	1	main_z	11	main_z	57	stimuli_distractor_diamondtriangles.svg	stimuli_target_rectanglediamonds.svg	14	yes	0	0	2000	0	0			0	0			1				0	
6.6.1	mac	2023-06-20	15:06:17	15:22:51	990990	604ece0ddcb93c1afcda5601	3	1	main_z	11	advance_on_keypress_ZEE	58	stimuli_distractor_diamondtriangles.svg	stimuli_target_rectanglediamonds.svg	14	yes	57	0	486	0	0			0	0			1				0	
6.6.1	mac	2023-06-20	15:06:17	15:22:54	993934	604ece0ddcb93c1afcda5601	3	1	main_z	11	main_z	59	stimuli_distractor_diamondtriangles.svg	stimuli_distractor_trianglediamonds.svg	38	no	44	0	1826	0	0			0	0			1				0	
6.6.1	mac	2023-06-20	15:06:17	15:22:54	993934	604ece0ddcb93c1afcda5601	3	1	main_z	11	advance_on_keypress_ZEE	60	stimuli_distractor_diamondtriangles.svg	stimuli_distractor_trianglediamonds.svg	38	no	57	0	632	0	0			0	0			1				0	
6.6.1	mac	2023-06-20	15:06:17	15:22:56	995750	604ece0ddcb93c1afcda5601	3	1	main_z	11	main_z	61	stimuli_target_rectanglediamonds.svg	stimuli_distractor_trianglediamonds.svg	2	yes	44	1	559	0	0			0	0			1				0	
6.6.1	mac	2023-06-20	15:06:17	15:22:56	995750	604ece0ddcb93c1afcda5601	3	1	main_z	11	advance_on_keypress_ZEE	62	stimuli_target_rectanglediamonds.svg	stimuli_distractor_trianglediamonds.svg	2	yes	57	0	633	0	0			0	0			1				0	
6.6.1	mac	2023-06-20	15:06:17	15:22:58	997801	604ece0ddcb93c1afcda5601	3	1	main_z	11	main_z	63	stimuli_distractor_diamondtriangles.svg	stimuli_target_diamondsquares.svg	32	yes	44	1	776	0	0			0	0			1				0	
6.6.1	mac	2023-06-20	15:06:17	15:22:58	997801	604ece0ddcb93c1afcda5601	3	1	main_z	11	advance_on_keypress_ZEE	64	stimuli_distractor_diamondtriangles.svg	stimuli_target_diamondsquares.svg	32	yes	57	0	548	0	0			0	0			1				0	
6.6.1	mac	2023-06-20	15:06:17	15:23:00	999863	604ece0ddcb93c1afcda5601	3	1	main_z	11	main_z	65	stimuli_target_diamondsquares.svg	stimuli_distractor_diamondtriangles.svg	24	yes	44	1	888	0	0			0	0			1				0	
6.6.1	mac	2023-06-20	15:06:17	15:23:00	999863	604ece0ddcb93c1afcda5601	3	1	main_z	11	advance_on_keypress_ZEE	66	stimuli_target_diamondsquares.svg	stimuli_distractor_diamondtriangles.svg	24	yes	57	0	517	0	0			0	0			1				0	
6.6.1	mac	2023-06-20	15:06:17	15:23:02	1002215	604ece0ddcb93c1afcda5601	3	1	main_z	11	main_z	67	stimuli_distractor_diamondtriangles.svg	stimuli_target_trianglesquares.svg	30	yes	44	1	1207	0	0			0	0			1				0	
6.6.1	mac	2023-06-20	15:06:17	15:23:02	1002215	604ece0ddcb93c1afcda5601	3	1	main_z	11	advance_on_keypress_ZEE	68	stimuli_distractor_diamondtriangles.svg	stimuli_target_trianglesquares.svg	30	yes	57	0	483	0	0			0	0			1				0	
6.6.1	mac	2023-06-20	15:06:17	15:23:05	1005322	604ece0ddcb93c1afcda5601	3	1	main_z	11	main_z	69	stimuli_distractor_trianglediamonds.svg	stimuli_distractor_trianglediamonds.svg	33	no	0	1	2000	0	0			0	0			1				0	
6.6.1	mac	2023-06-20	15:06:17	15:23:05	1005322	604ece0ddcb93c1afcda5601	3	1	main_z	11	advance_on_keypress_ZEE	70	stimuli_distractor_trianglediamonds.svg	stimuli_distractor_trianglediamonds.svg	33	no	57	0	362	0	0			0	0			1				0	
6.6.1	mac	2023-06-20	15:06:17	15:23:08	1008322	604ece0ddcb93c1afcda5601	3	1	main_z	11	main_z	71	stimuli_distractor_trianglediamonds.svg	stimuli_target_squarediamonds.svg	12	yes	0	0	2000	0	0			0	0			1				0	
6.6.1	mac	2023-06-20	15:06:17	15:23:08	1008322	604ece0ddcb93c1afcda5601	3	1	main_z	11	advance_on_keypress_ZEE	72	stimuli_distractor_trianglediamonds.svg	stimuli_target_squarediamonds.svg	12	yes	57	0	181	0	0			0	0			1				0	
6.6.1	mac	2023-06-20	15:06:17	15:23:11	1011139	604ece0ddcb93c1afcda5601	3	1	main_z	11	main_z	73	stimuli_distractor_trianglediamonds.svg	stimuli_target_squaretriangles.svg	11	yes	0	0	2000	0	0			0	0			1				0	
6.6.1	mac	2023-06-20	15:06:17	15:23:11	1011139	604ece0ddcb93c1afcda5601	3	1	main_z	11	advance_on_keypress_ZEE	74	stimuli_distractor_trianglediamonds.svg	stimuli_target_squaretriangles.svg	11	yes	57	0	375	0	0			0	0			1				0	
6.6.1	mac	2023-06-20	15:06:17	15:23:14	1014139	604ece0ddcb93c1afcda5601	3	1	main_z	11	main_z	75	stimuli_distractor_trianglediamonds.svg	stimuli_target_rectanglediamonds.svg	10	yes	0	0	2000	0	0			0	0			1				0	
6.6.1	mac	2023-06-20	15:06:17	15:23:14	1014139	604ece0ddcb93c1afcda5601	3	1	main_z	11	advance_on_keypress_ZEE	76	stimuli_distractor_trianglediamonds.svg	stimuli_target_rectanglediamonds.svg	10	yes	57	0	359	0	0			0	0			1				0	
6.6.1	mac	2023-06-20	15:06:17	15:23:17	1017122	604ece0ddcb93c1afcda5601	3	1	main_z	11	main_z	77	stimuli_distractor_diamondtriangles.svg	stimuli_distractor_diamondtriangles.svg	40	no	0	1	2000	0	0			0	0			1				0	
6.6.1	mac	2023-06-20	15:06:17	15:23:17	1017122	604ece0ddcb93c1afcda5601	3	1	main_z	11	advance_on_keypress_ZEE	78	stimuli_distractor_diamondtriangles.svg	stimuli_distractor_diamondtriangles.svg	40	no	57	0	366	0	0			0	0			1				0	
6.6.1	mac	2023-06-20	15:06:17	15:23:20	1020122	604ece0ddcb93c1afcda5601	3	1	main_z	11	main_z	79	stimuli_distractor_trianglediamonds.svg	stimuli_distractor_diamondtriangles.svg	36	no	0	1	2000	0	0			0	0			1				0	
6.6.1	mac	2023-06-20	15:06:17	15:23:20	1020122	604ece0ddcb93c1afcda5601	3	1	main_z	11	advance_on_keypress_ZEE	80	stimuli_distractor_trianglediamonds.svg	stimuli_distractor_diamondtriangles.svg	36	no	57	0	48	0	0			0	0			1				0	
6.6.1	mac	2023-06-20	15:06:17	15:23:21	1021136	604ece0ddcb93c1afcda5601	3	1	main_z	11	main_z	81	stimuli_distractor_diamondtriangles.svg	stimuli_distractor_trianglediamonds.svg	38	no	44	0	328	0	0			0	0			1				0	
6.6.1	mac	2023-06-20	15:06:17	15:23:21	1021136	604ece0ddcb93c1afcda5601	3	1	main_z	11	advance_on_keypress_ZEE	82	stimuli_distractor_diamondtriangles.svg	stimuli_distractor_trianglediamonds.svg	38	no	57	0	600	0	0			0	0			1				0	
6.6.1	mac	2023-06-20	15:06:17	15:23:23	1023148	604ece0ddcb93c1afcda5601	3	1	main_z	11	main_z	83	stimuli_distractor_trianglediamonds.svg	stimuli_target_rectanglediamonds.svg	10	yes	44	1	773	0	0			0	0			1				0	
6.6.1	mac	2023-06-20	15:06:17	15:23:23	1023148	604ece0ddcb93c1afcda5601	3	1	main_z	11	advance_on_keypress_ZEE	84	stimuli_distractor_trianglediamonds.svg	stimuli_target_rectanglediamonds.svg	10	yes	57	0	627	0	0			0	0			1				0	
6.6.1	mac	2023-06-20	15:06:17	15:23:26	1026390	604ece0ddcb93c1afcda5601	3	1	main_z	11	main_z	85	stimuli_target_squaretriangles.svg	stimuli_distractor_trianglediamonds.svg	3	yes	0	0	2000	0	0			0	0			1				0	
6.6.1	mac	2023-06-20	15:06:17	15:23:26	1026390	604ece0ddcb93c1afcda5601	3	1	main_z	11	advance_on_keypress_ZEE	86	stimuli_target_squaretriangles.svg	stimuli_distractor_trianglediamonds.svg	3	yes	57	0	405	0	0			0	0			1				0	
6.6.1	mac	2023-06-20	15:06:17	15:23:28	1028124	604ece0ddcb93c1afcda5601	3	1	main_z	11	main_z	87	stimuli_distractor_trianglediamonds.svg	stimuli_target_trianglerectangles.svg	25	yes	44	1	699	0	0			0	0			1				0	
6.6.1	mac	2023-06-20	15:06:17	15:23:28	1028124	604ece0ddcb93c1afcda5601	3	1	main_z	11	advance_on_keypress_ZEE	88	stimuli_distractor_trianglediamonds.svg	stimuli_target_trianglerectangles.svg	25	yes	57	0	573	0	0			0	0			1				0	
6.6.1	mac	2023-06-20	15:06:17	15:23:30	1030163	604ece0ddcb93c1afcda5601	3	1	main_z	11	main_z	89	stimuli_target_squarediamonds.svg	stimuli_distractor_diamondtriangles.svg	8	yes	44	1	838	0	0			0	0			1				0	
6.6.1	mac	2023-06-20	15:06:17	15:23:30	1030163	604ece0ddcb93c1afcda5601	3	1	main_z	11	advance_on_keypress_ZEE	90	stimuli_target_squarediamonds.svg	stimuli_distractor_diamondtriangles.svg	8	yes	57	0	627	0	0			0	0			1				0	
6.6.1	mac	2023-06-20	15:06:17	15:23:33	1033406	604ece0ddcb93c1afcda5601	3	1	main_z	11	main_z	91	stimuli_distractor_trianglediamonds.svg	stimuli_target_squaretriangles.svg	11	yes	0	0	2000	0	0			0	0			1				0	
6.6.1	mac	2023-06-20	15:06:17	15:23:33	1033406	604ece0ddcb93c1afcda5601	3	1	main_z	11	advance_on_keypress_ZEE	92	stimuli_distractor_trianglediamonds.svg	stimuli_target_squaretriangles.svg	11	yes	57	0	344	0	0			0	0			1				0	
6.6.1	mac	2023-06-20	15:06:17	15:23:35	1035206	604ece0ddcb93c1afcda5601	3	1	main_z	11	main_z	93	stimuli_distractor_diamondtriangles.svg	stimuli_target_diamondrectangles.svg	31	yes	44	1	831	0	0			0	0			1				0	
6.6.1	mac	2023-06-20	15:06:17	15:23:35	1035206	604ece0ddcb93c1afcda5601	3	1	main_z	11	advance_on_keypress_ZEE	94	stimuli_distractor_diamondtriangles.svg	stimuli_target_diamondrectangles.svg	31	yes	57	0	638	0	0			0	0			1				0	
6.6.1	mac	2023-06-20	15:06:17	15:23:38	1038472	604ece0ddcb93c1afcda5601	3	1	main_z	11	main_z	95	stimuli_distractor_trianglediamonds.svg	stimuli_distractor_trianglediamonds.svg	33	no	0	1	2000	0	0			0	0			1				0	
6.6.1	mac	2023-06-20	15:06:17	15:23:38	1038472	604ece0ddcb93c1afcda5601	3	1	main_z	11	advance_on_keypress_ZEE	96	stimuli_distractor_trianglediamonds.svg	stimuli_distractor_trianglediamonds.svg	33	no	57	0	333	0	0			0	0			1				0	
6.6.1	mac	2023-06-20	15:06:17	15:23:40	1040333	604ece0ddcb93c1afcda5601	3	1	main_z	11	main_z	97	stimuli_target_trianglesquares.svg	stimuli_distractor_trianglediamonds.svg	18	yes	44	1	892	0	0			0	0			1				0	
6.6.1	mac	2023-06-20	15:06:17	15:23:40	1040333	604ece0ddcb93c1afcda5601	3	1	main_z	11	advance_on_keypress_ZEE	98	stimuli_target_trianglesquares.svg	stimuli_distractor_trianglediamonds.svg	18	yes	57	0	651	0	0			0	0			1				0	
6.6.1	mac	2023-06-20	15:06:17	15:23:44	1043606	604ece0ddcb93c1afcda5601	3	1	main_z	11	main_z	99	stimuli_target_rectangletriangles.svg	stimuli_distractor_diamondtriangles.svg	5	yes	0	0	2000	0	0			0	0			1				0	
6.6.1	mac	2023-06-20	15:06:17	15:23:44	1043606	604ece0ddcb93c1afcda5601	3	1	main_z	11	advance_on_keypress_ZEE	100	stimuli_target_rectangletriangles.svg	stimuli_distractor_diamondtriangles.svg	5	yes	57	0	426	0	0			0	0			1				0	
6.6.1	mac	2023-06-20	15:06:17	15:23:45	1045582	604ece0ddcb93c1afcda5601	3	1	main_z	11	main_z	101	stimuli_distractor_diamondtriangles.svg	stimuli_target_trianglesquares.svg	30	yes	44	1	924	0	0			0	0			1				0	
6.6.1	mac	2023-06-20	15:06:17	15:23:45	1045582	604ece0ddcb93c1afcda5601	3	1	main_z	11	advance_on_keypress_ZEE	102	stimuli_distractor_diamondtriangles.svg	stimuli_target_trianglesquares.svg	30	yes	57	0	574	0	0			0	0			1				0	
6.6.1	mac	2023-06-20	15:06:17	15:23:49	1048773	604ece0ddcb93c1afcda5601	3	1	main_z	11	main_z	103	stimuli_distractor_trianglediamonds.svg	stimuli_target_squarediamonds.svg	12	yes	0	0	2000	0	0			0	0			1				0	
6.6.1	mac	2023-06-20	15:06:17	15:23:49	1048773	604ece0ddcb93c1afcda5601	3	1	main_z	11	advance_on_keypress_ZEE	104	stimuli_distractor_trianglediamonds.svg	stimuli_target_squarediamonds.svg	12	yes	57	0	257	0	0			0	0			1				0	
6.6.1	mac	2023-06-20	15:06:17	15:23:50	1050471	604ece0ddcb93c1afcda5601	3	1	main_z	11	main_z	105	stimuli_target_diamondrectangles.svg	stimuli_distractor_diamondtriangles.svg	23	yes	44	1	813	0	0			0	0			1				0	
6.6.1	mac	2023-06-20	15:06:17	15:23:50	1050471	604ece0ddcb93c1afcda5601	3	1	main_z	11	advance_on_keypress_ZEE	106	stimuli_target_diamondrectangles.svg	stimuli_distractor_diamondtriangles.svg	23	yes	57	0	672	0	0			0	0			1				0	
6.6.1	mac	2023-06-20	15:06:17	15:23:52	1052492	604ece0ddcb93c1afcda5601	3	1	main_z	11	main_z	107	stimuli_distractor_trianglediamonds.svg	stimuli_target_trianglesquares.svg	26	yes	44	1	717	0	0			0	0			1				0	
6.6.1	mac	2023-06-20	15:06:17	15:23:52	1052492	604ece0ddcb93c1afcda5601	3	1	main_z	11	advance_on_keypress_ZEE	108	stimuli_distractor_trianglediamonds.svg	stimuli_target_trianglesquares.svg	26	yes	57	0	666	0	0			0	0			1				0	
6.6.1	mac	2023-06-20	15:06:17	15:23:55	1054607	604ece0ddcb93c1afcda5601	3	1	main_z	11	main_z	109	stimuli_distractor_diamondtriangles.svg	stimuli_target_diamondsquares.svg	32	yes	44	1	815	0	0			0	0			1				0	
6.6.1	mac	2023-06-20	15:06:17	15:23:55	1054607	604ece0ddcb93c1afcda5601	3	1	main_z	11	advance_on_keypress_ZEE	110	stimuli_distractor_diamondtriangles.svg	stimuli_target_diamondsquares.svg	32	yes	57	0	719	0	0			0	0			1				0	
6.6.1	mac	2023-06-20	15:06:17	15:23:58	1057956	604ece0ddcb93c1afcda5601	3	1	main_z	11	main_z	111	stimuli_target_rectangletriangles.svg	stimuli_distractor_trianglediamonds.svg	1	yes	0	0	2000	0	0			0	0			1				0	
6.6.1	mac	2023-06-20	15:06:17	15:23:58	1057956	604ece0ddcb93c1afcda5601	3	1	main_z	11	advance_on_keypress_ZEE	112	stimuli_target_rectangletriangles.svg	stimuli_distractor_trianglediamonds.svg	1	yes	57	0	317	0	0			0	0			1				0	
6.6.1	mac	2023-06-20	15:06:17	15:24:00	1059810	604ece0ddcb93c1afcda5601	3	1	main_z	11	main_z	113	stimuli_target_diamondrectangles.svg	stimuli_distractor_trianglediamonds.svg	19	yes	44	1	902	0	0			0	0			1				0	
6.6.1	mac	2023-06-20	15:06:17	15:24:00	1059810	604ece0ddcb93c1afcda5601	3	1	main_z	11	advance_on_keypress_ZEE	114	stimuli_target_diamondrectangles.svg	stimuli_distractor_trianglediamonds.svg	19	yes	57	0	569	0	0			0	0			1				0	
6.6.1	mac	2023-06-20	15:06:17	15:24:03	1063006	604ece0ddcb93c1afcda5601	3	1	main_z	11	main_z	115	stimuli_distractor_diamondtriangles.svg	stimuli_distractor_diamondtriangles.svg	39	no	0	1	2000	0	0			0	0			1				0	
6.6.1	mac	2023-06-20	15:06:17	15:24:03	1063006	604ece0ddcb93c1afcda5601	3	1	main_z	11	advance_on_keypress_ZEE	116	stimuli_distractor_diamondtriangles.svg	stimuli_distractor_diamondtriangles.svg	39	no	57	0	359	0	0			0	0			1				0	
6.6.1	mac	2023-06-20	15:06:17	15:24:05	1064781	604ece0ddcb93c1afcda5601	3	1	main_z	11	main_z	117	stimuli_distractor_diamondtriangles.svg	stimuli_target_trianglerectangles.svg	29	yes	44	1	790	0	0			0	0			1				0	
6.6.1	mac	2023-06-20	15:06:17	15:24:05	1064781	604ece0ddcb93c1afcda5601	3	1	main_z	11	advance_on_keypress_ZEE	118	stimuli_distractor_diamondtriangles.svg	stimuli_target_trianglerectangles.svg	29	yes	57	0	539	0	0			0	0			1				0	
6.6.1	mac	2023-06-20	15:06:17	15:24:08	1067939	604ece0ddcb93c1afcda5601	3	1	main_z	11	main_z	119	stimuli_distractor_diamondtriangles.svg	stimuli_distractor_trianglediamonds.svg	37	no	0	1	2000	0	0			0	0			1				0	
6.6.1	mac	2023-06-20	15:06:17	15:24:08	1067939	604ece0ddcb93c1afcda5601	3	1	main_z	11	advance_on_keypress_ZEE	120	stimuli_distractor_diamondtriangles.svg	stimuli_distractor_trianglediamonds.svg	37	no	57	0	157	0	0			0	0			1				0	
6.6.1	mac	2023-06-20	15:06:17	15:24:11	1070722	604ece0ddcb93c1afcda5601	3	1	main_z	11	main_z	121	stimuli_target_squarediamonds.svg	stimuli_distractor_trianglediamonds.svg	4	yes	0	0	2000	0	0			0	0			1				0	
6.6.1	mac	2023-06-20	15:06:17	15:24:11	1070722	604ece0ddcb93c1afcda5601	3	1	main_z	11	advance_on_keypress_ZEE	122	stimuli_target_squarediamonds.svg	stimuli_distractor_trianglediamonds.svg	4	yes	57	0	192	0	0			0	0			1				0	
6.6.1	mac	2023-06-20	15:06:17	15:24:12	1072225	604ece0ddcb93c1afcda5601	3	1	main_z	11	main_z	123	stimuli_distractor_trianglediamonds.svg	stimuli_target_diamondsquares.svg	28	yes	44	1	683	0	0			0	0			1				0	
6.6.1	mac	2023-06-20	15:06:17	15:24:12	1072225	604ece0ddcb93c1afcda5601	3	1	main_z	11	advance_on_keypress_ZEE	124	stimuli_distractor_trianglediamonds.svg	stimuli_target_diamondsquares.svg	28	yes	57	0	576	0	0			0	0			1				0	
6.6.1	mac	2023-06-20	15:06:17	15:24:15	1075423	604ece0ddcb93c1afcda5601	3	1	main_z	11	main_z	125	stimuli_distractor_trianglediamonds.svg	stimuli_target_rectangletriangles.svg	9	yes	0	0	2000	0	0			0	0			1				0	
6.6.1	mac	2023-06-20	15:06:17	15:24:15	1075423	604ece0ddcb93c1afcda5601	3	1	main_z	11	advance_on_keypress_ZEE	126	stimuli_distractor_trianglediamonds.svg	stimuli_target_rectangletriangles.svg	9	yes	57	0	390	0	0			0	0			1				0	
6.6.1	mac	2023-06-20	15:06:17	15:24:18	1077829	604ece0ddcb93c1afcda5601	3	1	main_z	11	main_z	127	stimuli_distractor_diamondtriangles.svg	stimuli_target_rectanglediamonds.svg	14	yes	44	1	1388	0	0			0	0			1				0	
6.6.1	mac	2023-06-20	15:06:17	15:24:18	1077829	604ece0ddcb93c1afcda5601	3	1	main_z	11	advance_on_keypress_ZEE	128	stimuli_distractor_diamondtriangles.svg	stimuli_target_rectanglediamonds.svg	14	yes	57	0	526	0	0			0	0			1				0	
6.6.1	mac	2023-06-20	15:06:17	15:24:20	1079779	604ece0ddcb93c1afcda5601	3	1	main_z	11	main_z	129	stimuli_distractor_trianglediamonds.svg	stimuli_target_diamondrectangles.svg	27	yes	44	1	803	0	0			0	0			1				0	
6.6.1	mac	2023-06-20	15:06:17	15:24:20	1079779	604ece0ddcb93c1afcda5601	3	1	main_z	11	advance_on_keypress_ZEE	130	stimuli_distractor_trianglediamonds.svg	stimuli_target_diamondrectangles.svg	27	yes	57	0	569	0	0			0	0			1				0	
6.6.1	mac	2023-06-20	15:06:17	15:24:22	1082176	604ece0ddcb93c1afcda5601	3	1	main_z	11	main_z	131	stimuli_target_trianglerectangles.svg	stimuli_distractor_diamondtriangles.svg	21	yes	44	1	1201	0	0			0	0			1				0	
6.6.1	mac	2023-06-20	15:06:17	15:24:22	1082176	604ece0ddcb93c1afcda5601	3	1	main_z	11	advance_on_keypress_ZEE	132	stimuli_target_trianglerectangles.svg	stimuli_distractor_diamondtriangles.svg	21	yes	57	0	572	0	0			0	0			1				0	
6.6.1	mac	2023-06-20	15:06:17	15:24:25	1085372	604ece0ddcb93c1afcda5601	3	1	main_z	11	main_z	133	stimuli_distractor_diamondtriangles.svg	stimuli_target_rectangletriangles.svg	13	yes	0	0	2000	0	0			0	0			1				0	
6.6.1	mac	2023-06-20	15:06:17	15:24:25	1085372	604ece0ddcb93c1afcda5601	3	1	main_z	11	advance_on_keypress_ZEE	134	stimuli_distractor_diamondtriangles.svg	stimuli_target_rectangletriangles.svg	13	yes	57	0	548	0	0			0	0			1				0	
6.6.1	mac	2023-06-20	15:06:17	15:24:28	1088556	604ece0ddcb93c1afcda5601	3	1	main_z	11	main_z	135	stimuli_distractor_trianglediamonds.svg	stimuli_distractor_diamondtriangles.svg	36	no	0	1	2000	0	0			0	0			1				0	
6.6.1	mac	2023-06-20	15:06:17	15:24:28	1088556	604ece0ddcb93c1afcda5601	3	1	main_z	11	advance_on_keypress_ZEE	136	stimuli_distractor_trianglediamonds.svg	stimuli_distractor_diamondtriangles.svg	36	no	57	0	384	0	0			0	0			1				0	
6.6.1	mac	2023-06-20	15:06:17	15:24:31	1090831	604ece0ddcb93c1afcda5601	3	1	main_z	11	main_z	137	stimuli_target_rectanglediamonds.svg	stimuli_distractor_diamondtriangles.svg	6	yes	44	1	1251	0	0			0	0			1				0	
6.6.1	mac	2023-06-20	15:06:17	15:24:31	1090831	604ece0ddcb93c1afcda5601	3	1	main_z	11	advance_on_keypress_ZEE	138	stimuli_target_rectanglediamonds.svg	stimuli_distractor_diamondtriangles.svg	6	yes	57	0	460	0	0			0	0			1				0	
6.6.1	mac	2023-06-20	15:06:17	15:24:32	1092572	604ece0ddcb93c1afcda5601	3	1	main_z	11	main_z	139	stimuli_target_diamondsquares.svg	stimuli_distractor_diamondtriangles.svg	24	yes	44	1	647	0	0			0	0			1				0	
6.6.1	mac	2023-06-20	15:06:17	15:24:32	1092572	604ece0ddcb93c1afcda5601	3	1	main_z	11	advance_on_keypress_ZEE	140	stimuli_target_diamondsquares.svg	stimuli_distractor_diamondtriangles.svg	24	yes	57	0	584	0	0			0	0			1				0	
6.6.1	mac	2023-06-20	15:06:17	15:24:36	1095790	604ece0ddcb93c1afcda5601	3	1	main_z	11	main_z	141	stimuli_distractor_diamondtriangles.svg	stimuli_distractor_diamondtriangles.svg	40	no	0	1	2000	0	0			0	0			1				0	
6.6.1	mac	2023-06-20	15:06:17	15:24:36	1095790	604ece0ddcb93c1afcda5601	3	1	main_z	11	advance_on_keypress_ZEE	142	stimuli_distractor_diamondtriangles.svg	stimuli_distractor_diamondtriangles.svg	40	no	57	0	142	0	0			0	0			1				0	
6.6.1	mac	2023-06-20	15:06:17	15:24:37	1097454	604ece0ddcb93c1afcda5601	3	1	main_z	11	main_z	143	stimuli_target_trianglerectangles.svg	stimuli_distractor_trianglediamonds.svg	17	yes	44	1	896	0	0			0	0			1				0	
6.6.1	mac	2023-06-20	15:06:17	15:24:37	1097454	604ece0ddcb93c1afcda5601	3	1	main_z	11	advance_on_keypress_ZEE	144	stimuli_target_trianglerectangles.svg	stimuli_distractor_trianglediamonds.svg	17	yes	57	0	999	0	0			0	0			1				0	
6.6.1	mac	2023-06-20	15:06:17	15:24:40	1099956	604ece0ddcb93c1afcda5601	3	1	main_z	11	main_z	145	stimuli_distractor_diamondtriangles.svg	stimuli_target_squarediamonds.svg	16	yes	44	1	865	0	0			0	0			1				0	
6.6.1	mac	2023-06-20	15:06:17	15:24:40	1099956	604ece0ddcb93c1afcda5601	3	1	main_z	11	advance_on_keypress_ZEE	146	stimuli_distractor_diamondtriangles.svg	stimuli_target_squarediamonds.svg	16	yes	57	0	635	0	0			0	0			1				0	
6.6.1	mac	2023-06-20	15:06:17	15:24:43	1103222	604ece0ddcb93c1afcda5601	3	1	main_z	11	main_z	147	stimuli_distractor_diamondtriangles.svg	stimuli_target_squaretriangles.svg	15	yes	0	0	2000	0	0			0	0			1				0	
6.6.1	mac	2023-06-20	15:06:17	15:24:43	1103222	604ece0ddcb93c1afcda5601	3	1	main_z	11	advance_on_keypress_ZEE	148	stimuli_distractor_diamondtriangles.svg	stimuli_target_squaretriangles.svg	15	yes	57	0	221	0	0			0	0			1				0	
6.6.1	mac	2023-06-20	15:06:17	15:24:45	1104950	604ece0ddcb93c1afcda5601	3	1	main_z	11	main_z	149	stimuli_target_diamondsquares.svg	stimuli_distractor_trianglediamonds.svg	20	yes	44	1	875	0	0			0	0			1				0	
6.6.1	mac	2023-06-20	15:06:17	15:24:45	1104950	604ece0ddcb93c1afcda5601	3	1	main_z	11	advance_on_keypress_ZEE	150	stimuli_target_diamondsquares.svg	stimuli_distractor_trianglediamonds.svg	20	yes	57	0	626	0	0			0	0			1				0	
6.6.1	mac	2023-06-20	15:06:17	15:24:47	1107437	604ece0ddcb93c1afcda5601	3	1	main_z	11	main_z	151	stimuli_target_squaretriangles.svg	stimuli_distractor_diamondtriangles.svg	7	yes	44	1	1246	0	0			0	0			1				0	
6.6.1	mac	2023-06-20	15:06:17	15:24:47	1107437	604ece0ddcb93c1afcda5601	3	1	main_z	11	advance_on_keypress_ZEE	152	stimuli_target_squaretriangles.svg	stimuli_distractor_diamondtriangles.svg	7	yes	57	0	345	0	0			0	0			1				0	
6.6.1	mac	2023-06-20	15:06:17	15:24:50	1110406	604ece0ddcb93c1afcda5601	3	1	main_z	11	main_z	153	stimuli_distractor_trianglediamonds.svg	stimuli_distractor_diamondtriangles.svg	35	no	0	1	2000	0	0			0	0			1				0	
6.6.1	mac	2023-06-20	15:06:17	15:24:50	1110406	604ece0ddcb93c1afcda5601	3	1	main_z	11	advance_on_keypress_ZEE	154	stimuli_distractor_trianglediamonds.svg	stimuli_distractor_diamondtriangles.svg	35	no	57	0	197	0	0			0	0			1				0	
6.6.1	mac	2023-06-20	15:06:17	15:24:53	1113241	604ece0ddcb93c1afcda5601	3	1	main_z	11	main_z	155	stimuli_distractor_trianglediamonds.svg	stimuli_distractor_trianglediamonds.svg	34	no	0	1	2000	0	0			0	0			1				0	
6.6.1	mac	2023-06-20	15:06:17	15:24:53	1113241	604ece0ddcb93c1afcda5601	3	1	main_z	11	advance_on_keypress_ZEE	156	stimuli_distractor_trianglediamonds.svg	stimuli_distractor_trianglediamonds.svg	34	no	57	0	729	0	0			0	0			1				0	
6.6.1	mac	2023-06-20	15:06:17	15:24:56	1115658	604ece0ddcb93c1afcda5601	3	1	main_z	11	main_z	157	stimuli_target_rectanglediamonds.svg	stimuli_distractor_trianglediamonds.svg	2	yes	44	1	1050	0	0			0	0			1				0	
6.6.1	mac	2023-06-20	15:06:17	15:24:56	1115658	604ece0ddcb93c1afcda5601	3	1	main_z	11	advance_on_keypress_ZEE	158	stimuli_target_rectanglediamonds.svg	stimuli_distractor_trianglediamonds.svg	2	yes	57	0	43175	0	0			0	0			1				0	
6.6.1	mac	2023-06-20	15:06:17	15:25:40	1160148	604ece0ddcb93c1afcda5601	3	1	main_z	11	main_z	159	stimuli_target_trianglesquares.svg	stimuli_distractor_diamondtriangles.svg	22	yes	44	1	673	0	0			0	0			1				0	
6.6.1	mac	2023-06-20	15:06:17	15:25:40	1160148	604ece0ddcb93c1afcda5601	3	1	main_z	11	advance_on_keypress_ZEE	160	stimuli_target_trianglesquares.svg	stimuli_distractor_diamondtriangles.svg	22	yes	57	0	526	0	0			0	0			1				0	
6.6.1	mac	2023-06-20	15:06:17	15:25:40	1160148	604ece0ddcb93c1afcda5601	3	1	headphonecheck_calibration	14	headphonecheck_calibrationIntro	1	stimuli_target_trianglesquares.svg	stimuli_distractor_diamondtriangles.svg	22	yes	calibrationButton	0	4962	0	0			0	0			1				0	
6.6.1	mac	2023-06-20	15:06:17	15:25:40	1160148	604ece0ddcb93c1afcda5601	3	1	headphonecheck_testphase	15	test_collectResponse	3	stimuli_target_trianglesquares.svg	stimuli_distractor_diamondtriangles.svg	22	yes	second	1	7785	1	5	antiphase_hc_osi.wav	2	0	0			1				0	
6.6.1	mac	2023-06-20	15:06:17	15:25:40	1160148	604ece0ddcb93c1afcda5601	3	1	headphonecheck_testphase	15	test_collectResponse	6	stimuli_target_trianglesquares.svg	stimuli_distractor_diamondtriangles.svg	22	yes	third	1	1475	2	2	antiphase_hc_ios.wav	3	0	0			1				0	
6.6.1	mac	2023-06-20	15:06:17	15:25:40	1160148	604ece0ddcb93c1afcda5601	3	1	headphonecheck_testphase	15	test_collectResponse	9	stimuli_target_trianglesquares.svg	stimuli_distractor_diamondtriangles.svg	22	yes	second	1	765	3	1	antiphase_hc_iso.wav	2	0	0			1				0	
6.6.1	mac	2023-06-20	15:06:17	15:25:40	1160148	604ece0ddcb93c1afcda5601	3	1	headphonecheck_testphase	15	test_collectResponse	12	stimuli_target_trianglesquares.svg	stimuli_distractor_diamondtriangles.svg	22	yes	third	1	548	4	6	antiphase_hc_ois.wav	3	0	0			1				0	
6.6.1	mac	2023-06-20	15:06:17	15:25:40	1160148	604ece0ddcb93c1afcda5601	3	1	headphonecheck_testphase	15	test_collectResponse	15	stimuli_target_trianglesquares.svg	stimuli_distractor_diamondtriangles.svg	22	yes	first	1	450	5	3	antiphase_hc_soi.wav	1	0	0			1				0	
6.6.1	mac	2023-06-20	15:06:17	15:25:40	1160148	604ece0ddcb93c1afcda5601	3	1	headphonecheck_testphase	15	test_collectResponse	18	stimuli_target_trianglesquares.svg	stimuli_distractor_diamondtriangles.svg	22	yes	first	1	334	6	4	antiphase_hc_sio.wav	1	0	0			1				0	
6.6.1	mac	2023-06-20	15:06:17	15:25:40	1160148	604ece0ddcb93c1afcda5601	3	1	stereocheck_calibration	17	stereocheck_calibrationIntro	1	stimuli_target_trianglesquares.svg	stimuli_distractor_diamondtriangles.svg	22	yes	stereocheck_calibrationButton	0	5634	6	4	antiphase_hc_sio.wav	1	0	0			1				0	
6.6.1	mac	2023-06-20	15:06:17	15:25:40	1160148	604ece0ddcb93c1afcda5601	3	1	stereocheck_testphase	18	stereocheck_test_collectResponse	3	stimuli_target_trianglesquares.svg	stimuli_distractor_diamondtriangles.svg	22	yes	stereocheck_right	1	617	6	4	antiphase_hc_sio.wav	1	1	5	noise_calib_stim_RIGHT.wav	2	1				0	
6.6.1	mac	2023-06-20	15:06:17	15:25:40	1160148	604ece0ddcb93c1afcda5601	3	1	stereocheck_testphase	18	stereocheck_test_collectResponse	6	stimuli_target_trianglesquares.svg	stimuli_distractor_diamondtriangles.svg	22	yes	stereocheck_left	1	673	6	4	antiphase_hc_sio.wav	1	2	2	noise_calib_stim_LEFT.wav	1	1				0	
6.6.1	mac	2023-06-20	15:06:17	15:25:40	1160148	604ece0ddcb93c1afcda5601	3	1	stereocheck_testphase	18	stereocheck_test_collectResponse	9	stimuli_target_trianglesquares.svg	stimuli_distractor_diamondtriangles.svg	22	yes	stereocheck_left	1	419	6	4	antiphase_hc_sio.wav	1	3	3	noise_calib_stim_LEFT.wav	1	1				0	
6.6.1	mac	2023-06-20	15:06:17	15:25:40	1160148	604ece0ddcb93c1afcda5601	3	1	stereocheck_testphase	18	stereocheck_test_collectResponse	12	stimuli_target_trianglesquares.svg	stimuli_distractor_diamondtriangles.svg	22	yes	stereocheck_left	1	364	6	4	antiphase_hc_sio.wav	1	4	1	noise_calib_stim_LEFT.wav	1	1				0	
6.6.1	mac	2023-06-20	15:06:17	15:25:40	1160148	604ece0ddcb93c1afcda5601	3	1	stereocheck_testphase	18	stereocheck_test_collectResponse	15	stimuli_target_trianglesquares.svg	stimuli_distractor_diamondtriangles.svg	22	yes	stereocheck_right	1	407	6	4	antiphase_hc_sio.wav	1	5	4	noise_calib_stim_RIGHT.wav	2	1				0	
6.6.1	mac	2023-06-20	15:06:17	15:25:40	1160148	604ece0ddcb93c1afcda5601	3	1	stereocheck_testphase	18	stereocheck_test_collectResponse	18	stimuli_target_trianglesquares.svg	stimuli_distractor_diamondtriangles.svg	22	yes	stereocheck_right	1	1510	6	4	antiphase_hc_sio.wav	1	6	6	noise_calib_stim_RIGHT.wav	2	1				0	
6.6.1	mac	2023-06-20	15:06:17	15:25:40	1160148	604ece0ddcb93c1afcda5601	3	1	DL_practice	21	DL_practice	2	stimuli_target_trianglesquares.svg	stimuli_distractor_diamondtriangles.svg	22	yes	da	0	1608	6	4	antiphase_hc_sio.wav	1	6	6	noise_calib_stim_RIGHT.wav	2	15	blb_dichoticlistening_ga-ga.mp3	ga	ga	0	other
6.6.1	mac	2023-06-20	15:06:17	15:25:40	1160148	604ece0ddcb93c1afcda5601	3	1	DL_practice	21	DL_practice	3	stimuli_target_trianglesquares.svg	stimuli_distractor_diamondtriangles.svg	22	yes	pa	1	2144	6	4	antiphase_hc_sio.wav	1	6	6	noise_calib_stim_RIGHT.wav	2	29	blb_dichoticlistening_pa-pa.mp3	pa	pa	0	left
6.6.1	mac	2023-06-20	15:06:17	15:25:40	1160148	604ece0ddcb93c1afcda5601	3	1	DL_practice	21	DL_practice	4	stimuli_target_trianglesquares.svg	stimuli_distractor_diamondtriangles.svg	22	yes	ka	1	1152	6	4	antiphase_hc_sio.wav	1	6	6	noise_calib_stim_RIGHT.wav	2	22	blb_dichoticlistening_ka-ka.mp3	ka	ka	0	left
6.6.1	mac	2023-06-20	15:06:17	15:25:40	1160148	604ece0ddcb93c1afcda5601	3	1	DL_practice	21	DL_practice	5	stimuli_target_trianglesquares.svg	stimuli_distractor_diamondtriangles.svg	22	yes	ta	1	2980	6	4	antiphase_hc_sio.wav	1	6	6	noise_calib_stim_RIGHT.wav	2	18	blb_dichoticlistening_ga-ta.mp3	ga	ta	1	right
6.6.1	mac	2023-06-20	15:06:17	15:25:40	1160148	604ece0ddcb93c1afcda5601	3	1	DL_practice	21	DL_practice	6	stimuli_target_trianglesquares.svg	stimuli_distractor_diamondtriangles.svg	22	yes	ba	1	3262	6	4	antiphase_hc_sio.wav	1	6	6	noise_calib_stim_RIGHT.wav	2	7	blb_dichoticlistening_da-ba.mp3	da	ba	1	right
6.6.1	mac	2023-06-20	15:06:17	15:25:40	1160148	604ece0ddcb93c1afcda5601	3	1	DL_practice	21	DL_practice	7	stimuli_target_trianglesquares.svg	stimuli_distractor_diamondtriangles.svg	22	yes	ba	1	2995	6	4	antiphase_hc_sio.wav	1	6	6	noise_calib_stim_RIGHT.wav	2	1	blb_dichoticlistening_ba-ba.mp3	ba	ba	0	left
6.6.1	mac	2023-06-20	15:06:17	15:25:40	1160148	604ece0ddcb93c1afcda5601	3	1	DL_practice	21	DL_practice	8	stimuli_target_trianglesquares.svg	stimuli_distractor_diamondtriangles.svg	22	yes	da	1	1835	6	4	antiphase_hc_sio.wav	1	6	6	noise_calib_stim_RIGHT.wav	2	8	blb_dichoticlistening_da-da.mp3	da	da	0	left
6.6.1	mac	2023-06-20	15:06:17	15:25:40	1160148	604ece0ddcb93c1afcda5601	3	1	DL_practice	21	DL_practice	9	stimuli_target_trianglesquares.svg	stimuli_distractor_diamondtriangles.svg	22	yes	pa	1	1690	6	4	antiphase_hc_sio.wav	1	6	6	noise_calib_stim_RIGHT.wav	2	23	blb_dichoticlistening_ka-pa.mp3	ka	pa	1	right
6.6.1	mac	2023-06-20	15:06:17	15:25:40	1160148	604ece0ddcb93c1afcda5601	3	1	DL_practice	21	DL_practice	10	stimuli_target_trianglesquares.svg	stimuli_distractor_diamondtriangles.svg	22	yes	ta	1	1844	6	4	antiphase_hc_sio.wav	1	6	6	noise_calib_stim_RIGHT.wav	2	36	blb_dichoticlistening_ta-ta.mp3	ta	ta	0	left
6.6.1	mac	2023-06-20	15:06:17	15:25:40	1160148	604ece0ddcb93c1afcda5601	3	1	DL_test	23	DL_test	1	stimuli_target_trianglesquares.svg	stimuli_distractor_diamondtriangles.svg	22	yes	pa	1	2664	6	4	antiphase_hc_sio.wav	1	6	6	noise_calib_stim_RIGHT.wav	2	29	blb_dichoticlistening_pa-pa.mp3	pa	pa	0	left
6.6.1	mac	2023-06-20	15:06:17	15:25:40	1160148	604ece0ddcb93c1afcda5601	3	1	DL_test	23	DL_test	2	stimuli_target_trianglesquares.svg	stimuli_distractor_diamondtriangles.svg	22	yes	ta	1	2470	6	4	antiphase_hc_sio.wav	1	6	6	noise_calib_stim_RIGHT.wav	2	34	blb_dichoticlistening_ta-ka.mp3	ta	ka	1	left
6.6.1	mac	2023-06-20	15:06:17	15:25:40	1160148	604ece0ddcb93c1afcda5601	3	1	DL_test	23	DL_test	3	stimuli_target_trianglesquares.svg	stimuli_distractor_diamondtriangles.svg	22	yes	ba	1	1979	6	4	antiphase_hc_sio.wav	1	6	6	noise_calib_stim_RIGHT.wav	2	7	blb_dichoticlistening_da-ba.mp3	da	ba	1	right
6.6.1	mac	2023-06-20	15:06:17	15:25:40	1160148	604ece0ddcb93c1afcda5601	3	1	DL_test	23	DL_test	4	stimuli_target_trianglesquares.svg	stimuli_distractor_diamondtriangles.svg	22	yes	pa	0	2796	6	4	antiphase_hc_sio.wav	1	6	6	noise_calib_stim_RIGHT.wav	2	31	blb_dichoticlistening_ta-ba.mp3	ta	ba	1	other
6.6.1	mac	2023-06-20	15:06:17	15:25:40	1160148	604ece0ddcb93c1afcda5601	3	1	DL_test	23	DL_test	5	stimuli_target_trianglesquares.svg	stimuli_distractor_diamondtriangles.svg	22	yes	pa	1	1547	6	4	antiphase_hc_sio.wav	1	6	6	noise_calib_stim_RIGHT.wav	2	30	blb_dichoticlistening_pa-ta.mp3	pa	ta	1	left
6.6.1	mac	2023-06-20	15:06:17	15:25:40	1160148	604ece0ddcb93c1afcda5601	3	1	DL_test	23	DL_test	6	stimuli_target_trianglesquares.svg	stimuli_distractor_diamondtriangles.svg	22	yes	ka	1	1876	6	4	antiphase_hc_sio.wav	1	6	6	noise_calib_stim_RIGHT.wav	2	4	blb_dichoticlistening_ba-ka.mp3	ba	ka	1	right
6.6.1	mac	2023-06-20	15:06:17	15:25:40	1160148	604ece0ddcb93c1afcda5601	3	1	DL_test	23	DL_test	7	stimuli_target_trianglesquares.svg	stimuli_distractor_diamondtriangles.svg	22	yes	da	1	1512	6	4	antiphase_hc_sio.wav	1	6	6	noise_calib_stim_RIGHT.wav	2	14	blb_dichoticlistening_ga-da.mp3	ga	da	1	right
6.6.1	mac	2023-06-20	15:06:17	15:25:40	1160148	604ece0ddcb93c1afcda5601	3	1	DL_test	23	DL_test	8	stimuli_target_trianglesquares.svg	stimuli_distractor_diamondtriangles.svg	22	yes	pa	1	1489	6	4	antiphase_hc_sio.wav	1	6	6	noise_calib_stim_RIGHT.wav	2	17	blb_dichoticlistening_ga-pa.mp3	ga	pa	1	right
6.6.1	mac	2023-06-20	15:06:17	15:25:40	1160148	604ece0ddcb93c1afcda5601	3	1	DL_test	23	DL_test	9	stimuli_target_trianglesquares.svg	stimuli_distractor_diamondtriangles.svg	22	yes	da	1	1813	6	4	antiphase_hc_sio.wav	1	6	6	noise_calib_stim_RIGHT.wav	2	8	blb_dichoticlistening_da-da.mp3	da	da	0	left
6.6.1	mac	2023-06-20	15:06:17	15:25:40	1160148	604ece0ddcb93c1afcda5601	3	1	DL_test	23	DL_test	10	stimuli_target_trianglesquares.svg	stimuli_distractor_diamondtriangles.svg	22	yes	pa	1	1467	6	4	antiphase_hc_sio.wav	1	6	6	noise_calib_stim_RIGHT.wav	2	28	blb_dichoticlistening_pa-ka.mp3	pa	ka	1	left
6.6.1	mac	2023-06-20	15:06:17	15:25:40	1160148	604ece0ddcb93c1afcda5601	3	1	DL_test	23	DL_test	11	stimuli_target_trianglesquares.svg	stimuli_distractor_diamondtriangles.svg	22	yes	pa	0	1214	6	4	antiphase_hc_sio.wav	1	6	6	noise_calib_stim_RIGHT.wav	2	6	blb_dichoticlistening_ba-ta.mp3	ba	ta	1	other
6.6.1	mac	2023-06-20	15:06:17	15:25:40	1160148	604ece0ddcb93c1afcda5601	3	1	DL_test	23	DL_test	12	stimuli_target_trianglesquares.svg	stimuli_distractor_diamondtriangles.svg	22	yes	ta	0	1829	6	4	antiphase_hc_sio.wav	1	6	6	noise_calib_stim_RIGHT.wav	2	20	blb_dichoticlistening_ka-da.mp3	ka	da	1	other
6.6.1	mac	2023-06-20	15:06:17	15:25:40	1160148	604ece0ddcb93c1afcda5601	3	1	DL_test	23	DL_test	13	stimuli_target_trianglesquares.svg	stimuli_distractor_diamondtriangles.svg	22	yes	ta	0	3639	6	4	antiphase_hc_sio.wav	1	6	6	noise_calib_stim_RIGHT.wav	2	19	blb_dichoticlistening_ka-ba.mp3	ka	ba	1	other
6.6.1	mac	2023-06-20	15:06:17	15:25:40	1160148	604ece0ddcb93c1afcda5601	3	1	DL_test	23	DL_test	14	stimuli_target_trianglesquares.svg	stimuli_distractor_diamondtriangles.svg	22	yes	pa	0	3206	6	4	antiphase_hc_sio.wav	1	6	6	noise_calib_stim_RIGHT.wav	2	24	blb_dichoticlistening_ka-ta.mp3	ka	ta	1	other
6.6.1	mac	2023-06-20	15:06:17	15:25:40	1160148	604ece0ddcb93c1afcda5601	3	1	DL_test	23	DL_test	15	stimuli_target_trianglesquares.svg	stimuli_distractor_diamondtriangles.svg	22	yes	ba	1	1933	6	4	antiphase_hc_sio.wav	1	6	6	noise_calib_stim_RIGHT.wav	2	1	blb_dichoticlistening_ba-ba.mp3	ba	ba	0	left
6.6.1	mac	2023-06-20	15:06:17	15:25:40	1160148	604ece0ddcb93c1afcda5601	3	1	DL_test	23	DL_test	16	stimuli_target_trianglesquares.svg	stimuli_distractor_diamondtriangles.svg	22	yes	pa	1	2985	6	4	antiphase_hc_sio.wav	1	6	6	noise_calib_stim_RIGHT.wav	2	25	blb_dichoticlistening_pa-ba.mp3	pa	ba	1	left
6.6.1	mac	2023-06-20	15:06:17	15:25:40	1160148	604ece0ddcb93c1afcda5601	3	1	DL_test	23	DL_test	17	stimuli_target_trianglesquares.svg	stimuli_distractor_diamondtriangles.svg	22	yes	ga	1	2843	6	4	antiphase_hc_sio.wav	1	6	6	noise_calib_stim_RIGHT.wav	2	27	blb_dichoticlistening_pa-ga.mp3	pa	ga	1	right
6.6.1	mac	2023-06-20	15:06:17	15:25:40	1160148	604ece0ddcb93c1afcda5601	3	1	DL_test	23	DL_test	18	stimuli_target_trianglesquares.svg	stimuli_distractor_diamondtriangles.svg	22	yes	ta	1	3724	6	4	antiphase_hc_sio.wav	1	6	6	noise_calib_stim_RIGHT.wav	2	33	blb_dichoticlistening_ta-ga.mp3	ta	ga	1	left
6.6.1	mac	2023-06-20	15:06:17	15:25:40	1160148	604ece0ddcb93c1afcda5601	3	1	DL_test	23	DL_test	19	stimuli_target_trianglesquares.svg	stimuli_distractor_diamondtriangles.svg	22	yes	pa	1	2470	6	4	antiphase_hc_sio.wav	1	6	6	noise_calib_stim_RIGHT.wav	2	26	blb_dichoticlistening_pa-da.mp3	pa	da	1	left
6.6.1	mac	2023-06-20	15:06:17	15:25:40	1160148	604ece0ddcb93c1afcda5601	3	1	DL_test	23	DL_test	20	stimuli_target_trianglesquares.svg	stimuli_distractor_diamondtriangles.svg	22	yes	ta	1	1946	6	4	antiphase_hc_sio.wav	1	6	6	noise_calib_stim_RIGHT.wav	2	36	blb_dichoticlistening_ta-ta.mp3	ta	ta	0	left
6.6.1	mac	2023-06-20	15:06:17	15:25:40	1160148	604ece0ddcb93c1afcda5601	3	1	DL_test	23	DL_test	21	stimuli_target_trianglesquares.svg	stimuli_distractor_diamondtriangles.svg	22	yes	da	0	2205	6	4	antiphase_hc_sio.wav	1	6	6	noise_calib_stim_RIGHT.wav	2	3	blb_dichoticlistening_ba-ga.mp3	ba	ga	1	other
6.6.1	mac	2023-06-20	15:06:17	15:25:40	1160148	604ece0ddcb93c1afcda5601	3	1	DL_test	23	DL_test	22	stimuli_target_trianglesquares.svg	stimuli_distractor_diamondtriangles.svg	22	yes	pa	1	2020	6	4	antiphase_hc_sio.wav	1	6	6	noise_calib_stim_RIGHT.wav	2	11	blb_dichoticlistening_da-pa.mp3	da	pa	1	right
6.6.1	mac	2023-06-20	15:06:17	15:25:40	1160148	604ece0ddcb93c1afcda5601	3	1	DL_test	23	DL_test	23	stimuli_target_trianglesquares.svg	stimuli_distractor_diamondtriangles.svg	22	yes	da	1	1858	6	4	antiphase_hc_sio.wav	1	6	6	noise_calib_stim_RIGHT.wav	2	2	blb_dichoticlistening_ba-da.mp3	ba	da	1	right
6.6.1	mac	2023-06-20	15:06:17	15:25:40	1160148	604ece0ddcb93c1afcda5601	3	1	DL_test	23	DL_test	24	stimuli_target_trianglesquares.svg	stimuli_distractor_diamondtriangles.svg	22	yes	ta	1	2280	6	4	antiphase_hc_sio.wav	1	6	6	noise_calib_stim_RIGHT.wav	2	12	blb_dichoticlistening_da-ta.mp3	da	ta	1	right
6.6.1	mac	2023-06-20	15:06:17	15:25:40	1160148	604ece0ddcb93c1afcda5601	3	1	DL_test	23	DL_test	25	stimuli_target_trianglesquares.svg	stimuli_distractor_diamondtriangles.svg	22	yes	ga	1	2165	6	4	antiphase_hc_sio.wav	1	6	6	noise_calib_stim_RIGHT.wav	2	9	blb_dichoticlistening_da-ga.mp3	da	ga	1	right
