build	computer.platform	date	time	timestamp	time_elapsed_ms	subject	group	session	blockcode	blocknum	trialcode	trialnum	stimulus_left	stimulus_right	stim_index	target_present	response	correct	latency	headphonecheck_countTestTrials	headphonecheck_index	headphonecheck_testSound	headphonecheck_correctResponse	stereocheck_countTestTrials	stereocheck_index	stereocheck_testSound	stereocheck_correctResponse	DL_index	DL_soundfile	DL_leftSound	DL_rightSound	DL_dualSound	DL_choice
6.6.1	win	2023-06-02	00:20:07	00:24:04	234671	5de8bc74553cee8280a7dd84	4	1	practice_z	5	practice_z	1	stimuli_target_diamondsquares.svg	stimuli_distractor_trianglediamonds.svg	6	yes	44	1	925	0	0			0	0			1				0	
6.6.1	win	2023-06-02	00:20:07	00:24:04	234671	5de8bc74553cee8280a7dd84	4	1	practice_z	5	advance_on_keypress_ZEE	2	stimuli_target_diamondsquares.svg	stimuli_distractor_trianglediamonds.svg	6	yes	57	0	1023	0	0			0	0			1				0	
6.6.1	win	2023-06-02	00:20:07	00:24:08	238644	5de8bc74553cee8280a7dd84	4	1	practice_z	5	practice_z	3	stimuli_distractor_diamondtriangles.svg	stimuli_target_trianglerectangles.svg	9	yes	44	1	1292	0	0			0	0			1				0	
6.6.1	win	2023-06-02	00:20:07	00:24:08	238644	5de8bc74553cee8280a7dd84	4	1	practice_z	5	advance_on_keypress_ZEE	4	stimuli_distractor_diamondtriangles.svg	stimuli_target_trianglerectangles.svg	9	yes	57	0	776	0	0			0	0			1				0	
6.6.1	win	2023-06-02	00:20:07	00:24:12	242276	5de8bc74553cee8280a7dd84	4	1	practice_z	5	practice_z	5	stimuli_distractor_diamondtriangles.svg	stimuli_target_rectangletriangles.svg	7	yes	44	1	1224	0	0			0	0			1				0	
6.6.1	win	2023-06-02	00:20:07	00:24:12	242276	5de8bc74553cee8280a7dd84	4	1	practice_z	5	advance_on_keypress_ZEE	6	stimuli_distractor_diamondtriangles.svg	stimuli_target_rectangletriangles.svg	7	yes	57	0	887	0	0			0	0			1				0	
6.6.1	win	2023-06-02	00:20:07	00:24:16	246802	5de8bc74553cee8280a7dd84	4	1	practice_z	5	practice_z	7	stimuli_distractor_diamondtriangles.svg	stimuli_distractor_trianglediamonds.svg	14	no	0	1	2000	0	0			0	0			1				0	
6.6.1	win	2023-06-02	00:20:07	00:24:16	246802	5de8bc74553cee8280a7dd84	4	1	practice_z	5	advance_on_keypress_ZEE	8	stimuli_distractor_diamondtriangles.svg	stimuli_distractor_trianglediamonds.svg	14	no	57	0	761	0	0			0	0			1				0	
6.6.1	win	2023-06-02	00:20:07	00:24:20	250561	5de8bc74553cee8280a7dd84	4	1	practice_z	5	practice_z	9	stimuli_distractor_trianglediamonds.svg	stimuli_target_diamondrectangles.svg	12	yes	44	1	1338	0	0			0	0			1				0	
6.6.1	win	2023-06-02	00:20:07	00:24:20	250561	5de8bc74553cee8280a7dd84	4	1	practice_z	5	advance_on_keypress_ZEE	10	stimuli_distractor_trianglediamonds.svg	stimuli_target_diamondrectangles.svg	12	yes	57	0	747	0	0			0	0			1				0	
6.6.1	win	2023-06-02	00:20:07	00:24:24	254051	5de8bc74553cee8280a7dd84	4	1	practice_z	5	practice_z	11	stimuli_distractor_trianglediamonds.svg	stimuli_target_rectanglediamonds.svg	10	yes	44	1	1083	0	0			0	0			1				0	
6.6.1	win	2023-06-02	00:20:07	00:24:24	254051	5de8bc74553cee8280a7dd84	4	1	practice_z	5	advance_on_keypress_ZEE	12	stimuli_distractor_trianglediamonds.svg	stimuli_target_rectanglediamonds.svg	10	yes	57	0	1783	0	0			0	0			1				0	
6.6.1	win	2023-06-02	00:20:07	00:24:28	258708	5de8bc74553cee8280a7dd84	4	1	practice_z	5	practice_z	13	stimuli_target_rectanglediamonds.svg	stimuli_distractor_diamondtriangles.svg	1	yes	44	1	1223	0	0			0	0			1				0	
6.6.1	win	2023-06-02	00:20:07	00:24:28	258708	5de8bc74553cee8280a7dd84	4	1	practice_z	5	advance_on_keypress_ZEE	14	stimuli_target_rectanglediamonds.svg	stimuli_distractor_diamondtriangles.svg	1	yes	57	0	454	0	0			0	0			1				0	
6.6.1	win	2023-06-02	00:20:07	00:24:31	261733	5de8bc74553cee8280a7dd84	4	1	practice_z	5	practice_z	15	stimuli_target_rectanglediamonds.svg	stimuli_distractor_trianglediamonds.svg	4	yes	44	1	913	0	0			0	0			1				0	
6.6.1	win	2023-06-02	00:20:07	00:24:31	261733	5de8bc74553cee8280a7dd84	4	1	practice_z	5	advance_on_keypress_ZEE	16	stimuli_target_rectanglediamonds.svg	stimuli_distractor_trianglediamonds.svg	4	yes	57	0	1036	0	0			0	0			1				0	
6.6.1	win	2023-06-02	00:20:07	00:24:35	265291	5de8bc74553cee8280a7dd84	4	1	practice_z	5	practice_z	17	stimuli_distractor_trianglediamonds.svg	stimuli_target_squarediamonds.svg	11	yes	44	1	874	0	0			0	0			1				0	
6.6.1	win	2023-06-02	00:20:07	00:24:35	265291	5de8bc74553cee8280a7dd84	4	1	practice_z	5	advance_on_keypress_ZEE	18	stimuli_distractor_trianglediamonds.svg	stimuli_target_squarediamonds.svg	11	yes	57	0	462	0	0			0	0			1				0	
6.6.1	win	2023-06-02	00:20:07	00:24:38	268157	5de8bc74553cee8280a7dd84	4	1	practice_z	5	practice_z	19	stimuli_target_squarediamonds.svg	stimuli_distractor_diamondtriangles.svg	2	yes	44	1	754	0	0			0	0			1				0	
6.6.1	win	2023-06-02	00:20:07	00:24:38	268157	5de8bc74553cee8280a7dd84	4	1	practice_z	5	advance_on_keypress_ZEE	20	stimuli_target_squarediamonds.svg	stimuli_distractor_diamondtriangles.svg	2	yes	57	0	484	0	0			0	0			1				0	
6.6.1	win	2023-06-02	00:20:07	00:24:41	271164	5de8bc74553cee8280a7dd84	4	1	practice_z	5	practice_z	21	stimuli_target_squarediamonds.svg	stimuli_distractor_trianglediamonds.svg	5	yes	44	1	879	0	0			0	0			1				0	
6.6.1	win	2023-06-02	00:20:07	00:24:41	271164	5de8bc74553cee8280a7dd84	4	1	practice_z	5	advance_on_keypress_ZEE	22	stimuli_target_squarediamonds.svg	stimuli_distractor_trianglediamonds.svg	5	yes	57	0	420	0	0			0	0			1				0	
6.6.1	win	2023-06-02	00:20:07	00:24:45	275219	5de8bc74553cee8280a7dd84	4	1	practice_z	5	practice_z	23	stimuli_distractor_trianglediamonds.svg	stimuli_distractor_trianglediamonds.svg	15	no	0	1	2000	0	0			0	0			1				0	
6.6.1	win	2023-06-02	00:20:07	00:24:45	275219	5de8bc74553cee8280a7dd84	4	1	practice_z	5	advance_on_keypress_ZEE	24	stimuli_distractor_trianglediamonds.svg	stimuli_distractor_trianglediamonds.svg	15	no	57	0	457	0	0			0	0			1				0	
6.6.1	win	2023-06-02	00:20:07	00:24:48	278340	5de8bc74553cee8280a7dd84	4	1	practice_z	5	practice_z	25	stimuli_target_diamondsquares.svg	stimuli_distractor_diamondtriangles.svg	3	yes	44	1	1022	0	0			0	0			1				0	
6.6.1	win	2023-06-02	00:20:07	00:24:48	278340	5de8bc74553cee8280a7dd84	4	1	practice_z	5	advance_on_keypress_ZEE	26	stimuli_target_diamondsquares.svg	stimuli_distractor_diamondtriangles.svg	3	yes	57	0	924	0	0			0	0			1				0	
6.6.1	win	2023-06-02	00:20:07	00:24:51	281859	5de8bc74553cee8280a7dd84	4	1	practice_z	5	practice_z	27	stimuli_distractor_diamondtriangles.svg	stimuli_target_diamondrectangles.svg	8	yes	44	1	958	0	0			0	0			1				0	
6.6.1	win	2023-06-02	00:20:07	00:24:51	281859	5de8bc74553cee8280a7dd84	4	1	practice_z	5	advance_on_keypress_ZEE	28	stimuli_distractor_diamondtriangles.svg	stimuli_target_diamondrectangles.svg	8	yes	57	0	680	0	0			0	0			1				0	
6.6.1	win	2023-06-02	00:20:07	00:24:56	286189	5de8bc74553cee8280a7dd84	4	1	practice_z	5	practice_z	29	stimuli_distractor_diamondtriangles.svg	stimuli_distractor_diamondtriangles.svg	13	no	0	1	2000	0	0			0	0			1				0	
6.6.1	win	2023-06-02	00:20:07	00:24:56	286189	5de8bc74553cee8280a7dd84	4	1	practice_z	5	advance_on_keypress_ZEE	30	stimuli_distractor_diamondtriangles.svg	stimuli_distractor_diamondtriangles.svg	13	no	57	0	898	0	0			0	0			1				0	
6.6.1	win	2023-06-02	00:20:07	00:25:00	290735	5de8bc74553cee8280a7dd84	4	1	practice_z	5	practice_z	31	stimuli_distractor_trianglediamonds.svg	stimuli_distractor_diamondtriangles.svg	16	no	0	1	2000	0	0			0	0			1				0	
6.6.1	win	2023-06-02	00:20:07	00:25:00	290735	5de8bc74553cee8280a7dd84	4	1	practice_z	5	advance_on_keypress_ZEE	32	stimuli_distractor_trianglediamonds.svg	stimuli_distractor_diamondtriangles.svg	16	no	57	0	436	0	0			0	0			1				0	
6.6.1	win	2023-06-02	00:20:07	00:25:14	304722	5de8bc74553cee8280a7dd84	4	1	main_z	7	main_z	1	stimuli_target_trianglesquares.svg	stimuli_distractor_diamondtriangles.svg	22	yes	44	1	889	0	0			0	0			1				0	
6.6.1	win	2023-06-02	00:20:07	00:25:14	304722	5de8bc74553cee8280a7dd84	4	1	main_z	7	advance_on_keypress_ZEE	2	stimuli_target_trianglesquares.svg	stimuli_distractor_diamondtriangles.svg	22	yes	57	0	1013	0	0			0	0			1				0	
6.6.1	win	2023-06-02	00:20:07	00:25:17	307354	5de8bc74553cee8280a7dd84	4	1	main_z	7	main_z	3	stimuli_distractor_diamondtriangles.svg	stimuli_target_trianglerectangles.svg	29	yes	44	1	988	0	0			0	0			1				0	
6.6.1	win	2023-06-02	00:20:07	00:25:17	307354	5de8bc74553cee8280a7dd84	4	1	main_z	7	advance_on_keypress_ZEE	4	stimuli_distractor_diamondtriangles.svg	stimuli_target_trianglerectangles.svg	29	yes	57	0	892	0	0			0	0			1				0	
6.6.1	win	2023-06-02	00:20:07	00:25:19	309619	5de8bc74553cee8280a7dd84	4	1	main_z	7	main_z	5	stimuli_distractor_trianglediamonds.svg	stimuli_target_diamondsquares.svg	28	yes	44	1	735	0	0			0	0			1				0	
6.6.1	win	2023-06-02	00:20:07	00:25:19	309619	5de8bc74553cee8280a7dd84	4	1	main_z	7	advance_on_keypress_ZEE	6	stimuli_distractor_trianglediamonds.svg	stimuli_target_diamondsquares.svg	28	yes	57	0	425	0	0			0	0			1				0	
6.6.1	win	2023-06-02	00:20:07	00:25:21	311482	5de8bc74553cee8280a7dd84	4	1	main_z	7	main_z	7	stimuli_target_diamondrectangles.svg	stimuli_distractor_diamondtriangles.svg	23	yes	44	1	799	0	0			0	0			1				0	
6.6.1	win	2023-06-02	00:20:07	00:25:21	311482	5de8bc74553cee8280a7dd84	4	1	main_z	7	advance_on_keypress_ZEE	8	stimuli_target_diamondrectangles.svg	stimuli_distractor_diamondtriangles.svg	23	yes	57	0	423	0	0			0	0			1				0	
6.6.1	win	2023-06-02	00:20:07	00:25:23	313390	5de8bc74553cee8280a7dd84	4	1	main_z	7	main_z	9	stimuli_distractor_diamondtriangles.svg	stimuli_target_squaretriangles.svg	15	yes	44	1	837	0	0			0	0			1				0	
6.6.1	win	2023-06-02	00:20:07	00:25:23	313390	5de8bc74553cee8280a7dd84	4	1	main_z	7	advance_on_keypress_ZEE	10	stimuli_distractor_diamondtriangles.svg	stimuli_target_squaretriangles.svg	15	yes	57	0	451	0	0			0	0			1				0	
6.6.1	win	2023-06-02	00:20:07	00:25:25	315246	5de8bc74553cee8280a7dd84	4	1	main_z	7	main_z	11	stimuli_distractor_trianglediamonds.svg	stimuli_target_squaretriangles.svg	11	yes	44	1	758	0	0			0	0			1				0	
6.6.1	win	2023-06-02	00:20:07	00:25:25	315246	5de8bc74553cee8280a7dd84	4	1	main_z	7	advance_on_keypress_ZEE	12	stimuli_distractor_trianglediamonds.svg	stimuli_target_squaretriangles.svg	11	yes	57	0	369	0	0			0	0			1				0	
6.6.1	win	2023-06-02	00:20:07	00:25:28	318250	5de8bc74553cee8280a7dd84	4	1	main_z	7	main_z	13	stimuli_distractor_diamondtriangles.svg	stimuli_distractor_diamondtriangles.svg	39	no	0	1	2000	0	0			0	0			1				0	
6.6.1	win	2023-06-02	00:20:07	00:25:28	318250	5de8bc74553cee8280a7dd84	4	1	main_z	7	advance_on_keypress_ZEE	14	stimuli_distractor_diamondtriangles.svg	stimuli_distractor_diamondtriangles.svg	39	no	57	0	408	0	0			0	0			1				0	
6.6.1	win	2023-06-02	00:20:07	00:25:31	321300	5de8bc74553cee8280a7dd84	4	1	main_z	7	main_z	15	stimuli_distractor_diamondtriangles.svg	stimuli_distractor_diamondtriangles.svg	40	no	0	1	2000	0	0			0	0			1				0	
6.6.1	win	2023-06-02	00:20:07	00:25:31	321300	5de8bc74553cee8280a7dd84	4	1	main_z	7	advance_on_keypress_ZEE	16	stimuli_distractor_diamondtriangles.svg	stimuli_distractor_diamondtriangles.svg	40	no	57	0	1926	0	0			0	0			1				0	
6.6.1	win	2023-06-02	00:20:07	00:25:35	325866	5de8bc74553cee8280a7dd84	4	1	main_z	7	main_z	17	stimuli_distractor_trianglediamonds.svg	stimuli_distractor_diamondtriangles.svg	35	no	0	1	2000	0	0			0	0			1				0	
6.6.1	win	2023-06-02	00:20:07	00:25:35	325866	5de8bc74553cee8280a7dd84	4	1	main_z	7	advance_on_keypress_ZEE	18	stimuli_distractor_trianglediamonds.svg	stimuli_distractor_diamondtriangles.svg	35	no	57	0	479	0	0			0	0			1				0	
6.6.1	win	2023-06-02	00:20:07	00:25:37	327770	5de8bc74553cee8280a7dd84	4	1	main_z	7	main_z	19	stimuli_distractor_trianglediamonds.svg	stimuli_target_rectanglediamonds.svg	10	yes	44	1	787	0	0			0	0			1				0	
6.6.1	win	2023-06-02	00:20:07	00:25:37	327770	5de8bc74553cee8280a7dd84	4	1	main_z	7	advance_on_keypress_ZEE	20	stimuli_distractor_trianglediamonds.svg	stimuli_target_rectanglediamonds.svg	10	yes	57	0	595	0	0			0	0			1				0	
6.6.1	win	2023-06-02	00:20:07	00:25:40	330714	5de8bc74553cee8280a7dd84	4	1	main_z	7	main_z	21	stimuli_distractor_diamondtriangles.svg	stimuli_distractor_trianglediamonds.svg	37	no	44	0	1715	0	0			0	0			1				0	
6.6.1	win	2023-06-02	00:20:07	00:25:40	330714	5de8bc74553cee8280a7dd84	4	1	main_z	7	advance_on_keypress_ZEE	22	stimuli_distractor_diamondtriangles.svg	stimuli_distractor_trianglediamonds.svg	37	no	57	0	2053	0	0			0	0			1				0	
6.6.1	win	2023-06-02	00:20:07	00:25:45	335416	5de8bc74553cee8280a7dd84	4	1	main_z	7	main_z	23	stimuli_distractor_trianglediamonds.svg	stimuli_distractor_trianglediamonds.svg	34	no	0	1	2000	0	0			0	0			1				0	
6.6.1	win	2023-06-02	00:20:07	00:25:45	335416	5de8bc74553cee8280a7dd84	4	1	main_z	7	advance_on_keypress_ZEE	24	stimuli_distractor_trianglediamonds.svg	stimuli_distractor_trianglediamonds.svg	34	no	57	0	370	0	0			0	0			1				0	
6.6.1	win	2023-06-02	00:20:07	00:25:48	338433	5de8bc74553cee8280a7dd84	4	1	main_z	7	main_z	25	stimuli_distractor_trianglediamonds.svg	stimuli_distractor_diamondtriangles.svg	36	no	0	1	2000	0	0			0	0			1				0	
6.6.1	win	2023-06-02	00:20:07	00:25:48	338433	5de8bc74553cee8280a7dd84	4	1	main_z	7	advance_on_keypress_ZEE	26	stimuli_distractor_trianglediamonds.svg	stimuli_distractor_diamondtriangles.svg	36	no	57	0	529	0	0			0	0			1				0	
6.6.1	win	2023-06-02	00:20:07	00:25:50	340514	5de8bc74553cee8280a7dd84	4	1	main_z	7	main_z	27	stimuli_target_squarediamonds.svg	stimuli_distractor_diamondtriangles.svg	8	yes	44	1	915	0	0			0	0			1				0	
6.6.1	win	2023-06-02	00:20:07	00:25:50	340514	5de8bc74553cee8280a7dd84	4	1	main_z	7	advance_on_keypress_ZEE	28	stimuli_target_squarediamonds.svg	stimuli_distractor_diamondtriangles.svg	8	yes	57	0	414	0	0			0	0			1				0	
6.6.1	win	2023-06-02	00:20:07	00:25:52	342946	5de8bc74553cee8280a7dd84	4	1	main_z	7	main_z	29	stimuli_target_trianglerectangles.svg	stimuli_distractor_trianglediamonds.svg	17	yes	44	1	1364	0	0			0	0			1				0	
6.6.1	win	2023-06-02	00:20:07	00:25:52	342946	5de8bc74553cee8280a7dd84	4	1	main_z	7	advance_on_keypress_ZEE	30	stimuli_target_trianglerectangles.svg	stimuli_distractor_trianglediamonds.svg	17	yes	57	0	533	0	0			0	0			1				0	
6.6.1	win	2023-06-02	00:20:07	00:25:55	345298	5de8bc74553cee8280a7dd84	4	1	main_z	7	main_z	31	stimuli_target_rectangletriangles.svg	stimuli_distractor_diamondtriangles.svg	5	yes	44	1	1182	0	0			0	0			1				0	
6.6.1	win	2023-06-02	00:20:07	00:25:55	345298	5de8bc74553cee8280a7dd84	4	1	main_z	7	advance_on_keypress_ZEE	32	stimuli_target_rectangletriangles.svg	stimuli_distractor_diamondtriangles.svg	5	yes	57	0	398	0	0			0	0			1				0	
6.6.1	win	2023-06-02	00:20:07	00:25:57	347794	5de8bc74553cee8280a7dd84	4	1	main_z	7	main_z	33	stimuli_target_diamondrectangles.svg	stimuli_distractor_trianglediamonds.svg	19	yes	44	1	1445	0	0			0	0			1				0	
6.6.1	win	2023-06-02	00:20:07	00:25:57	347794	5de8bc74553cee8280a7dd84	4	1	main_z	7	advance_on_keypress_ZEE	34	stimuli_target_diamondrectangles.svg	stimuli_distractor_trianglediamonds.svg	19	yes	57	0	427	0	0			0	0			1				0	
6.6.1	win	2023-06-02	00:20:07	00:25:59	349786	5de8bc74553cee8280a7dd84	4	1	main_z	7	main_z	35	stimuli_distractor_diamondtriangles.svg	stimuli_target_diamondsquares.svg	32	yes	44	1	937	0	0			0	0			1				0	
6.6.1	win	2023-06-02	00:20:07	00:25:59	349786	5de8bc74553cee8280a7dd84	4	1	main_z	7	advance_on_keypress_ZEE	36	stimuli_distractor_diamondtriangles.svg	stimuli_target_diamondsquares.svg	32	yes	57	0	459	0	0			0	0			1				0	
6.6.1	win	2023-06-02	00:20:07	00:26:02	352130	5de8bc74553cee8280a7dd84	4	1	main_z	7	main_z	37	stimuli_target_diamondsquares.svg	stimuli_distractor_diamondtriangles.svg	24	yes	44	1	1248	0	0			0	0			1				0	
6.6.1	win	2023-06-02	00:20:07	00:26:02	352130	5de8bc74553cee8280a7dd84	4	1	main_z	7	advance_on_keypress_ZEE	38	stimuli_target_diamondsquares.svg	stimuli_distractor_diamondtriangles.svg	24	yes	57	0	1421	0	0			0	0			1				0	
6.6.1	win	2023-06-02	00:20:07	00:26:05	355050	5de8bc74553cee8280a7dd84	4	1	main_z	7	main_z	39	stimuli_distractor_diamondtriangles.svg	stimuli_target_trianglesquares.svg	30	yes	44	1	850	0	0			0	0			1				0	
6.6.1	win	2023-06-02	00:20:07	00:26:05	355050	5de8bc74553cee8280a7dd84	4	1	main_z	7	advance_on_keypress_ZEE	40	stimuli_distractor_diamondtriangles.svg	stimuli_target_trianglesquares.svg	30	yes	57	0	344	0	0			0	0			1				0	
6.6.1	win	2023-06-02	00:20:07	00:26:06	356778	5de8bc74553cee8280a7dd84	4	1	main_z	7	main_z	41	stimuli_target_trianglesquares.svg	stimuli_distractor_trianglediamonds.svg	18	yes	44	1	746	0	0			0	0			1				0	
6.6.1	win	2023-06-02	00:20:07	00:26:06	356778	5de8bc74553cee8280a7dd84	4	1	main_z	7	advance_on_keypress_ZEE	42	stimuli_target_trianglesquares.svg	stimuli_distractor_trianglediamonds.svg	18	yes	57	0	292	0	0			0	0			1				0	
6.6.1	win	2023-06-02	00:20:07	00:26:08	358450	5de8bc74553cee8280a7dd84	4	1	main_z	7	main_z	43	stimuli_distractor_trianglediamonds.svg	stimuli_target_trianglerectangles.svg	25	yes	44	1	751	0	0			0	0			1				0	
6.6.1	win	2023-06-02	00:20:07	00:26:08	358450	5de8bc74553cee8280a7dd84	4	1	main_z	7	advance_on_keypress_ZEE	44	stimuli_distractor_trianglediamonds.svg	stimuli_target_trianglerectangles.svg	25	yes	57	0	320	0	0			0	0			1				0	
6.6.1	win	2023-06-02	00:20:07	00:26:11	361416	5de8bc74553cee8280a7dd84	4	1	main_z	7	main_z	45	stimuli_distractor_trianglediamonds.svg	stimuli_distractor_trianglediamonds.svg	33	no	0	1	2000	0	0			0	0			1				0	
6.6.1	win	2023-06-02	00:20:07	00:26:11	361416	5de8bc74553cee8280a7dd84	4	1	main_z	7	advance_on_keypress_ZEE	46	stimuli_distractor_trianglediamonds.svg	stimuli_distractor_trianglediamonds.svg	33	no	57	0	386	0	0			0	0			1				0	
6.6.1	win	2023-06-02	00:20:07	00:26:13	363322	5de8bc74553cee8280a7dd84	4	1	main_z	7	main_z	47	stimuli_target_squarediamonds.svg	stimuli_distractor_trianglediamonds.svg	4	yes	44	1	873	0	0			0	0			1				0	
6.6.1	win	2023-06-02	00:20:07	00:26:13	363322	5de8bc74553cee8280a7dd84	4	1	main_z	7	advance_on_keypress_ZEE	48	stimuli_target_squarediamonds.svg	stimuli_distractor_trianglediamonds.svg	4	yes	57	0	326	0	0			0	0			1				0	
6.6.1	win	2023-06-02	00:20:07	00:26:15	365170	5de8bc74553cee8280a7dd84	4	1	main_z	7	main_z	49	stimuli_distractor_trianglediamonds.svg	stimuli_target_diamondrectangles.svg	27	yes	44	1	888	0	0			0	0			1				0	
6.6.1	win	2023-06-02	00:20:07	00:26:15	365170	5de8bc74553cee8280a7dd84	4	1	main_z	7	advance_on_keypress_ZEE	50	stimuli_distractor_trianglediamonds.svg	stimuli_target_diamondrectangles.svg	27	yes	57	0	332	0	0			0	0			1				0	
6.6.1	win	2023-06-02	00:20:07	00:26:17	367194	5de8bc74553cee8280a7dd84	4	1	main_z	7	main_z	51	stimuli_distractor_diamondtriangles.svg	stimuli_target_rectangletriangles.svg	13	yes	44	1	1045	0	0			0	0			1				0	
6.6.1	win	2023-06-02	00:20:07	00:26:17	367194	5de8bc74553cee8280a7dd84	4	1	main_z	7	advance_on_keypress_ZEE	52	stimuli_distractor_diamondtriangles.svg	stimuli_target_rectangletriangles.svg	13	yes	57	0	355	0	0			0	0			1				0	
6.6.1	win	2023-06-02	00:20:07	00:26:19	369042	5de8bc74553cee8280a7dd84	4	1	main_z	7	main_z	53	stimuli_target_rectangletriangles.svg	stimuli_distractor_trianglediamonds.svg	1	yes	44	1	860	0	0			0	0			1				0	
6.6.1	win	2023-06-02	00:20:07	00:26:19	369042	5de8bc74553cee8280a7dd84	4	1	main_z	7	advance_on_keypress_ZEE	54	stimuli_target_rectangletriangles.svg	stimuli_distractor_trianglediamonds.svg	1	yes	57	0	265	0	0			0	0			1				0	
6.6.1	win	2023-06-02	00:20:07	00:26:20	370762	5de8bc74553cee8280a7dd84	4	1	main_z	7	main_z	55	stimuli_target_squaretriangles.svg	stimuli_distractor_diamondtriangles.svg	7	yes	44	1	813	0	0			0	0			1				0	
6.6.1	win	2023-06-02	00:20:07	00:26:20	370762	5de8bc74553cee8280a7dd84	4	1	main_z	7	advance_on_keypress_ZEE	56	stimuli_target_squaretriangles.svg	stimuli_distractor_diamondtriangles.svg	7	yes	57	0	333	0	0			0	0			1				0	
6.6.1	win	2023-06-02	00:20:07	00:26:22	372546	5de8bc74553cee8280a7dd84	4	1	main_z	7	main_z	57	stimuli_target_rectanglediamonds.svg	stimuli_distractor_trianglediamonds.svg	2	yes	44	1	814	0	0			0	0			1				0	
6.6.1	win	2023-06-02	00:20:07	00:26:22	372546	5de8bc74553cee8280a7dd84	4	1	main_z	7	advance_on_keypress_ZEE	58	stimuli_target_rectanglediamonds.svg	stimuli_distractor_trianglediamonds.svg	2	yes	57	0	341	0	0			0	0			1				0	
6.6.1	win	2023-06-02	00:20:07	00:26:24	374538	5de8bc74553cee8280a7dd84	4	1	main_z	7	main_z	59	stimuli_target_diamondsquares.svg	stimuli_distractor_trianglediamonds.svg	20	yes	44	1	1006	0	0			0	0			1				0	
6.6.1	win	2023-06-02	00:20:07	00:26:24	374538	5de8bc74553cee8280a7dd84	4	1	main_z	7	advance_on_keypress_ZEE	60	stimuli_target_diamondsquares.svg	stimuli_distractor_trianglediamonds.svg	20	yes	57	0	325	0	0			0	0			1				0	
6.6.1	win	2023-06-02	00:20:07	00:26:26	376554	5de8bc74553cee8280a7dd84	4	1	main_z	7	main_z	61	stimuli_distractor_diamondtriangles.svg	stimuli_target_squarediamonds.svg	16	yes	44	1	1055	0	0			0	0			1				0	
6.6.1	win	2023-06-02	00:20:07	00:26:26	376554	5de8bc74553cee8280a7dd84	4	1	main_z	7	advance_on_keypress_ZEE	62	stimuli_distractor_diamondtriangles.svg	stimuli_target_squarediamonds.svg	16	yes	57	0	285	0	0			0	0			1				0	
6.6.1	win	2023-06-02	00:20:07	00:26:28	378346	5de8bc74553cee8280a7dd84	4	1	main_z	7	main_z	63	stimuli_distractor_trianglediamonds.svg	stimuli_target_trianglesquares.svg	26	yes	44	1	864	0	0			0	0			1				0	
6.6.1	win	2023-06-02	00:20:07	00:26:28	378346	5de8bc74553cee8280a7dd84	4	1	main_z	7	advance_on_keypress_ZEE	64	stimuli_distractor_trianglediamonds.svg	stimuli_target_trianglesquares.svg	26	yes	57	0	269	0	0			0	0			1				0	
6.6.1	win	2023-06-02	00:20:07	00:26:30	380074	5de8bc74553cee8280a7dd84	4	1	main_z	7	main_z	65	stimuli_target_squaretriangles.svg	stimuli_distractor_trianglediamonds.svg	3	yes	44	1	825	0	0			0	0			1				0	
6.6.1	win	2023-06-02	00:20:07	00:26:30	380074	5de8bc74553cee8280a7dd84	4	1	main_z	7	advance_on_keypress_ZEE	66	stimuli_target_squaretriangles.svg	stimuli_distractor_trianglediamonds.svg	3	yes	57	0	312	0	0			0	0			1				0	
6.6.1	win	2023-06-02	00:20:07	00:26:31	381797	5de8bc74553cee8280a7dd84	4	1	main_z	7	main_z	67	stimuli_distractor_trianglediamonds.svg	stimuli_target_rectangletriangles.svg	9	yes	44	1	779	0	0			0	0			1				0	
6.6.1	win	2023-06-02	00:20:07	00:26:31	381797	5de8bc74553cee8280a7dd84	4	1	main_z	7	advance_on_keypress_ZEE	68	stimuli_distractor_trianglediamonds.svg	stimuli_target_rectangletriangles.svg	9	yes	57	0	283	0	0			0	0			1				0	
6.6.1	win	2023-06-02	00:20:07	00:26:33	383651	5de8bc74553cee8280a7dd84	4	1	main_z	7	main_z	69	stimuli_distractor_diamondtriangles.svg	stimuli_target_rectanglediamonds.svg	14	yes	44	1	918	0	0			0	0			1				0	
6.6.1	win	2023-06-02	00:20:07	00:26:33	383651	5de8bc74553cee8280a7dd84	4	1	main_z	7	advance_on_keypress_ZEE	70	stimuli_distractor_diamondtriangles.svg	stimuli_target_rectanglediamonds.svg	14	yes	57	0	273	0	0			0	0			1				0	
6.6.1	win	2023-06-02	00:20:07	00:26:36	386566	5de8bc74553cee8280a7dd84	4	1	main_z	7	main_z	71	stimuli_target_trianglerectangles.svg	stimuli_distractor_diamondtriangles.svg	21	yes	0	0	2000	0	0			0	0			1				0	
6.6.1	win	2023-06-02	00:20:07	00:26:36	386566	5de8bc74553cee8280a7dd84	4	1	main_z	7	advance_on_keypress_ZEE	72	stimuli_target_trianglerectangles.svg	stimuli_distractor_diamondtriangles.svg	21	yes	57	0	644	0	0			0	0			1				0	
6.6.1	win	2023-06-02	00:20:07	00:26:38	388594	5de8bc74553cee8280a7dd84	4	1	main_z	7	main_z	73	stimuli_distractor_diamondtriangles.svg	stimuli_target_diamondrectangles.svg	31	yes	44	1	745	0	0			0	0			1				0	
6.6.1	win	2023-06-02	00:20:07	00:26:38	388594	5de8bc74553cee8280a7dd84	4	1	main_z	7	advance_on_keypress_ZEE	74	stimuli_distractor_diamondtriangles.svg	stimuli_target_diamondrectangles.svg	31	yes	57	0	299	0	0			0	0			1				0	
6.6.1	win	2023-06-02	00:20:07	00:26:40	390338	5de8bc74553cee8280a7dd84	4	1	main_z	7	main_z	75	stimuli_distractor_trianglediamonds.svg	stimuli_target_squarediamonds.svg	12	yes	44	1	806	0	0			0	0			1				0	
6.6.1	win	2023-06-02	00:20:07	00:26:40	390338	5de8bc74553cee8280a7dd84	4	1	main_z	7	advance_on_keypress_ZEE	76	stimuli_distractor_trianglediamonds.svg	stimuli_target_squarediamonds.svg	12	yes	57	0	285	0	0			0	0			1				0	
6.6.1	win	2023-06-02	00:20:07	00:26:42	392138	5de8bc74553cee8280a7dd84	4	1	main_z	7	main_z	77	stimuli_target_rectanglediamonds.svg	stimuli_distractor_diamondtriangles.svg	6	yes	44	1	873	0	0			0	0			1				0	
6.6.1	win	2023-06-02	00:20:07	00:26:42	392138	5de8bc74553cee8280a7dd84	4	1	main_z	7	advance_on_keypress_ZEE	78	stimuli_target_rectanglediamonds.svg	stimuli_distractor_diamondtriangles.svg	6	yes	57	0	197	0	0			0	0			1				0	
6.6.1	win	2023-06-02	00:20:07	00:26:44	394966	5de8bc74553cee8280a7dd84	4	1	main_z	7	main_z	79	stimuli_distractor_diamondtriangles.svg	stimuli_distractor_trianglediamonds.svg	38	no	0	1	2000	0	0			0	0			1				0	
6.6.1	win	2023-06-02	00:20:07	00:26:44	394966	5de8bc74553cee8280a7dd84	4	1	main_z	7	advance_on_keypress_ZEE	80	stimuli_distractor_diamondtriangles.svg	stimuli_distractor_trianglediamonds.svg	38	no	57	0	396	0	0			0	0			1				0	
6.6.1	win	2023-06-02	00:20:07	00:26:46	396850	5de8bc74553cee8280a7dd84	4	1	main_z	7	main_z	81	stimuli_distractor_diamondtriangles.svg	stimuli_target_trianglesquares.svg	30	yes	44	1	835	0	0			0	0			1				0	
6.6.1	win	2023-06-02	00:20:07	00:26:46	396850	5de8bc74553cee8280a7dd84	4	1	main_z	7	advance_on_keypress_ZEE	82	stimuli_distractor_diamondtriangles.svg	stimuli_target_trianglesquares.svg	30	yes	57	0	249	0	0			0	0			1				0	
6.6.1	win	2023-06-02	00:20:07	00:26:48	398586	5de8bc74553cee8280a7dd84	4	1	main_z	7	main_z	83	stimuli_distractor_trianglediamonds.svg	stimuli_target_squarediamonds.svg	12	yes	44	1	837	0	0			0	0			1				0	
6.6.1	win	2023-06-02	00:20:07	00:26:48	398586	5de8bc74553cee8280a7dd84	4	1	main_z	7	advance_on_keypress_ZEE	84	stimuli_distractor_trianglediamonds.svg	stimuli_target_squarediamonds.svg	12	yes	57	0	219	0	0			0	0			1				0	
6.6.1	win	2023-06-02	00:20:07	00:26:50	400282	5de8bc74553cee8280a7dd84	4	1	main_z	7	main_z	85	stimuli_distractor_trianglediamonds.svg	stimuli_target_diamondrectangles.svg	27	yes	44	1	833	0	0			0	0			1				0	
6.6.1	win	2023-06-02	00:20:07	00:26:50	400282	5de8bc74553cee8280a7dd84	4	1	main_z	7	advance_on_keypress_ZEE	86	stimuli_distractor_trianglediamonds.svg	stimuli_target_diamondrectangles.svg	27	yes	57	0	271	0	0			0	0			1				0	
6.6.1	win	2023-06-02	00:20:07	00:26:51	402018	5de8bc74553cee8280a7dd84	4	1	main_z	7	main_z	87	stimuli_target_rectangletriangles.svg	stimuli_distractor_trianglediamonds.svg	1	yes	44	1	819	0	0			0	0			1				0	
6.6.1	win	2023-06-02	00:20:07	00:26:51	402018	5de8bc74553cee8280a7dd84	4	1	main_z	7	advance_on_keypress_ZEE	88	stimuli_target_rectangletriangles.svg	stimuli_distractor_trianglediamonds.svg	1	yes	57	0	234	0	0			0	0			1				0	
6.6.1	win	2023-06-02	00:20:07	00:26:53	403748	5de8bc74553cee8280a7dd84	4	1	main_z	7	main_z	89	stimuli_distractor_diamondtriangles.svg	stimuli_target_trianglerectangles.svg	29	yes	44	1	847	0	0			0	0			1				0	
6.6.1	win	2023-06-02	00:20:07	00:26:53	403748	5de8bc74553cee8280a7dd84	4	1	main_z	7	advance_on_keypress_ZEE	90	stimuli_distractor_diamondtriangles.svg	stimuli_target_trianglerectangles.svg	29	yes	57	0	269	0	0			0	0			1				0	
6.6.1	win	2023-06-02	00:20:07	00:26:56	406666	5de8bc74553cee8280a7dd84	4	1	main_z	7	main_z	91	stimuli_distractor_diamondtriangles.svg	stimuli_distractor_diamondtriangles.svg	39	no	0	1	2000	0	0			0	0			1				0	
6.6.1	win	2023-06-02	00:20:07	00:26:56	406666	5de8bc74553cee8280a7dd84	4	1	main_z	7	advance_on_keypress_ZEE	92	stimuli_distractor_diamondtriangles.svg	stimuli_distractor_diamondtriangles.svg	39	no	57	0	320	0	0			0	0			1				0	
6.6.1	win	2023-06-02	00:20:07	00:26:58	408357	5de8bc74553cee8280a7dd84	4	1	main_z	7	main_z	93	stimuli_distractor_diamondtriangles.svg	stimuli_target_rectanglediamonds.svg	14	yes	44	1	722	0	0			0	0			1				0	
6.6.1	win	2023-06-02	00:20:07	00:26:58	408357	5de8bc74553cee8280a7dd84	4	1	main_z	7	advance_on_keypress_ZEE	94	stimuli_distractor_diamondtriangles.svg	stimuli_target_rectanglediamonds.svg	14	yes	57	0	453	0	0			0	0			1				0	
6.6.1	win	2023-06-02	00:20:07	00:27:01	411449	5de8bc74553cee8280a7dd84	4	1	main_z	7	main_z	95	stimuli_distractor_diamondtriangles.svg	stimuli_distractor_diamondtriangles.svg	40	no	0	1	2000	0	0			0	0			1				0	
6.6.1	win	2023-06-02	00:20:07	00:27:01	411449	5de8bc74553cee8280a7dd84	4	1	main_z	7	advance_on_keypress_ZEE	96	stimuli_distractor_diamondtriangles.svg	stimuli_distractor_diamondtriangles.svg	40	no	57	0	369	0	0			0	0			1				0	
6.6.1	win	2023-06-02	00:20:07	00:27:03	413306	5de8bc74553cee8280a7dd84	4	1	main_z	7	main_z	97	stimuli_target_rectanglediamonds.svg	stimuli_distractor_trianglediamonds.svg	2	yes	44	1	841	0	0			0	0			1				0	
6.6.1	win	2023-06-02	00:20:07	00:27:03	413306	5de8bc74553cee8280a7dd84	4	1	main_z	7	advance_on_keypress_ZEE	98	stimuli_target_rectanglediamonds.svg	stimuli_distractor_trianglediamonds.svg	2	yes	57	0	375	0	0			0	0			1				0	
6.6.1	win	2023-06-02	00:20:07	00:27:05	415065	5de8bc74553cee8280a7dd84	4	1	main_z	7	main_z	99	stimuli_target_squaretriangles.svg	stimuli_distractor_trianglediamonds.svg	3	yes	44	1	726	0	0			0	0			1				0	
6.6.1	win	2023-06-02	00:20:07	00:27:05	415065	5de8bc74553cee8280a7dd84	4	1	main_z	7	advance_on_keypress_ZEE	100	stimuli_target_squaretriangles.svg	stimuli_distractor_trianglediamonds.svg	3	yes	57	0	208	0	0			0	0			1				0	
6.6.1	win	2023-06-02	00:20:07	00:27:06	416671	5de8bc74553cee8280a7dd84	4	1	main_z	7	main_z	101	stimuli_target_squarediamonds.svg	stimuli_distractor_trianglediamonds.svg	4	yes	44	1	734	0	0			0	0			1				0	
6.6.1	win	2023-06-02	00:20:07	00:27:06	416671	5de8bc74553cee8280a7dd84	4	1	main_z	7	advance_on_keypress_ZEE	102	stimuli_target_squarediamonds.svg	stimuli_distractor_trianglediamonds.svg	4	yes	57	0	296	0	0			0	0			1				0	
6.6.1	win	2023-06-02	00:20:07	00:27:08	418386	5de8bc74553cee8280a7dd84	4	1	main_z	7	main_z	103	stimuli_distractor_trianglediamonds.svg	stimuli_target_diamondsquares.svg	28	yes	44	1	771	0	0			0	0			1				0	
6.6.1	win	2023-06-02	00:20:07	00:27:08	418386	5de8bc74553cee8280a7dd84	4	1	main_z	7	advance_on_keypress_ZEE	104	stimuli_distractor_trianglediamonds.svg	stimuli_target_diamondsquares.svg	28	yes	57	0	220	0	0			0	0			1				0	
6.6.1	win	2023-06-02	00:20:07	00:27:09	420002	5de8bc74553cee8280a7dd84	4	1	main_z	7	main_z	105	stimuli_target_trianglerectangles.svg	stimuli_distractor_diamondtriangles.svg	21	yes	44	1	754	0	0			0	0			1				0	
6.6.1	win	2023-06-02	00:20:07	00:27:09	420002	5de8bc74553cee8280a7dd84	4	1	main_z	7	advance_on_keypress_ZEE	106	stimuli_target_trianglerectangles.svg	stimuli_distractor_diamondtriangles.svg	21	yes	57	0	275	0	0			0	0			1				0	
6.6.1	win	2023-06-02	00:20:07	00:27:11	421650	5de8bc74553cee8280a7dd84	4	1	main_z	7	main_z	107	stimuli_target_diamondrectangles.svg	stimuli_distractor_diamondtriangles.svg	23	yes	44	1	735	0	0			0	0			1				0	
6.6.1	win	2023-06-02	00:20:07	00:27:11	421650	5de8bc74553cee8280a7dd84	4	1	main_z	7	advance_on_keypress_ZEE	108	stimuli_target_diamondrectangles.svg	stimuli_distractor_diamondtriangles.svg	23	yes	57	0	169	0	0			0	0			1				0	
6.6.1	win	2023-06-02	00:20:07	00:27:14	424465	5de8bc74553cee8280a7dd84	4	1	main_z	7	main_z	109	stimuli_distractor_trianglediamonds.svg	stimuli_distractor_diamondtriangles.svg	35	no	0	1	2000	0	0			0	0			1				0	
6.6.1	win	2023-06-02	00:20:07	00:27:14	424465	5de8bc74553cee8280a7dd84	4	1	main_z	7	advance_on_keypress_ZEE	110	stimuli_distractor_trianglediamonds.svg	stimuli_distractor_diamondtriangles.svg	35	no	57	0	3408	0	0			0	0			1				0	
6.6.1	win	2023-06-02	00:20:07	00:27:19	429274	5de8bc74553cee8280a7dd84	4	1	main_z	7	main_z	111	stimuli_target_trianglesquares.svg	stimuli_distractor_diamondtriangles.svg	22	yes	44	1	759	0	0			0	0			1				0	
6.6.1	win	2023-06-02	00:20:07	00:27:19	429274	5de8bc74553cee8280a7dd84	4	1	main_z	7	advance_on_keypress_ZEE	112	stimuli_target_trianglesquares.svg	stimuli_distractor_diamondtriangles.svg	22	yes	57	0	408	0	0			0	0			1				0	
6.6.1	win	2023-06-02	00:20:07	00:27:21	431635	5de8bc74553cee8280a7dd84	4	1	main_z	7	main_z	113	stimuli_distractor_trianglediamonds.svg	stimuli_target_rectanglediamonds.svg	10	yes	44	1	1319	0	0			0	0			1				0	
6.6.1	win	2023-06-02	00:20:07	00:27:21	431635	5de8bc74553cee8280a7dd84	4	1	main_z	7	advance_on_keypress_ZEE	114	stimuli_distractor_trianglediamonds.svg	stimuli_target_rectanglediamonds.svg	10	yes	57	0	770	0	0			0	0			1				0	
6.6.1	win	2023-06-02	00:20:07	00:27:23	433754	5de8bc74553cee8280a7dd84	4	1	main_z	7	main_z	115	stimuli_distractor_trianglediamonds.svg	stimuli_target_squaretriangles.svg	11	yes	44	1	706	0	0			0	0			1				0	
6.6.1	win	2023-06-02	00:20:07	00:27:23	433754	5de8bc74553cee8280a7dd84	4	1	main_z	7	advance_on_keypress_ZEE	116	stimuli_distractor_trianglediamonds.svg	stimuli_target_squaretriangles.svg	11	yes	57	0	309	0	0			0	0			1				0	
6.6.1	win	2023-06-02	00:20:07	00:27:25	435346	5de8bc74553cee8280a7dd84	4	1	main_z	7	main_z	117	stimuli_target_squarediamonds.svg	stimuli_distractor_diamondtriangles.svg	8	yes	44	1	648	0	0			0	0			1				0	
6.6.1	win	2023-06-02	00:20:07	00:27:25	435346	5de8bc74553cee8280a7dd84	4	1	main_z	7	advance_on_keypress_ZEE	118	stimuli_target_squarediamonds.svg	stimuli_distractor_diamondtriangles.svg	8	yes	57	0	253	0	0			0	0			1				0	
6.6.1	win	2023-06-02	00:20:07	00:27:26	437018	5de8bc74553cee8280a7dd84	4	1	main_z	7	main_z	119	stimuli_distractor_trianglediamonds.svg	stimuli_target_trianglesquares.svg	26	yes	44	1	770	0	0			0	0			1				0	
6.6.1	win	2023-06-02	00:20:07	00:27:26	437018	5de8bc74553cee8280a7dd84	4	1	main_z	7	advance_on_keypress_ZEE	120	stimuli_distractor_trianglediamonds.svg	stimuli_target_trianglesquares.svg	26	yes	57	0	210	0	0			0	0			1				0	
6.6.1	win	2023-06-02	00:20:07	00:27:28	438586	5de8bc74553cee8280a7dd84	4	1	main_z	7	main_z	121	stimuli_distractor_diamondtriangles.svg	stimuli_target_squarediamonds.svg	16	yes	44	1	721	0	0			0	0			1				0	
6.6.1	win	2023-06-02	00:20:07	00:27:28	438586	5de8bc74553cee8280a7dd84	4	1	main_z	7	advance_on_keypress_ZEE	122	stimuli_distractor_diamondtriangles.svg	stimuli_target_squarediamonds.svg	16	yes	57	0	212	0	0			0	0			1				0	
6.6.1	win	2023-06-02	00:20:07	00:27:30	440210	5de8bc74553cee8280a7dd84	4	1	main_z	7	main_z	123	stimuli_target_trianglesquares.svg	stimuli_distractor_trianglediamonds.svg	18	yes	44	1	779	0	0			0	0			1				0	
6.6.1	win	2023-06-02	00:20:07	00:27:30	440210	5de8bc74553cee8280a7dd84	4	1	main_z	7	advance_on_keypress_ZEE	124	stimuli_target_trianglesquares.svg	stimuli_distractor_trianglediamonds.svg	18	yes	57	0	211	0	0			0	0			1				0	
6.6.1	win	2023-06-02	00:20:07	00:27:33	443049	5de8bc74553cee8280a7dd84	4	1	main_z	7	main_z	125	stimuli_distractor_trianglediamonds.svg	stimuli_distractor_diamondtriangles.svg	36	no	0	1	2000	0	0			0	0			1				0	
6.6.1	win	2023-06-02	00:20:07	00:27:33	443049	5de8bc74553cee8280a7dd84	4	1	main_z	7	advance_on_keypress_ZEE	126	stimuli_distractor_trianglediamonds.svg	stimuli_distractor_diamondtriangles.svg	36	no	57	0	481	0	0			0	0			1				0	
6.6.1	win	2023-06-02	00:20:07	00:27:34	444922	5de8bc74553cee8280a7dd84	4	1	main_z	7	main_z	127	stimuli_distractor_diamondtriangles.svg	stimuli_target_diamondsquares.svg	32	yes	44	1	741	0	0			0	0			1				0	
6.6.1	win	2023-06-02	00:20:07	00:27:34	444922	5de8bc74553cee8280a7dd84	4	1	main_z	7	advance_on_keypress_ZEE	128	stimuli_distractor_diamondtriangles.svg	stimuli_target_diamondsquares.svg	32	yes	57	0	367	0	0			0	0			1				0	
6.6.1	win	2023-06-02	00:20:07	00:27:36	446898	5de8bc74553cee8280a7dd84	4	1	main_z	7	main_z	129	stimuli_target_squaretriangles.svg	stimuli_distractor_diamondtriangles.svg	7	yes	44	1	967	0	0			0	0			1				0	
6.6.1	win	2023-06-02	00:20:07	00:27:36	446898	5de8bc74553cee8280a7dd84	4	1	main_z	7	advance_on_keypress_ZEE	130	stimuli_target_squaretriangles.svg	stimuli_distractor_diamondtriangles.svg	7	yes	57	0	279	0	0			0	0			1				0	
6.6.1	win	2023-06-02	00:20:07	00:27:39	449815	5de8bc74553cee8280a7dd84	4	1	main_z	7	main_z	131	stimuli_distractor_trianglediamonds.svg	stimuli_distractor_trianglediamonds.svg	33	no	0	1	2000	0	0			0	0			1				0	
6.6.1	win	2023-06-02	00:20:07	00:27:39	449815	5de8bc74553cee8280a7dd84	4	1	main_z	7	advance_on_keypress_ZEE	132	stimuli_distractor_trianglediamonds.svg	stimuli_distractor_trianglediamonds.svg	33	no	57	0	635	0	0			0	0			1				0	
6.6.1	win	2023-06-02	00:20:07	00:27:41	451802	5de8bc74553cee8280a7dd84	4	1	main_z	7	main_z	133	stimuli_target_diamondsquares.svg	stimuli_distractor_diamondtriangles.svg	24	yes	44	1	704	0	0			0	0			1				0	
6.6.1	win	2023-06-02	00:20:07	00:27:41	451802	5de8bc74553cee8280a7dd84	4	1	main_z	7	advance_on_keypress_ZEE	134	stimuli_target_diamondsquares.svg	stimuli_distractor_diamondtriangles.svg	24	yes	57	0	251	0	0			0	0			1				0	
6.6.1	win	2023-06-02	00:20:07	00:27:43	453354	5de8bc74553cee8280a7dd84	4	1	main_z	7	main_z	135	stimuli_distractor_diamondtriangles.svg	stimuli_target_squaretriangles.svg	15	yes	44	1	656	0	0			0	0			1				0	
6.6.1	win	2023-06-02	00:20:07	00:27:43	453354	5de8bc74553cee8280a7dd84	4	1	main_z	7	advance_on_keypress_ZEE	136	stimuli_distractor_diamondtriangles.svg	stimuli_target_squaretriangles.svg	15	yes	57	0	253	0	0			0	0			1				0	
6.6.1	win	2023-06-02	00:20:07	00:27:44	454930	5de8bc74553cee8280a7dd84	4	1	main_z	7	main_z	137	stimuli_target_rectangletriangles.svg	stimuli_distractor_diamondtriangles.svg	5	yes	44	1	682	0	0			0	0			1				0	
6.6.1	win	2023-06-02	00:20:07	00:27:44	454930	5de8bc74553cee8280a7dd84	4	1	main_z	7	advance_on_keypress_ZEE	138	stimuli_target_rectangletriangles.svg	stimuli_distractor_diamondtriangles.svg	5	yes	57	0	286	0	0			0	0			1				0	
6.6.1	win	2023-06-02	00:20:07	00:27:47	457865	5de8bc74553cee8280a7dd84	4	1	main_z	7	main_z	139	stimuli_distractor_diamondtriangles.svg	stimuli_distractor_trianglediamonds.svg	38	no	0	1	2000	0	0			0	0			1				0	
6.6.1	win	2023-06-02	00:20:07	00:27:47	457865	5de8bc74553cee8280a7dd84	4	1	main_z	7	advance_on_keypress_ZEE	140	stimuli_distractor_diamondtriangles.svg	stimuli_distractor_trianglediamonds.svg	38	no	57	0	3697	0	0			0	0			1				0	
6.6.1	win	2023-06-02	00:20:07	00:27:54	464198	5de8bc74553cee8280a7dd84	4	1	main_z	7	main_z	141	stimuli_distractor_trianglediamonds.svg	stimuli_distractor_trianglediamonds.svg	34	no	0	1	2000	0	0			0	0			1				0	
6.6.1	win	2023-06-02	00:20:07	00:27:54	464198	5de8bc74553cee8280a7dd84	4	1	main_z	7	advance_on_keypress_ZEE	142	stimuli_distractor_trianglediamonds.svg	stimuli_distractor_trianglediamonds.svg	34	no	57	0	843	0	0			0	0			1				0	
6.6.1	win	2023-06-02	00:20:07	00:27:56	466490	5de8bc74553cee8280a7dd84	4	1	main_z	7	main_z	143	stimuli_distractor_trianglediamonds.svg	stimuli_target_rectangletriangles.svg	9	yes	44	1	809	0	0			0	0			1				0	
6.6.1	win	2023-06-02	00:20:07	00:27:56	466490	5de8bc74553cee8280a7dd84	4	1	main_z	7	advance_on_keypress_ZEE	144	stimuli_distractor_trianglediamonds.svg	stimuli_target_rectangletriangles.svg	9	yes	57	0	320	0	0			0	0			1				0	
6.6.1	win	2023-06-02	00:20:07	00:27:58	468722	5de8bc74553cee8280a7dd84	4	1	main_z	7	main_z	145	stimuli_distractor_diamondtriangles.svg	stimuli_target_diamondrectangles.svg	31	yes	44	1	1274	0	0			0	0			1				0	
6.6.1	win	2023-06-02	00:20:07	00:27:58	468722	5de8bc74553cee8280a7dd84	4	1	main_z	7	advance_on_keypress_ZEE	146	stimuli_distractor_diamondtriangles.svg	stimuli_target_diamondrectangles.svg	31	yes	57	0	447	0	0			0	0			1				0	
6.6.1	win	2023-06-02	00:20:07	00:28:00	470514	5de8bc74553cee8280a7dd84	4	1	main_z	7	main_z	147	stimuli_target_diamondsquares.svg	stimuli_distractor_trianglediamonds.svg	20	yes	44	1	716	0	0			0	0			1				0	
6.6.1	win	2023-06-02	00:20:07	00:28:00	470514	5de8bc74553cee8280a7dd84	4	1	main_z	7	advance_on_keypress_ZEE	148	stimuli_target_diamondsquares.svg	stimuli_distractor_trianglediamonds.svg	20	yes	57	0	239	0	0			0	0			1				0	
6.6.1	win	2023-06-02	00:20:07	00:28:02	472154	5de8bc74553cee8280a7dd84	4	1	main_z	7	main_z	149	stimuli_distractor_diamondtriangles.svg	stimuli_target_rectangletriangles.svg	13	yes	44	1	756	0	0			0	0			1				0	
6.6.1	win	2023-06-02	00:20:07	00:28:02	472154	5de8bc74553cee8280a7dd84	4	1	main_z	7	advance_on_keypress_ZEE	150	stimuli_distractor_diamondtriangles.svg	stimuli_target_rectangletriangles.svg	13	yes	57	0	261	0	0			0	0			1				0	
6.6.1	win	2023-06-02	00:20:07	00:28:03	473874	5de8bc74553cee8280a7dd84	4	1	main_z	7	main_z	151	stimuli_target_diamondrectangles.svg	stimuli_distractor_trianglediamonds.svg	19	yes	44	1	826	0	0			0	0			1				0	
6.6.1	win	2023-06-02	00:20:07	00:28:03	473874	5de8bc74553cee8280a7dd84	4	1	main_z	7	advance_on_keypress_ZEE	152	stimuli_target_diamondrectangles.svg	stimuli_distractor_trianglediamonds.svg	19	yes	57	0	233	0	0			0	0			1				0	
6.6.1	win	2023-06-02	00:20:07	00:28:05	475594	5de8bc74553cee8280a7dd84	4	1	main_z	7	main_z	153	stimuli_distractor_trianglediamonds.svg	stimuli_target_trianglerectangles.svg	25	yes	44	1	846	0	0			0	0			1				0	
6.6.1	win	2023-06-02	00:20:07	00:28:05	475594	5de8bc74553cee8280a7dd84	4	1	main_z	7	advance_on_keypress_ZEE	154	stimuli_distractor_trianglediamonds.svg	stimuli_target_trianglerectangles.svg	25	yes	57	0	284	0	0			0	0			1				0	
6.6.1	win	2023-06-02	00:20:07	00:28:07	477346	5de8bc74553cee8280a7dd84	4	1	main_z	7	main_z	155	stimuli_target_trianglerectangles.svg	stimuli_distractor_trianglediamonds.svg	17	yes	44	1	831	0	0			0	0			1				0	
6.6.1	win	2023-06-02	00:20:07	00:28:07	477346	5de8bc74553cee8280a7dd84	4	1	main_z	7	advance_on_keypress_ZEE	156	stimuli_target_trianglerectangles.svg	stimuli_distractor_trianglediamonds.svg	17	yes	57	0	190	0	0			0	0			1				0	
6.6.1	win	2023-06-02	00:20:07	00:28:10	480182	5de8bc74553cee8280a7dd84	4	1	main_z	7	main_z	157	stimuli_distractor_diamondtriangles.svg	stimuli_distractor_trianglediamonds.svg	37	no	0	1	2000	0	0			0	0			1				0	
6.6.1	win	2023-06-02	00:20:07	00:28:10	480182	5de8bc74553cee8280a7dd84	4	1	main_z	7	advance_on_keypress_ZEE	158	stimuli_distractor_diamondtriangles.svg	stimuli_distractor_trianglediamonds.svg	37	no	57	0	556	0	0			0	0			1				0	
6.6.1	win	2023-06-02	00:20:07	00:28:11	482027	5de8bc74553cee8280a7dd84	4	1	main_z	7	main_z	159	stimuli_target_rectanglediamonds.svg	stimuli_distractor_diamondtriangles.svg	6	yes	44	1	645	0	0			0	0			1				0	
6.6.1	win	2023-06-02	00:20:07	00:28:11	482027	5de8bc74553cee8280a7dd84	4	1	main_z	7	advance_on_keypress_ZEE	160	stimuli_target_rectanglediamonds.svg	stimuli_distractor_diamondtriangles.svg	6	yes	57	0	275	0	0			0	0			1				0	
6.6.1	win	2023-06-02	00:20:07	00:28:49	519404	5de8bc74553cee8280a7dd84	4	1	practice_slash	9	practice_slash	1	stimuli_distractor_diamondtriangles.svg	stimuli_target_trianglerectangles.svg	9	yes	53	1	738	0	0			0	0			1				0	
6.6.1	win	2023-06-02	00:20:07	00:28:49	519404	5de8bc74553cee8280a7dd84	4	1	practice_slash	9	advance_on_keypress_SLASH	2	stimuli_distractor_diamondtriangles.svg	stimuli_target_trianglerectangles.svg	9	yes	57	0	500	0	0			0	0			1				0	
6.6.1	win	2023-06-02	00:20:07	00:28:52	522476	5de8bc74553cee8280a7dd84	4	1	practice_slash	9	practice_slash	3	stimuli_distractor_trianglediamonds.svg	stimuli_target_rectanglediamonds.svg	10	yes	53	1	927	0	0			0	0			1				0	
6.6.1	win	2023-06-02	00:20:07	00:28:52	522476	5de8bc74553cee8280a7dd84	4	1	practice_slash	9	advance_on_keypress_SLASH	4	stimuli_distractor_trianglediamonds.svg	stimuli_target_rectanglediamonds.svg	10	yes	57	0	1457	0	0			0	0			1				0	
6.6.1	win	2023-06-02	00:20:07	00:28:56	526260	5de8bc74553cee8280a7dd84	4	1	practice_slash	9	practice_slash	5	stimuli_distractor_trianglediamonds.svg	stimuli_target_diamondrectangles.svg	12	yes	53	1	694	0	0			0	0			1				0	
6.6.1	win	2023-06-02	00:20:07	00:28:56	526260	5de8bc74553cee8280a7dd84	4	1	practice_slash	9	advance_on_keypress_SLASH	6	stimuli_distractor_trianglediamonds.svg	stimuli_target_diamondrectangles.svg	12	yes	57	0	626	0	0			0	0			1				0	
6.6.1	win	2023-06-02	00:20:07	00:28:59	529388	5de8bc74553cee8280a7dd84	4	1	practice_slash	9	practice_slash	7	stimuli_target_diamondsquares.svg	stimuli_distractor_diamondtriangles.svg	3	yes	53	1	872	0	0			0	0			1				0	
6.6.1	win	2023-06-02	00:20:07	00:28:59	529388	5de8bc74553cee8280a7dd84	4	1	practice_slash	9	advance_on_keypress_SLASH	8	stimuli_target_diamondsquares.svg	stimuli_distractor_diamondtriangles.svg	3	yes	57	0	365	0	0			0	0			1				0	
6.6.1	win	2023-06-02	00:20:07	00:29:03	533399	5de8bc74553cee8280a7dd84	4	1	practice_slash	9	practice_slash	9	stimuli_distractor_trianglediamonds.svg	stimuli_distractor_diamondtriangles.svg	16	no	0	1	2000	0	0			0	0			1				0	
6.6.1	win	2023-06-02	00:20:07	00:29:03	533399	5de8bc74553cee8280a7dd84	4	1	practice_slash	9	advance_on_keypress_SLASH	10	stimuli_distractor_trianglediamonds.svg	stimuli_distractor_diamondtriangles.svg	16	no	57	0	420	0	0			0	0			1				0	
6.6.1	win	2023-06-02	00:20:07	00:29:06	536779	5de8bc74553cee8280a7dd84	4	1	practice_slash	9	practice_slash	11	stimuli_target_rectanglediamonds.svg	stimuli_distractor_diamondtriangles.svg	1	yes	53	1	1314	0	0			0	0			1				0	
6.6.1	win	2023-06-02	00:20:07	00:29:06	536779	5de8bc74553cee8280a7dd84	4	1	practice_slash	9	advance_on_keypress_SLASH	12	stimuli_target_rectanglediamonds.svg	stimuli_distractor_diamondtriangles.svg	1	yes	57	0	429	0	0			0	0			1				0	
6.6.1	win	2023-06-02	00:20:07	00:29:10	540849	5de8bc74553cee8280a7dd84	4	1	practice_slash	9	practice_slash	13	stimuli_distractor_trianglediamonds.svg	stimuli_distractor_trianglediamonds.svg	15	no	0	1	2000	0	0			0	0			1				0	
6.6.1	win	2023-06-02	00:20:07	00:29:10	540849	5de8bc74553cee8280a7dd84	4	1	practice_slash	9	advance_on_keypress_SLASH	14	stimuli_distractor_trianglediamonds.svg	stimuli_distractor_trianglediamonds.svg	15	no	57	0	466	0	0			0	0			1				0	
6.6.1	win	2023-06-02	00:20:07	00:29:13	543812	5de8bc74553cee8280a7dd84	4	1	practice_slash	9	practice_slash	15	stimuli_distractor_trianglediamonds.svg	stimuli_target_squarediamonds.svg	11	yes	53	1	845	0	0			0	0			1				0	
6.6.1	win	2023-06-02	00:20:07	00:29:13	543812	5de8bc74553cee8280a7dd84	4	1	practice_slash	9	advance_on_keypress_SLASH	16	stimuli_distractor_trianglediamonds.svg	stimuli_target_squarediamonds.svg	11	yes	57	0	299	0	0			0	0			1				0	
6.6.1	win	2023-06-02	00:20:07	00:29:16	546636	5de8bc74553cee8280a7dd84	4	1	practice_slash	9	practice_slash	17	stimuli_target_diamondsquares.svg	stimuli_distractor_trianglediamonds.svg	6	yes	53	1	870	0	0			0	0			1				0	
6.6.1	win	2023-06-02	00:20:07	00:29:16	546636	5de8bc74553cee8280a7dd84	4	1	practice_slash	9	advance_on_keypress_SLASH	18	stimuli_target_diamondsquares.svg	stimuli_distractor_trianglediamonds.svg	6	yes	57	0	275	0	0			0	0			1				0	
6.6.1	win	2023-06-02	00:20:07	00:29:19	549276	5de8bc74553cee8280a7dd84	4	1	practice_slash	9	practice_slash	19	stimuli_distractor_diamondtriangles.svg	stimuli_target_rectangletriangles.svg	7	yes	53	1	727	0	0			0	0			1				0	
6.6.1	win	2023-06-02	00:20:07	00:29:19	549276	5de8bc74553cee8280a7dd84	4	1	practice_slash	9	advance_on_keypress_SLASH	20	stimuli_distractor_diamondtriangles.svg	stimuli_target_rectangletriangles.svg	7	yes	57	0	154	0	0			0	0			1				0	
6.6.1	win	2023-06-02	00:20:07	00:29:23	553065	5de8bc74553cee8280a7dd84	4	1	practice_slash	9	practice_slash	21	stimuli_distractor_diamondtriangles.svg	stimuli_distractor_diamondtriangles.svg	13	no	0	1	2000	0	0			0	0			1				0	
6.6.1	win	2023-06-02	00:20:07	00:29:23	553065	5de8bc74553cee8280a7dd84	4	1	practice_slash	9	advance_on_keypress_SLASH	22	stimuli_distractor_diamondtriangles.svg	stimuli_distractor_diamondtriangles.svg	13	no	57	0	426	0	0			0	0			1				0	
6.6.1	win	2023-06-02	00:20:07	00:29:25	555980	5de8bc74553cee8280a7dd84	4	1	practice_slash	9	practice_slash	23	stimuli_target_rectanglediamonds.svg	stimuli_distractor_trianglediamonds.svg	4	yes	53	1	848	0	0			0	0			1				0	
6.6.1	win	2023-06-02	00:20:07	00:29:25	555980	5de8bc74553cee8280a7dd84	4	1	practice_slash	9	advance_on_keypress_SLASH	24	stimuli_target_rectanglediamonds.svg	stimuli_distractor_trianglediamonds.svg	4	yes	57	0	309	0	0			0	0			1				0	
6.6.1	win	2023-06-02	00:20:07	00:29:28	558652	5de8bc74553cee8280a7dd84	4	1	practice_slash	9	practice_slash	25	stimuli_target_squarediamonds.svg	stimuli_distractor_trianglediamonds.svg	5	yes	53	1	720	0	0			0	0			1				0	
6.6.1	win	2023-06-02	00:20:07	00:29:28	558652	5de8bc74553cee8280a7dd84	4	1	practice_slash	9	advance_on_keypress_SLASH	26	stimuli_target_squarediamonds.svg	stimuli_distractor_trianglediamonds.svg	5	yes	57	0	314	0	0			0	0			1				0	
6.6.1	win	2023-06-02	00:20:07	00:29:32	562615	5de8bc74553cee8280a7dd84	4	1	practice_slash	9	practice_slash	27	stimuli_distractor_diamondtriangles.svg	stimuli_distractor_trianglediamonds.svg	14	no	0	1	2000	0	0			0	0			1				0	
6.6.1	win	2023-06-02	00:20:07	00:29:32	562615	5de8bc74553cee8280a7dd84	4	1	practice_slash	9	advance_on_keypress_SLASH	28	stimuli_distractor_diamondtriangles.svg	stimuli_distractor_trianglediamonds.svg	14	no	57	0	372	0	0			0	0			1				0	
6.6.1	win	2023-06-02	00:20:07	00:29:35	565372	5de8bc74553cee8280a7dd84	4	1	practice_slash	9	practice_slash	29	stimuli_target_squarediamonds.svg	stimuli_distractor_diamondtriangles.svg	2	yes	53	1	740	0	0			0	0			1				0	
6.6.1	win	2023-06-02	00:20:07	00:29:35	565372	5de8bc74553cee8280a7dd84	4	1	practice_slash	9	advance_on_keypress_SLASH	30	stimuli_target_squarediamonds.svg	stimuli_distractor_diamondtriangles.svg	2	yes	57	0	238	0	0			0	0			1				0	
6.6.1	win	2023-06-02	00:20:07	00:29:38	568140	5de8bc74553cee8280a7dd84	4	1	practice_slash	9	practice_slash	31	stimuli_distractor_diamondtriangles.svg	stimuli_target_diamondrectangles.svg	8	yes	53	1	891	0	0			0	0			1				0	
6.6.1	win	2023-06-02	00:20:07	00:29:38	568140	5de8bc74553cee8280a7dd84	4	1	practice_slash	9	advance_on_keypress_SLASH	32	stimuli_distractor_diamondtriangles.svg	stimuli_target_diamondrectangles.svg	8	yes	57	0	463	0	0			0	0			1				0	
6.6.1	win	2023-06-02	00:20:07	00:29:45	575786	5de8bc74553cee8280a7dd84	4	1	main_slash	11	main_slash	1	stimuli_target_diamondsquares.svg	stimuli_distractor_diamondtriangles.svg	24	yes	53	1	739	0	0			0	0			1				0	
6.6.1	win	2023-06-02	00:20:07	00:29:45	575786	5de8bc74553cee8280a7dd84	4	1	main_slash	11	advance_on_keypress_SLASH	2	stimuli_target_diamondsquares.svg	stimuli_distractor_diamondtriangles.svg	24	yes	57	0	701	0	0			0	0			1				0	
6.6.1	win	2023-06-02	00:20:07	00:29:49	579131	5de8bc74553cee8280a7dd84	4	1	main_slash	11	main_slash	3	stimuli_distractor_diamondtriangles.svg	stimuli_distractor_diamondtriangles.svg	39	no	0	1	2000	0	0			0	0			1				0	
6.6.1	win	2023-06-02	00:20:07	00:29:49	579131	5de8bc74553cee8280a7dd84	4	1	main_slash	11	advance_on_keypress_SLASH	4	stimuli_distractor_diamondtriangles.svg	stimuli_distractor_diamondtriangles.svg	39	no	57	0	271	0	0			0	0			1				0	
6.6.1	win	2023-06-02	00:20:07	00:29:50	580803	5de8bc74553cee8280a7dd84	4	1	main_slash	11	main_slash	5	stimuli_target_squaretriangles.svg	stimuli_distractor_trianglediamonds.svg	3	yes	53	1	755	0	0			0	0			1				0	
6.6.1	win	2023-06-02	00:20:07	00:29:50	580803	5de8bc74553cee8280a7dd84	4	1	main_slash	11	advance_on_keypress_SLASH	6	stimuli_target_squaretriangles.svg	stimuli_distractor_trianglediamonds.svg	3	yes	57	0	516	0	0			0	0			1				0	
6.6.1	win	2023-06-02	00:20:07	00:29:52	582618	5de8bc74553cee8280a7dd84	4	1	main_slash	11	main_slash	7	stimuli_distractor_diamondtriangles.svg	stimuli_target_squaretriangles.svg	15	yes	53	1	654	0	0			0	0			1				0	
6.6.1	win	2023-06-02	00:20:07	00:29:52	582618	5de8bc74553cee8280a7dd84	4	1	main_slash	11	advance_on_keypress_SLASH	8	stimuli_distractor_diamondtriangles.svg	stimuli_target_squaretriangles.svg	15	yes	57	0	332	0	0			0	0			1				0	
6.6.1	win	2023-06-02	00:20:07	00:29:55	585597	5de8bc74553cee8280a7dd84	4	1	main_slash	11	main_slash	9	stimuli_distractor_trianglediamonds.svg	stimuli_distractor_diamondtriangles.svg	35	no	0	1	2000	0	0			0	0			1				0	
6.6.1	win	2023-06-02	00:20:07	00:29:55	585597	5de8bc74553cee8280a7dd84	4	1	main_slash	11	advance_on_keypress_SLASH	10	stimuli_distractor_trianglediamonds.svg	stimuli_distractor_diamondtriangles.svg	35	no	57	0	357	0	0			0	0			1				0	
6.6.1	win	2023-06-02	00:20:07	00:29:57	587339	5de8bc74553cee8280a7dd84	4	1	main_slash	11	main_slash	11	stimuli_target_trianglesquares.svg	stimuli_distractor_diamondtriangles.svg	22	yes	53	1	741	0	0			0	0			1				0	
6.6.1	win	2023-06-02	00:20:07	00:29:57	587339	5de8bc74553cee8280a7dd84	4	1	main_slash	11	advance_on_keypress_SLASH	12	stimuli_target_trianglesquares.svg	stimuli_distractor_diamondtriangles.svg	22	yes	57	0	399	0	0			0	0			1				0	
6.6.1	win	2023-06-02	00:20:07	00:29:58	589026	5de8bc74553cee8280a7dd84	4	1	main_slash	11	main_slash	13	stimuli_distractor_diamondtriangles.svg	stimuli_target_rectanglediamonds.svg	14	yes	53	1	646	0	0			0	0			1				0	
6.6.1	win	2023-06-02	00:20:07	00:29:58	589026	5de8bc74553cee8280a7dd84	4	1	main_slash	11	advance_on_keypress_SLASH	14	stimuli_distractor_diamondtriangles.svg	stimuli_target_rectanglediamonds.svg	14	yes	57	0	324	0	0			0	0			1				0	
6.6.1	win	2023-06-02	00:20:07	00:30:00	590602	5de8bc74553cee8280a7dd84	4	1	main_slash	11	main_slash	15	stimuli_target_rectanglediamonds.svg	stimuli_distractor_diamondtriangles.svg	6	yes	53	1	622	0	0			0	0			1				0	
6.6.1	win	2023-06-02	00:20:07	00:30:00	590602	5de8bc74553cee8280a7dd84	4	1	main_slash	11	advance_on_keypress_SLASH	16	stimuli_target_rectanglediamonds.svg	stimuli_distractor_diamondtriangles.svg	6	yes	57	0	317	0	0			0	0			1				0	
6.6.1	win	2023-06-02	00:20:07	00:30:02	592114	5de8bc74553cee8280a7dd84	4	1	main_slash	11	main_slash	17	stimuli_distractor_diamondtriangles.svg	stimuli_target_rectangletriangles.svg	13	yes	53	1	551	0	0			0	0			1				0	
6.6.1	win	2023-06-02	00:20:07	00:30:02	592114	5de8bc74553cee8280a7dd84	4	1	main_slash	11	advance_on_keypress_SLASH	18	stimuli_distractor_diamondtriangles.svg	stimuli_target_rectangletriangles.svg	13	yes	57	0	1416	0	0			0	0			1				0	
6.6.1	win	2023-06-02	00:20:07	00:30:04	594906	5de8bc74553cee8280a7dd84	4	1	main_slash	11	main_slash	19	stimuli_distractor_trianglediamonds.svg	stimuli_target_squaretriangles.svg	11	yes	53	1	726	0	0			0	0			1				0	
6.6.1	win	2023-06-02	00:20:07	00:30:04	594906	5de8bc74553cee8280a7dd84	4	1	main_slash	11	advance_on_keypress_SLASH	20	stimuli_distractor_trianglediamonds.svg	stimuli_target_squaretriangles.svg	11	yes	57	0	1177	0	0			0	0			1				0	
6.6.1	win	2023-06-02	00:20:07	00:30:08	598714	5de8bc74553cee8280a7dd84	4	1	main_slash	11	main_slash	21	stimuli_distractor_diamondtriangles.svg	stimuli_distractor_trianglediamonds.svg	38	no	0	1	2000	0	0			0	0			1				0	
6.6.1	win	2023-06-02	00:20:07	00:30:08	598714	5de8bc74553cee8280a7dd84	4	1	main_slash	11	advance_on_keypress_SLASH	22	stimuli_distractor_diamondtriangles.svg	stimuli_distractor_trianglediamonds.svg	38	no	57	0	4568	0	0			0	0			1				0	
6.6.1	win	2023-06-02	00:20:07	00:30:14	604650	5de8bc74553cee8280a7dd84	4	1	main_slash	11	main_slash	23	stimuli_distractor_diamondtriangles.svg	stimuli_target_diamondrectangles.svg	31	yes	53	1	720	0	0			0	0			1				0	
6.6.1	win	2023-06-02	00:20:07	00:30:14	604650	5de8bc74553cee8280a7dd84	4	1	main_slash	11	advance_on_keypress_SLASH	24	stimuli_distractor_diamondtriangles.svg	stimuli_target_diamondrectangles.svg	31	yes	57	0	523	0	0			0	0			1				0	
6.6.1	win	2023-06-02	00:20:07	00:30:16	606818	5de8bc74553cee8280a7dd84	4	1	main_slash	11	main_slash	25	stimuli_distractor_trianglediamonds.svg	stimuli_target_diamondsquares.svg	28	yes	53	1	1005	0	0			0	0			1				0	
6.6.1	win	2023-06-02	00:20:07	00:30:16	606818	5de8bc74553cee8280a7dd84	4	1	main_slash	11	advance_on_keypress_SLASH	26	stimuli_distractor_trianglediamonds.svg	stimuli_target_diamondsquares.svg	28	yes	57	0	1380	0	0			0	0			1				0	
6.6.1	win	2023-06-02	00:20:07	00:30:19	609522	5de8bc74553cee8280a7dd84	4	1	main_slash	11	main_slash	27	stimuli_distractor_trianglediamonds.svg	stimuli_target_rectangletriangles.svg	9	yes	53	1	675	0	0			0	0			1				0	
6.6.1	win	2023-06-02	00:20:07	00:30:19	609522	5de8bc74553cee8280a7dd84	4	1	main_slash	11	advance_on_keypress_SLASH	28	stimuli_distractor_trianglediamonds.svg	stimuli_target_rectangletriangles.svg	9	yes	57	0	832	0	0			0	0			1				0	
6.6.1	win	2023-06-02	00:20:07	00:30:21	611882	5de8bc74553cee8280a7dd84	4	1	main_slash	11	main_slash	29	stimuli_distractor_trianglediamonds.svg	stimuli_target_diamondrectangles.svg	27	yes	53	1	885	0	0			0	0			1				0	
6.6.1	win	2023-06-02	00:20:07	00:30:21	611882	5de8bc74553cee8280a7dd84	4	1	main_slash	11	advance_on_keypress_SLASH	30	stimuli_distractor_trianglediamonds.svg	stimuli_target_diamondrectangles.svg	27	yes	57	0	585	0	0			0	0			1				0	
6.6.1	win	2023-06-02	00:20:07	00:30:25	615114	5de8bc74553cee8280a7dd84	4	1	main_slash	11	main_slash	31	stimuli_distractor_trianglediamonds.svg	stimuli_distractor_trianglediamonds.svg	34	no	0	1	2000	0	0			0	0			1				0	
6.6.1	win	2023-06-02	00:20:07	00:30:25	615114	5de8bc74553cee8280a7dd84	4	1	main_slash	11	advance_on_keypress_SLASH	32	stimuli_distractor_trianglediamonds.svg	stimuli_distractor_trianglediamonds.svg	34	no	57	0	416	0	0			0	0			1				0	
6.6.1	win	2023-06-02	00:20:07	00:30:28	618180	5de8bc74553cee8280a7dd84	4	1	main_slash	11	main_slash	33	stimuli_distractor_diamondtriangles.svg	stimuli_distractor_diamondtriangles.svg	40	no	0	1	2000	0	0			0	0			1				0	
6.6.1	win	2023-06-02	00:20:07	00:30:28	618180	5de8bc74553cee8280a7dd84	4	1	main_slash	11	advance_on_keypress_SLASH	34	stimuli_distractor_diamondtriangles.svg	stimuli_distractor_diamondtriangles.svg	40	no	57	0	309	0	0			0	0			1				0	
6.6.1	win	2023-06-02	00:20:07	00:30:29	619979	5de8bc74553cee8280a7dd84	4	1	main_slash	11	main_slash	35	stimuli_target_rectanglediamonds.svg	stimuli_distractor_trianglediamonds.svg	2	yes	53	1	848	0	0			0	0			1				0	
6.6.1	win	2023-06-02	00:20:07	00:30:29	619979	5de8bc74553cee8280a7dd84	4	1	main_slash	11	advance_on_keypress_SLASH	36	stimuli_target_rectanglediamonds.svg	stimuli_distractor_trianglediamonds.svg	2	yes	57	0	390	0	0			0	0			1				0	
6.6.1	win	2023-06-02	00:20:07	00:30:32	622314	5de8bc74553cee8280a7dd84	4	1	main_slash	11	main_slash	37	stimuli_target_trianglesquares.svg	stimuli_distractor_trianglediamonds.svg	18	yes	53	1	1301	0	0			0	0			1				0	
6.6.1	win	2023-06-02	00:20:07	00:30:32	622314	5de8bc74553cee8280a7dd84	4	1	main_slash	11	advance_on_keypress_SLASH	38	stimuli_target_trianglesquares.svg	stimuli_distractor_trianglediamonds.svg	18	yes	57	0	600	0	0			0	0			1				0	
6.6.1	win	2023-06-02	00:20:07	00:30:34	624282	5de8bc74553cee8280a7dd84	4	1	main_slash	11	main_slash	39	stimuli_target_squarediamonds.svg	stimuli_distractor_trianglediamonds.svg	4	yes	53	1	719	0	0			0	0			1				0	
6.6.1	win	2023-06-02	00:20:07	00:30:34	624282	5de8bc74553cee8280a7dd84	4	1	main_slash	11	advance_on_keypress_SLASH	40	stimuli_target_squarediamonds.svg	stimuli_distractor_trianglediamonds.svg	4	yes	57	0	338	0	0			0	0			1				0	
6.6.1	win	2023-06-02	00:20:07	00:30:37	627264	5de8bc74553cee8280a7dd84	4	1	main_slash	11	main_slash	41	stimuli_distractor_trianglediamonds.svg	stimuli_distractor_diamondtriangles.svg	36	no	0	1	2000	0	0			0	0			1				0	
6.6.1	win	2023-06-02	00:20:07	00:30:37	627264	5de8bc74553cee8280a7dd84	4	1	main_slash	11	advance_on_keypress_SLASH	42	stimuli_distractor_trianglediamonds.svg	stimuli_distractor_diamondtriangles.svg	36	no	57	0	514	0	0			0	0			1				0	
6.6.1	win	2023-06-02	00:20:07	00:30:39	629154	5de8bc74553cee8280a7dd84	4	1	main_slash	11	main_slash	43	stimuli_distractor_diamondtriangles.svg	stimuli_target_squarediamonds.svg	16	yes	53	1	724	0	0			0	0			1				0	
6.6.1	win	2023-06-02	00:20:07	00:30:39	629154	5de8bc74553cee8280a7dd84	4	1	main_slash	11	advance_on_keypress_SLASH	44	stimuli_distractor_diamondtriangles.svg	stimuli_target_squarediamonds.svg	16	yes	57	0	327	0	0			0	0			1				0	
6.6.1	win	2023-06-02	00:20:07	00:30:42	632121	5de8bc74553cee8280a7dd84	4	1	main_slash	11	main_slash	45	stimuli_distractor_diamondtriangles.svg	stimuli_distractor_trianglediamonds.svg	37	no	0	1	2000	0	0			0	0			1				0	
6.6.1	win	2023-06-02	00:20:07	00:30:42	632121	5de8bc74553cee8280a7dd84	4	1	main_slash	11	advance_on_keypress_SLASH	46	stimuli_distractor_diamondtriangles.svg	stimuli_distractor_trianglediamonds.svg	37	no	57	0	432	0	0			0	0			1				0	
6.6.1	win	2023-06-02	00:20:07	00:30:44	634170	5de8bc74553cee8280a7dd84	4	1	main_slash	11	main_slash	47	stimuli_distractor_diamondtriangles.svg	stimuli_target_diamondsquares.svg	32	yes	53	1	958	0	0			0	0			1				0	
6.6.1	win	2023-06-02	00:20:07	00:30:44	634170	5de8bc74553cee8280a7dd84	4	1	main_slash	11	advance_on_keypress_SLASH	48	stimuli_distractor_diamondtriangles.svg	stimuli_target_diamondsquares.svg	32	yes	57	0	278	0	0			0	0			1				0	
6.6.1	win	2023-06-02	00:20:07	00:30:47	637100	5de8bc74553cee8280a7dd84	4	1	main_slash	11	main_slash	49	stimuli_distractor_trianglediamonds.svg	stimuli_distractor_trianglediamonds.svg	33	no	0	1	2000	0	0			0	0			1				0	
6.6.1	win	2023-06-02	00:20:07	00:30:47	637100	5de8bc74553cee8280a7dd84	4	1	main_slash	11	advance_on_keypress_SLASH	50	stimuli_distractor_trianglediamonds.svg	stimuli_distractor_trianglediamonds.svg	33	no	57	0	313	0	0			0	0			1				0	
6.6.1	win	2023-06-02	00:20:07	00:30:48	638778	5de8bc74553cee8280a7dd84	4	1	main_slash	11	main_slash	51	stimuli_target_rectangletriangles.svg	stimuli_distractor_diamondtriangles.svg	5	yes	53	1	732	0	0			0	0			1				0	
6.6.1	win	2023-06-02	00:20:07	00:30:48	638778	5de8bc74553cee8280a7dd84	4	1	main_slash	11	advance_on_keypress_SLASH	52	stimuli_target_rectangletriangles.svg	stimuli_distractor_diamondtriangles.svg	5	yes	57	0	286	0	0			0	0			1				0	
6.6.1	win	2023-06-02	00:20:07	00:30:50	640426	5de8bc74553cee8280a7dd84	4	1	main_slash	11	main_slash	53	stimuli_distractor_trianglediamonds.svg	stimuli_target_rectanglediamonds.svg	10	yes	53	1	713	0	0			0	0			1				0	
6.6.1	win	2023-06-02	00:20:07	00:30:50	640426	5de8bc74553cee8280a7dd84	4	1	main_slash	11	advance_on_keypress_SLASH	54	stimuli_distractor_trianglediamonds.svg	stimuli_target_rectanglediamonds.svg	10	yes	57	0	396	0	0			0	0			1				0	
6.6.1	win	2023-06-02	00:20:07	00:30:52	642850	5de8bc74553cee8280a7dd84	4	1	main_slash	11	main_slash	55	stimuli_target_trianglerectangles.svg	stimuli_distractor_diamondtriangles.svg	21	yes	53	1	1404	0	0			0	0			1				0	
6.6.1	win	2023-06-02	00:20:07	00:30:52	642850	5de8bc74553cee8280a7dd84	4	1	main_slash	11	advance_on_keypress_SLASH	56	stimuli_target_trianglerectangles.svg	stimuli_distractor_diamondtriangles.svg	21	yes	57	0	395	0	0			0	0			1				0	
6.6.1	win	2023-06-02	00:20:07	00:30:54	644666	5de8bc74553cee8280a7dd84	4	1	main_slash	11	main_slash	57	stimuli_target_diamondrectangles.svg	stimuli_distractor_diamondtriangles.svg	23	yes	53	1	786	0	0			0	0			1				0	
6.6.1	win	2023-06-02	00:20:07	00:30:54	644666	5de8bc74553cee8280a7dd84	4	1	main_slash	11	advance_on_keypress_SLASH	58	stimuli_target_diamondrectangles.svg	stimuli_distractor_diamondtriangles.svg	23	yes	57	0	338	0	0			0	0			1				0	
6.6.1	win	2023-06-02	00:20:07	00:30:56	646490	5de8bc74553cee8280a7dd84	4	1	main_slash	11	main_slash	59	stimuli_target_diamondrectangles.svg	stimuli_distractor_trianglediamonds.svg	19	yes	53	1	844	0	0			0	0			1				0	
6.6.1	win	2023-06-02	00:20:07	00:30:56	646490	5de8bc74553cee8280a7dd84	4	1	main_slash	11	advance_on_keypress_SLASH	60	stimuli_target_diamondrectangles.svg	stimuli_distractor_trianglediamonds.svg	19	yes	57	0	298	0	0			0	0			1				0	
6.6.1	win	2023-06-02	00:20:07	00:30:58	648162	5de8bc74553cee8280a7dd84	4	1	main_slash	11	main_slash	61	stimuli_target_diamondsquares.svg	stimuli_distractor_trianglediamonds.svg	20	yes	53	1	732	0	0			0	0			1				0	
6.6.1	win	2023-06-02	00:20:07	00:30:58	648162	5de8bc74553cee8280a7dd84	4	1	main_slash	11	advance_on_keypress_SLASH	62	stimuli_target_diamondsquares.svg	stimuli_distractor_trianglediamonds.svg	20	yes	57	0	302	0	0			0	0			1				0	
6.6.1	win	2023-06-02	00:20:07	00:30:59	649914	5de8bc74553cee8280a7dd84	4	1	main_slash	11	main_slash	63	stimuli_distractor_trianglediamonds.svg	stimuli_target_trianglesquares.svg	26	yes	53	1	801	0	0			0	0			1				0	
6.6.1	win	2023-06-02	00:20:07	00:30:59	649914	5de8bc74553cee8280a7dd84	4	1	main_slash	11	advance_on_keypress_SLASH	64	stimuli_distractor_trianglediamonds.svg	stimuli_target_trianglesquares.svg	26	yes	57	0	520	0	0			0	0			1				0	
6.6.1	win	2023-06-02	00:20:07	00:31:01	651754	5de8bc74553cee8280a7dd84	4	1	main_slash	11	main_slash	65	stimuli_target_trianglerectangles.svg	stimuli_distractor_trianglediamonds.svg	17	yes	53	1	674	0	0			0	0			1				0	
6.6.1	win	2023-06-02	00:20:07	00:31:01	651754	5de8bc74553cee8280a7dd84	4	1	main_slash	11	advance_on_keypress_SLASH	66	stimuli_target_trianglerectangles.svg	stimuli_distractor_trianglediamonds.svg	17	yes	57	0	367	0	0			0	0			1				0	
6.6.1	win	2023-06-02	00:20:07	00:31:03	653466	5de8bc74553cee8280a7dd84	4	1	main_slash	11	main_slash	67	stimuli_distractor_diamondtriangles.svg	stimuli_target_trianglesquares.svg	30	yes	53	1	703	0	0			0	0			1				0	
6.6.1	win	2023-06-02	00:20:07	00:31:03	653466	5de8bc74553cee8280a7dd84	4	1	main_slash	11	advance_on_keypress_SLASH	68	stimuli_distractor_diamondtriangles.svg	stimuli_target_trianglesquares.svg	30	yes	57	0	378	0	0			0	0			1				0	
6.6.1	win	2023-06-02	00:20:07	00:31:05	655178	5de8bc74553cee8280a7dd84	4	1	main_slash	11	main_slash	69	stimuli_distractor_trianglediamonds.svg	stimuli_target_trianglerectangles.svg	25	yes	53	1	698	0	0			0	0			1				0	
6.6.1	win	2023-06-02	00:20:07	00:31:05	655178	5de8bc74553cee8280a7dd84	4	1	main_slash	11	advance_on_keypress_SLASH	70	stimuli_distractor_trianglediamonds.svg	stimuli_target_trianglerectangles.svg	25	yes	57	0	366	0	0			0	0			1				0	
6.6.1	win	2023-06-02	00:20:07	00:31:06	656866	5de8bc74553cee8280a7dd84	4	1	main_slash	11	main_slash	71	stimuli_distractor_trianglediamonds.svg	stimuli_target_squarediamonds.svg	12	yes	53	1	670	0	0			0	0			1				0	
6.6.1	win	2023-06-02	00:20:07	00:31:06	656866	5de8bc74553cee8280a7dd84	4	1	main_slash	11	advance_on_keypress_SLASH	72	stimuli_distractor_trianglediamonds.svg	stimuli_target_squarediamonds.svg	12	yes	57	0	570	0	0			0	0			1				0	
6.6.1	win	2023-06-02	00:20:07	00:31:08	658722	5de8bc74553cee8280a7dd84	4	1	main_slash	11	main_slash	73	stimuli_target_squarediamonds.svg	stimuli_distractor_diamondtriangles.svg	8	yes	53	1	642	0	0			0	0			1				0	
6.6.1	win	2023-06-02	00:20:07	00:31:08	658722	5de8bc74553cee8280a7dd84	4	1	main_slash	11	advance_on_keypress_SLASH	74	stimuli_target_squarediamonds.svg	stimuli_distractor_diamondtriangles.svg	8	yes	57	0	241	0	0			0	0			1				0	
6.6.1	win	2023-06-02	00:20:07	00:31:10	660242	5de8bc74553cee8280a7dd84	4	1	main_slash	11	main_slash	75	stimuli_distractor_diamondtriangles.svg	stimuli_target_trianglerectangles.svg	29	yes	53	1	646	0	0			0	0			1				0	
6.6.1	win	2023-06-02	00:20:07	00:31:10	660242	5de8bc74553cee8280a7dd84	4	1	main_slash	11	advance_on_keypress_SLASH	76	stimuli_distractor_diamondtriangles.svg	stimuli_target_trianglerectangles.svg	29	yes	57	0	388	0	0			0	0			1				0	
6.6.1	win	2023-06-02	00:20:07	00:31:11	661954	5de8bc74553cee8280a7dd84	4	1	main_slash	11	main_slash	77	stimuli_target_rectangletriangles.svg	stimuli_distractor_trianglediamonds.svg	1	yes	53	1	691	0	0			0	0			1				0	
6.6.1	win	2023-06-02	00:20:07	00:31:11	661954	5de8bc74553cee8280a7dd84	4	1	main_slash	11	advance_on_keypress_SLASH	78	stimuli_target_rectangletriangles.svg	stimuli_distractor_trianglediamonds.svg	1	yes	57	0	383	0	0			0	0			1				0	
6.6.1	win	2023-06-02	00:20:07	00:31:13	663618	5de8bc74553cee8280a7dd84	4	1	main_slash	11	main_slash	79	stimuli_target_squaretriangles.svg	stimuli_distractor_diamondtriangles.svg	7	yes	53	1	639	0	0			0	0			1				0	
6.6.1	win	2023-06-02	00:20:07	00:31:13	663618	5de8bc74553cee8280a7dd84	4	1	main_slash	11	advance_on_keypress_SLASH	80	stimuli_target_squaretriangles.svg	stimuli_distractor_diamondtriangles.svg	7	yes	57	0	365	0	0			0	0			1				0	
6.6.1	win	2023-06-02	00:20:07	00:31:15	665298	5de8bc74553cee8280a7dd84	4	1	main_slash	11	main_slash	81	stimuli_target_rectangletriangles.svg	stimuli_distractor_diamondtriangles.svg	5	yes	53	1	669	0	0			0	0			1				0	
6.6.1	win	2023-06-02	00:20:07	00:31:15	665298	5de8bc74553cee8280a7dd84	4	1	main_slash	11	advance_on_keypress_SLASH	82	stimuli_target_rectangletriangles.svg	stimuli_distractor_diamondtriangles.svg	5	yes	57	0	305	0	0			0	0			1				0	
6.6.1	win	2023-06-02	00:20:07	00:31:16	666915	5de8bc74553cee8280a7dd84	4	1	main_slash	11	main_slash	83	stimuli_distractor_diamondtriangles.svg	stimuli_target_rectanglediamonds.svg	14	yes	53	1	668	0	0			0	0			1				0	
6.6.1	win	2023-06-02	00:20:07	00:31:16	666915	5de8bc74553cee8280a7dd84	4	1	main_slash	11	advance_on_keypress_SLASH	84	stimuli_distractor_diamondtriangles.svg	stimuli_target_rectanglediamonds.svg	14	yes	57	0	353	0	0			0	0			1				0	
6.6.1	win	2023-06-02	00:20:07	00:31:18	668586	5de8bc74553cee8280a7dd84	4	1	main_slash	11	main_slash	85	stimuli_target_trianglerectangles.svg	stimuli_distractor_trianglediamonds.svg	17	yes	53	1	673	0	0			0	0			1				0	
6.6.1	win	2023-06-02	00:20:07	00:31:18	668586	5de8bc74553cee8280a7dd84	4	1	main_slash	11	advance_on_keypress_SLASH	86	stimuli_target_trianglerectangles.svg	stimuli_distractor_trianglediamonds.svg	17	yes	57	0	382	0	0			0	0			1				0	
6.6.1	win	2023-06-02	00:20:07	00:31:20	670507	5de8bc74553cee8280a7dd84	4	1	main_slash	11	main_slash	87	stimuli_distractor_trianglediamonds.svg	stimuli_target_rectangletriangles.svg	9	yes	53	1	893	0	0			0	0			1				0	
6.6.1	win	2023-06-02	00:20:07	00:31:20	670507	5de8bc74553cee8280a7dd84	4	1	main_slash	11	advance_on_keypress_SLASH	88	stimuli_distractor_trianglediamonds.svg	stimuli_target_rectangletriangles.svg	9	yes	57	0	289	0	0			0	0			1				0	
6.6.1	win	2023-06-02	00:20:07	00:31:22	672154	5de8bc74553cee8280a7dd84	4	1	main_slash	11	main_slash	89	stimuli_target_squaretriangles.svg	stimuli_distractor_diamondtriangles.svg	7	yes	53	1	725	0	0			0	0			1				0	
6.6.1	win	2023-06-02	00:20:07	00:31:22	672154	5de8bc74553cee8280a7dd84	4	1	main_slash	11	advance_on_keypress_SLASH	90	stimuli_target_squaretriangles.svg	stimuli_distractor_diamondtriangles.svg	7	yes	57	0	223	0	0			0	0			1				0	
6.6.1	win	2023-06-02	00:20:07	00:31:23	673666	5de8bc74553cee8280a7dd84	4	1	main_slash	11	main_slash	91	stimuli_distractor_diamondtriangles.svg	stimuli_target_squarediamonds.svg	16	yes	53	1	653	0	0			0	0			1				0	
6.6.1	win	2023-06-02	00:20:07	00:31:23	673666	5de8bc74553cee8280a7dd84	4	1	main_slash	11	advance_on_keypress_SLASH	92	stimuli_distractor_diamondtriangles.svg	stimuli_target_squarediamonds.svg	16	yes	57	0	291	0	0			0	0			1				0	
6.6.1	win	2023-06-02	00:20:07	00:31:25	675306	5de8bc74553cee8280a7dd84	4	1	main_slash	11	main_slash	93	stimuli_distractor_trianglediamonds.svg	stimuli_target_diamondrectangles.svg	27	yes	53	1	710	0	0			0	0			1				0	
6.6.1	win	2023-06-02	00:20:07	00:31:25	675306	5de8bc74553cee8280a7dd84	4	1	main_slash	11	advance_on_keypress_SLASH	94	stimuli_distractor_trianglediamonds.svg	stimuli_target_diamondrectangles.svg	27	yes	57	0	313	0	0			0	0			1				0	
6.6.1	win	2023-06-02	00:20:07	00:31:28	678263	5de8bc74553cee8280a7dd84	4	1	main_slash	11	main_slash	95	stimuli_distractor_trianglediamonds.svg	stimuli_distractor_trianglediamonds.svg	33	no	0	1	2000	0	0			0	0			1				0	
6.6.1	win	2023-06-02	00:20:07	00:31:28	678263	5de8bc74553cee8280a7dd84	4	1	main_slash	11	advance_on_keypress_SLASH	96	stimuli_distractor_trianglediamonds.svg	stimuli_distractor_trianglediamonds.svg	33	no	57	0	387	0	0			0	0			1				0	
6.6.1	win	2023-06-02	00:20:07	00:31:29	679986	5de8bc74553cee8280a7dd84	4	1	main_slash	11	main_slash	97	stimuli_target_rectanglediamonds.svg	stimuli_distractor_diamondtriangles.svg	6	yes	53	1	690	0	0			0	0			1				0	
6.6.1	win	2023-06-02	00:20:07	00:31:29	679986	5de8bc74553cee8280a7dd84	4	1	main_slash	11	advance_on_keypress_SLASH	98	stimuli_target_rectanglediamonds.svg	stimuli_distractor_diamondtriangles.svg	6	yes	57	0	358	0	0			0	0			1				0	
6.6.1	win	2023-06-02	00:20:07	00:31:31	681698	5de8bc74553cee8280a7dd84	4	1	main_slash	11	main_slash	99	stimuli_target_rectanglediamonds.svg	stimuli_distractor_trianglediamonds.svg	2	yes	53	1	719	0	0			0	0			1				0	
6.6.1	win	2023-06-02	00:20:07	00:31:31	681698	5de8bc74553cee8280a7dd84	4	1	main_slash	11	advance_on_keypress_SLASH	100	stimuli_target_rectanglediamonds.svg	stimuli_distractor_trianglediamonds.svg	2	yes	57	0	289	0	0			0	0			1				0	
6.6.1	win	2023-06-02	00:20:07	00:31:34	684630	5de8bc74553cee8280a7dd84	4	1	main_slash	11	main_slash	101	stimuli_distractor_trianglediamonds.svg	stimuli_distractor_trianglediamonds.svg	34	no	0	1	2000	0	0			0	0			1				0	
6.6.1	win	2023-06-02	00:20:07	00:31:34	684630	5de8bc74553cee8280a7dd84	4	1	main_slash	11	advance_on_keypress_SLASH	102	stimuli_distractor_trianglediamonds.svg	stimuli_distractor_trianglediamonds.svg	34	no	57	0	468	0	0			0	0			1				0	
6.6.1	win	2023-06-02	00:20:07	00:31:36	686514	5de8bc74553cee8280a7dd84	4	1	main_slash	11	main_slash	103	stimuli_distractor_diamondtriangles.svg	stimuli_target_diamondrectangles.svg	31	yes	53	1	768	0	0			0	0			1				0	
6.6.1	win	2023-06-02	00:20:07	00:31:36	686514	5de8bc74553cee8280a7dd84	4	1	main_slash	11	advance_on_keypress_SLASH	104	stimuli_distractor_diamondtriangles.svg	stimuli_target_diamondrectangles.svg	31	yes	57	0	321	0	0			0	0			1				0	
6.6.1	win	2023-06-02	00:20:07	00:31:38	688314	5de8bc74553cee8280a7dd84	4	1	main_slash	11	main_slash	105	stimuli_distractor_diamondtriangles.svg	stimuli_target_squaretriangles.svg	15	yes	53	1	835	0	0			0	0			1				0	
6.6.1	win	2023-06-02	00:20:07	00:31:38	688314	5de8bc74553cee8280a7dd84	4	1	main_slash	11	advance_on_keypress_SLASH	106	stimuli_distractor_diamondtriangles.svg	stimuli_target_squaretriangles.svg	15	yes	57	0	409	0	0			0	0			1				0	
6.6.1	win	2023-06-02	00:20:07	00:31:40	690145	5de8bc74553cee8280a7dd84	4	1	main_slash	11	main_slash	107	stimuli_distractor_trianglediamonds.svg	stimuli_target_trianglesquares.svg	26	yes	53	1	751	0	0			0	0			1				0	
6.6.1	win	2023-06-02	00:20:07	00:31:40	690145	5de8bc74553cee8280a7dd84	4	1	main_slash	11	advance_on_keypress_SLASH	108	stimuli_distractor_trianglediamonds.svg	stimuli_target_trianglesquares.svg	26	yes	57	0	343	0	0			0	0			1				0	
6.6.1	win	2023-06-02	00:20:07	00:31:41	691994	5de8bc74553cee8280a7dd84	4	1	main_slash	11	main_slash	109	stimuli_target_squaretriangles.svg	stimuli_distractor_trianglediamonds.svg	3	yes	53	1	848	0	0			0	0			1				0	
6.6.1	win	2023-06-02	00:20:07	00:31:41	691994	5de8bc74553cee8280a7dd84	4	1	main_slash	11	advance_on_keypress_SLASH	110	stimuli_target_squaretriangles.svg	stimuli_distractor_trianglediamonds.svg	3	yes	57	0	390	0	0			0	0			1				0	
6.6.1	win	2023-06-02	00:20:07	00:31:43	693867	5de8bc74553cee8280a7dd84	4	1	main_slash	11	main_slash	111	stimuli_target_rectangletriangles.svg	stimuli_distractor_trianglediamonds.svg	1	yes	53	1	837	0	0			0	0			1				0	
6.6.1	win	2023-06-02	00:20:07	00:31:43	693867	5de8bc74553cee8280a7dd84	4	1	main_slash	11	advance_on_keypress_SLASH	112	stimuli_target_rectangletriangles.svg	stimuli_distractor_trianglediamonds.svg	1	yes	57	0	347	0	0			0	0			1				0	
6.6.1	win	2023-06-02	00:20:07	00:31:45	695698	5de8bc74553cee8280a7dd84	4	1	main_slash	11	main_slash	113	stimuli_target_diamondsquares.svg	stimuli_distractor_trianglediamonds.svg	20	yes	53	1	852	0	0			0	0			1				0	
6.6.1	win	2023-06-02	00:20:07	00:31:45	695698	5de8bc74553cee8280a7dd84	4	1	main_slash	11	advance_on_keypress_SLASH	114	stimuli_target_diamondsquares.svg	stimuli_distractor_trianglediamonds.svg	20	yes	57	0	353	0	0			0	0			1				0	
6.6.1	win	2023-06-02	00:20:07	00:31:47	697466	5de8bc74553cee8280a7dd84	4	1	main_slash	11	main_slash	115	stimuli_distractor_trianglediamonds.svg	stimuli_target_squarediamonds.svg	12	yes	53	1	770	0	0			0	0			1				0	
6.6.1	win	2023-06-02	00:20:07	00:31:47	697466	5de8bc74553cee8280a7dd84	4	1	main_slash	11	advance_on_keypress_SLASH	116	stimuli_distractor_trianglediamonds.svg	stimuli_target_squarediamonds.svg	12	yes	57	0	355	0	0			0	0			1				0	
6.6.1	win	2023-06-02	00:20:07	00:31:49	699267	5de8bc74553cee8280a7dd84	4	1	main_slash	11	main_slash	117	stimuli_distractor_diamondtriangles.svg	stimuli_target_diamondsquares.svg	32	yes	53	1	804	0	0			0	0			1				0	
6.6.1	win	2023-06-02	00:20:07	00:31:49	699267	5de8bc74553cee8280a7dd84	4	1	main_slash	11	advance_on_keypress_SLASH	118	stimuli_distractor_diamondtriangles.svg	stimuli_target_diamondsquares.svg	32	yes	57	0	355	0	0			0	0			1				0	
6.6.1	win	2023-06-02	00:20:07	00:31:51	701050	5de8bc74553cee8280a7dd84	4	1	main_slash	11	main_slash	119	stimuli_distractor_diamondtriangles.svg	stimuli_target_trianglesquares.svg	30	yes	53	1	788	0	0			0	0			1				0	
6.6.1	win	2023-06-02	00:20:07	00:31:51	701050	5de8bc74553cee8280a7dd84	4	1	main_slash	11	advance_on_keypress_SLASH	120	stimuli_distractor_diamondtriangles.svg	stimuli_target_trianglesquares.svg	30	yes	57	0	371	0	0			0	0			1				0	
6.6.1	win	2023-06-02	00:20:07	00:31:54	704063	5de8bc74553cee8280a7dd84	4	1	main_slash	11	main_slash	121	stimuli_distractor_diamondtriangles.svg	stimuli_distractor_diamondtriangles.svg	39	no	0	1	2000	0	0			0	0			1				0	
6.6.1	win	2023-06-02	00:20:07	00:31:54	704063	5de8bc74553cee8280a7dd84	4	1	main_slash	11	advance_on_keypress_SLASH	122	stimuli_distractor_diamondtriangles.svg	stimuli_distractor_diamondtriangles.svg	39	no	57	0	1283	0	0			0	0			1				0	
6.6.1	win	2023-06-02	00:20:07	00:31:56	706746	5de8bc74553cee8280a7dd84	4	1	main_slash	11	main_slash	123	stimuli_distractor_trianglediamonds.svg	stimuli_target_rectanglediamonds.svg	10	yes	53	1	750	0	0			0	0			1				0	
6.6.1	win	2023-06-02	00:20:07	00:31:56	706746	5de8bc74553cee8280a7dd84	4	1	main_slash	11	advance_on_keypress_SLASH	124	stimuli_distractor_trianglediamonds.svg	stimuli_target_rectanglediamonds.svg	10	yes	57	0	312	0	0			0	0			1				0	
6.6.1	win	2023-06-02	00:20:07	00:31:59	709696	5de8bc74553cee8280a7dd84	4	1	main_slash	11	main_slash	125	stimuli_distractor_diamondtriangles.svg	stimuli_distractor_diamondtriangles.svg	40	no	0	1	2000	0	0			0	0			1				0	
6.6.1	win	2023-06-02	00:20:07	00:31:59	709696	5de8bc74553cee8280a7dd84	4	1	main_slash	11	advance_on_keypress_SLASH	126	stimuli_distractor_diamondtriangles.svg	stimuli_distractor_diamondtriangles.svg	40	no	57	0	522	0	0			0	0			1				0	
6.6.1	win	2023-06-02	00:20:07	00:32:01	711690	5de8bc74553cee8280a7dd84	4	1	main_slash	11	main_slash	127	stimuli_target_trianglerectangles.svg	stimuli_distractor_diamondtriangles.svg	21	yes	53	1	828	0	0			0	0			1				0	
6.6.1	win	2023-06-02	00:20:07	00:32:01	711690	5de8bc74553cee8280a7dd84	4	1	main_slash	11	advance_on_keypress_SLASH	128	stimuli_target_trianglerectangles.svg	stimuli_distractor_diamondtriangles.svg	21	yes	57	0	394	0	0			0	0			1				0	
6.6.1	win	2023-06-02	00:20:07	00:32:03	713499	5de8bc74553cee8280a7dd84	4	1	main_slash	11	main_slash	129	stimuli_target_diamondrectangles.svg	stimuli_distractor_diamondtriangles.svg	23	yes	53	1	778	0	0			0	0			1				0	
6.6.1	win	2023-06-02	00:20:07	00:32:03	713499	5de8bc74553cee8280a7dd84	4	1	main_slash	11	advance_on_keypress_SLASH	130	stimuli_target_diamondrectangles.svg	stimuli_distractor_diamondtriangles.svg	23	yes	57	0	290	0	0			0	0			1				0	
6.6.1	win	2023-06-02	00:20:07	00:32:05	715266	5de8bc74553cee8280a7dd84	4	1	main_slash	11	main_slash	131	stimuli_target_squarediamonds.svg	stimuli_distractor_diamondtriangles.svg	8	yes	53	1	812	0	0			0	0			1				0	
6.6.1	win	2023-06-02	00:20:07	00:32:05	715266	5de8bc74553cee8280a7dd84	4	1	main_slash	11	advance_on_keypress_SLASH	132	stimuli_target_squarediamonds.svg	stimuli_distractor_diamondtriangles.svg	8	yes	57	0	267	0	0			0	0			1				0	
6.6.1	win	2023-06-02	00:20:07	00:32:08	718179	5de8bc74553cee8280a7dd84	4	1	main_slash	11	main_slash	133	stimuli_distractor_diamondtriangles.svg	stimuli_distractor_trianglediamonds.svg	37	no	0	1	2000	0	0			0	0			1				0	
6.6.1	win	2023-06-02	00:20:07	00:32:08	718179	5de8bc74553cee8280a7dd84	4	1	main_slash	11	advance_on_keypress_SLASH	134	stimuli_distractor_diamondtriangles.svg	stimuli_distractor_trianglediamonds.svg	37	no	57	0	398	0	0			0	0			1				0	
6.6.1	win	2023-06-02	00:20:07	00:32:09	720002	5de8bc74553cee8280a7dd84	4	1	main_slash	11	main_slash	135	stimuli_distractor_trianglediamonds.svg	stimuli_target_squaretriangles.svg	11	yes	53	1	773	0	0			0	0			1				0	
6.6.1	win	2023-06-02	00:20:07	00:32:09	720002	5de8bc74553cee8280a7dd84	4	1	main_slash	11	advance_on_keypress_SLASH	136	stimuli_distractor_trianglediamonds.svg	stimuli_target_squaretriangles.svg	11	yes	57	0	374	0	0			0	0			1				0	
6.6.1	win	2023-06-02	00:20:07	00:32:11	721762	5de8bc74553cee8280a7dd84	4	1	main_slash	11	main_slash	137	stimuli_target_trianglesquares.svg	stimuli_distractor_diamondtriangles.svg	22	yes	53	1	750	0	0			0	0			1				0	
6.6.1	win	2023-06-02	00:20:07	00:32:11	721762	5de8bc74553cee8280a7dd84	4	1	main_slash	11	advance_on_keypress_SLASH	138	stimuli_target_trianglesquares.svg	stimuli_distractor_diamondtriangles.svg	22	yes	57	0	327	0	0			0	0			1				0	
6.6.1	win	2023-06-02	00:20:07	00:32:13	723538	5de8bc74553cee8280a7dd84	4	1	main_slash	11	main_slash	139	stimuli_distractor_trianglediamonds.svg	stimuli_target_diamondsquares.svg	28	yes	53	1	809	0	0			0	0			1				0	
6.6.1	win	2023-06-02	00:20:07	00:32:13	723538	5de8bc74553cee8280a7dd84	4	1	main_slash	11	advance_on_keypress_SLASH	140	stimuli_distractor_trianglediamonds.svg	stimuli_target_diamondsquares.svg	28	yes	57	0	344	0	0			0	0			1				0	
6.6.1	win	2023-06-02	00:20:07	00:32:15	725218	5de8bc74553cee8280a7dd84	4	1	main_slash	11	main_slash	141	stimuli_target_diamondsquares.svg	stimuli_distractor_diamondtriangles.svg	24	yes	53	1	706	0	0			0	0			1				0	
6.6.1	win	2023-06-02	00:20:07	00:32:15	725218	5de8bc74553cee8280a7dd84	4	1	main_slash	11	advance_on_keypress_SLASH	142	stimuli_target_diamondsquares.svg	stimuli_distractor_diamondtriangles.svg	24	yes	57	0	333	0	0			0	0			1				0	
6.6.1	win	2023-06-02	00:20:07	00:32:16	726978	5de8bc74553cee8280a7dd84	4	1	main_slash	11	main_slash	143	stimuli_target_trianglesquares.svg	stimuli_distractor_trianglediamonds.svg	18	yes	53	1	766	0	0			0	0			1				0	
6.6.1	win	2023-06-02	00:20:07	00:32:16	726978	5de8bc74553cee8280a7dd84	4	1	main_slash	11	advance_on_keypress_SLASH	144	stimuli_target_trianglesquares.svg	stimuli_distractor_trianglediamonds.svg	18	yes	57	0	287	0	0			0	0			1				0	
6.6.1	win	2023-06-02	00:20:07	00:32:18	728682	5de8bc74553cee8280a7dd84	4	1	main_slash	11	main_slash	145	stimuli_target_diamondrectangles.svg	stimuli_distractor_trianglediamonds.svg	19	yes	53	1	770	0	0			0	0			1				0	
6.6.1	win	2023-06-02	00:20:07	00:32:18	728682	5de8bc74553cee8280a7dd84	4	1	main_slash	11	advance_on_keypress_SLASH	146	stimuli_target_diamondrectangles.svg	stimuli_distractor_trianglediamonds.svg	19	yes	57	0	299	0	0			0	0			1				0	
6.6.1	win	2023-06-02	00:20:07	00:32:20	730634	5de8bc74553cee8280a7dd84	4	1	main_slash	11	main_slash	147	stimuli_distractor_diamondtriangles.svg	stimuli_target_rectangletriangles.svg	13	yes	53	1	1005	0	0			0	0			1				0	
6.6.1	win	2023-06-02	00:20:07	00:32:20	730634	5de8bc74553cee8280a7dd84	4	1	main_slash	11	advance_on_keypress_SLASH	148	stimuli_distractor_diamondtriangles.svg	stimuli_target_rectangletriangles.svg	13	yes	57	0	341	0	0			0	0			1				0	
6.6.1	win	2023-06-02	00:20:07	00:32:23	733613	5de8bc74553cee8280a7dd84	4	1	main_slash	11	main_slash	149	stimuli_distractor_trianglediamonds.svg	stimuli_distractor_diamondtriangles.svg	35	no	0	1	2000	0	0			0	0			1				0	
6.6.1	win	2023-06-02	00:20:07	00:32:23	733613	5de8bc74553cee8280a7dd84	4	1	main_slash	11	advance_on_keypress_SLASH	150	stimuli_distractor_trianglediamonds.svg	stimuli_distractor_diamondtriangles.svg	35	no	57	0	333	0	0			0	0			1				0	
6.6.1	win	2023-06-02	00:20:07	00:32:26	736596	5de8bc74553cee8280a7dd84	4	1	main_slash	11	main_slash	151	stimuli_distractor_diamondtriangles.svg	stimuli_distractor_trianglediamonds.svg	38	no	0	1	2000	0	0			0	0			1				0	
6.6.1	win	2023-06-02	00:20:07	00:32:26	736596	5de8bc74553cee8280a7dd84	4	1	main_slash	11	advance_on_keypress_SLASH	152	stimuli_distractor_diamondtriangles.svg	stimuli_distractor_trianglediamonds.svg	38	no	57	0	286	0	0			0	0			1				0	
6.6.1	win	2023-06-02	00:20:07	00:32:28	738354	5de8bc74553cee8280a7dd84	4	1	main_slash	11	main_slash	153	stimuli_distractor_trianglediamonds.svg	stimuli_target_trianglerectangles.svg	25	yes	53	1	825	0	0			0	0			1				0	
6.6.1	win	2023-06-02	00:20:07	00:32:28	738354	5de8bc74553cee8280a7dd84	4	1	main_slash	11	advance_on_keypress_SLASH	154	stimuli_distractor_trianglediamonds.svg	stimuli_target_trianglerectangles.svg	25	yes	57	0	296	0	0			0	0			1				0	
6.6.1	win	2023-06-02	00:20:07	00:32:30	740210	5de8bc74553cee8280a7dd84	4	1	main_slash	11	main_slash	155	stimuli_distractor_diamondtriangles.svg	stimuli_target_trianglerectangles.svg	29	yes	53	1	931	0	0			0	0			1				0	
6.6.1	win	2023-06-02	00:20:07	00:32:30	740210	5de8bc74553cee8280a7dd84	4	1	main_slash	11	advance_on_keypress_SLASH	156	stimuli_distractor_diamondtriangles.svg	stimuli_target_trianglerectangles.svg	29	yes	57	0	613	0	0			0	0			1				0	
6.6.1	win	2023-06-02	00:20:07	00:32:32	742266	5de8bc74553cee8280a7dd84	4	1	main_slash	11	main_slash	157	stimuli_target_squarediamonds.svg	stimuli_distractor_trianglediamonds.svg	4	yes	53	1	804	0	0			0	0			1				0	
6.6.1	win	2023-06-02	00:20:07	00:32:32	742266	5de8bc74553cee8280a7dd84	4	1	main_slash	11	advance_on_keypress_SLASH	158	stimuli_target_squarediamonds.svg	stimuli_distractor_trianglediamonds.svg	4	yes	57	0	347	0	0			0	0			1				0	
6.6.1	win	2023-06-02	00:20:07	00:32:35	745272	5de8bc74553cee8280a7dd84	4	1	main_slash	11	main_slash	159	stimuli_distractor_trianglediamonds.svg	stimuli_distractor_diamondtriangles.svg	36	no	0	1	2000	0	0			0	0			1				0	
6.6.1	win	2023-06-02	00:20:07	00:32:35	745272	5de8bc74553cee8280a7dd84	4	1	main_slash	11	advance_on_keypress_SLASH	160	stimuli_distractor_trianglediamonds.svg	stimuli_distractor_diamondtriangles.svg	36	no	57	0	563	0	0			0	0			1				0	
6.6.1	win	2023-06-02	00:20:07	00:32:35	745272	5de8bc74553cee8280a7dd84	4	1	headphonecheck_calibration	14	headphonecheck_calibrationIntro	1	stimuli_distractor_trianglediamonds.svg	stimuli_distractor_diamondtriangles.svg	36	no	calibrationButton	0	4307	0	0			0	0			1				0	
6.6.1	win	2023-06-02	00:20:07	00:32:35	745272	5de8bc74553cee8280a7dd84	4	1	headphonecheck_testphase	15	test_collectResponse	3	stimuli_distractor_trianglediamonds.svg	stimuli_distractor_diamondtriangles.svg	36	no	first	1	12337	1	3	antiphase_hc_soi.wav	1	0	0			1				0	
6.6.1	win	2023-06-02	00:20:07	00:32:35	745272	5de8bc74553cee8280a7dd84	4	1	headphonecheck_testphase	15	test_collectResponse	6	stimuli_distractor_trianglediamonds.svg	stimuli_distractor_diamondtriangles.svg	36	no	second	1	358	2	5	antiphase_hc_osi.wav	2	0	0			1				0	
6.6.1	win	2023-06-02	00:20:07	00:32:35	745272	5de8bc74553cee8280a7dd84	4	1	headphonecheck_testphase	15	test_collectResponse	9	stimuli_distractor_trianglediamonds.svg	stimuli_distractor_diamondtriangles.svg	36	no	third	1	312	3	6	antiphase_hc_ois.wav	3	0	0			1				0	
6.6.1	win	2023-06-02	00:20:07	00:32:35	745272	5de8bc74553cee8280a7dd84	4	1	headphonecheck_testphase	15	test_collectResponse	12	stimuli_distractor_trianglediamonds.svg	stimuli_distractor_diamondtriangles.svg	36	no	second	1	326	4	1	antiphase_hc_iso.wav	2	0	0			1				0	
6.6.1	win	2023-06-02	00:20:07	00:32:35	745272	5de8bc74553cee8280a7dd84	4	1	headphonecheck_testphase	15	test_collectResponse	15	stimuli_distractor_trianglediamonds.svg	stimuli_distractor_diamondtriangles.svg	36	no	first	1	340	5	4	antiphase_hc_sio.wav	1	0	0			1				0	
6.6.1	win	2023-06-02	00:20:07	00:32:35	745272	5de8bc74553cee8280a7dd84	4	1	headphonecheck_testphase	15	test_collectResponse	18	stimuli_distractor_trianglediamonds.svg	stimuli_distractor_diamondtriangles.svg	36	no	third	1	352	6	2	antiphase_hc_ios.wav	3	0	0			1				0	
6.6.1	win	2023-06-02	00:20:07	00:32:35	745272	5de8bc74553cee8280a7dd84	4	1	stereocheck_calibration	17	stereocheck_calibrationIntro	1	stimuli_distractor_trianglediamonds.svg	stimuli_distractor_diamondtriangles.svg	36	no	stereocheck_calibrationButton	0	4180	6	2	antiphase_hc_ios.wav	3	0	0			1				0	
6.6.1	win	2023-06-02	00:20:07	00:32:35	745272	5de8bc74553cee8280a7dd84	4	1	stereocheck_testphase	18	stereocheck_test_collectResponse	3	stimuli_distractor_trianglediamonds.svg	stimuli_distractor_diamondtriangles.svg	36	no	stereocheck_right	1	228	6	2	antiphase_hc_ios.wav	3	1	5	noise_calib_stim_RIGHT.wav	2	1				0	
6.6.1	win	2023-06-02	00:20:07	00:32:35	745272	5de8bc74553cee8280a7dd84	4	1	stereocheck_testphase	18	stereocheck_test_collectResponse	6	stimuli_distractor_trianglediamonds.svg	stimuli_distractor_diamondtriangles.svg	36	no	stereocheck_left	1	299	6	2	antiphase_hc_ios.wav	3	2	3	noise_calib_stim_LEFT.wav	1	1				0	
6.6.1	win	2023-06-02	00:20:07	00:32:35	745272	5de8bc74553cee8280a7dd84	4	1	stereocheck_testphase	18	stereocheck_test_collectResponse	9	stimuli_distractor_trianglediamonds.svg	stimuli_distractor_diamondtriangles.svg	36	no	stereocheck_left	1	265	6	2	antiphase_hc_ios.wav	3	3	1	noise_calib_stim_LEFT.wav	1	1				0	
6.6.1	win	2023-06-02	00:20:07	00:32:35	745272	5de8bc74553cee8280a7dd84	4	1	stereocheck_testphase	18	stereocheck_test_collectResponse	12	stimuli_distractor_trianglediamonds.svg	stimuli_distractor_diamondtriangles.svg	36	no	stereocheck_left	1	212	6	2	antiphase_hc_ios.wav	3	4	2	noise_calib_stim_LEFT.wav	1	1				0	
6.6.1	win	2023-06-02	00:20:07	00:32:35	745272	5de8bc74553cee8280a7dd84	4	1	stereocheck_testphase	18	stereocheck_test_collectResponse	15	stimuli_distractor_trianglediamonds.svg	stimuli_distractor_diamondtriangles.svg	36	no	stereocheck_right	1	203	6	2	antiphase_hc_ios.wav	3	5	4	noise_calib_stim_RIGHT.wav	2	1				0	
6.6.1	win	2023-06-02	00:20:07	00:32:35	745272	5de8bc74553cee8280a7dd84	4	1	stereocheck_testphase	18	stereocheck_test_collectResponse	18	stimuli_distractor_trianglediamonds.svg	stimuli_distractor_diamondtriangles.svg	36	no	stereocheck_right	1	353	6	2	antiphase_hc_ios.wav	3	6	6	noise_calib_stim_RIGHT.wav	2	1				0	
6.6.1	win	2023-06-02	00:20:07	00:32:35	745272	5de8bc74553cee8280a7dd84	4	1	DL_practice	21	DL_practice	2	stimuli_distractor_trianglediamonds.svg	stimuli_distractor_diamondtriangles.svg	36	no	ba	1	1567	6	2	antiphase_hc_ios.wav	3	6	6	noise_calib_stim_RIGHT.wav	2	1	blb_dichoticlistening_ba-ba.mp3	ba	ba	0	left
6.6.1	win	2023-06-02	00:20:07	00:32:35	745272	5de8bc74553cee8280a7dd84	4	1	DL_practice	21	DL_practice	3	stimuli_distractor_trianglediamonds.svg	stimuli_distractor_diamondtriangles.svg	36	no	ga	1	942	6	2	antiphase_hc_ios.wav	3	6	6	noise_calib_stim_RIGHT.wav	2	15	blb_dichoticlistening_ga-ga.mp3	ga	ga	0	left
6.6.1	win	2023-06-02	00:20:07	00:32:35	745272	5de8bc74553cee8280a7dd84	4	1	DL_practice	21	DL_practice	4	stimuli_distractor_trianglediamonds.svg	stimuli_distractor_diamondtriangles.svg	36	no	da	1	1435	6	2	antiphase_hc_ios.wav	3	6	6	noise_calib_stim_RIGHT.wav	2	7	blb_dichoticlistening_da-ba.mp3	da	ba	1	left
6.6.1	win	2023-06-02	00:20:07	00:32:35	745272	5de8bc74553cee8280a7dd84	4	1	DL_practice	21	DL_practice	5	stimuli_distractor_trianglediamonds.svg	stimuli_distractor_diamondtriangles.svg	36	no	ta	1	1727	6	2	antiphase_hc_ios.wav	3	6	6	noise_calib_stim_RIGHT.wav	2	36	blb_dichoticlistening_ta-ta.mp3	ta	ta	0	left
6.6.1	win	2023-06-02	00:20:07	00:32:35	745272	5de8bc74553cee8280a7dd84	4	1	DL_practice	21	DL_practice	6	stimuli_distractor_trianglediamonds.svg	stimuli_distractor_diamondtriangles.svg	36	no	ka	0	1114	6	2	antiphase_hc_ios.wav	3	6	6	noise_calib_stim_RIGHT.wav	2	18	blb_dichoticlistening_ga-ta.mp3	ga	ta	1	other
6.6.1	win	2023-06-02	00:20:07	00:32:35	745272	5de8bc74553cee8280a7dd84	4	1	DL_practice	21	DL_practice	7	stimuli_distractor_trianglediamonds.svg	stimuli_distractor_diamondtriangles.svg	36	no	ka	1	723	6	2	antiphase_hc_ios.wav	3	6	6	noise_calib_stim_RIGHT.wav	2	22	blb_dichoticlistening_ka-ka.mp3	ka	ka	0	left
6.6.1	win	2023-06-02	00:20:07	00:32:35	745272	5de8bc74553cee8280a7dd84	4	1	DL_practice	21	DL_practice	8	stimuli_distractor_trianglediamonds.svg	stimuli_distractor_diamondtriangles.svg	36	no	pa	1	2203	6	2	antiphase_hc_ios.wav	3	6	6	noise_calib_stim_RIGHT.wav	2	23	blb_dichoticlistening_ka-pa.mp3	ka	pa	1	right
6.6.1	win	2023-06-02	00:20:07	00:32:35	745272	5de8bc74553cee8280a7dd84	4	1	DL_practice	21	DL_practice	9	stimuli_distractor_trianglediamonds.svg	stimuli_distractor_diamondtriangles.svg	36	no	pa	1	805	6	2	antiphase_hc_ios.wav	3	6	6	noise_calib_stim_RIGHT.wav	2	29	blb_dichoticlistening_pa-pa.mp3	pa	pa	0	left
6.6.1	win	2023-06-02	00:20:07	00:32:35	745272	5de8bc74553cee8280a7dd84	4	1	DL_practice	21	DL_practice	10	stimuli_distractor_trianglediamonds.svg	stimuli_distractor_diamondtriangles.svg	36	no	da	1	1009	6	2	antiphase_hc_ios.wav	3	6	6	noise_calib_stim_RIGHT.wav	2	8	blb_dichoticlistening_da-da.mp3	da	da	0	left
6.6.1	win	2023-06-02	00:20:07	00:32:35	745272	5de8bc74553cee8280a7dd84	4	1	DL_test	23	DL_test	1	stimuli_distractor_trianglediamonds.svg	stimuli_distractor_diamondtriangles.svg	36	no	ga	1	1143	6	2	antiphase_hc_ios.wav	3	6	6	noise_calib_stim_RIGHT.wav	2	3	blb_dichoticlistening_ba-ga.mp3	ba	ga	1	right
6.6.1	win	2023-06-02	00:20:07	00:32:35	745272	5de8bc74553cee8280a7dd84	4	1	DL_test	23	DL_test	2	stimuli_distractor_trianglediamonds.svg	stimuli_distractor_diamondtriangles.svg	36	no	pa	1	1267	6	2	antiphase_hc_ios.wav	3	6	6	noise_calib_stim_RIGHT.wav	2	5	blb_dichoticlistening_ba-pa.mp3	ba	pa	1	right
6.6.1	win	2023-06-02	00:20:07	00:32:35	745272	5de8bc74553cee8280a7dd84	4	1	DL_test	23	DL_test	3	stimuli_distractor_trianglediamonds.svg	stimuli_distractor_diamondtriangles.svg	36	no	ga	1	1815	6	2	antiphase_hc_ios.wav	3	6	6	noise_calib_stim_RIGHT.wav	2	17	blb_dichoticlistening_ga-pa.mp3	ga	pa	1	left
6.6.1	win	2023-06-02	00:20:07	00:32:35	745272	5de8bc74553cee8280a7dd84	4	1	DL_test	23	DL_test	4	stimuli_distractor_trianglediamonds.svg	stimuli_distractor_diamondtriangles.svg	36	no	ta	1	1380	6	2	antiphase_hc_ios.wav	3	6	6	noise_calib_stim_RIGHT.wav	2	36	blb_dichoticlistening_ta-ta.mp3	ta	ta	0	left
6.6.1	win	2023-06-02	00:20:07	00:32:35	745272	5de8bc74553cee8280a7dd84	4	1	DL_test	23	DL_test	5	stimuli_distractor_trianglediamonds.svg	stimuli_distractor_diamondtriangles.svg	36	no	ba	1	1579	6	2	antiphase_hc_ios.wav	3	6	6	noise_calib_stim_RIGHT.wav	2	31	blb_dichoticlistening_ta-ba.mp3	ta	ba	1	right
6.6.1	win	2023-06-02	00:20:07	00:32:35	745272	5de8bc74553cee8280a7dd84	4	1	DL_test	23	DL_test	6	stimuli_distractor_trianglediamonds.svg	stimuli_distractor_diamondtriangles.svg	36	no	pa	0	1238	6	2	antiphase_hc_ios.wav	3	6	6	noise_calib_stim_RIGHT.wav	2	10	blb_dichoticlistening_da-ka.mp3	da	ka	1	other
6.6.1	win	2023-06-02	00:20:07	00:32:35	745272	5de8bc74553cee8280a7dd84	4	1	DL_test	23	DL_test	7	stimuli_distractor_trianglediamonds.svg	stimuli_distractor_diamondtriangles.svg	36	no	ka	1	1009	6	2	antiphase_hc_ios.wav	3	6	6	noise_calib_stim_RIGHT.wav	2	28	blb_dichoticlistening_pa-ka.mp3	pa	ka	1	right
6.6.1	win	2023-06-02	00:20:07	00:32:35	745272	5de8bc74553cee8280a7dd84	4	1	DL_test	23	DL_test	8	stimuli_distractor_trianglediamonds.svg	stimuli_distractor_diamondtriangles.svg	36	no	ga	1	785	6	2	antiphase_hc_ios.wav	3	6	6	noise_calib_stim_RIGHT.wav	2	9	blb_dichoticlistening_da-ga.mp3	da	ga	1	right
6.6.1	win	2023-06-02	00:20:07	00:32:35	745272	5de8bc74553cee8280a7dd84	4	1	DL_test	23	DL_test	9	stimuli_distractor_trianglediamonds.svg	stimuli_distractor_diamondtriangles.svg	36	no	da	1	957	6	2	antiphase_hc_ios.wav	3	6	6	noise_calib_stim_RIGHT.wav	2	8	blb_dichoticlistening_da-da.mp3	da	da	0	left
6.6.1	win	2023-06-02	00:20:07	00:32:35	745272	5de8bc74553cee8280a7dd84	4	1	DL_test	23	DL_test	10	stimuli_distractor_trianglediamonds.svg	stimuli_distractor_diamondtriangles.svg	36	no	pa	1	1162	6	2	antiphase_hc_ios.wav	3	6	6	noise_calib_stim_RIGHT.wav	2	35	blb_dichoticlistening_ta-pa.mp3	ta	pa	1	right
6.6.1	win	2023-06-02	00:20:07	00:32:35	745272	5de8bc74553cee8280a7dd84	4	1	DL_test	23	DL_test	11	stimuli_distractor_trianglediamonds.svg	stimuli_distractor_diamondtriangles.svg	36	no	pa	1	1501	6	2	antiphase_hc_ios.wav	3	6	6	noise_calib_stim_RIGHT.wav	2	11	blb_dichoticlistening_da-pa.mp3	da	pa	1	right
6.6.1	win	2023-06-02	00:20:07	00:32:35	745272	5de8bc74553cee8280a7dd84	4	1	DL_test	23	DL_test	12	stimuli_distractor_trianglediamonds.svg	stimuli_distractor_diamondtriangles.svg	36	no	da	1	1223	6	2	antiphase_hc_ios.wav	3	6	6	noise_calib_stim_RIGHT.wav	2	32	blb_dichoticlistening_ta-da.mp3	ta	da	1	right
6.6.1	win	2023-06-02	00:20:07	00:32:35	745272	5de8bc74553cee8280a7dd84	4	1	DL_test	23	DL_test	13	stimuli_distractor_trianglediamonds.svg	stimuli_distractor_diamondtriangles.svg	36	no	da	1	1611	6	2	antiphase_hc_ios.wav	3	6	6	noise_calib_stim_RIGHT.wav	2	26	blb_dichoticlistening_pa-da.mp3	pa	da	1	right
6.6.1	win	2023-06-02	00:20:07	00:32:35	745272	5de8bc74553cee8280a7dd84	4	1	DL_test	23	DL_test	14	stimuli_distractor_trianglediamonds.svg	stimuli_distractor_diamondtriangles.svg	36	no	ba	1	1167	6	2	antiphase_hc_ios.wav	3	6	6	noise_calib_stim_RIGHT.wav	2	1	blb_dichoticlistening_ba-ba.mp3	ba	ba	0	left
6.6.1	win	2023-06-02	00:20:07	00:32:35	745272	5de8bc74553cee8280a7dd84	4	1	DL_test	23	DL_test	15	stimuli_distractor_trianglediamonds.svg	stimuli_distractor_diamondtriangles.svg	36	no	ta	1	1463	6	2	antiphase_hc_ios.wav	3	6	6	noise_calib_stim_RIGHT.wav	2	30	blb_dichoticlistening_pa-ta.mp3	pa	ta	1	right
6.6.1	win	2023-06-02	00:20:07	00:32:35	745272	5de8bc74553cee8280a7dd84	4	1	DL_test	23	DL_test	16	stimuli_distractor_trianglediamonds.svg	stimuli_distractor_diamondtriangles.svg	36	no	pa	1	1768	6	2	antiphase_hc_ios.wav	3	6	6	noise_calib_stim_RIGHT.wav	2	25	blb_dichoticlistening_pa-ba.mp3	pa	ba	1	left
6.6.1	win	2023-06-02	00:20:07	00:32:35	745272	5de8bc74553cee8280a7dd84	4	1	DL_test	23	DL_test	17	stimuli_distractor_trianglediamonds.svg	stimuli_distractor_diamondtriangles.svg	36	no	ga	1	942	6	2	antiphase_hc_ios.wav	3	6	6	noise_calib_stim_RIGHT.wav	2	14	blb_dichoticlistening_ga-da.mp3	ga	da	1	left
6.6.1	win	2023-06-02	00:20:07	00:32:35	745272	5de8bc74553cee8280a7dd84	4	1	DL_test	23	DL_test	18	stimuli_distractor_trianglediamonds.svg	stimuli_distractor_diamondtriangles.svg	36	no	ga	1	759	6	2	antiphase_hc_ios.wav	3	6	6	noise_calib_stim_RIGHT.wav	2	15	blb_dichoticlistening_ga-ga.mp3	ga	ga	0	left
6.6.1	win	2023-06-02	00:20:07	00:32:35	745272	5de8bc74553cee8280a7dd84	4	1	DL_test	23	DL_test	19	stimuli_distractor_trianglediamonds.svg	stimuli_distractor_diamondtriangles.svg	36	no	ga	1	877	6	2	antiphase_hc_ios.wav	3	6	6	noise_calib_stim_RIGHT.wav	2	33	blb_dichoticlistening_ta-ga.mp3	ta	ga	1	right
6.6.1	win	2023-06-02	00:20:07	00:32:35	745272	5de8bc74553cee8280a7dd84	4	1	DL_test	23	DL_test	20	stimuli_distractor_trianglediamonds.svg	stimuli_distractor_diamondtriangles.svg	36	no	pa	1	856	6	2	antiphase_hc_ios.wav	3	6	6	noise_calib_stim_RIGHT.wav	2	29	blb_dichoticlistening_pa-pa.mp3	pa	pa	0	left
6.6.1	win	2023-06-02	00:20:07	00:32:35	745272	5de8bc74553cee8280a7dd84	4	1	DL_test	23	DL_test	21	stimuli_distractor_trianglediamonds.svg	stimuli_distractor_diamondtriangles.svg	36	no	da	1	901	6	2	antiphase_hc_ios.wav	3	6	6	noise_calib_stim_RIGHT.wav	2	20	blb_dichoticlistening_ka-da.mp3	ka	da	1	right
6.6.1	win	2023-06-02	00:20:07	00:32:35	745272	5de8bc74553cee8280a7dd84	4	1	DL_test	23	DL_test	22	stimuli_distractor_trianglediamonds.svg	stimuli_distractor_diamondtriangles.svg	36	no	ka	1	957	6	2	antiphase_hc_ios.wav	3	6	6	noise_calib_stim_RIGHT.wav	2	34	blb_dichoticlistening_ta-ka.mp3	ta	ka	1	right
6.6.1	win	2023-06-02	00:20:07	00:32:35	745272	5de8bc74553cee8280a7dd84	4	1	DL_test	23	DL_test	23	stimuli_distractor_trianglediamonds.svg	stimuli_distractor_diamondtriangles.svg	36	no	da	1	922	6	2	antiphase_hc_ios.wav	3	6	6	noise_calib_stim_RIGHT.wav	2	2	blb_dichoticlistening_ba-da.mp3	ba	da	1	right
6.6.1	win	2023-06-02	00:20:07	00:32:35	745272	5de8bc74553cee8280a7dd84	4	1	DL_test	23	DL_test	24	stimuli_distractor_trianglediamonds.svg	stimuli_distractor_diamondtriangles.svg	36	no	pa	1	1021	6	2	antiphase_hc_ios.wav	3	6	6	noise_calib_stim_RIGHT.wav	2	23	blb_dichoticlistening_ka-pa.mp3	ka	pa	1	right
6.6.1	win	2023-06-02	00:20:07	00:32:35	745272	5de8bc74553cee8280a7dd84	4	1	DL_test	23	DL_test	25	stimuli_distractor_trianglediamonds.svg	stimuli_distractor_diamondtriangles.svg	36	no	ka	0	1186	6	2	antiphase_hc_ios.wav	3	6	6	noise_calib_stim_RIGHT.wav	2	18	blb_dichoticlistening_ga-ta.mp3	ga	ta	1	other
