build	computer.platform	date	time	timestamp	time_elapsed_ms	subject	group	session	blockcode	blocknum	trialcode	trialnum	stimulus_left	stimulus_right	stim_index	target_present	response	correct	latency	headphonecheck_countTestTrials	headphonecheck_index	headphonecheck_testSound	headphonecheck_correctResponse	stereocheck_countTestTrials	stereocheck_index	stereocheck_testSound	stereocheck_correctResponse	DL_index	DL_soundfile	DL_leftSound	DL_rightSound	DL_dualSound	DL_choice
6.6.1	win	2023-06-12	16:58:46	0	0	5ba6d507cf54e40001c45aaf	1	1	headphonecheck_calibration	4	headphonecheck_calibrationIntro	1			0		calibrationButton	0	7460	0	0			0	0			1				0	
6.6.1	win	2023-06-12	16:58:46	0	0	5ba6d507cf54e40001c45aaf	1	1	headphonecheck_testphase	5	test_collectResponse	3			0		first	1	874	1	3	antiphase_hc_soi.wav	1	0	0			1				0	
6.6.1	win	2023-06-12	16:58:46	0	0	5ba6d507cf54e40001c45aaf	1	1	headphonecheck_testphase	5	test_collectResponse	6			0		third	0	1019	2	4	antiphase_hc_sio.wav	1	0	0			1				0	
6.6.1	win	2023-06-12	16:58:46	0	0	5ba6d507cf54e40001c45aaf	1	1	headphonecheck_testphase	5	test_collectResponse	9			0		third	1	3177	3	6	antiphase_hc_ois.wav	3	0	0			1				0	
6.6.1	win	2023-06-12	16:58:46	0	0	5ba6d507cf54e40001c45aaf	1	1	headphonecheck_testphase	5	test_collectResponse	12			0		second	1	1674	4	1	antiphase_hc_iso.wav	2	0	0			1				0	
6.6.1	win	2023-06-12	16:58:46	0	0	5ba6d507cf54e40001c45aaf	1	1	headphonecheck_testphase	5	test_collectResponse	15			0		third	1	588	5	2	antiphase_hc_ios.wav	3	0	0			1				0	
6.6.1	win	2023-06-12	16:58:46	0	0	5ba6d507cf54e40001c45aaf	1	1	headphonecheck_testphase	5	test_collectResponse	18			0		second	1	764	6	5	antiphase_hc_osi.wav	2	0	0			1				0	
6.6.1	win	2023-06-12	16:58:46	0	0	5ba6d507cf54e40001c45aaf	1	1	stereocheck_calibration	7	stereocheck_calibrationIntro	1			0		stereocheck_calibrationButton	0	8821	6	5	antiphase_hc_osi.wav	2	0	0			1				0	
6.6.1	win	2023-06-12	16:58:46	0	0	5ba6d507cf54e40001c45aaf	1	1	stereocheck_testphase	8	stereocheck_test_collectResponse	3			0		stereocheck_right	0	1545	6	5	antiphase_hc_osi.wav	2	1	1	noise_calib_stim_LEFT.wav	1	1				0	
6.6.1	win	2023-06-12	16:58:46	0	0	5ba6d507cf54e40001c45aaf	1	1	stereocheck_testphase	8	stereocheck_test_collectResponse	6			0		stereocheck_left	0	2635	6	5	antiphase_hc_osi.wav	2	2	5	noise_calib_stim_RIGHT.wav	2	1				0	
6.6.1	win	2023-06-12	16:58:46	0	0	5ba6d507cf54e40001c45aaf	1	1	stereocheck_testphase	8	stereocheck_test_collectResponse	9			0		stereocheck_left	0	6664	6	5	antiphase_hc_osi.wav	2	3	4	noise_calib_stim_RIGHT.wav	2	1				0	
6.6.1	win	2023-06-12	16:58:46	0	0	5ba6d507cf54e40001c45aaf	1	1	stereocheck_testphase	8	stereocheck_test_collectResponse	12			0		stereocheck_left	0	695	6	5	antiphase_hc_osi.wav	2	4	6	noise_calib_stim_RIGHT.wav	2	1				0	
6.6.1	win	2023-06-12	16:58:46	0	0	5ba6d507cf54e40001c45aaf	1	1	stereocheck_testphase	8	stereocheck_test_collectResponse	15			0		stereocheck_right	0	1456	6	5	antiphase_hc_osi.wav	2	5	3	noise_calib_stim_LEFT.wav	1	1				0	
6.6.1	win	2023-06-12	16:58:46	0	0	5ba6d507cf54e40001c45aaf	1	1	stereocheck_testphase	8	stereocheck_test_collectResponse	18			0		stereocheck_right	0	917	6	5	antiphase_hc_osi.wav	2	6	2	noise_calib_stim_LEFT.wav	1	1				0	
6.6.1	win	2023-06-12	16:58:46	0	0	5ba6d507cf54e40001c45aaf	1	1	DL_practice	11	DL_practice	2			0		ka	1	3248	6	5	antiphase_hc_osi.wav	2	6	2	noise_calib_stim_LEFT.wav	1	22	blb_dichoticlistening_ka-ka.mp3	ka	ka	0	left
6.6.1	win	2023-06-12	16:58:46	0	0	5ba6d507cf54e40001c45aaf	1	1	DL_practice	11	DL_practice	3			0		da	1	1999	6	5	antiphase_hc_osi.wav	2	6	2	noise_calib_stim_LEFT.wav	1	7	blb_dichoticlistening_da-ba.mp3	da	ba	1	left
6.6.1	win	2023-06-12	16:58:46	0	0	5ba6d507cf54e40001c45aaf	1	1	DL_practice	11	DL_practice	4			0		ga	1	1235	6	5	antiphase_hc_osi.wav	2	6	2	noise_calib_stim_LEFT.wav	1	18	blb_dichoticlistening_ga-ta.mp3	ga	ta	1	left
6.6.1	win	2023-06-12	16:58:46	0	0	5ba6d507cf54e40001c45aaf	1	1	DL_practice	11	DL_practice	5			0		da	1	1401	6	5	antiphase_hc_osi.wav	2	6	2	noise_calib_stim_LEFT.wav	1	8	blb_dichoticlistening_da-da.mp3	da	da	0	left
6.6.1	win	2023-06-12	16:58:46	0	0	5ba6d507cf54e40001c45aaf	1	1	DL_practice	11	DL_practice	6			0		ga	1	1114	6	5	antiphase_hc_osi.wav	2	6	2	noise_calib_stim_LEFT.wav	1	15	blb_dichoticlistening_ga-ga.mp3	ga	ga	0	left
6.6.1	win	2023-06-12	16:58:46	0	0	5ba6d507cf54e40001c45aaf	1	1	DL_practice	11	DL_practice	7			0		ka	1	1545	6	5	antiphase_hc_osi.wav	2	6	2	noise_calib_stim_LEFT.wav	1	23	blb_dichoticlistening_ka-pa.mp3	ka	pa	1	left
6.6.1	win	2023-06-12	16:58:46	0	0	5ba6d507cf54e40001c45aaf	1	1	DL_practice	11	DL_practice	8			0		pa	1	1331	6	5	antiphase_hc_osi.wav	2	6	2	noise_calib_stim_LEFT.wav	1	29	blb_dichoticlistening_pa-pa.mp3	pa	pa	0	left
6.6.1	win	2023-06-12	16:58:46	0	0	5ba6d507cf54e40001c45aaf	1	1	DL_practice	11	DL_practice	9			0		ta	1	1452	6	5	antiphase_hc_osi.wav	2	6	2	noise_calib_stim_LEFT.wav	1	36	blb_dichoticlistening_ta-ta.mp3	ta	ta	0	left
6.6.1	win	2023-06-12	16:58:46	0	0	5ba6d507cf54e40001c45aaf	1	1	DL_practice	11	DL_practice	10			0		ba	1	2280	6	5	antiphase_hc_osi.wav	2	6	2	noise_calib_stim_LEFT.wav	1	1	blb_dichoticlistening_ba-ba.mp3	ba	ba	0	left
6.6.1	win	2023-06-12	16:58:46	0	0	5ba6d507cf54e40001c45aaf	1	1	DL_test	13	DL_test	1			0		pa	1	2045	6	5	antiphase_hc_osi.wav	2	6	2	noise_calib_stim_LEFT.wav	1	25	blb_dichoticlistening_pa-ba.mp3	pa	ba	1	left
6.6.1	win	2023-06-12	16:58:46	0	0	5ba6d507cf54e40001c45aaf	1	1	DL_test	13	DL_test	2			0		ka	1	1338	6	5	antiphase_hc_osi.wav	2	6	2	noise_calib_stim_LEFT.wav	1	22	blb_dichoticlistening_ka-ka.mp3	ka	ka	0	left
6.6.1	win	2023-06-12	16:58:46	0	0	5ba6d507cf54e40001c45aaf	1	1	DL_test	13	DL_test	3			0		da	1	1846	6	5	antiphase_hc_osi.wav	2	6	2	noise_calib_stim_LEFT.wav	1	26	blb_dichoticlistening_pa-da.mp3	pa	da	1	right
6.6.1	win	2023-06-12	16:58:46	0	0	5ba6d507cf54e40001c45aaf	1	1	DL_test	13	DL_test	4			0		ga	0	1551	6	5	antiphase_hc_osi.wav	2	6	2	noise_calib_stim_LEFT.wav	1	12	blb_dichoticlistening_da-ta.mp3	da	ta	1	other
6.6.1	win	2023-06-12	16:58:46	0	0	5ba6d507cf54e40001c45aaf	1	1	DL_test	13	DL_test	5			0		pa	1	1781	6	5	antiphase_hc_osi.wav	2	6	2	noise_calib_stim_LEFT.wav	1	27	blb_dichoticlistening_pa-ga.mp3	pa	ga	1	left
6.6.1	win	2023-06-12	16:58:46	0	0	5ba6d507cf54e40001c45aaf	1	1	DL_test	13	DL_test	6			0		pa	1	1940	6	5	antiphase_hc_osi.wav	2	6	2	noise_calib_stim_LEFT.wav	1	30	blb_dichoticlistening_pa-ta.mp3	pa	ta	1	left
6.6.1	win	2023-06-12	16:58:46	0	0	5ba6d507cf54e40001c45aaf	1	1	DL_test	13	DL_test	7			0		ta	0	2103	6	5	antiphase_hc_osi.wav	2	6	2	noise_calib_stim_LEFT.wav	1	23	blb_dichoticlistening_ka-pa.mp3	ka	pa	1	other
6.6.1	win	2023-06-12	16:58:46	0	0	5ba6d507cf54e40001c45aaf	1	1	DL_test	13	DL_test	8			0		ka	1	1364	6	5	antiphase_hc_osi.wav	2	6	2	noise_calib_stim_LEFT.wav	1	24	blb_dichoticlistening_ka-ta.mp3	ka	ta	1	left
6.6.1	win	2023-06-12	16:58:46	0	0	5ba6d507cf54e40001c45aaf	1	1	DL_test	13	DL_test	9			0		ka	1	1534	6	5	antiphase_hc_osi.wav	2	6	2	noise_calib_stim_LEFT.wav	1	20	blb_dichoticlistening_ka-da.mp3	ka	da	1	left
6.6.1	win	2023-06-12	16:58:46	0	0	5ba6d507cf54e40001c45aaf	1	1	DL_test	13	DL_test	10			0		ga	0	1372	6	5	antiphase_hc_osi.wav	2	6	2	noise_calib_stim_LEFT.wav	1	7	blb_dichoticlistening_da-ba.mp3	da	ba	1	other
6.6.1	win	2023-06-12	16:58:46	0	0	5ba6d507cf54e40001c45aaf	1	1	DL_test	13	DL_test	11			0		ga	1	880	6	5	antiphase_hc_osi.wav	2	6	2	noise_calib_stim_LEFT.wav	1	13	blb_dichoticlistening_ga-ba.mp3	ga	ba	1	left
6.6.1	win	2023-06-12	16:58:46	0	0	5ba6d507cf54e40001c45aaf	1	1	DL_test	13	DL_test	12			0		ta	1	2171	6	5	antiphase_hc_osi.wav	2	6	2	noise_calib_stim_LEFT.wav	1	6	blb_dichoticlistening_ba-ta.mp3	ba	ta	1	right
6.6.1	win	2023-06-12	16:58:46	0	0	5ba6d507cf54e40001c45aaf	1	1	DL_test	13	DL_test	13			0		da	1	1331	6	5	antiphase_hc_osi.wav	2	6	2	noise_calib_stim_LEFT.wav	1	2	blb_dichoticlistening_ba-da.mp3	ba	da	1	right
6.6.1	win	2023-06-12	16:58:46	0	0	5ba6d507cf54e40001c45aaf	1	1	DL_test	13	DL_test	14			0		ta	1	1966	6	5	antiphase_hc_osi.wav	2	6	2	noise_calib_stim_LEFT.wav	1	35	blb_dichoticlistening_ta-pa.mp3	ta	pa	1	left
6.6.1	win	2023-06-12	16:58:46	0	0	5ba6d507cf54e40001c45aaf	1	1	DL_test	13	DL_test	15			0		da	1	1155	6	5	antiphase_hc_osi.wav	2	6	2	noise_calib_stim_LEFT.wav	1	8	blb_dichoticlistening_da-da.mp3	da	da	0	left
6.6.1	win	2023-06-12	16:58:46	0	0	5ba6d507cf54e40001c45aaf	1	1	DL_test	13	DL_test	16			0		ga	1	1361	6	5	antiphase_hc_osi.wav	2	6	2	noise_calib_stim_LEFT.wav	1	9	blb_dichoticlistening_da-ga.mp3	da	ga	1	right
6.6.1	win	2023-06-12	16:58:46	0	0	5ba6d507cf54e40001c45aaf	1	1	DL_test	13	DL_test	17			0		ka	0	2514	6	5	antiphase_hc_osi.wav	2	6	2	noise_calib_stim_LEFT.wav	1	17	blb_dichoticlistening_ga-pa.mp3	ga	pa	1	other
6.6.1	win	2023-06-12	16:58:46	0	0	5ba6d507cf54e40001c45aaf	1	1	DL_test	13	DL_test	18			0		ka	1	1455	6	5	antiphase_hc_osi.wav	2	6	2	noise_calib_stim_LEFT.wav	1	34	blb_dichoticlistening_ta-ka.mp3	ta	ka	1	right
6.6.1	win	2023-06-12	16:58:46	0	0	5ba6d507cf54e40001c45aaf	1	1	DL_test	13	DL_test	19			0		pa	1	2537	6	5	antiphase_hc_osi.wav	2	6	2	noise_calib_stim_LEFT.wav	1	28	blb_dichoticlistening_pa-ka.mp3	pa	ka	1	left
6.6.1	win	2023-06-12	16:58:46	0	0	5ba6d507cf54e40001c45aaf	1	1	DL_test	13	DL_test	20			0		ga	1	1361	6	5	antiphase_hc_osi.wav	2	6	2	noise_calib_stim_LEFT.wav	1	18	blb_dichoticlistening_ga-ta.mp3	ga	ta	1	left
6.6.1	win	2023-06-12	16:58:46	0	0	5ba6d507cf54e40001c45aaf	1	1	DL_test	13	DL_test	21			0		ta	1	1663	6	5	antiphase_hc_osi.wav	2	6	2	noise_calib_stim_LEFT.wav	1	31	blb_dichoticlistening_ta-ba.mp3	ta	ba	1	left
6.6.1	win	2023-06-12	16:58:46	0	0	5ba6d507cf54e40001c45aaf	1	1	DL_test	13	DL_test	22			0		ka	1	1839	6	5	antiphase_hc_osi.wav	2	6	2	noise_calib_stim_LEFT.wav	1	19	blb_dichoticlistening_ka-ba.mp3	ka	ba	1	left
6.6.1	win	2023-06-12	16:58:46	0	0	5ba6d507cf54e40001c45aaf	1	1	DL_test	13	DL_test	23			0		pa	1	1406	6	5	antiphase_hc_osi.wav	2	6	2	noise_calib_stim_LEFT.wav	1	5	blb_dichoticlistening_ba-pa.mp3	ba	pa	1	right
6.6.1	win	2023-06-12	16:58:46	0	0	5ba6d507cf54e40001c45aaf	1	1	DL_test	13	DL_test	24			0		ga	1	1324	6	5	antiphase_hc_osi.wav	2	6	2	noise_calib_stim_LEFT.wav	1	15	blb_dichoticlistening_ga-ga.mp3	ga	ga	0	left
6.6.1	win	2023-06-12	16:58:46	0	0	5ba6d507cf54e40001c45aaf	1	1	DL_test	13	DL_test	25			0		ka	1	1987	6	5	antiphase_hc_osi.wav	2	6	2	noise_calib_stim_LEFT.wav	1	16	blb_dichoticlistening_ga-ka.mp3	ga	ka	1	right
6.6.1	win	2023-06-12	16:58:46	0	0	5ba6d507cf54e40001c45aaf	1	1	DL_test	13	DL_test	26			0		ka	0	1738	6	5	antiphase_hc_osi.wav	2	6	2	noise_calib_stim_LEFT.wav	1	33	blb_dichoticlistening_ta-ga.mp3	ta	ga	1	other
6.6.1	win	2023-06-12	16:58:46	0	0	5ba6d507cf54e40001c45aaf	1	1	DL_test	13	DL_test	27			0		ga	1	1356	6	5	antiphase_hc_osi.wav	2	6	2	noise_calib_stim_LEFT.wav	1	14	blb_dichoticlistening_ga-da.mp3	ga	da	1	left
6.6.1	win	2023-06-12	16:58:46	0	0	5ba6d507cf54e40001c45aaf	1	1	DL_test	13	DL_test	28			0		pa	0	1518	6	5	antiphase_hc_osi.wav	2	6	2	noise_calib_stim_LEFT.wav	1	10	blb_dichoticlistening_da-ka.mp3	da	ka	1	other
6.6.1	win	2023-06-12	16:58:46	0	0	5ba6d507cf54e40001c45aaf	1	1	DL_test	13	DL_test	29			0		ka	1	1466	6	5	antiphase_hc_osi.wav	2	6	2	noise_calib_stim_LEFT.wav	1	21	blb_dichoticlistening_ka-ga.mp3	ka	ga	1	left
6.6.1	win	2023-06-12	16:58:46	0	0	5ba6d507cf54e40001c45aaf	1	1	DL_test	13	DL_test	30			0		ga	1	1278	6	5	antiphase_hc_osi.wav	2	6	2	noise_calib_stim_LEFT.wav	1	3	blb_dichoticlistening_ba-ga.mp3	ba	ga	1	right
6.6.1	win	2023-06-12	16:58:46	0	0	5ba6d507cf54e40001c45aaf	1	1	DL_test	13	DL_test	31			0		ta	0	1967	6	5	antiphase_hc_osi.wav	2	6	2	noise_calib_stim_LEFT.wav	1	11	blb_dichoticlistening_da-pa.mp3	da	pa	1	other
6.6.1	win	2023-06-12	16:58:46	0	0	5ba6d507cf54e40001c45aaf	1	1	DL_test	13	DL_test	32			0		pa	0	1858	6	5	antiphase_hc_osi.wav	2	6	2	noise_calib_stim_LEFT.wav	1	4	blb_dichoticlistening_ba-ka.mp3	ba	ka	1	other
6.6.1	win	2023-06-12	16:58:46	0	0	5ba6d507cf54e40001c45aaf	1	1	DL_test	13	DL_test	33			0		pa	1	1583	6	5	antiphase_hc_osi.wav	2	6	2	noise_calib_stim_LEFT.wav	1	29	blb_dichoticlistening_pa-pa.mp3	pa	pa	0	left
6.6.1	win	2023-06-12	16:58:46	0	0	5ba6d507cf54e40001c45aaf	1	1	DL_test	13	DL_test	34			0		ka	0	1444	6	5	antiphase_hc_osi.wav	2	6	2	noise_calib_stim_LEFT.wav	1	32	blb_dichoticlistening_ta-da.mp3	ta	da	1	other
6.6.1	win	2023-06-12	16:58:46	0	0	5ba6d507cf54e40001c45aaf	1	1	DL_test	13	DL_test	35			0		ta	1	2074	6	5	antiphase_hc_osi.wav	2	6	2	noise_calib_stim_LEFT.wav	1	36	blb_dichoticlistening_ta-ta.mp3	ta	ta	0	left
6.6.1	win	2023-06-12	16:58:46	0	0	5ba6d507cf54e40001c45aaf	1	1	DL_test	13	DL_test	36			0		pa	0	2203	6	5	antiphase_hc_osi.wav	2	6	2	noise_calib_stim_LEFT.wav	1	1	blb_dichoticlistening_ba-ba.mp3	ba	ba	0	other
6.6.1	win	2023-06-12	16:58:46	0	0	5ba6d507cf54e40001c45aaf	1	1	DL_test	14	DL_test	1			0		ga	0	1197	6	5	antiphase_hc_osi.wav	2	6	2	noise_calib_stim_LEFT.wav	1	20	blb_dichoticlistening_ka-da.mp3	ka	da	1	other
6.6.1	win	2023-06-12	16:58:46	0	0	5ba6d507cf54e40001c45aaf	1	1	DL_test	14	DL_test	2			0		da	1	2177	6	5	antiphase_hc_osi.wav	2	6	2	noise_calib_stim_LEFT.wav	1	26	blb_dichoticlistening_pa-da.mp3	pa	da	1	right
6.6.1	win	2023-06-12	16:58:46	0	0	5ba6d507cf54e40001c45aaf	1	1	DL_test	14	DL_test	3			0		ka	1	1231	6	5	antiphase_hc_osi.wav	2	6	2	noise_calib_stim_LEFT.wav	1	16	blb_dichoticlistening_ga-ka.mp3	ga	ka	1	right
6.6.1	win	2023-06-12	16:58:46	0	0	5ba6d507cf54e40001c45aaf	1	1	DL_test	14	DL_test	4			0		ka	0	950	6	5	antiphase_hc_osi.wav	2	6	2	noise_calib_stim_LEFT.wav	1	17	blb_dichoticlistening_ga-pa.mp3	ga	pa	1	other
6.6.1	win	2023-06-12	16:58:46	0	0	5ba6d507cf54e40001c45aaf	1	1	DL_test	14	DL_test	5			0		ta	1	1320	6	5	antiphase_hc_osi.wav	2	6	2	noise_calib_stim_LEFT.wav	1	6	blb_dichoticlistening_ba-ta.mp3	ba	ta	1	right
6.6.1	win	2023-06-12	16:58:46	0	0	5ba6d507cf54e40001c45aaf	1	1	DL_test	14	DL_test	6			0		ga	0	1203	6	5	antiphase_hc_osi.wav	2	6	2	noise_calib_stim_LEFT.wav	1	32	blb_dichoticlistening_ta-da.mp3	ta	da	1	other
6.6.1	win	2023-06-12	16:58:46	0	0	5ba6d507cf54e40001c45aaf	1	1	DL_test	14	DL_test	7			0		pa	1	2027	6	5	antiphase_hc_osi.wav	2	6	2	noise_calib_stim_LEFT.wav	1	5	blb_dichoticlistening_ba-pa.mp3	ba	pa	1	right
6.6.1	win	2023-06-12	16:58:46	0	0	5ba6d507cf54e40001c45aaf	1	1	DL_test	14	DL_test	8			0		ka	1	1160	6	5	antiphase_hc_osi.wav	2	6	2	noise_calib_stim_LEFT.wav	1	23	blb_dichoticlistening_ka-pa.mp3	ka	pa	1	left
6.6.1	win	2023-06-12	16:58:46	0	0	5ba6d507cf54e40001c45aaf	1	1	DL_test	14	DL_test	9			0		ka	1	1160	6	5	antiphase_hc_osi.wav	2	6	2	noise_calib_stim_LEFT.wav	1	28	blb_dichoticlistening_pa-ka.mp3	pa	ka	1	right
6.6.1	win	2023-06-12	16:58:46	0	0	5ba6d507cf54e40001c45aaf	1	1	DL_test	14	DL_test	10			0		ba	1	1779	6	5	antiphase_hc_osi.wav	2	6	2	noise_calib_stim_LEFT.wav	1	13	blb_dichoticlistening_ga-ba.mp3	ga	ba	1	right
6.6.1	win	2023-06-12	16:58:46	0	0	5ba6d507cf54e40001c45aaf	1	1	DL_test	14	DL_test	11			0		ga	1	1197	6	5	antiphase_hc_osi.wav	2	6	2	noise_calib_stim_LEFT.wav	1	9	blb_dichoticlistening_da-ga.mp3	da	ga	1	right
6.6.1	win	2023-06-12	16:58:46	0	0	5ba6d507cf54e40001c45aaf	1	1	DL_test	14	DL_test	12			0		ta	1	1345	6	5	antiphase_hc_osi.wav	2	6	2	noise_calib_stim_LEFT.wav	1	12	blb_dichoticlistening_da-ta.mp3	da	ta	1	right
6.6.1	win	2023-06-12	16:58:46	0	0	5ba6d507cf54e40001c45aaf	1	1	DL_test	14	DL_test	13			0		ka	1	1951	6	5	antiphase_hc_osi.wav	2	6	2	noise_calib_stim_LEFT.wav	1	4	blb_dichoticlistening_ba-ka.mp3	ba	ka	1	right
6.6.1	win	2023-06-12	16:58:46	0	0	5ba6d507cf54e40001c45aaf	1	1	DL_test	14	DL_test	14			0		ga	1	1250	6	5	antiphase_hc_osi.wav	2	6	2	noise_calib_stim_LEFT.wav	1	3	blb_dichoticlistening_ba-ga.mp3	ba	ga	1	right
6.6.1	win	2023-06-12	16:58:46	0	0	5ba6d507cf54e40001c45aaf	1	1	DL_test	14	DL_test	15			0		ka	1	1290	6	5	antiphase_hc_osi.wav	2	6	2	noise_calib_stim_LEFT.wav	1	24	blb_dichoticlistening_ka-ta.mp3	ka	ta	1	left
6.6.1	win	2023-06-12	16:58:46	0	0	5ba6d507cf54e40001c45aaf	1	1	DL_test	14	DL_test	16			0		ka	1	1085	6	5	antiphase_hc_osi.wav	2	6	2	noise_calib_stim_LEFT.wav	1	34	blb_dichoticlistening_ta-ka.mp3	ta	ka	1	right
6.6.1	win	2023-06-12	16:58:46	0	0	5ba6d507cf54e40001c45aaf	1	1	DL_test	14	DL_test	17			0		ga	1	1303	6	5	antiphase_hc_osi.wav	2	6	2	noise_calib_stim_LEFT.wav	1	15	blb_dichoticlistening_ga-ga.mp3	ga	ga	0	left
6.6.1	win	2023-06-12	16:58:46	0	0	5ba6d507cf54e40001c45aaf	1	1	DL_test	14	DL_test	18			0		ga	1	771	6	5	antiphase_hc_osi.wav	2	6	2	noise_calib_stim_LEFT.wav	1	33	blb_dichoticlistening_ta-ga.mp3	ta	ga	1	right
6.6.1	win	2023-06-12	16:58:46	0	0	5ba6d507cf54e40001c45aaf	1	1	DL_test	14	DL_test	19			0		pa	1	1940	6	5	antiphase_hc_osi.wav	2	6	2	noise_calib_stim_LEFT.wav	1	35	blb_dichoticlistening_ta-pa.mp3	ta	pa	1	right
6.6.1	win	2023-06-12	16:58:46	0	0	5ba6d507cf54e40001c45aaf	1	1	DL_test	14	DL_test	20			0		da	1	1199	6	5	antiphase_hc_osi.wav	2	6	2	noise_calib_stim_LEFT.wav	1	8	blb_dichoticlistening_da-da.mp3	da	da	0	left
6.6.1	win	2023-06-12	16:58:46	0	0	5ba6d507cf54e40001c45aaf	1	1	DL_test	14	DL_test	21			0		ba	1	2099	6	5	antiphase_hc_osi.wav	2	6	2	noise_calib_stim_LEFT.wav	1	2	blb_dichoticlistening_ba-da.mp3	ba	da	1	left
6.6.1	win	2023-06-12	16:58:46	0	0	5ba6d507cf54e40001c45aaf	1	1	DL_test	14	DL_test	22			0		ta	1	1991	6	5	antiphase_hc_osi.wav	2	6	2	noise_calib_stim_LEFT.wav	1	36	blb_dichoticlistening_ta-ta.mp3	ta	ta	0	left
6.6.1	win	2023-06-12	16:58:46	0	0	5ba6d507cf54e40001c45aaf	1	1	DL_test	14	DL_test	23			0		ga	1	1138	6	5	antiphase_hc_osi.wav	2	6	2	noise_calib_stim_LEFT.wav	1	14	blb_dichoticlistening_ga-da.mp3	ga	da	1	left
6.6.1	win	2023-06-12	16:58:46	0	0	5ba6d507cf54e40001c45aaf	1	1	DL_test	14	DL_test	24			0		ba	1	2547	6	5	antiphase_hc_osi.wav	2	6	2	noise_calib_stim_LEFT.wav	1	25	blb_dichoticlistening_pa-ba.mp3	pa	ba	1	right
6.6.1	win	2023-06-12	16:58:46	0	0	5ba6d507cf54e40001c45aaf	1	1	DL_test	14	DL_test	25			0		pa	1	1469	6	5	antiphase_hc_osi.wav	2	6	2	noise_calib_stim_LEFT.wav	1	29	blb_dichoticlistening_pa-pa.mp3	pa	pa	0	left
6.6.1	win	2023-06-12	16:58:46	0	0	5ba6d507cf54e40001c45aaf	1	1	DL_test	14	DL_test	26			0		da	1	1250	6	5	antiphase_hc_osi.wav	2	6	2	noise_calib_stim_LEFT.wav	1	11	blb_dichoticlistening_da-pa.mp3	da	pa	1	left
6.6.1	win	2023-06-12	16:58:46	0	0	5ba6d507cf54e40001c45aaf	1	1	DL_test	14	DL_test	27			0		da	1	1252	6	5	antiphase_hc_osi.wav	2	6	2	noise_calib_stim_LEFT.wav	1	10	blb_dichoticlistening_da-ka.mp3	da	ka	1	left
6.6.1	win	2023-06-12	16:58:46	0	0	5ba6d507cf54e40001c45aaf	1	1	DL_test	14	DL_test	28			0		ka	1	1269	6	5	antiphase_hc_osi.wav	2	6	2	noise_calib_stim_LEFT.wav	1	19	blb_dichoticlistening_ka-ba.mp3	ka	ba	1	left
6.6.1	win	2023-06-12	16:58:46	0	0	5ba6d507cf54e40001c45aaf	1	1	DL_test	14	DL_test	29			0		ga	1	1159	6	5	antiphase_hc_osi.wav	2	6	2	noise_calib_stim_LEFT.wav	1	27	blb_dichoticlistening_pa-ga.mp3	pa	ga	1	right
6.6.1	win	2023-06-12	16:58:46	0	0	5ba6d507cf54e40001c45aaf	1	1	DL_test	14	DL_test	30			0		ta	1	1316	6	5	antiphase_hc_osi.wav	2	6	2	noise_calib_stim_LEFT.wav	1	30	blb_dichoticlistening_pa-ta.mp3	pa	ta	1	right
6.6.1	win	2023-06-12	16:58:46	0	0	5ba6d507cf54e40001c45aaf	1	1	DL_test	14	DL_test	31			0		ba	1	1487	6	5	antiphase_hc_osi.wav	2	6	2	noise_calib_stim_LEFT.wav	1	1	blb_dichoticlistening_ba-ba.mp3	ba	ba	0	left
6.6.1	win	2023-06-12	16:58:46	0	0	5ba6d507cf54e40001c45aaf	1	1	DL_test	14	DL_test	32			0		ga	1	1444	6	5	antiphase_hc_osi.wav	2	6	2	noise_calib_stim_LEFT.wav	1	18	blb_dichoticlistening_ga-ta.mp3	ga	ta	1	left
6.6.1	win	2023-06-12	16:58:46	0	0	5ba6d507cf54e40001c45aaf	1	1	DL_test	14	DL_test	33			0		ka	1	2870	6	5	antiphase_hc_osi.wav	2	6	2	noise_calib_stim_LEFT.wav	1	22	blb_dichoticlistening_ka-ka.mp3	ka	ka	0	left
6.6.1	win	2023-06-12	16:58:46	0	0	5ba6d507cf54e40001c45aaf	1	1	DL_test	14	DL_test	34			0		ba	1	1876	6	5	antiphase_hc_osi.wav	2	6	2	noise_calib_stim_LEFT.wav	1	7	blb_dichoticlistening_da-ba.mp3	da	ba	1	right
6.6.1	win	2023-06-12	16:58:46	0	0	5ba6d507cf54e40001c45aaf	1	1	DL_test	14	DL_test	35			0		ta	1	1760	6	5	antiphase_hc_osi.wav	2	6	2	noise_calib_stim_LEFT.wav	1	31	blb_dichoticlistening_ta-ba.mp3	ta	ba	1	left
6.6.1	win	2023-06-12	16:58:46	0	0	5ba6d507cf54e40001c45aaf	1	1	DL_test	14	DL_test	36			0		ga	1	1102	6	5	antiphase_hc_osi.wav	2	6	2	noise_calib_stim_LEFT.wav	1	21	blb_dichoticlistening_ka-ga.mp3	ka	ga	1	right
6.6.1	win	2023-06-12	16:58:46	0	0	5ba6d507cf54e40001c45aaf	1	1	DL_test	15	DL_test	1			0		ka	1	1528	6	5	antiphase_hc_osi.wav	2	6	2	noise_calib_stim_LEFT.wav	1	22	blb_dichoticlistening_ka-ka.mp3	ka	ka	0	left
6.6.1	win	2023-06-12	16:58:46	0	0	5ba6d507cf54e40001c45aaf	1	1	DL_test	15	DL_test	2			0		ga	1	1171	6	5	antiphase_hc_osi.wav	2	6	2	noise_calib_stim_LEFT.wav	1	16	blb_dichoticlistening_ga-ka.mp3	ga	ka	1	left
6.6.1	win	2023-06-12	16:58:46	0	0	5ba6d507cf54e40001c45aaf	1	1	DL_test	15	DL_test	3			0		ga	1	811	6	5	antiphase_hc_osi.wav	2	6	2	noise_calib_stim_LEFT.wav	1	9	blb_dichoticlistening_da-ga.mp3	da	ga	1	right
6.6.1	win	2023-06-12	16:58:46	0	0	5ba6d507cf54e40001c45aaf	1	1	DL_test	15	DL_test	4			0		ka	1	1150	6	5	antiphase_hc_osi.wav	2	6	2	noise_calib_stim_LEFT.wav	1	34	blb_dichoticlistening_ta-ka.mp3	ta	ka	1	right
6.6.1	win	2023-06-12	16:58:46	0	0	5ba6d507cf54e40001c45aaf	1	1	DL_test	15	DL_test	5			0		ba	1	1660	6	5	antiphase_hc_osi.wav	2	6	2	noise_calib_stim_LEFT.wav	1	1	blb_dichoticlistening_ba-ba.mp3	ba	ba	0	left
6.6.1	win	2023-06-12	16:58:46	0	0	5ba6d507cf54e40001c45aaf	1	1	DL_test	15	DL_test	6			0		ga	0	1184	6	5	antiphase_hc_osi.wav	2	6	2	noise_calib_stim_LEFT.wav	1	10	blb_dichoticlistening_da-ka.mp3	da	ka	1	other
6.6.1	win	2023-06-12	16:58:46	0	0	5ba6d507cf54e40001c45aaf	1	1	DL_test	15	DL_test	7			0		ta	0	1908	6	5	antiphase_hc_osi.wav	2	6	2	noise_calib_stim_LEFT.wav	1	11	blb_dichoticlistening_da-pa.mp3	da	pa	1	other
6.6.1	win	2023-06-12	16:58:46	0	0	5ba6d507cf54e40001c45aaf	1	1	DL_test	15	DL_test	8			0		ga	1	1102	6	5	antiphase_hc_osi.wav	2	6	2	noise_calib_stim_LEFT.wav	1	33	blb_dichoticlistening_ta-ga.mp3	ta	ga	1	right
6.6.1	win	2023-06-12	16:58:46	0	0	5ba6d507cf54e40001c45aaf	1	1	DL_test	15	DL_test	9			0		ta	1	1373	6	5	antiphase_hc_osi.wav	2	6	2	noise_calib_stim_LEFT.wav	1	30	blb_dichoticlistening_pa-ta.mp3	pa	ta	1	right
6.6.1	win	2023-06-12	16:58:46	0	0	5ba6d507cf54e40001c45aaf	1	1	DL_test	15	DL_test	10			0		pa	0	1954	6	5	antiphase_hc_osi.wav	2	6	2	noise_calib_stim_LEFT.wav	1	6	blb_dichoticlistening_ba-ta.mp3	ba	ta	1	other
6.6.1	win	2023-06-12	16:58:46	0	0	5ba6d507cf54e40001c45aaf	1	1	DL_test	15	DL_test	11			0		pa	1	1167	6	5	antiphase_hc_osi.wav	2	6	2	noise_calib_stim_LEFT.wav	1	29	blb_dichoticlistening_pa-pa.mp3	pa	pa	0	left
6.6.1	win	2023-06-12	16:58:46	0	0	5ba6d507cf54e40001c45aaf	1	1	DL_test	15	DL_test	12			0		ba	1	1995	6	5	antiphase_hc_osi.wav	2	6	2	noise_calib_stim_LEFT.wav	1	2	blb_dichoticlistening_ba-da.mp3	ba	da	1	left
6.6.1	win	2023-06-12	16:58:46	0	0	5ba6d507cf54e40001c45aaf	1	1	DL_test	15	DL_test	13			0		ga	1	1693	6	5	antiphase_hc_osi.wav	2	6	2	noise_calib_stim_LEFT.wav	1	17	blb_dichoticlistening_ga-pa.mp3	ga	pa	1	left
6.6.1	win	2023-06-12	16:58:46	0	0	5ba6d507cf54e40001c45aaf	1	1	DL_test	15	DL_test	14			0		ta	1	1677	6	5	antiphase_hc_osi.wav	2	6	2	noise_calib_stim_LEFT.wav	1	35	blb_dichoticlistening_ta-pa.mp3	ta	pa	1	left
6.6.1	win	2023-06-12	16:58:46	0	0	5ba6d507cf54e40001c45aaf	1	1	DL_test	15	DL_test	15			0		da	1	1249	6	5	antiphase_hc_osi.wav	2	6	2	noise_calib_stim_LEFT.wav	1	8	blb_dichoticlistening_da-da.mp3	da	da	0	left
6.6.1	win	2023-06-12	16:58:46	0	0	5ba6d507cf54e40001c45aaf	1	1	DL_test	15	DL_test	16			0		ga	1	915	6	5	antiphase_hc_osi.wav	2	6	2	noise_calib_stim_LEFT.wav	1	15	blb_dichoticlistening_ga-ga.mp3	ga	ga	0	left
6.6.1	win	2023-06-12	16:58:46	0	0	5ba6d507cf54e40001c45aaf	1	1	DL_test	15	DL_test	17			0		ga	1	1158	6	5	antiphase_hc_osi.wav	2	6	2	noise_calib_stim_LEFT.wav	1	27	blb_dichoticlistening_pa-ga.mp3	pa	ga	1	right
6.6.1	win	2023-06-12	16:58:46	0	0	5ba6d507cf54e40001c45aaf	1	1	DL_test	15	DL_test	18			0		ka	1	1106	6	5	antiphase_hc_osi.wav	2	6	2	noise_calib_stim_LEFT.wav	1	4	blb_dichoticlistening_ba-ka.mp3	ba	ka	1	right
6.6.1	win	2023-06-12	16:58:46	0	0	5ba6d507cf54e40001c45aaf	1	1	DL_test	15	DL_test	19			0		ka	1	781	6	5	antiphase_hc_osi.wav	2	6	2	noise_calib_stim_LEFT.wav	1	28	blb_dichoticlistening_pa-ka.mp3	pa	ka	1	right
6.6.1	win	2023-06-12	16:58:46	0	0	5ba6d507cf54e40001c45aaf	1	1	DL_test	15	DL_test	20			0		ba	1	1597	6	5	antiphase_hc_osi.wav	2	6	2	noise_calib_stim_LEFT.wav	1	3	blb_dichoticlistening_ba-ga.mp3	ba	ga	1	left
6.6.1	win	2023-06-12	16:58:46	0	0	5ba6d507cf54e40001c45aaf	1	1	DL_test	15	DL_test	21			0		ta	1	2001	6	5	antiphase_hc_osi.wav	2	6	2	noise_calib_stim_LEFT.wav	1	31	blb_dichoticlistening_ta-ba.mp3	ta	ba	1	left
6.6.1	win	2023-06-12	16:58:46	0	0	5ba6d507cf54e40001c45aaf	1	1	DL_test	15	DL_test	22			0		ba	1	1736	6	5	antiphase_hc_osi.wav	2	6	2	noise_calib_stim_LEFT.wav	1	13	blb_dichoticlistening_ga-ba.mp3	ga	ba	1	right
6.6.1	win	2023-06-12	16:58:46	0	0	5ba6d507cf54e40001c45aaf	1	1	DL_test	15	DL_test	23			0		ka	1	1469	6	5	antiphase_hc_osi.wav	2	6	2	noise_calib_stim_LEFT.wav	1	23	blb_dichoticlistening_ka-pa.mp3	ka	pa	1	left
6.6.1	win	2023-06-12	16:58:46	0	0	5ba6d507cf54e40001c45aaf	1	1	DL_test	15	DL_test	24			0		da	1	1145	6	5	antiphase_hc_osi.wav	2	6	2	noise_calib_stim_LEFT.wav	1	26	blb_dichoticlistening_pa-da.mp3	pa	da	1	right
6.6.1	win	2023-06-12	16:58:46	0	0	5ba6d507cf54e40001c45aaf	1	1	DL_test	15	DL_test	25			0		ga	0	1063	6	5	antiphase_hc_osi.wav	2	6	2	noise_calib_stim_LEFT.wav	1	32	blb_dichoticlistening_ta-da.mp3	ta	da	1	other
6.6.1	win	2023-06-12	16:58:46	0	0	5ba6d507cf54e40001c45aaf	1	1	DL_test	15	DL_test	26			0		ba	1	1685	6	5	antiphase_hc_osi.wav	2	6	2	noise_calib_stim_LEFT.wav	1	7	blb_dichoticlistening_da-ba.mp3	da	ba	1	right
6.6.1	win	2023-06-12	16:58:46	0	0	5ba6d507cf54e40001c45aaf	1	1	DL_test	15	DL_test	27			0		ka	1	1368	6	5	antiphase_hc_osi.wav	2	6	2	noise_calib_stim_LEFT.wav	1	20	blb_dichoticlistening_ka-da.mp3	ka	da	1	left
6.6.1	win	2023-06-12	16:58:46	0	0	5ba6d507cf54e40001c45aaf	1	1	DL_test	15	DL_test	28			0		ga	1	1360	6	5	antiphase_hc_osi.wav	2	6	2	noise_calib_stim_LEFT.wav	1	14	blb_dichoticlistening_ga-da.mp3	ga	da	1	left
6.6.1	win	2023-06-12	16:58:46	0	0	5ba6d507cf54e40001c45aaf	1	1	DL_test	15	DL_test	29			0		ga	1	1220	6	5	antiphase_hc_osi.wav	2	6	2	noise_calib_stim_LEFT.wav	1	18	blb_dichoticlistening_ga-ta.mp3	ga	ta	1	left
6.6.1	win	2023-06-12	16:58:46	0	0	5ba6d507cf54e40001c45aaf	1	1	DL_test	15	DL_test	30			0		ga	0	1173	6	5	antiphase_hc_osi.wav	2	6	2	noise_calib_stim_LEFT.wav	1	12	blb_dichoticlistening_da-ta.mp3	da	ta	1	other
6.6.1	win	2023-06-12	16:58:46	0	0	5ba6d507cf54e40001c45aaf	1	1	DL_test	15	DL_test	31			0		ka	1	3384	6	5	antiphase_hc_osi.wav	2	6	2	noise_calib_stim_LEFT.wav	1	24	blb_dichoticlistening_ka-ta.mp3	ka	ta	1	left
6.6.1	win	2023-06-12	16:58:46	0	0	5ba6d507cf54e40001c45aaf	1	1	DL_test	15	DL_test	32			0		ka	1	1016	6	5	antiphase_hc_osi.wav	2	6	2	noise_calib_stim_LEFT.wav	1	19	blb_dichoticlistening_ka-ba.mp3	ka	ba	1	left
6.6.1	win	2023-06-12	16:58:46	0	0	5ba6d507cf54e40001c45aaf	1	1	DL_test	15	DL_test	33			0		ka	0	128893	6	5	antiphase_hc_osi.wav	2	6	2	noise_calib_stim_LEFT.wav	1	5	blb_dichoticlistening_ba-pa.mp3	ba	pa	1	other
6.6.1	win	2023-06-12	16:58:46	0	0	5ba6d507cf54e40001c45aaf	1	1	DL_test	15	DL_test	34			0		ba	1	4584	6	5	antiphase_hc_osi.wav	2	6	2	noise_calib_stim_LEFT.wav	1	25	blb_dichoticlistening_pa-ba.mp3	pa	ba	1	right
6.6.1	win	2023-06-12	16:58:46	0	0	5ba6d507cf54e40001c45aaf	1	1	DL_test	15	DL_test	35			0		ga	1	957	6	5	antiphase_hc_osi.wav	2	6	2	noise_calib_stim_LEFT.wav	1	21	blb_dichoticlistening_ka-ga.mp3	ka	ga	1	right
6.6.1	win	2023-06-12	16:58:46	0	0	5ba6d507cf54e40001c45aaf	1	1	DL_test	15	DL_test	36			0		ta	1	1188	6	5	antiphase_hc_osi.wav	2	6	2	noise_calib_stim_LEFT.wav	1	36	blb_dichoticlistening_ta-ta.mp3	ta	ta	0	left
6.6.1	win	2023-06-12	16:58:46	0	0	5ba6d507cf54e40001c45aaf	1	1	DL_test	16	DL_test	1			0		ba	1	1774	6	5	antiphase_hc_osi.wav	2	6	2	noise_calib_stim_LEFT.wav	1	19	blb_dichoticlistening_ka-ba.mp3	ka	ba	1	right
6.6.1	win	2023-06-12	16:58:46	0	0	5ba6d507cf54e40001c45aaf	1	1	DL_test	16	DL_test	2			0		ga	1	1044	6	5	antiphase_hc_osi.wav	2	6	2	noise_calib_stim_LEFT.wav	1	33	blb_dichoticlistening_ta-ga.mp3	ta	ga	1	right
6.6.1	win	2023-06-12	16:58:46	0	0	5ba6d507cf54e40001c45aaf	1	1	DL_test	16	DL_test	3			0		pa	1	1401	6	5	antiphase_hc_osi.wav	2	6	2	noise_calib_stim_LEFT.wav	1	29	blb_dichoticlistening_pa-pa.mp3	pa	pa	0	left
6.6.1	win	2023-06-12	16:58:46	0	0	5ba6d507cf54e40001c45aaf	1	1	DL_test	16	DL_test	4			0		ga	0	1032	6	5	antiphase_hc_osi.wav	2	6	2	noise_calib_stim_LEFT.wav	1	20	blb_dichoticlistening_ka-da.mp3	ka	da	1	other
6.6.1	win	2023-06-12	16:58:46	0	0	5ba6d507cf54e40001c45aaf	1	1	DL_test	16	DL_test	5			0		da	1	1209	6	5	antiphase_hc_osi.wav	2	6	2	noise_calib_stim_LEFT.wav	1	7	blb_dichoticlistening_da-ba.mp3	da	ba	1	left
6.6.1	win	2023-06-12	16:58:46	0	0	5ba6d507cf54e40001c45aaf	1	1	DL_test	16	DL_test	6			0		ba	1	1295	6	5	antiphase_hc_osi.wav	2	6	2	noise_calib_stim_LEFT.wav	1	4	blb_dichoticlistening_ba-ka.mp3	ba	ka	1	left
6.6.1	win	2023-06-12	16:58:46	0	0	5ba6d507cf54e40001c45aaf	1	1	DL_test	16	DL_test	7			0		ga	1	1505	6	5	antiphase_hc_osi.wav	2	6	2	noise_calib_stim_LEFT.wav	1	27	blb_dichoticlistening_pa-ga.mp3	pa	ga	1	right
6.6.1	win	2023-06-12	16:58:46	0	0	5ba6d507cf54e40001c45aaf	1	1	DL_test	16	DL_test	8			0		ba	1	1304	6	5	antiphase_hc_osi.wav	2	6	2	noise_calib_stim_LEFT.wav	1	31	blb_dichoticlistening_ta-ba.mp3	ta	ba	1	right
6.6.1	win	2023-06-12	16:58:46	0	0	5ba6d507cf54e40001c45aaf	1	1	DL_test	16	DL_test	9			0		ba	1	1138	6	5	antiphase_hc_osi.wav	2	6	2	noise_calib_stim_LEFT.wav	1	3	blb_dichoticlistening_ba-ga.mp3	ba	ga	1	left
6.6.1	win	2023-06-12	16:58:46	0	0	5ba6d507cf54e40001c45aaf	1	1	DL_test	16	DL_test	10			0		ga	0	1427	6	5	antiphase_hc_osi.wav	2	6	2	noise_calib_stim_LEFT.wav	1	26	blb_dichoticlistening_pa-da.mp3	pa	da	1	other
6.6.1	win	2023-06-12	16:58:46	0	0	5ba6d507cf54e40001c45aaf	1	1	DL_test	16	DL_test	11			0		ka	1	1041	6	5	antiphase_hc_osi.wav	2	6	2	noise_calib_stim_LEFT.wav	1	24	blb_dichoticlistening_ka-ta.mp3	ka	ta	1	left
6.6.1	win	2023-06-12	16:58:46	0	0	5ba6d507cf54e40001c45aaf	1	1	DL_test	16	DL_test	12			0		ka	1	1248	6	5	antiphase_hc_osi.wav	2	6	2	noise_calib_stim_LEFT.wav	1	28	blb_dichoticlistening_pa-ka.mp3	pa	ka	1	right
6.6.1	win	2023-06-12	16:58:46	0	0	5ba6d507cf54e40001c45aaf	1	1	DL_test	16	DL_test	13			0		ba	0	1163	6	5	antiphase_hc_osi.wav	2	6	2	noise_calib_stim_LEFT.wav	1	10	blb_dichoticlistening_da-ka.mp3	da	ka	1	other
6.6.1	win	2023-06-12	16:58:46	0	0	5ba6d507cf54e40001c45aaf	1	1	DL_test	16	DL_test	14			0		ba	1	1242	6	5	antiphase_hc_osi.wav	2	6	2	noise_calib_stim_LEFT.wav	1	25	blb_dichoticlistening_pa-ba.mp3	pa	ba	1	right
6.6.1	win	2023-06-12	16:58:46	0	0	5ba6d507cf54e40001c45aaf	1	1	DL_test	16	DL_test	15			0		ga	0	1026	6	5	antiphase_hc_osi.wav	2	6	2	noise_calib_stim_LEFT.wav	1	11	blb_dichoticlistening_da-pa.mp3	da	pa	1	other
6.6.1	win	2023-06-12	16:58:46	0	0	5ba6d507cf54e40001c45aaf	1	1	DL_test	16	DL_test	16			0		pa	1	1448	6	5	antiphase_hc_osi.wav	2	6	2	noise_calib_stim_LEFT.wav	1	30	blb_dichoticlistening_pa-ta.mp3	pa	ta	1	left
6.6.1	win	2023-06-12	16:58:46	0	0	5ba6d507cf54e40001c45aaf	1	1	DL_test	16	DL_test	17			0		ta	1	1315	6	5	antiphase_hc_osi.wav	2	6	2	noise_calib_stim_LEFT.wav	1	36	blb_dichoticlistening_ta-ta.mp3	ta	ta	0	left
6.6.1	win	2023-06-12	16:58:46	0	0	5ba6d507cf54e40001c45aaf	1	1	DL_test	16	DL_test	18			0		ka	1	1164	6	5	antiphase_hc_osi.wav	2	6	2	noise_calib_stim_LEFT.wav	1	34	blb_dichoticlistening_ta-ka.mp3	ta	ka	1	right
6.6.1	win	2023-06-12	16:58:46	0	0	5ba6d507cf54e40001c45aaf	1	1	DL_test	16	DL_test	19			0		ga	1	1002	6	5	antiphase_hc_osi.wav	2	6	2	noise_calib_stim_LEFT.wav	1	15	blb_dichoticlistening_ga-ga.mp3	ga	ga	0	left
6.6.1	win	2023-06-12	16:58:46	0	0	5ba6d507cf54e40001c45aaf	1	1	DL_test	16	DL_test	20			0		ba	1	1232	6	5	antiphase_hc_osi.wav	2	6	2	noise_calib_stim_LEFT.wav	1	13	blb_dichoticlistening_ga-ba.mp3	ga	ba	1	right
6.6.1	win	2023-06-12	16:58:46	0	0	5ba6d507cf54e40001c45aaf	1	1	DL_test	16	DL_test	21			0		ga	0	1048	6	5	antiphase_hc_osi.wav	2	6	2	noise_calib_stim_LEFT.wav	1	12	blb_dichoticlistening_da-ta.mp3	da	ta	1	other
6.6.1	win	2023-06-12	16:58:46	0	0	5ba6d507cf54e40001c45aaf	1	1	DL_test	16	DL_test	22			0		ta	1	1420	6	5	antiphase_hc_osi.wav	2	6	2	noise_calib_stim_LEFT.wav	1	35	blb_dichoticlistening_ta-pa.mp3	ta	pa	1	left
6.6.1	win	2023-06-12	16:58:46	0	0	5ba6d507cf54e40001c45aaf	1	1	DL_test	16	DL_test	23			0		ba	1	1244	6	5	antiphase_hc_osi.wav	2	6	2	noise_calib_stim_LEFT.wav	1	5	blb_dichoticlistening_ba-pa.mp3	ba	pa	1	left
6.6.1	win	2023-06-12	16:58:46	0	0	5ba6d507cf54e40001c45aaf	1	1	DL_test	16	DL_test	24			0		ba	1	1232	6	5	antiphase_hc_osi.wav	2	6	2	noise_calib_stim_LEFT.wav	1	1	blb_dichoticlistening_ba-ba.mp3	ba	ba	0	left
6.6.1	win	2023-06-12	16:58:46	0	0	5ba6d507cf54e40001c45aaf	1	1	DL_test	16	DL_test	25			0		pa	0	2230	6	5	antiphase_hc_osi.wav	2	6	2	noise_calib_stim_LEFT.wav	1	6	blb_dichoticlistening_ba-ta.mp3	ba	ta	1	other
6.6.1	win	2023-06-12	16:58:46	0	0	5ba6d507cf54e40001c45aaf	1	1	DL_test	16	DL_test	26			0		ka	1	1091	6	5	antiphase_hc_osi.wav	2	6	2	noise_calib_stim_LEFT.wav	1	22	blb_dichoticlistening_ka-ka.mp3	ka	ka	0	left
6.6.1	win	2023-06-12	16:58:46	0	0	5ba6d507cf54e40001c45aaf	1	1	DL_test	16	DL_test	27			0		ga	1	916	6	5	antiphase_hc_osi.wav	2	6	2	noise_calib_stim_LEFT.wav	1	17	blb_dichoticlistening_ga-pa.mp3	ga	pa	1	left
6.6.1	win	2023-06-12	16:58:46	0	0	5ba6d507cf54e40001c45aaf	1	1	DL_test	16	DL_test	28			0		ga	1	1277	6	5	antiphase_hc_osi.wav	2	6	2	noise_calib_stim_LEFT.wav	1	16	blb_dichoticlistening_ga-ka.mp3	ga	ka	1	left
6.6.1	win	2023-06-12	16:58:46	0	0	5ba6d507cf54e40001c45aaf	1	1	DL_test	16	DL_test	29			0		ga	1	1025	6	5	antiphase_hc_osi.wav	2	6	2	noise_calib_stim_LEFT.wav	1	21	blb_dichoticlistening_ka-ga.mp3	ka	ga	1	right
6.6.1	win	2023-06-12	16:58:46	0	0	5ba6d507cf54e40001c45aaf	1	1	DL_test	16	DL_test	30			0		ga	1	1041	6	5	antiphase_hc_osi.wav	2	6	2	noise_calib_stim_LEFT.wav	1	14	blb_dichoticlistening_ga-da.mp3	ga	da	1	left
6.6.1	win	2023-06-12	16:58:46	0	0	5ba6d507cf54e40001c45aaf	1	1	DL_test	16	DL_test	31			0		ga	1	769	6	5	antiphase_hc_osi.wav	2	6	2	noise_calib_stim_LEFT.wav	1	18	blb_dichoticlistening_ga-ta.mp3	ga	ta	1	left
6.6.1	win	2023-06-12	16:58:46	0	0	5ba6d507cf54e40001c45aaf	1	1	DL_test	16	DL_test	32			0		ba	1	1289	6	5	antiphase_hc_osi.wav	2	6	2	noise_calib_stim_LEFT.wav	1	2	blb_dichoticlistening_ba-da.mp3	ba	da	1	left
6.6.1	win	2023-06-12	16:58:46	0	0	5ba6d507cf54e40001c45aaf	1	1	DL_test	16	DL_test	33			0		da	1	2006	6	5	antiphase_hc_osi.wav	2	6	2	noise_calib_stim_LEFT.wav	1	8	blb_dichoticlistening_da-da.mp3	da	da	0	left
6.6.1	win	2023-06-12	16:58:46	0	0	5ba6d507cf54e40001c45aaf	1	1	DL_test	16	DL_test	34			0		ga	1	1398	6	5	antiphase_hc_osi.wav	2	6	2	noise_calib_stim_LEFT.wav	1	9	blb_dichoticlistening_da-ga.mp3	da	ga	1	right
6.6.1	win	2023-06-12	16:58:46	0	0	5ba6d507cf54e40001c45aaf	1	1	DL_test	16	DL_test	35			0		ka	1	1012	6	5	antiphase_hc_osi.wav	2	6	2	noise_calib_stim_LEFT.wav	1	23	blb_dichoticlistening_ka-pa.mp3	ka	pa	1	left
6.6.1	win	2023-06-12	16:58:46	0	0	5ba6d507cf54e40001c45aaf	1	1	DL_test	16	DL_test	36			0		ga	0	1211	6	5	antiphase_hc_osi.wav	2	6	2	noise_calib_stim_LEFT.wav	1	32	blb_dichoticlistening_ta-da.mp3	ta	da	1	other
6.6.1	win	2023-06-12	16:58:46	17:20:37	1307370	5ba6d507cf54e40001c45aaf	1	1	practice_slash	22	practice_slash	1	stimuli_distractor_trianglediamonds.svg	stimuli_distractor_diamondtriangles.svg	16	no	0	1	2000	6	5	antiphase_hc_osi.wav	2	6	2	noise_calib_stim_LEFT.wav	1	32	blb_dichoticlistening_ta-da.mp3	ta	da	1	other
6.6.1	win	2023-06-12	16:58:46	17:20:37	1307370	5ba6d507cf54e40001c45aaf	1	1	practice_slash	22	advance_on_keypress_SLASH	2	stimuli_distractor_trianglediamonds.svg	stimuli_distractor_diamondtriangles.svg	16	no	57	0	987	6	5	antiphase_hc_osi.wav	2	6	2	noise_calib_stim_LEFT.wav	1	32	blb_dichoticlistening_ta-da.mp3	ta	da	1	other
6.6.1	win	2023-06-12	16:58:46	17:20:40	1310605	5ba6d507cf54e40001c45aaf	1	1	practice_slash	22	practice_slash	3	stimuli_target_rectanglediamonds.svg	stimuli_distractor_trianglediamonds.svg	4	yes	53	1	623	6	5	antiphase_hc_osi.wav	2	6	2	noise_calib_stim_LEFT.wav	1	32	blb_dichoticlistening_ta-da.mp3	ta	da	1	other
6.6.1	win	2023-06-12	16:58:46	17:20:40	1310605	5ba6d507cf54e40001c45aaf	1	1	practice_slash	22	advance_on_keypress_SLASH	4	stimuli_target_rectanglediamonds.svg	stimuli_distractor_trianglediamonds.svg	4	yes	57	0	949	6	5	antiphase_hc_osi.wav	2	6	2	noise_calib_stim_LEFT.wav	1	32	blb_dichoticlistening_ta-da.mp3	ta	da	1	other
6.6.1	win	2023-06-12	16:58:46	17:20:44	1314671	5ba6d507cf54e40001c45aaf	1	1	practice_slash	22	practice_slash	5	stimuli_distractor_trianglediamonds.svg	stimuli_target_diamondrectangles.svg	12	yes	53	1	1496	6	5	antiphase_hc_osi.wav	2	6	2	noise_calib_stim_LEFT.wav	1	32	blb_dichoticlistening_ta-da.mp3	ta	da	1	other
6.6.1	win	2023-06-12	16:58:46	17:20:44	1314671	5ba6d507cf54e40001c45aaf	1	1	practice_slash	22	advance_on_keypress_SLASH	6	stimuli_distractor_trianglediamonds.svg	stimuli_target_diamondrectangles.svg	12	yes	57	0	2235	6	5	antiphase_hc_osi.wav	2	6	2	noise_calib_stim_LEFT.wav	1	32	blb_dichoticlistening_ta-da.mp3	ta	da	1	other
6.6.1	win	2023-06-12	16:58:46	17:20:49	1319457	5ba6d507cf54e40001c45aaf	1	1	practice_slash	22	practice_slash	7	stimuli_distractor_trianglediamonds.svg	stimuli_target_squarediamonds.svg	11	yes	53	1	930	6	5	antiphase_hc_osi.wav	2	6	2	noise_calib_stim_LEFT.wav	1	32	blb_dichoticlistening_ta-da.mp3	ta	da	1	other
6.6.1	win	2023-06-12	16:58:46	17:20:49	1319457	5ba6d507cf54e40001c45aaf	1	1	practice_slash	22	advance_on_keypress_SLASH	8	stimuli_distractor_trianglediamonds.svg	stimuli_target_squarediamonds.svg	11	yes	57	0	1017	6	5	antiphase_hc_osi.wav	2	6	2	noise_calib_stim_LEFT.wav	1	32	blb_dichoticlistening_ta-da.mp3	ta	da	1	other
6.6.1	win	2023-06-12	16:58:46	17:20:52	1323003	5ba6d507cf54e40001c45aaf	1	1	practice_slash	22	practice_slash	9	stimuli_target_squarediamonds.svg	stimuli_distractor_diamondtriangles.svg	2	yes	53	1	907	6	5	antiphase_hc_osi.wav	2	6	2	noise_calib_stim_LEFT.wav	1	32	blb_dichoticlistening_ta-da.mp3	ta	da	1	other
6.6.1	win	2023-06-12	16:58:46	17:20:52	1323003	5ba6d507cf54e40001c45aaf	1	1	practice_slash	22	advance_on_keypress_SLASH	10	stimuli_target_squarediamonds.svg	stimuli_distractor_diamondtriangles.svg	2	yes	57	0	552	6	5	antiphase_hc_osi.wav	2	6	2	noise_calib_stim_LEFT.wav	1	32	blb_dichoticlistening_ta-da.mp3	ta	da	1	other
6.6.1	win	2023-06-12	16:58:46	17:20:56	1326383	5ba6d507cf54e40001c45aaf	1	1	practice_slash	22	practice_slash	11	stimuli_distractor_diamondtriangles.svg	stimuli_target_rectangletriangles.svg	7	yes	53	1	1208	6	5	antiphase_hc_osi.wav	2	6	2	noise_calib_stim_LEFT.wav	1	32	blb_dichoticlistening_ta-da.mp3	ta	da	1	other
6.6.1	win	2023-06-12	16:58:46	17:20:56	1326383	5ba6d507cf54e40001c45aaf	1	1	practice_slash	22	advance_on_keypress_SLASH	12	stimuli_distractor_diamondtriangles.svg	stimuli_target_rectangletriangles.svg	7	yes	57	0	558	6	5	antiphase_hc_osi.wav	2	6	2	noise_calib_stim_LEFT.wav	1	32	blb_dichoticlistening_ta-da.mp3	ta	da	1	other
6.6.1	win	2023-06-12	16:58:46	17:20:59	1329459	5ba6d507cf54e40001c45aaf	1	1	practice_slash	22	practice_slash	13	stimuli_target_squarediamonds.svg	stimuli_distractor_trianglediamonds.svg	5	yes	53	1	896	6	5	antiphase_hc_osi.wav	2	6	2	noise_calib_stim_LEFT.wav	1	32	blb_dichoticlistening_ta-da.mp3	ta	da	1	other
6.6.1	win	2023-06-12	16:58:46	17:20:59	1329459	5ba6d507cf54e40001c45aaf	1	1	practice_slash	22	advance_on_keypress_SLASH	14	stimuli_target_squarediamonds.svg	stimuli_distractor_trianglediamonds.svg	5	yes	57	0	453	6	5	antiphase_hc_osi.wav	2	6	2	noise_calib_stim_LEFT.wav	1	32	blb_dichoticlistening_ta-da.mp3	ta	da	1	other
6.6.1	win	2023-06-12	16:58:46	17:21:02	1332535	5ba6d507cf54e40001c45aaf	1	1	practice_slash	22	practice_slash	15	stimuli_distractor_trianglediamonds.svg	stimuli_target_rectanglediamonds.svg	10	yes	53	1	1002	6	5	antiphase_hc_osi.wav	2	6	2	noise_calib_stim_LEFT.wav	1	32	blb_dichoticlistening_ta-da.mp3	ta	da	1	other
6.6.1	win	2023-06-12	16:58:46	17:21:02	1332535	5ba6d507cf54e40001c45aaf	1	1	practice_slash	22	advance_on_keypress_SLASH	16	stimuli_distractor_trianglediamonds.svg	stimuli_target_rectanglediamonds.svg	10	yes	57	0	296	6	5	antiphase_hc_osi.wav	2	6	2	noise_calib_stim_LEFT.wav	1	32	blb_dichoticlistening_ta-da.mp3	ta	da	1	other
6.6.1	win	2023-06-12	16:58:46	17:21:06	1336456	5ba6d507cf54e40001c45aaf	1	1	practice_slash	22	practice_slash	17	stimuli_distractor_diamondtriangles.svg	stimuli_distractor_trianglediamonds.svg	14	no	0	1	2000	6	5	antiphase_hc_osi.wav	2	6	2	noise_calib_stim_LEFT.wav	1	32	blb_dichoticlistening_ta-da.mp3	ta	da	1	other
6.6.1	win	2023-06-12	16:58:46	17:21:06	1336456	5ba6d507cf54e40001c45aaf	1	1	practice_slash	22	advance_on_keypress_SLASH	18	stimuli_distractor_diamondtriangles.svg	stimuli_distractor_trianglediamonds.svg	14	no	57	0	485	6	5	antiphase_hc_osi.wav	2	6	2	noise_calib_stim_LEFT.wav	1	32	blb_dichoticlistening_ta-da.mp3	ta	da	1	other
6.6.1	win	2023-06-12	16:58:46	17:21:10	1340563	5ba6d507cf54e40001c45aaf	1	1	practice_slash	22	practice_slash	19	stimuli_target_diamondsquares.svg	stimuli_distractor_diamondtriangles.svg	3	yes	0	0	2000	6	5	antiphase_hc_osi.wav	2	6	2	noise_calib_stim_LEFT.wav	1	32	blb_dichoticlistening_ta-da.mp3	ta	da	1	other
6.6.1	win	2023-06-12	16:58:46	17:21:10	1340563	5ba6d507cf54e40001c45aaf	1	1	practice_slash	22	advance_on_keypress_SLASH	20	stimuli_target_diamondsquares.svg	stimuli_distractor_diamondtriangles.svg	3	yes	57	0	710	6	5	antiphase_hc_osi.wav	2	6	2	noise_calib_stim_LEFT.wav	1	32	blb_dichoticlistening_ta-da.mp3	ta	da	1	other
6.6.1	win	2023-06-12	16:58:46	17:21:14	1344896	5ba6d507cf54e40001c45aaf	1	1	practice_slash	22	practice_slash	21	stimuli_distractor_diamondtriangles.svg	stimuli_target_trianglerectangles.svg	9	yes	0	0	2000	6	5	antiphase_hc_osi.wav	2	6	2	noise_calib_stim_LEFT.wav	1	32	blb_dichoticlistening_ta-da.mp3	ta	da	1	other
6.6.1	win	2023-06-12	16:58:46	17:21:14	1344896	5ba6d507cf54e40001c45aaf	1	1	practice_slash	22	advance_on_keypress_SLASH	22	stimuli_distractor_diamondtriangles.svg	stimuli_target_trianglerectangles.svg	9	yes	57	0	425	6	5	antiphase_hc_osi.wav	2	6	2	noise_calib_stim_LEFT.wav	1	32	blb_dichoticlistening_ta-da.mp3	ta	da	1	other
6.6.1	win	2023-06-12	16:58:46	17:21:18	1348939	5ba6d507cf54e40001c45aaf	1	1	practice_slash	22	practice_slash	23	stimuli_distractor_diamondtriangles.svg	stimuli_distractor_diamondtriangles.svg	13	no	0	1	2000	6	5	antiphase_hc_osi.wav	2	6	2	noise_calib_stim_LEFT.wav	1	32	blb_dichoticlistening_ta-da.mp3	ta	da	1	other
6.6.1	win	2023-06-12	16:58:46	17:21:18	1348939	5ba6d507cf54e40001c45aaf	1	1	practice_slash	22	advance_on_keypress_SLASH	24	stimuli_distractor_diamondtriangles.svg	stimuli_distractor_diamondtriangles.svg	13	no	57	0	591	6	5	antiphase_hc_osi.wav	2	6	2	noise_calib_stim_LEFT.wav	1	32	blb_dichoticlistening_ta-da.mp3	ta	da	1	other
6.6.1	win	2023-06-12	16:58:46	17:21:22	1353150	5ba6d507cf54e40001c45aaf	1	1	practice_slash	22	practice_slash	25	stimuli_distractor_trianglediamonds.svg	stimuli_distractor_trianglediamonds.svg	15	no	0	1	2000	6	5	antiphase_hc_osi.wav	2	6	2	noise_calib_stim_LEFT.wav	1	32	blb_dichoticlistening_ta-da.mp3	ta	da	1	other
6.6.1	win	2023-06-12	16:58:46	17:21:22	1353150	5ba6d507cf54e40001c45aaf	1	1	practice_slash	22	advance_on_keypress_SLASH	26	stimuli_distractor_trianglediamonds.svg	stimuli_distractor_trianglediamonds.svg	15	no	57	0	467	6	5	antiphase_hc_osi.wav	2	6	2	noise_calib_stim_LEFT.wav	1	32	blb_dichoticlistening_ta-da.mp3	ta	da	1	other
6.6.1	win	2023-06-12	16:58:46	17:21:26	1357235	5ba6d507cf54e40001c45aaf	1	1	practice_slash	22	practice_slash	27	stimuli_distractor_diamondtriangles.svg	stimuli_target_diamondrectangles.svg	8	yes	0	0	2000	6	5	antiphase_hc_osi.wav	2	6	2	noise_calib_stim_LEFT.wav	1	32	blb_dichoticlistening_ta-da.mp3	ta	da	1	other
6.6.1	win	2023-06-12	16:58:46	17:21:26	1357235	5ba6d507cf54e40001c45aaf	1	1	practice_slash	22	advance_on_keypress_SLASH	28	stimuli_distractor_diamondtriangles.svg	stimuli_target_diamondrectangles.svg	8	yes	57	0	268	6	5	antiphase_hc_osi.wav	2	6	2	noise_calib_stim_LEFT.wav	1	32	blb_dichoticlistening_ta-da.mp3	ta	da	1	other
6.6.1	win	2023-06-12	16:58:46	17:21:29	1359999	5ba6d507cf54e40001c45aaf	1	1	practice_slash	22	practice_slash	29	stimuli_target_rectanglediamonds.svg	stimuli_distractor_diamondtriangles.svg	1	yes	53	1	879	6	5	antiphase_hc_osi.wav	2	6	2	noise_calib_stim_LEFT.wav	1	32	blb_dichoticlistening_ta-da.mp3	ta	da	1	other
6.6.1	win	2023-06-12	16:58:46	17:21:29	1359999	5ba6d507cf54e40001c45aaf	1	1	practice_slash	22	advance_on_keypress_SLASH	30	stimuli_target_rectanglediamonds.svg	stimuli_distractor_diamondtriangles.svg	1	yes	57	0	324	6	5	antiphase_hc_osi.wav	2	6	2	noise_calib_stim_LEFT.wav	1	32	blb_dichoticlistening_ta-da.mp3	ta	da	1	other
6.6.1	win	2023-06-12	16:58:46	17:21:33	1363947	5ba6d507cf54e40001c45aaf	1	1	practice_slash	22	practice_slash	31	stimuli_target_diamondsquares.svg	stimuli_distractor_trianglediamonds.svg	6	yes	0	0	2000	6	5	antiphase_hc_osi.wav	2	6	2	noise_calib_stim_LEFT.wav	1	32	blb_dichoticlistening_ta-da.mp3	ta	da	1	other
6.6.1	win	2023-06-12	16:58:46	17:21:33	1363947	5ba6d507cf54e40001c45aaf	1	1	practice_slash	22	advance_on_keypress_SLASH	32	stimuli_target_diamondsquares.svg	stimuli_distractor_trianglediamonds.svg	6	yes	57	0	277	6	5	antiphase_hc_osi.wav	2	6	2	noise_calib_stim_LEFT.wav	1	32	blb_dichoticlistening_ta-da.mp3	ta	da	1	other
6.6.1	win	2023-06-12	16:58:46	17:21:38	1368888	5ba6d507cf54e40001c45aaf	1	1	main_slash	24	main_slash	1	stimuli_distractor_diamondtriangles.svg	stimuli_target_rectangletriangles.svg	13	yes	53	1	982	6	5	antiphase_hc_osi.wav	2	6	2	noise_calib_stim_LEFT.wav	1	32	blb_dichoticlistening_ta-da.mp3	ta	da	1	other
6.6.1	win	2023-06-12	16:58:46	17:21:38	1368888	5ba6d507cf54e40001c45aaf	1	1	main_slash	24	advance_on_keypress_SLASH	2	stimuli_distractor_diamondtriangles.svg	stimuli_target_rectangletriangles.svg	13	yes	57	0	1165	6	5	antiphase_hc_osi.wav	2	6	2	noise_calib_stim_LEFT.wav	1	32	blb_dichoticlistening_ta-da.mp3	ta	da	1	other
6.6.1	win	2023-06-12	16:58:46	17:21:41	1371540	5ba6d507cf54e40001c45aaf	1	1	main_slash	24	main_slash	3	stimuli_target_squarediamonds.svg	stimuli_distractor_diamondtriangles.svg	8	yes	53	1	870	6	5	antiphase_hc_osi.wav	2	6	2	noise_calib_stim_LEFT.wav	1	32	blb_dichoticlistening_ta-da.mp3	ta	da	1	other
6.6.1	win	2023-06-12	16:58:46	17:21:41	1371540	5ba6d507cf54e40001c45aaf	1	1	main_slash	24	advance_on_keypress_SLASH	4	stimuli_target_squarediamonds.svg	stimuli_distractor_diamondtriangles.svg	8	yes	57	0	2291	6	5	antiphase_hc_osi.wav	2	6	2	noise_calib_stim_LEFT.wav	1	32	blb_dichoticlistening_ta-da.mp3	ta	da	1	other
6.6.1	win	2023-06-12	16:58:46	17:21:46	1376452	5ba6d507cf54e40001c45aaf	1	1	main_slash	24	main_slash	5	stimuli_distractor_trianglediamonds.svg	stimuli_target_diamondrectangles.svg	27	yes	0	0	2000	6	5	antiphase_hc_osi.wav	2	6	2	noise_calib_stim_LEFT.wav	1	32	blb_dichoticlistening_ta-da.mp3	ta	da	1	other
6.6.1	win	2023-06-12	16:58:46	17:21:46	1376452	5ba6d507cf54e40001c45aaf	1	1	main_slash	24	advance_on_keypress_SLASH	6	stimuli_distractor_trianglediamonds.svg	stimuli_target_diamondrectangles.svg	27	yes	57	0	316	6	5	antiphase_hc_osi.wav	2	6	2	noise_calib_stim_LEFT.wav	1	32	blb_dichoticlistening_ta-da.mp3	ta	da	1	other
6.6.1	win	2023-06-12	16:58:46	17:21:47	1377776	5ba6d507cf54e40001c45aaf	1	1	main_slash	24	main_slash	7	stimuli_target_trianglesquares.svg	stimuli_distractor_diamondtriangles.svg	22	yes	53	1	391	6	5	antiphase_hc_osi.wav	2	6	2	noise_calib_stim_LEFT.wav	1	32	blb_dichoticlistening_ta-da.mp3	ta	da	1	other
6.6.1	win	2023-06-12	16:58:46	17:21:47	1377776	5ba6d507cf54e40001c45aaf	1	1	main_slash	24	advance_on_keypress_SLASH	8	stimuli_target_trianglesquares.svg	stimuli_distractor_diamondtriangles.svg	22	yes	57	0	845	6	5	antiphase_hc_osi.wav	2	6	2	noise_calib_stim_LEFT.wav	1	32	blb_dichoticlistening_ta-da.mp3	ta	da	1	other
6.6.1	win	2023-06-12	16:58:46	17:21:50	1381240	5ba6d507cf54e40001c45aaf	1	1	main_slash	24	main_slash	9	stimuli_distractor_trianglediamonds.svg	stimuli_target_trianglesquares.svg	26	yes	0	0	2000	6	5	antiphase_hc_osi.wav	2	6	2	noise_calib_stim_LEFT.wav	1	32	blb_dichoticlistening_ta-da.mp3	ta	da	1	other
6.6.1	win	2023-06-12	16:58:46	17:21:50	1381240	5ba6d507cf54e40001c45aaf	1	1	main_slash	24	advance_on_keypress_SLASH	10	stimuli_distractor_trianglediamonds.svg	stimuli_target_trianglesquares.svg	26	yes	57	0	572	6	5	antiphase_hc_osi.wav	2	6	2	noise_calib_stim_LEFT.wav	1	32	blb_dichoticlistening_ta-da.mp3	ta	da	1	other
6.6.1	win	2023-06-12	16:58:46	17:21:52	1382953	5ba6d507cf54e40001c45aaf	1	1	main_slash	24	main_slash	11	stimuli_distractor_trianglediamonds.svg	stimuli_target_rectangletriangles.svg	9	yes	53	1	518	6	5	antiphase_hc_osi.wav	2	6	2	noise_calib_stim_LEFT.wav	1	32	blb_dichoticlistening_ta-da.mp3	ta	da	1	other
6.6.1	win	2023-06-12	16:58:46	17:21:52	1382953	5ba6d507cf54e40001c45aaf	1	1	main_slash	24	advance_on_keypress_SLASH	12	stimuli_distractor_trianglediamonds.svg	stimuli_target_rectangletriangles.svg	9	yes	57	0	831	6	5	antiphase_hc_osi.wav	2	6	2	noise_calib_stim_LEFT.wav	1	32	blb_dichoticlistening_ta-da.mp3	ta	da	1	other
6.6.1	win	2023-06-12	16:58:46	17:21:54	1384753	5ba6d507cf54e40001c45aaf	1	1	main_slash	24	main_slash	13	stimuli_target_squarediamonds.svg	stimuli_distractor_trianglediamonds.svg	4	yes	53	1	351	6	5	antiphase_hc_osi.wav	2	6	2	noise_calib_stim_LEFT.wav	1	32	blb_dichoticlistening_ta-da.mp3	ta	da	1	other
6.6.1	win	2023-06-12	16:58:46	17:21:54	1384753	5ba6d507cf54e40001c45aaf	1	1	main_slash	24	advance_on_keypress_SLASH	14	stimuli_target_squarediamonds.svg	stimuli_distractor_trianglediamonds.svg	4	yes	57	0	665	6	5	antiphase_hc_osi.wav	2	6	2	noise_calib_stim_LEFT.wav	1	32	blb_dichoticlistening_ta-da.mp3	ta	da	1	other
6.6.1	win	2023-06-12	16:58:46	17:21:56	1386415	5ba6d507cf54e40001c45aaf	1	1	main_slash	24	main_slash	15	stimuli_distractor_trianglediamonds.svg	stimuli_target_diamondsquares.svg	28	yes	53	1	376	6	5	antiphase_hc_osi.wav	2	6	2	noise_calib_stim_LEFT.wav	1	32	blb_dichoticlistening_ta-da.mp3	ta	da	1	other
6.6.1	win	2023-06-12	16:58:46	17:21:56	1386415	5ba6d507cf54e40001c45aaf	1	1	main_slash	24	advance_on_keypress_SLASH	16	stimuli_distractor_trianglediamonds.svg	stimuli_target_diamondsquares.svg	28	yes	57	0	603	6	5	antiphase_hc_osi.wav	2	6	2	noise_calib_stim_LEFT.wav	1	32	blb_dichoticlistening_ta-da.mp3	ta	da	1	other
6.6.1	win	2023-06-12	16:58:46	17:21:57	1388255	5ba6d507cf54e40001c45aaf	1	1	main_slash	24	main_slash	17	stimuli_target_rectangletriangles.svg	stimuli_distractor_trianglediamonds.svg	1	yes	53	1	622	6	5	antiphase_hc_osi.wav	2	6	2	noise_calib_stim_LEFT.wav	1	32	blb_dichoticlistening_ta-da.mp3	ta	da	1	other
6.6.1	win	2023-06-12	16:58:46	17:21:57	1388255	5ba6d507cf54e40001c45aaf	1	1	main_slash	24	advance_on_keypress_SLASH	18	stimuli_target_rectangletriangles.svg	stimuli_distractor_trianglediamonds.svg	1	yes	57	0	988	6	5	antiphase_hc_osi.wav	2	6	2	noise_calib_stim_LEFT.wav	1	32	blb_dichoticlistening_ta-da.mp3	ta	da	1	other
6.6.1	win	2023-06-12	16:58:46	17:21:59	1390185	5ba6d507cf54e40001c45aaf	1	1	main_slash	24	main_slash	19	stimuli_target_rectanglediamonds.svg	stimuli_distractor_trianglediamonds.svg	2	yes	53	1	322	6	5	antiphase_hc_osi.wav	2	6	2	noise_calib_stim_LEFT.wav	1	32	blb_dichoticlistening_ta-da.mp3	ta	da	1	other
6.6.1	win	2023-06-12	16:58:46	17:21:59	1390185	5ba6d507cf54e40001c45aaf	1	1	main_slash	24	advance_on_keypress_SLASH	20	stimuli_target_rectanglediamonds.svg	stimuli_distractor_trianglediamonds.svg	2	yes	57	0	693	6	5	antiphase_hc_osi.wav	2	6	2	noise_calib_stim_LEFT.wav	1	32	blb_dichoticlistening_ta-da.mp3	ta	da	1	other
6.6.1	win	2023-06-12	16:58:46	17:22:03	1393494	5ba6d507cf54e40001c45aaf	1	1	main_slash	24	main_slash	21	stimuli_distractor_diamondtriangles.svg	stimuli_target_trianglesquares.svg	30	yes	0	0	2000	6	5	antiphase_hc_osi.wav	2	6	2	noise_calib_stim_LEFT.wav	1	32	blb_dichoticlistening_ta-da.mp3	ta	da	1	other
6.6.1	win	2023-06-12	16:58:46	17:22:03	1393494	5ba6d507cf54e40001c45aaf	1	1	main_slash	24	advance_on_keypress_SLASH	22	stimuli_distractor_diamondtriangles.svg	stimuli_target_trianglesquares.svg	30	yes	57	0	458	6	5	antiphase_hc_osi.wav	2	6	2	noise_calib_stim_LEFT.wav	1	32	blb_dichoticlistening_ta-da.mp3	ta	da	1	other
6.6.1	win	2023-06-12	16:58:46	17:22:04	1394981	5ba6d507cf54e40001c45aaf	1	1	main_slash	24	main_slash	23	stimuli_distractor_trianglediamonds.svg	stimuli_target_squarediamonds.svg	12	yes	53	1	409	6	5	antiphase_hc_osi.wav	2	6	2	noise_calib_stim_LEFT.wav	1	32	blb_dichoticlistening_ta-da.mp3	ta	da	1	other
6.6.1	win	2023-06-12	16:58:46	17:22:04	1394981	5ba6d507cf54e40001c45aaf	1	1	main_slash	24	advance_on_keypress_SLASH	24	stimuli_distractor_trianglediamonds.svg	stimuli_target_squarediamonds.svg	12	yes	57	0	792	6	5	antiphase_hc_osi.wav	2	6	2	noise_calib_stim_LEFT.wav	1	32	blb_dichoticlistening_ta-da.mp3	ta	da	1	other
6.6.1	win	2023-06-12	16:58:46	17:22:08	1398397	5ba6d507cf54e40001c45aaf	1	1	main_slash	24	main_slash	25	stimuli_distractor_trianglediamonds.svg	stimuli_distractor_diamondtriangles.svg	35	no	0	1	2000	6	5	antiphase_hc_osi.wav	2	6	2	noise_calib_stim_LEFT.wav	1	32	blb_dichoticlistening_ta-da.mp3	ta	da	1	other
6.6.1	win	2023-06-12	16:58:46	17:22:08	1398397	5ba6d507cf54e40001c45aaf	1	1	main_slash	24	advance_on_keypress_SLASH	26	stimuli_distractor_trianglediamonds.svg	stimuli_distractor_diamondtriangles.svg	35	no	57	0	266	6	5	antiphase_hc_osi.wav	2	6	2	noise_calib_stim_LEFT.wav	1	32	blb_dichoticlistening_ta-da.mp3	ta	da	1	other
6.6.1	win	2023-06-12	16:58:46	17:22:10	1401281	5ba6d507cf54e40001c45aaf	1	1	main_slash	24	main_slash	27	stimuli_target_diamondrectangles.svg	stimuli_distractor_diamondtriangles.svg	23	yes	0	0	2000	6	5	antiphase_hc_osi.wav	2	6	2	noise_calib_stim_LEFT.wav	1	32	blb_dichoticlistening_ta-da.mp3	ta	da	1	other
6.6.1	win	2023-06-12	16:58:46	17:22:10	1401281	5ba6d507cf54e40001c45aaf	1	1	main_slash	24	advance_on_keypress_SLASH	28	stimuli_target_diamondrectangles.svg	stimuli_distractor_diamondtriangles.svg	23	yes	57	0	286	6	5	antiphase_hc_osi.wav	2	6	2	noise_calib_stim_LEFT.wav	1	32	blb_dichoticlistening_ta-da.mp3	ta	da	1	other
6.6.1	win	2023-06-12	16:58:46	17:22:13	1404184	5ba6d507cf54e40001c45aaf	1	1	main_slash	24	main_slash	29	stimuli_distractor_diamondtriangles.svg	stimuli_distractor_diamondtriangles.svg	40	no	0	1	2000	6	5	antiphase_hc_osi.wav	2	6	2	noise_calib_stim_LEFT.wav	1	32	blb_dichoticlistening_ta-da.mp3	ta	da	1	other
6.6.1	win	2023-06-12	16:58:46	17:22:13	1404184	5ba6d507cf54e40001c45aaf	1	1	main_slash	24	advance_on_keypress_SLASH	30	stimuli_distractor_diamondtriangles.svg	stimuli_distractor_diamondtriangles.svg	40	no	57	0	251	6	5	antiphase_hc_osi.wav	2	6	2	noise_calib_stim_LEFT.wav	1	32	blb_dichoticlistening_ta-da.mp3	ta	da	1	other
6.6.1	win	2023-06-12	16:58:46	17:22:15	1405555	5ba6d507cf54e40001c45aaf	1	1	main_slash	24	main_slash	31	stimuli_distractor_trianglediamonds.svg	stimuli_target_rectanglediamonds.svg	10	yes	53	1	505	6	5	antiphase_hc_osi.wav	2	6	2	noise_calib_stim_LEFT.wav	1	32	blb_dichoticlistening_ta-da.mp3	ta	da	1	other
6.6.1	win	2023-06-12	16:58:46	17:22:15	1405555	5ba6d507cf54e40001c45aaf	1	1	main_slash	24	advance_on_keypress_SLASH	32	stimuli_distractor_trianglediamonds.svg	stimuli_target_rectanglediamonds.svg	10	yes	57	0	623	6	5	antiphase_hc_osi.wav	2	6	2	noise_calib_stim_LEFT.wav	1	32	blb_dichoticlistening_ta-da.mp3	ta	da	1	other
6.6.1	win	2023-06-12	16:58:46	17:22:18	1408797	5ba6d507cf54e40001c45aaf	1	1	main_slash	24	main_slash	33	stimuli_target_diamondsquares.svg	stimuli_distractor_diamondtriangles.svg	24	yes	0	0	2000	6	5	antiphase_hc_osi.wav	2	6	2	noise_calib_stim_LEFT.wav	1	32	blb_dichoticlistening_ta-da.mp3	ta	da	1	other
6.6.1	win	2023-06-12	16:58:46	17:22:18	1408797	5ba6d507cf54e40001c45aaf	1	1	main_slash	24	advance_on_keypress_SLASH	34	stimuli_target_diamondsquares.svg	stimuli_distractor_diamondtriangles.svg	24	yes	57	0	471	6	5	antiphase_hc_osi.wav	2	6	2	noise_calib_stim_LEFT.wav	1	32	blb_dichoticlistening_ta-da.mp3	ta	da	1	other
6.6.1	win	2023-06-12	16:58:46	17:22:21	1411887	5ba6d507cf54e40001c45aaf	1	1	main_slash	24	main_slash	35	stimuli_distractor_diamondtriangles.svg	stimuli_target_trianglerectangles.svg	29	yes	0	0	2000	6	5	antiphase_hc_osi.wav	2	6	2	noise_calib_stim_LEFT.wav	1	32	blb_dichoticlistening_ta-da.mp3	ta	da	1	other
6.6.1	win	2023-06-12	16:58:46	17:22:21	1411887	5ba6d507cf54e40001c45aaf	1	1	main_slash	24	advance_on_keypress_SLASH	36	stimuli_distractor_diamondtriangles.svg	stimuli_target_trianglerectangles.svg	29	yes	57	0	208	6	5	antiphase_hc_osi.wav	2	6	2	noise_calib_stim_LEFT.wav	1	32	blb_dichoticlistening_ta-da.mp3	ta	da	1	other
6.6.1	win	2023-06-12	16:58:46	17:22:24	1414712	5ba6d507cf54e40001c45aaf	1	1	main_slash	24	main_slash	37	stimuli_target_diamondrectangles.svg	stimuli_distractor_trianglediamonds.svg	19	yes	0	0	2000	6	5	antiphase_hc_osi.wav	2	6	2	noise_calib_stim_LEFT.wav	1	32	blb_dichoticlistening_ta-da.mp3	ta	da	1	other
6.6.1	win	2023-06-12	16:58:46	17:22:24	1414712	5ba6d507cf54e40001c45aaf	1	1	main_slash	24	advance_on_keypress_SLASH	38	stimuli_target_diamondrectangles.svg	stimuli_distractor_trianglediamonds.svg	19	yes	57	0	202	6	5	antiphase_hc_osi.wav	2	6	2	noise_calib_stim_LEFT.wav	1	32	blb_dichoticlistening_ta-da.mp3	ta	da	1	other
6.6.1	win	2023-06-12	16:58:46	17:22:25	1416198	5ba6d507cf54e40001c45aaf	1	1	main_slash	24	main_slash	39	stimuli_target_trianglesquares.svg	stimuli_distractor_trianglediamonds.svg	18	yes	53	1	668	6	5	antiphase_hc_osi.wav	2	6	2	noise_calib_stim_LEFT.wav	1	32	blb_dichoticlistening_ta-da.mp3	ta	da	1	other
6.6.1	win	2023-06-12	16:58:46	17:22:25	1416198	5ba6d507cf54e40001c45aaf	1	1	main_slash	24	advance_on_keypress_SLASH	40	stimuli_target_trianglesquares.svg	stimuli_distractor_trianglediamonds.svg	18	yes	57	0	653	6	5	antiphase_hc_osi.wav	2	6	2	noise_calib_stim_LEFT.wav	1	32	blb_dichoticlistening_ta-da.mp3	ta	da	1	other
6.6.1	win	2023-06-12	16:58:46	17:22:29	1419469	5ba6d507cf54e40001c45aaf	1	1	main_slash	24	main_slash	41	stimuli_distractor_diamondtriangles.svg	stimuli_distractor_diamondtriangles.svg	39	no	0	1	2000	6	5	antiphase_hc_osi.wav	2	6	2	noise_calib_stim_LEFT.wav	1	32	blb_dichoticlistening_ta-da.mp3	ta	da	1	other
6.6.1	win	2023-06-12	16:58:46	17:22:29	1419469	5ba6d507cf54e40001c45aaf	1	1	main_slash	24	advance_on_keypress_SLASH	42	stimuli_distractor_diamondtriangles.svg	stimuli_distractor_diamondtriangles.svg	39	no	57	0	289	6	5	antiphase_hc_osi.wav	2	6	2	noise_calib_stim_LEFT.wav	1	32	blb_dichoticlistening_ta-da.mp3	ta	da	1	other
6.6.1	win	2023-06-12	16:58:46	17:22:31	1421420	5ba6d507cf54e40001c45aaf	1	1	main_slash	24	main_slash	43	stimuli_target_trianglerectangles.svg	stimuli_distractor_trianglediamonds.svg	17	yes	53	1	1042	6	5	antiphase_hc_osi.wav	2	6	2	noise_calib_stim_LEFT.wav	1	32	blb_dichoticlistening_ta-da.mp3	ta	da	1	other
6.6.1	win	2023-06-12	16:58:46	17:22:31	1421420	5ba6d507cf54e40001c45aaf	1	1	main_slash	24	advance_on_keypress_SLASH	44	stimuli_target_trianglerectangles.svg	stimuli_distractor_trianglediamonds.svg	17	yes	57	0	503	6	5	antiphase_hc_osi.wav	2	6	2	noise_calib_stim_LEFT.wav	1	32	blb_dichoticlistening_ta-da.mp3	ta	da	1	other
6.6.1	win	2023-06-12	16:58:46	17:22:32	1423151	5ba6d507cf54e40001c45aaf	1	1	main_slash	24	main_slash	45	stimuli_distractor_diamondtriangles.svg	stimuli_target_rectanglediamonds.svg	14	yes	53	1	610	6	5	antiphase_hc_osi.wav	2	6	2	noise_calib_stim_LEFT.wav	1	32	blb_dichoticlistening_ta-da.mp3	ta	da	1	other
6.6.1	win	2023-06-12	16:58:46	17:22:32	1423151	5ba6d507cf54e40001c45aaf	1	1	main_slash	24	advance_on_keypress_SLASH	46	stimuli_distractor_diamondtriangles.svg	stimuli_target_rectanglediamonds.svg	14	yes	57	0	632	6	5	antiphase_hc_osi.wav	2	6	2	noise_calib_stim_LEFT.wav	1	32	blb_dichoticlistening_ta-da.mp3	ta	da	1	other
6.6.1	win	2023-06-12	16:58:46	17:22:34	1424871	5ba6d507cf54e40001c45aaf	1	1	main_slash	24	main_slash	47	stimuli_distractor_diamondtriangles.svg	stimuli_target_squarediamonds.svg	16	yes	53	1	463	6	5	antiphase_hc_osi.wav	2	6	2	noise_calib_stim_LEFT.wav	1	32	blb_dichoticlistening_ta-da.mp3	ta	da	1	other
6.6.1	win	2023-06-12	16:58:46	17:22:34	1424871	5ba6d507cf54e40001c45aaf	1	1	main_slash	24	advance_on_keypress_SLASH	48	stimuli_distractor_diamondtriangles.svg	stimuli_target_squarediamonds.svg	16	yes	57	0	603	6	5	antiphase_hc_osi.wav	2	6	2	noise_calib_stim_LEFT.wav	1	32	blb_dichoticlistening_ta-da.mp3	ta	da	1	other
6.6.1	win	2023-06-12	16:58:46	17:22:37	1428087	5ba6d507cf54e40001c45aaf	1	1	main_slash	24	main_slash	49	stimuli_distractor_trianglediamonds.svg	stimuli_distractor_trianglediamonds.svg	34	no	0	1	2000	6	5	antiphase_hc_osi.wav	2	6	2	noise_calib_stim_LEFT.wav	1	32	blb_dichoticlistening_ta-da.mp3	ta	da	1	other
6.6.1	win	2023-06-12	16:58:46	17:22:37	1428087	5ba6d507cf54e40001c45aaf	1	1	main_slash	24	advance_on_keypress_SLASH	50	stimuli_distractor_trianglediamonds.svg	stimuli_distractor_trianglediamonds.svg	34	no	57	0	387	6	5	antiphase_hc_osi.wav	2	6	2	noise_calib_stim_LEFT.wav	1	32	blb_dichoticlistening_ta-da.mp3	ta	da	1	other
6.6.1	win	2023-06-12	16:58:46	17:22:40	1431093	5ba6d507cf54e40001c45aaf	1	1	main_slash	24	main_slash	51	stimuli_distractor_trianglediamonds.svg	stimuli_distractor_diamondtriangles.svg	36	no	0	1	2000	6	5	antiphase_hc_osi.wav	2	6	2	noise_calib_stim_LEFT.wav	1	32	blb_dichoticlistening_ta-da.mp3	ta	da	1	other
6.6.1	win	2023-06-12	16:58:46	17:22:40	1431093	5ba6d507cf54e40001c45aaf	1	1	main_slash	24	advance_on_keypress_SLASH	52	stimuli_distractor_trianglediamonds.svg	stimuli_distractor_diamondtriangles.svg	36	no	57	0	253	6	5	antiphase_hc_osi.wav	2	6	2	noise_calib_stim_LEFT.wav	1	32	blb_dichoticlistening_ta-da.mp3	ta	da	1	other
6.6.1	win	2023-06-12	16:58:46	17:22:42	1432445	5ba6d507cf54e40001c45aaf	1	1	main_slash	24	main_slash	53	stimuli_target_rectanglediamonds.svg	stimuli_distractor_diamondtriangles.svg	6	yes	53	1	480	6	5	antiphase_hc_osi.wav	2	6	2	noise_calib_stim_LEFT.wav	1	32	blb_dichoticlistening_ta-da.mp3	ta	da	1	other
6.6.1	win	2023-06-12	16:58:46	17:22:42	1432445	5ba6d507cf54e40001c45aaf	1	1	main_slash	24	advance_on_keypress_SLASH	54	stimuli_target_rectanglediamonds.svg	stimuli_distractor_diamondtriangles.svg	6	yes	57	0	773	6	5	antiphase_hc_osi.wav	2	6	2	noise_calib_stim_LEFT.wav	1	32	blb_dichoticlistening_ta-da.mp3	ta	da	1	other
6.6.1	win	2023-06-12	16:58:46	17:22:45	1435838	5ba6d507cf54e40001c45aaf	1	1	main_slash	24	main_slash	55	stimuli_distractor_trianglediamonds.svg	stimuli_target_trianglerectangles.svg	25	yes	0	0	2000	6	5	antiphase_hc_osi.wav	2	6	2	noise_calib_stim_LEFT.wav	1	32	blb_dichoticlistening_ta-da.mp3	ta	da	1	other
6.6.1	win	2023-06-12	16:58:46	17:22:45	1435838	5ba6d507cf54e40001c45aaf	1	1	main_slash	24	advance_on_keypress_SLASH	56	stimuli_distractor_trianglediamonds.svg	stimuli_target_trianglerectangles.svg	25	yes	57	0	389	6	5	antiphase_hc_osi.wav	2	6	2	noise_calib_stim_LEFT.wav	1	32	blb_dichoticlistening_ta-da.mp3	ta	da	1	other
6.6.1	win	2023-06-12	16:58:46	17:22:46	1437247	5ba6d507cf54e40001c45aaf	1	1	main_slash	24	main_slash	57	stimuli_distractor_trianglediamonds.svg	stimuli_target_squaretriangles.svg	11	yes	53	1	395	6	5	antiphase_hc_osi.wav	2	6	2	noise_calib_stim_LEFT.wav	1	32	blb_dichoticlistening_ta-da.mp3	ta	da	1	other
6.6.1	win	2023-06-12	16:58:46	17:22:46	1437247	5ba6d507cf54e40001c45aaf	1	1	main_slash	24	advance_on_keypress_SLASH	58	stimuli_distractor_trianglediamonds.svg	stimuli_target_squaretriangles.svg	11	yes	57	0	615	6	5	antiphase_hc_osi.wav	2	6	2	noise_calib_stim_LEFT.wav	1	32	blb_dichoticlistening_ta-da.mp3	ta	da	1	other
6.6.1	win	2023-06-12	16:58:46	17:22:48	1439036	5ba6d507cf54e40001c45aaf	1	1	main_slash	24	main_slash	59	stimuli_target_squaretriangles.svg	stimuli_distractor_diamondtriangles.svg	7	yes	53	1	556	6	5	antiphase_hc_osi.wav	2	6	2	noise_calib_stim_LEFT.wav	1	32	blb_dichoticlistening_ta-da.mp3	ta	da	1	other
6.6.1	win	2023-06-12	16:58:46	17:22:48	1439036	5ba6d507cf54e40001c45aaf	1	1	main_slash	24	advance_on_keypress_SLASH	60	stimuli_target_squaretriangles.svg	stimuli_distractor_diamondtriangles.svg	7	yes	57	0	564	6	5	antiphase_hc_osi.wav	2	6	2	noise_calib_stim_LEFT.wav	1	32	blb_dichoticlistening_ta-da.mp3	ta	da	1	other
6.6.1	win	2023-06-12	16:58:46	17:22:51	1442222	5ba6d507cf54e40001c45aaf	1	1	main_slash	24	main_slash	61	stimuli_distractor_diamondtriangles.svg	stimuli_distractor_trianglediamonds.svg	38	no	0	1	2000	6	5	antiphase_hc_osi.wav	2	6	2	noise_calib_stim_LEFT.wav	1	32	blb_dichoticlistening_ta-da.mp3	ta	da	1	other
6.6.1	win	2023-06-12	16:58:46	17:22:51	1442222	5ba6d507cf54e40001c45aaf	1	1	main_slash	24	advance_on_keypress_SLASH	62	stimuli_distractor_diamondtriangles.svg	stimuli_distractor_trianglediamonds.svg	38	no	57	0	218	6	5	antiphase_hc_osi.wav	2	6	2	noise_calib_stim_LEFT.wav	1	32	blb_dichoticlistening_ta-da.mp3	ta	da	1	other
6.6.1	win	2023-06-12	16:58:46	17:22:53	1443480	5ba6d507cf54e40001c45aaf	1	1	main_slash	24	main_slash	63	stimuli_distractor_diamondtriangles.svg	stimuli_target_squaretriangles.svg	15	yes	53	1	423	6	5	antiphase_hc_osi.wav	2	6	2	noise_calib_stim_LEFT.wav	1	32	blb_dichoticlistening_ta-da.mp3	ta	da	1	other
6.6.1	win	2023-06-12	16:58:46	17:22:53	1443480	5ba6d507cf54e40001c45aaf	1	1	main_slash	24	advance_on_keypress_SLASH	64	stimuli_distractor_diamondtriangles.svg	stimuli_target_squaretriangles.svg	15	yes	57	0	735	6	5	antiphase_hc_osi.wav	2	6	2	noise_calib_stim_LEFT.wav	1	32	blb_dichoticlistening_ta-da.mp3	ta	da	1	other
6.6.1	win	2023-06-12	16:58:46	17:22:56	1446838	5ba6d507cf54e40001c45aaf	1	1	main_slash	24	main_slash	65	stimuli_distractor_diamondtriangles.svg	stimuli_target_diamondsquares.svg	32	yes	0	0	2000	6	5	antiphase_hc_osi.wav	2	6	2	noise_calib_stim_LEFT.wav	1	32	blb_dichoticlistening_ta-da.mp3	ta	da	1	other
6.6.1	win	2023-06-12	16:58:46	17:22:56	1446838	5ba6d507cf54e40001c45aaf	1	1	main_slash	24	advance_on_keypress_SLASH	66	stimuli_distractor_diamondtriangles.svg	stimuli_target_diamondsquares.svg	32	yes	57	0	324	6	5	antiphase_hc_osi.wav	2	6	2	noise_calib_stim_LEFT.wav	1	32	blb_dichoticlistening_ta-da.mp3	ta	da	1	other
6.6.1	win	2023-06-12	16:58:46	17:22:57	1448091	5ba6d507cf54e40001c45aaf	1	1	main_slash	24	main_slash	67	stimuli_target_squaretriangles.svg	stimuli_distractor_trianglediamonds.svg	3	yes	53	1	314	6	5	antiphase_hc_osi.wav	2	6	2	noise_calib_stim_LEFT.wav	1	32	blb_dichoticlistening_ta-da.mp3	ta	da	1	other
6.6.1	win	2023-06-12	16:58:46	17:22:57	1448091	5ba6d507cf54e40001c45aaf	1	1	main_slash	24	advance_on_keypress_SLASH	68	stimuli_target_squaretriangles.svg	stimuli_distractor_trianglediamonds.svg	3	yes	57	0	461	6	5	antiphase_hc_osi.wav	2	6	2	noise_calib_stim_LEFT.wav	1	32	blb_dichoticlistening_ta-da.mp3	ta	da	1	other
6.6.1	win	2023-06-12	16:58:46	17:23:00	1451171	5ba6d507cf54e40001c45aaf	1	1	main_slash	24	main_slash	69	stimuli_target_diamondsquares.svg	stimuli_distractor_trianglediamonds.svg	20	yes	0	0	2000	6	5	antiphase_hc_osi.wav	2	6	2	noise_calib_stim_LEFT.wav	1	32	blb_dichoticlistening_ta-da.mp3	ta	da	1	other
6.6.1	win	2023-06-12	16:58:46	17:23:00	1451171	5ba6d507cf54e40001c45aaf	1	1	main_slash	24	advance_on_keypress_SLASH	70	stimuli_target_diamondsquares.svg	stimuli_distractor_trianglediamonds.svg	20	yes	57	0	232	6	5	antiphase_hc_osi.wav	2	6	2	noise_calib_stim_LEFT.wav	1	32	blb_dichoticlistening_ta-da.mp3	ta	da	1	other
6.6.1	win	2023-06-12	16:58:46	17:23:03	1454020	5ba6d507cf54e40001c45aaf	1	1	main_slash	24	main_slash	71	stimuli_distractor_diamondtriangles.svg	stimuli_target_diamondrectangles.svg	31	yes	0	0	2000	6	5	antiphase_hc_osi.wav	2	6	2	noise_calib_stim_LEFT.wav	1	32	blb_dichoticlistening_ta-da.mp3	ta	da	1	other
6.6.1	win	2023-06-12	16:58:46	17:23:03	1454020	5ba6d507cf54e40001c45aaf	1	1	main_slash	24	advance_on_keypress_SLASH	72	stimuli_distractor_diamondtriangles.svg	stimuli_target_diamondrectangles.svg	31	yes	57	0	238	6	5	antiphase_hc_osi.wav	2	6	2	noise_calib_stim_LEFT.wav	1	32	blb_dichoticlistening_ta-da.mp3	ta	da	1	other
6.6.1	win	2023-06-12	16:58:46	17:23:06	1456874	5ba6d507cf54e40001c45aaf	1	1	main_slash	24	main_slash	73	stimuli_distractor_diamondtriangles.svg	stimuli_distractor_trianglediamonds.svg	37	no	0	1	2000	6	5	antiphase_hc_osi.wav	2	6	2	noise_calib_stim_LEFT.wav	1	32	blb_dichoticlistening_ta-da.mp3	ta	da	1	other
6.6.1	win	2023-06-12	16:58:46	17:23:06	1456874	5ba6d507cf54e40001c45aaf	1	1	main_slash	24	advance_on_keypress_SLASH	74	stimuli_distractor_diamondtriangles.svg	stimuli_distractor_trianglediamonds.svg	37	no	57	0	177	6	5	antiphase_hc_osi.wav	2	6	2	noise_calib_stim_LEFT.wav	1	32	blb_dichoticlistening_ta-da.mp3	ta	da	1	other
6.6.1	win	2023-06-12	16:58:46	17:23:07	1458033	5ba6d507cf54e40001c45aaf	1	1	main_slash	24	main_slash	75	stimuli_target_trianglerectangles.svg	stimuli_distractor_diamondtriangles.svg	21	yes	53	1	366	6	5	antiphase_hc_osi.wav	2	6	2	noise_calib_stim_LEFT.wav	1	32	blb_dichoticlistening_ta-da.mp3	ta	da	1	other
6.6.1	win	2023-06-12	16:58:46	17:23:07	1458033	5ba6d507cf54e40001c45aaf	1	1	main_slash	24	advance_on_keypress_SLASH	76	stimuli_target_trianglerectangles.svg	stimuli_distractor_diamondtriangles.svg	21	yes	57	0	496	6	5	antiphase_hc_osi.wav	2	6	2	noise_calib_stim_LEFT.wav	1	32	blb_dichoticlistening_ta-da.mp3	ta	da	1	other
6.6.1	win	2023-06-12	16:58:46	17:23:09	1459476	5ba6d507cf54e40001c45aaf	1	1	main_slash	24	main_slash	77	stimuli_target_rectangletriangles.svg	stimuli_distractor_diamondtriangles.svg	5	yes	53	1	329	6	5	antiphase_hc_osi.wav	2	6	2	noise_calib_stim_LEFT.wav	1	32	blb_dichoticlistening_ta-da.mp3	ta	da	1	other
6.6.1	win	2023-06-12	16:58:46	17:23:09	1459476	5ba6d507cf54e40001c45aaf	1	1	main_slash	24	advance_on_keypress_SLASH	78	stimuli_target_rectangletriangles.svg	stimuli_distractor_diamondtriangles.svg	5	yes	57	0	493	6	5	antiphase_hc_osi.wav	2	6	2	noise_calib_stim_LEFT.wav	1	32	blb_dichoticlistening_ta-da.mp3	ta	da	1	other
6.6.1	win	2023-06-12	16:58:46	17:23:12	1462583	5ba6d507cf54e40001c45aaf	1	1	main_slash	24	main_slash	79	stimuli_distractor_trianglediamonds.svg	stimuli_distractor_trianglediamonds.svg	33	no	0	1	2000	6	5	antiphase_hc_osi.wav	2	6	2	noise_calib_stim_LEFT.wav	1	32	blb_dichoticlistening_ta-da.mp3	ta	da	1	other
6.6.1	win	2023-06-12	16:58:46	17:23:12	1462583	5ba6d507cf54e40001c45aaf	1	1	main_slash	24	advance_on_keypress_SLASH	80	stimuli_distractor_trianglediamonds.svg	stimuli_distractor_trianglediamonds.svg	33	no	57	0	376	6	5	antiphase_hc_osi.wav	2	6	2	noise_calib_stim_LEFT.wav	1	32	blb_dichoticlistening_ta-da.mp3	ta	da	1	other
6.6.1	win	2023-06-12	16:58:46	17:23:13	1463946	5ba6d507cf54e40001c45aaf	1	1	main_slash	24	main_slash	81	stimuli_distractor_trianglediamonds.svg	stimuli_target_squaretriangles.svg	11	yes	53	1	369	6	5	antiphase_hc_osi.wav	2	6	2	noise_calib_stim_LEFT.wav	1	32	blb_dichoticlistening_ta-da.mp3	ta	da	1	other
6.6.1	win	2023-06-12	16:58:46	17:23:13	1463946	5ba6d507cf54e40001c45aaf	1	1	main_slash	24	advance_on_keypress_SLASH	82	stimuli_distractor_trianglediamonds.svg	stimuli_target_squaretriangles.svg	11	yes	57	0	465	6	5	antiphase_hc_osi.wav	2	6	2	noise_calib_stim_LEFT.wav	1	32	blb_dichoticlistening_ta-da.mp3	ta	da	1	other
6.6.1	win	2023-06-12	16:58:46	17:23:15	1465611	5ba6d507cf54e40001c45aaf	1	1	main_slash	24	main_slash	83	stimuli_distractor_trianglediamonds.svg	stimuli_target_rectangletriangles.svg	9	yes	53	1	580	6	5	antiphase_hc_osi.wav	2	6	2	noise_calib_stim_LEFT.wav	1	32	blb_dichoticlistening_ta-da.mp3	ta	da	1	other
6.6.1	win	2023-06-12	16:58:46	17:23:15	1465611	5ba6d507cf54e40001c45aaf	1	1	main_slash	24	advance_on_keypress_SLASH	84	stimuli_distractor_trianglediamonds.svg	stimuli_target_rectangletriangles.svg	9	yes	57	0	674	6	5	antiphase_hc_osi.wav	2	6	2	noise_calib_stim_LEFT.wav	1	32	blb_dichoticlistening_ta-da.mp3	ta	da	1	other
6.6.1	win	2023-06-12	16:58:46	17:23:17	1467328	5ba6d507cf54e40001c45aaf	1	1	main_slash	24	main_slash	85	stimuli_target_squarediamonds.svg	stimuli_distractor_trianglediamonds.svg	4	yes	53	1	423	6	5	antiphase_hc_osi.wav	2	6	2	noise_calib_stim_LEFT.wav	1	32	blb_dichoticlistening_ta-da.mp3	ta	da	1	other
6.6.1	win	2023-06-12	16:58:46	17:23:17	1467328	5ba6d507cf54e40001c45aaf	1	1	main_slash	24	advance_on_keypress_SLASH	86	stimuli_target_squarediamonds.svg	stimuli_distractor_trianglediamonds.svg	4	yes	57	0	465	6	5	antiphase_hc_osi.wav	2	6	2	noise_calib_stim_LEFT.wav	1	32	blb_dichoticlistening_ta-da.mp3	ta	da	1	other
6.6.1	win	2023-06-12	16:58:46	17:23:20	1470413	5ba6d507cf54e40001c45aaf	1	1	main_slash	24	main_slash	87	stimuli_distractor_diamondtriangles.svg	stimuli_distractor_trianglediamonds.svg	38	no	0	1	2000	6	5	antiphase_hc_osi.wav	2	6	2	noise_calib_stim_LEFT.wav	1	32	blb_dichoticlistening_ta-da.mp3	ta	da	1	other
6.6.1	win	2023-06-12	16:58:46	17:23:20	1470413	5ba6d507cf54e40001c45aaf	1	1	main_slash	24	advance_on_keypress_SLASH	88	stimuli_distractor_diamondtriangles.svg	stimuli_distractor_trianglediamonds.svg	38	no	57	0	240	6	5	antiphase_hc_osi.wav	2	6	2	noise_calib_stim_LEFT.wav	1	32	blb_dichoticlistening_ta-da.mp3	ta	da	1	other
6.6.1	win	2023-06-12	16:58:46	17:23:22	1473274	5ba6d507cf54e40001c45aaf	1	1	main_slash	24	main_slash	89	stimuli_distractor_diamondtriangles.svg	stimuli_distractor_diamondtriangles.svg	39	no	0	1	2000	6	5	antiphase_hc_osi.wav	2	6	2	noise_calib_stim_LEFT.wav	1	32	blb_dichoticlistening_ta-da.mp3	ta	da	1	other
6.6.1	win	2023-06-12	16:58:46	17:23:22	1473274	5ba6d507cf54e40001c45aaf	1	1	main_slash	24	advance_on_keypress_SLASH	90	stimuli_distractor_diamondtriangles.svg	stimuli_distractor_diamondtriangles.svg	39	no	57	0	394	6	5	antiphase_hc_osi.wav	2	6	2	noise_calib_stim_LEFT.wav	1	32	blb_dichoticlistening_ta-da.mp3	ta	da	1	other
6.6.1	win	2023-06-12	16:58:46	17:23:24	1474623	5ba6d507cf54e40001c45aaf	1	1	main_slash	24	main_slash	91	stimuli_distractor_trianglediamonds.svg	stimuli_target_trianglerectangles.svg	25	yes	53	1	338	6	5	antiphase_hc_osi.wav	2	6	2	noise_calib_stim_LEFT.wav	1	32	blb_dichoticlistening_ta-da.mp3	ta	da	1	other
6.6.1	win	2023-06-12	16:58:46	17:23:24	1474623	5ba6d507cf54e40001c45aaf	1	1	main_slash	24	advance_on_keypress_SLASH	92	stimuli_distractor_trianglediamonds.svg	stimuli_target_trianglerectangles.svg	25	yes	57	0	430	6	5	antiphase_hc_osi.wav	2	6	2	noise_calib_stim_LEFT.wav	1	32	blb_dichoticlistening_ta-da.mp3	ta	da	1	other
6.6.1	win	2023-06-12	16:58:46	17:23:27	1477674	5ba6d507cf54e40001c45aaf	1	1	main_slash	24	main_slash	93	stimuli_distractor_trianglediamonds.svg	stimuli_distractor_trianglediamonds.svg	33	no	0	1	2000	6	5	antiphase_hc_osi.wav	2	6	2	noise_calib_stim_LEFT.wav	1	32	blb_dichoticlistening_ta-da.mp3	ta	da	1	other
6.6.1	win	2023-06-12	16:58:46	17:23:27	1477674	5ba6d507cf54e40001c45aaf	1	1	main_slash	24	advance_on_keypress_SLASH	94	stimuli_distractor_trianglediamonds.svg	stimuli_distractor_trianglediamonds.svg	33	no	57	0	228	6	5	antiphase_hc_osi.wav	2	6	2	noise_calib_stim_LEFT.wav	1	32	blb_dichoticlistening_ta-da.mp3	ta	da	1	other
6.6.1	win	2023-06-12	16:58:46	17:23:30	1480522	5ba6d507cf54e40001c45aaf	1	1	main_slash	24	main_slash	95	stimuli_distractor_diamondtriangles.svg	stimuli_target_trianglerectangles.svg	29	yes	0	0	2000	6	5	antiphase_hc_osi.wav	2	6	2	noise_calib_stim_LEFT.wav	1	32	blb_dichoticlistening_ta-da.mp3	ta	da	1	other
6.6.1	win	2023-06-12	16:58:46	17:23:30	1480522	5ba6d507cf54e40001c45aaf	1	1	main_slash	24	advance_on_keypress_SLASH	96	stimuli_distractor_diamondtriangles.svg	stimuli_target_trianglerectangles.svg	29	yes	57	0	225	6	5	antiphase_hc_osi.wav	2	6	2	noise_calib_stim_LEFT.wav	1	32	blb_dichoticlistening_ta-da.mp3	ta	da	1	other
6.6.1	win	2023-06-12	16:58:46	17:23:33	1483365	5ba6d507cf54e40001c45aaf	1	1	main_slash	24	main_slash	97	stimuli_distractor_diamondtriangles.svg	stimuli_target_diamondrectangles.svg	31	yes	0	0	2000	6	5	antiphase_hc_osi.wav	2	6	2	noise_calib_stim_LEFT.wav	1	32	blb_dichoticlistening_ta-da.mp3	ta	da	1	other
6.6.1	win	2023-06-12	16:58:46	17:23:33	1483365	5ba6d507cf54e40001c45aaf	1	1	main_slash	24	advance_on_keypress_SLASH	98	stimuli_distractor_diamondtriangles.svg	stimuli_target_diamondrectangles.svg	31	yes	57	0	173	6	5	antiphase_hc_osi.wav	2	6	2	noise_calib_stim_LEFT.wav	1	32	blb_dichoticlistening_ta-da.mp3	ta	da	1	other
6.6.1	win	2023-06-12	16:58:46	17:23:35	1486153	5ba6d507cf54e40001c45aaf	1	1	main_slash	24	main_slash	99	stimuli_target_trianglerectangles.svg	stimuli_distractor_trianglediamonds.svg	17	yes	0	0	2000	6	5	antiphase_hc_osi.wav	2	6	2	noise_calib_stim_LEFT.wav	1	32	blb_dichoticlistening_ta-da.mp3	ta	da	1	other
6.6.1	win	2023-06-12	16:58:46	17:23:35	1486153	5ba6d507cf54e40001c45aaf	1	1	main_slash	24	advance_on_keypress_SLASH	100	stimuli_target_trianglerectangles.svg	stimuli_distractor_trianglediamonds.svg	17	yes	57	0	81	6	5	antiphase_hc_osi.wav	2	6	2	noise_calib_stim_LEFT.wav	1	32	blb_dichoticlistening_ta-da.mp3	ta	da	1	other
6.6.1	win	2023-06-12	16:58:46	17:23:36	1487174	5ba6d507cf54e40001c45aaf	1	1	main_slash	24	main_slash	101	stimuli_target_squaretriangles.svg	stimuli_distractor_trianglediamonds.svg	3	yes	53	1	324	6	5	antiphase_hc_osi.wav	2	6	2	noise_calib_stim_LEFT.wav	1	32	blb_dichoticlistening_ta-da.mp3	ta	da	1	other
6.6.1	win	2023-06-12	16:58:46	17:23:36	1487174	5ba6d507cf54e40001c45aaf	1	1	main_slash	24	advance_on_keypress_SLASH	102	stimuli_target_squaretriangles.svg	stimuli_distractor_trianglediamonds.svg	3	yes	57	0	481	6	5	antiphase_hc_osi.wav	2	6	2	noise_calib_stim_LEFT.wav	1	32	blb_dichoticlistening_ta-da.mp3	ta	da	1	other
6.6.1	win	2023-06-12	16:58:46	17:23:38	1488649	5ba6d507cf54e40001c45aaf	1	1	main_slash	24	main_slash	103	stimuli_target_rectangletriangles.svg	stimuli_distractor_diamondtriangles.svg	5	yes	53	1	370	6	5	antiphase_hc_osi.wav	2	6	2	noise_calib_stim_LEFT.wav	1	32	blb_dichoticlistening_ta-da.mp3	ta	da	1	other
6.6.1	win	2023-06-12	16:58:46	17:23:38	1488649	5ba6d507cf54e40001c45aaf	1	1	main_slash	24	advance_on_keypress_SLASH	104	stimuli_target_rectangletriangles.svg	stimuli_distractor_diamondtriangles.svg	5	yes	57	0	508	6	5	antiphase_hc_osi.wav	2	6	2	noise_calib_stim_LEFT.wav	1	32	blb_dichoticlistening_ta-da.mp3	ta	da	1	other
6.6.1	win	2023-06-12	16:58:46	17:23:41	1491777	5ba6d507cf54e40001c45aaf	1	1	main_slash	24	main_slash	105	stimuli_distractor_trianglediamonds.svg	stimuli_distractor_trianglediamonds.svg	34	no	0	1	2000	6	5	antiphase_hc_osi.wav	2	6	2	noise_calib_stim_LEFT.wav	1	32	blb_dichoticlistening_ta-da.mp3	ta	da	1	other
6.6.1	win	2023-06-12	16:58:46	17:23:41	1491777	5ba6d507cf54e40001c45aaf	1	1	main_slash	24	advance_on_keypress_SLASH	106	stimuli_distractor_trianglediamonds.svg	stimuli_distractor_trianglediamonds.svg	34	no	57	0	157	6	5	antiphase_hc_osi.wav	2	6	2	noise_calib_stim_LEFT.wav	1	32	blb_dichoticlistening_ta-da.mp3	ta	da	1	other
6.6.1	win	2023-06-12	16:58:46	17:23:44	1494552	5ba6d507cf54e40001c45aaf	1	1	main_slash	24	main_slash	107	stimuli_distractor_diamondtriangles.svg	stimuli_target_trianglesquares.svg	30	yes	0	0	2000	6	5	antiphase_hc_osi.wav	2	6	2	noise_calib_stim_LEFT.wav	1	32	blb_dichoticlistening_ta-da.mp3	ta	da	1	other
6.6.1	win	2023-06-12	16:58:46	17:23:44	1494552	5ba6d507cf54e40001c45aaf	1	1	main_slash	24	advance_on_keypress_SLASH	108	stimuli_distractor_diamondtriangles.svg	stimuli_target_trianglesquares.svg	30	yes	57	0	213	6	5	antiphase_hc_osi.wav	2	6	2	noise_calib_stim_LEFT.wav	1	32	blb_dichoticlistening_ta-da.mp3	ta	da	1	other
6.6.1	win	2023-06-12	16:58:46	17:23:45	1495799	5ba6d507cf54e40001c45aaf	1	1	main_slash	24	main_slash	109	stimuli_distractor_diamondtriangles.svg	stimuli_target_squarediamonds.svg	16	yes	53	1	417	6	5	antiphase_hc_osi.wav	2	6	2	noise_calib_stim_LEFT.wav	1	32	blb_dichoticlistening_ta-da.mp3	ta	da	1	other
6.6.1	win	2023-06-12	16:58:46	17:23:45	1495799	5ba6d507cf54e40001c45aaf	1	1	main_slash	24	advance_on_keypress_SLASH	110	stimuli_distractor_diamondtriangles.svg	stimuli_target_squarediamonds.svg	16	yes	57	0	531	6	5	antiphase_hc_osi.wav	2	6	2	noise_calib_stim_LEFT.wav	1	32	blb_dichoticlistening_ta-da.mp3	ta	da	1	other
6.6.1	win	2023-06-12	16:58:46	17:23:48	1498952	5ba6d507cf54e40001c45aaf	1	1	main_slash	24	main_slash	111	stimuli_target_diamondsquares.svg	stimuli_distractor_trianglediamonds.svg	20	yes	0	0	2000	6	5	antiphase_hc_osi.wav	2	6	2	noise_calib_stim_LEFT.wav	1	32	blb_dichoticlistening_ta-da.mp3	ta	da	1	other
6.6.1	win	2023-06-12	16:58:46	17:23:48	1498952	5ba6d507cf54e40001c45aaf	1	1	main_slash	24	advance_on_keypress_SLASH	112	stimuli_target_diamondsquares.svg	stimuli_distractor_trianglediamonds.svg	20	yes	57	0	259	6	5	antiphase_hc_osi.wav	2	6	2	noise_calib_stim_LEFT.wav	1	32	blb_dichoticlistening_ta-da.mp3	ta	da	1	other
6.6.1	win	2023-06-12	16:58:46	17:23:51	1501831	5ba6d507cf54e40001c45aaf	1	1	main_slash	24	main_slash	113	stimuli_distractor_trianglediamonds.svg	stimuli_distractor_diamondtriangles.svg	36	no	0	1	2000	6	5	antiphase_hc_osi.wav	2	6	2	noise_calib_stim_LEFT.wav	1	32	blb_dichoticlistening_ta-da.mp3	ta	da	1	other
6.6.1	win	2023-06-12	16:58:46	17:23:51	1501831	5ba6d507cf54e40001c45aaf	1	1	main_slash	24	advance_on_keypress_SLASH	114	stimuli_distractor_trianglediamonds.svg	stimuli_distractor_diamondtriangles.svg	36	no	57	0	223	6	5	antiphase_hc_osi.wav	2	6	2	noise_calib_stim_LEFT.wav	1	32	blb_dichoticlistening_ta-da.mp3	ta	da	1	other
6.6.1	win	2023-06-12	16:58:46	17:23:52	1503000	5ba6d507cf54e40001c45aaf	1	1	main_slash	24	main_slash	115	stimuli_target_rectanglediamonds.svg	stimuli_distractor_diamondtriangles.svg	6	yes	53	1	326	6	5	antiphase_hc_osi.wav	2	6	2	noise_calib_stim_LEFT.wav	1	32	blb_dichoticlistening_ta-da.mp3	ta	da	1	other
6.6.1	win	2023-06-12	16:58:46	17:23:52	1503000	5ba6d507cf54e40001c45aaf	1	1	main_slash	24	advance_on_keypress_SLASH	116	stimuli_target_rectanglediamonds.svg	stimuli_distractor_diamondtriangles.svg	6	yes	57	0	477	6	5	antiphase_hc_osi.wav	2	6	2	noise_calib_stim_LEFT.wav	1	32	blb_dichoticlistening_ta-da.mp3	ta	da	1	other
6.6.1	win	2023-06-12	16:58:46	17:23:55	1506098	5ba6d507cf54e40001c45aaf	1	1	main_slash	24	main_slash	117	stimuli_distractor_diamondtriangles.svg	stimuli_distractor_trianglediamonds.svg	37	no	0	1	2000	6	5	antiphase_hc_osi.wav	2	6	2	noise_calib_stim_LEFT.wav	1	32	blb_dichoticlistening_ta-da.mp3	ta	da	1	other
6.6.1	win	2023-06-12	16:58:46	17:23:55	1506098	5ba6d507cf54e40001c45aaf	1	1	main_slash	24	advance_on_keypress_SLASH	118	stimuli_distractor_diamondtriangles.svg	stimuli_distractor_trianglediamonds.svg	37	no	57	0	310	6	5	antiphase_hc_osi.wav	2	6	2	noise_calib_stim_LEFT.wav	1	32	blb_dichoticlistening_ta-da.mp3	ta	da	1	other
6.6.1	win	2023-06-12	16:58:46	17:23:58	1509025	5ba6d507cf54e40001c45aaf	1	1	main_slash	24	main_slash	119	stimuli_target_trianglesquares.svg	stimuli_distractor_trianglediamonds.svg	18	yes	0	0	2000	6	5	antiphase_hc_osi.wav	2	6	2	noise_calib_stim_LEFT.wav	1	32	blb_dichoticlistening_ta-da.mp3	ta	da	1	other
6.6.1	win	2023-06-12	16:58:46	17:23:58	1509025	5ba6d507cf54e40001c45aaf	1	1	main_slash	24	advance_on_keypress_SLASH	120	stimuli_target_trianglesquares.svg	stimuli_distractor_trianglediamonds.svg	18	yes	57	0	289	6	5	antiphase_hc_osi.wav	2	6	2	noise_calib_stim_LEFT.wav	1	32	blb_dichoticlistening_ta-da.mp3	ta	da	1	other
6.6.1	win	2023-06-12	16:58:46	17:23:59	1510235	5ba6d507cf54e40001c45aaf	1	1	main_slash	24	main_slash	121	stimuli_target_diamondrectangles.svg	stimuli_distractor_trianglediamonds.svg	19	yes	53	1	302	6	5	antiphase_hc_osi.wav	2	6	2	noise_calib_stim_LEFT.wav	1	32	blb_dichoticlistening_ta-da.mp3	ta	da	1	other
6.6.1	win	2023-06-12	16:58:46	17:23:59	1510235	5ba6d507cf54e40001c45aaf	1	1	main_slash	24	advance_on_keypress_SLASH	122	stimuli_target_diamondrectangles.svg	stimuli_distractor_trianglediamonds.svg	19	yes	57	0	1099	6	5	antiphase_hc_osi.wav	2	6	2	noise_calib_stim_LEFT.wav	1	32	blb_dichoticlistening_ta-da.mp3	ta	da	1	other
6.6.1	win	2023-06-12	16:58:46	17:24:03	1513952	5ba6d507cf54e40001c45aaf	1	1	main_slash	24	main_slash	123	stimuli_distractor_trianglediamonds.svg	stimuli_target_diamondrectangles.svg	27	yes	0	0	2000	6	5	antiphase_hc_osi.wav	2	6	2	noise_calib_stim_LEFT.wav	1	32	blb_dichoticlistening_ta-da.mp3	ta	da	1	other
6.6.1	win	2023-06-12	16:58:46	17:24:03	1513952	5ba6d507cf54e40001c45aaf	1	1	main_slash	24	advance_on_keypress_SLASH	124	stimuli_distractor_trianglediamonds.svg	stimuli_target_diamondrectangles.svg	27	yes	57	0	216	6	5	antiphase_hc_osi.wav	2	6	2	noise_calib_stim_LEFT.wav	1	32	blb_dichoticlistening_ta-da.mp3	ta	da	1	other
6.6.1	win	2023-06-12	16:58:46	17:24:04	1515153	5ba6d507cf54e40001c45aaf	1	1	main_slash	24	main_slash	125	stimuli_target_trianglesquares.svg	stimuli_distractor_diamondtriangles.svg	22	yes	53	1	365	6	5	antiphase_hc_osi.wav	2	6	2	noise_calib_stim_LEFT.wav	1	32	blb_dichoticlistening_ta-da.mp3	ta	da	1	other
6.6.1	win	2023-06-12	16:58:46	17:24:04	1515153	5ba6d507cf54e40001c45aaf	1	1	main_slash	24	advance_on_keypress_SLASH	126	stimuli_target_trianglesquares.svg	stimuli_distractor_diamondtriangles.svg	22	yes	57	0	500	6	5	antiphase_hc_osi.wav	2	6	2	noise_calib_stim_LEFT.wav	1	32	blb_dichoticlistening_ta-da.mp3	ta	da	1	other
6.6.1	win	2023-06-12	16:58:46	17:24:07	1518273	5ba6d507cf54e40001c45aaf	1	1	main_slash	24	main_slash	127	stimuli_distractor_diamondtriangles.svg	stimuli_distractor_diamondtriangles.svg	40	no	0	1	2000	6	5	antiphase_hc_osi.wav	2	6	2	noise_calib_stim_LEFT.wav	1	32	blb_dichoticlistening_ta-da.mp3	ta	da	1	other
6.6.1	win	2023-06-12	16:58:46	17:24:07	1518273	5ba6d507cf54e40001c45aaf	1	1	main_slash	24	advance_on_keypress_SLASH	128	stimuli_distractor_diamondtriangles.svg	stimuli_distractor_diamondtriangles.svg	40	no	57	0	227	6	5	antiphase_hc_osi.wav	2	6	2	noise_calib_stim_LEFT.wav	1	32	blb_dichoticlistening_ta-da.mp3	ta	da	1	other
6.6.1	win	2023-06-12	16:58:46	17:24:10	1521116	5ba6d507cf54e40001c45aaf	1	1	main_slash	24	main_slash	129	stimuli_target_trianglerectangles.svg	stimuli_distractor_diamondtriangles.svg	21	yes	0	0	2000	6	5	antiphase_hc_osi.wav	2	6	2	noise_calib_stim_LEFT.wav	1	32	blb_dichoticlistening_ta-da.mp3	ta	da	1	other
6.6.1	win	2023-06-12	16:58:46	17:24:10	1521116	5ba6d507cf54e40001c45aaf	1	1	main_slash	24	advance_on_keypress_SLASH	130	stimuli_target_trianglerectangles.svg	stimuli_distractor_diamondtriangles.svg	21	yes	57	0	444	6	5	antiphase_hc_osi.wav	2	6	2	noise_calib_stim_LEFT.wav	1	32	blb_dichoticlistening_ta-da.mp3	ta	da	1	other
6.6.1	win	2023-06-12	16:58:46	17:24:12	1522489	5ba6d507cf54e40001c45aaf	1	1	main_slash	24	main_slash	131	stimuli_target_squarediamonds.svg	stimuli_distractor_diamondtriangles.svg	8	yes	53	1	314	6	5	antiphase_hc_osi.wav	2	6	2	noise_calib_stim_LEFT.wav	1	32	blb_dichoticlistening_ta-da.mp3	ta	da	1	other
6.6.1	win	2023-06-12	16:58:46	17:24:12	1522489	5ba6d507cf54e40001c45aaf	1	1	main_slash	24	advance_on_keypress_SLASH	132	stimuli_target_squarediamonds.svg	stimuli_distractor_diamondtriangles.svg	8	yes	57	0	466	6	5	antiphase_hc_osi.wav	2	6	2	noise_calib_stim_LEFT.wav	1	32	blb_dichoticlistening_ta-da.mp3	ta	da	1	other
6.6.1	win	2023-06-12	16:58:46	17:24:15	1525576	5ba6d507cf54e40001c45aaf	1	1	main_slash	24	main_slash	133	stimuli_distractor_trianglediamonds.svg	stimuli_target_trianglesquares.svg	26	yes	0	0	2000	6	5	antiphase_hc_osi.wav	2	6	2	noise_calib_stim_LEFT.wav	1	32	blb_dichoticlistening_ta-da.mp3	ta	da	1	other
6.6.1	win	2023-06-12	16:58:46	17:24:15	1525576	5ba6d507cf54e40001c45aaf	1	1	main_slash	24	advance_on_keypress_SLASH	134	stimuli_distractor_trianglediamonds.svg	stimuli_target_trianglesquares.svg	26	yes	57	0	220	6	5	antiphase_hc_osi.wav	2	6	2	noise_calib_stim_LEFT.wav	1	32	blb_dichoticlistening_ta-da.mp3	ta	da	1	other
6.6.1	win	2023-06-12	16:58:46	17:24:18	1528415	5ba6d507cf54e40001c45aaf	1	1	main_slash	24	main_slash	135	stimuli_distractor_trianglediamonds.svg	stimuli_distractor_diamondtriangles.svg	35	no	0	1	2000	6	5	antiphase_hc_osi.wav	2	6	2	noise_calib_stim_LEFT.wav	1	32	blb_dichoticlistening_ta-da.mp3	ta	da	1	other
6.6.1	win	2023-06-12	16:58:46	17:24:18	1528415	5ba6d507cf54e40001c45aaf	1	1	main_slash	24	advance_on_keypress_SLASH	136	stimuli_distractor_trianglediamonds.svg	stimuli_distractor_diamondtriangles.svg	35	no	57	0	205	6	5	antiphase_hc_osi.wav	2	6	2	noise_calib_stim_LEFT.wav	1	32	blb_dichoticlistening_ta-da.mp3	ta	da	1	other
6.6.1	win	2023-06-12	16:58:46	17:24:19	1529546	5ba6d507cf54e40001c45aaf	1	1	main_slash	24	main_slash	137	stimuli_target_rectangletriangles.svg	stimuli_distractor_trianglediamonds.svg	1	yes	53	1	309	6	5	antiphase_hc_osi.wav	2	6	2	noise_calib_stim_LEFT.wav	1	32	blb_dichoticlistening_ta-da.mp3	ta	da	1	other
6.6.1	win	2023-06-12	16:58:46	17:24:19	1529546	5ba6d507cf54e40001c45aaf	1	1	main_slash	24	advance_on_keypress_SLASH	138	stimuli_target_rectangletriangles.svg	stimuli_distractor_trianglediamonds.svg	1	yes	57	0	622	6	5	antiphase_hc_osi.wav	2	6	2	noise_calib_stim_LEFT.wav	1	32	blb_dichoticlistening_ta-da.mp3	ta	da	1	other
6.6.1	win	2023-06-12	16:58:46	17:24:22	1532788	5ba6d507cf54e40001c45aaf	1	1	main_slash	24	main_slash	139	stimuli_target_diamondrectangles.svg	stimuli_distractor_diamondtriangles.svg	23	yes	0	0	2000	6	5	antiphase_hc_osi.wav	2	6	2	noise_calib_stim_LEFT.wav	1	32	blb_dichoticlistening_ta-da.mp3	ta	da	1	other
6.6.1	win	2023-06-12	16:58:46	17:24:22	1532788	5ba6d507cf54e40001c45aaf	1	1	main_slash	24	advance_on_keypress_SLASH	140	stimuli_target_diamondrectangles.svg	stimuli_distractor_diamondtriangles.svg	23	yes	57	0	472	6	5	antiphase_hc_osi.wav	2	6	2	noise_calib_stim_LEFT.wav	1	32	blb_dichoticlistening_ta-da.mp3	ta	da	1	other
6.6.1	win	2023-06-12	16:58:46	17:24:23	1534280	5ba6d507cf54e40001c45aaf	1	1	main_slash	24	main_slash	141	stimuli_target_rectanglediamonds.svg	stimuli_distractor_trianglediamonds.svg	2	yes	53	1	401	6	5	antiphase_hc_osi.wav	2	6	2	noise_calib_stim_LEFT.wav	1	32	blb_dichoticlistening_ta-da.mp3	ta	da	1	other
6.6.1	win	2023-06-12	16:58:46	17:24:23	1534280	5ba6d507cf54e40001c45aaf	1	1	main_slash	24	advance_on_keypress_SLASH	142	stimuli_target_rectanglediamonds.svg	stimuli_distractor_trianglediamonds.svg	2	yes	57	0	501	6	5	antiphase_hc_osi.wav	2	6	2	noise_calib_stim_LEFT.wav	1	32	blb_dichoticlistening_ta-da.mp3	ta	da	1	other
6.6.1	win	2023-06-12	16:58:46	17:24:25	1536192	5ba6d507cf54e40001c45aaf	1	1	main_slash	24	main_slash	143	stimuli_distractor_diamondtriangles.svg	stimuli_target_rectangletriangles.svg	13	yes	53	1	790	6	5	antiphase_hc_osi.wav	2	6	2	noise_calib_stim_LEFT.wav	1	32	blb_dichoticlistening_ta-da.mp3	ta	da	1	other
6.6.1	win	2023-06-12	16:58:46	17:24:25	1536192	5ba6d507cf54e40001c45aaf	1	1	main_slash	24	advance_on_keypress_SLASH	144	stimuli_distractor_diamondtriangles.svg	stimuli_target_rectangletriangles.svg	13	yes	57	0	578	6	5	antiphase_hc_osi.wav	2	6	2	noise_calib_stim_LEFT.wav	1	32	blb_dichoticlistening_ta-da.mp3	ta	da	1	other
6.6.1	win	2023-06-12	16:58:46	17:24:27	1537834	5ba6d507cf54e40001c45aaf	1	1	main_slash	24	main_slash	145	stimuli_distractor_trianglediamonds.svg	stimuli_target_rectanglediamonds.svg	10	yes	53	1	440	6	5	antiphase_hc_osi.wav	2	6	2	noise_calib_stim_LEFT.wav	1	32	blb_dichoticlistening_ta-da.mp3	ta	da	1	other
6.6.1	win	2023-06-12	16:58:46	17:24:27	1537834	5ba6d507cf54e40001c45aaf	1	1	main_slash	24	advance_on_keypress_SLASH	146	stimuli_distractor_trianglediamonds.svg	stimuli_target_rectanglediamonds.svg	10	yes	57	0	489	6	5	antiphase_hc_osi.wav	2	6	2	noise_calib_stim_LEFT.wav	1	32	blb_dichoticlistening_ta-da.mp3	ta	da	1	other
6.6.1	win	2023-06-12	16:58:46	17:24:30	1540945	5ba6d507cf54e40001c45aaf	1	1	main_slash	24	main_slash	147	stimuli_distractor_diamondtriangles.svg	stimuli_target_diamondsquares.svg	32	yes	0	0	2000	6	5	antiphase_hc_osi.wav	2	6	2	noise_calib_stim_LEFT.wav	1	32	blb_dichoticlistening_ta-da.mp3	ta	da	1	other
6.6.1	win	2023-06-12	16:58:46	17:24:30	1540945	5ba6d507cf54e40001c45aaf	1	1	main_slash	24	advance_on_keypress_SLASH	148	stimuli_distractor_diamondtriangles.svg	stimuli_target_diamondsquares.svg	32	yes	57	0	238	6	5	antiphase_hc_osi.wav	2	6	2	noise_calib_stim_LEFT.wav	1	32	blb_dichoticlistening_ta-da.mp3	ta	da	1	other
6.6.1	win	2023-06-12	16:58:46	17:24:31	1542100	5ba6d507cf54e40001c45aaf	1	1	main_slash	24	main_slash	149	stimuli_distractor_trianglediamonds.svg	stimuli_target_squarediamonds.svg	12	yes	53	1	294	6	5	antiphase_hc_osi.wav	2	6	2	noise_calib_stim_LEFT.wav	1	32	blb_dichoticlistening_ta-da.mp3	ta	da	1	other
6.6.1	win	2023-06-12	16:58:46	17:24:31	1542100	5ba6d507cf54e40001c45aaf	1	1	main_slash	24	advance_on_keypress_SLASH	150	stimuli_distractor_trianglediamonds.svg	stimuli_target_squarediamonds.svg	12	yes	57	0	533	6	5	antiphase_hc_osi.wav	2	6	2	noise_calib_stim_LEFT.wav	1	32	blb_dichoticlistening_ta-da.mp3	ta	da	1	other
6.6.1	win	2023-06-12	16:58:46	17:24:34	1544939	5ba6d507cf54e40001c45aaf	1	1	main_slash	24	main_slash	151	stimuli_target_diamondsquares.svg	stimuli_distractor_diamondtriangles.svg	24	yes	53	1	1685	6	5	antiphase_hc_osi.wav	2	6	2	noise_calib_stim_LEFT.wav	1	32	blb_dichoticlistening_ta-da.mp3	ta	da	1	other
6.6.1	win	2023-06-12	16:58:46	17:24:34	1544939	5ba6d507cf54e40001c45aaf	1	1	main_slash	24	advance_on_keypress_SLASH	152	stimuli_target_diamondsquares.svg	stimuli_distractor_diamondtriangles.svg	24	yes	57	0	382	6	5	antiphase_hc_osi.wav	2	6	2	noise_calib_stim_LEFT.wav	1	32	blb_dichoticlistening_ta-da.mp3	ta	da	1	other
6.6.1	win	2023-06-12	16:58:46	17:24:36	1546291	5ba6d507cf54e40001c45aaf	1	1	main_slash	24	main_slash	153	stimuli_distractor_trianglediamonds.svg	stimuli_target_diamondsquares.svg	28	yes	53	1	353	6	5	antiphase_hc_osi.wav	2	6	2	noise_calib_stim_LEFT.wav	1	32	blb_dichoticlistening_ta-da.mp3	ta	da	1	other
6.6.1	win	2023-06-12	16:58:46	17:24:36	1546291	5ba6d507cf54e40001c45aaf	1	1	main_slash	24	advance_on_keypress_SLASH	154	stimuli_distractor_trianglediamonds.svg	stimuli_target_diamondsquares.svg	28	yes	57	0	493	6	5	antiphase_hc_osi.wav	2	6	2	noise_calib_stim_LEFT.wav	1	32	blb_dichoticlistening_ta-da.mp3	ta	da	1	other
6.6.1	win	2023-06-12	16:58:46	17:24:37	1547841	5ba6d507cf54e40001c45aaf	1	1	main_slash	24	main_slash	155	stimuli_distractor_diamondtriangles.svg	stimuli_target_squaretriangles.svg	15	yes	53	1	442	6	5	antiphase_hc_osi.wav	2	6	2	noise_calib_stim_LEFT.wav	1	32	blb_dichoticlistening_ta-da.mp3	ta	da	1	other
6.6.1	win	2023-06-12	16:58:46	17:24:37	1547841	5ba6d507cf54e40001c45aaf	1	1	main_slash	24	advance_on_keypress_SLASH	156	stimuli_distractor_diamondtriangles.svg	stimuli_target_squaretriangles.svg	15	yes	57	0	463	6	5	antiphase_hc_osi.wav	2	6	2	noise_calib_stim_LEFT.wav	1	32	blb_dichoticlistening_ta-da.mp3	ta	da	1	other
6.6.1	win	2023-06-12	16:58:46	17:24:38	1549270	5ba6d507cf54e40001c45aaf	1	1	main_slash	24	main_slash	157	stimuli_target_squaretriangles.svg	stimuli_distractor_diamondtriangles.svg	7	yes	53	1	344	6	5	antiphase_hc_osi.wav	2	6	2	noise_calib_stim_LEFT.wav	1	32	blb_dichoticlistening_ta-da.mp3	ta	da	1	other
6.6.1	win	2023-06-12	16:58:46	17:24:38	1549270	5ba6d507cf54e40001c45aaf	1	1	main_slash	24	advance_on_keypress_SLASH	158	stimuli_target_squaretriangles.svg	stimuli_distractor_diamondtriangles.svg	7	yes	57	0	405	6	5	antiphase_hc_osi.wav	2	6	2	noise_calib_stim_LEFT.wav	1	32	blb_dichoticlistening_ta-da.mp3	ta	da	1	other
6.6.1	win	2023-06-12	16:58:46	17:24:40	1550749	5ba6d507cf54e40001c45aaf	1	1	main_slash	24	main_slash	159	stimuli_distractor_diamondtriangles.svg	stimuli_target_rectanglediamonds.svg	14	yes	53	1	453	6	5	antiphase_hc_osi.wav	2	6	2	noise_calib_stim_LEFT.wav	1	32	blb_dichoticlistening_ta-da.mp3	ta	da	1	other
6.6.1	win	2023-06-12	16:58:46	17:24:40	1550749	5ba6d507cf54e40001c45aaf	1	1	main_slash	24	advance_on_keypress_SLASH	160	stimuli_distractor_diamondtriangles.svg	stimuli_target_rectanglediamonds.svg	14	yes	57	0	666	6	5	antiphase_hc_osi.wav	2	6	2	noise_calib_stim_LEFT.wav	1	32	blb_dichoticlistening_ta-da.mp3	ta	da	1	other
6.6.1	win	2023-06-12	16:58:46	17:24:55	1565903	5ba6d507cf54e40001c45aaf	1	1	practice_z	26	practice_z	1	stimuli_distractor_trianglediamonds.svg	stimuli_target_squarediamonds.svg	11	yes	44	1	581	6	5	antiphase_hc_osi.wav	2	6	2	noise_calib_stim_LEFT.wav	1	32	blb_dichoticlistening_ta-da.mp3	ta	da	1	other
6.6.1	win	2023-06-12	16:58:46	17:24:55	1565903	5ba6d507cf54e40001c45aaf	1	1	practice_z	26	advance_on_keypress_ZEE	2	stimuli_distractor_trianglediamonds.svg	stimuli_target_squarediamonds.svg	11	yes	57	0	721	6	5	antiphase_hc_osi.wav	2	6	2	noise_calib_stim_LEFT.wav	1	32	blb_dichoticlistening_ta-da.mp3	ta	da	1	other
6.6.1	win	2023-06-12	16:58:46	17:24:58	1568822	5ba6d507cf54e40001c45aaf	1	1	practice_z	26	practice_z	3	stimuli_distractor_diamondtriangles.svg	stimuli_target_rectangletriangles.svg	7	yes	44	1	580	6	5	antiphase_hc_osi.wav	2	6	2	noise_calib_stim_LEFT.wav	1	32	blb_dichoticlistening_ta-da.mp3	ta	da	1	other
6.6.1	win	2023-06-12	16:58:46	17:24:58	1568822	5ba6d507cf54e40001c45aaf	1	1	practice_z	26	advance_on_keypress_ZEE	4	stimuli_distractor_diamondtriangles.svg	stimuli_target_rectangletriangles.svg	7	yes	57	0	652	6	5	antiphase_hc_osi.wav	2	6	2	noise_calib_stim_LEFT.wav	1	32	blb_dichoticlistening_ta-da.mp3	ta	da	1	other
6.6.1	win	2023-06-12	16:58:46	17:25:02	1573098	5ba6d507cf54e40001c45aaf	1	1	practice_z	26	practice_z	5	stimuli_distractor_diamondtriangles.svg	stimuli_distractor_diamondtriangles.svg	13	no	0	1	2000	6	5	antiphase_hc_osi.wav	2	6	2	noise_calib_stim_LEFT.wav	1	32	blb_dichoticlistening_ta-da.mp3	ta	da	1	other
6.6.1	win	2023-06-12	16:58:46	17:25:02	1573098	5ba6d507cf54e40001c45aaf	1	1	practice_z	26	advance_on_keypress_ZEE	6	stimuli_distractor_diamondtriangles.svg	stimuli_distractor_diamondtriangles.svg	13	no	57	0	537	6	5	antiphase_hc_osi.wav	2	6	2	noise_calib_stim_LEFT.wav	1	32	blb_dichoticlistening_ta-da.mp3	ta	da	1	other
6.6.1	win	2023-06-12	16:58:46	17:25:05	1575642	5ba6d507cf54e40001c45aaf	1	1	practice_z	26	practice_z	7	stimuli_target_rectanglediamonds.svg	stimuli_distractor_trianglediamonds.svg	4	yes	44	1	378	6	5	antiphase_hc_osi.wav	2	6	2	noise_calib_stim_LEFT.wav	1	32	blb_dichoticlistening_ta-da.mp3	ta	da	1	other
6.6.1	win	2023-06-12	16:58:46	17:25:05	1575642	5ba6d507cf54e40001c45aaf	1	1	practice_z	26	advance_on_keypress_ZEE	8	stimuli_target_rectanglediamonds.svg	stimuli_distractor_trianglediamonds.svg	4	yes	57	0	516	6	5	antiphase_hc_osi.wav	2	6	2	noise_calib_stim_LEFT.wav	1	32	blb_dichoticlistening_ta-da.mp3	ta	da	1	other
6.6.1	win	2023-06-12	16:58:46	17:25:09	1579778	5ba6d507cf54e40001c45aaf	1	1	practice_z	26	practice_z	9	stimuli_distractor_trianglediamonds.svg	stimuli_distractor_diamondtriangles.svg	16	no	0	1	2000	6	5	antiphase_hc_osi.wav	2	6	2	noise_calib_stim_LEFT.wav	1	32	blb_dichoticlistening_ta-da.mp3	ta	da	1	other
6.6.1	win	2023-06-12	16:58:46	17:25:09	1579778	5ba6d507cf54e40001c45aaf	1	1	practice_z	26	advance_on_keypress_ZEE	10	stimuli_distractor_trianglediamonds.svg	stimuli_distractor_diamondtriangles.svg	16	no	57	0	464	6	5	antiphase_hc_osi.wav	2	6	2	noise_calib_stim_LEFT.wav	1	32	blb_dichoticlistening_ta-da.mp3	ta	da	1	other
6.6.1	win	2023-06-12	16:58:46	17:25:13	1583867	5ba6d507cf54e40001c45aaf	1	1	practice_z	26	practice_z	11	stimuli_target_diamondsquares.svg	stimuli_distractor_diamondtriangles.svg	3	yes	0	0	2000	6	5	antiphase_hc_osi.wav	2	6	2	noise_calib_stim_LEFT.wav	1	32	blb_dichoticlistening_ta-da.mp3	ta	da	1	other
6.6.1	win	2023-06-12	16:58:46	17:25:13	1583867	5ba6d507cf54e40001c45aaf	1	1	practice_z	26	advance_on_keypress_ZEE	12	stimuli_target_diamondsquares.svg	stimuli_distractor_diamondtriangles.svg	3	yes	57	0	656	6	5	antiphase_hc_osi.wav	2	6	2	noise_calib_stim_LEFT.wav	1	32	blb_dichoticlistening_ta-da.mp3	ta	da	1	other
6.6.1	win	2023-06-12	16:58:46	17:25:16	1586775	5ba6d507cf54e40001c45aaf	1	1	practice_z	26	practice_z	13	stimuli_distractor_diamondtriangles.svg	stimuli_target_diamondrectangles.svg	8	yes	44	1	635	6	5	antiphase_hc_osi.wav	2	6	2	noise_calib_stim_LEFT.wav	1	32	blb_dichoticlistening_ta-da.mp3	ta	da	1	other
6.6.1	win	2023-06-12	16:58:46	17:25:16	1586775	5ba6d507cf54e40001c45aaf	1	1	practice_z	26	advance_on_keypress_ZEE	14	stimuli_distractor_diamondtriangles.svg	stimuli_target_diamondrectangles.svg	8	yes	57	0	473	6	5	antiphase_hc_osi.wav	2	6	2	noise_calib_stim_LEFT.wav	1	32	blb_dichoticlistening_ta-da.mp3	ta	da	1	other
