build	computer.platform	date	time	timestamp	time_elapsed_ms	subject	group	session	blockcode	blocknum	trialcode	trialnum	stimulus_left	stimulus_right	stim_index	target_present	response	correct	latency	headphonecheck_countTestTrials	headphonecheck_index	headphonecheck_testSound	headphonecheck_correctResponse	stereocheck_countTestTrials	stereocheck_index	stereocheck_testSound	stereocheck_correctResponse	DL_index	DL_soundfile	DL_leftSound	DL_rightSound	DL_dualSound	DL_choice
6.6.1	win	2023-07-06	17:50:13	17:55:47	321155	5d1652ba768bdf000154e37d	3	1	practice_slash	5	practice_slash	1	stimuli_distractor_trianglediamonds.svg	stimuli_target_rectanglediamonds.svg	10	yes	0	0	2003	0	0			0	0			1				0	
6.6.1	win	2023-07-06	17:50:13	17:55:47	321155	5d1652ba768bdf000154e37d	3	1	practice_slash	5	advance_on_keypress_SLASH	2	stimuli_distractor_trianglediamonds.svg	stimuli_target_rectanglediamonds.svg	10	yes	57	0	5100	0	0			0	0			1				0	
6.6.1	win	2023-07-06	17:50:13	17:55:56	329907	5d1652ba768bdf000154e37d	3	1	practice_slash	5	practice_slash	3	stimuli_distractor_trianglediamonds.svg	stimuli_distractor_diamondtriangles.svg	16	no	0	1	2003	0	0			0	0			1				0	
6.6.1	win	2023-07-06	17:50:13	17:55:56	329907	5d1652ba768bdf000154e37d	3	1	practice_slash	5	advance_on_keypress_SLASH	4	stimuli_distractor_trianglediamonds.svg	stimuli_distractor_diamondtriangles.svg	16	no	57	0	792	0	0			0	0			1				0	
6.6.1	win	2023-07-06	17:50:13	17:55:59	333440	5d1652ba768bdf000154e37d	3	1	practice_slash	5	practice_slash	5	stimuli_distractor_diamondtriangles.svg	stimuli_target_diamondrectangles.svg	8	yes	53	1	1106	0	0			0	0			1				0	
6.6.1	win	2023-07-06	17:50:13	17:55:59	333440	5d1652ba768bdf000154e37d	3	1	practice_slash	5	advance_on_keypress_SLASH	6	stimuli_distractor_diamondtriangles.svg	stimuli_target_diamondrectangles.svg	8	yes	57	0	1221	0	0			0	0			1				0	
6.6.1	win	2023-07-06	17:50:13	17:56:03	337248	5d1652ba768bdf000154e37d	3	1	practice_slash	5	practice_slash	7	stimuli_target_rectanglediamonds.svg	stimuli_distractor_diamondtriangles.svg	1	yes	53	1	950	0	0			0	0			1				0	
6.6.1	win	2023-07-06	17:50:13	17:56:03	337248	5d1652ba768bdf000154e37d	3	1	practice_slash	5	advance_on_keypress_SLASH	8	stimuli_target_rectanglediamonds.svg	stimuli_distractor_diamondtriangles.svg	1	yes	57	0	1828	0	0			0	0			1				0	
6.6.1	win	2023-07-06	17:50:13	17:56:07	341060	5d1652ba768bdf000154e37d	3	1	practice_slash	5	practice_slash	9	stimuli_distractor_diamondtriangles.svg	stimuli_target_rectangletriangles.svg	7	yes	53	1	342	0	0			0	0			1				0	
6.6.1	win	2023-07-06	17:50:13	17:56:07	341060	5d1652ba768bdf000154e37d	3	1	practice_slash	5	advance_on_keypress_SLASH	10	stimuli_distractor_diamondtriangles.svg	stimuli_target_rectangletriangles.svg	7	yes	57	0	863	0	0			0	0			1				0	
6.6.1	win	2023-07-06	17:50:13	17:56:11	345560	5d1652ba768bdf000154e37d	3	1	practice_slash	5	practice_slash	11	stimuli_target_diamondsquares.svg	stimuli_distractor_trianglediamonds.svg	6	yes	0	0	2003	0	0			0	0			1				0	
6.6.1	win	2023-07-06	17:50:13	17:56:11	345560	5d1652ba768bdf000154e37d	3	1	practice_slash	5	advance_on_keypress_SLASH	12	stimuli_target_diamondsquares.svg	stimuli_distractor_trianglediamonds.svg	6	yes	57	0	468	0	0			0	0			1				0	
6.6.1	win	2023-07-06	17:50:13	17:56:16	349662	5d1652ba768bdf000154e37d	3	1	practice_slash	5	practice_slash	13	stimuli_distractor_diamondtriangles.svg	stimuli_distractor_trianglediamonds.svg	14	no	0	1	2003	0	0			0	0			1				0	
6.6.1	win	2023-07-06	17:50:13	17:56:16	349662	5d1652ba768bdf000154e37d	3	1	practice_slash	5	advance_on_keypress_SLASH	14	stimuli_distractor_diamondtriangles.svg	stimuli_distractor_trianglediamonds.svg	14	no	57	0	748	0	0			0	0			1				0	
6.6.1	win	2023-07-06	17:50:13	17:56:20	354045	5d1652ba768bdf000154e37d	3	1	practice_slash	5	practice_slash	15	stimuli_distractor_trianglediamonds.svg	stimuli_distractor_trianglediamonds.svg	15	no	0	1	2003	0	0			0	0			1				0	
6.6.1	win	2023-07-06	17:50:13	17:56:20	354045	5d1652ba768bdf000154e37d	3	1	practice_slash	5	advance_on_keypress_SLASH	16	stimuli_distractor_trianglediamonds.svg	stimuli_distractor_trianglediamonds.svg	15	no	57	0	534	0	0			0	0			1				0	
6.6.1	win	2023-07-06	17:50:13	17:56:23	356861	5d1652ba768bdf000154e37d	3	1	practice_slash	5	practice_slash	17	stimuli_target_diamondsquares.svg	stimuli_distractor_diamondtriangles.svg	3	yes	53	1	651	0	0			0	0			1				0	
6.6.1	win	2023-07-06	17:50:13	17:56:23	356861	5d1652ba768bdf000154e37d	3	1	practice_slash	5	advance_on_keypress_SLASH	18	stimuli_target_diamondsquares.svg	stimuli_distractor_diamondtriangles.svg	3	yes	57	0	623	0	0			0	0			1				0	
6.6.1	win	2023-07-06	17:50:13	17:56:27	361116	5d1652ba768bdf000154e37d	3	1	practice_slash	5	practice_slash	19	stimuli_distractor_diamondtriangles.svg	stimuli_distractor_diamondtriangles.svg	13	no	0	1	2003	0	0			0	0			1				0	
6.6.1	win	2023-07-06	17:50:13	17:56:27	361116	5d1652ba768bdf000154e37d	3	1	practice_slash	5	advance_on_keypress_SLASH	20	stimuli_distractor_diamondtriangles.svg	stimuli_distractor_diamondtriangles.svg	13	no	57	0	388	0	0			0	0			1				0	
6.6.1	win	2023-07-06	17:50:13	17:56:30	363971	5d1652ba768bdf000154e37d	3	1	practice_slash	5	practice_slash	21	stimuli_target_rectanglediamonds.svg	stimuli_distractor_trianglediamonds.svg	4	yes	53	1	835	0	0			0	0			1				0	
6.6.1	win	2023-07-06	17:50:13	17:56:30	363971	5d1652ba768bdf000154e37d	3	1	practice_slash	5	advance_on_keypress_SLASH	22	stimuli_target_rectanglediamonds.svg	stimuli_distractor_trianglediamonds.svg	4	yes	57	0	795	0	0			0	0			1				0	
6.6.1	win	2023-07-06	17:50:13	17:56:33	367029	5d1652ba768bdf000154e37d	3	1	practice_slash	5	practice_slash	23	stimuli_distractor_trianglediamonds.svg	stimuli_target_squarediamonds.svg	11	yes	53	1	624	0	0			0	0			1				0	
6.6.1	win	2023-07-06	17:50:13	17:56:33	367029	5d1652ba768bdf000154e37d	3	1	practice_slash	5	advance_on_keypress_SLASH	24	stimuli_distractor_trianglediamonds.svg	stimuli_target_squarediamonds.svg	11	yes	57	0	484	0	0			0	0			1				0	
6.6.1	win	2023-07-06	17:50:13	17:56:36	369782	5d1652ba768bdf000154e37d	3	1	practice_slash	5	practice_slash	25	stimuli_distractor_trianglediamonds.svg	stimuli_target_diamondrectangles.svg	12	yes	53	1	636	0	0			0	0			1				0	
6.6.1	win	2023-07-06	17:50:13	17:56:36	369782	5d1652ba768bdf000154e37d	3	1	practice_slash	5	advance_on_keypress_SLASH	26	stimuli_distractor_trianglediamonds.svg	stimuli_target_diamondrectangles.svg	12	yes	57	0	584	0	0			0	0			1				0	
6.6.1	win	2023-07-06	17:50:13	17:56:39	372650	5d1652ba768bdf000154e37d	3	1	practice_slash	5	practice_slash	27	stimuli_target_squarediamonds.svg	stimuli_distractor_diamondtriangles.svg	2	yes	53	1	651	0	0			0	0			1				0	
6.6.1	win	2023-07-06	17:50:13	17:56:39	372650	5d1652ba768bdf000154e37d	3	1	practice_slash	5	advance_on_keypress_SLASH	28	stimuli_target_squarediamonds.svg	stimuli_distractor_diamondtriangles.svg	2	yes	57	0	668	0	0			0	0			1				0	
6.6.1	win	2023-07-06	17:50:13	17:56:43	376946	5d1652ba768bdf000154e37d	3	1	practice_slash	5	practice_slash	29	stimuli_target_squarediamonds.svg	stimuli_distractor_trianglediamonds.svg	5	yes	0	0	2003	0	0			0	0			1				0	
6.6.1	win	2023-07-06	17:50:13	17:56:43	376946	5d1652ba768bdf000154e37d	3	1	practice_slash	5	advance_on_keypress_SLASH	30	stimuli_target_squarediamonds.svg	stimuli_distractor_trianglediamonds.svg	5	yes	57	0	455	0	0			0	0			1				0	
6.6.1	win	2023-07-06	17:50:13	17:56:46	379704	5d1652ba768bdf000154e37d	3	1	practice_slash	5	practice_slash	31	stimuli_distractor_diamondtriangles.svg	stimuli_target_trianglerectangles.svg	9	yes	53	1	664	0	0			0	0			1				0	
6.6.1	win	2023-07-06	17:50:13	17:56:46	379704	5d1652ba768bdf000154e37d	3	1	practice_slash	5	advance_on_keypress_SLASH	32	stimuli_distractor_diamondtriangles.svg	stimuli_target_trianglerectangles.svg	9	yes	57	0	367	0	0			0	0			1				0	
6.6.1	win	2023-07-06	17:50:13	17:57:05	399293	5d1652ba768bdf000154e37d	3	1	main_slash	7	main_slash	1	stimuli_distractor_diamondtriangles.svg	stimuli_target_squaretriangles.svg	15	yes	53	1	965	0	0			0	0			1				0	
6.6.1	win	2023-07-06	17:50:13	17:57:05	399293	5d1652ba768bdf000154e37d	3	1	main_slash	7	advance_on_keypress_SLASH	2	stimuli_distractor_diamondtriangles.svg	stimuli_target_squaretriangles.svg	15	yes	57	0	1242	0	0			0	0			1				0	
6.6.1	win	2023-07-06	17:50:13	17:57:08	402082	5d1652ba768bdf000154e37d	3	1	main_slash	7	main_slash	3	stimuli_target_rectangletriangles.svg	stimuli_distractor_trianglediamonds.svg	1	yes	53	1	914	0	0			0	0			1				0	
6.6.1	win	2023-07-06	17:50:13	17:57:08	402082	5d1652ba768bdf000154e37d	3	1	main_slash	7	advance_on_keypress_SLASH	4	stimuli_target_rectangletriangles.svg	stimuli_distractor_trianglediamonds.svg	1	yes	57	0	1120	0	0			0	0			1				0	
6.6.1	win	2023-07-06	17:50:13	17:57:10	404469	5d1652ba768bdf000154e37d	3	1	main_slash	7	main_slash	5	stimuli_target_trianglesquares.svg	stimuli_distractor_diamondtriangles.svg	22	yes	53	1	641	0	0			0	0			1				0	
6.6.1	win	2023-07-06	17:50:13	17:57:10	404469	5d1652ba768bdf000154e37d	3	1	main_slash	7	advance_on_keypress_SLASH	6	stimuli_target_trianglesquares.svg	stimuli_distractor_diamondtriangles.svg	22	yes	57	0	1136	0	0			0	0			1				0	
6.6.1	win	2023-07-06	17:50:13	17:57:13	407219	5d1652ba768bdf000154e37d	3	1	main_slash	7	main_slash	7	stimuli_target_rectangletriangles.svg	stimuli_distractor_diamondtriangles.svg	5	yes	53	1	991	0	0			0	0			1				0	
6.6.1	win	2023-07-06	17:50:13	17:57:13	407219	5d1652ba768bdf000154e37d	3	1	main_slash	7	advance_on_keypress_SLASH	8	stimuli_target_rectangletriangles.svg	stimuli_distractor_diamondtriangles.svg	5	yes	57	0	1043	0	0			0	0			1				0	
6.6.1	win	2023-07-06	17:50:13	17:57:16	409585	5d1652ba768bdf000154e37d	3	1	main_slash	7	main_slash	9	stimuli_distractor_diamondtriangles.svg	stimuli_target_diamondsquares.svg	32	yes	53	1	699	0	0			0	0			1				0	
6.6.1	win	2023-07-06	17:50:13	17:57:16	409585	5d1652ba768bdf000154e37d	3	1	main_slash	7	advance_on_keypress_SLASH	10	stimuli_distractor_diamondtriangles.svg	stimuli_target_diamondsquares.svg	32	yes	57	0	903	0	0			0	0			1				0	
6.6.1	win	2023-07-06	17:50:13	17:57:19	413114	5d1652ba768bdf000154e37d	3	1	main_slash	7	main_slash	11	stimuli_distractor_trianglediamonds.svg	stimuli_distractor_diamondtriangles.svg	35	no	0	1	2003	0	0			0	0			1				0	
6.6.1	win	2023-07-06	17:50:13	17:57:19	413114	5d1652ba768bdf000154e37d	3	1	main_slash	7	advance_on_keypress_SLASH	12	stimuli_distractor_trianglediamonds.svg	stimuli_distractor_diamondtriangles.svg	35	no	57	0	687	0	0			0	0			1				0	
6.6.1	win	2023-07-06	17:50:13	17:57:21	415229	5d1652ba768bdf000154e37d	3	1	main_slash	7	main_slash	13	stimuli_distractor_trianglediamonds.svg	stimuli_distractor_diamondtriangles.svg	36	no	53	0	808	0	0			0	0			1				0	
6.6.1	win	2023-07-06	17:50:13	17:57:21	415229	5d1652ba768bdf000154e37d	3	1	main_slash	7	advance_on_keypress_SLASH	14	stimuli_distractor_trianglediamonds.svg	stimuli_distractor_diamondtriangles.svg	36	no	57	0	1340	0	0			0	0			1				0	
6.6.1	win	2023-07-06	17:50:13	17:57:24	418195	5d1652ba768bdf000154e37d	3	1	main_slash	7	main_slash	15	stimuli_distractor_trianglediamonds.svg	stimuli_target_trianglesquares.svg	26	yes	53	1	1008	0	0			0	0			1				0	
6.6.1	win	2023-07-06	17:50:13	17:57:24	418195	5d1652ba768bdf000154e37d	3	1	main_slash	7	advance_on_keypress_SLASH	16	stimuli_distractor_trianglediamonds.svg	stimuli_target_trianglesquares.svg	26	yes	57	0	799	0	0			0	0			1				0	
6.6.1	win	2023-07-06	17:50:13	17:57:26	420338	5d1652ba768bdf000154e37d	3	1	main_slash	7	main_slash	17	stimuli_target_diamondrectangles.svg	stimuli_distractor_diamondtriangles.svg	23	yes	53	1	718	0	0			0	0			1				0	
6.6.1	win	2023-07-06	17:50:13	17:57:26	420338	5d1652ba768bdf000154e37d	3	1	main_slash	7	advance_on_keypress_SLASH	18	stimuli_target_diamondrectangles.svg	stimuli_distractor_diamondtriangles.svg	23	yes	57	0	895	0	0			0	0			1				0	
6.6.1	win	2023-07-06	17:50:13	17:57:29	423245	5d1652ba768bdf000154e37d	3	1	main_slash	7	main_slash	19	stimuli_distractor_trianglediamonds.svg	stimuli_target_squarediamonds.svg	12	yes	53	1	1382	0	0			0	0			1				0	
6.6.1	win	2023-07-06	17:50:13	17:57:29	423245	5d1652ba768bdf000154e37d	3	1	main_slash	7	advance_on_keypress_SLASH	20	stimuli_distractor_trianglediamonds.svg	stimuli_target_squarediamonds.svg	12	yes	57	0	865	0	0			0	0			1				0	
6.6.1	win	2023-07-06	17:50:13	17:57:32	425848	5d1652ba768bdf000154e37d	3	1	main_slash	7	main_slash	21	stimuli_distractor_trianglediamonds.svg	stimuli_target_trianglerectangles.svg	25	yes	53	1	1114	0	0			0	0			1				0	
6.6.1	win	2023-07-06	17:50:13	17:57:32	425848	5d1652ba768bdf000154e37d	3	1	main_slash	7	advance_on_keypress_SLASH	22	stimuli_distractor_trianglediamonds.svg	stimuli_target_trianglerectangles.svg	25	yes	57	0	684	0	0			0	0			1				0	
6.6.1	win	2023-07-06	17:50:13	17:57:34	428150	5d1652ba768bdf000154e37d	3	1	main_slash	7	main_slash	23	stimuli_distractor_trianglediamonds.svg	stimuli_target_diamondrectangles.svg	27	yes	53	1	997	0	0			0	0			1				0	
6.6.1	win	2023-07-06	17:50:13	17:57:34	428150	5d1652ba768bdf000154e37d	3	1	main_slash	7	advance_on_keypress_SLASH	24	stimuli_distractor_trianglediamonds.svg	stimuli_target_diamondrectangles.svg	27	yes	57	0	1294	0	0			0	0			1				0	
6.6.1	win	2023-07-06	17:50:13	17:57:37	430990	5d1652ba768bdf000154e37d	3	1	main_slash	7	main_slash	25	stimuli_distractor_diamondtriangles.svg	stimuli_target_squarediamonds.svg	16	yes	53	1	923	0	0			0	0			1				0	
6.6.1	win	2023-07-06	17:50:13	17:57:37	430990	5d1652ba768bdf000154e37d	3	1	main_slash	7	advance_on_keypress_SLASH	26	stimuli_distractor_diamondtriangles.svg	stimuli_target_squarediamonds.svg	16	yes	57	0	816	0	0			0	0			1				0	
6.6.1	win	2023-07-06	17:50:13	17:57:39	433233	5d1652ba768bdf000154e37d	3	1	main_slash	7	main_slash	27	stimuli_distractor_trianglediamonds.svg	stimuli_target_rectangletriangles.svg	9	yes	53	1	801	0	0			0	0			1				0	
6.6.1	win	2023-07-06	17:50:13	17:57:39	433233	5d1652ba768bdf000154e37d	3	1	main_slash	7	advance_on_keypress_SLASH	28	stimuli_distractor_trianglediamonds.svg	stimuli_target_rectangletriangles.svg	9	yes	57	0	2058	0	0			0	0			1				0	
6.6.1	win	2023-07-06	17:50:13	17:57:43	436705	5d1652ba768bdf000154e37d	3	1	main_slash	7	main_slash	29	stimuli_distractor_diamondtriangles.svg	stimuli_target_diamondrectangles.svg	31	yes	53	1	792	0	0			0	0			1				0	
6.6.1	win	2023-07-06	17:50:13	17:57:43	436705	5d1652ba768bdf000154e37d	3	1	main_slash	7	advance_on_keypress_SLASH	30	stimuli_distractor_diamondtriangles.svg	stimuli_target_diamondrectangles.svg	31	yes	57	0	958	0	0			0	0			1				0	
6.6.1	win	2023-07-06	17:50:13	17:57:46	440294	5d1652ba768bdf000154e37d	3	1	main_slash	7	main_slash	31	stimuli_distractor_diamondtriangles.svg	stimuli_distractor_trianglediamonds.svg	38	no	0	1	2003	0	0			0	0			1				0	
6.6.1	win	2023-07-06	17:50:13	17:57:46	440294	5d1652ba768bdf000154e37d	3	1	main_slash	7	advance_on_keypress_SLASH	32	stimuli_distractor_diamondtriangles.svg	stimuli_distractor_trianglediamonds.svg	38	no	57	0	917	0	0			0	0			1				0	
6.6.1	win	2023-07-06	17:50:13	17:57:49	442803	5d1652ba768bdf000154e37d	3	1	main_slash	7	main_slash	33	stimuli_distractor_trianglediamonds.svg	stimuli_target_rectanglediamonds.svg	10	yes	53	1	971	0	0			0	0			1				0	
6.6.1	win	2023-07-06	17:50:13	17:57:49	442803	5d1652ba768bdf000154e37d	3	1	main_slash	7	advance_on_keypress_SLASH	34	stimuli_distractor_trianglediamonds.svg	stimuli_target_rectanglediamonds.svg	10	yes	57	0	688	0	0			0	0			1				0	
6.6.1	win	2023-07-06	17:50:13	17:57:52	446115	5d1652ba768bdf000154e37d	3	1	main_slash	7	main_slash	35	stimuli_distractor_diamondtriangles.svg	stimuli_distractor_diamondtriangles.svg	40	no	0	1	2003	0	0			0	0			1				0	
6.6.1	win	2023-07-06	17:50:13	17:57:52	446115	5d1652ba768bdf000154e37d	3	1	main_slash	7	advance_on_keypress_SLASH	36	stimuli_distractor_diamondtriangles.svg	stimuli_distractor_diamondtriangles.svg	40	no	57	0	700	0	0			0	0			1				0	
6.6.1	win	2023-07-06	17:50:13	17:57:54	448234	5d1652ba768bdf000154e37d	3	1	main_slash	7	main_slash	37	stimuli_target_rectanglediamonds.svg	stimuli_distractor_trianglediamonds.svg	2	yes	53	1	801	0	0			0	0			1				0	
6.6.1	win	2023-07-06	17:50:13	17:57:54	448234	5d1652ba768bdf000154e37d	3	1	main_slash	7	advance_on_keypress_SLASH	38	stimuli_target_rectanglediamonds.svg	stimuli_distractor_trianglediamonds.svg	2	yes	57	0	989	0	0			0	0			1				0	
6.6.1	win	2023-07-06	17:50:13	17:57:57	450792	5d1652ba768bdf000154e37d	3	1	main_slash	7	main_slash	39	stimuli_target_diamondsquares.svg	stimuli_distractor_diamondtriangles.svg	24	yes	53	1	945	0	0			0	0			1				0	
6.6.1	win	2023-07-06	17:50:13	17:57:57	450792	5d1652ba768bdf000154e37d	3	1	main_slash	7	advance_on_keypress_SLASH	40	stimuli_target_diamondsquares.svg	stimuli_distractor_diamondtriangles.svg	24	yes	57	0	781	0	0			0	0			1				0	
6.6.1	win	2023-07-06	17:50:13	17:57:59	453036	5d1652ba768bdf000154e37d	3	1	main_slash	7	main_slash	41	stimuli_distractor_diamondtriangles.svg	stimuli_target_trianglesquares.svg	30	yes	53	1	835	0	0			0	0			1				0	
6.6.1	win	2023-07-06	17:50:13	17:57:59	453036	5d1652ba768bdf000154e37d	3	1	main_slash	7	advance_on_keypress_SLASH	42	stimuli_distractor_diamondtriangles.svg	stimuli_target_trianglesquares.svg	30	yes	57	0	1019	0	0			0	0			1				0	
6.6.1	win	2023-07-06	17:50:13	17:58:02	455659	5d1652ba768bdf000154e37d	3	1	main_slash	7	main_slash	43	stimuli_distractor_diamondtriangles.svg	stimuli_target_trianglerectangles.svg	29	yes	53	1	978	0	0			0	0			1				0	
6.6.1	win	2023-07-06	17:50:13	17:58:02	455659	5d1652ba768bdf000154e37d	3	1	main_slash	7	advance_on_keypress_SLASH	44	stimuli_distractor_diamondtriangles.svg	stimuli_target_trianglerectangles.svg	29	yes	57	0	936	0	0			0	0			1				0	
6.6.1	win	2023-07-06	17:50:13	17:58:04	458238	5d1652ba768bdf000154e37d	3	1	main_slash	7	main_slash	45	stimuli_distractor_diamondtriangles.svg	stimuli_target_rectangletriangles.svg	13	yes	53	1	1021	0	0			0	0			1				0	
6.6.1	win	2023-07-06	17:50:13	17:58:04	458238	5d1652ba768bdf000154e37d	3	1	main_slash	7	advance_on_keypress_SLASH	46	stimuli_distractor_diamondtriangles.svg	stimuli_target_rectangletriangles.svg	13	yes	57	0	731	0	0			0	0			1				0	
6.6.1	win	2023-07-06	17:50:13	17:58:07	460598	5d1652ba768bdf000154e37d	3	1	main_slash	7	main_slash	47	stimuli_target_diamondsquares.svg	stimuli_distractor_trianglediamonds.svg	20	yes	53	1	1010	0	0			0	0			1				0	
6.6.1	win	2023-07-06	17:50:13	17:58:07	460598	5d1652ba768bdf000154e37d	3	1	main_slash	7	advance_on_keypress_SLASH	48	stimuli_target_diamondsquares.svg	stimuli_distractor_trianglediamonds.svg	20	yes	57	0	834	0	0			0	0			1				0	
6.6.1	win	2023-07-06	17:50:13	17:58:09	463024	5d1652ba768bdf000154e37d	3	1	main_slash	7	main_slash	49	stimuli_distractor_trianglediamonds.svg	stimuli_distractor_trianglediamonds.svg	34	no	53	0	973	0	0			0	0			1				0	
6.6.1	win	2023-07-06	17:50:13	17:58:09	463024	5d1652ba768bdf000154e37d	3	1	main_slash	7	advance_on_keypress_SLASH	50	stimuli_distractor_trianglediamonds.svg	stimuli_distractor_trianglediamonds.svg	34	no	57	0	1588	0	0			0	0			1				0	
6.6.1	win	2023-07-06	17:50:13	17:58:12	465910	5d1652ba768bdf000154e37d	3	1	main_slash	7	main_slash	51	stimuli_target_trianglesquares.svg	stimuli_distractor_trianglediamonds.svg	18	yes	53	1	678	0	0			0	0			1				0	
6.6.1	win	2023-07-06	17:50:13	17:58:12	465910	5d1652ba768bdf000154e37d	3	1	main_slash	7	advance_on_keypress_SLASH	52	stimuli_target_trianglesquares.svg	stimuli_distractor_trianglediamonds.svg	18	yes	57	0	960	0	0			0	0			1				0	
6.6.1	win	2023-07-06	17:50:13	17:58:15	469497	5d1652ba768bdf000154e37d	3	1	main_slash	7	main_slash	53	stimuli_distractor_diamondtriangles.svg	stimuli_distractor_diamondtriangles.svg	39	no	0	1	2003	0	0			0	0			1				0	
6.6.1	win	2023-07-06	17:50:13	17:58:15	469497	5d1652ba768bdf000154e37d	3	1	main_slash	7	advance_on_keypress_SLASH	54	stimuli_distractor_diamondtriangles.svg	stimuli_distractor_diamondtriangles.svg	39	no	57	0	628	0	0			0	0			1				0	
6.6.1	win	2023-07-06	17:50:13	17:58:18	471815	5d1652ba768bdf000154e37d	3	1	main_slash	7	main_slash	55	stimuli_distractor_trianglediamonds.svg	stimuli_target_squaretriangles.svg	11	yes	53	1	1066	0	0			0	0			1				0	
6.6.1	win	2023-07-06	17:50:13	17:58:18	471815	5d1652ba768bdf000154e37d	3	1	main_slash	7	advance_on_keypress_SLASH	56	stimuli_distractor_trianglediamonds.svg	stimuli_target_squaretriangles.svg	11	yes	57	0	1410	0	0			0	0			1				0	
6.6.1	win	2023-07-06	17:50:13	17:58:21	475284	5d1652ba768bdf000154e37d	3	1	main_slash	7	main_slash	57	stimuli_distractor_trianglediamonds.svg	stimuli_distractor_trianglediamonds.svg	33	no	53	0	1433	0	0			0	0			1				0	
6.6.1	win	2023-07-06	17:50:13	17:58:21	475284	5d1652ba768bdf000154e37d	3	1	main_slash	7	advance_on_keypress_SLASH	58	stimuli_distractor_trianglediamonds.svg	stimuli_distractor_trianglediamonds.svg	33	no	57	0	1089	0	0			0	0			1				0	
6.6.1	win	2023-07-06	17:50:13	17:58:24	477960	5d1652ba768bdf000154e37d	3	1	main_slash	7	main_slash	59	stimuli_target_squaretriangles.svg	stimuli_distractor_trianglediamonds.svg	3	yes	53	1	964	0	0			0	0			1				0	
6.6.1	win	2023-07-06	17:50:13	17:58:24	477960	5d1652ba768bdf000154e37d	3	1	main_slash	7	advance_on_keypress_SLASH	60	stimuli_target_squaretriangles.svg	stimuli_distractor_trianglediamonds.svg	3	yes	57	0	732	0	0			0	0			1				0	
6.6.1	win	2023-07-06	17:50:13	17:58:26	480031	5d1652ba768bdf000154e37d	3	1	main_slash	7	main_slash	61	stimuli_target_squaretriangles.svg	stimuli_distractor_diamondtriangles.svg	7	yes	53	1	712	0	0			0	0			1				0	
6.6.1	win	2023-07-06	17:50:13	17:58:26	480031	5d1652ba768bdf000154e37d	3	1	main_slash	7	advance_on_keypress_SLASH	62	stimuli_target_squaretriangles.svg	stimuli_distractor_diamondtriangles.svg	7	yes	57	0	883	0	0			0	0			1				0	
6.6.1	win	2023-07-06	17:50:13	17:58:29	482568	5d1652ba768bdf000154e37d	3	1	main_slash	7	main_slash	63	stimuli_target_trianglerectangles.svg	stimuli_distractor_diamondtriangles.svg	21	yes	53	1	1030	0	0			0	0			1				0	
6.6.1	win	2023-07-06	17:50:13	17:58:29	482568	5d1652ba768bdf000154e37d	3	1	main_slash	7	advance_on_keypress_SLASH	64	stimuli_target_trianglerectangles.svg	stimuli_distractor_diamondtriangles.svg	21	yes	57	0	823	0	0			0	0			1				0	
6.6.1	win	2023-07-06	17:50:13	17:58:31	484835	5d1652ba768bdf000154e37d	3	1	main_slash	7	main_slash	65	stimuli_distractor_trianglediamonds.svg	stimuli_target_diamondsquares.svg	28	yes	53	1	822	0	0			0	0			1				0	
6.6.1	win	2023-07-06	17:50:13	17:58:31	484835	5d1652ba768bdf000154e37d	3	1	main_slash	7	advance_on_keypress_SLASH	66	stimuli_distractor_trianglediamonds.svg	stimuli_target_diamondsquares.svg	28	yes	57	0	745	0	0			0	0			1				0	
6.6.1	win	2023-07-06	17:50:13	17:58:34	488210	5d1652ba768bdf000154e37d	3	1	main_slash	7	main_slash	67	stimuli_target_squarediamonds.svg	stimuli_distractor_trianglediamonds.svg	4	yes	0	0	2003	0	0			0	0			1				0	
6.6.1	win	2023-07-06	17:50:13	17:58:34	488210	5d1652ba768bdf000154e37d	3	1	main_slash	7	advance_on_keypress_SLASH	68	stimuli_target_squarediamonds.svg	stimuli_distractor_trianglediamonds.svg	4	yes	57	0	661	0	0			0	0			1				0	
6.6.1	win	2023-07-06	17:50:13	17:58:36	490320	5d1652ba768bdf000154e37d	3	1	main_slash	7	main_slash	69	stimuli_target_rectanglediamonds.svg	stimuli_distractor_diamondtriangles.svg	6	yes	53	1	828	0	0			0	0			1				0	
6.6.1	win	2023-07-06	17:50:13	17:58:36	490320	5d1652ba768bdf000154e37d	3	1	main_slash	7	advance_on_keypress_SLASH	70	stimuli_target_rectanglediamonds.svg	stimuli_distractor_diamondtriangles.svg	6	yes	57	0	649	0	0			0	0			1				0	
6.6.1	win	2023-07-06	17:50:13	17:58:38	492259	5d1652ba768bdf000154e37d	3	1	main_slash	7	main_slash	71	stimuli_distractor_diamondtriangles.svg	stimuli_target_rectanglediamonds.svg	14	yes	53	1	670	0	0			0	0			1				0	
6.6.1	win	2023-07-06	17:50:13	17:58:38	492259	5d1652ba768bdf000154e37d	3	1	main_slash	7	advance_on_keypress_SLASH	72	stimuli_distractor_diamondtriangles.svg	stimuli_target_rectanglediamonds.svg	14	yes	57	0	790	0	0			0	0			1				0	
6.6.1	win	2023-07-06	17:50:13	17:58:41	494844	5d1652ba768bdf000154e37d	3	1	main_slash	7	main_slash	73	stimuli_distractor_diamondtriangles.svg	stimuli_distractor_trianglediamonds.svg	37	no	53	0	1170	0	0			0	0			1				0	
6.6.1	win	2023-07-06	17:50:13	17:58:41	494844	5d1652ba768bdf000154e37d	3	1	main_slash	7	advance_on_keypress_SLASH	74	stimuli_distractor_diamondtriangles.svg	stimuli_distractor_trianglediamonds.svg	37	no	57	0	879	0	0			0	0			1				0	
6.6.1	win	2023-07-06	17:50:13	17:58:43	497330	5d1652ba768bdf000154e37d	3	1	main_slash	7	main_slash	75	stimuli_target_diamondrectangles.svg	stimuli_distractor_trianglediamonds.svg	19	yes	53	1	981	0	0			0	0			1				0	
6.6.1	win	2023-07-06	17:50:13	17:58:43	497330	5d1652ba768bdf000154e37d	3	1	main_slash	7	advance_on_keypress_SLASH	76	stimuli_target_diamondrectangles.svg	stimuli_distractor_trianglediamonds.svg	19	yes	57	0	929	0	0			0	0			1				0	
6.6.1	win	2023-07-06	17:50:13	17:58:46	499859	5d1652ba768bdf000154e37d	3	1	main_slash	7	main_slash	77	stimuli_target_trianglerectangles.svg	stimuli_distractor_trianglediamonds.svg	17	yes	53	1	974	0	0			0	0			1				0	
6.6.1	win	2023-07-06	17:50:13	17:58:46	499859	5d1652ba768bdf000154e37d	3	1	main_slash	7	advance_on_keypress_SLASH	78	stimuli_target_trianglerectangles.svg	stimuli_distractor_trianglediamonds.svg	17	yes	57	0	1365	0	0			0	0			1				0	
6.6.1	win	2023-07-06	17:50:13	17:58:49	502968	5d1652ba768bdf000154e37d	3	1	main_slash	7	main_slash	79	stimuli_target_squarediamonds.svg	stimuli_distractor_diamondtriangles.svg	8	yes	53	1	1113	0	0			0	0			1				0	
6.6.1	win	2023-07-06	17:50:13	17:58:49	502968	5d1652ba768bdf000154e37d	3	1	main_slash	7	advance_on_keypress_SLASH	80	stimuli_target_squarediamonds.svg	stimuli_distractor_diamondtriangles.svg	8	yes	57	0	934	0	0			0	0			1				0	
6.6.1	win	2023-07-06	17:50:13	17:58:51	505118	5d1652ba768bdf000154e37d	3	1	main_slash	7	main_slash	81	stimuli_target_rectangletriangles.svg	stimuli_distractor_trianglediamonds.svg	1	yes	53	1	594	0	0			0	0			1				0	
6.6.1	win	2023-07-06	17:50:13	17:58:51	505118	5d1652ba768bdf000154e37d	3	1	main_slash	7	advance_on_keypress_SLASH	82	stimuli_target_rectangletriangles.svg	stimuli_distractor_trianglediamonds.svg	1	yes	57	0	740	0	0			0	0			1				0	
6.6.1	win	2023-07-06	17:50:13	17:58:54	508490	5d1652ba768bdf000154e37d	3	1	main_slash	7	main_slash	83	stimuli_target_trianglesquares.svg	stimuli_distractor_diamondtriangles.svg	22	yes	0	0	2003	0	0			0	0			1				0	
6.6.1	win	2023-07-06	17:50:13	17:58:54	508490	5d1652ba768bdf000154e37d	3	1	main_slash	7	advance_on_keypress_SLASH	84	stimuli_target_trianglesquares.svg	stimuli_distractor_diamondtriangles.svg	22	yes	57	0	661	0	0			0	0			1				0	
6.6.1	win	2023-07-06	17:50:13	17:58:57	510830	5d1652ba768bdf000154e37d	3	1	main_slash	7	main_slash	85	stimuli_distractor_diamondtriangles.svg	stimuli_distractor_trianglediamonds.svg	38	no	53	0	1051	0	0			0	0			1				0	
6.6.1	win	2023-07-06	17:50:13	17:58:57	510830	5d1652ba768bdf000154e37d	3	1	main_slash	7	advance_on_keypress_SLASH	86	stimuli_distractor_diamondtriangles.svg	stimuli_distractor_trianglediamonds.svg	38	no	57	0	1177	0	0			0	0			1				0	
6.6.1	win	2023-07-06	17:50:13	17:58:59	513319	5d1652ba768bdf000154e37d	3	1	main_slash	7	main_slash	87	stimuli_distractor_trianglediamonds.svg	stimuli_target_rectanglediamonds.svg	10	yes	53	1	688	0	0			0	0			1				0	
6.6.1	win	2023-07-06	17:50:13	17:58:59	513319	5d1652ba768bdf000154e37d	3	1	main_slash	7	advance_on_keypress_SLASH	88	stimuli_distractor_trianglediamonds.svg	stimuli_target_rectanglediamonds.svg	10	yes	57	0	577	0	0			0	0			1				0	
6.6.1	win	2023-07-06	17:50:13	17:59:02	516200	5d1652ba768bdf000154e37d	3	1	main_slash	7	main_slash	89	stimuli_target_trianglerectangles.svg	stimuli_distractor_diamondtriangles.svg	21	yes	53	1	1680	0	0			0	0			1				0	
6.6.1	win	2023-07-06	17:50:13	17:59:02	516200	5d1652ba768bdf000154e37d	3	1	main_slash	7	advance_on_keypress_SLASH	90	stimuli_target_trianglerectangles.svg	stimuli_distractor_diamondtriangles.svg	21	yes	57	0	1072	0	0			0	0			1				0	
6.6.1	win	2023-07-06	17:50:13	17:59:05	518888	5d1652ba768bdf000154e37d	3	1	main_slash	7	main_slash	91	stimuli_target_squarediamonds.svg	stimuli_distractor_trianglediamonds.svg	4	yes	53	1	996	0	0			0	0			1				0	
6.6.1	win	2023-07-06	17:50:13	17:59:05	518888	5d1652ba768bdf000154e37d	3	1	main_slash	7	advance_on_keypress_SLASH	92	stimuli_target_squarediamonds.svg	stimuli_distractor_trianglediamonds.svg	4	yes	57	0	2021	0	0			0	0			1				0	
6.6.1	win	2023-07-06	17:50:13	17:59:08	522226	5d1652ba768bdf000154e37d	3	1	main_slash	7	main_slash	93	stimuli_distractor_trianglediamonds.svg	stimuli_target_diamondrectangles.svg	27	yes	53	1	696	0	0			0	0			1				0	
6.6.1	win	2023-07-06	17:50:13	17:59:08	522226	5d1652ba768bdf000154e37d	3	1	main_slash	7	advance_on_keypress_SLASH	94	stimuli_distractor_trianglediamonds.svg	stimuli_target_diamondrectangles.svg	27	yes	57	0	571	0	0			0	0			1				0	
6.6.1	win	2023-07-06	17:50:13	17:59:11	525423	5d1652ba768bdf000154e37d	3	1	main_slash	7	main_slash	95	stimuli_distractor_trianglediamonds.svg	stimuli_distractor_diamondtriangles.svg	36	no	0	1	2003	0	0			0	0			1				0	
6.6.1	win	2023-07-06	17:50:13	17:59:11	525423	5d1652ba768bdf000154e37d	3	1	main_slash	7	advance_on_keypress_SLASH	96	stimuli_distractor_trianglediamonds.svg	stimuli_distractor_diamondtriangles.svg	36	no	57	0	3437	0	0			0	0			1				0	
6.6.1	win	2023-07-06	17:50:13	17:59:16	530016	5d1652ba768bdf000154e37d	3	1	main_slash	7	main_slash	97	stimuli_distractor_trianglediamonds.svg	stimuli_target_squaretriangles.svg	11	yes	53	1	528	0	0			0	0			1				0	
6.6.1	win	2023-07-06	17:50:13	17:59:16	530016	5d1652ba768bdf000154e37d	3	1	main_slash	7	advance_on_keypress_SLASH	98	stimuli_distractor_trianglediamonds.svg	stimuli_target_squaretriangles.svg	11	yes	57	0	1499	0	0			0	0			1				0	
6.6.1	win	2023-07-06	17:50:13	17:59:19	532777	5d1652ba768bdf000154e37d	3	1	main_slash	7	main_slash	99	stimuli_target_rectanglediamonds.svg	stimuli_distractor_diamondtriangles.svg	6	yes	53	1	634	0	0			0	0			1				0	
6.6.1	win	2023-07-06	17:50:13	17:59:19	532777	5d1652ba768bdf000154e37d	3	1	main_slash	7	advance_on_keypress_SLASH	100	stimuli_target_rectanglediamonds.svg	stimuli_distractor_diamondtriangles.svg	6	yes	57	0	799	0	0			0	0			1				0	
6.6.1	win	2023-07-06	17:50:13	17:59:21	534862	5d1652ba768bdf000154e37d	3	1	main_slash	7	main_slash	101	stimuli_target_rectangletriangles.svg	stimuli_distractor_diamondtriangles.svg	5	yes	53	1	660	0	0			0	0			1				0	
6.6.1	win	2023-07-06	17:50:13	17:59:21	534862	5d1652ba768bdf000154e37d	3	1	main_slash	7	advance_on_keypress_SLASH	102	stimuli_target_rectangletriangles.svg	stimuli_distractor_diamondtriangles.svg	5	yes	57	0	576	0	0			0	0			1				0	
6.6.1	win	2023-07-06	17:50:13	17:59:24	538065	5d1652ba768bdf000154e37d	3	1	main_slash	7	main_slash	103	stimuli_distractor_trianglediamonds.svg	stimuli_distractor_trianglediamonds.svg	33	no	0	1	2003	0	0			0	0			1				0	
6.6.1	win	2023-07-06	17:50:13	17:59:24	538065	5d1652ba768bdf000154e37d	3	1	main_slash	7	advance_on_keypress_SLASH	104	stimuli_distractor_trianglediamonds.svg	stimuli_distractor_trianglediamonds.svg	33	no	57	0	792	0	0			0	0			1				0	
6.6.1	win	2023-07-06	17:50:13	17:59:26	540144	5d1652ba768bdf000154e37d	3	1	main_slash	7	main_slash	105	stimuli_target_trianglesquares.svg	stimuli_distractor_trianglediamonds.svg	18	yes	53	1	662	0	0			0	0			1				0	
6.6.1	win	2023-07-06	17:50:13	17:59:26	540144	5d1652ba768bdf000154e37d	3	1	main_slash	7	advance_on_keypress_SLASH	106	stimuli_target_trianglesquares.svg	stimuli_distractor_trianglediamonds.svg	18	yes	57	0	926	0	0			0	0			1				0	
6.6.1	win	2023-07-06	17:50:13	17:59:29	542762	5d1652ba768bdf000154e37d	3	1	main_slash	7	main_slash	107	stimuli_target_squarediamonds.svg	stimuli_distractor_diamondtriangles.svg	8	yes	53	1	1074	0	0			0	0			1				0	
6.6.1	win	2023-07-06	17:50:13	17:59:29	542762	5d1652ba768bdf000154e37d	3	1	main_slash	7	advance_on_keypress_SLASH	108	stimuli_target_squarediamonds.svg	stimuli_distractor_diamondtriangles.svg	8	yes	57	0	879	0	0			0	0			1				0	
6.6.1	win	2023-07-06	17:50:13	17:59:32	546270	5d1652ba768bdf000154e37d	3	1	main_slash	7	main_slash	109	stimuli_distractor_trianglediamonds.svg	stimuli_distractor_trianglediamonds.svg	34	no	0	1	2003	0	0			0	0			1				0	
6.6.1	win	2023-07-06	17:50:13	17:59:32	546270	5d1652ba768bdf000154e37d	3	1	main_slash	7	advance_on_keypress_SLASH	110	stimuli_distractor_trianglediamonds.svg	stimuli_distractor_trianglediamonds.svg	34	no	57	0	1068	0	0			0	0			1				0	
6.6.1	win	2023-07-06	17:50:13	17:59:36	549964	5d1652ba768bdf000154e37d	3	1	main_slash	7	main_slash	111	stimuli_distractor_diamondtriangles.svg	stimuli_distractor_diamondtriangles.svg	39	no	0	1	2003	0	0			0	0			1				0	
6.6.1	win	2023-07-06	17:50:13	17:59:36	549964	5d1652ba768bdf000154e37d	3	1	main_slash	7	advance_on_keypress_SLASH	112	stimuli_distractor_diamondtriangles.svg	stimuli_distractor_diamondtriangles.svg	39	no	57	0	8129	0	0			0	0			1				0	
6.6.1	win	2023-07-06	17:50:13	17:59:45	559547	5d1652ba768bdf000154e37d	3	1	main_slash	7	main_slash	113	stimuli_distractor_diamondtriangles.svg	stimuli_target_diamondrectangles.svg	31	yes	53	1	827	0	0			0	0			1				0	
6.6.1	win	2023-07-06	17:50:13	17:59:45	559547	5d1652ba768bdf000154e37d	3	1	main_slash	7	advance_on_keypress_SLASH	114	stimuli_distractor_diamondtriangles.svg	stimuli_target_diamondrectangles.svg	31	yes	57	0	709	0	0			0	0			1				0	
6.6.1	win	2023-07-06	17:50:13	17:59:47	561559	5d1652ba768bdf000154e37d	3	1	main_slash	7	main_slash	115	stimuli_distractor_trianglediamonds.svg	stimuli_target_rectangletriangles.svg	9	yes	53	1	677	0	0			0	0			1				0	
6.6.1	win	2023-07-06	17:50:13	17:59:47	561559	5d1652ba768bdf000154e37d	3	1	main_slash	7	advance_on_keypress_SLASH	116	stimuli_distractor_trianglediamonds.svg	stimuli_target_rectangletriangles.svg	9	yes	57	0	588	0	0			0	0			1				0	
6.6.1	win	2023-07-06	17:50:13	17:59:50	563783	5d1652ba768bdf000154e37d	3	1	main_slash	7	main_slash	117	stimuli_distractor_diamondtriangles.svg	stimuli_target_rectangletriangles.svg	13	yes	53	1	1010	0	0			0	0			1				0	
6.6.1	win	2023-07-06	17:50:13	17:59:50	563783	5d1652ba768bdf000154e37d	3	1	main_slash	7	advance_on_keypress_SLASH	118	stimuli_distractor_diamondtriangles.svg	stimuli_target_rectangletriangles.svg	13	yes	57	0	565	0	0			0	0			1				0	
6.6.1	win	2023-07-06	17:50:13	17:59:52	565910	5d1652ba768bdf000154e37d	3	1	main_slash	7	main_slash	119	stimuli_target_diamondrectangles.svg	stimuli_distractor_diamondtriangles.svg	23	yes	53	1	944	0	0			0	0			1				0	
6.6.1	win	2023-07-06	17:50:13	17:59:52	565910	5d1652ba768bdf000154e37d	3	1	main_slash	7	advance_on_keypress_SLASH	120	stimuli_target_diamondrectangles.svg	stimuli_distractor_diamondtriangles.svg	23	yes	57	0	762	0	0			0	0			1				0	
6.6.1	win	2023-07-06	17:50:13	17:59:55	569298	5d1652ba768bdf000154e37d	3	1	main_slash	7	main_slash	121	stimuli_target_rectanglediamonds.svg	stimuli_distractor_trianglediamonds.svg	2	yes	0	0	2003	0	0			0	0			1				0	
6.6.1	win	2023-07-06	17:50:13	17:59:55	569298	5d1652ba768bdf000154e37d	3	1	main_slash	7	advance_on_keypress_SLASH	122	stimuli_target_rectanglediamonds.svg	stimuli_distractor_trianglediamonds.svg	2	yes	57	0	726	0	0			0	0			1				0	
6.6.1	win	2023-07-06	17:50:13	17:59:58	571631	5d1652ba768bdf000154e37d	3	1	main_slash	7	main_slash	123	stimuli_distractor_diamondtriangles.svg	stimuli_distractor_trianglediamonds.svg	37	no	53	0	982	0	0			0	0			1				0	
6.6.1	win	2023-07-06	17:50:13	17:59:58	571631	5d1652ba768bdf000154e37d	3	1	main_slash	7	advance_on_keypress_SLASH	124	stimuli_distractor_diamondtriangles.svg	stimuli_distractor_trianglediamonds.svg	37	no	57	0	527	0	0			0	0			1				0	
6.6.1	win	2023-07-06	17:50:13	18:00:00	573576	5d1652ba768bdf000154e37d	3	1	main_slash	7	main_slash	125	stimuli_distractor_diamondtriangles.svg	stimuli_target_squarediamonds.svg	16	yes	53	1	795	0	0			0	0			1				0	
6.6.1	win	2023-07-06	17:50:13	18:00:00	573576	5d1652ba768bdf000154e37d	3	1	main_slash	7	advance_on_keypress_SLASH	126	stimuli_distractor_diamondtriangles.svg	stimuli_target_squarediamonds.svg	16	yes	57	0	663	0	0			0	0			1				0	
6.6.1	win	2023-07-06	17:50:13	18:00:02	575671	5d1652ba768bdf000154e37d	3	1	main_slash	7	main_slash	127	stimuli_distractor_diamondtriangles.svg	stimuli_target_rectanglediamonds.svg	14	yes	53	1	804	0	0			0	0			1				0	
6.6.1	win	2023-07-06	17:50:13	18:00:02	575671	5d1652ba768bdf000154e37d	3	1	main_slash	7	advance_on_keypress_SLASH	128	stimuli_distractor_diamondtriangles.svg	stimuli_target_rectanglediamonds.svg	14	yes	57	0	1285	0	0			0	0			1				0	
6.6.1	win	2023-07-06	17:50:13	18:00:04	578403	5d1652ba768bdf000154e37d	3	1	main_slash	7	main_slash	129	stimuli_target_diamondsquares.svg	stimuli_distractor_diamondtriangles.svg	24	yes	53	1	819	0	0			0	0			1				0	
6.6.1	win	2023-07-06	17:50:13	18:00:04	578403	5d1652ba768bdf000154e37d	3	1	main_slash	7	advance_on_keypress_SLASH	130	stimuli_target_diamondsquares.svg	stimuli_distractor_diamondtriangles.svg	24	yes	57	0	864	0	0			0	0			1				0	
6.6.1	win	2023-07-06	17:50:13	18:00:07	580758	5d1652ba768bdf000154e37d	3	1	main_slash	7	main_slash	131	stimuli_distractor_diamondtriangles.svg	stimuli_target_trianglerectangles.svg	29	yes	53	1	869	0	0			0	0			1				0	
6.6.1	win	2023-07-06	17:50:13	18:00:07	580758	5d1652ba768bdf000154e37d	3	1	main_slash	7	advance_on_keypress_SLASH	132	stimuli_distractor_diamondtriangles.svg	stimuli_target_trianglerectangles.svg	29	yes	57	0	772	0	0			0	0			1				0	
6.6.1	win	2023-07-06	17:50:13	18:00:09	583044	5d1652ba768bdf000154e37d	3	1	main_slash	7	main_slash	133	stimuli_distractor_trianglediamonds.svg	stimuli_target_trianglesquares.svg	26	yes	53	1	888	0	0			0	0			1				0	
6.6.1	win	2023-07-06	17:50:13	18:00:09	583044	5d1652ba768bdf000154e37d	3	1	main_slash	7	advance_on_keypress_SLASH	134	stimuli_distractor_trianglediamonds.svg	stimuli_target_trianglesquares.svg	26	yes	57	0	695	0	0			0	0			1				0	
6.6.1	win	2023-07-06	17:50:13	18:00:11	585385	5d1652ba768bdf000154e37d	3	1	main_slash	7	main_slash	135	stimuli_target_squaretriangles.svg	stimuli_distractor_diamondtriangles.svg	7	yes	53	1	1023	0	0			0	0			1				0	
6.6.1	win	2023-07-06	17:50:13	18:00:11	585385	5d1652ba768bdf000154e37d	3	1	main_slash	7	advance_on_keypress_SLASH	136	stimuli_target_squaretriangles.svg	stimuli_distractor_diamondtriangles.svg	7	yes	57	0	1529	0	0			0	0			1				0	
6.6.1	win	2023-07-06	17:50:13	18:00:15	588640	5d1652ba768bdf000154e37d	3	1	main_slash	7	main_slash	137	stimuli_distractor_diamondtriangles.svg	stimuli_target_squaretriangles.svg	15	yes	53	1	1107	0	0			0	0			1				0	
6.6.1	win	2023-07-06	17:50:13	18:00:15	588640	5d1652ba768bdf000154e37d	3	1	main_slash	7	advance_on_keypress_SLASH	138	stimuli_distractor_diamondtriangles.svg	stimuli_target_squaretriangles.svg	15	yes	57	0	744	0	0			0	0			1				0	
6.6.1	win	2023-07-06	17:50:13	18:00:17	590875	5d1652ba768bdf000154e37d	3	1	main_slash	7	main_slash	139	stimuli_distractor_trianglediamonds.svg	stimuli_target_trianglerectangles.svg	25	yes	53	1	868	0	0			0	0			1				0	
6.6.1	win	2023-07-06	17:50:13	18:00:17	590875	5d1652ba768bdf000154e37d	3	1	main_slash	7	advance_on_keypress_SLASH	140	stimuli_distractor_trianglediamonds.svg	stimuli_target_trianglerectangles.svg	25	yes	57	0	543	0	0			0	0			1				0	
6.6.1	win	2023-07-06	17:50:13	18:00:19	592605	5d1652ba768bdf000154e37d	3	1	main_slash	7	main_slash	141	stimuli_target_diamondrectangles.svg	stimuli_distractor_trianglediamonds.svg	19	yes	53	1	562	0	0			0	0			1				0	
6.6.1	win	2023-07-06	17:50:13	18:00:19	592605	5d1652ba768bdf000154e37d	3	1	main_slash	7	advance_on_keypress_SLASH	142	stimuli_target_diamondrectangles.svg	stimuli_distractor_trianglediamonds.svg	19	yes	57	0	892	0	0			0	0			1				0	
6.6.1	win	2023-07-06	17:50:13	18:00:21	594918	5d1652ba768bdf000154e37d	3	1	main_slash	7	main_slash	143	stimuli_target_diamondsquares.svg	stimuli_distractor_trianglediamonds.svg	20	yes	53	1	795	0	0			0	0			1				0	
6.6.1	win	2023-07-06	17:50:13	18:00:21	594918	5d1652ba768bdf000154e37d	3	1	main_slash	7	advance_on_keypress_SLASH	144	stimuli_target_diamondsquares.svg	stimuli_distractor_trianglediamonds.svg	20	yes	57	0	565	0	0			0	0			1				0	
6.6.1	win	2023-07-06	17:50:13	18:00:24	597826	5d1652ba768bdf000154e37d	3	1	main_slash	7	main_slash	145	stimuli_target_squaretriangles.svg	stimuli_distractor_trianglediamonds.svg	3	yes	53	1	1723	0	0			0	0			1				0	
6.6.1	win	2023-07-06	17:50:13	18:00:24	597826	5d1652ba768bdf000154e37d	3	1	main_slash	7	advance_on_keypress_SLASH	146	stimuli_target_squaretriangles.svg	stimuli_distractor_trianglediamonds.svg	3	yes	57	0	762	0	0			0	0			1				0	
6.6.1	win	2023-07-06	17:50:13	18:00:26	600104	5d1652ba768bdf000154e37d	3	1	main_slash	7	main_slash	147	stimuli_distractor_trianglediamonds.svg	stimuli_target_squarediamonds.svg	12	yes	53	1	886	0	0			0	0			1				0	
6.6.1	win	2023-07-06	17:50:13	18:00:26	600104	5d1652ba768bdf000154e37d	3	1	main_slash	7	advance_on_keypress_SLASH	148	stimuli_distractor_trianglediamonds.svg	stimuli_target_squarediamonds.svg	12	yes	57	0	753	0	0			0	0			1				0	
6.6.1	win	2023-07-06	17:50:13	18:00:28	602459	5d1652ba768bdf000154e37d	3	1	main_slash	7	main_slash	149	stimuli_distractor_diamondtriangles.svg	stimuli_target_diamondsquares.svg	32	yes	53	1	980	0	0			0	0			1				0	
6.6.1	win	2023-07-06	17:50:13	18:00:28	602459	5d1652ba768bdf000154e37d	3	1	main_slash	7	advance_on_keypress_SLASH	150	stimuli_distractor_diamondtriangles.svg	stimuli_target_diamondsquares.svg	32	yes	57	0	477	0	0			0	0			1				0	
6.6.1	win	2023-07-06	17:50:13	18:00:31	604805	5d1652ba768bdf000154e37d	3	1	main_slash	7	main_slash	151	stimuli_distractor_trianglediamonds.svg	stimuli_distractor_diamondtriangles.svg	35	no	53	0	1248	0	0			0	0			1				0	
6.6.1	win	2023-07-06	17:50:13	18:00:31	604805	5d1652ba768bdf000154e37d	3	1	main_slash	7	advance_on_keypress_SLASH	152	stimuli_distractor_trianglediamonds.svg	stimuli_distractor_diamondtriangles.svg	35	no	57	0	657	0	0			0	0			1				0	
6.6.1	win	2023-07-06	17:50:13	18:00:34	608090	5d1652ba768bdf000154e37d	3	1	main_slash	7	main_slash	153	stimuli_distractor_diamondtriangles.svg	stimuli_distractor_diamondtriangles.svg	40	no	0	1	2003	0	0			0	0			1				0	
6.6.1	win	2023-07-06	17:50:13	18:00:34	608090	5d1652ba768bdf000154e37d	3	1	main_slash	7	advance_on_keypress_SLASH	154	stimuli_distractor_diamondtriangles.svg	stimuli_distractor_diamondtriangles.svg	40	no	57	0	637	0	0			0	0			1				0	
6.6.1	win	2023-07-06	17:50:13	18:00:36	610160	5d1652ba768bdf000154e37d	3	1	main_slash	7	main_slash	155	stimuli_distractor_diamondtriangles.svg	stimuli_target_trianglesquares.svg	30	yes	53	1	810	0	0			0	0			1				0	
6.6.1	win	2023-07-06	17:50:13	18:00:36	610160	5d1652ba768bdf000154e37d	3	1	main_slash	7	advance_on_keypress_SLASH	156	stimuli_distractor_diamondtriangles.svg	stimuli_target_trianglesquares.svg	30	yes	57	0	596	0	0			0	0			1				0	
6.6.1	win	2023-07-06	17:50:13	18:00:38	612365	5d1652ba768bdf000154e37d	3	1	main_slash	7	main_slash	157	stimuli_distractor_trianglediamonds.svg	stimuli_target_diamondsquares.svg	28	yes	53	1	986	0	0			0	0			1				0	
6.6.1	win	2023-07-06	17:50:13	18:00:38	612365	5d1652ba768bdf000154e37d	3	1	main_slash	7	advance_on_keypress_SLASH	158	stimuli_distractor_trianglediamonds.svg	stimuli_target_diamondsquares.svg	28	yes	57	0	585	0	0			0	0			1				0	
6.6.1	win	2023-07-06	17:50:13	18:00:41	614570	5d1652ba768bdf000154e37d	3	1	main_slash	7	main_slash	159	stimuli_target_trianglerectangles.svg	stimuli_distractor_trianglediamonds.svg	17	yes	53	1	992	0	0			0	0			1				0	
6.6.1	win	2023-07-06	17:50:13	18:00:41	614570	5d1652ba768bdf000154e37d	3	1	main_slash	7	advance_on_keypress_SLASH	160	stimuli_target_trianglerectangles.svg	stimuli_distractor_trianglediamonds.svg	17	yes	57	0	2278	0	0			0	0			1				0	
6.6.1	win	2023-07-06	17:50:13	18:01:12	646181	5d1652ba768bdf000154e37d	3	1	practice_z	9	practice_z	1	stimuli_distractor_diamondtriangles.svg	stimuli_target_rectangletriangles.svg	7	yes	44	1	970	0	0			0	0			1				0	
6.6.1	win	2023-07-06	17:50:13	18:01:12	646181	5d1652ba768bdf000154e37d	3	1	practice_z	9	advance_on_keypress_ZEE	2	stimuli_distractor_diamondtriangles.svg	stimuli_target_rectangletriangles.svg	7	yes	57	0	948	0	0			0	0			1				0	
6.6.1	win	2023-07-06	17:50:13	18:01:15	649462	5d1652ba768bdf000154e37d	3	1	practice_z	9	practice_z	3	stimuli_target_squarediamonds.svg	stimuli_distractor_trianglediamonds.svg	5	yes	44	1	691	0	0			0	0			1				0	
6.6.1	win	2023-07-06	17:50:13	18:01:15	649462	5d1652ba768bdf000154e37d	3	1	practice_z	9	advance_on_keypress_ZEE	4	stimuli_target_squarediamonds.svg	stimuli_distractor_trianglediamonds.svg	5	yes	57	0	1154	0	0			0	0			1				0	
6.6.1	win	2023-07-06	17:50:13	18:01:20	654248	5d1652ba768bdf000154e37d	3	1	practice_z	9	practice_z	5	stimuli_distractor_diamondtriangles.svg	stimuli_distractor_diamondtriangles.svg	13	no	0	1	2003	0	0			0	0			1				0	
6.6.1	win	2023-07-06	17:50:13	18:01:20	654248	5d1652ba768bdf000154e37d	3	1	practice_z	9	advance_on_keypress_ZEE	6	stimuli_distractor_diamondtriangles.svg	stimuli_distractor_diamondtriangles.svg	13	no	57	0	425	0	0			0	0			1				0	
6.6.1	win	2023-07-06	17:50:13	18:01:23	657248	5d1652ba768bdf000154e37d	3	1	practice_z	9	practice_z	7	stimuli_distractor_diamondtriangles.svg	stimuli_distractor_trianglediamonds.svg	14	no	44	0	943	0	0			0	0			1				0	
6.6.1	win	2023-07-06	17:50:13	18:01:23	657248	5d1652ba768bdf000154e37d	3	1	practice_z	9	advance_on_keypress_ZEE	8	stimuli_distractor_diamondtriangles.svg	stimuli_distractor_trianglediamonds.svg	14	no	57	0	513	0	0			0	0			1				0	
6.6.1	win	2023-07-06	17:50:13	18:01:27	661392	5d1652ba768bdf000154e37d	3	1	practice_z	9	practice_z	9	stimuli_distractor_trianglediamonds.svg	stimuli_distractor_diamondtriangles.svg	16	no	0	1	2003	0	0			0	0			1				0	
6.6.1	win	2023-07-06	17:50:13	18:01:27	661392	5d1652ba768bdf000154e37d	3	1	practice_z	9	advance_on_keypress_ZEE	10	stimuli_distractor_trianglediamonds.svg	stimuli_distractor_diamondtriangles.svg	16	no	57	0	383	0	0			0	0			1				0	
6.6.1	win	2023-07-06	17:50:13	18:01:30	664117	5d1652ba768bdf000154e37d	3	1	practice_z	9	practice_z	11	stimuli_distractor_diamondtriangles.svg	stimuli_target_trianglerectangles.svg	9	yes	44	1	712	0	0			0	0			1				0	
6.6.1	win	2023-07-06	17:50:13	18:01:30	664117	5d1652ba768bdf000154e37d	3	1	practice_z	9	advance_on_keypress_ZEE	12	stimuli_distractor_diamondtriangles.svg	stimuli_target_trianglerectangles.svg	9	yes	57	0	291	0	0			0	0			1				0	
6.6.1	win	2023-07-06	17:50:13	18:01:33	666991	5d1652ba768bdf000154e37d	3	1	practice_z	9	practice_z	13	stimuli_distractor_trianglediamonds.svg	stimuli_target_diamondrectangles.svg	12	yes	44	1	951	0	0			0	0			1				0	
6.6.1	win	2023-07-06	17:50:13	18:01:33	666991	5d1652ba768bdf000154e37d	3	1	practice_z	9	advance_on_keypress_ZEE	14	stimuli_distractor_trianglediamonds.svg	stimuli_target_diamondrectangles.svg	12	yes	57	0	305	0	0			0	0			1				0	
6.6.1	win	2023-07-06	17:50:13	18:01:36	669637	5d1652ba768bdf000154e37d	3	1	practice_z	9	practice_z	15	stimuli_target_squarediamonds.svg	stimuli_distractor_diamondtriangles.svg	2	yes	44	1	715	0	0			0	0			1				0	
6.6.1	win	2023-07-06	17:50:13	18:01:36	669637	5d1652ba768bdf000154e37d	3	1	practice_z	9	advance_on_keypress_ZEE	16	stimuli_target_squarediamonds.svg	stimuli_distractor_diamondtriangles.svg	2	yes	57	0	271	0	0			0	0			1				0	
6.6.1	win	2023-07-06	17:50:13	18:01:39	672627	5d1652ba768bdf000154e37d	3	1	practice_z	9	practice_z	17	stimuli_target_diamondsquares.svg	stimuli_distractor_trianglediamonds.svg	6	yes	44	1	1096	0	0			0	0			1				0	
6.6.1	win	2023-07-06	17:50:13	18:01:39	672627	5d1652ba768bdf000154e37d	3	1	practice_z	9	advance_on_keypress_ZEE	18	stimuli_target_diamondsquares.svg	stimuli_distractor_trianglediamonds.svg	6	yes	57	0	303	0	0			0	0			1				0	
6.6.1	win	2023-07-06	17:50:13	18:01:41	675426	5d1652ba768bdf000154e37d	3	1	practice_z	9	practice_z	19	stimuli_target_diamondsquares.svg	stimuli_distractor_diamondtriangles.svg	3	yes	44	1	865	0	0			0	0			1				0	
6.6.1	win	2023-07-06	17:50:13	18:01:41	675426	5d1652ba768bdf000154e37d	3	1	practice_z	9	advance_on_keypress_ZEE	20	stimuli_target_diamondsquares.svg	stimuli_distractor_diamondtriangles.svg	3	yes	57	0	739	0	0			0	0			1				0	
6.6.1	win	2023-07-06	17:50:13	18:01:45	678632	5d1652ba768bdf000154e37d	3	1	practice_z	9	practice_z	21	stimuli_distractor_trianglediamonds.svg	stimuli_target_squarediamonds.svg	11	yes	44	1	840	0	0			0	0			1				0	
6.6.1	win	2023-07-06	17:50:13	18:01:45	678632	5d1652ba768bdf000154e37d	3	1	practice_z	9	advance_on_keypress_ZEE	22	stimuli_distractor_trianglediamonds.svg	stimuli_target_squarediamonds.svg	11	yes	57	0	311	0	0			0	0			1				0	
6.6.1	win	2023-07-06	17:50:13	18:01:47	681476	5d1652ba768bdf000154e37d	3	1	practice_z	9	practice_z	23	stimuli_target_rectanglediamonds.svg	stimuli_distractor_diamondtriangles.svg	1	yes	44	1	905	0	0			0	0			1				0	
6.6.1	win	2023-07-06	17:50:13	18:01:47	681476	5d1652ba768bdf000154e37d	3	1	practice_z	9	advance_on_keypress_ZEE	24	stimuli_target_rectanglediamonds.svg	stimuli_distractor_diamondtriangles.svg	1	yes	57	0	377	0	0			0	0			1				0	
6.6.1	win	2023-07-06	17:50:13	18:01:50	684084	5d1652ba768bdf000154e37d	3	1	practice_z	9	practice_z	25	stimuli_target_rectanglediamonds.svg	stimuli_distractor_trianglediamonds.svg	4	yes	44	1	596	0	0			0	0			1				0	
6.6.1	win	2023-07-06	17:50:13	18:01:50	684084	5d1652ba768bdf000154e37d	3	1	practice_z	9	advance_on_keypress_ZEE	26	stimuli_target_rectanglediamonds.svg	stimuli_distractor_trianglediamonds.svg	4	yes	57	0	471	0	0			0	0			1				0	
6.6.1	win	2023-07-06	17:50:13	18:01:53	686791	5d1652ba768bdf000154e37d	3	1	practice_z	9	practice_z	27	stimuli_distractor_trianglediamonds.svg	stimuli_target_rectanglediamonds.svg	10	yes	44	1	606	0	0			0	0			1				0	
6.6.1	win	2023-07-06	17:50:13	18:01:53	686791	5d1652ba768bdf000154e37d	3	1	practice_z	9	advance_on_keypress_ZEE	28	stimuli_distractor_trianglediamonds.svg	stimuli_target_rectanglediamonds.svg	10	yes	57	0	613	0	0			0	0			1				0	
6.6.1	win	2023-07-06	17:50:13	18:01:57	691041	5d1652ba768bdf000154e37d	3	1	practice_z	9	practice_z	29	stimuli_distractor_trianglediamonds.svg	stimuli_distractor_trianglediamonds.svg	15	no	0	1	2003	0	0			0	0			1				0	
6.6.1	win	2023-07-06	17:50:13	18:01:57	691041	5d1652ba768bdf000154e37d	3	1	practice_z	9	advance_on_keypress_ZEE	30	stimuli_distractor_trianglediamonds.svg	stimuli_distractor_trianglediamonds.svg	15	no	57	0	496	0	0			0	0			1				0	
6.6.1	win	2023-07-06	17:50:13	18:02:00	693948	5d1652ba768bdf000154e37d	3	1	practice_z	9	practice_z	31	stimuli_distractor_diamondtriangles.svg	stimuli_target_diamondrectangles.svg	8	yes	44	1	779	0	0			0	0			1				0	
6.6.1	win	2023-07-06	17:50:13	18:02:00	693948	5d1652ba768bdf000154e37d	3	1	practice_z	9	advance_on_keypress_ZEE	32	stimuli_distractor_diamondtriangles.svg	stimuli_target_diamondrectangles.svg	8	yes	57	0	246	0	0			0	0			1				0	
6.6.1	win	2023-07-06	17:50:13	18:02:05	699152	5d1652ba768bdf000154e37d	3	1	main_z	11	main_z	1	stimuli_target_diamondrectangles.svg	stimuli_distractor_trianglediamonds.svg	19	yes	44	1	706	0	0			0	0			1				0	
6.6.1	win	2023-07-06	17:50:13	18:02:05	699152	5d1652ba768bdf000154e37d	3	1	main_z	11	advance_on_keypress_ZEE	2	stimuli_target_diamondrectangles.svg	stimuli_distractor_trianglediamonds.svg	19	yes	57	0	904	0	0			0	0			1				0	
6.6.1	win	2023-07-06	17:50:13	18:02:07	701315	5d1652ba768bdf000154e37d	3	1	main_z	11	main_z	3	stimuli_distractor_trianglediamonds.svg	stimuli_target_squarediamonds.svg	12	yes	44	1	626	0	0			0	0			1				0	
6.6.1	win	2023-07-06	17:50:13	18:02:07	701315	5d1652ba768bdf000154e37d	3	1	main_z	11	advance_on_keypress_ZEE	4	stimuli_distractor_trianglediamonds.svg	stimuli_target_squarediamonds.svg	12	yes	57	0	864	0	0			0	0			1				0	
6.6.1	win	2023-07-06	17:50:13	18:02:09	703490	5d1652ba768bdf000154e37d	3	1	main_z	11	main_z	5	stimuli_distractor_diamondtriangles.svg	stimuli_target_rectangletriangles.svg	13	yes	44	1	686	0	0			0	0			1				0	
6.6.1	win	2023-07-06	17:50:13	18:02:09	703490	5d1652ba768bdf000154e37d	3	1	main_z	11	advance_on_keypress_ZEE	6	stimuli_distractor_diamondtriangles.svg	stimuli_target_rectangletriangles.svg	13	yes	57	0	4435	0	0			0	0			1				0	
6.6.1	win	2023-07-06	17:50:13	18:02:15	709223	5d1652ba768bdf000154e37d	3	1	main_z	11	main_z	7	stimuli_target_diamondrectangles.svg	stimuli_distractor_diamondtriangles.svg	23	yes	44	1	676	0	0			0	0			1				0	
6.6.1	win	2023-07-06	17:50:13	18:02:15	709223	5d1652ba768bdf000154e37d	3	1	main_z	11	advance_on_keypress_ZEE	8	stimuli_target_diamondrectangles.svg	stimuli_distractor_diamondtriangles.svg	23	yes	57	0	788	0	0			0	0			1				0	
6.6.1	win	2023-07-06	17:50:13	18:02:19	712640	5d1652ba768bdf000154e37d	3	1	main_z	11	main_z	9	stimuli_distractor_trianglediamonds.svg	stimuli_distractor_diamondtriangles.svg	35	no	0	1	2003	0	0			0	0			1				0	
6.6.1	win	2023-07-06	17:50:13	18:02:19	712640	5d1652ba768bdf000154e37d	3	1	main_z	11	advance_on_keypress_ZEE	10	stimuli_distractor_trianglediamonds.svg	stimuli_distractor_diamondtriangles.svg	35	no	57	0	760	0	0			0	0			1				0	
6.6.1	win	2023-07-06	17:50:13	18:02:21	715097	5d1652ba768bdf000154e37d	3	1	main_z	11	main_z	11	stimuli_distractor_diamondtriangles.svg	stimuli_target_trianglerectangles.svg	29	yes	44	1	1071	0	0			0	0			1				0	
6.6.1	win	2023-07-06	17:50:13	18:02:21	715097	5d1652ba768bdf000154e37d	3	1	main_z	11	advance_on_keypress_ZEE	12	stimuli_distractor_diamondtriangles.svg	stimuli_target_trianglerectangles.svg	29	yes	57	0	631	0	0			0	0			1				0	
6.6.1	win	2023-07-06	17:50:13	18:02:24	718352	5d1652ba768bdf000154e37d	3	1	main_z	11	main_z	13	stimuli_distractor_diamondtriangles.svg	stimuli_distractor_trianglediamonds.svg	38	no	0	1	2003	0	0			0	0			1				0	
6.6.1	win	2023-07-06	17:50:13	18:02:24	718352	5d1652ba768bdf000154e37d	3	1	main_z	11	advance_on_keypress_ZEE	14	stimuli_distractor_diamondtriangles.svg	stimuli_distractor_trianglediamonds.svg	38	no	57	0	1853	0	0			0	0			1				0	
6.6.1	win	2023-07-06	17:50:13	18:02:29	722832	5d1652ba768bdf000154e37d	3	1	main_z	11	main_z	15	stimuli_distractor_trianglediamonds.svg	stimuli_distractor_trianglediamonds.svg	33	no	0	1	2003	0	0			0	0			1				0	
6.6.1	win	2023-07-06	17:50:13	18:02:29	722832	5d1652ba768bdf000154e37d	3	1	main_z	11	advance_on_keypress_ZEE	16	stimuli_distractor_trianglediamonds.svg	stimuli_distractor_trianglediamonds.svg	33	no	57	0	491	0	0			0	0			1				0	
6.6.1	win	2023-07-06	17:50:13	18:02:31	724893	5d1652ba768bdf000154e37d	3	1	main_z	11	main_z	17	stimuli_distractor_trianglediamonds.svg	stimuli_target_rectanglediamonds.svg	10	yes	44	1	948	0	0			0	0			1				0	
6.6.1	win	2023-07-06	17:50:13	18:02:31	724893	5d1652ba768bdf000154e37d	3	1	main_z	11	advance_on_keypress_ZEE	18	stimuli_distractor_trianglediamonds.svg	stimuli_target_rectanglediamonds.svg	10	yes	57	0	836	0	0			0	0			1				0	
6.6.1	win	2023-07-06	17:50:13	18:02:34	728037	5d1652ba768bdf000154e37d	3	1	main_z	11	main_z	19	stimuli_distractor_trianglediamonds.svg	stimuli_distractor_trianglediamonds.svg	34	no	44	0	1686	0	0			0	0			1				0	
6.6.1	win	2023-07-06	17:50:13	18:02:34	728037	5d1652ba768bdf000154e37d	3	1	main_z	11	advance_on_keypress_ZEE	20	stimuli_distractor_trianglediamonds.svg	stimuli_distractor_trianglediamonds.svg	34	no	57	0	554	0	0			0	0			1				0	
6.6.1	win	2023-07-06	17:50:13	18:02:36	730100	5d1652ba768bdf000154e37d	3	1	main_z	11	main_z	21	stimuli_target_squaretriangles.svg	stimuli_distractor_trianglediamonds.svg	3	yes	44	1	890	0	0			0	0			1				0	
6.6.1	win	2023-07-06	17:50:13	18:02:36	730100	5d1652ba768bdf000154e37d	3	1	main_z	11	advance_on_keypress_ZEE	22	stimuli_target_squaretriangles.svg	stimuli_distractor_trianglediamonds.svg	3	yes	57	0	624	0	0			0	0			1				0	
6.6.1	win	2023-07-06	17:50:13	18:02:38	732245	5d1652ba768bdf000154e37d	3	1	main_z	11	main_z	23	stimuli_target_trianglesquares.svg	stimuli_distractor_trianglediamonds.svg	18	yes	44	1	896	0	0			0	0			1				0	
6.6.1	win	2023-07-06	17:50:13	18:02:38	732245	5d1652ba768bdf000154e37d	3	1	main_z	11	advance_on_keypress_ZEE	24	stimuli_target_trianglesquares.svg	stimuli_distractor_trianglediamonds.svg	18	yes	57	0	831	0	0			0	0			1				0	
6.6.1	win	2023-07-06	17:50:13	18:02:41	734640	5d1652ba768bdf000154e37d	3	1	main_z	11	main_z	25	stimuli_target_trianglesquares.svg	stimuli_distractor_diamondtriangles.svg	22	yes	44	1	937	0	0			0	0			1				0	
6.6.1	win	2023-07-06	17:50:13	18:02:41	734640	5d1652ba768bdf000154e37d	3	1	main_z	11	advance_on_keypress_ZEE	26	stimuli_target_trianglesquares.svg	stimuli_distractor_diamondtriangles.svg	22	yes	57	0	841	0	0			0	0			1				0	
6.6.1	win	2023-07-06	17:50:13	18:02:43	737298	5d1652ba768bdf000154e37d	3	1	main_z	11	main_z	27	stimuli_distractor_diamondtriangles.svg	stimuli_target_diamondrectangles.svg	31	yes	44	1	1194	0	0			0	0			1				0	
6.6.1	win	2023-07-06	17:50:13	18:02:43	737298	5d1652ba768bdf000154e37d	3	1	main_z	11	advance_on_keypress_ZEE	28	stimuli_distractor_diamondtriangles.svg	stimuli_target_diamondrectangles.svg	31	yes	57	0	505	0	0			0	0			1				0	
6.6.1	win	2023-07-06	17:50:13	18:02:46	739907	5d1652ba768bdf000154e37d	3	1	main_z	11	main_z	29	stimuli_distractor_diamondtriangles.svg	stimuli_target_squaretriangles.svg	15	yes	44	1	1480	0	0			0	0			1				0	
6.6.1	win	2023-07-06	17:50:13	18:02:46	739907	5d1652ba768bdf000154e37d	3	1	main_z	11	advance_on_keypress_ZEE	30	stimuli_distractor_diamondtriangles.svg	stimuli_target_squaretriangles.svg	15	yes	57	0	398	0	0			0	0			1				0	
6.6.1	win	2023-07-06	17:50:13	18:02:48	741910	5d1652ba768bdf000154e37d	3	1	main_z	11	main_z	31	stimuli_distractor_trianglediamonds.svg	stimuli_target_trianglerectangles.svg	25	yes	44	1	976	0	0			0	0			1				0	
6.6.1	win	2023-07-06	17:50:13	18:02:48	741910	5d1652ba768bdf000154e37d	3	1	main_z	11	advance_on_keypress_ZEE	32	stimuli_distractor_trianglediamonds.svg	stimuli_target_trianglerectangles.svg	25	yes	57	0	524	0	0			0	0			1				0	
6.6.1	win	2023-07-06	17:50:13	18:02:50	744307	5d1652ba768bdf000154e37d	3	1	main_z	11	main_z	33	stimuli_distractor_trianglediamonds.svg	stimuli_distractor_diamondtriangles.svg	36	no	44	0	1254	0	0			0	0			1				0	
6.6.1	win	2023-07-06	17:50:13	18:02:50	744307	5d1652ba768bdf000154e37d	3	1	main_z	11	advance_on_keypress_ZEE	34	stimuli_distractor_trianglediamonds.svg	stimuli_distractor_diamondtriangles.svg	36	no	57	0	423	0	0			0	0			1				0	
6.6.1	win	2023-07-06	17:50:13	18:02:52	746223	5d1652ba768bdf000154e37d	3	1	main_z	11	main_z	35	stimuli_target_rectanglediamonds.svg	stimuli_distractor_diamondtriangles.svg	6	yes	44	1	871	0	0			0	0			1				0	
6.6.1	win	2023-07-06	17:50:13	18:02:52	746223	5d1652ba768bdf000154e37d	3	1	main_z	11	advance_on_keypress_ZEE	36	stimuli_target_rectanglediamonds.svg	stimuli_distractor_diamondtriangles.svg	6	yes	57	0	516	0	0			0	0			1				0	
6.6.1	win	2023-07-06	17:50:13	18:02:54	748455	5d1652ba768bdf000154e37d	3	1	main_z	11	main_z	37	stimuli_distractor_trianglediamonds.svg	stimuli_target_diamondsquares.svg	28	yes	44	1	1093	0	0			0	0			1				0	
6.6.1	win	2023-07-06	17:50:13	18:02:54	748455	5d1652ba768bdf000154e37d	3	1	main_z	11	advance_on_keypress_ZEE	38	stimuli_distractor_trianglediamonds.svg	stimuli_target_diamondsquares.svg	28	yes	57	0	644	0	0			0	0			1				0	
6.6.1	win	2023-07-06	17:50:13	18:02:57	750813	5d1652ba768bdf000154e37d	3	1	main_z	11	main_z	39	stimuli_distractor_diamondtriangles.svg	stimuli_distractor_diamondtriangles.svg	40	no	44	0	1091	0	0			0	0			1				0	
6.6.1	win	2023-07-06	17:50:13	18:02:57	750813	5d1652ba768bdf000154e37d	3	1	main_z	11	advance_on_keypress_ZEE	40	stimuli_distractor_diamondtriangles.svg	stimuli_distractor_diamondtriangles.svg	40	no	57	0	556	0	0			0	0			1				0	
6.6.1	win	2023-07-06	17:50:13	18:02:59	753147	5d1652ba768bdf000154e37d	3	1	main_z	11	main_z	41	stimuli_distractor_trianglediamonds.svg	stimuli_target_diamondrectangles.svg	27	yes	44	1	1150	0	0			0	0			1				0	
6.6.1	win	2023-07-06	17:50:13	18:02:59	753147	5d1652ba768bdf000154e37d	3	1	main_z	11	advance_on_keypress_ZEE	42	stimuli_distractor_trianglediamonds.svg	stimuli_target_diamondrectangles.svg	27	yes	57	0	456	0	0			0	0			1				0	
6.6.1	win	2023-07-06	17:50:13	18:03:01	755068	5d1652ba768bdf000154e37d	3	1	main_z	11	main_z	43	stimuli_target_squaretriangles.svg	stimuli_distractor_diamondtriangles.svg	7	yes	44	1	839	0	0			0	0			1				0	
6.6.1	win	2023-07-06	17:50:13	18:03:01	755068	5d1652ba768bdf000154e37d	3	1	main_z	11	advance_on_keypress_ZEE	44	stimuli_target_squaretriangles.svg	stimuli_distractor_diamondtriangles.svg	7	yes	57	0	522	0	0			0	0			1				0	
6.6.1	win	2023-07-06	17:50:13	18:03:03	756861	5d1652ba768bdf000154e37d	3	1	main_z	11	main_z	45	stimuli_distractor_trianglediamonds.svg	stimuli_target_squaretriangles.svg	11	yes	44	1	648	0	0			0	0			1				0	
6.6.1	win	2023-07-06	17:50:13	18:03:03	756861	5d1652ba768bdf000154e37d	3	1	main_z	11	advance_on_keypress_ZEE	46	stimuli_distractor_trianglediamonds.svg	stimuli_target_squaretriangles.svg	11	yes	57	0	466	0	0			0	0			1				0	
6.6.1	win	2023-07-06	17:50:13	18:03:04	758434	5d1652ba768bdf000154e37d	3	1	main_z	11	main_z	47	stimuli_distractor_diamondtriangles.svg	stimuli_target_rectanglediamonds.svg	14	yes	44	1	484	0	0			0	0			1				0	
6.6.1	win	2023-07-06	17:50:13	18:03:04	758434	5d1652ba768bdf000154e37d	3	1	main_z	11	advance_on_keypress_ZEE	48	stimuli_distractor_diamondtriangles.svg	stimuli_target_rectanglediamonds.svg	14	yes	57	0	460	0	0			0	0			1				0	
6.6.1	win	2023-07-06	17:50:13	18:03:07	761520	5d1652ba768bdf000154e37d	3	1	main_z	11	main_z	49	stimuli_distractor_diamondtriangles.svg	stimuli_distractor_trianglediamonds.svg	37	no	0	1	2003	0	0			0	0			1				0	
6.6.1	win	2023-07-06	17:50:13	18:03:07	761520	5d1652ba768bdf000154e37d	3	1	main_z	11	advance_on_keypress_ZEE	50	stimuli_distractor_diamondtriangles.svg	stimuli_distractor_trianglediamonds.svg	37	no	57	0	971	0	0			0	0			1				0	
6.6.1	win	2023-07-06	17:50:13	18:03:10	763825	5d1652ba768bdf000154e37d	3	1	main_z	11	main_z	51	stimuli_target_rectangletriangles.svg	stimuli_distractor_diamondtriangles.svg	5	yes	44	1	711	0	0			0	0			1				0	
6.6.1	win	2023-07-06	17:50:13	18:03:10	763825	5d1652ba768bdf000154e37d	3	1	main_z	11	advance_on_keypress_ZEE	52	stimuli_target_rectangletriangles.svg	stimuli_distractor_diamondtriangles.svg	5	yes	57	0	894	0	0			0	0			1				0	
6.6.1	win	2023-07-06	17:50:13	18:03:12	766108	5d1652ba768bdf000154e37d	3	1	main_z	11	main_z	53	stimuli_target_squarediamonds.svg	stimuli_distractor_trianglediamonds.svg	4	yes	44	1	770	0	0			0	0			1				0	
6.6.1	win	2023-07-06	17:50:13	18:03:12	766108	5d1652ba768bdf000154e37d	3	1	main_z	11	advance_on_keypress_ZEE	54	stimuli_target_squarediamonds.svg	stimuli_distractor_trianglediamonds.svg	4	yes	57	0	599	0	0			0	0			1				0	
6.6.1	win	2023-07-06	17:50:13	18:03:15	769335	5d1652ba768bdf000154e37d	3	1	main_z	11	main_z	55	stimuli_target_trianglerectangles.svg	stimuli_distractor_trianglediamonds.svg	17	yes	0	0	2003	0	0			0	0			1				0	
6.6.1	win	2023-07-06	17:50:13	18:03:15	769335	5d1652ba768bdf000154e37d	3	1	main_z	11	advance_on_keypress_ZEE	56	stimuli_target_trianglerectangles.svg	stimuli_distractor_trianglediamonds.svg	17	yes	57	0	1805	0	0			0	0			1				0	
6.6.1	win	2023-07-06	17:50:13	18:03:20	773766	5d1652ba768bdf000154e37d	3	1	main_z	11	main_z	57	stimuli_distractor_diamondtriangles.svg	stimuli_distractor_diamondtriangles.svg	39	no	0	1	2003	0	0			0	0			1				0	
6.6.1	win	2023-07-06	17:50:13	18:03:20	773766	5d1652ba768bdf000154e37d	3	1	main_z	11	advance_on_keypress_ZEE	58	stimuli_distractor_diamondtriangles.svg	stimuli_distractor_diamondtriangles.svg	39	no	57	0	634	0	0			0	0			1				0	
6.6.1	win	2023-07-06	17:50:13	18:03:22	776085	5d1652ba768bdf000154e37d	3	1	main_z	11	main_z	59	stimuli_distractor_diamondtriangles.svg	stimuli_target_trianglesquares.svg	30	yes	44	1	1061	0	0			0	0			1				0	
6.6.1	win	2023-07-06	17:50:13	18:03:22	776085	5d1652ba768bdf000154e37d	3	1	main_z	11	advance_on_keypress_ZEE	60	stimuli_distractor_diamondtriangles.svg	stimuli_target_trianglesquares.svg	30	yes	57	0	501	0	0			0	0			1				0	
6.6.1	win	2023-07-06	17:50:13	18:03:24	777922	5d1652ba768bdf000154e37d	3	1	main_z	11	main_z	61	stimuli_target_rectanglediamonds.svg	stimuli_distractor_trianglediamonds.svg	2	yes	44	1	710	0	0			0	0			1				0	
6.6.1	win	2023-07-06	17:50:13	18:03:24	777922	5d1652ba768bdf000154e37d	3	1	main_z	11	advance_on_keypress_ZEE	62	stimuli_target_rectanglediamonds.svg	stimuli_distractor_trianglediamonds.svg	2	yes	57	0	488	0	0			0	0			1				0	
6.6.1	win	2023-07-06	17:50:13	18:03:26	780053	5d1652ba768bdf000154e37d	3	1	main_z	11	main_z	63	stimuli_distractor_diamondtriangles.svg	stimuli_target_diamondsquares.svg	32	yes	44	1	1019	0	0			0	0			1				0	
6.6.1	win	2023-07-06	17:50:13	18:03:26	780053	5d1652ba768bdf000154e37d	3	1	main_z	11	advance_on_keypress_ZEE	64	stimuli_distractor_diamondtriangles.svg	stimuli_target_diamondsquares.svg	32	yes	57	0	361	0	0			0	0			1				0	
6.6.1	win	2023-07-06	17:50:13	18:03:28	781974	5d1652ba768bdf000154e37d	3	1	main_z	11	main_z	65	stimuli_target_trianglerectangles.svg	stimuli_distractor_diamondtriangles.svg	21	yes	44	1	934	0	0			0	0			1				0	
6.6.1	win	2023-07-06	17:50:13	18:03:28	781974	5d1652ba768bdf000154e37d	3	1	main_z	11	advance_on_keypress_ZEE	66	stimuli_target_trianglerectangles.svg	stimuli_distractor_diamondtriangles.svg	21	yes	57	0	521	0	0			0	0			1				0	
6.6.1	win	2023-07-06	17:50:13	18:03:30	783832	5d1652ba768bdf000154e37d	3	1	main_z	11	main_z	67	stimuli_distractor_trianglediamonds.svg	stimuli_target_trianglesquares.svg	26	yes	44	1	714	0	0			0	0			1				0	
6.6.1	win	2023-07-06	17:50:13	18:03:30	783832	5d1652ba768bdf000154e37d	3	1	main_z	11	advance_on_keypress_ZEE	68	stimuli_distractor_trianglediamonds.svg	stimuli_target_trianglesquares.svg	26	yes	57	0	490	0	0			0	0			1				0	
6.6.1	win	2023-07-06	17:50:13	18:03:31	785545	5d1652ba768bdf000154e37d	3	1	main_z	11	main_z	69	stimuli_distractor_diamondtriangles.svg	stimuli_target_squarediamonds.svg	16	yes	44	1	598	0	0			0	0			1				0	
6.6.1	win	2023-07-06	17:50:13	18:03:31	785545	5d1652ba768bdf000154e37d	3	1	main_z	11	advance_on_keypress_ZEE	70	stimuli_distractor_diamondtriangles.svg	stimuli_target_squarediamonds.svg	16	yes	57	0	402	0	0			0	0			1				0	
6.6.1	win	2023-07-06	17:50:13	18:03:33	787103	5d1652ba768bdf000154e37d	3	1	main_z	11	main_z	71	stimuli_distractor_trianglediamonds.svg	stimuli_target_rectangletriangles.svg	9	yes	44	1	519	0	0			0	0			1				0	
6.6.1	win	2023-07-06	17:50:13	18:03:33	787103	5d1652ba768bdf000154e37d	3	1	main_z	11	advance_on_keypress_ZEE	72	stimuli_distractor_trianglediamonds.svg	stimuli_target_rectangletriangles.svg	9	yes	57	0	284	0	0			0	0			1				0	
6.6.1	win	2023-07-06	17:50:13	18:03:34	788381	5d1652ba768bdf000154e37d	3	1	main_z	11	main_z	73	stimuli_target_squarediamonds.svg	stimuli_distractor_diamondtriangles.svg	8	yes	44	1	374	0	0			0	0			1				0	
6.6.1	win	2023-07-06	17:50:13	18:03:34	788381	5d1652ba768bdf000154e37d	3	1	main_z	11	advance_on_keypress_ZEE	74	stimuli_target_squarediamonds.svg	stimuli_distractor_diamondtriangles.svg	8	yes	57	0	310	0	0			0	0			1				0	
6.6.1	win	2023-07-06	17:50:13	18:03:36	789862	5d1652ba768bdf000154e37d	3	1	main_z	11	main_z	75	stimuli_target_diamondsquares.svg	stimuli_distractor_trianglediamonds.svg	20	yes	44	1	550	0	0			0	0			1				0	
6.6.1	win	2023-07-06	17:50:13	18:03:36	789862	5d1652ba768bdf000154e37d	3	1	main_z	11	advance_on_keypress_ZEE	76	stimuli_target_diamondsquares.svg	stimuli_distractor_trianglediamonds.svg	20	yes	57	0	467	0	0			0	0			1				0	
6.6.1	win	2023-07-06	17:50:13	18:03:37	791385	5d1652ba768bdf000154e37d	3	1	main_z	11	main_z	77	stimuli_target_diamondsquares.svg	stimuli_distractor_diamondtriangles.svg	24	yes	44	1	433	0	0			0	0			1				0	
6.6.1	win	2023-07-06	17:50:13	18:03:37	791385	5d1652ba768bdf000154e37d	3	1	main_z	11	advance_on_keypress_ZEE	78	stimuli_target_diamondsquares.svg	stimuli_distractor_diamondtriangles.svg	24	yes	57	0	354	0	0			0	0			1				0	
6.6.1	win	2023-07-06	17:50:13	18:03:39	792897	5d1652ba768bdf000154e37d	3	1	main_z	11	main_z	79	stimuli_target_rectangletriangles.svg	stimuli_distractor_trianglediamonds.svg	1	yes	44	1	529	0	0			0	0			1				0	
6.6.1	win	2023-07-06	17:50:13	18:03:39	792897	5d1652ba768bdf000154e37d	3	1	main_z	11	advance_on_keypress_ZEE	80	stimuli_target_rectangletriangles.svg	stimuli_distractor_trianglediamonds.svg	1	yes	57	0	447	0	0			0	0			1				0	
6.6.1	win	2023-07-06	17:50:13	18:03:42	795972	5d1652ba768bdf000154e37d	3	1	main_z	11	main_z	81	stimuli_distractor_diamondtriangles.svg	stimuli_distractor_diamondtriangles.svg	40	no	0	1	2003	0	0			0	0			1				0	
6.6.1	win	2023-07-06	17:50:13	18:03:42	795972	5d1652ba768bdf000154e37d	3	1	main_z	11	advance_on_keypress_ZEE	82	stimuli_distractor_diamondtriangles.svg	stimuli_distractor_diamondtriangles.svg	40	no	57	0	372	0	0			0	0			1				0	
6.6.1	win	2023-07-06	17:50:13	18:03:44	797694	5d1652ba768bdf000154e37d	3	1	main_z	11	main_z	83	stimuli_target_squarediamonds.svg	stimuli_distractor_diamondtriangles.svg	8	yes	44	1	721	0	0			0	0			1				0	
6.6.1	win	2023-07-06	17:50:13	18:03:44	797694	5d1652ba768bdf000154e37d	3	1	main_z	11	advance_on_keypress_ZEE	84	stimuli_target_squarediamonds.svg	stimuli_distractor_diamondtriangles.svg	8	yes	57	0	533	0	0			0	0			1				0	
6.6.1	win	2023-07-06	17:50:13	18:03:46	799689	5d1652ba768bdf000154e37d	3	1	main_z	11	main_z	85	stimuli_target_trianglerectangles.svg	stimuli_distractor_diamondtriangles.svg	21	yes	44	1	837	0	0			0	0			1				0	
6.6.1	win	2023-07-06	17:50:13	18:03:46	799689	5d1652ba768bdf000154e37d	3	1	main_z	11	advance_on_keypress_ZEE	86	stimuli_target_trianglerectangles.svg	stimuli_distractor_diamondtriangles.svg	21	yes	57	0	411	0	0			0	0			1				0	
6.6.1	win	2023-07-06	17:50:13	18:03:47	801366	5d1652ba768bdf000154e37d	3	1	main_z	11	main_z	87	stimuli_distractor_diamondtriangles.svg	stimuli_target_trianglerectangles.svg	29	yes	44	1	644	0	0			0	0			1				0	
6.6.1	win	2023-07-06	17:50:13	18:03:47	801366	5d1652ba768bdf000154e37d	3	1	main_z	11	advance_on_keypress_ZEE	88	stimuli_distractor_diamondtriangles.svg	stimuli_target_trianglerectangles.svg	29	yes	57	0	361	0	0			0	0			1				0	
6.6.1	win	2023-07-06	17:50:13	18:03:50	804353	5d1652ba768bdf000154e37d	3	1	main_z	11	main_z	89	stimuli_distractor_trianglediamonds.svg	stimuli_distractor_trianglediamonds.svg	33	no	0	1	2003	0	0			0	0			1				0	
6.6.1	win	2023-07-06	17:50:13	18:03:50	804353	5d1652ba768bdf000154e37d	3	1	main_z	11	advance_on_keypress_ZEE	90	stimuli_distractor_trianglediamonds.svg	stimuli_distractor_trianglediamonds.svg	33	no	57	0	703	0	0			0	0			1				0	
6.6.1	win	2023-07-06	17:50:13	18:03:53	806621	5d1652ba768bdf000154e37d	3	1	main_z	11	main_z	91	stimuli_target_rectangletriangles.svg	stimuli_distractor_trianglediamonds.svg	1	yes	44	1	942	0	0			0	0			1				0	
6.6.1	win	2023-07-06	17:50:13	18:03:53	806621	5d1652ba768bdf000154e37d	3	1	main_z	11	advance_on_keypress_ZEE	92	stimuli_target_rectangletriangles.svg	stimuli_distractor_trianglediamonds.svg	1	yes	57	0	427	0	0			0	0			1				0	
6.6.1	win	2023-07-06	17:50:13	18:03:54	808312	5d1652ba768bdf000154e37d	3	1	main_z	11	main_z	93	stimuli_target_trianglerectangles.svg	stimuli_distractor_trianglediamonds.svg	17	yes	44	1	641	0	0			0	0			1				0	
6.6.1	win	2023-07-06	17:50:13	18:03:54	808312	5d1652ba768bdf000154e37d	3	1	main_z	11	advance_on_keypress_ZEE	94	stimuli_target_trianglerectangles.svg	stimuli_distractor_trianglediamonds.svg	17	yes	57	0	376	0	0			0	0			1				0	
6.6.1	win	2023-07-06	17:50:13	18:03:56	810024	5d1652ba768bdf000154e37d	3	1	main_z	11	main_z	95	stimuli_distractor_diamondtriangles.svg	stimuli_target_diamondsquares.svg	32	yes	44	1	713	0	0			0	0			1				0	
6.6.1	win	2023-07-06	17:50:13	18:03:56	810024	5d1652ba768bdf000154e37d	3	1	main_z	11	advance_on_keypress_ZEE	96	stimuli_distractor_diamondtriangles.svg	stimuli_target_diamondsquares.svg	32	yes	57	0	469	0	0			0	0			1				0	
6.6.1	win	2023-07-06	17:50:13	18:03:58	811808	5d1652ba768bdf000154e37d	3	1	main_z	11	main_z	97	stimuli_distractor_diamondtriangles.svg	stimuli_target_rectanglediamonds.svg	14	yes	44	1	692	0	0			0	0			1				0	
6.6.1	win	2023-07-06	17:50:13	18:03:58	811808	5d1652ba768bdf000154e37d	3	1	main_z	11	advance_on_keypress_ZEE	98	stimuli_distractor_diamondtriangles.svg	stimuli_target_rectanglediamonds.svg	14	yes	57	0	419	0	0			0	0			1				0	
6.6.1	win	2023-07-06	17:50:13	18:03:59	813405	5d1652ba768bdf000154e37d	3	1	main_z	11	main_z	99	stimuli_target_trianglesquares.svg	stimuli_distractor_trianglediamonds.svg	18	yes	44	1	558	0	0			0	0			1				0	
6.6.1	win	2023-07-06	17:50:13	18:03:59	813405	5d1652ba768bdf000154e37d	3	1	main_z	11	advance_on_keypress_ZEE	100	stimuli_target_trianglesquares.svg	stimuli_distractor_trianglediamonds.svg	18	yes	57	0	411	0	0			0	0			1				0	
6.6.1	win	2023-07-06	17:50:13	18:04:01	815036	5d1652ba768bdf000154e37d	3	1	main_z	11	main_z	101	stimuli_target_diamondrectangles.svg	stimuli_distractor_diamondtriangles.svg	23	yes	44	1	599	0	0			0	0			1				0	
6.6.1	win	2023-07-06	17:50:13	18:04:01	815036	5d1652ba768bdf000154e37d	3	1	main_z	11	advance_on_keypress_ZEE	102	stimuli_target_diamondrectangles.svg	stimuli_distractor_diamondtriangles.svg	23	yes	57	0	340	0	0			0	0			1				0	
6.6.1	win	2023-07-06	17:50:13	18:04:03	816882	5d1652ba768bdf000154e37d	3	1	main_z	11	main_z	103	stimuli_target_rectangletriangles.svg	stimuli_distractor_diamondtriangles.svg	5	yes	44	1	884	0	0			0	0			1				0	
6.6.1	win	2023-07-06	17:50:13	18:04:03	816882	5d1652ba768bdf000154e37d	3	1	main_z	11	advance_on_keypress_ZEE	104	stimuli_target_rectangletriangles.svg	stimuli_distractor_diamondtriangles.svg	5	yes	57	0	402	0	0			0	0			1				0	
6.6.1	win	2023-07-06	17:50:13	18:04:05	819365	5d1652ba768bdf000154e37d	3	1	main_z	11	main_z	105	stimuli_distractor_trianglediamonds.svg	stimuli_distractor_diamondtriangles.svg	35	no	44	0	1454	0	0			0	0			1				0	
6.6.1	win	2023-07-06	17:50:13	18:04:05	819365	5d1652ba768bdf000154e37d	3	1	main_z	11	advance_on_keypress_ZEE	106	stimuli_distractor_trianglediamonds.svg	stimuli_distractor_diamondtriangles.svg	35	no	57	0	238	0	0			0	0			1				0	
6.6.1	win	2023-07-06	17:50:13	18:04:07	821088	5d1652ba768bdf000154e37d	3	1	main_z	11	main_z	107	stimuli_distractor_trianglediamonds.svg	stimuli_target_squarediamonds.svg	12	yes	44	1	860	0	0			0	0			1				0	
6.6.1	win	2023-07-06	17:50:13	18:04:07	821088	5d1652ba768bdf000154e37d	3	1	main_z	11	advance_on_keypress_ZEE	108	stimuli_distractor_trianglediamonds.svg	stimuli_target_squarediamonds.svg	12	yes	57	0	1276	0	0			0	0			1				0	
6.6.1	win	2023-07-06	17:50:13	18:04:11	824993	5d1652ba768bdf000154e37d	3	1	main_z	11	main_z	109	stimuli_distractor_diamondtriangles.svg	stimuli_distractor_diamondtriangles.svg	39	no	0	1	2003	0	0			0	0			1				0	
6.6.1	win	2023-07-06	17:50:13	18:04:11	824993	5d1652ba768bdf000154e37d	3	1	main_z	11	advance_on_keypress_ZEE	110	stimuli_distractor_diamondtriangles.svg	stimuli_distractor_diamondtriangles.svg	39	no	57	0	329	0	0			0	0			1				0	
6.6.1	win	2023-07-06	17:50:13	18:04:13	826576	5d1652ba768bdf000154e37d	3	1	main_z	11	main_z	111	stimuli_target_squarediamonds.svg	stimuli_distractor_trianglediamonds.svg	4	yes	44	1	631	0	0			0	0			1				0	
6.6.1	win	2023-07-06	17:50:13	18:04:13	826576	5d1652ba768bdf000154e37d	3	1	main_z	11	advance_on_keypress_ZEE	112	stimuli_target_squarediamonds.svg	stimuli_distractor_trianglediamonds.svg	4	yes	57	0	469	0	0			0	0			1				0	
6.6.1	win	2023-07-06	17:50:13	18:04:16	829674	5d1652ba768bdf000154e37d	3	1	main_z	11	main_z	113	stimuli_target_trianglesquares.svg	stimuli_distractor_diamondtriangles.svg	22	yes	0	0	2003	0	0			0	0			1				0	
6.6.1	win	2023-07-06	17:50:13	18:04:16	829674	5d1652ba768bdf000154e37d	3	1	main_z	11	advance_on_keypress_ZEE	114	stimuli_target_trianglesquares.svg	stimuli_distractor_diamondtriangles.svg	22	yes	57	0	928	0	0			0	0			1				0	
6.6.1	win	2023-07-06	17:50:13	18:04:19	833228	5d1652ba768bdf000154e37d	3	1	main_z	11	main_z	115	stimuli_distractor_diamondtriangles.svg	stimuli_distractor_trianglediamonds.svg	37	no	0	1	2003	0	0			0	0			1				0	
6.6.1	win	2023-07-06	17:50:13	18:04:19	833228	5d1652ba768bdf000154e37d	3	1	main_z	11	advance_on_keypress_ZEE	116	stimuli_distractor_diamondtriangles.svg	stimuli_distractor_trianglediamonds.svg	37	no	57	0	760	0	0			0	0			1				0	
6.6.1	win	2023-07-06	17:50:13	18:04:22	835565	5d1652ba768bdf000154e37d	3	1	main_z	11	main_z	117	stimuli_target_diamondrectangles.svg	stimuli_distractor_trianglediamonds.svg	19	yes	44	1	957	0	0			0	0			1				0	
6.6.1	win	2023-07-06	17:50:13	18:04:22	835565	5d1652ba768bdf000154e37d	3	1	main_z	11	advance_on_keypress_ZEE	118	stimuli_target_diamondrectangles.svg	stimuli_distractor_trianglediamonds.svg	19	yes	57	0	653	0	0			0	0			1				0	
6.6.1	win	2023-07-06	17:50:13	18:04:24	837823	5d1652ba768bdf000154e37d	3	1	main_z	11	main_z	119	stimuli_target_squaretriangles.svg	stimuli_distractor_trianglediamonds.svg	3	yes	44	1	979	0	0			0	0			1				0	
6.6.1	win	2023-07-06	17:50:13	18:04:24	837823	5d1652ba768bdf000154e37d	3	1	main_z	11	advance_on_keypress_ZEE	120	stimuli_target_squaretriangles.svg	stimuli_distractor_trianglediamonds.svg	3	yes	57	0	471	0	0			0	0			1				0	
6.6.1	win	2023-07-06	17:50:13	18:04:27	840920	5d1652ba768bdf000154e37d	3	1	main_z	11	main_z	121	stimuli_distractor_diamondtriangles.svg	stimuli_distractor_trianglediamonds.svg	38	no	0	1	2003	0	0			0	0			1				0	
6.6.1	win	2023-07-06	17:50:13	18:04:27	840920	5d1652ba768bdf000154e37d	3	1	main_z	11	advance_on_keypress_ZEE	122	stimuli_distractor_diamondtriangles.svg	stimuli_distractor_trianglediamonds.svg	38	no	57	0	1132	0	0			0	0			1				0	
6.6.1	win	2023-07-06	17:50:13	18:04:30	843615	5d1652ba768bdf000154e37d	3	1	main_z	11	main_z	123	stimuli_target_squaretriangles.svg	stimuli_distractor_diamondtriangles.svg	7	yes	44	1	936	0	0			0	0			1				0	
6.6.1	win	2023-07-06	17:50:13	18:04:30	843615	5d1652ba768bdf000154e37d	3	1	main_z	11	advance_on_keypress_ZEE	124	stimuli_target_squaretriangles.svg	stimuli_distractor_diamondtriangles.svg	7	yes	57	0	739	0	0			0	0			1				0	
6.6.1	win	2023-07-06	17:50:13	18:04:33	846979	5d1652ba768bdf000154e37d	3	1	main_z	11	main_z	125	stimuli_distractor_trianglediamonds.svg	stimuli_distractor_diamondtriangles.svg	36	no	0	1	2003	0	0			0	0			1				0	
6.6.1	win	2023-07-06	17:50:13	18:04:33	846979	5d1652ba768bdf000154e37d	3	1	main_z	11	advance_on_keypress_ZEE	126	stimuli_distractor_trianglediamonds.svg	stimuli_distractor_diamondtriangles.svg	36	no	57	0	679	0	0			0	0			1				0	
6.6.1	win	2023-07-06	17:50:13	18:04:35	849209	5d1652ba768bdf000154e37d	3	1	main_z	11	main_z	127	stimuli_distractor_trianglediamonds.svg	stimuli_target_diamondrectangles.svg	27	yes	44	1	930	0	0			0	0			1				0	
6.6.1	win	2023-07-06	17:50:13	18:04:35	849209	5d1652ba768bdf000154e37d	3	1	main_z	11	advance_on_keypress_ZEE	128	stimuli_distractor_trianglediamonds.svg	stimuli_target_diamondrectangles.svg	27	yes	57	0	537	0	0			0	0			1				0	
6.6.1	win	2023-07-06	17:50:13	18:04:37	851175	5d1652ba768bdf000154e37d	3	1	main_z	11	main_z	129	stimuli_target_diamondsquares.svg	stimuli_distractor_trianglediamonds.svg	20	yes	44	1	805	0	0			0	0			1				0	
6.6.1	win	2023-07-06	17:50:13	18:04:37	851175	5d1652ba768bdf000154e37d	3	1	main_z	11	advance_on_keypress_ZEE	130	stimuli_target_diamondsquares.svg	stimuli_distractor_trianglediamonds.svg	20	yes	57	0	461	0	0			0	0			1				0	
6.6.1	win	2023-07-06	17:50:13	18:04:39	853234	5d1652ba768bdf000154e37d	3	1	main_z	11	main_z	131	stimuli_distractor_diamondtriangles.svg	stimuli_target_rectangletriangles.svg	13	yes	44	1	974	0	0			0	0			1				0	
6.6.1	win	2023-07-06	17:50:13	18:04:39	853234	5d1652ba768bdf000154e37d	3	1	main_z	11	advance_on_keypress_ZEE	132	stimuli_distractor_diamondtriangles.svg	stimuli_target_rectangletriangles.svg	13	yes	57	0	431	0	0			0	0			1				0	
6.6.1	win	2023-07-06	17:50:13	18:04:41	855033	5d1652ba768bdf000154e37d	3	1	main_z	11	main_z	133	stimuli_target_rectanglediamonds.svg	stimuli_distractor_trianglediamonds.svg	2	yes	44	1	750	0	0			0	0			1				0	
6.6.1	win	2023-07-06	17:50:13	18:04:41	855033	5d1652ba768bdf000154e37d	3	1	main_z	11	advance_on_keypress_ZEE	134	stimuli_target_rectanglediamonds.svg	stimuli_distractor_trianglediamonds.svg	2	yes	57	0	415	0	0			0	0			1				0	
6.6.1	win	2023-07-06	17:50:13	18:04:43	857024	5d1652ba768bdf000154e37d	3	1	main_z	11	main_z	135	stimuli_distractor_trianglediamonds.svg	stimuli_target_diamondsquares.svg	28	yes	44	1	948	0	0			0	0			1				0	
6.6.1	win	2023-07-06	17:50:13	18:04:43	857024	5d1652ba768bdf000154e37d	3	1	main_z	11	advance_on_keypress_ZEE	136	stimuli_distractor_trianglediamonds.svg	stimuli_target_diamondsquares.svg	28	yes	57	0	509	0	0			0	0			1				0	
6.6.1	win	2023-07-06	17:50:13	18:04:45	858986	5d1652ba768bdf000154e37d	3	1	main_z	11	main_z	137	stimuli_distractor_diamondtriangles.svg	stimuli_target_squaretriangles.svg	15	yes	44	1	831	0	0			0	0			1				0	
6.6.1	win	2023-07-06	17:50:13	18:04:45	858986	5d1652ba768bdf000154e37d	3	1	main_z	11	advance_on_keypress_ZEE	138	stimuli_distractor_diamondtriangles.svg	stimuli_target_squaretriangles.svg	15	yes	57	0	484	0	0			0	0			1				0	
6.6.1	win	2023-07-06	17:50:13	18:04:47	860871	5d1652ba768bdf000154e37d	3	1	main_z	11	main_z	139	stimuli_distractor_diamondtriangles.svg	stimuli_target_diamondrectangles.svg	31	yes	44	1	779	0	0			0	0			1				0	
6.6.1	win	2023-07-06	17:50:13	18:04:47	860871	5d1652ba768bdf000154e37d	3	1	main_z	11	advance_on_keypress_ZEE	140	stimuli_distractor_diamondtriangles.svg	stimuli_target_diamondrectangles.svg	31	yes	57	0	441	0	0			0	0			1				0	
6.6.1	win	2023-07-06	17:50:13	18:04:49	862680	5d1652ba768bdf000154e37d	3	1	main_z	11	main_z	141	stimuli_distractor_trianglediamonds.svg	stimuli_target_trianglesquares.svg	26	yes	44	1	740	0	0			0	0			1				0	
6.6.1	win	2023-07-06	17:50:13	18:04:49	862680	5d1652ba768bdf000154e37d	3	1	main_z	11	advance_on_keypress_ZEE	142	stimuli_distractor_trianglediamonds.svg	stimuli_target_trianglesquares.svg	26	yes	57	0	466	0	0			0	0			1				0	
6.6.1	win	2023-07-06	17:50:13	18:04:50	864303	5d1652ba768bdf000154e37d	3	1	main_z	11	main_z	143	stimuli_distractor_trianglediamonds.svg	stimuli_target_rectanglediamonds.svg	10	yes	44	1	535	0	0			0	0			1				0	
6.6.1	win	2023-07-06	17:50:13	18:04:50	864303	5d1652ba768bdf000154e37d	3	1	main_z	11	advance_on_keypress_ZEE	144	stimuli_distractor_trianglediamonds.svg	stimuli_target_rectanglediamonds.svg	10	yes	57	0	480	0	0			0	0			1				0	
6.6.1	win	2023-07-06	17:50:13	18:04:52	865857	5d1652ba768bdf000154e37d	3	1	main_z	11	main_z	145	stimuli_distractor_trianglediamonds.svg	stimuli_target_rectangletriangles.svg	9	yes	44	1	454	0	0			0	0			1				0	
6.6.1	win	2023-07-06	17:50:13	18:04:52	865857	5d1652ba768bdf000154e37d	3	1	main_z	11	advance_on_keypress_ZEE	146	stimuli_distractor_trianglediamonds.svg	stimuli_target_rectangletriangles.svg	9	yes	57	0	462	0	0			0	0			1				0	
6.6.1	win	2023-07-06	17:50:13	18:04:53	867439	5d1652ba768bdf000154e37d	3	1	main_z	11	main_z	147	stimuli_target_rectanglediamonds.svg	stimuli_distractor_diamondtriangles.svg	6	yes	44	1	501	0	0			0	0			1				0	
6.6.1	win	2023-07-06	17:50:13	18:04:53	867439	5d1652ba768bdf000154e37d	3	1	main_z	11	advance_on_keypress_ZEE	148	stimuli_target_rectanglediamonds.svg	stimuli_distractor_diamondtriangles.svg	6	yes	57	0	445	0	0			0	0			1				0	
6.6.1	win	2023-07-06	17:50:13	18:04:56	869955	5d1652ba768bdf000154e37d	3	1	main_z	11	main_z	149	stimuli_distractor_diamondtriangles.svg	stimuli_target_trianglesquares.svg	30	yes	44	1	1444	0	0			0	0			1				0	
6.6.1	win	2023-07-06	17:50:13	18:04:56	869955	5d1652ba768bdf000154e37d	3	1	main_z	11	advance_on_keypress_ZEE	150	stimuli_distractor_diamondtriangles.svg	stimuli_target_trianglesquares.svg	30	yes	57	0	316	0	0			0	0			1				0	
6.6.1	win	2023-07-06	17:50:13	18:04:58	871684	5d1652ba768bdf000154e37d	3	1	main_z	11	main_z	151	stimuli_distractor_trianglediamonds.svg	stimuli_target_squaretriangles.svg	11	yes	44	1	784	0	0			0	0			1				0	
6.6.1	win	2023-07-06	17:50:13	18:04:58	871684	5d1652ba768bdf000154e37d	3	1	main_z	11	advance_on_keypress_ZEE	152	stimuli_distractor_trianglediamonds.svg	stimuli_target_squaretriangles.svg	11	yes	57	0	437	0	0			0	0			1				0	
6.6.1	win	2023-07-06	17:50:13	18:05:00	874043	5d1652ba768bdf000154e37d	3	1	main_z	11	main_z	153	stimuli_distractor_trianglediamonds.svg	stimuli_target_trianglerectangles.svg	25	yes	44	1	1302	0	0			0	0			1				0	
6.6.1	win	2023-07-06	17:50:13	18:05:00	874043	5d1652ba768bdf000154e37d	3	1	main_z	11	advance_on_keypress_ZEE	154	stimuli_distractor_trianglediamonds.svg	stimuli_target_trianglerectangles.svg	25	yes	57	0	362	0	0			0	0			1				0	
6.6.1	win	2023-07-06	17:50:13	18:05:03	877030	5d1652ba768bdf000154e37d	3	1	main_z	11	main_z	155	stimuli_distractor_trianglediamonds.svg	stimuli_distractor_trianglediamonds.svg	34	no	0	1	2003	0	0			0	0			1				0	
6.6.1	win	2023-07-06	17:50:13	18:05:03	877030	5d1652ba768bdf000154e37d	3	1	main_z	11	advance_on_keypress_ZEE	156	stimuli_distractor_trianglediamonds.svg	stimuli_distractor_trianglediamonds.svg	34	no	57	0	694	0	0			0	0			1				0	
6.6.1	win	2023-07-06	17:50:13	18:05:05	878877	5d1652ba768bdf000154e37d	3	1	main_z	11	main_z	157	stimuli_distractor_diamondtriangles.svg	stimuli_target_squarediamonds.svg	16	yes	44	1	526	0	0			0	0			1				0	
6.6.1	win	2023-07-06	17:50:13	18:05:05	878877	5d1652ba768bdf000154e37d	3	1	main_z	11	advance_on_keypress_ZEE	158	stimuli_distractor_diamondtriangles.svg	stimuli_target_squarediamonds.svg	16	yes	57	0	444	0	0			0	0			1				0	
6.6.1	win	2023-07-06	17:50:13	18:05:07	880595	5d1652ba768bdf000154e37d	3	1	main_z	11	main_z	159	stimuli_target_diamondsquares.svg	stimuli_distractor_diamondtriangles.svg	24	yes	44	1	649	0	0			0	0			1				0	
6.6.1	win	2023-07-06	17:50:13	18:05:07	880595	5d1652ba768bdf000154e37d	3	1	main_z	11	advance_on_keypress_ZEE	160	stimuli_target_diamondsquares.svg	stimuli_distractor_diamondtriangles.svg	24	yes	57	0	526	0	0			0	0			1				0	
6.6.1	win	2023-07-06	17:50:13	18:05:07	880595	5d1652ba768bdf000154e37d	3	1	headphonecheck_calibration	14	headphonecheck_calibrationIntro	1	stimuli_target_diamondsquares.svg	stimuli_distractor_diamondtriangles.svg	24	yes	calibrationButton	0	3764	0	0			0	0			1				0	
6.6.1	win	2023-07-06	17:50:13	18:05:07	880595	5d1652ba768bdf000154e37d	3	1	headphonecheck_testphase	15	test_collectResponse	3	stimuli_target_diamondsquares.svg	stimuli_distractor_diamondtriangles.svg	24	yes	second	1	460	1	5	antiphase_hc_osi.wav	2	0	0			1				0	
6.6.1	win	2023-07-06	17:50:13	18:05:07	880595	5d1652ba768bdf000154e37d	3	1	headphonecheck_testphase	15	test_collectResponse	6	stimuli_target_diamondsquares.svg	stimuli_distractor_diamondtriangles.svg	24	yes	second	0	271	2	3	antiphase_hc_soi.wav	1	0	0			1				0	
6.6.1	win	2023-07-06	17:50:13	18:05:07	880595	5d1652ba768bdf000154e37d	3	1	headphonecheck_testphase	15	test_collectResponse	9	stimuli_target_diamondsquares.svg	stimuli_distractor_diamondtriangles.svg	24	yes	third	1	342	3	2	antiphase_hc_ios.wav	3	0	0			1				0	
6.6.1	win	2023-07-06	17:50:13	18:05:07	880595	5d1652ba768bdf000154e37d	3	1	headphonecheck_testphase	15	test_collectResponse	12	stimuli_target_diamondsquares.svg	stimuli_distractor_diamondtriangles.svg	24	yes	third	0	332	4	1	antiphase_hc_iso.wav	2	0	0			1				0	
6.6.1	win	2023-07-06	17:50:13	18:05:07	880595	5d1652ba768bdf000154e37d	3	1	headphonecheck_testphase	15	test_collectResponse	15	stimuli_target_diamondsquares.svg	stimuli_distractor_diamondtriangles.svg	24	yes	third	0	942	5	4	antiphase_hc_sio.wav	1	0	0			1				0	
6.6.1	win	2023-07-06	17:50:13	18:05:07	880595	5d1652ba768bdf000154e37d	3	1	headphonecheck_testphase	15	test_collectResponse	18	stimuli_target_diamondsquares.svg	stimuli_distractor_diamondtriangles.svg	24	yes	third	1	1951	6	6	antiphase_hc_ois.wav	3	0	0			1				0	
6.6.1	win	2023-07-06	17:50:13	18:05:07	880595	5d1652ba768bdf000154e37d	3	1	stereocheck_calibration	17	stereocheck_calibrationIntro	1	stimuli_target_diamondsquares.svg	stimuli_distractor_diamondtriangles.svg	24	yes	stereocheck_calibrationButton	0	15617	6	6	antiphase_hc_ois.wav	3	0	0			1				0	
6.6.1	win	2023-07-06	17:50:13	18:05:07	880595	5d1652ba768bdf000154e37d	3	1	stereocheck_testphase	18	stereocheck_test_collectResponse	3	stimuli_target_diamondsquares.svg	stimuli_distractor_diamondtriangles.svg	24	yes	stereocheck_left	1	950	6	6	antiphase_hc_ois.wav	3	1	2	noise_calib_stim_LEFT.wav	1	1				0	
6.6.1	win	2023-07-06	17:50:13	18:05:07	880595	5d1652ba768bdf000154e37d	3	1	stereocheck_testphase	18	stereocheck_test_collectResponse	6	stimuli_target_diamondsquares.svg	stimuli_distractor_diamondtriangles.svg	24	yes	stereocheck_right	1	360	6	6	antiphase_hc_ois.wav	3	2	5	noise_calib_stim_RIGHT.wav	2	1				0	
6.6.1	win	2023-07-06	17:50:13	18:05:07	880595	5d1652ba768bdf000154e37d	3	1	stereocheck_testphase	18	stereocheck_test_collectResponse	9	stimuli_target_diamondsquares.svg	stimuli_distractor_diamondtriangles.svg	24	yes	stereocheck_right	1	327	6	6	antiphase_hc_ois.wav	3	3	4	noise_calib_stim_RIGHT.wav	2	1				0	
6.6.1	win	2023-07-06	17:50:13	18:05:07	880595	5d1652ba768bdf000154e37d	3	1	stereocheck_testphase	18	stereocheck_test_collectResponse	12	stimuli_target_diamondsquares.svg	stimuli_distractor_diamondtriangles.svg	24	yes	stereocheck_right	1	260	6	6	antiphase_hc_ois.wav	3	4	6	noise_calib_stim_RIGHT.wav	2	1				0	
6.6.1	win	2023-07-06	17:50:13	18:05:07	880595	5d1652ba768bdf000154e37d	3	1	stereocheck_testphase	18	stereocheck_test_collectResponse	15	stimuli_target_diamondsquares.svg	stimuli_distractor_diamondtriangles.svg	24	yes	stereocheck_left	1	458	6	6	antiphase_hc_ois.wav	3	5	1	noise_calib_stim_LEFT.wav	1	1				0	
6.6.1	win	2023-07-06	17:50:13	18:05:07	880595	5d1652ba768bdf000154e37d	3	1	stereocheck_testphase	18	stereocheck_test_collectResponse	18	stimuli_target_diamondsquares.svg	stimuli_distractor_diamondtriangles.svg	24	yes	stereocheck_left	1	457	6	6	antiphase_hc_ois.wav	3	6	3	noise_calib_stim_LEFT.wav	1	1				0	
6.6.1	win	2023-07-06	17:50:13	18:05:07	880595	5d1652ba768bdf000154e37d	3	1	DL_practice	21	DL_practice	2	stimuli_target_diamondsquares.svg	stimuli_distractor_diamondtriangles.svg	24	yes	ba	1	2185	6	6	antiphase_hc_ois.wav	3	6	3	noise_calib_stim_LEFT.wav	1	7	blb_dichoticlistening_da-ba.mp3	da	ba	1	right
6.6.1	win	2023-07-06	17:50:13	18:05:07	880595	5d1652ba768bdf000154e37d	3	1	DL_practice	21	DL_practice	3	stimuli_target_diamondsquares.svg	stimuli_distractor_diamondtriangles.svg	24	yes	pa	1	2188	6	6	antiphase_hc_ois.wav	3	6	3	noise_calib_stim_LEFT.wav	1	29	blb_dichoticlistening_pa-pa.mp3	pa	pa	0	left
6.6.1	win	2023-07-06	17:50:13	18:05:07	880595	5d1652ba768bdf000154e37d	3	1	DL_practice	21	DL_practice	4	stimuli_target_diamondsquares.svg	stimuli_distractor_diamondtriangles.svg	24	yes	ta	1	1449	6	6	antiphase_hc_ois.wav	3	6	3	noise_calib_stim_LEFT.wav	1	36	blb_dichoticlistening_ta-ta.mp3	ta	ta	0	left
6.6.1	win	2023-07-06	17:50:13	18:05:07	880595	5d1652ba768bdf000154e37d	3	1	DL_practice	21	DL_practice	5	stimuli_target_diamondsquares.svg	stimuli_distractor_diamondtriangles.svg	24	yes	da	1	1483	6	6	antiphase_hc_ois.wav	3	6	3	noise_calib_stim_LEFT.wav	1	8	blb_dichoticlistening_da-da.mp3	da	da	0	left
6.6.1	win	2023-07-06	17:50:13	18:05:07	880595	5d1652ba768bdf000154e37d	3	1	DL_practice	21	DL_practice	6	stimuli_target_diamondsquares.svg	stimuli_distractor_diamondtriangles.svg	24	yes	ka	1	1157	6	6	antiphase_hc_ois.wav	3	6	3	noise_calib_stim_LEFT.wav	1	22	blb_dichoticlistening_ka-ka.mp3	ka	ka	0	left
6.6.1	win	2023-07-06	17:50:13	18:05:07	880595	5d1652ba768bdf000154e37d	3	1	DL_practice	21	DL_practice	7	stimuli_target_diamondsquares.svg	stimuli_distractor_diamondtriangles.svg	24	yes	ka	1	1154	6	6	antiphase_hc_ois.wav	3	6	3	noise_calib_stim_LEFT.wav	1	23	blb_dichoticlistening_ka-pa.mp3	ka	pa	1	left
6.6.1	win	2023-07-06	17:50:13	18:05:07	880595	5d1652ba768bdf000154e37d	3	1	DL_practice	21	DL_practice	8	stimuli_target_diamondsquares.svg	stimuli_distractor_diamondtriangles.svg	24	yes	ga	1	1034	6	6	antiphase_hc_ois.wav	3	6	3	noise_calib_stim_LEFT.wav	1	15	blb_dichoticlistening_ga-ga.mp3	ga	ga	0	left
6.6.1	win	2023-07-06	17:50:13	18:05:07	880595	5d1652ba768bdf000154e37d	3	1	DL_practice	21	DL_practice	9	stimuli_target_diamondsquares.svg	stimuli_distractor_diamondtriangles.svg	24	yes	ba	1	1506	6	6	antiphase_hc_ois.wav	3	6	3	noise_calib_stim_LEFT.wav	1	1	blb_dichoticlistening_ba-ba.mp3	ba	ba	0	left
6.6.1	win	2023-07-06	17:50:13	18:05:07	880595	5d1652ba768bdf000154e37d	3	1	DL_practice	21	DL_practice	10	stimuli_target_diamondsquares.svg	stimuli_distractor_diamondtriangles.svg	24	yes	ga	1	1416	6	6	antiphase_hc_ois.wav	3	6	3	noise_calib_stim_LEFT.wav	1	18	blb_dichoticlistening_ga-ta.mp3	ga	ta	1	left
6.6.1	win	2023-07-06	17:50:13	18:05:07	880595	5d1652ba768bdf000154e37d	3	1	DL_test	23	DL_test	1	stimuli_target_diamondsquares.svg	stimuli_distractor_diamondtriangles.svg	24	yes	ga	1	940	6	6	antiphase_hc_ois.wav	3	6	3	noise_calib_stim_LEFT.wav	1	15	blb_dichoticlistening_ga-ga.mp3	ga	ga	0	left
6.6.1	win	2023-07-06	17:50:13	18:05:07	880595	5d1652ba768bdf000154e37d	3	1	DL_test	23	DL_test	2	stimuli_target_diamondsquares.svg	stimuli_distractor_diamondtriangles.svg	24	yes	ga	0	2914	6	6	antiphase_hc_ois.wav	3	6	3	noise_calib_stim_LEFT.wav	1	20	blb_dichoticlistening_ka-da.mp3	ka	da	1	other
6.6.1	win	2023-07-06	17:50:13	18:05:07	880595	5d1652ba768bdf000154e37d	3	1	DL_test	23	DL_test	3	stimuli_target_diamondsquares.svg	stimuli_distractor_diamondtriangles.svg	24	yes	ga	0	2418	6	6	antiphase_hc_ois.wav	3	6	3	noise_calib_stim_LEFT.wav	1	32	blb_dichoticlistening_ta-da.mp3	ta	da	1	other
6.6.1	win	2023-07-06	17:50:13	18:05:07	880595	5d1652ba768bdf000154e37d	3	1	DL_test	23	DL_test	4	stimuli_target_diamondsquares.svg	stimuli_distractor_diamondtriangles.svg	24	yes	ka	1	1252	6	6	antiphase_hc_ois.wav	3	6	3	noise_calib_stim_LEFT.wav	1	28	blb_dichoticlistening_pa-ka.mp3	pa	ka	1	right
6.6.1	win	2023-07-06	17:50:13	18:05:07	880595	5d1652ba768bdf000154e37d	3	1	DL_test	23	DL_test	5	stimuli_target_diamondsquares.svg	stimuli_distractor_diamondtriangles.svg	24	yes	ka	1	1008	6	6	antiphase_hc_ois.wav	3	6	3	noise_calib_stim_LEFT.wav	1	34	blb_dichoticlistening_ta-ka.mp3	ta	ka	1	right
6.6.1	win	2023-07-06	17:50:13	18:05:07	880595	5d1652ba768bdf000154e37d	3	1	DL_test	23	DL_test	6	stimuli_target_diamondsquares.svg	stimuli_distractor_diamondtriangles.svg	24	yes	ba	1	1406	6	6	antiphase_hc_ois.wav	3	6	3	noise_calib_stim_LEFT.wav	1	1	blb_dichoticlistening_ba-ba.mp3	ba	ba	0	left
6.6.1	win	2023-07-06	17:50:13	18:05:07	880595	5d1652ba768bdf000154e37d	3	1	DL_test	23	DL_test	7	stimuli_target_diamondsquares.svg	stimuli_distractor_diamondtriangles.svg	24	yes	ga	0	2380	6	6	antiphase_hc_ois.wav	3	6	3	noise_calib_stim_LEFT.wav	1	2	blb_dichoticlistening_ba-da.mp3	ba	da	1	other
6.6.1	win	2023-07-06	17:50:13	18:05:07	880595	5d1652ba768bdf000154e37d	3	1	DL_test	23	DL_test	8	stimuli_target_diamondsquares.svg	stimuli_distractor_diamondtriangles.svg	24	yes	pa	1	1662	6	6	antiphase_hc_ois.wav	3	6	3	noise_calib_stim_LEFT.wav	1	29	blb_dichoticlistening_pa-pa.mp3	pa	pa	0	left
6.6.1	win	2023-07-06	17:50:13	18:05:07	880595	5d1652ba768bdf000154e37d	3	1	DL_test	23	DL_test	9	stimuli_target_diamondsquares.svg	stimuli_distractor_diamondtriangles.svg	24	yes	ka	1	1041	6	6	antiphase_hc_ois.wav	3	6	3	noise_calib_stim_LEFT.wav	1	4	blb_dichoticlistening_ba-ka.mp3	ba	ka	1	right
6.6.1	win	2023-07-06	17:50:13	18:05:07	880595	5d1652ba768bdf000154e37d	3	1	DL_test	23	DL_test	10	stimuli_target_diamondsquares.svg	stimuli_distractor_diamondtriangles.svg	24	yes	pa	1	1116	6	6	antiphase_hc_ois.wav	3	6	3	noise_calib_stim_LEFT.wav	1	5	blb_dichoticlistening_ba-pa.mp3	ba	pa	1	right
6.6.1	win	2023-07-06	17:50:13	18:05:07	880595	5d1652ba768bdf000154e37d	3	1	DL_test	23	DL_test	11	stimuli_target_diamondsquares.svg	stimuli_distractor_diamondtriangles.svg	24	yes	ta	1	1459	6	6	antiphase_hc_ois.wav	3	6	3	noise_calib_stim_LEFT.wav	1	6	blb_dichoticlistening_ba-ta.mp3	ba	ta	1	right
6.6.1	win	2023-07-06	17:50:13	18:05:07	880595	5d1652ba768bdf000154e37d	3	1	DL_test	23	DL_test	12	stimuli_target_diamondsquares.svg	stimuli_distractor_diamondtriangles.svg	24	yes	da	1	1541	6	6	antiphase_hc_ois.wav	3	6	3	noise_calib_stim_LEFT.wav	1	8	blb_dichoticlistening_da-da.mp3	da	da	0	left
6.6.1	win	2023-07-06	17:50:13	18:05:07	880595	5d1652ba768bdf000154e37d	3	1	DL_test	23	DL_test	13	stimuli_target_diamondsquares.svg	stimuli_distractor_diamondtriangles.svg	24	yes	ta	1	1579	6	6	antiphase_hc_ois.wav	3	6	3	noise_calib_stim_LEFT.wav	1	12	blb_dichoticlistening_da-ta.mp3	da	ta	1	right
6.6.1	win	2023-07-06	17:50:13	18:05:07	880595	5d1652ba768bdf000154e37d	3	1	DL_test	23	DL_test	14	stimuli_target_diamondsquares.svg	stimuli_distractor_diamondtriangles.svg	24	yes	ta	0	2506	6	6	antiphase_hc_ois.wav	3	6	3	noise_calib_stim_LEFT.wav	1	26	blb_dichoticlistening_pa-da.mp3	pa	da	1	other
6.6.1	win	2023-07-06	17:50:13	18:05:07	880595	5d1652ba768bdf000154e37d	3	1	DL_test	23	DL_test	15	stimuli_target_diamondsquares.svg	stimuli_distractor_diamondtriangles.svg	24	yes	ka	1	1676	6	6	antiphase_hc_ois.wav	3	6	3	noise_calib_stim_LEFT.wav	1	19	blb_dichoticlistening_ka-ba.mp3	ka	ba	1	left
6.6.1	win	2023-07-06	17:50:13	18:05:07	880595	5d1652ba768bdf000154e37d	3	1	DL_test	23	DL_test	16	stimuli_target_diamondsquares.svg	stimuli_distractor_diamondtriangles.svg	24	yes	ta	1	1144	6	6	antiphase_hc_ois.wav	3	6	3	noise_calib_stim_LEFT.wav	1	36	blb_dichoticlistening_ta-ta.mp3	ta	ta	0	left
6.6.1	win	2023-07-06	17:50:13	18:05:07	880595	5d1652ba768bdf000154e37d	3	1	DL_test	23	DL_test	17	stimuli_target_diamondsquares.svg	stimuli_distractor_diamondtriangles.svg	24	yes	ga	1	1019	6	6	antiphase_hc_ois.wav	3	6	3	noise_calib_stim_LEFT.wav	1	14	blb_dichoticlistening_ga-da.mp3	ga	da	1	left
6.6.1	win	2023-07-06	17:50:13	18:05:07	880595	5d1652ba768bdf000154e37d	3	1	DL_test	23	DL_test	18	stimuli_target_diamondsquares.svg	stimuli_distractor_diamondtriangles.svg	24	yes	ga	1	810	6	6	antiphase_hc_ois.wav	3	6	3	noise_calib_stim_LEFT.wav	1	18	blb_dichoticlistening_ga-ta.mp3	ga	ta	1	left
6.6.1	win	2023-07-06	17:50:13	18:05:07	880595	5d1652ba768bdf000154e37d	3	1	DL_test	23	DL_test	19	stimuli_target_diamondsquares.svg	stimuli_distractor_diamondtriangles.svg	24	yes	pa	1	1104	6	6	antiphase_hc_ois.wav	3	6	3	noise_calib_stim_LEFT.wav	1	25	blb_dichoticlistening_pa-ba.mp3	pa	ba	1	left
6.6.1	win	2023-07-06	17:50:13	18:05:07	880595	5d1652ba768bdf000154e37d	3	1	DL_test	23	DL_test	20	stimuli_target_diamondsquares.svg	stimuli_distractor_diamondtriangles.svg	24	yes	ta	1	1314	6	6	antiphase_hc_ois.wav	3	6	3	noise_calib_stim_LEFT.wav	1	31	blb_dichoticlistening_ta-ba.mp3	ta	ba	1	left
6.6.1	win	2023-07-06	17:50:13	18:05:07	880595	5d1652ba768bdf000154e37d	3	1	DL_test	23	DL_test	21	stimuli_target_diamondsquares.svg	stimuli_distractor_diamondtriangles.svg	24	yes	ka	1	1019	6	6	antiphase_hc_ois.wav	3	6	3	noise_calib_stim_LEFT.wav	1	22	blb_dichoticlistening_ka-ka.mp3	ka	ka	0	left
6.6.1	win	2023-07-06	17:50:13	18:05:07	880595	5d1652ba768bdf000154e37d	3	1	DL_test	23	DL_test	22	stimuli_target_diamondsquares.svg	stimuli_distractor_diamondtriangles.svg	24	yes	ka	1	808	6	6	antiphase_hc_ois.wav	3	6	3	noise_calib_stim_LEFT.wav	1	24	blb_dichoticlistening_ka-ta.mp3	ka	ta	1	left
6.6.1	win	2023-07-06	17:50:13	18:05:07	880595	5d1652ba768bdf000154e37d	3	1	DL_test	23	DL_test	23	stimuli_target_diamondsquares.svg	stimuli_distractor_diamondtriangles.svg	24	yes	da	1	2306	6	6	antiphase_hc_ois.wav	3	6	3	noise_calib_stim_LEFT.wav	1	7	blb_dichoticlistening_da-ba.mp3	da	ba	1	left
6.6.1	win	2023-07-06	17:50:13	18:05:07	880595	5d1652ba768bdf000154e37d	3	1	DL_test	23	DL_test	24	stimuli_target_diamondsquares.svg	stimuli_distractor_diamondtriangles.svg	24	yes	ga	1	984	6	6	antiphase_hc_ois.wav	3	6	3	noise_calib_stim_LEFT.wav	1	9	blb_dichoticlistening_da-ga.mp3	da	ga	1	right
6.6.1	win	2023-07-06	17:50:13	18:05:07	880595	5d1652ba768bdf000154e37d	3	1	DL_test	23	DL_test	25	stimuli_target_diamondsquares.svg	stimuli_distractor_diamondtriangles.svg	24	yes	ka	0	1290	6	6	antiphase_hc_ois.wav	3	6	3	noise_calib_stim_LEFT.wav	1	17	blb_dichoticlistening_ga-pa.mp3	ga	pa	1	other
6.6.1	win	2023-07-06	17:50:13	18:05:07	880595	5d1652ba768bdf000154e37d	3	1	DL_test	23	DL_test	26	stimuli_target_diamondsquares.svg	stimuli_distractor_diamondtriangles.svg	24	yes	ka	1	858	6	6	antiphase_hc_ois.wav	3	6	3	noise_calib_stim_LEFT.wav	1	16	blb_dichoticlistening_ga-ka.mp3	ga	ka	1	right
