build	computer.platform	date	time	timestamp	time_elapsed_ms	subject	group	session	blockcode	blocknum	trialcode	trialnum	stimulus_left	stimulus_right	stim_index	target_present	response	correct	latency	headphonecheck_countTestTrials	headphonecheck_index	headphonecheck_testSound	headphonecheck_correctResponse	stereocheck_countTestTrials	stereocheck_index	stereocheck_testSound	stereocheck_correctResponse	DL_index	DL_soundfile	DL_leftSound	DL_rightSound	DL_dualSound	DL_choice
6.6.1	mac	2023-06-16	17:56:32	18:01:46	312048	6100c17164f9f4c063f4d25f	3	1	practice_slash	5	practice_slash	1	stimuli_target_squarediamonds.svg	stimuli_distractor_trianglediamonds.svg	5	yes	0	0	2000	0	0			0	0			1				0	
6.6.1	mac	2023-06-16	17:56:32	18:01:46	312048	6100c17164f9f4c063f4d25f	3	1	practice_slash	5	advance_on_keypress_SLASH	2	stimuli_target_squarediamonds.svg	stimuli_distractor_trianglediamonds.svg	5	yes	57	0	702	0	0			0	0			1				0	
6.6.1	mac	2023-06-16	17:56:32	18:01:50	316397	6100c17164f9f4c063f4d25f	3	1	practice_slash	5	practice_slash	3	stimuli_distractor_diamondtriangles.svg	stimuli_target_rectangletriangles.svg	7	yes	0	0	2000	0	0			0	0			1				0	
6.6.1	mac	2023-06-16	17:56:32	18:01:50	316397	6100c17164f9f4c063f4d25f	3	1	practice_slash	5	advance_on_keypress_SLASH	4	stimuli_distractor_diamondtriangles.svg	stimuli_target_rectangletriangles.svg	7	yes	57	0	401	0	0			0	0			1				0	
6.6.1	mac	2023-06-16	17:56:32	18:01:55	320452	6100c17164f9f4c063f4d25f	3	1	practice_slash	5	practice_slash	5	stimuli_target_rectanglediamonds.svg	stimuli_distractor_diamondtriangles.svg	1	yes	0	0	2000	0	0			0	0			1				0	
6.6.1	mac	2023-06-16	17:56:32	18:01:55	320452	6100c17164f9f4c063f4d25f	3	1	practice_slash	5	advance_on_keypress_SLASH	6	stimuli_target_rectanglediamonds.svg	stimuli_distractor_diamondtriangles.svg	1	yes	57	0	1469	0	0			0	0			1				0	
6.6.1	mac	2023-06-16	17:56:32	18:02:00	325548	6100c17164f9f4c063f4d25f	3	1	practice_slash	5	practice_slash	7	stimuli_target_diamondsquares.svg	stimuli_distractor_diamondtriangles.svg	3	yes	0	0	2000	0	0			0	0			1				0	
6.6.1	mac	2023-06-16	17:56:32	18:02:00	325548	6100c17164f9f4c063f4d25f	3	1	practice_slash	5	advance_on_keypress_SLASH	8	stimuli_target_diamondsquares.svg	stimuli_distractor_diamondtriangles.svg	3	yes	57	0	604	0	0			0	0			1				0	
6.6.1	mac	2023-06-16	17:56:32	18:02:04	329781	6100c17164f9f4c063f4d25f	3	1	practice_slash	5	practice_slash	9	stimuli_distractor_diamondtriangles.svg	stimuli_distractor_diamondtriangles.svg	13	no	0	1	2000	0	0			0	0			1				0	
6.6.1	mac	2023-06-16	17:56:32	18:02:04	329781	6100c17164f9f4c063f4d25f	3	1	practice_slash	5	advance_on_keypress_SLASH	10	stimuli_distractor_diamondtriangles.svg	stimuli_distractor_diamondtriangles.svg	13	no	57	0	2093	0	0			0	0			1				0	
6.6.1	mac	2023-06-16	17:56:32	18:02:10	335515	6100c17164f9f4c063f4d25f	3	1	practice_slash	5	practice_slash	11	stimuli_target_diamondsquares.svg	stimuli_distractor_trianglediamonds.svg	6	yes	0	0	2000	0	0			0	0			1				0	
6.6.1	mac	2023-06-16	17:56:32	18:02:10	335515	6100c17164f9f4c063f4d25f	3	1	practice_slash	5	advance_on_keypress_SLASH	12	stimuli_target_diamondsquares.svg	stimuli_distractor_trianglediamonds.svg	6	yes	57	0	434	0	0			0	0			1				0	
6.6.1	mac	2023-06-16	17:56:32	18:02:14	339583	6100c17164f9f4c063f4d25f	3	1	practice_slash	5	practice_slash	13	stimuli_distractor_trianglediamonds.svg	stimuli_target_squarediamonds.svg	11	yes	0	0	2000	0	0			0	0			1				0	
6.6.1	mac	2023-06-16	17:56:32	18:02:14	339583	6100c17164f9f4c063f4d25f	3	1	practice_slash	5	advance_on_keypress_SLASH	14	stimuli_distractor_trianglediamonds.svg	stimuli_target_squarediamonds.svg	11	yes	57	0	683	0	0			0	0			1				0	
6.6.1	mac	2023-06-16	17:56:32	18:02:18	343898	6100c17164f9f4c063f4d25f	3	1	practice_slash	5	practice_slash	15	stimuli_target_rectanglediamonds.svg	stimuli_distractor_trianglediamonds.svg	4	yes	0	0	2000	0	0			0	0			1				0	
6.6.1	mac	2023-06-16	17:56:32	18:02:18	343898	6100c17164f9f4c063f4d25f	3	1	practice_slash	5	advance_on_keypress_SLASH	16	stimuli_target_rectanglediamonds.svg	stimuli_distractor_trianglediamonds.svg	4	yes	57	0	825	0	0			0	0			1				0	
6.6.1	mac	2023-06-16	17:56:32	18:02:22	348366	6100c17164f9f4c063f4d25f	3	1	practice_slash	5	practice_slash	17	stimuli_distractor_diamondtriangles.svg	stimuli_target_diamondrectangles.svg	8	yes	0	0	2000	0	0			0	0			1				0	
6.6.1	mac	2023-06-16	17:56:32	18:02:22	348366	6100c17164f9f4c063f4d25f	3	1	practice_slash	5	advance_on_keypress_SLASH	18	stimuli_distractor_diamondtriangles.svg	stimuli_target_diamondrectangles.svg	8	yes	57	0	3321	0	0			0	0			1				0	
6.6.1	mac	2023-06-16	17:56:32	18:02:29	354739	6100c17164f9f4c063f4d25f	3	1	practice_slash	5	practice_slash	19	stimuli_distractor_diamondtriangles.svg	stimuli_target_trianglerectangles.svg	9	yes	53	1	1404	0	0			0	0			1				0	
6.6.1	mac	2023-06-16	17:56:32	18:02:29	354739	6100c17164f9f4c063f4d25f	3	1	practice_slash	5	advance_on_keypress_SLASH	20	stimuli_distractor_diamondtriangles.svg	stimuli_target_trianglerectangles.svg	9	yes	57	0	758	0	0			0	0			1				0	
6.6.1	mac	2023-06-16	17:56:32	18:02:32	357634	6100c17164f9f4c063f4d25f	3	1	practice_slash	5	practice_slash	21	stimuli_target_squarediamonds.svg	stimuli_distractor_diamondtriangles.svg	2	yes	53	1	517	0	0			0	0			1				0	
6.6.1	mac	2023-06-16	17:56:32	18:02:32	357634	6100c17164f9f4c063f4d25f	3	1	practice_slash	5	advance_on_keypress_SLASH	22	stimuli_target_squarediamonds.svg	stimuli_distractor_diamondtriangles.svg	2	yes	57	0	863	0	0			0	0			1				0	
6.6.1	mac	2023-06-16	17:56:32	18:02:36	362134	6100c17164f9f4c063f4d25f	3	1	practice_slash	5	practice_slash	23	stimuli_distractor_diamondtriangles.svg	stimuli_distractor_trianglediamonds.svg	14	no	0	1	2000	0	0			0	0			1				0	
6.6.1	mac	2023-06-16	17:56:32	18:02:36	362134	6100c17164f9f4c063f4d25f	3	1	practice_slash	5	advance_on_keypress_SLASH	24	stimuli_distractor_diamondtriangles.svg	stimuli_distractor_trianglediamonds.svg	14	no	57	0	453	0	0			0	0			1				0	
6.6.1	mac	2023-06-16	17:56:32	18:02:40	366215	6100c17164f9f4c063f4d25f	3	1	practice_slash	5	practice_slash	25	stimuli_distractor_trianglediamonds.svg	stimuli_distractor_diamondtriangles.svg	16	no	0	1	2000	0	0			0	0			1				0	
6.6.1	mac	2023-06-16	17:56:32	18:02:40	366215	6100c17164f9f4c063f4d25f	3	1	practice_slash	5	advance_on_keypress_SLASH	26	stimuli_distractor_trianglediamonds.svg	stimuli_distractor_diamondtriangles.svg	16	no	57	0	454	0	0			0	0			1				0	
6.6.1	mac	2023-06-16	17:56:32	18:02:44	370300	6100c17164f9f4c063f4d25f	3	1	practice_slash	5	practice_slash	27	stimuli_distractor_trianglediamonds.svg	stimuli_distractor_trianglediamonds.svg	15	no	0	1	2000	0	0			0	0			1				0	
6.6.1	mac	2023-06-16	17:56:32	18:02:44	370300	6100c17164f9f4c063f4d25f	3	1	practice_slash	5	advance_on_keypress_SLASH	28	stimuli_distractor_trianglediamonds.svg	stimuli_distractor_trianglediamonds.svg	15	no	57	0	323	0	0			0	0			1				0	
6.6.1	mac	2023-06-16	17:56:32	18:02:47	373328	6100c17164f9f4c063f4d25f	3	1	practice_slash	5	practice_slash	29	stimuli_distractor_trianglediamonds.svg	stimuli_target_rectanglediamonds.svg	10	yes	53	1	1060	0	0			0	0			1				0	
6.6.1	mac	2023-06-16	17:56:32	18:02:47	373328	6100c17164f9f4c063f4d25f	3	1	practice_slash	5	advance_on_keypress_SLASH	30	stimuli_distractor_trianglediamonds.svg	stimuli_target_rectanglediamonds.svg	10	yes	57	0	374	0	0			0	0			1				0	
6.6.1	mac	2023-06-16	17:56:32	18:02:50	376069	6100c17164f9f4c063f4d25f	3	1	practice_slash	5	practice_slash	31	stimuli_distractor_trianglediamonds.svg	stimuli_target_diamondrectangles.svg	12	yes	53	1	718	0	0			0	0			1				0	
6.6.1	mac	2023-06-16	17:56:32	18:02:50	376069	6100c17164f9f4c063f4d25f	3	1	practice_slash	5	advance_on_keypress_SLASH	32	stimuli_distractor_trianglediamonds.svg	stimuli_target_diamondrectangles.svg	12	yes	57	0	407	0	0			0	0			1				0	
6.6.1	mac	2023-06-16	17:56:32	18:02:57	383131	6100c17164f9f4c063f4d25f	3	1	main_slash	7	main_slash	1	stimuli_target_rectanglediamonds.svg	stimuli_distractor_diamondtriangles.svg	6	yes	53	1	580	0	0			0	0			1				0	
6.6.1	mac	2023-06-16	17:56:32	18:02:57	383131	6100c17164f9f4c063f4d25f	3	1	main_slash	7	advance_on_keypress_SLASH	2	stimuli_target_rectanglediamonds.svg	stimuli_distractor_diamondtriangles.svg	6	yes	57	0	1068	0	0			0	0			1				0	
6.6.1	mac	2023-06-16	17:56:32	18:03:00	385523	6100c17164f9f4c063f4d25f	3	1	main_slash	7	main_slash	3	stimuli_target_diamondrectangles.svg	stimuli_distractor_diamondtriangles.svg	23	yes	53	1	676	0	0			0	0			1				0	
6.6.1	mac	2023-06-16	17:56:32	18:03:00	385523	6100c17164f9f4c063f4d25f	3	1	main_slash	7	advance_on_keypress_SLASH	4	stimuli_target_diamondrectangles.svg	stimuli_distractor_diamondtriangles.svg	23	yes	57	0	559	0	0			0	0			1				0	
6.6.1	mac	2023-06-16	17:56:32	18:03:03	388715	6100c17164f9f4c063f4d25f	3	1	main_slash	7	main_slash	5	stimuli_distractor_diamondtriangles.svg	stimuli_distractor_diamondtriangles.svg	39	no	0	1	2000	0	0			0	0			1				0	
6.6.1	mac	2023-06-16	17:56:32	18:03:03	388715	6100c17164f9f4c063f4d25f	3	1	main_slash	7	advance_on_keypress_SLASH	6	stimuli_distractor_diamondtriangles.svg	stimuli_distractor_diamondtriangles.svg	39	no	57	0	526	0	0			0	0			1				0	
6.6.1	mac	2023-06-16	17:56:32	18:03:05	390694	6100c17164f9f4c063f4d25f	3	1	main_slash	7	main_slash	7	stimuli_distractor_diamondtriangles.svg	stimuli_target_squaretriangles.svg	15	yes	53	1	810	0	0			0	0			1				0	
6.6.1	mac	2023-06-16	17:56:32	18:03:05	390694	6100c17164f9f4c063f4d25f	3	1	main_slash	7	advance_on_keypress_SLASH	8	stimuli_distractor_diamondtriangles.svg	stimuli_target_squaretriangles.svg	15	yes	57	0	594	0	0			0	0			1				0	
6.6.1	mac	2023-06-16	17:56:32	18:03:07	392959	6100c17164f9f4c063f4d25f	3	1	main_slash	7	main_slash	9	stimuli_distractor_trianglediamonds.svg	stimuli_target_rectangletriangles.svg	9	yes	53	1	1024	0	0			0	0			1				0	
6.6.1	mac	2023-06-16	17:56:32	18:03:07	392959	6100c17164f9f4c063f4d25f	3	1	main_slash	7	advance_on_keypress_SLASH	10	stimuli_distractor_trianglediamonds.svg	stimuli_target_rectangletriangles.svg	9	yes	57	0	833	0	0			0	0			1				0	
6.6.1	mac	2023-06-16	17:56:32	18:03:11	396416	6100c17164f9f4c063f4d25f	3	1	main_slash	7	main_slash	11	stimuli_distractor_diamondtriangles.svg	stimuli_distractor_trianglediamonds.svg	38	no	0	1	2000	0	0			0	0			1				0	
6.6.1	mac	2023-06-16	17:56:32	18:03:11	396416	6100c17164f9f4c063f4d25f	3	1	main_slash	7	advance_on_keypress_SLASH	12	stimuli_distractor_diamondtriangles.svg	stimuli_distractor_trianglediamonds.svg	38	no	57	0	577	0	0			0	0			1				0	
6.6.1	mac	2023-06-16	17:56:32	18:03:14	399632	6100c17164f9f4c063f4d25f	3	1	main_slash	7	main_slash	13	stimuli_distractor_diamondtriangles.svg	stimuli_target_squarediamonds.svg	16	yes	0	0	2000	0	0			0	0			1				0	
6.6.1	mac	2023-06-16	17:56:32	18:03:14	399632	6100c17164f9f4c063f4d25f	3	1	main_slash	7	advance_on_keypress_SLASH	14	stimuli_distractor_diamondtriangles.svg	stimuli_target_squarediamonds.svg	16	yes	57	0	1772	0	0			0	0			1				0	
6.6.1	mac	2023-06-16	17:56:32	18:03:18	403542	6100c17164f9f4c063f4d25f	3	1	main_slash	7	main_slash	15	stimuli_target_diamondsquares.svg	stimuli_distractor_diamondtriangles.svg	24	yes	53	1	1506	0	0			0	0			1				0	
6.6.1	mac	2023-06-16	17:56:32	18:03:18	403542	6100c17164f9f4c063f4d25f	3	1	main_slash	7	advance_on_keypress_SLASH	16	stimuli_target_diamondsquares.svg	stimuli_distractor_diamondtriangles.svg	24	yes	57	0	1132	0	0			0	0			1				0	
6.6.1	mac	2023-06-16	17:56:32	18:03:21	407315	6100c17164f9f4c063f4d25f	3	1	main_slash	7	main_slash	17	stimuli_distractor_diamondtriangles.svg	stimuli_distractor_diamondtriangles.svg	40	no	0	1	2000	0	0			0	0			1				0	
6.6.1	mac	2023-06-16	17:56:32	18:03:21	407315	6100c17164f9f4c063f4d25f	3	1	main_slash	7	advance_on_keypress_SLASH	18	stimuli_distractor_diamondtriangles.svg	stimuli_distractor_diamondtriangles.svg	40	no	57	0	539	0	0			0	0			1				0	
6.6.1	mac	2023-06-16	17:56:32	18:03:24	409852	6100c17164f9f4c063f4d25f	3	1	main_slash	7	main_slash	19	stimuli_distractor_trianglediamonds.svg	stimuli_target_trianglesquares.svg	26	yes	53	1	1367	0	0			0	0			1				0	
6.6.1	mac	2023-06-16	17:56:32	18:03:24	409852	6100c17164f9f4c063f4d25f	3	1	main_slash	7	advance_on_keypress_SLASH	20	stimuli_distractor_trianglediamonds.svg	stimuli_target_trianglesquares.svg	26	yes	57	0	1845	0	0			0	0			1				0	
6.6.1	mac	2023-06-16	17:56:32	18:03:28	413549	6100c17164f9f4c063f4d25f	3	1	main_slash	7	main_slash	21	stimuli_target_rectangletriangles.svg	stimuli_distractor_diamondtriangles.svg	5	yes	53	1	1214	0	0			0	0			1				0	
6.6.1	mac	2023-06-16	17:56:32	18:03:28	413549	6100c17164f9f4c063f4d25f	3	1	main_slash	7	advance_on_keypress_SLASH	22	stimuli_target_rectangletriangles.svg	stimuli_distractor_diamondtriangles.svg	5	yes	57	0	877	0	0			0	0			1				0	
6.6.1	mac	2023-06-16	17:56:32	18:03:30	416032	6100c17164f9f4c063f4d25f	3	1	main_slash	7	main_slash	23	stimuli_distractor_trianglediamonds.svg	stimuli_target_squarediamonds.svg	12	yes	53	1	964	0	0			0	0			1				0	
6.6.1	mac	2023-06-16	17:56:32	18:03:30	416032	6100c17164f9f4c063f4d25f	3	1	main_slash	7	advance_on_keypress_SLASH	24	stimuli_distractor_trianglediamonds.svg	stimuli_target_squarediamonds.svg	12	yes	57	0	487	0	0			0	0			1				0	
6.6.1	mac	2023-06-16	17:56:32	18:03:32	418018	6100c17164f9f4c063f4d25f	3	1	main_slash	7	main_slash	25	stimuli_target_squarediamonds.svg	stimuli_distractor_diamondtriangles.svg	8	yes	53	1	867	0	0			0	0			1				0	
6.6.1	mac	2023-06-16	17:56:32	18:03:32	418018	6100c17164f9f4c063f4d25f	3	1	main_slash	7	advance_on_keypress_SLASH	26	stimuli_target_squarediamonds.svg	stimuli_distractor_diamondtriangles.svg	8	yes	57	0	489	0	0			0	0			1				0	
6.6.1	mac	2023-06-16	17:56:32	18:03:34	420164	6100c17164f9f4c063f4d25f	3	1	main_slash	7	main_slash	27	stimuli_distractor_diamondtriangles.svg	stimuli_target_diamondrectangles.svg	31	yes	53	1	1030	0	0			0	0			1				0	
6.6.1	mac	2023-06-16	17:56:32	18:03:34	420164	6100c17164f9f4c063f4d25f	3	1	main_slash	7	advance_on_keypress_SLASH	28	stimuli_distractor_diamondtriangles.svg	stimuli_target_diamondrectangles.svg	31	yes	57	0	412	0	0			0	0			1				0	
6.6.1	mac	2023-06-16	17:56:32	18:03:36	422201	6100c17164f9f4c063f4d25f	3	1	main_slash	7	main_slash	29	stimuli_distractor_diamondtriangles.svg	stimuli_target_rectangletriangles.svg	13	yes	53	1	984	0	0			0	0			1				0	
6.6.1	mac	2023-06-16	17:56:32	18:03:36	422201	6100c17164f9f4c063f4d25f	3	1	main_slash	7	advance_on_keypress_SLASH	30	stimuli_distractor_diamondtriangles.svg	stimuli_target_rectangletriangles.svg	13	yes	57	0	453	0	0			0	0			1				0	
6.6.1	mac	2023-06-16	17:56:32	18:03:38	424236	6100c17164f9f4c063f4d25f	3	1	main_slash	7	main_slash	31	stimuli_distractor_trianglediamonds.svg	stimuli_target_diamondsquares.svg	28	yes	53	1	951	0	0			0	0			1				0	
6.6.1	mac	2023-06-16	17:56:32	18:03:38	424236	6100c17164f9f4c063f4d25f	3	1	main_slash	7	advance_on_keypress_SLASH	32	stimuli_distractor_trianglediamonds.svg	stimuli_target_diamondsquares.svg	28	yes	57	0	415	0	0			0	0			1				0	
6.6.1	mac	2023-06-16	17:56:32	18:03:41	427283	6100c17164f9f4c063f4d25f	3	1	main_slash	7	main_slash	33	stimuli_distractor_trianglediamonds.svg	stimuli_distractor_diamondtriangles.svg	36	no	0	1	2000	0	0			0	0			1				0	
6.6.1	mac	2023-06-16	17:56:32	18:03:41	427283	6100c17164f9f4c063f4d25f	3	1	main_slash	7	advance_on_keypress_SLASH	34	stimuli_distractor_trianglediamonds.svg	stimuli_distractor_diamondtriangles.svg	36	no	57	0	467	0	0			0	0			1				0	
6.6.1	mac	2023-06-16	17:56:32	18:03:43	429319	6100c17164f9f4c063f4d25f	3	1	main_slash	7	main_slash	35	stimuli_distractor_trianglediamonds.svg	stimuli_target_rectanglediamonds.svg	10	yes	53	1	934	0	0			0	0			1				0	
6.6.1	mac	2023-06-16	17:56:32	18:03:43	429319	6100c17164f9f4c063f4d25f	3	1	main_slash	7	advance_on_keypress_SLASH	36	stimuli_distractor_trianglediamonds.svg	stimuli_target_rectanglediamonds.svg	10	yes	57	0	1083	0	0			0	0			1				0	
6.6.1	mac	2023-06-16	17:56:32	18:03:46	432371	6100c17164f9f4c063f4d25f	3	1	main_slash	7	main_slash	37	stimuli_target_trianglesquares.svg	stimuli_distractor_trianglediamonds.svg	18	yes	53	1	1334	0	0			0	0			1				0	
6.6.1	mac	2023-06-16	17:56:32	18:03:46	432371	6100c17164f9f4c063f4d25f	3	1	main_slash	7	advance_on_keypress_SLASH	38	stimuli_target_trianglesquares.svg	stimuli_distractor_trianglediamonds.svg	18	yes	57	0	703	0	0			0	0			1				0	
6.6.1	mac	2023-06-16	17:56:32	18:03:49	434769	6100c17164f9f4c063f4d25f	3	1	main_slash	7	main_slash	39	stimuli_target_rectangletriangles.svg	stimuli_distractor_trianglediamonds.svg	1	yes	53	1	1066	0	0			0	0			1				0	
6.6.1	mac	2023-06-16	17:56:32	18:03:49	434769	6100c17164f9f4c063f4d25f	3	1	main_slash	7	advance_on_keypress_SLASH	40	stimuli_target_rectangletriangles.svg	stimuli_distractor_trianglediamonds.svg	1	yes	57	0	571	0	0			0	0			1				0	
6.6.1	mac	2023-06-16	17:56:32	18:03:52	437966	6100c17164f9f4c063f4d25f	3	1	main_slash	7	main_slash	41	stimuli_distractor_trianglediamonds.svg	stimuli_distractor_diamondtriangles.svg	35	no	0	1	2000	0	0			0	0			1				0	
6.6.1	mac	2023-06-16	17:56:32	18:03:52	437966	6100c17164f9f4c063f4d25f	3	1	main_slash	7	advance_on_keypress_SLASH	42	stimuli_distractor_trianglediamonds.svg	stimuli_distractor_diamondtriangles.svg	35	no	57	0	1045	0	0			0	0			1				0	
6.6.1	mac	2023-06-16	17:56:32	18:03:55	440826	6100c17164f9f4c063f4d25f	3	1	main_slash	7	main_slash	43	stimuli_target_trianglerectangles.svg	stimuli_distractor_trianglediamonds.svg	17	yes	53	1	1160	0	0			0	0			1				0	
6.6.1	mac	2023-06-16	17:56:32	18:03:55	440826	6100c17164f9f4c063f4d25f	3	1	main_slash	7	advance_on_keypress_SLASH	44	stimuli_target_trianglerectangles.svg	stimuli_distractor_trianglediamonds.svg	17	yes	57	0	736	0	0			0	0			1				0	
6.6.1	mac	2023-06-16	17:56:32	18:03:57	443257	6100c17164f9f4c063f4d25f	3	1	main_slash	7	main_slash	45	stimuli_target_trianglesquares.svg	stimuli_distractor_diamondtriangles.svg	22	yes	53	1	1071	0	0			0	0			1				0	
6.6.1	mac	2023-06-16	17:56:32	18:03:57	443257	6100c17164f9f4c063f4d25f	3	1	main_slash	7	advance_on_keypress_SLASH	46	stimuli_target_trianglesquares.svg	stimuli_distractor_diamondtriangles.svg	22	yes	57	0	642	0	0			0	0			1				0	
6.6.1	mac	2023-06-16	17:56:32	18:04:01	446517	6100c17164f9f4c063f4d25f	3	1	main_slash	7	main_slash	47	stimuli_distractor_trianglediamonds.svg	stimuli_target_squaretriangles.svg	11	yes	0	0	2000	0	0			0	0			1				0	
6.6.1	mac	2023-06-16	17:56:32	18:04:01	446517	6100c17164f9f4c063f4d25f	3	1	main_slash	7	advance_on_keypress_SLASH	48	stimuli_distractor_trianglediamonds.svg	stimuli_target_squaretriangles.svg	11	yes	57	0	1003	0	0			0	0			1				0	
6.6.1	mac	2023-06-16	17:56:32	18:04:03	449128	6100c17164f9f4c063f4d25f	3	1	main_slash	7	main_slash	49	stimuli_target_diamondrectangles.svg	stimuli_distractor_trianglediamonds.svg	19	yes	53	1	975	0	0			0	0			1				0	
6.6.1	mac	2023-06-16	17:56:32	18:04:03	449128	6100c17164f9f4c063f4d25f	3	1	main_slash	7	advance_on_keypress_SLASH	50	stimuli_target_diamondrectangles.svg	stimuli_distractor_trianglediamonds.svg	19	yes	57	0	3062	0	0			0	0			1				0	
6.6.1	mac	2023-06-16	17:56:32	18:04:08	453985	6100c17164f9f4c063f4d25f	3	1	main_slash	7	main_slash	51	stimuli_target_rectanglediamonds.svg	stimuli_distractor_trianglediamonds.svg	2	yes	53	1	1150	0	0			0	0			1				0	
6.6.1	mac	2023-06-16	17:56:32	18:04:08	453985	6100c17164f9f4c063f4d25f	3	1	main_slash	7	advance_on_keypress_SLASH	52	stimuli_target_rectanglediamonds.svg	stimuli_distractor_trianglediamonds.svg	2	yes	57	0	658	0	0			0	0			1				0	
6.6.1	mac	2023-06-16	17:56:32	18:04:10	456355	6100c17164f9f4c063f4d25f	3	1	main_slash	7	main_slash	53	stimuli_distractor_trianglediamonds.svg	stimuli_target_trianglerectangles.svg	25	yes	53	1	1069	0	0			0	0			1				0	
6.6.1	mac	2023-06-16	17:56:32	18:04:10	456355	6100c17164f9f4c063f4d25f	3	1	main_slash	7	advance_on_keypress_SLASH	54	stimuli_distractor_trianglediamonds.svg	stimuli_target_trianglerectangles.svg	25	yes	57	0	531	0	0			0	0			1				0	
6.6.1	mac	2023-06-16	17:56:32	18:04:13	458514	6100c17164f9f4c063f4d25f	3	1	main_slash	7	main_slash	55	stimuli_distractor_diamondtriangles.svg	stimuli_target_diamondsquares.svg	32	yes	53	1	995	0	0			0	0			1				0	
6.6.1	mac	2023-06-16	17:56:32	18:04:13	458514	6100c17164f9f4c063f4d25f	3	1	main_slash	7	advance_on_keypress_SLASH	56	stimuli_distractor_diamondtriangles.svg	stimuli_target_diamondsquares.svg	32	yes	57	0	550	0	0			0	0			1				0	
6.6.1	mac	2023-06-16	17:56:32	18:04:15	460723	6100c17164f9f4c063f4d25f	3	1	main_slash	7	main_slash	57	stimuli_distractor_diamondtriangles.svg	stimuli_target_trianglerectangles.svg	29	yes	53	1	1021	0	0			0	0			1				0	
6.6.1	mac	2023-06-16	17:56:32	18:04:15	460723	6100c17164f9f4c063f4d25f	3	1	main_slash	7	advance_on_keypress_SLASH	58	stimuli_distractor_diamondtriangles.svg	stimuli_target_trianglerectangles.svg	29	yes	57	0	811	0	0			0	0			1				0	
6.6.1	mac	2023-06-16	17:56:32	18:04:17	463134	6100c17164f9f4c063f4d25f	3	1	main_slash	7	main_slash	59	stimuli_target_diamondsquares.svg	stimuli_distractor_trianglediamonds.svg	20	yes	53	1	965	0	0			0	0			1				0	
6.6.1	mac	2023-06-16	17:56:32	18:04:17	463134	6100c17164f9f4c063f4d25f	3	1	main_slash	7	advance_on_keypress_SLASH	60	stimuli_target_diamondsquares.svg	stimuli_distractor_trianglediamonds.svg	20	yes	57	0	614	0	0			0	0			1				0	
6.6.1	mac	2023-06-16	17:56:32	18:04:20	466384	6100c17164f9f4c063f4d25f	3	1	main_slash	7	main_slash	61	stimuli_target_squaretriangles.svg	stimuli_distractor_trianglediamonds.svg	3	yes	0	0	2000	0	0			0	0			1				0	
6.6.1	mac	2023-06-16	17:56:32	18:04:20	466384	6100c17164f9f4c063f4d25f	3	1	main_slash	7	advance_on_keypress_SLASH	62	stimuli_target_squaretriangles.svg	stimuli_distractor_trianglediamonds.svg	3	yes	57	0	697	0	0			0	0			1				0	
6.6.1	mac	2023-06-16	17:56:32	18:04:24	469488	6100c17164f9f4c063f4d25f	3	1	main_slash	7	main_slash	63	stimuli_distractor_trianglediamonds.svg	stimuli_distractor_trianglediamonds.svg	34	no	53	0	1768	0	0			0	0			1				0	
6.6.1	mac	2023-06-16	17:56:32	18:04:24	469488	6100c17164f9f4c063f4d25f	3	1	main_slash	7	advance_on_keypress_SLASH	64	stimuli_distractor_trianglediamonds.svg	stimuli_distractor_trianglediamonds.svg	34	no	57	0	506	0	0			0	0			1				0	
6.6.1	mac	2023-06-16	17:56:32	18:04:26	471897	6100c17164f9f4c063f4d25f	3	1	main_slash	7	main_slash	65	stimuli_target_squarediamonds.svg	stimuli_distractor_trianglediamonds.svg	4	yes	53	1	1261	0	0			0	0			1				0	
6.6.1	mac	2023-06-16	17:56:32	18:04:26	471897	6100c17164f9f4c063f4d25f	3	1	main_slash	7	advance_on_keypress_SLASH	66	stimuli_target_squarediamonds.svg	stimuli_distractor_trianglediamonds.svg	4	yes	57	0	661	0	0			0	0			1				0	
6.6.1	mac	2023-06-16	17:56:32	18:04:29	475201	6100c17164f9f4c063f4d25f	3	1	main_slash	7	main_slash	67	stimuli_distractor_diamondtriangles.svg	stimuli_distractor_trianglediamonds.svg	37	no	0	1	2000	0	0			0	0			1				0	
6.6.1	mac	2023-06-16	17:56:32	18:04:29	475201	6100c17164f9f4c063f4d25f	3	1	main_slash	7	advance_on_keypress_SLASH	68	stimuli_distractor_diamondtriangles.svg	stimuli_distractor_trianglediamonds.svg	37	no	57	0	55	0	0			0	0			1				0	
6.6.1	mac	2023-06-16	17:56:32	18:04:31	476712	6100c17164f9f4c063f4d25f	3	1	main_slash	7	main_slash	69	stimuli_distractor_diamondtriangles.svg	stimuli_target_trianglesquares.svg	30	yes	53	1	825	0	0			0	0			1				0	
6.6.1	mac	2023-06-16	17:56:32	18:04:31	476712	6100c17164f9f4c063f4d25f	3	1	main_slash	7	advance_on_keypress_SLASH	70	stimuli_distractor_diamondtriangles.svg	stimuli_target_trianglesquares.svg	30	yes	57	0	765	0	0			0	0			1				0	
6.6.1	mac	2023-06-16	17:56:32	18:04:34	479552	6100c17164f9f4c063f4d25f	3	1	main_slash	7	main_slash	71	stimuli_distractor_trianglediamonds.svg	stimuli_target_diamondrectangles.svg	27	yes	53	1	1432	0	0			0	0			1				0	
6.6.1	mac	2023-06-16	17:56:32	18:04:34	479552	6100c17164f9f4c063f4d25f	3	1	main_slash	7	advance_on_keypress_SLASH	72	stimuli_distractor_trianglediamonds.svg	stimuli_target_diamondrectangles.svg	27	yes	57	0	512	0	0			0	0			1				0	
6.6.1	mac	2023-06-16	17:56:32	18:04:36	482001	6100c17164f9f4c063f4d25f	3	1	main_slash	7	main_slash	73	stimuli_distractor_diamondtriangles.svg	stimuli_target_rectanglediamonds.svg	14	yes	53	1	1298	0	0			0	0			1				0	
6.6.1	mac	2023-06-16	17:56:32	18:04:36	482001	6100c17164f9f4c063f4d25f	3	1	main_slash	7	advance_on_keypress_SLASH	74	stimuli_distractor_diamondtriangles.svg	stimuli_target_rectanglediamonds.svg	14	yes	57	0	459	0	0			0	0			1				0	
6.6.1	mac	2023-06-16	17:56:32	18:04:39	485100	6100c17164f9f4c063f4d25f	3	1	main_slash	7	main_slash	75	stimuli_target_squaretriangles.svg	stimuli_distractor_diamondtriangles.svg	7	yes	0	0	2000	0	0			0	0			1				0	
6.6.1	mac	2023-06-16	17:56:32	18:04:39	485100	6100c17164f9f4c063f4d25f	3	1	main_slash	7	advance_on_keypress_SLASH	76	stimuli_target_squaretriangles.svg	stimuli_distractor_diamondtriangles.svg	7	yes	57	0	536	0	0			0	0			1				0	
6.6.1	mac	2023-06-16	17:56:32	18:04:42	488267	6100c17164f9f4c063f4d25f	3	1	main_slash	7	main_slash	77	stimuli_target_trianglerectangles.svg	stimuli_distractor_diamondtriangles.svg	21	yes	0	0	2000	0	0			0	0			1				0	
6.6.1	mac	2023-06-16	17:56:32	18:04:42	488267	6100c17164f9f4c063f4d25f	3	1	main_slash	7	advance_on_keypress_SLASH	78	stimuli_target_trianglerectangles.svg	stimuli_distractor_diamondtriangles.svg	21	yes	57	0	598	0	0			0	0			1				0	
6.6.1	mac	2023-06-16	17:56:32	18:04:46	491501	6100c17164f9f4c063f4d25f	3	1	main_slash	7	main_slash	79	stimuli_distractor_trianglediamonds.svg	stimuli_distractor_trianglediamonds.svg	33	no	0	1	2000	0	0			0	0			1				0	
6.6.1	mac	2023-06-16	17:56:32	18:04:46	491501	6100c17164f9f4c063f4d25f	3	1	main_slash	7	advance_on_keypress_SLASH	80	stimuli_distractor_trianglediamonds.svg	stimuli_distractor_trianglediamonds.svg	33	no	57	0	476	0	0			0	0			1				0	
6.6.1	mac	2023-06-16	17:56:32	18:04:48	493588	6100c17164f9f4c063f4d25f	3	1	main_slash	7	main_slash	81	stimuli_distractor_trianglediamonds.svg	stimuli_target_squarediamonds.svg	12	yes	53	1	968	0	0			0	0			1				0	
6.6.1	mac	2023-06-16	17:56:32	18:04:48	493588	6100c17164f9f4c063f4d25f	3	1	main_slash	7	advance_on_keypress_SLASH	82	stimuli_distractor_trianglediamonds.svg	stimuli_target_squarediamonds.svg	12	yes	57	0	459	0	0			0	0			1				0	
6.6.1	mac	2023-06-16	17:56:32	18:04:50	495658	6100c17164f9f4c063f4d25f	3	1	main_slash	7	main_slash	83	stimuli_target_rectangletriangles.svg	stimuli_distractor_trianglediamonds.svg	1	yes	53	1	972	0	0			0	0			1				0	
6.6.1	mac	2023-06-16	17:56:32	18:04:50	495658	6100c17164f9f4c063f4d25f	3	1	main_slash	7	advance_on_keypress_SLASH	84	stimuli_target_rectangletriangles.svg	stimuli_distractor_trianglediamonds.svg	1	yes	57	0	311	0	0			0	0			1				0	
6.6.1	mac	2023-06-16	17:56:32	18:04:52	497523	6100c17164f9f4c063f4d25f	3	1	main_slash	7	main_slash	85	stimuli_target_diamondrectangles.svg	stimuli_distractor_trianglediamonds.svg	19	yes	53	1	920	0	0			0	0			1				0	
6.6.1	mac	2023-06-16	17:56:32	18:04:52	497523	6100c17164f9f4c063f4d25f	3	1	main_slash	7	advance_on_keypress_SLASH	86	stimuli_target_diamondrectangles.svg	stimuli_distractor_trianglediamonds.svg	19	yes	57	0	479	0	0			0	0			1				0	
6.6.1	mac	2023-06-16	17:56:32	18:04:54	499499	6100c17164f9f4c063f4d25f	3	1	main_slash	7	main_slash	87	stimuli_target_rectanglediamonds.svg	stimuli_distractor_trianglediamonds.svg	2	yes	53	1	846	0	0			0	0			1				0	
6.6.1	mac	2023-06-16	17:56:32	18:04:54	499499	6100c17164f9f4c063f4d25f	3	1	main_slash	7	advance_on_keypress_SLASH	88	stimuli_target_rectanglediamonds.svg	stimuli_distractor_trianglediamonds.svg	2	yes	57	0	458	0	0			0	0			1				0	
6.6.1	mac	2023-06-16	17:56:32	18:04:55	501334	6100c17164f9f4c063f4d25f	3	1	main_slash	7	main_slash	89	stimuli_distractor_diamondtriangles.svg	stimuli_target_trianglesquares.svg	30	yes	53	1	748	0	0			0	0			1				0	
6.6.1	mac	2023-06-16	17:56:32	18:04:55	501334	6100c17164f9f4c063f4d25f	3	1	main_slash	7	advance_on_keypress_SLASH	90	stimuli_distractor_diamondtriangles.svg	stimuli_target_trianglesquares.svg	30	yes	57	0	598	0	0			0	0			1				0	
6.6.1	mac	2023-06-16	17:56:32	18:04:59	504568	6100c17164f9f4c063f4d25f	3	1	main_slash	7	main_slash	91	stimuli_target_squaretriangles.svg	stimuli_distractor_trianglediamonds.svg	3	yes	0	0	2000	0	0			0	0			1				0	
6.6.1	mac	2023-06-16	17:56:32	18:04:59	504568	6100c17164f9f4c063f4d25f	3	1	main_slash	7	advance_on_keypress_SLASH	92	stimuli_target_squaretriangles.svg	stimuli_distractor_trianglediamonds.svg	3	yes	57	0	105	0	0			0	0			1				0	
6.6.1	mac	2023-06-16	17:56:32	18:05:01	506593	6100c17164f9f4c063f4d25f	3	1	main_slash	7	main_slash	93	stimuli_distractor_trianglediamonds.svg	stimuli_target_diamondrectangles.svg	27	yes	53	1	1288	0	0			0	0			1				0	
6.6.1	mac	2023-06-16	17:56:32	18:05:01	506593	6100c17164f9f4c063f4d25f	3	1	main_slash	7	advance_on_keypress_SLASH	94	stimuli_distractor_trianglediamonds.svg	stimuli_target_diamondrectangles.svg	27	yes	57	0	612	0	0			0	0			1				0	
6.6.1	mac	2023-06-16	17:56:32	18:05:03	508664	6100c17164f9f4c063f4d25f	3	1	main_slash	7	main_slash	95	stimuli_target_squarediamonds.svg	stimuli_distractor_trianglediamonds.svg	4	yes	53	1	826	0	0			0	0			1				0	
6.6.1	mac	2023-06-16	17:56:32	18:05:03	508664	6100c17164f9f4c063f4d25f	3	1	main_slash	7	advance_on_keypress_SLASH	96	stimuli_target_squarediamonds.svg	stimuli_distractor_trianglediamonds.svg	4	yes	57	0	418	0	0			0	0			1				0	
6.6.1	mac	2023-06-16	17:56:32	18:05:05	510947	6100c17164f9f4c063f4d25f	3	1	main_slash	7	main_slash	97	stimuli_target_trianglesquares.svg	stimuli_distractor_trianglediamonds.svg	18	yes	53	1	1226	0	0			0	0			1				0	
6.6.1	mac	2023-06-16	17:56:32	18:05:05	510947	6100c17164f9f4c063f4d25f	3	1	main_slash	7	advance_on_keypress_SLASH	98	stimuli_target_trianglesquares.svg	stimuli_distractor_trianglediamonds.svg	18	yes	57	0	418	0	0			0	0			1				0	
6.6.1	mac	2023-06-16	17:56:32	18:05:07	512655	6100c17164f9f4c063f4d25f	3	1	main_slash	7	main_slash	99	stimuli_target_trianglerectangles.svg	stimuli_distractor_diamondtriangles.svg	21	yes	53	1	652	0	0			0	0			1				0	
6.6.1	mac	2023-06-16	17:56:32	18:05:07	512655	6100c17164f9f4c063f4d25f	3	1	main_slash	7	advance_on_keypress_SLASH	100	stimuli_target_trianglerectangles.svg	stimuli_distractor_diamondtriangles.svg	21	yes	57	0	392	0	0			0	0			1				0	
6.6.1	mac	2023-06-16	17:56:32	18:05:10	515685	6100c17164f9f4c063f4d25f	3	1	main_slash	7	main_slash	101	stimuli_distractor_diamondtriangles.svg	stimuli_distractor_trianglediamonds.svg	37	no	0	1	2000	0	0			0	0			1				0	
6.6.1	mac	2023-06-16	17:56:32	18:05:10	515685	6100c17164f9f4c063f4d25f	3	1	main_slash	7	advance_on_keypress_SLASH	102	stimuli_distractor_diamondtriangles.svg	stimuli_distractor_trianglediamonds.svg	37	no	57	0	1241	0	0			0	0			1				0	
6.6.1	mac	2023-06-16	17:56:32	18:05:13	518494	6100c17164f9f4c063f4d25f	3	1	main_slash	7	main_slash	103	stimuli_distractor_diamondtriangles.svg	stimuli_target_diamondrectangles.svg	31	yes	53	1	942	0	0			0	0			1				0	
6.6.1	mac	2023-06-16	17:56:32	18:05:13	518494	6100c17164f9f4c063f4d25f	3	1	main_slash	7	advance_on_keypress_SLASH	104	stimuli_distractor_diamondtriangles.svg	stimuli_target_diamondrectangles.svg	31	yes	57	0	462	0	0			0	0			1				0	
6.6.1	mac	2023-06-16	17:56:32	18:05:16	521585	6100c17164f9f4c063f4d25f	3	1	main_slash	7	main_slash	105	stimuli_target_squaretriangles.svg	stimuli_distractor_diamondtriangles.svg	7	yes	0	0	2000	0	0			0	0			1				0	
6.6.1	mac	2023-06-16	17:56:32	18:05:16	521585	6100c17164f9f4c063f4d25f	3	1	main_slash	7	advance_on_keypress_SLASH	106	stimuli_target_squaretriangles.svg	stimuli_distractor_diamondtriangles.svg	7	yes	57	0	492	0	0			0	0			1				0	
6.6.1	mac	2023-06-16	17:56:32	18:05:18	523628	6100c17164f9f4c063f4d25f	3	1	main_slash	7	main_slash	107	stimuli_target_diamondrectangles.svg	stimuli_distractor_diamondtriangles.svg	23	yes	53	1	908	0	0			0	0			1				0	
6.6.1	mac	2023-06-16	17:56:32	18:05:18	523628	6100c17164f9f4c063f4d25f	3	1	main_slash	7	advance_on_keypress_SLASH	108	stimuli_target_diamondrectangles.svg	stimuli_distractor_diamondtriangles.svg	23	yes	57	0	396	0	0			0	0			1				0	
6.6.1	mac	2023-06-16	17:56:32	18:05:20	525693	6100c17164f9f4c063f4d25f	3	1	main_slash	7	main_slash	109	stimuli_distractor_trianglediamonds.svg	stimuli_target_rectangletriangles.svg	9	yes	53	1	1022	0	0			0	0			1				0	
6.6.1	mac	2023-06-16	17:56:32	18:05:20	525693	6100c17164f9f4c063f4d25f	3	1	main_slash	7	advance_on_keypress_SLASH	110	stimuli_distractor_trianglediamonds.svg	stimuli_target_rectangletriangles.svg	9	yes	57	0	277	0	0			0	0			1				0	
6.6.1	mac	2023-06-16	17:56:32	18:05:23	528601	6100c17164f9f4c063f4d25f	3	1	main_slash	7	main_slash	111	stimuli_distractor_diamondtriangles.svg	stimuli_distractor_diamondtriangles.svg	40	no	0	1	2000	0	0			0	0			1				0	
6.6.1	mac	2023-06-16	17:56:32	18:05:23	528601	6100c17164f9f4c063f4d25f	3	1	main_slash	7	advance_on_keypress_SLASH	112	stimuli_distractor_diamondtriangles.svg	stimuli_distractor_diamondtriangles.svg	40	no	57	0	543	0	0			0	0			1				0	
6.6.1	mac	2023-06-16	17:56:32	18:05:25	530943	6100c17164f9f4c063f4d25f	3	1	main_slash	7	main_slash	113	stimuli_distractor_diamondtriangles.svg	stimuli_target_diamondsquares.svg	32	yes	53	1	1155	0	0			0	0			1				0	
6.6.1	mac	2023-06-16	17:56:32	18:05:25	530943	6100c17164f9f4c063f4d25f	3	1	main_slash	7	advance_on_keypress_SLASH	114	stimuli_distractor_diamondtriangles.svg	stimuli_target_diamondsquares.svg	32	yes	57	0	416	0	0			0	0			1				0	
6.6.1	mac	2023-06-16	17:56:32	18:05:27	532837	6100c17164f9f4c063f4d25f	3	1	main_slash	7	main_slash	115	stimuli_target_rectangletriangles.svg	stimuli_distractor_diamondtriangles.svg	5	yes	53	1	849	0	0			0	0			1				0	
6.6.1	mac	2023-06-16	17:56:32	18:05:27	532837	6100c17164f9f4c063f4d25f	3	1	main_slash	7	advance_on_keypress_SLASH	116	stimuli_target_rectangletriangles.svg	stimuli_distractor_diamondtriangles.svg	5	yes	57	0	408	0	0			0	0			1				0	
6.6.1	mac	2023-06-16	17:56:32	18:05:29	534799	6100c17164f9f4c063f4d25f	3	1	main_slash	7	main_slash	117	stimuli_target_diamondsquares.svg	stimuli_distractor_diamondtriangles.svg	24	yes	53	1	928	0	0			0	0			1				0	
6.6.1	mac	2023-06-16	17:56:32	18:05:29	534799	6100c17164f9f4c063f4d25f	3	1	main_slash	7	advance_on_keypress_SLASH	118	stimuli_target_diamondsquares.svg	stimuli_distractor_diamondtriangles.svg	24	yes	57	0	346	0	0			0	0			1				0	
6.6.1	mac	2023-06-16	17:56:32	18:05:32	537785	6100c17164f9f4c063f4d25f	3	1	main_slash	7	main_slash	119	stimuli_distractor_diamondtriangles.svg	stimuli_distractor_trianglediamonds.svg	38	no	0	1	2000	0	0			0	0			1				0	
6.6.1	mac	2023-06-16	17:56:32	18:05:32	537785	6100c17164f9f4c063f4d25f	3	1	main_slash	7	advance_on_keypress_SLASH	120	stimuli_distractor_diamondtriangles.svg	stimuli_distractor_trianglediamonds.svg	38	no	57	0	120	0	0			0	0			1				0	
6.6.1	mac	2023-06-16	17:56:32	18:05:34	539745	6100c17164f9f4c063f4d25f	3	1	main_slash	7	main_slash	121	stimuli_target_trianglerectangles.svg	stimuli_distractor_trianglediamonds.svg	17	yes	53	1	1206	0	0			0	0			1				0	
6.6.1	mac	2023-06-16	17:56:32	18:05:34	539745	6100c17164f9f4c063f4d25f	3	1	main_slash	7	advance_on_keypress_SLASH	122	stimuli_target_trianglerectangles.svg	stimuli_distractor_trianglediamonds.svg	17	yes	57	0	422	0	0			0	0			1				0	
6.6.1	mac	2023-06-16	17:56:32	18:05:37	542785	6100c17164f9f4c063f4d25f	3	1	main_slash	7	main_slash	123	stimuli_distractor_diamondtriangles.svg	stimuli_distractor_diamondtriangles.svg	39	no	0	1	2000	0	0			0	0			1				0	
6.6.1	mac	2023-06-16	17:56:32	18:05:37	542785	6100c17164f9f4c063f4d25f	3	1	main_slash	7	advance_on_keypress_SLASH	124	stimuli_distractor_diamondtriangles.svg	stimuli_distractor_diamondtriangles.svg	39	no	57	0	307	0	0			0	0			1				0	
6.6.1	mac	2023-06-16	17:56:32	18:05:38	544367	6100c17164f9f4c063f4d25f	3	1	main_slash	7	main_slash	125	stimuli_distractor_diamondtriangles.svg	stimuli_target_rectanglediamonds.svg	14	yes	53	1	646	0	0			0	0			1				0	
6.6.1	mac	2023-06-16	17:56:32	18:05:38	544367	6100c17164f9f4c063f4d25f	3	1	main_slash	7	advance_on_keypress_SLASH	126	stimuli_distractor_diamondtriangles.svg	stimuli_target_rectanglediamonds.svg	14	yes	57	0	676	0	0			0	0			1				0	
6.6.1	mac	2023-06-16	17:56:32	18:05:41	547243	6100c17164f9f4c063f4d25f	3	1	main_slash	7	main_slash	127	stimuli_distractor_diamondtriangles.svg	stimuli_target_squaretriangles.svg	15	yes	53	1	1555	0	0			0	0			1				0	
6.6.1	mac	2023-06-16	17:56:32	18:05:41	547243	6100c17164f9f4c063f4d25f	3	1	main_slash	7	advance_on_keypress_SLASH	128	stimuli_distractor_diamondtriangles.svg	stimuli_target_squaretriangles.svg	15	yes	57	0	570	0	0			0	0			1				0	
6.6.1	mac	2023-06-16	17:56:32	18:05:43	549321	6100c17164f9f4c063f4d25f	3	1	main_slash	7	main_slash	129	stimuli_distractor_diamondtriangles.svg	stimuli_target_rectangletriangles.svg	13	yes	53	1	883	0	0			0	0			1				0	
6.6.1	mac	2023-06-16	17:56:32	18:05:43	549321	6100c17164f9f4c063f4d25f	3	1	main_slash	7	advance_on_keypress_SLASH	130	stimuli_distractor_diamondtriangles.svg	stimuli_target_rectangletriangles.svg	13	yes	57	0	367	0	0			0	0			1				0	
6.6.1	mac	2023-06-16	17:56:32	18:05:45	551233	6100c17164f9f4c063f4d25f	3	1	main_slash	7	main_slash	131	stimuli_distractor_diamondtriangles.svg	stimuli_target_trianglerectangles.svg	29	yes	53	1	910	0	0			0	0			1				0	
6.6.1	mac	2023-06-16	17:56:32	18:05:45	551233	6100c17164f9f4c063f4d25f	3	1	main_slash	7	advance_on_keypress_SLASH	132	stimuli_distractor_diamondtriangles.svg	stimuli_target_trianglerectangles.svg	29	yes	57	0	443	0	0			0	0			1				0	
6.6.1	mac	2023-06-16	17:56:32	18:05:47	553324	6100c17164f9f4c063f4d25f	3	1	main_slash	7	main_slash	133	stimuli_target_squarediamonds.svg	stimuli_distractor_diamondtriangles.svg	8	yes	53	1	1003	0	0			0	0			1				0	
6.6.1	mac	2023-06-16	17:56:32	18:05:47	553324	6100c17164f9f4c063f4d25f	3	1	main_slash	7	advance_on_keypress_SLASH	134	stimuli_target_squarediamonds.svg	stimuli_distractor_diamondtriangles.svg	8	yes	57	0	416	0	0			0	0			1				0	
6.6.1	mac	2023-06-16	17:56:32	18:05:49	555187	6100c17164f9f4c063f4d25f	3	1	main_slash	7	main_slash	135	stimuli_distractor_trianglediamonds.svg	stimuli_target_rectanglediamonds.svg	10	yes	53	1	817	0	0			0	0			1				0	
6.6.1	mac	2023-06-16	17:56:32	18:05:49	555187	6100c17164f9f4c063f4d25f	3	1	main_slash	7	advance_on_keypress_SLASH	136	stimuli_distractor_trianglediamonds.svg	stimuli_target_rectanglediamonds.svg	10	yes	57	0	417	0	0			0	0			1				0	
6.6.1	mac	2023-06-16	17:56:32	18:05:51	557190	6100c17164f9f4c063f4d25f	3	1	main_slash	7	main_slash	137	stimuli_distractor_trianglediamonds.svg	stimuli_target_trianglerectangles.svg	25	yes	53	1	952	0	0			0	0			1				0	
6.6.1	mac	2023-06-16	17:56:32	18:05:51	557190	6100c17164f9f4c063f4d25f	3	1	main_slash	7	advance_on_keypress_SLASH	138	stimuli_distractor_trianglediamonds.svg	stimuli_target_trianglerectangles.svg	25	yes	57	0	415	0	0			0	0			1				0	
6.6.1	mac	2023-06-16	17:56:32	18:05:53	559243	6100c17164f9f4c063f4d25f	3	1	main_slash	7	main_slash	139	stimuli_target_trianglesquares.svg	stimuli_distractor_diamondtriangles.svg	22	yes	53	1	1006	0	0			0	0			1				0	
6.6.1	mac	2023-06-16	17:56:32	18:05:53	559243	6100c17164f9f4c063f4d25f	3	1	main_slash	7	advance_on_keypress_SLASH	140	stimuli_target_trianglesquares.svg	stimuli_distractor_diamondtriangles.svg	22	yes	57	0	407	0	0			0	0			1				0	
6.6.1	mac	2023-06-16	17:56:32	18:05:56	562336	6100c17164f9f4c063f4d25f	3	1	main_slash	7	main_slash	141	stimuli_distractor_trianglediamonds.svg	stimuli_distractor_trianglediamonds.svg	34	no	0	1	2000	0	0			0	0			1				0	
6.6.1	mac	2023-06-16	17:56:32	18:05:56	562336	6100c17164f9f4c063f4d25f	3	1	main_slash	7	advance_on_keypress_SLASH	142	stimuli_distractor_trianglediamonds.svg	stimuli_distractor_trianglediamonds.svg	34	no	57	0	536	0	0			0	0			1				0	
6.6.1	mac	2023-06-16	17:56:32	18:05:59	564461	6100c17164f9f4c063f4d25f	3	1	main_slash	7	main_slash	143	stimuli_distractor_trianglediamonds.svg	stimuli_target_squaretriangles.svg	11	yes	53	1	955	0	0			0	0			1				0	
6.6.1	mac	2023-06-16	17:56:32	18:05:59	564461	6100c17164f9f4c063f4d25f	3	1	main_slash	7	advance_on_keypress_SLASH	144	stimuli_distractor_trianglediamonds.svg	stimuli_target_squaretriangles.svg	11	yes	57	0	566	0	0			0	0			1				0	
6.6.1	mac	2023-06-16	17:56:32	18:06:01	566582	6100c17164f9f4c063f4d25f	3	1	main_slash	7	main_slash	145	stimuli_distractor_trianglediamonds.svg	stimuli_target_diamondsquares.svg	28	yes	53	1	928	0	0			0	0			1				0	
6.6.1	mac	2023-06-16	17:56:32	18:06:01	566582	6100c17164f9f4c063f4d25f	3	1	main_slash	7	advance_on_keypress_SLASH	146	stimuli_distractor_trianglediamonds.svg	stimuli_target_diamondsquares.svg	28	yes	57	0	415	0	0			0	0			1				0	
6.6.1	mac	2023-06-16	17:56:32	18:06:04	569636	6100c17164f9f4c063f4d25f	3	1	main_slash	7	main_slash	147	stimuli_distractor_trianglediamonds.svg	stimuli_distractor_diamondtriangles.svg	36	no	0	1	2000	0	0			0	0			1				0	
6.6.1	mac	2023-06-16	17:56:32	18:06:04	569636	6100c17164f9f4c063f4d25f	3	1	main_slash	7	advance_on_keypress_SLASH	148	stimuli_distractor_trianglediamonds.svg	stimuli_distractor_diamondtriangles.svg	36	no	57	0	392	0	0			0	0			1				0	
6.6.1	mac	2023-06-16	17:56:32	18:06:06	571430	6100c17164f9f4c063f4d25f	3	1	main_slash	7	main_slash	149	stimuli_target_rectanglediamonds.svg	stimuli_distractor_diamondtriangles.svg	6	yes	53	1	759	0	0			0	0			1				0	
6.6.1	mac	2023-06-16	17:56:32	18:06:06	571430	6100c17164f9f4c063f4d25f	3	1	main_slash	7	advance_on_keypress_SLASH	150	stimuli_target_rectanglediamonds.svg	stimuli_distractor_diamondtriangles.svg	6	yes	57	0	382	0	0			0	0			1				0	
6.6.1	mac	2023-06-16	17:56:32	18:06:09	574453	6100c17164f9f4c063f4d25f	3	1	main_slash	7	main_slash	151	stimuli_distractor_trianglediamonds.svg	stimuli_distractor_diamondtriangles.svg	35	no	0	1	2000	0	0			0	0			1				0	
6.6.1	mac	2023-06-16	17:56:32	18:06:09	574453	6100c17164f9f4c063f4d25f	3	1	main_slash	7	advance_on_keypress_SLASH	152	stimuli_distractor_trianglediamonds.svg	stimuli_distractor_diamondtriangles.svg	35	no	57	0	322	0	0			0	0			1				0	
6.6.1	mac	2023-06-16	17:56:32	18:06:10	576229	6100c17164f9f4c063f4d25f	3	1	main_slash	7	main_slash	153	stimuli_target_diamondsquares.svg	stimuli_distractor_trianglediamonds.svg	20	yes	53	1	824	0	0			0	0			1				0	
6.6.1	mac	2023-06-16	17:56:32	18:06:10	576229	6100c17164f9f4c063f4d25f	3	1	main_slash	7	advance_on_keypress_SLASH	154	stimuli_target_diamondsquares.svg	stimuli_distractor_trianglediamonds.svg	20	yes	57	0	703	0	0			0	0			1				0	
6.6.1	mac	2023-06-16	17:56:32	18:06:14	579552	6100c17164f9f4c063f4d25f	3	1	main_slash	7	main_slash	155	stimuli_distractor_trianglediamonds.svg	stimuli_distractor_trianglediamonds.svg	33	no	0	1	2000	0	0			0	0			1				0	
6.6.1	mac	2023-06-16	17:56:32	18:06:14	579552	6100c17164f9f4c063f4d25f	3	1	main_slash	7	advance_on_keypress_SLASH	156	stimuli_distractor_trianglediamonds.svg	stimuli_distractor_trianglediamonds.svg	33	no	57	0	348	0	0			0	0			1				0	
6.6.1	mac	2023-06-16	17:56:32	18:06:15	581402	6100c17164f9f4c063f4d25f	3	1	main_slash	7	main_slash	157	stimuli_distractor_trianglediamonds.svg	stimuli_target_trianglesquares.svg	26	yes	53	1	863	0	0			0	0			1				0	
6.6.1	mac	2023-06-16	17:56:32	18:06:15	581402	6100c17164f9f4c063f4d25f	3	1	main_slash	7	advance_on_keypress_SLASH	158	stimuli_distractor_trianglediamonds.svg	stimuli_target_trianglesquares.svg	26	yes	57	0	803	0	0			0	0			1				0	
6.6.1	mac	2023-06-16	17:56:32	18:06:18	583938	6100c17164f9f4c063f4d25f	3	1	main_slash	7	main_slash	159	stimuli_distractor_diamondtriangles.svg	stimuli_target_squarediamonds.svg	16	yes	53	1	1100	0	0			0	0			1				0	
6.6.1	mac	2023-06-16	17:56:32	18:06:18	583938	6100c17164f9f4c063f4d25f	3	1	main_slash	7	advance_on_keypress_SLASH	160	stimuli_distractor_diamondtriangles.svg	stimuli_target_squarediamonds.svg	16	yes	57	0	553	0	0			0	0			1				0	
6.6.1	mac	2023-06-16	17:56:32	18:06:49	615164	6100c17164f9f4c063f4d25f	3	1	practice_z	9	practice_z	1	stimuli_target_diamondsquares.svg	stimuli_distractor_trianglediamonds.svg	6	yes	44	1	1376	0	0			0	0			1				0	
6.6.1	mac	2023-06-16	17:56:32	18:06:49	615164	6100c17164f9f4c063f4d25f	3	1	practice_z	9	advance_on_keypress_ZEE	2	stimuli_target_diamondsquares.svg	stimuli_distractor_trianglediamonds.svg	6	yes	57	0	600	0	0			0	0			1				0	
6.6.1	mac	2023-06-16	17:56:32	18:06:52	618093	6100c17164f9f4c063f4d25f	3	1	practice_z	9	practice_z	3	stimuli_distractor_trianglediamonds.svg	stimuli_target_diamondrectangles.svg	12	yes	44	1	687	0	0			0	0			1				0	
6.6.1	mac	2023-06-16	17:56:32	18:06:52	618093	6100c17164f9f4c063f4d25f	3	1	practice_z	9	advance_on_keypress_ZEE	4	stimuli_distractor_trianglediamonds.svg	stimuli_target_diamondrectangles.svg	12	yes	57	0	544	0	0			0	0			1				0	
6.6.1	mac	2023-06-16	17:56:32	18:06:56	621878	6100c17164f9f4c063f4d25f	3	1	practice_z	9	practice_z	5	stimuli_distractor_diamondtriangles.svg	stimuli_target_rectangletriangles.svg	7	yes	44	1	1604	0	0			0	0			1				0	
6.6.1	mac	2023-06-16	17:56:32	18:06:56	621878	6100c17164f9f4c063f4d25f	3	1	practice_z	9	advance_on_keypress_ZEE	6	stimuli_distractor_diamondtriangles.svg	stimuli_target_rectangletriangles.svg	7	yes	57	0	492	0	0			0	0			1				0	
6.6.1	mac	2023-06-16	17:56:32	18:07:00	626004	6100c17164f9f4c063f4d25f	3	1	practice_z	9	practice_z	7	stimuli_distractor_diamondtriangles.svg	stimuli_distractor_trianglediamonds.svg	14	no	0	1	2000	0	0			0	0			1				0	
6.6.1	mac	2023-06-16	17:56:32	18:07:00	626004	6100c17164f9f4c063f4d25f	3	1	practice_z	9	advance_on_keypress_ZEE	8	stimuli_distractor_diamondtriangles.svg	stimuli_distractor_trianglediamonds.svg	14	no	57	0	552	0	0			0	0			1				0	
6.6.1	mac	2023-06-16	17:56:32	18:07:03	629029	6100c17164f9f4c063f4d25f	3	1	practice_z	9	practice_z	9	stimuli_distractor_diamondtriangles.svg	stimuli_target_trianglerectangles.svg	9	yes	44	1	839	0	0			0	0			1				0	
6.6.1	mac	2023-06-16	17:56:32	18:07:03	629029	6100c17164f9f4c063f4d25f	3	1	practice_z	9	advance_on_keypress_ZEE	10	stimuli_distractor_diamondtriangles.svg	stimuli_target_trianglerectangles.svg	9	yes	57	0	525	0	0			0	0			1				0	
6.6.1	mac	2023-06-16	17:56:32	18:07:07	633188	6100c17164f9f4c063f4d25f	3	1	practice_z	9	practice_z	11	stimuli_distractor_trianglediamonds.svg	stimuli_distractor_diamondtriangles.svg	16	no	0	1	2000	0	0			0	0			1				0	
6.6.1	mac	2023-06-16	17:56:32	18:07:07	633188	6100c17164f9f4c063f4d25f	3	1	practice_z	9	advance_on_keypress_ZEE	12	stimuli_distractor_trianglediamonds.svg	stimuli_distractor_diamondtriangles.svg	16	no	57	0	537	0	0			0	0			1				0	
6.6.1	mac	2023-06-16	17:56:32	18:07:10	636320	6100c17164f9f4c063f4d25f	3	1	practice_z	9	practice_z	13	stimuli_distractor_trianglediamonds.svg	stimuli_target_rectanglediamonds.svg	10	yes	44	1	961	0	0			0	0			1				0	
6.6.1	mac	2023-06-16	17:56:32	18:07:10	636320	6100c17164f9f4c063f4d25f	3	1	practice_z	9	advance_on_keypress_ZEE	14	stimuli_distractor_trianglediamonds.svg	stimuli_target_rectanglediamonds.svg	10	yes	57	0	543	0	0			0	0			1				0	
6.6.1	mac	2023-06-16	17:56:32	18:07:14	639469	6100c17164f9f4c063f4d25f	3	1	practice_z	9	practice_z	15	stimuli_distractor_trianglediamonds.svg	stimuli_target_squarediamonds.svg	11	yes	44	1	962	0	0			0	0			1				0	
6.6.1	mac	2023-06-16	17:56:32	18:07:14	639469	6100c17164f9f4c063f4d25f	3	1	practice_z	9	advance_on_keypress_ZEE	16	stimuli_distractor_trianglediamonds.svg	stimuli_target_squarediamonds.svg	11	yes	57	0	442	0	0			0	0			1				0	
6.6.1	mac	2023-06-16	17:56:32	18:07:16	642378	6100c17164f9f4c063f4d25f	3	1	practice_z	9	practice_z	17	stimuli_target_squarediamonds.svg	stimuli_distractor_trianglediamonds.svg	5	yes	44	1	821	0	0			0	0			1				0	
6.6.1	mac	2023-06-16	17:56:32	18:07:16	642378	6100c17164f9f4c063f4d25f	3	1	practice_z	9	advance_on_keypress_ZEE	18	stimuli_target_squarediamonds.svg	stimuli_distractor_trianglediamonds.svg	5	yes	57	0	427	0	0			0	0			1				0	
6.6.1	mac	2023-06-16	17:56:32	18:07:19	645240	6100c17164f9f4c063f4d25f	3	1	practice_z	9	practice_z	19	stimuli_target_rectanglediamonds.svg	stimuli_distractor_diamondtriangles.svg	1	yes	44	1	800	0	0			0	0			1				0	
6.6.1	mac	2023-06-16	17:56:32	18:07:19	645240	6100c17164f9f4c063f4d25f	3	1	practice_z	9	advance_on_keypress_ZEE	20	stimuli_target_rectanglediamonds.svg	stimuli_distractor_diamondtriangles.svg	1	yes	57	0	643	0	0			0	0			1				0	
6.6.1	mac	2023-06-16	17:56:32	18:07:24	649545	6100c17164f9f4c063f4d25f	3	1	practice_z	9	practice_z	21	stimuli_distractor_diamondtriangles.svg	stimuli_distractor_diamondtriangles.svg	13	no	0	1	2000	0	0			0	0			1				0	
6.6.1	mac	2023-06-16	17:56:32	18:07:24	649545	6100c17164f9f4c063f4d25f	3	1	practice_z	9	advance_on_keypress_ZEE	22	stimuli_distractor_diamondtriangles.svg	stimuli_distractor_diamondtriangles.svg	13	no	57	0	669	0	0			0	0			1				0	
6.6.1	mac	2023-06-16	17:56:32	18:07:27	652914	6100c17164f9f4c063f4d25f	3	1	practice_z	9	practice_z	23	stimuli_target_rectanglediamonds.svg	stimuli_distractor_trianglediamonds.svg	4	yes	44	1	1073	0	0			0	0			1				0	
6.6.1	mac	2023-06-16	17:56:32	18:07:27	652914	6100c17164f9f4c063f4d25f	3	1	practice_z	9	advance_on_keypress_ZEE	24	stimuli_target_rectanglediamonds.svg	stimuli_distractor_trianglediamonds.svg	4	yes	57	0	864	0	0			0	0			1				0	
6.6.1	mac	2023-06-16	17:56:32	18:07:31	656484	6100c17164f9f4c063f4d25f	3	1	practice_z	9	practice_z	25	stimuli_distractor_diamondtriangles.svg	stimuli_target_diamondrectangles.svg	8	yes	44	1	1077	0	0			0	0			1				0	
6.6.1	mac	2023-06-16	17:56:32	18:07:31	656484	6100c17164f9f4c063f4d25f	3	1	practice_z	9	advance_on_keypress_ZEE	26	stimuli_distractor_diamondtriangles.svg	stimuli_target_diamondrectangles.svg	8	yes	57	0	694	0	0			0	0			1				0	
6.6.1	mac	2023-06-16	17:56:32	18:07:34	659581	6100c17164f9f4c063f4d25f	3	1	practice_z	9	practice_z	27	stimuli_target_diamondsquares.svg	stimuli_distractor_diamondtriangles.svg	3	yes	44	1	756	0	0			0	0			1				0	
6.6.1	mac	2023-06-16	17:56:32	18:07:34	659581	6100c17164f9f4c063f4d25f	3	1	practice_z	9	advance_on_keypress_ZEE	28	stimuli_target_diamondsquares.svg	stimuli_distractor_diamondtriangles.svg	3	yes	57	0	459	0	0			0	0			1				0	
6.6.1	mac	2023-06-16	17:56:32	18:07:37	662454	6100c17164f9f4c063f4d25f	3	1	practice_z	9	practice_z	29	stimuli_target_squarediamonds.svg	stimuli_distractor_diamondtriangles.svg	2	yes	44	1	779	0	0			0	0			1				0	
6.6.1	mac	2023-06-16	17:56:32	18:07:37	662454	6100c17164f9f4c063f4d25f	3	1	practice_z	9	advance_on_keypress_ZEE	30	stimuli_target_squarediamonds.svg	stimuli_distractor_diamondtriangles.svg	2	yes	57	0	559	0	0			0	0			1				0	
6.6.1	mac	2023-06-16	17:56:32	18:07:41	666654	6100c17164f9f4c063f4d25f	3	1	practice_z	9	practice_z	31	stimuli_distractor_trianglediamonds.svg	stimuli_distractor_trianglediamonds.svg	15	no	0	1	2000	0	0			0	0			1				0	
6.6.1	mac	2023-06-16	17:56:32	18:07:41	666654	6100c17164f9f4c063f4d25f	3	1	practice_z	9	advance_on_keypress_ZEE	32	stimuli_distractor_trianglediamonds.svg	stimuli_distractor_trianglediamonds.svg	15	no	57	0	316	0	0			0	0			1				0	
6.6.1	mac	2023-06-16	17:56:32	18:07:45	671387	6100c17164f9f4c063f4d25f	3	1	main_z	11	main_z	1	stimuli_distractor_diamondtriangles.svg	stimuli_target_rectanglediamonds.svg	14	yes	44	1	1163	0	0			0	0			1				0	
6.6.1	mac	2023-06-16	17:56:32	18:07:45	671387	6100c17164f9f4c063f4d25f	3	1	main_z	11	advance_on_keypress_ZEE	2	stimuli_distractor_diamondtriangles.svg	stimuli_target_rectanglediamonds.svg	14	yes	57	0	736	0	0			0	0			1				0	
6.6.1	mac	2023-06-16	17:56:32	18:07:48	673436	6100c17164f9f4c063f4d25f	3	1	main_z	11	main_z	3	stimuli_target_squarediamonds.svg	stimuli_distractor_trianglediamonds.svg	4	yes	44	1	679	0	0			0	0			1				0	
6.6.1	mac	2023-06-16	17:56:32	18:07:48	673436	6100c17164f9f4c063f4d25f	3	1	main_z	11	advance_on_keypress_ZEE	4	stimuli_target_squarediamonds.svg	stimuli_distractor_trianglediamonds.svg	4	yes	57	0	635	0	0			0	0			1				0	
6.6.1	mac	2023-06-16	17:56:32	18:07:50	675594	6100c17164f9f4c063f4d25f	3	1	main_z	11	main_z	5	stimuli_distractor_trianglediamonds.svg	stimuli_target_squarediamonds.svg	12	yes	44	1	887	0	0			0	0			1				0	
6.6.1	mac	2023-06-16	17:56:32	18:07:50	675594	6100c17164f9f4c063f4d25f	3	1	main_z	11	advance_on_keypress_ZEE	6	stimuli_distractor_trianglediamonds.svg	stimuli_target_squarediamonds.svg	12	yes	57	0	466	0	0			0	0			1				0	
6.6.1	mac	2023-06-16	17:56:32	18:07:52	677436	6100c17164f9f4c063f4d25f	3	1	main_z	11	main_z	7	stimuli_target_diamondrectangles.svg	stimuli_distractor_trianglediamonds.svg	19	yes	44	1	746	0	0			0	0			1				0	
6.6.1	mac	2023-06-16	17:56:32	18:07:52	677436	6100c17164f9f4c063f4d25f	3	1	main_z	11	advance_on_keypress_ZEE	8	stimuli_target_diamondrectangles.svg	stimuli_distractor_trianglediamonds.svg	19	yes	57	0	628	0	0			0	0			1				0	
6.6.1	mac	2023-06-16	17:56:32	18:07:53	679362	6100c17164f9f4c063f4d25f	3	1	main_z	11	main_z	9	stimuli_target_squaretriangles.svg	stimuli_distractor_diamondtriangles.svg	7	yes	44	1	657	0	0			0	0			1				0	
6.6.1	mac	2023-06-16	17:56:32	18:07:53	679362	6100c17164f9f4c063f4d25f	3	1	main_z	11	advance_on_keypress_ZEE	10	stimuli_target_squaretriangles.svg	stimuli_distractor_diamondtriangles.svg	7	yes	57	0	759	0	0			0	0			1				0	
6.6.1	mac	2023-06-16	17:56:32	18:07:57	682754	6100c17164f9f4c063f4d25f	3	1	main_z	11	main_z	11	stimuli_distractor_trianglediamonds.svg	stimuli_distractor_diamondtriangles.svg	35	no	0	1	2000	0	0			0	0			1				0	
6.6.1	mac	2023-06-16	17:56:32	18:07:57	682754	6100c17164f9f4c063f4d25f	3	1	main_z	11	advance_on_keypress_ZEE	12	stimuli_distractor_trianglediamonds.svg	stimuli_distractor_diamondtriangles.svg	35	no	57	0	523	0	0			0	0			1				0	
6.6.1	mac	2023-06-16	17:56:32	18:07:59	684663	6100c17164f9f4c063f4d25f	3	1	main_z	11	main_z	13	stimuli_target_squarediamonds.svg	stimuli_distractor_diamondtriangles.svg	8	yes	44	1	756	0	0			0	0			1				0	
6.6.1	mac	2023-06-16	17:56:32	18:07:59	684663	6100c17164f9f4c063f4d25f	3	1	main_z	11	advance_on_keypress_ZEE	14	stimuli_target_squarediamonds.svg	stimuli_distractor_diamondtriangles.svg	8	yes	57	0	932	0	0			0	0			1				0	
6.6.1	mac	2023-06-16	17:56:32	18:08:02	688221	6100c17164f9f4c063f4d25f	3	1	main_z	11	main_z	15	stimuli_distractor_diamondtriangles.svg	stimuli_target_rectangletriangles.svg	13	yes	0	0	2000	0	0			0	0			1				0	
6.6.1	mac	2023-06-16	17:56:32	18:08:02	688221	6100c17164f9f4c063f4d25f	3	1	main_z	11	advance_on_keypress_ZEE	16	stimuli_distractor_diamondtriangles.svg	stimuli_target_rectangletriangles.svg	13	yes	57	0	505	0	0			0	0			1				0	
6.6.1	mac	2023-06-16	17:56:32	18:08:04	690116	6100c17164f9f4c063f4d25f	3	1	main_z	11	main_z	17	stimuli_target_rectanglediamonds.svg	stimuli_distractor_trianglediamonds.svg	2	yes	44	1	760	0	0			0	0			1				0	
6.6.1	mac	2023-06-16	17:56:32	18:08:04	690116	6100c17164f9f4c063f4d25f	3	1	main_z	11	advance_on_keypress_ZEE	18	stimuli_target_rectanglediamonds.svg	stimuli_distractor_trianglediamonds.svg	2	yes	57	0	1363	0	0			0	0			1				0	
6.6.1	mac	2023-06-16	17:56:32	18:08:07	693000	6100c17164f9f4c063f4d25f	3	1	main_z	11	main_z	19	stimuli_distractor_trianglediamonds.svg	stimuli_target_rectangletriangles.svg	9	yes	44	1	877	0	0			0	0			1				0	
6.6.1	mac	2023-06-16	17:56:32	18:08:07	693000	6100c17164f9f4c063f4d25f	3	1	main_z	11	advance_on_keypress_ZEE	20	stimuli_distractor_trianglediamonds.svg	stimuli_target_rectangletriangles.svg	9	yes	57	0	835	0	0			0	0			1				0	
6.6.1	mac	2023-06-16	17:56:32	18:08:10	695449	6100c17164f9f4c063f4d25f	3	1	main_z	11	main_z	21	stimuli_target_diamondsquares.svg	stimuli_distractor_trianglediamonds.svg	20	yes	44	1	976	0	0			0	0			1				0	
6.6.1	mac	2023-06-16	17:56:32	18:08:10	695449	6100c17164f9f4c063f4d25f	3	1	main_z	11	advance_on_keypress_ZEE	22	stimuli_target_diamondsquares.svg	stimuli_distractor_trianglediamonds.svg	20	yes	57	0	732	0	0			0	0			1				0	
6.6.1	mac	2023-06-16	17:56:32	18:08:12	697728	6100c17164f9f4c063f4d25f	3	1	main_z	11	main_z	23	stimuli_distractor_diamondtriangles.svg	stimuli_target_diamondsquares.svg	32	yes	44	1	920	0	0			0	0			1				0	
6.6.1	mac	2023-06-16	17:56:32	18:08:12	697728	6100c17164f9f4c063f4d25f	3	1	main_z	11	advance_on_keypress_ZEE	24	stimuli_distractor_diamondtriangles.svg	stimuli_target_diamondsquares.svg	32	yes	57	0	481	0	0			0	0			1				0	
6.6.1	mac	2023-06-16	17:56:32	18:08:14	700046	6100c17164f9f4c063f4d25f	3	1	main_z	11	main_z	25	stimuli_target_trianglesquares.svg	stimuli_distractor_trianglediamonds.svg	18	yes	44	1	1206	0	0			0	0			1				0	
6.6.1	mac	2023-06-16	17:56:32	18:08:14	700046	6100c17164f9f4c063f4d25f	3	1	main_z	11	advance_on_keypress_ZEE	26	stimuli_target_trianglesquares.svg	stimuli_distractor_trianglediamonds.svg	18	yes	57	0	519	0	0			0	0			1				0	
6.6.1	mac	2023-06-16	17:56:32	18:08:16	702152	6100c17164f9f4c063f4d25f	3	1	main_z	11	main_z	27	stimuli_distractor_diamondtriangles.svg	stimuli_target_squarediamonds.svg	16	yes	44	1	961	0	0			0	0			1				0	
6.6.1	mac	2023-06-16	17:56:32	18:08:16	702152	6100c17164f9f4c063f4d25f	3	1	main_z	11	advance_on_keypress_ZEE	28	stimuli_distractor_diamondtriangles.svg	stimuli_target_squarediamonds.svg	16	yes	57	0	761	0	0			0	0			1				0	
6.6.1	mac	2023-06-16	17:56:32	18:08:19	704568	6100c17164f9f4c063f4d25f	3	1	main_z	11	main_z	29	stimuli_target_rectangletriangles.svg	stimuli_distractor_trianglediamonds.svg	1	yes	44	1	1010	0	0			0	0			1				0	
6.6.1	mac	2023-06-16	17:56:32	18:08:19	704568	6100c17164f9f4c063f4d25f	3	1	main_z	11	advance_on_keypress_ZEE	30	stimuli_target_rectangletriangles.svg	stimuli_distractor_trianglediamonds.svg	1	yes	57	0	517	0	0			0	0			1				0	
6.6.1	mac	2023-06-16	17:56:32	18:08:21	706600	6100c17164f9f4c063f4d25f	3	1	main_z	11	main_z	31	stimuli_distractor_trianglediamonds.svg	stimuli_target_diamondrectangles.svg	27	yes	44	1	876	0	0			0	0			1				0	
6.6.1	mac	2023-06-16	17:56:32	18:08:21	706600	6100c17164f9f4c063f4d25f	3	1	main_z	11	advance_on_keypress_ZEE	32	stimuli_distractor_trianglediamonds.svg	stimuli_target_diamondrectangles.svg	27	yes	57	0	492	0	0			0	0			1				0	
6.6.1	mac	2023-06-16	17:56:32	18:08:23	708743	6100c17164f9f4c063f4d25f	3	1	main_z	11	main_z	33	stimuli_distractor_trianglediamonds.svg	stimuli_target_diamondsquares.svg	28	yes	44	1	1002	0	0			0	0			1				0	
6.6.1	mac	2023-06-16	17:56:32	18:08:23	708743	6100c17164f9f4c063f4d25f	3	1	main_z	11	advance_on_keypress_ZEE	34	stimuli_distractor_trianglediamonds.svg	stimuli_target_diamondsquares.svg	28	yes	57	0	528	0	0			0	0			1				0	
6.6.1	mac	2023-06-16	17:56:32	18:08:25	710753	6100c17164f9f4c063f4d25f	3	1	main_z	11	main_z	35	stimuli_distractor_trianglediamonds.svg	stimuli_target_trianglesquares.svg	26	yes	44	1	845	0	0			0	0			1				0	
6.6.1	mac	2023-06-16	17:56:32	18:08:25	710753	6100c17164f9f4c063f4d25f	3	1	main_z	11	advance_on_keypress_ZEE	36	stimuli_distractor_trianglediamonds.svg	stimuli_target_trianglesquares.svg	26	yes	57	0	464	0	0			0	0			1				0	
6.6.1	mac	2023-06-16	17:56:32	18:08:28	713855	6100c17164f9f4c063f4d25f	3	1	main_z	11	main_z	37	stimuli_distractor_diamondtriangles.svg	stimuli_distractor_trianglediamonds.svg	38	no	0	1	2000	0	0			0	0			1				0	
6.6.1	mac	2023-06-16	17:56:32	18:08:28	713855	6100c17164f9f4c063f4d25f	3	1	main_z	11	advance_on_keypress_ZEE	38	stimuli_distractor_diamondtriangles.svg	stimuli_distractor_trianglediamonds.svg	38	no	57	0	437	0	0			0	0			1				0	
6.6.1	mac	2023-06-16	17:56:32	18:08:30	716024	6100c17164f9f4c063f4d25f	3	1	main_z	11	main_z	39	stimuli_target_rectanglediamonds.svg	stimuli_distractor_diamondtriangles.svg	6	yes	44	1	1100	0	0			0	0			1				0	
6.6.1	mac	2023-06-16	17:56:32	18:08:30	716024	6100c17164f9f4c063f4d25f	3	1	main_z	11	advance_on_keypress_ZEE	40	stimuli_target_rectanglediamonds.svg	stimuli_distractor_diamondtriangles.svg	6	yes	57	0	715	0	0			0	0			1				0	
6.6.1	mac	2023-06-16	17:56:32	18:08:32	718150	6100c17164f9f4c063f4d25f	3	1	main_z	11	main_z	41	stimuli_target_diamondrectangles.svg	stimuli_distractor_diamondtriangles.svg	23	yes	44	1	776	0	0			0	0			1				0	
6.6.1	mac	2023-06-16	17:56:32	18:08:32	718150	6100c17164f9f4c063f4d25f	3	1	main_z	11	advance_on_keypress_ZEE	42	stimuli_target_diamondrectangles.svg	stimuli_distractor_diamondtriangles.svg	23	yes	57	0	474	0	0			0	0			1				0	
6.6.1	mac	2023-06-16	17:56:32	18:08:35	721255	6100c17164f9f4c063f4d25f	3	1	main_z	11	main_z	43	stimuli_distractor_trianglediamonds.svg	stimuli_distractor_trianglediamonds.svg	34	no	0	1	2000	0	0			0	0			1				0	
6.6.1	mac	2023-06-16	17:56:32	18:08:35	721255	6100c17164f9f4c063f4d25f	3	1	main_z	11	advance_on_keypress_ZEE	44	stimuli_distractor_trianglediamonds.svg	stimuli_distractor_trianglediamonds.svg	34	no	57	0	717	0	0			0	0			1				0	
6.6.1	mac	2023-06-16	17:56:32	18:08:39	724605	6100c17164f9f4c063f4d25f	3	1	main_z	11	main_z	45	stimuli_distractor_trianglediamonds.svg	stimuli_distractor_trianglediamonds.svg	33	no	0	1	2000	0	0			0	0			1				0	
6.6.1	mac	2023-06-16	17:56:32	18:08:39	724605	6100c17164f9f4c063f4d25f	3	1	main_z	11	advance_on_keypress_ZEE	46	stimuli_distractor_trianglediamonds.svg	stimuli_distractor_trianglediamonds.svg	33	no	57	0	310	0	0			0	0			1				0	
6.6.1	mac	2023-06-16	17:56:32	18:08:41	726541	6100c17164f9f4c063f4d25f	3	1	main_z	11	main_z	47	stimuli_distractor_diamondtriangles.svg	stimuli_target_diamondrectangles.svg	31	yes	44	1	984	0	0			0	0			1				0	
6.6.1	mac	2023-06-16	17:56:32	18:08:41	726541	6100c17164f9f4c063f4d25f	3	1	main_z	11	advance_on_keypress_ZEE	48	stimuli_distractor_diamondtriangles.svg	stimuli_target_diamondrectangles.svg	31	yes	57	0	416	0	0			0	0			1				0	
6.6.1	mac	2023-06-16	17:56:32	18:08:43	728760	6100c17164f9f4c063f4d25f	3	1	main_z	11	main_z	49	stimuli_distractor_trianglediamonds.svg	stimuli_target_squaretriangles.svg	11	yes	44	1	1168	0	0			0	0			1				0	
6.6.1	mac	2023-06-16	17:56:32	18:08:43	728760	6100c17164f9f4c063f4d25f	3	1	main_z	11	advance_on_keypress_ZEE	50	stimuli_distractor_trianglediamonds.svg	stimuli_target_squaretriangles.svg	11	yes	57	0	413	0	0			0	0			1				0	
6.6.1	mac	2023-06-16	17:56:32	18:08:45	730810	6100c17164f9f4c063f4d25f	3	1	main_z	11	main_z	51	stimuli_distractor_diamondtriangles.svg	stimuli_target_trianglesquares.svg	30	yes	44	1	1001	0	0			0	0			1				0	
6.6.1	mac	2023-06-16	17:56:32	18:08:45	730810	6100c17164f9f4c063f4d25f	3	1	main_z	11	advance_on_keypress_ZEE	52	stimuli_distractor_diamondtriangles.svg	stimuli_target_trianglesquares.svg	30	yes	57	0	484	0	0			0	0			1				0	
6.6.1	mac	2023-06-16	17:56:32	18:08:47	732803	6100c17164f9f4c063f4d25f	3	1	main_z	11	main_z	53	stimuli_distractor_diamondtriangles.svg	stimuli_target_trianglerectangles.svg	29	yes	44	1	879	0	0			0	0			1				0	
6.6.1	mac	2023-06-16	17:56:32	18:08:47	732803	6100c17164f9f4c063f4d25f	3	1	main_z	11	advance_on_keypress_ZEE	54	stimuli_distractor_diamondtriangles.svg	stimuli_target_trianglerectangles.svg	29	yes	57	0	747	0	0			0	0			1				0	
6.6.1	mac	2023-06-16	17:56:32	18:08:50	736188	6100c17164f9f4c063f4d25f	3	1	main_z	11	main_z	55	stimuli_distractor_trianglediamonds.svg	stimuli_distractor_diamondtriangles.svg	36	no	0	1	2000	0	0			0	0			1				0	
6.6.1	mac	2023-06-16	17:56:32	18:08:50	736188	6100c17164f9f4c063f4d25f	3	1	main_z	11	advance_on_keypress_ZEE	56	stimuli_distractor_trianglediamonds.svg	stimuli_distractor_diamondtriangles.svg	36	no	57	0	507	0	0			0	0			1				0	
6.6.1	mac	2023-06-16	17:56:32	18:08:53	739322	6100c17164f9f4c063f4d25f	3	1	main_z	11	main_z	57	stimuli_distractor_diamondtriangles.svg	stimuli_distractor_trianglediamonds.svg	37	no	0	1	2000	0	0			0	0			1				0	
6.6.1	mac	2023-06-16	17:56:32	18:08:53	739322	6100c17164f9f4c063f4d25f	3	1	main_z	11	advance_on_keypress_ZEE	58	stimuli_distractor_diamondtriangles.svg	stimuli_distractor_trianglediamonds.svg	37	no	57	0	370	0	0			0	0			1				0	
6.6.1	mac	2023-06-16	17:56:32	18:08:55	741227	6100c17164f9f4c063f4d25f	3	1	main_z	11	main_z	59	stimuli_target_trianglerectangles.svg	stimuli_distractor_diamondtriangles.svg	21	yes	44	1	884	0	0			0	0			1				0	
6.6.1	mac	2023-06-16	17:56:32	18:08:55	741227	6100c17164f9f4c063f4d25f	3	1	main_z	11	advance_on_keypress_ZEE	60	stimuli_target_trianglerectangles.svg	stimuli_distractor_diamondtriangles.svg	21	yes	57	0	448	0	0			0	0			1				0	
6.6.1	mac	2023-06-16	17:56:32	18:08:58	743518	6100c17164f9f4c063f4d25f	3	1	main_z	11	main_z	61	stimuli_distractor_trianglediamonds.svg	stimuli_target_trianglerectangles.svg	25	yes	44	1	1210	0	0			0	0			1				0	
6.6.1	mac	2023-06-16	17:56:32	18:08:58	743518	6100c17164f9f4c063f4d25f	3	1	main_z	11	advance_on_keypress_ZEE	62	stimuli_distractor_trianglediamonds.svg	stimuli_target_trianglerectangles.svg	25	yes	57	0	526	0	0			0	0			1				0	
6.6.1	mac	2023-06-16	17:56:32	18:09:00	745931	6100c17164f9f4c063f4d25f	3	1	main_z	11	main_z	63	stimuli_target_trianglerectangles.svg	stimuli_distractor_trianglediamonds.svg	17	yes	44	1	1240	0	0			0	0			1				0	
6.6.1	mac	2023-06-16	17:56:32	18:09:00	745931	6100c17164f9f4c063f4d25f	3	1	main_z	11	advance_on_keypress_ZEE	64	stimuli_target_trianglerectangles.svg	stimuli_distractor_trianglediamonds.svg	17	yes	57	0	478	0	0			0	0			1				0	
6.6.1	mac	2023-06-16	17:56:32	18:09:03	748706	6100c17164f9f4c063f4d25f	3	1	main_z	11	main_z	65	stimuli_distractor_diamondtriangles.svg	stimuli_target_squaretriangles.svg	15	yes	44	1	1665	0	0			0	0			1				0	
6.6.1	mac	2023-06-16	17:56:32	18:09:03	748706	6100c17164f9f4c063f4d25f	3	1	main_z	11	advance_on_keypress_ZEE	66	stimuli_distractor_diamondtriangles.svg	stimuli_target_squaretriangles.svg	15	yes	57	0	718	0	0			0	0			1				0	
6.6.1	mac	2023-06-16	17:56:32	18:09:05	751021	6100c17164f9f4c063f4d25f	3	1	main_z	11	main_z	67	stimuli_distractor_trianglediamonds.svg	stimuli_target_rectanglediamonds.svg	10	yes	44	1	963	0	0			0	0			1				0	
6.6.1	mac	2023-06-16	17:56:32	18:09:05	751021	6100c17164f9f4c063f4d25f	3	1	main_z	11	advance_on_keypress_ZEE	68	stimuli_distractor_trianglediamonds.svg	stimuli_target_rectanglediamonds.svg	10	yes	57	0	408	0	0			0	0			1				0	
6.6.1	mac	2023-06-16	17:56:32	18:09:07	752845	6100c17164f9f4c063f4d25f	3	1	main_z	11	main_z	69	stimuli_target_trianglesquares.svg	stimuli_distractor_diamondtriangles.svg	22	yes	44	1	787	0	0			0	0			1				0	
6.6.1	mac	2023-06-16	17:56:32	18:09:07	752845	6100c17164f9f4c063f4d25f	3	1	main_z	11	advance_on_keypress_ZEE	70	stimuli_target_trianglesquares.svg	stimuli_distractor_diamondtriangles.svg	22	yes	57	0	506	0	0			0	0			1				0	
6.6.1	mac	2023-06-16	17:56:32	18:09:09	754775	6100c17164f9f4c063f4d25f	3	1	main_z	11	main_z	71	stimuli_target_rectangletriangles.svg	stimuli_distractor_diamondtriangles.svg	5	yes	44	1	801	0	0			0	0			1				0	
6.6.1	mac	2023-06-16	17:56:32	18:09:09	754775	6100c17164f9f4c063f4d25f	3	1	main_z	11	advance_on_keypress_ZEE	72	stimuli_target_rectangletriangles.svg	stimuli_distractor_diamondtriangles.svg	5	yes	57	0	410	0	0			0	0			1				0	
6.6.1	mac	2023-06-16	17:56:32	18:09:11	756432	6100c17164f9f4c063f4d25f	3	1	main_z	11	main_z	73	stimuli_target_squaretriangles.svg	stimuli_distractor_trianglediamonds.svg	3	yes	44	1	607	0	0			0	0			1				0	
6.6.1	mac	2023-06-16	17:56:32	18:09:11	756432	6100c17164f9f4c063f4d25f	3	1	main_z	11	advance_on_keypress_ZEE	74	stimuli_target_squaretriangles.svg	stimuli_distractor_trianglediamonds.svg	3	yes	57	0	421	0	0			0	0			1				0	
6.6.1	mac	2023-06-16	17:56:32	18:09:14	759472	6100c17164f9f4c063f4d25f	3	1	main_z	11	main_z	75	stimuli_distractor_diamondtriangles.svg	stimuli_distractor_diamondtriangles.svg	40	no	0	1	2000	0	0			0	0			1				0	
6.6.1	mac	2023-06-16	17:56:32	18:09:14	759472	6100c17164f9f4c063f4d25f	3	1	main_z	11	advance_on_keypress_ZEE	76	stimuli_distractor_diamondtriangles.svg	stimuli_distractor_diamondtriangles.svg	40	no	57	0	537	0	0			0	0			1				0	
6.6.1	mac	2023-06-16	17:56:32	18:09:16	761607	6100c17164f9f4c063f4d25f	3	1	main_z	11	main_z	77	stimuli_target_diamondsquares.svg	stimuli_distractor_diamondtriangles.svg	24	yes	44	1	966	0	0			0	0			1				0	
6.6.1	mac	2023-06-16	17:56:32	18:09:16	761607	6100c17164f9f4c063f4d25f	3	1	main_z	11	advance_on_keypress_ZEE	78	stimuli_target_diamondsquares.svg	stimuli_distractor_diamondtriangles.svg	24	yes	57	0	660	0	0			0	0			1				0	
6.6.1	mac	2023-06-16	17:56:32	18:09:19	764906	6100c17164f9f4c063f4d25f	3	1	main_z	11	main_z	79	stimuli_distractor_diamondtriangles.svg	stimuli_distractor_diamondtriangles.svg	39	no	0	1	2000	0	0			0	0			1				0	
6.6.1	mac	2023-06-16	17:56:32	18:09:19	764906	6100c17164f9f4c063f4d25f	3	1	main_z	11	advance_on_keypress_ZEE	80	stimuli_distractor_diamondtriangles.svg	stimuli_distractor_diamondtriangles.svg	39	no	57	0	378	0	0			0	0			1				0	
6.6.1	mac	2023-06-16	17:56:32	18:09:21	766823	6100c17164f9f4c063f4d25f	3	1	main_z	11	main_z	81	stimuli_distractor_diamondtriangles.svg	stimuli_target_trianglerectangles.svg	29	yes	44	1	898	0	0			0	0			1				0	
6.6.1	mac	2023-06-16	17:56:32	18:09:21	766823	6100c17164f9f4c063f4d25f	3	1	main_z	11	advance_on_keypress_ZEE	82	stimuli_distractor_diamondtriangles.svg	stimuli_target_trianglerectangles.svg	29	yes	57	0	745	0	0			0	0			1				0	
6.6.1	mac	2023-06-16	17:56:32	18:09:23	769231	6100c17164f9f4c063f4d25f	3	1	main_z	11	main_z	83	stimuli_target_squarediamonds.svg	stimuli_distractor_diamondtriangles.svg	8	yes	44	1	1022	0	0			0	0			1				0	
6.6.1	mac	2023-06-16	17:56:32	18:09:23	769231	6100c17164f9f4c063f4d25f	3	1	main_z	11	advance_on_keypress_ZEE	84	stimuli_target_squarediamonds.svg	stimuli_distractor_diamondtriangles.svg	8	yes	57	0	592	0	0			0	0			1				0	
6.6.1	mac	2023-06-16	17:56:32	18:09:26	771712	6100c17164f9f4c063f4d25f	3	1	main_z	11	main_z	85	stimuli_target_diamondrectangles.svg	stimuli_distractor_trianglediamonds.svg	19	yes	44	1	1253	0	0			0	0			1				0	
6.6.1	mac	2023-06-16	17:56:32	18:09:26	771712	6100c17164f9f4c063f4d25f	3	1	main_z	11	advance_on_keypress_ZEE	86	stimuli_target_diamondrectangles.svg	stimuli_distractor_trianglediamonds.svg	19	yes	57	0	1234	0	0			0	0			1				0	
6.6.1	mac	2023-06-16	17:56:32	18:09:28	774391	6100c17164f9f4c063f4d25f	3	1	main_z	11	main_z	87	stimuli_target_rectanglediamonds.svg	stimuli_distractor_trianglediamonds.svg	2	yes	44	1	815	0	0			0	0			1				0	
6.6.1	mac	2023-06-16	17:56:32	18:09:28	774391	6100c17164f9f4c063f4d25f	3	1	main_z	11	advance_on_keypress_ZEE	88	stimuli_target_rectanglediamonds.svg	stimuli_distractor_trianglediamonds.svg	2	yes	57	0	670	0	0			0	0			1				0	
6.6.1	mac	2023-06-16	17:56:32	18:09:31	776563	6100c17164f9f4c063f4d25f	3	1	main_z	11	main_z	89	stimuli_distractor_trianglediamonds.svg	stimuli_target_rectangletriangles.svg	9	yes	44	1	869	0	0			0	0			1				0	
6.6.1	mac	2023-06-16	17:56:32	18:09:31	776563	6100c17164f9f4c063f4d25f	3	1	main_z	11	advance_on_keypress_ZEE	90	stimuli_distractor_trianglediamonds.svg	stimuli_target_rectangletriangles.svg	9	yes	57	0	483	0	0			0	0			1				0	
6.6.1	mac	2023-06-16	17:56:32	18:09:33	778461	6100c17164f9f4c063f4d25f	3	1	main_z	11	main_z	91	stimuli_distractor_trianglediamonds.svg	stimuli_target_squarediamonds.svg	12	yes	44	1	785	0	0			0	0			1				0	
6.6.1	mac	2023-06-16	17:56:32	18:09:33	778461	6100c17164f9f4c063f4d25f	3	1	main_z	11	advance_on_keypress_ZEE	92	stimuli_distractor_trianglediamonds.svg	stimuli_target_squarediamonds.svg	12	yes	57	0	542	0	0			0	0			1				0	
6.6.1	mac	2023-06-16	17:56:32	18:09:34	780162	6100c17164f9f4c063f4d25f	3	1	main_z	11	main_z	93	stimuli_target_rectanglediamonds.svg	stimuli_distractor_diamondtriangles.svg	6	yes	44	1	520	0	0			0	0			1				0	
6.6.1	mac	2023-06-16	17:56:32	18:09:34	780162	6100c17164f9f4c063f4d25f	3	1	main_z	11	advance_on_keypress_ZEE	94	stimuli_target_rectanglediamonds.svg	stimuli_distractor_diamondtriangles.svg	6	yes	57	0	474	0	0			0	0			1				0	
6.6.1	mac	2023-06-16	17:56:32	18:09:36	781862	6100c17164f9f4c063f4d25f	3	1	main_z	11	main_z	95	stimuli_distractor_trianglediamonds.svg	stimuli_target_diamondsquares.svg	28	yes	44	1	566	0	0			0	0			1				0	
6.6.1	mac	2023-06-16	17:56:32	18:09:36	781862	6100c17164f9f4c063f4d25f	3	1	main_z	11	advance_on_keypress_ZEE	96	stimuli_distractor_trianglediamonds.svg	stimuli_target_diamondsquares.svg	28	yes	57	0	518	0	0			0	0			1				0	
6.6.1	mac	2023-06-16	17:56:32	18:09:37	783395	6100c17164f9f4c063f4d25f	3	1	main_z	11	main_z	97	stimuli_distractor_trianglediamonds.svg	stimuli_target_diamondrectangles.svg	27	yes	44	1	387	0	0			0	0			1				0	
6.6.1	mac	2023-06-16	17:56:32	18:09:37	783395	6100c17164f9f4c063f4d25f	3	1	main_z	11	advance_on_keypress_ZEE	98	stimuli_distractor_trianglediamonds.svg	stimuli_target_diamondrectangles.svg	27	yes	57	0	460	0	0			0	0			1				0	
6.6.1	mac	2023-06-16	17:56:32	18:09:39	784950	6100c17164f9f4c063f4d25f	3	1	main_z	11	main_z	99	stimuli_distractor_diamondtriangles.svg	stimuli_distractor_trianglediamonds.svg	37	no	44	0	457	0	0			0	0			1				0	
6.6.1	mac	2023-06-16	17:56:32	18:09:39	784950	6100c17164f9f4c063f4d25f	3	1	main_z	11	advance_on_keypress_ZEE	100	stimuli_distractor_diamondtriangles.svg	stimuli_distractor_trianglediamonds.svg	37	no	57	0	983	0	0			0	0			1				0	
6.6.1	mac	2023-06-16	17:56:32	18:09:43	788557	6100c17164f9f4c063f4d25f	3	1	main_z	11	main_z	101	stimuli_distractor_trianglediamonds.svg	stimuli_distractor_trianglediamonds.svg	33	no	0	1	2000	0	0			0	0			1				0	
6.6.1	mac	2023-06-16	17:56:32	18:09:43	788557	6100c17164f9f4c063f4d25f	3	1	main_z	11	advance_on_keypress_ZEE	102	stimuli_distractor_trianglediamonds.svg	stimuli_distractor_trianglediamonds.svg	33	no	57	0	402	0	0			0	0			1				0	
6.6.1	mac	2023-06-16	17:56:32	18:09:44	790233	6100c17164f9f4c063f4d25f	3	1	main_z	11	main_z	103	stimuli_distractor_diamondtriangles.svg	stimuli_target_diamondsquares.svg	32	yes	44	1	640	0	0			0	0			1				0	
6.6.1	mac	2023-06-16	17:56:32	18:09:44	790233	6100c17164f9f4c063f4d25f	3	1	main_z	11	advance_on_keypress_ZEE	104	stimuli_distractor_diamondtriangles.svg	stimuli_target_diamondsquares.svg	32	yes	57	0	354	0	0			0	0			1				0	
6.6.1	mac	2023-06-16	17:56:32	18:09:47	792648	6100c17164f9f4c063f4d25f	3	1	main_z	11	main_z	105	stimuli_target_diamondsquares.svg	stimuli_distractor_diamondtriangles.svg	24	yes	44	1	1438	0	0			0	0			1				0	
6.6.1	mac	2023-06-16	17:56:32	18:09:47	792648	6100c17164f9f4c063f4d25f	3	1	main_z	11	advance_on_keypress_ZEE	106	stimuli_target_diamondsquares.svg	stimuli_distractor_diamondtriangles.svg	24	yes	57	0	413	0	0			0	0			1				0	
6.6.1	mac	2023-06-16	17:56:32	18:09:49	794501	6100c17164f9f4c063f4d25f	3	1	main_z	11	main_z	107	stimuli_distractor_trianglediamonds.svg	stimuli_target_rectanglediamonds.svg	10	yes	44	1	808	0	0			0	0			1				0	
6.6.1	mac	2023-06-16	17:56:32	18:09:49	794501	6100c17164f9f4c063f4d25f	3	1	main_z	11	advance_on_keypress_ZEE	108	stimuli_distractor_trianglediamonds.svg	stimuli_target_rectanglediamonds.svg	10	yes	57	0	450	0	0			0	0			1				0	
6.6.1	mac	2023-06-16	17:56:32	18:09:51	796656	6100c17164f9f4c063f4d25f	3	1	main_z	11	main_z	109	stimuli_distractor_diamondtriangles.svg	stimuli_target_squaretriangles.svg	15	yes	44	1	1063	0	0			0	0			1				0	
6.6.1	mac	2023-06-16	17:56:32	18:09:51	796656	6100c17164f9f4c063f4d25f	3	1	main_z	11	advance_on_keypress_ZEE	110	stimuli_distractor_diamondtriangles.svg	stimuli_target_squaretriangles.svg	15	yes	57	0	359	0	0			0	0			1				0	
6.6.1	mac	2023-06-16	17:56:32	18:09:54	799657	6100c17164f9f4c063f4d25f	3	1	main_z	11	main_z	111	stimuli_distractor_diamondtriangles.svg	stimuli_distractor_diamondtriangles.svg	40	no	0	1	2000	0	0			0	0			1				0	
6.6.1	mac	2023-06-16	17:56:32	18:09:54	799657	6100c17164f9f4c063f4d25f	3	1	main_z	11	advance_on_keypress_ZEE	112	stimuli_distractor_diamondtriangles.svg	stimuli_distractor_diamondtriangles.svg	40	no	57	0	80	0	0			0	0			1				0	
6.6.1	mac	2023-06-16	17:56:32	18:09:55	800963	6100c17164f9f4c063f4d25f	3	1	main_z	11	main_z	113	stimuli_target_diamondsquares.svg	stimuli_distractor_trianglediamonds.svg	20	yes	44	1	587	0	0			0	0			1				0	
6.6.1	mac	2023-06-16	17:56:32	18:09:55	800963	6100c17164f9f4c063f4d25f	3	1	main_z	11	advance_on_keypress_ZEE	114	stimuli_target_diamondsquares.svg	stimuli_distractor_trianglediamonds.svg	20	yes	57	0	302	0	0			0	0			1				0	
6.6.1	mac	2023-06-16	17:56:32	18:09:56	802394	6100c17164f9f4c063f4d25f	3	1	main_z	11	main_z	115	stimuli_target_squaretriangles.svg	stimuli_distractor_trianglediamonds.svg	3	yes	44	1	501	0	0			0	0			1				0	
6.6.1	mac	2023-06-16	17:56:32	18:09:56	802394	6100c17164f9f4c063f4d25f	3	1	main_z	11	advance_on_keypress_ZEE	116	stimuli_target_squaretriangles.svg	stimuli_distractor_trianglediamonds.svg	3	yes	57	0	299	0	0			0	0			1				0	
6.6.1	mac	2023-06-16	17:56:32	18:09:58	803817	6100c17164f9f4c063f4d25f	3	1	main_z	11	main_z	117	stimuli_distractor_diamondtriangles.svg	stimuli_target_diamondrectangles.svg	31	yes	44	1	491	0	0			0	0			1				0	
6.6.1	mac	2023-06-16	17:56:32	18:09:58	803817	6100c17164f9f4c063f4d25f	3	1	main_z	11	advance_on_keypress_ZEE	118	stimuli_distractor_diamondtriangles.svg	stimuli_target_diamondrectangles.svg	31	yes	57	0	289	0	0			0	0			1				0	
6.6.1	mac	2023-06-16	17:56:32	18:09:59	805240	6100c17164f9f4c063f4d25f	3	1	main_z	11	main_z	119	stimuli_target_trianglesquares.svg	stimuli_distractor_trianglediamonds.svg	18	yes	44	1	513	0	0			0	0			1				0	
6.6.1	mac	2023-06-16	17:56:32	18:09:59	805240	6100c17164f9f4c063f4d25f	3	1	main_z	11	advance_on_keypress_ZEE	120	stimuli_target_trianglesquares.svg	stimuli_distractor_trianglediamonds.svg	18	yes	57	0	306	0	0			0	0			1				0	
6.6.1	mac	2023-06-16	17:56:32	18:10:02	808174	6100c17164f9f4c063f4d25f	3	1	main_z	11	main_z	121	stimuli_distractor_trianglediamonds.svg	stimuli_distractor_trianglediamonds.svg	34	no	0	1	2000	0	0			0	0			1				0	
6.6.1	mac	2023-06-16	17:56:32	18:10:02	808174	6100c17164f9f4c063f4d25f	3	1	main_z	11	advance_on_keypress_ZEE	122	stimuli_distractor_trianglediamonds.svg	stimuli_distractor_trianglediamonds.svg	34	no	57	0	321	0	0			0	0			1				0	
6.6.1	mac	2023-06-16	17:56:32	18:10:04	809582	6100c17164f9f4c063f4d25f	3	1	main_z	11	main_z	123	stimuli_distractor_diamondtriangles.svg	stimuli_target_rectanglediamonds.svg	14	yes	44	1	455	0	0			0	0			1				0	
6.6.1	mac	2023-06-16	17:56:32	18:10:04	809582	6100c17164f9f4c063f4d25f	3	1	main_z	11	advance_on_keypress_ZEE	124	stimuli_distractor_diamondtriangles.svg	stimuli_target_rectanglediamonds.svg	14	yes	57	0	303	0	0			0	0			1				0	
6.6.1	mac	2023-06-16	17:56:32	18:10:07	812507	6100c17164f9f4c063f4d25f	3	1	main_z	11	main_z	125	stimuli_target_trianglerectangles.svg	stimuli_distractor_diamondtriangles.svg	21	yes	0	0	2000	0	0			0	0			1				0	
6.6.1	mac	2023-06-16	17:56:32	18:10:07	812507	6100c17164f9f4c063f4d25f	3	1	main_z	11	advance_on_keypress_ZEE	126	stimuli_target_trianglerectangles.svg	stimuli_distractor_diamondtriangles.svg	21	yes	57	0	666	0	0			0	0			1				0	
6.6.1	mac	2023-06-16	17:56:32	18:10:08	814384	6100c17164f9f4c063f4d25f	3	1	main_z	11	main_z	127	stimuli_distractor_diamondtriangles.svg	stimuli_target_rectangletriangles.svg	13	yes	44	1	574	0	0			0	0			1				0	
6.6.1	mac	2023-06-16	17:56:32	18:10:08	814384	6100c17164f9f4c063f4d25f	3	1	main_z	11	advance_on_keypress_ZEE	128	stimuli_distractor_diamondtriangles.svg	stimuli_target_rectangletriangles.svg	13	yes	57	0	316	0	0			0	0			1				0	
6.6.1	mac	2023-06-16	17:56:32	18:10:10	815949	6100c17164f9f4c063f4d25f	3	1	main_z	11	main_z	129	stimuli_target_trianglesquares.svg	stimuli_distractor_diamondtriangles.svg	22	yes	44	1	622	0	0			0	0			1				0	
6.6.1	mac	2023-06-16	17:56:32	18:10:10	815949	6100c17164f9f4c063f4d25f	3	1	main_z	11	advance_on_keypress_ZEE	130	stimuli_target_trianglesquares.svg	stimuli_distractor_diamondtriangles.svg	22	yes	57	0	314	0	0			0	0			1				0	
6.6.1	mac	2023-06-16	17:56:32	18:10:13	818891	6100c17164f9f4c063f4d25f	3	1	main_z	11	main_z	131	stimuli_distractor_trianglediamonds.svg	stimuli_distractor_diamondtriangles.svg	36	no	0	1	2000	0	0			0	0			1				0	
6.6.1	mac	2023-06-16	17:56:32	18:10:13	818891	6100c17164f9f4c063f4d25f	3	1	main_z	11	advance_on_keypress_ZEE	132	stimuli_distractor_trianglediamonds.svg	stimuli_distractor_diamondtriangles.svg	36	no	57	0	401	0	0			0	0			1				0	
6.6.1	mac	2023-06-16	17:56:32	18:10:16	821924	6100c17164f9f4c063f4d25f	3	1	main_z	11	main_z	133	stimuli_distractor_trianglediamonds.svg	stimuli_distractor_diamondtriangles.svg	35	no	0	1	2000	0	0			0	0			1				0	
6.6.1	mac	2023-06-16	17:56:32	18:10:16	821924	6100c17164f9f4c063f4d25f	3	1	main_z	11	advance_on_keypress_ZEE	134	stimuli_distractor_trianglediamonds.svg	stimuli_distractor_diamondtriangles.svg	35	no	57	0	278	0	0			0	0			1				0	
6.6.1	mac	2023-06-16	17:56:32	18:10:18	823606	6100c17164f9f4c063f4d25f	3	1	main_z	11	main_z	135	stimuli_target_squarediamonds.svg	stimuli_distractor_trianglediamonds.svg	4	yes	44	1	762	0	0			0	0			1				0	
6.6.1	mac	2023-06-16	17:56:32	18:10:18	823606	6100c17164f9f4c063f4d25f	3	1	main_z	11	advance_on_keypress_ZEE	136	stimuli_target_squarediamonds.svg	stimuli_distractor_trianglediamonds.svg	4	yes	57	0	385	0	0			0	0			1				0	
6.6.1	mac	2023-06-16	17:56:32	18:10:19	825329	6100c17164f9f4c063f4d25f	3	1	main_z	11	main_z	137	stimuli_distractor_trianglediamonds.svg	stimuli_target_squaretriangles.svg	11	yes	44	1	701	0	0			0	0			1				0	
6.6.1	mac	2023-06-16	17:56:32	18:10:19	825329	6100c17164f9f4c063f4d25f	3	1	main_z	11	advance_on_keypress_ZEE	138	stimuli_distractor_trianglediamonds.svg	stimuli_target_squaretriangles.svg	11	yes	57	0	384	0	0			0	0			1				0	
6.6.1	mac	2023-06-16	17:56:32	18:10:22	828341	6100c17164f9f4c063f4d25f	3	1	main_z	11	main_z	139	stimuli_distractor_diamondtriangles.svg	stimuli_distractor_diamondtriangles.svg	39	no	0	1	2000	0	0			0	0			1				0	
6.6.1	mac	2023-06-16	17:56:32	18:10:22	828341	6100c17164f9f4c063f4d25f	3	1	main_z	11	advance_on_keypress_ZEE	140	stimuli_distractor_diamondtriangles.svg	stimuli_distractor_diamondtriangles.svg	39	no	57	0	405	0	0			0	0			1				0	
6.6.1	mac	2023-06-16	17:56:32	18:10:24	830243	6100c17164f9f4c063f4d25f	3	1	main_z	11	main_z	141	stimuli_distractor_trianglediamonds.svg	stimuli_target_trianglerectangles.svg	25	yes	44	1	866	0	0			0	0			1				0	
6.6.1	mac	2023-06-16	17:56:32	18:10:24	830243	6100c17164f9f4c063f4d25f	3	1	main_z	11	advance_on_keypress_ZEE	142	stimuli_distractor_trianglediamonds.svg	stimuli_target_trianglerectangles.svg	25	yes	57	0	393	0	0			0	0			1				0	
6.6.1	mac	2023-06-16	17:56:32	18:10:27	833275	6100c17164f9f4c063f4d25f	3	1	main_z	11	main_z	143	stimuli_distractor_diamondtriangles.svg	stimuli_distractor_trianglediamonds.svg	38	no	0	1	2000	0	0			0	0			1				0	
6.6.1	mac	2023-06-16	17:56:32	18:10:27	833275	6100c17164f9f4c063f4d25f	3	1	main_z	11	advance_on_keypress_ZEE	144	stimuli_distractor_diamondtriangles.svg	stimuli_distractor_trianglediamonds.svg	38	no	57	0	499	0	0			0	0			1				0	
6.6.1	mac	2023-06-16	17:56:32	18:10:29	835191	6100c17164f9f4c063f4d25f	3	1	main_z	11	main_z	145	stimuli_target_rectangletriangles.svg	stimuli_distractor_diamondtriangles.svg	5	yes	44	1	781	0	0			0	0			1				0	
6.6.1	mac	2023-06-16	17:56:32	18:10:29	835191	6100c17164f9f4c063f4d25f	3	1	main_z	11	advance_on_keypress_ZEE	146	stimuli_target_rectangletriangles.svg	stimuli_distractor_diamondtriangles.svg	5	yes	57	0	352	0	0			0	0			1				0	
6.6.1	mac	2023-06-16	17:56:32	18:10:31	837207	6100c17164f9f4c063f4d25f	3	1	main_z	11	main_z	147	stimuli_distractor_trianglediamonds.svg	stimuli_target_trianglesquares.svg	26	yes	44	1	1030	0	0			0	0			1				0	
6.6.1	mac	2023-06-16	17:56:32	18:10:31	837207	6100c17164f9f4c063f4d25f	3	1	main_z	11	advance_on_keypress_ZEE	148	stimuli_distractor_trianglediamonds.svg	stimuli_target_trianglesquares.svg	26	yes	57	0	398	0	0			0	0			1				0	
6.6.1	mac	2023-06-16	17:56:32	18:10:33	839322	6100c17164f9f4c063f4d25f	3	1	main_z	11	main_z	149	stimuli_distractor_diamondtriangles.svg	stimuli_target_squarediamonds.svg	16	yes	44	1	1077	0	0			0	0			1				0	
6.6.1	mac	2023-06-16	17:56:32	18:10:33	839322	6100c17164f9f4c063f4d25f	3	1	main_z	11	advance_on_keypress_ZEE	150	stimuli_distractor_diamondtriangles.svg	stimuli_target_squarediamonds.svg	16	yes	57	0	344	0	0			0	0			1				0	
6.6.1	mac	2023-06-16	17:56:32	18:10:35	841101	6100c17164f9f4c063f4d25f	3	1	main_z	11	main_z	151	stimuli_target_rectangletriangles.svg	stimuli_distractor_trianglediamonds.svg	1	yes	44	1	784	0	0			0	0			1				0	
6.6.1	mac	2023-06-16	17:56:32	18:10:35	841101	6100c17164f9f4c063f4d25f	3	1	main_z	11	advance_on_keypress_ZEE	152	stimuli_target_rectangletriangles.svg	stimuli_distractor_trianglediamonds.svg	1	yes	57	0	413	0	0			0	0			1				0	
6.6.1	mac	2023-06-16	17:56:32	18:10:38	844029	6100c17164f9f4c063f4d25f	3	1	main_z	11	main_z	153	stimuli_target_trianglerectangles.svg	stimuli_distractor_trianglediamonds.svg	17	yes	44	1	1885	0	0			0	0			1				0	
6.6.1	mac	2023-06-16	17:56:32	18:10:38	844029	6100c17164f9f4c063f4d25f	3	1	main_z	11	advance_on_keypress_ZEE	154	stimuli_target_trianglerectangles.svg	stimuli_distractor_trianglediamonds.svg	17	yes	57	0	305	0	0			0	0			1				0	
6.6.1	mac	2023-06-16	17:56:32	18:10:40	845825	6100c17164f9f4c063f4d25f	3	1	main_z	11	main_z	155	stimuli_target_diamondrectangles.svg	stimuli_distractor_diamondtriangles.svg	23	yes	44	1	842	0	0			0	0			1				0	
6.6.1	mac	2023-06-16	17:56:32	18:10:40	845825	6100c17164f9f4c063f4d25f	3	1	main_z	11	advance_on_keypress_ZEE	156	stimuli_target_diamondrectangles.svg	stimuli_distractor_diamondtriangles.svg	23	yes	57	0	437	0	0			0	0			1				0	
6.6.1	mac	2023-06-16	17:56:32	18:10:42	847760	6100c17164f9f4c063f4d25f	3	1	main_z	11	main_z	157	stimuli_distractor_diamondtriangles.svg	stimuli_target_trianglesquares.svg	30	yes	44	1	866	0	0			0	0			1				0	
6.6.1	mac	2023-06-16	17:56:32	18:10:42	847760	6100c17164f9f4c063f4d25f	3	1	main_z	11	advance_on_keypress_ZEE	158	stimuli_distractor_diamondtriangles.svg	stimuli_target_trianglesquares.svg	30	yes	57	0	609	0	0			0	0			1				0	
6.6.1	mac	2023-06-16	17:56:32	18:10:44	849941	6100c17164f9f4c063f4d25f	3	1	main_z	11	main_z	159	stimuli_target_squaretriangles.svg	stimuli_distractor_diamondtriangles.svg	7	yes	44	1	931	0	0			0	0			1				0	
6.6.1	mac	2023-06-16	17:56:32	18:10:44	849941	6100c17164f9f4c063f4d25f	3	1	main_z	11	advance_on_keypress_ZEE	160	stimuli_target_squaretriangles.svg	stimuli_distractor_diamondtriangles.svg	7	yes	57	0	463	0	0			0	0			1				0	
6.6.1	mac	2023-06-16	17:56:32	18:10:44	849941	6100c17164f9f4c063f4d25f	3	1	headphonecheck_calibration	14	headphonecheck_calibrationIntro	1	stimuli_target_squaretriangles.svg	stimuli_distractor_diamondtriangles.svg	7	yes	calibrationButton	0	2684	0	0			0	0			1				0	
6.6.1	mac	2023-06-16	17:56:32	18:10:44	849941	6100c17164f9f4c063f4d25f	3	1	headphonecheck_testphase	15	test_collectResponse	3	stimuli_target_squaretriangles.svg	stimuli_distractor_diamondtriangles.svg	7	yes	first	1	7288	1	4	antiphase_hc_sio.wav	1	0	0			1				0	
6.6.1	mac	2023-06-16	17:56:32	18:10:44	849941	6100c17164f9f4c063f4d25f	3	1	headphonecheck_testphase	15	test_collectResponse	6	stimuli_target_squaretriangles.svg	stimuli_distractor_diamondtriangles.svg	7	yes	second	1	1356	2	1	antiphase_hc_iso.wav	2	0	0			1				0	
6.6.1	mac	2023-06-16	17:56:32	18:10:44	849941	6100c17164f9f4c063f4d25f	3	1	headphonecheck_testphase	15	test_collectResponse	9	stimuli_target_squaretriangles.svg	stimuli_distractor_diamondtriangles.svg	7	yes	first	1	785	3	3	antiphase_hc_soi.wav	1	0	0			1				0	
6.6.1	mac	2023-06-16	17:56:32	18:10:44	849941	6100c17164f9f4c063f4d25f	3	1	headphonecheck_testphase	15	test_collectResponse	12	stimuli_target_squaretriangles.svg	stimuli_distractor_diamondtriangles.svg	7	yes	second	1	351	4	5	antiphase_hc_osi.wav	2	0	0			1				0	
6.6.1	mac	2023-06-16	17:56:32	18:10:44	849941	6100c17164f9f4c063f4d25f	3	1	headphonecheck_testphase	15	test_collectResponse	15	stimuli_target_squaretriangles.svg	stimuli_distractor_diamondtriangles.svg	7	yes	third	1	338	5	6	antiphase_hc_ois.wav	3	0	0			1				0	
6.6.1	mac	2023-06-16	17:56:32	18:10:44	849941	6100c17164f9f4c063f4d25f	3	1	headphonecheck_testphase	15	test_collectResponse	18	stimuli_target_squaretriangles.svg	stimuli_distractor_diamondtriangles.svg	7	yes	third	1	301	6	2	antiphase_hc_ios.wav	3	0	0			1				0	
6.6.1	mac	2023-06-16	17:56:32	18:10:44	849941	6100c17164f9f4c063f4d25f	3	1	stereocheck_calibration	17	stereocheck_calibrationIntro	1	stimuli_target_squaretriangles.svg	stimuli_distractor_diamondtriangles.svg	7	yes	stereocheck_calibrationButton	0	2441	6	2	antiphase_hc_ios.wav	3	0	0			1				0	
6.6.1	mac	2023-06-16	17:56:32	18:10:44	849941	6100c17164f9f4c063f4d25f	3	1	stereocheck_testphase	18	stereocheck_test_collectResponse	3	stimuli_target_squaretriangles.svg	stimuli_distractor_diamondtriangles.svg	7	yes	stereocheck_left	1	829	6	2	antiphase_hc_ios.wav	3	1	1	noise_calib_stim_LEFT.wav	1	1				0	
6.6.1	mac	2023-06-16	17:56:32	18:10:44	849941	6100c17164f9f4c063f4d25f	3	1	stereocheck_testphase	18	stereocheck_test_collectResponse	6	stimuli_target_squaretriangles.svg	stimuli_distractor_diamondtriangles.svg	7	yes	stereocheck_left	1	338	6	2	antiphase_hc_ios.wav	3	2	2	noise_calib_stim_LEFT.wav	1	1				0	
6.6.1	mac	2023-06-16	17:56:32	18:10:44	849941	6100c17164f9f4c063f4d25f	3	1	stereocheck_testphase	18	stereocheck_test_collectResponse	9	stimuli_target_squaretriangles.svg	stimuli_distractor_diamondtriangles.svg	7	yes	stereocheck_left	1	302	6	2	antiphase_hc_ios.wav	3	3	3	noise_calib_stim_LEFT.wav	1	1				0	
6.6.1	mac	2023-06-16	17:56:32	18:10:44	849941	6100c17164f9f4c063f4d25f	3	1	stereocheck_testphase	18	stereocheck_test_collectResponse	12	stimuli_target_squaretriangles.svg	stimuli_distractor_diamondtriangles.svg	7	yes	stereocheck_right	1	278	6	2	antiphase_hc_ios.wav	3	4	5	noise_calib_stim_RIGHT.wav	2	1				0	
6.6.1	mac	2023-06-16	17:56:32	18:10:44	849941	6100c17164f9f4c063f4d25f	3	1	stereocheck_testphase	18	stereocheck_test_collectResponse	15	stimuli_target_squaretriangles.svg	stimuli_distractor_diamondtriangles.svg	7	yes	stereocheck_right	1	380	6	2	antiphase_hc_ios.wav	3	5	6	noise_calib_stim_RIGHT.wav	2	1				0	
6.6.1	mac	2023-06-16	17:56:32	18:10:44	849941	6100c17164f9f4c063f4d25f	3	1	stereocheck_testphase	18	stereocheck_test_collectResponse	18	stimuli_target_squaretriangles.svg	stimuli_distractor_diamondtriangles.svg	7	yes	stereocheck_right	1	489	6	2	antiphase_hc_ios.wav	3	6	4	noise_calib_stim_RIGHT.wav	2	1				0	
6.6.1	mac	2023-06-16	17:56:32	18:10:44	849941	6100c17164f9f4c063f4d25f	3	1	DL_practice	21	DL_practice	2	stimuli_target_squaretriangles.svg	stimuli_distractor_diamondtriangles.svg	7	yes	ba	1	1092	6	2	antiphase_hc_ios.wav	3	6	4	noise_calib_stim_RIGHT.wav	2	1	blb_dichoticlistening_ba-ba.mp3	ba	ba	0	left
6.6.1	mac	2023-06-16	17:56:32	18:10:44	849941	6100c17164f9f4c063f4d25f	3	1	DL_practice	21	DL_practice	3	stimuli_target_squaretriangles.svg	stimuli_distractor_diamondtriangles.svg	7	yes	ka	0	1351	6	2	antiphase_hc_ios.wav	3	6	4	noise_calib_stim_RIGHT.wav	2	18	blb_dichoticlistening_ga-ta.mp3	ga	ta	1	other
6.6.1	mac	2023-06-16	17:56:32	18:10:44	849941	6100c17164f9f4c063f4d25f	3	1	DL_practice	21	DL_practice	4	stimuli_target_squaretriangles.svg	stimuli_distractor_diamondtriangles.svg	7	yes	ka	1	681	6	2	antiphase_hc_ios.wav	3	6	4	noise_calib_stim_RIGHT.wav	2	22	blb_dichoticlistening_ka-ka.mp3	ka	ka	0	left
6.6.1	mac	2023-06-16	17:56:32	18:10:44	849941	6100c17164f9f4c063f4d25f	3	1	DL_practice	21	DL_practice	5	stimuli_target_squaretriangles.svg	stimuli_distractor_diamondtriangles.svg	7	yes	da	1	1049	6	2	antiphase_hc_ios.wav	3	6	4	noise_calib_stim_RIGHT.wav	2	8	blb_dichoticlistening_da-da.mp3	da	da	0	left
6.6.1	mac	2023-06-16	17:56:32	18:10:44	849941	6100c17164f9f4c063f4d25f	3	1	DL_practice	21	DL_practice	6	stimuli_target_squaretriangles.svg	stimuli_distractor_diamondtriangles.svg	7	yes	ba	1	1803	6	2	antiphase_hc_ios.wav	3	6	4	noise_calib_stim_RIGHT.wav	2	7	blb_dichoticlistening_da-ba.mp3	da	ba	1	right
6.6.1	mac	2023-06-16	17:56:32	18:10:44	849941	6100c17164f9f4c063f4d25f	3	1	DL_practice	21	DL_practice	7	stimuli_target_squaretriangles.svg	stimuli_distractor_diamondtriangles.svg	7	yes	ga	1	1120	6	2	antiphase_hc_ios.wav	3	6	4	noise_calib_stim_RIGHT.wav	2	15	blb_dichoticlistening_ga-ga.mp3	ga	ga	0	left
6.6.1	mac	2023-06-16	17:56:32	18:10:44	849941	6100c17164f9f4c063f4d25f	3	1	DL_practice	21	DL_practice	8	stimuli_target_squaretriangles.svg	stimuli_distractor_diamondtriangles.svg	7	yes	ta	1	1225	6	2	antiphase_hc_ios.wav	3	6	4	noise_calib_stim_RIGHT.wav	2	36	blb_dichoticlistening_ta-ta.mp3	ta	ta	0	left
6.6.1	mac	2023-06-16	17:56:32	18:10:44	849941	6100c17164f9f4c063f4d25f	3	1	DL_practice	21	DL_practice	9	stimuli_target_squaretriangles.svg	stimuli_distractor_diamondtriangles.svg	7	yes	ka	1	1002	6	2	antiphase_hc_ios.wav	3	6	4	noise_calib_stim_RIGHT.wav	2	23	blb_dichoticlistening_ka-pa.mp3	ka	pa	1	left
6.6.1	mac	2023-06-16	17:56:32	18:10:44	849941	6100c17164f9f4c063f4d25f	3	1	DL_practice	21	DL_practice	10	stimuli_target_squaretriangles.svg	stimuli_distractor_diamondtriangles.svg	7	yes	pa	1	1242	6	2	antiphase_hc_ios.wav	3	6	4	noise_calib_stim_RIGHT.wav	2	29	blb_dichoticlistening_pa-pa.mp3	pa	pa	0	left
6.6.1	mac	2023-06-16	17:56:32	18:10:44	849941	6100c17164f9f4c063f4d25f	3	1	DL_test	23	DL_test	1	stimuli_target_squaretriangles.svg	stimuli_distractor_diamondtriangles.svg	7	yes	da	1	2436	6	2	antiphase_hc_ios.wav	3	6	4	noise_calib_stim_RIGHT.wav	2	10	blb_dichoticlistening_da-ka.mp3	da	ka	1	left
6.6.1	mac	2023-06-16	17:56:32	18:10:44	849941	6100c17164f9f4c063f4d25f	3	1	DL_test	23	DL_test	2	stimuli_target_squaretriangles.svg	stimuli_distractor_diamondtriangles.svg	7	yes	ta	1	1595	6	2	antiphase_hc_ios.wav	3	6	4	noise_calib_stim_RIGHT.wav	2	36	blb_dichoticlistening_ta-ta.mp3	ta	ta	0	left
6.6.1	mac	2023-06-16	17:56:32	18:10:44	849941	6100c17164f9f4c063f4d25f	3	1	DL_test	23	DL_test	3	stimuli_target_squaretriangles.svg	stimuli_distractor_diamondtriangles.svg	7	yes	da	1	1267	6	2	antiphase_hc_ios.wav	3	6	4	noise_calib_stim_RIGHT.wav	2	14	blb_dichoticlistening_ga-da.mp3	ga	da	1	right
6.6.1	mac	2023-06-16	17:56:32	18:10:44	849941	6100c17164f9f4c063f4d25f	3	1	DL_test	23	DL_test	4	stimuli_target_squaretriangles.svg	stimuli_distractor_diamondtriangles.svg	7	yes	ka	1	945	6	2	antiphase_hc_ios.wav	3	6	4	noise_calib_stim_RIGHT.wav	2	28	blb_dichoticlistening_pa-ka.mp3	pa	ka	1	right
6.6.1	mac	2023-06-16	17:56:32	18:10:44	849941	6100c17164f9f4c063f4d25f	3	1	DL_test	23	DL_test	5	stimuli_target_squaretriangles.svg	stimuli_distractor_diamondtriangles.svg	7	yes	ka	1	764	6	2	antiphase_hc_ios.wav	3	6	4	noise_calib_stim_RIGHT.wav	2	22	blb_dichoticlistening_ka-ka.mp3	ka	ka	0	left
6.6.1	mac	2023-06-16	17:56:32	18:10:44	849941	6100c17164f9f4c063f4d25f	3	1	DL_test	23	DL_test	6	stimuli_target_squaretriangles.svg	stimuli_distractor_diamondtriangles.svg	7	yes	ka	1	790	6	2	antiphase_hc_ios.wav	3	6	4	noise_calib_stim_RIGHT.wav	2	24	blb_dichoticlistening_ka-ta.mp3	ka	ta	1	left
6.6.1	mac	2023-06-16	17:56:32	18:10:44	849941	6100c17164f9f4c063f4d25f	3	1	DL_test	23	DL_test	7	stimuli_target_squaretriangles.svg	stimuli_distractor_diamondtriangles.svg	7	yes	ka	1	874	6	2	antiphase_hc_ios.wav	3	6	4	noise_calib_stim_RIGHT.wav	2	4	blb_dichoticlistening_ba-ka.mp3	ba	ka	1	right
6.6.1	mac	2023-06-16	17:56:32	18:10:44	849941	6100c17164f9f4c063f4d25f	3	1	DL_test	23	DL_test	8	stimuli_target_squaretriangles.svg	stimuli_distractor_diamondtriangles.svg	7	yes	ga	1	1108	6	2	antiphase_hc_ios.wav	3	6	4	noise_calib_stim_RIGHT.wav	2	16	blb_dichoticlistening_ga-ka.mp3	ga	ka	1	left
6.6.1	mac	2023-06-16	17:56:32	18:10:44	849941	6100c17164f9f4c063f4d25f	3	1	DL_test	23	DL_test	9	stimuli_target_squaretriangles.svg	stimuli_distractor_diamondtriangles.svg	7	yes	ga	1	997	6	2	antiphase_hc_ios.wav	3	6	4	noise_calib_stim_RIGHT.wav	2	21	blb_dichoticlistening_ka-ga.mp3	ka	ga	1	right
6.6.1	mac	2023-06-16	17:56:32	18:10:44	849941	6100c17164f9f4c063f4d25f	3	1	DL_test	23	DL_test	10	stimuli_target_squaretriangles.svg	stimuli_distractor_diamondtriangles.svg	7	yes	da	1	1406	6	2	antiphase_hc_ios.wav	3	6	4	noise_calib_stim_RIGHT.wav	2	11	blb_dichoticlistening_da-pa.mp3	da	pa	1	left
6.6.1	mac	2023-06-16	17:56:32	18:10:44	849941	6100c17164f9f4c063f4d25f	3	1	DL_test	23	DL_test	11	stimuli_target_squaretriangles.svg	stimuli_distractor_diamondtriangles.svg	7	yes	pa	1	1575	6	2	antiphase_hc_ios.wav	3	6	4	noise_calib_stim_RIGHT.wav	2	17	blb_dichoticlistening_ga-pa.mp3	ga	pa	1	right
6.6.1	mac	2023-06-16	17:56:32	18:10:44	849941	6100c17164f9f4c063f4d25f	3	1	DL_test	23	DL_test	12	stimuli_target_squaretriangles.svg	stimuli_distractor_diamondtriangles.svg	7	yes	pa	1	688	6	2	antiphase_hc_ios.wav	3	6	4	noise_calib_stim_RIGHT.wav	2	29	blb_dichoticlistening_pa-pa.mp3	pa	pa	0	left
6.6.1	mac	2023-06-16	17:56:32	18:10:44	849941	6100c17164f9f4c063f4d25f	3	1	DL_test	23	DL_test	13	stimuli_target_squaretriangles.svg	stimuli_distractor_diamondtriangles.svg	7	yes	ka	1	1056	6	2	antiphase_hc_ios.wav	3	6	4	noise_calib_stim_RIGHT.wav	2	34	blb_dichoticlistening_ta-ka.mp3	ta	ka	1	right
6.6.1	mac	2023-06-16	17:56:32	18:10:44	849941	6100c17164f9f4c063f4d25f	3	1	DL_test	23	DL_test	14	stimuli_target_squaretriangles.svg	stimuli_distractor_diamondtriangles.svg	7	yes	ta	1	2523	6	2	antiphase_hc_ios.wav	3	6	4	noise_calib_stim_RIGHT.wav	2	30	blb_dichoticlistening_pa-ta.mp3	pa	ta	1	right
6.6.1	mac	2023-06-16	17:56:32	18:10:44	849941	6100c17164f9f4c063f4d25f	3	1	DL_test	23	DL_test	15	stimuli_target_squaretriangles.svg	stimuli_distractor_diamondtriangles.svg	7	yes	ka	0	1542	6	2	antiphase_hc_ios.wav	3	6	4	noise_calib_stim_RIGHT.wav	2	6	blb_dichoticlistening_ba-ta.mp3	ba	ta	1	other
6.6.1	mac	2023-06-16	17:56:32	18:10:44	849941	6100c17164f9f4c063f4d25f	3	1	DL_test	23	DL_test	16	stimuli_target_squaretriangles.svg	stimuli_distractor_diamondtriangles.svg	7	yes	ga	1	1070	6	2	antiphase_hc_ios.wav	3	6	4	noise_calib_stim_RIGHT.wav	2	27	blb_dichoticlistening_pa-ga.mp3	pa	ga	1	right
6.6.1	mac	2023-06-16	17:56:32	18:10:44	849941	6100c17164f9f4c063f4d25f	3	1	DL_test	23	DL_test	17	stimuli_target_squaretriangles.svg	stimuli_distractor_diamondtriangles.svg	7	yes	da	1	1304	6	2	antiphase_hc_ios.wav	3	6	4	noise_calib_stim_RIGHT.wav	2	2	blb_dichoticlistening_ba-da.mp3	ba	da	1	right
6.6.1	mac	2023-06-16	17:56:32	18:10:44	849941	6100c17164f9f4c063f4d25f	3	1	DL_test	23	DL_test	18	stimuli_target_squaretriangles.svg	stimuli_distractor_diamondtriangles.svg	7	yes	ba	1	1946	6	2	antiphase_hc_ios.wav	3	6	4	noise_calib_stim_RIGHT.wav	2	1	blb_dichoticlistening_ba-ba.mp3	ba	ba	0	left
6.6.1	mac	2023-06-16	17:56:32	18:10:44	849941	6100c17164f9f4c063f4d25f	3	1	DL_test	23	DL_test	19	stimuli_target_squaretriangles.svg	stimuli_distractor_diamondtriangles.svg	7	yes	ka	1	1136	6	2	antiphase_hc_ios.wav	3	6	4	noise_calib_stim_RIGHT.wav	2	19	blb_dichoticlistening_ka-ba.mp3	ka	ba	1	left
6.6.1	mac	2023-06-16	17:56:32	18:10:44	849941	6100c17164f9f4c063f4d25f	3	1	DL_test	23	DL_test	20	stimuli_target_squaretriangles.svg	stimuli_distractor_diamondtriangles.svg	7	yes	ga	1	1159	6	2	antiphase_hc_ios.wav	3	6	4	noise_calib_stim_RIGHT.wav	2	15	blb_dichoticlistening_ga-ga.mp3	ga	ga	0	left
6.6.1	mac	2023-06-16	17:56:32	18:10:44	849941	6100c17164f9f4c063f4d25f	3	1	DL_test	23	DL_test	21	stimuli_target_squaretriangles.svg	stimuli_distractor_diamondtriangles.svg	7	yes	ga	1	1506	6	2	antiphase_hc_ios.wav	3	6	4	noise_calib_stim_RIGHT.wav	2	3	blb_dichoticlistening_ba-ga.mp3	ba	ga	1	right
6.6.1	mac	2023-06-16	17:56:32	18:10:44	849941	6100c17164f9f4c063f4d25f	3	1	DL_test	23	DL_test	22	stimuli_target_squaretriangles.svg	stimuli_distractor_diamondtriangles.svg	7	yes	da	1	1842	6	2	antiphase_hc_ios.wav	3	6	4	noise_calib_stim_RIGHT.wav	2	26	blb_dichoticlistening_pa-da.mp3	pa	da	1	right
6.6.1	mac	2023-06-16	17:56:32	18:10:44	849941	6100c17164f9f4c063f4d25f	3	1	DL_test	23	DL_test	23	stimuli_target_squaretriangles.svg	stimuli_distractor_diamondtriangles.svg	7	yes	pa	0	3284	6	2	antiphase_hc_ios.wav	3	6	4	noise_calib_stim_RIGHT.wav	2	7	blb_dichoticlistening_da-ba.mp3	da	ba	1	other
6.6.1	mac	2023-06-16	17:56:32	18:10:44	849941	6100c17164f9f4c063f4d25f	3	1	DL_test	23	DL_test	24	stimuli_target_squaretriangles.svg	stimuli_distractor_diamondtriangles.svg	7	yes	ka	0	1271	6	2	antiphase_hc_ios.wav	3	6	4	noise_calib_stim_RIGHT.wav	2	18	blb_dichoticlistening_ga-ta.mp3	ga	ta	1	other
6.6.1	mac	2023-06-16	17:56:32	18:10:44	849941	6100c17164f9f4c063f4d25f	3	1	DL_test	23	DL_test	25	stimuli_target_squaretriangles.svg	stimuli_distractor_diamondtriangles.svg	7	yes	ka	0	1071	6	2	antiphase_hc_ios.wav	3	6	4	noise_calib_stim_RIGHT.wav	2	33	blb_dichoticlistening_ta-ga.mp3	ta	ga	1	other
6.6.1	mac	2023-06-16	17:56:32	18:10:44	849941	6100c17164f9f4c063f4d25f	3	1	DL_test	23	DL_test	26	stimuli_target_squaretriangles.svg	stimuli_distractor_diamondtriangles.svg	7	yes	ga	0	1107	6	2	antiphase_hc_ios.wav	3	6	4	noise_calib_stim_RIGHT.wav	2	12	blb_dichoticlistening_da-ta.mp3	da	ta	1	other
