build	computer.platform	date	time	timestamp	time_elapsed_ms	subject	group	session	blockcode	blocknum	trialcode	trialnum	stimulus_left	stimulus_right	stim_index	target_present	response	correct	latency	headphonecheck_countTestTrials	headphonecheck_index	headphonecheck_testSound	headphonecheck_correctResponse	stereocheck_countTestTrials	stereocheck_index	stereocheck_testSound	stereocheck_correctResponse	DL_index	DL_soundfile	DL_leftSound	DL_rightSound	DL_dualSound	DL_choice
6.6.1	win	2023-06-27	00:58:20	01:02:11	227807	63e51bc04bab3dc97deba8de	3	1	practice_slash	5	practice_slash	1	stimuli_target_squarediamonds.svg	stimuli_distractor_diamondtriangles.svg	2	yes	53	1	961	0	0			0	0			1				0	
6.6.1	win	2023-06-27	00:58:20	01:02:11	227807	63e51bc04bab3dc97deba8de	3	1	practice_slash	5	advance_on_keypress_SLASH	2	stimuli_target_squarediamonds.svg	stimuli_distractor_diamondtriangles.svg	2	yes	57	0	2091	0	0			0	0			1				0	
6.6.1	win	2023-06-27	00:58:20	01:02:15	232241	63e51bc04bab3dc97deba8de	3	1	practice_slash	5	practice_slash	3	stimuli_target_squarediamonds.svg	stimuli_distractor_trianglediamonds.svg	5	yes	53	1	696	0	0			0	0			1				0	
6.6.1	win	2023-06-27	00:58:20	01:02:15	232241	63e51bc04bab3dc97deba8de	3	1	practice_slash	5	advance_on_keypress_SLASH	4	stimuli_target_squarediamonds.svg	stimuli_distractor_trianglediamonds.svg	5	yes	57	0	1111	0	0			0	0			1				0	
6.6.1	win	2023-06-27	00:58:20	01:02:19	235566	63e51bc04bab3dc97deba8de	3	1	practice_slash	5	practice_slash	5	stimuli_target_rectanglediamonds.svg	stimuli_distractor_diamondtriangles.svg	1	yes	53	1	559	0	0			0	0			1				0	
6.6.1	win	2023-06-27	00:58:20	01:02:19	235566	63e51bc04bab3dc97deba8de	3	1	practice_slash	5	advance_on_keypress_SLASH	6	stimuli_target_rectanglediamonds.svg	stimuli_distractor_diamondtriangles.svg	1	yes	57	0	1051	0	0			0	0			1				0	
6.6.1	win	2023-06-27	00:58:20	01:02:23	240291	63e51bc04bab3dc97deba8de	3	1	practice_slash	5	practice_slash	7	stimuli_distractor_trianglediamonds.svg	stimuli_distractor_trianglediamonds.svg	15	no	0	1	2000	0	0			0	0			1				0	
6.6.1	win	2023-06-27	00:58:20	01:02:23	240291	63e51bc04bab3dc97deba8de	3	1	practice_slash	5	advance_on_keypress_SLASH	8	stimuli_distractor_trianglediamonds.svg	stimuli_distractor_trianglediamonds.svg	15	no	57	0	2718	0	0			0	0			1				0	
6.6.1	win	2023-06-27	00:58:20	01:02:28	245447	63e51bc04bab3dc97deba8de	3	1	practice_slash	5	practice_slash	9	stimuli_distractor_diamondtriangles.svg	stimuli_target_diamondrectangles.svg	8	yes	53	1	760	0	0			0	0			1				0	
6.6.1	win	2023-06-27	00:58:20	01:02:28	245447	63e51bc04bab3dc97deba8de	3	1	practice_slash	5	advance_on_keypress_SLASH	10	stimuli_distractor_diamondtriangles.svg	stimuli_target_diamondrectangles.svg	8	yes	57	0	1023	0	0			0	0			1				0	
6.6.1	win	2023-06-27	00:58:20	01:02:32	248952	63e51bc04bab3dc97deba8de	3	1	practice_slash	5	practice_slash	11	stimuli_distractor_trianglediamonds.svg	stimuli_target_rectanglediamonds.svg	10	yes	53	1	823	0	0			0	0			1				0	
6.6.1	win	2023-06-27	00:58:20	01:02:32	248952	63e51bc04bab3dc97deba8de	3	1	practice_slash	5	advance_on_keypress_SLASH	12	stimuli_distractor_trianglediamonds.svg	stimuli_target_rectanglediamonds.svg	10	yes	57	0	754	0	0			0	0			1				0	
6.6.1	win	2023-06-27	00:58:20	01:02:35	252210	63e51bc04bab3dc97deba8de	3	1	practice_slash	5	practice_slash	13	stimuli_distractor_diamondtriangles.svg	stimuli_target_rectangletriangles.svg	7	yes	53	1	864	0	0			0	0			1				0	
6.6.1	win	2023-06-27	00:58:20	01:02:35	252210	63e51bc04bab3dc97deba8de	3	1	practice_slash	5	advance_on_keypress_SLASH	14	stimuli_distractor_diamondtriangles.svg	stimuli_target_rectangletriangles.svg	7	yes	57	0	785	0	0			0	0			1				0	
6.6.1	win	2023-06-27	00:58:20	01:02:38	255157	63e51bc04bab3dc97deba8de	3	1	practice_slash	5	practice_slash	15	stimuli_distractor_trianglediamonds.svg	stimuli_target_diamondrectangles.svg	12	yes	53	1	512	0	0			0	0			1				0	
6.6.1	win	2023-06-27	00:58:20	01:02:38	255157	63e51bc04bab3dc97deba8de	3	1	practice_slash	5	advance_on_keypress_SLASH	16	stimuli_distractor_trianglediamonds.svg	stimuli_target_diamondrectangles.svg	12	yes	57	0	817	0	0			0	0			1				0	
6.6.1	win	2023-06-27	00:58:20	01:02:41	258124	63e51bc04bab3dc97deba8de	3	1	practice_slash	5	practice_slash	17	stimuli_distractor_trianglediamonds.svg	stimuli_target_squarediamonds.svg	11	yes	53	1	495	0	0			0	0			1				0	
6.6.1	win	2023-06-27	00:58:20	01:02:41	258124	63e51bc04bab3dc97deba8de	3	1	practice_slash	5	advance_on_keypress_SLASH	18	stimuli_distractor_trianglediamonds.svg	stimuli_target_squarediamonds.svg	11	yes	57	0	677	0	0			0	0			1				0	
6.6.1	win	2023-06-27	00:58:20	01:02:44	261095	63e51bc04bab3dc97deba8de	3	1	practice_slash	5	practice_slash	19	stimuli_target_diamondsquares.svg	stimuli_distractor_trianglediamonds.svg	6	yes	53	1	651	0	0			0	0			1				0	
6.6.1	win	2023-06-27	00:58:20	01:02:44	261095	63e51bc04bab3dc97deba8de	3	1	practice_slash	5	advance_on_keypress_SLASH	20	stimuli_target_diamondsquares.svg	stimuli_distractor_trianglediamonds.svg	6	yes	57	0	523	0	0			0	0			1				0	
6.6.1	win	2023-06-27	00:58:20	01:02:48	265261	63e51bc04bab3dc97deba8de	3	1	practice_slash	5	practice_slash	21	stimuli_distractor_diamondtriangles.svg	stimuli_distractor_trianglediamonds.svg	14	no	0	1	2000	0	0			0	0			1				0	
6.6.1	win	2023-06-27	00:58:20	01:02:48	265261	63e51bc04bab3dc97deba8de	3	1	practice_slash	5	advance_on_keypress_SLASH	22	stimuli_distractor_diamondtriangles.svg	stimuli_distractor_trianglediamonds.svg	14	no	57	0	961	0	0			0	0			1				0	
6.6.1	win	2023-06-27	00:58:20	01:02:52	268594	63e51bc04bab3dc97deba8de	3	1	practice_slash	5	practice_slash	23	stimuli_distractor_diamondtriangles.svg	stimuli_target_trianglerectangles.svg	9	yes	53	1	722	0	0			0	0			1				0	
6.6.1	win	2023-06-27	00:58:20	01:02:52	268594	63e51bc04bab3dc97deba8de	3	1	practice_slash	5	advance_on_keypress_SLASH	24	stimuli_distractor_diamondtriangles.svg	stimuli_target_trianglerectangles.svg	9	yes	57	0	646	0	0			0	0			1				0	
6.6.1	win	2023-06-27	00:58:20	01:02:55	271760	63e51bc04bab3dc97deba8de	3	1	practice_slash	5	practice_slash	25	stimuli_target_rectanglediamonds.svg	stimuli_distractor_trianglediamonds.svg	4	yes	53	1	866	0	0			0	0			1				0	
6.6.1	win	2023-06-27	00:58:20	01:02:55	271760	63e51bc04bab3dc97deba8de	3	1	practice_slash	5	advance_on_keypress_SLASH	26	stimuli_target_rectanglediamonds.svg	stimuli_distractor_trianglediamonds.svg	4	yes	57	0	651	0	0			0	0			1				0	
6.6.1	win	2023-06-27	00:58:20	01:02:58	274772	63e51bc04bab3dc97deba8de	3	1	practice_slash	5	practice_slash	27	stimuli_target_diamondsquares.svg	stimuli_distractor_diamondtriangles.svg	3	yes	53	1	711	0	0			0	0			1				0	
6.6.1	win	2023-06-27	00:58:20	01:02:58	274772	63e51bc04bab3dc97deba8de	3	1	practice_slash	5	advance_on_keypress_SLASH	28	stimuli_target_diamondsquares.svg	stimuli_distractor_diamondtriangles.svg	3	yes	57	0	553	0	0			0	0			1				0	
6.6.1	win	2023-06-27	00:58:20	01:03:02	278961	63e51bc04bab3dc97deba8de	3	1	practice_slash	5	practice_slash	29	stimuli_distractor_diamondtriangles.svg	stimuli_distractor_diamondtriangles.svg	13	no	0	1	2000	0	0			0	0			1				0	
6.6.1	win	2023-06-27	00:58:20	01:03:02	278961	63e51bc04bab3dc97deba8de	3	1	practice_slash	5	advance_on_keypress_SLASH	30	stimuli_distractor_diamondtriangles.svg	stimuli_distractor_diamondtriangles.svg	13	no	57	0	468	0	0			0	0			1				0	
6.6.1	win	2023-06-27	00:58:20	01:03:06	283078	63e51bc04bab3dc97deba8de	3	1	practice_slash	5	practice_slash	31	stimuli_distractor_trianglediamonds.svg	stimuli_distractor_diamondtriangles.svg	16	no	0	1	2000	0	0			0	0			1				0	
6.6.1	win	2023-06-27	00:58:20	01:03:06	283078	63e51bc04bab3dc97deba8de	3	1	practice_slash	5	advance_on_keypress_SLASH	32	stimuli_distractor_trianglediamonds.svg	stimuli_distractor_diamondtriangles.svg	16	no	57	0	562	0	0			0	0			1				0	
6.6.1	win	2023-06-27	00:58:20	01:04:10	346991	63e51bc04bab3dc97deba8de	3	1	main_slash	7	main_slash	1	stimuli_target_diamondsquares.svg	stimuli_distractor_diamondtriangles.svg	24	yes	53	1	775	0	0			0	0			1				0	
6.6.1	win	2023-06-27	00:58:20	01:04:10	346991	63e51bc04bab3dc97deba8de	3	1	main_slash	7	advance_on_keypress_SLASH	2	stimuli_target_diamondsquares.svg	stimuli_distractor_diamondtriangles.svg	24	yes	57	0	2240	0	0			0	0			1				0	
6.6.1	win	2023-06-27	00:58:20	01:04:14	350501	63e51bc04bab3dc97deba8de	3	1	main_slash	7	main_slash	3	stimuli_distractor_trianglediamonds.svg	stimuli_target_trianglesquares.svg	26	yes	53	1	595	0	0			0	0			1				0	
6.6.1	win	2023-06-27	00:58:20	01:04:14	350501	63e51bc04bab3dc97deba8de	3	1	main_slash	7	advance_on_keypress_SLASH	4	stimuli_distractor_trianglediamonds.svg	stimuli_target_trianglesquares.svg	26	yes	57	0	1161	0	0			0	0			1				0	
6.6.1	win	2023-06-27	00:58:20	01:04:16	352804	63e51bc04bab3dc97deba8de	3	1	main_slash	7	main_slash	5	stimuli_distractor_trianglediamonds.svg	stimuli_target_squarediamonds.svg	12	yes	53	1	494	0	0			0	0			1				0	
6.6.1	win	2023-06-27	00:58:20	01:04:16	352804	63e51bc04bab3dc97deba8de	3	1	main_slash	7	advance_on_keypress_SLASH	6	stimuli_distractor_trianglediamonds.svg	stimuli_target_squarediamonds.svg	12	yes	57	0	991	0	0			0	0			1				0	
6.6.1	win	2023-06-27	00:58:20	01:04:19	356426	63e51bc04bab3dc97deba8de	3	1	main_slash	7	main_slash	7	stimuli_distractor_diamondtriangles.svg	stimuli_distractor_diamondtriangles.svg	39	no	0	1	2000	0	0			0	0			1				0	
6.6.1	win	2023-06-27	00:58:20	01:04:19	356426	63e51bc04bab3dc97deba8de	3	1	main_slash	7	advance_on_keypress_SLASH	8	stimuli_distractor_diamondtriangles.svg	stimuli_distractor_diamondtriangles.svg	39	no	57	0	616	0	0			0	0			1				0	
6.6.1	win	2023-06-27	00:58:20	01:04:22	358532	63e51bc04bab3dc97deba8de	3	1	main_slash	7	main_slash	9	stimuli_distractor_diamondtriangles.svg	stimuli_target_trianglerectangles.svg	29	yes	53	1	839	0	0			0	0			1				0	
6.6.1	win	2023-06-27	00:58:20	01:04:22	358532	63e51bc04bab3dc97deba8de	3	1	main_slash	7	advance_on_keypress_SLASH	10	stimuli_distractor_diamondtriangles.svg	stimuli_target_trianglerectangles.svg	29	yes	57	0	1192	0	0			0	0			1				0	
6.6.1	win	2023-06-27	00:58:20	01:04:24	361430	63e51bc04bab3dc97deba8de	3	1	main_slash	7	main_slash	11	stimuli_distractor_diamondtriangles.svg	stimuli_target_squaretriangles.svg	15	yes	53	1	1064	0	0			0	0			1				0	
6.6.1	win	2023-06-27	00:58:20	01:04:24	361430	63e51bc04bab3dc97deba8de	3	1	main_slash	7	advance_on_keypress_SLASH	12	stimuli_distractor_diamondtriangles.svg	stimuli_target_squaretriangles.svg	15	yes	57	0	1680	0	0			0	0			1				0	
6.6.1	win	2023-06-27	00:58:20	01:04:28	364502	63e51bc04bab3dc97deba8de	3	1	main_slash	7	main_slash	13	stimuli_distractor_diamondtriangles.svg	stimuli_target_diamondsquares.svg	32	yes	53	1	742	0	0			0	0			1				0	
6.6.1	win	2023-06-27	00:58:20	01:04:28	364502	63e51bc04bab3dc97deba8de	3	1	main_slash	7	advance_on_keypress_SLASH	14	stimuli_distractor_diamondtriangles.svg	stimuli_target_diamondsquares.svg	32	yes	57	0	6342	0	0			0	0			1				0	
6.6.1	win	2023-06-27	00:58:20	01:04:35	372341	63e51bc04bab3dc97deba8de	3	1	main_slash	7	main_slash	15	stimuli_target_squaretriangles.svg	stimuli_distractor_trianglediamonds.svg	3	yes	53	1	854	0	0			0	0			1				0	
6.6.1	win	2023-06-27	00:58:20	01:04:35	372341	63e51bc04bab3dc97deba8de	3	1	main_slash	7	advance_on_keypress_SLASH	16	stimuli_target_squaretriangles.svg	stimuli_distractor_trianglediamonds.svg	3	yes	57	0	1028	0	0			0	0			1				0	
6.6.1	win	2023-06-27	00:58:20	01:04:38	374621	63e51bc04bab3dc97deba8de	3	1	main_slash	7	main_slash	17	stimuli_target_diamondrectangles.svg	stimuli_distractor_trianglediamonds.svg	19	yes	53	1	611	0	0			0	0			1				0	
6.6.1	win	2023-06-27	00:58:20	01:04:38	374621	63e51bc04bab3dc97deba8de	3	1	main_slash	7	advance_on_keypress_SLASH	18	stimuli_target_diamondrectangles.svg	stimuli_distractor_trianglediamonds.svg	19	yes	57	0	826	0	0			0	0			1				0	
6.6.1	win	2023-06-27	00:58:20	01:04:41	378093	63e51bc04bab3dc97deba8de	3	1	main_slash	7	main_slash	19	stimuli_distractor_diamondtriangles.svg	stimuli_distractor_diamondtriangles.svg	40	no	0	1	2000	0	0			0	0			1				0	
6.6.1	win	2023-06-27	00:58:20	01:04:41	378093	63e51bc04bab3dc97deba8de	3	1	main_slash	7	advance_on_keypress_SLASH	20	stimuli_distractor_diamondtriangles.svg	stimuli_distractor_diamondtriangles.svg	40	no	57	0	971	0	0			0	0			1				0	
6.6.1	win	2023-06-27	00:58:20	01:04:43	380284	63e51bc04bab3dc97deba8de	3	1	main_slash	7	main_slash	21	stimuli_target_rectangletriangles.svg	stimuli_distractor_diamondtriangles.svg	5	yes	53	1	574	0	0			0	0			1				0	
6.6.1	win	2023-06-27	00:58:20	01:04:43	380284	63e51bc04bab3dc97deba8de	3	1	main_slash	7	advance_on_keypress_SLASH	22	stimuli_target_rectangletriangles.svg	stimuli_distractor_diamondtriangles.svg	5	yes	57	0	1956	0	0			0	0			1				0	
6.6.1	win	2023-06-27	00:58:20	01:04:47	383487	63e51bc04bab3dc97deba8de	3	1	main_slash	7	main_slash	23	stimuli_distractor_diamondtriangles.svg	stimuli_target_rectanglediamonds.svg	14	yes	53	1	611	0	0			0	0			1				0	
6.6.1	win	2023-06-27	00:58:20	01:04:47	383487	63e51bc04bab3dc97deba8de	3	1	main_slash	7	advance_on_keypress_SLASH	24	stimuli_distractor_diamondtriangles.svg	stimuli_target_rectanglediamonds.svg	14	yes	57	0	6263	0	0			0	0			1				0	
6.6.1	win	2023-06-27	00:58:20	01:04:54	391059	63e51bc04bab3dc97deba8de	3	1	main_slash	7	main_slash	25	stimuli_target_diamondsquares.svg	stimuli_distractor_trianglediamonds.svg	20	yes	53	1	651	0	0			0	0			1				0	
6.6.1	win	2023-06-27	00:58:20	01:04:54	391059	63e51bc04bab3dc97deba8de	3	1	main_slash	7	advance_on_keypress_SLASH	26	stimuli_target_diamondsquares.svg	stimuli_distractor_trianglediamonds.svg	20	yes	57	0	1156	0	0			0	0			1				0	
6.6.1	win	2023-06-27	00:58:20	01:04:58	394881	63e51bc04bab3dc97deba8de	3	1	main_slash	7	main_slash	27	stimuli_target_trianglerectangles.svg	stimuli_distractor_diamondtriangles.svg	21	yes	0	0	2000	0	0			0	0			1				0	
6.6.1	win	2023-06-27	00:58:20	01:04:58	394881	63e51bc04bab3dc97deba8de	3	1	main_slash	7	advance_on_keypress_SLASH	28	stimuli_target_trianglerectangles.svg	stimuli_distractor_diamondtriangles.svg	21	yes	57	0	4191	0	0			0	0			1				0	
6.6.1	win	2023-06-27	00:58:20	01:05:03	400286	63e51bc04bab3dc97deba8de	3	1	main_slash	7	main_slash	29	stimuli_target_rectanglediamonds.svg	stimuli_distractor_diamondtriangles.svg	6	yes	53	1	560	0	0			0	0			1				0	
6.6.1	win	2023-06-27	00:58:20	01:05:03	400286	63e51bc04bab3dc97deba8de	3	1	main_slash	7	advance_on_keypress_SLASH	30	stimuli_target_rectanglediamonds.svg	stimuli_distractor_diamondtriangles.svg	6	yes	57	0	17294	0	0			0	0			1				0	
6.6.1	win	2023-06-27	00:58:20	01:05:23	420209	63e51bc04bab3dc97deba8de	3	1	main_slash	7	main_slash	31	stimuli_distractor_diamondtriangles.svg	stimuli_distractor_trianglediamonds.svg	38	no	0	1	2000	0	0			0	0			1				0	
6.6.1	win	2023-06-27	00:58:20	01:05:23	420209	63e51bc04bab3dc97deba8de	3	1	main_slash	7	advance_on_keypress_SLASH	32	stimuli_distractor_diamondtriangles.svg	stimuli_distractor_trianglediamonds.svg	38	no	57	0	504	0	0			0	0			1				0	
6.6.1	win	2023-06-27	00:58:20	01:05:26	423386	63e51bc04bab3dc97deba8de	3	1	main_slash	7	main_slash	33	stimuli_distractor_trianglediamonds.svg	stimuli_distractor_diamondtriangles.svg	36	no	0	1	2000	0	0			0	0			1				0	
6.6.1	win	2023-06-27	00:58:20	01:05:26	423386	63e51bc04bab3dc97deba8de	3	1	main_slash	7	advance_on_keypress_SLASH	34	stimuli_distractor_trianglediamonds.svg	stimuli_distractor_diamondtriangles.svg	36	no	57	0	1026	0	0			0	0			1				0	
6.6.1	win	2023-06-27	00:58:20	01:05:29	425616	63e51bc04bab3dc97deba8de	3	1	main_slash	7	main_slash	35	stimuli_distractor_trianglediamonds.svg	stimuli_target_trianglerectangles.svg	25	yes	53	1	573	0	0			0	0			1				0	
6.6.1	win	2023-06-27	00:58:20	01:05:29	425616	63e51bc04bab3dc97deba8de	3	1	main_slash	7	advance_on_keypress_SLASH	36	stimuli_distractor_trianglediamonds.svg	stimuli_target_trianglerectangles.svg	25	yes	57	0	1148	0	0			0	0			1				0	
6.6.1	win	2023-06-27	00:58:20	01:05:31	428012	63e51bc04bab3dc97deba8de	3	1	main_slash	7	main_slash	37	stimuli_target_trianglerectangles.svg	stimuli_distractor_trianglediamonds.svg	17	yes	53	1	603	0	0			0	0			1				0	
6.6.1	win	2023-06-27	00:58:20	01:05:31	428012	63e51bc04bab3dc97deba8de	3	1	main_slash	7	advance_on_keypress_SLASH	38	stimuli_target_trianglerectangles.svg	stimuli_distractor_trianglediamonds.svg	17	yes	57	0	823	0	0			0	0			1				0	
6.6.1	win	2023-06-27	00:58:20	01:05:35	431476	63e51bc04bab3dc97deba8de	3	1	main_slash	7	main_slash	39	stimuli_distractor_diamondtriangles.svg	stimuli_target_squarediamonds.svg	16	yes	0	0	2000	0	0			0	0			1				0	
6.6.1	win	2023-06-27	00:58:20	01:05:35	431476	63e51bc04bab3dc97deba8de	3	1	main_slash	7	advance_on_keypress_SLASH	40	stimuli_distractor_diamondtriangles.svg	stimuli_target_squarediamonds.svg	16	yes	57	0	423	0	0			0	0			1				0	
6.6.1	win	2023-06-27	00:58:20	01:05:36	433069	63e51bc04bab3dc97deba8de	3	1	main_slash	7	main_slash	41	stimuli_distractor_trianglediamonds.svg	stimuli_target_diamondrectangles.svg	27	yes	53	1	526	0	0			0	0			1				0	
6.6.1	win	2023-06-27	00:58:20	01:05:36	433069	63e51bc04bab3dc97deba8de	3	1	main_slash	7	advance_on_keypress_SLASH	42	stimuli_distractor_trianglediamonds.svg	stimuli_target_diamondrectangles.svg	27	yes	57	0	950	0	0			0	0			1				0	
6.6.1	win	2023-06-27	00:58:20	01:05:39	435500	63e51bc04bab3dc97deba8de	3	1	main_slash	7	main_slash	43	stimuli_distractor_diamondtriangles.svg	stimuli_target_diamondrectangles.svg	31	yes	53	1	841	0	0			0	0			1				0	
6.6.1	win	2023-06-27	00:58:20	01:05:39	435500	63e51bc04bab3dc97deba8de	3	1	main_slash	7	advance_on_keypress_SLASH	44	stimuli_distractor_diamondtriangles.svg	stimuli_target_diamondrectangles.svg	31	yes	57	0	647	0	0			0	0			1				0	
6.6.1	win	2023-06-27	00:58:20	01:05:41	437570	63e51bc04bab3dc97deba8de	3	1	main_slash	7	main_slash	45	stimuli_target_trianglesquares.svg	stimuli_distractor_trianglediamonds.svg	18	yes	53	1	795	0	0			0	0			1				0	
6.6.1	win	2023-06-27	00:58:20	01:05:41	437570	63e51bc04bab3dc97deba8de	3	1	main_slash	7	advance_on_keypress_SLASH	46	stimuli_target_trianglesquares.svg	stimuli_distractor_trianglediamonds.svg	18	yes	57	0	736	0	0			0	0			1				0	
6.6.1	win	2023-06-27	00:58:20	01:05:44	440955	63e51bc04bab3dc97deba8de	3	1	main_slash	7	main_slash	47	stimuli_distractor_trianglediamonds.svg	stimuli_distractor_diamondtriangles.svg	35	no	0	1	2000	0	0			0	0			1				0	
6.6.1	win	2023-06-27	00:58:20	01:05:44	440955	63e51bc04bab3dc97deba8de	3	1	main_slash	7	advance_on_keypress_SLASH	48	stimuli_distractor_trianglediamonds.svg	stimuli_distractor_diamondtriangles.svg	35	no	57	0	559	0	0			0	0			1				0	
6.6.1	win	2023-06-27	00:58:20	01:05:47	444168	63e51bc04bab3dc97deba8de	3	1	main_slash	7	main_slash	49	stimuli_distractor_trianglediamonds.svg	stimuli_distractor_trianglediamonds.svg	34	no	0	1	2000	0	0			0	0			1				0	
6.6.1	win	2023-06-27	00:58:20	01:05:47	444168	63e51bc04bab3dc97deba8de	3	1	main_slash	7	advance_on_keypress_SLASH	50	stimuli_distractor_trianglediamonds.svg	stimuli_distractor_trianglediamonds.svg	34	no	57	0	250	0	0			0	0			1				0	
6.6.1	win	2023-06-27	00:58:20	01:05:49	445594	63e51bc04bab3dc97deba8de	3	1	main_slash	7	main_slash	51	stimuli_target_trianglesquares.svg	stimuli_distractor_diamondtriangles.svg	22	yes	53	1	535	0	0			0	0			1				0	
6.6.1	win	2023-06-27	00:58:20	01:05:49	445594	63e51bc04bab3dc97deba8de	3	1	main_slash	7	advance_on_keypress_SLASH	52	stimuli_target_trianglesquares.svg	stimuli_distractor_diamondtriangles.svg	22	yes	57	0	757	0	0			0	0			1				0	
6.6.1	win	2023-06-27	00:58:20	01:05:51	447909	63e51bc04bab3dc97deba8de	3	1	main_slash	7	main_slash	53	stimuli_distractor_trianglediamonds.svg	stimuli_target_rectanglediamonds.svg	10	yes	53	1	916	0	0			0	0			1				0	
6.6.1	win	2023-06-27	00:58:20	01:05:51	447909	63e51bc04bab3dc97deba8de	3	1	main_slash	7	advance_on_keypress_SLASH	54	stimuli_distractor_trianglediamonds.svg	stimuli_target_rectanglediamonds.svg	10	yes	57	0	590	0	0			0	0			1				0	
6.6.1	win	2023-06-27	00:58:20	01:05:54	451142	63e51bc04bab3dc97deba8de	3	1	main_slash	7	main_slash	55	stimuli_distractor_diamondtriangles.svg	stimuli_distractor_trianglediamonds.svg	37	no	0	1	2000	0	0			0	0			1				0	
6.6.1	win	2023-06-27	00:58:20	01:05:54	451142	63e51bc04bab3dc97deba8de	3	1	main_slash	7	advance_on_keypress_SLASH	56	stimuli_distractor_diamondtriangles.svg	stimuli_distractor_trianglediamonds.svg	37	no	57	0	509	0	0			0	0			1				0	
6.6.1	win	2023-06-27	00:58:20	01:05:56	452751	63e51bc04bab3dc97deba8de	3	1	main_slash	7	main_slash	57	stimuli_target_diamondrectangles.svg	stimuli_distractor_diamondtriangles.svg	23	yes	53	1	442	0	0			0	0			1				0	
6.6.1	win	2023-06-27	00:58:20	01:05:56	452751	63e51bc04bab3dc97deba8de	3	1	main_slash	7	advance_on_keypress_SLASH	58	stimuli_target_diamondrectangles.svg	stimuli_distractor_diamondtriangles.svg	23	yes	57	0	869	0	0			0	0			1				0	
6.6.1	win	2023-06-27	00:58:20	01:05:58	454851	63e51bc04bab3dc97deba8de	3	1	main_slash	7	main_slash	59	stimuli_target_squarediamonds.svg	stimuli_distractor_trianglediamonds.svg	4	yes	53	1	592	0	0			0	0			1				0	
6.6.1	win	2023-06-27	00:58:20	01:05:58	454851	63e51bc04bab3dc97deba8de	3	1	main_slash	7	advance_on_keypress_SLASH	60	stimuli_target_squarediamonds.svg	stimuli_distractor_trianglediamonds.svg	4	yes	57	0	844	0	0			0	0			1				0	
6.6.1	win	2023-06-27	00:58:20	01:06:00	456922	63e51bc04bab3dc97deba8de	3	1	main_slash	7	main_slash	61	stimuli_distractor_trianglediamonds.svg	stimuli_target_rectangletriangles.svg	9	yes	53	1	590	0	0			0	0			1				0	
6.6.1	win	2023-06-27	00:58:20	01:06:00	456922	63e51bc04bab3dc97deba8de	3	1	main_slash	7	advance_on_keypress_SLASH	62	stimuli_distractor_trianglediamonds.svg	stimuli_target_rectangletriangles.svg	9	yes	57	0	741	0	0			0	0			1				0	
6.6.1	win	2023-06-27	00:58:20	01:06:02	459036	63e51bc04bab3dc97deba8de	3	1	main_slash	7	main_slash	63	stimuli_distractor_diamondtriangles.svg	stimuli_target_trianglesquares.svg	30	yes	53	1	727	0	0			0	0			1				0	
6.6.1	win	2023-06-27	00:58:20	01:06:02	459036	63e51bc04bab3dc97deba8de	3	1	main_slash	7	advance_on_keypress_SLASH	64	stimuli_distractor_diamondtriangles.svg	stimuli_target_trianglesquares.svg	30	yes	57	0	614	0	0			0	0			1				0	
6.6.1	win	2023-06-27	00:58:20	01:06:05	461598	63e51bc04bab3dc97deba8de	3	1	main_slash	7	main_slash	65	stimuli_distractor_trianglediamonds.svg	stimuli_target_squaretriangles.svg	11	yes	53	1	1304	0	0			0	0			1				0	
6.6.1	win	2023-06-27	00:58:20	01:06:05	461598	63e51bc04bab3dc97deba8de	3	1	main_slash	7	advance_on_keypress_SLASH	66	stimuli_distractor_trianglediamonds.svg	stimuli_target_squaretriangles.svg	11	yes	57	0	614	0	0			0	0			1				0	
6.6.1	win	2023-06-27	00:58:20	01:06:06	463431	63e51bc04bab3dc97deba8de	3	1	main_slash	7	main_slash	67	stimuli_target_squaretriangles.svg	stimuli_distractor_diamondtriangles.svg	7	yes	53	1	572	0	0			0	0			1				0	
6.6.1	win	2023-06-27	00:58:20	01:06:06	463431	63e51bc04bab3dc97deba8de	3	1	main_slash	7	advance_on_keypress_SLASH	68	stimuli_target_squaretriangles.svg	stimuli_distractor_diamondtriangles.svg	7	yes	57	0	570	0	0			0	0			1				0	
6.6.1	win	2023-06-27	00:58:20	01:06:08	465396	63e51bc04bab3dc97deba8de	3	1	main_slash	7	main_slash	69	stimuli_distractor_trianglediamonds.svg	stimuli_target_diamondsquares.svg	28	yes	53	1	753	0	0			0	0			1				0	
6.6.1	win	2023-06-27	00:58:20	01:06:08	465396	63e51bc04bab3dc97deba8de	3	1	main_slash	7	advance_on_keypress_SLASH	70	stimuli_distractor_trianglediamonds.svg	stimuli_target_diamondsquares.svg	28	yes	57	0	573	0	0			0	0			1				0	
6.6.1	win	2023-06-27	00:58:20	01:06:12	468609	63e51bc04bab3dc97deba8de	3	1	main_slash	7	main_slash	71	stimuli_distractor_trianglediamonds.svg	stimuli_distractor_trianglediamonds.svg	33	no	0	1	2000	0	0			0	0			1				0	
6.6.1	win	2023-06-27	00:58:20	01:06:12	468609	63e51bc04bab3dc97deba8de	3	1	main_slash	7	advance_on_keypress_SLASH	72	stimuli_distractor_trianglediamonds.svg	stimuli_distractor_trianglediamonds.svg	33	no	57	0	705	0	0			0	0			1				0	
6.6.1	win	2023-06-27	00:58:20	01:06:13	470418	63e51bc04bab3dc97deba8de	3	1	main_slash	7	main_slash	73	stimuli_target_rectangletriangles.svg	stimuli_distractor_trianglediamonds.svg	1	yes	53	1	459	0	0			0	0			1				0	
6.6.1	win	2023-06-27	00:58:20	01:06:13	470418	63e51bc04bab3dc97deba8de	3	1	main_slash	7	advance_on_keypress_SLASH	74	stimuli_target_rectangletriangles.svg	stimuli_distractor_trianglediamonds.svg	1	yes	57	0	728	0	0			0	0			1				0	
6.6.1	win	2023-06-27	00:58:20	01:06:15	472257	63e51bc04bab3dc97deba8de	3	1	main_slash	7	main_slash	75	stimuli_distractor_diamondtriangles.svg	stimuli_target_rectangletriangles.svg	13	yes	53	1	481	0	0			0	0			1				0	
6.6.1	win	2023-06-27	00:58:20	01:06:15	472257	63e51bc04bab3dc97deba8de	3	1	main_slash	7	advance_on_keypress_SLASH	76	stimuli_distractor_diamondtriangles.svg	stimuli_target_rectangletriangles.svg	13	yes	57	0	628	0	0			0	0			1				0	
6.6.1	win	2023-06-27	00:58:20	01:06:17	474132	63e51bc04bab3dc97deba8de	3	1	main_slash	7	main_slash	77	stimuli_target_squarediamonds.svg	stimuli_distractor_diamondtriangles.svg	8	yes	53	1	606	0	0			0	0			1				0	
6.6.1	win	2023-06-27	00:58:20	01:06:17	474132	63e51bc04bab3dc97deba8de	3	1	main_slash	7	advance_on_keypress_SLASH	78	stimuli_target_squarediamonds.svg	stimuli_distractor_diamondtriangles.svg	8	yes	57	0	632	0	0			0	0			1				0	
6.6.1	win	2023-06-27	00:58:20	01:06:19	476006	63e51bc04bab3dc97deba8de	3	1	main_slash	7	main_slash	79	stimuli_target_rectanglediamonds.svg	stimuli_distractor_trianglediamonds.svg	2	yes	53	1	597	0	0			0	0			1				0	
6.6.1	win	2023-06-27	00:58:20	01:06:19	476006	63e51bc04bab3dc97deba8de	3	1	main_slash	7	advance_on_keypress_SLASH	80	stimuli_target_rectanglediamonds.svg	stimuli_distractor_trianglediamonds.svg	2	yes	57	0	511	0	0			0	0			1				0	
6.6.1	win	2023-06-27	00:58:20	01:06:22	479174	63e51bc04bab3dc97deba8de	3	1	main_slash	7	main_slash	81	stimuli_target_trianglerectangles.svg	stimuli_distractor_diamondtriangles.svg	21	yes	0	0	2000	0	0			0	0			1				0	
6.6.1	win	2023-06-27	00:58:20	01:06:22	479174	63e51bc04bab3dc97deba8de	3	1	main_slash	7	advance_on_keypress_SLASH	82	stimuli_target_trianglerectangles.svg	stimuli_distractor_diamondtriangles.svg	21	yes	57	0	672	0	0			0	0			1				0	
6.6.1	win	2023-06-27	00:58:20	01:06:24	481218	63e51bc04bab3dc97deba8de	3	1	main_slash	7	main_slash	83	stimuli_distractor_diamondtriangles.svg	stimuli_target_squaretriangles.svg	15	yes	53	1	725	0	0			0	0			1				0	
6.6.1	win	2023-06-27	00:58:20	01:06:24	481218	63e51bc04bab3dc97deba8de	3	1	main_slash	7	advance_on_keypress_SLASH	84	stimuli_distractor_diamondtriangles.svg	stimuli_target_squaretriangles.svg	15	yes	57	0	1270	0	0			0	0			1				0	
6.6.1	win	2023-06-27	00:58:20	01:06:28	485126	63e51bc04bab3dc97deba8de	3	1	main_slash	7	main_slash	85	stimuli_distractor_trianglediamonds.svg	stimuli_distractor_diamondtriangles.svg	36	no	0	1	2000	0	0			0	0			1				0	
6.6.1	win	2023-06-27	00:58:20	01:06:28	485126	63e51bc04bab3dc97deba8de	3	1	main_slash	7	advance_on_keypress_SLASH	86	stimuli_distractor_trianglediamonds.svg	stimuli_distractor_diamondtriangles.svg	36	no	57	0	5448	0	0			0	0			1				0	
6.6.1	win	2023-06-27	00:58:20	01:06:35	491834	63e51bc04bab3dc97deba8de	3	1	main_slash	7	main_slash	87	stimuli_target_trianglesquares.svg	stimuli_distractor_trianglediamonds.svg	18	yes	53	1	602	0	0			0	0			1				0	
6.6.1	win	2023-06-27	00:58:20	01:06:35	491834	63e51bc04bab3dc97deba8de	3	1	main_slash	7	advance_on_keypress_SLASH	88	stimuli_target_trianglesquares.svg	stimuli_distractor_trianglediamonds.svg	18	yes	57	0	673	0	0			0	0			1				0	
6.6.1	win	2023-06-27	00:58:20	01:06:37	493670	63e51bc04bab3dc97deba8de	3	1	main_slash	7	main_slash	89	stimuli_target_rectanglediamonds.svg	stimuli_distractor_trianglediamonds.svg	2	yes	53	1	499	0	0			0	0			1				0	
6.6.1	win	2023-06-27	00:58:20	01:06:37	493670	63e51bc04bab3dc97deba8de	3	1	main_slash	7	advance_on_keypress_SLASH	90	stimuli_target_rectanglediamonds.svg	stimuli_distractor_trianglediamonds.svg	2	yes	57	0	789	0	0			0	0			1				0	
6.6.1	win	2023-06-27	00:58:20	01:06:39	495653	63e51bc04bab3dc97deba8de	3	1	main_slash	7	main_slash	91	stimuli_target_diamondrectangles.svg	stimuli_distractor_diamondtriangles.svg	23	yes	53	1	546	0	0			0	0			1				0	
6.6.1	win	2023-06-27	00:58:20	01:06:39	495653	63e51bc04bab3dc97deba8de	3	1	main_slash	7	advance_on_keypress_SLASH	92	stimuli_target_diamondrectangles.svg	stimuli_distractor_diamondtriangles.svg	23	yes	57	0	680	0	0			0	0			1				0	
6.6.1	win	2023-06-27	00:58:20	01:06:41	497532	63e51bc04bab3dc97deba8de	3	1	main_slash	7	main_slash	93	stimuli_target_squaretriangles.svg	stimuli_distractor_trianglediamonds.svg	3	yes	53	1	551	0	0			0	0			1				0	
6.6.1	win	2023-06-27	00:58:20	01:06:41	497532	63e51bc04bab3dc97deba8de	3	1	main_slash	7	advance_on_keypress_SLASH	94	stimuli_target_squaretriangles.svg	stimuli_distractor_trianglediamonds.svg	3	yes	57	0	672	0	0			0	0			1				0	
6.6.1	win	2023-06-27	00:58:20	01:06:43	499510	63e51bc04bab3dc97deba8de	3	1	main_slash	7	main_slash	95	stimuli_distractor_diamondtriangles.svg	stimuli_distractor_trianglediamonds.svg	37	no	53	0	643	0	0			0	0			1				0	
6.6.1	win	2023-06-27	00:58:20	01:06:43	499510	63e51bc04bab3dc97deba8de	3	1	main_slash	7	advance_on_keypress_SLASH	96	stimuli_distractor_diamondtriangles.svg	stimuli_distractor_trianglediamonds.svg	37	no	57	0	637	0	0			0	0			1				0	
6.6.1	win	2023-06-27	00:58:20	01:06:44	501431	63e51bc04bab3dc97deba8de	3	1	main_slash	7	main_slash	97	stimuli_distractor_trianglediamonds.svg	stimuli_target_diamondrectangles.svg	27	yes	53	1	638	0	0			0	0			1				0	
6.6.1	win	2023-06-27	00:58:20	01:06:44	501431	63e51bc04bab3dc97deba8de	3	1	main_slash	7	advance_on_keypress_SLASH	98	stimuli_distractor_trianglediamonds.svg	stimuli_target_diamondrectangles.svg	27	yes	57	0	520	0	0			0	0			1				0	
6.6.1	win	2023-06-27	00:58:20	01:06:46	503160	63e51bc04bab3dc97deba8de	3	1	main_slash	7	main_slash	99	stimuli_distractor_diamondtriangles.svg	stimuli_target_squarediamonds.svg	16	yes	53	1	568	0	0			0	0			1				0	
6.6.1	win	2023-06-27	00:58:20	01:06:46	503160	63e51bc04bab3dc97deba8de	3	1	main_slash	7	advance_on_keypress_SLASH	100	stimuli_distractor_diamondtriangles.svg	stimuli_target_squarediamonds.svg	16	yes	57	0	546	0	0			0	0			1				0	
6.6.1	win	2023-06-27	00:58:20	01:06:48	504995	63e51bc04bab3dc97deba8de	3	1	main_slash	7	main_slash	101	stimuli_distractor_trianglediamonds.svg	stimuli_target_trianglesquares.svg	26	yes	53	1	653	0	0			0	0			1				0	
6.6.1	win	2023-06-27	00:58:20	01:06:48	504995	63e51bc04bab3dc97deba8de	3	1	main_slash	7	advance_on_keypress_SLASH	102	stimuli_distractor_trianglediamonds.svg	stimuli_target_trianglesquares.svg	26	yes	57	0	572	0	0			0	0			1				0	
6.6.1	win	2023-06-27	00:58:20	01:06:50	506779	63e51bc04bab3dc97deba8de	3	1	main_slash	7	main_slash	103	stimuli_distractor_diamondtriangles.svg	stimuli_target_rectanglediamonds.svg	14	yes	53	1	570	0	0			0	0			1				0	
6.6.1	win	2023-06-27	00:58:20	01:06:50	506779	63e51bc04bab3dc97deba8de	3	1	main_slash	7	advance_on_keypress_SLASH	104	stimuli_distractor_diamondtriangles.svg	stimuli_target_rectanglediamonds.svg	14	yes	57	0	583	0	0			0	0			1				0	
6.6.1	win	2023-06-27	00:58:20	01:06:52	508653	63e51bc04bab3dc97deba8de	3	1	main_slash	7	main_slash	105	stimuli_distractor_trianglediamonds.svg	stimuli_target_trianglerectangles.svg	25	yes	53	1	644	0	0			0	0			1				0	
6.6.1	win	2023-06-27	00:58:20	01:06:52	508653	63e51bc04bab3dc97deba8de	3	1	main_slash	7	advance_on_keypress_SLASH	106	stimuli_distractor_trianglediamonds.svg	stimuli_target_trianglerectangles.svg	25	yes	57	0	546	0	0			0	0			1				0	
6.6.1	win	2023-06-27	00:58:20	01:06:55	511842	63e51bc04bab3dc97deba8de	3	1	main_slash	7	main_slash	107	stimuli_distractor_trianglediamonds.svg	stimuli_distractor_trianglediamonds.svg	33	no	0	1	2000	0	0			0	0			1				0	
6.6.1	win	2023-06-27	00:58:20	01:06:55	511842	63e51bc04bab3dc97deba8de	3	1	main_slash	7	advance_on_keypress_SLASH	108	stimuli_distractor_trianglediamonds.svg	stimuli_distractor_trianglediamonds.svg	33	no	57	0	553	0	0			0	0			1				0	
6.6.1	win	2023-06-27	00:58:20	01:06:57	513555	63e51bc04bab3dc97deba8de	3	1	main_slash	7	main_slash	109	stimuli_target_rectangletriangles.svg	stimuli_distractor_diamondtriangles.svg	5	yes	53	1	513	0	0			0	0			1				0	
6.6.1	win	2023-06-27	00:58:20	01:06:57	513555	63e51bc04bab3dc97deba8de	3	1	main_slash	7	advance_on_keypress_SLASH	110	stimuli_target_rectangletriangles.svg	stimuli_distractor_diamondtriangles.svg	5	yes	57	0	633	0	0			0	0			1				0	
6.6.1	win	2023-06-27	00:58:20	01:06:58	515220	63e51bc04bab3dc97deba8de	3	1	main_slash	7	main_slash	111	stimuli_target_diamondsquares.svg	stimuli_distractor_trianglediamonds.svg	20	yes	53	1	383	0	0			0	0			1				0	
6.6.1	win	2023-06-27	00:58:20	01:06:58	515220	63e51bc04bab3dc97deba8de	3	1	main_slash	7	advance_on_keypress_SLASH	112	stimuli_target_diamondsquares.svg	stimuli_distractor_trianglediamonds.svg	20	yes	57	0	670	0	0			0	0			1				0	
6.6.1	win	2023-06-27	00:58:20	01:07:00	516959	63e51bc04bab3dc97deba8de	3	1	main_slash	7	main_slash	113	stimuli_target_squaretriangles.svg	stimuli_distractor_diamondtriangles.svg	7	yes	53	1	432	0	0			0	0			1				0	
6.6.1	win	2023-06-27	00:58:20	01:07:00	516959	63e51bc04bab3dc97deba8de	3	1	main_slash	7	advance_on_keypress_SLASH	114	stimuli_target_squaretriangles.svg	stimuli_distractor_diamondtriangles.svg	7	yes	57	0	27547	0	0			0	0			1				0	
6.6.1	win	2023-06-27	00:58:20	01:07:29	545701	63e51bc04bab3dc97deba8de	3	1	main_slash	7	main_slash	115	stimuli_distractor_diamondtriangles.svg	stimuli_target_trianglerectangles.svg	29	yes	53	1	542	0	0			0	0			1				0	
6.6.1	win	2023-06-27	00:58:20	01:07:29	545701	63e51bc04bab3dc97deba8de	3	1	main_slash	7	advance_on_keypress_SLASH	116	stimuli_distractor_diamondtriangles.svg	stimuli_target_trianglerectangles.svg	29	yes	57	0	1902	0	0			0	0			1				0	
6.6.1	win	2023-06-27	00:58:20	01:07:32	548768	63e51bc04bab3dc97deba8de	3	1	main_slash	7	main_slash	117	stimuli_distractor_trianglediamonds.svg	stimuli_target_rectanglediamonds.svg	10	yes	53	1	513	0	0			0	0			1				0	
6.6.1	win	2023-06-27	00:58:20	01:07:32	548768	63e51bc04bab3dc97deba8de	3	1	main_slash	7	advance_on_keypress_SLASH	118	stimuli_distractor_trianglediamonds.svg	stimuli_target_rectanglediamonds.svg	10	yes	57	0	986	0	0			0	0			1				0	
6.6.1	win	2023-06-27	00:58:20	01:07:34	550813	63e51bc04bab3dc97deba8de	3	1	main_slash	7	main_slash	119	stimuli_distractor_diamondtriangles.svg	stimuli_target_rectangletriangles.svg	13	yes	53	1	394	0	0			0	0			1				0	
6.6.1	win	2023-06-27	00:58:20	01:07:34	550813	63e51bc04bab3dc97deba8de	3	1	main_slash	7	advance_on_keypress_SLASH	120	stimuli_distractor_diamondtriangles.svg	stimuli_target_rectangletriangles.svg	13	yes	57	0	845	0	0			0	0			1				0	
6.6.1	win	2023-06-27	00:58:20	01:07:36	552791	63e51bc04bab3dc97deba8de	3	1	main_slash	7	main_slash	121	stimuli_distractor_trianglediamonds.svg	stimuli_target_diamondsquares.svg	28	yes	53	1	469	0	0			0	0			1				0	
6.6.1	win	2023-06-27	00:58:20	01:07:36	552791	63e51bc04bab3dc97deba8de	3	1	main_slash	7	advance_on_keypress_SLASH	122	stimuli_distractor_trianglediamonds.svg	stimuli_target_diamondsquares.svg	28	yes	57	0	996	0	0			0	0			1				0	
6.6.1	win	2023-06-27	00:58:20	01:07:38	555010	63e51bc04bab3dc97deba8de	3	1	main_slash	7	main_slash	123	stimuli_distractor_diamondtriangles.svg	stimuli_target_diamondrectangles.svg	31	yes	53	1	556	0	0			0	0			1				0	
6.6.1	win	2023-06-27	00:58:20	01:07:38	555010	63e51bc04bab3dc97deba8de	3	1	main_slash	7	advance_on_keypress_SLASH	124	stimuli_distractor_diamondtriangles.svg	stimuli_target_diamondrectangles.svg	31	yes	57	0	8278	0	0			0	0			1				0	
6.6.1	win	2023-06-27	00:58:20	01:07:47	564305	63e51bc04bab3dc97deba8de	3	1	main_slash	7	main_slash	125	stimuli_target_trianglesquares.svg	stimuli_distractor_diamondtriangles.svg	22	yes	53	1	363	0	0			0	0			1				0	
6.6.1	win	2023-06-27	00:58:20	01:07:47	564305	63e51bc04bab3dc97deba8de	3	1	main_slash	7	advance_on_keypress_SLASH	126	stimuli_target_trianglesquares.svg	stimuli_distractor_diamondtriangles.svg	22	yes	57	0	718	0	0			0	0			1				0	
6.6.1	win	2023-06-27	00:58:20	01:07:51	567659	63e51bc04bab3dc97deba8de	3	1	main_slash	7	main_slash	127	stimuli_target_trianglerectangles.svg	stimuli_distractor_trianglediamonds.svg	17	yes	0	0	2000	0	0			0	0			1				0	
6.6.1	win	2023-06-27	00:58:20	01:07:51	567659	63e51bc04bab3dc97deba8de	3	1	main_slash	7	advance_on_keypress_SLASH	128	stimuli_target_trianglerectangles.svg	stimuli_distractor_trianglediamonds.svg	17	yes	57	0	510	0	0			0	0			1				0	
6.6.1	win	2023-06-27	00:58:20	01:07:54	570809	63e51bc04bab3dc97deba8de	3	1	main_slash	7	main_slash	129	stimuli_distractor_diamondtriangles.svg	stimuli_distractor_diamondtriangles.svg	40	no	0	1	2000	0	0			0	0			1				0	
6.6.1	win	2023-06-27	00:58:20	01:07:54	570809	63e51bc04bab3dc97deba8de	3	1	main_slash	7	advance_on_keypress_SLASH	130	stimuli_distractor_diamondtriangles.svg	stimuli_distractor_diamondtriangles.svg	40	no	57	0	668	0	0			0	0			1				0	
6.6.1	win	2023-06-27	00:58:20	01:07:56	572515	63e51bc04bab3dc97deba8de	3	1	main_slash	7	main_slash	131	stimuli_target_squarediamonds.svg	stimuli_distractor_diamondtriangles.svg	8	yes	53	1	390	0	0			0	0			1				0	
6.6.1	win	2023-06-27	00:58:20	01:07:56	572515	63e51bc04bab3dc97deba8de	3	1	main_slash	7	advance_on_keypress_SLASH	132	stimuli_target_squarediamonds.svg	stimuli_distractor_diamondtriangles.svg	8	yes	57	0	596	0	0			0	0			1				0	
6.6.1	win	2023-06-27	00:58:20	01:07:57	574325	63e51bc04bab3dc97deba8de	3	1	main_slash	7	main_slash	133	stimuli_distractor_trianglediamonds.svg	stimuli_target_squarediamonds.svg	12	yes	53	1	582	0	0			0	0			1				0	
6.6.1	win	2023-06-27	00:58:20	01:07:57	574325	63e51bc04bab3dc97deba8de	3	1	main_slash	7	advance_on_keypress_SLASH	134	stimuli_distractor_trianglediamonds.svg	stimuli_target_squarediamonds.svg	12	yes	57	0	553	0	0			0	0			1				0	
6.6.1	win	2023-06-27	00:58:20	01:07:59	576284	63e51bc04bab3dc97deba8de	3	1	main_slash	7	main_slash	135	stimuli_distractor_diamondtriangles.svg	stimuli_distractor_trianglediamonds.svg	38	no	53	0	759	0	0			0	0			1				0	
6.6.1	win	2023-06-27	00:58:20	01:07:59	576284	63e51bc04bab3dc97deba8de	3	1	main_slash	7	advance_on_keypress_SLASH	136	stimuli_distractor_diamondtriangles.svg	stimuli_distractor_trianglediamonds.svg	38	no	57	0	688	0	0			0	0			1				0	
6.6.1	win	2023-06-27	00:58:20	01:08:03	579617	63e51bc04bab3dc97deba8de	3	1	main_slash	7	main_slash	137	stimuli_distractor_trianglediamonds.svg	stimuli_distractor_diamondtriangles.svg	35	no	0	1	2000	0	0			0	0			1				0	
6.6.1	win	2023-06-27	00:58:20	01:08:03	579617	63e51bc04bab3dc97deba8de	3	1	main_slash	7	advance_on_keypress_SLASH	138	stimuli_distractor_trianglediamonds.svg	stimuli_distractor_diamondtriangles.svg	35	no	57	0	332	0	0			0	0			1				0	
6.6.1	win	2023-06-27	00:58:20	01:08:06	582593	63e51bc04bab3dc97deba8de	3	1	main_slash	7	main_slash	139	stimuli_target_diamondrectangles.svg	stimuli_distractor_trianglediamonds.svg	19	yes	0	0	2000	0	0			0	0			1				0	
6.6.1	win	2023-06-27	00:58:20	01:08:06	582593	63e51bc04bab3dc97deba8de	3	1	main_slash	7	advance_on_keypress_SLASH	140	stimuli_target_diamondrectangles.svg	stimuli_distractor_trianglediamonds.svg	19	yes	57	0	396	0	0			0	0			1				0	
6.6.1	win	2023-06-27	00:58:20	01:08:09	585632	63e51bc04bab3dc97deba8de	3	1	main_slash	7	main_slash	141	stimuli_target_rectangletriangles.svg	stimuli_distractor_trianglediamonds.svg	1	yes	0	0	2000	0	0			0	0			1				0	
6.6.1	win	2023-06-27	00:58:20	01:08:09	585632	63e51bc04bab3dc97deba8de	3	1	main_slash	7	advance_on_keypress_SLASH	142	stimuli_target_rectangletriangles.svg	stimuli_distractor_trianglediamonds.svg	1	yes	57	0	826	0	0			0	0			1				0	
6.6.1	win	2023-06-27	00:58:20	01:08:11	587644	63e51bc04bab3dc97deba8de	3	1	main_slash	7	main_slash	143	stimuli_distractor_diamondtriangles.svg	stimuli_target_diamondsquares.svg	32	yes	53	1	532	0	0			0	0			1				0	
6.6.1	win	2023-06-27	00:58:20	01:08:11	587644	63e51bc04bab3dc97deba8de	3	1	main_slash	7	advance_on_keypress_SLASH	144	stimuli_distractor_diamondtriangles.svg	stimuli_target_diamondsquares.svg	32	yes	57	0	533	0	0			0	0			1				0	
6.6.1	win	2023-06-27	00:58:20	01:08:12	589355	63e51bc04bab3dc97deba8de	3	1	main_slash	7	main_slash	145	stimuli_distractor_diamondtriangles.svg	stimuli_target_trianglesquares.svg	30	yes	53	1	530	0	0			0	0			1				0	
6.6.1	win	2023-06-27	00:58:20	01:08:12	589355	63e51bc04bab3dc97deba8de	3	1	main_slash	7	advance_on_keypress_SLASH	146	stimuli_distractor_diamondtriangles.svg	stimuli_target_trianglesquares.svg	30	yes	57	0	512	0	0			0	0			1				0	
6.6.1	win	2023-06-27	00:58:20	01:08:14	591058	63e51bc04bab3dc97deba8de	3	1	main_slash	7	main_slash	147	stimuli_distractor_trianglediamonds.svg	stimuli_target_squaretriangles.svg	11	yes	53	1	545	0	0			0	0			1				0	
6.6.1	win	2023-06-27	00:58:20	01:08:14	591058	63e51bc04bab3dc97deba8de	3	1	main_slash	7	advance_on_keypress_SLASH	148	stimuli_distractor_trianglediamonds.svg	stimuli_target_squaretriangles.svg	11	yes	57	0	570	0	0			0	0			1				0	
6.6.1	win	2023-06-27	00:58:20	01:08:16	592700	63e51bc04bab3dc97deba8de	3	1	main_slash	7	main_slash	149	stimuli_distractor_trianglediamonds.svg	stimuli_target_rectangletriangles.svg	9	yes	53	1	418	0	0			0	0			1				0	
6.6.1	win	2023-06-27	00:58:20	01:08:16	592700	63e51bc04bab3dc97deba8de	3	1	main_slash	7	advance_on_keypress_SLASH	150	stimuli_distractor_trianglediamonds.svg	stimuli_target_rectangletriangles.svg	9	yes	57	0	545	0	0			0	0			1				0	
6.6.1	win	2023-06-27	00:58:20	01:08:19	595893	63e51bc04bab3dc97deba8de	3	1	main_slash	7	main_slash	151	stimuli_distractor_trianglediamonds.svg	stimuli_distractor_trianglediamonds.svg	34	no	0	1	2000	0	0			0	0			1				0	
6.6.1	win	2023-06-27	00:58:20	01:08:19	595893	63e51bc04bab3dc97deba8de	3	1	main_slash	7	advance_on_keypress_SLASH	152	stimuli_distractor_trianglediamonds.svg	stimuli_distractor_trianglediamonds.svg	34	no	57	0	492	0	0			0	0			1				0	
6.6.1	win	2023-06-27	00:58:20	01:08:21	597549	63e51bc04bab3dc97deba8de	3	1	main_slash	7	main_slash	153	stimuli_target_squarediamonds.svg	stimuli_distractor_trianglediamonds.svg	4	yes	53	1	524	0	0			0	0			1				0	
6.6.1	win	2023-06-27	00:58:20	01:08:21	597549	63e51bc04bab3dc97deba8de	3	1	main_slash	7	advance_on_keypress_SLASH	154	stimuli_target_squarediamonds.svg	stimuli_distractor_trianglediamonds.svg	4	yes	57	0	446	0	0			0	0			1				0	
6.6.1	win	2023-06-27	00:58:20	01:08:22	599128	63e51bc04bab3dc97deba8de	3	1	main_slash	7	main_slash	155	stimuli_target_diamondsquares.svg	stimuli_distractor_diamondtriangles.svg	24	yes	53	1	503	0	0			0	0			1				0	
6.6.1	win	2023-06-27	00:58:20	01:08:22	599128	63e51bc04bab3dc97deba8de	3	1	main_slash	7	advance_on_keypress_SLASH	156	stimuli_target_diamondsquares.svg	stimuli_distractor_diamondtriangles.svg	24	yes	57	0	452	0	0			0	0			1				0	
6.6.1	win	2023-06-27	00:58:20	01:08:24	600677	63e51bc04bab3dc97deba8de	3	1	main_slash	7	main_slash	157	stimuli_target_rectanglediamonds.svg	stimuli_distractor_diamondtriangles.svg	6	yes	53	1	452	0	0			0	0			1				0	
6.6.1	win	2023-06-27	00:58:20	01:08:24	600677	63e51bc04bab3dc97deba8de	3	1	main_slash	7	advance_on_keypress_SLASH	158	stimuli_target_rectanglediamonds.svg	stimuli_distractor_diamondtriangles.svg	6	yes	57	0	396	0	0			0	0			1				0	
6.6.1	win	2023-06-27	00:58:20	01:08:27	603708	63e51bc04bab3dc97deba8de	3	1	main_slash	7	main_slash	159	stimuli_distractor_diamondtriangles.svg	stimuli_distractor_diamondtriangles.svg	39	no	0	1	2000	0	0			0	0			1				0	
6.6.1	win	2023-06-27	00:58:20	01:08:27	603708	63e51bc04bab3dc97deba8de	3	1	main_slash	7	advance_on_keypress_SLASH	160	stimuli_distractor_diamondtriangles.svg	stimuli_distractor_diamondtriangles.svg	39	no	57	0	445	0	0			0	0			1				0	
6.6.1	win	2023-06-27	00:58:20	01:08:54	631444	63e51bc04bab3dc97deba8de	3	1	practice_z	9	practice_z	1	stimuli_distractor_trianglediamonds.svg	stimuli_distractor_trianglediamonds.svg	15	no	0	1	2000	0	0			0	0			1				0	
6.6.1	win	2023-06-27	00:58:20	01:08:54	631444	63e51bc04bab3dc97deba8de	3	1	practice_z	9	advance_on_keypress_ZEE	2	stimuli_distractor_trianglediamonds.svg	stimuli_distractor_trianglediamonds.svg	15	no	57	0	693	0	0			0	0			1				0	
6.6.1	win	2023-06-27	00:58:20	01:08:57	634155	63e51bc04bab3dc97deba8de	3	1	practice_z	9	practice_z	3	stimuli_target_squarediamonds.svg	stimuli_distractor_diamondtriangles.svg	2	yes	44	1	380	0	0			0	0			1				0	
6.6.1	win	2023-06-27	00:58:20	01:08:57	634155	63e51bc04bab3dc97deba8de	3	1	practice_z	9	advance_on_keypress_ZEE	4	stimuli_target_squarediamonds.svg	stimuli_distractor_diamondtriangles.svg	2	yes	57	0	685	0	0			0	0			1				0	
6.6.1	win	2023-06-27	00:58:20	01:09:00	636996	63e51bc04bab3dc97deba8de	3	1	practice_z	9	practice_z	5	stimuli_distractor_diamondtriangles.svg	stimuli_target_diamondrectangles.svg	8	yes	44	1	520	0	0			0	0			1				0	
6.6.1	win	2023-06-27	00:58:20	01:09:00	636996	63e51bc04bab3dc97deba8de	3	1	practice_z	9	advance_on_keypress_ZEE	6	stimuli_distractor_diamondtriangles.svg	stimuli_target_diamondrectangles.svg	8	yes	57	0	507	0	0			0	0			1				0	
6.6.1	win	2023-06-27	00:58:20	01:09:04	641160	63e51bc04bab3dc97deba8de	3	1	practice_z	9	practice_z	7	stimuli_distractor_diamondtriangles.svg	stimuli_distractor_trianglediamonds.svg	14	no	0	1	2000	0	0			0	0			1				0	
6.6.1	win	2023-06-27	00:58:20	01:09:04	641160	63e51bc04bab3dc97deba8de	3	1	practice_z	9	advance_on_keypress_ZEE	8	stimuli_distractor_diamondtriangles.svg	stimuli_distractor_trianglediamonds.svg	14	no	57	0	509	0	0			0	0			1				0	
6.6.1	win	2023-06-27	00:58:20	01:09:08	645309	63e51bc04bab3dc97deba8de	3	1	practice_z	9	practice_z	9	stimuli_distractor_trianglediamonds.svg	stimuli_distractor_diamondtriangles.svg	16	no	0	1	2000	0	0			0	0			1				0	
6.6.1	win	2023-06-27	00:58:20	01:09:08	645309	63e51bc04bab3dc97deba8de	3	1	practice_z	9	advance_on_keypress_ZEE	10	stimuli_distractor_trianglediamonds.svg	stimuli_distractor_diamondtriangles.svg	16	no	57	0	354	0	0			0	0			1				0	
6.6.1	win	2023-06-27	00:58:20	01:09:12	649309	63e51bc04bab3dc97deba8de	3	1	practice_z	9	practice_z	11	stimuli_distractor_diamondtriangles.svg	stimuli_distractor_diamondtriangles.svg	13	no	0	1	2000	0	0			0	0			1				0	
6.6.1	win	2023-06-27	00:58:20	01:09:12	649309	63e51bc04bab3dc97deba8de	3	1	practice_z	9	advance_on_keypress_ZEE	12	stimuli_distractor_diamondtriangles.svg	stimuli_distractor_diamondtriangles.svg	13	no	57	0	388	0	0			0	0			1				0	
6.6.1	win	2023-06-27	00:58:20	01:09:15	651943	63e51bc04bab3dc97deba8de	3	1	practice_z	9	practice_z	13	stimuli_target_squarediamonds.svg	stimuli_distractor_trianglediamonds.svg	5	yes	44	1	599	0	0			0	0			1				0	
6.6.1	win	2023-06-27	00:58:20	01:09:15	651943	63e51bc04bab3dc97deba8de	3	1	practice_z	9	advance_on_keypress_ZEE	14	stimuli_target_squarediamonds.svg	stimuli_distractor_trianglediamonds.svg	5	yes	57	0	451	0	0			0	0			1				0	
6.6.1	win	2023-06-27	00:58:20	01:09:18	654609	63e51bc04bab3dc97deba8de	3	1	practice_z	9	practice_z	15	stimuli_distractor_trianglediamonds.svg	stimuli_target_rectanglediamonds.svg	10	yes	44	1	565	0	0			0	0			1				0	
6.6.1	win	2023-06-27	00:58:20	01:09:18	654609	63e51bc04bab3dc97deba8de	3	1	practice_z	9	advance_on_keypress_ZEE	16	stimuli_distractor_trianglediamonds.svg	stimuli_target_rectanglediamonds.svg	10	yes	57	0	611	0	0			0	0			1				0	
6.6.1	win	2023-06-27	00:58:20	01:09:20	657356	63e51bc04bab3dc97deba8de	3	1	practice_z	9	practice_z	17	stimuli_distractor_trianglediamonds.svg	stimuli_target_squarediamonds.svg	11	yes	44	1	486	0	0			0	0			1				0	
6.6.1	win	2023-06-27	00:58:20	01:09:20	657356	63e51bc04bab3dc97deba8de	3	1	practice_z	9	advance_on_keypress_ZEE	18	stimuli_distractor_trianglediamonds.svg	stimuli_target_squarediamonds.svg	11	yes	57	0	547	0	0			0	0			1				0	
6.6.1	win	2023-06-27	00:58:20	01:09:23	660037	63e51bc04bab3dc97deba8de	3	1	practice_z	9	practice_z	19	stimuli_target_rectanglediamonds.svg	stimuli_distractor_diamondtriangles.svg	1	yes	44	1	468	0	0			0	0			1				0	
6.6.1	win	2023-06-27	00:58:20	01:09:23	660037	63e51bc04bab3dc97deba8de	3	1	practice_z	9	advance_on_keypress_ZEE	20	stimuli_target_rectanglediamonds.svg	stimuli_distractor_diamondtriangles.svg	1	yes	57	0	482	0	0			0	0			1				0	
6.6.1	win	2023-06-27	00:58:20	01:09:26	662572	63e51bc04bab3dc97deba8de	3	1	practice_z	9	practice_z	21	stimuli_distractor_diamondtriangles.svg	stimuli_target_rectangletriangles.svg	7	yes	44	1	413	0	0			0	0			1				0	
6.6.1	win	2023-06-27	00:58:20	01:09:26	662572	63e51bc04bab3dc97deba8de	3	1	practice_z	9	advance_on_keypress_ZEE	22	stimuli_distractor_diamondtriangles.svg	stimuli_target_rectangletriangles.svg	7	yes	57	0	454	0	0			0	0			1				0	
6.6.1	win	2023-06-27	00:58:20	01:09:28	665094	63e51bc04bab3dc97deba8de	3	1	practice_z	9	practice_z	23	stimuli_target_rectanglediamonds.svg	stimuli_distractor_trianglediamonds.svg	4	yes	44	1	418	0	0			0	0			1				0	
6.6.1	win	2023-06-27	00:58:20	01:09:28	665094	63e51bc04bab3dc97deba8de	3	1	practice_z	9	advance_on_keypress_ZEE	24	stimuli_target_rectanglediamonds.svg	stimuli_distractor_trianglediamonds.svg	4	yes	57	0	503	0	0			0	0			1				0	
6.6.1	win	2023-06-27	00:58:20	01:09:31	668001	63e51bc04bab3dc97deba8de	3	1	practice_z	9	practice_z	25	stimuli_target_diamondsquares.svg	stimuli_distractor_diamondtriangles.svg	3	yes	44	1	757	0	0			0	0			1				0	
6.6.1	win	2023-06-27	00:58:20	01:09:31	668001	63e51bc04bab3dc97deba8de	3	1	practice_z	9	advance_on_keypress_ZEE	26	stimuli_target_diamondsquares.svg	stimuli_distractor_diamondtriangles.svg	3	yes	57	0	309	0	0			0	0			1				0	
6.6.1	win	2023-06-27	00:58:20	01:09:33	670467	63e51bc04bab3dc97deba8de	3	1	practice_z	9	practice_z	27	stimuli_target_diamondsquares.svg	stimuli_distractor_trianglediamonds.svg	6	yes	44	1	523	0	0			0	0			1				0	
6.6.1	win	2023-06-27	00:58:20	01:09:33	670467	63e51bc04bab3dc97deba8de	3	1	practice_z	9	advance_on_keypress_ZEE	28	stimuli_target_diamondsquares.svg	stimuli_distractor_trianglediamonds.svg	6	yes	57	0	368	0	0			0	0			1				0	
6.6.1	win	2023-06-27	00:58:20	01:09:36	672952	63e51bc04bab3dc97deba8de	3	1	practice_z	9	practice_z	29	stimuli_distractor_diamondtriangles.svg	stimuli_target_trianglerectangles.svg	9	yes	44	1	476	0	0			0	0			1				0	
6.6.1	win	2023-06-27	00:58:20	01:09:36	672952	63e51bc04bab3dc97deba8de	3	1	practice_z	9	advance_on_keypress_ZEE	30	stimuli_distractor_diamondtriangles.svg	stimuli_target_trianglerectangles.svg	9	yes	57	0	471	0	0			0	0			1				0	
6.6.1	win	2023-06-27	00:58:20	01:09:38	675468	63e51bc04bab3dc97deba8de	3	1	practice_z	9	practice_z	31	stimuli_distractor_trianglediamonds.svg	stimuli_target_diamondrectangles.svg	12	yes	44	1	409	0	0			0	0			1				0	
6.6.1	win	2023-06-27	00:58:20	01:09:38	675468	63e51bc04bab3dc97deba8de	3	1	practice_z	9	advance_on_keypress_ZEE	32	stimuli_distractor_trianglediamonds.svg	stimuli_target_diamondrectangles.svg	12	yes	57	0	520	0	0			0	0			1				0	
6.6.1	win	2023-06-27	00:58:20	01:09:47	684291	63e51bc04bab3dc97deba8de	3	1	main_z	11	main_z	1	stimuli_target_squaretriangles.svg	stimuli_distractor_diamondtriangles.svg	7	yes	0	0	2000	0	0			0	0			1				0	
6.6.1	win	2023-06-27	00:58:20	01:09:47	684291	63e51bc04bab3dc97deba8de	3	1	main_z	11	advance_on_keypress_ZEE	2	stimuli_target_squaretriangles.svg	stimuli_distractor_diamondtriangles.svg	7	yes	57	0	433	0	0			0	0			1				0	
6.6.1	win	2023-06-27	00:58:20	01:09:50	687375	63e51bc04bab3dc97deba8de	3	1	main_z	11	main_z	3	stimuli_distractor_trianglediamonds.svg	stimuli_distractor_diamondtriangles.svg	36	no	0	1	2000	0	0			0	0			1				0	
6.6.1	win	2023-06-27	00:58:20	01:09:50	687375	63e51bc04bab3dc97deba8de	3	1	main_z	11	advance_on_keypress_ZEE	4	stimuli_distractor_trianglediamonds.svg	stimuli_distractor_diamondtriangles.svg	36	no	57	0	387	0	0			0	0			1				0	
6.6.1	win	2023-06-27	00:58:20	01:09:53	690408	63e51bc04bab3dc97deba8de	3	1	main_z	11	main_z	5	stimuli_distractor_trianglediamonds.svg	stimuli_distractor_trianglediamonds.svg	33	no	0	1	2000	0	0			0	0			1				0	
6.6.1	win	2023-06-27	00:58:20	01:09:53	690408	63e51bc04bab3dc97deba8de	3	1	main_z	11	advance_on_keypress_ZEE	6	stimuli_distractor_trianglediamonds.svg	stimuli_distractor_trianglediamonds.svg	33	no	57	0	325	0	0			0	0			1				0	
6.6.1	win	2023-06-27	00:58:20	01:09:56	693391	63e51bc04bab3dc97deba8de	3	1	main_z	11	main_z	7	stimuli_distractor_diamondtriangles.svg	stimuli_distractor_trianglediamonds.svg	38	no	0	1	2000	0	0			0	0			1				0	
6.6.1	win	2023-06-27	00:58:20	01:09:56	693391	63e51bc04bab3dc97deba8de	3	1	main_z	11	advance_on_keypress_ZEE	8	stimuli_distractor_diamondtriangles.svg	stimuli_distractor_trianglediamonds.svg	38	no	57	0	354	0	0			0	0			1				0	
6.6.1	win	2023-06-27	00:58:20	01:09:59	696391	63e51bc04bab3dc97deba8de	3	1	main_z	11	main_z	9	stimuli_distractor_diamondtriangles.svg	stimuli_distractor_diamondtriangles.svg	40	no	0	1	2000	0	0			0	0			1				0	
6.6.1	win	2023-06-27	00:58:20	01:09:59	696391	63e51bc04bab3dc97deba8de	3	1	main_z	11	advance_on_keypress_ZEE	10	stimuli_distractor_diamondtriangles.svg	stimuli_distractor_diamondtriangles.svg	40	no	57	0	341	0	0			0	0			1				0	
6.6.1	win	2023-06-27	00:58:20	01:10:01	697972	63e51bc04bab3dc97deba8de	3	1	main_z	11	main_z	11	stimuli_distractor_trianglediamonds.svg	stimuli_target_trianglerectangles.svg	25	yes	44	1	597	0	0			0	0			1				0	
6.6.1	win	2023-06-27	00:58:20	01:10:01	697972	63e51bc04bab3dc97deba8de	3	1	main_z	11	advance_on_keypress_ZEE	12	stimuli_distractor_trianglediamonds.svg	stimuli_target_trianglerectangles.svg	25	yes	57	0	1019	0	0			0	0			1				0	
6.6.1	win	2023-06-27	00:58:20	01:10:03	700138	63e51bc04bab3dc97deba8de	3	1	main_z	11	main_z	13	stimuli_target_diamondsquares.svg	stimuli_distractor_trianglediamonds.svg	20	yes	44	1	496	0	0			0	0			1				0	
6.6.1	win	2023-06-27	00:58:20	01:10:03	700138	63e51bc04bab3dc97deba8de	3	1	main_z	11	advance_on_keypress_ZEE	14	stimuli_target_diamondsquares.svg	stimuli_distractor_trianglediamonds.svg	20	yes	57	0	666	0	0			0	0			1				0	
6.6.1	win	2023-06-27	00:58:20	01:10:05	701897	63e51bc04bab3dc97deba8de	3	1	main_z	11	main_z	15	stimuli_target_squarediamonds.svg	stimuli_distractor_trianglediamonds.svg	4	yes	44	1	439	0	0			0	0			1				0	
6.6.1	win	2023-06-27	00:58:20	01:10:05	701897	63e51bc04bab3dc97deba8de	3	1	main_z	11	advance_on_keypress_ZEE	16	stimuli_target_squarediamonds.svg	stimuli_distractor_trianglediamonds.svg	4	yes	57	0	595	0	0			0	0			1				0	
6.6.1	win	2023-06-27	00:58:20	01:10:07	703577	63e51bc04bab3dc97deba8de	3	1	main_z	11	main_z	17	stimuli_distractor_diamondtriangles.svg	stimuli_target_diamondsquares.svg	32	yes	44	1	446	0	0			0	0			1				0	
6.6.1	win	2023-06-27	00:58:20	01:10:07	703577	63e51bc04bab3dc97deba8de	3	1	main_z	11	advance_on_keypress_ZEE	18	stimuli_distractor_diamondtriangles.svg	stimuli_target_diamondsquares.svg	32	yes	57	0	481	0	0			0	0			1				0	
6.6.1	win	2023-06-27	00:58:20	01:10:08	705139	63e51bc04bab3dc97deba8de	3	1	main_z	11	main_z	19	stimuli_distractor_diamondtriangles.svg	stimuli_target_trianglesquares.svg	30	yes	44	1	431	0	0			0	0			1				0	
6.6.1	win	2023-06-27	00:58:20	01:10:08	705139	63e51bc04bab3dc97deba8de	3	1	main_z	11	advance_on_keypress_ZEE	20	stimuli_distractor_diamondtriangles.svg	stimuli_target_trianglesquares.svg	30	yes	57	0	427	0	0			0	0			1				0	
6.6.1	win	2023-06-27	00:58:20	01:10:10	706873	63e51bc04bab3dc97deba8de	3	1	main_z	11	main_z	21	stimuli_distractor_trianglediamonds.svg	stimuli_target_rectangletriangles.svg	9	yes	44	1	665	0	0			0	0			1				0	
6.6.1	win	2023-06-27	00:58:20	01:10:10	706873	63e51bc04bab3dc97deba8de	3	1	main_z	11	advance_on_keypress_ZEE	22	stimuli_distractor_trianglediamonds.svg	stimuli_target_rectangletriangles.svg	9	yes	57	0	478	0	0			0	0			1				0	
6.6.1	win	2023-06-27	00:58:20	01:10:12	708522	63e51bc04bab3dc97deba8de	3	1	main_z	11	main_z	23	stimuli_target_trianglesquares.svg	stimuli_distractor_diamondtriangles.svg	22	yes	44	1	531	0	0			0	0			1				0	
6.6.1	win	2023-06-27	00:58:20	01:10:12	708522	63e51bc04bab3dc97deba8de	3	1	main_z	11	advance_on_keypress_ZEE	24	stimuli_target_trianglesquares.svg	stimuli_distractor_diamondtriangles.svg	22	yes	57	0	357	0	0			0	0			1				0	
6.6.1	win	2023-06-27	00:58:20	01:10:15	711525	63e51bc04bab3dc97deba8de	3	1	main_z	11	main_z	25	stimuli_distractor_diamondtriangles.svg	stimuli_distractor_diamondtriangles.svg	39	no	0	1	2000	0	0			0	0			1				0	
6.6.1	win	2023-06-27	00:58:20	01:10:15	711525	63e51bc04bab3dc97deba8de	3	1	main_z	11	advance_on_keypress_ZEE	26	stimuli_distractor_diamondtriangles.svg	stimuli_distractor_diamondtriangles.svg	39	no	57	0	358	0	0			0	0			1				0	
6.6.1	win	2023-06-27	00:58:20	01:10:16	713143	63e51bc04bab3dc97deba8de	3	1	main_z	11	main_z	27	stimuli_target_diamondrectangles.svg	stimuli_distractor_diamondtriangles.svg	23	yes	44	1	618	0	0			0	0			1				0	
6.6.1	win	2023-06-27	00:58:20	01:10:16	713143	63e51bc04bab3dc97deba8de	3	1	main_z	11	advance_on_keypress_ZEE	28	stimuli_target_diamondrectangles.svg	stimuli_distractor_diamondtriangles.svg	23	yes	57	0	446	0	0			0	0			1				0	
6.6.1	win	2023-06-27	00:58:20	01:10:18	714849	63e51bc04bab3dc97deba8de	3	1	main_z	11	main_z	29	stimuli_target_trianglerectangles.svg	stimuli_distractor_trianglediamonds.svg	17	yes	44	1	612	0	0			0	0			1				0	
6.6.1	win	2023-06-27	00:58:20	01:10:18	714849	63e51bc04bab3dc97deba8de	3	1	main_z	11	advance_on_keypress_ZEE	30	stimuli_target_trianglerectangles.svg	stimuli_distractor_trianglediamonds.svg	17	yes	57	0	415	0	0			0	0			1				0	
6.6.1	win	2023-06-27	00:58:20	01:10:19	716318	63e51bc04bab3dc97deba8de	3	1	main_z	11	main_z	31	stimuli_target_rectangletriangles.svg	stimuli_distractor_diamondtriangles.svg	5	yes	44	1	409	0	0			0	0			1				0	
6.6.1	win	2023-06-27	00:58:20	01:10:19	716318	63e51bc04bab3dc97deba8de	3	1	main_z	11	advance_on_keypress_ZEE	32	stimuli_target_rectangletriangles.svg	stimuli_distractor_diamondtriangles.svg	5	yes	57	0	417	0	0			0	0			1				0	
6.6.1	win	2023-06-27	00:58:20	01:10:21	717725	63e51bc04bab3dc97deba8de	3	1	main_z	11	main_z	33	stimuli_target_rectangletriangles.svg	stimuli_distractor_trianglediamonds.svg	1	yes	44	1	349	0	0			0	0			1				0	
6.6.1	win	2023-06-27	00:58:20	01:10:21	717725	63e51bc04bab3dc97deba8de	3	1	main_z	11	advance_on_keypress_ZEE	34	stimuli_target_rectangletriangles.svg	stimuli_distractor_trianglediamonds.svg	1	yes	57	0	404	0	0			0	0			1				0	
6.6.1	win	2023-06-27	00:58:20	01:10:22	719183	63e51bc04bab3dc97deba8de	3	1	main_z	11	main_z	35	stimuli_distractor_trianglediamonds.svg	stimuli_target_squarediamonds.svg	12	yes	44	1	408	0	0			0	0			1				0	
6.6.1	win	2023-06-27	00:58:20	01:10:22	719183	63e51bc04bab3dc97deba8de	3	1	main_z	11	advance_on_keypress_ZEE	36	stimuli_distractor_trianglediamonds.svg	stimuli_target_squarediamonds.svg	12	yes	57	0	374	0	0			0	0			1				0	
6.6.1	win	2023-06-27	00:58:20	01:10:24	720698	63e51bc04bab3dc97deba8de	3	1	main_z	11	main_z	37	stimuli_distractor_diamondtriangles.svg	stimuli_target_rectangletriangles.svg	13	yes	44	1	505	0	0			0	0			1				0	
6.6.1	win	2023-06-27	00:58:20	01:10:24	720698	63e51bc04bab3dc97deba8de	3	1	main_z	11	advance_on_keypress_ZEE	38	stimuli_distractor_diamondtriangles.svg	stimuli_target_rectangletriangles.svg	13	yes	57	0	349	0	0			0	0			1				0	
6.6.1	win	2023-06-27	00:58:20	01:10:25	722141	63e51bc04bab3dc97deba8de	3	1	main_z	11	main_z	39	stimuli_distractor_trianglediamonds.svg	stimuli_target_diamondrectangles.svg	27	yes	44	1	449	0	0			0	0			1				0	
6.6.1	win	2023-06-27	00:58:20	01:10:25	722141	63e51bc04bab3dc97deba8de	3	1	main_z	11	advance_on_keypress_ZEE	40	stimuli_distractor_trianglediamonds.svg	stimuli_target_diamondrectangles.svg	27	yes	57	0	368	0	0			0	0			1				0	
6.6.1	win	2023-06-27	00:58:20	01:10:27	723638	63e51bc04bab3dc97deba8de	3	1	main_z	11	main_z	41	stimuli_target_diamondrectangles.svg	stimuli_distractor_trianglediamonds.svg	19	yes	44	1	480	0	0			0	0			1				0	
6.6.1	win	2023-06-27	00:58:20	01:10:27	723638	63e51bc04bab3dc97deba8de	3	1	main_z	11	advance_on_keypress_ZEE	42	stimuli_target_diamondrectangles.svg	stimuli_distractor_trianglediamonds.svg	19	yes	57	0	383	0	0			0	0			1				0	
6.6.1	win	2023-06-27	00:58:20	01:10:28	725107	63e51bc04bab3dc97deba8de	3	1	main_z	11	main_z	43	stimuli_target_diamondsquares.svg	stimuli_distractor_diamondtriangles.svg	24	yes	44	1	422	0	0			0	0			1				0	
6.6.1	win	2023-06-27	00:58:20	01:10:28	725107	63e51bc04bab3dc97deba8de	3	1	main_z	11	advance_on_keypress_ZEE	44	stimuli_target_diamondsquares.svg	stimuli_distractor_diamondtriangles.svg	24	yes	57	0	368	0	0			0	0			1				0	
6.6.1	win	2023-06-27	00:58:20	01:10:30	726723	63e51bc04bab3dc97deba8de	3	1	main_z	11	main_z	45	stimuli_distractor_diamondtriangles.svg	stimuli_target_squaretriangles.svg	15	yes	44	1	591	0	0			0	0			1				0	
6.6.1	win	2023-06-27	00:58:20	01:10:30	726723	63e51bc04bab3dc97deba8de	3	1	main_z	11	advance_on_keypress_ZEE	46	stimuli_distractor_diamondtriangles.svg	stimuli_target_squaretriangles.svg	15	yes	57	0	315	0	0			0	0			1				0	
6.6.1	win	2023-06-27	00:58:20	01:10:33	729691	63e51bc04bab3dc97deba8de	3	1	main_z	11	main_z	47	stimuli_distractor_trianglediamonds.svg	stimuli_distractor_trianglediamonds.svg	34	no	0	1	2000	0	0			0	0			1				0	
6.6.1	win	2023-06-27	00:58:20	01:10:33	729691	63e51bc04bab3dc97deba8de	3	1	main_z	11	advance_on_keypress_ZEE	48	stimuli_distractor_trianglediamonds.svg	stimuli_distractor_trianglediamonds.svg	34	no	57	0	431	0	0			0	0			1				0	
6.6.1	win	2023-06-27	00:58:20	01:10:34	731234	63e51bc04bab3dc97deba8de	3	1	main_z	11	main_z	49	stimuli_target_trianglesquares.svg	stimuli_distractor_trianglediamonds.svg	18	yes	44	1	451	0	0			0	0			1				0	
6.6.1	win	2023-06-27	00:58:20	01:10:34	731234	63e51bc04bab3dc97deba8de	3	1	main_z	11	advance_on_keypress_ZEE	50	stimuli_target_trianglesquares.svg	stimuli_distractor_trianglediamonds.svg	18	yes	57	0	321	0	0			0	0			1				0	
6.6.1	win	2023-06-27	00:58:20	01:10:36	732605	63e51bc04bab3dc97deba8de	3	1	main_z	11	main_z	51	stimuli_target_rectanglediamonds.svg	stimuli_distractor_diamondtriangles.svg	6	yes	44	1	414	0	0			0	0			1				0	
6.6.1	win	2023-06-27	00:58:20	01:10:36	732605	63e51bc04bab3dc97deba8de	3	1	main_z	11	advance_on_keypress_ZEE	52	stimuli_target_rectanglediamonds.svg	stimuli_distractor_diamondtriangles.svg	6	yes	57	0	340	0	0			0	0			1				0	
6.6.1	win	2023-06-27	00:58:20	01:10:37	734344	63e51bc04bab3dc97deba8de	3	1	main_z	11	main_z	53	stimuli_distractor_diamondtriangles.svg	stimuli_distractor_trianglediamonds.svg	37	no	44	0	753	0	0			0	0			1				0	
6.6.1	win	2023-06-27	00:58:20	01:10:37	734344	63e51bc04bab3dc97deba8de	3	1	main_z	11	advance_on_keypress_ZEE	54	stimuli_distractor_diamondtriangles.svg	stimuli_distractor_trianglediamonds.svg	37	no	57	0	432	0	0			0	0			1				0	
6.6.1	win	2023-06-27	00:58:20	01:10:39	736093	63e51bc04bab3dc97deba8de	3	1	main_z	11	main_z	55	stimuli_distractor_trianglediamonds.svg	stimuli_target_rectanglediamonds.svg	10	yes	44	1	668	0	0			0	0			1				0	
6.6.1	win	2023-06-27	00:58:20	01:10:39	736093	63e51bc04bab3dc97deba8de	3	1	main_z	11	advance_on_keypress_ZEE	56	stimuli_distractor_trianglediamonds.svg	stimuli_target_rectanglediamonds.svg	10	yes	57	0	416	0	0			0	0			1				0	
6.6.1	win	2023-06-27	00:58:20	01:10:41	737576	63e51bc04bab3dc97deba8de	3	1	main_z	11	main_z	57	stimuli_target_rectanglediamonds.svg	stimuli_distractor_trianglediamonds.svg	2	yes	44	1	418	0	0			0	0			1				0	
6.6.1	win	2023-06-27	00:58:20	01:10:41	737576	63e51bc04bab3dc97deba8de	3	1	main_z	11	advance_on_keypress_ZEE	58	stimuli_target_rectanglediamonds.svg	stimuli_distractor_trianglediamonds.svg	2	yes	57	0	266	0	0			0	0			1				0	
6.6.1	win	2023-06-27	00:58:20	01:10:42	738909	63e51bc04bab3dc97deba8de	3	1	main_z	11	main_z	59	stimuli_distractor_diamondtriangles.svg	stimuli_target_diamondrectangles.svg	31	yes	44	1	418	0	0			0	0			1				0	
6.6.1	win	2023-06-27	00:58:20	01:10:42	738909	63e51bc04bab3dc97deba8de	3	1	main_z	11	advance_on_keypress_ZEE	60	stimuli_distractor_diamondtriangles.svg	stimuli_target_diamondrectangles.svg	31	yes	57	0	275	0	0			0	0			1				0	
6.6.1	win	2023-06-27	00:58:20	01:10:43	740238	63e51bc04bab3dc97deba8de	3	1	main_z	11	main_z	61	stimuli_distractor_diamondtriangles.svg	stimuli_target_rectanglediamonds.svg	14	yes	44	1	413	0	0			0	0			1				0	
6.6.1	win	2023-06-27	00:58:20	01:10:43	740238	63e51bc04bab3dc97deba8de	3	1	main_z	11	advance_on_keypress_ZEE	62	stimuli_distractor_diamondtriangles.svg	stimuli_target_rectanglediamonds.svg	14	yes	57	0	290	0	0			0	0			1				0	
6.6.1	win	2023-06-27	00:58:20	01:10:45	741541	63e51bc04bab3dc97deba8de	3	1	main_z	11	main_z	63	stimuli_distractor_trianglediamonds.svg	stimuli_target_trianglesquares.svg	26	yes	44	1	366	0	0			0	0			1				0	
6.6.1	win	2023-06-27	00:58:20	01:10:45	741541	63e51bc04bab3dc97deba8de	3	1	main_z	11	advance_on_keypress_ZEE	64	stimuli_distractor_trianglediamonds.svg	stimuli_target_trianglesquares.svg	26	yes	57	0	369	0	0			0	0			1				0	
6.6.1	win	2023-06-27	00:58:20	01:10:46	742919	63e51bc04bab3dc97deba8de	3	1	main_z	11	main_z	65	stimuli_target_squarediamonds.svg	stimuli_distractor_diamondtriangles.svg	8	yes	44	1	361	0	0			0	0			1				0	
6.6.1	win	2023-06-27	00:58:20	01:10:46	742919	63e51bc04bab3dc97deba8de	3	1	main_z	11	advance_on_keypress_ZEE	66	stimuli_target_squarediamonds.svg	stimuli_distractor_diamondtriangles.svg	8	yes	57	0	320	0	0			0	0			1				0	
6.6.1	win	2023-06-27	00:58:20	01:10:48	744626	63e51bc04bab3dc97deba8de	3	1	main_z	11	main_z	67	stimuli_distractor_diamondtriangles.svg	stimuli_target_squarediamonds.svg	16	yes	44	1	732	0	0			0	0			1				0	
6.6.1	win	2023-06-27	00:58:20	01:10:48	744626	63e51bc04bab3dc97deba8de	3	1	main_z	11	advance_on_keypress_ZEE	68	stimuli_distractor_diamondtriangles.svg	stimuli_target_squarediamonds.svg	16	yes	57	0	293	0	0			0	0			1				0	
6.6.1	win	2023-06-27	00:58:20	01:10:49	745952	63e51bc04bab3dc97deba8de	3	1	main_z	11	main_z	69	stimuli_distractor_trianglediamonds.svg	stimuli_target_diamondsquares.svg	28	yes	44	1	382	0	0			0	0			1				0	
6.6.1	win	2023-06-27	00:58:20	01:10:49	745952	63e51bc04bab3dc97deba8de	3	1	main_z	11	advance_on_keypress_ZEE	70	stimuli_distractor_trianglediamonds.svg	stimuli_target_diamondsquares.svg	28	yes	57	0	249	0	0			0	0			1				0	
6.6.1	win	2023-06-27	00:58:20	01:10:50	747272	63e51bc04bab3dc97deba8de	3	1	main_z	11	main_z	71	stimuli_distractor_trianglediamonds.svg	stimuli_target_squaretriangles.svg	11	yes	44	1	418	0	0			0	0			1				0	
6.6.1	win	2023-06-27	00:58:20	01:10:50	747272	63e51bc04bab3dc97deba8de	3	1	main_z	11	advance_on_keypress_ZEE	72	stimuli_distractor_trianglediamonds.svg	stimuli_target_squaretriangles.svg	11	yes	57	0	219	0	0			0	0			1				0	
6.6.1	win	2023-06-27	00:58:20	01:10:52	748547	63e51bc04bab3dc97deba8de	3	1	main_z	11	main_z	73	stimuli_distractor_diamondtriangles.svg	stimuli_target_trianglerectangles.svg	29	yes	44	1	389	0	0			0	0			1				0	
6.6.1	win	2023-06-27	00:58:20	01:10:52	748547	63e51bc04bab3dc97deba8de	3	1	main_z	11	advance_on_keypress_ZEE	74	stimuli_distractor_diamondtriangles.svg	stimuli_target_trianglerectangles.svg	29	yes	57	0	255	0	0			0	0			1				0	
6.6.1	win	2023-06-27	00:58:20	01:10:53	749807	63e51bc04bab3dc97deba8de	3	1	main_z	11	main_z	75	stimuli_target_squaretriangles.svg	stimuli_distractor_trianglediamonds.svg	3	yes	44	1	364	0	0			0	0			1				0	
6.6.1	win	2023-06-27	00:58:20	01:10:53	749807	63e51bc04bab3dc97deba8de	3	1	main_z	11	advance_on_keypress_ZEE	76	stimuli_target_squaretriangles.svg	stimuli_distractor_trianglediamonds.svg	3	yes	57	0	321	0	0			0	0			1				0	
6.6.1	win	2023-06-27	00:58:20	01:10:54	751128	63e51bc04bab3dc97deba8de	3	1	main_z	11	main_z	77	stimuli_target_trianglerectangles.svg	stimuli_distractor_diamondtriangles.svg	21	yes	44	1	353	0	0			0	0			1				0	
6.6.1	win	2023-06-27	00:58:20	01:10:54	751128	63e51bc04bab3dc97deba8de	3	1	main_z	11	advance_on_keypress_ZEE	78	stimuli_target_trianglerectangles.svg	stimuli_distractor_diamondtriangles.svg	21	yes	57	0	238	0	0			0	0			1				0	
6.6.1	win	2023-06-27	00:58:20	01:10:57	754008	63e51bc04bab3dc97deba8de	3	1	main_z	11	main_z	79	stimuli_distractor_trianglediamonds.svg	stimuli_distractor_diamondtriangles.svg	35	no	0	1	2000	0	0			0	0			1				0	
6.6.1	win	2023-06-27	00:58:20	01:10:57	754008	63e51bc04bab3dc97deba8de	3	1	main_z	11	advance_on_keypress_ZEE	80	stimuli_distractor_trianglediamonds.svg	stimuli_distractor_diamondtriangles.svg	35	no	57	0	431	0	0			0	0			1				0	
6.6.1	win	2023-06-27	00:58:20	01:11:00	757091	63e51bc04bab3dc97deba8de	3	1	main_z	11	main_z	81	stimuli_target_trianglerectangles.svg	stimuli_distractor_diamondtriangles.svg	21	yes	0	0	2000	0	0			0	0			1				0	
6.6.1	win	2023-06-27	00:58:20	01:11:00	757091	63e51bc04bab3dc97deba8de	3	1	main_z	11	advance_on_keypress_ZEE	82	stimuli_target_trianglerectangles.svg	stimuli_distractor_diamondtriangles.svg	21	yes	57	0	1137	0	0			0	0			1				0	
6.6.1	win	2023-06-27	00:58:20	01:11:04	760886	63e51bc04bab3dc97deba8de	3	1	main_z	11	main_z	83	stimuli_distractor_diamondtriangles.svg	stimuli_distractor_diamondtriangles.svg	40	no	0	1	2000	0	0			0	0			1				0	
6.6.1	win	2023-06-27	00:58:20	01:11:04	760886	63e51bc04bab3dc97deba8de	3	1	main_z	11	advance_on_keypress_ZEE	84	stimuli_distractor_diamondtriangles.svg	stimuli_distractor_diamondtriangles.svg	40	no	57	0	392	0	0			0	0			1				0	
6.6.1	win	2023-06-27	00:58:20	01:11:06	762681	63e51bc04bab3dc97deba8de	3	1	main_z	11	main_z	85	stimuli_target_diamondrectangles.svg	stimuli_distractor_trianglediamonds.svg	19	yes	44	1	756	0	0			0	0			1				0	
6.6.1	win	2023-06-27	00:58:20	01:11:06	762681	63e51bc04bab3dc97deba8de	3	1	main_z	11	advance_on_keypress_ZEE	86	stimuli_target_diamondrectangles.svg	stimuli_distractor_trianglediamonds.svg	19	yes	57	0	342	0	0			0	0			1				0	
6.6.1	win	2023-06-27	00:58:20	01:11:07	764064	63e51bc04bab3dc97deba8de	3	1	main_z	11	main_z	87	stimuli_distractor_trianglediamonds.svg	stimuli_target_diamondsquares.svg	28	yes	44	1	406	0	0			0	0			1				0	
6.6.1	win	2023-06-27	00:58:20	01:11:07	764064	63e51bc04bab3dc97deba8de	3	1	main_z	11	advance_on_keypress_ZEE	88	stimuli_distractor_trianglediamonds.svg	stimuli_target_diamondsquares.svg	28	yes	57	0	316	0	0			0	0			1				0	
6.6.1	win	2023-06-27	00:58:20	01:11:09	765472	63e51bc04bab3dc97deba8de	3	1	main_z	11	main_z	89	stimuli_distractor_diamondtriangles.svg	stimuli_target_trianglerectangles.svg	29	yes	44	1	447	0	0			0	0			1				0	
6.6.1	win	2023-06-27	00:58:20	01:11:09	765472	63e51bc04bab3dc97deba8de	3	1	main_z	11	advance_on_keypress_ZEE	90	stimuli_distractor_diamondtriangles.svg	stimuli_target_trianglerectangles.svg	29	yes	57	0	342	0	0			0	0			1				0	
6.6.1	win	2023-06-27	00:58:20	01:11:11	768458	63e51bc04bab3dc97deba8de	3	1	main_z	11	main_z	91	stimuli_distractor_trianglediamonds.svg	stimuli_distractor_diamondtriangles.svg	36	no	0	1	2000	0	0			0	0			1				0	
6.6.1	win	2023-06-27	00:58:20	01:11:11	768458	63e51bc04bab3dc97deba8de	3	1	main_z	11	advance_on_keypress_ZEE	92	stimuli_distractor_trianglediamonds.svg	stimuli_distractor_diamondtriangles.svg	36	no	57	0	441	0	0			0	0			1				0	
6.6.1	win	2023-06-27	00:58:20	01:11:15	771541	63e51bc04bab3dc97deba8de	3	1	main_z	11	main_z	93	stimuli_distractor_diamondtriangles.svg	stimuli_distractor_diamondtriangles.svg	39	no	0	1	2000	0	0			0	0			1				0	
6.6.1	win	2023-06-27	00:58:20	01:11:15	771541	63e51bc04bab3dc97deba8de	3	1	main_z	11	advance_on_keypress_ZEE	94	stimuli_distractor_diamondtriangles.svg	stimuli_distractor_diamondtriangles.svg	39	no	57	0	361	0	0			0	0			1				0	
6.6.1	win	2023-06-27	00:58:20	01:11:16	773020	63e51bc04bab3dc97deba8de	3	1	main_z	11	main_z	95	stimuli_distractor_diamondtriangles.svg	stimuli_target_diamondrectangles.svg	31	yes	44	1	479	0	0			0	0			1				0	
6.6.1	win	2023-06-27	00:58:20	01:11:16	773020	63e51bc04bab3dc97deba8de	3	1	main_z	11	advance_on_keypress_ZEE	96	stimuli_distractor_diamondtriangles.svg	stimuli_target_diamondrectangles.svg	31	yes	57	0	295	0	0			0	0			1				0	
6.6.1	win	2023-06-27	00:58:20	01:11:19	775958	63e51bc04bab3dc97deba8de	3	1	main_z	11	main_z	97	stimuli_distractor_trianglediamonds.svg	stimuli_distractor_trianglediamonds.svg	33	no	0	1	2000	0	0			0	0			1				0	
6.6.1	win	2023-06-27	00:58:20	01:11:19	775958	63e51bc04bab3dc97deba8de	3	1	main_z	11	advance_on_keypress_ZEE	98	stimuli_distractor_trianglediamonds.svg	stimuli_distractor_trianglediamonds.svg	33	no	57	0	345	0	0			0	0			1				0	
6.6.1	win	2023-06-27	00:58:20	01:11:20	777336	63e51bc04bab3dc97deba8de	3	1	main_z	11	main_z	99	stimuli_target_squarediamonds.svg	stimuli_distractor_diamondtriangles.svg	8	yes	44	1	395	0	0			0	0			1				0	
6.6.1	win	2023-06-27	00:58:20	01:11:20	777336	63e51bc04bab3dc97deba8de	3	1	main_z	11	advance_on_keypress_ZEE	100	stimuli_target_squarediamonds.svg	stimuli_distractor_diamondtriangles.svg	8	yes	57	0	255	0	0			0	0			1				0	
6.6.1	win	2023-06-27	00:58:20	01:11:22	778654	63e51bc04bab3dc97deba8de	3	1	main_z	11	main_z	101	stimuli_distractor_diamondtriangles.svg	stimuli_target_trianglesquares.svg	30	yes	44	1	430	0	0			0	0			1				0	
6.6.1	win	2023-06-27	00:58:20	01:11:22	778654	63e51bc04bab3dc97deba8de	3	1	main_z	11	advance_on_keypress_ZEE	102	stimuli_distractor_diamondtriangles.svg	stimuli_target_trianglesquares.svg	30	yes	57	0	111	0	0			0	0			1				0	
6.6.1	win	2023-06-27	00:58:20	01:11:23	779833	63e51bc04bab3dc97deba8de	3	1	main_z	11	main_z	103	stimuli_target_rectangletriangles.svg	stimuli_distractor_diamondtriangles.svg	5	yes	44	1	413	0	0			0	0			1				0	
6.6.1	win	2023-06-27	00:58:20	01:11:23	779833	63e51bc04bab3dc97deba8de	3	1	main_z	11	advance_on_keypress_ZEE	104	stimuli_target_rectangletriangles.svg	stimuli_distractor_diamondtriangles.svg	5	yes	57	0	86	0	0			0	0			1				0	
6.6.1	win	2023-06-27	00:58:20	01:11:24	781240	63e51bc04bab3dc97deba8de	3	1	main_z	11	main_z	105	stimuli_target_trianglesquares.svg	stimuli_distractor_trianglediamonds.svg	18	yes	44	1	655	0	0			0	0			1				0	
6.6.1	win	2023-06-27	00:58:20	01:11:24	781240	63e51bc04bab3dc97deba8de	3	1	main_z	11	advance_on_keypress_ZEE	106	stimuli_target_trianglesquares.svg	stimuli_distractor_trianglediamonds.svg	18	yes	57	0	72	0	0			0	0			1				0	
6.6.1	win	2023-06-27	00:58:20	01:11:25	782428	63e51bc04bab3dc97deba8de	3	1	main_z	11	main_z	107	stimuli_distractor_diamondtriangles.svg	stimuli_target_diamondsquares.svg	32	yes	44	1	455	0	0			0	0			1				0	
6.6.1	win	2023-06-27	00:58:20	01:11:25	782428	63e51bc04bab3dc97deba8de	3	1	main_z	11	advance_on_keypress_ZEE	108	stimuli_distractor_diamondtriangles.svg	stimuli_target_diamondsquares.svg	32	yes	57	0	97	0	0			0	0			1				0	
6.6.1	win	2023-06-27	00:58:20	01:11:27	783579	63e51bc04bab3dc97deba8de	3	1	main_z	11	main_z	109	stimuli_target_trianglesquares.svg	stimuli_distractor_diamondtriangles.svg	22	yes	44	1	391	0	0			0	0			1				0	
6.6.1	win	2023-06-27	00:58:20	01:11:27	783579	63e51bc04bab3dc97deba8de	3	1	main_z	11	advance_on_keypress_ZEE	110	stimuli_target_trianglesquares.svg	stimuli_distractor_diamondtriangles.svg	22	yes	57	0	125	0	0			0	0			1				0	
6.6.1	win	2023-06-27	00:58:20	01:11:28	784698	63e51bc04bab3dc97deba8de	3	1	main_z	11	main_z	111	stimuli_target_squarediamonds.svg	stimuli_distractor_trianglediamonds.svg	4	yes	44	1	357	0	0			0	0			1				0	
6.6.1	win	2023-06-27	00:58:20	01:11:28	784698	63e51bc04bab3dc97deba8de	3	1	main_z	11	advance_on_keypress_ZEE	112	stimuli_target_squarediamonds.svg	stimuli_distractor_trianglediamonds.svg	4	yes	57	0	125	0	0			0	0			1				0	
6.6.1	win	2023-06-27	00:58:20	01:11:29	785836	63e51bc04bab3dc97deba8de	3	1	main_z	11	main_z	113	stimuli_distractor_trianglediamonds.svg	stimuli_target_trianglesquares.svg	26	yes	44	1	378	0	0			0	0			1				0	
6.6.1	win	2023-06-27	00:58:20	01:11:29	785836	63e51bc04bab3dc97deba8de	3	1	main_z	11	advance_on_keypress_ZEE	114	stimuli_distractor_trianglediamonds.svg	stimuli_target_trianglesquares.svg	26	yes	57	0	165	0	0			0	0			1				0	
6.6.1	win	2023-06-27	00:58:20	01:11:30	786963	63e51bc04bab3dc97deba8de	3	1	main_z	11	main_z	115	stimuli_target_trianglerectangles.svg	stimuli_distractor_trianglediamonds.svg	17	yes	44	1	322	0	0			0	0			1				0	
6.6.1	win	2023-06-27	00:58:20	01:11:30	786963	63e51bc04bab3dc97deba8de	3	1	main_z	11	advance_on_keypress_ZEE	116	stimuli_target_trianglerectangles.svg	stimuli_distractor_trianglediamonds.svg	17	yes	57	0	220	0	0			0	0			1				0	
6.6.1	win	2023-06-27	00:58:20	01:11:31	788197	63e51bc04bab3dc97deba8de	3	1	main_z	11	main_z	117	stimuli_distractor_trianglediamonds.svg	stimuli_distractor_diamondtriangles.svg	35	no	44	0	372	0	0			0	0			1				0	
6.6.1	win	2023-06-27	00:58:20	01:11:31	788197	63e51bc04bab3dc97deba8de	3	1	main_z	11	advance_on_keypress_ZEE	118	stimuli_distractor_trianglediamonds.svg	stimuli_distractor_diamondtriangles.svg	35	no	57	0	299	0	0			0	0			1				0	
6.6.1	win	2023-06-27	00:58:20	01:11:33	789855	63e51bc04bab3dc97deba8de	3	1	main_z	11	main_z	119	stimuli_distractor_diamondtriangles.svg	stimuli_target_squaretriangles.svg	15	yes	44	1	714	0	0			0	0			1				0	
6.6.1	win	2023-06-27	00:58:20	01:11:33	789855	63e51bc04bab3dc97deba8de	3	1	main_z	11	advance_on_keypress_ZEE	120	stimuli_distractor_diamondtriangles.svg	stimuli_target_squaretriangles.svg	15	yes	57	0	202	0	0			0	0			1				0	
6.6.1	win	2023-06-27	00:58:20	01:11:34	791068	63e51bc04bab3dc97deba8de	3	1	main_z	11	main_z	121	stimuli_distractor_trianglediamonds.svg	stimuli_target_rectangletriangles.svg	9	yes	44	1	360	0	0			0	0			1				0	
6.6.1	win	2023-06-27	00:58:20	01:11:34	791068	63e51bc04bab3dc97deba8de	3	1	main_z	11	advance_on_keypress_ZEE	122	stimuli_distractor_trianglediamonds.svg	stimuli_target_rectangletriangles.svg	9	yes	57	0	166	0	0			0	0			1				0	
6.6.1	win	2023-06-27	00:58:20	01:11:35	792236	63e51bc04bab3dc97deba8de	3	1	main_z	11	main_z	123	stimuli_target_diamondrectangles.svg	stimuli_distractor_diamondtriangles.svg	23	yes	44	1	362	0	0			0	0			1				0	
6.6.1	win	2023-06-27	00:58:20	01:11:35	792236	63e51bc04bab3dc97deba8de	3	1	main_z	11	advance_on_keypress_ZEE	124	stimuli_target_diamondrectangles.svg	stimuli_distractor_diamondtriangles.svg	23	yes	57	0	185	0	0			0	0			1				0	
6.6.1	win	2023-06-27	00:58:20	01:11:37	793519	63e51bc04bab3dc97deba8de	3	1	main_z	11	main_z	125	stimuli_distractor_diamondtriangles.svg	stimuli_distractor_trianglediamonds.svg	37	no	44	0	461	0	0			0	0			1				0	
6.6.1	win	2023-06-27	00:58:20	01:11:37	793519	63e51bc04bab3dc97deba8de	3	1	main_z	11	advance_on_keypress_ZEE	126	stimuli_distractor_diamondtriangles.svg	stimuli_distractor_trianglediamonds.svg	37	no	57	0	251	0	0			0	0			1				0	
6.6.1	win	2023-06-27	00:58:20	01:11:38	794914	63e51bc04bab3dc97deba8de	3	1	main_z	11	main_z	127	stimuli_target_rectanglediamonds.svg	stimuli_distractor_trianglediamonds.svg	2	yes	44	1	505	0	0			0	0			1				0	
6.6.1	win	2023-06-27	00:58:20	01:11:38	794914	63e51bc04bab3dc97deba8de	3	1	main_z	11	advance_on_keypress_ZEE	128	stimuli_target_rectanglediamonds.svg	stimuli_distractor_trianglediamonds.svg	2	yes	57	0	124	0	0			0	0			1				0	
6.6.1	win	2023-06-27	00:58:20	01:11:41	797704	63e51bc04bab3dc97deba8de	3	1	main_z	11	main_z	129	stimuli_distractor_diamondtriangles.svg	stimuli_distractor_trianglediamonds.svg	38	no	0	1	2000	0	0			0	0			1				0	
6.6.1	win	2023-06-27	00:58:20	01:11:41	797704	63e51bc04bab3dc97deba8de	3	1	main_z	11	advance_on_keypress_ZEE	130	stimuli_distractor_diamondtriangles.svg	stimuli_distractor_trianglediamonds.svg	38	no	57	0	482	0	0			0	0			1				0	
6.6.1	win	2023-06-27	00:58:20	01:11:42	799363	63e51bc04bab3dc97deba8de	3	1	main_z	11	main_z	131	stimuli_distractor_diamondtriangles.svg	stimuli_target_squarediamonds.svg	16	yes	44	1	539	0	0			0	0			1				0	
6.6.1	win	2023-06-27	00:58:20	01:11:42	799363	63e51bc04bab3dc97deba8de	3	1	main_z	11	advance_on_keypress_ZEE	132	stimuli_distractor_diamondtriangles.svg	stimuli_target_squarediamonds.svg	16	yes	57	0	233	0	0			0	0			1				0	
6.6.1	win	2023-06-27	00:58:20	01:11:44	800671	63e51bc04bab3dc97deba8de	3	1	main_z	11	main_z	133	stimuli_distractor_diamondtriangles.svg	stimuli_target_rectanglediamonds.svg	14	yes	44	1	430	0	0			0	0			1				0	
6.6.1	win	2023-06-27	00:58:20	01:11:44	800671	63e51bc04bab3dc97deba8de	3	1	main_z	11	advance_on_keypress_ZEE	134	stimuli_distractor_diamondtriangles.svg	stimuli_target_rectanglediamonds.svg	14	yes	57	0	238	0	0			0	0			1				0	
6.6.1	win	2023-06-27	00:58:20	01:11:45	802011	63e51bc04bab3dc97deba8de	3	1	main_z	11	main_z	135	stimuli_distractor_trianglediamonds.svg	stimuli_target_diamondrectangles.svg	27	yes	44	1	446	0	0			0	0			1				0	
6.6.1	win	2023-06-27	00:58:20	01:11:45	802011	63e51bc04bab3dc97deba8de	3	1	main_z	11	advance_on_keypress_ZEE	136	stimuli_distractor_trianglediamonds.svg	stimuli_target_diamondrectangles.svg	27	yes	57	0	145	0	0			0	0			1				0	
6.6.1	win	2023-06-27	00:58:20	01:11:46	803232	63e51bc04bab3dc97deba8de	3	1	main_z	11	main_z	137	stimuli_target_squaretriangles.svg	stimuli_distractor_trianglediamonds.svg	3	yes	44	1	409	0	0			0	0			1				0	
6.6.1	win	2023-06-27	00:58:20	01:11:46	803232	63e51bc04bab3dc97deba8de	3	1	main_z	11	advance_on_keypress_ZEE	138	stimuli_target_squaretriangles.svg	stimuli_distractor_trianglediamonds.svg	3	yes	57	0	181	0	0			0	0			1				0	
6.6.1	win	2023-06-27	00:58:20	01:11:48	804535	63e51bc04bab3dc97deba8de	3	1	main_z	11	main_z	139	stimuli_distractor_diamondtriangles.svg	stimuli_target_rectangletriangles.svg	13	yes	44	1	477	0	0			0	0			1				0	
6.6.1	win	2023-06-27	00:58:20	01:11:48	804535	63e51bc04bab3dc97deba8de	3	1	main_z	11	advance_on_keypress_ZEE	140	stimuli_distractor_diamondtriangles.svg	stimuli_target_rectangletriangles.svg	13	yes	57	0	165	0	0			0	0			1				0	
6.6.1	win	2023-06-27	00:58:20	01:11:49	805703	63e51bc04bab3dc97deba8de	3	1	main_z	11	main_z	141	stimuli_target_diamondsquares.svg	stimuli_distractor_diamondtriangles.svg	24	yes	44	1	362	0	0			0	0			1				0	
6.6.1	win	2023-06-27	00:58:20	01:11:49	805703	63e51bc04bab3dc97deba8de	3	1	main_z	11	advance_on_keypress_ZEE	142	stimuli_target_diamondsquares.svg	stimuli_distractor_diamondtriangles.svg	24	yes	57	0	195	0	0			0	0			1				0	
6.6.1	win	2023-06-27	00:58:20	01:11:50	806941	63e51bc04bab3dc97deba8de	3	1	main_z	11	main_z	143	stimuli_target_squaretriangles.svg	stimuli_distractor_diamondtriangles.svg	7	yes	44	1	400	0	0			0	0			1				0	
6.6.1	win	2023-06-27	00:58:20	01:11:50	806941	63e51bc04bab3dc97deba8de	3	1	main_z	11	advance_on_keypress_ZEE	144	stimuli_target_squaretriangles.svg	stimuli_distractor_diamondtriangles.svg	7	yes	57	0	153	0	0			0	0			1				0	
6.6.1	win	2023-06-27	00:58:20	01:11:51	808134	63e51bc04bab3dc97deba8de	3	1	main_z	11	main_z	145	stimuli_target_rectanglediamonds.svg	stimuli_distractor_diamondtriangles.svg	6	yes	44	1	394	0	0			0	0			1				0	
6.6.1	win	2023-06-27	00:58:20	01:11:51	808134	63e51bc04bab3dc97deba8de	3	1	main_z	11	advance_on_keypress_ZEE	146	stimuli_target_rectanglediamonds.svg	stimuli_distractor_diamondtriangles.svg	6	yes	57	0	153	0	0			0	0			1				0	
6.6.1	win	2023-06-27	00:58:20	01:11:52	809326	63e51bc04bab3dc97deba8de	3	1	main_z	11	main_z	147	stimuli_distractor_trianglediamonds.svg	stimuli_target_rectanglediamonds.svg	10	yes	44	1	402	0	0			0	0			1				0	
6.6.1	win	2023-06-27	00:58:20	01:11:52	809326	63e51bc04bab3dc97deba8de	3	1	main_z	11	advance_on_keypress_ZEE	148	stimuli_distractor_trianglediamonds.svg	stimuli_target_rectanglediamonds.svg	10	yes	57	0	112	0	0			0	0			1				0	
6.6.1	win	2023-06-27	00:58:20	01:11:54	810513	63e51bc04bab3dc97deba8de	3	1	main_z	11	main_z	149	stimuli_distractor_trianglediamonds.svg	stimuli_target_squaretriangles.svg	11	yes	44	1	435	0	0			0	0			1				0	
6.6.1	win	2023-06-27	00:58:20	01:11:54	810513	63e51bc04bab3dc97deba8de	3	1	main_z	11	advance_on_keypress_ZEE	150	stimuli_distractor_trianglediamonds.svg	stimuli_target_squaretriangles.svg	11	yes	57	0	111	0	0			0	0			1				0	
6.6.1	win	2023-06-27	00:58:20	01:11:55	811692	63e51bc04bab3dc97deba8de	3	1	main_z	11	main_z	151	stimuli_distractor_trianglediamonds.svg	stimuli_target_trianglerectangles.svg	25	yes	44	1	434	0	0			0	0			1				0	
6.6.1	win	2023-06-27	00:58:20	01:11:55	811692	63e51bc04bab3dc97deba8de	3	1	main_z	11	advance_on_keypress_ZEE	152	stimuli_distractor_trianglediamonds.svg	stimuli_target_trianglerectangles.svg	25	yes	57	0	175	0	0			0	0			1				0	
6.6.1	win	2023-06-27	00:58:20	01:11:56	813045	63e51bc04bab3dc97deba8de	3	1	main_z	11	main_z	153	stimuli_target_diamondsquares.svg	stimuli_distractor_trianglediamonds.svg	20	yes	44	1	537	0	0			0	0			1				0	
6.6.1	win	2023-06-27	00:58:20	01:11:56	813045	63e51bc04bab3dc97deba8de	3	1	main_z	11	advance_on_keypress_ZEE	154	stimuli_target_diamondsquares.svg	stimuli_distractor_trianglediamonds.svg	20	yes	57	0	684	0	0			0	0			1				0	
6.6.1	win	2023-06-27	00:58:20	01:11:58	814830	63e51bc04bab3dc97deba8de	3	1	main_z	11	main_z	155	stimuli_distractor_trianglediamonds.svg	stimuli_target_squarediamonds.svg	12	yes	44	1	457	0	0			0	0			1				0	
6.6.1	win	2023-06-27	00:58:20	01:11:58	814830	63e51bc04bab3dc97deba8de	3	1	main_z	11	advance_on_keypress_ZEE	156	stimuli_distractor_trianglediamonds.svg	stimuli_target_squarediamonds.svg	12	yes	57	0	194	0	0			0	0			1				0	
6.6.1	win	2023-06-27	00:58:20	01:11:59	816337	63e51bc04bab3dc97deba8de	3	1	main_z	11	main_z	157	stimuli_target_rectangletriangles.svg	stimuli_distractor_trianglediamonds.svg	1	yes	44	1	670	0	0			0	0			1				0	
6.6.1	win	2023-06-27	00:58:20	01:11:59	816337	63e51bc04bab3dc97deba8de	3	1	main_z	11	advance_on_keypress_ZEE	158	stimuli_target_rectangletriangles.svg	stimuli_distractor_trianglediamonds.svg	1	yes	57	0	184	0	0			0	0			1				0	
6.6.1	win	2023-06-27	00:58:20	01:12:02	819182	63e51bc04bab3dc97deba8de	3	1	main_z	11	main_z	159	stimuli_distractor_trianglediamonds.svg	stimuli_distractor_trianglediamonds.svg	34	no	0	1	2000	0	0			0	0			1				0	
6.6.1	win	2023-06-27	00:58:20	01:12:02	819182	63e51bc04bab3dc97deba8de	3	1	main_z	11	advance_on_keypress_ZEE	160	stimuli_distractor_trianglediamonds.svg	stimuli_distractor_trianglediamonds.svg	34	no	57	0	1648	0	0			0	0			1				0	
6.6.1	win	2023-06-27	00:58:20	01:12:02	819182	63e51bc04bab3dc97deba8de	3	1	headphonecheck_calibration	14	headphonecheck_calibrationIntro	1	stimuli_distractor_trianglediamonds.svg	stimuli_distractor_trianglediamonds.svg	34	no	calibrationButton	0	2376	0	0			0	0			1				0	
6.6.1	win	2023-06-27	00:58:20	01:12:02	819182	63e51bc04bab3dc97deba8de	3	1	headphonecheck_testphase	15	test_collectResponse	3	stimuli_distractor_trianglediamonds.svg	stimuli_distractor_trianglediamonds.svg	34	no	third	1	605	1	2	antiphase_hc_ios.wav	3	0	0			1				0	
6.6.1	win	2023-06-27	00:58:20	01:12:02	819182	63e51bc04bab3dc97deba8de	3	1	headphonecheck_testphase	15	test_collectResponse	6	stimuli_distractor_trianglediamonds.svg	stimuli_distractor_trianglediamonds.svg	34	no	first	1	469	2	3	antiphase_hc_soi.wav	1	0	0			1				0	
6.6.1	win	2023-06-27	00:58:20	01:12:02	819182	63e51bc04bab3dc97deba8de	3	1	headphonecheck_testphase	15	test_collectResponse	9	stimuli_distractor_trianglediamonds.svg	stimuli_distractor_trianglediamonds.svg	34	no	first	1	418	3	4	antiphase_hc_sio.wav	1	0	0			1				0	
6.6.1	win	2023-06-27	00:58:20	01:12:02	819182	63e51bc04bab3dc97deba8de	3	1	headphonecheck_testphase	15	test_collectResponse	12	stimuli_distractor_trianglediamonds.svg	stimuli_distractor_trianglediamonds.svg	34	no	second	1	1709	4	5	antiphase_hc_osi.wav	2	0	0			1				0	
6.6.1	win	2023-06-27	00:58:20	01:12:02	819182	63e51bc04bab3dc97deba8de	3	1	headphonecheck_testphase	15	test_collectResponse	15	stimuli_distractor_trianglediamonds.svg	stimuli_distractor_trianglediamonds.svg	34	no	second	1	336	5	1	antiphase_hc_iso.wav	2	0	0			1				0	
6.6.1	win	2023-06-27	00:58:20	01:12:02	819182	63e51bc04bab3dc97deba8de	3	1	headphonecheck_testphase	15	test_collectResponse	18	stimuli_distractor_trianglediamonds.svg	stimuli_distractor_trianglediamonds.svg	34	no	third	1	373	6	6	antiphase_hc_ois.wav	3	0	0			1				0	
6.6.1	win	2023-06-27	00:58:20	01:12:02	819182	63e51bc04bab3dc97deba8de	3	1	stereocheck_calibration	17	stereocheck_calibrationIntro	1	stimuli_distractor_trianglediamonds.svg	stimuli_distractor_trianglediamonds.svg	34	no	stereocheck_calibrationButton	0	6237	6	6	antiphase_hc_ois.wav	3	0	0			1				0	
6.6.1	win	2023-06-27	00:58:20	01:12:02	819182	63e51bc04bab3dc97deba8de	3	1	stereocheck_testphase	18	stereocheck_test_collectResponse	3	stimuli_distractor_trianglediamonds.svg	stimuli_distractor_trianglediamonds.svg	34	no	stereocheck_left	1	401	6	6	antiphase_hc_ois.wav	3	1	1	noise_calib_stim_LEFT.wav	1	1				0	
6.6.1	win	2023-06-27	00:58:20	01:12:02	819182	63e51bc04bab3dc97deba8de	3	1	stereocheck_testphase	18	stereocheck_test_collectResponse	6	stimuli_distractor_trianglediamonds.svg	stimuli_distractor_trianglediamonds.svg	34	no	stereocheck_left	1	240	6	6	antiphase_hc_ois.wav	3	2	2	noise_calib_stim_LEFT.wav	1	1				0	
6.6.1	win	2023-06-27	00:58:20	01:12:02	819182	63e51bc04bab3dc97deba8de	3	1	stereocheck_testphase	18	stereocheck_test_collectResponse	9	stimuli_distractor_trianglediamonds.svg	stimuli_distractor_trianglediamonds.svg	34	no	stereocheck_right	1	196	6	6	antiphase_hc_ois.wav	3	3	5	noise_calib_stim_RIGHT.wav	2	1				0	
6.6.1	win	2023-06-27	00:58:20	01:12:02	819182	63e51bc04bab3dc97deba8de	3	1	stereocheck_testphase	18	stereocheck_test_collectResponse	12	stimuli_distractor_trianglediamonds.svg	stimuli_distractor_trianglediamonds.svg	34	no	stereocheck_right	1	451	6	6	antiphase_hc_ois.wav	3	4	4	noise_calib_stim_RIGHT.wav	2	1				0	
6.6.1	win	2023-06-27	00:58:20	01:12:02	819182	63e51bc04bab3dc97deba8de	3	1	stereocheck_testphase	18	stereocheck_test_collectResponse	15	stimuli_distractor_trianglediamonds.svg	stimuli_distractor_trianglediamonds.svg	34	no	stereocheck_right	1	283	6	6	antiphase_hc_ois.wav	3	5	6	noise_calib_stim_RIGHT.wav	2	1				0	
6.6.1	win	2023-06-27	00:58:20	01:12:02	819182	63e51bc04bab3dc97deba8de	3	1	stereocheck_testphase	18	stereocheck_test_collectResponse	18	stimuli_distractor_trianglediamonds.svg	stimuli_distractor_trianglediamonds.svg	34	no	stereocheck_left	1	589	6	6	antiphase_hc_ois.wav	3	6	3	noise_calib_stim_LEFT.wav	1	1				0	
6.6.1	win	2023-06-27	00:58:20	01:12:02	819182	63e51bc04bab3dc97deba8de	3	1	DL_practice	21	DL_practice	2	stimuli_distractor_trianglediamonds.svg	stimuli_distractor_trianglediamonds.svg	34	no	ga	1	1182	6	6	antiphase_hc_ois.wav	3	6	3	noise_calib_stim_LEFT.wav	1	15	blb_dichoticlistening_ga-ga.mp3	ga	ga	0	left
6.6.1	win	2023-06-27	00:58:20	01:12:02	819182	63e51bc04bab3dc97deba8de	3	1	DL_practice	21	DL_practice	3	stimuli_distractor_trianglediamonds.svg	stimuli_distractor_trianglediamonds.svg	34	no	ba	1	4086	6	6	antiphase_hc_ois.wav	3	6	3	noise_calib_stim_LEFT.wav	1	7	blb_dichoticlistening_da-ba.mp3	da	ba	1	right
6.6.1	win	2023-06-27	00:58:20	01:12:02	819182	63e51bc04bab3dc97deba8de	3	1	DL_practice	21	DL_practice	4	stimuli_distractor_trianglediamonds.svg	stimuli_distractor_trianglediamonds.svg	34	no	pa	1	1041	6	6	antiphase_hc_ois.wav	3	6	3	noise_calib_stim_LEFT.wav	1	29	blb_dichoticlistening_pa-pa.mp3	pa	pa	0	left
6.6.1	win	2023-06-27	00:58:20	01:12:02	819182	63e51bc04bab3dc97deba8de	3	1	DL_practice	21	DL_practice	5	stimuli_distractor_trianglediamonds.svg	stimuli_distractor_trianglediamonds.svg	34	no	ka	1	767	6	6	antiphase_hc_ois.wav	3	6	3	noise_calib_stim_LEFT.wav	1	22	blb_dichoticlistening_ka-ka.mp3	ka	ka	0	left
6.6.1	win	2023-06-27	00:58:20	01:12:02	819182	63e51bc04bab3dc97deba8de	3	1	DL_practice	21	DL_practice	6	stimuli_distractor_trianglediamonds.svg	stimuli_distractor_trianglediamonds.svg	34	no	ba	1	1201	6	6	antiphase_hc_ois.wav	3	6	3	noise_calib_stim_LEFT.wav	1	1	blb_dichoticlistening_ba-ba.mp3	ba	ba	0	left
6.6.1	win	2023-06-27	00:58:20	01:12:02	819182	63e51bc04bab3dc97deba8de	3	1	DL_practice	21	DL_practice	7	stimuli_distractor_trianglediamonds.svg	stimuli_distractor_trianglediamonds.svg	34	no	da	1	643	6	6	antiphase_hc_ois.wav	3	6	3	noise_calib_stim_LEFT.wav	1	8	blb_dichoticlistening_da-da.mp3	da	da	0	left
6.6.1	win	2023-06-27	00:58:20	01:12:02	819182	63e51bc04bab3dc97deba8de	3	1	DL_practice	21	DL_practice	8	stimuli_distractor_trianglediamonds.svg	stimuli_distractor_trianglediamonds.svg	34	no	ka	0	937	6	6	antiphase_hc_ois.wav	3	6	3	noise_calib_stim_LEFT.wav	1	18	blb_dichoticlistening_ga-ta.mp3	ga	ta	1	other
6.6.1	win	2023-06-27	00:58:20	01:12:02	819182	63e51bc04bab3dc97deba8de	3	1	DL_practice	21	DL_practice	9	stimuli_distractor_trianglediamonds.svg	stimuli_distractor_trianglediamonds.svg	34	no	pa	1	1111	6	6	antiphase_hc_ois.wav	3	6	3	noise_calib_stim_LEFT.wav	1	23	blb_dichoticlistening_ka-pa.mp3	ka	pa	1	right
6.6.1	win	2023-06-27	00:58:20	01:12:02	819182	63e51bc04bab3dc97deba8de	3	1	DL_practice	21	DL_practice	10	stimuli_distractor_trianglediamonds.svg	stimuli_distractor_trianglediamonds.svg	34	no	ta	1	854	6	6	antiphase_hc_ois.wav	3	6	3	noise_calib_stim_LEFT.wav	1	36	blb_dichoticlistening_ta-ta.mp3	ta	ta	0	left
6.6.1	win	2023-06-27	00:58:20	01:12:02	819182	63e51bc04bab3dc97deba8de	3	1	DL_test	23	DL_test	1	stimuli_distractor_trianglediamonds.svg	stimuli_distractor_trianglediamonds.svg	34	no	pa	0	1130	6	6	antiphase_hc_ois.wav	3	6	3	noise_calib_stim_LEFT.wav	1	1	blb_dichoticlistening_ba-ba.mp3	ba	ba	0	other
6.6.1	win	2023-06-27	00:58:20	01:12:02	819182	63e51bc04bab3dc97deba8de	3	1	DL_test	23	DL_test	2	stimuli_distractor_trianglediamonds.svg	stimuli_distractor_trianglediamonds.svg	34	no	pa	1	856	6	6	antiphase_hc_ois.wav	3	6	3	noise_calib_stim_LEFT.wav	1	5	blb_dichoticlistening_ba-pa.mp3	ba	pa	1	right
6.6.1	win	2023-06-27	00:58:20	01:12:02	819182	63e51bc04bab3dc97deba8de	3	1	DL_test	23	DL_test	3	stimuli_distractor_trianglediamonds.svg	stimuli_distractor_trianglediamonds.svg	34	no	ka	1	1293	6	6	antiphase_hc_ois.wav	3	6	3	noise_calib_stim_LEFT.wav	1	4	blb_dichoticlistening_ba-ka.mp3	ba	ka	1	right
6.6.1	win	2023-06-27	00:58:20	01:12:02	819182	63e51bc04bab3dc97deba8de	3	1	DL_test	23	DL_test	4	stimuli_distractor_trianglediamonds.svg	stimuli_distractor_trianglediamonds.svg	34	no	ta	1	1726	6	6	antiphase_hc_ois.wav	3	6	3	noise_calib_stim_LEFT.wav	1	30	blb_dichoticlistening_pa-ta.mp3	pa	ta	1	right
6.6.1	win	2023-06-27	00:58:20	01:12:02	819182	63e51bc04bab3dc97deba8de	3	1	DL_test	23	DL_test	5	stimuli_distractor_trianglediamonds.svg	stimuli_distractor_trianglediamonds.svg	34	no	da	1	2644	6	6	antiphase_hc_ois.wav	3	6	3	noise_calib_stim_LEFT.wav	1	20	blb_dichoticlistening_ka-da.mp3	ka	da	1	right
6.6.1	win	2023-06-27	00:58:20	01:12:02	819182	63e51bc04bab3dc97deba8de	3	1	DL_test	23	DL_test	6	stimuli_distractor_trianglediamonds.svg	stimuli_distractor_trianglediamonds.svg	34	no	pa	1	1812	6	6	antiphase_hc_ois.wav	3	6	3	noise_calib_stim_LEFT.wav	1	23	blb_dichoticlistening_ka-pa.mp3	ka	pa	1	right
6.6.1	win	2023-06-27	00:58:20	01:12:02	819182	63e51bc04bab3dc97deba8de	3	1	DL_test	23	DL_test	7	stimuli_distractor_trianglediamonds.svg	stimuli_distractor_trianglediamonds.svg	34	no	pa	1	854	6	6	antiphase_hc_ois.wav	3	6	3	noise_calib_stim_LEFT.wav	1	17	blb_dichoticlistening_ga-pa.mp3	ga	pa	1	right
6.6.1	win	2023-06-27	00:58:20	01:12:02	819182	63e51bc04bab3dc97deba8de	3	1	DL_test	23	DL_test	8	stimuli_distractor_trianglediamonds.svg	stimuli_distractor_trianglediamonds.svg	34	no	pa	1	840	6	6	antiphase_hc_ois.wav	3	6	3	noise_calib_stim_LEFT.wav	1	35	blb_dichoticlistening_ta-pa.mp3	ta	pa	1	right
6.6.1	win	2023-06-27	00:58:20	01:12:02	819182	63e51bc04bab3dc97deba8de	3	1	DL_test	23	DL_test	9	stimuli_distractor_trianglediamonds.svg	stimuli_distractor_trianglediamonds.svg	34	no	ka	0	1457	6	6	antiphase_hc_ois.wav	3	6	3	noise_calib_stim_LEFT.wav	1	12	blb_dichoticlistening_da-ta.mp3	da	ta	1	other
6.6.1	win	2023-06-27	00:58:20	01:12:02	819182	63e51bc04bab3dc97deba8de	3	1	DL_test	23	DL_test	10	stimuli_distractor_trianglediamonds.svg	stimuli_distractor_trianglediamonds.svg	34	no	ga	1	1394	6	6	antiphase_hc_ois.wav	3	6	3	noise_calib_stim_LEFT.wav	1	21	blb_dichoticlistening_ka-ga.mp3	ka	ga	1	right
6.6.1	win	2023-06-27	00:58:20	01:12:02	819182	63e51bc04bab3dc97deba8de	3	1	DL_test	23	DL_test	11	stimuli_distractor_trianglediamonds.svg	stimuli_distractor_trianglediamonds.svg	34	no	ga	1	832	6	6	antiphase_hc_ois.wav	3	6	3	noise_calib_stim_LEFT.wav	1	9	blb_dichoticlistening_da-ga.mp3	da	ga	1	right
6.6.1	win	2023-06-27	00:58:20	01:12:02	819182	63e51bc04bab3dc97deba8de	3	1	DL_test	23	DL_test	12	stimuli_distractor_trianglediamonds.svg	stimuli_distractor_trianglediamonds.svg	34	no	ta	1	1364	6	6	antiphase_hc_ois.wav	3	6	3	noise_calib_stim_LEFT.wav	1	36	blb_dichoticlistening_ta-ta.mp3	ta	ta	0	left
6.6.1	win	2023-06-27	00:58:20	01:12:02	819182	63e51bc04bab3dc97deba8de	3	1	DL_test	23	DL_test	13	stimuli_distractor_trianglediamonds.svg	stimuli_distractor_trianglediamonds.svg	34	no	da	1	1317	6	6	antiphase_hc_ois.wav	3	6	3	noise_calib_stim_LEFT.wav	1	7	blb_dichoticlistening_da-ba.mp3	da	ba	1	left
6.6.1	win	2023-06-27	00:58:20	01:12:02	819182	63e51bc04bab3dc97deba8de	3	1	DL_test	23	DL_test	14	stimuli_distractor_trianglediamonds.svg	stimuli_distractor_trianglediamonds.svg	34	no	da	1	1116	6	6	antiphase_hc_ois.wav	3	6	3	noise_calib_stim_LEFT.wav	1	26	blb_dichoticlistening_pa-da.mp3	pa	da	1	right
6.6.1	win	2023-06-27	00:58:20	01:12:02	819182	63e51bc04bab3dc97deba8de	3	1	DL_test	23	DL_test	15	stimuli_distractor_trianglediamonds.svg	stimuli_distractor_trianglediamonds.svg	34	no	ba	1	1396	6	6	antiphase_hc_ois.wav	3	6	3	noise_calib_stim_LEFT.wav	1	13	blb_dichoticlistening_ga-ba.mp3	ga	ba	1	right
6.6.1	win	2023-06-27	00:58:20	01:12:02	819182	63e51bc04bab3dc97deba8de	3	1	DL_test	23	DL_test	16	stimuli_distractor_trianglediamonds.svg	stimuli_distractor_trianglediamonds.svg	34	no	ga	1	1236	6	6	antiphase_hc_ois.wav	3	6	3	noise_calib_stim_LEFT.wav	1	33	blb_dichoticlistening_ta-ga.mp3	ta	ga	1	right
6.6.1	win	2023-06-27	00:58:20	01:12:02	819182	63e51bc04bab3dc97deba8de	3	1	DL_test	23	DL_test	17	stimuli_distractor_trianglediamonds.svg	stimuli_distractor_trianglediamonds.svg	34	no	ka	1	2297	6	6	antiphase_hc_ois.wav	3	6	3	noise_calib_stim_LEFT.wav	1	22	blb_dichoticlistening_ka-ka.mp3	ka	ka	0	left
6.6.1	win	2023-06-27	00:58:20	01:12:02	819182	63e51bc04bab3dc97deba8de	3	1	DL_test	23	DL_test	18	stimuli_distractor_trianglediamonds.svg	stimuli_distractor_trianglediamonds.svg	34	no	ga	1	1230	6	6	antiphase_hc_ois.wav	3	6	3	noise_calib_stim_LEFT.wav	1	14	blb_dichoticlistening_ga-da.mp3	ga	da	1	left
6.6.1	win	2023-06-27	00:58:20	01:12:02	819182	63e51bc04bab3dc97deba8de	3	1	DL_test	23	DL_test	19	stimuli_distractor_trianglediamonds.svg	stimuli_distractor_trianglediamonds.svg	34	no	ka	1	1013	6	6	antiphase_hc_ois.wav	3	6	3	noise_calib_stim_LEFT.wav	1	34	blb_dichoticlistening_ta-ka.mp3	ta	ka	1	right
6.6.1	win	2023-06-27	00:58:20	01:12:02	819182	63e51bc04bab3dc97deba8de	3	1	DL_test	23	DL_test	20	stimuli_distractor_trianglediamonds.svg	stimuli_distractor_trianglediamonds.svg	34	no	pa	0	1766	6	6	antiphase_hc_ois.wav	3	6	3	noise_calib_stim_LEFT.wav	1	31	blb_dichoticlistening_ta-ba.mp3	ta	ba	1	other
6.6.1	win	2023-06-27	00:58:20	01:12:02	819182	63e51bc04bab3dc97deba8de	3	1	DL_test	23	DL_test	21	stimuli_distractor_trianglediamonds.svg	stimuli_distractor_trianglediamonds.svg	34	no	ka	1	2091	6	6	antiphase_hc_ois.wav	3	6	3	noise_calib_stim_LEFT.wav	1	19	blb_dichoticlistening_ka-ba.mp3	ka	ba	1	left
6.6.1	win	2023-06-27	00:58:20	01:12:02	819182	63e51bc04bab3dc97deba8de	3	1	DL_test	23	DL_test	22	stimuli_distractor_trianglediamonds.svg	stimuli_distractor_trianglediamonds.svg	34	no	pa	0	1334	6	6	antiphase_hc_ois.wav	3	6	3	noise_calib_stim_LEFT.wav	1	10	blb_dichoticlistening_da-ka.mp3	da	ka	1	other
6.6.1	win	2023-06-27	00:58:20	01:12:02	819182	63e51bc04bab3dc97deba8de	3	1	DL_test	23	DL_test	23	stimuli_distractor_trianglediamonds.svg	stimuli_distractor_trianglediamonds.svg	34	no	ka	0	866	6	6	antiphase_hc_ois.wav	3	6	3	noise_calib_stim_LEFT.wav	1	6	blb_dichoticlistening_ba-ta.mp3	ba	ta	1	other
6.6.1	win	2023-06-27	00:58:20	01:12:02	819182	63e51bc04bab3dc97deba8de	3	1	DL_test	23	DL_test	24	stimuli_distractor_trianglediamonds.svg	stimuli_distractor_trianglediamonds.svg	34	no	pa	1	1460	6	6	antiphase_hc_ois.wav	3	6	3	noise_calib_stim_LEFT.wav	1	11	blb_dichoticlistening_da-pa.mp3	da	pa	1	right
6.6.1	win	2023-06-27	00:58:20	01:12:02	819182	63e51bc04bab3dc97deba8de	3	1	DL_test	23	DL_test	25	stimuli_distractor_trianglediamonds.svg	stimuli_distractor_trianglediamonds.svg	34	no	ka	0	813	6	6	antiphase_hc_ois.wav	3	6	3	noise_calib_stim_LEFT.wav	1	18	blb_dichoticlistening_ga-ta.mp3	ga	ta	1	other
