build	computer.platform	date	time	timestamp	time_elapsed_ms	subject	group	session	blockcode	blocknum	trialcode	trialnum	stimulus_left	stimulus_right	stim_index	target_present	response	correct	latency	headphonecheck_countTestTrials	headphonecheck_index	headphonecheck_testSound	headphonecheck_correctResponse	stereocheck_countTestTrials	stereocheck_index	stereocheck_testSound	stereocheck_correctResponse	DL_index	DL_soundfile	DL_leftSound	DL_rightSound	DL_dualSound	DL_choice
6.6.1	win	2023-06-02	02:36:23	0	0	59dc458f77860e000151240e	1	1	headphonecheck_calibration	4	headphonecheck_calibrationIntro	1			0		calibrationButton	0	2236	0	0			0	0			1				0	
6.6.1	win	2023-06-02	02:36:23	0	0	59dc458f77860e000151240e	1	1	headphonecheck_testphase	5	test_collectResponse	3			0		third	1	703	1	2	antiphase_hc_ios.wav	3	0	0			1				0	
6.6.1	win	2023-06-02	02:36:23	0	0	59dc458f77860e000151240e	1	1	headphonecheck_testphase	5	test_collectResponse	6			0		second	1	253	2	1	antiphase_hc_iso.wav	2	0	0			1				0	
6.6.1	win	2023-06-02	02:36:23	0	0	59dc458f77860e000151240e	1	1	headphonecheck_testphase	5	test_collectResponse	9			0		first	1	262	3	3	antiphase_hc_soi.wav	1	0	0			1				0	
6.6.1	win	2023-06-02	02:36:23	0	0	59dc458f77860e000151240e	1	1	headphonecheck_testphase	5	test_collectResponse	12			0		second	1	281	4	5	antiphase_hc_osi.wav	2	0	0			1				0	
6.6.1	win	2023-06-02	02:36:23	0	0	59dc458f77860e000151240e	1	1	headphonecheck_testphase	5	test_collectResponse	15			0		first	1	402	5	4	antiphase_hc_sio.wav	1	0	0			1				0	
6.6.1	win	2023-06-02	02:36:23	0	0	59dc458f77860e000151240e	1	1	headphonecheck_testphase	5	test_collectResponse	18			0		third	1	196	6	6	antiphase_hc_ois.wav	3	0	0			1				0	
6.6.1	win	2023-06-02	02:36:23	0	0	59dc458f77860e000151240e	1	1	stereocheck_calibration	7	stereocheck_calibrationIntro	1			0		stereocheck_calibrationButton	0	5715	6	6	antiphase_hc_ois.wav	3	0	0			1				0	
6.6.1	win	2023-06-02	02:36:23	0	0	59dc458f77860e000151240e	1	1	stereocheck_testphase	8	stereocheck_test_collectResponse	3			0		stereocheck_right	1	2818	6	6	antiphase_hc_ois.wav	3	1	6	noise_calib_stim_RIGHT.wav	2	1				0	
6.6.1	win	2023-06-02	02:36:23	0	0	59dc458f77860e000151240e	1	1	stereocheck_testphase	8	stereocheck_test_collectResponse	6			0		stereocheck_left	1	485	6	6	antiphase_hc_ois.wav	3	2	1	noise_calib_stim_LEFT.wav	1	1				0	
6.6.1	win	2023-06-02	02:36:23	0	0	59dc458f77860e000151240e	1	1	stereocheck_testphase	8	stereocheck_test_collectResponse	9			0		stereocheck_left	1	263	6	6	antiphase_hc_ois.wav	3	3	3	noise_calib_stim_LEFT.wav	1	1				0	
6.6.1	win	2023-06-02	02:36:23	0	0	59dc458f77860e000151240e	1	1	stereocheck_testphase	8	stereocheck_test_collectResponse	12			0		stereocheck_left	1	292	6	6	antiphase_hc_ois.wav	3	4	2	noise_calib_stim_LEFT.wav	1	1				0	
6.6.1	win	2023-06-02	02:36:23	0	0	59dc458f77860e000151240e	1	1	stereocheck_testphase	8	stereocheck_test_collectResponse	15			0		stereocheck_right	1	276	6	6	antiphase_hc_ois.wav	3	5	4	noise_calib_stim_RIGHT.wav	2	1				0	
6.6.1	win	2023-06-02	02:36:23	0	0	59dc458f77860e000151240e	1	1	stereocheck_testphase	8	stereocheck_test_collectResponse	18			0		stereocheck_right	1	502	6	6	antiphase_hc_ois.wav	3	6	5	noise_calib_stim_RIGHT.wav	2	1				0	
6.6.1	win	2023-06-02	02:36:23	0	0	59dc458f77860e000151240e	1	1	DL_practice	11	DL_practice	2			0		ka	0	2129	6	6	antiphase_hc_ois.wav	3	6	5	noise_calib_stim_RIGHT.wav	2	18	blb_dichoticlistening_ga-ta.mp3	ga	ta	1	other
6.6.1	win	2023-06-02	02:36:23	0	0	59dc458f77860e000151240e	1	1	DL_practice	11	DL_practice	3			0		ga	1	1180	6	6	antiphase_hc_ois.wav	3	6	5	noise_calib_stim_RIGHT.wav	2	15	blb_dichoticlistening_ga-ga.mp3	ga	ga	0	left
6.6.1	win	2023-06-02	02:36:23	0	0	59dc458f77860e000151240e	1	1	DL_practice	11	DL_practice	4			0		da	1	1276	6	6	antiphase_hc_ois.wav	3	6	5	noise_calib_stim_RIGHT.wav	2	8	blb_dichoticlistening_da-da.mp3	da	da	0	left
6.6.1	win	2023-06-02	02:36:23	0	0	59dc458f77860e000151240e	1	1	DL_practice	11	DL_practice	5			0		ka	1	1036	6	6	antiphase_hc_ois.wav	3	6	5	noise_calib_stim_RIGHT.wav	2	22	blb_dichoticlistening_ka-ka.mp3	ka	ka	0	left
6.6.1	win	2023-06-02	02:36:23	0	0	59dc458f77860e000151240e	1	1	DL_practice	11	DL_practice	6			0		pa	1	1538	6	6	antiphase_hc_ois.wav	3	6	5	noise_calib_stim_RIGHT.wav	2	23	blb_dichoticlistening_ka-pa.mp3	ka	pa	1	right
6.6.1	win	2023-06-02	02:36:23	0	0	59dc458f77860e000151240e	1	1	DL_practice	11	DL_practice	7			0		ba	1	1691	6	6	antiphase_hc_ois.wav	3	6	5	noise_calib_stim_RIGHT.wav	2	1	blb_dichoticlistening_ba-ba.mp3	ba	ba	0	left
6.6.1	win	2023-06-02	02:36:23	0	0	59dc458f77860e000151240e	1	1	DL_practice	11	DL_practice	8			0		da	1	1554	6	6	antiphase_hc_ois.wav	3	6	5	noise_calib_stim_RIGHT.wav	2	7	blb_dichoticlistening_da-ba.mp3	da	ba	1	left
6.6.1	win	2023-06-02	02:36:23	0	0	59dc458f77860e000151240e	1	1	DL_practice	11	DL_practice	9			0		pa	1	1276	6	6	antiphase_hc_ois.wav	3	6	5	noise_calib_stim_RIGHT.wav	2	29	blb_dichoticlistening_pa-pa.mp3	pa	pa	0	left
6.6.1	win	2023-06-02	02:36:23	0	0	59dc458f77860e000151240e	1	1	DL_practice	11	DL_practice	10			0		ta	1	1296	6	6	antiphase_hc_ois.wav	3	6	5	noise_calib_stim_RIGHT.wav	2	36	blb_dichoticlistening_ta-ta.mp3	ta	ta	0	left
6.6.1	win	2023-06-02	02:36:23	0	0	59dc458f77860e000151240e	1	1	DL_test	13	DL_test	1			0		ta	1	1487	6	6	antiphase_hc_ois.wav	3	6	5	noise_calib_stim_RIGHT.wav	2	12	blb_dichoticlistening_da-ta.mp3	da	ta	1	right
6.6.1	win	2023-06-02	02:36:23	0	0	59dc458f77860e000151240e	1	1	DL_test	13	DL_test	2			0		pa	1	2169	6	6	antiphase_hc_ois.wav	3	6	5	noise_calib_stim_RIGHT.wav	2	28	blb_dichoticlistening_pa-ka.mp3	pa	ka	1	left
6.6.1	win	2023-06-02	02:36:23	0	0	59dc458f77860e000151240e	1	1	DL_test	13	DL_test	3			0		ga	1	1314	6	6	antiphase_hc_ois.wav	3	6	5	noise_calib_stim_RIGHT.wav	2	9	blb_dichoticlistening_da-ga.mp3	da	ga	1	right
6.6.1	win	2023-06-02	02:36:23	0	0	59dc458f77860e000151240e	1	1	DL_test	13	DL_test	4			0		da	1	1500	6	6	antiphase_hc_ois.wav	3	6	5	noise_calib_stim_RIGHT.wav	2	26	blb_dichoticlistening_pa-da.mp3	pa	da	1	right
6.6.1	win	2023-06-02	02:36:23	0	0	59dc458f77860e000151240e	1	1	DL_test	13	DL_test	5			0		ga	1	1502	6	6	antiphase_hc_ois.wav	3	6	5	noise_calib_stim_RIGHT.wav	2	14	blb_dichoticlistening_ga-da.mp3	ga	da	1	left
6.6.1	win	2023-06-02	02:36:23	0	0	59dc458f77860e000151240e	1	1	DL_test	13	DL_test	6			0		ka	0	1122	6	6	antiphase_hc_ois.wav	3	6	5	noise_calib_stim_RIGHT.wav	2	33	blb_dichoticlistening_ta-ga.mp3	ta	ga	1	other
6.6.1	win	2023-06-02	02:36:23	0	0	59dc458f77860e000151240e	1	1	DL_test	13	DL_test	7			0		ka	1	1069	6	6	antiphase_hc_ois.wav	3	6	5	noise_calib_stim_RIGHT.wav	2	23	blb_dichoticlistening_ka-pa.mp3	ka	pa	1	left
6.6.1	win	2023-06-02	02:36:23	0	0	59dc458f77860e000151240e	1	1	DL_test	13	DL_test	8			0		da	1	1657	6	6	antiphase_hc_ois.wav	3	6	5	noise_calib_stim_RIGHT.wav	2	32	blb_dichoticlistening_ta-da.mp3	ta	da	1	right
6.6.1	win	2023-06-02	02:36:23	0	0	59dc458f77860e000151240e	1	1	DL_test	13	DL_test	9			0		ba	1	2321	6	6	antiphase_hc_ois.wav	3	6	5	noise_calib_stim_RIGHT.wav	2	3	blb_dichoticlistening_ba-ga.mp3	ba	ga	1	left
6.6.1	win	2023-06-02	02:36:23	0	0	59dc458f77860e000151240e	1	1	DL_test	13	DL_test	10			0		ka	1	1483	6	6	antiphase_hc_ois.wav	3	6	5	noise_calib_stim_RIGHT.wav	2	20	blb_dichoticlistening_ka-da.mp3	ka	da	1	left
6.6.1	win	2023-06-02	02:36:23	0	0	59dc458f77860e000151240e	1	1	DL_test	13	DL_test	11			0		ga	1	1318	6	6	antiphase_hc_ois.wav	3	6	5	noise_calib_stim_RIGHT.wav	2	15	blb_dichoticlistening_ga-ga.mp3	ga	ga	0	left
6.6.1	win	2023-06-02	02:36:23	0	0	59dc458f77860e000151240e	1	1	DL_test	13	DL_test	12			0		pa	1	1295	6	6	antiphase_hc_ois.wav	3	6	5	noise_calib_stim_RIGHT.wav	2	35	blb_dichoticlistening_ta-pa.mp3	ta	pa	1	right
6.6.1	win	2023-06-02	02:36:23	0	0	59dc458f77860e000151240e	1	1	DL_test	13	DL_test	13			0		pa	1	1164	6	6	antiphase_hc_ois.wav	3	6	5	noise_calib_stim_RIGHT.wav	2	17	blb_dichoticlistening_ga-pa.mp3	ga	pa	1	right
6.6.1	win	2023-06-02	02:36:23	0	0	59dc458f77860e000151240e	1	1	DL_test	13	DL_test	14			0		ka	1	1392	6	6	antiphase_hc_ois.wav	3	6	5	noise_calib_stim_RIGHT.wav	2	24	blb_dichoticlistening_ka-ta.mp3	ka	ta	1	left
6.6.1	win	2023-06-02	02:36:23	0	0	59dc458f77860e000151240e	1	1	DL_test	13	DL_test	15			0		ka	1	1389	6	6	antiphase_hc_ois.wav	3	6	5	noise_calib_stim_RIGHT.wav	2	21	blb_dichoticlistening_ka-ga.mp3	ka	ga	1	left
6.6.1	win	2023-06-02	02:36:23	0	0	59dc458f77860e000151240e	1	1	DL_test	13	DL_test	16			0		ba	1	1300	6	6	antiphase_hc_ois.wav	3	6	5	noise_calib_stim_RIGHT.wav	2	7	blb_dichoticlistening_da-ba.mp3	da	ba	1	right
6.6.1	win	2023-06-02	02:36:23	0	0	59dc458f77860e000151240e	1	1	DL_test	13	DL_test	17			0		da	1	978	6	6	antiphase_hc_ois.wav	3	6	5	noise_calib_stim_RIGHT.wav	2	8	blb_dichoticlistening_da-da.mp3	da	da	0	left
6.6.1	win	2023-06-02	02:36:23	0	0	59dc458f77860e000151240e	1	1	DL_test	13	DL_test	18			0		pa	1	1551	6	6	antiphase_hc_ois.wav	3	6	5	noise_calib_stim_RIGHT.wav	2	27	blb_dichoticlistening_pa-ga.mp3	pa	ga	1	left
6.6.1	win	2023-06-02	02:36:23	0	0	59dc458f77860e000151240e	1	1	DL_test	13	DL_test	19			0		ka	1	1632	6	6	antiphase_hc_ois.wav	3	6	5	noise_calib_stim_RIGHT.wav	2	22	blb_dichoticlistening_ka-ka.mp3	ka	ka	0	left
6.6.1	win	2023-06-02	02:36:23	0	0	59dc458f77860e000151240e	1	1	DL_test	13	DL_test	20			0		ba	1	1195	6	6	antiphase_hc_ois.wav	3	6	5	noise_calib_stim_RIGHT.wav	2	1	blb_dichoticlistening_ba-ba.mp3	ba	ba	0	left
6.6.1	win	2023-06-02	02:36:23	0	0	59dc458f77860e000151240e	1	1	DL_test	13	DL_test	21			0		ta	1	1171	6	6	antiphase_hc_ois.wav	3	6	5	noise_calib_stim_RIGHT.wav	2	30	blb_dichoticlistening_pa-ta.mp3	pa	ta	1	right
6.6.1	win	2023-06-02	02:36:23	0	0	59dc458f77860e000151240e	1	1	DL_test	13	DL_test	22			0		ka	1	1379	6	6	antiphase_hc_ois.wav	3	6	5	noise_calib_stim_RIGHT.wav	2	16	blb_dichoticlistening_ga-ka.mp3	ga	ka	1	right
6.6.1	win	2023-06-02	02:36:23	0	0	59dc458f77860e000151240e	1	1	DL_test	13	DL_test	23			0		pa	1	1077	6	6	antiphase_hc_ois.wav	3	6	5	noise_calib_stim_RIGHT.wav	2	5	blb_dichoticlistening_ba-pa.mp3	ba	pa	1	right
6.6.1	win	2023-06-02	02:36:23	0	0	59dc458f77860e000151240e	1	1	DL_test	13	DL_test	24			0		ba	1	1719	6	6	antiphase_hc_ois.wav	3	6	5	noise_calib_stim_RIGHT.wav	2	19	blb_dichoticlistening_ka-ba.mp3	ka	ba	1	right
6.6.1	win	2023-06-02	02:36:23	0	0	59dc458f77860e000151240e	1	1	DL_test	13	DL_test	25			0		ka	1	1040	6	6	antiphase_hc_ois.wav	3	6	5	noise_calib_stim_RIGHT.wav	2	34	blb_dichoticlistening_ta-ka.mp3	ta	ka	1	right
6.6.1	win	2023-06-02	02:36:23	0	0	59dc458f77860e000151240e	1	1	DL_test	13	DL_test	26			0		da	1	1189	6	6	antiphase_hc_ois.wav	3	6	5	noise_calib_stim_RIGHT.wav	2	2	blb_dichoticlistening_ba-da.mp3	ba	da	1	right
6.6.1	win	2023-06-02	02:36:23	0	0	59dc458f77860e000151240e	1	1	DL_test	13	DL_test	27			0		ka	0	885	6	6	antiphase_hc_ois.wav	3	6	5	noise_calib_stim_RIGHT.wav	2	6	blb_dichoticlistening_ba-ta.mp3	ba	ta	1	other
6.6.1	win	2023-06-02	02:36:23	0	0	59dc458f77860e000151240e	1	1	DL_test	13	DL_test	28			0		pa	0	1325	6	6	antiphase_hc_ois.wav	3	6	5	noise_calib_stim_RIGHT.wav	2	31	blb_dichoticlistening_ta-ba.mp3	ta	ba	1	other
6.6.1	win	2023-06-02	02:36:23	0	0	59dc458f77860e000151240e	1	1	DL_test	13	DL_test	29			0		pa	1	968	6	6	antiphase_hc_ois.wav	3	6	5	noise_calib_stim_RIGHT.wav	2	29	blb_dichoticlistening_pa-pa.mp3	pa	pa	0	left
6.6.1	win	2023-06-02	02:36:23	0	0	59dc458f77860e000151240e	1	1	DL_test	13	DL_test	30			0		ka	1	1012	6	6	antiphase_hc_ois.wav	3	6	5	noise_calib_stim_RIGHT.wav	2	4	blb_dichoticlistening_ba-ka.mp3	ba	ka	1	right
6.6.1	win	2023-06-02	02:36:23	0	0	59dc458f77860e000151240e	1	1	DL_test	13	DL_test	31			0		ka	0	1130	6	6	antiphase_hc_ois.wav	3	6	5	noise_calib_stim_RIGHT.wav	2	18	blb_dichoticlistening_ga-ta.mp3	ga	ta	1	other
6.6.1	win	2023-06-02	02:36:23	0	0	59dc458f77860e000151240e	1	1	DL_test	13	DL_test	32			0		ba	1	1913	6	6	antiphase_hc_ois.wav	3	6	5	noise_calib_stim_RIGHT.wav	2	25	blb_dichoticlistening_pa-ba.mp3	pa	ba	1	right
6.6.1	win	2023-06-02	02:36:23	0	0	59dc458f77860e000151240e	1	1	DL_test	13	DL_test	33			0		pa	0	1129	6	6	antiphase_hc_ois.wav	3	6	5	noise_calib_stim_RIGHT.wav	2	10	blb_dichoticlistening_da-ka.mp3	da	ka	1	other
6.6.1	win	2023-06-02	02:36:23	0	0	59dc458f77860e000151240e	1	1	DL_test	13	DL_test	34			0		ka	0	1110	6	6	antiphase_hc_ois.wav	3	6	5	noise_calib_stim_RIGHT.wav	2	36	blb_dichoticlistening_ta-ta.mp3	ta	ta	0	other
6.6.1	win	2023-06-02	02:36:23	0	0	59dc458f77860e000151240e	1	1	DL_test	13	DL_test	35			0		pa	1	1101	6	6	antiphase_hc_ois.wav	3	6	5	noise_calib_stim_RIGHT.wav	2	11	blb_dichoticlistening_da-pa.mp3	da	pa	1	right
6.6.1	win	2023-06-02	02:36:23	0	0	59dc458f77860e000151240e	1	1	DL_test	13	DL_test	36			0		ba	1	1062	6	6	antiphase_hc_ois.wav	3	6	5	noise_calib_stim_RIGHT.wav	2	13	blb_dichoticlistening_ga-ba.mp3	ga	ba	1	right
6.6.1	win	2023-06-02	02:36:23	0	0	59dc458f77860e000151240e	1	1	DL_test	14	DL_test	1			0		ga	1	1036	6	6	antiphase_hc_ois.wav	3	6	5	noise_calib_stim_RIGHT.wav	2	9	blb_dichoticlistening_da-ga.mp3	da	ga	1	right
6.6.1	win	2023-06-02	02:36:23	0	0	59dc458f77860e000151240e	1	1	DL_test	14	DL_test	2			0		pa	1	1137	6	6	antiphase_hc_ois.wav	3	6	5	noise_calib_stim_RIGHT.wav	2	23	blb_dichoticlistening_ka-pa.mp3	ka	pa	1	right
6.6.1	win	2023-06-02	02:36:23	0	0	59dc458f77860e000151240e	1	1	DL_test	14	DL_test	3			0		ka	0	1260	6	6	antiphase_hc_ois.wav	3	6	5	noise_calib_stim_RIGHT.wav	2	36	blb_dichoticlistening_ta-ta.mp3	ta	ta	0	other
6.6.1	win	2023-06-02	02:36:23	0	0	59dc458f77860e000151240e	1	1	DL_test	14	DL_test	4			0		ga	1	965	6	6	antiphase_hc_ois.wav	3	6	5	noise_calib_stim_RIGHT.wav	2	14	blb_dichoticlistening_ga-da.mp3	ga	da	1	left
6.6.1	win	2023-06-02	02:36:23	0	0	59dc458f77860e000151240e	1	1	DL_test	14	DL_test	5			0		pa	1	898	6	6	antiphase_hc_ois.wav	3	6	5	noise_calib_stim_RIGHT.wav	2	29	blb_dichoticlistening_pa-pa.mp3	pa	pa	0	left
6.6.1	win	2023-06-02	02:36:23	0	0	59dc458f77860e000151240e	1	1	DL_test	14	DL_test	6			0		pa	1	1098	6	6	antiphase_hc_ois.wav	3	6	5	noise_calib_stim_RIGHT.wav	2	17	blb_dichoticlistening_ga-pa.mp3	ga	pa	1	right
6.6.1	win	2023-06-02	02:36:23	0	0	59dc458f77860e000151240e	1	1	DL_test	14	DL_test	7			0		da	1	1312	6	6	antiphase_hc_ois.wav	3	6	5	noise_calib_stim_RIGHT.wav	2	2	blb_dichoticlistening_ba-da.mp3	ba	da	1	right
6.6.1	win	2023-06-02	02:36:23	0	0	59dc458f77860e000151240e	1	1	DL_test	14	DL_test	8			0		ka	1	965	6	6	antiphase_hc_ois.wav	3	6	5	noise_calib_stim_RIGHT.wav	2	24	blb_dichoticlistening_ka-ta.mp3	ka	ta	1	left
6.6.1	win	2023-06-02	02:36:23	0	0	59dc458f77860e000151240e	1	1	DL_test	14	DL_test	9			0		ga	0	2216	6	6	antiphase_hc_ois.wav	3	6	5	noise_calib_stim_RIGHT.wav	2	26	blb_dichoticlistening_pa-da.mp3	pa	da	1	other
6.6.1	win	2023-06-02	02:36:23	0	0	59dc458f77860e000151240e	1	1	DL_test	14	DL_test	10			0		ka	1	1098	6	6	antiphase_hc_ois.wav	3	6	5	noise_calib_stim_RIGHT.wav	2	4	blb_dichoticlistening_ba-ka.mp3	ba	ka	1	right
6.6.1	win	2023-06-02	02:36:23	0	0	59dc458f77860e000151240e	1	1	DL_test	14	DL_test	11			0		pa	1	2720	6	6	antiphase_hc_ois.wav	3	6	5	noise_calib_stim_RIGHT.wav	2	27	blb_dichoticlistening_pa-ga.mp3	pa	ga	1	left
6.6.1	win	2023-06-02	02:36:23	0	0	59dc458f77860e000151240e	1	1	DL_test	14	DL_test	12			0		pa	0	1203	6	6	antiphase_hc_ois.wav	3	6	5	noise_calib_stim_RIGHT.wav	2	10	blb_dichoticlistening_da-ka.mp3	da	ka	1	other
6.6.1	win	2023-06-02	02:36:23	0	0	59dc458f77860e000151240e	1	1	DL_test	14	DL_test	13			0		ta	1	1725	6	6	antiphase_hc_ois.wav	3	6	5	noise_calib_stim_RIGHT.wav	2	31	blb_dichoticlistening_ta-ba.mp3	ta	ba	1	left
6.6.1	win	2023-06-02	02:36:23	0	0	59dc458f77860e000151240e	1	1	DL_test	14	DL_test	14			0		ka	1	992	6	6	antiphase_hc_ois.wav	3	6	5	noise_calib_stim_RIGHT.wav	2	22	blb_dichoticlistening_ka-ka.mp3	ka	ka	0	left
6.6.1	win	2023-06-02	02:36:23	0	0	59dc458f77860e000151240e	1	1	DL_test	14	DL_test	15			0		ba	1	1188	6	6	antiphase_hc_ois.wav	3	6	5	noise_calib_stim_RIGHT.wav	2	1	blb_dichoticlistening_ba-ba.mp3	ba	ba	0	left
6.6.1	win	2023-06-02	02:36:23	0	0	59dc458f77860e000151240e	1	1	DL_test	14	DL_test	16			0		ka	0	1285	6	6	antiphase_hc_ois.wav	3	6	5	noise_calib_stim_RIGHT.wav	2	18	blb_dichoticlistening_ga-ta.mp3	ga	ta	1	other
6.6.1	win	2023-06-02	02:36:23	0	0	59dc458f77860e000151240e	1	1	DL_test	14	DL_test	17			0		ta	1	1559	6	6	antiphase_hc_ois.wav	3	6	5	noise_calib_stim_RIGHT.wav	2	30	blb_dichoticlistening_pa-ta.mp3	pa	ta	1	right
6.6.1	win	2023-06-02	02:36:23	0	0	59dc458f77860e000151240e	1	1	DL_test	14	DL_test	18			0		ga	1	1590	6	6	antiphase_hc_ois.wav	3	6	5	noise_calib_stim_RIGHT.wav	2	3	blb_dichoticlistening_ba-ga.mp3	ba	ga	1	right
6.6.1	win	2023-06-02	02:36:23	0	0	59dc458f77860e000151240e	1	1	DL_test	14	DL_test	19			0		ka	1	984	6	6	antiphase_hc_ois.wav	3	6	5	noise_calib_stim_RIGHT.wav	2	34	blb_dichoticlistening_ta-ka.mp3	ta	ka	1	right
6.6.1	win	2023-06-02	02:36:23	0	0	59dc458f77860e000151240e	1	1	DL_test	14	DL_test	20			0		pa	1	1177	6	6	antiphase_hc_ois.wav	3	6	5	noise_calib_stim_RIGHT.wav	2	11	blb_dichoticlistening_da-pa.mp3	da	pa	1	right
6.6.1	win	2023-06-02	02:36:23	0	0	59dc458f77860e000151240e	1	1	DL_test	14	DL_test	21			0		ka	1	1032	6	6	antiphase_hc_ois.wav	3	6	5	noise_calib_stim_RIGHT.wav	2	28	blb_dichoticlistening_pa-ka.mp3	pa	ka	1	right
6.6.1	win	2023-06-02	02:36:23	0	0	59dc458f77860e000151240e	1	1	DL_test	14	DL_test	22			0		ga	1	937	6	6	antiphase_hc_ois.wav	3	6	5	noise_calib_stim_RIGHT.wav	2	15	blb_dichoticlistening_ga-ga.mp3	ga	ga	0	left
6.6.1	win	2023-06-02	02:36:23	0	0	59dc458f77860e000151240e	1	1	DL_test	14	DL_test	23			0		ka	0	1081	6	6	antiphase_hc_ois.wav	3	6	5	noise_calib_stim_RIGHT.wav	2	33	blb_dichoticlistening_ta-ga.mp3	ta	ga	1	other
6.6.1	win	2023-06-02	02:36:23	0	0	59dc458f77860e000151240e	1	1	DL_test	14	DL_test	24			0		ta	1	1319	6	6	antiphase_hc_ois.wav	3	6	5	noise_calib_stim_RIGHT.wav	2	12	blb_dichoticlistening_da-ta.mp3	da	ta	1	right
6.6.1	win	2023-06-02	02:36:23	0	0	59dc458f77860e000151240e	1	1	DL_test	14	DL_test	25			0		pa	1	1103	6	6	antiphase_hc_ois.wav	3	6	5	noise_calib_stim_RIGHT.wav	2	25	blb_dichoticlistening_pa-ba.mp3	pa	ba	1	left
6.6.1	win	2023-06-02	02:36:23	0	0	59dc458f77860e000151240e	1	1	DL_test	14	DL_test	26			0		ka	1	1127	6	6	antiphase_hc_ois.wav	3	6	5	noise_calib_stim_RIGHT.wav	2	20	blb_dichoticlistening_ka-da.mp3	ka	da	1	left
6.6.1	win	2023-06-02	02:36:23	0	0	59dc458f77860e000151240e	1	1	DL_test	14	DL_test	27			0		ka	1	1134	6	6	antiphase_hc_ois.wav	3	6	5	noise_calib_stim_RIGHT.wav	2	16	blb_dichoticlistening_ga-ka.mp3	ga	ka	1	right
6.6.1	win	2023-06-02	02:36:23	0	0	59dc458f77860e000151240e	1	1	DL_test	14	DL_test	28			0		ba	1	1496	6	6	antiphase_hc_ois.wav	3	6	5	noise_calib_stim_RIGHT.wav	2	13	blb_dichoticlistening_ga-ba.mp3	ga	ba	1	right
6.6.1	win	2023-06-02	02:36:23	0	0	59dc458f77860e000151240e	1	1	DL_test	14	DL_test	29			0		ka	0	2031	6	6	antiphase_hc_ois.wav	3	6	5	noise_calib_stim_RIGHT.wav	2	32	blb_dichoticlistening_ta-da.mp3	ta	da	1	other
6.6.1	win	2023-06-02	02:36:23	0	0	59dc458f77860e000151240e	1	1	DL_test	14	DL_test	30			0		da	1	1015	6	6	antiphase_hc_ois.wav	3	6	5	noise_calib_stim_RIGHT.wav	2	8	blb_dichoticlistening_da-da.mp3	da	da	0	left
6.6.1	win	2023-06-02	02:36:23	0	0	59dc458f77860e000151240e	1	1	DL_test	14	DL_test	31			0		pa	1	1044	6	6	antiphase_hc_ois.wav	3	6	5	noise_calib_stim_RIGHT.wav	2	35	blb_dichoticlistening_ta-pa.mp3	ta	pa	1	right
6.6.1	win	2023-06-02	02:36:23	0	0	59dc458f77860e000151240e	1	1	DL_test	14	DL_test	32			0		ga	1	2103	6	6	antiphase_hc_ois.wav	3	6	5	noise_calib_stim_RIGHT.wav	2	21	blb_dichoticlistening_ka-ga.mp3	ka	ga	1	right
6.6.1	win	2023-06-02	02:36:23	0	0	59dc458f77860e000151240e	1	1	DL_test	14	DL_test	33			0		ba	1	1293	6	6	antiphase_hc_ois.wav	3	6	5	noise_calib_stim_RIGHT.wav	2	19	blb_dichoticlistening_ka-ba.mp3	ka	ba	1	right
6.6.1	win	2023-06-02	02:36:23	0	0	59dc458f77860e000151240e	1	1	DL_test	14	DL_test	34			0		da	1	1225	6	6	antiphase_hc_ois.wav	3	6	5	noise_calib_stim_RIGHT.wav	2	7	blb_dichoticlistening_da-ba.mp3	da	ba	1	left
6.6.1	win	2023-06-02	02:36:23	0	0	59dc458f77860e000151240e	1	1	DL_test	14	DL_test	35			0		ka	0	1319	6	6	antiphase_hc_ois.wav	3	6	5	noise_calib_stim_RIGHT.wav	2	6	blb_dichoticlistening_ba-ta.mp3	ba	ta	1	other
6.6.1	win	2023-06-02	02:36:23	0	0	59dc458f77860e000151240e	1	1	DL_test	14	DL_test	36			0		pa	1	1156	6	6	antiphase_hc_ois.wav	3	6	5	noise_calib_stim_RIGHT.wav	2	5	blb_dichoticlistening_ba-pa.mp3	ba	pa	1	right
6.6.1	win	2023-06-02	02:36:23	0	0	59dc458f77860e000151240e	1	1	DL_test	15	DL_test	1			0		ta	1	1324	6	6	antiphase_hc_ois.wav	3	6	5	noise_calib_stim_RIGHT.wav	2	12	blb_dichoticlistening_da-ta.mp3	da	ta	1	right
6.6.1	win	2023-06-02	02:36:23	0	0	59dc458f77860e000151240e	1	1	DL_test	15	DL_test	2			0		pa	1	1061	6	6	antiphase_hc_ois.wav	3	6	5	noise_calib_stim_RIGHT.wav	2	11	blb_dichoticlistening_da-pa.mp3	da	pa	1	right
6.6.1	win	2023-06-02	02:36:23	0	0	59dc458f77860e000151240e	1	1	DL_test	15	DL_test	3			0		ga	1	972	6	6	antiphase_hc_ois.wav	3	6	5	noise_calib_stim_RIGHT.wav	2	15	blb_dichoticlistening_ga-ga.mp3	ga	ga	0	left
6.6.1	win	2023-06-02	02:36:23	0	0	59dc458f77860e000151240e	1	1	DL_test	15	DL_test	4			0		ka	1	1399	6	6	antiphase_hc_ois.wav	3	6	5	noise_calib_stim_RIGHT.wav	2	24	blb_dichoticlistening_ka-ta.mp3	ka	ta	1	left
6.6.1	win	2023-06-02	02:36:23	0	0	59dc458f77860e000151240e	1	1	DL_test	15	DL_test	5			0		pa	0	1154	6	6	antiphase_hc_ois.wav	3	6	5	noise_calib_stim_RIGHT.wav	2	10	blb_dichoticlistening_da-ka.mp3	da	ka	1	other
6.6.1	win	2023-06-02	02:36:23	0	0	59dc458f77860e000151240e	1	1	DL_test	15	DL_test	6			0		ta	1	1113	6	6	antiphase_hc_ois.wav	3	6	5	noise_calib_stim_RIGHT.wav	2	36	blb_dichoticlistening_ta-ta.mp3	ta	ta	0	left
6.6.1	win	2023-06-02	02:36:23	0	0	59dc458f77860e000151240e	1	1	DL_test	15	DL_test	7			0		pa	1	902	6	6	antiphase_hc_ois.wav	3	6	5	noise_calib_stim_RIGHT.wav	2	29	blb_dichoticlistening_pa-pa.mp3	pa	pa	0	left
6.6.1	win	2023-06-02	02:36:23	0	0	59dc458f77860e000151240e	1	1	DL_test	15	DL_test	8			0		da	1	1276	6	6	antiphase_hc_ois.wav	3	6	5	noise_calib_stim_RIGHT.wav	2	2	blb_dichoticlistening_ba-da.mp3	ba	da	1	right
6.6.1	win	2023-06-02	02:36:23	0	0	59dc458f77860e000151240e	1	1	DL_test	15	DL_test	9			0		ka	1	1385	6	6	antiphase_hc_ois.wav	3	6	5	noise_calib_stim_RIGHT.wav	2	20	blb_dichoticlistening_ka-da.mp3	ka	da	1	left
6.6.1	win	2023-06-02	02:36:23	0	0	59dc458f77860e000151240e	1	1	DL_test	15	DL_test	10			0		pa	1	1082	6	6	antiphase_hc_ois.wav	3	6	5	noise_calib_stim_RIGHT.wav	2	5	blb_dichoticlistening_ba-pa.mp3	ba	pa	1	right
6.6.1	win	2023-06-02	02:36:23	0	0	59dc458f77860e000151240e	1	1	DL_test	15	DL_test	11			0		ba	1	2063	6	6	antiphase_hc_ois.wav	3	6	5	noise_calib_stim_RIGHT.wav	2	31	blb_dichoticlistening_ta-ba.mp3	ta	ba	1	right
6.6.1	win	2023-06-02	02:36:23	0	0	59dc458f77860e000151240e	1	1	DL_test	15	DL_test	12			0		ka	1	941	6	6	antiphase_hc_ois.wav	3	6	5	noise_calib_stim_RIGHT.wav	2	16	blb_dichoticlistening_ga-ka.mp3	ga	ka	1	right
6.6.1	win	2023-06-02	02:36:23	0	0	59dc458f77860e000151240e	1	1	DL_test	15	DL_test	13			0		ka	0	1852	6	6	antiphase_hc_ois.wav	3	6	5	noise_calib_stim_RIGHT.wav	2	18	blb_dichoticlistening_ga-ta.mp3	ga	ta	1	other
6.6.1	win	2023-06-02	02:36:23	0	0	59dc458f77860e000151240e	1	1	DL_test	15	DL_test	14			0		pa	1	1079	6	6	antiphase_hc_ois.wav	3	6	5	noise_calib_stim_RIGHT.wav	2	35	blb_dichoticlistening_ta-pa.mp3	ta	pa	1	right
6.6.1	win	2023-06-02	02:36:23	0	0	59dc458f77860e000151240e	1	1	DL_test	15	DL_test	15			0		ba	1	1027	6	6	antiphase_hc_ois.wav	3	6	5	noise_calib_stim_RIGHT.wav	2	1	blb_dichoticlistening_ba-ba.mp3	ba	ba	0	left
6.6.1	win	2023-06-02	02:36:23	0	0	59dc458f77860e000151240e	1	1	DL_test	15	DL_test	16			0		ga	1	1064	6	6	antiphase_hc_ois.wav	3	6	5	noise_calib_stim_RIGHT.wav	2	9	blb_dichoticlistening_da-ga.mp3	da	ga	1	right
6.6.1	win	2023-06-02	02:36:23	0	0	59dc458f77860e000151240e	1	1	DL_test	15	DL_test	17			0		ka	0	1143	6	6	antiphase_hc_ois.wav	3	6	5	noise_calib_stim_RIGHT.wav	2	33	blb_dichoticlistening_ta-ga.mp3	ta	ga	1	other
6.6.1	win	2023-06-02	02:36:23	0	0	59dc458f77860e000151240e	1	1	DL_test	15	DL_test	18			0		da	1	939	6	6	antiphase_hc_ois.wav	3	6	5	noise_calib_stim_RIGHT.wav	2	8	blb_dichoticlistening_da-da.mp3	da	da	0	left
6.6.1	win	2023-06-02	02:36:23	0	0	59dc458f77860e000151240e	1	1	DL_test	15	DL_test	19			0		ka	1	896	6	6	antiphase_hc_ois.wav	3	6	5	noise_calib_stim_RIGHT.wav	2	34	blb_dichoticlistening_ta-ka.mp3	ta	ka	1	right
6.6.1	win	2023-06-02	02:36:23	0	0	59dc458f77860e000151240e	1	1	DL_test	15	DL_test	20			0		da	1	1455	6	6	antiphase_hc_ois.wav	3	6	5	noise_calib_stim_RIGHT.wav	2	7	blb_dichoticlistening_da-ba.mp3	da	ba	1	left
6.6.1	win	2023-06-02	02:36:23	0	0	59dc458f77860e000151240e	1	1	DL_test	15	DL_test	21			0		ba	1	1058	6	6	antiphase_hc_ois.wav	3	6	5	noise_calib_stim_RIGHT.wav	2	13	blb_dichoticlistening_ga-ba.mp3	ga	ba	1	right
6.6.1	win	2023-06-02	02:36:23	0	0	59dc458f77860e000151240e	1	1	DL_test	15	DL_test	22			0		pa	1	1619	6	6	antiphase_hc_ois.wav	3	6	5	noise_calib_stim_RIGHT.wav	2	27	blb_dichoticlistening_pa-ga.mp3	pa	ga	1	left
6.6.1	win	2023-06-02	02:36:23	0	0	59dc458f77860e000151240e	1	1	DL_test	15	DL_test	23			0		pa	1	1631	6	6	antiphase_hc_ois.wav	3	6	5	noise_calib_stim_RIGHT.wav	2	17	blb_dichoticlistening_ga-pa.mp3	ga	pa	1	right
6.6.1	win	2023-06-02	02:36:23	0	0	59dc458f77860e000151240e	1	1	DL_test	15	DL_test	24			0		ba	1	2084	6	6	antiphase_hc_ois.wav	3	6	5	noise_calib_stim_RIGHT.wav	2	25	blb_dichoticlistening_pa-ba.mp3	pa	ba	1	right
6.6.1	win	2023-06-02	02:36:23	0	0	59dc458f77860e000151240e	1	1	DL_test	15	DL_test	25			0		ka	1	1045	6	6	antiphase_hc_ois.wav	3	6	5	noise_calib_stim_RIGHT.wav	2	4	blb_dichoticlistening_ba-ka.mp3	ba	ka	1	right
6.6.1	win	2023-06-02	02:36:23	0	0	59dc458f77860e000151240e	1	1	DL_test	15	DL_test	26			0		ka	0	1176	6	6	antiphase_hc_ois.wav	3	6	5	noise_calib_stim_RIGHT.wav	2	6	blb_dichoticlistening_ba-ta.mp3	ba	ta	1	other
6.6.1	win	2023-06-02	02:36:23	0	0	59dc458f77860e000151240e	1	1	DL_test	15	DL_test	27			0		ga	1	912	6	6	antiphase_hc_ois.wav	3	6	5	noise_calib_stim_RIGHT.wav	2	14	blb_dichoticlistening_ga-da.mp3	ga	da	1	left
6.6.1	win	2023-06-02	02:36:23	0	0	59dc458f77860e000151240e	1	1	DL_test	15	DL_test	28			0		ga	1	1003	6	6	antiphase_hc_ois.wav	3	6	5	noise_calib_stim_RIGHT.wav	2	3	blb_dichoticlistening_ba-ga.mp3	ba	ga	1	right
6.6.1	win	2023-06-02	02:36:23	0	0	59dc458f77860e000151240e	1	1	DL_test	15	DL_test	29			0		pa	1	1657	6	6	antiphase_hc_ois.wav	3	6	5	noise_calib_stim_RIGHT.wav	2	26	blb_dichoticlistening_pa-da.mp3	pa	da	1	left
6.6.1	win	2023-06-02	02:36:23	0	0	59dc458f77860e000151240e	1	1	DL_test	15	DL_test	30			0		ka	1	1265	6	6	antiphase_hc_ois.wav	3	6	5	noise_calib_stim_RIGHT.wav	2	23	blb_dichoticlistening_ka-pa.mp3	ka	pa	1	left
6.6.1	win	2023-06-02	02:36:23	0	0	59dc458f77860e000151240e	1	1	DL_test	15	DL_test	31			0		ka	1	940	6	6	antiphase_hc_ois.wav	3	6	5	noise_calib_stim_RIGHT.wav	2	22	blb_dichoticlistening_ka-ka.mp3	ka	ka	0	left
6.6.1	win	2023-06-02	02:36:23	0	0	59dc458f77860e000151240e	1	1	DL_test	15	DL_test	32			0		da	1	965	6	6	antiphase_hc_ois.wav	3	6	5	noise_calib_stim_RIGHT.wav	2	32	blb_dichoticlistening_ta-da.mp3	ta	da	1	right
6.6.1	win	2023-06-02	02:36:23	0	0	59dc458f77860e000151240e	1	1	DL_test	15	DL_test	33			0		ka	1	1013	6	6	antiphase_hc_ois.wav	3	6	5	noise_calib_stim_RIGHT.wav	2	28	blb_dichoticlistening_pa-ka.mp3	pa	ka	1	right
6.6.1	win	2023-06-02	02:36:23	0	0	59dc458f77860e000151240e	1	1	DL_test	15	DL_test	34			0		ta	1	1146	6	6	antiphase_hc_ois.wav	3	6	5	noise_calib_stim_RIGHT.wav	2	30	blb_dichoticlistening_pa-ta.mp3	pa	ta	1	right
6.6.1	win	2023-06-02	02:36:23	0	0	59dc458f77860e000151240e	1	1	DL_test	15	DL_test	35			0		ga	1	2348	6	6	antiphase_hc_ois.wav	3	6	5	noise_calib_stim_RIGHT.wav	2	21	blb_dichoticlistening_ka-ga.mp3	ka	ga	1	right
6.6.1	win	2023-06-02	02:36:23	0	0	59dc458f77860e000151240e	1	1	DL_test	15	DL_test	36			0		ba	1	2274	6	6	antiphase_hc_ois.wav	3	6	5	noise_calib_stim_RIGHT.wav	2	19	blb_dichoticlistening_ka-ba.mp3	ka	ba	1	right
6.6.1	win	2023-06-02	02:36:23	0	0	59dc458f77860e000151240e	1	1	DL_test	16	DL_test	1			0		ga	1	828	6	6	antiphase_hc_ois.wav	3	6	5	noise_calib_stim_RIGHT.wav	2	14	blb_dichoticlistening_ga-da.mp3	ga	da	1	left
6.6.1	win	2023-06-02	02:36:23	0	0	59dc458f77860e000151240e	1	1	DL_test	16	DL_test	2			0		ta	1	1403	6	6	antiphase_hc_ois.wav	3	6	5	noise_calib_stim_RIGHT.wav	2	12	blb_dichoticlistening_da-ta.mp3	da	ta	1	right
6.6.1	win	2023-06-02	02:36:23	0	0	59dc458f77860e000151240e	1	1	DL_test	16	DL_test	3			0		ba	1	1907	6	6	antiphase_hc_ois.wav	3	6	5	noise_calib_stim_RIGHT.wav	2	31	blb_dichoticlistening_ta-ba.mp3	ta	ba	1	right
6.6.1	win	2023-06-02	02:36:23	0	0	59dc458f77860e000151240e	1	1	DL_test	16	DL_test	4			0		ba	1	931	6	6	antiphase_hc_ois.wav	3	6	5	noise_calib_stim_RIGHT.wav	2	1	blb_dichoticlistening_ba-ba.mp3	ba	ba	0	left
6.6.1	win	2023-06-02	02:36:23	0	0	59dc458f77860e000151240e	1	1	DL_test	16	DL_test	5			0		ka	0	917	6	6	antiphase_hc_ois.wav	3	6	5	noise_calib_stim_RIGHT.wav	2	33	blb_dichoticlistening_ta-ga.mp3	ta	ga	1	other
6.6.1	win	2023-06-02	02:36:23	0	0	59dc458f77860e000151240e	1	1	DL_test	16	DL_test	6			0		da	1	1254	6	6	antiphase_hc_ois.wav	3	6	5	noise_calib_stim_RIGHT.wav	2	2	blb_dichoticlistening_ba-da.mp3	ba	da	1	right
6.6.1	win	2023-06-02	02:36:23	0	0	59dc458f77860e000151240e	1	1	DL_test	16	DL_test	7			0		ka	1	1058	6	6	antiphase_hc_ois.wav	3	6	5	noise_calib_stim_RIGHT.wav	2	22	blb_dichoticlistening_ka-ka.mp3	ka	ka	0	left
6.6.1	win	2023-06-02	02:36:23	0	0	59dc458f77860e000151240e	1	1	DL_test	16	DL_test	8			0		da	1	1266	6	6	antiphase_hc_ois.wav	3	6	5	noise_calib_stim_RIGHT.wav	2	26	blb_dichoticlistening_pa-da.mp3	pa	da	1	right
6.6.1	win	2023-06-02	02:36:23	0	0	59dc458f77860e000151240e	1	1	DL_test	16	DL_test	9			0		ka	1	1030	6	6	antiphase_hc_ois.wav	3	6	5	noise_calib_stim_RIGHT.wav	2	24	blb_dichoticlistening_ka-ta.mp3	ka	ta	1	left
6.6.1	win	2023-06-02	02:36:23	0	0	59dc458f77860e000151240e	1	1	DL_test	16	DL_test	10			0		pa	1	907	6	6	antiphase_hc_ois.wav	3	6	5	noise_calib_stim_RIGHT.wav	2	35	blb_dichoticlistening_ta-pa.mp3	ta	pa	1	right
6.6.1	win	2023-06-02	02:36:23	0	0	59dc458f77860e000151240e	1	1	DL_test	16	DL_test	11			0		pa	1	929	6	6	antiphase_hc_ois.wav	3	6	5	noise_calib_stim_RIGHT.wav	2	29	blb_dichoticlistening_pa-pa.mp3	pa	pa	0	left
6.6.1	win	2023-06-02	02:36:23	0	0	59dc458f77860e000151240e	1	1	DL_test	16	DL_test	12			0		ga	0	2163	6	6	antiphase_hc_ois.wav	3	6	5	noise_calib_stim_RIGHT.wav	2	20	blb_dichoticlistening_ka-da.mp3	ka	da	1	other
6.6.1	win	2023-06-02	02:36:23	0	0	59dc458f77860e000151240e	1	1	DL_test	16	DL_test	13			0		pa	1	1023	6	6	antiphase_hc_ois.wav	3	6	5	noise_calib_stim_RIGHT.wav	2	5	blb_dichoticlistening_ba-pa.mp3	ba	pa	1	right
6.6.1	win	2023-06-02	02:36:23	0	0	59dc458f77860e000151240e	1	1	DL_test	16	DL_test	14			0		da	1	1413	6	6	antiphase_hc_ois.wav	3	6	5	noise_calib_stim_RIGHT.wav	2	7	blb_dichoticlistening_da-ba.mp3	da	ba	1	left
6.6.1	win	2023-06-02	02:36:23	0	0	59dc458f77860e000151240e	1	1	DL_test	16	DL_test	15			0		ka	1	876	6	6	antiphase_hc_ois.wav	3	6	5	noise_calib_stim_RIGHT.wav	2	16	blb_dichoticlistening_ga-ka.mp3	ga	ka	1	right
6.6.1	win	2023-06-02	02:36:23	0	0	59dc458f77860e000151240e	1	1	DL_test	16	DL_test	16			0		ba	1	1340	6	6	antiphase_hc_ois.wav	3	6	5	noise_calib_stim_RIGHT.wav	2	13	blb_dichoticlistening_ga-ba.mp3	ga	ba	1	right
6.6.1	win	2023-06-02	02:36:23	0	0	59dc458f77860e000151240e	1	1	DL_test	16	DL_test	17			0		ka	1	1014	6	6	antiphase_hc_ois.wav	3	6	5	noise_calib_stim_RIGHT.wav	2	21	blb_dichoticlistening_ka-ga.mp3	ka	ga	1	left
6.6.1	win	2023-06-02	02:36:23	0	0	59dc458f77860e000151240e	1	1	DL_test	16	DL_test	18			0		ga	1	913	6	6	antiphase_hc_ois.wav	3	6	5	noise_calib_stim_RIGHT.wav	2	15	blb_dichoticlistening_ga-ga.mp3	ga	ga	0	left
6.6.1	win	2023-06-02	02:36:23	0	0	59dc458f77860e000151240e	1	1	DL_test	16	DL_test	19			0		pa	0	947	6	6	antiphase_hc_ois.wav	3	6	5	noise_calib_stim_RIGHT.wav	2	10	blb_dichoticlistening_da-ka.mp3	da	ka	1	other
6.6.1	win	2023-06-02	02:36:23	0	0	59dc458f77860e000151240e	1	1	DL_test	16	DL_test	20			0		ga	1	1276	6	6	antiphase_hc_ois.wav	3	6	5	noise_calib_stim_RIGHT.wav	2	27	blb_dichoticlistening_pa-ga.mp3	pa	ga	1	right
6.6.1	win	2023-06-02	02:36:23	0	0	59dc458f77860e000151240e	1	1	DL_test	16	DL_test	21			0		ta	1	983	6	6	antiphase_hc_ois.wav	3	6	5	noise_calib_stim_RIGHT.wav	2	36	blb_dichoticlistening_ta-ta.mp3	ta	ta	0	left
6.6.1	win	2023-06-02	02:36:23	0	0	59dc458f77860e000151240e	1	1	DL_test	16	DL_test	22			0		ta	1	1254	6	6	antiphase_hc_ois.wav	3	6	5	noise_calib_stim_RIGHT.wav	2	18	blb_dichoticlistening_ga-ta.mp3	ga	ta	1	right
6.6.1	win	2023-06-02	02:36:23	0	0	59dc458f77860e000151240e	1	1	DL_test	16	DL_test	23			0		ta	1	1036	6	6	antiphase_hc_ois.wav	3	6	5	noise_calib_stim_RIGHT.wav	2	30	blb_dichoticlistening_pa-ta.mp3	pa	ta	1	right
6.6.1	win	2023-06-02	02:36:23	0	0	59dc458f77860e000151240e	1	1	DL_test	16	DL_test	24			0		pa	1	1174	6	6	antiphase_hc_ois.wav	3	6	5	noise_calib_stim_RIGHT.wav	2	17	blb_dichoticlistening_ga-pa.mp3	ga	pa	1	right
6.6.1	win	2023-06-02	02:36:23	0	0	59dc458f77860e000151240e	1	1	DL_test	16	DL_test	25			0		ga	1	1749	6	6	antiphase_hc_ois.wav	3	6	5	noise_calib_stim_RIGHT.wav	2	9	blb_dichoticlistening_da-ga.mp3	da	ga	1	right
6.6.1	win	2023-06-02	02:36:23	0	0	59dc458f77860e000151240e	1	1	DL_test	16	DL_test	26			0		pa	1	1194	6	6	antiphase_hc_ois.wav	3	6	5	noise_calib_stim_RIGHT.wav	2	25	blb_dichoticlistening_pa-ba.mp3	pa	ba	1	left
6.6.1	win	2023-06-02	02:36:23	0	0	59dc458f77860e000151240e	1	1	DL_test	16	DL_test	27			0		pa	1	949	6	6	antiphase_hc_ois.wav	3	6	5	noise_calib_stim_RIGHT.wav	2	23	blb_dichoticlistening_ka-pa.mp3	ka	pa	1	right
6.6.1	win	2023-06-02	02:36:23	0	0	59dc458f77860e000151240e	1	1	DL_test	16	DL_test	28			0		da	1	2083	6	6	antiphase_hc_ois.wav	3	6	5	noise_calib_stim_RIGHT.wav	2	11	blb_dichoticlistening_da-pa.mp3	da	pa	1	left
6.6.1	win	2023-06-02	02:36:23	0	0	59dc458f77860e000151240e	1	1	DL_test	16	DL_test	29			0		ka	0	1061	6	6	antiphase_hc_ois.wav	3	6	5	noise_calib_stim_RIGHT.wav	2	6	blb_dichoticlistening_ba-ta.mp3	ba	ta	1	other
6.6.1	win	2023-06-02	02:36:23	0	0	59dc458f77860e000151240e	1	1	DL_test	16	DL_test	30			0		da	1	795	6	6	antiphase_hc_ois.wav	3	6	5	noise_calib_stim_RIGHT.wav	2	8	blb_dichoticlistening_da-da.mp3	da	da	0	left
6.6.1	win	2023-06-02	02:36:23	0	0	59dc458f77860e000151240e	1	1	DL_test	16	DL_test	31			0		ka	1	872	6	6	antiphase_hc_ois.wav	3	6	5	noise_calib_stim_RIGHT.wav	2	34	blb_dichoticlistening_ta-ka.mp3	ta	ka	1	right
6.6.1	win	2023-06-02	02:36:23	0	0	59dc458f77860e000151240e	1	1	DL_test	16	DL_test	32			0		ka	1	1307	6	6	antiphase_hc_ois.wav	3	6	5	noise_calib_stim_RIGHT.wav	2	4	blb_dichoticlistening_ba-ka.mp3	ba	ka	1	right
6.6.1	win	2023-06-02	02:36:23	0	0	59dc458f77860e000151240e	1	1	DL_test	16	DL_test	33			0		ba	1	1682	6	6	antiphase_hc_ois.wav	3	6	5	noise_calib_stim_RIGHT.wav	2	19	blb_dichoticlistening_ka-ba.mp3	ka	ba	1	right
6.6.1	win	2023-06-02	02:36:23	0	0	59dc458f77860e000151240e	1	1	DL_test	16	DL_test	34			0		ga	1	1152	6	6	antiphase_hc_ois.wav	3	6	5	noise_calib_stim_RIGHT.wav	2	3	blb_dichoticlistening_ba-ga.mp3	ba	ga	1	right
6.6.1	win	2023-06-02	02:36:23	0	0	59dc458f77860e000151240e	1	1	DL_test	16	DL_test	35			0		ka	1	869	6	6	antiphase_hc_ois.wav	3	6	5	noise_calib_stim_RIGHT.wav	2	28	blb_dichoticlistening_pa-ka.mp3	pa	ka	1	right
6.6.1	win	2023-06-02	02:36:23	0	0	59dc458f77860e000151240e	1	1	DL_test	16	DL_test	36			0		da	1	955	6	6	antiphase_hc_ois.wav	3	6	5	noise_calib_stim_RIGHT.wav	2	32	blb_dichoticlistening_ta-da.mp3	ta	da	1	right
6.6.1	win	2023-06-02	02:36:23	02:47:59	692738	59dc458f77860e000151240e	1	1	practice_slash	22	practice_slash	1	stimuli_target_squarediamonds.svg	stimuli_distractor_trianglediamonds.svg	5	yes	0	0	2000	6	6	antiphase_hc_ois.wav	3	6	5	noise_calib_stim_RIGHT.wav	2	32	blb_dichoticlistening_ta-da.mp3	ta	da	1	right
6.6.1	win	2023-06-02	02:36:23	02:47:59	692738	59dc458f77860e000151240e	1	1	practice_slash	22	advance_on_keypress_SLASH	2	stimuli_target_squarediamonds.svg	stimuli_distractor_trianglediamonds.svg	5	yes	57	0	1340	6	6	antiphase_hc_ois.wav	3	6	5	noise_calib_stim_RIGHT.wav	2	32	blb_dichoticlistening_ta-da.mp3	ta	da	1	right
6.6.1	win	2023-06-02	02:36:23	02:48:03	696254	59dc458f77860e000151240e	1	1	practice_slash	22	practice_slash	3	stimuli_distractor_diamondtriangles.svg	stimuli_target_trianglerectangles.svg	9	yes	53	1	533	6	6	antiphase_hc_ois.wav	3	6	5	noise_calib_stim_RIGHT.wav	2	32	blb_dichoticlistening_ta-da.mp3	ta	da	1	right
6.6.1	win	2023-06-02	02:36:23	02:48:03	696254	59dc458f77860e000151240e	1	1	practice_slash	22	advance_on_keypress_SLASH	4	stimuli_distractor_diamondtriangles.svg	stimuli_target_trianglerectangles.svg	9	yes	57	0	928	6	6	antiphase_hc_ois.wav	3	6	5	noise_calib_stim_RIGHT.wav	2	32	blb_dichoticlistening_ta-da.mp3	ta	da	1	right
6.6.1	win	2023-06-02	02:36:23	02:48:06	699390	59dc458f77860e000151240e	1	1	practice_slash	22	practice_slash	5	stimuli_target_squarediamonds.svg	stimuli_distractor_diamondtriangles.svg	2	yes	53	1	554	6	6	antiphase_hc_ois.wav	3	6	5	noise_calib_stim_RIGHT.wav	2	32	blb_dichoticlistening_ta-da.mp3	ta	da	1	right
6.6.1	win	2023-06-02	02:36:23	02:48:06	699390	59dc458f77860e000151240e	1	1	practice_slash	22	advance_on_keypress_SLASH	6	stimuli_target_squarediamonds.svg	stimuli_distractor_diamondtriangles.svg	2	yes	57	0	746	6	6	antiphase_hc_ois.wav	3	6	5	noise_calib_stim_RIGHT.wav	2	32	blb_dichoticlistening_ta-da.mp3	ta	da	1	right
6.6.1	win	2023-06-02	02:36:23	02:48:09	702277	59dc458f77860e000151240e	1	1	practice_slash	22	practice_slash	7	stimuli_target_diamondsquares.svg	stimuli_distractor_diamondtriangles.svg	3	yes	53	1	490	6	6	antiphase_hc_ois.wav	3	6	5	noise_calib_stim_RIGHT.wav	2	32	blb_dichoticlistening_ta-da.mp3	ta	da	1	right
6.6.1	win	2023-06-02	02:36:23	02:48:09	702277	59dc458f77860e000151240e	1	1	practice_slash	22	advance_on_keypress_SLASH	8	stimuli_target_diamondsquares.svg	stimuli_distractor_diamondtriangles.svg	3	yes	57	0	471	6	6	antiphase_hc_ois.wav	3	6	5	noise_calib_stim_RIGHT.wav	2	32	blb_dichoticlistening_ta-da.mp3	ta	da	1	right
6.6.1	win	2023-06-02	02:36:23	02:48:13	706387	59dc458f77860e000151240e	1	1	practice_slash	22	practice_slash	9	stimuli_distractor_trianglediamonds.svg	stimuli_distractor_diamondtriangles.svg	16	no	0	1	2000	6	6	antiphase_hc_ois.wav	3	6	5	noise_calib_stim_RIGHT.wav	2	32	blb_dichoticlistening_ta-da.mp3	ta	da	1	right
6.6.1	win	2023-06-02	02:36:23	02:48:13	706387	59dc458f77860e000151240e	1	1	practice_slash	22	advance_on_keypress_SLASH	10	stimuli_distractor_trianglediamonds.svg	stimuli_distractor_diamondtriangles.svg	16	no	57	0	609	6	6	antiphase_hc_ois.wav	3	6	5	noise_calib_stim_RIGHT.wav	2	32	blb_dichoticlistening_ta-da.mp3	ta	da	1	right
6.6.1	win	2023-06-02	02:36:23	02:48:16	709170	59dc458f77860e000151240e	1	1	practice_slash	22	practice_slash	11	stimuli_distractor_trianglediamonds.svg	stimuli_target_diamondrectangles.svg	12	yes	53	1	512	6	6	antiphase_hc_ois.wav	3	6	5	noise_calib_stim_RIGHT.wav	2	32	blb_dichoticlistening_ta-da.mp3	ta	da	1	right
6.6.1	win	2023-06-02	02:36:23	02:48:16	709170	59dc458f77860e000151240e	1	1	practice_slash	22	advance_on_keypress_SLASH	12	stimuli_distractor_trianglediamonds.svg	stimuli_target_diamondrectangles.svg	12	yes	57	0	467	6	6	antiphase_hc_ois.wav	3	6	5	noise_calib_stim_RIGHT.wav	2	32	blb_dichoticlistening_ta-da.mp3	ta	da	1	right
6.6.1	win	2023-06-02	02:36:23	02:48:20	713286	59dc458f77860e000151240e	1	1	practice_slash	22	practice_slash	13	stimuli_distractor_diamondtriangles.svg	stimuli_distractor_trianglediamonds.svg	14	no	0	1	2000	6	6	antiphase_hc_ois.wav	3	6	5	noise_calib_stim_RIGHT.wav	2	32	blb_dichoticlistening_ta-da.mp3	ta	da	1	right
6.6.1	win	2023-06-02	02:36:23	02:48:20	713286	59dc458f77860e000151240e	1	1	practice_slash	22	advance_on_keypress_SLASH	14	stimuli_distractor_diamondtriangles.svg	stimuli_distractor_trianglediamonds.svg	14	no	57	0	551	6	6	antiphase_hc_ois.wav	3	6	5	noise_calib_stim_RIGHT.wav	2	32	blb_dichoticlistening_ta-da.mp3	ta	da	1	right
6.6.1	win	2023-06-02	02:36:23	02:48:24	717197	59dc458f77860e000151240e	1	1	practice_slash	22	practice_slash	15	stimuli_target_rectanglediamonds.svg	stimuli_distractor_trianglediamonds.svg	4	yes	53	1	1712	6	6	antiphase_hc_ois.wav	3	6	5	noise_calib_stim_RIGHT.wav	2	32	blb_dichoticlistening_ta-da.mp3	ta	da	1	right
6.6.1	win	2023-06-02	02:36:23	02:48:24	717197	59dc458f77860e000151240e	1	1	practice_slash	22	advance_on_keypress_SLASH	16	stimuli_target_rectanglediamonds.svg	stimuli_distractor_trianglediamonds.svg	4	yes	57	0	553	6	6	antiphase_hc_ois.wav	3	6	5	noise_calib_stim_RIGHT.wav	2	32	blb_dichoticlistening_ta-da.mp3	ta	da	1	right
6.6.1	win	2023-06-02	02:36:23	02:48:27	720477	59dc458f77860e000151240e	1	1	practice_slash	22	practice_slash	17	stimuli_target_diamondsquares.svg	stimuli_distractor_trianglediamonds.svg	6	yes	53	1	1074	6	6	antiphase_hc_ois.wav	3	6	5	noise_calib_stim_RIGHT.wav	2	32	blb_dichoticlistening_ta-da.mp3	ta	da	1	right
6.6.1	win	2023-06-02	02:36:23	02:48:27	720477	59dc458f77860e000151240e	1	1	practice_slash	22	advance_on_keypress_SLASH	18	stimuli_target_diamondsquares.svg	stimuli_distractor_trianglediamonds.svg	6	yes	57	0	623	6	6	antiphase_hc_ois.wav	3	6	5	noise_calib_stim_RIGHT.wav	2	32	blb_dichoticlistening_ta-da.mp3	ta	da	1	right
6.6.1	win	2023-06-02	02:36:23	02:48:30	723365	59dc458f77860e000151240e	1	1	practice_slash	22	practice_slash	19	stimuli_distractor_diamondtriangles.svg	stimuli_target_diamondrectangles.svg	8	yes	53	1	629	6	6	antiphase_hc_ois.wav	3	6	5	noise_calib_stim_RIGHT.wav	2	32	blb_dichoticlistening_ta-da.mp3	ta	da	1	right
6.6.1	win	2023-06-02	02:36:23	02:48:30	723365	59dc458f77860e000151240e	1	1	practice_slash	22	advance_on_keypress_SLASH	20	stimuli_distractor_diamondtriangles.svg	stimuli_target_diamondrectangles.svg	8	yes	57	0	507	6	6	antiphase_hc_ois.wav	3	6	5	noise_calib_stim_RIGHT.wav	2	32	blb_dichoticlistening_ta-da.mp3	ta	da	1	right
6.6.1	win	2023-06-02	02:36:23	02:48:34	727519	59dc458f77860e000151240e	1	1	practice_slash	22	practice_slash	21	stimuli_distractor_diamondtriangles.svg	stimuli_distractor_diamondtriangles.svg	13	no	0	1	2000	6	6	antiphase_hc_ois.wav	3	6	5	noise_calib_stim_RIGHT.wav	2	32	blb_dichoticlistening_ta-da.mp3	ta	da	1	right
6.6.1	win	2023-06-02	02:36:23	02:48:34	727519	59dc458f77860e000151240e	1	1	practice_slash	22	advance_on_keypress_SLASH	22	stimuli_distractor_diamondtriangles.svg	stimuli_distractor_diamondtriangles.svg	13	no	57	0	502	6	6	antiphase_hc_ois.wav	3	6	5	noise_calib_stim_RIGHT.wav	2	32	blb_dichoticlistening_ta-da.mp3	ta	da	1	right
6.6.1	win	2023-06-02	02:36:23	02:48:37	730780	59dc458f77860e000151240e	1	1	practice_slash	22	practice_slash	23	stimuli_distractor_trianglediamonds.svg	stimuli_target_squarediamonds.svg	11	yes	53	1	1112	6	6	antiphase_hc_ois.wav	3	6	5	noise_calib_stim_RIGHT.wav	2	32	blb_dichoticlistening_ta-da.mp3	ta	da	1	right
6.6.1	win	2023-06-02	02:36:23	02:48:37	730780	59dc458f77860e000151240e	1	1	practice_slash	22	advance_on_keypress_SLASH	24	stimuli_distractor_trianglediamonds.svg	stimuli_target_squarediamonds.svg	11	yes	57	0	2083	6	6	antiphase_hc_ois.wav	3	6	5	noise_calib_stim_RIGHT.wav	2	32	blb_dichoticlistening_ta-da.mp3	ta	da	1	right
6.6.1	win	2023-06-02	02:36:23	02:48:42	735292	59dc458f77860e000151240e	1	1	practice_slash	22	practice_slash	25	stimuli_distractor_diamondtriangles.svg	stimuli_target_rectangletriangles.svg	7	yes	53	1	791	6	6	antiphase_hc_ois.wav	3	6	5	noise_calib_stim_RIGHT.wav	2	32	blb_dichoticlistening_ta-da.mp3	ta	da	1	right
6.6.1	win	2023-06-02	02:36:23	02:48:42	735292	59dc458f77860e000151240e	1	1	practice_slash	22	advance_on_keypress_SLASH	26	stimuli_distractor_diamondtriangles.svg	stimuli_target_rectangletriangles.svg	7	yes	57	0	623	6	6	antiphase_hc_ois.wav	3	6	5	noise_calib_stim_RIGHT.wav	2	32	blb_dichoticlistening_ta-da.mp3	ta	da	1	right
6.6.1	win	2023-06-02	02:36:23	02:48:46	739012	59dc458f77860e000151240e	1	1	practice_slash	22	practice_slash	27	stimuli_distractor_trianglediamonds.svg	stimuli_target_rectanglediamonds.svg	10	yes	53	1	1460	6	6	antiphase_hc_ois.wav	3	6	5	noise_calib_stim_RIGHT.wav	2	32	blb_dichoticlistening_ta-da.mp3	ta	da	1	right
6.6.1	win	2023-06-02	02:36:23	02:48:46	739012	59dc458f77860e000151240e	1	1	practice_slash	22	advance_on_keypress_SLASH	28	stimuli_distractor_trianglediamonds.svg	stimuli_target_rectanglediamonds.svg	10	yes	57	0	482	6	6	antiphase_hc_ois.wav	3	6	5	noise_calib_stim_RIGHT.wav	2	32	blb_dichoticlistening_ta-da.mp3	ta	da	1	right
6.6.1	win	2023-06-02	02:36:23	02:48:48	741683	59dc458f77860e000151240e	1	1	practice_slash	22	practice_slash	29	stimuli_target_rectanglediamonds.svg	stimuli_distractor_diamondtriangles.svg	1	yes	53	1	549	6	6	antiphase_hc_ois.wav	3	6	5	noise_calib_stim_RIGHT.wav	2	32	blb_dichoticlistening_ta-da.mp3	ta	da	1	right
6.6.1	win	2023-06-02	02:36:23	02:48:48	741683	59dc458f77860e000151240e	1	1	practice_slash	22	advance_on_keypress_SLASH	30	stimuli_target_rectanglediamonds.svg	stimuli_distractor_diamondtriangles.svg	1	yes	57	0	526	6	6	antiphase_hc_ois.wav	3	6	5	noise_calib_stim_RIGHT.wav	2	32	blb_dichoticlistening_ta-da.mp3	ta	da	1	right
6.6.1	win	2023-06-02	02:36:23	02:48:52	745852	59dc458f77860e000151240e	1	1	practice_slash	22	practice_slash	31	stimuli_distractor_trianglediamonds.svg	stimuli_distractor_trianglediamonds.svg	15	no	0	1	2000	6	6	antiphase_hc_ois.wav	3	6	5	noise_calib_stim_RIGHT.wav	2	32	blb_dichoticlistening_ta-da.mp3	ta	da	1	right
6.6.1	win	2023-06-02	02:36:23	02:48:52	745852	59dc458f77860e000151240e	1	1	practice_slash	22	advance_on_keypress_SLASH	32	stimuli_distractor_trianglediamonds.svg	stimuli_distractor_trianglediamonds.svg	15	no	57	0	511	6	6	antiphase_hc_ois.wav	3	6	5	noise_calib_stim_RIGHT.wav	2	32	blb_dichoticlistening_ta-da.mp3	ta	da	1	right
6.6.1	win	2023-06-02	02:36:23	02:49:03	756099	59dc458f77860e000151240e	1	1	main_slash	24	main_slash	1	stimuli_target_rectangletriangles.svg	stimuli_distractor_diamondtriangles.svg	5	yes	53	1	532	6	6	antiphase_hc_ois.wav	3	6	5	noise_calib_stim_RIGHT.wav	2	32	blb_dichoticlistening_ta-da.mp3	ta	da	1	right
6.6.1	win	2023-06-02	02:36:23	02:49:03	756099	59dc458f77860e000151240e	1	1	main_slash	24	advance_on_keypress_SLASH	2	stimuli_target_rectangletriangles.svg	stimuli_distractor_diamondtriangles.svg	5	yes	57	0	1510	6	6	antiphase_hc_ois.wav	3	6	5	noise_calib_stim_RIGHT.wav	2	32	blb_dichoticlistening_ta-da.mp3	ta	da	1	right
6.6.1	win	2023-06-02	02:36:23	02:49:06	758939	59dc458f77860e000151240e	1	1	main_slash	24	main_slash	3	stimuli_target_rectanglediamonds.svg	stimuli_distractor_diamondtriangles.svg	6	yes	53	1	689	6	6	antiphase_hc_ois.wav	3	6	5	noise_calib_stim_RIGHT.wav	2	32	blb_dichoticlistening_ta-da.mp3	ta	da	1	right
6.6.1	win	2023-06-02	02:36:23	02:49:06	758939	59dc458f77860e000151240e	1	1	main_slash	24	advance_on_keypress_SLASH	4	stimuli_target_rectanglediamonds.svg	stimuli_distractor_diamondtriangles.svg	6	yes	57	0	925	6	6	antiphase_hc_ois.wav	3	6	5	noise_calib_stim_RIGHT.wav	2	32	blb_dichoticlistening_ta-da.mp3	ta	da	1	right
6.6.1	win	2023-06-02	02:36:23	02:49:09	762500	59dc458f77860e000151240e	1	1	main_slash	24	main_slash	5	stimuli_distractor_diamondtriangles.svg	stimuli_distractor_diamondtriangles.svg	40	no	0	1	2000	6	6	antiphase_hc_ois.wav	3	6	5	noise_calib_stim_RIGHT.wav	2	32	blb_dichoticlistening_ta-da.mp3	ta	da	1	right
6.6.1	win	2023-06-02	02:36:23	02:49:09	762500	59dc458f77860e000151240e	1	1	main_slash	24	advance_on_keypress_SLASH	6	stimuli_distractor_diamondtriangles.svg	stimuli_distractor_diamondtriangles.svg	40	no	57	0	646	6	6	antiphase_hc_ois.wav	3	6	5	noise_calib_stim_RIGHT.wav	2	32	blb_dichoticlistening_ta-da.mp3	ta	da	1	right
6.6.1	win	2023-06-02	02:36:23	02:49:12	765783	59dc458f77860e000151240e	1	1	main_slash	24	main_slash	7	stimuli_distractor_trianglediamonds.svg	stimuli_distractor_diamondtriangles.svg	35	no	0	1	2000	6	6	antiphase_hc_ois.wav	3	6	5	noise_calib_stim_RIGHT.wav	2	32	blb_dichoticlistening_ta-da.mp3	ta	da	1	right
6.6.1	win	2023-06-02	02:36:23	02:49:12	765783	59dc458f77860e000151240e	1	1	main_slash	24	advance_on_keypress_SLASH	8	stimuli_distractor_trianglediamonds.svg	stimuli_distractor_diamondtriangles.svg	35	no	57	0	507	6	6	antiphase_hc_ois.wav	3	6	5	noise_calib_stim_RIGHT.wav	2	32	blb_dichoticlistening_ta-da.mp3	ta	da	1	right
6.6.1	win	2023-06-02	02:36:23	02:49:16	768933	59dc458f77860e000151240e	1	1	main_slash	24	main_slash	9	stimuli_distractor_diamondtriangles.svg	stimuli_distractor_diamondtriangles.svg	39	no	0	1	2000	6	6	antiphase_hc_ois.wav	3	6	5	noise_calib_stim_RIGHT.wav	2	32	blb_dichoticlistening_ta-da.mp3	ta	da	1	right
6.6.1	win	2023-06-02	02:36:23	02:49:16	768933	59dc458f77860e000151240e	1	1	main_slash	24	advance_on_keypress_SLASH	10	stimuli_distractor_diamondtriangles.svg	stimuli_distractor_diamondtriangles.svg	39	no	57	0	613	6	6	antiphase_hc_ois.wav	3	6	5	noise_calib_stim_RIGHT.wav	2	32	blb_dichoticlistening_ta-da.mp3	ta	da	1	right
6.6.1	win	2023-06-02	02:36:23	02:49:18	771298	59dc458f77860e000151240e	1	1	main_slash	24	main_slash	11	stimuli_distractor_trianglediamonds.svg	stimuli_target_diamondrectangles.svg	27	yes	53	1	1098	6	6	antiphase_hc_ois.wav	3	6	5	noise_calib_stim_RIGHT.wav	2	32	blb_dichoticlistening_ta-da.mp3	ta	da	1	right
6.6.1	win	2023-06-02	02:36:23	02:49:18	771298	59dc458f77860e000151240e	1	1	main_slash	24	advance_on_keypress_SLASH	12	stimuli_distractor_trianglediamonds.svg	stimuli_target_diamondrectangles.svg	27	yes	57	0	822	6	6	antiphase_hc_ois.wav	3	6	5	noise_calib_stim_RIGHT.wav	2	32	blb_dichoticlistening_ta-da.mp3	ta	da	1	right
6.6.1	win	2023-06-02	02:36:23	02:49:20	773395	59dc458f77860e000151240e	1	1	main_slash	24	main_slash	13	stimuli_distractor_diamondtriangles.svg	stimuli_target_trianglerectangles.svg	29	yes	53	1	628	6	6	antiphase_hc_ois.wav	3	6	5	noise_calib_stim_RIGHT.wav	2	32	blb_dichoticlistening_ta-da.mp3	ta	da	1	right
6.6.1	win	2023-06-02	02:36:23	02:49:20	773395	59dc458f77860e000151240e	1	1	main_slash	24	advance_on_keypress_SLASH	14	stimuli_distractor_diamondtriangles.svg	stimuli_target_trianglerectangles.svg	29	yes	57	0	810	6	6	antiphase_hc_ois.wav	3	6	5	noise_calib_stim_RIGHT.wav	2	32	blb_dichoticlistening_ta-da.mp3	ta	da	1	right
6.6.1	win	2023-06-02	02:36:23	02:49:22	775387	59dc458f77860e000151240e	1	1	main_slash	24	main_slash	15	stimuli_target_squarediamonds.svg	stimuli_distractor_trianglediamonds.svg	4	yes	53	1	554	6	6	antiphase_hc_ois.wav	3	6	5	noise_calib_stim_RIGHT.wav	2	32	blb_dichoticlistening_ta-da.mp3	ta	da	1	right
6.6.1	win	2023-06-02	02:36:23	02:49:22	775387	59dc458f77860e000151240e	1	1	main_slash	24	advance_on_keypress_SLASH	16	stimuli_target_squarediamonds.svg	stimuli_distractor_trianglediamonds.svg	4	yes	57	0	770	6	6	antiphase_hc_ois.wav	3	6	5	noise_calib_stim_RIGHT.wav	2	32	blb_dichoticlistening_ta-da.mp3	ta	da	1	right
6.6.1	win	2023-06-02	02:36:23	02:49:24	777466	59dc458f77860e000151240e	1	1	main_slash	24	main_slash	17	stimuli_target_diamondsquares.svg	stimuli_distractor_trianglediamonds.svg	20	yes	53	1	666	6	6	antiphase_hc_ois.wav	3	6	5	noise_calib_stim_RIGHT.wav	2	32	blb_dichoticlistening_ta-da.mp3	ta	da	1	right
6.6.1	win	2023-06-02	02:36:23	02:49:24	777466	59dc458f77860e000151240e	1	1	main_slash	24	advance_on_keypress_SLASH	18	stimuli_target_diamondsquares.svg	stimuli_distractor_trianglediamonds.svg	20	yes	57	0	768	6	6	antiphase_hc_ois.wav	3	6	5	noise_calib_stim_RIGHT.wav	2	32	blb_dichoticlistening_ta-da.mp3	ta	da	1	right
6.6.1	win	2023-06-02	02:36:23	02:49:26	779666	59dc458f77860e000151240e	1	1	main_slash	24	main_slash	19	stimuli_distractor_diamondtriangles.svg	stimuli_target_diamondsquares.svg	32	yes	53	1	784	6	6	antiphase_hc_ois.wav	3	6	5	noise_calib_stim_RIGHT.wav	2	32	blb_dichoticlistening_ta-da.mp3	ta	da	1	right
6.6.1	win	2023-06-02	02:36:23	02:49:26	779666	59dc458f77860e000151240e	1	1	main_slash	24	advance_on_keypress_SLASH	20	stimuli_distractor_diamondtriangles.svg	stimuli_target_diamondsquares.svg	32	yes	57	0	775	6	6	antiphase_hc_ois.wav	3	6	5	noise_calib_stim_RIGHT.wav	2	32	blb_dichoticlistening_ta-da.mp3	ta	da	1	right
6.6.1	win	2023-06-02	02:36:23	02:49:30	783083	59dc458f77860e000151240e	1	1	main_slash	24	main_slash	21	stimuli_distractor_diamondtriangles.svg	stimuli_distractor_trianglediamonds.svg	38	no	0	1	2000	6	6	antiphase_hc_ois.wav	3	6	5	noise_calib_stim_RIGHT.wav	2	32	blb_dichoticlistening_ta-da.mp3	ta	da	1	right
6.6.1	win	2023-06-02	02:36:23	02:49:30	783083	59dc458f77860e000151240e	1	1	main_slash	24	advance_on_keypress_SLASH	22	stimuli_distractor_diamondtriangles.svg	stimuli_distractor_trianglediamonds.svg	38	no	57	0	504	6	6	antiphase_hc_ois.wav	3	6	5	noise_calib_stim_RIGHT.wav	2	32	blb_dichoticlistening_ta-da.mp3	ta	da	1	right
6.6.1	win	2023-06-02	02:36:23	02:49:31	784882	59dc458f77860e000151240e	1	1	main_slash	24	main_slash	23	stimuli_target_squaretriangles.svg	stimuli_distractor_diamondtriangles.svg	7	yes	53	1	649	6	6	antiphase_hc_ois.wav	3	6	5	noise_calib_stim_RIGHT.wav	2	32	blb_dichoticlistening_ta-da.mp3	ta	da	1	right
6.6.1	win	2023-06-02	02:36:23	02:49:31	784882	59dc458f77860e000151240e	1	1	main_slash	24	advance_on_keypress_SLASH	24	stimuli_target_squaretriangles.svg	stimuli_distractor_diamondtriangles.svg	7	yes	57	0	936	6	6	antiphase_hc_ois.wav	3	6	5	noise_calib_stim_RIGHT.wav	2	32	blb_dichoticlistening_ta-da.mp3	ta	da	1	right
6.6.1	win	2023-06-02	02:36:23	02:49:34	787074	59dc458f77860e000151240e	1	1	main_slash	24	main_slash	25	stimuli_distractor_diamondtriangles.svg	stimuli_target_rectanglediamonds.svg	14	yes	53	1	608	6	6	antiphase_hc_ois.wav	3	6	5	noise_calib_stim_RIGHT.wav	2	32	blb_dichoticlistening_ta-da.mp3	ta	da	1	right
6.6.1	win	2023-06-02	02:36:23	02:49:34	787074	59dc458f77860e000151240e	1	1	main_slash	24	advance_on_keypress_SLASH	26	stimuli_distractor_diamondtriangles.svg	stimuli_target_rectanglediamonds.svg	14	yes	57	0	807	6	6	antiphase_hc_ois.wav	3	6	5	noise_calib_stim_RIGHT.wav	2	32	blb_dichoticlistening_ta-da.mp3	ta	da	1	right
6.6.1	win	2023-06-02	02:36:23	02:49:36	789178	59dc458f77860e000151240e	1	1	main_slash	24	main_slash	27	stimuli_target_diamondrectangles.svg	stimuli_distractor_diamondtriangles.svg	23	yes	53	1	662	6	6	antiphase_hc_ois.wav	3	6	5	noise_calib_stim_RIGHT.wav	2	32	blb_dichoticlistening_ta-da.mp3	ta	da	1	right
6.6.1	win	2023-06-02	02:36:23	02:49:36	789178	59dc458f77860e000151240e	1	1	main_slash	24	advance_on_keypress_SLASH	28	stimuli_target_diamondrectangles.svg	stimuli_distractor_diamondtriangles.svg	23	yes	57	0	740	6	6	antiphase_hc_ois.wav	3	6	5	noise_calib_stim_RIGHT.wav	2	32	blb_dichoticlistening_ta-da.mp3	ta	da	1	right
6.6.1	win	2023-06-02	02:36:23	02:49:38	791258	59dc458f77860e000151240e	1	1	main_slash	24	main_slash	29	stimuli_distractor_trianglediamonds.svg	stimuli_target_trianglerectangles.svg	25	yes	53	1	709	6	6	antiphase_hc_ois.wav	3	6	5	noise_calib_stim_RIGHT.wav	2	32	blb_dichoticlistening_ta-da.mp3	ta	da	1	right
6.6.1	win	2023-06-02	02:36:23	02:49:38	791258	59dc458f77860e000151240e	1	1	main_slash	24	advance_on_keypress_SLASH	30	stimuli_distractor_trianglediamonds.svg	stimuli_target_trianglerectangles.svg	25	yes	57	0	632	6	6	antiphase_hc_ois.wav	3	6	5	noise_calib_stim_RIGHT.wav	2	32	blb_dichoticlistening_ta-da.mp3	ta	da	1	right
6.6.1	win	2023-06-02	02:36:23	02:49:40	793274	59dc458f77860e000151240e	1	1	main_slash	24	main_slash	31	stimuli_target_squaretriangles.svg	stimuli_distractor_trianglediamonds.svg	3	yes	53	1	742	6	6	antiphase_hc_ois.wav	3	6	5	noise_calib_stim_RIGHT.wav	2	32	blb_dichoticlistening_ta-da.mp3	ta	da	1	right
6.6.1	win	2023-06-02	02:36:23	02:49:40	793274	59dc458f77860e000151240e	1	1	main_slash	24	advance_on_keypress_SLASH	32	stimuli_target_squaretriangles.svg	stimuli_distractor_trianglediamonds.svg	3	yes	57	0	777	6	6	antiphase_hc_ois.wav	3	6	5	noise_calib_stim_RIGHT.wav	2	32	blb_dichoticlistening_ta-da.mp3	ta	da	1	right
6.6.1	win	2023-06-02	02:36:23	02:49:42	795530	59dc458f77860e000151240e	1	1	main_slash	24	main_slash	33	stimuli_target_trianglesquares.svg	stimuli_distractor_trianglediamonds.svg	18	yes	53	1	848	6	6	antiphase_hc_ois.wav	3	6	5	noise_calib_stim_RIGHT.wav	2	32	blb_dichoticlistening_ta-da.mp3	ta	da	1	right
6.6.1	win	2023-06-02	02:36:23	02:49:42	795530	59dc458f77860e000151240e	1	1	main_slash	24	advance_on_keypress_SLASH	34	stimuli_target_trianglesquares.svg	stimuli_distractor_trianglediamonds.svg	18	yes	57	0	749	6	6	antiphase_hc_ois.wav	3	6	5	noise_calib_stim_RIGHT.wav	2	32	blb_dichoticlistening_ta-da.mp3	ta	da	1	right
6.6.1	win	2023-06-02	02:36:23	02:49:44	797610	59dc458f77860e000151240e	1	1	main_slash	24	main_slash	35	stimuli_distractor_trianglediamonds.svg	stimuli_target_squaretriangles.svg	11	yes	53	1	678	6	6	antiphase_hc_ois.wav	3	6	5	noise_calib_stim_RIGHT.wav	2	32	blb_dichoticlistening_ta-da.mp3	ta	da	1	right
6.6.1	win	2023-06-02	02:36:23	02:49:44	797610	59dc458f77860e000151240e	1	1	main_slash	24	advance_on_keypress_SLASH	36	stimuli_distractor_trianglediamonds.svg	stimuli_target_squaretriangles.svg	11	yes	57	0	691	6	6	antiphase_hc_ois.wav	3	6	5	noise_calib_stim_RIGHT.wav	2	32	blb_dichoticlistening_ta-da.mp3	ta	da	1	right
6.6.1	win	2023-06-02	02:36:23	02:49:46	799706	59dc458f77860e000151240e	1	1	main_slash	24	main_slash	37	stimuli_target_trianglerectangles.svg	stimuli_distractor_diamondtriangles.svg	21	yes	53	1	774	6	6	antiphase_hc_ois.wav	3	6	5	noise_calib_stim_RIGHT.wav	2	32	blb_dichoticlistening_ta-da.mp3	ta	da	1	right
6.6.1	win	2023-06-02	02:36:23	02:49:46	799706	59dc458f77860e000151240e	1	1	main_slash	24	advance_on_keypress_SLASH	38	stimuli_target_trianglerectangles.svg	stimuli_distractor_diamondtriangles.svg	21	yes	57	0	790	6	6	antiphase_hc_ois.wav	3	6	5	noise_calib_stim_RIGHT.wav	2	32	blb_dichoticlistening_ta-da.mp3	ta	da	1	right
6.6.1	win	2023-06-02	02:36:23	02:49:49	801953	59dc458f77860e000151240e	1	1	main_slash	24	main_slash	39	stimuli_distractor_trianglediamonds.svg	stimuli_target_trianglesquares.svg	26	yes	53	1	821	6	6	antiphase_hc_ois.wav	3	6	5	noise_calib_stim_RIGHT.wav	2	32	blb_dichoticlistening_ta-da.mp3	ta	da	1	right
6.6.1	win	2023-06-02	02:36:23	02:49:49	801953	59dc458f77860e000151240e	1	1	main_slash	24	advance_on_keypress_SLASH	40	stimuli_distractor_trianglediamonds.svg	stimuli_target_trianglesquares.svg	26	yes	57	0	876	6	6	antiphase_hc_ois.wav	3	6	5	noise_calib_stim_RIGHT.wav	2	32	blb_dichoticlistening_ta-da.mp3	ta	da	1	right
6.6.1	win	2023-06-02	02:36:23	02:49:51	804137	59dc458f77860e000151240e	1	1	main_slash	24	main_slash	41	stimuli_distractor_diamondtriangles.svg	stimuli_target_trianglesquares.svg	30	yes	53	1	672	6	6	antiphase_hc_ois.wav	3	6	5	noise_calib_stim_RIGHT.wav	2	32	blb_dichoticlistening_ta-da.mp3	ta	da	1	right
6.6.1	win	2023-06-02	02:36:23	02:49:51	804137	59dc458f77860e000151240e	1	1	main_slash	24	advance_on_keypress_SLASH	42	stimuli_distractor_diamondtriangles.svg	stimuli_target_trianglesquares.svg	30	yes	57	0	844	6	6	antiphase_hc_ois.wav	3	6	5	noise_calib_stim_RIGHT.wav	2	32	blb_dichoticlistening_ta-da.mp3	ta	da	1	right
6.6.1	win	2023-06-02	02:36:23	02:49:53	806435	59dc458f77860e000151240e	1	1	main_slash	24	main_slash	43	stimuli_distractor_diamondtriangles.svg	stimuli_target_squarediamonds.svg	16	yes	53	1	819	6	6	antiphase_hc_ois.wav	3	6	5	noise_calib_stim_RIGHT.wav	2	32	blb_dichoticlistening_ta-da.mp3	ta	da	1	right
6.6.1	win	2023-06-02	02:36:23	02:49:53	806435	59dc458f77860e000151240e	1	1	main_slash	24	advance_on_keypress_SLASH	44	stimuli_distractor_diamondtriangles.svg	stimuli_target_squarediamonds.svg	16	yes	57	0	802	6	6	antiphase_hc_ois.wav	3	6	5	noise_calib_stim_RIGHT.wav	2	32	blb_dichoticlistening_ta-da.mp3	ta	da	1	right
6.6.1	win	2023-06-02	02:36:23	02:49:55	808913	59dc458f77860e000151240e	1	1	main_slash	24	main_slash	45	stimuli_distractor_trianglediamonds.svg	stimuli_target_rectanglediamonds.svg	10	yes	53	1	1031	6	6	antiphase_hc_ois.wav	3	6	5	noise_calib_stim_RIGHT.wav	2	32	blb_dichoticlistening_ta-da.mp3	ta	da	1	right
6.6.1	win	2023-06-02	02:36:23	02:49:55	808913	59dc458f77860e000151240e	1	1	main_slash	24	advance_on_keypress_SLASH	46	stimuli_distractor_trianglediamonds.svg	stimuli_target_rectanglediamonds.svg	10	yes	57	0	549	6	6	antiphase_hc_ois.wav	3	6	5	noise_calib_stim_RIGHT.wav	2	32	blb_dichoticlistening_ta-da.mp3	ta	da	1	right
6.6.1	win	2023-06-02	02:36:23	02:49:58	810977	59dc458f77860e000151240e	1	1	main_slash	24	main_slash	47	stimuli_target_trianglesquares.svg	stimuli_distractor_diamondtriangles.svg	22	yes	53	1	862	6	6	antiphase_hc_ois.wav	3	6	5	noise_calib_stim_RIGHT.wav	2	32	blb_dichoticlistening_ta-da.mp3	ta	da	1	right
6.6.1	win	2023-06-02	02:36:23	02:49:58	810977	59dc458f77860e000151240e	1	1	main_slash	24	advance_on_keypress_SLASH	48	stimuli_target_trianglesquares.svg	stimuli_distractor_diamondtriangles.svg	22	yes	57	0	685	6	6	antiphase_hc_ois.wav	3	6	5	noise_calib_stim_RIGHT.wav	2	32	blb_dichoticlistening_ta-da.mp3	ta	da	1	right
6.6.1	win	2023-06-02	02:36:23	02:50:00	813169	59dc458f77860e000151240e	1	1	main_slash	24	main_slash	49	stimuli_target_diamondrectangles.svg	stimuli_distractor_trianglediamonds.svg	19	yes	53	1	871	6	6	antiphase_hc_ois.wav	3	6	5	noise_calib_stim_RIGHT.wav	2	32	blb_dichoticlistening_ta-da.mp3	ta	da	1	right
6.6.1	win	2023-06-02	02:36:23	02:50:00	813169	59dc458f77860e000151240e	1	1	main_slash	24	advance_on_keypress_SLASH	50	stimuli_target_diamondrectangles.svg	stimuli_distractor_trianglediamonds.svg	19	yes	57	0	651	6	6	antiphase_hc_ois.wav	3	6	5	noise_calib_stim_RIGHT.wav	2	32	blb_dichoticlistening_ta-da.mp3	ta	da	1	right
6.6.1	win	2023-06-02	02:36:23	02:50:02	815169	59dc458f77860e000151240e	1	1	main_slash	24	main_slash	51	stimuli_target_diamondsquares.svg	stimuli_distractor_diamondtriangles.svg	24	yes	53	1	704	6	6	antiphase_hc_ois.wav	3	6	5	noise_calib_stim_RIGHT.wav	2	32	blb_dichoticlistening_ta-da.mp3	ta	da	1	right
6.6.1	win	2023-06-02	02:36:23	02:50:02	815169	59dc458f77860e000151240e	1	1	main_slash	24	advance_on_keypress_SLASH	52	stimuli_target_diamondsquares.svg	stimuli_distractor_diamondtriangles.svg	24	yes	57	0	788	6	6	antiphase_hc_ois.wav	3	6	5	noise_calib_stim_RIGHT.wav	2	32	blb_dichoticlistening_ta-da.mp3	ta	da	1	right
6.6.1	win	2023-06-02	02:36:23	02:50:05	818598	59dc458f77860e000151240e	1	1	main_slash	24	main_slash	53	stimuli_distractor_trianglediamonds.svg	stimuli_distractor_trianglediamonds.svg	34	no	0	1	2000	6	6	antiphase_hc_ois.wav	3	6	5	noise_calib_stim_RIGHT.wav	2	32	blb_dichoticlistening_ta-da.mp3	ta	da	1	right
6.6.1	win	2023-06-02	02:36:23	02:50:05	818598	59dc458f77860e000151240e	1	1	main_slash	24	advance_on_keypress_SLASH	54	stimuli_distractor_trianglediamonds.svg	stimuli_distractor_trianglediamonds.svg	34	no	57	0	571	6	6	antiphase_hc_ois.wav	3	6	5	noise_calib_stim_RIGHT.wav	2	32	blb_dichoticlistening_ta-da.mp3	ta	da	1	right
6.6.1	win	2023-06-02	02:36:23	02:50:07	820513	59dc458f77860e000151240e	1	1	main_slash	24	main_slash	55	stimuli_target_squarediamonds.svg	stimuli_distractor_diamondtriangles.svg	8	yes	53	1	698	6	6	antiphase_hc_ois.wav	3	6	5	noise_calib_stim_RIGHT.wav	2	32	blb_dichoticlistening_ta-da.mp3	ta	da	1	right
6.6.1	win	2023-06-02	02:36:23	02:50:07	820513	59dc458f77860e000151240e	1	1	main_slash	24	advance_on_keypress_SLASH	56	stimuli_target_squarediamonds.svg	stimuli_distractor_diamondtriangles.svg	8	yes	57	0	622	6	6	antiphase_hc_ois.wav	3	6	5	noise_calib_stim_RIGHT.wav	2	32	blb_dichoticlistening_ta-da.mp3	ta	da	1	right
6.6.1	win	2023-06-02	02:36:23	02:50:09	822697	59dc458f77860e000151240e	1	1	main_slash	24	main_slash	57	stimuli_distractor_diamondtriangles.svg	stimuli_distractor_trianglediamonds.svg	37	no	53	0	916	6	6	antiphase_hc_ois.wav	3	6	5	noise_calib_stim_RIGHT.wav	2	32	blb_dichoticlistening_ta-da.mp3	ta	da	1	right
6.6.1	win	2023-06-02	02:36:23	02:50:09	822697	59dc458f77860e000151240e	1	1	main_slash	24	advance_on_keypress_SLASH	58	stimuli_distractor_diamondtriangles.svg	stimuli_distractor_trianglediamonds.svg	37	no	57	0	639	6	6	antiphase_hc_ois.wav	3	6	5	noise_calib_stim_RIGHT.wav	2	32	blb_dichoticlistening_ta-da.mp3	ta	da	1	right
6.6.1	win	2023-06-02	02:36:23	02:50:13	825981	59dc458f77860e000151240e	1	1	main_slash	24	main_slash	59	stimuli_distractor_trianglediamonds.svg	stimuli_distractor_diamondtriangles.svg	36	no	0	1	2000	6	6	antiphase_hc_ois.wav	3	6	5	noise_calib_stim_RIGHT.wav	2	32	blb_dichoticlistening_ta-da.mp3	ta	da	1	right
6.6.1	win	2023-06-02	02:36:23	02:50:13	825981	59dc458f77860e000151240e	1	1	main_slash	24	advance_on_keypress_SLASH	60	stimuli_distractor_trianglediamonds.svg	stimuli_distractor_diamondtriangles.svg	36	no	57	0	683	6	6	antiphase_hc_ois.wav	3	6	5	noise_calib_stim_RIGHT.wav	2	32	blb_dichoticlistening_ta-da.mp3	ta	da	1	right
6.6.1	win	2023-06-02	02:36:23	02:50:15	827945	59dc458f77860e000151240e	1	1	main_slash	24	main_slash	61	stimuli_distractor_diamondtriangles.svg	stimuli_target_diamondrectangles.svg	31	yes	53	1	631	6	6	antiphase_hc_ois.wav	3	6	5	noise_calib_stim_RIGHT.wav	2	32	blb_dichoticlistening_ta-da.mp3	ta	da	1	right
6.6.1	win	2023-06-02	02:36:23	02:50:15	827945	59dc458f77860e000151240e	1	1	main_slash	24	advance_on_keypress_SLASH	62	stimuli_distractor_diamondtriangles.svg	stimuli_target_diamondrectangles.svg	31	yes	57	0	741	6	6	antiphase_hc_ois.wav	3	6	5	noise_calib_stim_RIGHT.wav	2	32	blb_dichoticlistening_ta-da.mp3	ta	da	1	right
6.6.1	win	2023-06-02	02:36:23	02:50:17	830650	59dc458f77860e000151240e	1	1	main_slash	24	main_slash	63	stimuli_distractor_trianglediamonds.svg	stimuli_target_rectangletriangles.svg	9	yes	53	1	1319	6	6	antiphase_hc_ois.wav	3	6	5	noise_calib_stim_RIGHT.wav	2	32	blb_dichoticlistening_ta-da.mp3	ta	da	1	right
6.6.1	win	2023-06-02	02:36:23	02:50:17	830650	59dc458f77860e000151240e	1	1	main_slash	24	advance_on_keypress_SLASH	64	stimuli_distractor_trianglediamonds.svg	stimuli_target_rectangletriangles.svg	9	yes	57	0	617	6	6	antiphase_hc_ois.wav	3	6	5	noise_calib_stim_RIGHT.wav	2	32	blb_dichoticlistening_ta-da.mp3	ta	da	1	right
6.6.1	win	2023-06-02	02:36:23	02:50:19	832752	59dc458f77860e000151240e	1	1	main_slash	24	main_slash	65	stimuli_distractor_trianglediamonds.svg	stimuli_target_squarediamonds.svg	12	yes	53	1	839	6	6	antiphase_hc_ois.wav	3	6	5	noise_calib_stim_RIGHT.wav	2	32	blb_dichoticlistening_ta-da.mp3	ta	da	1	right
6.6.1	win	2023-06-02	02:36:23	02:50:19	832752	59dc458f77860e000151240e	1	1	main_slash	24	advance_on_keypress_SLASH	66	stimuli_distractor_trianglediamonds.svg	stimuli_target_squarediamonds.svg	12	yes	57	0	556	6	6	antiphase_hc_ois.wav	3	6	5	noise_calib_stim_RIGHT.wav	2	32	blb_dichoticlistening_ta-da.mp3	ta	da	1	right
6.6.1	win	2023-06-02	02:36:23	02:50:21	834777	59dc458f77860e000151240e	1	1	main_slash	24	main_slash	67	stimuli_target_trianglerectangles.svg	stimuli_distractor_trianglediamonds.svg	17	yes	53	1	830	6	6	antiphase_hc_ois.wav	3	6	5	noise_calib_stim_RIGHT.wav	2	32	blb_dichoticlistening_ta-da.mp3	ta	da	1	right
6.6.1	win	2023-06-02	02:36:23	02:50:21	834777	59dc458f77860e000151240e	1	1	main_slash	24	advance_on_keypress_SLASH	68	stimuli_target_trianglerectangles.svg	stimuli_distractor_trianglediamonds.svg	17	yes	57	0	507	6	6	antiphase_hc_ois.wav	3	6	5	noise_calib_stim_RIGHT.wav	2	32	blb_dichoticlistening_ta-da.mp3	ta	da	1	right
6.6.1	win	2023-06-02	02:36:23	02:50:24	837296	59dc458f77860e000151240e	1	1	main_slash	24	main_slash	69	stimuli_distractor_trianglediamonds.svg	stimuli_distractor_trianglediamonds.svg	33	no	53	0	1365	6	6	antiphase_hc_ois.wav	3	6	5	noise_calib_stim_RIGHT.wav	2	32	blb_dichoticlistening_ta-da.mp3	ta	da	1	right
6.6.1	win	2023-06-02	02:36:23	02:50:24	837296	59dc458f77860e000151240e	1	1	main_slash	24	advance_on_keypress_SLASH	70	stimuli_distractor_trianglediamonds.svg	stimuli_distractor_trianglediamonds.svg	33	no	57	0	519	6	6	antiphase_hc_ois.wav	3	6	5	noise_calib_stim_RIGHT.wav	2	32	blb_dichoticlistening_ta-da.mp3	ta	da	1	right
6.6.1	win	2023-06-02	02:36:23	02:50:26	839297	59dc458f77860e000151240e	1	1	main_slash	24	main_slash	71	stimuli_target_rectangletriangles.svg	stimuli_distractor_trianglediamonds.svg	1	yes	53	1	833	6	6	antiphase_hc_ois.wav	3	6	5	noise_calib_stim_RIGHT.wav	2	32	blb_dichoticlistening_ta-da.mp3	ta	da	1	right
6.6.1	win	2023-06-02	02:36:23	02:50:26	839297	59dc458f77860e000151240e	1	1	main_slash	24	advance_on_keypress_SLASH	72	stimuli_target_rectangletriangles.svg	stimuli_distractor_trianglediamonds.svg	1	yes	57	0	526	6	6	antiphase_hc_ois.wav	3	6	5	noise_calib_stim_RIGHT.wav	2	32	blb_dichoticlistening_ta-da.mp3	ta	da	1	right
6.6.1	win	2023-06-02	02:36:23	02:50:28	841305	59dc458f77860e000151240e	1	1	main_slash	24	main_slash	73	stimuli_target_rectanglediamonds.svg	stimuli_distractor_trianglediamonds.svg	2	yes	53	1	841	6	6	antiphase_hc_ois.wav	3	6	5	noise_calib_stim_RIGHT.wav	2	32	blb_dichoticlistening_ta-da.mp3	ta	da	1	right
6.6.1	win	2023-06-02	02:36:23	02:50:28	841305	59dc458f77860e000151240e	1	1	main_slash	24	advance_on_keypress_SLASH	74	stimuli_target_rectanglediamonds.svg	stimuli_distractor_trianglediamonds.svg	2	yes	57	0	486	6	6	antiphase_hc_ois.wav	3	6	5	noise_calib_stim_RIGHT.wav	2	32	blb_dichoticlistening_ta-da.mp3	ta	da	1	right
6.6.1	win	2023-06-02	02:36:23	02:50:30	843160	59dc458f77860e000151240e	1	1	main_slash	24	main_slash	75	stimuli_distractor_diamondtriangles.svg	stimuli_target_squaretriangles.svg	15	yes	53	1	730	6	6	antiphase_hc_ois.wav	3	6	5	noise_calib_stim_RIGHT.wav	2	32	blb_dichoticlistening_ta-da.mp3	ta	da	1	right
6.6.1	win	2023-06-02	02:36:23	02:50:30	843160	59dc458f77860e000151240e	1	1	main_slash	24	advance_on_keypress_SLASH	76	stimuli_distractor_diamondtriangles.svg	stimuli_target_squaretriangles.svg	15	yes	57	0	501	6	6	antiphase_hc_ois.wav	3	6	5	noise_calib_stim_RIGHT.wav	2	32	blb_dichoticlistening_ta-da.mp3	ta	da	1	right
6.6.1	win	2023-06-02	02:36:23	02:50:32	845081	59dc458f77860e000151240e	1	1	main_slash	24	main_slash	77	stimuli_distractor_diamondtriangles.svg	stimuli_target_rectangletriangles.svg	13	yes	53	1	784	6	6	antiphase_hc_ois.wav	3	6	5	noise_calib_stim_RIGHT.wav	2	32	blb_dichoticlistening_ta-da.mp3	ta	da	1	right
6.6.1	win	2023-06-02	02:36:23	02:50:32	845081	59dc458f77860e000151240e	1	1	main_slash	24	advance_on_keypress_SLASH	78	stimuli_distractor_diamondtriangles.svg	stimuli_target_rectangletriangles.svg	13	yes	57	0	520	6	6	antiphase_hc_ois.wav	3	6	5	noise_calib_stim_RIGHT.wav	2	32	blb_dichoticlistening_ta-da.mp3	ta	da	1	right
6.6.1	win	2023-06-02	02:36:23	02:50:34	847072	59dc458f77860e000151240e	1	1	main_slash	24	main_slash	79	stimuli_distractor_trianglediamonds.svg	stimuli_target_diamondsquares.svg	28	yes	53	1	825	6	6	antiphase_hc_ois.wav	3	6	5	noise_calib_stim_RIGHT.wav	2	32	blb_dichoticlistening_ta-da.mp3	ta	da	1	right
6.6.1	win	2023-06-02	02:36:23	02:50:34	847072	59dc458f77860e000151240e	1	1	main_slash	24	advance_on_keypress_SLASH	80	stimuli_distractor_trianglediamonds.svg	stimuli_target_diamondsquares.svg	28	yes	57	0	568	6	6	antiphase_hc_ois.wav	3	6	5	noise_calib_stim_RIGHT.wav	2	32	blb_dichoticlistening_ta-da.mp3	ta	da	1	right
6.6.1	win	2023-06-02	02:36:23	02:50:36	848960	59dc458f77860e000151240e	1	1	main_slash	24	main_slash	81	stimuli_target_diamondrectangles.svg	stimuli_distractor_diamondtriangles.svg	23	yes	53	1	680	6	6	antiphase_hc_ois.wav	3	6	5	noise_calib_stim_RIGHT.wav	2	32	blb_dichoticlistening_ta-da.mp3	ta	da	1	right
6.6.1	win	2023-06-02	02:36:23	02:50:36	848960	59dc458f77860e000151240e	1	1	main_slash	24	advance_on_keypress_SLASH	82	stimuli_target_diamondrectangles.svg	stimuli_distractor_diamondtriangles.svg	23	yes	57	0	484	6	6	antiphase_hc_ois.wav	3	6	5	noise_calib_stim_RIGHT.wav	2	32	blb_dichoticlistening_ta-da.mp3	ta	da	1	right
6.6.1	win	2023-06-02	02:36:23	02:50:37	850857	59dc458f77860e000151240e	1	1	main_slash	24	main_slash	83	stimuli_distractor_trianglediamonds.svg	stimuli_target_diamondsquares.svg	28	yes	53	1	760	6	6	antiphase_hc_ois.wav	3	6	5	noise_calib_stim_RIGHT.wav	2	32	blb_dichoticlistening_ta-da.mp3	ta	da	1	right
6.6.1	win	2023-06-02	02:36:23	02:50:37	850857	59dc458f77860e000151240e	1	1	main_slash	24	advance_on_keypress_SLASH	84	stimuli_distractor_trianglediamonds.svg	stimuli_target_diamondsquares.svg	28	yes	57	0	545	6	6	antiphase_hc_ois.wav	3	6	5	noise_calib_stim_RIGHT.wav	2	32	blb_dichoticlistening_ta-da.mp3	ta	da	1	right
6.6.1	win	2023-06-02	02:36:23	02:50:39	852840	59dc458f77860e000151240e	1	1	main_slash	24	main_slash	85	stimuli_distractor_diamondtriangles.svg	stimuli_distractor_diamondtriangles.svg	39	no	53	0	810	6	6	antiphase_hc_ois.wav	3	6	5	noise_calib_stim_RIGHT.wav	2	32	blb_dichoticlistening_ta-da.mp3	ta	da	1	right
6.6.1	win	2023-06-02	02:36:23	02:50:39	852840	59dc458f77860e000151240e	1	1	main_slash	24	advance_on_keypress_SLASH	86	stimuli_distractor_diamondtriangles.svg	stimuli_distractor_diamondtriangles.svg	39	no	57	0	513	6	6	antiphase_hc_ois.wav	3	6	5	noise_calib_stim_RIGHT.wav	2	32	blb_dichoticlistening_ta-da.mp3	ta	da	1	right
6.6.1	win	2023-06-02	02:36:23	02:50:41	854656	59dc458f77860e000151240e	1	1	main_slash	24	main_slash	87	stimuli_distractor_diamondtriangles.svg	stimuli_target_diamondrectangles.svg	31	yes	53	1	659	6	6	antiphase_hc_ois.wav	3	6	5	noise_calib_stim_RIGHT.wav	2	32	blb_dichoticlistening_ta-da.mp3	ta	da	1	right
6.6.1	win	2023-06-02	02:36:23	02:50:41	854656	59dc458f77860e000151240e	1	1	main_slash	24	advance_on_keypress_SLASH	88	stimuli_distractor_diamondtriangles.svg	stimuli_target_diamondrectangles.svg	31	yes	57	0	560	6	6	antiphase_hc_ois.wav	3	6	5	noise_calib_stim_RIGHT.wav	2	32	blb_dichoticlistening_ta-da.mp3	ta	da	1	right
6.6.1	win	2023-06-02	02:36:23	02:50:43	856519	59dc458f77860e000151240e	1	1	main_slash	24	main_slash	89	stimuli_target_squarediamonds.svg	stimuli_distractor_trianglediamonds.svg	4	yes	53	1	674	6	6	antiphase_hc_ois.wav	3	6	5	noise_calib_stim_RIGHT.wav	2	32	blb_dichoticlistening_ta-da.mp3	ta	da	1	right
6.6.1	win	2023-06-02	02:36:23	02:50:43	856519	59dc458f77860e000151240e	1	1	main_slash	24	advance_on_keypress_SLASH	90	stimuli_target_squarediamonds.svg	stimuli_distractor_trianglediamonds.svg	4	yes	57	0	590	6	6	antiphase_hc_ois.wav	3	6	5	noise_calib_stim_RIGHT.wav	2	32	blb_dichoticlistening_ta-da.mp3	ta	da	1	right
6.6.1	win	2023-06-02	02:36:23	02:50:45	858528	59dc458f77860e000151240e	1	1	main_slash	24	main_slash	91	stimuli_target_trianglerectangles.svg	stimuli_distractor_diamondtriangles.svg	21	yes	53	1	782	6	6	antiphase_hc_ois.wav	3	6	5	noise_calib_stim_RIGHT.wav	2	32	blb_dichoticlistening_ta-da.mp3	ta	da	1	right
6.6.1	win	2023-06-02	02:36:23	02:50:45	858528	59dc458f77860e000151240e	1	1	main_slash	24	advance_on_keypress_SLASH	92	stimuli_target_trianglerectangles.svg	stimuli_distractor_diamondtriangles.svg	21	yes	57	0	511	6	6	antiphase_hc_ois.wav	3	6	5	noise_calib_stim_RIGHT.wav	2	32	blb_dichoticlistening_ta-da.mp3	ta	da	1	right
6.6.1	win	2023-06-02	02:36:23	02:50:47	860440	59dc458f77860e000151240e	1	1	main_slash	24	main_slash	93	stimuli_target_rectangletriangles.svg	stimuli_distractor_diamondtriangles.svg	5	yes	53	1	760	6	6	antiphase_hc_ois.wav	3	6	5	noise_calib_stim_RIGHT.wav	2	32	blb_dichoticlistening_ta-da.mp3	ta	da	1	right
6.6.1	win	2023-06-02	02:36:23	02:50:47	860440	59dc458f77860e000151240e	1	1	main_slash	24	advance_on_keypress_SLASH	94	stimuli_target_rectangletriangles.svg	stimuli_distractor_diamondtriangles.svg	5	yes	57	0	490	6	6	antiphase_hc_ois.wav	3	6	5	noise_calib_stim_RIGHT.wav	2	32	blb_dichoticlistening_ta-da.mp3	ta	da	1	right
6.6.1	win	2023-06-02	02:36:23	02:50:49	862175	59dc458f77860e000151240e	1	1	main_slash	24	main_slash	95	stimuli_distractor_diamondtriangles.svg	stimuli_target_squarediamonds.svg	16	yes	53	1	613	6	6	antiphase_hc_ois.wav	3	6	5	noise_calib_stim_RIGHT.wav	2	32	blb_dichoticlistening_ta-da.mp3	ta	da	1	right
6.6.1	win	2023-06-02	02:36:23	02:50:49	862175	59dc458f77860e000151240e	1	1	main_slash	24	advance_on_keypress_SLASH	96	stimuli_distractor_diamondtriangles.svg	stimuli_target_squarediamonds.svg	16	yes	57	0	573	6	6	antiphase_hc_ois.wav	3	6	5	noise_calib_stim_RIGHT.wav	2	32	blb_dichoticlistening_ta-da.mp3	ta	da	1	right
6.6.1	win	2023-06-02	02:36:23	02:50:51	864095	59dc458f77860e000151240e	1	1	main_slash	24	main_slash	97	stimuli_distractor_trianglediamonds.svg	stimuli_target_trianglesquares.svg	26	yes	53	1	716	6	6	antiphase_hc_ois.wav	3	6	5	noise_calib_stim_RIGHT.wav	2	32	blb_dichoticlistening_ta-da.mp3	ta	da	1	right
6.6.1	win	2023-06-02	02:36:23	02:50:51	864095	59dc458f77860e000151240e	1	1	main_slash	24	advance_on_keypress_SLASH	98	stimuli_distractor_trianglediamonds.svg	stimuli_target_trianglesquares.svg	26	yes	57	0	543	6	6	antiphase_hc_ois.wav	3	6	5	noise_calib_stim_RIGHT.wav	2	32	blb_dichoticlistening_ta-da.mp3	ta	da	1	right
6.6.1	win	2023-06-02	02:36:23	02:50:53	866087	59dc458f77860e000151240e	1	1	main_slash	24	main_slash	99	stimuli_distractor_trianglediamonds.svg	stimuli_target_squaretriangles.svg	11	yes	53	1	809	6	6	antiphase_hc_ois.wav	3	6	5	noise_calib_stim_RIGHT.wav	2	32	blb_dichoticlistening_ta-da.mp3	ta	da	1	right
6.6.1	win	2023-06-02	02:36:23	02:50:53	866087	59dc458f77860e000151240e	1	1	main_slash	24	advance_on_keypress_SLASH	100	stimuli_distractor_trianglediamonds.svg	stimuli_target_squaretriangles.svg	11	yes	57	0	503	6	6	antiphase_hc_ois.wav	3	6	5	noise_calib_stim_RIGHT.wav	2	32	blb_dichoticlistening_ta-da.mp3	ta	da	1	right
6.6.1	win	2023-06-02	02:36:23	02:50:54	867927	59dc458f77860e000151240e	1	1	main_slash	24	main_slash	101	stimuli_target_trianglesquares.svg	stimuli_distractor_diamondtriangles.svg	22	yes	53	1	698	6	6	antiphase_hc_ois.wav	3	6	5	noise_calib_stim_RIGHT.wav	2	32	blb_dichoticlistening_ta-da.mp3	ta	da	1	right
6.6.1	win	2023-06-02	02:36:23	02:50:54	867927	59dc458f77860e000151240e	1	1	main_slash	24	advance_on_keypress_SLASH	102	stimuli_target_trianglesquares.svg	stimuli_distractor_diamondtriangles.svg	22	yes	57	0	446	6	6	antiphase_hc_ois.wav	3	6	5	noise_calib_stim_RIGHT.wav	2	32	blb_dichoticlistening_ta-da.mp3	ta	da	1	right
6.6.1	win	2023-06-02	02:36:23	02:50:56	869776	59dc458f77860e000151240e	1	1	main_slash	24	main_slash	103	stimuli_target_rectanglediamonds.svg	stimuli_distractor_trianglediamonds.svg	2	yes	53	1	763	6	6	antiphase_hc_ois.wav	3	6	5	noise_calib_stim_RIGHT.wav	2	32	blb_dichoticlistening_ta-da.mp3	ta	da	1	right
6.6.1	win	2023-06-02	02:36:23	02:50:56	869776	59dc458f77860e000151240e	1	1	main_slash	24	advance_on_keypress_SLASH	104	stimuli_target_rectanglediamonds.svg	stimuli_distractor_trianglediamonds.svg	2	yes	57	0	460	6	6	antiphase_hc_ois.wav	3	6	5	noise_calib_stim_RIGHT.wav	2	32	blb_dichoticlistening_ta-da.mp3	ta	da	1	right
6.6.1	win	2023-06-02	02:36:23	02:50:58	871639	59dc458f77860e000151240e	1	1	main_slash	24	main_slash	105	stimuli_target_rectanglediamonds.svg	stimuli_distractor_diamondtriangles.svg	6	yes	53	1	776	6	6	antiphase_hc_ois.wav	3	6	5	noise_calib_stim_RIGHT.wav	2	32	blb_dichoticlistening_ta-da.mp3	ta	da	1	right
6.6.1	win	2023-06-02	02:36:23	02:50:58	871639	59dc458f77860e000151240e	1	1	main_slash	24	advance_on_keypress_SLASH	106	stimuli_target_rectanglediamonds.svg	stimuli_distractor_diamondtriangles.svg	6	yes	57	0	482	6	6	antiphase_hc_ois.wav	3	6	5	noise_calib_stim_RIGHT.wav	2	32	blb_dichoticlistening_ta-da.mp3	ta	da	1	right
6.6.1	win	2023-06-02	02:36:23	02:51:01	874763	59dc458f77860e000151240e	1	1	main_slash	24	main_slash	107	stimuli_distractor_trianglediamonds.svg	stimuli_distractor_diamondtriangles.svg	35	no	0	1	2000	6	6	antiphase_hc_ois.wav	3	6	5	noise_calib_stim_RIGHT.wav	2	32	blb_dichoticlistening_ta-da.mp3	ta	da	1	right
6.6.1	win	2023-06-02	02:36:23	02:51:01	874763	59dc458f77860e000151240e	1	1	main_slash	24	advance_on_keypress_SLASH	108	stimuli_distractor_trianglediamonds.svg	stimuli_distractor_diamondtriangles.svg	35	no	57	0	516	6	6	antiphase_hc_ois.wav	3	6	5	noise_calib_stim_RIGHT.wav	2	32	blb_dichoticlistening_ta-da.mp3	ta	da	1	right
6.6.1	win	2023-06-02	02:36:23	02:51:03	876735	59dc458f77860e000151240e	1	1	main_slash	24	main_slash	109	stimuli_distractor_trianglediamonds.svg	stimuli_target_trianglerectangles.svg	25	yes	53	1	806	6	6	antiphase_hc_ois.wav	3	6	5	noise_calib_stim_RIGHT.wav	2	32	blb_dichoticlistening_ta-da.mp3	ta	da	1	right
6.6.1	win	2023-06-02	02:36:23	02:51:03	876735	59dc458f77860e000151240e	1	1	main_slash	24	advance_on_keypress_SLASH	110	stimuli_distractor_trianglediamonds.svg	stimuli_target_trianglerectangles.svg	25	yes	57	0	637	6	6	antiphase_hc_ois.wav	3	6	5	noise_calib_stim_RIGHT.wav	2	32	blb_dichoticlistening_ta-da.mp3	ta	da	1	right
6.6.1	win	2023-06-02	02:36:23	02:51:05	878759	59dc458f77860e000151240e	1	1	main_slash	24	main_slash	111	stimuli_distractor_diamondtriangles.svg	stimuli_target_trianglesquares.svg	30	yes	53	1	746	6	6	antiphase_hc_ois.wav	3	6	5	noise_calib_stim_RIGHT.wav	2	32	blb_dichoticlistening_ta-da.mp3	ta	da	1	right
6.6.1	win	2023-06-02	02:36:23	02:51:05	878759	59dc458f77860e000151240e	1	1	main_slash	24	advance_on_keypress_SLASH	112	stimuli_distractor_diamondtriangles.svg	stimuli_target_trianglesquares.svg	30	yes	57	0	556	6	6	antiphase_hc_ois.wav	3	6	5	noise_calib_stim_RIGHT.wav	2	32	blb_dichoticlistening_ta-da.mp3	ta	da	1	right
6.6.1	win	2023-06-02	02:36:23	02:51:07	880567	59dc458f77860e000151240e	1	1	main_slash	24	main_slash	113	stimuli_distractor_diamondtriangles.svg	stimuli_target_diamondsquares.svg	32	yes	53	1	605	6	6	antiphase_hc_ois.wav	3	6	5	noise_calib_stim_RIGHT.wav	2	32	blb_dichoticlistening_ta-da.mp3	ta	da	1	right
6.6.1	win	2023-06-02	02:36:23	02:51:07	880567	59dc458f77860e000151240e	1	1	main_slash	24	advance_on_keypress_SLASH	114	stimuli_distractor_diamondtriangles.svg	stimuli_target_diamondsquares.svg	32	yes	57	0	556	6	6	antiphase_hc_ois.wav	3	6	5	noise_calib_stim_RIGHT.wav	2	32	blb_dichoticlistening_ta-da.mp3	ta	da	1	right
6.6.1	win	2023-06-02	02:36:23	02:51:10	883762	59dc458f77860e000151240e	1	1	main_slash	24	main_slash	115	stimuli_distractor_diamondtriangles.svg	stimuli_distractor_diamondtriangles.svg	40	no	0	1	2000	6	6	antiphase_hc_ois.wav	3	6	5	noise_calib_stim_RIGHT.wav	2	32	blb_dichoticlistening_ta-da.mp3	ta	da	1	right
6.6.1	win	2023-06-02	02:36:23	02:51:10	883762	59dc458f77860e000151240e	1	1	main_slash	24	advance_on_keypress_SLASH	116	stimuli_distractor_diamondtriangles.svg	stimuli_distractor_diamondtriangles.svg	40	no	57	0	532	6	6	antiphase_hc_ois.wav	3	6	5	noise_calib_stim_RIGHT.wav	2	32	blb_dichoticlistening_ta-da.mp3	ta	da	1	right
6.6.1	win	2023-06-02	02:36:23	02:51:14	886945	59dc458f77860e000151240e	1	1	main_slash	24	main_slash	117	stimuli_distractor_diamondtriangles.svg	stimuli_distractor_trianglediamonds.svg	38	no	0	1	2000	6	6	antiphase_hc_ois.wav	3	6	5	noise_calib_stim_RIGHT.wav	2	32	blb_dichoticlistening_ta-da.mp3	ta	da	1	right
6.6.1	win	2023-06-02	02:36:23	02:51:14	886945	59dc458f77860e000151240e	1	1	main_slash	24	advance_on_keypress_SLASH	118	stimuli_distractor_diamondtriangles.svg	stimuli_distractor_trianglediamonds.svg	38	no	57	0	501	6	6	antiphase_hc_ois.wav	3	6	5	noise_calib_stim_RIGHT.wav	2	32	blb_dichoticlistening_ta-da.mp3	ta	da	1	right
6.6.1	win	2023-06-02	02:36:23	02:51:15	888903	59dc458f77860e000151240e	1	1	main_slash	24	main_slash	119	stimuli_target_trianglerectangles.svg	stimuli_distractor_trianglediamonds.svg	17	yes	53	1	808	6	6	antiphase_hc_ois.wav	3	6	5	noise_calib_stim_RIGHT.wav	2	32	blb_dichoticlistening_ta-da.mp3	ta	da	1	right
6.6.1	win	2023-06-02	02:36:23	02:51:15	888903	59dc458f77860e000151240e	1	1	main_slash	24	advance_on_keypress_SLASH	120	stimuli_target_trianglerectangles.svg	stimuli_distractor_trianglediamonds.svg	17	yes	57	0	607	6	6	antiphase_hc_ois.wav	3	6	5	noise_calib_stim_RIGHT.wav	2	32	blb_dichoticlistening_ta-da.mp3	ta	da	1	right
6.6.1	win	2023-06-02	02:36:23	02:51:17	890902	59dc458f77860e000151240e	1	1	main_slash	24	main_slash	121	stimuli_target_diamondsquares.svg	stimuli_distractor_diamondtriangles.svg	24	yes	53	1	758	6	6	antiphase_hc_ois.wav	3	6	5	noise_calib_stim_RIGHT.wav	2	32	blb_dichoticlistening_ta-da.mp3	ta	da	1	right
6.6.1	win	2023-06-02	02:36:23	02:51:17	890902	59dc458f77860e000151240e	1	1	main_slash	24	advance_on_keypress_SLASH	122	stimuli_target_diamondsquares.svg	stimuli_distractor_diamondtriangles.svg	24	yes	57	0	488	6	6	antiphase_hc_ois.wav	3	6	5	noise_calib_stim_RIGHT.wav	2	32	blb_dichoticlistening_ta-da.mp3	ta	da	1	right
6.6.1	win	2023-06-02	02:36:23	02:51:21	894028	59dc458f77860e000151240e	1	1	main_slash	24	main_slash	123	stimuli_distractor_trianglediamonds.svg	stimuli_distractor_trianglediamonds.svg	33	no	0	1	2000	6	6	antiphase_hc_ois.wav	3	6	5	noise_calib_stim_RIGHT.wav	2	32	blb_dichoticlistening_ta-da.mp3	ta	da	1	right
6.6.1	win	2023-06-02	02:36:23	02:51:21	894028	59dc458f77860e000151240e	1	1	main_slash	24	advance_on_keypress_SLASH	124	stimuli_distractor_trianglediamonds.svg	stimuli_distractor_trianglediamonds.svg	33	no	57	0	522	6	6	antiphase_hc_ois.wav	3	6	5	noise_calib_stim_RIGHT.wav	2	32	blb_dichoticlistening_ta-da.mp3	ta	da	1	right
6.6.1	win	2023-06-02	02:36:23	02:51:24	897195	59dc458f77860e000151240e	1	1	main_slash	24	main_slash	125	stimuli_distractor_trianglediamonds.svg	stimuli_distractor_diamondtriangles.svg	36	no	0	1	2000	6	6	antiphase_hc_ois.wav	3	6	5	noise_calib_stim_RIGHT.wav	2	32	blb_dichoticlistening_ta-da.mp3	ta	da	1	right
6.6.1	win	2023-06-02	02:36:23	02:51:24	897195	59dc458f77860e000151240e	1	1	main_slash	24	advance_on_keypress_SLASH	126	stimuli_distractor_trianglediamonds.svg	stimuli_distractor_diamondtriangles.svg	36	no	57	0	548	6	6	antiphase_hc_ois.wav	3	6	5	noise_calib_stim_RIGHT.wav	2	32	blb_dichoticlistening_ta-da.mp3	ta	da	1	right
6.6.1	win	2023-06-02	02:36:23	02:51:26	899118	59dc458f77860e000151240e	1	1	main_slash	24	main_slash	127	stimuli_distractor_diamondtriangles.svg	stimuli_target_trianglerectangles.svg	29	yes	53	1	724	6	6	antiphase_hc_ois.wav	3	6	5	noise_calib_stim_RIGHT.wav	2	32	blb_dichoticlistening_ta-da.mp3	ta	da	1	right
6.6.1	win	2023-06-02	02:36:23	02:51:26	899118	59dc458f77860e000151240e	1	1	main_slash	24	advance_on_keypress_SLASH	128	stimuli_distractor_diamondtriangles.svg	stimuli_target_trianglerectangles.svg	29	yes	57	0	646	6	6	antiphase_hc_ois.wav	3	6	5	noise_calib_stim_RIGHT.wav	2	32	blb_dichoticlistening_ta-da.mp3	ta	da	1	right
6.6.1	win	2023-06-02	02:36:23	02:51:29	902395	59dc458f77860e000151240e	1	1	main_slash	24	main_slash	129	stimuli_distractor_diamondtriangles.svg	stimuli_distractor_trianglediamonds.svg	37	no	0	1	2000	6	6	antiphase_hc_ois.wav	3	6	5	noise_calib_stim_RIGHT.wav	2	32	blb_dichoticlistening_ta-da.mp3	ta	da	1	right
6.6.1	win	2023-06-02	02:36:23	02:51:29	902395	59dc458f77860e000151240e	1	1	main_slash	24	advance_on_keypress_SLASH	130	stimuli_distractor_diamondtriangles.svg	stimuli_distractor_trianglediamonds.svg	37	no	57	0	467	6	6	antiphase_hc_ois.wav	3	6	5	noise_calib_stim_RIGHT.wav	2	32	blb_dichoticlistening_ta-da.mp3	ta	da	1	right
6.6.1	win	2023-06-02	02:36:23	02:51:31	904206	59dc458f77860e000151240e	1	1	main_slash	24	main_slash	131	stimuli_target_squarediamonds.svg	stimuli_distractor_diamondtriangles.svg	8	yes	53	1	695	6	6	antiphase_hc_ois.wav	3	6	5	noise_calib_stim_RIGHT.wav	2	32	blb_dichoticlistening_ta-da.mp3	ta	da	1	right
6.6.1	win	2023-06-02	02:36:23	02:51:31	904206	59dc458f77860e000151240e	1	1	main_slash	24	advance_on_keypress_SLASH	132	stimuli_target_squarediamonds.svg	stimuli_distractor_diamondtriangles.svg	8	yes	57	0	475	6	6	antiphase_hc_ois.wav	3	6	5	noise_calib_stim_RIGHT.wav	2	32	blb_dichoticlistening_ta-da.mp3	ta	da	1	right
6.6.1	win	2023-06-02	02:36:23	02:51:33	906038	59dc458f77860e000151240e	1	1	main_slash	24	main_slash	133	stimuli_distractor_diamondtriangles.svg	stimuli_target_squaretriangles.svg	15	yes	53	1	727	6	6	antiphase_hc_ois.wav	3	6	5	noise_calib_stim_RIGHT.wav	2	32	blb_dichoticlistening_ta-da.mp3	ta	da	1	right
6.6.1	win	2023-06-02	02:36:23	02:51:33	906038	59dc458f77860e000151240e	1	1	main_slash	24	advance_on_keypress_SLASH	134	stimuli_distractor_diamondtriangles.svg	stimuli_target_squaretriangles.svg	15	yes	57	0	546	6	6	antiphase_hc_ois.wav	3	6	5	noise_calib_stim_RIGHT.wav	2	32	blb_dichoticlistening_ta-da.mp3	ta	da	1	right
6.6.1	win	2023-06-02	02:36:23	02:51:34	907902	59dc458f77860e000151240e	1	1	main_slash	24	main_slash	135	stimuli_distractor_trianglediamonds.svg	stimuli_target_rectanglediamonds.svg	10	yes	53	1	692	6	6	antiphase_hc_ois.wav	3	6	5	noise_calib_stim_RIGHT.wav	2	32	blb_dichoticlistening_ta-da.mp3	ta	da	1	right
6.6.1	win	2023-06-02	02:36:23	02:51:34	907902	59dc458f77860e000151240e	1	1	main_slash	24	advance_on_keypress_SLASH	136	stimuli_distractor_trianglediamonds.svg	stimuli_target_rectanglediamonds.svg	10	yes	57	0	489	6	6	antiphase_hc_ois.wav	3	6	5	noise_calib_stim_RIGHT.wav	2	32	blb_dichoticlistening_ta-da.mp3	ta	da	1	right
6.6.1	win	2023-06-02	02:36:23	02:51:36	909806	59dc458f77860e000151240e	1	1	main_slash	24	main_slash	137	stimuli_distractor_trianglediamonds.svg	stimuli_target_rectangletriangles.svg	9	yes	53	1	778	6	6	antiphase_hc_ois.wav	3	6	5	noise_calib_stim_RIGHT.wav	2	32	blb_dichoticlistening_ta-da.mp3	ta	da	1	right
6.6.1	win	2023-06-02	02:36:23	02:51:36	909806	59dc458f77860e000151240e	1	1	main_slash	24	advance_on_keypress_SLASH	138	stimuli_distractor_trianglediamonds.svg	stimuli_target_rectangletriangles.svg	9	yes	57	0	563	6	6	antiphase_hc_ois.wav	3	6	5	noise_calib_stim_RIGHT.wav	2	32	blb_dichoticlistening_ta-da.mp3	ta	da	1	right
6.6.1	win	2023-06-02	02:36:23	02:51:38	911678	59dc458f77860e000151240e	1	1	main_slash	24	main_slash	139	stimuli_distractor_diamondtriangles.svg	stimuli_target_rectangletriangles.svg	13	yes	53	1	684	6	6	antiphase_hc_ois.wav	3	6	5	noise_calib_stim_RIGHT.wav	2	32	blb_dichoticlistening_ta-da.mp3	ta	da	1	right
6.6.1	win	2023-06-02	02:36:23	02:51:38	911678	59dc458f77860e000151240e	1	1	main_slash	24	advance_on_keypress_SLASH	140	stimuli_distractor_diamondtriangles.svg	stimuli_target_rectangletriangles.svg	13	yes	57	0	472	6	6	antiphase_hc_ois.wav	3	6	5	noise_calib_stim_RIGHT.wav	2	32	blb_dichoticlistening_ta-da.mp3	ta	da	1	right
6.6.1	win	2023-06-02	02:36:23	02:51:40	913574	59dc458f77860e000151240e	1	1	main_slash	24	main_slash	141	stimuli_distractor_trianglediamonds.svg	stimuli_target_diamondrectangles.svg	27	yes	53	1	780	6	6	antiphase_hc_ois.wav	3	6	5	noise_calib_stim_RIGHT.wav	2	32	blb_dichoticlistening_ta-da.mp3	ta	da	1	right
6.6.1	win	2023-06-02	02:36:23	02:51:40	913574	59dc458f77860e000151240e	1	1	main_slash	24	advance_on_keypress_SLASH	142	stimuli_distractor_trianglediamonds.svg	stimuli_target_diamondrectangles.svg	27	yes	57	0	509	6	6	antiphase_hc_ois.wav	3	6	5	noise_calib_stim_RIGHT.wav	2	32	blb_dichoticlistening_ta-da.mp3	ta	da	1	right
6.6.1	win	2023-06-02	02:36:23	02:51:43	916711	59dc458f77860e000151240e	1	1	main_slash	24	main_slash	143	stimuli_target_diamondrectangles.svg	stimuli_distractor_trianglediamonds.svg	19	yes	0	0	2000	6	6	antiphase_hc_ois.wav	3	6	5	noise_calib_stim_RIGHT.wav	2	32	blb_dichoticlistening_ta-da.mp3	ta	da	1	right
6.6.1	win	2023-06-02	02:36:23	02:51:43	916711	59dc458f77860e000151240e	1	1	main_slash	24	advance_on_keypress_SLASH	144	stimuli_target_diamondrectangles.svg	stimuli_distractor_trianglediamonds.svg	19	yes	57	0	736	6	6	antiphase_hc_ois.wav	3	6	5	noise_calib_stim_RIGHT.wav	2	32	blb_dichoticlistening_ta-da.mp3	ta	da	1	right
6.6.1	win	2023-06-02	02:36:23	02:51:45	918902	59dc458f77860e000151240e	1	1	main_slash	24	main_slash	145	stimuli_target_rectangletriangles.svg	stimuli_distractor_trianglediamonds.svg	1	yes	53	1	808	6	6	antiphase_hc_ois.wav	3	6	5	noise_calib_stim_RIGHT.wav	2	32	blb_dichoticlistening_ta-da.mp3	ta	da	1	right
6.6.1	win	2023-06-02	02:36:23	02:51:45	918902	59dc458f77860e000151240e	1	1	main_slash	24	advance_on_keypress_SLASH	146	stimuli_target_rectangletriangles.svg	stimuli_distractor_trianglediamonds.svg	1	yes	57	0	543	6	6	antiphase_hc_ois.wav	3	6	5	noise_calib_stim_RIGHT.wav	2	32	blb_dichoticlistening_ta-da.mp3	ta	da	1	right
6.6.1	win	2023-06-02	02:36:23	02:51:49	922077	59dc458f77860e000151240e	1	1	main_slash	24	main_slash	147	stimuli_distractor_trianglediamonds.svg	stimuli_distractor_trianglediamonds.svg	34	no	0	1	2000	6	6	antiphase_hc_ois.wav	3	6	5	noise_calib_stim_RIGHT.wav	2	32	blb_dichoticlistening_ta-da.mp3	ta	da	1	right
6.6.1	win	2023-06-02	02:36:23	02:51:49	922077	59dc458f77860e000151240e	1	1	main_slash	24	advance_on_keypress_SLASH	148	stimuli_distractor_trianglediamonds.svg	stimuli_distractor_trianglediamonds.svg	34	no	57	0	392	6	6	antiphase_hc_ois.wav	3	6	5	noise_calib_stim_RIGHT.wav	2	32	blb_dichoticlistening_ta-da.mp3	ta	da	1	right
6.6.1	win	2023-06-02	02:36:23	02:51:50	923628	59dc458f77860e000151240e	1	1	main_slash	24	main_slash	149	stimuli_target_squaretriangles.svg	stimuli_distractor_diamondtriangles.svg	7	yes	53	1	512	6	6	antiphase_hc_ois.wav	3	6	5	noise_calib_stim_RIGHT.wav	2	32	blb_dichoticlistening_ta-da.mp3	ta	da	1	right
6.6.1	win	2023-06-02	02:36:23	02:51:50	923628	59dc458f77860e000151240e	1	1	main_slash	24	advance_on_keypress_SLASH	150	stimuli_target_squaretriangles.svg	stimuli_distractor_diamondtriangles.svg	7	yes	57	0	690	6	6	antiphase_hc_ois.wav	3	6	5	noise_calib_stim_RIGHT.wav	2	32	blb_dichoticlistening_ta-da.mp3	ta	da	1	right
6.6.1	win	2023-06-02	02:36:23	02:51:52	925678	59dc458f77860e000151240e	1	1	main_slash	24	main_slash	151	stimuli_distractor_diamondtriangles.svg	stimuli_target_rectanglediamonds.svg	14	yes	53	1	718	6	6	antiphase_hc_ois.wav	3	6	5	noise_calib_stim_RIGHT.wav	2	32	blb_dichoticlistening_ta-da.mp3	ta	da	1	right
6.6.1	win	2023-06-02	02:36:23	02:51:52	925678	59dc458f77860e000151240e	1	1	main_slash	24	advance_on_keypress_SLASH	152	stimuli_distractor_diamondtriangles.svg	stimuli_target_rectanglediamonds.svg	14	yes	57	0	464	6	6	antiphase_hc_ois.wav	3	6	5	noise_calib_stim_RIGHT.wav	2	32	blb_dichoticlistening_ta-da.mp3	ta	da	1	right
6.6.1	win	2023-06-02	02:36:23	02:51:54	927525	59dc458f77860e000151240e	1	1	main_slash	24	main_slash	153	stimuli_target_diamondsquares.svg	stimuli_distractor_trianglediamonds.svg	20	yes	53	1	732	6	6	antiphase_hc_ois.wav	3	6	5	noise_calib_stim_RIGHT.wav	2	32	blb_dichoticlistening_ta-da.mp3	ta	da	1	right
6.6.1	win	2023-06-02	02:36:23	02:51:54	927525	59dc458f77860e000151240e	1	1	main_slash	24	advance_on_keypress_SLASH	154	stimuli_target_diamondsquares.svg	stimuli_distractor_trianglediamonds.svg	20	yes	57	0	941	6	6	antiphase_hc_ois.wav	3	6	5	noise_calib_stim_RIGHT.wav	2	32	blb_dichoticlistening_ta-da.mp3	ta	da	1	right
6.6.1	win	2023-06-02	02:36:23	02:51:57	930294	59dc458f77860e000151240e	1	1	main_slash	24	main_slash	155	stimuli_target_trianglesquares.svg	stimuli_distractor_trianglediamonds.svg	18	yes	53	1	1184	6	6	antiphase_hc_ois.wav	3	6	5	noise_calib_stim_RIGHT.wav	2	32	blb_dichoticlistening_ta-da.mp3	ta	da	1	right
6.6.1	win	2023-06-02	02:36:23	02:51:57	930294	59dc458f77860e000151240e	1	1	main_slash	24	advance_on_keypress_SLASH	156	stimuli_target_trianglesquares.svg	stimuli_distractor_trianglediamonds.svg	18	yes	57	0	512	6	6	antiphase_hc_ois.wav	3	6	5	noise_calib_stim_RIGHT.wav	2	32	blb_dichoticlistening_ta-da.mp3	ta	da	1	right
6.6.1	win	2023-06-02	02:36:23	02:51:59	932381	59dc458f77860e000151240e	1	1	main_slash	24	main_slash	157	stimuli_target_squaretriangles.svg	stimuli_distractor_trianglediamonds.svg	3	yes	53	1	939	6	6	antiphase_hc_ois.wav	3	6	5	noise_calib_stim_RIGHT.wav	2	32	blb_dichoticlistening_ta-da.mp3	ta	da	1	right
6.6.1	win	2023-06-02	02:36:23	02:51:59	932381	59dc458f77860e000151240e	1	1	main_slash	24	advance_on_keypress_SLASH	158	stimuli_target_squaretriangles.svg	stimuli_distractor_trianglediamonds.svg	3	yes	57	0	500	6	6	antiphase_hc_ois.wav	3	6	5	noise_calib_stim_RIGHT.wav	2	32	blb_dichoticlistening_ta-da.mp3	ta	da	1	right
6.6.1	win	2023-06-02	02:36:23	02:52:01	934325	59dc458f77860e000151240e	1	1	main_slash	24	main_slash	159	stimuli_distractor_trianglediamonds.svg	stimuli_target_squarediamonds.svg	12	yes	53	1	798	6	6	antiphase_hc_ois.wav	3	6	5	noise_calib_stim_RIGHT.wav	2	32	blb_dichoticlistening_ta-da.mp3	ta	da	1	right
6.6.1	win	2023-06-02	02:36:23	02:52:01	934325	59dc458f77860e000151240e	1	1	main_slash	24	advance_on_keypress_SLASH	160	stimuli_distractor_trianglediamonds.svg	stimuli_target_squarediamonds.svg	12	yes	57	0	382	6	6	antiphase_hc_ois.wav	3	6	5	noise_calib_stim_RIGHT.wav	2	32	blb_dichoticlistening_ta-da.mp3	ta	da	1	right
6.6.1	win	2023-06-02	02:36:23	02:52:20	952950	59dc458f77860e000151240e	1	1	practice_z	26	practice_z	1	stimuli_distractor_diamondtriangles.svg	stimuli_distractor_trianglediamonds.svg	14	no	44	0	906	6	6	antiphase_hc_ois.wav	3	6	5	noise_calib_stim_RIGHT.wav	2	32	blb_dichoticlistening_ta-da.mp3	ta	da	1	right
6.6.1	win	2023-06-02	02:36:23	02:52:20	952950	59dc458f77860e000151240e	1	1	practice_z	26	advance_on_keypress_ZEE	2	stimuli_distractor_diamondtriangles.svg	stimuli_distractor_trianglediamonds.svg	14	no	57	0	679	6	6	antiphase_hc_ois.wav	3	6	5	noise_calib_stim_RIGHT.wav	2	32	blb_dichoticlistening_ta-da.mp3	ta	da	1	right
6.6.1	win	2023-06-02	02:36:23	02:52:22	955822	59dc458f77860e000151240e	1	1	practice_z	26	practice_z	3	stimuli_target_rectanglediamonds.svg	stimuli_distractor_diamondtriangles.svg	1	yes	44	1	545	6	6	antiphase_hc_ois.wav	3	6	5	noise_calib_stim_RIGHT.wav	2	32	blb_dichoticlistening_ta-da.mp3	ta	da	1	right
6.6.1	win	2023-06-02	02:36:23	02:52:22	955822	59dc458f77860e000151240e	1	1	practice_z	26	advance_on_keypress_ZEE	4	stimuli_target_rectanglediamonds.svg	stimuli_distractor_diamondtriangles.svg	1	yes	57	0	452	6	6	antiphase_hc_ois.wav	3	6	5	noise_calib_stim_RIGHT.wav	2	32	blb_dichoticlistening_ta-da.mp3	ta	da	1	right
6.6.1	win	2023-06-02	02:36:23	02:52:25	958581	59dc458f77860e000151240e	1	1	practice_z	26	practice_z	5	stimuli_target_squarediamonds.svg	stimuli_distractor_diamondtriangles.svg	2	yes	44	1	672	6	6	antiphase_hc_ois.wav	3	6	5	noise_calib_stim_RIGHT.wav	2	32	blb_dichoticlistening_ta-da.mp3	ta	da	1	right
6.6.1	win	2023-06-02	02:36:23	02:52:25	958581	59dc458f77860e000151240e	1	1	practice_z	26	advance_on_keypress_ZEE	6	stimuli_target_squarediamonds.svg	stimuli_distractor_diamondtriangles.svg	2	yes	57	0	445	6	6	antiphase_hc_ois.wav	3	6	5	noise_calib_stim_RIGHT.wav	2	32	blb_dichoticlistening_ta-da.mp3	ta	da	1	right
6.6.1	win	2023-06-02	02:36:23	02:52:28	961301	59dc458f77860e000151240e	1	1	practice_z	26	practice_z	7	stimuli_target_rectanglediamonds.svg	stimuli_distractor_trianglediamonds.svg	4	yes	44	1	642	6	6	antiphase_hc_ois.wav	3	6	5	noise_calib_stim_RIGHT.wav	2	32	blb_dichoticlistening_ta-da.mp3	ta	da	1	right
6.6.1	win	2023-06-02	02:36:23	02:52:28	961301	59dc458f77860e000151240e	1	1	practice_z	26	advance_on_keypress_ZEE	8	stimuli_target_rectanglediamonds.svg	stimuli_distractor_trianglediamonds.svg	4	yes	57	0	370	6	6	antiphase_hc_ois.wav	3	6	5	noise_calib_stim_RIGHT.wav	2	32	blb_dichoticlistening_ta-da.mp3	ta	da	1	right
6.6.1	win	2023-06-02	02:36:23	02:52:31	964069	59dc458f77860e000151240e	1	1	practice_z	26	practice_z	9	stimuli_target_diamondsquares.svg	stimuli_distractor_trianglediamonds.svg	6	yes	44	1	759	6	6	antiphase_hc_ois.wav	3	6	5	noise_calib_stim_RIGHT.wav	2	32	blb_dichoticlistening_ta-da.mp3	ta	da	1	right
6.6.1	win	2023-06-02	02:36:23	02:52:31	964069	59dc458f77860e000151240e	1	1	practice_z	26	advance_on_keypress_ZEE	10	stimuli_target_diamondsquares.svg	stimuli_distractor_trianglediamonds.svg	6	yes	57	0	488	6	6	antiphase_hc_ois.wav	3	6	5	noise_calib_stim_RIGHT.wav	2	32	blb_dichoticlistening_ta-da.mp3	ta	da	1	right
6.6.1	win	2023-06-02	02:36:23	02:52:34	966949	59dc458f77860e000151240e	1	1	practice_z	26	practice_z	11	stimuli_target_diamondsquares.svg	stimuli_distractor_diamondtriangles.svg	3	yes	44	1	757	6	6	antiphase_hc_ois.wav	3	6	5	noise_calib_stim_RIGHT.wav	2	32	blb_dichoticlistening_ta-da.mp3	ta	da	1	right
6.6.1	win	2023-06-02	02:36:23	02:52:34	966949	59dc458f77860e000151240e	1	1	practice_z	26	advance_on_keypress_ZEE	12	stimuli_target_diamondsquares.svg	stimuli_distractor_diamondtriangles.svg	3	yes	57	0	405	6	6	antiphase_hc_ois.wav	3	6	5	noise_calib_stim_RIGHT.wav	2	32	blb_dichoticlistening_ta-da.mp3	ta	da	1	right
6.6.1	win	2023-06-02	02:36:23	02:52:36	969701	59dc458f77860e000151240e	1	1	practice_z	26	practice_z	13	stimuli_distractor_trianglediamonds.svg	stimuli_target_rectanglediamonds.svg	10	yes	44	1	708	6	6	antiphase_hc_ois.wav	3	6	5	noise_calib_stim_RIGHT.wav	2	32	blb_dichoticlistening_ta-da.mp3	ta	da	1	right
6.6.1	win	2023-06-02	02:36:23	02:52:36	969701	59dc458f77860e000151240e	1	1	practice_z	26	advance_on_keypress_ZEE	14	stimuli_distractor_trianglediamonds.svg	stimuli_target_rectanglediamonds.svg	10	yes	57	0	343	6	6	antiphase_hc_ois.wav	3	6	5	noise_calib_stim_RIGHT.wav	2	32	blb_dichoticlistening_ta-da.mp3	ta	da	1	right
