build	computer.platform	date	time	timestamp	time_elapsed_ms	subject	group	session	blockcode	blocknum	trialcode	trialnum	stimulus_left	stimulus_right	stim_index	target_present	response	correct	latency	headphonecheck_countTestTrials	headphonecheck_index	headphonecheck_testSound	headphonecheck_correctResponse	stereocheck_countTestTrials	stereocheck_index	stereocheck_testSound	stereocheck_correctResponse	DL_index	DL_soundfile	DL_leftSound	DL_rightSound	DL_dualSound	DL_choice
6.6.1	mac	2023-06-27	19:38:10	19:43:51	307572	62e40abe71c1b7e395e9bf4a	3	1	practice_slash	5	practice_slash	1	stimuli_target_rectanglediamonds.svg	stimuli_distractor_trianglediamonds.svg	4	yes	53	1	506	0	0			0	0			1				0	
6.6.1	mac	2023-06-27	19:38:10	19:43:51	307572	62e40abe71c1b7e395e9bf4a	3	1	practice_slash	5	advance_on_keypress_SLASH	2	stimuli_target_rectanglediamonds.svg	stimuli_distractor_trianglediamonds.svg	4	yes	57	0	2186	0	0			0	0			1				0	
6.6.1	mac	2023-06-27	19:38:10	19:43:57	313407	62e40abe71c1b7e395e9bf4a	3	1	practice_slash	5	practice_slash	3	stimuli_distractor_diamondtriangles.svg	stimuli_target_trianglerectangles.svg	9	yes	0	0	2000	0	0			0	0			1				0	
6.6.1	mac	2023-06-27	19:38:10	19:43:57	313407	62e40abe71c1b7e395e9bf4a	3	1	practice_slash	5	advance_on_keypress_SLASH	4	stimuli_distractor_diamondtriangles.svg	stimuli_target_trianglerectangles.svg	9	yes	57	0	640	0	0			0	0			1				0	
6.6.1	mac	2023-06-27	19:38:10	19:44:02	317689	62e40abe71c1b7e395e9bf4a	3	1	practice_slash	5	practice_slash	5	stimuli_target_diamondsquares.svg	stimuli_distractor_trianglediamonds.svg	6	yes	0	0	2000	0	0			0	0			1				0	
6.6.1	mac	2023-06-27	19:38:10	19:44:02	317689	62e40abe71c1b7e395e9bf4a	3	1	practice_slash	5	advance_on_keypress_SLASH	6	stimuli_target_diamondsquares.svg	stimuli_distractor_trianglediamonds.svg	6	yes	57	0	657	0	0			0	0			1				0	
6.6.1	mac	2023-06-27	19:38:10	19:44:05	320747	62e40abe71c1b7e395e9bf4a	3	1	practice_slash	5	practice_slash	7	stimuli_distractor_trianglediamonds.svg	stimuli_target_rectanglediamonds.svg	10	yes	53	1	751	0	0			0	0			1				0	
6.6.1	mac	2023-06-27	19:38:10	19:44:05	320747	62e40abe71c1b7e395e9bf4a	3	1	practice_slash	5	advance_on_keypress_SLASH	8	stimuli_distractor_trianglediamonds.svg	stimuli_target_rectanglediamonds.svg	10	yes	57	0	11640	0	0			0	0			1				0	
6.6.1	mac	2023-06-27	19:38:10	19:44:18	334555	62e40abe71c1b7e395e9bf4a	3	1	practice_slash	5	practice_slash	9	stimuli_target_squarediamonds.svg	stimuli_distractor_diamondtriangles.svg	2	yes	53	1	515	0	0			0	0			1				0	
6.6.1	mac	2023-06-27	19:38:10	19:44:18	334555	62e40abe71c1b7e395e9bf4a	3	1	practice_slash	5	advance_on_keypress_SLASH	10	stimuli_target_squarediamonds.svg	stimuli_distractor_diamondtriangles.svg	2	yes	57	0	914	0	0			0	0			1				0	
6.6.1	mac	2023-06-27	19:38:10	19:44:22	337731	62e40abe71c1b7e395e9bf4a	3	1	practice_slash	5	practice_slash	11	stimuli_target_rectanglediamonds.svg	stimuli_distractor_diamondtriangles.svg	1	yes	53	1	619	0	0			0	0			1				0	
6.6.1	mac	2023-06-27	19:38:10	19:44:22	337731	62e40abe71c1b7e395e9bf4a	3	1	practice_slash	5	advance_on_keypress_SLASH	12	stimuli_target_rectanglediamonds.svg	stimuli_distractor_diamondtriangles.svg	1	yes	57	0	1564	0	0			0	0			1				0	
6.6.1	mac	2023-06-27	19:38:10	19:44:27	342956	62e40abe71c1b7e395e9bf4a	3	1	practice_slash	5	practice_slash	13	stimuli_distractor_trianglediamonds.svg	stimuli_target_diamondrectangles.svg	12	yes	0	0	2000	0	0			0	0			1				0	
6.6.1	mac	2023-06-27	19:38:10	19:44:27	342956	62e40abe71c1b7e395e9bf4a	3	1	practice_slash	5	advance_on_keypress_SLASH	14	stimuli_distractor_trianglediamonds.svg	stimuli_target_diamondrectangles.svg	12	yes	57	0	680	0	0			0	0			1				0	
6.6.1	mac	2023-06-27	19:38:10	19:44:31	347279	62e40abe71c1b7e395e9bf4a	3	1	practice_slash	5	practice_slash	15	stimuli_distractor_diamondtriangles.svg	stimuli_distractor_diamondtriangles.svg	13	no	0	1	2000	0	0			0	0			1				0	
6.6.1	mac	2023-06-27	19:38:10	19:44:31	347279	62e40abe71c1b7e395e9bf4a	3	1	practice_slash	5	advance_on_keypress_SLASH	16	stimuli_distractor_diamondtriangles.svg	stimuli_distractor_diamondtriangles.svg	13	no	57	0	871	0	0			0	0			1				0	
6.6.1	mac	2023-06-27	19:38:10	19:44:36	351780	62e40abe71c1b7e395e9bf4a	3	1	practice_slash	5	practice_slash	17	stimuli_target_diamondsquares.svg	stimuli_distractor_diamondtriangles.svg	3	yes	0	0	2000	0	0			0	0			1				0	
6.6.1	mac	2023-06-27	19:38:10	19:44:36	351780	62e40abe71c1b7e395e9bf4a	3	1	practice_slash	5	advance_on_keypress_SLASH	18	stimuli_target_diamondsquares.svg	stimuli_distractor_diamondtriangles.svg	3	yes	57	0	1069	0	0			0	0			1				0	
6.6.1	mac	2023-06-27	19:38:10	19:44:40	356488	62e40abe71c1b7e395e9bf4a	3	1	practice_slash	5	practice_slash	19	stimuli_distractor_trianglediamonds.svg	stimuli_distractor_diamondtriangles.svg	16	no	0	1	2000	0	0			0	0			1				0	
6.6.1	mac	2023-06-27	19:38:10	19:44:40	356488	62e40abe71c1b7e395e9bf4a	3	1	practice_slash	5	advance_on_keypress_SLASH	20	stimuli_distractor_trianglediamonds.svg	stimuli_distractor_diamondtriangles.svg	16	no	57	0	854	0	0			0	0			1				0	
6.6.1	mac	2023-06-27	19:38:10	19:44:45	360802	62e40abe71c1b7e395e9bf4a	3	1	practice_slash	5	practice_slash	21	stimuli_distractor_trianglediamonds.svg	stimuli_distractor_trianglediamonds.svg	15	no	53	0	1825	0	0			0	0			1				0	
6.6.1	mac	2023-06-27	19:38:10	19:44:45	360802	62e40abe71c1b7e395e9bf4a	3	1	practice_slash	5	advance_on_keypress_SLASH	22	stimuli_distractor_trianglediamonds.svg	stimuli_distractor_trianglediamonds.svg	15	no	57	0	1307	0	0			0	0			1				0	
6.6.1	mac	2023-06-27	19:38:10	19:44:48	364356	62e40abe71c1b7e395e9bf4a	3	1	practice_slash	5	practice_slash	23	stimuli_target_squarediamonds.svg	stimuli_distractor_trianglediamonds.svg	5	yes	53	1	614	0	0			0	0			1				0	
6.6.1	mac	2023-06-27	19:38:10	19:44:48	364356	62e40abe71c1b7e395e9bf4a	3	1	practice_slash	5	advance_on_keypress_SLASH	24	stimuli_target_squarediamonds.svg	stimuli_distractor_trianglediamonds.svg	5	yes	57	0	716	0	0			0	0			1				0	
6.6.1	mac	2023-06-27	19:38:10	19:44:51	367468	62e40abe71c1b7e395e9bf4a	3	1	practice_slash	5	practice_slash	25	stimuli_distractor_trianglediamonds.svg	stimuli_target_squarediamonds.svg	11	yes	53	1	754	0	0			0	0			1				0	
6.6.1	mac	2023-06-27	19:38:10	19:44:51	367468	62e40abe71c1b7e395e9bf4a	3	1	practice_slash	5	advance_on_keypress_SLASH	26	stimuli_distractor_trianglediamonds.svg	stimuli_target_squarediamonds.svg	11	yes	57	0	708	0	0			0	0			1				0	
6.6.1	mac	2023-06-27	19:38:10	19:44:55	370876	62e40abe71c1b7e395e9bf4a	3	1	practice_slash	5	practice_slash	27	stimuli_distractor_diamondtriangles.svg	stimuli_target_rectangletriangles.svg	7	yes	53	1	1050	0	0			0	0			1				0	
6.6.1	mac	2023-06-27	19:38:10	19:44:55	370876	62e40abe71c1b7e395e9bf4a	3	1	practice_slash	5	advance_on_keypress_SLASH	28	stimuli_distractor_diamondtriangles.svg	stimuli_target_rectangletriangles.svg	7	yes	57	0	690	0	0			0	0			1				0	
6.6.1	mac	2023-06-27	19:38:10	19:44:58	374076	62e40abe71c1b7e395e9bf4a	3	1	practice_slash	5	practice_slash	29	stimuli_distractor_diamondtriangles.svg	stimuli_distractor_trianglediamonds.svg	14	no	53	0	876	0	0			0	0			1				0	
6.6.1	mac	2023-06-27	19:38:10	19:44:58	374076	62e40abe71c1b7e395e9bf4a	3	1	practice_slash	5	advance_on_keypress_SLASH	30	stimuli_distractor_diamondtriangles.svg	stimuli_distractor_trianglediamonds.svg	14	no	57	0	569	0	0			0	0			1				0	
6.6.1	mac	2023-06-27	19:38:10	19:45:02	377651	62e40abe71c1b7e395e9bf4a	3	1	practice_slash	5	practice_slash	31	stimuli_distractor_diamondtriangles.svg	stimuli_target_diamondrectangles.svg	8	yes	53	1	1379	0	0			0	0			1				0	
6.6.1	mac	2023-06-27	19:38:10	19:45:02	377651	62e40abe71c1b7e395e9bf4a	3	1	practice_slash	5	advance_on_keypress_SLASH	32	stimuli_distractor_diamondtriangles.svg	stimuli_target_diamondrectangles.svg	8	yes	57	0	658	0	0			0	0			1				0	
6.6.1	mac	2023-06-27	19:38:10	19:45:14	389923	62e40abe71c1b7e395e9bf4a	3	1	main_slash	7	main_slash	1	stimuli_target_rectangletriangles.svg	stimuli_distractor_trianglediamonds.svg	1	yes	53	1	508	0	0			0	0			1				0	
6.6.1	mac	2023-06-27	19:38:10	19:45:14	389923	62e40abe71c1b7e395e9bf4a	3	1	main_slash	7	advance_on_keypress_SLASH	2	stimuli_target_rectangletriangles.svg	stimuli_distractor_trianglediamonds.svg	1	yes	57	0	2474	0	0			0	0			1				0	
6.6.1	mac	2023-06-27	19:38:10	19:45:18	393947	62e40abe71c1b7e395e9bf4a	3	1	main_slash	7	main_slash	3	stimuli_target_trianglesquares.svg	stimuli_distractor_diamondtriangles.svg	22	yes	53	1	889	0	0			0	0			1				0	
6.6.1	mac	2023-06-27	19:38:10	19:45:18	393947	62e40abe71c1b7e395e9bf4a	3	1	main_slash	7	advance_on_keypress_SLASH	4	stimuli_target_trianglesquares.svg	stimuli_distractor_diamondtriangles.svg	22	yes	57	0	1754	0	0			0	0			1				0	
6.6.1	mac	2023-06-27	19:38:10	19:45:22	398345	62e40abe71c1b7e395e9bf4a	3	1	main_slash	7	main_slash	5	stimuli_distractor_trianglediamonds.svg	stimuli_distractor_diamondtriangles.svg	36	no	0	1	2000	0	0			0	0			1				0	
6.6.1	mac	2023-06-27	19:38:10	19:45:22	398345	62e40abe71c1b7e395e9bf4a	3	1	main_slash	7	advance_on_keypress_SLASH	6	stimuli_distractor_trianglediamonds.svg	stimuli_distractor_diamondtriangles.svg	36	no	57	0	1965	0	0			0	0			1				0	
6.6.1	mac	2023-06-27	19:38:10	19:45:27	402949	62e40abe71c1b7e395e9bf4a	3	1	main_slash	7	main_slash	7	stimuli_distractor_trianglediamonds.svg	stimuli_distractor_diamondtriangles.svg	35	no	0	1	2000	0	0			0	0			1				0	
6.6.1	mac	2023-06-27	19:38:10	19:45:27	402949	62e40abe71c1b7e395e9bf4a	3	1	main_slash	7	advance_on_keypress_SLASH	8	stimuli_distractor_trianglediamonds.svg	stimuli_distractor_diamondtriangles.svg	35	no	57	0	696	0	0			0	0			1				0	
6.6.1	mac	2023-06-27	19:38:10	19:45:29	404843	62e40abe71c1b7e395e9bf4a	3	1	main_slash	7	main_slash	9	stimuli_target_diamondsquares.svg	stimuli_distractor_diamondtriangles.svg	24	yes	53	1	553	0	0			0	0			1				0	
6.6.1	mac	2023-06-27	19:38:10	19:45:29	404843	62e40abe71c1b7e395e9bf4a	3	1	main_slash	7	advance_on_keypress_SLASH	10	stimuli_target_diamondsquares.svg	stimuli_distractor_diamondtriangles.svg	24	yes	57	0	1150	0	0			0	0			1				0	
6.6.1	mac	2023-06-27	19:38:10	19:45:31	407355	62e40abe71c1b7e395e9bf4a	3	1	main_slash	7	main_slash	11	stimuli_target_squarediamonds.svg	stimuli_distractor_trianglediamonds.svg	4	yes	53	1	723	0	0			0	0			1				0	
6.6.1	mac	2023-06-27	19:38:10	19:45:31	407355	62e40abe71c1b7e395e9bf4a	3	1	main_slash	7	advance_on_keypress_SLASH	12	stimuli_target_squarediamonds.svg	stimuli_distractor_trianglediamonds.svg	4	yes	57	0	663	0	0			0	0			1				0	
6.6.1	mac	2023-06-27	19:38:10	19:45:33	409226	62e40abe71c1b7e395e9bf4a	3	1	main_slash	7	main_slash	13	stimuli_target_squaretriangles.svg	stimuli_distractor_diamondtriangles.svg	7	yes	53	1	564	0	0			0	0			1				0	
6.6.1	mac	2023-06-27	19:38:10	19:45:33	409226	62e40abe71c1b7e395e9bf4a	3	1	main_slash	7	advance_on_keypress_SLASH	14	stimuli_target_squaretriangles.svg	stimuli_distractor_diamondtriangles.svg	7	yes	57	0	264	0	0			0	0			1				0	
6.6.1	mac	2023-06-27	19:38:10	19:45:36	412122	62e40abe71c1b7e395e9bf4a	3	1	main_slash	7	main_slash	15	stimuli_distractor_trianglediamonds.svg	stimuli_distractor_trianglediamonds.svg	34	no	0	1	2000	0	0			0	0			1				0	
6.6.1	mac	2023-06-27	19:38:10	19:45:36	412122	62e40abe71c1b7e395e9bf4a	3	1	main_slash	7	advance_on_keypress_SLASH	16	stimuli_distractor_trianglediamonds.svg	stimuli_distractor_trianglediamonds.svg	34	no	57	0	658	0	0			0	0			1				0	
6.6.1	mac	2023-06-27	19:38:10	19:45:38	413890	62e40abe71c1b7e395e9bf4a	3	1	main_slash	7	main_slash	17	stimuli_distractor_trianglediamonds.svg	stimuli_target_squaretriangles.svg	11	yes	53	1	473	0	0			0	0			1				0	
6.6.1	mac	2023-06-27	19:38:10	19:45:38	413890	62e40abe71c1b7e395e9bf4a	3	1	main_slash	7	advance_on_keypress_SLASH	18	stimuli_distractor_trianglediamonds.svg	stimuli_target_squaretriangles.svg	11	yes	57	0	273	0	0			0	0			1				0	
6.6.1	mac	2023-06-27	19:38:10	19:45:39	415538	62e40abe71c1b7e395e9bf4a	3	1	main_slash	7	main_slash	19	stimuli_target_rectangletriangles.svg	stimuli_distractor_diamondtriangles.svg	5	yes	53	1	743	0	0			0	0			1				0	
6.6.1	mac	2023-06-27	19:38:10	19:45:39	415538	62e40abe71c1b7e395e9bf4a	3	1	main_slash	7	advance_on_keypress_SLASH	20	stimuli_target_rectangletriangles.svg	stimuli_distractor_diamondtriangles.svg	5	yes	57	0	325	0	0			0	0			1				0	
6.6.1	mac	2023-06-27	19:38:10	19:45:41	417530	62e40abe71c1b7e395e9bf4a	3	1	main_slash	7	main_slash	21	stimuli_distractor_trianglediamonds.svg	stimuli_target_trianglesquares.svg	26	yes	53	1	1040	0	0			0	0			1				0	
6.6.1	mac	2023-06-27	19:38:10	19:45:41	417530	62e40abe71c1b7e395e9bf4a	3	1	main_slash	7	advance_on_keypress_SLASH	22	stimuli_distractor_trianglediamonds.svg	stimuli_target_trianglesquares.svg	26	yes	57	0	330	0	0			0	0			1				0	
6.6.1	mac	2023-06-27	19:38:10	19:45:44	420503	62e40abe71c1b7e395e9bf4a	3	1	main_slash	7	main_slash	23	stimuli_distractor_diamondtriangles.svg	stimuli_target_trianglesquares.svg	30	yes	0	0	2000	0	0			0	0			1				0	
6.6.1	mac	2023-06-27	19:38:10	19:45:44	420503	62e40abe71c1b7e395e9bf4a	3	1	main_slash	7	advance_on_keypress_SLASH	24	stimuli_distractor_diamondtriangles.svg	stimuli_target_trianglesquares.svg	30	yes	57	0	566	0	0			0	0			1				0	
6.6.1	mac	2023-06-27	19:38:10	19:45:46	422171	62e40abe71c1b7e395e9bf4a	3	1	main_slash	7	main_slash	25	stimuli_target_rectanglediamonds.svg	stimuli_distractor_trianglediamonds.svg	2	yes	53	1	464	0	0			0	0			1				0	
6.6.1	mac	2023-06-27	19:38:10	19:45:46	422171	62e40abe71c1b7e395e9bf4a	3	1	main_slash	7	advance_on_keypress_SLASH	26	stimuli_target_rectanglediamonds.svg	stimuli_distractor_trianglediamonds.svg	2	yes	57	0	387	0	0			0	0			1				0	
6.6.1	mac	2023-06-27	19:38:10	19:45:48	423787	62e40abe71c1b7e395e9bf4a	3	1	main_slash	7	main_slash	27	stimuli_distractor_diamondtriangles.svg	stimuli_target_squarediamonds.svg	16	yes	53	1	598	0	0			0	0			1				0	
6.6.1	mac	2023-06-27	19:38:10	19:45:48	423787	62e40abe71c1b7e395e9bf4a	3	1	main_slash	7	advance_on_keypress_SLASH	28	stimuli_distractor_diamondtriangles.svg	stimuli_target_squarediamonds.svg	16	yes	57	0	330	0	0			0	0			1				0	
6.6.1	mac	2023-06-27	19:38:10	19:45:51	426750	62e40abe71c1b7e395e9bf4a	3	1	main_slash	7	main_slash	29	stimuli_target_trianglerectangles.svg	stimuli_distractor_trianglediamonds.svg	17	yes	0	0	2000	0	0			0	0			1				0	
6.6.1	mac	2023-06-27	19:38:10	19:45:51	426750	62e40abe71c1b7e395e9bf4a	3	1	main_slash	7	advance_on_keypress_SLASH	30	stimuli_target_trianglerectangles.svg	stimuli_distractor_trianglediamonds.svg	17	yes	57	0	583	0	0			0	0			1				0	
6.6.1	mac	2023-06-27	19:38:10	19:45:53	428779	62e40abe71c1b7e395e9bf4a	3	1	main_slash	7	main_slash	31	stimuli_distractor_trianglediamonds.svg	stimuli_target_rectangletriangles.svg	9	yes	53	1	804	0	0			0	0			1				0	
6.6.1	mac	2023-06-27	19:38:10	19:45:53	428779	62e40abe71c1b7e395e9bf4a	3	1	main_slash	7	advance_on_keypress_SLASH	32	stimuli_distractor_trianglediamonds.svg	stimuli_target_rectangletriangles.svg	9	yes	57	0	607	0	0			0	0			1				0	
6.6.1	mac	2023-06-27	19:38:10	19:45:56	432019	62e40abe71c1b7e395e9bf4a	3	1	main_slash	7	main_slash	33	stimuli_distractor_trianglediamonds.svg	stimuli_distractor_trianglediamonds.svg	33	no	0	1	2000	0	0			0	0			1				0	
6.6.1	mac	2023-06-27	19:38:10	19:45:56	432019	62e40abe71c1b7e395e9bf4a	3	1	main_slash	7	advance_on_keypress_SLASH	34	stimuli_distractor_trianglediamonds.svg	stimuli_distractor_trianglediamonds.svg	33	no	57	0	915	0	0			0	0			1				0	
6.6.1	mac	2023-06-27	19:38:10	19:45:59	435011	62e40abe71c1b7e395e9bf4a	3	1	main_slash	7	main_slash	35	stimuli_distractor_diamondtriangles.svg	stimuli_target_diamondrectangles.svg	31	yes	53	1	1434	0	0			0	0			1				0	
6.6.1	mac	2023-06-27	19:38:10	19:45:59	435011	62e40abe71c1b7e395e9bf4a	3	1	main_slash	7	advance_on_keypress_SLASH	36	stimuli_distractor_diamondtriangles.svg	stimuli_target_diamondrectangles.svg	31	yes	57	0	1248	0	0			0	0			1				0	
6.6.1	mac	2023-06-27	19:38:10	19:46:03	438898	62e40abe71c1b7e395e9bf4a	3	1	main_slash	7	main_slash	37	stimuli_target_trianglerectangles.svg	stimuli_distractor_diamondtriangles.svg	21	yes	0	0	2000	0	0			0	0			1				0	
6.6.1	mac	2023-06-27	19:38:10	19:46:03	438898	62e40abe71c1b7e395e9bf4a	3	1	main_slash	7	advance_on_keypress_SLASH	38	stimuli_target_trianglerectangles.svg	stimuli_distractor_diamondtriangles.svg	21	yes	57	0	524	0	0			0	0			1				0	
6.6.1	mac	2023-06-27	19:38:10	19:46:04	440482	62e40abe71c1b7e395e9bf4a	3	1	main_slash	7	main_slash	39	stimuli_distractor_diamondtriangles.svg	stimuli_target_rectanglediamonds.svg	14	yes	53	1	426	0	0			0	0			1				0	
6.6.1	mac	2023-06-27	19:38:10	19:46:04	440482	62e40abe71c1b7e395e9bf4a	3	1	main_slash	7	advance_on_keypress_SLASH	40	stimuli_distractor_diamondtriangles.svg	stimuli_target_rectanglediamonds.svg	14	yes	57	0	1258	0	0			0	0			1				0	
6.6.1	mac	2023-06-27	19:38:10	19:46:08	443859	62e40abe71c1b7e395e9bf4a	3	1	main_slash	7	main_slash	41	stimuli_distractor_trianglediamonds.svg	stimuli_target_diamondsquares.svg	28	yes	53	1	1472	0	0			0	0			1				0	
6.6.1	mac	2023-06-27	19:38:10	19:46:08	443859	62e40abe71c1b7e395e9bf4a	3	1	main_slash	7	advance_on_keypress_SLASH	42	stimuli_distractor_trianglediamonds.svg	stimuli_target_diamondsquares.svg	28	yes	57	0	603	0	0			0	0			1				0	
6.6.1	mac	2023-06-27	19:38:10	19:46:11	447092	62e40abe71c1b7e395e9bf4a	3	1	main_slash	7	main_slash	43	stimuli_target_diamondrectangles.svg	stimuli_distractor_trianglediamonds.svg	19	yes	0	0	2000	0	0			0	0			1				0	
6.6.1	mac	2023-06-27	19:38:10	19:46:11	447092	62e40abe71c1b7e395e9bf4a	3	1	main_slash	7	advance_on_keypress_SLASH	44	stimuli_target_diamondrectangles.svg	stimuli_distractor_trianglediamonds.svg	19	yes	57	0	491	0	0			0	0			1				0	
6.6.1	mac	2023-06-27	19:38:10	19:46:14	450219	62e40abe71c1b7e395e9bf4a	3	1	main_slash	7	main_slash	45	stimuli_distractor_trianglediamonds.svg	stimuli_target_trianglerectangles.svg	25	yes	0	0	2000	0	0			0	0			1				0	
6.6.1	mac	2023-06-27	19:38:10	19:46:14	450219	62e40abe71c1b7e395e9bf4a	3	1	main_slash	7	advance_on_keypress_SLASH	46	stimuli_distractor_trianglediamonds.svg	stimuli_target_trianglerectangles.svg	25	yes	57	0	471	0	0			0	0			1				0	
6.6.1	mac	2023-06-27	19:38:10	19:46:17	453326	62e40abe71c1b7e395e9bf4a	3	1	main_slash	7	main_slash	47	stimuli_distractor_diamondtriangles.svg	stimuli_distractor_diamondtriangles.svg	39	no	0	1	2000	0	0			0	0			1				0	
6.6.1	mac	2023-06-27	19:38:10	19:46:17	453326	62e40abe71c1b7e395e9bf4a	3	1	main_slash	7	advance_on_keypress_SLASH	48	stimuli_distractor_diamondtriangles.svg	stimuli_distractor_diamondtriangles.svg	39	no	57	0	527	0	0			0	0			1				0	
6.6.1	mac	2023-06-27	19:38:10	19:46:19	455539	62e40abe71c1b7e395e9bf4a	3	1	main_slash	7	main_slash	49	stimuli_distractor_diamondtriangles.svg	stimuli_target_squaretriangles.svg	15	yes	53	1	1038	0	0			0	0			1				0	
6.6.1	mac	2023-06-27	19:38:10	19:46:19	455539	62e40abe71c1b7e395e9bf4a	3	1	main_slash	7	advance_on_keypress_SLASH	50	stimuli_distractor_diamondtriangles.svg	stimuli_target_squaretriangles.svg	15	yes	57	0	1009	0	0			0	0			1				0	
6.6.1	mac	2023-06-27	19:38:10	19:46:23	459179	62e40abe71c1b7e395e9bf4a	3	1	main_slash	7	main_slash	51	stimuli_distractor_diamondtriangles.svg	stimuli_distractor_trianglediamonds.svg	38	no	0	1	2000	0	0			0	0			1				0	
6.6.1	mac	2023-06-27	19:38:10	19:46:23	459179	62e40abe71c1b7e395e9bf4a	3	1	main_slash	7	advance_on_keypress_SLASH	52	stimuli_distractor_diamondtriangles.svg	stimuli_distractor_trianglediamonds.svg	38	no	57	0	734	0	0			0	0			1				0	
6.6.1	mac	2023-06-27	19:38:10	19:46:26	462550	62e40abe71c1b7e395e9bf4a	3	1	main_slash	7	main_slash	53	stimuli_distractor_diamondtriangles.svg	stimuli_distractor_diamondtriangles.svg	40	no	0	1	2000	0	0			0	0			1				0	
6.6.1	mac	2023-06-27	19:38:10	19:46:26	462550	62e40abe71c1b7e395e9bf4a	3	1	main_slash	7	advance_on_keypress_SLASH	54	stimuli_distractor_diamondtriangles.svg	stimuli_distractor_diamondtriangles.svg	40	no	57	0	878	0	0			0	0			1				0	
6.6.1	mac	2023-06-27	19:38:10	19:46:29	464755	62e40abe71c1b7e395e9bf4a	3	1	main_slash	7	main_slash	55	stimuli_target_squaretriangles.svg	stimuli_distractor_trianglediamonds.svg	3	yes	53	1	681	0	0			0	0			1				0	
6.6.1	mac	2023-06-27	19:38:10	19:46:29	464755	62e40abe71c1b7e395e9bf4a	3	1	main_slash	7	advance_on_keypress_SLASH	56	stimuli_target_squaretriangles.svg	stimuli_distractor_trianglediamonds.svg	3	yes	57	0	544	0	0			0	0			1				0	
6.6.1	mac	2023-06-27	19:38:10	19:46:31	466914	62e40abe71c1b7e395e9bf4a	3	1	main_slash	7	main_slash	57	stimuli_target_trianglesquares.svg	stimuli_distractor_trianglediamonds.svg	18	yes	53	1	980	0	0			0	0			1				0	
6.6.1	mac	2023-06-27	19:38:10	19:46:31	466914	62e40abe71c1b7e395e9bf4a	3	1	main_slash	7	advance_on_keypress_SLASH	58	stimuli_target_trianglesquares.svg	stimuli_distractor_trianglediamonds.svg	18	yes	57	0	453	0	0			0	0			1				0	
6.6.1	mac	2023-06-27	19:38:10	19:46:34	469999	62e40abe71c1b7e395e9bf4a	3	1	main_slash	7	main_slash	59	stimuli_distractor_trianglediamonds.svg	stimuli_target_diamondrectangles.svg	27	yes	0	0	2000	0	0			0	0			1				0	
6.6.1	mac	2023-06-27	19:38:10	19:46:34	469999	62e40abe71c1b7e395e9bf4a	3	1	main_slash	7	advance_on_keypress_SLASH	60	stimuli_distractor_trianglediamonds.svg	stimuli_target_diamondrectangles.svg	27	yes	57	0	588	0	0			0	0			1				0	
6.6.1	mac	2023-06-27	19:38:10	19:46:37	472819	62e40abe71c1b7e395e9bf4a	3	1	main_slash	7	main_slash	61	stimuli_target_diamondrectangles.svg	stimuli_distractor_diamondtriangles.svg	23	yes	53	1	1599	0	0			0	0			1				0	
6.6.1	mac	2023-06-27	19:38:10	19:46:37	472819	62e40abe71c1b7e395e9bf4a	3	1	main_slash	7	advance_on_keypress_SLASH	62	stimuli_target_diamondrectangles.svg	stimuli_distractor_diamondtriangles.svg	23	yes	57	0	1994	0	0			0	0			1				0	
6.6.1	mac	2023-06-27	19:38:10	19:46:41	477443	62e40abe71c1b7e395e9bf4a	3	1	main_slash	7	main_slash	63	stimuli_distractor_diamondtriangles.svg	stimuli_target_trianglerectangles.svg	29	yes	0	0	2000	0	0			0	0			1				0	
6.6.1	mac	2023-06-27	19:38:10	19:46:41	477443	62e40abe71c1b7e395e9bf4a	3	1	main_slash	7	advance_on_keypress_SLASH	64	stimuli_distractor_diamondtriangles.svg	stimuli_target_trianglerectangles.svg	29	yes	57	0	1686	0	0			0	0			1				0	
6.6.1	mac	2023-06-27	19:38:10	19:46:44	480515	62e40abe71c1b7e395e9bf4a	3	1	main_slash	7	main_slash	65	stimuli_target_squarediamonds.svg	stimuli_distractor_diamondtriangles.svg	8	yes	53	1	752	0	0			0	0			1				0	
6.6.1	mac	2023-06-27	19:38:10	19:46:44	480515	62e40abe71c1b7e395e9bf4a	3	1	main_slash	7	advance_on_keypress_SLASH	66	stimuli_target_squarediamonds.svg	stimuli_distractor_diamondtriangles.svg	8	yes	57	0	667	0	0			0	0			1				0	
6.6.1	mac	2023-06-27	19:38:10	19:46:48	483824	62e40abe71c1b7e395e9bf4a	3	1	main_slash	7	main_slash	67	stimuli_distractor_diamondtriangles.svg	stimuli_target_diamondsquares.svg	32	yes	0	0	2000	0	0			0	0			1				0	
6.6.1	mac	2023-06-27	19:38:10	19:46:48	483824	62e40abe71c1b7e395e9bf4a	3	1	main_slash	7	advance_on_keypress_SLASH	68	stimuli_distractor_diamondtriangles.svg	stimuli_target_diamondsquares.svg	32	yes	57	0	520	0	0			0	0			1				0	
6.6.1	mac	2023-06-27	19:38:10	19:46:49	485595	62e40abe71c1b7e395e9bf4a	3	1	main_slash	7	main_slash	69	stimuli_target_rectanglediamonds.svg	stimuli_distractor_diamondtriangles.svg	6	yes	53	1	612	0	0			0	0			1				0	
6.6.1	mac	2023-06-27	19:38:10	19:46:49	485595	62e40abe71c1b7e395e9bf4a	3	1	main_slash	7	advance_on_keypress_SLASH	70	stimuli_target_rectanglediamonds.svg	stimuli_distractor_diamondtriangles.svg	6	yes	57	0	615	0	0			0	0			1				0	
6.6.1	mac	2023-06-27	19:38:10	19:46:51	487603	62e40abe71c1b7e395e9bf4a	3	1	main_slash	7	main_slash	71	stimuli_distractor_diamondtriangles.svg	stimuli_target_rectangletriangles.svg	13	yes	53	1	761	0	0			0	0			1				0	
6.6.1	mac	2023-06-27	19:38:10	19:46:51	487603	62e40abe71c1b7e395e9bf4a	3	1	main_slash	7	advance_on_keypress_SLASH	72	stimuli_distractor_diamondtriangles.svg	stimuli_target_rectangletriangles.svg	13	yes	57	0	417	0	0			0	0			1				0	
6.6.1	mac	2023-06-27	19:38:10	19:46:53	489331	62e40abe71c1b7e395e9bf4a	3	1	main_slash	7	main_slash	73	stimuli_distractor_trianglediamonds.svg	stimuli_target_rectanglediamonds.svg	10	yes	53	1	674	0	0			0	0			1				0	
6.6.1	mac	2023-06-27	19:38:10	19:46:53	489331	62e40abe71c1b7e395e9bf4a	3	1	main_slash	7	advance_on_keypress_SLASH	74	stimuli_distractor_trianglediamonds.svg	stimuli_target_rectanglediamonds.svg	10	yes	57	0	378	0	0			0	0			1				0	
6.6.1	mac	2023-06-27	19:38:10	19:46:56	492350	62e40abe71c1b7e395e9bf4a	3	1	main_slash	7	main_slash	75	stimuli_distractor_diamondtriangles.svg	stimuli_distractor_trianglediamonds.svg	37	no	0	1	2000	0	0			0	0			1				0	
6.6.1	mac	2023-06-27	19:38:10	19:46:56	492350	62e40abe71c1b7e395e9bf4a	3	1	main_slash	7	advance_on_keypress_SLASH	76	stimuli_distractor_diamondtriangles.svg	stimuli_distractor_trianglediamonds.svg	37	no	57	0	512	0	0			0	0			1				0	
6.6.1	mac	2023-06-27	19:38:10	19:46:58	494355	62e40abe71c1b7e395e9bf4a	3	1	main_slash	7	main_slash	77	stimuli_distractor_trianglediamonds.svg	stimuli_target_squarediamonds.svg	12	yes	53	1	845	0	0			0	0			1				0	
6.6.1	mac	2023-06-27	19:38:10	19:46:58	494355	62e40abe71c1b7e395e9bf4a	3	1	main_slash	7	advance_on_keypress_SLASH	78	stimuli_distractor_trianglediamonds.svg	stimuli_target_squarediamonds.svg	12	yes	57	0	759	0	0			0	0			1				0	
6.6.1	mac	2023-06-27	19:38:10	19:47:01	496899	62e40abe71c1b7e395e9bf4a	3	1	main_slash	7	main_slash	79	stimuli_target_diamondsquares.svg	stimuli_distractor_trianglediamonds.svg	20	yes	53	1	1146	0	0			0	0			1				0	
6.6.1	mac	2023-06-27	19:38:10	19:47:01	496899	62e40abe71c1b7e395e9bf4a	3	1	main_slash	7	advance_on_keypress_SLASH	80	stimuli_target_diamondsquares.svg	stimuli_distractor_trianglediamonds.svg	20	yes	57	0	598	0	0			0	0			1				0	
6.6.1	mac	2023-06-27	19:38:10	19:47:03	499371	62e40abe71c1b7e395e9bf4a	3	1	main_slash	7	main_slash	81	stimuli_distractor_trianglediamonds.svg	stimuli_target_trianglerectangles.svg	25	yes	53	1	1240	0	0			0	0			1				0	
6.6.1	mac	2023-06-27	19:38:10	19:47:03	499371	62e40abe71c1b7e395e9bf4a	3	1	main_slash	7	advance_on_keypress_SLASH	82	stimuli_distractor_trianglediamonds.svg	stimuli_target_trianglerectangles.svg	25	yes	57	0	492	0	0			0	0			1				0	
6.6.1	mac	2023-06-27	19:38:10	19:47:06	502488	62e40abe71c1b7e395e9bf4a	3	1	main_slash	7	main_slash	83	stimuli_distractor_diamondtriangles.svg	stimuli_target_diamondrectangles.svg	31	yes	0	0	2000	0	0			0	0			1				0	
6.6.1	mac	2023-06-27	19:38:10	19:47:06	502488	62e40abe71c1b7e395e9bf4a	3	1	main_slash	7	advance_on_keypress_SLASH	84	stimuli_distractor_diamondtriangles.svg	stimuli_target_diamondrectangles.svg	31	yes	57	0	838	0	0			0	0			1				0	
6.6.1	mac	2023-06-27	19:38:10	19:47:10	505948	62e40abe71c1b7e395e9bf4a	3	1	main_slash	7	main_slash	85	stimuli_distractor_trianglediamonds.svg	stimuli_target_squarediamonds.svg	12	yes	0	0	2000	0	0			0	0			1				0	
6.6.1	mac	2023-06-27	19:38:10	19:47:10	505948	62e40abe71c1b7e395e9bf4a	3	1	main_slash	7	advance_on_keypress_SLASH	86	stimuli_distractor_trianglediamonds.svg	stimuli_target_squarediamonds.svg	12	yes	57	0	535	0	0			0	0			1				0	
6.6.1	mac	2023-06-27	19:38:10	19:47:13	509119	62e40abe71c1b7e395e9bf4a	3	1	main_slash	7	main_slash	87	stimuli_distractor_trianglediamonds.svg	stimuli_distractor_trianglediamonds.svg	34	no	0	1	2000	0	0			0	0			1				0	
6.6.1	mac	2023-06-27	19:38:10	19:47:13	509119	62e40abe71c1b7e395e9bf4a	3	1	main_slash	7	advance_on_keypress_SLASH	88	stimuli_distractor_trianglediamonds.svg	stimuli_distractor_trianglediamonds.svg	34	no	57	0	1344	0	0			0	0			1				0	
6.6.1	mac	2023-06-27	19:38:10	19:47:17	513109	62e40abe71c1b7e395e9bf4a	3	1	main_slash	7	main_slash	89	stimuli_distractor_trianglediamonds.svg	stimuli_target_diamondsquares.svg	28	yes	0	0	2000	0	0			0	0			1				0	
6.6.1	mac	2023-06-27	19:38:10	19:47:17	513109	62e40abe71c1b7e395e9bf4a	3	1	main_slash	7	advance_on_keypress_SLASH	90	stimuli_distractor_trianglediamonds.svg	stimuli_target_diamondsquares.svg	28	yes	57	0	452	0	0			0	0			1				0	
6.6.1	mac	2023-06-27	19:38:10	19:47:19	515507	62e40abe71c1b7e395e9bf4a	3	1	main_slash	7	main_slash	91	stimuli_distractor_trianglediamonds.svg	stimuli_target_trianglesquares.svg	26	yes	53	1	1305	0	0			0	0			1				0	
6.6.1	mac	2023-06-27	19:38:10	19:47:19	515507	62e40abe71c1b7e395e9bf4a	3	1	main_slash	7	advance_on_keypress_SLASH	92	stimuli_distractor_trianglediamonds.svg	stimuli_target_trianglesquares.svg	26	yes	57	0	603	0	0			0	0			1				0	
6.6.1	mac	2023-06-27	19:38:10	19:47:22	517963	62e40abe71c1b7e395e9bf4a	3	1	main_slash	7	main_slash	93	stimuli_target_diamondsquares.svg	stimuli_distractor_diamondtriangles.svg	24	yes	53	1	1220	0	0			0	0			1				0	
6.6.1	mac	2023-06-27	19:38:10	19:47:22	517963	62e40abe71c1b7e395e9bf4a	3	1	main_slash	7	advance_on_keypress_SLASH	94	stimuli_target_diamondsquares.svg	stimuli_distractor_diamondtriangles.svg	24	yes	57	0	486	0	0			0	0			1				0	
6.6.1	mac	2023-06-27	19:38:10	19:47:24	520046	62e40abe71c1b7e395e9bf4a	3	1	main_slash	7	main_slash	95	stimuli_target_squarediamonds.svg	stimuli_distractor_trianglediamonds.svg	4	yes	53	1	954	0	0			0	0			1				0	
6.6.1	mac	2023-06-27	19:38:10	19:47:24	520046	62e40abe71c1b7e395e9bf4a	3	1	main_slash	7	advance_on_keypress_SLASH	96	stimuli_target_squarediamonds.svg	stimuli_distractor_trianglediamonds.svg	4	yes	57	0	608	0	0			0	0			1				0	
6.6.1	mac	2023-06-27	19:38:10	19:47:27	522883	62e40abe71c1b7e395e9bf4a	3	1	main_slash	7	main_slash	97	stimuli_distractor_diamondtriangles.svg	stimuli_target_diamondsquares.svg	32	yes	53	1	1586	0	0			0	0			1				0	
6.6.1	mac	2023-06-27	19:38:10	19:47:27	522883	62e40abe71c1b7e395e9bf4a	3	1	main_slash	7	advance_on_keypress_SLASH	98	stimuli_distractor_diamondtriangles.svg	stimuli_target_diamondsquares.svg	32	yes	57	0	526	0	0			0	0			1				0	
6.6.1	mac	2023-06-27	19:38:10	19:47:30	525901	62e40abe71c1b7e395e9bf4a	3	1	main_slash	7	main_slash	99	stimuli_target_trianglesquares.svg	stimuli_distractor_diamondtriangles.svg	22	yes	53	1	1857	0	0			0	0			1				0	
6.6.1	mac	2023-06-27	19:38:10	19:47:30	525901	62e40abe71c1b7e395e9bf4a	3	1	main_slash	7	advance_on_keypress_SLASH	100	stimuli_target_trianglesquares.svg	stimuli_distractor_diamondtriangles.svg	22	yes	57	0	765	0	0			0	0			1				0	
6.6.1	mac	2023-06-27	19:38:10	19:47:33	529334	62e40abe71c1b7e395e9bf4a	3	1	main_slash	7	main_slash	101	stimuli_distractor_diamondtriangles.svg	stimuli_distractor_diamondtriangles.svg	39	no	0	1	2000	0	0			0	0			1				0	
6.6.1	mac	2023-06-27	19:38:10	19:47:33	529334	62e40abe71c1b7e395e9bf4a	3	1	main_slash	7	advance_on_keypress_SLASH	102	stimuli_distractor_diamondtriangles.svg	stimuli_distractor_diamondtriangles.svg	39	no	57	0	609	0	0			0	0			1				0	
6.6.1	mac	2023-06-27	19:38:10	19:47:36	532163	62e40abe71c1b7e395e9bf4a	3	1	main_slash	7	main_slash	103	stimuli_distractor_diamondtriangles.svg	stimuli_target_trianglerectangles.svg	29	yes	53	1	1574	0	0			0	0			1				0	
6.6.1	mac	2023-06-27	19:38:10	19:47:36	532163	62e40abe71c1b7e395e9bf4a	3	1	main_slash	7	advance_on_keypress_SLASH	104	stimuli_distractor_diamondtriangles.svg	stimuli_target_trianglerectangles.svg	29	yes	57	0	467	0	0			0	0			1				0	
6.6.1	mac	2023-06-27	19:38:10	19:47:39	535267	62e40abe71c1b7e395e9bf4a	3	1	main_slash	7	main_slash	105	stimuli_distractor_trianglediamonds.svg	stimuli_distractor_diamondtriangles.svg	35	no	0	1	2000	0	0			0	0			1				0	
6.6.1	mac	2023-06-27	19:38:10	19:47:39	535267	62e40abe71c1b7e395e9bf4a	3	1	main_slash	7	advance_on_keypress_SLASH	106	stimuli_distractor_trianglediamonds.svg	stimuli_distractor_diamondtriangles.svg	35	no	57	0	344	0	0			0	0			1				0	
6.6.1	mac	2023-06-27	19:38:10	19:47:41	537123	62e40abe71c1b7e395e9bf4a	3	1	main_slash	7	main_slash	107	stimuli_target_diamondrectangles.svg	stimuli_distractor_diamondtriangles.svg	23	yes	53	1	867	0	0			0	0			1				0	
6.6.1	mac	2023-06-27	19:38:10	19:47:41	537123	62e40abe71c1b7e395e9bf4a	3	1	main_slash	7	advance_on_keypress_SLASH	108	stimuli_target_diamondrectangles.svg	stimuli_distractor_diamondtriangles.svg	23	yes	57	0	585	0	0			0	0			1				0	
6.6.1	mac	2023-06-27	19:38:10	19:47:44	540336	62e40abe71c1b7e395e9bf4a	3	1	main_slash	7	main_slash	109	stimuli_target_trianglerectangles.svg	stimuli_distractor_trianglediamonds.svg	17	yes	0	0	2000	0	0			0	0			1				0	
6.6.1	mac	2023-06-27	19:38:10	19:47:44	540336	62e40abe71c1b7e395e9bf4a	3	1	main_slash	7	advance_on_keypress_SLASH	110	stimuli_target_trianglerectangles.svg	stimuli_distractor_trianglediamonds.svg	17	yes	57	0	2916	0	0			0	0			1				0	
6.6.1	mac	2023-06-27	19:38:10	19:47:49	544843	62e40abe71c1b7e395e9bf4a	3	1	main_slash	7	main_slash	111	stimuli_distractor_trianglediamonds.svg	stimuli_target_rectangletriangles.svg	9	yes	53	1	956	0	0			0	0			1				0	
6.6.1	mac	2023-06-27	19:38:10	19:47:49	544843	62e40abe71c1b7e395e9bf4a	3	1	main_slash	7	advance_on_keypress_SLASH	112	stimuli_distractor_trianglediamonds.svg	stimuli_target_rectangletriangles.svg	9	yes	57	0	756	0	0			0	0			1				0	
6.6.1	mac	2023-06-27	19:38:10	19:47:51	547123	62e40abe71c1b7e395e9bf4a	3	1	main_slash	7	main_slash	113	stimuli_target_rectangletriangles.svg	stimuli_distractor_diamondtriangles.svg	5	yes	53	1	879	0	0			0	0			1				0	
6.6.1	mac	2023-06-27	19:38:10	19:47:51	547123	62e40abe71c1b7e395e9bf4a	3	1	main_slash	7	advance_on_keypress_SLASH	114	stimuli_target_rectangletriangles.svg	stimuli_distractor_diamondtriangles.svg	5	yes	57	0	547	0	0			0	0			1				0	
6.6.1	mac	2023-06-27	19:38:10	19:47:54	549715	62e40abe71c1b7e395e9bf4a	3	1	main_slash	7	main_slash	115	stimuli_target_diamondrectangles.svg	stimuli_distractor_trianglediamonds.svg	19	yes	53	1	1407	0	0			0	0			1				0	
6.6.1	mac	2023-06-27	19:38:10	19:47:54	549715	62e40abe71c1b7e395e9bf4a	3	1	main_slash	7	advance_on_keypress_SLASH	116	stimuli_target_diamondrectangles.svg	stimuli_distractor_trianglediamonds.svg	19	yes	57	0	533	0	0			0	0			1				0	
6.6.1	mac	2023-06-27	19:38:10	19:47:56	552283	62e40abe71c1b7e395e9bf4a	3	1	main_slash	7	main_slash	117	stimuli_target_squarediamonds.svg	stimuli_distractor_diamondtriangles.svg	8	yes	53	1	1401	0	0			0	0			1				0	
6.6.1	mac	2023-06-27	19:38:10	19:47:56	552283	62e40abe71c1b7e395e9bf4a	3	1	main_slash	7	advance_on_keypress_SLASH	118	stimuli_target_squarediamonds.svg	stimuli_distractor_diamondtriangles.svg	8	yes	57	0	428	0	0			0	0			1				0	
6.6.1	mac	2023-06-27	19:38:10	19:47:59	555361	62e40abe71c1b7e395e9bf4a	3	1	main_slash	7	main_slash	119	stimuli_distractor_diamondtriangles.svg	stimuli_distractor_trianglediamonds.svg	38	no	0	1	2000	0	0			0	0			1				0	
6.6.1	mac	2023-06-27	19:38:10	19:47:59	555361	62e40abe71c1b7e395e9bf4a	3	1	main_slash	7	advance_on_keypress_SLASH	120	stimuli_distractor_diamondtriangles.svg	stimuli_distractor_trianglediamonds.svg	38	no	57	0	503	0	0			0	0			1				0	
6.6.1	mac	2023-06-27	19:38:10	19:48:01	557595	62e40abe71c1b7e395e9bf4a	3	1	main_slash	7	main_slash	121	stimuli_target_diamondsquares.svg	stimuli_distractor_trianglediamonds.svg	20	yes	53	1	1096	0	0			0	0			1				0	
6.6.1	mac	2023-06-27	19:38:10	19:48:01	557595	62e40abe71c1b7e395e9bf4a	3	1	main_slash	7	advance_on_keypress_SLASH	122	stimuli_target_diamondsquares.svg	stimuli_distractor_trianglediamonds.svg	20	yes	57	0	486	0	0			0	0			1				0	
6.6.1	mac	2023-06-27	19:38:10	19:48:04	559731	62e40abe71c1b7e395e9bf4a	3	1	main_slash	7	main_slash	123	stimuli_distractor_diamondtriangles.svg	stimuli_target_rectangletriangles.svg	13	yes	53	1	1018	0	0			0	0			1				0	
6.6.1	mac	2023-06-27	19:38:10	19:48:04	559731	62e40abe71c1b7e395e9bf4a	3	1	main_slash	7	advance_on_keypress_SLASH	124	stimuli_distractor_diamondtriangles.svg	stimuli_target_rectangletriangles.svg	13	yes	57	0	662	0	0			0	0			1				0	
6.6.1	mac	2023-06-27	19:38:10	19:48:06	562115	62e40abe71c1b7e395e9bf4a	3	1	main_slash	7	main_slash	125	stimuli_distractor_trianglediamonds.svg	stimuli_target_squaretriangles.svg	11	yes	53	1	1078	0	0			0	0			1				0	
6.6.1	mac	2023-06-27	19:38:10	19:48:06	562115	62e40abe71c1b7e395e9bf4a	3	1	main_slash	7	advance_on_keypress_SLASH	126	stimuli_distractor_trianglediamonds.svg	stimuli_target_squaretriangles.svg	11	yes	57	0	1491	0	0			0	0			1				0	
6.6.1	mac	2023-06-27	19:38:10	19:48:10	565811	62e40abe71c1b7e395e9bf4a	3	1	main_slash	7	main_slash	127	stimuli_distractor_trianglediamonds.svg	stimuli_distractor_diamondtriangles.svg	36	no	53	0	1563	0	0			0	0			1				0	
6.6.1	mac	2023-06-27	19:38:10	19:48:10	565811	62e40abe71c1b7e395e9bf4a	3	1	main_slash	7	advance_on_keypress_SLASH	128	stimuli_distractor_trianglediamonds.svg	stimuli_distractor_diamondtriangles.svg	36	no	57	0	381	0	0			0	0			1				0	
6.6.1	mac	2023-06-27	19:38:10	19:48:12	567979	62e40abe71c1b7e395e9bf4a	3	1	main_slash	7	main_slash	129	stimuli_distractor_diamondtriangles.svg	stimuli_target_rectanglediamonds.svg	14	yes	53	1	1141	0	0			0	0			1				0	
6.6.1	mac	2023-06-27	19:38:10	19:48:12	567979	62e40abe71c1b7e395e9bf4a	3	1	main_slash	7	advance_on_keypress_SLASH	130	stimuli_distractor_diamondtriangles.svg	stimuli_target_rectanglediamonds.svg	14	yes	57	0	842	0	0			0	0			1				0	
6.6.1	mac	2023-06-27	19:38:10	19:48:15	570955	62e40abe71c1b7e395e9bf4a	3	1	main_slash	7	main_slash	131	stimuli_target_squaretriangles.svg	stimuli_distractor_diamondtriangles.svg	7	yes	53	1	1491	0	0			0	0			1				0	
6.6.1	mac	2023-06-27	19:38:10	19:48:15	570955	62e40abe71c1b7e395e9bf4a	3	1	main_slash	7	advance_on_keypress_SLASH	132	stimuli_target_squaretriangles.svg	stimuli_distractor_diamondtriangles.svg	7	yes	57	0	445	0	0			0	0			1				0	
6.6.1	mac	2023-06-27	19:38:10	19:48:17	573203	62e40abe71c1b7e395e9bf4a	3	1	main_slash	7	main_slash	133	stimuli_target_squaretriangles.svg	stimuli_distractor_trianglediamonds.svg	3	yes	53	1	1165	0	0			0	0			1				0	
6.6.1	mac	2023-06-27	19:38:10	19:48:17	573203	62e40abe71c1b7e395e9bf4a	3	1	main_slash	7	advance_on_keypress_SLASH	134	stimuli_target_squaretriangles.svg	stimuli_distractor_trianglediamonds.svg	3	yes	57	0	1038	0	0			0	0			1				0	
6.6.1	mac	2023-06-27	19:38:10	19:48:21	576741	62e40abe71c1b7e395e9bf4a	3	1	main_slash	7	main_slash	135	stimuli_target_trianglerectangles.svg	stimuli_distractor_diamondtriangles.svg	21	yes	53	1	1872	0	0			0	0			1				0	
6.6.1	mac	2023-06-27	19:38:10	19:48:21	576741	62e40abe71c1b7e395e9bf4a	3	1	main_slash	7	advance_on_keypress_SLASH	136	stimuli_target_trianglerectangles.svg	stimuli_distractor_diamondtriangles.svg	21	yes	57	0	456	0	0			0	0			1				0	
6.6.1	mac	2023-06-27	19:38:10	19:48:24	579827	62e40abe71c1b7e395e9bf4a	3	1	main_slash	7	main_slash	137	stimuli_distractor_trianglediamonds.svg	stimuli_target_rectanglediamonds.svg	10	yes	0	0	2000	0	0			0	0			1				0	
6.6.1	mac	2023-06-27	19:38:10	19:48:24	579827	62e40abe71c1b7e395e9bf4a	3	1	main_slash	7	advance_on_keypress_SLASH	138	stimuli_distractor_trianglediamonds.svg	stimuli_target_rectanglediamonds.svg	10	yes	57	0	1071	0	0			0	0			1				0	
6.6.1	mac	2023-06-27	19:38:10	19:48:26	582275	62e40abe71c1b7e395e9bf4a	3	1	main_slash	7	main_slash	139	stimuli_target_rectangletriangles.svg	stimuli_distractor_trianglediamonds.svg	1	yes	53	1	747	0	0			0	0			1				0	
6.6.1	mac	2023-06-27	19:38:10	19:48:26	582275	62e40abe71c1b7e395e9bf4a	3	1	main_slash	7	advance_on_keypress_SLASH	140	stimuli_target_rectangletriangles.svg	stimuli_distractor_trianglediamonds.svg	1	yes	57	0	595	0	0			0	0			1				0	
6.6.1	mac	2023-06-27	19:38:10	19:48:29	585510	62e40abe71c1b7e395e9bf4a	3	1	main_slash	7	main_slash	141	stimuli_distractor_diamondtriangles.svg	stimuli_distractor_diamondtriangles.svg	40	no	0	1	2000	0	0			0	0			1				0	
6.6.1	mac	2023-06-27	19:38:10	19:48:29	585510	62e40abe71c1b7e395e9bf4a	3	1	main_slash	7	advance_on_keypress_SLASH	142	stimuli_distractor_diamondtriangles.svg	stimuli_distractor_diamondtriangles.svg	40	no	57	0	1075	0	0			0	0			1				0	
6.6.1	mac	2023-06-27	19:38:10	19:48:33	588819	62e40abe71c1b7e395e9bf4a	3	1	main_slash	7	main_slash	143	stimuli_distractor_diamondtriangles.svg	stimuli_target_squarediamonds.svg	16	yes	53	1	1602	0	0			0	0			1				0	
6.6.1	mac	2023-06-27	19:38:10	19:48:33	588819	62e40abe71c1b7e395e9bf4a	3	1	main_slash	7	advance_on_keypress_SLASH	144	stimuli_distractor_diamondtriangles.svg	stimuli_target_squarediamonds.svg	16	yes	57	0	544	0	0			0	0			1				0	
6.6.1	mac	2023-06-27	19:38:10	19:48:35	591165	62e40abe71c1b7e395e9bf4a	3	1	main_slash	7	main_slash	145	stimuli_distractor_diamondtriangles.svg	stimuli_target_squaretriangles.svg	15	yes	53	1	1156	0	0			0	0			1				0	
6.6.1	mac	2023-06-27	19:38:10	19:48:35	591165	62e40abe71c1b7e395e9bf4a	3	1	main_slash	7	advance_on_keypress_SLASH	146	stimuli_distractor_diamondtriangles.svg	stimuli_target_squaretriangles.svg	15	yes	57	0	676	0	0			0	0			1				0	
6.6.1	mac	2023-06-27	19:38:10	19:48:38	593866	62e40abe71c1b7e395e9bf4a	3	1	main_slash	7	main_slash	147	stimuli_distractor_trianglediamonds.svg	stimuli_target_diamondrectangles.svg	27	yes	53	1	1397	0	0			0	0			1				0	
6.6.1	mac	2023-06-27	19:38:10	19:48:38	593866	62e40abe71c1b7e395e9bf4a	3	1	main_slash	7	advance_on_keypress_SLASH	148	stimuli_distractor_trianglediamonds.svg	stimuli_target_diamondrectangles.svg	27	yes	57	0	684	0	0			0	0			1				0	
6.6.1	mac	2023-06-27	19:38:10	19:48:40	596083	62e40abe71c1b7e395e9bf4a	3	1	main_slash	7	main_slash	149	stimuli_target_rectanglediamonds.svg	stimuli_distractor_diamondtriangles.svg	6	yes	53	1	890	0	0			0	0			1				0	
6.6.1	mac	2023-06-27	19:38:10	19:48:40	596083	62e40abe71c1b7e395e9bf4a	3	1	main_slash	7	advance_on_keypress_SLASH	150	stimuli_target_rectanglediamonds.svg	stimuli_distractor_diamondtriangles.svg	6	yes	57	0	489	0	0			0	0			1				0	
6.6.1	mac	2023-06-27	19:38:10	19:48:42	598147	62e40abe71c1b7e395e9bf4a	3	1	main_slash	7	main_slash	151	stimuli_target_rectanglediamonds.svg	stimuli_distractor_trianglediamonds.svg	2	yes	53	1	941	0	0			0	0			1				0	
6.6.1	mac	2023-06-27	19:38:10	19:48:42	598147	62e40abe71c1b7e395e9bf4a	3	1	main_slash	7	advance_on_keypress_SLASH	152	stimuli_target_rectanglediamonds.svg	stimuli_distractor_trianglediamonds.svg	2	yes	57	0	443	0	0			0	0			1				0	
6.6.1	mac	2023-06-27	19:38:10	19:48:45	601232	62e40abe71c1b7e395e9bf4a	3	1	main_slash	7	main_slash	153	stimuli_distractor_trianglediamonds.svg	stimuli_distractor_trianglediamonds.svg	33	no	0	1	2000	0	0			0	0			1				0	
6.6.1	mac	2023-06-27	19:38:10	19:48:45	601232	62e40abe71c1b7e395e9bf4a	3	1	main_slash	7	advance_on_keypress_SLASH	154	stimuli_distractor_trianglediamonds.svg	stimuli_distractor_trianglediamonds.svg	33	no	57	0	658	0	0			0	0			1				0	
6.6.1	mac	2023-06-27	19:38:10	19:48:48	604525	62e40abe71c1b7e395e9bf4a	3	1	main_slash	7	main_slash	155	stimuli_distractor_diamondtriangles.svg	stimuli_target_trianglesquares.svg	30	yes	0	0	2000	0	0			0	0			1				0	
6.6.1	mac	2023-06-27	19:38:10	19:48:48	604525	62e40abe71c1b7e395e9bf4a	3	1	main_slash	7	advance_on_keypress_SLASH	156	stimuli_distractor_diamondtriangles.svg	stimuli_target_trianglesquares.svg	30	yes	57	0	759	0	0			0	0			1				0	
6.6.1	mac	2023-06-27	19:38:10	19:48:52	607929	62e40abe71c1b7e395e9bf4a	3	1	main_slash	7	main_slash	157	stimuli_distractor_diamondtriangles.svg	stimuli_distractor_trianglediamonds.svg	37	no	0	1	2000	0	0			0	0			1				0	
6.6.1	mac	2023-06-27	19:38:10	19:48:52	607929	62e40abe71c1b7e395e9bf4a	3	1	main_slash	7	advance_on_keypress_SLASH	158	stimuli_distractor_diamondtriangles.svg	stimuli_distractor_trianglediamonds.svg	37	no	57	0	0	0	0			0	0			1				0	
6.6.1	mac	2023-06-27	19:38:10	19:48:54	610604	62e40abe71c1b7e395e9bf4a	3	1	main_slash	7	main_slash	159	stimuli_target_trianglesquares.svg	stimuli_distractor_trianglediamonds.svg	18	yes	0	0	2000	0	0			0	0			1				0	
6.6.1	mac	2023-06-27	19:38:10	19:48:54	610604	62e40abe71c1b7e395e9bf4a	3	1	main_slash	7	advance_on_keypress_SLASH	160	stimuli_target_trianglesquares.svg	stimuli_distractor_trianglediamonds.svg	18	yes	57	0	462	0	0			0	0			1				0	
6.6.1	mac	2023-06-27	19:38:10	19:49:13	629074	62e40abe71c1b7e395e9bf4a	3	1	practice_z	9	practice_z	1	stimuli_distractor_trianglediamonds.svg	stimuli_distractor_diamondtriangles.svg	16	no	0	1	2000	0	0			0	0			1				0	
6.6.1	mac	2023-06-27	19:38:10	19:49:13	629074	62e40abe71c1b7e395e9bf4a	3	1	practice_z	9	advance_on_keypress_ZEE	2	stimuli_distractor_trianglediamonds.svg	stimuli_distractor_diamondtriangles.svg	16	no	57	0	634	0	0			0	0			1				0	
6.6.1	mac	2023-06-27	19:38:10	19:49:16	631892	62e40abe71c1b7e395e9bf4a	3	1	practice_z	9	practice_z	3	stimuli_target_squarediamonds.svg	stimuli_distractor_diamondtriangles.svg	2	yes	44	1	546	0	0			0	0			1				0	
6.6.1	mac	2023-06-27	19:38:10	19:49:16	631892	62e40abe71c1b7e395e9bf4a	3	1	practice_z	9	advance_on_keypress_ZEE	4	stimuli_target_squarediamonds.svg	stimuli_distractor_diamondtriangles.svg	2	yes	57	0	575	0	0			0	0			1				0	
6.6.1	mac	2023-06-27	19:38:10	19:49:19	634804	62e40abe71c1b7e395e9bf4a	3	1	practice_z	9	practice_z	5	stimuli_target_diamondsquares.svg	stimuli_distractor_trianglediamonds.svg	6	yes	44	1	697	0	0			0	0			1				0	
6.6.1	mac	2023-06-27	19:38:10	19:49:19	634804	62e40abe71c1b7e395e9bf4a	3	1	practice_z	9	advance_on_keypress_ZEE	6	stimuli_target_diamondsquares.svg	stimuli_distractor_trianglediamonds.svg	6	yes	57	0	590	0	0			0	0			1				0	
6.6.1	mac	2023-06-27	19:38:10	19:49:22	637971	62e40abe71c1b7e395e9bf4a	3	1	practice_z	9	practice_z	7	stimuli_distractor_trianglediamonds.svg	stimuli_target_diamondrectangles.svg	12	yes	44	1	943	0	0			0	0			1				0	
6.6.1	mac	2023-06-27	19:38:10	19:49:22	637971	62e40abe71c1b7e395e9bf4a	3	1	practice_z	9	advance_on_keypress_ZEE	8	stimuli_distractor_trianglediamonds.svg	stimuli_target_diamondrectangles.svg	12	yes	57	0	588	0	0			0	0			1				0	
6.6.1	mac	2023-06-27	19:38:10	19:49:25	641084	62e40abe71c1b7e395e9bf4a	3	1	practice_z	9	practice_z	9	stimuli_distractor_trianglediamonds.svg	stimuli_distractor_trianglediamonds.svg	15	no	44	0	879	0	0			0	0			1				0	
6.6.1	mac	2023-06-27	19:38:10	19:49:25	641084	62e40abe71c1b7e395e9bf4a	3	1	practice_z	9	advance_on_keypress_ZEE	10	stimuli_distractor_trianglediamonds.svg	stimuli_distractor_trianglediamonds.svg	15	no	57	0	489	0	0			0	0			1				0	
6.6.1	mac	2023-06-27	19:38:10	19:49:28	643988	62e40abe71c1b7e395e9bf4a	3	1	practice_z	9	practice_z	11	stimuli_target_diamondsquares.svg	stimuli_distractor_diamondtriangles.svg	3	yes	44	1	774	0	0			0	0			1				0	
6.6.1	mac	2023-06-27	19:38:10	19:49:28	643988	62e40abe71c1b7e395e9bf4a	3	1	practice_z	9	advance_on_keypress_ZEE	12	stimuli_target_diamondsquares.svg	stimuli_distractor_diamondtriangles.svg	3	yes	57	0	516	0	0			0	0			1				0	
6.6.1	mac	2023-06-27	19:38:10	19:49:31	647251	62e40abe71c1b7e395e9bf4a	3	1	practice_z	9	practice_z	13	stimuli_target_squarediamonds.svg	stimuli_distractor_trianglediamonds.svg	5	yes	44	1	1115	0	0			0	0			1				0	
6.6.1	mac	2023-06-27	19:38:10	19:49:31	647251	62e40abe71c1b7e395e9bf4a	3	1	practice_z	9	advance_on_keypress_ZEE	14	stimuli_target_squarediamonds.svg	stimuli_distractor_trianglediamonds.svg	5	yes	57	0	810	0	0			0	0			1				0	
6.6.1	mac	2023-06-27	19:38:10	19:49:34	650449	62e40abe71c1b7e395e9bf4a	3	1	practice_z	9	practice_z	15	stimuli_distractor_trianglediamonds.svg	stimuli_target_rectanglediamonds.svg	10	yes	44	1	752	0	0			0	0			1				0	
6.6.1	mac	2023-06-27	19:38:10	19:49:34	650449	62e40abe71c1b7e395e9bf4a	3	1	practice_z	9	advance_on_keypress_ZEE	16	stimuli_distractor_trianglediamonds.svg	stimuli_target_rectanglediamonds.svg	10	yes	57	0	732	0	0			0	0			1				0	
6.6.1	mac	2023-06-27	19:38:10	19:49:38	653813	62e40abe71c1b7e395e9bf4a	3	1	practice_z	9	practice_z	17	stimuli_distractor_diamondtriangles.svg	stimuli_target_trianglerectangles.svg	9	yes	44	1	994	0	0			0	0			1				0	
6.6.1	mac	2023-06-27	19:38:10	19:49:38	653813	62e40abe71c1b7e395e9bf4a	3	1	practice_z	9	advance_on_keypress_ZEE	18	stimuli_distractor_diamondtriangles.svg	stimuli_target_trianglerectangles.svg	9	yes	57	0	646	0	0			0	0			1				0	
6.6.1	mac	2023-06-27	19:38:10	19:49:41	656659	62e40abe71c1b7e395e9bf4a	3	1	practice_z	9	practice_z	19	stimuli_target_rectanglediamonds.svg	stimuli_distractor_trianglediamonds.svg	4	yes	44	1	567	0	0			0	0			1				0	
6.6.1	mac	2023-06-27	19:38:10	19:49:41	656659	62e40abe71c1b7e395e9bf4a	3	1	practice_z	9	advance_on_keypress_ZEE	20	stimuli_target_rectanglediamonds.svg	stimuli_distractor_trianglediamonds.svg	4	yes	57	0	458	0	0			0	0			1				0	
6.6.1	mac	2023-06-27	19:38:10	19:49:43	659203	62e40abe71c1b7e395e9bf4a	3	1	practice_z	9	practice_z	21	stimuli_target_rectanglediamonds.svg	stimuli_distractor_diamondtriangles.svg	1	yes	44	1	433	0	0			0	0			1				0	
6.6.1	mac	2023-06-27	19:38:10	19:49:43	659203	62e40abe71c1b7e395e9bf4a	3	1	practice_z	9	advance_on_keypress_ZEE	22	stimuli_target_rectanglediamonds.svg	stimuli_distractor_diamondtriangles.svg	1	yes	57	0	518	0	0			0	0			1				0	
6.6.1	mac	2023-06-27	19:38:10	19:49:46	662051	62e40abe71c1b7e395e9bf4a	3	1	practice_z	9	practice_z	23	stimuli_distractor_diamondtriangles.svg	stimuli_target_diamondrectangles.svg	8	yes	44	1	691	0	0			0	0			1				0	
6.6.1	mac	2023-06-27	19:38:10	19:49:46	662051	62e40abe71c1b7e395e9bf4a	3	1	practice_z	9	advance_on_keypress_ZEE	24	stimuli_distractor_diamondtriangles.svg	stimuli_target_diamondrectangles.svg	8	yes	57	0	529	0	0			0	0			1				0	
6.6.1	mac	2023-06-27	19:38:10	19:49:49	664891	62e40abe71c1b7e395e9bf4a	3	1	practice_z	9	practice_z	25	stimuli_distractor_trianglediamonds.svg	stimuli_target_squarediamonds.svg	11	yes	44	1	668	0	0			0	0			1				0	
6.6.1	mac	2023-06-27	19:38:10	19:49:49	664891	62e40abe71c1b7e395e9bf4a	3	1	practice_z	9	advance_on_keypress_ZEE	26	stimuli_distractor_trianglediamonds.svg	stimuli_target_squarediamonds.svg	11	yes	57	0	538	0	0			0	0			1				0	
6.6.1	mac	2023-06-27	19:38:10	19:49:52	667779	62e40abe71c1b7e395e9bf4a	3	1	practice_z	9	practice_z	27	stimuli_distractor_diamondtriangles.svg	stimuli_target_rectangletriangles.svg	7	yes	44	1	718	0	0			0	0			1				0	
6.6.1	mac	2023-06-27	19:38:10	19:49:52	667779	62e40abe71c1b7e395e9bf4a	3	1	practice_z	9	advance_on_keypress_ZEE	28	stimuli_distractor_diamondtriangles.svg	stimuli_target_rectangletriangles.svg	7	yes	57	0	730	0	0			0	0			1				0	
6.6.1	mac	2023-06-27	19:38:10	19:49:56	672156	62e40abe71c1b7e395e9bf4a	3	1	practice_z	9	practice_z	29	stimuli_distractor_diamondtriangles.svg	stimuli_distractor_trianglediamonds.svg	14	no	0	1	2000	0	0			0	0			1				0	
6.6.1	mac	2023-06-27	19:38:10	19:49:56	672156	62e40abe71c1b7e395e9bf4a	3	1	practice_z	9	advance_on_keypress_ZEE	30	stimuli_distractor_diamondtriangles.svg	stimuli_distractor_trianglediamonds.svg	14	no	57	0	928	0	0			0	0			1				0	
6.6.1	mac	2023-06-27	19:38:10	19:50:00	675996	62e40abe71c1b7e395e9bf4a	3	1	practice_z	9	practice_z	31	stimuli_distractor_diamondtriangles.svg	stimuli_distractor_diamondtriangles.svg	13	no	44	0	1268	0	0			0	0			1				0	
6.6.1	mac	2023-06-27	19:38:10	19:50:00	675996	62e40abe71c1b7e395e9bf4a	3	1	practice_z	9	advance_on_keypress_ZEE	32	stimuli_distractor_diamondtriangles.svg	stimuli_distractor_diamondtriangles.svg	13	no	57	0	476	0	0			0	0			1				0	
6.6.1	mac	2023-06-27	19:38:10	19:50:03	678787	62e40abe71c1b7e395e9bf4a	3	1	main_z	11	main_z	1	stimuli_distractor_trianglediamonds.svg	stimuli_distractor_trianglediamonds.svg	33	no	44	0	126	0	0			0	0			1				0	
6.6.1	mac	2023-06-27	19:38:10	19:50:03	678787	62e40abe71c1b7e395e9bf4a	3	1	main_z	11	advance_on_keypress_ZEE	2	stimuli_distractor_trianglediamonds.svg	stimuli_distractor_trianglediamonds.svg	33	no	57	0	806	0	0			0	0			1				0	
6.6.1	mac	2023-06-27	19:38:10	19:50:06	682257	62e40abe71c1b7e395e9bf4a	3	1	main_z	11	main_z	3	stimuli_distractor_diamondtriangles.svg	stimuli_distractor_diamondtriangles.svg	40	no	0	1	2000	0	0			0	0			1				0	
6.6.1	mac	2023-06-27	19:38:10	19:50:06	682257	62e40abe71c1b7e395e9bf4a	3	1	main_z	11	advance_on_keypress_ZEE	4	stimuli_distractor_diamondtriangles.svg	stimuli_distractor_diamondtriangles.svg	40	no	57	0	432	0	0			0	0			1				0	
6.6.1	mac	2023-06-27	19:38:10	19:50:08	684021	62e40abe71c1b7e395e9bf4a	3	1	main_z	11	main_z	5	stimuli_target_squarediamonds.svg	stimuli_distractor_diamondtriangles.svg	8	yes	44	1	686	0	0			0	0			1				0	
6.6.1	mac	2023-06-27	19:38:10	19:50:08	684021	62e40abe71c1b7e395e9bf4a	3	1	main_z	11	advance_on_keypress_ZEE	6	stimuli_target_squarediamonds.svg	stimuli_distractor_diamondtriangles.svg	8	yes	57	0	767	0	0			0	0			1				0	
6.6.1	mac	2023-06-27	19:38:10	19:50:10	685907	62e40abe71c1b7e395e9bf4a	3	1	main_z	11	main_z	7	stimuli_target_rectangletriangles.svg	stimuli_distractor_trianglediamonds.svg	1	yes	44	1	483	0	0			0	0			1				0	
6.6.1	mac	2023-06-27	19:38:10	19:50:10	685907	62e40abe71c1b7e395e9bf4a	3	1	main_z	11	advance_on_keypress_ZEE	8	stimuli_target_rectangletriangles.svg	stimuli_distractor_trianglediamonds.svg	1	yes	57	0	450	0	0			0	0			1				0	
6.6.1	mac	2023-06-27	19:38:10	19:50:13	688985	62e40abe71c1b7e395e9bf4a	3	1	main_z	11	main_z	9	stimuli_distractor_diamondtriangles.svg	stimuli_distractor_trianglediamonds.svg	38	no	0	1	2000	0	0			0	0			1				0	
6.6.1	mac	2023-06-27	19:38:10	19:50:13	688985	62e40abe71c1b7e395e9bf4a	3	1	main_z	11	advance_on_keypress_ZEE	10	stimuli_distractor_diamondtriangles.svg	stimuli_distractor_trianglediamonds.svg	38	no	57	0	453	0	0			0	0			1				0	
6.6.1	mac	2023-06-27	19:38:10	19:50:14	690547	62e40abe71c1b7e395e9bf4a	3	1	main_z	11	main_z	11	stimuli_target_rectanglediamonds.svg	stimuli_distractor_diamondtriangles.svg	6	yes	44	1	468	0	0			0	0			1				0	
6.6.1	mac	2023-06-27	19:38:10	19:50:14	690547	62e40abe71c1b7e395e9bf4a	3	1	main_z	11	advance_on_keypress_ZEE	12	stimuli_target_rectanglediamonds.svg	stimuli_distractor_diamondtriangles.svg	6	yes	57	0	667	0	0			0	0			1				0	
6.6.1	mac	2023-06-27	19:38:10	19:50:16	692595	62e40abe71c1b7e395e9bf4a	3	1	main_z	11	main_z	13	stimuli_distractor_trianglediamonds.svg	stimuli_target_squarediamonds.svg	12	yes	44	1	740	0	0			0	0			1				0	
6.6.1	mac	2023-06-27	19:38:10	19:50:16	692595	62e40abe71c1b7e395e9bf4a	3	1	main_z	11	advance_on_keypress_ZEE	14	stimuli_distractor_trianglediamonds.svg	stimuli_target_squarediamonds.svg	12	yes	57	0	172	0	0			0	0			1				0	
6.6.1	mac	2023-06-27	19:38:10	19:50:18	694091	62e40abe71c1b7e395e9bf4a	3	1	main_z	11	main_z	15	stimuli_distractor_diamondtriangles.svg	stimuli_target_squaretriangles.svg	15	yes	44	1	687	0	0			0	0			1				0	
6.6.1	mac	2023-06-27	19:38:10	19:50:18	694091	62e40abe71c1b7e395e9bf4a	3	1	main_z	11	advance_on_keypress_ZEE	16	stimuli_distractor_diamondtriangles.svg	stimuli_target_squaretriangles.svg	15	yes	57	0	303	0	0			0	0			1				0	
6.6.1	mac	2023-06-27	19:38:10	19:50:19	695435	62e40abe71c1b7e395e9bf4a	3	1	main_z	11	main_z	17	stimuli_target_squarediamonds.svg	stimuli_distractor_trianglediamonds.svg	4	yes	44	1	404	0	0			0	0			1				0	
6.6.1	mac	2023-06-27	19:38:10	19:50:19	695435	62e40abe71c1b7e395e9bf4a	3	1	main_z	11	advance_on_keypress_ZEE	18	stimuli_target_squarediamonds.svg	stimuli_distractor_trianglediamonds.svg	4	yes	57	0	276	0	0			0	0			1				0	
6.6.1	mac	2023-06-27	19:38:10	19:50:22	698360	62e40abe71c1b7e395e9bf4a	3	1	main_z	11	main_z	19	stimuli_distractor_diamondtriangles.svg	stimuli_target_diamondsquares.svg	32	yes	0	0	2000	0	0			0	0			1				0	
6.6.1	mac	2023-06-27	19:38:10	19:50:22	698360	62e40abe71c1b7e395e9bf4a	3	1	main_z	11	advance_on_keypress_ZEE	20	stimuli_distractor_diamondtriangles.svg	stimuli_target_diamondsquares.svg	32	yes	57	0	533	0	0			0	0			1				0	
6.6.1	mac	2023-06-27	19:38:10	19:50:24	700131	62e40abe71c1b7e395e9bf4a	3	1	main_z	11	main_z	21	stimuli_distractor_diamondtriangles.svg	stimuli_target_rectangletriangles.svg	13	yes	44	1	595	0	0			0	0			1				0	
6.6.1	mac	2023-06-27	19:38:10	19:50:24	700131	62e40abe71c1b7e395e9bf4a	3	1	main_z	11	advance_on_keypress_ZEE	22	stimuli_distractor_diamondtriangles.svg	stimuli_target_rectangletriangles.svg	13	yes	57	0	262	0	0			0	0			1				0	
6.6.1	mac	2023-06-27	19:38:10	19:50:25	701635	62e40abe71c1b7e395e9bf4a	3	1	main_z	11	main_z	23	stimuli_distractor_trianglediamonds.svg	stimuli_target_rectangletriangles.svg	9	yes	44	1	603	0	0			0	0			1				0	
6.6.1	mac	2023-06-27	19:38:10	19:50:25	701635	62e40abe71c1b7e395e9bf4a	3	1	main_z	11	advance_on_keypress_ZEE	24	stimuli_distractor_trianglediamonds.svg	stimuli_target_rectangletriangles.svg	9	yes	57	0	273	0	0			0	0			1				0	
6.6.1	mac	2023-06-27	19:38:10	19:50:27	703203	62e40abe71c1b7e395e9bf4a	3	1	main_z	11	main_z	25	stimuli_target_rectangletriangles.svg	stimuli_distractor_diamondtriangles.svg	5	yes	44	1	658	0	0			0	0			1				0	
6.6.1	mac	2023-06-27	19:38:10	19:50:27	703203	62e40abe71c1b7e395e9bf4a	3	1	main_z	11	advance_on_keypress_ZEE	26	stimuli_target_rectangletriangles.svg	stimuli_distractor_diamondtriangles.svg	5	yes	57	0	249	0	0			0	0			1				0	
6.6.1	mac	2023-06-27	19:38:10	19:50:29	704763	62e40abe71c1b7e395e9bf4a	3	1	main_z	11	main_z	27	stimuli_distractor_trianglediamonds.svg	stimuli_target_squaretriangles.svg	11	yes	44	1	671	0	0			0	0			1				0	
6.6.1	mac	2023-06-27	19:38:10	19:50:29	704763	62e40abe71c1b7e395e9bf4a	3	1	main_z	11	advance_on_keypress_ZEE	28	stimuli_distractor_trianglediamonds.svg	stimuli_target_squaretriangles.svg	11	yes	57	0	206	0	0			0	0			1				0	
6.6.1	mac	2023-06-27	19:38:10	19:50:31	707602	62e40abe71c1b7e395e9bf4a	3	1	main_z	11	main_z	29	stimuli_distractor_diamondtriangles.svg	stimuli_target_diamondrectangles.svg	31	yes	0	0	2000	0	0			0	0			1				0	
6.6.1	mac	2023-06-27	19:38:10	19:50:31	707602	62e40abe71c1b7e395e9bf4a	3	1	main_z	11	advance_on_keypress_ZEE	30	stimuli_distractor_diamondtriangles.svg	stimuli_target_diamondrectangles.svg	31	yes	57	0	443	0	0			0	0			1				0	
6.6.1	mac	2023-06-27	19:38:10	19:50:35	710695	62e40abe71c1b7e395e9bf4a	3	1	main_z	11	main_z	31	stimuli_distractor_diamondtriangles.svg	stimuli_distractor_trianglediamonds.svg	37	no	0	1	2000	0	0			0	0			1				0	
6.6.1	mac	2023-06-27	19:38:10	19:50:35	710695	62e40abe71c1b7e395e9bf4a	3	1	main_z	11	advance_on_keypress_ZEE	32	stimuli_distractor_diamondtriangles.svg	stimuli_distractor_trianglediamonds.svg	37	no	57	0	532	0	0			0	0			1				0	
6.6.1	mac	2023-06-27	19:38:10	19:50:37	713355	62e40abe71c1b7e395e9bf4a	3	1	main_z	11	main_z	33	stimuli_distractor_trianglediamonds.svg	stimuli_distractor_diamondtriangles.svg	36	no	44	0	1489	0	0			0	0			1				0	
6.6.1	mac	2023-06-27	19:38:10	19:50:37	713355	62e40abe71c1b7e395e9bf4a	3	1	main_z	11	advance_on_keypress_ZEE	34	stimuli_distractor_trianglediamonds.svg	stimuli_distractor_diamondtriangles.svg	36	no	57	0	3999	0	0			0	0			1				0	
6.6.1	mac	2023-06-27	19:38:10	19:50:44	720003	62e40abe71c1b7e395e9bf4a	3	1	main_z	11	main_z	35	stimuli_distractor_trianglediamonds.svg	stimuli_distractor_trianglediamonds.svg	34	no	0	1	2000	0	0			0	0			1				0	
6.6.1	mac	2023-06-27	19:38:10	19:50:44	720003	62e40abe71c1b7e395e9bf4a	3	1	main_z	11	advance_on_keypress_ZEE	36	stimuli_distractor_trianglediamonds.svg	stimuli_distractor_trianglediamonds.svg	34	no	57	0	559	0	0			0	0			1				0	
6.6.1	mac	2023-06-27	19:38:10	19:50:47	723207	62e40abe71c1b7e395e9bf4a	3	1	main_z	11	main_z	37	stimuli_distractor_trianglediamonds.svg	stimuli_distractor_diamondtriangles.svg	35	no	0	1	2000	0	0			0	0			1				0	
6.6.1	mac	2023-06-27	19:38:10	19:50:47	723207	62e40abe71c1b7e395e9bf4a	3	1	main_z	11	advance_on_keypress_ZEE	38	stimuli_distractor_trianglediamonds.svg	stimuli_distractor_diamondtriangles.svg	35	no	57	0	374	0	0			0	0			1				0	
6.6.1	mac	2023-06-27	19:38:10	19:50:49	725131	62e40abe71c1b7e395e9bf4a	3	1	main_z	11	main_z	39	stimuli_distractor_trianglediamonds.svg	stimuli_target_diamondsquares.svg	28	yes	44	1	913	0	0			0	0			1				0	
6.6.1	mac	2023-06-27	19:38:10	19:50:49	725131	62e40abe71c1b7e395e9bf4a	3	1	main_z	11	advance_on_keypress_ZEE	40	stimuli_distractor_trianglediamonds.svg	stimuli_target_diamondsquares.svg	28	yes	57	0	625	0	0			0	0			1				0	
6.6.1	mac	2023-06-27	19:38:10	19:50:51	727115	62e40abe71c1b7e395e9bf4a	3	1	main_z	11	main_z	41	stimuli_distractor_diamondtriangles.svg	stimuli_target_trianglesquares.svg	30	yes	44	1	722	0	0			0	0			1				0	
6.6.1	mac	2023-06-27	19:38:10	19:50:51	727115	62e40abe71c1b7e395e9bf4a	3	1	main_z	11	advance_on_keypress_ZEE	42	stimuli_distractor_diamondtriangles.svg	stimuli_target_trianglesquares.svg	30	yes	57	0	660	0	0			0	0			1				0	
6.6.1	mac	2023-06-27	19:38:10	19:50:53	729075	62e40abe71c1b7e395e9bf4a	3	1	main_z	11	main_z	43	stimuli_distractor_diamondtriangles.svg	stimuli_target_rectanglediamonds.svg	14	yes	44	1	651	0	0			0	0			1				0	
6.6.1	mac	2023-06-27	19:38:10	19:50:53	729075	62e40abe71c1b7e395e9bf4a	3	1	main_z	11	advance_on_keypress_ZEE	44	stimuli_distractor_diamondtriangles.svg	stimuli_target_rectanglediamonds.svg	14	yes	57	0	444	0	0			0	0			1				0	
6.6.1	mac	2023-06-27	19:38:10	19:50:55	731395	62e40abe71c1b7e395e9bf4a	3	1	main_z	11	main_z	45	stimuli_target_trianglesquares.svg	stimuli_distractor_diamondtriangles.svg	22	yes	44	1	1228	0	0			0	0			1				0	
6.6.1	mac	2023-06-27	19:38:10	19:50:55	731395	62e40abe71c1b7e395e9bf4a	3	1	main_z	11	advance_on_keypress_ZEE	46	stimuli_target_trianglesquares.svg	stimuli_distractor_diamondtriangles.svg	22	yes	57	0	489	0	0			0	0			1				0	
6.6.1	mac	2023-06-27	19:38:10	19:50:57	733138	62e40abe71c1b7e395e9bf4a	3	1	main_z	11	main_z	47	stimuli_distractor_trianglediamonds.svg	stimuli_target_rectanglediamonds.svg	10	yes	44	1	626	0	0			0	0			1				0	
6.6.1	mac	2023-06-27	19:38:10	19:50:57	733138	62e40abe71c1b7e395e9bf4a	3	1	main_z	11	advance_on_keypress_ZEE	48	stimuli_distractor_trianglediamonds.svg	stimuli_target_rectanglediamonds.svg	10	yes	57	0	378	0	0			0	0			1				0	
6.6.1	mac	2023-06-27	19:38:10	19:50:59	735083	62e40abe71c1b7e395e9bf4a	3	1	main_z	11	main_z	49	stimuli_target_trianglerectangles.svg	stimuli_distractor_diamondtriangles.svg	21	yes	44	1	926	0	0			0	0			1				0	
6.6.1	mac	2023-06-27	19:38:10	19:50:59	735083	62e40abe71c1b7e395e9bf4a	3	1	main_z	11	advance_on_keypress_ZEE	50	stimuli_target_trianglerectangles.svg	stimuli_distractor_diamondtriangles.svg	21	yes	57	0	390	0	0			0	0			1				0	
6.6.1	mac	2023-06-27	19:38:10	19:51:01	737595	62e40abe71c1b7e395e9bf4a	3	1	main_z	11	main_z	51	stimuli_target_squaretriangles.svg	stimuli_distractor_trianglediamonds.svg	3	yes	44	1	1495	0	0			0	0			1				0	
6.6.1	mac	2023-06-27	19:38:10	19:51:01	737595	62e40abe71c1b7e395e9bf4a	3	1	main_z	11	advance_on_keypress_ZEE	52	stimuli_target_squaretriangles.svg	stimuli_distractor_trianglediamonds.svg	3	yes	57	0	327	0	0			0	0			1				0	
6.6.1	mac	2023-06-27	19:38:10	19:51:03	739403	62e40abe71c1b7e395e9bf4a	3	1	main_z	11	main_z	53	stimuli_target_trianglesquares.svg	stimuli_distractor_trianglediamonds.svg	18	yes	44	1	858	0	0			0	0			1				0	
6.6.1	mac	2023-06-27	19:38:10	19:51:03	739403	62e40abe71c1b7e395e9bf4a	3	1	main_z	11	advance_on_keypress_ZEE	54	stimuli_target_trianglesquares.svg	stimuli_distractor_trianglediamonds.svg	18	yes	57	0	442	0	0			0	0			1				0	
6.6.1	mac	2023-06-27	19:38:10	19:51:06	741939	62e40abe71c1b7e395e9bf4a	3	1	main_z	11	main_z	55	stimuli_target_trianglerectangles.svg	stimuli_distractor_trianglediamonds.svg	17	yes	44	1	1450	0	0			0	0			1				0	
6.6.1	mac	2023-06-27	19:38:10	19:51:06	741939	62e40abe71c1b7e395e9bf4a	3	1	main_z	11	advance_on_keypress_ZEE	56	stimuli_target_trianglerectangles.svg	stimuli_distractor_trianglediamonds.svg	17	yes	57	0	395	0	0			0	0			1				0	
6.6.1	mac	2023-06-27	19:38:10	19:51:08	743939	62e40abe71c1b7e395e9bf4a	3	1	main_z	11	main_z	57	stimuli_distractor_trianglediamonds.svg	stimuli_target_trianglerectangles.svg	25	yes	44	1	953	0	0			0	0			1				0	
6.6.1	mac	2023-06-27	19:38:10	19:51:08	743939	62e40abe71c1b7e395e9bf4a	3	1	main_z	11	advance_on_keypress_ZEE	58	stimuli_distractor_trianglediamonds.svg	stimuli_target_trianglerectangles.svg	25	yes	57	0	313	0	0			0	0			1				0	
6.6.1	mac	2023-06-27	19:38:10	19:51:09	745378	62e40abe71c1b7e395e9bf4a	3	1	main_z	11	main_z	59	stimuli_distractor_diamondtriangles.svg	stimuli_target_squarediamonds.svg	16	yes	44	1	483	0	0			0	0			1				0	
6.6.1	mac	2023-06-27	19:38:10	19:51:09	745378	62e40abe71c1b7e395e9bf4a	3	1	main_z	11	advance_on_keypress_ZEE	60	stimuli_distractor_diamondtriangles.svg	stimuli_target_squarediamonds.svg	16	yes	57	0	262	0	0			0	0			1				0	
6.6.1	mac	2023-06-27	19:38:10	19:51:11	747499	62e40abe71c1b7e395e9bf4a	3	1	main_z	11	main_z	61	stimuli_distractor_trianglediamonds.svg	stimuli_target_diamondrectangles.svg	27	yes	44	1	1211	0	0			0	0			1				0	
6.6.1	mac	2023-06-27	19:38:10	19:51:11	747499	62e40abe71c1b7e395e9bf4a	3	1	main_z	11	advance_on_keypress_ZEE	62	stimuli_distractor_trianglediamonds.svg	stimuli_target_diamondrectangles.svg	27	yes	57	0	444	0	0			0	0			1				0	
6.6.1	mac	2023-06-27	19:38:10	19:51:14	749763	62e40abe71c1b7e395e9bf4a	3	1	main_z	11	main_z	63	stimuli_target_diamondrectangles.svg	stimuli_distractor_diamondtriangles.svg	23	yes	44	1	1180	0	0			0	0			1				0	
6.6.1	mac	2023-06-27	19:38:10	19:51:14	749763	62e40abe71c1b7e395e9bf4a	3	1	main_z	11	advance_on_keypress_ZEE	64	stimuli_target_diamondrectangles.svg	stimuli_distractor_diamondtriangles.svg	23	yes	57	0	410	0	0			0	0			1				0	
6.6.1	mac	2023-06-27	19:38:10	19:51:16	751843	62e40abe71c1b7e395e9bf4a	3	1	main_z	11	main_z	65	stimuli_target_diamondsquares.svg	stimuli_distractor_trianglediamonds.svg	20	yes	44	1	1034	0	0			0	0			1				0	
6.6.1	mac	2023-06-27	19:38:10	19:51:16	751843	62e40abe71c1b7e395e9bf4a	3	1	main_z	11	advance_on_keypress_ZEE	66	stimuli_target_diamondsquares.svg	stimuli_distractor_trianglediamonds.svg	20	yes	57	0	313	0	0			0	0			1				0	
6.6.1	mac	2023-06-27	19:38:10	19:51:17	753403	62e40abe71c1b7e395e9bf4a	3	1	main_z	11	main_z	67	stimuli_target_diamondsquares.svg	stimuli_distractor_diamondtriangles.svg	24	yes	44	1	614	0	0			0	0			1				0	
6.6.1	mac	2023-06-27	19:38:10	19:51:17	753403	62e40abe71c1b7e395e9bf4a	3	1	main_z	11	advance_on_keypress_ZEE	68	stimuli_target_diamondsquares.svg	stimuli_distractor_diamondtriangles.svg	24	yes	57	0	305	0	0			0	0			1				0	
6.6.1	mac	2023-06-27	19:38:10	19:51:19	755027	62e40abe71c1b7e395e9bf4a	3	1	main_z	11	main_z	69	stimuli_target_diamondrectangles.svg	stimuli_distractor_trianglediamonds.svg	19	yes	44	1	692	0	0			0	0			1				0	
6.6.1	mac	2023-06-27	19:38:10	19:51:19	755027	62e40abe71c1b7e395e9bf4a	3	1	main_z	11	advance_on_keypress_ZEE	70	stimuli_target_diamondrectangles.svg	stimuli_distractor_trianglediamonds.svg	19	yes	57	0	277	0	0			0	0			1				0	
6.6.1	mac	2023-06-27	19:38:10	19:51:20	756499	62e40abe71c1b7e395e9bf4a	3	1	main_z	11	main_z	71	stimuli_target_rectanglediamonds.svg	stimuli_distractor_trianglediamonds.svg	2	yes	44	1	571	0	0			0	0			1				0	
6.6.1	mac	2023-06-27	19:38:10	19:51:20	756499	62e40abe71c1b7e395e9bf4a	3	1	main_z	11	advance_on_keypress_ZEE	72	stimuli_target_rectanglediamonds.svg	stimuli_distractor_trianglediamonds.svg	2	yes	57	0	280	0	0			0	0			1				0	
6.6.1	mac	2023-06-27	19:38:10	19:51:23	759411	62e40abe71c1b7e395e9bf4a	3	1	main_z	11	main_z	73	stimuli_distractor_diamondtriangles.svg	stimuli_distractor_diamondtriangles.svg	39	no	0	1	2000	0	0			0	0			1				0	
6.6.1	mac	2023-06-27	19:38:10	19:51:23	759411	62e40abe71c1b7e395e9bf4a	3	1	main_z	11	advance_on_keypress_ZEE	74	stimuli_distractor_diamondtriangles.svg	stimuli_distractor_diamondtriangles.svg	39	no	57	0	671	0	0			0	0			1				0	
6.6.1	mac	2023-06-27	19:38:10	19:51:25	761643	62e40abe71c1b7e395e9bf4a	3	1	main_z	11	main_z	75	stimuli_target_squaretriangles.svg	stimuli_distractor_diamondtriangles.svg	7	yes	44	1	928	0	0			0	0			1				0	
6.6.1	mac	2023-06-27	19:38:10	19:51:25	761643	62e40abe71c1b7e395e9bf4a	3	1	main_z	11	advance_on_keypress_ZEE	76	stimuli_target_squaretriangles.svg	stimuli_distractor_diamondtriangles.svg	7	yes	57	0	380	0	0			0	0			1				0	
6.6.1	mac	2023-06-27	19:38:10	19:51:28	763850	62e40abe71c1b7e395e9bf4a	3	1	main_z	11	main_z	77	stimuli_distractor_trianglediamonds.svg	stimuli_target_trianglesquares.svg	26	yes	44	1	1187	0	0			0	0			1				0	
6.6.1	mac	2023-06-27	19:38:10	19:51:28	763850	62e40abe71c1b7e395e9bf4a	3	1	main_z	11	advance_on_keypress_ZEE	78	stimuli_distractor_trianglediamonds.svg	stimuli_target_trianglesquares.svg	26	yes	57	0	339	0	0			0	0			1				0	
6.6.1	mac	2023-06-27	19:38:10	19:51:31	766822	62e40abe71c1b7e395e9bf4a	3	1	main_z	11	main_z	79	stimuli_distractor_diamondtriangles.svg	stimuli_target_trianglerectangles.svg	29	yes	0	0	2000	0	0			0	0			1				0	
6.6.1	mac	2023-06-27	19:38:10	19:51:31	766822	62e40abe71c1b7e395e9bf4a	3	1	main_z	11	advance_on_keypress_ZEE	80	stimuli_distractor_diamondtriangles.svg	stimuli_target_trianglerectangles.svg	29	yes	57	0	482	0	0			0	0			1				0	
6.6.1	mac	2023-06-27	19:38:10	19:51:34	769948	62e40abe71c1b7e395e9bf4a	3	1	main_z	11	main_z	81	stimuli_distractor_diamondtriangles.svg	stimuli_target_diamondsquares.svg	32	yes	0	0	2000	0	0			0	0			1				0	
6.6.1	mac	2023-06-27	19:38:10	19:51:34	769948	62e40abe71c1b7e395e9bf4a	3	1	main_z	11	advance_on_keypress_ZEE	82	stimuli_distractor_diamondtriangles.svg	stimuli_target_diamondsquares.svg	32	yes	57	0	1575	0	0			0	0			1				0	
6.6.1	mac	2023-06-27	19:38:10	19:51:37	772803	62e40abe71c1b7e395e9bf4a	3	1	main_z	11	main_z	83	stimuli_distractor_trianglediamonds.svg	stimuli_target_squarediamonds.svg	12	yes	44	1	638	0	0			0	0			1				0	
6.6.1	mac	2023-06-27	19:38:10	19:51:37	772803	62e40abe71c1b7e395e9bf4a	3	1	main_z	11	advance_on_keypress_ZEE	84	stimuli_distractor_trianglediamonds.svg	stimuli_target_squarediamonds.svg	12	yes	57	0	329	0	0			0	0			1				0	
6.6.1	mac	2023-06-27	19:38:10	19:51:39	774717	62e40abe71c1b7e395e9bf4a	3	1	main_z	11	main_z	85	stimuli_distractor_diamondtriangles.svg	stimuli_distractor_trianglediamonds.svg	38	no	44	0	933	0	0			0	0			1				0	
6.6.1	mac	2023-06-27	19:38:10	19:51:39	774717	62e40abe71c1b7e395e9bf4a	3	1	main_z	11	advance_on_keypress_ZEE	86	stimuli_distractor_diamondtriangles.svg	stimuli_distractor_trianglediamonds.svg	38	no	57	0	278	0	0			0	0			1				0	
6.6.1	mac	2023-06-27	19:38:10	19:51:40	776451	62e40abe71c1b7e395e9bf4a	3	1	main_z	11	main_z	87	stimuli_target_rectanglediamonds.svg	stimuli_distractor_trianglediamonds.svg	2	yes	44	1	811	0	0			0	0			1				0	
6.6.1	mac	2023-06-27	19:38:10	19:51:40	776451	62e40abe71c1b7e395e9bf4a	3	1	main_z	11	advance_on_keypress_ZEE	88	stimuli_target_rectanglediamonds.svg	stimuli_distractor_trianglediamonds.svg	2	yes	57	0	301	0	0			0	0			1				0	
6.6.1	mac	2023-06-27	19:38:10	19:51:42	778195	62e40abe71c1b7e395e9bf4a	3	1	main_z	11	main_z	89	stimuli_distractor_diamondtriangles.svg	stimuli_target_rectanglediamonds.svg	14	yes	44	1	806	0	0			0	0			1				0	
6.6.1	mac	2023-06-27	19:38:10	19:51:42	778195	62e40abe71c1b7e395e9bf4a	3	1	main_z	11	advance_on_keypress_ZEE	90	stimuli_distractor_diamondtriangles.svg	stimuli_target_rectanglediamonds.svg	14	yes	57	0	513	0	0			0	0			1				0	
6.6.1	mac	2023-06-27	19:38:10	19:51:44	779955	62e40abe71c1b7e395e9bf4a	3	1	main_z	11	main_z	91	stimuli_target_squarediamonds.svg	stimuli_distractor_diamondtriangles.svg	8	yes	44	1	607	0	0			0	0			1				0	
6.6.1	mac	2023-06-27	19:38:10	19:51:44	779955	62e40abe71c1b7e395e9bf4a	3	1	main_z	11	advance_on_keypress_ZEE	92	stimuli_target_squarediamonds.svg	stimuli_distractor_diamondtriangles.svg	8	yes	57	0	209	0	0			0	0			1				0	
6.6.1	mac	2023-06-27	19:38:10	19:51:46	782235	62e40abe71c1b7e395e9bf4a	3	1	main_z	11	main_z	93	stimuli_target_trianglerectangles.svg	stimuli_distractor_diamondtriangles.svg	21	yes	44	1	1425	0	0			0	0			1				0	
6.6.1	mac	2023-06-27	19:38:10	19:51:46	782235	62e40abe71c1b7e395e9bf4a	3	1	main_z	11	advance_on_keypress_ZEE	94	stimuli_target_trianglerectangles.svg	stimuli_distractor_diamondtriangles.svg	21	yes	57	0	266	0	0			0	0			1				0	
6.6.1	mac	2023-06-27	19:38:10	19:51:48	783883	62e40abe71c1b7e395e9bf4a	3	1	main_z	11	main_z	95	stimuli_target_rectangletriangles.svg	stimuli_distractor_diamondtriangles.svg	5	yes	44	1	743	0	0			0	0			1				0	
6.6.1	mac	2023-06-27	19:38:10	19:51:48	783883	62e40abe71c1b7e395e9bf4a	3	1	main_z	11	advance_on_keypress_ZEE	96	stimuli_target_rectangletriangles.svg	stimuli_distractor_diamondtriangles.svg	5	yes	57	0	358	0	0			0	0			1				0	
6.6.1	mac	2023-06-27	19:38:10	19:51:49	785451	62e40abe71c1b7e395e9bf4a	3	1	main_z	11	main_z	97	stimuli_target_rectanglediamonds.svg	stimuli_distractor_diamondtriangles.svg	6	yes	44	1	585	0	0			0	0			1				0	
6.6.1	mac	2023-06-27	19:38:10	19:51:49	785451	62e40abe71c1b7e395e9bf4a	3	1	main_z	11	advance_on_keypress_ZEE	98	stimuli_target_rectanglediamonds.svg	stimuli_distractor_diamondtriangles.svg	6	yes	57	0	296	0	0			0	0			1				0	
6.6.1	mac	2023-06-27	19:38:10	19:51:51	786955	62e40abe71c1b7e395e9bf4a	3	1	main_z	11	main_z	99	stimuli_target_squaretriangles.svg	stimuli_distractor_trianglediamonds.svg	3	yes	44	1	562	0	0			0	0			1				0	
6.6.1	mac	2023-06-27	19:38:10	19:51:51	786955	62e40abe71c1b7e395e9bf4a	3	1	main_z	11	advance_on_keypress_ZEE	100	stimuli_target_squaretriangles.svg	stimuli_distractor_trianglediamonds.svg	3	yes	57	0	354	0	0			0	0			1				0	
6.6.1	mac	2023-06-27	19:38:10	19:51:53	789059	62e40abe71c1b7e395e9bf4a	3	1	main_z	11	main_z	101	stimuli_target_trianglesquares.svg	stimuli_distractor_trianglediamonds.svg	18	yes	44	1	1117	0	0			0	0			1				0	
6.6.1	mac	2023-06-27	19:38:10	19:51:53	789059	62e40abe71c1b7e395e9bf4a	3	1	main_z	11	advance_on_keypress_ZEE	102	stimuli_target_trianglesquares.svg	stimuli_distractor_trianglediamonds.svg	18	yes	57	0	332	0	0			0	0			1				0	
6.6.1	mac	2023-06-27	19:38:10	19:51:56	792034	62e40abe71c1b7e395e9bf4a	3	1	main_z	11	main_z	103	stimuli_distractor_trianglediamonds.svg	stimuli_target_trianglerectangles.svg	25	yes	0	0	2000	0	0			0	0			1				0	
6.6.1	mac	2023-06-27	19:38:10	19:51:56	792034	62e40abe71c1b7e395e9bf4a	3	1	main_z	11	advance_on_keypress_ZEE	104	stimuli_distractor_trianglediamonds.svg	stimuli_target_trianglerectangles.svg	25	yes	57	0	12205	0	0			0	0			1				0	
6.6.1	mac	2023-06-27	19:38:10	19:52:10	805777	62e40abe71c1b7e395e9bf4a	3	1	main_z	11	main_z	105	stimuli_target_diamondsquares.svg	stimuli_distractor_trianglediamonds.svg	20	yes	44	1	891	0	0			0	0			1				0	
6.6.1	mac	2023-06-27	19:38:10	19:52:10	805777	62e40abe71c1b7e395e9bf4a	3	1	main_z	11	advance_on_keypress_ZEE	106	stimuli_target_diamondsquares.svg	stimuli_distractor_trianglediamonds.svg	20	yes	57	0	470	0	0			0	0			1				0	
6.6.1	mac	2023-06-27	19:38:10	19:52:11	807483	62e40abe71c1b7e395e9bf4a	3	1	main_z	11	main_z	107	stimuli_distractor_diamondtriangles.svg	stimuli_target_rectangletriangles.svg	13	yes	44	1	597	0	0			0	0			1				0	
6.6.1	mac	2023-06-27	19:38:10	19:52:11	807483	62e40abe71c1b7e395e9bf4a	3	1	main_z	11	advance_on_keypress_ZEE	108	stimuli_distractor_diamondtriangles.svg	stimuli_target_rectangletriangles.svg	13	yes	57	0	324	0	0			0	0			1				0	
6.6.1	mac	2023-06-27	19:38:10	19:52:13	809107	62e40abe71c1b7e395e9bf4a	3	1	main_z	11	main_z	109	stimuli_distractor_diamondtriangles.svg	stimuli_target_trianglesquares.svg	30	yes	44	1	672	0	0			0	0			1				0	
6.6.1	mac	2023-06-27	19:38:10	19:52:13	809107	62e40abe71c1b7e395e9bf4a	3	1	main_z	11	advance_on_keypress_ZEE	110	stimuli_distractor_diamondtriangles.svg	stimuli_target_trianglesquares.svg	30	yes	57	0	417	0	0			0	0			1				0	
6.6.1	mac	2023-06-27	19:38:10	19:52:16	812161	62e40abe71c1b7e395e9bf4a	3	1	main_z	11	main_z	111	stimuli_distractor_diamondtriangles.svg	stimuli_distractor_diamondtriangles.svg	40	no	0	1	2000	0	0			0	0			1				0	
6.6.1	mac	2023-06-27	19:38:10	19:52:16	812161	62e40abe71c1b7e395e9bf4a	3	1	main_z	11	advance_on_keypress_ZEE	112	stimuli_distractor_diamondtriangles.svg	stimuli_distractor_diamondtriangles.svg	40	no	57	0	419	0	0			0	0			1				0	
6.6.1	mac	2023-06-27	19:38:10	19:52:17	813587	62e40abe71c1b7e395e9bf4a	3	1	main_z	11	main_z	113	stimuli_distractor_trianglediamonds.svg	stimuli_target_rectanglediamonds.svg	10	yes	44	1	365	0	0			0	0			1				0	
6.6.1	mac	2023-06-27	19:38:10	19:52:17	813587	62e40abe71c1b7e395e9bf4a	3	1	main_z	11	advance_on_keypress_ZEE	114	stimuli_distractor_trianglediamonds.svg	stimuli_target_rectanglediamonds.svg	10	yes	57	0	526	0	0			0	0			1				0	
6.6.1	mac	2023-06-27	19:38:10	19:52:19	815395	62e40abe71c1b7e395e9bf4a	3	1	main_z	11	main_z	115	stimuli_target_squaretriangles.svg	stimuli_distractor_diamondtriangles.svg	7	yes	44	1	612	0	0			0	0			1				0	
6.6.1	mac	2023-06-27	19:38:10	19:52:19	815395	62e40abe71c1b7e395e9bf4a	3	1	main_z	11	advance_on_keypress_ZEE	116	stimuli_target_squaretriangles.svg	stimuli_distractor_diamondtriangles.svg	7	yes	57	0	351	0	0			0	0			1				0	
6.6.1	mac	2023-06-27	19:38:10	19:52:22	818376	62e40abe71c1b7e395e9bf4a	3	1	main_z	11	main_z	117	stimuli_distractor_trianglediamonds.svg	stimuli_target_diamondsquares.svg	28	yes	0	0	2000	0	0			0	0			1				0	
6.6.1	mac	2023-06-27	19:38:10	19:52:22	818376	62e40abe71c1b7e395e9bf4a	3	1	main_z	11	advance_on_keypress_ZEE	118	stimuli_distractor_trianglediamonds.svg	stimuli_target_diamondsquares.svg	28	yes	57	0	685	0	0			0	0			1				0	
6.6.1	mac	2023-06-27	19:38:10	19:52:24	820243	62e40abe71c1b7e395e9bf4a	3	1	main_z	11	main_z	119	stimuli_target_squarediamonds.svg	stimuli_distractor_trianglediamonds.svg	4	yes	44	1	540	0	0			0	0			1				0	
6.6.1	mac	2023-06-27	19:38:10	19:52:24	820243	62e40abe71c1b7e395e9bf4a	3	1	main_z	11	advance_on_keypress_ZEE	120	stimuli_target_squarediamonds.svg	stimuli_distractor_trianglediamonds.svg	4	yes	57	0	361	0	0			0	0			1				0	
6.6.1	mac	2023-06-27	19:38:10	19:52:26	822115	62e40abe71c1b7e395e9bf4a	3	1	main_z	11	main_z	121	stimuli_target_trianglerectangles.svg	stimuli_distractor_trianglediamonds.svg	17	yes	44	1	868	0	0			0	0			1				0	
6.6.1	mac	2023-06-27	19:38:10	19:52:26	822115	62e40abe71c1b7e395e9bf4a	3	1	main_z	11	advance_on_keypress_ZEE	122	stimuli_target_trianglerectangles.svg	stimuli_distractor_trianglediamonds.svg	17	yes	57	0	338	0	0			0	0			1				0	
6.6.1	mac	2023-06-27	19:38:10	19:52:29	825078	62e40abe71c1b7e395e9bf4a	3	1	main_z	11	main_z	123	stimuli_distractor_diamondtriangles.svg	stimuli_distractor_trianglediamonds.svg	37	no	0	1	2000	0	0			0	0			1				0	
6.6.1	mac	2023-06-27	19:38:10	19:52:29	825078	62e40abe71c1b7e395e9bf4a	3	1	main_z	11	advance_on_keypress_ZEE	124	stimuli_distractor_diamondtriangles.svg	stimuli_distractor_trianglediamonds.svg	37	no	57	0	531	0	0			0	0			1				0	
6.6.1	mac	2023-06-27	19:38:10	19:52:31	827291	62e40abe71c1b7e395e9bf4a	3	1	main_z	11	main_z	125	stimuli_distractor_trianglediamonds.svg	stimuli_target_diamondrectangles.svg	27	yes	44	1	1041	0	0			0	0			1				0	
6.6.1	mac	2023-06-27	19:38:10	19:52:31	827291	62e40abe71c1b7e395e9bf4a	3	1	main_z	11	advance_on_keypress_ZEE	126	stimuli_distractor_trianglediamonds.svg	stimuli_target_diamondrectangles.svg	27	yes	57	0	461	0	0			0	0			1				0	
6.6.1	mac	2023-06-27	19:38:10	19:52:34	829747	62e40abe71c1b7e395e9bf4a	3	1	main_z	11	main_z	127	stimuli_target_diamondrectangles.svg	stimuli_distractor_trianglediamonds.svg	19	yes	44	1	1350	0	0			0	0			1				0	
6.6.1	mac	2023-06-27	19:38:10	19:52:34	829747	62e40abe71c1b7e395e9bf4a	3	1	main_z	11	advance_on_keypress_ZEE	128	stimuli_target_diamondrectangles.svg	stimuli_distractor_trianglediamonds.svg	19	yes	57	0	550	0	0			0	0			1				0	
6.6.1	mac	2023-06-27	19:38:10	19:52:37	832678	62e40abe71c1b7e395e9bf4a	3	1	main_z	11	main_z	129	stimuli_distractor_trianglediamonds.svg	stimuli_distractor_diamondtriangles.svg	36	no	44	0	1739	0	0			0	0			1				0	
6.6.1	mac	2023-06-27	19:38:10	19:52:37	832678	62e40abe71c1b7e395e9bf4a	3	1	main_z	11	advance_on_keypress_ZEE	130	stimuli_distractor_trianglediamonds.svg	stimuli_distractor_diamondtriangles.svg	36	no	57	0	271	0	0			0	0			1				0	
6.6.1	mac	2023-06-27	19:38:10	19:52:39	835580	62e40abe71c1b7e395e9bf4a	3	1	main_z	11	main_z	131	stimuli_distractor_trianglediamonds.svg	stimuli_target_trianglesquares.svg	26	yes	0	0	2000	0	0			0	0			1				0	
6.6.1	mac	2023-06-27	19:38:10	19:52:39	835580	62e40abe71c1b7e395e9bf4a	3	1	main_z	11	advance_on_keypress_ZEE	132	stimuli_distractor_trianglediamonds.svg	stimuli_target_trianglesquares.svg	26	yes	57	0	951	0	0			0	0			1				0	
6.6.1	mac	2023-06-27	19:38:10	19:52:42	837771	62e40abe71c1b7e395e9bf4a	3	1	main_z	11	main_z	133	stimuli_distractor_trianglediamonds.svg	stimuli_target_rectangletriangles.svg	9	yes	44	1	603	0	0			0	0			1				0	
6.6.1	mac	2023-06-27	19:38:10	19:52:42	837771	62e40abe71c1b7e395e9bf4a	3	1	main_z	11	advance_on_keypress_ZEE	134	stimuli_distractor_trianglediamonds.svg	stimuli_target_rectangletriangles.svg	9	yes	57	0	322	0	0			0	0			1				0	
6.6.1	mac	2023-06-27	19:38:10	19:52:43	839275	62e40abe71c1b7e395e9bf4a	3	1	main_z	11	main_z	135	stimuli_target_rectangletriangles.svg	stimuli_distractor_trianglediamonds.svg	1	yes	44	1	558	0	0			0	0			1				0	
6.6.1	mac	2023-06-27	19:38:10	19:52:43	839275	62e40abe71c1b7e395e9bf4a	3	1	main_z	11	advance_on_keypress_ZEE	136	stimuli_target_rectangletriangles.svg	stimuli_distractor_trianglediamonds.svg	1	yes	57	0	219	0	0			0	0			1				0	
6.6.1	mac	2023-06-27	19:38:10	19:52:44	840635	62e40abe71c1b7e395e9bf4a	3	1	main_z	11	main_z	137	stimuli_distractor_diamondtriangles.svg	stimuli_target_squarediamonds.svg	16	yes	44	1	508	0	0			0	0			1				0	
6.6.1	mac	2023-06-27	19:38:10	19:52:44	840635	62e40abe71c1b7e395e9bf4a	3	1	main_z	11	advance_on_keypress_ZEE	138	stimuli_distractor_diamondtriangles.svg	stimuli_target_squarediamonds.svg	16	yes	57	0	177	0	0			0	0			1				0	
6.6.1	mac	2023-06-27	19:38:10	19:52:46	842403	62e40abe71c1b7e395e9bf4a	3	1	main_z	11	main_z	139	stimuli_target_diamondrectangles.svg	stimuli_distractor_diamondtriangles.svg	23	yes	44	1	930	0	0			0	0			1				0	
6.6.1	mac	2023-06-27	19:38:10	19:52:46	842403	62e40abe71c1b7e395e9bf4a	3	1	main_z	11	advance_on_keypress_ZEE	140	stimuli_target_diamondrectangles.svg	stimuli_distractor_diamondtriangles.svg	23	yes	57	0	245	0	0			0	0			1				0	
6.6.1	mac	2023-06-27	19:38:10	19:52:49	845288	62e40abe71c1b7e395e9bf4a	3	1	main_z	11	main_z	141	stimuli_distractor_diamondtriangles.svg	stimuli_distractor_diamondtriangles.svg	39	no	0	1	2000	0	0			0	0			1				0	
6.6.1	mac	2023-06-27	19:38:10	19:52:49	845288	62e40abe71c1b7e395e9bf4a	3	1	main_z	11	advance_on_keypress_ZEE	142	stimuli_distractor_diamondtriangles.svg	stimuli_distractor_diamondtriangles.svg	39	no	57	0	731	0	0			0	0			1				0	
6.6.1	mac	2023-06-27	19:38:10	19:52:53	848656	62e40abe71c1b7e395e9bf4a	3	1	main_z	11	main_z	143	stimuli_distractor_diamondtriangles.svg	stimuli_target_diamondrectangles.svg	31	yes	0	0	2000	0	0			0	0			1				0	
6.6.1	mac	2023-06-27	19:38:10	19:52:53	848656	62e40abe71c1b7e395e9bf4a	3	1	main_z	11	advance_on_keypress_ZEE	144	stimuli_distractor_diamondtriangles.svg	stimuli_target_diamondrectangles.svg	31	yes	57	0	5363	0	0			0	0			1				0	
6.6.1	mac	2023-06-27	19:38:10	19:52:59	855147	62e40abe71c1b7e395e9bf4a	3	1	main_z	11	main_z	145	stimuli_distractor_diamondtriangles.svg	stimuli_target_squaretriangles.svg	15	yes	44	1	492	0	0			0	0			1				0	
6.6.1	mac	2023-06-27	19:38:10	19:52:59	855147	62e40abe71c1b7e395e9bf4a	3	1	main_z	11	advance_on_keypress_ZEE	146	stimuli_distractor_diamondtriangles.svg	stimuli_target_squaretriangles.svg	15	yes	57	0	347	0	0			0	0			1				0	
6.6.1	mac	2023-06-27	19:38:10	19:53:02	858133	62e40abe71c1b7e395e9bf4a	3	1	main_z	11	main_z	147	stimuli_distractor_trianglediamonds.svg	stimuli_distractor_trianglediamonds.svg	33	no	0	1	2000	0	0			0	0			1				0	
6.6.1	mac	2023-06-27	19:38:10	19:53:02	858133	62e40abe71c1b7e395e9bf4a	3	1	main_z	11	advance_on_keypress_ZEE	148	stimuli_distractor_trianglediamonds.svg	stimuli_distractor_trianglediamonds.svg	33	no	57	0	891	0	0			0	0			1				0	
6.6.1	mac	2023-06-27	19:38:10	19:53:06	861657	62e40abe71c1b7e395e9bf4a	3	1	main_z	11	main_z	149	stimuli_distractor_trianglediamonds.svg	stimuli_distractor_diamondtriangles.svg	35	no	0	1	2000	0	0			0	0			1				0	
6.6.1	mac	2023-06-27	19:38:10	19:53:06	861657	62e40abe71c1b7e395e9bf4a	3	1	main_z	11	advance_on_keypress_ZEE	150	stimuli_distractor_trianglediamonds.svg	stimuli_distractor_diamondtriangles.svg	35	no	57	0	716	0	0			0	0			1				0	
6.6.1	mac	2023-06-27	19:38:10	19:53:09	865017	62e40abe71c1b7e395e9bf4a	3	1	main_z	11	main_z	151	stimuli_distractor_trianglediamonds.svg	stimuli_distractor_trianglediamonds.svg	34	no	0	1	2000	0	0			0	0			1				0	
6.6.1	mac	2023-06-27	19:38:10	19:53:09	865017	62e40abe71c1b7e395e9bf4a	3	1	main_z	11	advance_on_keypress_ZEE	152	stimuli_distractor_trianglediamonds.svg	stimuli_distractor_trianglediamonds.svg	34	no	57	0	20546	0	0			0	0			1				0	
6.6.1	mac	2023-06-27	19:38:10	19:53:31	887083	62e40abe71c1b7e395e9bf4a	3	1	main_z	11	main_z	153	stimuli_distractor_trianglediamonds.svg	stimuli_target_squaretriangles.svg	11	yes	44	1	868	0	0			0	0			1				0	
6.6.1	mac	2023-06-27	19:38:10	19:53:31	887083	62e40abe71c1b7e395e9bf4a	3	1	main_z	11	advance_on_keypress_ZEE	154	stimuli_distractor_trianglediamonds.svg	stimuli_target_squaretriangles.svg	11	yes	57	0	968	0	0			0	0			1				0	
6.6.1	mac	2023-06-27	19:38:10	19:53:33	889483	62e40abe71c1b7e395e9bf4a	3	1	main_z	11	main_z	155	stimuli_distractor_diamondtriangles.svg	stimuli_target_trianglerectangles.svg	29	yes	44	1	805	0	0			0	0			1				0	
6.6.1	mac	2023-06-27	19:38:10	19:53:33	889483	62e40abe71c1b7e395e9bf4a	3	1	main_z	11	advance_on_keypress_ZEE	156	stimuli_distractor_diamondtriangles.svg	stimuli_target_trianglerectangles.svg	29	yes	57	0	401	0	0			0	0			1				0	
6.6.1	mac	2023-06-27	19:38:10	19:53:35	891147	62e40abe71c1b7e395e9bf4a	3	1	main_z	11	main_z	157	stimuli_target_trianglesquares.svg	stimuli_distractor_diamondtriangles.svg	22	yes	44	1	626	0	0			0	0			1				0	
6.6.1	mac	2023-06-27	19:38:10	19:53:35	891147	62e40abe71c1b7e395e9bf4a	3	1	main_z	11	advance_on_keypress_ZEE	158	stimuli_target_trianglesquares.svg	stimuli_distractor_diamondtriangles.svg	22	yes	57	0	771	0	0			0	0			1				0	
6.6.1	mac	2023-06-27	19:38:10	19:53:37	893234	62e40abe71c1b7e395e9bf4a	3	1	main_z	11	main_z	159	stimuli_target_diamondsquares.svg	stimuli_distractor_diamondtriangles.svg	24	yes	44	1	683	0	0			0	0			1				0	
6.6.1	mac	2023-06-27	19:38:10	19:53:37	893234	62e40abe71c1b7e395e9bf4a	3	1	main_z	11	advance_on_keypress_ZEE	160	stimuli_target_diamondsquares.svg	stimuli_distractor_diamondtriangles.svg	24	yes	57	0	380	0	0			0	0			1				0	
6.6.1	mac	2023-06-27	19:38:10	19:53:37	893234	62e40abe71c1b7e395e9bf4a	3	1	headphonecheck_calibration	14	headphonecheck_calibrationIntro	1	stimuli_target_diamondsquares.svg	stimuli_distractor_diamondtriangles.svg	24	yes	calibrationButton	0	4788	0	0			0	0			1				0	
6.6.1	mac	2023-06-27	19:38:10	19:53:37	893234	62e40abe71c1b7e395e9bf4a	3	1	headphonecheck_testphase	15	test_collectResponse	3	stimuli_target_diamondsquares.svg	stimuli_distractor_diamondtriangles.svg	24	yes	second	0	153101	1	3	antiphase_hc_soi.wav	1	0	0			1				0	
6.6.1	mac	2023-06-27	19:38:10	19:53:37	893234	62e40abe71c1b7e395e9bf4a	3	1	headphonecheck_testphase	15	test_collectResponse	6	stimuli_target_diamondsquares.svg	stimuli_distractor_diamondtriangles.svg	24	yes	second	1	451	2	1	antiphase_hc_iso.wav	2	0	0			1				0	
6.6.1	mac	2023-06-27	19:38:10	19:53:37	893234	62e40abe71c1b7e395e9bf4a	3	1	headphonecheck_testphase	15	test_collectResponse	9	stimuli_target_diamondsquares.svg	stimuli_distractor_diamondtriangles.svg	24	yes	third	1	379	3	6	antiphase_hc_ois.wav	3	0	0			1				0	
6.6.1	mac	2023-06-27	19:38:10	19:53:37	893234	62e40abe71c1b7e395e9bf4a	3	1	headphonecheck_testphase	15	test_collectResponse	12	stimuli_target_diamondsquares.svg	stimuli_distractor_diamondtriangles.svg	24	yes	third	1	340	4	2	antiphase_hc_ios.wav	3	0	0			1				0	
6.6.1	mac	2023-06-27	19:38:10	19:53:37	893234	62e40abe71c1b7e395e9bf4a	3	1	headphonecheck_testphase	15	test_collectResponse	15	stimuli_target_diamondsquares.svg	stimuli_distractor_diamondtriangles.svg	24	yes	second	1	391	5	5	antiphase_hc_osi.wav	2	0	0			1				0	
6.6.1	mac	2023-06-27	19:38:10	19:53:37	893234	62e40abe71c1b7e395e9bf4a	3	1	headphonecheck_testphase	15	test_collectResponse	18	stimuli_target_diamondsquares.svg	stimuli_distractor_diamondtriangles.svg	24	yes	first	1	396	6	4	antiphase_hc_sio.wav	1	0	0			1				0	
6.6.1	mac	2023-06-27	19:38:10	19:53:37	893234	62e40abe71c1b7e395e9bf4a	3	1	stereocheck_calibration	17	stereocheck_calibrationIntro	1	stimuli_target_diamondsquares.svg	stimuli_distractor_diamondtriangles.svg	24	yes	stereocheck_calibrationButton	0	2703	6	4	antiphase_hc_sio.wav	1	0	0			1				0	
6.6.1	mac	2023-06-27	19:38:10	19:53:37	893234	62e40abe71c1b7e395e9bf4a	3	1	stereocheck_testphase	18	stereocheck_test_collectResponse	3	stimuli_target_diamondsquares.svg	stimuli_distractor_diamondtriangles.svg	24	yes	stereocheck_left	1	1166	6	4	antiphase_hc_sio.wav	1	1	1	noise_calib_stim_LEFT.wav	1	1				0	
6.6.1	mac	2023-06-27	19:38:10	19:53:37	893234	62e40abe71c1b7e395e9bf4a	3	1	stereocheck_testphase	18	stereocheck_test_collectResponse	6	stimuli_target_diamondsquares.svg	stimuli_distractor_diamondtriangles.svg	24	yes	stereocheck_right	1	347	6	4	antiphase_hc_sio.wav	1	2	4	noise_calib_stim_RIGHT.wav	2	1				0	
6.6.1	mac	2023-06-27	19:38:10	19:53:37	893234	62e40abe71c1b7e395e9bf4a	3	1	stereocheck_testphase	18	stereocheck_test_collectResponse	9	stimuli_target_diamondsquares.svg	stimuli_distractor_diamondtriangles.svg	24	yes	stereocheck_left	1	605	6	4	antiphase_hc_sio.wav	1	3	3	noise_calib_stim_LEFT.wav	1	1				0	
6.6.1	mac	2023-06-27	19:38:10	19:53:37	893234	62e40abe71c1b7e395e9bf4a	3	1	stereocheck_testphase	18	stereocheck_test_collectResponse	12	stimuli_target_diamondsquares.svg	stimuli_distractor_diamondtriangles.svg	24	yes	stereocheck_right	1	333	6	4	antiphase_hc_sio.wav	1	4	5	noise_calib_stim_RIGHT.wav	2	1				0	
6.6.1	mac	2023-06-27	19:38:10	19:53:37	893234	62e40abe71c1b7e395e9bf4a	3	1	stereocheck_testphase	18	stereocheck_test_collectResponse	15	stimuli_target_diamondsquares.svg	stimuli_distractor_diamondtriangles.svg	24	yes	stereocheck_right	1	236	6	4	antiphase_hc_sio.wav	1	5	6	noise_calib_stim_RIGHT.wav	2	1				0	
6.6.1	mac	2023-06-27	19:38:10	19:53:37	893234	62e40abe71c1b7e395e9bf4a	3	1	stereocheck_testphase	18	stereocheck_test_collectResponse	18	stimuli_target_diamondsquares.svg	stimuli_distractor_diamondtriangles.svg	24	yes	stereocheck_left	1	287	6	4	antiphase_hc_sio.wav	1	6	2	noise_calib_stim_LEFT.wav	1	1				0	
6.6.1	mac	2023-06-27	19:38:10	19:53:37	893234	62e40abe71c1b7e395e9bf4a	3	1	DL_practice	21	DL_practice	2	stimuli_target_diamondsquares.svg	stimuli_distractor_diamondtriangles.svg	24	yes	pa	1	1517	6	4	antiphase_hc_sio.wav	1	6	2	noise_calib_stim_LEFT.wav	1	29	blb_dichoticlistening_pa-pa.mp3	pa	pa	0	left
6.6.1	mac	2023-06-27	19:38:10	19:53:37	893234	62e40abe71c1b7e395e9bf4a	3	1	DL_practice	21	DL_practice	3	stimuli_target_diamondsquares.svg	stimuli_distractor_diamondtriangles.svg	24	yes	da	1	978	6	4	antiphase_hc_sio.wav	1	6	2	noise_calib_stim_LEFT.wav	1	8	blb_dichoticlistening_da-da.mp3	da	da	0	left
6.6.1	mac	2023-06-27	19:38:10	19:53:37	893234	62e40abe71c1b7e395e9bf4a	3	1	DL_practice	21	DL_practice	4	stimuli_target_diamondsquares.svg	stimuli_distractor_diamondtriangles.svg	24	yes	ga	1	597	6	4	antiphase_hc_sio.wav	1	6	2	noise_calib_stim_LEFT.wav	1	15	blb_dichoticlistening_ga-ga.mp3	ga	ga	0	left
6.6.1	mac	2023-06-27	19:38:10	19:53:37	893234	62e40abe71c1b7e395e9bf4a	3	1	DL_practice	21	DL_practice	5	stimuli_target_diamondsquares.svg	stimuli_distractor_diamondtriangles.svg	24	yes	ba	1	1321	6	4	antiphase_hc_sio.wav	1	6	2	noise_calib_stim_LEFT.wav	1	1	blb_dichoticlistening_ba-ba.mp3	ba	ba	0	left
6.6.1	mac	2023-06-27	19:38:10	19:53:37	893234	62e40abe71c1b7e395e9bf4a	3	1	DL_practice	21	DL_practice	6	stimuli_target_diamondsquares.svg	stimuli_distractor_diamondtriangles.svg	24	yes	ta	1	745	6	4	antiphase_hc_sio.wav	1	6	2	noise_calib_stim_LEFT.wav	1	36	blb_dichoticlistening_ta-ta.mp3	ta	ta	0	left
6.6.1	mac	2023-06-27	19:38:10	19:53:37	893234	62e40abe71c1b7e395e9bf4a	3	1	DL_practice	21	DL_practice	7	stimuli_target_diamondsquares.svg	stimuli_distractor_diamondtriangles.svg	24	yes	ga	1	1222	6	4	antiphase_hc_sio.wav	1	6	2	noise_calib_stim_LEFT.wav	1	18	blb_dichoticlistening_ga-ta.mp3	ga	ta	1	left
6.6.1	mac	2023-06-27	19:38:10	19:53:37	893234	62e40abe71c1b7e395e9bf4a	3	1	DL_practice	21	DL_practice	8	stimuli_target_diamondsquares.svg	stimuli_distractor_diamondtriangles.svg	24	yes	ka	1	889	6	4	antiphase_hc_sio.wav	1	6	2	noise_calib_stim_LEFT.wav	1	23	blb_dichoticlistening_ka-pa.mp3	ka	pa	1	left
6.6.1	mac	2023-06-27	19:38:10	19:53:37	893234	62e40abe71c1b7e395e9bf4a	3	1	DL_practice	21	DL_practice	9	stimuli_target_diamondsquares.svg	stimuli_distractor_diamondtriangles.svg	24	yes	da	1	1582	6	4	antiphase_hc_sio.wav	1	6	2	noise_calib_stim_LEFT.wav	1	7	blb_dichoticlistening_da-ba.mp3	da	ba	1	left
6.6.1	mac	2023-06-27	19:38:10	19:53:37	893234	62e40abe71c1b7e395e9bf4a	3	1	DL_practice	21	DL_practice	10	stimuli_target_diamondsquares.svg	stimuli_distractor_diamondtriangles.svg	24	yes	ka	1	727	6	4	antiphase_hc_sio.wav	1	6	2	noise_calib_stim_LEFT.wav	1	22	blb_dichoticlistening_ka-ka.mp3	ka	ka	0	left
6.6.1	mac	2023-06-27	19:38:10	19:53:37	893234	62e40abe71c1b7e395e9bf4a	3	1	DL_test	23	DL_test	1	stimuli_target_diamondsquares.svg	stimuli_distractor_diamondtriangles.svg	24	yes	ka	1	2031	6	4	antiphase_hc_sio.wav	1	6	2	noise_calib_stim_LEFT.wav	1	4	blb_dichoticlistening_ba-ka.mp3	ba	ka	1	right
6.6.1	mac	2023-06-27	19:38:10	19:53:37	893234	62e40abe71c1b7e395e9bf4a	3	1	DL_test	23	DL_test	2	stimuli_target_diamondsquares.svg	stimuli_distractor_diamondtriangles.svg	24	yes	da	1	1440	6	4	antiphase_hc_sio.wav	1	6	2	noise_calib_stim_LEFT.wav	1	7	blb_dichoticlistening_da-ba.mp3	da	ba	1	left
6.6.1	mac	2023-06-27	19:38:10	19:53:37	893234	62e40abe71c1b7e395e9bf4a	3	1	DL_test	23	DL_test	3	stimuli_target_diamondsquares.svg	stimuli_distractor_diamondtriangles.svg	24	yes	pa	0	1530	6	4	antiphase_hc_sio.wav	1	6	2	noise_calib_stim_LEFT.wav	1	10	blb_dichoticlistening_da-ka.mp3	da	ka	1	other
6.6.1	mac	2023-06-27	19:38:10	19:53:37	893234	62e40abe71c1b7e395e9bf4a	3	1	DL_test	23	DL_test	4	stimuli_target_diamondsquares.svg	stimuli_distractor_diamondtriangles.svg	24	yes	ta	1	942	6	4	antiphase_hc_sio.wav	1	6	2	noise_calib_stim_LEFT.wav	1	32	blb_dichoticlistening_ta-da.mp3	ta	da	1	left
6.6.1	mac	2023-06-27	19:38:10	19:53:37	893234	62e40abe71c1b7e395e9bf4a	3	1	DL_test	23	DL_test	5	stimuli_target_diamondsquares.svg	stimuli_distractor_diamondtriangles.svg	24	yes	da	0	1301	6	4	antiphase_hc_sio.wav	1	6	2	noise_calib_stim_LEFT.wav	1	18	blb_dichoticlistening_ga-ta.mp3	ga	ta	1	other
6.6.1	mac	2023-06-27	19:38:10	19:53:37	893234	62e40abe71c1b7e395e9bf4a	3	1	DL_test	23	DL_test	6	stimuli_target_diamondsquares.svg	stimuli_distractor_diamondtriangles.svg	24	yes	ba	1	1074	6	4	antiphase_hc_sio.wav	1	6	2	noise_calib_stim_LEFT.wav	1	5	blb_dichoticlistening_ba-pa.mp3	ba	pa	1	left
6.6.1	mac	2023-06-27	19:38:10	19:53:37	893234	62e40abe71c1b7e395e9bf4a	3	1	DL_test	23	DL_test	7	stimuli_target_diamondsquares.svg	stimuli_distractor_diamondtriangles.svg	24	yes	pa	1	1012	6	4	antiphase_hc_sio.wav	1	6	2	noise_calib_stim_LEFT.wav	1	29	blb_dichoticlistening_pa-pa.mp3	pa	pa	0	left
6.6.1	mac	2023-06-27	19:38:10	19:53:37	893234	62e40abe71c1b7e395e9bf4a	3	1	DL_test	23	DL_test	8	stimuli_target_diamondsquares.svg	stimuli_distractor_diamondtriangles.svg	24	yes	ba	0	2056	6	4	antiphase_hc_sio.wav	1	6	2	noise_calib_stim_LEFT.wav	1	17	blb_dichoticlistening_ga-pa.mp3	ga	pa	1	other
6.6.1	mac	2023-06-27	19:38:10	19:53:37	893234	62e40abe71c1b7e395e9bf4a	3	1	DL_test	23	DL_test	9	stimuli_target_diamondsquares.svg	stimuli_distractor_diamondtriangles.svg	24	yes	da	1	1547	6	4	antiphase_hc_sio.wav	1	6	2	noise_calib_stim_LEFT.wav	1	20	blb_dichoticlistening_ka-da.mp3	ka	da	1	right
6.6.1	mac	2023-06-27	19:38:10	19:53:37	893234	62e40abe71c1b7e395e9bf4a	3	1	DL_test	23	DL_test	10	stimuli_target_diamondsquares.svg	stimuli_distractor_diamondtriangles.svg	24	yes	ba	1	1197	6	4	antiphase_hc_sio.wav	1	6	2	noise_calib_stim_LEFT.wav	1	3	blb_dichoticlistening_ba-ga.mp3	ba	ga	1	left
6.6.1	mac	2023-06-27	19:38:10	19:53:37	893234	62e40abe71c1b7e395e9bf4a	3	1	DL_test	23	DL_test	11	stimuli_target_diamondsquares.svg	stimuli_distractor_diamondtriangles.svg	24	yes	ka	1	842	6	4	antiphase_hc_sio.wav	1	6	2	noise_calib_stim_LEFT.wav	1	22	blb_dichoticlistening_ka-ka.mp3	ka	ka	0	left
6.6.1	mac	2023-06-27	19:38:10	19:53:37	893234	62e40abe71c1b7e395e9bf4a	3	1	DL_test	23	DL_test	12	stimuli_target_diamondsquares.svg	stimuli_distractor_diamondtriangles.svg	24	yes	ga	1	715	6	4	antiphase_hc_sio.wav	1	6	2	noise_calib_stim_LEFT.wav	1	15	blb_dichoticlistening_ga-ga.mp3	ga	ga	0	left
6.6.1	mac	2023-06-27	19:38:10	19:53:37	893234	62e40abe71c1b7e395e9bf4a	3	1	DL_test	23	DL_test	13	stimuli_target_diamondsquares.svg	stimuli_distractor_diamondtriangles.svg	24	yes	ka	1	826	6	4	antiphase_hc_sio.wav	1	6	2	noise_calib_stim_LEFT.wav	1	21	blb_dichoticlistening_ka-ga.mp3	ka	ga	1	left
6.6.1	mac	2023-06-27	19:38:10	19:53:37	893234	62e40abe71c1b7e395e9bf4a	3	1	DL_test	23	DL_test	14	stimuli_target_diamondsquares.svg	stimuli_distractor_diamondtriangles.svg	24	yes	ta	1	1020	6	4	antiphase_hc_sio.wav	1	6	2	noise_calib_stim_LEFT.wav	1	31	blb_dichoticlistening_ta-ba.mp3	ta	ba	1	left
6.6.1	mac	2023-06-27	19:38:10	19:53:37	893234	62e40abe71c1b7e395e9bf4a	3	1	DL_test	23	DL_test	15	stimuli_target_diamondsquares.svg	stimuli_distractor_diamondtriangles.svg	24	yes	ga	1	988	6	4	antiphase_hc_sio.wav	1	6	2	noise_calib_stim_LEFT.wav	1	13	blb_dichoticlistening_ga-ba.mp3	ga	ba	1	left
6.6.1	mac	2023-06-27	19:38:10	19:53:37	893234	62e40abe71c1b7e395e9bf4a	3	1	DL_test	23	DL_test	16	stimuli_target_diamondsquares.svg	stimuli_distractor_diamondtriangles.svg	24	yes	pa	1	1356	6	4	antiphase_hc_sio.wav	1	6	2	noise_calib_stim_LEFT.wav	1	25	blb_dichoticlistening_pa-ba.mp3	pa	ba	1	left
6.6.1	mac	2023-06-27	19:38:10	19:53:37	893234	62e40abe71c1b7e395e9bf4a	3	1	DL_test	23	DL_test	17	stimuli_target_diamondsquares.svg	stimuli_distractor_diamondtriangles.svg	24	yes	ta	1	1401	6	4	antiphase_hc_sio.wav	1	6	2	noise_calib_stim_LEFT.wav	1	35	blb_dichoticlistening_ta-pa.mp3	ta	pa	1	left
6.6.1	mac	2023-06-27	19:38:10	19:53:37	893234	62e40abe71c1b7e395e9bf4a	3	1	DL_test	23	DL_test	18	stimuli_target_diamondsquares.svg	stimuli_distractor_diamondtriangles.svg	24	yes	da	1	1270	6	4	antiphase_hc_sio.wav	1	6	2	noise_calib_stim_LEFT.wav	1	12	blb_dichoticlistening_da-ta.mp3	da	ta	1	left
6.6.1	mac	2023-06-27	19:38:10	19:53:37	893234	62e40abe71c1b7e395e9bf4a	3	1	DL_test	23	DL_test	19	stimuli_target_diamondsquares.svg	stimuli_distractor_diamondtriangles.svg	24	yes	ta	1	1365	6	4	antiphase_hc_sio.wav	1	6	2	noise_calib_stim_LEFT.wav	1	34	blb_dichoticlistening_ta-ka.mp3	ta	ka	1	left
6.6.1	mac	2023-06-27	19:38:10	19:53:37	893234	62e40abe71c1b7e395e9bf4a	3	1	DL_test	23	DL_test	20	stimuli_target_diamondsquares.svg	stimuli_distractor_diamondtriangles.svg	24	yes	pa	1	1247	6	4	antiphase_hc_sio.wav	1	6	2	noise_calib_stim_LEFT.wav	1	30	blb_dichoticlistening_pa-ta.mp3	pa	ta	1	left
6.6.1	mac	2023-06-27	19:38:10	19:53:37	893234	62e40abe71c1b7e395e9bf4a	3	1	DL_test	23	DL_test	21	stimuli_target_diamondsquares.svg	stimuli_distractor_diamondtriangles.svg	24	yes	ba	1	1253	6	4	antiphase_hc_sio.wav	1	6	2	noise_calib_stim_LEFT.wav	1	2	blb_dichoticlistening_ba-da.mp3	ba	da	1	left
6.6.1	mac	2023-06-27	19:38:10	19:53:37	893234	62e40abe71c1b7e395e9bf4a	3	1	DL_test	23	DL_test	22	stimuli_target_diamondsquares.svg	stimuli_distractor_diamondtriangles.svg	24	yes	ba	1	1539	6	4	antiphase_hc_sio.wav	1	6	2	noise_calib_stim_LEFT.wav	1	6	blb_dichoticlistening_ba-ta.mp3	ba	ta	1	left
6.6.1	mac	2023-06-27	19:38:10	19:53:37	893234	62e40abe71c1b7e395e9bf4a	3	1	DL_test	23	DL_test	23	stimuli_target_diamondsquares.svg	stimuli_distractor_diamondtriangles.svg	24	yes	da	1	869	6	4	antiphase_hc_sio.wav	1	6	2	noise_calib_stim_LEFT.wav	1	8	blb_dichoticlistening_da-da.mp3	da	da	0	left
6.6.1	mac	2023-06-27	19:38:10	19:53:37	893234	62e40abe71c1b7e395e9bf4a	3	1	DL_test	23	DL_test	24	stimuli_target_diamondsquares.svg	stimuli_distractor_diamondtriangles.svg	24	yes	ta	1	1007	6	4	antiphase_hc_sio.wav	1	6	2	noise_calib_stim_LEFT.wav	1	33	blb_dichoticlistening_ta-ga.mp3	ta	ga	1	left
6.6.1	mac	2023-06-27	19:38:10	19:53:37	893234	62e40abe71c1b7e395e9bf4a	3	1	DL_test	23	DL_test	25	stimuli_target_diamondsquares.svg	stimuli_distractor_diamondtriangles.svg	24	yes	pa	1	593	6	4	antiphase_hc_sio.wav	1	6	2	noise_calib_stim_LEFT.wav	1	28	blb_dichoticlistening_pa-ka.mp3	pa	ka	1	left
6.6.1	mac	2023-06-27	19:38:10	19:53:37	893234	62e40abe71c1b7e395e9bf4a	3	1	DL_test	23	DL_test	26	stimuli_target_diamondsquares.svg	stimuli_distractor_diamondtriangles.svg	24	yes	ka	1	776	6	4	antiphase_hc_sio.wav	1	6	2	noise_calib_stim_LEFT.wav	1	23	blb_dichoticlistening_ka-pa.mp3	ka	pa	1	left
