build	computer.platform	date	time	timestamp	time_elapsed_ms	subject	group	session	blockcode	blocknum	trialcode	trialnum	stimulus_left	stimulus_right	stim_index	target_present	response	correct	latency	headphonecheck_countTestTrials	headphonecheck_index	headphonecheck_testSound	headphonecheck_correctResponse	stereocheck_countTestTrials	stereocheck_index	stereocheck_testSound	stereocheck_correctResponse	DL_index	DL_soundfile	DL_leftSound	DL_rightSound	DL_dualSound	DL_choice
6.6.1	win	2023-07-07	09:23:55	0	0	6303c0bf11a5be642b52830e	2	1	headphonecheck_calibration	4	headphonecheck_calibrationIntro	1			0		calibrationButton	0	2760	0	0			0	0			1				0	
6.6.1	win	2023-07-07	09:23:55	0	0	6303c0bf11a5be642b52830e	2	1	headphonecheck_testphase	5	test_collectResponse	3			0		third	0	637	1	4	antiphase_hc_sio.wav	1	0	0			1				0	
6.6.1	win	2023-07-07	09:23:55	0	0	6303c0bf11a5be642b52830e	2	1	headphonecheck_testphase	5	test_collectResponse	6			0		second	0	346	2	3	antiphase_hc_soi.wav	1	0	0			1				0	
6.6.1	win	2023-07-07	09:23:55	0	0	6303c0bf11a5be642b52830e	2	1	headphonecheck_testphase	5	test_collectResponse	9			0		first	0	1193	3	6	antiphase_hc_ois.wav	3	0	0			1				0	
6.6.1	win	2023-07-07	09:23:55	0	0	6303c0bf11a5be642b52830e	2	1	headphonecheck_testphase	5	test_collectResponse	12			0		first	0	299	4	5	antiphase_hc_osi.wav	2	0	0			1				0	
6.6.1	win	2023-07-07	09:23:55	0	0	6303c0bf11a5be642b52830e	2	1	headphonecheck_testphase	5	test_collectResponse	15			0		second	0	402	5	2	antiphase_hc_ios.wav	3	0	0			1				0	
6.6.1	win	2023-07-07	09:23:55	0	0	6303c0bf11a5be642b52830e	2	1	headphonecheck_testphase	5	test_collectResponse	18			0		third	0	113	6	1	antiphase_hc_iso.wav	2	0	0			1				0	
6.6.1	win	2023-07-07	09:23:55	0	0	6303c0bf11a5be642b52830e	2	1	stereocheck_calibration	7	stereocheck_calibrationIntro	1			0		stereocheck_calibrationButton	0	2986	6	1	antiphase_hc_iso.wav	2	0	0			1				0	
6.6.1	win	2023-07-07	09:23:55	0	0	6303c0bf11a5be642b52830e	2	1	stereocheck_testphase	8	stereocheck_test_collectResponse	3			0		stereocheck_right	1	801	6	1	antiphase_hc_iso.wav	2	1	4	noise_calib_stim_RIGHT.wav	2	1				0	
6.6.1	win	2023-07-07	09:23:55	0	0	6303c0bf11a5be642b52830e	2	1	stereocheck_testphase	8	stereocheck_test_collectResponse	6			0		stereocheck_right	1	5195	6	1	antiphase_hc_iso.wav	2	2	6	noise_calib_stim_RIGHT.wav	2	1				0	
6.6.1	win	2023-07-07	09:23:55	0	0	6303c0bf11a5be642b52830e	2	1	stereocheck_testphase	8	stereocheck_test_collectResponse	9			0		stereocheck_left	1	566	6	1	antiphase_hc_iso.wav	2	3	3	noise_calib_stim_LEFT.wav	1	1				0	
6.6.1	win	2023-07-07	09:23:55	0	0	6303c0bf11a5be642b52830e	2	1	stereocheck_testphase	8	stereocheck_test_collectResponse	12			0		stereocheck_left	1	505	6	1	antiphase_hc_iso.wav	2	4	1	noise_calib_stim_LEFT.wav	1	1				0	
6.6.1	win	2023-07-07	09:23:55	0	0	6303c0bf11a5be642b52830e	2	1	stereocheck_testphase	8	stereocheck_test_collectResponse	15			0		stereocheck_right	1	401	6	1	antiphase_hc_iso.wav	2	5	5	noise_calib_stim_RIGHT.wav	2	1				0	
6.6.1	win	2023-07-07	09:23:55	0	0	6303c0bf11a5be642b52830e	2	1	stereocheck_testphase	8	stereocheck_test_collectResponse	18			0		stereocheck_left	1	354	6	1	antiphase_hc_iso.wav	2	6	2	noise_calib_stim_LEFT.wav	1	1				0	
6.6.1	win	2023-07-07	09:23:55	0	0	6303c0bf11a5be642b52830e	2	1	DL_practice	11	DL_practice	2			0		ka	1	1290	6	1	antiphase_hc_iso.wav	2	6	2	noise_calib_stim_LEFT.wav	1	22	blb_dichoticlistening_ka-ka.mp3	ka	ka	0	left
6.6.1	win	2023-07-07	09:23:55	0	0	6303c0bf11a5be642b52830e	2	1	DL_practice	11	DL_practice	3			0		ta	1	1116	6	1	antiphase_hc_iso.wav	2	6	2	noise_calib_stim_LEFT.wav	1	36	blb_dichoticlistening_ta-ta.mp3	ta	ta	0	left
6.6.1	win	2023-07-07	09:23:55	0	0	6303c0bf11a5be642b52830e	2	1	DL_practice	11	DL_practice	4			0		ka	1	1133	6	1	antiphase_hc_iso.wav	2	6	2	noise_calib_stim_LEFT.wav	1	23	blb_dichoticlistening_ka-pa.mp3	ka	pa	1	left
6.6.1	win	2023-07-07	09:23:55	0	0	6303c0bf11a5be642b52830e	2	1	DL_practice	11	DL_practice	5			0		ba	1	1268	6	1	antiphase_hc_iso.wav	2	6	2	noise_calib_stim_LEFT.wav	1	1	blb_dichoticlistening_ba-ba.mp3	ba	ba	0	left
6.6.1	win	2023-07-07	09:23:55	0	0	6303c0bf11a5be642b52830e	2	1	DL_practice	11	DL_practice	6			0		da	1	1193	6	1	antiphase_hc_iso.wav	2	6	2	noise_calib_stim_LEFT.wav	1	7	blb_dichoticlistening_da-ba.mp3	da	ba	1	left
6.6.1	win	2023-07-07	09:23:55	0	0	6303c0bf11a5be642b52830e	2	1	DL_practice	11	DL_practice	7			0		pa	1	950	6	1	antiphase_hc_iso.wav	2	6	2	noise_calib_stim_LEFT.wav	1	29	blb_dichoticlistening_pa-pa.mp3	pa	pa	0	left
6.6.1	win	2023-07-07	09:23:55	0	0	6303c0bf11a5be642b52830e	2	1	DL_practice	11	DL_practice	8			0		ga	1	1014	6	1	antiphase_hc_iso.wav	2	6	2	noise_calib_stim_LEFT.wav	1	18	blb_dichoticlistening_ga-ta.mp3	ga	ta	1	left
6.6.1	win	2023-07-07	09:23:55	0	0	6303c0bf11a5be642b52830e	2	1	DL_practice	11	DL_practice	9			0		ga	1	905	6	1	antiphase_hc_iso.wav	2	6	2	noise_calib_stim_LEFT.wav	1	15	blb_dichoticlistening_ga-ga.mp3	ga	ga	0	left
6.6.1	win	2023-07-07	09:23:55	0	0	6303c0bf11a5be642b52830e	2	1	DL_practice	11	DL_practice	10			0		da	1	914	6	1	antiphase_hc_iso.wav	2	6	2	noise_calib_stim_LEFT.wav	1	8	blb_dichoticlistening_da-da.mp3	da	da	0	left
6.6.1	win	2023-07-07	09:23:55	0	0	6303c0bf11a5be642b52830e	2	1	DL_test	13	DL_test	1			0		ga	1	822	6	1	antiphase_hc_iso.wav	2	6	2	noise_calib_stim_LEFT.wav	1	21	blb_dichoticlistening_ka-ga.mp3	ka	ga	1	right
6.6.1	win	2023-07-07	09:23:55	0	0	6303c0bf11a5be642b52830e	2	1	DL_test	13	DL_test	2			0		ta	1	963	6	1	antiphase_hc_iso.wav	2	6	2	noise_calib_stim_LEFT.wav	1	30	blb_dichoticlistening_pa-ta.mp3	pa	ta	1	right
6.6.1	win	2023-07-07	09:23:55	0	0	6303c0bf11a5be642b52830e	2	1	DL_test	13	DL_test	3			0		ka	1	896	6	1	antiphase_hc_iso.wav	2	6	2	noise_calib_stim_LEFT.wav	1	34	blb_dichoticlistening_ta-ka.mp3	ta	ka	1	right
6.6.1	win	2023-07-07	09:23:55	0	0	6303c0bf11a5be642b52830e	2	1	DL_test	13	DL_test	4			0		ba	1	971	6	1	antiphase_hc_iso.wav	2	6	2	noise_calib_stim_LEFT.wav	1	4	blb_dichoticlistening_ba-ka.mp3	ba	ka	1	left
6.6.1	win	2023-07-07	09:23:55	0	0	6303c0bf11a5be642b52830e	2	1	DL_test	13	DL_test	5			0		ba	1	976	6	1	antiphase_hc_iso.wav	2	6	2	noise_calib_stim_LEFT.wav	1	31	blb_dichoticlistening_ta-ba.mp3	ta	ba	1	right
6.6.1	win	2023-07-07	09:23:55	0	0	6303c0bf11a5be642b52830e	2	1	DL_test	13	DL_test	6			0		ba	1	928	6	1	antiphase_hc_iso.wav	2	6	2	noise_calib_stim_LEFT.wav	1	13	blb_dichoticlistening_ga-ba.mp3	ga	ba	1	right
6.6.1	win	2023-07-07	09:23:55	0	0	6303c0bf11a5be642b52830e	2	1	DL_test	13	DL_test	7			0		ka	1	1137	6	1	antiphase_hc_iso.wav	2	6	2	noise_calib_stim_LEFT.wav	1	19	blb_dichoticlistening_ka-ba.mp3	ka	ba	1	left
6.6.1	win	2023-07-07	09:23:55	0	0	6303c0bf11a5be642b52830e	2	1	DL_test	13	DL_test	8			0		da	1	1416	6	1	antiphase_hc_iso.wav	2	6	2	noise_calib_stim_LEFT.wav	1	7	blb_dichoticlistening_da-ba.mp3	da	ba	1	left
6.6.1	win	2023-07-07	09:23:55	0	0	6303c0bf11a5be642b52830e	2	1	DL_test	13	DL_test	9			0		ga	1	900	6	1	antiphase_hc_iso.wav	2	6	2	noise_calib_stim_LEFT.wav	1	16	blb_dichoticlistening_ga-ka.mp3	ga	ka	1	left
6.6.1	win	2023-07-07	09:23:55	0	0	6303c0bf11a5be642b52830e	2	1	DL_test	13	DL_test	10			0		ka	1	797	6	1	antiphase_hc_iso.wav	2	6	2	noise_calib_stim_LEFT.wav	1	28	blb_dichoticlistening_pa-ka.mp3	pa	ka	1	right
6.6.1	win	2023-07-07	09:23:55	0	0	6303c0bf11a5be642b52830e	2	1	DL_test	13	DL_test	11			0		da	1	843	6	1	antiphase_hc_iso.wav	2	6	2	noise_calib_stim_LEFT.wav	1	12	blb_dichoticlistening_da-ta.mp3	da	ta	1	left
6.6.1	win	2023-07-07	09:23:55	0	0	6303c0bf11a5be642b52830e	2	1	DL_test	13	DL_test	12			0		pa	1	2086	6	1	antiphase_hc_iso.wav	2	6	2	noise_calib_stim_LEFT.wav	1	5	blb_dichoticlistening_ba-pa.mp3	ba	pa	1	right
6.6.1	win	2023-07-07	09:23:55	0	0	6303c0bf11a5be642b52830e	2	1	DL_test	13	DL_test	13			0		da	1	1176	6	1	antiphase_hc_iso.wav	2	6	2	noise_calib_stim_LEFT.wav	1	9	blb_dichoticlistening_da-ga.mp3	da	ga	1	left
6.6.1	win	2023-07-07	09:23:55	0	0	6303c0bf11a5be642b52830e	2	1	DL_test	13	DL_test	14			0		ba	1	973	6	1	antiphase_hc_iso.wav	2	6	2	noise_calib_stim_LEFT.wav	1	1	blb_dichoticlistening_ba-ba.mp3	ba	ba	0	left
6.6.1	win	2023-07-07	09:23:55	0	0	6303c0bf11a5be642b52830e	2	1	DL_test	13	DL_test	15			0		da	1	931	6	1	antiphase_hc_iso.wav	2	6	2	noise_calib_stim_LEFT.wav	1	32	blb_dichoticlistening_ta-da.mp3	ta	da	1	right
6.6.1	win	2023-07-07	09:23:55	0	0	6303c0bf11a5be642b52830e	2	1	DL_test	13	DL_test	16			0		ga	1	1061	6	1	antiphase_hc_iso.wav	2	6	2	noise_calib_stim_LEFT.wav	1	33	blb_dichoticlistening_ta-ga.mp3	ta	ga	1	right
6.6.1	win	2023-07-07	09:23:55	0	0	6303c0bf11a5be642b52830e	2	1	DL_test	13	DL_test	17			0		ta	1	1295	6	1	antiphase_hc_iso.wav	2	6	2	noise_calib_stim_LEFT.wav	1	6	blb_dichoticlistening_ba-ta.mp3	ba	ta	1	right
6.6.1	win	2023-07-07	09:23:55	0	0	6303c0bf11a5be642b52830e	2	1	DL_test	13	DL_test	18			0		ka	1	1054	6	1	antiphase_hc_iso.wav	2	6	2	noise_calib_stim_LEFT.wav	1	20	blb_dichoticlistening_ka-da.mp3	ka	da	1	left
6.6.1	win	2023-07-07	09:23:55	0	0	6303c0bf11a5be642b52830e	2	1	DL_test	13	DL_test	19			0		da	1	876	6	1	antiphase_hc_iso.wav	2	6	2	noise_calib_stim_LEFT.wav	1	8	blb_dichoticlistening_da-da.mp3	da	da	0	left
6.6.1	win	2023-07-07	09:23:55	0	0	6303c0bf11a5be642b52830e	2	1	DL_test	13	DL_test	20			0		pa	1	1150	6	1	antiphase_hc_iso.wav	2	6	2	noise_calib_stim_LEFT.wav	1	25	blb_dichoticlistening_pa-ba.mp3	pa	ba	1	left
6.6.1	win	2023-07-07	09:23:55	0	0	6303c0bf11a5be642b52830e	2	1	DL_test	13	DL_test	21			0		ka	1	949	6	1	antiphase_hc_iso.wav	2	6	2	noise_calib_stim_LEFT.wav	1	24	blb_dichoticlistening_ka-ta.mp3	ka	ta	1	left
6.6.1	win	2023-07-07	09:23:55	0	0	6303c0bf11a5be642b52830e	2	1	DL_test	13	DL_test	22			0		ba	1	988	6	1	antiphase_hc_iso.wav	2	6	2	noise_calib_stim_LEFT.wav	1	3	blb_dichoticlistening_ba-ga.mp3	ba	ga	1	left
6.6.1	win	2023-07-07	09:23:55	0	0	6303c0bf11a5be642b52830e	2	1	DL_test	13	DL_test	23			0		ba	1	1362	6	1	antiphase_hc_iso.wav	2	6	2	noise_calib_stim_LEFT.wav	1	2	blb_dichoticlistening_ba-da.mp3	ba	da	1	left
6.6.1	win	2023-07-07	09:23:55	0	0	6303c0bf11a5be642b52830e	2	1	DL_test	13	DL_test	24			0		ka	1	873	6	1	antiphase_hc_iso.wav	2	6	2	noise_calib_stim_LEFT.wav	1	22	blb_dichoticlistening_ka-ka.mp3	ka	ka	0	left
6.6.1	win	2023-07-07	09:23:55	0	0	6303c0bf11a5be642b52830e	2	1	DL_test	13	DL_test	25			0		da	1	1171	6	1	antiphase_hc_iso.wav	2	6	2	noise_calib_stim_LEFT.wav	1	11	blb_dichoticlistening_da-pa.mp3	da	pa	1	left
6.6.1	win	2023-07-07	09:23:55	0	0	6303c0bf11a5be642b52830e	2	1	DL_test	13	DL_test	26			0		ga	1	1794	6	1	antiphase_hc_iso.wav	2	6	2	noise_calib_stim_LEFT.wav	1	18	blb_dichoticlistening_ga-ta.mp3	ga	ta	1	left
6.6.1	win	2023-07-07	09:23:55	0	0	6303c0bf11a5be642b52830e	2	1	DL_test	13	DL_test	27			0		ga	1	928	6	1	antiphase_hc_iso.wav	2	6	2	noise_calib_stim_LEFT.wav	1	27	blb_dichoticlistening_pa-ga.mp3	pa	ga	1	right
6.6.1	win	2023-07-07	09:23:55	0	0	6303c0bf11a5be642b52830e	2	1	DL_test	13	DL_test	28			0		da	1	848	6	1	antiphase_hc_iso.wav	2	6	2	noise_calib_stim_LEFT.wav	1	26	blb_dichoticlistening_pa-da.mp3	pa	da	1	right
6.6.1	win	2023-07-07	09:23:55	0	0	6303c0bf11a5be642b52830e	2	1	DL_test	13	DL_test	29			0		ka	1	949	6	1	antiphase_hc_iso.wav	2	6	2	noise_calib_stim_LEFT.wav	1	23	blb_dichoticlistening_ka-pa.mp3	ka	pa	1	left
6.6.1	win	2023-07-07	09:23:55	0	0	6303c0bf11a5be642b52830e	2	1	DL_test	13	DL_test	30			0		ta	1	892	6	1	antiphase_hc_iso.wav	2	6	2	noise_calib_stim_LEFT.wav	1	36	blb_dichoticlistening_ta-ta.mp3	ta	ta	0	left
6.6.1	win	2023-07-07	09:23:55	0	0	6303c0bf11a5be642b52830e	2	1	DL_test	13	DL_test	31			0		da	1	909	6	1	antiphase_hc_iso.wav	2	6	2	noise_calib_stim_LEFT.wav	1	14	blb_dichoticlistening_ga-da.mp3	ga	da	1	right
6.6.1	win	2023-07-07	09:23:55	0	0	6303c0bf11a5be642b52830e	2	1	DL_test	13	DL_test	32			0		ga	1	765	6	1	antiphase_hc_iso.wav	2	6	2	noise_calib_stim_LEFT.wav	1	15	blb_dichoticlistening_ga-ga.mp3	ga	ga	0	left
6.6.1	win	2023-07-07	09:23:55	0	0	6303c0bf11a5be642b52830e	2	1	DL_test	13	DL_test	33			0		ga	1	828	6	1	antiphase_hc_iso.wav	2	6	2	noise_calib_stim_LEFT.wav	1	17	blb_dichoticlistening_ga-pa.mp3	ga	pa	1	left
6.6.1	win	2023-07-07	09:23:55	0	0	6303c0bf11a5be642b52830e	2	1	DL_test	13	DL_test	34			0		da	1	1002	6	1	antiphase_hc_iso.wav	2	6	2	noise_calib_stim_LEFT.wav	1	10	blb_dichoticlistening_da-ka.mp3	da	ka	1	left
6.6.1	win	2023-07-07	09:23:55	0	0	6303c0bf11a5be642b52830e	2	1	DL_test	13	DL_test	35			0		ta	1	943	6	1	antiphase_hc_iso.wav	2	6	2	noise_calib_stim_LEFT.wav	1	35	blb_dichoticlistening_ta-pa.mp3	ta	pa	1	left
6.6.1	win	2023-07-07	09:23:55	0	0	6303c0bf11a5be642b52830e	2	1	DL_test	13	DL_test	36			0		pa	1	877	6	1	antiphase_hc_iso.wav	2	6	2	noise_calib_stim_LEFT.wav	1	29	blb_dichoticlistening_pa-pa.mp3	pa	pa	0	left
6.6.1	win	2023-07-07	09:23:55	0	0	6303c0bf11a5be642b52830e	2	1	DL_test	14	DL_test	1			0		da	1	7247	6	1	antiphase_hc_iso.wav	2	6	2	noise_calib_stim_LEFT.wav	1	10	blb_dichoticlistening_da-ka.mp3	da	ka	1	left
6.6.1	win	2023-07-07	09:23:55	0	0	6303c0bf11a5be642b52830e	2	1	DL_test	14	DL_test	2			0		ba	0	3715	6	1	antiphase_hc_iso.wav	2	6	2	noise_calib_stim_LEFT.wav	1	29	blb_dichoticlistening_pa-pa.mp3	pa	pa	0	other
6.6.1	win	2023-07-07	09:23:55	0	0	6303c0bf11a5be642b52830e	2	1	DL_test	14	DL_test	3			0		ba	1	1045	6	1	antiphase_hc_iso.wav	2	6	2	noise_calib_stim_LEFT.wav	1	1	blb_dichoticlistening_ba-ba.mp3	ba	ba	0	left
6.6.1	win	2023-07-07	09:23:55	0	0	6303c0bf11a5be642b52830e	2	1	DL_test	14	DL_test	4			0		ka	1	1105	6	1	antiphase_hc_iso.wav	2	6	2	noise_calib_stim_LEFT.wav	1	4	blb_dichoticlistening_ba-ka.mp3	ba	ka	1	right
6.6.1	win	2023-07-07	09:23:55	0	0	6303c0bf11a5be642b52830e	2	1	DL_test	14	DL_test	5			0		da	1	1299	6	1	antiphase_hc_iso.wav	2	6	2	noise_calib_stim_LEFT.wav	1	11	blb_dichoticlistening_da-pa.mp3	da	pa	1	left
6.6.1	win	2023-07-07	09:23:55	0	0	6303c0bf11a5be642b52830e	2	1	DL_test	14	DL_test	6			0		da	1	2004	6	1	antiphase_hc_iso.wav	2	6	2	noise_calib_stim_LEFT.wav	1	32	blb_dichoticlistening_ta-da.mp3	ta	da	1	right
6.6.1	win	2023-07-07	09:23:55	0	0	6303c0bf11a5be642b52830e	2	1	DL_test	14	DL_test	7			0		ta	1	993	6	1	antiphase_hc_iso.wav	2	6	2	noise_calib_stim_LEFT.wav	1	35	blb_dichoticlistening_ta-pa.mp3	ta	pa	1	left
6.6.1	win	2023-07-07	09:23:55	0	0	6303c0bf11a5be642b52830e	2	1	DL_test	14	DL_test	8			0		ka	1	998	6	1	antiphase_hc_iso.wav	2	6	2	noise_calib_stim_LEFT.wav	1	24	blb_dichoticlistening_ka-ta.mp3	ka	ta	1	left
6.6.1	win	2023-07-07	09:23:55	0	0	6303c0bf11a5be642b52830e	2	1	DL_test	14	DL_test	9			0		ta	1	1893	6	1	antiphase_hc_iso.wav	2	6	2	noise_calib_stim_LEFT.wav	1	6	blb_dichoticlistening_ba-ta.mp3	ba	ta	1	right
6.6.1	win	2023-07-07	09:23:55	0	0	6303c0bf11a5be642b52830e	2	1	DL_test	14	DL_test	10			0		ka	1	1263	6	1	antiphase_hc_iso.wav	2	6	2	noise_calib_stim_LEFT.wav	1	16	blb_dichoticlistening_ga-ka.mp3	ga	ka	1	right
6.6.1	win	2023-07-07	09:23:55	0	0	6303c0bf11a5be642b52830e	2	1	DL_test	14	DL_test	11			0		ga	1	961	6	1	antiphase_hc_iso.wav	2	6	2	noise_calib_stim_LEFT.wav	1	15	blb_dichoticlistening_ga-ga.mp3	ga	ga	0	left
6.6.1	win	2023-07-07	09:23:55	0	0	6303c0bf11a5be642b52830e	2	1	DL_test	14	DL_test	12			0		da	1	951	6	1	antiphase_hc_iso.wav	2	6	2	noise_calib_stim_LEFT.wav	1	14	blb_dichoticlistening_ga-da.mp3	ga	da	1	right
6.6.1	win	2023-07-07	09:23:55	0	0	6303c0bf11a5be642b52830e	2	1	DL_test	14	DL_test	13			0		da	1	1016	6	1	antiphase_hc_iso.wav	2	6	2	noise_calib_stim_LEFT.wav	1	26	blb_dichoticlistening_pa-da.mp3	pa	da	1	right
6.6.1	win	2023-07-07	09:23:55	0	0	6303c0bf11a5be642b52830e	2	1	DL_test	14	DL_test	14			0		ba	1	987	6	1	antiphase_hc_iso.wav	2	6	2	noise_calib_stim_LEFT.wav	1	2	blb_dichoticlistening_ba-da.mp3	ba	da	1	left
6.6.1	win	2023-07-07	09:23:55	0	0	6303c0bf11a5be642b52830e	2	1	DL_test	14	DL_test	15			0		ga	1	1074	6	1	antiphase_hc_iso.wav	2	6	2	noise_calib_stim_LEFT.wav	1	33	blb_dichoticlistening_ta-ga.mp3	ta	ga	1	right
6.6.1	win	2023-07-07	09:23:55	0	0	6303c0bf11a5be642b52830e	2	1	DL_test	14	DL_test	16			0		da	1	1028	6	1	antiphase_hc_iso.wav	2	6	2	noise_calib_stim_LEFT.wav	1	9	blb_dichoticlistening_da-ga.mp3	da	ga	1	left
6.6.1	win	2023-07-07	09:23:55	0	0	6303c0bf11a5be642b52830e	2	1	DL_test	14	DL_test	17			0		ka	0	1154	6	1	antiphase_hc_iso.wav	2	6	2	noise_calib_stim_LEFT.wav	1	17	blb_dichoticlistening_ga-pa.mp3	ga	pa	1	other
6.6.1	win	2023-07-07	09:23:55	0	0	6303c0bf11a5be642b52830e	2	1	DL_test	14	DL_test	18			0		ka	1	1289	6	1	antiphase_hc_iso.wav	2	6	2	noise_calib_stim_LEFT.wav	1	21	blb_dichoticlistening_ka-ga.mp3	ka	ga	1	left
6.6.1	win	2023-07-07	09:23:55	0	0	6303c0bf11a5be642b52830e	2	1	DL_test	14	DL_test	19			0		ka	1	795	6	1	antiphase_hc_iso.wav	2	6	2	noise_calib_stim_LEFT.wav	1	34	blb_dichoticlistening_ta-ka.mp3	ta	ka	1	right
6.6.1	win	2023-07-07	09:23:55	0	0	6303c0bf11a5be642b52830e	2	1	DL_test	14	DL_test	20			0		ka	1	1202	6	1	antiphase_hc_iso.wav	2	6	2	noise_calib_stim_LEFT.wav	1	20	blb_dichoticlistening_ka-da.mp3	ka	da	1	left
6.6.1	win	2023-07-07	09:23:55	0	0	6303c0bf11a5be642b52830e	2	1	DL_test	14	DL_test	21			0		ka	1	814	6	1	antiphase_hc_iso.wav	2	6	2	noise_calib_stim_LEFT.wav	1	22	blb_dichoticlistening_ka-ka.mp3	ka	ka	0	left
6.6.1	win	2023-07-07	09:23:55	0	0	6303c0bf11a5be642b52830e	2	1	DL_test	14	DL_test	22			0		ga	1	858	6	1	antiphase_hc_iso.wav	2	6	2	noise_calib_stim_LEFT.wav	1	27	blb_dichoticlistening_pa-ga.mp3	pa	ga	1	right
6.6.1	win	2023-07-07	09:23:55	0	0	6303c0bf11a5be642b52830e	2	1	DL_test	14	DL_test	23			0		ka	1	896	6	1	antiphase_hc_iso.wav	2	6	2	noise_calib_stim_LEFT.wav	1	28	blb_dichoticlistening_pa-ka.mp3	pa	ka	1	right
6.6.1	win	2023-07-07	09:23:55	0	0	6303c0bf11a5be642b52830e	2	1	DL_test	14	DL_test	24			0		ta	1	1536	6	1	antiphase_hc_iso.wav	2	6	2	noise_calib_stim_LEFT.wav	1	12	blb_dichoticlistening_da-ta.mp3	da	ta	1	right
6.6.1	win	2023-07-07	09:23:55	0	0	6303c0bf11a5be642b52830e	2	1	DL_test	14	DL_test	25			0		pa	1	1096	6	1	antiphase_hc_iso.wav	2	6	2	noise_calib_stim_LEFT.wav	1	5	blb_dichoticlistening_ba-pa.mp3	ba	pa	1	right
6.6.1	win	2023-07-07	09:23:55	0	0	6303c0bf11a5be642b52830e	2	1	DL_test	14	DL_test	26			0		ka	1	904	6	1	antiphase_hc_iso.wav	2	6	2	noise_calib_stim_LEFT.wav	1	23	blb_dichoticlistening_ka-pa.mp3	ka	pa	1	left
6.6.1	win	2023-07-07	09:23:55	0	0	6303c0bf11a5be642b52830e	2	1	DL_test	14	DL_test	27			0		ga	1	882	6	1	antiphase_hc_iso.wav	2	6	2	noise_calib_stim_LEFT.wav	1	13	blb_dichoticlistening_ga-ba.mp3	ga	ba	1	left
6.6.1	win	2023-07-07	09:23:55	0	0	6303c0bf11a5be642b52830e	2	1	DL_test	14	DL_test	28			0		ka	1	965	6	1	antiphase_hc_iso.wav	2	6	2	noise_calib_stim_LEFT.wav	1	19	blb_dichoticlistening_ka-ba.mp3	ka	ba	1	left
6.6.1	win	2023-07-07	09:23:55	0	0	6303c0bf11a5be642b52830e	2	1	DL_test	14	DL_test	29			0		ba	1	1228	6	1	antiphase_hc_iso.wav	2	6	2	noise_calib_stim_LEFT.wav	1	25	blb_dichoticlistening_pa-ba.mp3	pa	ba	1	right
6.6.1	win	2023-07-07	09:23:55	0	0	6303c0bf11a5be642b52830e	2	1	DL_test	14	DL_test	30			0		ta	1	1386	6	1	antiphase_hc_iso.wav	2	6	2	noise_calib_stim_LEFT.wav	1	31	blb_dichoticlistening_ta-ba.mp3	ta	ba	1	left
6.6.1	win	2023-07-07	09:23:55	0	0	6303c0bf11a5be642b52830e	2	1	DL_test	14	DL_test	31			0		ga	1	1006	6	1	antiphase_hc_iso.wav	2	6	2	noise_calib_stim_LEFT.wav	1	18	blb_dichoticlistening_ga-ta.mp3	ga	ta	1	left
6.6.1	win	2023-07-07	09:23:55	0	0	6303c0bf11a5be642b52830e	2	1	DL_test	14	DL_test	32			0		ta	1	1220	6	1	antiphase_hc_iso.wav	2	6	2	noise_calib_stim_LEFT.wav	1	30	blb_dichoticlistening_pa-ta.mp3	pa	ta	1	right
6.6.1	win	2023-07-07	09:23:55	0	0	6303c0bf11a5be642b52830e	2	1	DL_test	14	DL_test	33			0		da	1	1025	6	1	antiphase_hc_iso.wav	2	6	2	noise_calib_stim_LEFT.wav	1	8	blb_dichoticlistening_da-da.mp3	da	da	0	left
6.6.1	win	2023-07-07	09:23:55	0	0	6303c0bf11a5be642b52830e	2	1	DL_test	14	DL_test	34			0		ta	1	1413	6	1	antiphase_hc_iso.wav	2	6	2	noise_calib_stim_LEFT.wav	1	36	blb_dichoticlistening_ta-ta.mp3	ta	ta	0	left
6.6.1	win	2023-07-07	09:23:55	0	0	6303c0bf11a5be642b52830e	2	1	DL_test	14	DL_test	35			0		da	1	1507	6	1	antiphase_hc_iso.wav	2	6	2	noise_calib_stim_LEFT.wav	1	7	blb_dichoticlistening_da-ba.mp3	da	ba	1	left
6.6.1	win	2023-07-07	09:23:55	0	0	6303c0bf11a5be642b52830e	2	1	DL_test	14	DL_test	36			0		ba	1	1203	6	1	antiphase_hc_iso.wav	2	6	2	noise_calib_stim_LEFT.wav	1	3	blb_dichoticlistening_ba-ga.mp3	ba	ga	1	left
6.6.1	win	2023-07-07	09:23:55	0	0	6303c0bf11a5be642b52830e	2	1	DL_test	15	DL_test	1			0		ga	0	2570	6	1	antiphase_hc_iso.wav	2	6	2	noise_calib_stim_LEFT.wav	1	26	blb_dichoticlistening_pa-da.mp3	pa	da	1	other
6.6.1	win	2023-07-07	09:23:55	0	0	6303c0bf11a5be642b52830e	2	1	DL_test	15	DL_test	2			0		ga	1	816	6	1	antiphase_hc_iso.wav	2	6	2	noise_calib_stim_LEFT.wav	1	21	blb_dichoticlistening_ka-ga.mp3	ka	ga	1	right
6.6.1	win	2023-07-07	09:23:55	0	0	6303c0bf11a5be642b52830e	2	1	DL_test	15	DL_test	3			0		da	1	829	6	1	antiphase_hc_iso.wav	2	6	2	noise_calib_stim_LEFT.wav	1	8	blb_dichoticlistening_da-da.mp3	da	da	0	left
6.6.1	win	2023-07-07	09:23:55	0	0	6303c0bf11a5be642b52830e	2	1	DL_test	15	DL_test	4			0		ga	1	1002	6	1	antiphase_hc_iso.wav	2	6	2	noise_calib_stim_LEFT.wav	1	27	blb_dichoticlistening_pa-ga.mp3	pa	ga	1	right
6.6.1	win	2023-07-07	09:23:55	0	0	6303c0bf11a5be642b52830e	2	1	DL_test	15	DL_test	5			0		pa	1	1191	6	1	antiphase_hc_iso.wav	2	6	2	noise_calib_stim_LEFT.wav	1	29	blb_dichoticlistening_pa-pa.mp3	pa	pa	0	left
6.6.1	win	2023-07-07	09:23:55	0	0	6303c0bf11a5be642b52830e	2	1	DL_test	15	DL_test	6			0		da	0	2332	6	1	antiphase_hc_iso.wav	2	6	2	noise_calib_stim_LEFT.wav	1	13	blb_dichoticlistening_ga-ba.mp3	ga	ba	1	other
6.6.1	win	2023-07-07	09:23:55	0	0	6303c0bf11a5be642b52830e	2	1	DL_test	15	DL_test	7			0		da	1	1316	6	1	antiphase_hc_iso.wav	2	6	2	noise_calib_stim_LEFT.wav	1	10	blb_dichoticlistening_da-ka.mp3	da	ka	1	left
6.6.1	win	2023-07-07	09:23:55	0	0	6303c0bf11a5be642b52830e	2	1	DL_test	15	DL_test	8			0		da	1	957	6	1	antiphase_hc_iso.wav	2	6	2	noise_calib_stim_LEFT.wav	1	11	blb_dichoticlistening_da-pa.mp3	da	pa	1	left
6.6.1	win	2023-07-07	09:23:55	0	0	6303c0bf11a5be642b52830e	2	1	DL_test	15	DL_test	9			0		da	1	948	6	1	antiphase_hc_iso.wav	2	6	2	noise_calib_stim_LEFT.wav	1	32	blb_dichoticlistening_ta-da.mp3	ta	da	1	right
6.6.1	win	2023-07-07	09:23:55	0	0	6303c0bf11a5be642b52830e	2	1	DL_test	15	DL_test	10			0		ga	1	924	6	1	antiphase_hc_iso.wav	2	6	2	noise_calib_stim_LEFT.wav	1	33	blb_dichoticlistening_ta-ga.mp3	ta	ga	1	right
6.6.1	win	2023-07-07	09:23:55	0	0	6303c0bf11a5be642b52830e	2	1	DL_test	15	DL_test	11			0		pa	0	1780	6	1	antiphase_hc_iso.wav	2	6	2	noise_calib_stim_LEFT.wav	1	31	blb_dichoticlistening_ta-ba.mp3	ta	ba	1	other
6.6.1	win	2023-07-07	09:23:55	0	0	6303c0bf11a5be642b52830e	2	1	DL_test	15	DL_test	12			0		ta	1	979	6	1	antiphase_hc_iso.wav	2	6	2	noise_calib_stim_LEFT.wav	1	35	blb_dichoticlistening_ta-pa.mp3	ta	pa	1	left
6.6.1	win	2023-07-07	09:23:55	0	0	6303c0bf11a5be642b52830e	2	1	DL_test	15	DL_test	13			0		ka	1	921	6	1	antiphase_hc_iso.wav	2	6	2	noise_calib_stim_LEFT.wav	1	23	blb_dichoticlistening_ka-pa.mp3	ka	pa	1	left
6.6.1	win	2023-07-07	09:23:55	0	0	6303c0bf11a5be642b52830e	2	1	DL_test	15	DL_test	14			0		ka	1	803	6	1	antiphase_hc_iso.wav	2	6	2	noise_calib_stim_LEFT.wav	1	24	blb_dichoticlistening_ka-ta.mp3	ka	ta	1	left
6.6.1	win	2023-07-07	09:23:55	0	0	6303c0bf11a5be642b52830e	2	1	DL_test	15	DL_test	15			0		ga	1	831	6	1	antiphase_hc_iso.wav	2	6	2	noise_calib_stim_LEFT.wav	1	17	blb_dichoticlistening_ga-pa.mp3	ga	pa	1	left
6.6.1	win	2023-07-07	09:23:55	0	0	6303c0bf11a5be642b52830e	2	1	DL_test	15	DL_test	16			0		da	1	773	6	1	antiphase_hc_iso.wav	2	6	2	noise_calib_stim_LEFT.wav	1	9	blb_dichoticlistening_da-ga.mp3	da	ga	1	left
6.6.1	win	2023-07-07	09:23:55	0	0	6303c0bf11a5be642b52830e	2	1	DL_test	15	DL_test	17			0		da	1	1131	6	1	antiphase_hc_iso.wav	2	6	2	noise_calib_stim_LEFT.wav	1	2	blb_dichoticlistening_ba-da.mp3	ba	da	1	right
6.6.1	win	2023-07-07	09:23:55	0	0	6303c0bf11a5be642b52830e	2	1	DL_test	15	DL_test	18			0		pa	1	1051	6	1	antiphase_hc_iso.wav	2	6	2	noise_calib_stim_LEFT.wav	1	25	blb_dichoticlistening_pa-ba.mp3	pa	ba	1	left
6.6.1	win	2023-07-07	09:23:55	0	0	6303c0bf11a5be642b52830e	2	1	DL_test	15	DL_test	19			0		da	1	1366	6	1	antiphase_hc_iso.wav	2	6	2	noise_calib_stim_LEFT.wav	1	14	blb_dichoticlistening_ga-da.mp3	ga	da	1	right
6.6.1	win	2023-07-07	09:23:55	0	0	6303c0bf11a5be642b52830e	2	1	DL_test	15	DL_test	20			0		ka	1	1038	6	1	antiphase_hc_iso.wav	2	6	2	noise_calib_stim_LEFT.wav	1	20	blb_dichoticlistening_ka-da.mp3	ka	da	1	left
6.6.1	win	2023-07-07	09:23:55	0	0	6303c0bf11a5be642b52830e	2	1	DL_test	15	DL_test	21			0		da	1	1936	6	1	antiphase_hc_iso.wav	2	6	2	noise_calib_stim_LEFT.wav	1	7	blb_dichoticlistening_da-ba.mp3	da	ba	1	left
6.6.1	win	2023-07-07	09:23:55	0	0	6303c0bf11a5be642b52830e	2	1	DL_test	15	DL_test	22			0		ka	1	864	6	1	antiphase_hc_iso.wav	2	6	2	noise_calib_stim_LEFT.wav	1	22	blb_dichoticlistening_ka-ka.mp3	ka	ka	0	left
6.6.1	win	2023-07-07	09:23:55	0	0	6303c0bf11a5be642b52830e	2	1	DL_test	15	DL_test	23			0		ba	1	1275	6	1	antiphase_hc_iso.wav	2	6	2	noise_calib_stim_LEFT.wav	1	3	blb_dichoticlistening_ba-ga.mp3	ba	ga	1	left
6.6.1	win	2023-07-07	09:23:55	0	0	6303c0bf11a5be642b52830e	2	1	DL_test	15	DL_test	24			0		ta	1	894	6	1	antiphase_hc_iso.wav	2	6	2	noise_calib_stim_LEFT.wav	1	36	blb_dichoticlistening_ta-ta.mp3	ta	ta	0	left
6.6.1	win	2023-07-07	09:23:55	0	0	6303c0bf11a5be642b52830e	2	1	DL_test	15	DL_test	25			0		ga	1	784	6	1	antiphase_hc_iso.wav	2	6	2	noise_calib_stim_LEFT.wav	1	15	blb_dichoticlistening_ga-ga.mp3	ga	ga	0	left
6.6.1	win	2023-07-07	09:23:55	0	0	6303c0bf11a5be642b52830e	2	1	DL_test	15	DL_test	26			0		ta	1	1390	6	1	antiphase_hc_iso.wav	2	6	2	noise_calib_stim_LEFT.wav	1	12	blb_dichoticlistening_da-ta.mp3	da	ta	1	right
6.6.1	win	2023-07-07	09:23:55	0	0	6303c0bf11a5be642b52830e	2	1	DL_test	15	DL_test	27			0		ka	1	901	6	1	antiphase_hc_iso.wav	2	6	2	noise_calib_stim_LEFT.wav	1	34	blb_dichoticlistening_ta-ka.mp3	ta	ka	1	right
6.6.1	win	2023-07-07	09:23:55	0	0	6303c0bf11a5be642b52830e	2	1	DL_test	15	DL_test	28			0		pa	1	1293	6	1	antiphase_hc_iso.wav	2	6	2	noise_calib_stim_LEFT.wav	1	5	blb_dichoticlistening_ba-pa.mp3	ba	pa	1	right
6.6.1	win	2023-07-07	09:23:55	0	0	6303c0bf11a5be642b52830e	2	1	DL_test	15	DL_test	29			0		da	0	1112	6	1	antiphase_hc_iso.wav	2	6	2	noise_calib_stim_LEFT.wav	1	18	blb_dichoticlistening_ga-ta.mp3	ga	ta	1	other
6.6.1	win	2023-07-07	09:23:55	0	0	6303c0bf11a5be642b52830e	2	1	DL_test	15	DL_test	30			0		ka	1	824	6	1	antiphase_hc_iso.wav	2	6	2	noise_calib_stim_LEFT.wav	1	28	blb_dichoticlistening_pa-ka.mp3	pa	ka	1	right
6.6.1	win	2023-07-07	09:23:55	0	0	6303c0bf11a5be642b52830e	2	1	DL_test	15	DL_test	31			0		ga	1	733	6	1	antiphase_hc_iso.wav	2	6	2	noise_calib_stim_LEFT.wav	1	16	blb_dichoticlistening_ga-ka.mp3	ga	ka	1	left
6.6.1	win	2023-07-07	09:23:55	0	0	6303c0bf11a5be642b52830e	2	1	DL_test	15	DL_test	32			0		ta	1	980	6	1	antiphase_hc_iso.wav	2	6	2	noise_calib_stim_LEFT.wav	1	6	blb_dichoticlistening_ba-ta.mp3	ba	ta	1	right
6.6.1	win	2023-07-07	09:23:55	0	0	6303c0bf11a5be642b52830e	2	1	DL_test	15	DL_test	33			0		ta	1	1074	6	1	antiphase_hc_iso.wav	2	6	2	noise_calib_stim_LEFT.wav	1	30	blb_dichoticlistening_pa-ta.mp3	pa	ta	1	right
6.6.1	win	2023-07-07	09:23:55	0	0	6303c0bf11a5be642b52830e	2	1	DL_test	15	DL_test	34			0		ka	1	917	6	1	antiphase_hc_iso.wav	2	6	2	noise_calib_stim_LEFT.wav	1	19	blb_dichoticlistening_ka-ba.mp3	ka	ba	1	left
6.6.1	win	2023-07-07	09:23:55	0	0	6303c0bf11a5be642b52830e	2	1	DL_test	15	DL_test	35			0		ba	1	1111	6	1	antiphase_hc_iso.wav	2	6	2	noise_calib_stim_LEFT.wav	1	1	blb_dichoticlistening_ba-ba.mp3	ba	ba	0	left
6.6.1	win	2023-07-07	09:23:55	0	0	6303c0bf11a5be642b52830e	2	1	DL_test	15	DL_test	36			0		ka	1	856	6	1	antiphase_hc_iso.wav	2	6	2	noise_calib_stim_LEFT.wav	1	4	blb_dichoticlistening_ba-ka.mp3	ba	ka	1	right
6.6.1	win	2023-07-07	09:23:55	0	0	6303c0bf11a5be642b52830e	2	1	DL_test	16	DL_test	1			0		ba	0	1913	6	1	antiphase_hc_iso.wav	2	6	2	noise_calib_stim_LEFT.wav	1	27	blb_dichoticlistening_pa-ga.mp3	pa	ga	1	other
6.6.1	win	2023-07-07	09:23:55	0	0	6303c0bf11a5be642b52830e	2	1	DL_test	16	DL_test	2			0		ka	1	794	6	1	antiphase_hc_iso.wav	2	6	2	noise_calib_stim_LEFT.wav	1	20	blb_dichoticlistening_ka-da.mp3	ka	da	1	left
6.6.1	win	2023-07-07	09:23:55	0	0	6303c0bf11a5be642b52830e	2	1	DL_test	16	DL_test	3			0		ka	1	1105	6	1	antiphase_hc_iso.wav	2	6	2	noise_calib_stim_LEFT.wav	1	22	blb_dichoticlistening_ka-ka.mp3	ka	ka	0	left
6.6.1	win	2023-07-07	09:23:55	0	0	6303c0bf11a5be642b52830e	2	1	DL_test	16	DL_test	4			0		ta	1	871	6	1	antiphase_hc_iso.wav	2	6	2	noise_calib_stim_LEFT.wav	1	36	blb_dichoticlistening_ta-ta.mp3	ta	ta	0	left
6.6.1	win	2023-07-07	09:23:55	0	0	6303c0bf11a5be642b52830e	2	1	DL_test	16	DL_test	5			0		da	1	866	6	1	antiphase_hc_iso.wav	2	6	2	noise_calib_stim_LEFT.wav	1	26	blb_dichoticlistening_pa-da.mp3	pa	da	1	right
6.6.1	win	2023-07-07	09:23:55	0	0	6303c0bf11a5be642b52830e	2	1	DL_test	16	DL_test	6			0		ka	1	1853	6	1	antiphase_hc_iso.wav	2	6	2	noise_calib_stim_LEFT.wav	1	16	blb_dichoticlistening_ga-ka.mp3	ga	ka	1	right
6.6.1	win	2023-07-07	09:23:55	0	0	6303c0bf11a5be642b52830e	2	1	DL_test	16	DL_test	7			0		ta	1	1048	6	1	antiphase_hc_iso.wav	2	6	2	noise_calib_stim_LEFT.wav	1	6	blb_dichoticlistening_ba-ta.mp3	ba	ta	1	right
6.6.1	win	2023-07-07	09:23:55	0	0	6303c0bf11a5be642b52830e	2	1	DL_test	16	DL_test	8			0		ga	1	644	6	1	antiphase_hc_iso.wav	2	6	2	noise_calib_stim_LEFT.wav	1	15	blb_dichoticlistening_ga-ga.mp3	ga	ga	0	left
6.6.1	win	2023-07-07	09:23:55	0	0	6303c0bf11a5be642b52830e	2	1	DL_test	16	DL_test	9			0		pa	1	912	6	1	antiphase_hc_iso.wav	2	6	2	noise_calib_stim_LEFT.wav	1	29	blb_dichoticlistening_pa-pa.mp3	pa	pa	0	left
6.6.1	win	2023-07-07	09:23:55	0	0	6303c0bf11a5be642b52830e	2	1	DL_test	16	DL_test	10			0		pa	1	1345	6	1	antiphase_hc_iso.wav	2	6	2	noise_calib_stim_LEFT.wav	1	25	blb_dichoticlistening_pa-ba.mp3	pa	ba	1	left
6.6.1	win	2023-07-07	09:23:55	0	0	6303c0bf11a5be642b52830e	2	1	DL_test	16	DL_test	11			0		ga	1	816	6	1	antiphase_hc_iso.wav	2	6	2	noise_calib_stim_LEFT.wav	1	14	blb_dichoticlistening_ga-da.mp3	ga	da	1	left
6.6.1	win	2023-07-07	09:23:55	0	0	6303c0bf11a5be642b52830e	2	1	DL_test	16	DL_test	12			0		ga	1	861	6	1	antiphase_hc_iso.wav	2	6	2	noise_calib_stim_LEFT.wav	1	33	blb_dichoticlistening_ta-ga.mp3	ta	ga	1	right
6.6.1	win	2023-07-07	09:23:55	0	0	6303c0bf11a5be642b52830e	2	1	DL_test	16	DL_test	13			0		ta	0	1336	6	1	antiphase_hc_iso.wav	2	6	2	noise_calib_stim_LEFT.wav	1	11	blb_dichoticlistening_da-pa.mp3	da	pa	1	other
6.6.1	win	2023-07-07	09:23:55	0	0	6303c0bf11a5be642b52830e	2	1	DL_test	16	DL_test	14			0		pa	1	934	6	1	antiphase_hc_iso.wav	2	6	2	noise_calib_stim_LEFT.wav	1	5	blb_dichoticlistening_ba-pa.mp3	ba	pa	1	right
6.6.1	win	2023-07-07	09:23:55	0	0	6303c0bf11a5be642b52830e	2	1	DL_test	16	DL_test	15			0		ta	1	1007	6	1	antiphase_hc_iso.wav	2	6	2	noise_calib_stim_LEFT.wav	1	30	blb_dichoticlistening_pa-ta.mp3	pa	ta	1	right
6.6.1	win	2023-07-07	09:23:55	0	0	6303c0bf11a5be642b52830e	2	1	DL_test	16	DL_test	16			0		ta	1	988	6	1	antiphase_hc_iso.wav	2	6	2	noise_calib_stim_LEFT.wav	1	35	blb_dichoticlistening_ta-pa.mp3	ta	pa	1	left
6.6.1	win	2023-07-07	09:23:55	0	0	6303c0bf11a5be642b52830e	2	1	DL_test	16	DL_test	17			0		ga	1	834	6	1	antiphase_hc_iso.wav	2	6	2	noise_calib_stim_LEFT.wav	1	18	blb_dichoticlistening_ga-ta.mp3	ga	ta	1	left
6.6.1	win	2023-07-07	09:23:55	0	0	6303c0bf11a5be642b52830e	2	1	DL_test	16	DL_test	18			0		da	1	766	6	1	antiphase_hc_iso.wav	2	6	2	noise_calib_stim_LEFT.wav	1	12	blb_dichoticlistening_da-ta.mp3	da	ta	1	left
6.6.1	win	2023-07-07	09:23:55	0	0	6303c0bf11a5be642b52830e	2	1	DL_test	16	DL_test	19			0		ka	1	894	6	1	antiphase_hc_iso.wav	2	6	2	noise_calib_stim_LEFT.wav	1	19	blb_dichoticlistening_ka-ba.mp3	ka	ba	1	left
6.6.1	win	2023-07-07	09:23:55	0	0	6303c0bf11a5be642b52830e	2	1	DL_test	16	DL_test	20			0		da	1	830	6	1	antiphase_hc_iso.wav	2	6	2	noise_calib_stim_LEFT.wav	1	8	blb_dichoticlistening_da-da.mp3	da	da	0	left
6.6.1	win	2023-07-07	09:23:55	0	0	6303c0bf11a5be642b52830e	2	1	DL_test	16	DL_test	21			0		da	1	1027	6	1	antiphase_hc_iso.wav	2	6	2	noise_calib_stim_LEFT.wav	1	32	blb_dichoticlistening_ta-da.mp3	ta	da	1	right
6.6.1	win	2023-07-07	09:23:55	0	0	6303c0bf11a5be642b52830e	2	1	DL_test	16	DL_test	22			0		da	1	719	6	1	antiphase_hc_iso.wav	2	6	2	noise_calib_stim_LEFT.wav	1	9	blb_dichoticlistening_da-ga.mp3	da	ga	1	left
6.6.1	win	2023-07-07	09:23:55	0	0	6303c0bf11a5be642b52830e	2	1	DL_test	16	DL_test	23			0		ga	1	1225	6	1	antiphase_hc_iso.wav	2	6	2	noise_calib_stim_LEFT.wav	1	17	blb_dichoticlistening_ga-pa.mp3	ga	pa	1	left
6.6.1	win	2023-07-07	09:23:55	0	0	6303c0bf11a5be642b52830e	2	1	DL_test	16	DL_test	24			0		da	1	2597	6	1	antiphase_hc_iso.wav	2	6	2	noise_calib_stim_LEFT.wav	1	2	blb_dichoticlistening_ba-da.mp3	ba	da	1	right
6.6.1	win	2023-07-07	09:23:55	0	0	6303c0bf11a5be642b52830e	2	1	DL_test	16	DL_test	25			0		ta	1	1294	6	1	antiphase_hc_iso.wav	2	6	2	noise_calib_stim_LEFT.wav	1	31	blb_dichoticlistening_ta-ba.mp3	ta	ba	1	left
6.6.1	win	2023-07-07	09:23:55	0	0	6303c0bf11a5be642b52830e	2	1	DL_test	16	DL_test	26			0		ba	1	1261	6	1	antiphase_hc_iso.wav	2	6	2	noise_calib_stim_LEFT.wav	1	1	blb_dichoticlistening_ba-ba.mp3	ba	ba	0	left
6.6.1	win	2023-07-07	09:23:55	0	0	6303c0bf11a5be642b52830e	2	1	DL_test	16	DL_test	27			0		ba	1	984	6	1	antiphase_hc_iso.wav	2	6	2	noise_calib_stim_LEFT.wav	1	3	blb_dichoticlistening_ba-ga.mp3	ba	ga	1	left
6.6.1	win	2023-07-07	09:23:55	0	0	6303c0bf11a5be642b52830e	2	1	DL_test	16	DL_test	28			0		ba	1	862	6	1	antiphase_hc_iso.wav	2	6	2	noise_calib_stim_LEFT.wav	1	7	blb_dichoticlistening_da-ba.mp3	da	ba	1	right
6.6.1	win	2023-07-07	09:23:55	0	0	6303c0bf11a5be642b52830e	2	1	DL_test	16	DL_test	29			0		ka	1	1257	6	1	antiphase_hc_iso.wav	2	6	2	noise_calib_stim_LEFT.wav	1	28	blb_dichoticlistening_pa-ka.mp3	pa	ka	1	right
6.6.1	win	2023-07-07	09:23:55	0	0	6303c0bf11a5be642b52830e	2	1	DL_test	16	DL_test	30			0		ka	1	780	6	1	antiphase_hc_iso.wav	2	6	2	noise_calib_stim_LEFT.wav	1	4	blb_dichoticlistening_ba-ka.mp3	ba	ka	1	right
6.6.1	win	2023-07-07	09:23:55	0	0	6303c0bf11a5be642b52830e	2	1	DL_test	16	DL_test	31			0		da	1	940	6	1	antiphase_hc_iso.wav	2	6	2	noise_calib_stim_LEFT.wav	1	10	blb_dichoticlistening_da-ka.mp3	da	ka	1	left
6.6.1	win	2023-07-07	09:23:55	0	0	6303c0bf11a5be642b52830e	2	1	DL_test	16	DL_test	32			0		ga	1	994	6	1	antiphase_hc_iso.wav	2	6	2	noise_calib_stim_LEFT.wav	1	21	blb_dichoticlistening_ka-ga.mp3	ka	ga	1	right
6.6.1	win	2023-07-07	09:23:55	0	0	6303c0bf11a5be642b52830e	2	1	DL_test	16	DL_test	33			0		ka	1	1258	6	1	antiphase_hc_iso.wav	2	6	2	noise_calib_stim_LEFT.wav	1	24	blb_dichoticlistening_ka-ta.mp3	ka	ta	1	left
6.6.1	win	2023-07-07	09:23:55	0	0	6303c0bf11a5be642b52830e	2	1	DL_test	16	DL_test	34			0		ka	1	825	6	1	antiphase_hc_iso.wav	2	6	2	noise_calib_stim_LEFT.wav	1	34	blb_dichoticlistening_ta-ka.mp3	ta	ka	1	right
6.6.1	win	2023-07-07	09:23:55	0	0	6303c0bf11a5be642b52830e	2	1	DL_test	16	DL_test	35			0		ba	1	1094	6	1	antiphase_hc_iso.wav	2	6	2	noise_calib_stim_LEFT.wav	1	13	blb_dichoticlistening_ga-ba.mp3	ga	ba	1	right
6.6.1	win	2023-07-07	09:23:55	0	0	6303c0bf11a5be642b52830e	2	1	DL_test	16	DL_test	36			0		ka	1	1527	6	1	antiphase_hc_iso.wav	2	6	2	noise_calib_stim_LEFT.wav	1	23	blb_dichoticlistening_ka-pa.mp3	ka	pa	1	left
6.6.1	win	2023-07-07	09:23:55	09:36:30	751375	6303c0bf11a5be642b52830e	2	1	practice_z	22	practice_z	1	stimuli_distractor_trianglediamonds.svg	stimuli_distractor_diamondtriangles.svg	16	no	0	1	2000	6	1	antiphase_hc_iso.wav	2	6	2	noise_calib_stim_LEFT.wav	1	23	blb_dichoticlistening_ka-pa.mp3	ka	pa	1	left
6.6.1	win	2023-07-07	09:23:55	09:36:30	751375	6303c0bf11a5be642b52830e	2	1	practice_z	22	advance_on_keypress_ZEE	2	stimuli_distractor_trianglediamonds.svg	stimuli_distractor_diamondtriangles.svg	16	no	57	0	2007	6	1	antiphase_hc_iso.wav	2	6	2	noise_calib_stim_LEFT.wav	1	23	blb_dichoticlistening_ka-pa.mp3	ka	pa	1	left
6.6.1	win	2023-07-07	09:23:55	09:36:36	757025	6303c0bf11a5be642b52830e	2	1	practice_z	22	practice_z	3	stimuli_distractor_trianglediamonds.svg	stimuli_distractor_trianglediamonds.svg	15	no	0	1	2000	6	1	antiphase_hc_iso.wav	2	6	2	noise_calib_stim_LEFT.wav	1	23	blb_dichoticlistening_ka-pa.mp3	ka	pa	1	left
6.6.1	win	2023-07-07	09:23:55	09:36:36	757025	6303c0bf11a5be642b52830e	2	1	practice_z	22	advance_on_keypress_ZEE	4	stimuli_distractor_trianglediamonds.svg	stimuli_distractor_trianglediamonds.svg	15	no	57	0	749	6	1	antiphase_hc_iso.wav	2	6	2	noise_calib_stim_LEFT.wav	1	23	blb_dichoticlistening_ka-pa.mp3	ka	pa	1	left
6.6.1	win	2023-07-07	09:23:55	09:36:39	760175	6303c0bf11a5be642b52830e	2	1	practice_z	22	practice_z	5	stimuli_target_squarediamonds.svg	stimuli_distractor_diamondtriangles.svg	2	yes	44	1	749	6	1	antiphase_hc_iso.wav	2	6	2	noise_calib_stim_LEFT.wav	1	23	blb_dichoticlistening_ka-pa.mp3	ka	pa	1	left
6.6.1	win	2023-07-07	09:23:55	09:36:39	760175	6303c0bf11a5be642b52830e	2	1	practice_z	22	advance_on_keypress_ZEE	6	stimuli_target_squarediamonds.svg	stimuli_distractor_diamondtriangles.svg	2	yes	57	0	887	6	1	antiphase_hc_iso.wav	2	6	2	noise_calib_stim_LEFT.wav	1	23	blb_dichoticlistening_ka-pa.mp3	ka	pa	1	left
6.6.1	win	2023-07-07	09:23:55	09:36:42	763142	6303c0bf11a5be642b52830e	2	1	practice_z	22	practice_z	7	stimuli_target_rectanglediamonds.svg	stimuli_distractor_diamondtriangles.svg	1	yes	44	1	434	6	1	antiphase_hc_iso.wav	2	6	2	noise_calib_stim_LEFT.wav	1	23	blb_dichoticlistening_ka-pa.mp3	ka	pa	1	left
6.6.1	win	2023-07-07	09:23:55	09:36:42	763142	6303c0bf11a5be642b52830e	2	1	practice_z	22	advance_on_keypress_ZEE	8	stimuli_target_rectanglediamonds.svg	stimuli_distractor_diamondtriangles.svg	1	yes	57	0	896	6	1	antiphase_hc_iso.wav	2	6	2	noise_calib_stim_LEFT.wav	1	23	blb_dichoticlistening_ka-pa.mp3	ka	pa	1	left
6.6.1	win	2023-07-07	09:23:55	09:36:47	767674	6303c0bf11a5be642b52830e	2	1	practice_z	22	practice_z	9	stimuli_distractor_diamondtriangles.svg	stimuli_distractor_diamondtriangles.svg	13	no	0	1	2000	6	1	antiphase_hc_iso.wav	2	6	2	noise_calib_stim_LEFT.wav	1	23	blb_dichoticlistening_ka-pa.mp3	ka	pa	1	left
6.6.1	win	2023-07-07	09:23:55	09:36:47	767674	6303c0bf11a5be642b52830e	2	1	practice_z	22	advance_on_keypress_ZEE	10	stimuli_distractor_diamondtriangles.svg	stimuli_distractor_diamondtriangles.svg	13	no	57	0	707	6	1	antiphase_hc_iso.wav	2	6	2	noise_calib_stim_LEFT.wav	1	23	blb_dichoticlistening_ka-pa.mp3	ka	pa	1	left
6.6.1	win	2023-07-07	09:23:55	09:36:50	770486	6303c0bf11a5be642b52830e	2	1	practice_z	22	practice_z	11	stimuli_distractor_trianglediamonds.svg	stimuli_target_rectanglediamonds.svg	10	yes	44	1	462	6	1	antiphase_hc_iso.wav	2	6	2	noise_calib_stim_LEFT.wav	1	23	blb_dichoticlistening_ka-pa.mp3	ka	pa	1	left
6.6.1	win	2023-07-07	09:23:55	09:36:50	770486	6303c0bf11a5be642b52830e	2	1	practice_z	22	advance_on_keypress_ZEE	12	stimuli_distractor_trianglediamonds.svg	stimuli_target_rectanglediamonds.svg	10	yes	57	0	1883	6	1	antiphase_hc_iso.wav	2	6	2	noise_calib_stim_LEFT.wav	1	23	blb_dichoticlistening_ka-pa.mp3	ka	pa	1	left
6.6.1	win	2023-07-07	09:23:55	09:36:53	774392	6303c0bf11a5be642b52830e	2	1	practice_z	22	practice_z	13	stimuli_distractor_diamondtriangles.svg	stimuli_distractor_trianglediamonds.svg	14	no	44	0	374	6	1	antiphase_hc_iso.wav	2	6	2	noise_calib_stim_LEFT.wav	1	23	blb_dichoticlistening_ka-pa.mp3	ka	pa	1	left
6.6.1	win	2023-07-07	09:23:55	09:36:53	774392	6303c0bf11a5be642b52830e	2	1	practice_z	22	advance_on_keypress_ZEE	14	stimuli_distractor_diamondtriangles.svg	stimuli_distractor_trianglediamonds.svg	14	no	57	0	1654	6	1	antiphase_hc_iso.wav	2	6	2	noise_calib_stim_LEFT.wav	1	23	blb_dichoticlistening_ka-pa.mp3	ka	pa	1	left
6.6.1	win	2023-07-07	09:23:55	09:36:57	778090	6303c0bf11a5be642b52830e	2	1	practice_z	22	practice_z	15	stimuli_distractor_trianglediamonds.svg	stimuli_target_squarediamonds.svg	11	yes	44	1	395	6	1	antiphase_hc_iso.wav	2	6	2	noise_calib_stim_LEFT.wav	1	23	blb_dichoticlistening_ka-pa.mp3	ka	pa	1	left
6.6.1	win	2023-07-07	09:23:55	09:36:57	778090	6303c0bf11a5be642b52830e	2	1	practice_z	22	advance_on_keypress_ZEE	16	stimuli_distractor_trianglediamonds.svg	stimuli_target_squarediamonds.svg	11	yes	57	0	1162	6	1	antiphase_hc_iso.wav	2	6	2	noise_calib_stim_LEFT.wav	1	23	blb_dichoticlistening_ka-pa.mp3	ka	pa	1	left
6.6.1	win	2023-07-07	09:23:55	09:37:01	781921	6303c0bf11a5be642b52830e	2	1	practice_z	22	practice_z	17	stimuli_target_diamondsquares.svg	stimuli_distractor_diamondtriangles.svg	3	yes	44	1	1011	6	1	antiphase_hc_iso.wav	2	6	2	noise_calib_stim_LEFT.wav	1	23	blb_dichoticlistening_ka-pa.mp3	ka	pa	1	left
6.6.1	win	2023-07-07	09:23:55	09:37:01	781921	6303c0bf11a5be642b52830e	2	1	practice_z	22	advance_on_keypress_ZEE	18	stimuli_target_diamondsquares.svg	stimuli_distractor_diamondtriangles.svg	3	yes	57	0	961	6	1	antiphase_hc_iso.wav	2	6	2	noise_calib_stim_LEFT.wav	1	23	blb_dichoticlistening_ka-pa.mp3	ka	pa	1	left
6.6.1	win	2023-07-07	09:23:55	09:37:04	784927	6303c0bf11a5be642b52830e	2	1	practice_z	22	practice_z	19	stimuli_target_rectanglediamonds.svg	stimuli_distractor_trianglediamonds.svg	4	yes	44	1	370	6	1	antiphase_hc_iso.wav	2	6	2	noise_calib_stim_LEFT.wav	1	23	blb_dichoticlistening_ka-pa.mp3	ka	pa	1	left
6.6.1	win	2023-07-07	09:23:55	09:37:04	784927	6303c0bf11a5be642b52830e	2	1	practice_z	22	advance_on_keypress_ZEE	20	stimuli_target_rectanglediamonds.svg	stimuli_distractor_trianglediamonds.svg	4	yes	57	0	721	6	1	antiphase_hc_iso.wav	2	6	2	noise_calib_stim_LEFT.wav	1	23	blb_dichoticlistening_ka-pa.mp3	ka	pa	1	left
6.6.1	win	2023-07-07	09:23:55	09:37:07	787714	6303c0bf11a5be642b52830e	2	1	practice_z	22	practice_z	21	stimuli_target_diamondsquares.svg	stimuli_distractor_trianglediamonds.svg	6	yes	44	1	419	6	1	antiphase_hc_iso.wav	2	6	2	noise_calib_stim_LEFT.wav	1	23	blb_dichoticlistening_ka-pa.mp3	ka	pa	1	left
6.6.1	win	2023-07-07	09:23:55	09:37:07	787714	6303c0bf11a5be642b52830e	2	1	practice_z	22	advance_on_keypress_ZEE	22	stimuli_target_diamondsquares.svg	stimuli_distractor_trianglediamonds.svg	6	yes	57	0	458	6	1	antiphase_hc_iso.wav	2	6	2	noise_calib_stim_LEFT.wav	1	23	blb_dichoticlistening_ka-pa.mp3	ka	pa	1	left
6.6.1	win	2023-07-07	09:23:55	09:37:09	790289	6303c0bf11a5be642b52830e	2	1	practice_z	22	practice_z	23	stimuli_distractor_diamondtriangles.svg	stimuli_target_diamondrectangles.svg	8	yes	44	1	479	6	1	antiphase_hc_iso.wav	2	6	2	noise_calib_stim_LEFT.wav	1	23	blb_dichoticlistening_ka-pa.mp3	ka	pa	1	left
6.6.1	win	2023-07-07	09:23:55	09:37:09	790289	6303c0bf11a5be642b52830e	2	1	practice_z	22	advance_on_keypress_ZEE	24	stimuli_distractor_diamondtriangles.svg	stimuli_target_diamondrectangles.svg	8	yes	57	0	691	6	1	antiphase_hc_iso.wav	2	6	2	noise_calib_stim_LEFT.wav	1	23	blb_dichoticlistening_ka-pa.mp3	ka	pa	1	left
6.6.1	win	2023-07-07	09:23:55	09:37:12	793026	6303c0bf11a5be642b52830e	2	1	practice_z	22	practice_z	25	stimuli_target_squarediamonds.svg	stimuli_distractor_trianglediamonds.svg	5	yes	44	1	398	6	1	antiphase_hc_iso.wav	2	6	2	noise_calib_stim_LEFT.wav	1	23	blb_dichoticlistening_ka-pa.mp3	ka	pa	1	left
6.6.1	win	2023-07-07	09:23:55	09:37:12	793026	6303c0bf11a5be642b52830e	2	1	practice_z	22	advance_on_keypress_ZEE	26	stimuli_target_squarediamonds.svg	stimuli_distractor_trianglediamonds.svg	5	yes	57	0	381	6	1	antiphase_hc_iso.wav	2	6	2	noise_calib_stim_LEFT.wav	1	23	blb_dichoticlistening_ka-pa.mp3	ka	pa	1	left
6.6.1	win	2023-07-07	09:23:55	09:37:15	795513	6303c0bf11a5be642b52830e	2	1	practice_z	22	practice_z	27	stimuli_distractor_diamondtriangles.svg	stimuli_target_trianglerectangles.svg	9	yes	44	1	453	6	1	antiphase_hc_iso.wav	2	6	2	noise_calib_stim_LEFT.wav	1	23	blb_dichoticlistening_ka-pa.mp3	ka	pa	1	left
6.6.1	win	2023-07-07	09:23:55	09:37:15	795513	6303c0bf11a5be642b52830e	2	1	practice_z	22	advance_on_keypress_ZEE	28	stimuli_distractor_diamondtriangles.svg	stimuli_target_trianglerectangles.svg	9	yes	57	0	522	6	1	antiphase_hc_iso.wav	2	6	2	noise_calib_stim_LEFT.wav	1	23	blb_dichoticlistening_ka-pa.mp3	ka	pa	1	left
6.6.1	win	2023-07-07	09:23:55	09:37:17	798090	6303c0bf11a5be642b52830e	2	1	practice_z	22	practice_z	29	stimuli_distractor_trianglediamonds.svg	stimuli_target_diamondrectangles.svg	12	yes	44	1	412	6	1	antiphase_hc_iso.wav	2	6	2	noise_calib_stim_LEFT.wav	1	23	blb_dichoticlistening_ka-pa.mp3	ka	pa	1	left
6.6.1	win	2023-07-07	09:23:55	09:37:17	798090	6303c0bf11a5be642b52830e	2	1	practice_z	22	advance_on_keypress_ZEE	30	stimuli_distractor_trianglediamonds.svg	stimuli_target_diamondrectangles.svg	12	yes	57	0	347	6	1	antiphase_hc_iso.wav	2	6	2	noise_calib_stim_LEFT.wav	1	23	blb_dichoticlistening_ka-pa.mp3	ka	pa	1	left
6.6.1	win	2023-07-07	09:23:55	09:37:20	800498	6303c0bf11a5be642b52830e	2	1	practice_z	22	practice_z	31	stimuli_distractor_diamondtriangles.svg	stimuli_target_rectangletriangles.svg	7	yes	44	1	403	6	1	antiphase_hc_iso.wav	2	6	2	noise_calib_stim_LEFT.wav	1	23	blb_dichoticlistening_ka-pa.mp3	ka	pa	1	left
6.6.1	win	2023-07-07	09:23:55	09:37:20	800498	6303c0bf11a5be642b52830e	2	1	practice_z	22	advance_on_keypress_ZEE	32	stimuli_distractor_diamondtriangles.svg	stimuli_target_rectangletriangles.svg	7	yes	57	0	299	6	1	antiphase_hc_iso.wav	2	6	2	noise_calib_stim_LEFT.wav	1	23	blb_dichoticlistening_ka-pa.mp3	ka	pa	1	left
6.6.1	win	2023-07-07	09:23:55	09:37:25	806381	6303c0bf11a5be642b52830e	2	1	main_z	24	main_z	1	stimuli_distractor_diamondtriangles.svg	stimuli_target_trianglerectangles.svg	29	yes	44	1	425	6	1	antiphase_hc_iso.wav	2	6	2	noise_calib_stim_LEFT.wav	1	23	blb_dichoticlistening_ka-pa.mp3	ka	pa	1	left
6.6.1	win	2023-07-07	09:23:55	09:37:25	806381	6303c0bf11a5be642b52830e	2	1	main_z	24	advance_on_keypress_ZEE	2	stimuli_distractor_diamondtriangles.svg	stimuli_target_trianglerectangles.svg	29	yes	57	0	5631	6	1	antiphase_hc_iso.wav	2	6	2	noise_calib_stim_LEFT.wav	1	23	blb_dichoticlistening_ka-pa.mp3	ka	pa	1	left
6.6.1	win	2023-07-07	09:23:55	09:37:32	813094	6303c0bf11a5be642b52830e	2	1	main_z	24	main_z	3	stimuli_target_rectangletriangles.svg	stimuli_distractor_trianglediamonds.svg	1	yes	44	1	437	6	1	antiphase_hc_iso.wav	2	6	2	noise_calib_stim_LEFT.wav	1	23	blb_dichoticlistening_ka-pa.mp3	ka	pa	1	left
6.6.1	win	2023-07-07	09:23:55	09:37:32	813094	6303c0bf11a5be642b52830e	2	1	main_z	24	advance_on_keypress_ZEE	4	stimuli_target_rectangletriangles.svg	stimuli_distractor_trianglediamonds.svg	1	yes	57	0	1946	6	1	antiphase_hc_iso.wav	2	6	2	noise_calib_stim_LEFT.wav	1	23	blb_dichoticlistening_ka-pa.mp3	ka	pa	1	left
6.6.1	win	2023-07-07	09:23:55	09:37:35	816173	6303c0bf11a5be642b52830e	2	1	main_z	24	main_z	5	stimuli_distractor_trianglediamonds.svg	stimuli_target_diamondsquares.svg	28	yes	44	1	499	6	1	antiphase_hc_iso.wav	2	6	2	noise_calib_stim_LEFT.wav	1	23	blb_dichoticlistening_ka-pa.mp3	ka	pa	1	left
6.6.1	win	2023-07-07	09:23:55	09:37:35	816173	6303c0bf11a5be642b52830e	2	1	main_z	24	advance_on_keypress_ZEE	6	stimuli_distractor_trianglediamonds.svg	stimuli_target_diamondsquares.svg	28	yes	57	0	6759	6	1	antiphase_hc_iso.wav	2	6	2	noise_calib_stim_LEFT.wav	1	23	blb_dichoticlistening_ka-pa.mp3	ka	pa	1	left
6.6.1	win	2023-07-07	09:23:55	09:37:43	823958	6303c0bf11a5be642b52830e	2	1	main_z	24	main_z	7	stimuli_target_squaretriangles.svg	stimuli_distractor_trianglediamonds.svg	3	yes	44	1	384	6	1	antiphase_hc_iso.wav	2	6	2	noise_calib_stim_LEFT.wav	1	23	blb_dichoticlistening_ka-pa.mp3	ka	pa	1	left
6.6.1	win	2023-07-07	09:23:55	09:37:43	823958	6303c0bf11a5be642b52830e	2	1	main_z	24	advance_on_keypress_ZEE	8	stimuli_target_squaretriangles.svg	stimuli_distractor_trianglediamonds.svg	3	yes	57	0	888	6	1	antiphase_hc_iso.wav	2	6	2	noise_calib_stim_LEFT.wav	1	23	blb_dichoticlistening_ka-pa.mp3	ka	pa	1	left
6.6.1	win	2023-07-07	09:23:55	09:37:45	825974	6303c0bf11a5be642b52830e	2	1	main_z	24	main_z	9	stimuli_distractor_diamondtriangles.svg	stimuli_target_trianglesquares.svg	30	yes	44	1	483	6	1	antiphase_hc_iso.wav	2	6	2	noise_calib_stim_LEFT.wav	1	23	blb_dichoticlistening_ka-pa.mp3	ka	pa	1	left
6.6.1	win	2023-07-07	09:23:55	09:37:45	825974	6303c0bf11a5be642b52830e	2	1	main_z	24	advance_on_keypress_ZEE	10	stimuli_distractor_diamondtriangles.svg	stimuli_target_trianglesquares.svg	30	yes	57	0	1543	6	1	antiphase_hc_iso.wav	2	6	2	noise_calib_stim_LEFT.wav	1	23	blb_dichoticlistening_ka-pa.mp3	ka	pa	1	left
6.6.1	win	2023-07-07	09:23:55	09:37:48	828479	6303c0bf11a5be642b52830e	2	1	main_z	24	main_z	11	stimuli_target_diamondsquares.svg	stimuli_distractor_diamondtriangles.svg	24	yes	44	1	320	6	1	antiphase_hc_iso.wav	2	6	2	noise_calib_stim_LEFT.wav	1	23	blb_dichoticlistening_ka-pa.mp3	ka	pa	1	left
6.6.1	win	2023-07-07	09:23:55	09:37:48	828479	6303c0bf11a5be642b52830e	2	1	main_z	24	advance_on_keypress_ZEE	12	stimuli_target_diamondsquares.svg	stimuli_distractor_diamondtriangles.svg	24	yes	57	0	3659	6	1	antiphase_hc_iso.wav	2	6	2	noise_calib_stim_LEFT.wav	1	23	blb_dichoticlistening_ka-pa.mp3	ka	pa	1	left
6.6.1	win	2023-07-07	09:23:55	09:37:52	833071	6303c0bf11a5be642b52830e	2	1	main_z	24	main_z	13	stimuli_target_trianglesquares.svg	stimuli_distractor_diamondtriangles.svg	22	yes	44	1	296	6	1	antiphase_hc_iso.wav	2	6	2	noise_calib_stim_LEFT.wav	1	23	blb_dichoticlistening_ka-pa.mp3	ka	pa	1	left
6.6.1	win	2023-07-07	09:23:55	09:37:52	833071	6303c0bf11a5be642b52830e	2	1	main_z	24	advance_on_keypress_ZEE	14	stimuli_target_trianglesquares.svg	stimuli_distractor_diamondtriangles.svg	22	yes	57	0	1283	6	1	antiphase_hc_iso.wav	2	6	2	noise_calib_stim_LEFT.wav	1	23	blb_dichoticlistening_ka-pa.mp3	ka	pa	1	left
6.6.1	win	2023-07-07	09:23:55	09:37:54	835423	6303c0bf11a5be642b52830e	2	1	main_z	24	main_z	15	stimuli_distractor_diamondtriangles.svg	stimuli_target_diamondrectangles.svg	31	yes	44	1	414	6	1	antiphase_hc_iso.wav	2	6	2	noise_calib_stim_LEFT.wav	1	23	blb_dichoticlistening_ka-pa.mp3	ka	pa	1	left
6.6.1	win	2023-07-07	09:23:55	09:37:54	835423	6303c0bf11a5be642b52830e	2	1	main_z	24	advance_on_keypress_ZEE	16	stimuli_distractor_diamondtriangles.svg	stimuli_target_diamondrectangles.svg	31	yes	57	0	1845	6	1	antiphase_hc_iso.wav	2	6	2	noise_calib_stim_LEFT.wav	1	23	blb_dichoticlistening_ka-pa.mp3	ka	pa	1	left
6.6.1	win	2023-07-07	09:23:55	09:37:57	838199	6303c0bf11a5be642b52830e	2	1	main_z	24	main_z	17	stimuli_distractor_trianglediamonds.svg	stimuli_target_squaretriangles.svg	11	yes	44	1	274	6	1	antiphase_hc_iso.wav	2	6	2	noise_calib_stim_LEFT.wav	1	23	blb_dichoticlistening_ka-pa.mp3	ka	pa	1	left
6.6.1	win	2023-07-07	09:23:55	09:37:57	838199	6303c0bf11a5be642b52830e	2	1	main_z	24	advance_on_keypress_ZEE	18	stimuli_distractor_trianglediamonds.svg	stimuli_target_squaretriangles.svg	11	yes	57	0	1223	6	1	antiphase_hc_iso.wav	2	6	2	noise_calib_stim_LEFT.wav	1	23	blb_dichoticlistening_ka-pa.mp3	ka	pa	1	left
6.6.1	win	2023-07-07	09:23:55	09:37:59	840399	6303c0bf11a5be642b52830e	2	1	main_z	24	main_z	19	stimuli_distractor_trianglediamonds.svg	stimuli_target_trianglesquares.svg	26	yes	44	1	341	6	1	antiphase_hc_iso.wav	2	6	2	noise_calib_stim_LEFT.wav	1	23	blb_dichoticlistening_ka-pa.mp3	ka	pa	1	left
6.6.1	win	2023-07-07	09:23:55	09:37:59	840399	6303c0bf11a5be642b52830e	2	1	main_z	24	advance_on_keypress_ZEE	20	stimuli_distractor_trianglediamonds.svg	stimuli_target_trianglesquares.svg	26	yes	57	0	2783	6	1	antiphase_hc_iso.wav	2	6	2	noise_calib_stim_LEFT.wav	1	23	blb_dichoticlistening_ka-pa.mp3	ka	pa	1	left
6.6.1	win	2023-07-07	09:23:55	09:38:03	844127	6303c0bf11a5be642b52830e	2	1	main_z	24	main_z	21	stimuli_distractor_diamondtriangles.svg	stimuli_target_rectangletriangles.svg	13	yes	44	1	302	6	1	antiphase_hc_iso.wav	2	6	2	noise_calib_stim_LEFT.wav	1	23	blb_dichoticlistening_ka-pa.mp3	ka	pa	1	left
6.6.1	win	2023-07-07	09:23:55	09:38:03	844127	6303c0bf11a5be642b52830e	2	1	main_z	24	advance_on_keypress_ZEE	22	stimuli_distractor_diamondtriangles.svg	stimuli_target_rectangletriangles.svg	13	yes	57	0	1257	6	1	antiphase_hc_iso.wav	2	6	2	noise_calib_stim_LEFT.wav	1	23	blb_dichoticlistening_ka-pa.mp3	ka	pa	1	left
6.6.1	win	2023-07-07	09:23:55	09:38:06	847007	6303c0bf11a5be642b52830e	2	1	main_z	24	main_z	23	stimuli_target_trianglerectangles.svg	stimuli_distractor_diamondtriangles.svg	21	yes	44	1	982	6	1	antiphase_hc_iso.wav	2	6	2	noise_calib_stim_LEFT.wav	1	23	blb_dichoticlistening_ka-pa.mp3	ka	pa	1	left
6.6.1	win	2023-07-07	09:23:55	09:38:06	847007	6303c0bf11a5be642b52830e	2	1	main_z	24	advance_on_keypress_ZEE	24	stimuli_target_trianglerectangles.svg	stimuli_distractor_diamondtriangles.svg	21	yes	57	0	1118	6	1	antiphase_hc_iso.wav	2	6	2	noise_calib_stim_LEFT.wav	1	23	blb_dichoticlistening_ka-pa.mp3	ka	pa	1	left
6.6.1	win	2023-07-07	09:23:55	09:38:08	849156	6303c0bf11a5be642b52830e	2	1	main_z	24	main_z	25	stimuli_distractor_trianglediamonds.svg	stimuli_target_trianglerectangles.svg	25	yes	44	1	370	6	1	antiphase_hc_iso.wav	2	6	2	noise_calib_stim_LEFT.wav	1	23	blb_dichoticlistening_ka-pa.mp3	ka	pa	1	left
6.6.1	win	2023-07-07	09:23:55	09:38:08	849156	6303c0bf11a5be642b52830e	2	1	main_z	24	advance_on_keypress_ZEE	26	stimuli_distractor_trianglediamonds.svg	stimuli_target_trianglerectangles.svg	25	yes	57	0	1216	6	1	antiphase_hc_iso.wav	2	6	2	noise_calib_stim_LEFT.wav	1	23	blb_dichoticlistening_ka-pa.mp3	ka	pa	1	left
6.6.1	win	2023-07-07	09:23:55	09:38:10	851391	6303c0bf11a5be642b52830e	2	1	main_z	24	main_z	27	stimuli_target_diamondsquares.svg	stimuli_distractor_trianglediamonds.svg	20	yes	44	1	366	6	1	antiphase_hc_iso.wav	2	6	2	noise_calib_stim_LEFT.wav	1	23	blb_dichoticlistening_ka-pa.mp3	ka	pa	1	left
6.6.1	win	2023-07-07	09:23:55	09:38:10	851391	6303c0bf11a5be642b52830e	2	1	main_z	24	advance_on_keypress_ZEE	28	stimuli_target_diamondsquares.svg	stimuli_distractor_trianglediamonds.svg	20	yes	57	0	1199	6	1	antiphase_hc_iso.wav	2	6	2	noise_calib_stim_LEFT.wav	1	23	blb_dichoticlistening_ka-pa.mp3	ka	pa	1	left
6.6.1	win	2023-07-07	09:23:55	09:38:13	853583	6303c0bf11a5be642b52830e	2	1	main_z	24	main_z	29	stimuli_target_squaretriangles.svg	stimuli_distractor_diamondtriangles.svg	7	yes	44	1	341	6	1	antiphase_hc_iso.wav	2	6	2	noise_calib_stim_LEFT.wav	1	23	blb_dichoticlistening_ka-pa.mp3	ka	pa	1	left
6.6.1	win	2023-07-07	09:23:55	09:38:13	853583	6303c0bf11a5be642b52830e	2	1	main_z	24	advance_on_keypress_ZEE	30	stimuli_target_squaretriangles.svg	stimuli_distractor_diamondtriangles.svg	7	yes	57	0	1207	6	1	antiphase_hc_iso.wav	2	6	2	noise_calib_stim_LEFT.wav	1	23	blb_dichoticlistening_ka-pa.mp3	ka	pa	1	left
6.6.1	win	2023-07-07	09:23:55	09:38:15	855767	6303c0bf11a5be642b52830e	2	1	main_z	24	main_z	31	stimuli_target_rectangletriangles.svg	stimuli_distractor_diamondtriangles.svg	5	yes	44	1	342	6	1	antiphase_hc_iso.wav	2	6	2	noise_calib_stim_LEFT.wav	1	23	blb_dichoticlistening_ka-pa.mp3	ka	pa	1	left
6.6.1	win	2023-07-07	09:23:55	09:38:15	855767	6303c0bf11a5be642b52830e	2	1	main_z	24	advance_on_keypress_ZEE	32	stimuli_target_rectangletriangles.svg	stimuli_distractor_diamondtriangles.svg	5	yes	57	0	1288	6	1	antiphase_hc_iso.wav	2	6	2	noise_calib_stim_LEFT.wav	1	23	blb_dichoticlistening_ka-pa.mp3	ka	pa	1	left
6.6.1	win	2023-07-07	09:23:55	09:38:17	858055	6303c0bf11a5be642b52830e	2	1	main_z	24	main_z	33	stimuli_distractor_trianglediamonds.svg	stimuli_distractor_trianglediamonds.svg	33	no	44	0	364	6	1	antiphase_hc_iso.wav	2	6	2	noise_calib_stim_LEFT.wav	1	23	blb_dichoticlistening_ka-pa.mp3	ka	pa	1	left
6.6.1	win	2023-07-07	09:23:55	09:38:17	858055	6303c0bf11a5be642b52830e	2	1	main_z	24	advance_on_keypress_ZEE	34	stimuli_distractor_trianglediamonds.svg	stimuli_distractor_trianglediamonds.svg	33	no	57	0	1236	6	1	antiphase_hc_iso.wav	2	6	2	noise_calib_stim_LEFT.wav	1	23	blb_dichoticlistening_ka-pa.mp3	ka	pa	1	left
6.6.1	win	2023-07-07	09:23:55	09:38:19	860359	6303c0bf11a5be642b52830e	2	1	main_z	24	main_z	35	stimuli_target_trianglerectangles.svg	stimuli_distractor_trianglediamonds.svg	17	yes	44	1	418	6	1	antiphase_hc_iso.wav	2	6	2	noise_calib_stim_LEFT.wav	1	23	blb_dichoticlistening_ka-pa.mp3	ka	pa	1	left
6.6.1	win	2023-07-07	09:23:55	09:38:19	860359	6303c0bf11a5be642b52830e	2	1	main_z	24	advance_on_keypress_ZEE	36	stimuli_target_trianglerectangles.svg	stimuli_distractor_trianglediamonds.svg	17	yes	57	0	1168	6	1	antiphase_hc_iso.wav	2	6	2	noise_calib_stim_LEFT.wav	1	23	blb_dichoticlistening_ka-pa.mp3	ka	pa	1	left
6.6.1	win	2023-07-07	09:23:55	09:38:22	862591	6303c0bf11a5be642b52830e	2	1	main_z	24	main_z	37	stimuli_distractor_trianglediamonds.svg	stimuli_target_rectanglediamonds.svg	10	yes	44	1	416	6	1	antiphase_hc_iso.wav	2	6	2	noise_calib_stim_LEFT.wav	1	23	blb_dichoticlistening_ka-pa.mp3	ka	pa	1	left
6.6.1	win	2023-07-07	09:23:55	09:38:22	862591	6303c0bf11a5be642b52830e	2	1	main_z	24	advance_on_keypress_ZEE	38	stimuli_distractor_trianglediamonds.svg	stimuli_target_rectanglediamonds.svg	10	yes	57	0	1103	6	1	antiphase_hc_iso.wav	2	6	2	noise_calib_stim_LEFT.wav	1	23	blb_dichoticlistening_ka-pa.mp3	ka	pa	1	left
6.6.1	win	2023-07-07	09:23:55	09:38:24	864723	6303c0bf11a5be642b52830e	2	1	main_z	24	main_z	39	stimuli_target_diamondrectangles.svg	stimuli_distractor_trianglediamonds.svg	19	yes	44	1	370	6	1	antiphase_hc_iso.wav	2	6	2	noise_calib_stim_LEFT.wav	1	23	blb_dichoticlistening_ka-pa.mp3	ka	pa	1	left
6.6.1	win	2023-07-07	09:23:55	09:38:24	864723	6303c0bf11a5be642b52830e	2	1	main_z	24	advance_on_keypress_ZEE	40	stimuli_target_diamondrectangles.svg	stimuli_distractor_trianglediamonds.svg	19	yes	57	0	1098	6	1	antiphase_hc_iso.wav	2	6	2	noise_calib_stim_LEFT.wav	1	23	blb_dichoticlistening_ka-pa.mp3	ka	pa	1	left
6.6.1	win	2023-07-07	09:23:55	09:38:26	866879	6303c0bf11a5be642b52830e	2	1	main_z	24	main_z	41	stimuli_distractor_diamondtriangles.svg	stimuli_distractor_diamondtriangles.svg	40	no	44	0	404	6	1	antiphase_hc_iso.wav	2	6	2	noise_calib_stim_LEFT.wav	1	23	blb_dichoticlistening_ka-pa.mp3	ka	pa	1	left
6.6.1	win	2023-07-07	09:23:55	09:38:26	866879	6303c0bf11a5be642b52830e	2	1	main_z	24	advance_on_keypress_ZEE	42	stimuli_distractor_diamondtriangles.svg	stimuli_distractor_diamondtriangles.svg	40	no	57	0	1236	6	1	antiphase_hc_iso.wav	2	6	2	noise_calib_stim_LEFT.wav	1	23	blb_dichoticlistening_ka-pa.mp3	ka	pa	1	left
6.6.1	win	2023-07-07	09:23:55	09:38:28	869167	6303c0bf11a5be642b52830e	2	1	main_z	24	main_z	43	stimuli_distractor_trianglediamonds.svg	stimuli_target_squarediamonds.svg	12	yes	44	1	409	6	1	antiphase_hc_iso.wav	2	6	2	noise_calib_stim_LEFT.wav	1	23	blb_dichoticlistening_ka-pa.mp3	ka	pa	1	left
6.6.1	win	2023-07-07	09:23:55	09:38:28	869167	6303c0bf11a5be642b52830e	2	1	main_z	24	advance_on_keypress_ZEE	44	stimuli_distractor_trianglediamonds.svg	stimuli_target_squarediamonds.svg	12	yes	57	0	1504	6	1	antiphase_hc_iso.wav	2	6	2	noise_calib_stim_LEFT.wav	1	23	blb_dichoticlistening_ka-pa.mp3	ka	pa	1	left
6.6.1	win	2023-07-07	09:23:55	09:38:31	871735	6303c0bf11a5be642b52830e	2	1	main_z	24	main_z	45	stimuli_target_diamondrectangles.svg	stimuli_distractor_diamondtriangles.svg	23	yes	44	1	427	6	1	antiphase_hc_iso.wav	2	6	2	noise_calib_stim_LEFT.wav	1	23	blb_dichoticlistening_ka-pa.mp3	ka	pa	1	left
6.6.1	win	2023-07-07	09:23:55	09:38:31	871735	6303c0bf11a5be642b52830e	2	1	main_z	24	advance_on_keypress_ZEE	46	stimuli_target_diamondrectangles.svg	stimuli_distractor_diamondtriangles.svg	23	yes	57	0	1258	6	1	antiphase_hc_iso.wav	2	6	2	noise_calib_stim_LEFT.wav	1	23	blb_dichoticlistening_ka-pa.mp3	ka	pa	1	left
6.6.1	win	2023-07-07	09:23:55	09:38:33	873959	6303c0bf11a5be642b52830e	2	1	main_z	24	main_z	47	stimuli_distractor_diamondtriangles.svg	stimuli_target_squarediamonds.svg	16	yes	44	1	334	6	1	antiphase_hc_iso.wav	2	6	2	noise_calib_stim_LEFT.wav	1	23	blb_dichoticlistening_ka-pa.mp3	ka	pa	1	left
6.6.1	win	2023-07-07	09:23:55	09:38:33	873959	6303c0bf11a5be642b52830e	2	1	main_z	24	advance_on_keypress_ZEE	48	stimuli_distractor_diamondtriangles.svg	stimuli_target_squarediamonds.svg	16	yes	57	0	1144	6	1	antiphase_hc_iso.wav	2	6	2	noise_calib_stim_LEFT.wav	1	23	blb_dichoticlistening_ka-pa.mp3	ka	pa	1	left
6.6.1	win	2023-07-07	09:23:55	09:38:37	877741	6303c0bf11a5be642b52830e	2	1	main_z	24	main_z	49	stimuli_distractor_trianglediamonds.svg	stimuli_distractor_diamondtriangles.svg	35	no	0	1	2000	6	1	antiphase_hc_iso.wav	2	6	2	noise_calib_stim_LEFT.wav	1	23	blb_dichoticlistening_ka-pa.mp3	ka	pa	1	left
6.6.1	win	2023-07-07	09:23:55	09:38:37	877741	6303c0bf11a5be642b52830e	2	1	main_z	24	advance_on_keypress_ZEE	50	stimuli_distractor_trianglediamonds.svg	stimuli_distractor_diamondtriangles.svg	35	no	57	0	2049	6	1	antiphase_hc_iso.wav	2	6	2	noise_calib_stim_LEFT.wav	1	23	blb_dichoticlistening_ka-pa.mp3	ka	pa	1	left
6.6.1	win	2023-07-07	09:23:55	09:38:40	880822	6303c0bf11a5be642b52830e	2	1	main_z	24	main_z	51	stimuli_distractor_trianglediamonds.svg	stimuli_target_diamondrectangles.svg	27	yes	44	1	382	6	1	antiphase_hc_iso.wav	2	6	2	noise_calib_stim_LEFT.wav	1	23	blb_dichoticlistening_ka-pa.mp3	ka	pa	1	left
6.6.1	win	2023-07-07	09:23:55	09:38:40	880822	6303c0bf11a5be642b52830e	2	1	main_z	24	advance_on_keypress_ZEE	52	stimuli_distractor_trianglediamonds.svg	stimuli_target_diamondrectangles.svg	27	yes	57	0	1166	6	1	antiphase_hc_iso.wav	2	6	2	noise_calib_stim_LEFT.wav	1	23	blb_dichoticlistening_ka-pa.mp3	ka	pa	1	left
6.6.1	win	2023-07-07	09:23:55	09:38:42	883047	6303c0bf11a5be642b52830e	2	1	main_z	24	main_z	53	stimuli_target_squarediamonds.svg	stimuli_distractor_diamondtriangles.svg	8	yes	44	1	406	6	1	antiphase_hc_iso.wav	2	6	2	noise_calib_stim_LEFT.wav	1	23	blb_dichoticlistening_ka-pa.mp3	ka	pa	1	left
6.6.1	win	2023-07-07	09:23:55	09:38:42	883047	6303c0bf11a5be642b52830e	2	1	main_z	24	advance_on_keypress_ZEE	54	stimuli_target_squarediamonds.svg	stimuli_distractor_diamondtriangles.svg	8	yes	57	0	1085	6	1	antiphase_hc_iso.wav	2	6	2	noise_calib_stim_LEFT.wav	1	23	blb_dichoticlistening_ka-pa.mp3	ka	pa	1	left
6.6.1	win	2023-07-07	09:23:55	09:38:44	885183	6303c0bf11a5be642b52830e	2	1	main_z	24	main_z	55	stimuli_distractor_diamondtriangles.svg	stimuli_target_rectanglediamonds.svg	14	yes	44	1	409	6	1	antiphase_hc_iso.wav	2	6	2	noise_calib_stim_LEFT.wav	1	23	blb_dichoticlistening_ka-pa.mp3	ka	pa	1	left
6.6.1	win	2023-07-07	09:23:55	09:38:44	885183	6303c0bf11a5be642b52830e	2	1	main_z	24	advance_on_keypress_ZEE	56	stimuli_distractor_diamondtriangles.svg	stimuli_target_rectanglediamonds.svg	14	yes	57	0	1272	6	1	antiphase_hc_iso.wav	2	6	2	noise_calib_stim_LEFT.wav	1	23	blb_dichoticlistening_ka-pa.mp3	ka	pa	1	left
6.6.1	win	2023-07-07	09:23:55	09:38:46	887423	6303c0bf11a5be642b52830e	2	1	main_z	24	main_z	57	stimuli_target_squarediamonds.svg	stimuli_distractor_trianglediamonds.svg	4	yes	44	1	332	6	1	antiphase_hc_iso.wav	2	6	2	noise_calib_stim_LEFT.wav	1	23	blb_dichoticlistening_ka-pa.mp3	ka	pa	1	left
6.6.1	win	2023-07-07	09:23:55	09:38:46	887423	6303c0bf11a5be642b52830e	2	1	main_z	24	advance_on_keypress_ZEE	58	stimuli_target_squarediamonds.svg	stimuli_distractor_trianglediamonds.svg	4	yes	57	0	966	6	1	antiphase_hc_iso.wav	2	6	2	noise_calib_stim_LEFT.wav	1	23	blb_dichoticlistening_ka-pa.mp3	ka	pa	1	left
6.6.1	win	2023-07-07	09:23:55	09:38:49	889439	6303c0bf11a5be642b52830e	2	1	main_z	24	main_z	59	stimuli_distractor_trianglediamonds.svg	stimuli_target_rectangletriangles.svg	9	yes	44	1	398	6	1	antiphase_hc_iso.wav	2	6	2	noise_calib_stim_LEFT.wav	1	23	blb_dichoticlistening_ka-pa.mp3	ka	pa	1	left
6.6.1	win	2023-07-07	09:23:55	09:38:49	889439	6303c0bf11a5be642b52830e	2	1	main_z	24	advance_on_keypress_ZEE	60	stimuli_distractor_trianglediamonds.svg	stimuli_target_rectangletriangles.svg	9	yes	57	0	1101	6	1	antiphase_hc_iso.wav	2	6	2	noise_calib_stim_LEFT.wav	1	23	blb_dichoticlistening_ka-pa.mp3	ka	pa	1	left
6.6.1	win	2023-07-07	09:23:55	09:38:51	891543	6303c0bf11a5be642b52830e	2	1	main_z	24	main_z	61	stimuli_target_rectanglediamonds.svg	stimuli_distractor_trianglediamonds.svg	2	yes	44	1	352	6	1	antiphase_hc_iso.wav	2	6	2	noise_calib_stim_LEFT.wav	1	23	blb_dichoticlistening_ka-pa.mp3	ka	pa	1	left
6.6.1	win	2023-07-07	09:23:55	09:38:51	891543	6303c0bf11a5be642b52830e	2	1	main_z	24	advance_on_keypress_ZEE	62	stimuli_target_rectanglediamonds.svg	stimuli_distractor_trianglediamonds.svg	2	yes	57	0	986	6	1	antiphase_hc_iso.wav	2	6	2	noise_calib_stim_LEFT.wav	1	23	blb_dichoticlistening_ka-pa.mp3	ka	pa	1	left
6.6.1	win	2023-07-07	09:23:55	09:38:53	893839	6303c0bf11a5be642b52830e	2	1	main_z	24	main_z	63	stimuli_distractor_diamondtriangles.svg	stimuli_distractor_trianglediamonds.svg	37	no	44	0	665	6	1	antiphase_hc_iso.wav	2	6	2	noise_calib_stim_LEFT.wav	1	23	blb_dichoticlistening_ka-pa.mp3	ka	pa	1	left
6.6.1	win	2023-07-07	09:23:55	09:38:53	893839	6303c0bf11a5be642b52830e	2	1	main_z	24	advance_on_keypress_ZEE	64	stimuli_distractor_diamondtriangles.svg	stimuli_distractor_trianglediamonds.svg	37	no	57	0	942	6	1	antiphase_hc_iso.wav	2	6	2	noise_calib_stim_LEFT.wav	1	23	blb_dichoticlistening_ka-pa.mp3	ka	pa	1	left
6.6.1	win	2023-07-07	09:23:55	09:38:55	895950	6303c0bf11a5be642b52830e	2	1	main_z	24	main_z	65	stimuli_target_rectanglediamonds.svg	stimuli_distractor_diamondtriangles.svg	6	yes	44	1	527	6	1	antiphase_hc_iso.wav	2	6	2	noise_calib_stim_LEFT.wav	1	23	blb_dichoticlistening_ka-pa.mp3	ka	pa	1	left
6.6.1	win	2023-07-07	09:23:55	09:38:55	895950	6303c0bf11a5be642b52830e	2	1	main_z	24	advance_on_keypress_ZEE	66	stimuli_target_rectanglediamonds.svg	stimuli_distractor_diamondtriangles.svg	6	yes	57	0	962	6	1	antiphase_hc_iso.wav	2	6	2	noise_calib_stim_LEFT.wav	1	23	blb_dichoticlistening_ka-pa.mp3	ka	pa	1	left
6.6.1	win	2023-07-07	09:23:55	09:38:57	897950	6303c0bf11a5be642b52830e	2	1	main_z	24	main_z	67	stimuli_distractor_diamondtriangles.svg	stimuli_distractor_trianglediamonds.svg	38	no	44	0	410	6	1	antiphase_hc_iso.wav	2	6	2	noise_calib_stim_LEFT.wav	1	23	blb_dichoticlistening_ka-pa.mp3	ka	pa	1	left
6.6.1	win	2023-07-07	09:23:55	09:38:57	897950	6303c0bf11a5be642b52830e	2	1	main_z	24	advance_on_keypress_ZEE	68	stimuli_distractor_diamondtriangles.svg	stimuli_distractor_trianglediamonds.svg	38	no	57	0	1322	6	1	antiphase_hc_iso.wav	2	6	2	noise_calib_stim_LEFT.wav	1	23	blb_dichoticlistening_ka-pa.mp3	ka	pa	1	left
6.6.1	win	2023-07-07	09:23:55	09:38:59	900342	6303c0bf11a5be642b52830e	2	1	main_z	24	main_z	69	stimuli_target_trianglesquares.svg	stimuli_distractor_trianglediamonds.svg	18	yes	44	1	436	6	1	antiphase_hc_iso.wav	2	6	2	noise_calib_stim_LEFT.wav	1	23	blb_dichoticlistening_ka-pa.mp3	ka	pa	1	left
6.6.1	win	2023-07-07	09:23:55	09:38:59	900342	6303c0bf11a5be642b52830e	2	1	main_z	24	advance_on_keypress_ZEE	70	stimuli_target_trianglesquares.svg	stimuli_distractor_trianglediamonds.svg	18	yes	57	0	1034	6	1	antiphase_hc_iso.wav	2	6	2	noise_calib_stim_LEFT.wav	1	23	blb_dichoticlistening_ka-pa.mp3	ka	pa	1	left
6.6.1	win	2023-07-07	09:23:55	09:39:02	902486	6303c0bf11a5be642b52830e	2	1	main_z	24	main_z	71	stimuli_distractor_trianglediamonds.svg	stimuli_distractor_trianglediamonds.svg	34	no	44	0	463	6	1	antiphase_hc_iso.wav	2	6	2	noise_calib_stim_LEFT.wav	1	23	blb_dichoticlistening_ka-pa.mp3	ka	pa	1	left
6.6.1	win	2023-07-07	09:23:55	09:39:02	902486	6303c0bf11a5be642b52830e	2	1	main_z	24	advance_on_keypress_ZEE	72	stimuli_distractor_trianglediamonds.svg	stimuli_distractor_trianglediamonds.svg	34	no	57	0	1412	6	1	antiphase_hc_iso.wav	2	6	2	noise_calib_stim_LEFT.wav	1	23	blb_dichoticlistening_ka-pa.mp3	ka	pa	1	left
6.6.1	win	2023-07-07	09:23:55	09:39:04	905111	6303c0bf11a5be642b52830e	2	1	main_z	24	main_z	73	stimuli_distractor_diamondtriangles.svg	stimuli_target_squaretriangles.svg	15	yes	44	1	570	6	1	antiphase_hc_iso.wav	2	6	2	noise_calib_stim_LEFT.wav	1	23	blb_dichoticlistening_ka-pa.mp3	ka	pa	1	left
6.6.1	win	2023-07-07	09:23:55	09:39:04	905111	6303c0bf11a5be642b52830e	2	1	main_z	24	advance_on_keypress_ZEE	74	stimuli_distractor_diamondtriangles.svg	stimuli_target_squaretriangles.svg	15	yes	57	0	1131	6	1	antiphase_hc_iso.wav	2	6	2	noise_calib_stim_LEFT.wav	1	23	blb_dichoticlistening_ka-pa.mp3	ka	pa	1	left
6.6.1	win	2023-07-07	09:23:55	09:39:07	907543	6303c0bf11a5be642b52830e	2	1	main_z	24	main_z	75	stimuli_distractor_diamondtriangles.svg	stimuli_target_diamondsquares.svg	32	yes	44	1	652	6	1	antiphase_hc_iso.wav	2	6	2	noise_calib_stim_LEFT.wav	1	23	blb_dichoticlistening_ka-pa.mp3	ka	pa	1	left
6.6.1	win	2023-07-07	09:23:55	09:39:07	907543	6303c0bf11a5be642b52830e	2	1	main_z	24	advance_on_keypress_ZEE	76	stimuli_distractor_diamondtriangles.svg	stimuli_target_diamondsquares.svg	32	yes	57	0	1218	6	1	antiphase_hc_iso.wav	2	6	2	noise_calib_stim_LEFT.wav	1	23	blb_dichoticlistening_ka-pa.mp3	ka	pa	1	left
6.6.1	win	2023-07-07	09:23:55	09:39:09	909788	6303c0bf11a5be642b52830e	2	1	main_z	24	main_z	77	stimuli_distractor_diamondtriangles.svg	stimuli_distractor_diamondtriangles.svg	39	no	44	0	376	6	1	antiphase_hc_iso.wav	2	6	2	noise_calib_stim_LEFT.wav	1	23	blb_dichoticlistening_ka-pa.mp3	ka	pa	1	left
6.6.1	win	2023-07-07	09:23:55	09:39:09	909788	6303c0bf11a5be642b52830e	2	1	main_z	24	advance_on_keypress_ZEE	78	stimuli_distractor_diamondtriangles.svg	stimuli_distractor_diamondtriangles.svg	39	no	57	0	2816	6	1	antiphase_hc_iso.wav	2	6	2	noise_calib_stim_LEFT.wav	1	23	blb_dichoticlistening_ka-pa.mp3	ka	pa	1	left
6.6.1	win	2023-07-07	09:23:55	09:39:13	913790	6303c0bf11a5be642b52830e	2	1	main_z	24	main_z	79	stimuli_distractor_trianglediamonds.svg	stimuli_distractor_diamondtriangles.svg	36	no	44	0	534	6	1	antiphase_hc_iso.wav	2	6	2	noise_calib_stim_LEFT.wav	1	23	blb_dichoticlistening_ka-pa.mp3	ka	pa	1	left
6.6.1	win	2023-07-07	09:23:55	09:39:13	913790	6303c0bf11a5be642b52830e	2	1	main_z	24	advance_on_keypress_ZEE	80	stimuli_distractor_trianglediamonds.svg	stimuli_distractor_diamondtriangles.svg	36	no	57	0	1048	6	1	antiphase_hc_iso.wav	2	6	2	noise_calib_stim_LEFT.wav	1	23	blb_dichoticlistening_ka-pa.mp3	ka	pa	1	left
6.6.1	win	2023-07-07	09:23:55	09:39:15	916014	6303c0bf11a5be642b52830e	2	1	main_z	24	main_z	81	stimuli_distractor_trianglediamonds.svg	stimuli_distractor_diamondtriangles.svg	36	no	44	0	525	6	1	antiphase_hc_iso.wav	2	6	2	noise_calib_stim_LEFT.wav	1	23	blb_dichoticlistening_ka-pa.mp3	ka	pa	1	left
6.6.1	win	2023-07-07	09:23:55	09:39:15	916014	6303c0bf11a5be642b52830e	2	1	main_z	24	advance_on_keypress_ZEE	82	stimuli_distractor_trianglediamonds.svg	stimuli_distractor_diamondtriangles.svg	36	no	57	0	1135	6	1	antiphase_hc_iso.wav	2	6	2	noise_calib_stim_LEFT.wav	1	23	blb_dichoticlistening_ka-pa.mp3	ka	pa	1	left
6.6.1	win	2023-07-07	09:23:55	09:39:18	918614	6303c0bf11a5be642b52830e	2	1	main_z	24	main_z	83	stimuli_distractor_trianglediamonds.svg	stimuli_target_rectangletriangles.svg	9	yes	44	1	825	6	1	antiphase_hc_iso.wav	2	6	2	noise_calib_stim_LEFT.wav	1	23	blb_dichoticlistening_ka-pa.mp3	ka	pa	1	left
6.6.1	win	2023-07-07	09:23:55	09:39:18	918614	6303c0bf11a5be642b52830e	2	1	main_z	24	advance_on_keypress_ZEE	84	stimuli_distractor_trianglediamonds.svg	stimuli_target_rectangletriangles.svg	9	yes	57	0	1047	6	1	antiphase_hc_iso.wav	2	6	2	noise_calib_stim_LEFT.wav	1	23	blb_dichoticlistening_ka-pa.mp3	ka	pa	1	left
6.6.1	win	2023-07-07	09:23:55	09:39:21	922307	6303c0bf11a5be642b52830e	2	1	main_z	24	main_z	85	stimuli_distractor_diamondtriangles.svg	stimuli_distractor_trianglediamonds.svg	38	no	0	1	2000	6	1	antiphase_hc_iso.wav	2	6	2	noise_calib_stim_LEFT.wav	1	23	blb_dichoticlistening_ka-pa.mp3	ka	pa	1	left
6.6.1	win	2023-07-07	09:23:55	09:39:21	922307	6303c0bf11a5be642b52830e	2	1	main_z	24	advance_on_keypress_ZEE	86	stimuli_distractor_diamondtriangles.svg	stimuli_distractor_trianglediamonds.svg	38	no	57	0	1091	6	1	antiphase_hc_iso.wav	2	6	2	noise_calib_stim_LEFT.wav	1	23	blb_dichoticlistening_ka-pa.mp3	ka	pa	1	left
6.6.1	win	2023-07-07	09:23:55	09:39:24	924478	6303c0bf11a5be642b52830e	2	1	main_z	24	main_z	87	stimuli_target_rectanglediamonds.svg	stimuli_distractor_trianglediamonds.svg	2	yes	44	1	439	6	1	antiphase_hc_iso.wav	2	6	2	noise_calib_stim_LEFT.wav	1	23	blb_dichoticlistening_ka-pa.mp3	ka	pa	1	left
6.6.1	win	2023-07-07	09:23:55	09:39:24	924478	6303c0bf11a5be642b52830e	2	1	main_z	24	advance_on_keypress_ZEE	88	stimuli_target_rectanglediamonds.svg	stimuli_distractor_trianglediamonds.svg	2	yes	57	0	1045	6	1	antiphase_hc_iso.wav	2	6	2	noise_calib_stim_LEFT.wav	1	23	blb_dichoticlistening_ka-pa.mp3	ka	pa	1	left
6.6.1	win	2023-07-07	09:23:55	09:39:26	926538	6303c0bf11a5be642b52830e	2	1	main_z	24	main_z	89	stimuli_target_diamondsquares.svg	stimuli_distractor_diamondtriangles.svg	24	yes	44	1	370	6	1	antiphase_hc_iso.wav	2	6	2	noise_calib_stim_LEFT.wav	1	23	blb_dichoticlistening_ka-pa.mp3	ka	pa	1	left
6.6.1	win	2023-07-07	09:23:55	09:39:26	926538	6303c0bf11a5be642b52830e	2	1	main_z	24	advance_on_keypress_ZEE	90	stimuli_target_diamondsquares.svg	stimuli_distractor_diamondtriangles.svg	24	yes	57	0	1082	6	1	antiphase_hc_iso.wav	2	6	2	noise_calib_stim_LEFT.wav	1	23	blb_dichoticlistening_ka-pa.mp3	ka	pa	1	left
6.6.1	win	2023-07-07	09:23:55	09:39:28	928694	6303c0bf11a5be642b52830e	2	1	main_z	24	main_z	91	stimuli_target_squaretriangles.svg	stimuli_distractor_trianglediamonds.svg	3	yes	44	1	421	6	1	antiphase_hc_iso.wav	2	6	2	noise_calib_stim_LEFT.wav	1	23	blb_dichoticlistening_ka-pa.mp3	ka	pa	1	left
6.6.1	win	2023-07-07	09:23:55	09:39:28	928694	6303c0bf11a5be642b52830e	2	1	main_z	24	advance_on_keypress_ZEE	92	stimuli_target_squaretriangles.svg	stimuli_distractor_trianglediamonds.svg	3	yes	57	0	1212	6	1	antiphase_hc_iso.wav	2	6	2	noise_calib_stim_LEFT.wav	1	23	blb_dichoticlistening_ka-pa.mp3	ka	pa	1	left
6.6.1	win	2023-07-07	09:23:55	09:39:32	932540	6303c0bf11a5be642b52830e	2	1	main_z	24	main_z	93	stimuli_distractor_trianglediamonds.svg	stimuli_distractor_trianglediamonds.svg	34	no	0	1	2000	6	1	antiphase_hc_iso.wav	2	6	2	noise_calib_stim_LEFT.wav	1	23	blb_dichoticlistening_ka-pa.mp3	ka	pa	1	left
6.6.1	win	2023-07-07	09:23:55	09:39:32	932540	6303c0bf11a5be642b52830e	2	1	main_z	24	advance_on_keypress_ZEE	94	stimuli_distractor_trianglediamonds.svg	stimuli_distractor_trianglediamonds.svg	34	no	57	0	754	6	1	antiphase_hc_iso.wav	2	6	2	noise_calib_stim_LEFT.wav	1	23	blb_dichoticlistening_ka-pa.mp3	ka	pa	1	left
6.6.1	win	2023-07-07	09:23:55	09:39:33	934350	6303c0bf11a5be642b52830e	2	1	main_z	24	main_z	95	stimuli_target_trianglesquares.svg	stimuli_distractor_diamondtriangles.svg	22	yes	44	1	411	6	1	antiphase_hc_iso.wav	2	6	2	noise_calib_stim_LEFT.wav	1	23	blb_dichoticlistening_ka-pa.mp3	ka	pa	1	left
6.6.1	win	2023-07-07	09:23:55	09:39:33	934350	6303c0bf11a5be642b52830e	2	1	main_z	24	advance_on_keypress_ZEE	96	stimuli_target_trianglesquares.svg	stimuli_distractor_diamondtriangles.svg	22	yes	57	0	1041	6	1	antiphase_hc_iso.wav	2	6	2	noise_calib_stim_LEFT.wav	1	23	blb_dichoticlistening_ka-pa.mp3	ka	pa	1	left
6.6.1	win	2023-07-07	09:23:55	09:39:35	936414	6303c0bf11a5be642b52830e	2	1	main_z	24	main_z	97	stimuli_target_squarediamonds.svg	stimuli_distractor_trianglediamonds.svg	4	yes	44	1	391	6	1	antiphase_hc_iso.wav	2	6	2	noise_calib_stim_LEFT.wav	1	23	blb_dichoticlistening_ka-pa.mp3	ka	pa	1	left
6.6.1	win	2023-07-07	09:23:55	09:39:35	936414	6303c0bf11a5be642b52830e	2	1	main_z	24	advance_on_keypress_ZEE	98	stimuli_target_squarediamonds.svg	stimuli_distractor_trianglediamonds.svg	4	yes	57	0	1072	6	1	antiphase_hc_iso.wav	2	6	2	noise_calib_stim_LEFT.wav	1	23	blb_dichoticlistening_ka-pa.mp3	ka	pa	1	left
6.6.1	win	2023-07-07	09:23:55	09:39:38	938542	6303c0bf11a5be642b52830e	2	1	main_z	24	main_z	99	stimuli_target_diamondrectangles.svg	stimuli_distractor_diamondtriangles.svg	23	yes	44	1	420	6	1	antiphase_hc_iso.wav	2	6	2	noise_calib_stim_LEFT.wav	1	23	blb_dichoticlistening_ka-pa.mp3	ka	pa	1	left
6.6.1	win	2023-07-07	09:23:55	09:39:38	938542	6303c0bf11a5be642b52830e	2	1	main_z	24	advance_on_keypress_ZEE	100	stimuli_target_diamondrectangles.svg	stimuli_distractor_diamondtriangles.svg	23	yes	57	0	889	6	1	antiphase_hc_iso.wav	2	6	2	noise_calib_stim_LEFT.wav	1	23	blb_dichoticlistening_ka-pa.mp3	ka	pa	1	left
6.6.1	win	2023-07-07	09:23:55	09:39:40	940718	6303c0bf11a5be642b52830e	2	1	main_z	24	main_z	101	stimuli_distractor_diamondtriangles.svg	stimuli_target_trianglerectangles.svg	29	yes	44	1	646	6	1	antiphase_hc_iso.wav	2	6	2	noise_calib_stim_LEFT.wav	1	23	blb_dichoticlistening_ka-pa.mp3	ka	pa	1	left
6.6.1	win	2023-07-07	09:23:55	09:39:40	940718	6303c0bf11a5be642b52830e	2	1	main_z	24	advance_on_keypress_ZEE	102	stimuli_distractor_diamondtriangles.svg	stimuli_target_trianglerectangles.svg	29	yes	57	0	851	6	1	antiphase_hc_iso.wav	2	6	2	noise_calib_stim_LEFT.wav	1	23	blb_dichoticlistening_ka-pa.mp3	ka	pa	1	left
6.6.1	win	2023-07-07	09:23:55	09:39:42	943174	6303c0bf11a5be642b52830e	2	1	main_z	24	main_z	103	stimuli_distractor_diamondtriangles.svg	stimuli_distractor_trianglediamonds.svg	37	no	44	0	968	6	1	antiphase_hc_iso.wav	2	6	2	noise_calib_stim_LEFT.wav	1	23	blb_dichoticlistening_ka-pa.mp3	ka	pa	1	left
6.6.1	win	2023-07-07	09:23:55	09:39:42	943174	6303c0bf11a5be642b52830e	2	1	main_z	24	advance_on_keypress_ZEE	104	stimuli_distractor_diamondtriangles.svg	stimuli_distractor_trianglediamonds.svg	37	no	57	0	1360	6	1	antiphase_hc_iso.wav	2	6	2	noise_calib_stim_LEFT.wav	1	23	blb_dichoticlistening_ka-pa.mp3	ka	pa	1	left
6.6.1	win	2023-07-07	09:23:55	09:39:45	945718	6303c0bf11a5be642b52830e	2	1	main_z	24	main_z	105	stimuli_target_diamondsquares.svg	stimuli_distractor_trianglediamonds.svg	20	yes	44	1	545	6	1	antiphase_hc_iso.wav	2	6	2	noise_calib_stim_LEFT.wav	1	23	blb_dichoticlistening_ka-pa.mp3	ka	pa	1	left
6.6.1	win	2023-07-07	09:23:55	09:39:45	945718	6303c0bf11a5be642b52830e	2	1	main_z	24	advance_on_keypress_ZEE	106	stimuli_target_diamondsquares.svg	stimuli_distractor_trianglediamonds.svg	20	yes	57	0	948	6	1	antiphase_hc_iso.wav	2	6	2	noise_calib_stim_LEFT.wav	1	23	blb_dichoticlistening_ka-pa.mp3	ka	pa	1	left
6.6.1	win	2023-07-07	09:23:55	09:39:47	947846	6303c0bf11a5be642b52830e	2	1	main_z	24	main_z	107	stimuli_distractor_diamondtriangles.svg	stimuli_target_rectangletriangles.svg	13	yes	44	1	539	6	1	antiphase_hc_iso.wav	2	6	2	noise_calib_stim_LEFT.wav	1	23	blb_dichoticlistening_ka-pa.mp3	ka	pa	1	left
6.6.1	win	2023-07-07	09:23:55	09:39:47	947846	6303c0bf11a5be642b52830e	2	1	main_z	24	advance_on_keypress_ZEE	108	stimuli_distractor_diamondtriangles.svg	stimuli_target_rectangletriangles.svg	13	yes	57	0	1030	6	1	antiphase_hc_iso.wav	2	6	2	noise_calib_stim_LEFT.wav	1	23	blb_dichoticlistening_ka-pa.mp3	ka	pa	1	left
6.6.1	win	2023-07-07	09:23:55	09:39:51	951523	6303c0bf11a5be642b52830e	2	1	main_z	24	main_z	109	stimuli_distractor_trianglediamonds.svg	stimuli_distractor_trianglediamonds.svg	33	no	0	1	2000	6	1	antiphase_hc_iso.wav	2	6	2	noise_calib_stim_LEFT.wav	1	23	blb_dichoticlistening_ka-pa.mp3	ka	pa	1	left
6.6.1	win	2023-07-07	09:23:55	09:39:51	951523	6303c0bf11a5be642b52830e	2	1	main_z	24	advance_on_keypress_ZEE	110	stimuli_distractor_trianglediamonds.svg	stimuli_distractor_trianglediamonds.svg	33	no	57	0	1450	6	1	antiphase_hc_iso.wav	2	6	2	noise_calib_stim_LEFT.wav	1	23	blb_dichoticlistening_ka-pa.mp3	ka	pa	1	left
6.6.1	win	2023-07-07	09:23:55	09:39:54	954774	6303c0bf11a5be642b52830e	2	1	main_z	24	main_z	111	stimuli_distractor_diamondtriangles.svg	stimuli_distractor_diamondtriangles.svg	39	no	44	0	1151	6	1	antiphase_hc_iso.wav	2	6	2	noise_calib_stim_LEFT.wav	1	23	blb_dichoticlistening_ka-pa.mp3	ka	pa	1	left
6.6.1	win	2023-07-07	09:23:55	09:39:54	954774	6303c0bf11a5be642b52830e	2	1	main_z	24	advance_on_keypress_ZEE	112	stimuli_distractor_diamondtriangles.svg	stimuli_distractor_diamondtriangles.svg	39	no	57	0	1728	6	1	antiphase_hc_iso.wav	2	6	2	noise_calib_stim_LEFT.wav	1	23	blb_dichoticlistening_ka-pa.mp3	ka	pa	1	left
6.6.1	win	2023-07-07	09:23:55	09:39:57	957521	6303c0bf11a5be642b52830e	2	1	main_z	24	main_z	113	stimuli_distractor_trianglediamonds.svg	stimuli_target_squaretriangles.svg	11	yes	44	1	370	6	1	antiphase_hc_iso.wav	2	6	2	noise_calib_stim_LEFT.wav	1	23	blb_dichoticlistening_ka-pa.mp3	ka	pa	1	left
6.6.1	win	2023-07-07	09:23:55	09:39:57	957521	6303c0bf11a5be642b52830e	2	1	main_z	24	advance_on_keypress_ZEE	114	stimuli_distractor_trianglediamonds.svg	stimuli_target_squaretriangles.svg	11	yes	57	0	866	6	1	antiphase_hc_iso.wav	2	6	2	noise_calib_stim_LEFT.wav	1	23	blb_dichoticlistening_ka-pa.mp3	ka	pa	1	left
6.6.1	win	2023-07-07	09:23:55	09:39:59	959446	6303c0bf11a5be642b52830e	2	1	main_z	24	main_z	115	stimuli_target_squaretriangles.svg	stimuli_distractor_diamondtriangles.svg	7	yes	44	1	406	6	1	antiphase_hc_iso.wav	2	6	2	noise_calib_stim_LEFT.wav	1	23	blb_dichoticlistening_ka-pa.mp3	ka	pa	1	left
6.6.1	win	2023-07-07	09:23:55	09:39:59	959446	6303c0bf11a5be642b52830e	2	1	main_z	24	advance_on_keypress_ZEE	116	stimuli_target_squaretriangles.svg	stimuli_distractor_diamondtriangles.svg	7	yes	57	0	878	6	1	antiphase_hc_iso.wav	2	6	2	noise_calib_stim_LEFT.wav	1	23	blb_dichoticlistening_ka-pa.mp3	ka	pa	1	left
6.6.1	win	2023-07-07	09:23:55	09:40:00	961382	6303c0bf11a5be642b52830e	2	1	main_z	24	main_z	117	stimuli_target_diamondrectangles.svg	stimuli_distractor_trianglediamonds.svg	19	yes	44	1	426	6	1	antiphase_hc_iso.wav	2	6	2	noise_calib_stim_LEFT.wav	1	23	blb_dichoticlistening_ka-pa.mp3	ka	pa	1	left
6.6.1	win	2023-07-07	09:23:55	09:40:00	961382	6303c0bf11a5be642b52830e	2	1	main_z	24	advance_on_keypress_ZEE	118	stimuli_target_diamondrectangles.svg	stimuli_distractor_trianglediamonds.svg	19	yes	57	0	992	6	1	antiphase_hc_iso.wav	2	6	2	noise_calib_stim_LEFT.wav	1	23	blb_dichoticlistening_ka-pa.mp3	ka	pa	1	left
6.6.1	win	2023-07-07	09:23:55	09:40:03	963454	6303c0bf11a5be642b52830e	2	1	main_z	24	main_z	119	stimuli_distractor_trianglediamonds.svg	stimuli_target_diamondrectangles.svg	27	yes	44	1	448	6	1	antiphase_hc_iso.wav	2	6	2	noise_calib_stim_LEFT.wav	1	23	blb_dichoticlistening_ka-pa.mp3	ka	pa	1	left
6.6.1	win	2023-07-07	09:23:55	09:40:03	963454	6303c0bf11a5be642b52830e	2	1	main_z	24	advance_on_keypress_ZEE	120	stimuli_distractor_trianglediamonds.svg	stimuli_target_diamondrectangles.svg	27	yes	57	0	901	6	1	antiphase_hc_iso.wav	2	6	2	noise_calib_stim_LEFT.wav	1	23	blb_dichoticlistening_ka-pa.mp3	ka	pa	1	left
6.6.1	win	2023-07-07	09:23:55	09:40:04	965394	6303c0bf11a5be642b52830e	2	1	main_z	24	main_z	121	stimuli_target_trianglesquares.svg	stimuli_distractor_trianglediamonds.svg	18	yes	44	1	384	6	1	antiphase_hc_iso.wav	2	6	2	noise_calib_stim_LEFT.wav	1	23	blb_dichoticlistening_ka-pa.mp3	ka	pa	1	left
6.6.1	win	2023-07-07	09:23:55	09:40:04	965394	6303c0bf11a5be642b52830e	2	1	main_z	24	advance_on_keypress_ZEE	122	stimuli_target_trianglesquares.svg	stimuli_distractor_trianglediamonds.svg	18	yes	57	0	976	6	1	antiphase_hc_iso.wav	2	6	2	noise_calib_stim_LEFT.wav	1	23	blb_dichoticlistening_ka-pa.mp3	ka	pa	1	left
6.6.1	win	2023-07-07	09:23:55	09:40:07	967446	6303c0bf11a5be642b52830e	2	1	main_z	24	main_z	123	stimuli_distractor_trianglediamonds.svg	stimuli_target_trianglesquares.svg	26	yes	44	1	440	6	1	antiphase_hc_iso.wav	2	6	2	noise_calib_stim_LEFT.wav	1	23	blb_dichoticlistening_ka-pa.mp3	ka	pa	1	left
6.6.1	win	2023-07-07	09:23:55	09:40:07	967446	6303c0bf11a5be642b52830e	2	1	main_z	24	advance_on_keypress_ZEE	124	stimuli_distractor_trianglediamonds.svg	stimuli_target_trianglesquares.svg	26	yes	57	0	862	6	1	antiphase_hc_iso.wav	2	6	2	noise_calib_stim_LEFT.wav	1	23	blb_dichoticlistening_ka-pa.mp3	ka	pa	1	left
6.6.1	win	2023-07-07	09:23:55	09:40:08	969358	6303c0bf11a5be642b52830e	2	1	main_z	24	main_z	125	stimuli_target_rectangletriangles.svg	stimuli_distractor_diamondtriangles.svg	5	yes	44	1	402	6	1	antiphase_hc_iso.wav	2	6	2	noise_calib_stim_LEFT.wav	1	23	blb_dichoticlistening_ka-pa.mp3	ka	pa	1	left
6.6.1	win	2023-07-07	09:23:55	09:40:08	969358	6303c0bf11a5be642b52830e	2	1	main_z	24	advance_on_keypress_ZEE	126	stimuli_target_rectangletriangles.svg	stimuli_distractor_diamondtriangles.svg	5	yes	57	0	1025	6	1	antiphase_hc_iso.wav	2	6	2	noise_calib_stim_LEFT.wav	1	23	blb_dichoticlistening_ka-pa.mp3	ka	pa	1	left
6.6.1	win	2023-07-07	09:23:55	09:40:10	971422	6303c0bf11a5be642b52830e	2	1	main_z	24	main_z	127	stimuli_distractor_trianglediamonds.svg	stimuli_target_trianglerectangles.svg	25	yes	44	1	399	6	1	antiphase_hc_iso.wav	2	6	2	noise_calib_stim_LEFT.wav	1	23	blb_dichoticlistening_ka-pa.mp3	ka	pa	1	left
6.6.1	win	2023-07-07	09:23:55	09:40:10	971422	6303c0bf11a5be642b52830e	2	1	main_z	24	advance_on_keypress_ZEE	128	stimuli_distractor_trianglediamonds.svg	stimuli_target_trianglerectangles.svg	25	yes	57	0	695	6	1	antiphase_hc_iso.wav	2	6	2	noise_calib_stim_LEFT.wav	1	23	blb_dichoticlistening_ka-pa.mp3	ka	pa	1	left
6.6.1	win	2023-07-07	09:23:55	09:40:12	973102	6303c0bf11a5be642b52830e	2	1	main_z	24	main_z	129	stimuli_distractor_diamondtriangles.svg	stimuli_target_diamondrectangles.svg	31	yes	44	1	346	6	1	antiphase_hc_iso.wav	2	6	2	noise_calib_stim_LEFT.wav	1	23	blb_dichoticlistening_ka-pa.mp3	ka	pa	1	left
6.6.1	win	2023-07-07	09:23:55	09:40:12	973102	6303c0bf11a5be642b52830e	2	1	main_z	24	advance_on_keypress_ZEE	130	stimuli_distractor_diamondtriangles.svg	stimuli_target_diamondrectangles.svg	31	yes	57	0	747	6	1	antiphase_hc_iso.wav	2	6	2	noise_calib_stim_LEFT.wav	1	23	blb_dichoticlistening_ka-pa.mp3	ka	pa	1	left
6.6.1	win	2023-07-07	09:23:55	09:40:14	974918	6303c0bf11a5be642b52830e	2	1	main_z	24	main_z	131	stimuli_distractor_diamondtriangles.svg	stimuli_target_trianglesquares.svg	30	yes	44	1	412	6	1	antiphase_hc_iso.wav	2	6	2	noise_calib_stim_LEFT.wav	1	23	blb_dichoticlistening_ka-pa.mp3	ka	pa	1	left
6.6.1	win	2023-07-07	09:23:55	09:40:14	974918	6303c0bf11a5be642b52830e	2	1	main_z	24	advance_on_keypress_ZEE	132	stimuli_distractor_diamondtriangles.svg	stimuli_target_trianglesquares.svg	30	yes	57	0	795	6	1	antiphase_hc_iso.wav	2	6	2	noise_calib_stim_LEFT.wav	1	23	blb_dichoticlistening_ka-pa.mp3	ka	pa	1	left
6.6.1	win	2023-07-07	09:23:55	09:40:16	976721	6303c0bf11a5be642b52830e	2	1	main_z	24	main_z	133	stimuli_distractor_diamondtriangles.svg	stimuli_target_diamondsquares.svg	32	yes	44	1	379	6	1	antiphase_hc_iso.wav	2	6	2	noise_calib_stim_LEFT.wav	1	23	blb_dichoticlistening_ka-pa.mp3	ka	pa	1	left
6.6.1	win	2023-07-07	09:23:55	09:40:16	976721	6303c0bf11a5be642b52830e	2	1	main_z	24	advance_on_keypress_ZEE	134	stimuli_distractor_diamondtriangles.svg	stimuli_target_diamondsquares.svg	32	yes	57	0	715	6	1	antiphase_hc_iso.wav	2	6	2	noise_calib_stim_LEFT.wav	1	23	blb_dichoticlistening_ka-pa.mp3	ka	pa	1	left
6.6.1	win	2023-07-07	09:23:55	09:40:18	978446	6303c0bf11a5be642b52830e	2	1	main_z	24	main_z	135	stimuli_distractor_trianglediamonds.svg	stimuli_target_rectanglediamonds.svg	10	yes	44	1	357	6	1	antiphase_hc_iso.wav	2	6	2	noise_calib_stim_LEFT.wav	1	23	blb_dichoticlistening_ka-pa.mp3	ka	pa	1	left
6.6.1	win	2023-07-07	09:23:55	09:40:18	978446	6303c0bf11a5be642b52830e	2	1	main_z	24	advance_on_keypress_ZEE	136	stimuli_distractor_trianglediamonds.svg	stimuli_target_rectanglediamonds.svg	10	yes	57	0	814	6	1	antiphase_hc_iso.wav	2	6	2	noise_calib_stim_LEFT.wav	1	23	blb_dichoticlistening_ka-pa.mp3	ka	pa	1	left
6.6.1	win	2023-07-07	09:23:55	09:40:19	980287	6303c0bf11a5be642b52830e	2	1	main_z	24	main_z	137	stimuli_target_squarediamonds.svg	stimuli_distractor_diamondtriangles.svg	8	yes	44	1	372	6	1	antiphase_hc_iso.wav	2	6	2	noise_calib_stim_LEFT.wav	1	23	blb_dichoticlistening_ka-pa.mp3	ka	pa	1	left
6.6.1	win	2023-07-07	09:23:55	09:40:19	980287	6303c0bf11a5be642b52830e	2	1	main_z	24	advance_on_keypress_ZEE	138	stimuli_target_squarediamonds.svg	stimuli_distractor_diamondtriangles.svg	8	yes	57	0	676	6	1	antiphase_hc_iso.wav	2	6	2	noise_calib_stim_LEFT.wav	1	23	blb_dichoticlistening_ka-pa.mp3	ka	pa	1	left
6.6.1	win	2023-07-07	09:23:55	09:40:21	982022	6303c0bf11a5be642b52830e	2	1	main_z	24	main_z	139	stimuli_target_trianglerectangles.svg	stimuli_distractor_diamondtriangles.svg	21	yes	44	1	416	6	1	antiphase_hc_iso.wav	2	6	2	noise_calib_stim_LEFT.wav	1	23	blb_dichoticlistening_ka-pa.mp3	ka	pa	1	left
6.6.1	win	2023-07-07	09:23:55	09:40:21	982022	6303c0bf11a5be642b52830e	2	1	main_z	24	advance_on_keypress_ZEE	140	stimuli_target_trianglerectangles.svg	stimuli_distractor_diamondtriangles.svg	21	yes	57	0	607	6	1	antiphase_hc_iso.wav	2	6	2	noise_calib_stim_LEFT.wav	1	23	blb_dichoticlistening_ka-pa.mp3	ka	pa	1	left
6.6.1	win	2023-07-07	09:23:55	09:40:23	983718	6303c0bf11a5be642b52830e	2	1	main_z	24	main_z	141	stimuli_distractor_trianglediamonds.svg	stimuli_target_squarediamonds.svg	12	yes	44	1	445	6	1	antiphase_hc_iso.wav	2	6	2	noise_calib_stim_LEFT.wav	1	23	blb_dichoticlistening_ka-pa.mp3	ka	pa	1	left
6.6.1	win	2023-07-07	09:23:55	09:40:23	983718	6303c0bf11a5be642b52830e	2	1	main_z	24	advance_on_keypress_ZEE	142	stimuli_distractor_trianglediamonds.svg	stimuli_target_squarediamonds.svg	12	yes	57	0	603	6	1	antiphase_hc_iso.wav	2	6	2	noise_calib_stim_LEFT.wav	1	23	blb_dichoticlistening_ka-pa.mp3	ka	pa	1	left
6.6.1	win	2023-07-07	09:23:55	09:40:24	985318	6303c0bf11a5be642b52830e	2	1	main_z	24	main_z	143	stimuli_distractor_diamondtriangles.svg	stimuli_target_squaretriangles.svg	15	yes	44	1	362	6	1	antiphase_hc_iso.wav	2	6	2	noise_calib_stim_LEFT.wav	1	23	blb_dichoticlistening_ka-pa.mp3	ka	pa	1	left
6.6.1	win	2023-07-07	09:23:55	09:40:24	985318	6303c0bf11a5be642b52830e	2	1	main_z	24	advance_on_keypress_ZEE	144	stimuli_distractor_diamondtriangles.svg	stimuli_target_squaretriangles.svg	15	yes	57	0	1019	6	1	antiphase_hc_iso.wav	2	6	2	noise_calib_stim_LEFT.wav	1	23	blb_dichoticlistening_ka-pa.mp3	ka	pa	1	left
6.6.1	win	2023-07-07	09:23:55	09:40:27	987598	6303c0bf11a5be642b52830e	2	1	main_z	24	main_z	145	stimuli_distractor_trianglediamonds.svg	stimuli_target_diamondsquares.svg	28	yes	44	1	625	6	1	antiphase_hc_iso.wav	2	6	2	noise_calib_stim_LEFT.wav	1	23	blb_dichoticlistening_ka-pa.mp3	ka	pa	1	left
6.6.1	win	2023-07-07	09:23:55	09:40:27	987598	6303c0bf11a5be642b52830e	2	1	main_z	24	advance_on_keypress_ZEE	146	stimuli_distractor_trianglediamonds.svg	stimuli_target_diamondsquares.svg	28	yes	57	0	792	6	1	antiphase_hc_iso.wav	2	6	2	noise_calib_stim_LEFT.wav	1	23	blb_dichoticlistening_ka-pa.mp3	ka	pa	1	left
6.6.1	win	2023-07-07	09:23:55	09:40:29	989454	6303c0bf11a5be642b52830e	2	1	main_z	24	main_z	147	stimuli_distractor_diamondtriangles.svg	stimuli_distractor_diamondtriangles.svg	40	no	44	0	431	6	1	antiphase_hc_iso.wav	2	6	2	noise_calib_stim_LEFT.wav	1	23	blb_dichoticlistening_ka-pa.mp3	ka	pa	1	left
6.6.1	win	2023-07-07	09:23:55	09:40:29	989454	6303c0bf11a5be642b52830e	2	1	main_z	24	advance_on_keypress_ZEE	148	stimuli_distractor_diamondtriangles.svg	stimuli_distractor_diamondtriangles.svg	40	no	57	0	1661	6	1	antiphase_hc_iso.wav	2	6	2	noise_calib_stim_LEFT.wav	1	23	blb_dichoticlistening_ka-pa.mp3	ka	pa	1	left
6.6.1	win	2023-07-07	09:23:55	09:40:31	992222	6303c0bf11a5be642b52830e	2	1	main_z	24	main_z	149	stimuli_distractor_diamondtriangles.svg	stimuli_target_squarediamonds.svg	16	yes	44	1	466	6	1	antiphase_hc_iso.wav	2	6	2	noise_calib_stim_LEFT.wav	1	23	blb_dichoticlistening_ka-pa.mp3	ka	pa	1	left
6.6.1	win	2023-07-07	09:23:55	09:40:31	992222	6303c0bf11a5be642b52830e	2	1	main_z	24	advance_on_keypress_ZEE	150	stimuli_distractor_diamondtriangles.svg	stimuli_target_squarediamonds.svg	16	yes	57	0	823	6	1	antiphase_hc_iso.wav	2	6	2	noise_calib_stim_LEFT.wav	1	23	blb_dichoticlistening_ka-pa.mp3	ka	pa	1	left
6.6.1	win	2023-07-07	09:23:55	09:40:33	994204	6303c0bf11a5be642b52830e	2	1	main_z	24	main_z	151	stimuli_target_trianglerectangles.svg	stimuli_distractor_trianglediamonds.svg	17	yes	44	1	509	6	1	antiphase_hc_iso.wav	2	6	2	noise_calib_stim_LEFT.wav	1	23	blb_dichoticlistening_ka-pa.mp3	ka	pa	1	left
6.6.1	win	2023-07-07	09:23:55	09:40:33	994204	6303c0bf11a5be642b52830e	2	1	main_z	24	advance_on_keypress_ZEE	152	stimuli_target_trianglerectangles.svg	stimuli_distractor_trianglediamonds.svg	17	yes	57	0	680	6	1	antiphase_hc_iso.wav	2	6	2	noise_calib_stim_LEFT.wav	1	23	blb_dichoticlistening_ka-pa.mp3	ka	pa	1	left
6.6.1	win	2023-07-07	09:23:55	09:40:35	995958	6303c0bf11a5be642b52830e	2	1	main_z	24	main_z	153	stimuli_target_rectangletriangles.svg	stimuli_distractor_trianglediamonds.svg	1	yes	44	1	419	6	1	antiphase_hc_iso.wav	2	6	2	noise_calib_stim_LEFT.wav	1	23	blb_dichoticlistening_ka-pa.mp3	ka	pa	1	left
6.6.1	win	2023-07-07	09:23:55	09:40:35	995958	6303c0bf11a5be642b52830e	2	1	main_z	24	advance_on_keypress_ZEE	154	stimuli_target_rectangletriangles.svg	stimuli_distractor_trianglediamonds.svg	1	yes	57	0	1066	6	1	antiphase_hc_iso.wav	2	6	2	noise_calib_stim_LEFT.wav	1	23	blb_dichoticlistening_ka-pa.mp3	ka	pa	1	left
6.6.1	win	2023-07-07	09:23:55	09:40:37	998187	6303c0bf11a5be642b52830e	2	1	main_z	24	main_z	155	stimuli_distractor_trianglediamonds.svg	stimuli_distractor_diamondtriangles.svg	35	no	44	0	510	6	1	antiphase_hc_iso.wav	2	6	2	noise_calib_stim_LEFT.wav	1	23	blb_dichoticlistening_ka-pa.mp3	ka	pa	1	left
6.6.1	win	2023-07-07	09:23:55	09:40:37	998187	6303c0bf11a5be642b52830e	2	1	main_z	24	advance_on_keypress_ZEE	156	stimuli_distractor_trianglediamonds.svg	stimuli_distractor_diamondtriangles.svg	35	no	57	0	904	6	1	antiphase_hc_iso.wav	2	6	2	noise_calib_stim_LEFT.wav	1	23	blb_dichoticlistening_ka-pa.mp3	ka	pa	1	left
6.6.1	win	2023-07-07	09:23:55	09:40:39	1000102	6303c0bf11a5be642b52830e	2	1	main_z	24	main_z	157	stimuli_distractor_diamondtriangles.svg	stimuli_target_rectanglediamonds.svg	14	yes	44	1	363	6	1	antiphase_hc_iso.wav	2	6	2	noise_calib_stim_LEFT.wav	1	23	blb_dichoticlistening_ka-pa.mp3	ka	pa	1	left
6.6.1	win	2023-07-07	09:23:55	09:40:39	1000102	6303c0bf11a5be642b52830e	2	1	main_z	24	advance_on_keypress_ZEE	158	stimuli_distractor_diamondtriangles.svg	stimuli_target_rectanglediamonds.svg	14	yes	57	0	852	6	1	antiphase_hc_iso.wav	2	6	2	noise_calib_stim_LEFT.wav	1	23	blb_dichoticlistening_ka-pa.mp3	ka	pa	1	left
6.6.1	win	2023-07-07	09:23:55	09:40:41	1002038	6303c0bf11a5be642b52830e	2	1	main_z	24	main_z	159	stimuli_target_rectanglediamonds.svg	stimuli_distractor_diamondtriangles.svg	6	yes	44	1	432	6	1	antiphase_hc_iso.wav	2	6	2	noise_calib_stim_LEFT.wav	1	23	blb_dichoticlistening_ka-pa.mp3	ka	pa	1	left
6.6.1	win	2023-07-07	09:23:55	09:40:41	1002038	6303c0bf11a5be642b52830e	2	1	main_z	24	advance_on_keypress_ZEE	160	stimuli_target_rectanglediamonds.svg	stimuli_distractor_diamondtriangles.svg	6	yes	57	0	710	6	1	antiphase_hc_iso.wav	2	6	2	noise_calib_stim_LEFT.wav	1	23	blb_dichoticlistening_ka-pa.mp3	ka	pa	1	left
6.6.1	win	2023-07-07	09:23:55	09:41:46	1066798	6303c0bf11a5be642b52830e	2	1	practice_slash	26	practice_slash	1	stimuli_distractor_trianglediamonds.svg	stimuli_distractor_diamondtriangles.svg	16	no	53	0	1326	6	1	antiphase_hc_iso.wav	2	6	2	noise_calib_stim_LEFT.wav	1	23	blb_dichoticlistening_ka-pa.mp3	ka	pa	1	left
6.6.1	win	2023-07-07	09:23:55	09:41:46	1066798	6303c0bf11a5be642b52830e	2	1	practice_slash	26	advance_on_keypress_SLASH	2	stimuli_distractor_trianglediamonds.svg	stimuli_distractor_diamondtriangles.svg	16	no	57	0	1592	6	1	antiphase_hc_iso.wav	2	6	2	noise_calib_stim_LEFT.wav	1	23	blb_dichoticlistening_ka-pa.mp3	ka	pa	1	left
6.6.1	win	2023-07-07	09:23:55	09:41:49	1070384	6303c0bf11a5be642b52830e	2	1	practice_slash	26	practice_slash	3	stimuli_target_rectanglediamonds.svg	stimuli_distractor_trianglediamonds.svg	4	yes	53	1	343	6	1	antiphase_hc_iso.wav	2	6	2	noise_calib_stim_LEFT.wav	1	23	blb_dichoticlistening_ka-pa.mp3	ka	pa	1	left
6.6.1	win	2023-07-07	09:23:55	09:41:49	1070384	6303c0bf11a5be642b52830e	2	1	practice_slash	26	advance_on_keypress_SLASH	4	stimuli_target_rectanglediamonds.svg	stimuli_distractor_trianglediamonds.svg	4	yes	57	0	777	6	1	antiphase_hc_iso.wav	2	6	2	noise_calib_stim_LEFT.wav	1	23	blb_dichoticlistening_ka-pa.mp3	ka	pa	1	left
6.6.1	win	2023-07-07	09:23:55	09:41:52	1073287	6303c0bf11a5be642b52830e	2	1	practice_slash	26	practice_slash	5	stimuli_distractor_trianglediamonds.svg	stimuli_target_rectanglediamonds.svg	10	yes	53	1	481	6	1	antiphase_hc_iso.wav	2	6	2	noise_calib_stim_LEFT.wav	1	23	blb_dichoticlistening_ka-pa.mp3	ka	pa	1	left
6.6.1	win	2023-07-07	09:23:55	09:41:52	1073287	6303c0bf11a5be642b52830e	2	1	practice_slash	26	advance_on_keypress_SLASH	6	stimuli_distractor_trianglediamonds.svg	stimuli_target_rectanglediamonds.svg	10	yes	57	0	541	6	1	antiphase_hc_iso.wav	2	6	2	noise_calib_stim_LEFT.wav	1	23	blb_dichoticlistening_ka-pa.mp3	ka	pa	1	left
6.6.1	win	2023-07-07	09:23:55	09:41:57	1077473	6303c0bf11a5be642b52830e	2	1	practice_slash	26	practice_slash	7	stimuli_distractor_diamondtriangles.svg	stimuli_distractor_diamondtriangles.svg	13	no	0	1	2000	6	1	antiphase_hc_iso.wav	2	6	2	noise_calib_stim_LEFT.wav	1	23	blb_dichoticlistening_ka-pa.mp3	ka	pa	1	left
6.6.1	win	2023-07-07	09:23:55	09:41:57	1077473	6303c0bf11a5be642b52830e	2	1	practice_slash	26	advance_on_keypress_SLASH	8	stimuli_distractor_diamondtriangles.svg	stimuli_distractor_diamondtriangles.svg	13	no	57	0	517	6	1	antiphase_hc_iso.wav	2	6	2	noise_calib_stim_LEFT.wav	1	23	blb_dichoticlistening_ka-pa.mp3	ka	pa	1	left
6.6.1	win	2023-07-07	09:23:55	09:41:59	1079984	6303c0bf11a5be642b52830e	2	1	practice_slash	26	practice_slash	9	stimuli_target_squarediamonds.svg	stimuli_distractor_trianglediamonds.svg	5	yes	53	1	343	6	1	antiphase_hc_iso.wav	2	6	2	noise_calib_stim_LEFT.wav	1	23	blb_dichoticlistening_ka-pa.mp3	ka	pa	1	left
6.6.1	win	2023-07-07	09:23:55	09:41:59	1079984	6303c0bf11a5be642b52830e	2	1	practice_slash	26	advance_on_keypress_SLASH	10	stimuli_target_squarediamonds.svg	stimuli_distractor_trianglediamonds.svg	5	yes	57	0	738	6	1	antiphase_hc_iso.wav	2	6	2	noise_calib_stim_LEFT.wav	1	23	blb_dichoticlistening_ka-pa.mp3	ka	pa	1	left
6.6.1	win	2023-07-07	09:23:55	09:42:02	1082792	6303c0bf11a5be642b52830e	2	1	practice_slash	26	practice_slash	11	stimuli_target_diamondsquares.svg	stimuli_distractor_trianglediamonds.svg	6	yes	53	1	418	6	1	antiphase_hc_iso.wav	2	6	2	noise_calib_stim_LEFT.wav	1	23	blb_dichoticlistening_ka-pa.mp3	ka	pa	1	left
6.6.1	win	2023-07-07	09:23:55	09:42:02	1082792	6303c0bf11a5be642b52830e	2	1	practice_slash	26	advance_on_keypress_SLASH	12	stimuli_target_diamondsquares.svg	stimuli_distractor_trianglediamonds.svg	6	yes	57	0	481	6	1	antiphase_hc_iso.wav	2	6	2	noise_calib_stim_LEFT.wav	1	23	blb_dichoticlistening_ka-pa.mp3	ka	pa	1	left
6.6.1	win	2023-07-07	09:23:55	09:42:04	1085336	6303c0bf11a5be642b52830e	2	1	practice_slash	26	practice_slash	13	stimuli_distractor_diamondtriangles.svg	stimuli_distractor_trianglediamonds.svg	14	no	53	0	412	6	1	antiphase_hc_iso.wav	2	6	2	noise_calib_stim_LEFT.wav	1	23	blb_dichoticlistening_ka-pa.mp3	ka	pa	1	left
6.6.1	win	2023-07-07	09:23:55	09:42:04	1085336	6303c0bf11a5be642b52830e	2	1	practice_slash	26	advance_on_keypress_SLASH	14	stimuli_distractor_diamondtriangles.svg	stimuli_distractor_trianglediamonds.svg	14	no	57	0	651	6	1	antiphase_hc_iso.wav	2	6	2	noise_calib_stim_LEFT.wav	1	23	blb_dichoticlistening_ka-pa.mp3	ka	pa	1	left
6.6.1	win	2023-07-07	09:23:55	09:42:07	1087959	6303c0bf11a5be642b52830e	2	1	practice_slash	26	practice_slash	15	stimuli_target_rectanglediamonds.svg	stimuli_distractor_diamondtriangles.svg	1	yes	53	1	320	6	1	antiphase_hc_iso.wav	2	6	2	noise_calib_stim_LEFT.wav	1	23	blb_dichoticlistening_ka-pa.mp3	ka	pa	1	left
6.6.1	win	2023-07-07	09:23:55	09:42:07	1087959	6303c0bf11a5be642b52830e	2	1	practice_slash	26	advance_on_keypress_SLASH	16	stimuli_target_rectanglediamonds.svg	stimuli_distractor_diamondtriangles.svg	1	yes	57	0	634	6	1	antiphase_hc_iso.wav	2	6	2	noise_calib_stim_LEFT.wav	1	23	blb_dichoticlistening_ka-pa.mp3	ka	pa	1	left
6.6.1	win	2023-07-07	09:23:55	09:42:10	1090727	6303c0bf11a5be642b52830e	2	1	practice_slash	26	practice_slash	17	stimuli_distractor_diamondtriangles.svg	stimuli_target_rectangletriangles.svg	7	yes	53	1	488	6	1	antiphase_hc_iso.wav	2	6	2	noise_calib_stim_LEFT.wav	1	23	blb_dichoticlistening_ka-pa.mp3	ka	pa	1	left
6.6.1	win	2023-07-07	09:23:55	09:42:10	1090727	6303c0bf11a5be642b52830e	2	1	practice_slash	26	advance_on_keypress_SLASH	18	stimuli_distractor_diamondtriangles.svg	stimuli_target_rectangletriangles.svg	7	yes	57	0	660	6	1	antiphase_hc_iso.wav	2	6	2	noise_calib_stim_LEFT.wav	1	23	blb_dichoticlistening_ka-pa.mp3	ka	pa	1	left
6.6.1	win	2023-07-07	09:23:55	09:42:12	1093384	6303c0bf11a5be642b52830e	2	1	practice_slash	26	practice_slash	19	stimuli_distractor_trianglediamonds.svg	stimuli_target_diamondrectangles.svg	12	yes	53	1	360	6	1	antiphase_hc_iso.wav	2	6	2	noise_calib_stim_LEFT.wav	1	23	blb_dichoticlistening_ka-pa.mp3	ka	pa	1	left
6.6.1	win	2023-07-07	09:23:55	09:42:12	1093384	6303c0bf11a5be642b52830e	2	1	practice_slash	26	advance_on_keypress_SLASH	20	stimuli_distractor_trianglediamonds.svg	stimuli_target_diamondrectangles.svg	12	yes	57	0	385	6	1	antiphase_hc_iso.wav	2	6	2	noise_calib_stim_LEFT.wav	1	23	blb_dichoticlistening_ka-pa.mp3	ka	pa	1	left
