build	computer.platform	date	time	timestamp	time_elapsed_ms	subject	group	session	blockcode	blocknum	trialcode	trialnum	stimulus_left	stimulus_right	stim_index	target_present	response	correct	latency	headphonecheck_countTestTrials	headphonecheck_index	headphonecheck_testSound	headphonecheck_correctResponse	stereocheck_countTestTrials	stereocheck_index	stereocheck_testSound	stereocheck_correctResponse	DL_index	DL_soundfile	DL_leftSound	DL_rightSound	DL_dualSound	DL_choice
6.6.1	mac	2023-07-06	22:00:13	22:02:24	126323	601fe0abd9466c54b4ae2edf	4	1	practice_z	5	practice_z	1	stimuli_distractor_trianglediamonds.svg	stimuli_target_squarediamonds.svg	11	yes	44	1	1898	0	0			0	0			1				0	
6.6.1	mac	2023-07-06	22:00:13	22:02:24	126323	601fe0abd9466c54b4ae2edf	4	1	practice_z	5	advance_on_keypress_ZEE	2	stimuli_distractor_trianglediamonds.svg	stimuli_target_squarediamonds.svg	11	yes	57	0	1126	0	0			0	0			1				0	
6.6.1	mac	2023-07-06	22:00:13	22:02:28	130053	601fe0abd9466c54b4ae2edf	4	1	practice_z	5	practice_z	3	stimuli_target_rectanglediamonds.svg	stimuli_distractor_trianglediamonds.svg	4	yes	44	1	949	0	0			0	0			1				0	
6.6.1	mac	2023-07-06	22:00:13	22:02:28	130053	601fe0abd9466c54b4ae2edf	4	1	practice_z	5	advance_on_keypress_ZEE	4	stimuli_target_rectanglediamonds.svg	stimuli_distractor_trianglediamonds.svg	4	yes	57	0	1598	0	0			0	0			1				0	
6.6.1	mac	2023-07-06	22:00:13	22:02:32	134234	601fe0abd9466c54b4ae2edf	4	1	practice_z	5	practice_z	5	stimuli_distractor_trianglediamonds.svg	stimuli_target_rectanglediamonds.svg	10	yes	44	1	951	0	0			0	0			1				0	
6.6.1	mac	2023-07-06	22:00:13	22:02:32	134234	601fe0abd9466c54b4ae2edf	4	1	practice_z	5	advance_on_keypress_ZEE	6	stimuli_distractor_trianglediamonds.svg	stimuli_target_rectanglediamonds.svg	10	yes	57	0	628	0	0			0	0			1				0	
6.6.1	mac	2023-07-06	22:00:13	22:02:35	137509	601fe0abd9466c54b4ae2edf	4	1	practice_z	5	practice_z	7	stimuli_target_rectanglediamonds.svg	stimuli_distractor_diamondtriangles.svg	1	yes	44	1	1002	0	0			0	0			1				0	
6.6.1	mac	2023-07-06	22:00:13	22:02:35	137509	601fe0abd9466c54b4ae2edf	4	1	practice_z	5	advance_on_keypress_ZEE	8	stimuli_target_rectanglediamonds.svg	stimuli_distractor_diamondtriangles.svg	1	yes	57	0	536	0	0			0	0			1				0	
6.6.1	mac	2023-07-06	22:00:13	22:02:39	141679	601fe0abd9466c54b4ae2edf	4	1	practice_z	5	practice_z	9	stimuli_distractor_diamondtriangles.svg	stimuli_distractor_trianglediamonds.svg	14	no	0	1	2000	0	0			0	0			1				0	
6.6.1	mac	2023-07-06	22:00:13	22:02:39	141679	601fe0abd9466c54b4ae2edf	4	1	practice_z	5	advance_on_keypress_ZEE	10	stimuli_distractor_diamondtriangles.svg	stimuli_distractor_trianglediamonds.svg	14	no	57	0	2122	0	0			0	0			1				0	
6.6.1	mac	2023-07-06	22:00:13	22:02:44	145997	601fe0abd9466c54b4ae2edf	4	1	practice_z	5	practice_z	11	stimuli_target_squarediamonds.svg	stimuli_distractor_trianglediamonds.svg	5	yes	44	1	566	0	0			0	0			1				0	
6.6.1	mac	2023-07-06	22:00:13	22:02:44	145997	601fe0abd9466c54b4ae2edf	4	1	practice_z	5	advance_on_keypress_ZEE	12	stimuli_target_squarediamonds.svg	stimuli_distractor_trianglediamonds.svg	5	yes	57	0	1834	0	0			0	0			1				0	
6.6.1	mac	2023-07-06	22:00:13	22:02:48	150590	601fe0abd9466c54b4ae2edf	4	1	practice_z	5	practice_z	13	stimuli_distractor_diamondtriangles.svg	stimuli_target_diamondrectangles.svg	8	yes	44	1	1113	0	0			0	0			1				0	
6.6.1	mac	2023-07-06	22:00:13	22:02:48	150590	601fe0abd9466c54b4ae2edf	4	1	practice_z	5	advance_on_keypress_ZEE	14	stimuli_distractor_diamondtriangles.svg	stimuli_target_diamondrectangles.svg	8	yes	57	0	486	0	0			0	0			1				0	
6.6.1	mac	2023-07-06	22:00:13	22:02:52	154697	601fe0abd9466c54b4ae2edf	4	1	practice_z	5	practice_z	15	stimuli_distractor_trianglediamonds.svg	stimuli_distractor_diamondtriangles.svg	16	no	0	1	2000	0	0			0	0			1				0	
6.6.1	mac	2023-07-06	22:00:13	22:02:52	154697	601fe0abd9466c54b4ae2edf	4	1	practice_z	5	advance_on_keypress_ZEE	16	stimuli_distractor_trianglediamonds.svg	stimuli_distractor_diamondtriangles.svg	16	no	57	0	526	0	0			0	0			1				0	
6.6.1	mac	2023-07-06	22:00:13	22:02:57	158859	601fe0abd9466c54b4ae2edf	4	1	practice_z	5	practice_z	17	stimuli_distractor_trianglediamonds.svg	stimuli_distractor_trianglediamonds.svg	15	no	0	1	2000	0	0			0	0			1				0	
6.6.1	mac	2023-07-06	22:00:13	22:02:57	158859	601fe0abd9466c54b4ae2edf	4	1	practice_z	5	advance_on_keypress_ZEE	18	stimuli_distractor_trianglediamonds.svg	stimuli_distractor_trianglediamonds.svg	15	no	57	0	567	0	0			0	0			1				0	
6.6.1	mac	2023-07-06	22:00:13	22:03:00	162011	601fe0abd9466c54b4ae2edf	4	1	practice_z	5	practice_z	19	stimuli_target_diamondsquares.svg	stimuli_distractor_diamondtriangles.svg	3	yes	44	1	938	0	0			0	0			1				0	
6.6.1	mac	2023-07-06	22:00:13	22:03:00	162011	601fe0abd9466c54b4ae2edf	4	1	practice_z	5	advance_on_keypress_ZEE	20	stimuli_target_diamondsquares.svg	stimuli_distractor_diamondtriangles.svg	3	yes	57	0	149	0	0			0	0			1				0	
6.6.1	mac	2023-07-06	22:00:13	22:03:02	164642	601fe0abd9466c54b4ae2edf	4	1	practice_z	5	practice_z	21	stimuli_distractor_trianglediamonds.svg	stimuli_target_diamondrectangles.svg	12	yes	44	1	843	0	0			0	0			1				0	
6.6.1	mac	2023-07-06	22:00:13	22:03:02	164642	601fe0abd9466c54b4ae2edf	4	1	practice_z	5	advance_on_keypress_ZEE	22	stimuli_distractor_trianglediamonds.svg	stimuli_target_diamondrectangles.svg	12	yes	57	0	381	0	0			0	0			1				0	
6.6.1	mac	2023-07-06	22:00:13	22:03:05	167513	601fe0abd9466c54b4ae2edf	4	1	practice_z	5	practice_z	23	stimuli_distractor_diamondtriangles.svg	stimuli_target_rectangletriangles.svg	7	yes	44	1	857	0	0			0	0			1				0	
6.6.1	mac	2023-07-06	22:00:13	22:03:05	167513	601fe0abd9466c54b4ae2edf	4	1	practice_z	5	advance_on_keypress_ZEE	24	stimuli_distractor_diamondtriangles.svg	stimuli_target_rectangletriangles.svg	7	yes	57	0	32	0	0			0	0			1				0	
6.6.1	mac	2023-07-06	22:00:13	22:03:08	169938	601fe0abd9466c54b4ae2edf	4	1	practice_z	5	practice_z	25	stimuli_target_diamondsquares.svg	stimuli_distractor_trianglediamonds.svg	6	yes	44	1	759	0	0			0	0			1				0	
6.6.1	mac	2023-07-06	22:00:13	22:03:08	169938	601fe0abd9466c54b4ae2edf	4	1	practice_z	5	advance_on_keypress_ZEE	26	stimuli_target_diamondsquares.svg	stimuli_distractor_trianglediamonds.svg	6	yes	57	0	2132	0	0			0	0			1				0	
6.6.1	mac	2023-07-06	22:00:13	22:03:13	175704	601fe0abd9466c54b4ae2edf	4	1	practice_z	5	practice_z	27	stimuli_distractor_diamondtriangles.svg	stimuli_distractor_diamondtriangles.svg	13	no	0	1	2000	0	0			0	0			1				0	
6.6.1	mac	2023-07-06	22:00:13	22:03:13	175704	601fe0abd9466c54b4ae2edf	4	1	practice_z	5	advance_on_keypress_ZEE	28	stimuli_distractor_diamondtriangles.svg	stimuli_distractor_diamondtriangles.svg	13	no	57	0	1946	0	0			0	0			1				0	
6.6.1	mac	2023-07-06	22:00:13	22:03:18	180193	601fe0abd9466c54b4ae2edf	4	1	practice_z	5	practice_z	29	stimuli_distractor_diamondtriangles.svg	stimuli_target_trianglerectangles.svg	9	yes	44	1	905	0	0			0	0			1				0	
6.6.1	mac	2023-07-06	22:00:13	22:03:18	180193	601fe0abd9466c54b4ae2edf	4	1	practice_z	5	advance_on_keypress_ZEE	30	stimuli_distractor_diamondtriangles.svg	stimuli_target_trianglerectangles.svg	9	yes	57	0	2221	0	0			0	0			1				0	
6.6.1	mac	2023-07-06	22:00:13	22:03:22	184539	601fe0abd9466c54b4ae2edf	4	1	practice_z	5	practice_z	31	stimuli_target_squarediamonds.svg	stimuli_distractor_diamondtriangles.svg	2	yes	44	1	471	0	0			0	0			1				0	
6.6.1	mac	2023-07-06	22:00:13	22:03:22	184539	601fe0abd9466c54b4ae2edf	4	1	practice_z	5	advance_on_keypress_ZEE	32	stimuli_target_squarediamonds.svg	stimuli_distractor_diamondtriangles.svg	2	yes	57	0	1918	0	0			0	0			1				0	
6.6.1	mac	2023-07-06	22:00:13	22:03:37	199738	601fe0abd9466c54b4ae2edf	4	1	main_z	7	main_z	1	stimuli_distractor_trianglediamonds.svg	stimuli_distractor_diamondtriangles.svg	36	no	0	1	2000	0	0			0	0			1				0	
6.6.1	mac	2023-07-06	22:00:13	22:03:37	199738	601fe0abd9466c54b4ae2edf	4	1	main_z	7	advance_on_keypress_ZEE	2	stimuli_distractor_trianglediamonds.svg	stimuli_distractor_diamondtriangles.svg	36	no	57	0	823	0	0			0	0			1				0	
6.6.1	mac	2023-07-06	22:00:13	22:03:39	201697	601fe0abd9466c54b4ae2edf	4	1	main_z	7	main_z	3	stimuli_target_diamondrectangles.svg	stimuli_distractor_diamondtriangles.svg	23	yes	44	1	498	0	0			0	0			1				0	
6.6.1	mac	2023-07-06	22:00:13	22:03:39	201697	601fe0abd9466c54b4ae2edf	4	1	main_z	7	advance_on_keypress_ZEE	4	stimuli_target_diamondrectangles.svg	stimuli_distractor_diamondtriangles.svg	23	yes	57	0	957	0	0			0	0			1				0	
6.6.1	mac	2023-07-06	22:00:13	22:03:42	203826	601fe0abd9466c54b4ae2edf	4	1	main_z	7	main_z	5	stimuli_target_squaretriangles.svg	stimuli_distractor_diamondtriangles.svg	7	yes	44	1	521	0	0			0	0			1				0	
6.6.1	mac	2023-07-06	22:00:13	22:03:42	203826	601fe0abd9466c54b4ae2edf	4	1	main_z	7	advance_on_keypress_ZEE	6	stimuli_target_squaretriangles.svg	stimuli_distractor_diamondtriangles.svg	7	yes	57	0	894	0	0			0	0			1				0	
6.6.1	mac	2023-07-06	22:00:13	22:03:44	206063	601fe0abd9466c54b4ae2edf	4	1	main_z	7	main_z	7	stimuli_distractor_diamondtriangles.svg	stimuli_target_squarediamonds.svg	16	yes	44	1	719	0	0			0	0			1				0	
6.6.1	mac	2023-07-06	22:00:13	22:03:44	206063	601fe0abd9466c54b4ae2edf	4	1	main_z	7	advance_on_keypress_ZEE	8	stimuli_distractor_diamondtriangles.svg	stimuli_target_squarediamonds.svg	16	yes	57	0	459	0	0			0	0			1				0	
6.6.1	mac	2023-07-06	22:00:13	22:03:46	208177	601fe0abd9466c54b4ae2edf	4	1	main_z	7	main_z	9	stimuli_distractor_diamondtriangles.svg	stimuli_target_rectangletriangles.svg	13	yes	44	1	1028	0	0			0	0			1				0	
6.6.1	mac	2023-07-06	22:00:13	22:03:46	208177	601fe0abd9466c54b4ae2edf	4	1	main_z	7	advance_on_keypress_ZEE	10	stimuli_distractor_diamondtriangles.svg	stimuli_target_rectangletriangles.svg	13	yes	57	0	355	0	0			0	0			1				0	
6.6.1	mac	2023-07-06	22:00:13	22:03:48	209984	601fe0abd9466c54b4ae2edf	4	1	main_z	7	main_z	11	stimuli_distractor_trianglediamonds.svg	stimuli_target_rectangletriangles.svg	9	yes	44	1	829	0	0			0	0			1				0	
6.6.1	mac	2023-07-06	22:00:13	22:03:48	209984	601fe0abd9466c54b4ae2edf	4	1	main_z	7	advance_on_keypress_ZEE	12	stimuli_distractor_trianglediamonds.svg	stimuli_target_rectangletriangles.svg	9	yes	57	0	392	0	0			0	0			1				0	
6.6.1	mac	2023-07-06	22:00:13	22:03:50	212501	601fe0abd9466c54b4ae2edf	4	1	main_z	7	main_z	13	stimuli_distractor_trianglediamonds.svg	stimuli_target_trianglerectangles.svg	25	yes	44	1	1509	0	0			0	0			1				0	
6.6.1	mac	2023-07-06	22:00:13	22:03:50	212501	601fe0abd9466c54b4ae2edf	4	1	main_z	7	advance_on_keypress_ZEE	14	stimuli_distractor_trianglediamonds.svg	stimuli_target_trianglerectangles.svg	25	yes	57	0	378	0	0			0	0			1				0	
6.6.1	mac	2023-07-06	22:00:13	22:03:52	214555	601fe0abd9466c54b4ae2edf	4	1	main_z	7	main_z	15	stimuli_distractor_diamondtriangles.svg	stimuli_target_rectanglediamonds.svg	14	yes	44	1	1041	0	0			0	0			1				0	
6.6.1	mac	2023-07-06	22:00:13	22:03:52	214555	601fe0abd9466c54b4ae2edf	4	1	main_z	7	advance_on_keypress_ZEE	16	stimuli_distractor_diamondtriangles.svg	stimuli_target_rectanglediamonds.svg	14	yes	57	0	457	0	0			0	0			1				0	
6.6.1	mac	2023-07-06	22:00:13	22:03:54	216794	601fe0abd9466c54b4ae2edf	4	1	main_z	7	main_z	17	stimuli_distractor_diamondtriangles.svg	stimuli_target_diamondrectangles.svg	31	yes	44	1	1140	0	0			0	0			1				0	
6.6.1	mac	2023-07-06	22:00:13	22:03:54	216794	601fe0abd9466c54b4ae2edf	4	1	main_z	7	advance_on_keypress_ZEE	18	stimuli_distractor_diamondtriangles.svg	stimuli_target_diamondrectangles.svg	31	yes	57	0	437	0	0			0	0			1				0	
6.6.1	mac	2023-07-06	22:00:13	22:03:57	219193	601fe0abd9466c54b4ae2edf	4	1	main_z	7	main_z	19	stimuli_distractor_diamondtriangles.svg	stimuli_target_diamondsquares.svg	32	yes	44	1	1333	0	0			0	0			1				0	
6.6.1	mac	2023-07-06	22:00:13	22:03:57	219193	601fe0abd9466c54b4ae2edf	4	1	main_z	7	advance_on_keypress_ZEE	20	stimuli_distractor_diamondtriangles.svg	stimuli_target_diamondsquares.svg	32	yes	57	0	998	0	0			0	0			1				0	
6.6.1	mac	2023-07-06	22:00:13	22:03:59	221584	601fe0abd9466c54b4ae2edf	4	1	main_z	7	main_z	21	stimuli_distractor_trianglediamonds.svg	stimuli_target_squarediamonds.svg	12	yes	44	1	750	0	0			0	0			1				0	
6.6.1	mac	2023-07-06	22:00:13	22:03:59	221584	601fe0abd9466c54b4ae2edf	4	1	main_z	7	advance_on_keypress_ZEE	22	stimuli_distractor_trianglediamonds.svg	stimuli_target_squarediamonds.svg	12	yes	57	0	554	0	0			0	0			1				0	
6.6.1	mac	2023-07-06	22:00:13	22:04:01	223462	601fe0abd9466c54b4ae2edf	4	1	main_z	7	main_z	23	stimuli_distractor_trianglediamonds.svg	stimuli_target_squaretriangles.svg	11	yes	44	1	687	0	0			0	0			1				0	
6.6.1	mac	2023-07-06	22:00:13	22:04:01	223462	601fe0abd9466c54b4ae2edf	4	1	main_z	7	advance_on_keypress_ZEE	24	stimuli_distractor_trianglediamonds.svg	stimuli_target_squaretriangles.svg	11	yes	57	0	510	0	0			0	0			1				0	
6.6.1	mac	2023-07-06	22:00:13	22:04:03	225401	601fe0abd9466c54b4ae2edf	4	1	main_z	7	main_z	25	stimuli_distractor_diamondtriangles.svg	stimuli_target_squaretriangles.svg	15	yes	44	1	805	0	0			0	0			1				0	
6.6.1	mac	2023-07-06	22:00:13	22:04:03	225401	601fe0abd9466c54b4ae2edf	4	1	main_z	7	advance_on_keypress_ZEE	26	stimuli_distractor_diamondtriangles.svg	stimuli_target_squaretriangles.svg	15	yes	57	0	789	0	0			0	0			1				0	
6.6.1	mac	2023-07-06	22:00:13	22:04:05	227783	601fe0abd9466c54b4ae2edf	4	1	main_z	7	main_z	27	stimuli_target_rectanglediamonds.svg	stimuli_distractor_trianglediamonds.svg	2	yes	44	1	966	0	0			0	0			1				0	
6.6.1	mac	2023-07-06	22:00:13	22:04:05	227783	601fe0abd9466c54b4ae2edf	4	1	main_z	7	advance_on_keypress_ZEE	28	stimuli_target_rectanglediamonds.svg	stimuli_distractor_trianglediamonds.svg	2	yes	57	0	476	0	0			0	0			1				0	
6.6.1	mac	2023-07-06	22:00:13	22:04:07	229822	601fe0abd9466c54b4ae2edf	4	1	main_z	7	main_z	29	stimuli_target_rectangletriangles.svg	stimuli_distractor_diamondtriangles.svg	5	yes	44	1	932	0	0			0	0			1				0	
6.6.1	mac	2023-07-06	22:00:13	22:04:07	229822	601fe0abd9466c54b4ae2edf	4	1	main_z	7	advance_on_keypress_ZEE	30	stimuli_target_rectangletriangles.svg	stimuli_distractor_diamondtriangles.svg	5	yes	57	0	412	0	0			0	0			1				0	
6.6.1	mac	2023-07-06	22:00:13	22:04:10	232301	601fe0abd9466c54b4ae2edf	4	1	main_z	7	main_z	31	stimuli_target_squaretriangles.svg	stimuli_distractor_trianglediamonds.svg	3	yes	44	1	1423	0	0			0	0			1				0	
6.6.1	mac	2023-07-06	22:00:13	22:04:10	232301	601fe0abd9466c54b4ae2edf	4	1	main_z	7	advance_on_keypress_ZEE	32	stimuli_target_squaretriangles.svg	stimuli_distractor_trianglediamonds.svg	3	yes	57	0	1379	0	0			0	0			1				0	
6.6.1	mac	2023-07-06	22:00:13	22:04:13	235778	601fe0abd9466c54b4ae2edf	4	1	main_z	7	main_z	33	stimuli_target_trianglerectangles.svg	stimuli_distractor_trianglediamonds.svg	17	yes	44	1	1474	0	0			0	0			1				0	
6.6.1	mac	2023-07-06	22:00:13	22:04:13	235778	601fe0abd9466c54b4ae2edf	4	1	main_z	7	advance_on_keypress_ZEE	34	stimuli_target_trianglerectangles.svg	stimuli_distractor_trianglediamonds.svg	17	yes	57	0	355	0	0			0	0			1				0	
6.6.1	mac	2023-07-06	22:00:13	22:04:16	238758	601fe0abd9466c54b4ae2edf	4	1	main_z	7	main_z	35	stimuli_distractor_trianglediamonds.svg	stimuli_distractor_trianglediamonds.svg	34	no	0	1	2000	0	0			0	0			1				0	
6.6.1	mac	2023-07-06	22:00:13	22:04:16	238758	601fe0abd9466c54b4ae2edf	4	1	main_z	7	advance_on_keypress_ZEE	36	stimuli_distractor_trianglediamonds.svg	stimuli_distractor_trianglediamonds.svg	34	no	57	0	722	0	0			0	0			1				0	
6.6.1	mac	2023-07-06	22:00:13	22:04:19	241099	601fe0abd9466c54b4ae2edf	4	1	main_z	7	main_z	37	stimuli_distractor_diamondtriangles.svg	stimuli_target_trianglesquares.svg	30	yes	44	1	995	0	0			0	0			1				0	
6.6.1	mac	2023-07-06	22:00:13	22:04:19	241099	601fe0abd9466c54b4ae2edf	4	1	main_z	7	advance_on_keypress_ZEE	38	stimuli_distractor_diamondtriangles.svg	stimuli_target_trianglesquares.svg	30	yes	57	0	374	0	0			0	0			1				0	
6.6.1	mac	2023-07-06	22:00:13	22:04:21	243358	601fe0abd9466c54b4ae2edf	4	1	main_z	7	main_z	39	stimuli_target_trianglerectangles.svg	stimuli_distractor_diamondtriangles.svg	21	yes	44	1	1265	0	0			0	0			1				0	
6.6.1	mac	2023-07-06	22:00:13	22:04:21	243358	601fe0abd9466c54b4ae2edf	4	1	main_z	7	advance_on_keypress_ZEE	40	stimuli_target_trianglerectangles.svg	stimuli_distractor_diamondtriangles.svg	21	yes	57	0	359	0	0			0	0			1				0	
6.6.1	mac	2023-07-06	22:00:13	22:04:23	245537	601fe0abd9466c54b4ae2edf	4	1	main_z	7	main_z	41	stimuli_target_trianglesquares.svg	stimuli_distractor_diamondtriangles.svg	22	yes	44	1	1189	0	0			0	0			1				0	
6.6.1	mac	2023-07-06	22:00:13	22:04:23	245537	601fe0abd9466c54b4ae2edf	4	1	main_z	7	advance_on_keypress_ZEE	42	stimuli_target_trianglesquares.svg	stimuli_distractor_diamondtriangles.svg	22	yes	57	0	396	0	0			0	0			1				0	
6.6.1	mac	2023-07-06	22:00:13	22:04:25	247459	601fe0abd9466c54b4ae2edf	4	1	main_z	7	main_z	43	stimuli_target_diamondsquares.svg	stimuli_distractor_trianglediamonds.svg	20	yes	44	1	888	0	0			0	0			1				0	
6.6.1	mac	2023-07-06	22:00:13	22:04:25	247459	601fe0abd9466c54b4ae2edf	4	1	main_z	7	advance_on_keypress_ZEE	44	stimuli_target_diamondsquares.svg	stimuli_distractor_trianglediamonds.svg	20	yes	57	0	340	0	0			0	0			1				0	
6.6.1	mac	2023-07-06	22:00:13	22:04:28	250423	601fe0abd9466c54b4ae2edf	4	1	main_z	7	main_z	45	stimuli_distractor_diamondtriangles.svg	stimuli_distractor_trianglediamonds.svg	37	no	0	1	2000	0	0			0	0			1				0	
6.6.1	mac	2023-07-06	22:00:13	22:04:28	250423	601fe0abd9466c54b4ae2edf	4	1	main_z	7	advance_on_keypress_ZEE	46	stimuli_distractor_diamondtriangles.svg	stimuli_distractor_trianglediamonds.svg	37	no	57	0	851	0	0			0	0			1				0	
6.6.1	mac	2023-07-06	22:00:13	22:04:30	252793	601fe0abd9466c54b4ae2edf	4	1	main_z	7	main_z	47	stimuli_target_rectangletriangles.svg	stimuli_distractor_trianglediamonds.svg	1	yes	44	1	892	0	0			0	0			1				0	
6.6.1	mac	2023-07-06	22:00:13	22:04:30	252793	601fe0abd9466c54b4ae2edf	4	1	main_z	7	advance_on_keypress_ZEE	48	stimuli_target_rectangletriangles.svg	stimuli_distractor_trianglediamonds.svg	1	yes	57	0	487	0	0			0	0			1				0	
6.6.1	mac	2023-07-06	22:00:13	22:04:33	255467	601fe0abd9466c54b4ae2edf	4	1	main_z	7	main_z	49	stimuli_target_squarediamonds.svg	stimuli_distractor_trianglediamonds.svg	4	yes	44	1	1561	0	0			0	0			1				0	
6.6.1	mac	2023-07-06	22:00:13	22:04:33	255467	601fe0abd9466c54b4ae2edf	4	1	main_z	7	advance_on_keypress_ZEE	50	stimuli_target_squarediamonds.svg	stimuli_distractor_trianglediamonds.svg	4	yes	57	0	559	0	0			0	0			1				0	
6.6.1	mac	2023-07-06	22:00:13	22:04:36	258644	601fe0abd9466c54b4ae2edf	4	1	main_z	7	main_z	51	stimuli_distractor_diamondtriangles.svg	stimuli_distractor_trianglediamonds.svg	38	no	0	1	2000	0	0			0	0			1				0	
6.6.1	mac	2023-07-06	22:00:13	22:04:36	258644	601fe0abd9466c54b4ae2edf	4	1	main_z	7	advance_on_keypress_ZEE	52	stimuli_distractor_diamondtriangles.svg	stimuli_distractor_trianglediamonds.svg	38	no	57	0	893	0	0			0	0			1				0	
6.6.1	mac	2023-07-06	22:00:13	22:04:39	260874	601fe0abd9466c54b4ae2edf	4	1	main_z	7	main_z	53	stimuli_distractor_trianglediamonds.svg	stimuli_target_diamondrectangles.svg	27	yes	44	1	700	0	0			0	0			1				0	
6.6.1	mac	2023-07-06	22:00:13	22:04:39	260874	601fe0abd9466c54b4ae2edf	4	1	main_z	7	advance_on_keypress_ZEE	54	stimuli_distractor_trianglediamonds.svg	stimuli_target_diamondrectangles.svg	27	yes	57	0	366	0	0			0	0			1				0	
6.6.1	mac	2023-07-06	22:00:13	22:04:40	262733	601fe0abd9466c54b4ae2edf	4	1	main_z	7	main_z	55	stimuli_distractor_trianglediamonds.svg	stimuli_target_diamondsquares.svg	28	yes	44	1	853	0	0			0	0			1				0	
6.6.1	mac	2023-07-06	22:00:13	22:04:40	262733	601fe0abd9466c54b4ae2edf	4	1	main_z	7	advance_on_keypress_ZEE	56	stimuli_distractor_trianglediamonds.svg	stimuli_target_diamondsquares.svg	28	yes	57	0	370	0	0			0	0			1				0	
6.6.1	mac	2023-07-06	22:00:13	22:04:43	265730	601fe0abd9466c54b4ae2edf	4	1	main_z	7	main_z	57	stimuli_distractor_trianglediamonds.svg	stimuli_distractor_diamondtriangles.svg	35	no	0	1	2000	0	0			0	0			1				0	
6.6.1	mac	2023-07-06	22:00:13	22:04:43	265730	601fe0abd9466c54b4ae2edf	4	1	main_z	7	advance_on_keypress_ZEE	58	stimuli_distractor_trianglediamonds.svg	stimuli_distractor_diamondtriangles.svg	35	no	57	0	518	0	0			0	0			1				0	
6.6.1	mac	2023-07-06	22:00:13	22:04:47	268871	601fe0abd9466c54b4ae2edf	4	1	main_z	7	main_z	59	stimuli_distractor_diamondtriangles.svg	stimuli_distractor_diamondtriangles.svg	40	no	0	1	2000	0	0			0	0			1				0	
6.6.1	mac	2023-07-06	22:00:13	22:04:47	268871	601fe0abd9466c54b4ae2edf	4	1	main_z	7	advance_on_keypress_ZEE	60	stimuli_distractor_diamondtriangles.svg	stimuli_distractor_diamondtriangles.svg	40	no	57	0	491	0	0			0	0			1				0	
6.6.1	mac	2023-07-06	22:00:13	22:04:49	271031	601fe0abd9466c54b4ae2edf	4	1	main_z	7	main_z	61	stimuli_target_squarediamonds.svg	stimuli_distractor_diamondtriangles.svg	8	yes	44	1	1048	0	0			0	0			1				0	
6.6.1	mac	2023-07-06	22:00:13	22:04:49	271031	601fe0abd9466c54b4ae2edf	4	1	main_z	7	advance_on_keypress_ZEE	62	stimuli_target_squarediamonds.svg	stimuli_distractor_diamondtriangles.svg	8	yes	57	0	356	0	0			0	0			1				0	
6.6.1	mac	2023-07-06	22:00:13	22:04:52	274019	601fe0abd9466c54b4ae2edf	4	1	main_z	7	main_z	63	stimuli_distractor_trianglediamonds.svg	stimuli_distractor_trianglediamonds.svg	33	no	0	1	2000	0	0			0	0			1				0	
6.6.1	mac	2023-07-06	22:00:13	22:04:52	274019	601fe0abd9466c54b4ae2edf	4	1	main_z	7	advance_on_keypress_ZEE	64	stimuli_distractor_trianglediamonds.svg	stimuli_distractor_trianglediamonds.svg	33	no	57	0	1889	0	0			0	0			1				0	
6.6.1	mac	2023-07-06	22:00:13	22:04:55	277235	601fe0abd9466c54b4ae2edf	4	1	main_z	7	main_z	65	stimuli_distractor_trianglediamonds.svg	stimuli_target_rectanglediamonds.svg	10	yes	44	1	700	0	0			0	0			1				0	
6.6.1	mac	2023-07-06	22:00:13	22:04:55	277235	601fe0abd9466c54b4ae2edf	4	1	main_z	7	advance_on_keypress_ZEE	66	stimuli_distractor_trianglediamonds.svg	stimuli_target_rectanglediamonds.svg	10	yes	57	0	701	0	0			0	0			1				0	
6.6.1	mac	2023-07-06	22:00:13	22:04:58	280570	601fe0abd9466c54b4ae2edf	4	1	main_z	7	main_z	67	stimuli_target_diamondsquares.svg	stimuli_distractor_diamondtriangles.svg	24	yes	0	0	2000	0	0			0	0			1				0	
6.6.1	mac	2023-07-06	22:00:13	22:04:58	280570	601fe0abd9466c54b4ae2edf	4	1	main_z	7	advance_on_keypress_ZEE	68	stimuli_target_diamondsquares.svg	stimuli_distractor_diamondtriangles.svg	24	yes	57	0	1143	0	0			0	0			1				0	
6.6.1	mac	2023-07-06	22:00:13	22:05:01	283190	601fe0abd9466c54b4ae2edf	4	1	main_z	7	main_z	69	stimuli_target_rectanglediamonds.svg	stimuli_distractor_diamondtriangles.svg	6	yes	44	1	840	0	0			0	0			1				0	
6.6.1	mac	2023-07-06	22:00:13	22:05:01	283190	601fe0abd9466c54b4ae2edf	4	1	main_z	7	advance_on_keypress_ZEE	70	stimuli_target_rectanglediamonds.svg	stimuli_distractor_diamondtriangles.svg	6	yes	57	0	2696	0	0			0	0			1				0	
6.6.1	mac	2023-07-06	22:00:13	22:05:05	287426	601fe0abd9466c54b4ae2edf	4	1	main_z	7	main_z	71	stimuli_distractor_trianglediamonds.svg	stimuli_target_trianglesquares.svg	26	yes	44	1	917	0	0			0	0			1				0	
6.6.1	mac	2023-07-06	22:00:13	22:05:05	287426	601fe0abd9466c54b4ae2edf	4	1	main_z	7	advance_on_keypress_ZEE	72	stimuli_distractor_trianglediamonds.svg	stimuli_target_trianglesquares.svg	26	yes	57	0	1898	0	0			0	0			1				0	
6.6.1	mac	2023-07-06	22:00:13	22:05:10	291967	601fe0abd9466c54b4ae2edf	4	1	main_z	7	main_z	73	stimuli_distractor_diamondtriangles.svg	stimuli_distractor_diamondtriangles.svg	39	no	0	1	2000	0	0			0	0			1				0	
6.6.1	mac	2023-07-06	22:00:13	22:05:10	291967	601fe0abd9466c54b4ae2edf	4	1	main_z	7	advance_on_keypress_ZEE	74	stimuli_distractor_diamondtriangles.svg	stimuli_distractor_diamondtriangles.svg	39	no	57	0	1167	0	0			0	0			1				0	
6.6.1	mac	2023-07-06	22:00:13	22:05:12	294352	601fe0abd9466c54b4ae2edf	4	1	main_z	7	main_z	75	stimuli_distractor_diamondtriangles.svg	stimuli_target_trianglerectangles.svg	29	yes	44	1	589	0	0			0	0			1				0	
6.6.1	mac	2023-07-06	22:00:13	22:05:12	294352	601fe0abd9466c54b4ae2edf	4	1	main_z	7	advance_on_keypress_ZEE	76	stimuli_distractor_diamondtriangles.svg	stimuli_target_trianglerectangles.svg	29	yes	57	0	2018	0	0			0	0			1				0	
6.6.1	mac	2023-07-06	22:00:13	22:05:15	297700	601fe0abd9466c54b4ae2edf	4	1	main_z	7	main_z	77	stimuli_target_diamondrectangles.svg	stimuli_distractor_trianglediamonds.svg	19	yes	44	1	696	0	0			0	0			1				0	
6.6.1	mac	2023-07-06	22:00:13	22:05:15	297700	601fe0abd9466c54b4ae2edf	4	1	main_z	7	advance_on_keypress_ZEE	78	stimuli_target_diamondrectangles.svg	stimuli_distractor_trianglediamonds.svg	19	yes	57	0	1255	0	0			0	0			1				0	
6.6.1	mac	2023-07-06	22:00:13	22:05:18	300340	601fe0abd9466c54b4ae2edf	4	1	main_z	7	main_z	79	stimuli_target_trianglesquares.svg	stimuli_distractor_trianglediamonds.svg	18	yes	44	1	761	0	0			0	0			1				0	
6.6.1	mac	2023-07-06	22:00:13	22:05:18	300340	601fe0abd9466c54b4ae2edf	4	1	main_z	7	advance_on_keypress_ZEE	80	stimuli_target_trianglesquares.svg	stimuli_distractor_trianglediamonds.svg	18	yes	57	0	983	0	0			0	0			1				0	
6.6.1	mac	2023-07-06	22:00:13	22:05:20	302346	601fe0abd9466c54b4ae2edf	4	1	main_z	7	main_z	81	stimuli_target_rectanglediamonds.svg	stimuli_distractor_trianglediamonds.svg	2	yes	44	1	393	0	0			0	0			1				0	
6.6.1	mac	2023-07-06	22:00:13	22:05:20	302346	601fe0abd9466c54b4ae2edf	4	1	main_z	7	advance_on_keypress_ZEE	82	stimuli_target_rectanglediamonds.svg	stimuli_distractor_trianglediamonds.svg	2	yes	57	0	1155	0	0			0	0			1				0	
6.6.1	mac	2023-07-06	22:00:13	22:05:24	306137	601fe0abd9466c54b4ae2edf	4	1	main_z	7	main_z	83	stimuli_distractor_diamondtriangles.svg	stimuli_distractor_diamondtriangles.svg	40	no	0	1	2000	0	0			0	0			1				0	
6.6.1	mac	2023-07-06	22:00:13	22:05:24	306137	601fe0abd9466c54b4ae2edf	4	1	main_z	7	advance_on_keypress_ZEE	84	stimuli_distractor_diamondtriangles.svg	stimuli_distractor_diamondtriangles.svg	40	no	57	0	598	0	0			0	0			1				0	
6.6.1	mac	2023-07-06	22:00:13	22:05:25	307741	601fe0abd9466c54b4ae2edf	4	1	main_z	7	main_z	85	stimuli_distractor_diamondtriangles.svg	stimuli_target_squarediamonds.svg	16	yes	44	1	374	0	0			0	0			1				0	
6.6.1	mac	2023-07-06	22:00:13	22:05:25	307741	601fe0abd9466c54b4ae2edf	4	1	main_z	7	advance_on_keypress_ZEE	86	stimuli_distractor_diamondtriangles.svg	stimuli_target_squarediamonds.svg	16	yes	57	0	957	0	0			0	0			1				0	
6.6.1	mac	2023-07-06	22:00:13	22:05:28	310187	601fe0abd9466c54b4ae2edf	4	1	main_z	7	main_z	87	stimuli_distractor_diamondtriangles.svg	stimuli_target_rectangletriangles.svg	13	yes	44	1	866	0	0			0	0			1				0	
6.6.1	mac	2023-07-06	22:00:13	22:05:28	310187	601fe0abd9466c54b4ae2edf	4	1	main_z	7	advance_on_keypress_ZEE	88	stimuli_distractor_diamondtriangles.svg	stimuli_target_rectangletriangles.svg	13	yes	57	0	823	0	0			0	0			1				0	
6.6.1	mac	2023-07-06	22:00:13	22:05:30	312076	601fe0abd9466c54b4ae2edf	4	1	main_z	7	main_z	89	stimuli_distractor_diamondtriangles.svg	stimuli_target_diamondsquares.svg	32	yes	44	1	432	0	0			0	0			1				0	
6.6.1	mac	2023-07-06	22:00:13	22:05:30	312076	601fe0abd9466c54b4ae2edf	4	1	main_z	7	advance_on_keypress_ZEE	90	stimuli_distractor_diamondtriangles.svg	stimuli_target_diamondsquares.svg	32	yes	57	0	895	0	0			0	0			1				0	
6.6.1	mac	2023-07-06	22:00:13	22:05:32	314005	601fe0abd9466c54b4ae2edf	4	1	main_z	7	main_z	91	stimuli_target_diamondsquares.svg	stimuli_distractor_diamondtriangles.svg	24	yes	44	1	389	0	0			0	0			1				0	
6.6.1	mac	2023-07-06	22:00:13	22:05:32	314005	601fe0abd9466c54b4ae2edf	4	1	main_z	7	advance_on_keypress_ZEE	92	stimuli_target_diamondsquares.svg	stimuli_distractor_diamondtriangles.svg	24	yes	57	0	795	0	0			0	0			1				0	
6.6.1	mac	2023-07-06	22:00:13	22:05:33	315731	601fe0abd9466c54b4ae2edf	4	1	main_z	7	main_z	93	stimuli_distractor_trianglediamonds.svg	stimuli_target_squaretriangles.svg	11	yes	44	1	294	0	0			0	0			1				0	
6.6.1	mac	2023-07-06	22:00:13	22:05:33	315731	601fe0abd9466c54b4ae2edf	4	1	main_z	7	advance_on_keypress_ZEE	94	stimuli_distractor_trianglediamonds.svg	stimuli_target_squaretriangles.svg	11	yes	57	0	923	0	0			0	0			1				0	
6.6.1	mac	2023-07-06	22:00:13	22:05:35	317708	601fe0abd9466c54b4ae2edf	4	1	main_z	7	main_z	95	stimuli_target_diamondrectangles.svg	stimuli_distractor_diamondtriangles.svg	23	yes	44	1	431	0	0			0	0			1				0	
6.6.1	mac	2023-07-06	22:00:13	22:05:35	317708	601fe0abd9466c54b4ae2edf	4	1	main_z	7	advance_on_keypress_ZEE	96	stimuli_target_diamondrectangles.svg	stimuli_distractor_diamondtriangles.svg	23	yes	57	0	739	0	0			0	0			1				0	
6.6.1	mac	2023-07-06	22:00:13	22:05:37	319518	601fe0abd9466c54b4ae2edf	4	1	main_z	7	main_z	97	stimuli_distractor_diamondtriangles.svg	stimuli_target_squaretriangles.svg	15	yes	44	1	437	0	0			0	0			1				0	
6.6.1	mac	2023-07-06	22:00:13	22:05:37	319518	601fe0abd9466c54b4ae2edf	4	1	main_z	7	advance_on_keypress_ZEE	98	stimuli_distractor_diamondtriangles.svg	stimuli_target_squaretriangles.svg	15	yes	57	0	1279	0	0			0	0			1				0	
6.6.1	mac	2023-07-06	22:00:13	22:05:41	323417	601fe0abd9466c54b4ae2edf	4	1	main_z	7	main_z	99	stimuli_target_trianglerectangles.svg	stimuli_distractor_trianglediamonds.svg	17	yes	0	0	2000	0	0			0	0			1				0	
6.6.1	mac	2023-07-06	22:00:13	22:05:41	323417	601fe0abd9466c54b4ae2edf	4	1	main_z	7	advance_on_keypress_ZEE	100	stimuli_target_trianglerectangles.svg	stimuli_distractor_trianglediamonds.svg	17	yes	57	0	1163	0	0			0	0			1				0	
6.6.1	mac	2023-07-06	22:00:13	22:05:45	327211	601fe0abd9466c54b4ae2edf	4	1	main_z	7	main_z	101	stimuli_distractor_trianglediamonds.svg	stimuli_distractor_trianglediamonds.svg	34	no	0	1	2000	0	0			0	0			1				0	
6.6.1	mac	2023-07-06	22:00:13	22:05:45	327211	601fe0abd9466c54b4ae2edf	4	1	main_z	7	advance_on_keypress_ZEE	102	stimuli_distractor_trianglediamonds.svg	stimuli_distractor_trianglediamonds.svg	34	no	57	0	486	0	0			0	0			1				0	
6.6.1	mac	2023-07-06	22:00:13	22:05:47	328955	601fe0abd9466c54b4ae2edf	4	1	main_z	7	main_z	103	stimuli_target_rectanglediamonds.svg	stimuli_distractor_diamondtriangles.svg	6	yes	44	1	617	0	0			0	0			1				0	
6.6.1	mac	2023-07-06	22:00:13	22:05:47	328955	601fe0abd9466c54b4ae2edf	4	1	main_z	7	advance_on_keypress_ZEE	104	stimuli_target_rectanglediamonds.svg	stimuli_distractor_diamondtriangles.svg	6	yes	57	0	485	0	0			0	0			1				0	
6.6.1	mac	2023-07-06	22:00:13	22:05:49	330884	601fe0abd9466c54b4ae2edf	4	1	main_z	7	main_z	105	stimuli_target_rectangletriangles.svg	stimuli_distractor_trianglediamonds.svg	1	yes	44	1	808	0	0			0	0			1				0	
6.6.1	mac	2023-07-06	22:00:13	22:05:49	330884	601fe0abd9466c54b4ae2edf	4	1	main_z	7	advance_on_keypress_ZEE	106	stimuli_target_rectangletriangles.svg	stimuli_distractor_trianglediamonds.svg	1	yes	57	0	311	0	0			0	0			1				0	
6.6.1	mac	2023-07-06	22:00:13	22:05:52	333829	601fe0abd9466c54b4ae2edf	4	1	main_z	7	main_z	107	stimuli_distractor_diamondtriangles.svg	stimuli_distractor_diamondtriangles.svg	39	no	0	1	2000	0	0			0	0			1				0	
6.6.1	mac	2023-07-06	22:00:13	22:05:52	333829	601fe0abd9466c54b4ae2edf	4	1	main_z	7	advance_on_keypress_ZEE	108	stimuli_distractor_diamondtriangles.svg	stimuli_distractor_diamondtriangles.svg	39	no	57	0	783	0	0			0	0			1				0	
6.6.1	mac	2023-07-06	22:00:13	22:05:53	335741	601fe0abd9466c54b4ae2edf	4	1	main_z	7	main_z	109	stimuli_distractor_trianglediamonds.svg	stimuli_target_squarediamonds.svg	12	yes	44	1	500	0	0			0	0			1				0	
6.6.1	mac	2023-07-06	22:00:13	22:05:53	335741	601fe0abd9466c54b4ae2edf	4	1	main_z	7	advance_on_keypress_ZEE	110	stimuli_distractor_trianglediamonds.svg	stimuli_target_squarediamonds.svg	12	yes	57	0	300	0	0			0	0			1				0	
6.6.1	mac	2023-07-06	22:00:13	22:05:56	338675	601fe0abd9466c54b4ae2edf	4	1	main_z	7	main_z	111	stimuli_distractor_diamondtriangles.svg	stimuli_distractor_trianglediamonds.svg	38	no	0	1	2000	0	0			0	0			1				0	
6.6.1	mac	2023-07-06	22:00:13	22:05:56	338675	601fe0abd9466c54b4ae2edf	4	1	main_z	7	advance_on_keypress_ZEE	112	stimuli_distractor_diamondtriangles.svg	stimuli_distractor_trianglediamonds.svg	38	no	57	0	750	0	0			0	0			1				0	
6.6.1	mac	2023-07-06	22:00:13	22:05:59	341090	601fe0abd9466c54b4ae2edf	4	1	main_z	7	main_z	113	stimuli_distractor_diamondtriangles.svg	stimuli_target_rectanglediamonds.svg	14	yes	44	1	1019	0	0			0	0			1				0	
6.6.1	mac	2023-07-06	22:00:13	22:05:59	341090	601fe0abd9466c54b4ae2edf	4	1	main_z	7	advance_on_keypress_ZEE	114	stimuli_distractor_diamondtriangles.svg	stimuli_target_rectanglediamonds.svg	14	yes	57	0	683	0	0			0	0			1				0	
6.6.1	mac	2023-07-06	22:00:13	22:06:01	343319	601fe0abd9466c54b4ae2edf	4	1	main_z	7	main_z	115	stimuli_target_trianglesquares.svg	stimuli_distractor_trianglediamonds.svg	18	yes	44	1	909	0	0			0	0			1				0	
6.6.1	mac	2023-07-06	22:00:13	22:06:01	343319	601fe0abd9466c54b4ae2edf	4	1	main_z	7	advance_on_keypress_ZEE	116	stimuli_target_trianglesquares.svg	stimuli_distractor_trianglediamonds.svg	18	yes	57	0	743	0	0			0	0			1				0	
6.6.1	mac	2023-07-06	22:00:13	22:06:03	345357	601fe0abd9466c54b4ae2edf	4	1	main_z	7	main_z	117	stimuli_distractor_trianglediamonds.svg	stimuli_target_rectanglediamonds.svg	10	yes	44	1	675	0	0			0	0			1				0	
6.6.1	mac	2023-07-06	22:00:13	22:06:03	345357	601fe0abd9466c54b4ae2edf	4	1	main_z	7	advance_on_keypress_ZEE	118	stimuli_distractor_trianglediamonds.svg	stimuli_target_rectanglediamonds.svg	10	yes	57	0	394	0	0			0	0			1				0	
6.6.1	mac	2023-07-06	22:00:13	22:06:05	347209	601fe0abd9466c54b4ae2edf	4	1	main_z	7	main_z	119	stimuli_target_squaretriangles.svg	stimuli_distractor_diamondtriangles.svg	7	yes	44	1	822	0	0			0	0			1				0	
6.6.1	mac	2023-07-06	22:00:13	22:06:05	347209	601fe0abd9466c54b4ae2edf	4	1	main_z	7	advance_on_keypress_ZEE	120	stimuli_target_squaretriangles.svg	stimuli_distractor_diamondtriangles.svg	7	yes	57	0	466	0	0			0	0			1				0	
6.6.1	mac	2023-07-06	22:00:13	22:06:07	349216	601fe0abd9466c54b4ae2edf	4	1	main_z	7	main_z	121	stimuli_distractor_trianglediamonds.svg	stimuli_target_diamondsquares.svg	28	yes	44	1	891	0	0			0	0			1				0	
6.6.1	mac	2023-07-06	22:00:13	22:06:07	349216	601fe0abd9466c54b4ae2edf	4	1	main_z	7	advance_on_keypress_ZEE	122	stimuli_distractor_trianglediamonds.svg	stimuli_target_diamondsquares.svg	28	yes	57	0	369	0	0			0	0			1				0	
6.6.1	mac	2023-07-06	22:00:13	22:06:09	351553	601fe0abd9466c54b4ae2edf	4	1	main_z	7	main_z	123	stimuli_target_trianglerectangles.svg	stimuli_distractor_diamondtriangles.svg	21	yes	44	1	1339	0	0			0	0			1				0	
6.6.1	mac	2023-07-06	22:00:13	22:06:09	351553	601fe0abd9466c54b4ae2edf	4	1	main_z	7	advance_on_keypress_ZEE	124	stimuli_target_trianglerectangles.svg	stimuli_distractor_diamondtriangles.svg	21	yes	57	0	502	0	0			0	0			1				0	
6.6.1	mac	2023-07-06	22:00:13	22:06:11	353798	601fe0abd9466c54b4ae2edf	4	1	main_z	7	main_z	125	stimuli_target_rectangletriangles.svg	stimuli_distractor_diamondtriangles.svg	5	yes	44	1	1110	0	0			0	0			1				0	
6.6.1	mac	2023-07-06	22:00:13	22:06:11	353798	601fe0abd9466c54b4ae2edf	4	1	main_z	7	advance_on_keypress_ZEE	126	stimuli_target_rectangletriangles.svg	stimuli_distractor_diamondtriangles.svg	5	yes	57	0	498	0	0			0	0			1				0	
6.6.1	mac	2023-07-06	22:00:13	22:06:15	356941	601fe0abd9466c54b4ae2edf	4	1	main_z	7	main_z	127	stimuli_distractor_trianglediamonds.svg	stimuli_distractor_diamondtriangles.svg	36	no	0	1	2000	0	0			0	0			1				0	
6.6.1	mac	2023-07-06	22:00:13	22:06:15	356941	601fe0abd9466c54b4ae2edf	4	1	main_z	7	advance_on_keypress_ZEE	128	stimuli_distractor_trianglediamonds.svg	stimuli_distractor_diamondtriangles.svg	36	no	57	0	320	0	0			0	0			1				0	
6.6.1	mac	2023-07-06	22:00:13	22:06:16	358688	601fe0abd9466c54b4ae2edf	4	1	main_z	7	main_z	129	stimuli_distractor_diamondtriangles.svg	stimuli_target_trianglerectangles.svg	29	yes	44	1	804	0	0			0	0			1				0	
6.6.1	mac	2023-07-06	22:00:13	22:06:16	358688	601fe0abd9466c54b4ae2edf	4	1	main_z	7	advance_on_keypress_ZEE	130	stimuli_distractor_diamondtriangles.svg	stimuli_target_trianglerectangles.svg	29	yes	57	0	988	0	0			0	0			1				0	
6.6.1	mac	2023-07-06	22:00:13	22:06:20	361866	601fe0abd9466c54b4ae2edf	4	1	main_z	7	main_z	131	stimuli_distractor_trianglediamonds.svg	stimuli_target_rectangletriangles.svg	9	yes	44	1	1559	0	0			0	0			1				0	
6.6.1	mac	2023-07-06	22:00:13	22:06:20	361866	601fe0abd9466c54b4ae2edf	4	1	main_z	7	advance_on_keypress_ZEE	132	stimuli_distractor_trianglediamonds.svg	stimuli_target_rectangletriangles.svg	9	yes	57	0	1577	0	0			0	0			1				0	
6.6.1	mac	2023-07-06	22:00:13	22:06:23	364872	601fe0abd9466c54b4ae2edf	4	1	main_z	7	main_z	133	stimuli_distractor_diamondtriangles.svg	stimuli_target_trianglesquares.svg	30	yes	44	1	805	0	0			0	0			1				0	
6.6.1	mac	2023-07-06	22:00:13	22:06:23	364872	601fe0abd9466c54b4ae2edf	4	1	main_z	7	advance_on_keypress_ZEE	134	stimuli_distractor_diamondtriangles.svg	stimuli_target_trianglesquares.svg	30	yes	57	0	235	0	0			0	0			1				0	
6.6.1	mac	2023-07-06	22:00:13	22:06:25	367736	601fe0abd9466c54b4ae2edf	4	1	main_z	7	main_z	135	stimuli_distractor_diamondtriangles.svg	stimuli_distractor_trianglediamonds.svg	37	no	0	1	2000	0	0			0	0			1				0	
6.6.1	mac	2023-07-06	22:00:13	22:06:25	367736	601fe0abd9466c54b4ae2edf	4	1	main_z	7	advance_on_keypress_ZEE	136	stimuli_distractor_diamondtriangles.svg	stimuli_distractor_trianglediamonds.svg	37	no	57	0	1115	0	0			0	0			1				0	
6.6.1	mac	2023-07-06	22:00:13	22:06:28	370659	601fe0abd9466c54b4ae2edf	4	1	main_z	7	main_z	137	stimuli_distractor_trianglediamonds.svg	stimuli_distractor_diamondtriangles.svg	35	no	44	0	1176	0	0			0	0			1				0	
6.6.1	mac	2023-07-06	22:00:13	22:06:28	370659	601fe0abd9466c54b4ae2edf	4	1	main_z	7	advance_on_keypress_ZEE	138	stimuli_distractor_trianglediamonds.svg	stimuli_distractor_diamondtriangles.svg	35	no	57	0	561	0	0			0	0			1				0	
6.6.1	mac	2023-07-06	22:00:13	22:06:31	372866	601fe0abd9466c54b4ae2edf	4	1	main_z	7	main_z	139	stimuli_distractor_diamondtriangles.svg	stimuli_target_diamondrectangles.svg	31	yes	44	1	1010	0	0			0	0			1				0	
6.6.1	mac	2023-07-06	22:00:13	22:06:31	372866	601fe0abd9466c54b4ae2edf	4	1	main_z	7	advance_on_keypress_ZEE	140	stimuli_distractor_diamondtriangles.svg	stimuli_target_diamondrectangles.svg	31	yes	57	0	378	0	0			0	0			1				0	
6.6.1	mac	2023-07-06	22:00:13	22:06:34	375874	601fe0abd9466c54b4ae2edf	4	1	main_z	7	main_z	141	stimuli_target_squarediamonds.svg	stimuli_distractor_trianglediamonds.svg	4	yes	0	0	2000	0	0			0	0			1				0	
6.6.1	mac	2023-07-06	22:00:13	22:06:34	375874	601fe0abd9466c54b4ae2edf	4	1	main_z	7	advance_on_keypress_ZEE	142	stimuli_target_squarediamonds.svg	stimuli_distractor_trianglediamonds.svg	4	yes	57	0	671	0	0			0	0			1				0	
6.6.1	mac	2023-07-06	22:00:13	22:06:37	379167	601fe0abd9466c54b4ae2edf	4	1	main_z	7	main_z	143	stimuli_distractor_trianglediamonds.svg	stimuli_distractor_trianglediamonds.svg	33	no	0	1	2000	0	0			0	0			1				0	
6.6.1	mac	2023-07-06	22:00:13	22:06:37	379167	601fe0abd9466c54b4ae2edf	4	1	main_z	7	advance_on_keypress_ZEE	144	stimuli_distractor_trianglediamonds.svg	stimuli_distractor_trianglediamonds.svg	33	no	57	0	590	0	0			0	0			1				0	
6.6.1	mac	2023-07-06	22:00:13	22:06:38	380801	601fe0abd9466c54b4ae2edf	4	1	main_z	7	main_z	145	stimuli_target_diamondrectangles.svg	stimuli_distractor_trianglediamonds.svg	19	yes	44	1	423	0	0			0	0			1				0	
6.6.1	mac	2023-07-06	22:00:13	22:06:38	380801	601fe0abd9466c54b4ae2edf	4	1	main_z	7	advance_on_keypress_ZEE	146	stimuli_target_diamondrectangles.svg	stimuli_distractor_trianglediamonds.svg	19	yes	57	0	699	0	0			0	0			1				0	
6.6.1	mac	2023-07-06	22:00:13	22:06:41	382993	601fe0abd9466c54b4ae2edf	4	1	main_z	7	main_z	147	stimuli_distractor_trianglediamonds.svg	stimuli_target_trianglesquares.svg	26	yes	44	1	861	0	0			0	0			1				0	
6.6.1	mac	2023-07-06	22:00:13	22:06:41	382993	601fe0abd9466c54b4ae2edf	4	1	main_z	7	advance_on_keypress_ZEE	148	stimuli_distractor_trianglediamonds.svg	stimuli_target_trianglesquares.svg	26	yes	57	0	424	0	0			0	0			1				0	
6.6.1	mac	2023-07-06	22:00:13	22:06:43	384889	601fe0abd9466c54b4ae2edf	4	1	main_z	7	main_z	149	stimuli_target_squarediamonds.svg	stimuli_distractor_diamondtriangles.svg	8	yes	44	1	850	0	0			0	0			1				0	
6.6.1	mac	2023-07-06	22:00:13	22:06:43	384889	601fe0abd9466c54b4ae2edf	4	1	main_z	7	advance_on_keypress_ZEE	150	stimuli_target_squarediamonds.svg	stimuli_distractor_diamondtriangles.svg	8	yes	57	0	379	0	0			0	0			1				0	
6.6.1	mac	2023-07-06	22:00:13	22:06:44	386496	601fe0abd9466c54b4ae2edf	4	1	main_z	7	main_z	151	stimuli_target_diamondsquares.svg	stimuli_distractor_trianglediamonds.svg	20	yes	44	1	586	0	0			0	0			1				0	
6.6.1	mac	2023-07-06	22:00:13	22:06:44	386496	601fe0abd9466c54b4ae2edf	4	1	main_z	7	advance_on_keypress_ZEE	152	stimuli_target_diamondsquares.svg	stimuli_distractor_trianglediamonds.svg	20	yes	57	0	363	0	0			0	0			1				0	
6.6.1	mac	2023-07-06	22:00:13	22:06:46	388159	601fe0abd9466c54b4ae2edf	4	1	main_z	7	main_z	153	stimuli_distractor_trianglediamonds.svg	stimuli_target_trianglerectangles.svg	25	yes	44	1	661	0	0			0	0			1				0	
6.6.1	mac	2023-07-06	22:00:13	22:06:46	388159	601fe0abd9466c54b4ae2edf	4	1	main_z	7	advance_on_keypress_ZEE	154	stimuli_distractor_trianglediamonds.svg	stimuli_target_trianglerectangles.svg	25	yes	57	0	360	0	0			0	0			1				0	
6.6.1	mac	2023-07-06	22:00:13	22:06:47	389655	601fe0abd9466c54b4ae2edf	4	1	main_z	7	main_z	155	stimuli_target_trianglesquares.svg	stimuli_distractor_diamondtriangles.svg	22	yes	44	1	503	0	0			0	0			1				0	
6.6.1	mac	2023-07-06	22:00:13	22:06:47	389655	601fe0abd9466c54b4ae2edf	4	1	main_z	7	advance_on_keypress_ZEE	156	stimuli_target_trianglesquares.svg	stimuli_distractor_diamondtriangles.svg	22	yes	57	0	293	0	0			0	0			1				0	
6.6.1	mac	2023-07-06	22:00:13	22:06:49	391205	601fe0abd9466c54b4ae2edf	4	1	main_z	7	main_z	157	stimuli_distractor_trianglediamonds.svg	stimuli_target_diamondrectangles.svg	27	yes	44	1	617	0	0			0	0			1				0	
6.6.1	mac	2023-07-06	22:00:13	22:06:49	391205	601fe0abd9466c54b4ae2edf	4	1	main_z	7	advance_on_keypress_ZEE	158	stimuli_distractor_trianglediamonds.svg	stimuli_target_diamondrectangles.svg	27	yes	57	0	302	0	0			0	0			1				0	
6.6.1	mac	2023-07-06	22:00:13	22:06:51	392898	601fe0abd9466c54b4ae2edf	4	1	main_z	7	main_z	159	stimuli_target_squaretriangles.svg	stimuli_distractor_trianglediamonds.svg	3	yes	44	1	755	0	0			0	0			1				0	
6.6.1	mac	2023-07-06	22:00:13	22:06:51	392898	601fe0abd9466c54b4ae2edf	4	1	main_z	7	advance_on_keypress_ZEE	160	stimuli_target_squaretriangles.svg	stimuli_distractor_trianglediamonds.svg	3	yes	57	0	462	0	0			0	0			1				0	
6.6.1	mac	2023-07-06	22:00:13	22:07:16	418407	601fe0abd9466c54b4ae2edf	4	1	practice_slash	9	practice_slash	1	stimuli_target_squarediamonds.svg	stimuli_distractor_trianglediamonds.svg	5	yes	53	1	1166	0	0			0	0			1				0	
6.6.1	mac	2023-07-06	22:00:13	22:07:16	418407	601fe0abd9466c54b4ae2edf	4	1	practice_slash	9	advance_on_keypress_SLASH	2	stimuli_target_squarediamonds.svg	stimuli_distractor_trianglediamonds.svg	5	yes	57	0	485	0	0			0	0			1				0	
6.6.1	mac	2023-07-06	22:00:13	22:07:20	422530	601fe0abd9466c54b4ae2edf	4	1	practice_slash	9	practice_slash	3	stimuli_distractor_diamondtriangles.svg	stimuli_distractor_diamondtriangles.svg	13	no	0	1	2000	0	0			0	0			1				0	
6.6.1	mac	2023-07-06	22:00:13	22:07:20	422530	601fe0abd9466c54b4ae2edf	4	1	practice_slash	9	advance_on_keypress_SLASH	4	stimuli_distractor_diamondtriangles.svg	stimuli_distractor_diamondtriangles.svg	13	no	57	0	415	0	0			0	0			1				0	
6.6.1	mac	2023-07-06	22:00:13	22:07:23	425198	601fe0abd9466c54b4ae2edf	4	1	practice_slash	9	practice_slash	5	stimuli_distractor_trianglediamonds.svg	stimuli_target_rectanglediamonds.svg	10	yes	53	1	621	0	0			0	0			1				0	
6.6.1	mac	2023-07-06	22:00:13	22:07:23	425198	601fe0abd9466c54b4ae2edf	4	1	practice_slash	9	advance_on_keypress_SLASH	6	stimuli_distractor_trianglediamonds.svg	stimuli_target_rectanglediamonds.svg	10	yes	57	0	791	0	0			0	0			1				0	
6.6.1	mac	2023-07-06	22:00:13	22:07:26	428129	601fe0abd9466c54b4ae2edf	4	1	practice_slash	9	practice_slash	7	stimuli_distractor_trianglediamonds.svg	stimuli_target_diamondrectangles.svg	12	yes	53	1	494	0	0			0	0			1				0	
6.6.1	mac	2023-07-06	22:00:13	22:07:26	428129	601fe0abd9466c54b4ae2edf	4	1	practice_slash	9	advance_on_keypress_SLASH	8	stimuli_distractor_trianglediamonds.svg	stimuli_target_diamondrectangles.svg	12	yes	57	0	698	0	0			0	0			1				0	
6.6.1	mac	2023-07-06	22:00:13	22:07:29	431374	601fe0abd9466c54b4ae2edf	4	1	practice_slash	9	practice_slash	9	stimuli_target_diamondsquares.svg	stimuli_distractor_trianglediamonds.svg	6	yes	53	1	915	0	0			0	0			1				0	
6.6.1	mac	2023-07-06	22:00:13	22:07:29	431374	601fe0abd9466c54b4ae2edf	4	1	practice_slash	9	advance_on_keypress_SLASH	10	stimuli_target_diamondsquares.svg	stimuli_distractor_trianglediamonds.svg	6	yes	57	0	1339	0	0			0	0			1				0	
6.6.1	mac	2023-07-06	22:00:13	22:07:33	435029	601fe0abd9466c54b4ae2edf	4	1	practice_slash	9	practice_slash	11	stimuli_target_diamondsquares.svg	stimuli_distractor_diamondtriangles.svg	3	yes	53	1	693	0	0			0	0			1				0	
6.6.1	mac	2023-07-06	22:00:13	22:07:33	435029	601fe0abd9466c54b4ae2edf	4	1	practice_slash	9	advance_on_keypress_SLASH	12	stimuli_target_diamondsquares.svg	stimuli_distractor_diamondtriangles.svg	3	yes	57	0	1021	0	0			0	0			1				0	
6.6.1	mac	2023-07-06	22:00:13	22:07:37	439675	601fe0abd9466c54b4ae2edf	4	1	practice_slash	9	practice_slash	13	stimuli_distractor_trianglediamonds.svg	stimuli_distractor_diamondtriangles.svg	16	no	0	1	2000	0	0			0	0			1				0	
6.6.1	mac	2023-07-06	22:00:13	22:07:37	439675	601fe0abd9466c54b4ae2edf	4	1	practice_slash	9	advance_on_keypress_SLASH	14	stimuli_distractor_trianglediamonds.svg	stimuli_distractor_diamondtriangles.svg	16	no	57	0	890	0	0			0	0			1				0	
6.6.1	mac	2023-07-06	22:00:13	22:07:40	442701	601fe0abd9466c54b4ae2edf	4	1	practice_slash	9	practice_slash	15	stimuli_target_rectanglediamonds.svg	stimuli_distractor_diamondtriangles.svg	1	yes	53	1	485	0	0			0	0			1				0	
6.6.1	mac	2023-07-06	22:00:13	22:07:40	442701	601fe0abd9466c54b4ae2edf	4	1	practice_slash	9	advance_on_keypress_SLASH	16	stimuli_target_rectanglediamonds.svg	stimuli_distractor_diamondtriangles.svg	1	yes	57	0	864	0	0			0	0			1				0	
6.6.1	mac	2023-07-06	22:00:13	22:07:43	445760	601fe0abd9466c54b4ae2edf	4	1	practice_slash	9	practice_slash	17	stimuli_distractor_trianglediamonds.svg	stimuli_target_squarediamonds.svg	11	yes	53	1	544	0	0			0	0			1				0	
6.6.1	mac	2023-07-06	22:00:13	22:07:43	445760	601fe0abd9466c54b4ae2edf	4	1	practice_slash	9	advance_on_keypress_SLASH	18	stimuli_distractor_trianglediamonds.svg	stimuli_target_squarediamonds.svg	11	yes	57	0	622	0	0			0	0			1				0	
6.6.1	mac	2023-07-06	22:00:13	22:07:46	448595	601fe0abd9466c54b4ae2edf	4	1	practice_slash	9	practice_slash	19	stimuli_distractor_diamondtriangles.svg	stimuli_target_diamondrectangles.svg	8	yes	53	1	571	0	0			0	0			1				0	
6.6.1	mac	2023-07-06	22:00:13	22:07:46	448595	601fe0abd9466c54b4ae2edf	4	1	practice_slash	9	advance_on_keypress_SLASH	20	stimuli_distractor_diamondtriangles.svg	stimuli_target_diamondrectangles.svg	8	yes	57	0	555	0	0			0	0			1				0	
6.6.1	mac	2023-07-06	22:00:13	22:07:50	452778	601fe0abd9466c54b4ae2edf	4	1	practice_slash	9	practice_slash	21	stimuli_distractor_trianglediamonds.svg	stimuli_distractor_trianglediamonds.svg	15	no	0	1	2000	0	0			0	0			1				0	
6.6.1	mac	2023-07-06	22:00:13	22:07:50	452778	601fe0abd9466c54b4ae2edf	4	1	practice_slash	9	advance_on_keypress_SLASH	22	stimuli_distractor_trianglediamonds.svg	stimuli_distractor_trianglediamonds.svg	15	no	57	0	1160	0	0			0	0			1				0	
6.6.1	mac	2023-07-06	22:00:13	22:07:54	456229	601fe0abd9466c54b4ae2edf	4	1	practice_slash	9	practice_slash	23	stimuli_target_squarediamonds.svg	stimuli_distractor_diamondtriangles.svg	2	yes	53	1	670	0	0			0	0			1				0	
6.6.1	mac	2023-07-06	22:00:13	22:07:54	456229	601fe0abd9466c54b4ae2edf	4	1	practice_slash	9	advance_on_keypress_SLASH	24	stimuli_target_squarediamonds.svg	stimuli_distractor_diamondtriangles.svg	2	yes	57	0	719	0	0			0	0			1				0	
6.6.1	mac	2023-07-06	22:00:13	22:07:57	459557	601fe0abd9466c54b4ae2edf	4	1	practice_slash	9	practice_slash	25	stimuli_distractor_diamondtriangles.svg	stimuli_target_trianglerectangles.svg	9	yes	53	1	973	0	0			0	0			1				0	
6.6.1	mac	2023-07-06	22:00:13	22:07:57	459557	601fe0abd9466c54b4ae2edf	4	1	practice_slash	9	advance_on_keypress_SLASH	26	stimuli_distractor_diamondtriangles.svg	stimuli_target_trianglerectangles.svg	9	yes	57	0	534	0	0			0	0			1				0	
6.6.1	mac	2023-07-06	22:00:13	22:08:01	463723	601fe0abd9466c54b4ae2edf	4	1	practice_slash	9	practice_slash	27	stimuli_distractor_diamondtriangles.svg	stimuli_distractor_trianglediamonds.svg	14	no	0	1	2000	0	0			0	0			1				0	
6.6.1	mac	2023-07-06	22:00:13	22:08:01	463723	601fe0abd9466c54b4ae2edf	4	1	practice_slash	9	advance_on_keypress_SLASH	28	stimuli_distractor_diamondtriangles.svg	stimuli_distractor_trianglediamonds.svg	14	no	57	0	807	0	0			0	0			1				0	
6.6.1	mac	2023-07-06	22:00:13	22:08:05	466864	601fe0abd9466c54b4ae2edf	4	1	practice_slash	9	practice_slash	29	stimuli_target_rectanglediamonds.svg	stimuli_distractor_trianglediamonds.svg	4	yes	53	1	710	0	0			0	0			1				0	
6.6.1	mac	2023-07-06	22:00:13	22:08:05	466864	601fe0abd9466c54b4ae2edf	4	1	practice_slash	9	advance_on_keypress_SLASH	30	stimuli_target_rectanglediamonds.svg	stimuli_distractor_trianglediamonds.svg	4	yes	57	0	474	0	0			0	0			1				0	
6.6.1	mac	2023-07-06	22:00:13	22:08:07	469394	601fe0abd9466c54b4ae2edf	4	1	practice_slash	9	practice_slash	31	stimuli_distractor_diamondtriangles.svg	stimuli_target_rectangletriangles.svg	7	yes	53	1	415	0	0			0	0			1				0	
6.6.1	mac	2023-07-06	22:00:13	22:08:07	469394	601fe0abd9466c54b4ae2edf	4	1	practice_slash	9	advance_on_keypress_SLASH	32	stimuli_distractor_diamondtriangles.svg	stimuli_target_rectangletriangles.svg	7	yes	57	0	516	0	0			0	0			1				0	
6.6.1	mac	2023-07-06	22:00:13	22:08:13	475056	601fe0abd9466c54b4ae2edf	4	1	main_slash	11	main_slash	1	stimuli_distractor_diamondtriangles.svg	stimuli_target_rectanglediamonds.svg	14	yes	53	1	594	0	0			0	0			1				0	
6.6.1	mac	2023-07-06	22:00:13	22:08:13	475056	601fe0abd9466c54b4ae2edf	4	1	main_slash	11	advance_on_keypress_SLASH	2	stimuli_distractor_diamondtriangles.svg	stimuli_target_rectanglediamonds.svg	14	yes	57	0	683	0	0			0	0			1				0	
6.6.1	mac	2023-07-06	22:00:13	22:08:15	476931	601fe0abd9466c54b4ae2edf	4	1	main_slash	11	main_slash	3	stimuli_distractor_trianglediamonds.svg	stimuli_target_diamondrectangles.svg	27	yes	53	1	564	0	0			0	0			1				0	
6.6.1	mac	2023-07-06	22:00:13	22:08:15	476931	601fe0abd9466c54b4ae2edf	4	1	main_slash	11	advance_on_keypress_SLASH	4	stimuli_distractor_trianglediamonds.svg	stimuli_target_diamondrectangles.svg	27	yes	57	0	395	0	0			0	0			1				0	
6.6.1	mac	2023-07-06	22:00:13	22:08:18	479968	601fe0abd9466c54b4ae2edf	4	1	main_slash	11	main_slash	5	stimuli_distractor_trianglediamonds.svg	stimuli_distractor_trianglediamonds.svg	34	no	0	1	2000	0	0			0	0			1				0	
6.6.1	mac	2023-07-06	22:00:13	22:08:18	479968	601fe0abd9466c54b4ae2edf	4	1	main_slash	11	advance_on_keypress_SLASH	6	stimuli_distractor_trianglediamonds.svg	stimuli_distractor_trianglediamonds.svg	34	no	57	0	523	0	0			0	0			1				0	
6.6.1	mac	2023-07-06	22:00:13	22:08:21	483110	601fe0abd9466c54b4ae2edf	4	1	main_slash	11	main_slash	7	stimuli_distractor_diamondtriangles.svg	stimuli_distractor_trianglediamonds.svg	37	no	0	1	2000	0	0			0	0			1				0	
6.6.1	mac	2023-07-06	22:00:13	22:08:21	483110	601fe0abd9466c54b4ae2edf	4	1	main_slash	11	advance_on_keypress_SLASH	8	stimuli_distractor_diamondtriangles.svg	stimuli_distractor_trianglediamonds.svg	37	no	57	0	436	0	0			0	0			1				0	
6.6.1	mac	2023-07-06	22:00:13	22:08:22	484645	601fe0abd9466c54b4ae2edf	4	1	main_slash	11	main_slash	9	stimuli_target_rectanglediamonds.svg	stimuli_distractor_trianglediamonds.svg	2	yes	53	1	473	0	0			0	0			1				0	
6.6.1	mac	2023-07-06	22:00:13	22:08:22	484645	601fe0abd9466c54b4ae2edf	4	1	main_slash	11	advance_on_keypress_SLASH	10	stimuli_target_rectanglediamonds.svg	stimuli_distractor_trianglediamonds.svg	2	yes	57	0	541	0	0			0	0			1				0	
6.6.1	mac	2023-07-06	22:00:13	22:08:24	486481	601fe0abd9466c54b4ae2edf	4	1	main_slash	11	main_slash	11	stimuli_target_trianglesquares.svg	stimuli_distractor_diamondtriangles.svg	22	yes	53	1	672	0	0			0	0			1				0	
6.6.1	mac	2023-07-06	22:00:13	22:08:24	486481	601fe0abd9466c54b4ae2edf	4	1	main_slash	11	advance_on_keypress_SLASH	12	stimuli_target_trianglesquares.svg	stimuli_distractor_diamondtriangles.svg	22	yes	57	0	695	0	0			0	0			1				0	
6.6.1	mac	2023-07-06	22:00:13	22:08:26	488254	601fe0abd9466c54b4ae2edf	4	1	main_slash	11	main_slash	13	stimuli_target_squarediamonds.svg	stimuli_distractor_trianglediamonds.svg	4	yes	53	1	455	0	0			0	0			1				0	
6.6.1	mac	2023-07-06	22:00:13	22:08:26	488254	601fe0abd9466c54b4ae2edf	4	1	main_slash	11	advance_on_keypress_SLASH	14	stimuli_target_squarediamonds.svg	stimuli_distractor_trianglediamonds.svg	4	yes	57	0	544	0	0			0	0			1				0	
6.6.1	mac	2023-07-06	22:00:13	22:08:27	489808	601fe0abd9466c54b4ae2edf	4	1	main_slash	11	main_slash	15	stimuli_distractor_diamondtriangles.svg	stimuli_target_trianglesquares.svg	30	yes	53	1	385	0	0			0	0			1				0	
6.6.1	mac	2023-07-06	22:00:13	22:08:27	489808	601fe0abd9466c54b4ae2edf	4	1	main_slash	11	advance_on_keypress_SLASH	16	stimuli_distractor_diamondtriangles.svg	stimuli_target_trianglesquares.svg	30	yes	57	0	529	0	0			0	0			1				0	
6.6.1	mac	2023-07-06	22:00:13	22:08:29	491334	601fe0abd9466c54b4ae2edf	4	1	main_slash	11	main_slash	17	stimuli_target_rectangletriangles.svg	stimuli_distractor_trianglediamonds.svg	1	yes	53	1	361	0	0			0	0			1				0	
6.6.1	mac	2023-07-06	22:00:13	22:08:29	491334	601fe0abd9466c54b4ae2edf	4	1	main_slash	11	advance_on_keypress_SLASH	18	stimuli_target_rectangletriangles.svg	stimuli_distractor_trianglediamonds.svg	1	yes	57	0	291	0	0			0	0			1				0	
6.6.1	mac	2023-07-06	22:00:13	22:08:30	492639	601fe0abd9466c54b4ae2edf	4	1	main_slash	11	main_slash	19	stimuli_distractor_trianglediamonds.svg	stimuli_target_squarediamonds.svg	12	yes	53	1	395	0	0			0	0			1				0	
6.6.1	mac	2023-07-06	22:00:13	22:08:30	492639	601fe0abd9466c54b4ae2edf	4	1	main_slash	11	advance_on_keypress_SLASH	20	stimuli_distractor_trianglediamonds.svg	stimuli_target_squarediamonds.svg	12	yes	57	0	441	0	0			0	0			1				0	
6.6.1	mac	2023-07-06	22:00:13	22:08:32	494503	601fe0abd9466c54b4ae2edf	4	1	main_slash	11	main_slash	21	stimuli_distractor_trianglediamonds.svg	stimuli_distractor_diamondtriangles.svg	35	no	53	0	789	0	0			0	0			1				0	
6.6.1	mac	2023-07-06	22:00:13	22:08:32	494503	601fe0abd9466c54b4ae2edf	4	1	main_slash	11	advance_on_keypress_SLASH	22	stimuli_distractor_trianglediamonds.svg	stimuli_distractor_diamondtriangles.svg	35	no	57	0	678	0	0			0	0			1				0	
6.6.1	mac	2023-07-06	22:00:13	22:08:34	496697	601fe0abd9466c54b4ae2edf	4	1	main_slash	11	main_slash	23	stimuli_distractor_diamondtriangles.svg	stimuli_target_trianglerectangles.svg	29	yes	53	1	878	0	0			0	0			1				0	
6.6.1	mac	2023-07-06	22:00:13	22:08:34	496697	601fe0abd9466c54b4ae2edf	4	1	main_slash	11	advance_on_keypress_SLASH	24	stimuli_distractor_diamondtriangles.svg	stimuli_target_trianglerectangles.svg	29	yes	57	0	583	0	0			0	0			1				0	
6.6.1	mac	2023-07-06	22:00:13	22:08:36	498415	601fe0abd9466c54b4ae2edf	4	1	main_slash	11	main_slash	25	stimuli_distractor_diamondtriangles.svg	stimuli_target_diamondrectangles.svg	31	yes	53	1	507	0	0			0	0			1				0	
6.6.1	mac	2023-07-06	22:00:13	22:08:36	498415	601fe0abd9466c54b4ae2edf	4	1	main_slash	11	advance_on_keypress_SLASH	26	stimuli_distractor_diamondtriangles.svg	stimuli_target_diamondrectangles.svg	31	yes	57	0	281	0	0			0	0			1				0	
6.6.1	mac	2023-07-06	22:00:13	22:08:38	500012	601fe0abd9466c54b4ae2edf	4	1	main_slash	11	main_slash	27	stimuli_distractor_trianglediamonds.svg	stimuli_target_diamondsquares.svg	28	yes	53	1	683	0	0			0	0			1				0	
6.6.1	mac	2023-07-06	22:00:13	22:08:38	500012	601fe0abd9466c54b4ae2edf	4	1	main_slash	11	advance_on_keypress_SLASH	28	stimuli_distractor_trianglediamonds.svg	stimuli_target_diamondsquares.svg	28	yes	57	0	703	0	0			0	0			1				0	
6.6.1	mac	2023-07-06	22:00:13	22:08:39	501817	601fe0abd9466c54b4ae2edf	4	1	main_slash	11	main_slash	29	stimuli_target_squaretriangles.svg	stimuli_distractor_diamondtriangles.svg	7	yes	53	1	466	0	0			0	0			1				0	
6.6.1	mac	2023-07-06	22:00:13	22:08:39	501817	601fe0abd9466c54b4ae2edf	4	1	main_slash	11	advance_on_keypress_SLASH	30	stimuli_target_squaretriangles.svg	stimuli_distractor_diamondtriangles.svg	7	yes	57	0	990	0	0			0	0			1				0	
6.6.1	mac	2023-07-06	22:00:13	22:08:42	503837	601fe0abd9466c54b4ae2edf	4	1	main_slash	11	main_slash	31	stimuli_distractor_diamondtriangles.svg	stimuli_target_squaretriangles.svg	15	yes	53	1	396	0	0			0	0			1				0	
6.6.1	mac	2023-07-06	22:00:13	22:08:42	503837	601fe0abd9466c54b4ae2edf	4	1	main_slash	11	advance_on_keypress_SLASH	32	stimuli_distractor_diamondtriangles.svg	stimuli_target_squaretriangles.svg	15	yes	57	0	515	0	0			0	0			1				0	
6.6.1	mac	2023-07-06	22:00:13	22:08:43	505403	601fe0abd9466c54b4ae2edf	4	1	main_slash	11	main_slash	33	stimuli_distractor_diamondtriangles.svg	stimuli_target_rectangletriangles.svg	13	yes	53	1	408	0	0			0	0			1				0	
6.6.1	mac	2023-07-06	22:00:13	22:08:43	505403	601fe0abd9466c54b4ae2edf	4	1	main_slash	11	advance_on_keypress_SLASH	34	stimuli_distractor_diamondtriangles.svg	stimuli_target_rectangletriangles.svg	13	yes	57	0	597	0	0			0	0			1				0	
6.6.1	mac	2023-07-06	22:00:13	22:08:45	507121	601fe0abd9466c54b4ae2edf	4	1	main_slash	11	main_slash	35	stimuli_target_squaretriangles.svg	stimuli_distractor_trianglediamonds.svg	3	yes	53	1	488	0	0			0	0			1				0	
6.6.1	mac	2023-07-06	22:00:13	22:08:45	507121	601fe0abd9466c54b4ae2edf	4	1	main_slash	11	advance_on_keypress_SLASH	36	stimuli_target_squaretriangles.svg	stimuli_distractor_trianglediamonds.svg	3	yes	57	0	457	0	0			0	0			1				0	
6.6.1	mac	2023-07-06	22:00:13	22:08:48	510199	601fe0abd9466c54b4ae2edf	4	1	main_slash	11	main_slash	37	stimuli_distractor_diamondtriangles.svg	stimuli_distractor_diamondtriangles.svg	40	no	0	1	2000	0	0			0	0			1				0	
6.6.1	mac	2023-07-06	22:00:13	22:08:48	510199	601fe0abd9466c54b4ae2edf	4	1	main_slash	11	advance_on_keypress_SLASH	38	stimuli_distractor_diamondtriangles.svg	stimuli_distractor_diamondtriangles.svg	40	no	57	0	447	0	0			0	0			1				0	
6.6.1	mac	2023-07-06	22:00:13	22:08:50	511842	601fe0abd9466c54b4ae2edf	4	1	main_slash	11	main_slash	39	stimuli_target_diamondrectangles.svg	stimuli_distractor_diamondtriangles.svg	23	yes	53	1	563	0	0			0	0			1				0	
6.6.1	mac	2023-07-06	22:00:13	22:08:50	511842	601fe0abd9466c54b4ae2edf	4	1	main_slash	11	advance_on_keypress_SLASH	40	stimuli_target_diamondrectangles.svg	stimuli_distractor_diamondtriangles.svg	23	yes	57	0	805	0	0			0	0			1				0	
6.6.1	mac	2023-07-06	22:00:13	22:08:51	513805	601fe0abd9466c54b4ae2edf	4	1	main_slash	11	main_slash	41	stimuli_target_trianglesquares.svg	stimuli_distractor_trianglediamonds.svg	18	yes	53	1	522	0	0			0	0			1				0	
6.6.1	mac	2023-07-06	22:00:13	22:08:51	513805	601fe0abd9466c54b4ae2edf	4	1	main_slash	11	advance_on_keypress_SLASH	42	stimuli_target_trianglesquares.svg	stimuli_distractor_trianglediamonds.svg	18	yes	57	0	445	0	0			0	0			1				0	
6.6.1	mac	2023-07-06	22:00:13	22:08:53	515331	601fe0abd9466c54b4ae2edf	4	1	main_slash	11	main_slash	43	stimuli_target_rectangletriangles.svg	stimuli_distractor_diamondtriangles.svg	5	yes	53	1	444	0	0			0	0			1				0	
6.6.1	mac	2023-07-06	22:00:13	22:08:53	515331	601fe0abd9466c54b4ae2edf	4	1	main_slash	11	advance_on_keypress_SLASH	44	stimuli_target_rectangletriangles.svg	stimuli_distractor_diamondtriangles.svg	5	yes	57	0	1777	0	0			0	0			1				0	
6.6.1	mac	2023-07-06	22:00:13	22:08:56	518115	601fe0abd9466c54b4ae2edf	4	1	main_slash	11	main_slash	45	stimuli_distractor_trianglediamonds.svg	stimuli_target_rectanglediamonds.svg	10	yes	53	1	369	0	0			0	0			1				0	
6.6.1	mac	2023-07-06	22:00:13	22:08:56	518115	601fe0abd9466c54b4ae2edf	4	1	main_slash	11	advance_on_keypress_SLASH	46	stimuli_distractor_trianglediamonds.svg	stimuli_target_rectanglediamonds.svg	10	yes	57	0	468	0	0			0	0			1				0	
6.6.1	mac	2023-07-06	22:00:13	22:08:58	519900	601fe0abd9466c54b4ae2edf	4	1	main_slash	11	main_slash	47	stimuli_distractor_trianglediamonds.svg	stimuli_target_trianglerectangles.svg	25	yes	53	1	684	0	0			0	0			1				0	
6.6.1	mac	2023-07-06	22:00:13	22:08:58	519900	601fe0abd9466c54b4ae2edf	4	1	main_slash	11	advance_on_keypress_SLASH	48	stimuli_distractor_trianglediamonds.svg	stimuli_target_trianglerectangles.svg	25	yes	57	0	576	0	0			0	0			1				0	
6.6.1	mac	2023-07-06	22:00:13	22:08:59	521688	601fe0abd9466c54b4ae2edf	4	1	main_slash	11	main_slash	49	stimuli_distractor_trianglediamonds.svg	stimuli_target_rectangletriangles.svg	9	yes	53	1	584	0	0			0	0			1				0	
6.6.1	mac	2023-07-06	22:00:13	22:08:59	521688	601fe0abd9466c54b4ae2edf	4	1	main_slash	11	advance_on_keypress_SLASH	50	stimuli_distractor_trianglediamonds.svg	stimuli_target_rectangletriangles.svg	9	yes	57	0	443	0	0			0	0			1				0	
6.6.1	mac	2023-07-06	22:00:13	22:09:01	523345	601fe0abd9466c54b4ae2edf	4	1	main_slash	11	main_slash	51	stimuli_target_rectanglediamonds.svg	stimuli_distractor_diamondtriangles.svg	6	yes	53	1	569	0	0			0	0			1				0	
6.6.1	mac	2023-07-06	22:00:13	22:09:01	523345	601fe0abd9466c54b4ae2edf	4	1	main_slash	11	advance_on_keypress_SLASH	52	stimuli_target_rectanglediamonds.svg	stimuli_distractor_diamondtriangles.svg	6	yes	57	0	691	0	0			0	0			1				0	
6.6.1	mac	2023-07-06	22:00:13	22:09:03	525124	601fe0abd9466c54b4ae2edf	4	1	main_slash	11	main_slash	53	stimuli_distractor_diamondtriangles.svg	stimuli_distractor_trianglediamonds.svg	38	no	53	0	460	0	0			0	0			1				0	
6.6.1	mac	2023-07-06	22:00:13	22:09:03	525124	601fe0abd9466c54b4ae2edf	4	1	main_slash	11	advance_on_keypress_SLASH	54	stimuli_distractor_diamondtriangles.svg	stimuli_distractor_trianglediamonds.svg	38	no	57	0	550	0	0			0	0			1				0	
6.6.1	mac	2023-07-06	22:00:13	22:09:05	527111	601fe0abd9466c54b4ae2edf	4	1	main_slash	11	main_slash	55	stimuli_target_squarediamonds.svg	stimuli_distractor_diamondtriangles.svg	8	yes	53	1	811	0	0			0	0			1				0	
6.6.1	mac	2023-07-06	22:00:13	22:09:05	527111	601fe0abd9466c54b4ae2edf	4	1	main_slash	11	advance_on_keypress_SLASH	56	stimuli_target_squarediamonds.svg	stimuli_distractor_diamondtriangles.svg	8	yes	57	0	413	0	0			0	0			1				0	
6.6.1	mac	2023-07-06	22:00:13	22:09:07	528857	601fe0abd9466c54b4ae2edf	4	1	main_slash	11	main_slash	57	stimuli_distractor_diamondtriangles.svg	stimuli_target_diamondsquares.svg	32	yes	53	1	701	0	0			0	0			1				0	
6.6.1	mac	2023-07-06	22:00:13	22:09:07	528857	601fe0abd9466c54b4ae2edf	4	1	main_slash	11	advance_on_keypress_SLASH	58	stimuli_distractor_diamondtriangles.svg	stimuli_target_diamondsquares.svg	32	yes	57	0	406	0	0			0	0			1				0	
6.6.1	mac	2023-07-06	22:00:13	22:09:08	530609	601fe0abd9466c54b4ae2edf	4	1	main_slash	11	main_slash	59	stimuli_target_diamondsquares.svg	stimuli_distractor_trianglediamonds.svg	20	yes	53	1	715	0	0			0	0			1				0	
6.6.1	mac	2023-07-06	22:00:13	22:09:08	530609	601fe0abd9466c54b4ae2edf	4	1	main_slash	11	advance_on_keypress_SLASH	60	stimuli_target_diamondsquares.svg	stimuli_distractor_trianglediamonds.svg	20	yes	57	0	335	0	0			0	0			1				0	
6.6.1	mac	2023-07-06	22:00:13	22:09:10	532056	601fe0abd9466c54b4ae2edf	4	1	main_slash	11	main_slash	61	stimuli_target_diamondsquares.svg	stimuli_distractor_diamondtriangles.svg	24	yes	53	1	475	0	0			0	0			1				0	
6.6.1	mac	2023-07-06	22:00:13	22:09:10	532056	601fe0abd9466c54b4ae2edf	4	1	main_slash	11	advance_on_keypress_SLASH	62	stimuli_target_diamondsquares.svg	stimuli_distractor_diamondtriangles.svg	24	yes	57	0	361	0	0			0	0			1				0	
6.6.1	mac	2023-07-06	22:00:13	22:09:11	533768	601fe0abd9466c54b4ae2edf	4	1	main_slash	11	main_slash	63	stimuli_distractor_trianglediamonds.svg	stimuli_distractor_diamondtriangles.svg	36	no	53	0	732	0	0			0	0			1				0	
6.6.1	mac	2023-07-06	22:00:13	22:09:11	533768	601fe0abd9466c54b4ae2edf	4	1	main_slash	11	advance_on_keypress_SLASH	64	stimuli_distractor_trianglediamonds.svg	stimuli_distractor_diamondtriangles.svg	36	no	57	0	503	0	0			0	0			1				0	
6.6.1	mac	2023-07-06	22:00:13	22:09:15	536905	601fe0abd9466c54b4ae2edf	4	1	main_slash	11	main_slash	65	stimuli_distractor_diamondtriangles.svg	stimuli_distractor_diamondtriangles.svg	39	no	0	1	2000	0	0			0	0			1				0	
6.6.1	mac	2023-07-06	22:00:13	22:09:15	536905	601fe0abd9466c54b4ae2edf	4	1	main_slash	11	advance_on_keypress_SLASH	66	stimuli_distractor_diamondtriangles.svg	stimuli_distractor_diamondtriangles.svg	39	no	57	0	350	0	0			0	0			1				0	
6.6.1	mac	2023-07-06	22:00:13	22:09:16	538508	601fe0abd9466c54b4ae2edf	4	1	main_slash	11	main_slash	67	stimuli_distractor_trianglediamonds.svg	stimuli_target_trianglesquares.svg	26	yes	53	1	625	0	0			0	0			1				0	
6.6.1	mac	2023-07-06	22:00:13	22:09:16	538508	601fe0abd9466c54b4ae2edf	4	1	main_slash	11	advance_on_keypress_SLASH	68	stimuli_distractor_trianglediamonds.svg	stimuli_target_trianglesquares.svg	26	yes	57	0	756	0	0			0	0			1				0	
6.6.1	mac	2023-07-06	22:00:13	22:09:18	540411	601fe0abd9466c54b4ae2edf	4	1	main_slash	11	main_slash	69	stimuli_target_trianglerectangles.svg	stimuli_distractor_trianglediamonds.svg	17	yes	53	1	524	0	0			0	0			1				0	
6.6.1	mac	2023-07-06	22:00:13	22:09:18	540411	601fe0abd9466c54b4ae2edf	4	1	main_slash	11	advance_on_keypress_SLASH	70	stimuli_target_trianglerectangles.svg	stimuli_distractor_trianglediamonds.svg	17	yes	57	0	1238	0	0			0	0			1				0	
6.6.1	mac	2023-07-06	22:00:13	22:09:22	544290	601fe0abd9466c54b4ae2edf	4	1	main_slash	11	main_slash	71	stimuli_distractor_trianglediamonds.svg	stimuli_distractor_trianglediamonds.svg	33	no	0	1	2000	0	0			0	0			1				0	
6.6.1	mac	2023-07-06	22:00:13	22:09:22	544290	601fe0abd9466c54b4ae2edf	4	1	main_slash	11	advance_on_keypress_SLASH	72	stimuli_distractor_trianglediamonds.svg	stimuli_distractor_trianglediamonds.svg	33	no	57	0	387	0	0			0	0			1				0	
6.6.1	mac	2023-07-06	22:00:13	22:09:23	545680	601fe0abd9466c54b4ae2edf	4	1	main_slash	11	main_slash	73	stimuli_distractor_trianglediamonds.svg	stimuli_target_squaretriangles.svg	11	yes	53	1	379	0	0			0	0			1				0	
6.6.1	mac	2023-07-06	22:00:13	22:09:23	545680	601fe0abd9466c54b4ae2edf	4	1	main_slash	11	advance_on_keypress_SLASH	74	stimuli_distractor_trianglediamonds.svg	stimuli_target_squaretriangles.svg	11	yes	57	0	905	0	0			0	0			1				0	
6.6.1	mac	2023-07-06	22:00:13	22:09:26	548294	601fe0abd9466c54b4ae2edf	4	1	main_slash	11	main_slash	75	stimuli_target_trianglerectangles.svg	stimuli_distractor_diamondtriangles.svg	21	yes	53	1	1071	0	0			0	0			1				0	
6.6.1	mac	2023-07-06	22:00:13	22:09:26	548294	601fe0abd9466c54b4ae2edf	4	1	main_slash	11	advance_on_keypress_SLASH	76	stimuli_target_trianglerectangles.svg	stimuli_distractor_diamondtriangles.svg	21	yes	57	0	428	0	0			0	0			1				0	
6.6.1	mac	2023-07-06	22:00:13	22:09:28	549923	601fe0abd9466c54b4ae2edf	4	1	main_slash	11	main_slash	77	stimuli_target_diamondrectangles.svg	stimuli_distractor_trianglediamonds.svg	19	yes	53	1	561	0	0			0	0			1				0	
6.6.1	mac	2023-07-06	22:00:13	22:09:28	549923	601fe0abd9466c54b4ae2edf	4	1	main_slash	11	advance_on_keypress_SLASH	78	stimuli_target_diamondrectangles.svg	stimuli_distractor_trianglediamonds.svg	19	yes	57	0	360	0	0			0	0			1				0	
6.6.1	mac	2023-07-06	22:00:13	22:09:29	551824	601fe0abd9466c54b4ae2edf	4	1	main_slash	11	main_slash	79	stimuli_distractor_diamondtriangles.svg	stimuli_target_squarediamonds.svg	16	yes	53	1	907	0	0			0	0			1				0	
6.6.1	mac	2023-07-06	22:00:13	22:09:29	551824	601fe0abd9466c54b4ae2edf	4	1	main_slash	11	advance_on_keypress_SLASH	80	stimuli_distractor_diamondtriangles.svg	stimuli_target_squarediamonds.svg	16	yes	57	0	539	0	0			0	0			1				0	
6.6.1	mac	2023-07-06	22:00:13	22:09:32	554057	601fe0abd9466c54b4ae2edf	4	1	main_slash	11	main_slash	81	stimuli_target_diamondsquares.svg	stimuli_distractor_diamondtriangles.svg	24	yes	53	1	1067	0	0			0	0			1				0	
6.6.1	mac	2023-07-06	22:00:13	22:09:32	554057	601fe0abd9466c54b4ae2edf	4	1	main_slash	11	advance_on_keypress_SLASH	82	stimuli_target_diamondsquares.svg	stimuli_distractor_diamondtriangles.svg	24	yes	57	0	346	0	0			0	0			1				0	
6.6.1	mac	2023-07-06	22:00:13	22:09:34	555932	601fe0abd9466c54b4ae2edf	4	1	main_slash	11	main_slash	83	stimuli_target_trianglesquares.svg	stimuli_distractor_trianglediamonds.svg	18	yes	53	1	887	0	0			0	0			1				0	
6.6.1	mac	2023-07-06	22:00:13	22:09:34	555932	601fe0abd9466c54b4ae2edf	4	1	main_slash	11	advance_on_keypress_SLASH	84	stimuli_target_trianglesquares.svg	stimuli_distractor_trianglediamonds.svg	18	yes	57	0	345	0	0			0	0			1				0	
6.6.1	mac	2023-07-06	22:00:13	22:09:35	557571	601fe0abd9466c54b4ae2edf	4	1	main_slash	11	main_slash	85	stimuli_target_rectanglediamonds.svg	stimuli_distractor_diamondtriangles.svg	6	yes	53	1	655	0	0			0	0			1				0	
6.6.1	mac	2023-07-06	22:00:13	22:09:35	557571	601fe0abd9466c54b4ae2edf	4	1	main_slash	11	advance_on_keypress_SLASH	86	stimuli_target_rectanglediamonds.svg	stimuli_distractor_diamondtriangles.svg	6	yes	57	0	477	0	0			0	0			1				0	
6.6.1	mac	2023-07-06	22:00:13	22:09:37	559484	601fe0abd9466c54b4ae2edf	4	1	main_slash	11	main_slash	87	stimuli_target_diamondsquares.svg	stimuli_distractor_trianglediamonds.svg	20	yes	53	1	797	0	0			0	0			1				0	
6.6.1	mac	2023-07-06	22:00:13	22:09:37	559484	601fe0abd9466c54b4ae2edf	4	1	main_slash	11	advance_on_keypress_SLASH	88	stimuli_target_diamondsquares.svg	stimuli_distractor_trianglediamonds.svg	20	yes	57	0	675	0	0			0	0			1				0	
6.6.1	mac	2023-07-06	22:00:13	22:09:39	561517	601fe0abd9466c54b4ae2edf	4	1	main_slash	11	main_slash	89	stimuli_distractor_diamondtriangles.svg	stimuli_target_trianglesquares.svg	30	yes	53	1	741	0	0			0	0			1				0	
6.6.1	mac	2023-07-06	22:00:13	22:09:39	561517	601fe0abd9466c54b4ae2edf	4	1	main_slash	11	advance_on_keypress_SLASH	90	stimuli_distractor_diamondtriangles.svg	stimuli_target_trianglesquares.svg	30	yes	57	0	447	0	0			0	0			1				0	
6.6.1	mac	2023-07-06	22:00:13	22:09:41	563396	601fe0abd9466c54b4ae2edf	4	1	main_slash	11	main_slash	91	stimuli_target_squarediamonds.svg	stimuli_distractor_diamondtriangles.svg	8	yes	53	1	798	0	0			0	0			1				0	
6.6.1	mac	2023-07-06	22:00:13	22:09:41	563396	601fe0abd9466c54b4ae2edf	4	1	main_slash	11	advance_on_keypress_SLASH	92	stimuli_target_squarediamonds.svg	stimuli_distractor_diamondtriangles.svg	8	yes	57	0	573	0	0			0	0			1				0	
6.6.1	mac	2023-07-06	22:00:13	22:09:44	566600	601fe0abd9466c54b4ae2edf	4	1	main_slash	11	main_slash	93	stimuli_distractor_trianglediamonds.svg	stimuli_distractor_diamondtriangles.svg	35	no	0	1	2000	0	0			0	0			1				0	
6.6.1	mac	2023-07-06	22:00:13	22:09:44	566600	601fe0abd9466c54b4ae2edf	4	1	main_slash	11	advance_on_keypress_SLASH	94	stimuli_distractor_trianglediamonds.svg	stimuli_distractor_diamondtriangles.svg	35	no	57	0	359	0	0			0	0			1				0	
6.6.1	mac	2023-07-06	22:00:13	22:09:46	568123	601fe0abd9466c54b4ae2edf	4	1	main_slash	11	main_slash	95	stimuli_distractor_diamondtriangles.svg	stimuli_target_squaretriangles.svg	15	yes	53	1	545	0	0			0	0			1				0	
6.6.1	mac	2023-07-06	22:00:13	22:09:46	568123	601fe0abd9466c54b4ae2edf	4	1	main_slash	11	advance_on_keypress_SLASH	96	stimuli_distractor_diamondtriangles.svg	stimuli_target_squaretriangles.svg	15	yes	57	0	567	0	0			0	0			1				0	
6.6.1	mac	2023-07-06	22:00:13	22:09:47	569806	601fe0abd9466c54b4ae2edf	4	1	main_slash	11	main_slash	97	stimuli_target_squaretriangles.svg	stimuli_distractor_diamondtriangles.svg	7	yes	53	1	473	0	0			0	0			1				0	
6.6.1	mac	2023-07-06	22:00:13	22:09:47	569806	601fe0abd9466c54b4ae2edf	4	1	main_slash	11	advance_on_keypress_SLASH	98	stimuli_target_squaretriangles.svg	stimuli_distractor_diamondtriangles.svg	7	yes	57	0	664	0	0			0	0			1				0	
6.6.1	mac	2023-07-06	22:00:13	22:09:50	571902	601fe0abd9466c54b4ae2edf	4	1	main_slash	11	main_slash	99	stimuli_distractor_trianglediamonds.svg	stimuli_target_diamondrectangles.svg	27	yes	53	1	797	0	0			0	0			1				0	
6.6.1	mac	2023-07-06	22:00:13	22:09:50	571902	601fe0abd9466c54b4ae2edf	4	1	main_slash	11	advance_on_keypress_SLASH	100	stimuli_distractor_trianglediamonds.svg	stimuli_target_diamondrectangles.svg	27	yes	57	0	510	0	0			0	0			1				0	
6.6.1	mac	2023-07-06	22:00:13	22:09:51	573705	601fe0abd9466c54b4ae2edf	4	1	main_slash	11	main_slash	101	stimuli_target_diamondrectangles.svg	stimuli_distractor_trianglediamonds.svg	19	yes	53	1	663	0	0			0	0			1				0	
6.6.1	mac	2023-07-06	22:00:13	22:09:51	573705	601fe0abd9466c54b4ae2edf	4	1	main_slash	11	advance_on_keypress_SLASH	102	stimuli_target_diamondrectangles.svg	stimuli_distractor_trianglediamonds.svg	19	yes	57	0	518	0	0			0	0			1				0	
6.6.1	mac	2023-07-06	22:00:13	22:09:53	575478	601fe0abd9466c54b4ae2edf	4	1	main_slash	11	main_slash	103	stimuli_distractor_trianglediamonds.svg	stimuli_distractor_diamondtriangles.svg	36	no	53	0	630	0	0			0	0			1				0	
6.6.1	mac	2023-07-06	22:00:13	22:09:53	575478	601fe0abd9466c54b4ae2edf	4	1	main_slash	11	advance_on_keypress_SLASH	104	stimuli_distractor_trianglediamonds.svg	stimuli_distractor_diamondtriangles.svg	36	no	57	0	624	0	0			0	0			1				0	
6.6.1	mac	2023-07-06	22:00:13	22:09:55	577616	601fe0abd9466c54b4ae2edf	4	1	main_slash	11	main_slash	105	stimuli_distractor_trianglediamonds.svg	stimuli_target_trianglerectangles.svg	25	yes	53	1	881	0	0			0	0			1				0	
6.6.1	mac	2023-07-06	22:00:13	22:09:55	577616	601fe0abd9466c54b4ae2edf	4	1	main_slash	11	advance_on_keypress_SLASH	106	stimuli_distractor_trianglediamonds.svg	stimuli_target_trianglerectangles.svg	25	yes	57	0	408	0	0			0	0			1				0	
6.6.1	mac	2023-07-06	22:00:13	22:09:57	579623	601fe0abd9466c54b4ae2edf	4	1	main_slash	11	main_slash	107	stimuli_distractor_trianglediamonds.svg	stimuli_target_squarediamonds.svg	12	yes	53	1	982	0	0			0	0			1				0	
6.6.1	mac	2023-07-06	22:00:13	22:09:57	579623	601fe0abd9466c54b4ae2edf	4	1	main_slash	11	advance_on_keypress_SLASH	108	stimuli_distractor_trianglediamonds.svg	stimuli_target_squarediamonds.svg	12	yes	57	0	439	0	0			0	0			1				0	
6.6.1	mac	2023-07-06	22:00:13	22:09:59	581590	601fe0abd9466c54b4ae2edf	4	1	main_slash	11	main_slash	109	stimuli_distractor_trianglediamonds.svg	stimuli_target_trianglesquares.svg	26	yes	53	1	894	0	0			0	0			1				0	
6.6.1	mac	2023-07-06	22:00:13	22:09:59	581590	601fe0abd9466c54b4ae2edf	4	1	main_slash	11	advance_on_keypress_SLASH	110	stimuli_distractor_trianglediamonds.svg	stimuli_target_trianglesquares.svg	26	yes	57	0	380	0	0			0	0			1				0	
6.6.1	mac	2023-07-06	22:00:13	22:10:02	584598	601fe0abd9466c54b4ae2edf	4	1	main_slash	11	main_slash	111	stimuli_distractor_trianglediamonds.svg	stimuli_distractor_trianglediamonds.svg	34	no	0	1	2000	0	0			0	0			1				0	
6.6.1	mac	2023-07-06	22:00:13	22:10:02	584598	601fe0abd9466c54b4ae2edf	4	1	main_slash	11	advance_on_keypress_SLASH	112	stimuli_distractor_trianglediamonds.svg	stimuli_distractor_trianglediamonds.svg	34	no	57	0	398	0	0			0	0			1				0	
6.6.1	mac	2023-07-06	22:00:13	22:10:04	586131	601fe0abd9466c54b4ae2edf	4	1	main_slash	11	main_slash	113	stimuli_target_trianglerectangles.svg	stimuli_distractor_diamondtriangles.svg	21	yes	53	1	504	0	0			0	0			1				0	
6.6.1	mac	2023-07-06	22:00:13	22:10:04	586131	601fe0abd9466c54b4ae2edf	4	1	main_slash	11	advance_on_keypress_SLASH	114	stimuli_target_trianglerectangles.svg	stimuli_distractor_diamondtriangles.svg	21	yes	57	0	499	0	0			0	0			1				0	
6.6.1	mac	2023-07-06	22:00:13	22:10:06	588184	601fe0abd9466c54b4ae2edf	4	1	main_slash	11	main_slash	115	stimuli_distractor_diamondtriangles.svg	stimuli_target_diamondsquares.svg	32	yes	53	1	920	0	0			0	0			1				0	
6.6.1	mac	2023-07-06	22:00:13	22:10:06	588184	601fe0abd9466c54b4ae2edf	4	1	main_slash	11	advance_on_keypress_SLASH	116	stimuli_distractor_diamondtriangles.svg	stimuli_target_diamondsquares.svg	32	yes	57	0	405	0	0			0	0			1				0	
6.6.1	mac	2023-07-06	22:00:13	22:10:09	591215	601fe0abd9466c54b4ae2edf	4	1	main_slash	11	main_slash	117	stimuli_distractor_diamondtriangles.svg	stimuli_target_squarediamonds.svg	16	yes	0	0	2000	0	0			0	0			1				0	
6.6.1	mac	2023-07-06	22:00:13	22:10:09	591215	601fe0abd9466c54b4ae2edf	4	1	main_slash	11	advance_on_keypress_SLASH	118	stimuli_distractor_diamondtriangles.svg	stimuli_target_squarediamonds.svg	16	yes	57	0	569	0	0			0	0			1				0	
6.6.1	mac	2023-07-06	22:00:13	22:10:11	593041	601fe0abd9466c54b4ae2edf	4	1	main_slash	11	main_slash	119	stimuli_target_squaretriangles.svg	stimuli_distractor_trianglediamonds.svg	3	yes	53	1	631	0	0			0	0			1				0	
6.6.1	mac	2023-07-06	22:00:13	22:10:11	593041	601fe0abd9466c54b4ae2edf	4	1	main_slash	11	advance_on_keypress_SLASH	120	stimuli_target_squaretriangles.svg	stimuli_distractor_trianglediamonds.svg	3	yes	57	0	1390	0	0			0	0			1				0	
6.6.1	mac	2023-07-06	22:00:13	22:10:13	595780	601fe0abd9466c54b4ae2edf	4	1	main_slash	11	main_slash	121	stimuli_target_rectangletriangles.svg	stimuli_distractor_diamondtriangles.svg	5	yes	53	1	713	0	0			0	0			1				0	
6.6.1	mac	2023-07-06	22:00:13	22:10:13	595780	601fe0abd9466c54b4ae2edf	4	1	main_slash	11	advance_on_keypress_SLASH	122	stimuli_target_rectangletriangles.svg	stimuli_distractor_diamondtriangles.svg	5	yes	57	0	667	0	0			0	0			1				0	
6.6.1	mac	2023-07-06	22:00:13	22:10:15	597625	601fe0abd9466c54b4ae2edf	4	1	main_slash	11	main_slash	123	stimuli_distractor_trianglediamonds.svg	stimuli_target_squaretriangles.svg	11	yes	53	1	552	0	0			0	0			1				0	
6.6.1	mac	2023-07-06	22:00:13	22:10:15	597625	601fe0abd9466c54b4ae2edf	4	1	main_slash	11	advance_on_keypress_SLASH	124	stimuli_distractor_trianglediamonds.svg	stimuli_target_squaretriangles.svg	11	yes	57	0	402	0	0			0	0			1				0	
6.6.1	mac	2023-07-06	22:00:13	22:10:18	600658	601fe0abd9466c54b4ae2edf	4	1	main_slash	11	main_slash	125	stimuli_distractor_diamondtriangles.svg	stimuli_distractor_diamondtriangles.svg	39	no	0	1	2000	0	0			0	0			1				0	
6.6.1	mac	2023-07-06	22:00:13	22:10:18	600658	601fe0abd9466c54b4ae2edf	4	1	main_slash	11	advance_on_keypress_SLASH	126	stimuli_distractor_diamondtriangles.svg	stimuli_distractor_diamondtriangles.svg	39	no	57	0	512	0	0			0	0			1				0	
6.6.1	mac	2023-07-06	22:00:13	22:10:20	602324	601fe0abd9466c54b4ae2edf	4	1	main_slash	11	main_slash	127	stimuli_target_rectanglediamonds.svg	stimuli_distractor_trianglediamonds.svg	2	yes	53	1	522	0	0			0	0			1				0	
6.6.1	mac	2023-07-06	22:00:13	22:10:20	602324	601fe0abd9466c54b4ae2edf	4	1	main_slash	11	advance_on_keypress_SLASH	128	stimuli_target_rectanglediamonds.svg	stimuli_distractor_trianglediamonds.svg	2	yes	57	0	373	0	0			0	0			1				0	
6.6.1	mac	2023-07-06	22:00:13	22:10:22	603913	601fe0abd9466c54b4ae2edf	4	1	main_slash	11	main_slash	129	stimuli_target_squarediamonds.svg	stimuli_distractor_trianglediamonds.svg	4	yes	53	1	590	0	0			0	0			1				0	
6.6.1	mac	2023-07-06	22:00:13	22:10:22	603913	601fe0abd9466c54b4ae2edf	4	1	main_slash	11	advance_on_keypress_SLASH	130	stimuli_target_squarediamonds.svg	stimuli_distractor_trianglediamonds.svg	4	yes	57	0	305	0	0			0	0			1				0	
6.6.1	mac	2023-07-06	22:00:13	22:10:23	605796	601fe0abd9466c54b4ae2edf	4	1	main_slash	11	main_slash	131	stimuli_target_trianglesquares.svg	stimuli_distractor_diamondtriangles.svg	22	yes	53	1	951	0	0			0	0			1				0	
6.6.1	mac	2023-07-06	22:00:13	22:10:23	605796	601fe0abd9466c54b4ae2edf	4	1	main_slash	11	advance_on_keypress_SLASH	132	stimuli_target_trianglesquares.svg	stimuli_distractor_diamondtriangles.svg	22	yes	57	0	178	0	0			0	0			1				0	
6.6.1	mac	2023-07-06	22:00:13	22:10:25	607364	601fe0abd9466c54b4ae2edf	4	1	main_slash	11	main_slash	133	stimuli_distractor_diamondtriangles.svg	stimuli_target_diamondrectangles.svg	31	yes	53	1	749	0	0			0	0			1				0	
6.6.1	mac	2023-07-06	22:00:13	22:10:25	607364	601fe0abd9466c54b4ae2edf	4	1	main_slash	11	advance_on_keypress_SLASH	134	stimuli_distractor_diamondtriangles.svg	stimuli_target_diamondrectangles.svg	31	yes	57	0	872	0	0			0	0			1				0	
6.6.1	mac	2023-07-06	22:00:13	22:10:27	609261	601fe0abd9466c54b4ae2edf	4	1	main_slash	11	main_slash	135	stimuli_distractor_trianglediamonds.svg	stimuli_target_rectangletriangles.svg	9	yes	53	1	390	0	0			0	0			1				0	
6.6.1	mac	2023-07-06	22:00:13	22:10:27	609261	601fe0abd9466c54b4ae2edf	4	1	main_slash	11	advance_on_keypress_SLASH	136	stimuli_distractor_trianglediamonds.svg	stimuli_target_rectangletriangles.svg	9	yes	57	0	896	0	0			0	0			1				0	
6.6.1	mac	2023-07-06	22:00:13	22:10:30	612790	601fe0abd9466c54b4ae2edf	4	1	main_slash	11	main_slash	137	stimuli_distractor_diamondtriangles.svg	stimuli_distractor_trianglediamonds.svg	37	no	0	1	2000	0	0			0	0			1				0	
6.6.1	mac	2023-07-06	22:00:13	22:10:30	612790	601fe0abd9466c54b4ae2edf	4	1	main_slash	11	advance_on_keypress_SLASH	138	stimuli_distractor_diamondtriangles.svg	stimuli_distractor_trianglediamonds.svg	37	no	57	0	273	0	0			0	0			1				0	
6.6.1	mac	2023-07-06	22:00:13	22:10:32	614172	601fe0abd9466c54b4ae2edf	4	1	main_slash	11	main_slash	139	stimuli_target_rectangletriangles.svg	stimuli_distractor_trianglediamonds.svg	1	yes	53	1	488	0	0			0	0			1				0	
6.6.1	mac	2023-07-06	22:00:13	22:10:32	614172	601fe0abd9466c54b4ae2edf	4	1	main_slash	11	advance_on_keypress_SLASH	140	stimuli_target_rectangletriangles.svg	stimuli_distractor_trianglediamonds.svg	1	yes	57	0	695	0	0			0	0			1				0	
6.6.1	mac	2023-07-06	22:00:13	22:10:34	616142	601fe0abd9466c54b4ae2edf	4	1	main_slash	11	main_slash	141	stimuli_target_diamondrectangles.svg	stimuli_distractor_diamondtriangles.svg	23	yes	53	1	653	0	0			0	0			1				0	
6.6.1	mac	2023-07-06	22:00:13	22:10:34	616142	601fe0abd9466c54b4ae2edf	4	1	main_slash	11	advance_on_keypress_SLASH	142	stimuli_target_diamondrectangles.svg	stimuli_distractor_diamondtriangles.svg	23	yes	57	0	400	0	0			0	0			1				0	
6.6.1	mac	2023-07-06	22:00:13	22:10:36	617887	601fe0abd9466c54b4ae2edf	4	1	main_slash	11	main_slash	143	stimuli_distractor_trianglediamonds.svg	stimuli_target_diamondsquares.svg	28	yes	53	1	710	0	0			0	0			1				0	
6.6.1	mac	2023-07-06	22:00:13	22:10:36	617887	601fe0abd9466c54b4ae2edf	4	1	main_slash	11	advance_on_keypress_SLASH	144	stimuli_distractor_trianglediamonds.svg	stimuli_target_diamondsquares.svg	28	yes	57	0	440	0	0			0	0			1				0	
6.6.1	mac	2023-07-06	22:00:13	22:10:37	619628	601fe0abd9466c54b4ae2edf	4	1	main_slash	11	main_slash	145	stimuli_distractor_diamondtriangles.svg	stimuli_target_trianglerectangles.svg	29	yes	53	1	679	0	0			0	0			1				0	
6.6.1	mac	2023-07-06	22:00:13	22:10:37	619628	601fe0abd9466c54b4ae2edf	4	1	main_slash	11	advance_on_keypress_SLASH	146	stimuli_distractor_diamondtriangles.svg	stimuli_target_trianglerectangles.svg	29	yes	57	0	371	0	0			0	0			1				0	
6.6.1	mac	2023-07-06	22:00:13	22:10:39	621380	601fe0abd9466c54b4ae2edf	4	1	main_slash	11	main_slash	147	stimuli_distractor_trianglediamonds.svg	stimuli_target_rectanglediamonds.svg	10	yes	53	1	760	0	0			0	0			1				0	
6.6.1	mac	2023-07-06	22:00:13	22:10:39	621380	601fe0abd9466c54b4ae2edf	4	1	main_slash	11	advance_on_keypress_SLASH	148	stimuli_distractor_trianglediamonds.svg	stimuli_target_rectanglediamonds.svg	10	yes	57	0	394	0	0			0	0			1				0	
6.6.1	mac	2023-07-06	22:00:13	22:10:42	624405	601fe0abd9466c54b4ae2edf	4	1	main_slash	11	main_slash	149	stimuli_distractor_diamondtriangles.svg	stimuli_distractor_trianglediamonds.svg	38	no	0	1	2000	0	0			0	0			1				0	
6.6.1	mac	2023-07-06	22:00:13	22:10:42	624405	601fe0abd9466c54b4ae2edf	4	1	main_slash	11	advance_on_keypress_SLASH	150	stimuli_distractor_diamondtriangles.svg	stimuli_distractor_trianglediamonds.svg	38	no	57	0	832	0	0			0	0			1				0	
6.6.1	mac	2023-07-06	22:00:13	22:10:44	626560	601fe0abd9466c54b4ae2edf	4	1	main_slash	11	main_slash	151	stimuli_target_trianglerectangles.svg	stimuli_distractor_trianglediamonds.svg	17	yes	53	1	693	0	0			0	0			1				0	
6.6.1	mac	2023-07-06	22:00:13	22:10:44	626560	601fe0abd9466c54b4ae2edf	4	1	main_slash	11	advance_on_keypress_SLASH	152	stimuli_target_trianglerectangles.svg	stimuli_distractor_trianglediamonds.svg	17	yes	57	0	476	0	0			0	0			1				0	
6.6.1	mac	2023-07-06	22:00:13	22:10:47	629652	601fe0abd9466c54b4ae2edf	4	1	main_slash	11	main_slash	153	stimuli_distractor_trianglediamonds.svg	stimuli_distractor_trianglediamonds.svg	33	no	0	1	2000	0	0			0	0			1				0	
6.6.1	mac	2023-07-06	22:00:13	22:10:47	629652	601fe0abd9466c54b4ae2edf	4	1	main_slash	11	advance_on_keypress_SLASH	154	stimuli_distractor_trianglediamonds.svg	stimuli_distractor_trianglediamonds.svg	33	no	57	0	477	0	0			0	0			1				0	
6.6.1	mac	2023-07-06	22:00:13	22:10:49	631425	601fe0abd9466c54b4ae2edf	4	1	main_slash	11	main_slash	155	stimuli_distractor_diamondtriangles.svg	stimuli_target_rectanglediamonds.svg	14	yes	53	1	662	0	0			0	0			1				0	
6.6.1	mac	2023-07-06	22:00:13	22:10:49	631425	601fe0abd9466c54b4ae2edf	4	1	main_slash	11	advance_on_keypress_SLASH	156	stimuli_distractor_diamondtriangles.svg	stimuli_target_rectanglediamonds.svg	14	yes	57	0	436	0	0			0	0			1				0	
6.6.1	mac	2023-07-06	22:00:13	22:10:51	632899	601fe0abd9466c54b4ae2edf	4	1	main_slash	11	main_slash	157	stimuli_distractor_diamondtriangles.svg	stimuli_target_rectangletriangles.svg	13	yes	53	1	415	0	0			0	0			1				0	
6.6.1	mac	2023-07-06	22:00:13	22:10:51	632899	601fe0abd9466c54b4ae2edf	4	1	main_slash	11	advance_on_keypress_SLASH	158	stimuli_distractor_diamondtriangles.svg	stimuli_target_rectangletriangles.svg	13	yes	57	0	385	0	0			0	0			1				0	
6.6.1	mac	2023-07-06	22:00:13	22:10:54	635918	601fe0abd9466c54b4ae2edf	4	1	main_slash	11	main_slash	159	stimuli_distractor_diamondtriangles.svg	stimuli_distractor_diamondtriangles.svg	40	no	0	1	2000	0	0			0	0			1				0	
6.6.1	mac	2023-07-06	22:00:13	22:10:54	635918	601fe0abd9466c54b4ae2edf	4	1	main_slash	11	advance_on_keypress_SLASH	160	stimuli_distractor_diamondtriangles.svg	stimuli_distractor_diamondtriangles.svg	40	no	57	0	794	0	0			0	0			1				0	
6.6.1	mac	2023-07-06	22:00:13	22:10:54	635918	601fe0abd9466c54b4ae2edf	4	1	headphonecheck_calibration	14	headphonecheck_calibrationIntro	1	stimuli_distractor_diamondtriangles.svg	stimuli_distractor_diamondtriangles.svg	40	no	calibrationButton	0	3495	0	0			0	0			1				0	
6.6.1	mac	2023-07-06	22:00:13	22:10:54	635918	601fe0abd9466c54b4ae2edf	4	1	headphonecheck_testphase	15	test_collectResponse	3	stimuli_distractor_diamondtriangles.svg	stimuli_distractor_diamondtriangles.svg	40	no	third	1	8655	1	2	antiphase_hc_ios.wav	3	0	0			1				0	
6.6.1	mac	2023-07-06	22:00:13	22:10:54	635918	601fe0abd9466c54b4ae2edf	4	1	headphonecheck_testphase	15	test_collectResponse	6	stimuli_distractor_diamondtriangles.svg	stimuli_distractor_diamondtriangles.svg	40	no	first	1	572	2	4	antiphase_hc_sio.wav	1	0	0			1				0	
6.6.1	mac	2023-07-06	22:00:13	22:10:54	635918	601fe0abd9466c54b4ae2edf	4	1	headphonecheck_testphase	15	test_collectResponse	9	stimuli_distractor_diamondtriangles.svg	stimuli_distractor_diamondtriangles.svg	40	no	second	1	319	3	5	antiphase_hc_osi.wav	2	0	0			1				0	
6.6.1	mac	2023-07-06	22:00:13	22:10:54	635918	601fe0abd9466c54b4ae2edf	4	1	headphonecheck_testphase	15	test_collectResponse	12	stimuli_distractor_diamondtriangles.svg	stimuli_distractor_diamondtriangles.svg	40	no	second	1	67	4	1	antiphase_hc_iso.wav	2	0	0			1				0	
6.6.1	mac	2023-07-06	22:00:13	22:10:54	635918	601fe0abd9466c54b4ae2edf	4	1	headphonecheck_testphase	15	test_collectResponse	15	stimuli_distractor_diamondtriangles.svg	stimuli_distractor_diamondtriangles.svg	40	no	first	1	220	5	3	antiphase_hc_soi.wav	1	0	0			1				0	
6.6.1	mac	2023-07-06	22:00:13	22:10:54	635918	601fe0abd9466c54b4ae2edf	4	1	headphonecheck_testphase	15	test_collectResponse	18	stimuli_distractor_diamondtriangles.svg	stimuli_distractor_diamondtriangles.svg	40	no	third	1	876	6	6	antiphase_hc_ois.wav	3	0	0			1				0	
6.6.1	mac	2023-07-06	22:00:13	22:10:54	635918	601fe0abd9466c54b4ae2edf	4	1	stereocheck_calibration	17	stereocheck_calibrationIntro	1	stimuli_distractor_diamondtriangles.svg	stimuli_distractor_diamondtriangles.svg	40	no	stereocheck_calibrationButton	0	5910	6	6	antiphase_hc_ois.wav	3	0	0			1				0	
6.6.1	mac	2023-07-06	22:00:13	22:10:54	635918	601fe0abd9466c54b4ae2edf	4	1	stereocheck_testphase	18	stereocheck_test_collectResponse	3	stimuli_distractor_diamondtriangles.svg	stimuli_distractor_diamondtriangles.svg	40	no	stereocheck_right	1	561	6	6	antiphase_hc_ois.wav	3	1	4	noise_calib_stim_RIGHT.wav	2	1				0	
6.6.1	mac	2023-07-06	22:00:13	22:10:54	635918	601fe0abd9466c54b4ae2edf	4	1	stereocheck_testphase	18	stereocheck_test_collectResponse	6	stimuli_distractor_diamondtriangles.svg	stimuli_distractor_diamondtriangles.svg	40	no	stereocheck_right	1	351	6	6	antiphase_hc_ois.wav	3	2	6	noise_calib_stim_RIGHT.wav	2	1				0	
6.6.1	mac	2023-07-06	22:00:13	22:10:54	635918	601fe0abd9466c54b4ae2edf	4	1	stereocheck_testphase	18	stereocheck_test_collectResponse	9	stimuli_distractor_diamondtriangles.svg	stimuli_distractor_diamondtriangles.svg	40	no	stereocheck_left	1	267	6	6	antiphase_hc_ois.wav	3	3	3	noise_calib_stim_LEFT.wav	1	1				0	
6.6.1	mac	2023-07-06	22:00:13	22:10:54	635918	601fe0abd9466c54b4ae2edf	4	1	stereocheck_testphase	18	stereocheck_test_collectResponse	12	stimuli_distractor_diamondtriangles.svg	stimuli_distractor_diamondtriangles.svg	40	no	stereocheck_left	1	269	6	6	antiphase_hc_ois.wav	3	4	2	noise_calib_stim_LEFT.wav	1	1				0	
6.6.1	mac	2023-07-06	22:00:13	22:10:54	635918	601fe0abd9466c54b4ae2edf	4	1	stereocheck_testphase	18	stereocheck_test_collectResponse	15	stimuli_distractor_diamondtriangles.svg	stimuli_distractor_diamondtriangles.svg	40	no	stereocheck_right	1	277	6	6	antiphase_hc_ois.wav	3	5	5	noise_calib_stim_RIGHT.wav	2	1				0	
6.6.1	mac	2023-07-06	22:00:13	22:10:54	635918	601fe0abd9466c54b4ae2edf	4	1	stereocheck_testphase	18	stereocheck_test_collectResponse	18	stimuli_distractor_diamondtriangles.svg	stimuli_distractor_diamondtriangles.svg	40	no	stereocheck_left	1	228	6	6	antiphase_hc_ois.wav	3	6	1	noise_calib_stim_LEFT.wav	1	1				0	
6.6.1	mac	2023-07-06	22:00:13	22:10:54	635918	601fe0abd9466c54b4ae2edf	4	1	DL_practice	21	DL_practice	2	stimuli_distractor_diamondtriangles.svg	stimuli_distractor_diamondtriangles.svg	40	no	pa	1	2043	6	6	antiphase_hc_ois.wav	3	6	1	noise_calib_stim_LEFT.wav	1	29	blb_dichoticlistening_pa-pa.mp3	pa	pa	0	left
6.6.1	mac	2023-07-06	22:00:13	22:10:54	635918	601fe0abd9466c54b4ae2edf	4	1	DL_practice	21	DL_practice	3	stimuli_distractor_diamondtriangles.svg	stimuli_distractor_diamondtriangles.svg	40	no	ba	1	1535	6	6	antiphase_hc_ois.wav	3	6	1	noise_calib_stim_LEFT.wav	1	1	blb_dichoticlistening_ba-ba.mp3	ba	ba	0	left
6.6.1	mac	2023-07-06	22:00:13	22:10:54	635918	601fe0abd9466c54b4ae2edf	4	1	DL_practice	21	DL_practice	4	stimuli_distractor_diamondtriangles.svg	stimuli_distractor_diamondtriangles.svg	40	no	ka	1	1045	6	6	antiphase_hc_ois.wav	3	6	1	noise_calib_stim_LEFT.wav	1	22	blb_dichoticlistening_ka-ka.mp3	ka	ka	0	left
6.6.1	mac	2023-07-06	22:00:13	22:10:54	635918	601fe0abd9466c54b4ae2edf	4	1	DL_practice	21	DL_practice	5	stimuli_distractor_diamondtriangles.svg	stimuli_distractor_diamondtriangles.svg	40	no	da	1	639	6	6	antiphase_hc_ois.wav	3	6	1	noise_calib_stim_LEFT.wav	1	8	blb_dichoticlistening_da-da.mp3	da	da	0	left
6.6.1	mac	2023-07-06	22:00:13	22:10:54	635918	601fe0abd9466c54b4ae2edf	4	1	DL_practice	21	DL_practice	6	stimuli_distractor_diamondtriangles.svg	stimuli_distractor_diamondtriangles.svg	40	no	ga	1	1293	6	6	antiphase_hc_ois.wav	3	6	1	noise_calib_stim_LEFT.wav	1	15	blb_dichoticlistening_ga-ga.mp3	ga	ga	0	left
6.6.1	mac	2023-07-06	22:00:13	22:10:54	635918	601fe0abd9466c54b4ae2edf	4	1	DL_practice	21	DL_practice	7	stimuli_distractor_diamondtriangles.svg	stimuli_distractor_diamondtriangles.svg	40	no	ta	1	1690	6	6	antiphase_hc_ois.wav	3	6	1	noise_calib_stim_LEFT.wav	1	18	blb_dichoticlistening_ga-ta.mp3	ga	ta	1	right
6.6.1	mac	2023-07-06	22:00:13	22:10:54	635918	601fe0abd9466c54b4ae2edf	4	1	DL_practice	21	DL_practice	8	stimuli_distractor_diamondtriangles.svg	stimuli_distractor_diamondtriangles.svg	40	no	ta	1	979	6	6	antiphase_hc_ois.wav	3	6	1	noise_calib_stim_LEFT.wav	1	36	blb_dichoticlistening_ta-ta.mp3	ta	ta	0	left
6.6.1	mac	2023-07-06	22:00:13	22:10:54	635918	601fe0abd9466c54b4ae2edf	4	1	DL_practice	21	DL_practice	9	stimuli_distractor_diamondtriangles.svg	stimuli_distractor_diamondtriangles.svg	40	no	ka	1	1211	6	6	antiphase_hc_ois.wav	3	6	1	noise_calib_stim_LEFT.wav	1	23	blb_dichoticlistening_ka-pa.mp3	ka	pa	1	left
6.6.1	mac	2023-07-06	22:00:13	22:10:54	635918	601fe0abd9466c54b4ae2edf	4	1	DL_practice	21	DL_practice	10	stimuli_distractor_diamondtriangles.svg	stimuli_distractor_diamondtriangles.svg	40	no	ba	1	1276	6	6	antiphase_hc_ois.wav	3	6	1	noise_calib_stim_LEFT.wav	1	7	blb_dichoticlistening_da-ba.mp3	da	ba	1	right
6.6.1	mac	2023-07-06	22:00:13	22:10:54	635918	601fe0abd9466c54b4ae2edf	4	1	DL_test	23	DL_test	1	stimuli_distractor_diamondtriangles.svg	stimuli_distractor_diamondtriangles.svg	40	no	ta	1	1560	6	6	antiphase_hc_ois.wav	3	6	1	noise_calib_stim_LEFT.wav	1	36	blb_dichoticlistening_ta-ta.mp3	ta	ta	0	left
6.6.1	mac	2023-07-06	22:00:13	22:10:54	635918	601fe0abd9466c54b4ae2edf	4	1	DL_test	23	DL_test	2	stimuli_distractor_diamondtriangles.svg	stimuli_distractor_diamondtriangles.svg	40	no	pa	1	1960	6	6	antiphase_hc_ois.wav	3	6	1	noise_calib_stim_LEFT.wav	1	25	blb_dichoticlistening_pa-ba.mp3	pa	ba	1	left
6.6.1	mac	2023-07-06	22:00:13	22:10:54	635918	601fe0abd9466c54b4ae2edf	4	1	DL_test	23	DL_test	3	stimuli_distractor_diamondtriangles.svg	stimuli_distractor_diamondtriangles.svg	40	no	ga	1	1029	6	6	antiphase_hc_ois.wav	3	6	1	noise_calib_stim_LEFT.wav	1	27	blb_dichoticlistening_pa-ga.mp3	pa	ga	1	right
6.6.1	mac	2023-07-06	22:00:13	22:10:54	635918	601fe0abd9466c54b4ae2edf	4	1	DL_test	23	DL_test	4	stimuli_distractor_diamondtriangles.svg	stimuli_distractor_diamondtriangles.svg	40	no	ga	1	1128	6	6	antiphase_hc_ois.wav	3	6	1	noise_calib_stim_LEFT.wav	1	17	blb_dichoticlistening_ga-pa.mp3	ga	pa	1	left
6.6.1	mac	2023-07-06	22:00:13	22:10:54	635918	601fe0abd9466c54b4ae2edf	4	1	DL_test	23	DL_test	5	stimuli_distractor_diamondtriangles.svg	stimuli_distractor_diamondtriangles.svg	40	no	ta	1	1185	6	6	antiphase_hc_ois.wav	3	6	1	noise_calib_stim_LEFT.wav	1	24	blb_dichoticlistening_ka-ta.mp3	ka	ta	1	right
6.6.1	mac	2023-07-06	22:00:13	22:10:54	635918	601fe0abd9466c54b4ae2edf	4	1	DL_test	23	DL_test	6	stimuli_distractor_diamondtriangles.svg	stimuli_distractor_diamondtriangles.svg	40	no	ka	1	968	6	6	antiphase_hc_ois.wav	3	6	1	noise_calib_stim_LEFT.wav	1	16	blb_dichoticlistening_ga-ka.mp3	ga	ka	1	right
6.6.1	mac	2023-07-06	22:00:13	22:10:54	635918	601fe0abd9466c54b4ae2edf	4	1	DL_test	23	DL_test	7	stimuli_distractor_diamondtriangles.svg	stimuli_distractor_diamondtriangles.svg	40	no	da	1	1284	6	6	antiphase_hc_ois.wav	3	6	1	noise_calib_stim_LEFT.wav	1	26	blb_dichoticlistening_pa-da.mp3	pa	da	1	right
6.6.1	mac	2023-07-06	22:00:13	22:10:54	635918	601fe0abd9466c54b4ae2edf	4	1	DL_test	23	DL_test	8	stimuli_distractor_diamondtriangles.svg	stimuli_distractor_diamondtriangles.svg	40	no	ba	1	814	6	6	antiphase_hc_ois.wav	3	6	1	noise_calib_stim_LEFT.wav	1	3	blb_dichoticlistening_ba-ga.mp3	ba	ga	1	left
6.6.1	mac	2023-07-06	22:00:13	22:10:54	635918	601fe0abd9466c54b4ae2edf	4	1	DL_test	23	DL_test	9	stimuli_distractor_diamondtriangles.svg	stimuli_distractor_diamondtriangles.svg	40	no	ka	1	917	6	6	antiphase_hc_ois.wav	3	6	1	noise_calib_stim_LEFT.wav	1	28	blb_dichoticlistening_pa-ka.mp3	pa	ka	1	right
6.6.1	mac	2023-07-06	22:00:13	22:10:54	635918	601fe0abd9466c54b4ae2edf	4	1	DL_test	23	DL_test	10	stimuli_distractor_diamondtriangles.svg	stimuli_distractor_diamondtriangles.svg	40	no	ba	1	1300	6	6	antiphase_hc_ois.wav	3	6	1	noise_calib_stim_LEFT.wav	1	5	blb_dichoticlistening_ba-pa.mp3	ba	pa	1	left
6.6.1	mac	2023-07-06	22:00:13	22:10:54	635918	601fe0abd9466c54b4ae2edf	4	1	DL_test	23	DL_test	11	stimuli_distractor_diamondtriangles.svg	stimuli_distractor_diamondtriangles.svg	40	no	ba	1	1125	6	6	antiphase_hc_ois.wav	3	6	1	noise_calib_stim_LEFT.wav	1	13	blb_dichoticlistening_ga-ba.mp3	ga	ba	1	right
6.6.1	mac	2023-07-06	22:00:13	22:10:54	635918	601fe0abd9466c54b4ae2edf	4	1	DL_test	23	DL_test	12	stimuli_distractor_diamondtriangles.svg	stimuli_distractor_diamondtriangles.svg	40	no	ka	1	1649	6	6	antiphase_hc_ois.wav	3	6	1	noise_calib_stim_LEFT.wav	1	20	blb_dichoticlistening_ka-da.mp3	ka	da	1	left
6.6.1	mac	2023-07-06	22:00:13	22:10:54	635918	601fe0abd9466c54b4ae2edf	4	1	DL_test	23	DL_test	13	stimuli_distractor_diamondtriangles.svg	stimuli_distractor_diamondtriangles.svg	40	no	da	1	1380	6	6	antiphase_hc_ois.wav	3	6	1	noise_calib_stim_LEFT.wav	1	8	blb_dichoticlistening_da-da.mp3	da	da	0	left
6.6.1	mac	2023-07-06	22:00:13	22:10:54	635918	601fe0abd9466c54b4ae2edf	4	1	DL_test	23	DL_test	14	stimuli_distractor_diamondtriangles.svg	stimuli_distractor_diamondtriangles.svg	40	no	ta	1	1702	6	6	antiphase_hc_ois.wav	3	6	1	noise_calib_stim_LEFT.wav	1	18	blb_dichoticlistening_ga-ta.mp3	ga	ta	1	right
6.6.1	mac	2023-07-06	22:00:13	22:10:54	635918	601fe0abd9466c54b4ae2edf	4	1	DL_test	23	DL_test	15	stimuli_distractor_diamondtriangles.svg	stimuli_distractor_diamondtriangles.svg	40	no	pa	1	1254	6	6	antiphase_hc_ois.wav	3	6	1	noise_calib_stim_LEFT.wav	1	11	blb_dichoticlistening_da-pa.mp3	da	pa	1	right
6.6.1	mac	2023-07-06	22:00:13	22:10:54	635918	601fe0abd9466c54b4ae2edf	4	1	DL_test	23	DL_test	16	stimuli_distractor_diamondtriangles.svg	stimuli_distractor_diamondtriangles.svg	40	no	ba	1	1893	6	6	antiphase_hc_ois.wav	3	6	1	noise_calib_stim_LEFT.wav	1	2	blb_dichoticlistening_ba-da.mp3	ba	da	1	left
6.6.1	mac	2023-07-06	22:00:13	22:10:54	635918	601fe0abd9466c54b4ae2edf	4	1	DL_test	23	DL_test	17	stimuli_distractor_diamondtriangles.svg	stimuli_distractor_diamondtriangles.svg	40	no	pa	0	1397	6	6	antiphase_hc_ois.wav	3	6	1	noise_calib_stim_LEFT.wav	1	10	blb_dichoticlistening_da-ka.mp3	da	ka	1	other
6.6.1	mac	2023-07-06	22:00:13	22:10:54	635918	601fe0abd9466c54b4ae2edf	4	1	DL_test	23	DL_test	18	stimuli_distractor_diamondtriangles.svg	stimuli_distractor_diamondtriangles.svg	40	no	pa	0	1798	6	6	antiphase_hc_ois.wav	3	6	1	noise_calib_stim_LEFT.wav	1	7	blb_dichoticlistening_da-ba.mp3	da	ba	1	other
6.6.1	mac	2023-07-06	22:00:13	22:10:54	635918	601fe0abd9466c54b4ae2edf	4	1	DL_test	23	DL_test	19	stimuli_distractor_diamondtriangles.svg	stimuli_distractor_diamondtriangles.svg	40	no	ta	1	1090	6	6	antiphase_hc_ois.wav	3	6	1	noise_calib_stim_LEFT.wav	1	35	blb_dichoticlistening_ta-pa.mp3	ta	pa	1	left
6.6.1	mac	2023-07-06	22:00:13	22:10:54	635918	601fe0abd9466c54b4ae2edf	4	1	DL_test	23	DL_test	20	stimuli_distractor_diamondtriangles.svg	stimuli_distractor_diamondtriangles.svg	40	no	ka	1	949	6	6	antiphase_hc_ois.wav	3	6	1	noise_calib_stim_LEFT.wav	1	23	blb_dichoticlistening_ka-pa.mp3	ka	pa	1	left
6.6.1	mac	2023-07-06	22:00:13	22:10:54	635918	601fe0abd9466c54b4ae2edf	4	1	DL_test	23	DL_test	21	stimuli_distractor_diamondtriangles.svg	stimuli_distractor_diamondtriangles.svg	40	no	ta	1	2473	6	6	antiphase_hc_ois.wav	3	6	1	noise_calib_stim_LEFT.wav	1	30	blb_dichoticlistening_pa-ta.mp3	pa	ta	1	right
6.6.1	mac	2023-07-06	22:00:13	22:10:54	635918	601fe0abd9466c54b4ae2edf	4	1	DL_test	23	DL_test	22	stimuli_distractor_diamondtriangles.svg	stimuli_distractor_diamondtriangles.svg	40	no	ga	1	1025	6	6	antiphase_hc_ois.wav	3	6	1	noise_calib_stim_LEFT.wav	1	33	blb_dichoticlistening_ta-ga.mp3	ta	ga	1	right
6.6.1	mac	2023-07-06	22:00:13	22:10:54	635918	601fe0abd9466c54b4ae2edf	4	1	DL_test	23	DL_test	23	stimuli_distractor_diamondtriangles.svg	stimuli_distractor_diamondtriangles.svg	40	no	ga	0	2184	6	6	antiphase_hc_ois.wav	3	6	1	noise_calib_stim_LEFT.wav	1	31	blb_dichoticlistening_ta-ba.mp3	ta	ba	1	other
6.6.1	mac	2023-07-06	22:00:13	22:10:54	635918	601fe0abd9466c54b4ae2edf	4	1	DL_test	23	DL_test	24	stimuli_distractor_diamondtriangles.svg	stimuli_distractor_diamondtriangles.svg	40	no	da	1	1672	6	6	antiphase_hc_ois.wav	3	6	1	noise_calib_stim_LEFT.wav	1	9	blb_dichoticlistening_da-ga.mp3	da	ga	1	left
6.6.1	mac	2023-07-06	22:00:13	22:10:54	635918	601fe0abd9466c54b4ae2edf	4	1	DL_test	23	DL_test	25	stimuli_distractor_diamondtriangles.svg	stimuli_distractor_diamondtriangles.svg	40	no	ba	1	1218	6	6	antiphase_hc_ois.wav	3	6	1	noise_calib_stim_LEFT.wav	1	1	blb_dichoticlistening_ba-ba.mp3	ba	ba	0	left
