build	computer.platform	date	time	timestamp	time_elapsed_ms	subject	group	session	blockcode	blocknum	trialcode	trialnum	stimulus_left	stimulus_right	stim_index	target_present	response	correct	latency	headphonecheck_countTestTrials	headphonecheck_index	headphonecheck_testSound	headphonecheck_correctResponse	stereocheck_countTestTrials	stereocheck_index	stereocheck_testSound	stereocheck_correctResponse	DL_index	DL_soundfile	DL_leftSound	DL_rightSound	DL_dualSound	DL_choice
6.6.1	win	2023-06-27	12:24:35	12:27:39	180639	62cdb59eb5cfe2052ca5074c	3	1	practice_slash	5	practice_slash	1	stimuli_distractor_trianglediamonds.svg	stimuli_target_squarediamonds.svg	11	yes	53	1	618	0	0			0	0			1				0	
6.6.1	win	2023-06-27	12:24:35	12:27:39	180639	62cdb59eb5cfe2052ca5074c	3	1	practice_slash	5	advance_on_keypress_SLASH	2	stimuli_distractor_trianglediamonds.svg	stimuli_target_squarediamonds.svg	11	yes	57	0	1959	0	0			0	0			1				0	
6.6.1	win	2023-06-27	12:24:35	12:27:43	184799	62cdb59eb5cfe2052ca5074c	3	1	practice_slash	5	practice_slash	3	stimuli_distractor_diamondtriangles.svg	stimuli_distractor_trianglediamonds.svg	14	no	53	0	560	0	0			0	0			1				0	
6.6.1	win	2023-06-27	12:24:35	12:27:43	184799	62cdb59eb5cfe2052ca5074c	3	1	practice_slash	5	advance_on_keypress_SLASH	4	stimuli_distractor_diamondtriangles.svg	stimuli_distractor_trianglediamonds.svg	14	no	57	0	1633	0	0			0	0			1				0	
6.6.1	win	2023-06-27	12:24:35	12:27:49	190072	62cdb59eb5cfe2052ca5074c	3	1	practice_slash	5	practice_slash	5	stimuli_distractor_trianglediamonds.svg	stimuli_distractor_trianglediamonds.svg	15	no	0	1	2000	0	0			0	0			1				0	
6.6.1	win	2023-06-27	12:24:35	12:27:49	190072	62cdb59eb5cfe2052ca5074c	3	1	practice_slash	5	advance_on_keypress_SLASH	6	stimuli_distractor_trianglediamonds.svg	stimuli_distractor_trianglediamonds.svg	15	no	57	0	1622	0	0			0	0			1				0	
6.6.1	win	2023-06-27	12:24:35	12:27:52	193903	62cdb59eb5cfe2052ca5074c	3	1	practice_slash	5	practice_slash	7	stimuli_target_squarediamonds.svg	stimuli_distractor_diamondtriangles.svg	2	yes	53	1	564	0	0			0	0			1				0	
6.6.1	win	2023-06-27	12:24:35	12:27:52	193903	62cdb59eb5cfe2052ca5074c	3	1	practice_slash	5	advance_on_keypress_SLASH	8	stimuli_target_squarediamonds.svg	stimuli_distractor_diamondtriangles.svg	2	yes	57	0	909	0	0			0	0			1				0	
6.6.1	win	2023-06-27	12:24:35	12:27:55	196894	62cdb59eb5cfe2052ca5074c	3	1	practice_slash	5	practice_slash	9	stimuli_distractor_diamondtriangles.svg	stimuli_target_trianglerectangles.svg	9	yes	53	1	439	0	0			0	0			1				0	
6.6.1	win	2023-06-27	12:24:35	12:27:55	196894	62cdb59eb5cfe2052ca5074c	3	1	practice_slash	5	advance_on_keypress_SLASH	10	stimuli_distractor_diamondtriangles.svg	stimuli_target_trianglerectangles.svg	9	yes	57	0	973	0	0			0	0			1				0	
6.6.1	win	2023-06-27	12:24:35	12:27:59	200150	62cdb59eb5cfe2052ca5074c	3	1	practice_slash	5	practice_slash	11	stimuli_target_rectanglediamonds.svg	stimuli_distractor_diamondtriangles.svg	1	yes	53	1	645	0	0			0	0			1				0	
6.6.1	win	2023-06-27	12:24:35	12:27:59	200150	62cdb59eb5cfe2052ca5074c	3	1	practice_slash	5	advance_on_keypress_SLASH	12	stimuli_target_rectanglediamonds.svg	stimuli_distractor_diamondtriangles.svg	1	yes	57	0	683	0	0			0	0			1				0	
6.6.1	win	2023-06-27	12:24:35	12:28:02	203126	62cdb59eb5cfe2052ca5074c	3	1	practice_slash	5	practice_slash	13	stimuli_target_diamondsquares.svg	stimuli_distractor_diamondtriangles.svg	3	yes	53	1	638	0	0			0	0			1				0	
6.6.1	win	2023-06-27	12:24:35	12:28:02	203126	62cdb59eb5cfe2052ca5074c	3	1	practice_slash	5	advance_on_keypress_SLASH	14	stimuli_target_diamondsquares.svg	stimuli_distractor_diamondtriangles.svg	3	yes	57	0	884	0	0			0	0			1				0	
6.6.1	win	2023-06-27	12:24:35	12:28:05	206230	62cdb59eb5cfe2052ca5074c	3	1	practice_slash	5	practice_slash	15	stimuli_target_squarediamonds.svg	stimuli_distractor_trianglediamonds.svg	5	yes	53	1	575	0	0			0	0			1				0	
6.6.1	win	2023-06-27	12:24:35	12:28:05	206230	62cdb59eb5cfe2052ca5074c	3	1	practice_slash	5	advance_on_keypress_SLASH	16	stimuli_target_squarediamonds.svg	stimuli_distractor_trianglediamonds.svg	5	yes	57	0	568	0	0			0	0			1				0	
6.6.1	win	2023-06-27	12:24:35	12:28:09	210439	62cdb59eb5cfe2052ca5074c	3	1	practice_slash	5	practice_slash	17	stimuli_distractor_trianglediamonds.svg	stimuli_distractor_diamondtriangles.svg	16	no	0	1	2000	0	0			0	0			1				0	
6.6.1	win	2023-06-27	12:24:35	12:28:09	210439	62cdb59eb5cfe2052ca5074c	3	1	practice_slash	5	advance_on_keypress_SLASH	18	stimuli_distractor_trianglediamonds.svg	stimuli_distractor_diamondtriangles.svg	16	no	57	0	847	0	0			0	0			1				0	
6.6.1	win	2023-06-27	12:24:35	12:28:12	213615	62cdb59eb5cfe2052ca5074c	3	1	practice_slash	5	practice_slash	19	stimuli_distractor_diamondtriangles.svg	stimuli_target_rectangletriangles.svg	7	yes	53	1	676	0	0			0	0			1				0	
6.6.1	win	2023-06-27	12:24:35	12:28:12	213615	62cdb59eb5cfe2052ca5074c	3	1	practice_slash	5	advance_on_keypress_SLASH	20	stimuli_distractor_diamondtriangles.svg	stimuli_target_rectangletriangles.svg	7	yes	57	0	649	0	0			0	0			1				0	
6.6.1	win	2023-06-27	12:24:35	12:28:15	216790	62cdb59eb5cfe2052ca5074c	3	1	practice_slash	5	practice_slash	21	stimuli_distractor_trianglediamonds.svg	stimuli_target_diamondrectangles.svg	12	yes	53	1	885	0	0			0	0			1				0	
6.6.1	win	2023-06-27	12:24:35	12:28:15	216790	62cdb59eb5cfe2052ca5074c	3	1	practice_slash	5	advance_on_keypress_SLASH	22	stimuli_distractor_trianglediamonds.svg	stimuli_target_diamondrectangles.svg	12	yes	57	0	649	0	0			0	0			1				0	
6.6.1	win	2023-06-27	12:24:35	12:28:18	219799	62cdb59eb5cfe2052ca5074c	3	1	practice_slash	5	practice_slash	23	stimuli_distractor_diamondtriangles.svg	stimuli_target_diamondrectangles.svg	8	yes	53	1	710	0	0			0	0			1				0	
6.6.1	win	2023-06-27	12:24:35	12:28:18	219799	62cdb59eb5cfe2052ca5074c	3	1	practice_slash	5	advance_on_keypress_SLASH	24	stimuli_distractor_diamondtriangles.svg	stimuli_target_diamondrectangles.svg	8	yes	57	0	849	0	0			0	0			1				0	
6.6.1	win	2023-06-27	12:24:35	12:28:22	223039	62cdb59eb5cfe2052ca5074c	3	1	practice_slash	5	practice_slash	25	stimuli_target_rectanglediamonds.svg	stimuli_distractor_trianglediamonds.svg	4	yes	53	1	750	0	0			0	0			1				0	
6.6.1	win	2023-06-27	12:24:35	12:28:22	223039	62cdb59eb5cfe2052ca5074c	3	1	practice_slash	5	advance_on_keypress_SLASH	26	stimuli_target_rectanglediamonds.svg	stimuli_distractor_trianglediamonds.svg	4	yes	57	0	551	0	0			0	0			1				0	
6.6.1	win	2023-06-27	12:24:35	12:28:25	226007	62cdb59eb5cfe2052ca5074c	3	1	practice_slash	5	practice_slash	27	stimuli_target_diamondsquares.svg	stimuli_distractor_trianglediamonds.svg	6	yes	53	1	768	0	0			0	0			1				0	
6.6.1	win	2023-06-27	12:24:35	12:28:25	226007	62cdb59eb5cfe2052ca5074c	3	1	practice_slash	5	advance_on_keypress_SLASH	28	stimuli_target_diamondsquares.svg	stimuli_distractor_trianglediamonds.svg	6	yes	57	0	553	0	0			0	0			1				0	
6.6.1	win	2023-06-27	12:24:35	12:28:29	230205	62cdb59eb5cfe2052ca5074c	3	1	practice_slash	5	practice_slash	29	stimuli_distractor_diamondtriangles.svg	stimuli_distractor_diamondtriangles.svg	13	no	0	1	2000	0	0			0	0			1				0	
6.6.1	win	2023-06-27	12:24:35	12:28:29	230205	62cdb59eb5cfe2052ca5074c	3	1	practice_slash	5	advance_on_keypress_SLASH	30	stimuli_distractor_diamondtriangles.svg	stimuli_distractor_diamondtriangles.svg	13	no	57	0	801	0	0			0	0			1				0	
6.6.1	win	2023-06-27	12:24:35	12:28:32	233239	62cdb59eb5cfe2052ca5074c	3	1	practice_slash	5	practice_slash	31	stimuli_distractor_trianglediamonds.svg	stimuli_target_rectanglediamonds.svg	10	yes	53	1	583	0	0			0	0			1				0	
6.6.1	win	2023-06-27	12:24:35	12:28:32	233239	62cdb59eb5cfe2052ca5074c	3	1	practice_slash	5	advance_on_keypress_SLASH	32	stimuli_distractor_trianglediamonds.svg	stimuli_target_rectanglediamonds.svg	10	yes	57	0	711	0	0			0	0			1				0	
6.6.1	win	2023-06-27	12:24:35	12:28:42	242965	62cdb59eb5cfe2052ca5074c	3	1	main_slash	7	main_slash	1	stimuli_target_diamondsquares.svg	stimuli_distractor_trianglediamonds.svg	20	yes	53	1	711	0	0			0	0			1				0	
6.6.1	win	2023-06-27	12:24:35	12:28:42	242965	62cdb59eb5cfe2052ca5074c	3	1	main_slash	7	advance_on_keypress_SLASH	2	stimuli_target_diamondsquares.svg	stimuli_distractor_trianglediamonds.svg	20	yes	57	0	1203	0	0			0	0			1				0	
6.6.1	win	2023-06-27	12:24:35	12:28:45	246804	62cdb59eb5cfe2052ca5074c	3	1	main_slash	7	main_slash	3	stimuli_distractor_diamondtriangles.svg	stimuli_distractor_trianglediamonds.svg	38	no	0	1	2000	0	0			0	0			1				0	
6.6.1	win	2023-06-27	12:24:35	12:28:45	246804	62cdb59eb5cfe2052ca5074c	3	1	main_slash	7	advance_on_keypress_SLASH	4	stimuli_distractor_diamondtriangles.svg	stimuli_distractor_trianglediamonds.svg	38	no	57	0	737	0	0			0	0			1				0	
6.6.1	win	2023-06-27	12:24:35	12:28:48	248941	62cdb59eb5cfe2052ca5074c	3	1	main_slash	7	main_slash	5	stimuli_distractor_trianglediamonds.svg	stimuli_target_rectanglediamonds.svg	10	yes	53	1	754	0	0			0	0			1				0	
6.6.1	win	2023-06-27	12:24:35	12:28:48	248941	62cdb59eb5cfe2052ca5074c	3	1	main_slash	7	advance_on_keypress_SLASH	6	stimuli_distractor_trianglediamonds.svg	stimuli_target_rectanglediamonds.svg	10	yes	57	0	1235	0	0			0	0			1				0	
6.6.1	win	2023-06-27	12:24:35	12:28:50	251324	62cdb59eb5cfe2052ca5074c	3	1	main_slash	7	main_slash	7	stimuli_distractor_trianglediamonds.svg	stimuli_target_squarediamonds.svg	12	yes	53	1	505	0	0			0	0			1				0	
6.6.1	win	2023-06-27	12:24:35	12:28:50	251324	62cdb59eb5cfe2052ca5074c	3	1	main_slash	7	advance_on_keypress_SLASH	8	stimuli_distractor_trianglediamonds.svg	stimuli_target_squarediamonds.svg	12	yes	57	0	1076	0	0			0	0			1				0	
6.6.1	win	2023-06-27	12:24:35	12:28:52	253781	62cdb59eb5cfe2052ca5074c	3	1	main_slash	7	main_slash	9	stimuli_target_squaretriangles.svg	stimuli_distractor_trianglediamonds.svg	3	yes	53	1	744	0	0			0	0			1				0	
6.6.1	win	2023-06-27	12:24:35	12:28:52	253781	62cdb59eb5cfe2052ca5074c	3	1	main_slash	7	advance_on_keypress_SLASH	10	stimuli_target_squaretriangles.svg	stimuli_distractor_trianglediamonds.svg	3	yes	57	0	906	0	0			0	0			1				0	
6.6.1	win	2023-06-27	12:24:35	12:28:55	256133	62cdb59eb5cfe2052ca5074c	3	1	main_slash	7	main_slash	11	stimuli_target_rectangletriangles.svg	stimuli_distractor_trianglediamonds.svg	1	yes	53	1	813	0	0			0	0			1				0	
6.6.1	win	2023-06-27	12:24:35	12:28:55	256133	62cdb59eb5cfe2052ca5074c	3	1	main_slash	7	advance_on_keypress_SLASH	12	stimuli_target_rectangletriangles.svg	stimuli_distractor_trianglediamonds.svg	1	yes	57	0	1564	0	0			0	0			1				0	
6.6.1	win	2023-06-27	12:24:35	12:28:57	258901	62cdb59eb5cfe2052ca5074c	3	1	main_slash	7	main_slash	13	stimuli_target_squarediamonds.svg	stimuli_distractor_diamondtriangles.svg	8	yes	53	1	564	0	0			0	0			1				0	
6.6.1	win	2023-06-27	12:24:35	12:28:57	258901	62cdb59eb5cfe2052ca5074c	3	1	main_slash	7	advance_on_keypress_SLASH	14	stimuli_target_squarediamonds.svg	stimuli_distractor_diamondtriangles.svg	8	yes	57	0	909	0	0			0	0			1				0	
6.6.1	win	2023-06-27	12:24:35	12:28:59	260925	62cdb59eb5cfe2052ca5074c	3	1	main_slash	7	main_slash	15	stimuli_target_squarediamonds.svg	stimuli_distractor_trianglediamonds.svg	4	yes	53	1	488	0	0			0	0			1				0	
6.6.1	win	2023-06-27	12:24:35	12:28:59	260925	62cdb59eb5cfe2052ca5074c	3	1	main_slash	7	advance_on_keypress_SLASH	16	stimuli_target_squarediamonds.svg	stimuli_distractor_trianglediamonds.svg	4	yes	57	0	2620	0	0			0	0			1				0	
6.6.1	win	2023-06-27	12:24:35	12:29:05	266187	62cdb59eb5cfe2052ca5074c	3	1	main_slash	7	main_slash	17	stimuli_distractor_trianglediamonds.svg	stimuli_target_squaretriangles.svg	11	yes	0	0	2000	0	0			0	0			1				0	
6.6.1	win	2023-06-27	12:24:35	12:29:05	266187	62cdb59eb5cfe2052ca5074c	3	1	main_slash	7	advance_on_keypress_SLASH	18	stimuli_distractor_trianglediamonds.svg	stimuli_target_squaretriangles.svg	11	yes	57	0	633	0	0			0	0			1				0	
6.6.1	win	2023-06-27	12:24:35	12:29:08	269471	62cdb59eb5cfe2052ca5074c	3	1	main_slash	7	main_slash	19	stimuli_target_diamondrectangles.svg	stimuli_distractor_trianglediamonds.svg	19	yes	0	0	2000	0	0			0	0			1				0	
6.6.1	win	2023-06-27	12:24:35	12:29:08	269471	62cdb59eb5cfe2052ca5074c	3	1	main_slash	7	advance_on_keypress_SLASH	20	stimuli_target_diamondrectangles.svg	stimuli_distractor_trianglediamonds.svg	19	yes	57	0	734	0	0			0	0			1				0	
6.6.1	win	2023-06-27	12:24:35	12:29:10	271405	62cdb59eb5cfe2052ca5074c	3	1	main_slash	7	main_slash	21	stimuli_distractor_diamondtriangles.svg	stimuli_target_trianglesquares.svg	30	yes	53	1	551	0	0			0	0			1				0	
6.6.1	win	2023-06-27	12:24:35	12:29:10	271405	62cdb59eb5cfe2052ca5074c	3	1	main_slash	7	advance_on_keypress_SLASH	22	stimuli_distractor_diamondtriangles.svg	stimuli_target_trianglesquares.svg	30	yes	57	0	1841	0	0			0	0			1				0	
6.6.1	win	2023-06-27	12:24:35	12:29:13	274845	62cdb59eb5cfe2052ca5074c	3	1	main_slash	7	main_slash	23	stimuli_target_trianglerectangles.svg	stimuli_distractor_diamondtriangles.svg	21	yes	53	1	958	0	0			0	0			1				0	
6.6.1	win	2023-06-27	12:24:35	12:29:13	274845	62cdb59eb5cfe2052ca5074c	3	1	main_slash	7	advance_on_keypress_SLASH	24	stimuli_target_trianglerectangles.svg	stimuli_distractor_diamondtriangles.svg	21	yes	57	0	1295	0	0			0	0			1				0	
6.6.1	win	2023-06-27	12:24:35	12:29:16	277517	62cdb59eb5cfe2052ca5074c	3	1	main_slash	7	main_slash	25	stimuli_target_squaretriangles.svg	stimuli_distractor_diamondtriangles.svg	7	yes	53	1	747	0	0			0	0			1				0	
6.6.1	win	2023-06-27	12:24:35	12:29:16	277517	62cdb59eb5cfe2052ca5074c	3	1	main_slash	7	advance_on_keypress_SLASH	26	stimuli_target_squaretriangles.svg	stimuli_distractor_diamondtriangles.svg	7	yes	57	0	868	0	0			0	0			1				0	
6.6.1	win	2023-06-27	12:24:35	12:29:19	280189	62cdb59eb5cfe2052ca5074c	3	1	main_slash	7	main_slash	27	stimuli_distractor_trianglediamonds.svg	stimuli_target_diamondrectangles.svg	27	yes	53	1	1152	0	0			0	0			1				0	
6.6.1	win	2023-06-27	12:24:35	12:29:19	280189	62cdb59eb5cfe2052ca5074c	3	1	main_slash	7	advance_on_keypress_SLASH	28	stimuli_distractor_trianglediamonds.svg	stimuli_target_diamondrectangles.svg	27	yes	57	0	1073	0	0			0	0			1				0	
6.6.1	win	2023-06-27	12:24:35	12:29:22	283061	62cdb59eb5cfe2052ca5074c	3	1	main_slash	7	main_slash	29	stimuli_target_diamondrectangles.svg	stimuli_distractor_diamondtriangles.svg	23	yes	53	1	1157	0	0			0	0			1				0	
6.6.1	win	2023-06-27	12:24:35	12:29:22	283061	62cdb59eb5cfe2052ca5074c	3	1	main_slash	7	advance_on_keypress_SLASH	30	stimuli_target_diamondrectangles.svg	stimuli_distractor_diamondtriangles.svg	23	yes	57	0	1423	0	0			0	0			1				0	
6.6.1	win	2023-06-27	12:24:35	12:29:26	287121	62cdb59eb5cfe2052ca5074c	3	1	main_slash	7	main_slash	31	stimuli_distractor_trianglediamonds.svg	stimuli_distractor_trianglediamonds.svg	33	no	0	1	2000	0	0			0	0			1				0	
6.6.1	win	2023-06-27	12:24:35	12:29:26	287121	62cdb59eb5cfe2052ca5074c	3	1	main_slash	7	advance_on_keypress_SLASH	32	stimuli_distractor_trianglediamonds.svg	stimuli_distractor_trianglediamonds.svg	33	no	57	0	644	0	0			0	0			1				0	
6.6.1	win	2023-06-27	12:24:35	12:29:29	290404	62cdb59eb5cfe2052ca5074c	3	1	main_slash	7	main_slash	33	stimuli_distractor_trianglediamonds.svg	stimuli_distractor_diamondtriangles.svg	35	no	0	1	2000	0	0			0	0			1				0	
6.6.1	win	2023-06-27	12:24:35	12:29:29	290404	62cdb59eb5cfe2052ca5074c	3	1	main_slash	7	advance_on_keypress_SLASH	34	stimuli_distractor_trianglediamonds.svg	stimuli_distractor_diamondtriangles.svg	35	no	57	0	1857	0	0			0	0			1				0	
6.6.1	win	2023-06-27	12:24:35	12:29:32	293765	62cdb59eb5cfe2052ca5074c	3	1	main_slash	7	main_slash	35	stimuli_target_trianglesquares.svg	stimuli_distractor_diamondtriangles.svg	22	yes	53	1	861	0	0			0	0			1				0	
6.6.1	win	2023-06-27	12:24:35	12:29:32	293765	62cdb59eb5cfe2052ca5074c	3	1	main_slash	7	advance_on_keypress_SLASH	36	stimuli_target_trianglesquares.svg	stimuli_distractor_diamondtriangles.svg	22	yes	57	0	947	0	0			0	0			1				0	
6.6.1	win	2023-06-27	12:24:35	12:29:36	297354	62cdb59eb5cfe2052ca5074c	3	1	main_slash	7	main_slash	37	stimuli_distractor_trianglediamonds.svg	stimuli_distractor_diamondtriangles.svg	36	no	0	1	2000	0	0			0	0			1				0	
6.6.1	win	2023-06-27	12:24:35	12:29:36	297354	62cdb59eb5cfe2052ca5074c	3	1	main_slash	7	advance_on_keypress_SLASH	38	stimuli_distractor_trianglediamonds.svg	stimuli_distractor_diamondtriangles.svg	36	no	57	0	1010	0	0			0	0			1				0	
6.6.1	win	2023-06-27	12:24:35	12:29:40	301004	62cdb59eb5cfe2052ca5074c	3	1	main_slash	7	main_slash	39	stimuli_distractor_diamondtriangles.svg	stimuli_target_rectangletriangles.svg	13	yes	0	0	2000	0	0			0	0			1				0	
6.6.1	win	2023-06-27	12:24:35	12:29:40	301004	62cdb59eb5cfe2052ca5074c	3	1	main_slash	7	advance_on_keypress_SLASH	40	stimuli_distractor_diamondtriangles.svg	stimuli_target_rectangletriangles.svg	13	yes	57	0	793	0	0			0	0			1				0	
6.6.1	win	2023-06-27	12:24:35	12:29:42	302997	62cdb59eb5cfe2052ca5074c	3	1	main_slash	7	main_slash	41	stimuli_target_rectanglediamonds.svg	stimuli_distractor_diamondtriangles.svg	6	yes	53	1	560	0	0			0	0			1				0	
6.6.1	win	2023-06-27	12:24:35	12:29:42	302997	62cdb59eb5cfe2052ca5074c	3	1	main_slash	7	advance_on_keypress_SLASH	42	stimuli_target_rectanglediamonds.svg	stimuli_distractor_diamondtriangles.svg	6	yes	57	0	889	0	0			0	0			1				0	
6.6.1	win	2023-06-27	12:24:35	12:29:44	305261	62cdb59eb5cfe2052ca5074c	3	1	main_slash	7	main_slash	43	stimuli_distractor_trianglediamonds.svg	stimuli_target_trianglerectangles.svg	25	yes	53	1	740	0	0			0	0			1				0	
6.6.1	win	2023-06-27	12:24:35	12:29:44	305261	62cdb59eb5cfe2052ca5074c	3	1	main_slash	7	advance_on_keypress_SLASH	44	stimuli_distractor_trianglediamonds.svg	stimuli_target_trianglerectangles.svg	25	yes	57	0	831	0	0			0	0			1				0	
6.6.1	win	2023-06-27	12:24:35	12:29:46	307557	62cdb59eb5cfe2052ca5074c	3	1	main_slash	7	main_slash	45	stimuli_target_rectangletriangles.svg	stimuli_distractor_diamondtriangles.svg	5	yes	53	1	820	0	0			0	0			1				0	
6.6.1	win	2023-06-27	12:24:35	12:29:46	307557	62cdb59eb5cfe2052ca5074c	3	1	main_slash	7	advance_on_keypress_SLASH	46	stimuli_target_rectangletriangles.svg	stimuli_distractor_diamondtriangles.svg	5	yes	57	0	1123	0	0			0	0			1				0	
6.6.1	win	2023-06-27	12:24:35	12:29:50	311321	62cdb59eb5cfe2052ca5074c	3	1	main_slash	7	main_slash	47	stimuli_distractor_diamondtriangles.svg	stimuli_distractor_diamondtriangles.svg	39	no	0	1	2000	0	0			0	0			1				0	
6.6.1	win	2023-06-27	12:24:35	12:29:50	311321	62cdb59eb5cfe2052ca5074c	3	1	main_slash	7	advance_on_keypress_SLASH	48	stimuli_distractor_diamondtriangles.svg	stimuli_distractor_diamondtriangles.svg	39	no	57	0	724	0	0			0	0			1				0	
6.6.1	win	2023-06-27	12:24:35	12:29:53	314687	62cdb59eb5cfe2052ca5074c	3	1	main_slash	7	main_slash	49	stimuli_distractor_diamondtriangles.svg	stimuli_distractor_trianglediamonds.svg	37	no	0	1	2000	0	0			0	0			1				0	
6.6.1	win	2023-06-27	12:24:35	12:29:53	314687	62cdb59eb5cfe2052ca5074c	3	1	main_slash	7	advance_on_keypress_SLASH	50	stimuli_distractor_diamondtriangles.svg	stimuli_distractor_trianglediamonds.svg	37	no	57	0	1045	0	0			0	0			1				0	
6.6.1	win	2023-06-27	12:24:35	12:29:55	316900	62cdb59eb5cfe2052ca5074c	3	1	main_slash	7	main_slash	51	stimuli_distractor_trianglediamonds.svg	stimuli_target_diamondsquares.svg	28	yes	53	1	531	0	0			0	0			1				0	
6.6.1	win	2023-06-27	12:24:35	12:29:55	316900	62cdb59eb5cfe2052ca5074c	3	1	main_slash	7	advance_on_keypress_SLASH	52	stimuli_distractor_trianglediamonds.svg	stimuli_target_diamondsquares.svg	28	yes	57	0	829	0	0			0	0			1				0	
6.6.1	win	2023-06-27	12:24:35	12:29:57	318917	62cdb59eb5cfe2052ca5074c	3	1	main_slash	7	main_slash	53	stimuli_distractor_trianglediamonds.svg	stimuli_target_trianglesquares.svg	26	yes	53	1	563	0	0			0	0			1				0	
6.6.1	win	2023-06-27	12:24:35	12:29:57	318917	62cdb59eb5cfe2052ca5074c	3	1	main_slash	7	advance_on_keypress_SLASH	54	stimuli_distractor_trianglediamonds.svg	stimuli_target_trianglesquares.svg	26	yes	57	0	621	0	0			0	0			1				0	
6.6.1	win	2023-06-27	12:24:35	12:29:59	320933	62cdb59eb5cfe2052ca5074c	3	1	main_slash	7	main_slash	55	stimuli_target_diamondsquares.svg	stimuli_distractor_diamondtriangles.svg	24	yes	53	1	763	0	0			0	0			1				0	
6.6.1	win	2023-06-27	12:24:35	12:29:59	320933	62cdb59eb5cfe2052ca5074c	3	1	main_slash	7	advance_on_keypress_SLASH	56	stimuli_target_diamondsquares.svg	stimuli_distractor_diamondtriangles.svg	24	yes	57	0	876	0	0			0	0			1				0	
6.6.1	win	2023-06-27	12:24:35	12:30:02	323021	62cdb59eb5cfe2052ca5074c	3	1	main_slash	7	main_slash	57	stimuli_target_rectanglediamonds.svg	stimuli_distractor_trianglediamonds.svg	2	yes	53	1	584	0	0			0	0			1				0	
6.6.1	win	2023-06-27	12:24:35	12:30:02	323021	62cdb59eb5cfe2052ca5074c	3	1	main_slash	7	advance_on_keypress_SLASH	58	stimuli_target_rectanglediamonds.svg	stimuli_distractor_trianglediamonds.svg	2	yes	57	0	1000	0	0			0	0			1				0	
6.6.1	win	2023-06-27	12:24:35	12:30:04	325661	62cdb59eb5cfe2052ca5074c	3	1	main_slash	7	main_slash	59	stimuli_target_trianglerectangles.svg	stimuli_distractor_trianglediamonds.svg	17	yes	53	1	991	0	0			0	0			1				0	
6.6.1	win	2023-06-27	12:24:35	12:30:04	325661	62cdb59eb5cfe2052ca5074c	3	1	main_slash	7	advance_on_keypress_SLASH	60	stimuli_target_trianglerectangles.svg	stimuli_distractor_trianglediamonds.svg	17	yes	57	0	1111	0	0			0	0			1				0	
6.6.1	win	2023-06-27	12:24:35	12:30:07	328029	62cdb59eb5cfe2052ca5074c	3	1	main_slash	7	main_slash	61	stimuli_target_trianglesquares.svg	stimuli_distractor_trianglediamonds.svg	18	yes	53	1	625	0	0			0	0			1				0	
6.6.1	win	2023-06-27	12:24:35	12:30:07	328029	62cdb59eb5cfe2052ca5074c	3	1	main_slash	7	advance_on_keypress_SLASH	62	stimuli_target_trianglesquares.svg	stimuli_distractor_trianglediamonds.svg	18	yes	57	0	1208	0	0			0	0			1				0	
6.6.1	win	2023-06-27	12:24:35	12:30:09	330414	62cdb59eb5cfe2052ca5074c	3	1	main_slash	7	main_slash	63	stimuli_distractor_diamondtriangles.svg	stimuli_target_diamondsquares.svg	32	yes	53	1	543	0	0			0	0			1				0	
6.6.1	win	2023-06-27	12:24:35	12:30:09	330414	62cdb59eb5cfe2052ca5074c	3	1	main_slash	7	advance_on_keypress_SLASH	64	stimuli_distractor_diamondtriangles.svg	stimuli_target_diamondsquares.svg	32	yes	57	0	657	0	0			0	0			1				0	
6.6.1	win	2023-06-27	12:24:35	12:30:12	333704	62cdb59eb5cfe2052ca5074c	3	1	main_slash	7	main_slash	65	stimuli_distractor_diamondtriangles.svg	stimuli_distractor_diamondtriangles.svg	40	no	0	1	2000	0	0			0	0			1				0	
6.6.1	win	2023-06-27	12:24:35	12:30:12	333704	62cdb59eb5cfe2052ca5074c	3	1	main_slash	7	advance_on_keypress_SLASH	66	stimuli_distractor_diamondtriangles.svg	stimuli_distractor_diamondtriangles.svg	40	no	57	0	1661	0	0			0	0			1				0	
6.6.1	win	2023-06-27	12:24:35	12:30:15	336508	62cdb59eb5cfe2052ca5074c	3	1	main_slash	7	main_slash	67	stimuli_distractor_diamondtriangles.svg	stimuli_target_trianglerectangles.svg	29	yes	53	1	505	0	0			0	0			1				0	
6.6.1	win	2023-06-27	12:24:35	12:30:15	336508	62cdb59eb5cfe2052ca5074c	3	1	main_slash	7	advance_on_keypress_SLASH	68	stimuli_distractor_diamondtriangles.svg	stimuli_target_trianglerectangles.svg	29	yes	57	0	1405	0	0			0	0			1				0	
6.6.1	win	2023-06-27	12:24:35	12:30:18	339357	62cdb59eb5cfe2052ca5074c	3	1	main_slash	7	main_slash	69	stimuli_distractor_diamondtriangles.svg	stimuli_target_rectanglediamonds.svg	14	yes	53	1	803	0	0			0	0			1				0	
6.6.1	win	2023-06-27	12:24:35	12:30:18	339357	62cdb59eb5cfe2052ca5074c	3	1	main_slash	7	advance_on_keypress_SLASH	70	stimuli_distractor_diamondtriangles.svg	stimuli_target_rectanglediamonds.svg	14	yes	57	0	1107	0	0			0	0			1				0	
6.6.1	win	2023-06-27	12:24:35	12:30:20	341717	62cdb59eb5cfe2052ca5074c	3	1	main_slash	7	main_slash	71	stimuli_distractor_trianglediamonds.svg	stimuli_target_rectangletriangles.svg	9	yes	53	1	613	0	0			0	0			1				0	
6.6.1	win	2023-06-27	12:24:35	12:30:20	341717	62cdb59eb5cfe2052ca5074c	3	1	main_slash	7	advance_on_keypress_SLASH	72	stimuli_distractor_trianglediamonds.svg	stimuli_target_rectangletriangles.svg	9	yes	57	0	741	0	0			0	0			1				0	
6.6.1	win	2023-06-27	12:24:35	12:30:24	345087	62cdb59eb5cfe2052ca5074c	3	1	main_slash	7	main_slash	73	stimuli_distractor_diamondtriangles.svg	stimuli_target_squaretriangles.svg	15	yes	0	0	2000	0	0			0	0			1				0	
6.6.1	win	2023-06-27	12:24:35	12:30:24	345087	62cdb59eb5cfe2052ca5074c	3	1	main_slash	7	advance_on_keypress_SLASH	74	stimuli_distractor_diamondtriangles.svg	stimuli_target_squaretriangles.svg	15	yes	57	0	757	0	0			0	0			1				0	
6.6.1	win	2023-06-27	12:24:35	12:30:26	347109	62cdb59eb5cfe2052ca5074c	3	1	main_slash	7	main_slash	75	stimuli_distractor_diamondtriangles.svg	stimuli_target_diamondrectangles.svg	31	yes	53	1	622	0	0			0	0			1				0	
6.6.1	win	2023-06-27	12:24:35	12:30:26	347109	62cdb59eb5cfe2052ca5074c	3	1	main_slash	7	advance_on_keypress_SLASH	76	stimuli_distractor_diamondtriangles.svg	stimuli_target_diamondrectangles.svg	31	yes	57	0	541	0	0			0	0			1				0	
6.6.1	win	2023-06-27	12:24:35	12:30:29	350287	62cdb59eb5cfe2052ca5074c	3	1	main_slash	7	main_slash	77	stimuli_distractor_trianglediamonds.svg	stimuli_distractor_trianglediamonds.svg	34	no	0	1	2000	0	0			0	0			1				0	
6.6.1	win	2023-06-27	12:24:35	12:30:29	350287	62cdb59eb5cfe2052ca5074c	3	1	main_slash	7	advance_on_keypress_SLASH	78	stimuli_distractor_trianglediamonds.svg	stimuli_distractor_trianglediamonds.svg	34	no	57	0	749	0	0			0	0			1				0	
6.6.1	win	2023-06-27	12:24:35	12:30:31	352333	62cdb59eb5cfe2052ca5074c	3	1	main_slash	7	main_slash	79	stimuli_distractor_diamondtriangles.svg	stimuli_target_squarediamonds.svg	16	yes	53	1	646	0	0			0	0			1				0	
6.6.1	win	2023-06-27	12:24:35	12:30:31	352333	62cdb59eb5cfe2052ca5074c	3	1	main_slash	7	advance_on_keypress_SLASH	80	stimuli_distractor_diamondtriangles.svg	stimuli_target_squarediamonds.svg	16	yes	57	0	468	0	0			0	0			1				0	
6.6.1	win	2023-06-27	12:24:35	12:30:33	354229	62cdb59eb5cfe2052ca5074c	3	1	main_slash	7	main_slash	81	stimuli_target_diamondsquares.svg	stimuli_distractor_trianglediamonds.svg	20	yes	53	1	792	0	0			0	0			1				0	
6.6.1	win	2023-06-27	12:24:35	12:30:33	354229	62cdb59eb5cfe2052ca5074c	3	1	main_slash	7	advance_on_keypress_SLASH	82	stimuli_target_diamondsquares.svg	stimuli_distractor_trianglediamonds.svg	20	yes	57	0	504	0	0			0	0			1				0	
6.6.1	win	2023-06-27	12:24:35	12:30:35	355989	62cdb59eb5cfe2052ca5074c	3	1	main_slash	7	main_slash	83	stimuli_distractor_diamondtriangles.svg	stimuli_target_trianglerectangles.svg	29	yes	53	1	618	0	0			0	0			1				0	
6.6.1	win	2023-06-27	12:24:35	12:30:35	355989	62cdb59eb5cfe2052ca5074c	3	1	main_slash	7	advance_on_keypress_SLASH	84	stimuli_distractor_diamondtriangles.svg	stimuli_target_trianglerectangles.svg	29	yes	57	0	489	0	0			0	0			1				0	
6.6.1	win	2023-06-27	12:24:35	12:30:38	359121	62cdb59eb5cfe2052ca5074c	3	1	main_slash	7	main_slash	85	stimuli_distractor_trianglediamonds.svg	stimuli_distractor_diamondtriangles.svg	36	no	0	1	2000	0	0			0	0			1				0	
6.6.1	win	2023-06-27	12:24:35	12:30:38	359121	62cdb59eb5cfe2052ca5074c	3	1	main_slash	7	advance_on_keypress_SLASH	86	stimuli_distractor_trianglediamonds.svg	stimuli_distractor_diamondtriangles.svg	36	no	57	0	684	0	0			0	0			1				0	
6.6.1	win	2023-06-27	12:24:35	12:30:40	361189	62cdb59eb5cfe2052ca5074c	3	1	main_slash	7	main_slash	87	stimuli_target_rectanglediamonds.svg	stimuli_distractor_diamondtriangles.svg	6	yes	53	1	735	0	0			0	0			1				0	
6.6.1	win	2023-06-27	12:24:35	12:30:40	361189	62cdb59eb5cfe2052ca5074c	3	1	main_slash	7	advance_on_keypress_SLASH	88	stimuli_target_rectanglediamonds.svg	stimuli_distractor_diamondtriangles.svg	6	yes	57	0	593	0	0			0	0			1				0	
6.6.1	win	2023-06-27	12:24:35	12:30:42	363077	62cdb59eb5cfe2052ca5074c	3	1	main_slash	7	main_slash	89	stimuli_distractor_diamondtriangles.svg	stimuli_target_rectanglediamonds.svg	14	yes	53	1	657	0	0			0	0			1				0	
6.6.1	win	2023-06-27	12:24:35	12:30:42	363077	62cdb59eb5cfe2052ca5074c	3	1	main_slash	7	advance_on_keypress_SLASH	90	stimuli_distractor_diamondtriangles.svg	stimuli_target_rectanglediamonds.svg	14	yes	57	0	494	0	0			0	0			1				0	
6.6.1	win	2023-06-27	12:24:35	12:30:44	365038	62cdb59eb5cfe2052ca5074c	3	1	main_slash	7	main_slash	91	stimuli_distractor_diamondtriangles.svg	stimuli_target_diamondrectangles.svg	31	yes	53	1	834	0	0			0	0			1				0	
6.6.1	win	2023-06-27	12:24:35	12:30:44	365038	62cdb59eb5cfe2052ca5074c	3	1	main_slash	7	advance_on_keypress_SLASH	92	stimuli_distractor_diamondtriangles.svg	stimuli_target_diamondrectangles.svg	31	yes	57	0	495	0	0			0	0			1				0	
6.6.1	win	2023-06-27	12:24:35	12:30:46	366973	62cdb59eb5cfe2052ca5074c	3	1	main_slash	7	main_slash	93	stimuli_distractor_diamondtriangles.svg	stimuli_target_squarediamonds.svg	16	yes	53	1	803	0	0			0	0			1				0	
6.6.1	win	2023-06-27	12:24:35	12:30:46	366973	62cdb59eb5cfe2052ca5074c	3	1	main_slash	7	advance_on_keypress_SLASH	94	stimuli_distractor_diamondtriangles.svg	stimuli_target_squarediamonds.svg	16	yes	57	0	562	0	0			0	0			1				0	
6.6.1	win	2023-06-27	12:24:35	12:30:47	368909	62cdb59eb5cfe2052ca5074c	3	1	main_slash	7	main_slash	95	stimuli_target_squarediamonds.svg	stimuli_distractor_trianglediamonds.svg	4	yes	53	1	739	0	0			0	0			1				0	
6.6.1	win	2023-06-27	12:24:35	12:30:47	368909	62cdb59eb5cfe2052ca5074c	3	1	main_slash	7	advance_on_keypress_SLASH	96	stimuli_target_squarediamonds.svg	stimuli_distractor_trianglediamonds.svg	4	yes	57	0	388	0	0			0	0			1				0	
6.6.1	win	2023-06-27	12:24:35	12:30:49	370525	62cdb59eb5cfe2052ca5074c	3	1	main_slash	7	main_slash	97	stimuli_target_squaretriangles.svg	stimuli_distractor_diamondtriangles.svg	7	yes	53	1	588	0	0			0	0			1				0	
6.6.1	win	2023-06-27	12:24:35	12:30:49	370525	62cdb59eb5cfe2052ca5074c	3	1	main_slash	7	advance_on_keypress_SLASH	98	stimuli_target_squaretriangles.svg	stimuli_distractor_diamondtriangles.svg	7	yes	57	0	900	0	0			0	0			1				0	
6.6.1	win	2023-06-27	12:24:35	12:30:51	372805	62cdb59eb5cfe2052ca5074c	3	1	main_slash	7	main_slash	99	stimuli_target_diamondrectangles.svg	stimuli_distractor_trianglediamonds.svg	19	yes	53	1	735	0	0			0	0			1				0	
6.6.1	win	2023-06-27	12:24:35	12:30:51	372805	62cdb59eb5cfe2052ca5074c	3	1	main_slash	7	advance_on_keypress_SLASH	100	stimuli_target_diamondrectangles.svg	stimuli_distractor_trianglediamonds.svg	19	yes	57	0	801	0	0			0	0			1				0	
6.6.1	win	2023-06-27	12:24:35	12:30:53	374925	62cdb59eb5cfe2052ca5074c	3	1	main_slash	7	main_slash	101	stimuli_distractor_trianglediamonds.svg	stimuli_target_trianglerectangles.svg	25	yes	53	1	671	0	0			0	0			1				0	
6.6.1	win	2023-06-27	12:24:35	12:30:53	374925	62cdb59eb5cfe2052ca5074c	3	1	main_slash	7	advance_on_keypress_SLASH	102	stimuli_distractor_trianglediamonds.svg	stimuli_target_trianglerectangles.svg	25	yes	57	0	660	0	0			0	0			1				0	
6.6.1	win	2023-06-27	12:24:35	12:30:56	377077	62cdb59eb5cfe2052ca5074c	3	1	main_slash	7	main_slash	103	stimuli_target_diamondrectangles.svg	stimuli_distractor_diamondtriangles.svg	23	yes	53	1	857	0	0			0	0			1				0	
6.6.1	win	2023-06-27	12:24:35	12:30:56	377077	62cdb59eb5cfe2052ca5074c	3	1	main_slash	7	advance_on_keypress_SLASH	104	stimuli_target_diamondrectangles.svg	stimuli_distractor_diamondtriangles.svg	23	yes	57	0	702	0	0			0	0			1				0	
6.6.1	win	2023-06-27	12:24:35	12:30:58	379061	62cdb59eb5cfe2052ca5074c	3	1	main_slash	7	main_slash	105	stimuli_target_rectangletriangles.svg	stimuli_distractor_trianglediamonds.svg	1	yes	53	1	641	0	0			0	0			1				0	
6.6.1	win	2023-06-27	12:24:35	12:30:58	379061	62cdb59eb5cfe2052ca5074c	3	1	main_slash	7	advance_on_keypress_SLASH	106	stimuli_target_rectangletriangles.svg	stimuli_distractor_trianglediamonds.svg	1	yes	57	0	575	0	0			0	0			1				0	
6.6.1	win	2023-06-27	12:24:35	12:31:01	382271	62cdb59eb5cfe2052ca5074c	3	1	main_slash	7	main_slash	107	stimuli_distractor_diamondtriangles.svg	stimuli_distractor_trianglediamonds.svg	37	no	0	1	2000	0	0			0	0			1				0	
6.6.1	win	2023-06-27	12:24:35	12:31:01	382271	62cdb59eb5cfe2052ca5074c	3	1	main_slash	7	advance_on_keypress_SLASH	108	stimuli_distractor_diamondtriangles.svg	stimuli_distractor_trianglediamonds.svg	37	no	57	0	878	0	0			0	0			1				0	
6.6.1	win	2023-06-27	12:24:35	12:31:03	384269	62cdb59eb5cfe2052ca5074c	3	1	main_slash	7	main_slash	109	stimuli_target_squaretriangles.svg	stimuli_distractor_trianglediamonds.svg	3	yes	53	1	482	0	0			0	0			1				0	
6.6.1	win	2023-06-27	12:24:35	12:31:03	384269	62cdb59eb5cfe2052ca5074c	3	1	main_slash	7	advance_on_keypress_SLASH	110	stimuli_target_squaretriangles.svg	stimuli_distractor_trianglediamonds.svg	3	yes	57	0	1998	0	0			0	0			1				0	
6.6.1	win	2023-06-27	12:24:35	12:31:07	388921	62cdb59eb5cfe2052ca5074c	3	1	main_slash	7	main_slash	111	stimuli_distractor_diamondtriangles.svg	stimuli_distractor_trianglediamonds.svg	38	no	0	1	2000	0	0			0	0			1				0	
6.6.1	win	2023-06-27	12:24:35	12:31:07	388921	62cdb59eb5cfe2052ca5074c	3	1	main_slash	7	advance_on_keypress_SLASH	112	stimuli_distractor_diamondtriangles.svg	stimuli_distractor_trianglediamonds.svg	38	no	57	0	716	0	0			0	0			1				0	
6.6.1	win	2023-06-27	12:24:35	12:31:10	391037	62cdb59eb5cfe2052ca5074c	3	1	main_slash	7	main_slash	113	stimuli_distractor_trianglediamonds.svg	stimuli_target_diamondsquares.svg	28	yes	53	1	750	0	0			0	0			1				0	
6.6.1	win	2023-06-27	12:24:35	12:31:10	391037	62cdb59eb5cfe2052ca5074c	3	1	main_slash	7	advance_on_keypress_SLASH	114	stimuli_distractor_trianglediamonds.svg	stimuli_target_diamondsquares.svg	28	yes	57	0	583	0	0			0	0			1				0	
6.6.1	win	2023-06-27	12:24:35	12:31:11	392909	62cdb59eb5cfe2052ca5074c	3	1	main_slash	7	main_slash	115	stimuli_distractor_trianglediamonds.svg	stimuli_target_diamondrectangles.svg	27	yes	53	1	639	0	0			0	0			1				0	
6.6.1	win	2023-06-27	12:24:35	12:31:11	392909	62cdb59eb5cfe2052ca5074c	3	1	main_slash	7	advance_on_keypress_SLASH	116	stimuli_distractor_trianglediamonds.svg	stimuli_target_diamondrectangles.svg	27	yes	57	0	485	0	0			0	0			1				0	
6.6.1	win	2023-06-27	12:24:35	12:31:15	396037	62cdb59eb5cfe2052ca5074c	3	1	main_slash	7	main_slash	117	stimuli_distractor_diamondtriangles.svg	stimuli_target_squaretriangles.svg	15	yes	0	0	2000	0	0			0	0			1				0	
6.6.1	win	2023-06-27	12:24:35	12:31:15	396037	62cdb59eb5cfe2052ca5074c	3	1	main_slash	7	advance_on_keypress_SLASH	118	stimuli_distractor_diamondtriangles.svg	stimuli_target_squaretriangles.svg	15	yes	57	0	943	0	0			0	0			1				0	
6.6.1	win	2023-06-27	12:24:35	12:31:17	398277	62cdb59eb5cfe2052ca5074c	3	1	main_slash	7	main_slash	119	stimuli_distractor_trianglediamonds.svg	stimuli_target_rectanglediamonds.svg	10	yes	53	1	657	0	0			0	0			1				0	
6.6.1	win	2023-06-27	12:24:35	12:31:17	398277	62cdb59eb5cfe2052ca5074c	3	1	main_slash	7	advance_on_keypress_SLASH	120	stimuli_distractor_trianglediamonds.svg	stimuli_target_rectanglediamonds.svg	10	yes	57	0	1182	0	0			0	0			1				0	
6.6.1	win	2023-06-27	12:24:35	12:31:21	402104	62cdb59eb5cfe2052ca5074c	3	1	main_slash	7	main_slash	121	stimuli_distractor_trianglediamonds.svg	stimuli_distractor_trianglediamonds.svg	34	no	0	1	2000	0	0			0	0			1				0	
6.6.1	win	2023-06-27	12:24:35	12:31:21	402104	62cdb59eb5cfe2052ca5074c	3	1	main_slash	7	advance_on_keypress_SLASH	122	stimuli_distractor_trianglediamonds.svg	stimuli_distractor_trianglediamonds.svg	34	no	57	0	333	0	0			0	0			1				0	
6.6.1	win	2023-06-27	12:24:35	12:31:22	403725	62cdb59eb5cfe2052ca5074c	3	1	main_slash	7	main_slash	123	stimuli_target_rectangletriangles.svg	stimuli_distractor_diamondtriangles.svg	5	yes	53	1	638	0	0			0	0			1				0	
6.6.1	win	2023-06-27	12:24:35	12:31:22	403725	62cdb59eb5cfe2052ca5074c	3	1	main_slash	7	advance_on_keypress_SLASH	124	stimuli_target_rectangletriangles.svg	stimuli_distractor_diamondtriangles.svg	5	yes	57	0	1156	0	0			0	0			1				0	
6.6.1	win	2023-06-27	12:24:35	12:31:26	407521	62cdb59eb5cfe2052ca5074c	3	1	main_slash	7	main_slash	125	stimuli_distractor_trianglediamonds.svg	stimuli_distractor_diamondtriangles.svg	35	no	0	1	2000	0	0			0	0			1				0	
6.6.1	win	2023-06-27	12:24:35	12:31:26	407521	62cdb59eb5cfe2052ca5074c	3	1	main_slash	7	advance_on_keypress_SLASH	126	stimuli_distractor_trianglediamonds.svg	stimuli_distractor_diamondtriangles.svg	35	no	57	0	764	0	0			0	0			1				0	
6.6.1	win	2023-06-27	12:24:35	12:31:30	410938	62cdb59eb5cfe2052ca5074c	3	1	main_slash	7	main_slash	127	stimuli_distractor_trianglediamonds.svg	stimuli_target_squaretriangles.svg	11	yes	0	0	2000	0	0			0	0			1				0	
6.6.1	win	2023-06-27	12:24:35	12:31:30	410938	62cdb59eb5cfe2052ca5074c	3	1	main_slash	7	advance_on_keypress_SLASH	128	stimuli_distractor_trianglediamonds.svg	stimuli_target_squaretriangles.svg	11	yes	57	0	555	0	0			0	0			1				0	
6.6.1	win	2023-06-27	12:24:35	12:31:33	414137	62cdb59eb5cfe2052ca5074c	3	1	main_slash	7	main_slash	129	stimuli_distractor_diamondtriangles.svg	stimuli_distractor_diamondtriangles.svg	39	no	0	1	2000	0	0			0	0			1				0	
6.6.1	win	2023-06-27	12:24:35	12:31:33	414137	62cdb59eb5cfe2052ca5074c	3	1	main_slash	7	advance_on_keypress_SLASH	130	stimuli_distractor_diamondtriangles.svg	stimuli_distractor_diamondtriangles.svg	39	no	57	0	355	0	0			0	0			1				0	
6.6.1	win	2023-06-27	12:24:35	12:31:35	415949	62cdb59eb5cfe2052ca5074c	3	1	main_slash	7	main_slash	131	stimuli_distractor_diamondtriangles.svg	stimuli_target_diamondsquares.svg	32	yes	53	1	812	0	0			0	0			1				0	
6.6.1	win	2023-06-27	12:24:35	12:31:35	415949	62cdb59eb5cfe2052ca5074c	3	1	main_slash	7	advance_on_keypress_SLASH	132	stimuli_distractor_diamondtriangles.svg	stimuli_target_diamondsquares.svg	32	yes	57	0	684	0	0			0	0			1				0	
6.6.1	win	2023-06-27	12:24:35	12:31:37	418037	62cdb59eb5cfe2052ca5074c	3	1	main_slash	7	main_slash	133	stimuli_target_trianglesquares.svg	stimuli_distractor_diamondtriangles.svg	22	yes	53	1	766	0	0			0	0			1				0	
6.6.1	win	2023-06-27	12:24:35	12:31:37	418037	62cdb59eb5cfe2052ca5074c	3	1	main_slash	7	advance_on_keypress_SLASH	134	stimuli_target_trianglesquares.svg	stimuli_distractor_diamondtriangles.svg	22	yes	57	0	551	0	0			0	0			1				0	
6.6.1	win	2023-06-27	12:24:35	12:31:39	420261	62cdb59eb5cfe2052ca5074c	3	1	main_slash	7	main_slash	135	stimuli_distractor_trianglediamonds.svg	stimuli_target_rectangletriangles.svg	9	yes	53	1	1024	0	0			0	0			1				0	
6.6.1	win	2023-06-27	12:24:35	12:31:39	420261	62cdb59eb5cfe2052ca5074c	3	1	main_slash	7	advance_on_keypress_SLASH	136	stimuli_distractor_trianglediamonds.svg	stimuli_target_rectangletriangles.svg	9	yes	57	0	951	0	0			0	0			1				0	
6.6.1	win	2023-06-27	12:24:35	12:31:41	422445	62cdb59eb5cfe2052ca5074c	3	1	main_slash	7	main_slash	137	stimuli_target_trianglesquares.svg	stimuli_distractor_trianglediamonds.svg	18	yes	53	1	591	0	0			0	0			1				0	
6.6.1	win	2023-06-27	12:24:35	12:31:41	422445	62cdb59eb5cfe2052ca5074c	3	1	main_slash	7	advance_on_keypress_SLASH	138	stimuli_target_trianglesquares.svg	stimuli_distractor_trianglediamonds.svg	18	yes	57	0	455	0	0			0	0			1				0	
6.6.1	win	2023-06-27	12:24:35	12:31:43	424197	62cdb59eb5cfe2052ca5074c	3	1	main_slash	7	main_slash	139	stimuli_target_trianglerectangles.svg	stimuli_distractor_diamondtriangles.svg	21	yes	53	1	660	0	0			0	0			1				0	
6.6.1	win	2023-06-27	12:24:35	12:31:43	424197	62cdb59eb5cfe2052ca5074c	3	1	main_slash	7	advance_on_keypress_SLASH	140	stimuli_target_trianglerectangles.svg	stimuli_distractor_diamondtriangles.svg	21	yes	57	0	777	0	0			0	0			1				0	
6.6.1	win	2023-06-27	12:24:35	12:31:45	426317	62cdb59eb5cfe2052ca5074c	3	1	main_slash	7	main_slash	141	stimuli_target_diamondsquares.svg	stimuli_distractor_diamondtriangles.svg	24	yes	53	1	714	0	0			0	0			1				0	
6.6.1	win	2023-06-27	12:24:35	12:31:45	426317	62cdb59eb5cfe2052ca5074c	3	1	main_slash	7	advance_on_keypress_SLASH	142	stimuli_target_diamondsquares.svg	stimuli_distractor_diamondtriangles.svg	24	yes	57	0	469	0	0			0	0			1				0	
6.6.1	win	2023-06-27	12:24:35	12:31:48	429421	62cdb59eb5cfe2052ca5074c	3	1	main_slash	7	main_slash	143	stimuli_distractor_diamondtriangles.svg	stimuli_distractor_diamondtriangles.svg	40	no	0	1	2000	0	0			0	0			1				0	
6.6.1	win	2023-06-27	12:24:35	12:31:48	429421	62cdb59eb5cfe2052ca5074c	3	1	main_slash	7	advance_on_keypress_SLASH	144	stimuli_distractor_diamondtriangles.svg	stimuli_distractor_diamondtriangles.svg	40	no	57	0	400	0	0			0	0			1				0	
6.6.1	win	2023-06-27	12:24:35	12:31:51	431965	62cdb59eb5cfe2052ca5074c	3	1	main_slash	7	main_slash	145	stimuli_distractor_diamondtriangles.svg	stimuli_target_rectangletriangles.svg	13	yes	53	1	1495	0	0			0	0			1				0	
6.6.1	win	2023-06-27	12:24:35	12:31:51	431965	62cdb59eb5cfe2052ca5074c	3	1	main_slash	7	advance_on_keypress_SLASH	146	stimuli_distractor_diamondtriangles.svg	stimuli_target_rectangletriangles.svg	13	yes	57	0	915	0	0			0	0			1				0	
6.6.1	win	2023-06-27	12:24:35	12:31:53	434125	62cdb59eb5cfe2052ca5074c	3	1	main_slash	7	main_slash	147	stimuli_target_rectanglediamonds.svg	stimuli_distractor_trianglediamonds.svg	2	yes	53	1	605	0	0			0	0			1				0	
6.6.1	win	2023-06-27	12:24:35	12:31:53	434125	62cdb59eb5cfe2052ca5074c	3	1	main_slash	7	advance_on_keypress_SLASH	148	stimuli_target_rectanglediamonds.svg	stimuli_distractor_trianglediamonds.svg	2	yes	57	0	500	0	0			0	0			1				0	
6.6.1	win	2023-06-27	12:24:35	12:31:54	435909	62cdb59eb5cfe2052ca5074c	3	1	main_slash	7	main_slash	149	stimuli_distractor_trianglediamonds.svg	stimuli_target_squarediamonds.svg	12	yes	53	1	639	0	0			0	0			1				0	
6.6.1	win	2023-06-27	12:24:35	12:31:54	435909	62cdb59eb5cfe2052ca5074c	3	1	main_slash	7	advance_on_keypress_SLASH	150	stimuli_distractor_trianglediamonds.svg	stimuli_target_squarediamonds.svg	12	yes	57	0	533	0	0			0	0			1				0	
6.6.1	win	2023-06-27	12:24:35	12:31:56	437813	62cdb59eb5cfe2052ca5074c	3	1	main_slash	7	main_slash	151	stimuli_target_trianglerectangles.svg	stimuli_distractor_trianglediamonds.svg	17	yes	53	1	726	0	0			0	0			1				0	
6.6.1	win	2023-06-27	12:24:35	12:31:56	437813	62cdb59eb5cfe2052ca5074c	3	1	main_slash	7	advance_on_keypress_SLASH	152	stimuli_target_trianglerectangles.svg	stimuli_distractor_trianglediamonds.svg	17	yes	57	0	513	0	0			0	0			1				0	
6.6.1	win	2023-06-27	12:24:35	12:31:58	439605	62cdb59eb5cfe2052ca5074c	3	1	main_slash	7	main_slash	153	stimuli_distractor_diamondtriangles.svg	stimuli_target_trianglesquares.svg	30	yes	53	1	652	0	0			0	0			1				0	
6.6.1	win	2023-06-27	12:24:35	12:31:58	439605	62cdb59eb5cfe2052ca5074c	3	1	main_slash	7	advance_on_keypress_SLASH	154	stimuli_distractor_diamondtriangles.svg	stimuli_target_trianglesquares.svg	30	yes	57	0	489	0	0			0	0			1				0	
6.6.1	win	2023-06-27	12:24:35	12:32:00	441277	62cdb59eb5cfe2052ca5074c	3	1	main_slash	7	main_slash	155	stimuli_distractor_trianglediamonds.svg	stimuli_target_trianglesquares.svg	26	yes	53	1	540	0	0			0	0			1				0	
6.6.1	win	2023-06-27	12:24:35	12:32:00	441277	62cdb59eb5cfe2052ca5074c	3	1	main_slash	7	advance_on_keypress_SLASH	156	stimuli_distractor_trianglediamonds.svg	stimuli_target_trianglesquares.svg	26	yes	57	0	422	0	0			0	0			1				0	
6.6.1	win	2023-06-27	12:24:35	12:32:02	443021	62cdb59eb5cfe2052ca5074c	3	1	main_slash	7	main_slash	157	stimuli_distractor_trianglediamonds.svg	stimuli_distractor_trianglediamonds.svg	33	no	53	0	684	0	0			0	0			1				0	
6.6.1	win	2023-06-27	12:24:35	12:32:02	443021	62cdb59eb5cfe2052ca5074c	3	1	main_slash	7	advance_on_keypress_SLASH	158	stimuli_distractor_trianglediamonds.svg	stimuli_distractor_trianglediamonds.svg	33	no	57	0	551	0	0			0	0			1				0	
6.6.1	win	2023-06-27	12:24:35	12:32:03	444693	62cdb59eb5cfe2052ca5074c	3	1	main_slash	7	main_slash	159	stimuli_target_squarediamonds.svg	stimuli_distractor_diamondtriangles.svg	8	yes	53	1	473	0	0			0	0			1				0	
6.6.1	win	2023-06-27	12:24:35	12:32:03	444693	62cdb59eb5cfe2052ca5074c	3	1	main_slash	7	advance_on_keypress_SLASH	160	stimuli_target_squarediamonds.svg	stimuli_distractor_diamondtriangles.svg	8	yes	57	0	454	0	0			0	0			1				0	
6.6.1	win	2023-06-27	12:24:35	12:32:29	470174	62cdb59eb5cfe2052ca5074c	3	1	practice_z	9	practice_z	1	stimuli_target_diamondsquares.svg	stimuli_distractor_trianglediamonds.svg	6	yes	44	1	819	0	0			0	0			1				0	
6.6.1	win	2023-06-27	12:24:35	12:32:29	470174	62cdb59eb5cfe2052ca5074c	3	1	practice_z	9	advance_on_keypress_ZEE	2	stimuli_target_diamondsquares.svg	stimuli_distractor_trianglediamonds.svg	6	yes	57	0	801	0	0			0	0			1				0	
6.6.1	win	2023-06-27	12:24:35	12:32:32	473215	62cdb59eb5cfe2052ca5074c	3	1	practice_z	9	practice_z	3	stimuli_distractor_trianglediamonds.svg	stimuli_target_squarediamonds.svg	11	yes	44	1	593	0	0			0	0			1				0	
6.6.1	win	2023-06-27	12:24:35	12:32:32	473215	62cdb59eb5cfe2052ca5074c	3	1	practice_z	9	advance_on_keypress_ZEE	4	stimuli_distractor_trianglediamonds.svg	stimuli_target_squarediamonds.svg	11	yes	57	0	977	0	0			0	0			1				0	
6.6.1	win	2023-06-27	12:24:35	12:32:35	476303	62cdb59eb5cfe2052ca5074c	3	1	practice_z	9	practice_z	5	stimuli_distractor_diamondtriangles.svg	stimuli_target_rectangletriangles.svg	7	yes	44	1	481	0	0			0	0			1				0	
6.6.1	win	2023-06-27	12:24:35	12:32:35	476303	62cdb59eb5cfe2052ca5074c	3	1	practice_z	9	advance_on_keypress_ZEE	6	stimuli_distractor_diamondtriangles.svg	stimuli_target_rectangletriangles.svg	7	yes	57	0	509	0	0			0	0			1				0	
6.6.1	win	2023-06-27	12:24:35	12:32:38	478966	62cdb59eb5cfe2052ca5074c	3	1	practice_z	9	practice_z	7	stimuli_distractor_diamondtriangles.svg	stimuli_distractor_diamondtriangles.svg	13	no	44	0	512	0	0			0	0			1				0	
6.6.1	win	2023-06-27	12:24:35	12:32:38	478966	62cdb59eb5cfe2052ca5074c	3	1	practice_z	9	advance_on_keypress_ZEE	8	stimuli_distractor_diamondtriangles.svg	stimuli_distractor_diamondtriangles.svg	13	no	57	0	787	0	0			0	0			1				0	
6.6.1	win	2023-06-27	12:24:35	12:32:42	483389	62cdb59eb5cfe2052ca5074c	3	1	practice_z	9	practice_z	9	stimuli_distractor_trianglediamonds.svg	stimuli_target_diamondrectangles.svg	12	yes	0	0	2000	0	0			0	0			1				0	
6.6.1	win	2023-06-27	12:24:35	12:32:42	483389	62cdb59eb5cfe2052ca5074c	3	1	practice_z	9	advance_on_keypress_ZEE	10	stimuli_distractor_trianglediamonds.svg	stimuli_target_diamondrectangles.svg	12	yes	57	0	569	0	0			0	0			1				0	
6.6.1	win	2023-06-27	12:24:35	12:32:45	486158	62cdb59eb5cfe2052ca5074c	3	1	practice_z	9	practice_z	11	stimuli_target_squarediamonds.svg	stimuli_distractor_trianglediamonds.svg	5	yes	44	1	554	0	0			0	0			1				0	
6.6.1	win	2023-06-27	12:24:35	12:32:45	486158	62cdb59eb5cfe2052ca5074c	3	1	practice_z	9	advance_on_keypress_ZEE	12	stimuli_target_squarediamonds.svg	stimuli_distractor_trianglediamonds.svg	5	yes	57	0	699	0	0			0	0			1				0	
6.6.1	win	2023-06-27	12:24:35	12:32:48	488982	62cdb59eb5cfe2052ca5074c	3	1	practice_z	9	practice_z	13	stimuli_target_squarediamonds.svg	stimuli_distractor_diamondtriangles.svg	2	yes	44	1	478	0	0			0	0			1				0	
6.6.1	win	2023-06-27	12:24:35	12:32:48	488982	62cdb59eb5cfe2052ca5074c	3	1	practice_z	9	advance_on_keypress_ZEE	14	stimuli_target_squarediamonds.svg	stimuli_distractor_diamondtriangles.svg	2	yes	57	0	954	0	0			0	0			1				0	
6.6.1	win	2023-06-27	12:24:35	12:32:51	492334	62cdb59eb5cfe2052ca5074c	3	1	practice_z	9	practice_z	15	stimuli_distractor_diamondtriangles.svg	stimuli_target_trianglerectangles.svg	9	yes	44	1	763	0	0			0	0			1				0	
6.6.1	win	2023-06-27	12:24:35	12:32:51	492334	62cdb59eb5cfe2052ca5074c	3	1	practice_z	9	advance_on_keypress_ZEE	16	stimuli_distractor_diamondtriangles.svg	stimuli_target_trianglerectangles.svg	9	yes	57	0	796	0	0			0	0			1				0	
6.6.1	win	2023-06-27	12:24:35	12:32:54	495367	62cdb59eb5cfe2052ca5074c	3	1	practice_z	9	practice_z	17	stimuli_target_diamondsquares.svg	stimuli_distractor_diamondtriangles.svg	3	yes	44	1	595	0	0			0	0			1				0	
6.6.1	win	2023-06-27	12:24:35	12:32:54	495367	62cdb59eb5cfe2052ca5074c	3	1	practice_z	9	advance_on_keypress_ZEE	18	stimuli_target_diamondsquares.svg	stimuli_distractor_diamondtriangles.svg	3	yes	57	0	635	0	0			0	0			1				0	
6.6.1	win	2023-06-27	12:24:35	12:32:57	498270	62cdb59eb5cfe2052ca5074c	3	1	practice_z	9	practice_z	19	stimuli_distractor_diamondtriangles.svg	stimuli_target_diamondrectangles.svg	8	yes	44	1	632	0	0			0	0			1				0	
6.6.1	win	2023-06-27	12:24:35	12:32:57	498270	62cdb59eb5cfe2052ca5074c	3	1	practice_z	9	advance_on_keypress_ZEE	20	stimuli_distractor_diamondtriangles.svg	stimuli_target_diamondrectangles.svg	8	yes	57	0	454	0	0			0	0			1				0	
6.6.1	win	2023-06-27	12:24:35	12:32:59	500894	62cdb59eb5cfe2052ca5074c	3	1	practice_z	9	practice_z	21	stimuli_distractor_trianglediamonds.svg	stimuli_target_rectanglediamonds.svg	10	yes	44	1	522	0	0			0	0			1				0	
6.6.1	win	2023-06-27	12:24:35	12:32:59	500894	62cdb59eb5cfe2052ca5074c	3	1	practice_z	9	advance_on_keypress_ZEE	22	stimuli_distractor_trianglediamonds.svg	stimuli_target_rectanglediamonds.svg	10	yes	57	0	574	0	0			0	0			1				0	
6.6.1	win	2023-06-27	12:24:35	12:33:04	505105	62cdb59eb5cfe2052ca5074c	3	1	practice_z	9	practice_z	23	stimuli_distractor_trianglediamonds.svg	stimuli_distractor_diamondtriangles.svg	16	no	0	1	2000	0	0			0	0			1				0	
6.6.1	win	2023-06-27	12:24:35	12:33:04	505105	62cdb59eb5cfe2052ca5074c	3	1	practice_z	9	advance_on_keypress_ZEE	24	stimuli_distractor_trianglediamonds.svg	stimuli_distractor_diamondtriangles.svg	16	no	57	0	645	0	0			0	0			1				0	
6.6.1	win	2023-06-27	12:24:35	12:33:06	507870	62cdb59eb5cfe2052ca5074c	3	1	practice_z	9	practice_z	25	stimuli_target_rectanglediamonds.svg	stimuli_distractor_diamondtriangles.svg	1	yes	44	1	482	0	0			0	0			1				0	
6.6.1	win	2023-06-27	12:24:35	12:33:06	507870	62cdb59eb5cfe2052ca5074c	3	1	practice_z	9	advance_on_keypress_ZEE	26	stimuli_target_rectanglediamonds.svg	stimuli_distractor_diamondtriangles.svg	1	yes	57	0	590	0	0			0	0			1				0	
6.6.1	win	2023-06-27	12:24:35	12:33:11	512105	62cdb59eb5cfe2052ca5074c	3	1	practice_z	9	practice_z	27	stimuli_distractor_trianglediamonds.svg	stimuli_distractor_trianglediamonds.svg	15	no	0	1	2000	0	0			0	0			1				0	
6.6.1	win	2023-06-27	12:24:35	12:33:11	512105	62cdb59eb5cfe2052ca5074c	3	1	practice_z	9	advance_on_keypress_ZEE	28	stimuli_distractor_trianglediamonds.svg	stimuli_distractor_trianglediamonds.svg	15	no	57	0	629	0	0			0	0			1				0	
6.6.1	win	2023-06-27	12:24:35	12:33:13	514798	62cdb59eb5cfe2052ca5074c	3	1	practice_z	9	practice_z	29	stimuli_target_rectanglediamonds.svg	stimuli_distractor_trianglediamonds.svg	4	yes	44	1	427	0	0			0	0			1				0	
6.6.1	win	2023-06-27	12:24:35	12:33:13	514798	62cdb59eb5cfe2052ca5074c	3	1	practice_z	9	advance_on_keypress_ZEE	30	stimuli_target_rectanglediamonds.svg	stimuli_distractor_trianglediamonds.svg	4	yes	57	0	466	0	0			0	0			1				0	
6.6.1	win	2023-06-27	12:24:35	12:33:17	518905	62cdb59eb5cfe2052ca5074c	3	1	practice_z	9	practice_z	31	stimuli_distractor_diamondtriangles.svg	stimuli_distractor_trianglediamonds.svg	14	no	0	1	2000	0	0			0	0			1				0	
6.6.1	win	2023-06-27	12:24:35	12:33:17	518905	62cdb59eb5cfe2052ca5074c	3	1	practice_z	9	advance_on_keypress_ZEE	32	stimuli_distractor_diamondtriangles.svg	stimuli_distractor_trianglediamonds.svg	14	no	57	0	804	0	0			0	0			1				0	
6.6.1	win	2023-06-27	12:24:35	12:33:25	526738	62cdb59eb5cfe2052ca5074c	3	1	main_z	11	main_z	1	stimuli_target_trianglerectangles.svg	stimuli_distractor_diamondtriangles.svg	21	yes	0	0	2000	0	0			0	0			1				0	
6.6.1	win	2023-06-27	12:24:35	12:33:25	526738	62cdb59eb5cfe2052ca5074c	3	1	main_z	11	advance_on_keypress_ZEE	2	stimuli_target_trianglerectangles.svg	stimuli_distractor_diamondtriangles.svg	21	yes	57	0	2403	0	0			0	0			1				0	
6.6.1	win	2023-06-27	12:24:35	12:33:29	530485	62cdb59eb5cfe2052ca5074c	3	1	main_z	11	main_z	3	stimuli_distractor_diamondtriangles.svg	stimuli_target_trianglerectangles.svg	29	yes	44	1	698	0	0			0	0			1				0	
6.6.1	win	2023-06-27	12:24:35	12:33:29	530485	62cdb59eb5cfe2052ca5074c	3	1	main_z	11	advance_on_keypress_ZEE	4	stimuli_distractor_diamondtriangles.svg	stimuli_target_trianglerectangles.svg	29	yes	57	0	670	0	0			0	0			1				0	
6.6.1	win	2023-06-27	12:24:35	12:33:31	532477	62cdb59eb5cfe2052ca5074c	3	1	main_z	11	main_z	5	stimuli_target_diamondrectangles.svg	stimuli_distractor_trianglediamonds.svg	19	yes	44	1	674	0	0			0	0			1				0	
6.6.1	win	2023-06-27	12:24:35	12:33:31	532477	62cdb59eb5cfe2052ca5074c	3	1	main_z	11	advance_on_keypress_ZEE	6	stimuli_target_diamondrectangles.svg	stimuli_distractor_trianglediamonds.svg	19	yes	57	0	518	0	0			0	0			1				0	
6.6.1	win	2023-06-27	12:24:35	12:33:34	535637	62cdb59eb5cfe2052ca5074c	3	1	main_z	11	main_z	7	stimuli_distractor_diamondtriangles.svg	stimuli_distractor_diamondtriangles.svg	40	no	0	1	2000	0	0			0	0			1				0	
6.6.1	win	2023-06-27	12:24:35	12:33:34	535637	62cdb59eb5cfe2052ca5074c	3	1	main_z	11	advance_on_keypress_ZEE	8	stimuli_distractor_diamondtriangles.svg	stimuli_distractor_diamondtriangles.svg	40	no	57	0	631	0	0			0	0			1				0	
6.6.1	win	2023-06-27	12:24:35	12:33:36	537357	62cdb59eb5cfe2052ca5074c	3	1	main_z	11	main_z	9	stimuli_target_trianglesquares.svg	stimuli_distractor_diamondtriangles.svg	22	yes	44	1	437	0	0			0	0			1				0	
6.6.1	win	2023-06-27	12:24:35	12:33:36	537357	62cdb59eb5cfe2052ca5074c	3	1	main_z	11	advance_on_keypress_ZEE	10	stimuli_target_trianglesquares.svg	stimuli_distractor_diamondtriangles.svg	22	yes	57	0	523	0	0			0	0			1				0	
6.6.1	win	2023-06-27	12:24:35	12:33:38	539133	62cdb59eb5cfe2052ca5074c	3	1	main_z	11	main_z	11	stimuli_distractor_trianglediamonds.svg	stimuli_target_diamondsquares.svg	28	yes	44	1	613	0	0			0	0			1				0	
6.6.1	win	2023-06-27	12:24:35	12:33:38	539133	62cdb59eb5cfe2052ca5074c	3	1	main_z	11	advance_on_keypress_ZEE	12	stimuli_distractor_trianglediamonds.svg	stimuli_target_diamondsquares.svg	28	yes	57	0	764	0	0			0	0			1				0	
6.6.1	win	2023-06-27	12:24:35	12:33:40	541060	62cdb59eb5cfe2052ca5074c	3	1	main_z	11	main_z	13	stimuli_distractor_diamondtriangles.svg	stimuli_target_squarediamonds.svg	16	yes	44	1	524	0	0			0	0			1				0	
6.6.1	win	2023-06-27	12:24:35	12:33:40	541060	62cdb59eb5cfe2052ca5074c	3	1	main_z	11	advance_on_keypress_ZEE	14	stimuli_distractor_diamondtriangles.svg	stimuli_target_squarediamonds.svg	16	yes	57	0	671	0	0			0	0			1				0	
6.6.1	win	2023-06-27	12:24:35	12:33:41	542900	62cdb59eb5cfe2052ca5074c	3	1	main_z	11	main_z	15	stimuli_distractor_trianglediamonds.svg	stimuli_target_squaretriangles.svg	11	yes	44	1	530	0	0			0	0			1				0	
6.6.1	win	2023-06-27	12:24:35	12:33:41	542900	62cdb59eb5cfe2052ca5074c	3	1	main_z	11	advance_on_keypress_ZEE	16	stimuli_distractor_trianglediamonds.svg	stimuli_target_squaretriangles.svg	11	yes	57	0	526	0	0			0	0			1				0	
6.6.1	win	2023-06-27	12:24:35	12:33:45	546054	62cdb59eb5cfe2052ca5074c	3	1	main_z	11	main_z	17	stimuli_distractor_trianglediamonds.svg	stimuli_distractor_diamondtriangles.svg	36	no	0	1	2000	0	0			0	0			1				0	
6.6.1	win	2023-06-27	12:24:35	12:33:45	546054	62cdb59eb5cfe2052ca5074c	3	1	main_z	11	advance_on_keypress_ZEE	18	stimuli_distractor_trianglediamonds.svg	stimuli_distractor_diamondtriangles.svg	36	no	57	0	566	0	0			0	0			1				0	
6.6.1	win	2023-06-27	12:24:35	12:33:46	547749	62cdb59eb5cfe2052ca5074c	3	1	main_z	11	main_z	19	stimuli_distractor_diamondtriangles.svg	stimuli_target_trianglesquares.svg	30	yes	44	1	478	0	0			0	0			1				0	
6.6.1	win	2023-06-27	12:24:35	12:33:46	547749	62cdb59eb5cfe2052ca5074c	3	1	main_z	11	advance_on_keypress_ZEE	20	stimuli_distractor_diamondtriangles.svg	stimuli_target_trianglesquares.svg	30	yes	57	0	643	0	0			0	0			1				0	
6.6.1	win	2023-06-27	12:24:35	12:33:48	549524	62cdb59eb5cfe2052ca5074c	3	1	main_z	11	main_z	21	stimuli_distractor_trianglediamonds.svg	stimuli_target_squarediamonds.svg	12	yes	44	1	505	0	0			0	0			1				0	
6.6.1	win	2023-06-27	12:24:35	12:33:48	549524	62cdb59eb5cfe2052ca5074c	3	1	main_z	11	advance_on_keypress_ZEE	22	stimuli_distractor_trianglediamonds.svg	stimuli_target_squarediamonds.svg	12	yes	57	0	635	0	0			0	0			1				0	
6.6.1	win	2023-06-27	12:24:35	12:33:50	551308	62cdb59eb5cfe2052ca5074c	3	1	main_z	11	main_z	23	stimuli_distractor_diamondtriangles.svg	stimuli_target_rectangletriangles.svg	13	yes	44	1	505	0	0			0	0			1				0	
6.6.1	win	2023-06-27	12:24:35	12:33:50	551308	62cdb59eb5cfe2052ca5074c	3	1	main_z	11	advance_on_keypress_ZEE	24	stimuli_distractor_diamondtriangles.svg	stimuli_target_rectangletriangles.svg	13	yes	57	0	573	0	0			0	0			1				0	
6.6.1	win	2023-06-27	12:24:35	12:33:52	553005	62cdb59eb5cfe2052ca5074c	3	1	main_z	11	main_z	25	stimuli_distractor_diamondtriangles.svg	stimuli_target_diamondsquares.svg	32	yes	44	1	484	0	0			0	0			1				0	
6.6.1	win	2023-06-27	12:24:35	12:33:52	553005	62cdb59eb5cfe2052ca5074c	3	1	main_z	11	advance_on_keypress_ZEE	26	stimuli_distractor_diamondtriangles.svg	stimuli_target_diamondsquares.svg	32	yes	57	0	624	0	0			0	0			1				0	
6.6.1	win	2023-06-27	12:24:35	12:33:55	556271	62cdb59eb5cfe2052ca5074c	3	1	main_z	11	main_z	27	stimuli_distractor_trianglediamonds.svg	stimuli_distractor_trianglediamonds.svg	34	no	0	1	2000	0	0			0	0			1				0	
6.6.1	win	2023-06-27	12:24:35	12:33:55	556271	62cdb59eb5cfe2052ca5074c	3	1	main_z	11	advance_on_keypress_ZEE	28	stimuli_distractor_trianglediamonds.svg	stimuli_distractor_trianglediamonds.svg	34	no	57	0	574	0	0			0	0			1				0	
6.6.1	win	2023-06-27	12:24:35	12:33:58	559487	62cdb59eb5cfe2052ca5074c	3	1	main_z	11	main_z	29	stimuli_distractor_diamondtriangles.svg	stimuli_distractor_diamondtriangles.svg	39	no	0	1	2000	0	0			0	0			1				0	
6.6.1	win	2023-06-27	12:24:35	12:33:58	559487	62cdb59eb5cfe2052ca5074c	3	1	main_z	11	advance_on_keypress_ZEE	30	stimuli_distractor_diamondtriangles.svg	stimuli_distractor_diamondtriangles.svg	39	no	57	0	613	0	0			0	0			1				0	
6.6.1	win	2023-06-27	12:24:35	12:34:00	561229	62cdb59eb5cfe2052ca5074c	3	1	main_z	11	main_z	31	stimuli_distractor_trianglediamonds.svg	stimuli_target_rectanglediamonds.svg	10	yes	44	1	491	0	0			0	0			1				0	
6.6.1	win	2023-06-27	12:24:35	12:34:00	561229	62cdb59eb5cfe2052ca5074c	3	1	main_z	11	advance_on_keypress_ZEE	32	stimuli_distractor_trianglediamonds.svg	stimuli_target_rectanglediamonds.svg	10	yes	57	0	663	0	0			0	0			1				0	
6.6.1	win	2023-06-27	12:24:35	12:34:02	563044	62cdb59eb5cfe2052ca5074c	3	1	main_z	11	main_z	33	stimuli_target_squarediamonds.svg	stimuli_distractor_trianglediamonds.svg	4	yes	44	1	507	0	0			0	0			1				0	
6.6.1	win	2023-06-27	12:24:35	12:34:02	563044	62cdb59eb5cfe2052ca5074c	3	1	main_z	11	advance_on_keypress_ZEE	34	stimuli_target_squarediamonds.svg	stimuli_distractor_trianglediamonds.svg	4	yes	57	0	576	0	0			0	0			1				0	
6.6.1	win	2023-06-27	12:24:35	12:34:05	566254	62cdb59eb5cfe2052ca5074c	3	1	main_z	11	main_z	35	stimuli_distractor_trianglediamonds.svg	stimuli_distractor_trianglediamonds.svg	33	no	0	1	2000	0	0			0	0			1				0	
6.6.1	win	2023-06-27	12:24:35	12:34:05	566254	62cdb59eb5cfe2052ca5074c	3	1	main_z	11	advance_on_keypress_ZEE	36	stimuli_distractor_trianglediamonds.svg	stimuli_distractor_trianglediamonds.svg	33	no	57	0	446	0	0			0	0			1				0	
6.6.1	win	2023-06-27	12:24:35	12:34:06	567749	62cdb59eb5cfe2052ca5074c	3	1	main_z	11	main_z	37	stimuli_target_rectanglediamonds.svg	stimuli_distractor_diamondtriangles.svg	6	yes	44	1	412	0	0			0	0			1				0	
6.6.1	win	2023-06-27	12:24:35	12:34:06	567749	62cdb59eb5cfe2052ca5074c	3	1	main_z	11	advance_on_keypress_ZEE	38	stimuli_target_rectanglediamonds.svg	stimuli_distractor_diamondtriangles.svg	6	yes	57	0	587	0	0			0	0			1				0	
6.6.1	win	2023-06-27	12:24:35	12:34:08	569557	62cdb59eb5cfe2052ca5074c	3	1	main_z	11	main_z	39	stimuli_distractor_trianglediamonds.svg	stimuli_target_trianglerectangles.svg	25	yes	44	1	586	0	0			0	0			1				0	
6.6.1	win	2023-06-27	12:24:35	12:34:08	569557	62cdb59eb5cfe2052ca5074c	3	1	main_z	11	advance_on_keypress_ZEE	40	stimuli_distractor_trianglediamonds.svg	stimuli_target_trianglerectangles.svg	25	yes	57	0	418	0	0			0	0			1				0	
6.6.1	win	2023-06-27	12:24:35	12:34:10	571148	62cdb59eb5cfe2052ca5074c	3	1	main_z	11	main_z	41	stimuli_distractor_diamondtriangles.svg	stimuli_target_diamondrectangles.svg	31	yes	44	1	529	0	0			0	0			1				0	
6.6.1	win	2023-06-27	12:24:35	12:34:10	571148	62cdb59eb5cfe2052ca5074c	3	1	main_z	11	advance_on_keypress_ZEE	42	stimuli_distractor_diamondtriangles.svg	stimuli_target_diamondrectangles.svg	31	yes	57	0	460	0	0			0	0			1				0	
6.6.1	win	2023-06-27	12:24:35	12:34:11	572685	62cdb59eb5cfe2052ca5074c	3	1	main_z	11	main_z	43	stimuli_distractor_diamondtriangles.svg	stimuli_target_squaretriangles.svg	15	yes	44	1	448	0	0			0	0			1				0	
6.6.1	win	2023-06-27	12:24:35	12:34:11	572685	62cdb59eb5cfe2052ca5074c	3	1	main_z	11	advance_on_keypress_ZEE	44	stimuli_distractor_diamondtriangles.svg	stimuli_target_squaretriangles.svg	15	yes	57	0	565	0	0			0	0			1				0	
6.6.1	win	2023-06-27	12:24:35	12:34:13	574325	62cdb59eb5cfe2052ca5074c	3	1	main_z	11	main_z	45	stimuli_distractor_diamondtriangles.svg	stimuli_target_rectanglediamonds.svg	14	yes	44	1	421	0	0			0	0			1				0	
6.6.1	win	2023-06-27	12:24:35	12:34:13	574325	62cdb59eb5cfe2052ca5074c	3	1	main_z	11	advance_on_keypress_ZEE	46	stimuli_distractor_diamondtriangles.svg	stimuli_target_rectanglediamonds.svg	14	yes	57	0	667	0	0			0	0			1				0	
6.6.1	win	2023-06-27	12:24:35	12:34:15	576020	62cdb59eb5cfe2052ca5074c	3	1	main_z	11	main_z	47	stimuli_target_trianglerectangles.svg	stimuli_distractor_trianglediamonds.svg	17	yes	44	1	384	0	0			0	0			1				0	
6.6.1	win	2023-06-27	12:24:35	12:34:15	576020	62cdb59eb5cfe2052ca5074c	3	1	main_z	11	advance_on_keypress_ZEE	48	stimuli_target_trianglerectangles.svg	stimuli_distractor_trianglediamonds.svg	17	yes	57	0	768	0	0			0	0			1				0	
6.6.1	win	2023-06-27	12:24:35	12:34:16	577773	62cdb59eb5cfe2052ca5074c	3	1	main_z	11	main_z	49	stimuli_target_diamondsquares.svg	stimuli_distractor_diamondtriangles.svg	24	yes	44	1	335	0	0			0	0			1				0	
6.6.1	win	2023-06-27	12:24:35	12:34:16	577773	62cdb59eb5cfe2052ca5074c	3	1	main_z	11	advance_on_keypress_ZEE	50	stimuli_target_diamondsquares.svg	stimuli_distractor_diamondtriangles.svg	24	yes	57	0	513	0	0			0	0			1				0	
6.6.1	win	2023-06-27	12:24:35	12:34:19	580937	62cdb59eb5cfe2052ca5074c	3	1	main_z	11	main_z	51	stimuli_distractor_diamondtriangles.svg	stimuli_distractor_trianglediamonds.svg	37	no	0	1	2000	0	0			0	0			1				0	
6.6.1	win	2023-06-27	12:24:35	12:34:19	580937	62cdb59eb5cfe2052ca5074c	3	1	main_z	11	advance_on_keypress_ZEE	52	stimuli_distractor_diamondtriangles.svg	stimuli_distractor_trianglediamonds.svg	37	no	57	0	636	0	0			0	0			1				0	
6.6.1	win	2023-06-27	12:24:35	12:34:23	584220	62cdb59eb5cfe2052ca5074c	3	1	main_z	11	main_z	53	stimuli_distractor_trianglediamonds.svg	stimuli_distractor_diamondtriangles.svg	35	no	0	1	2000	0	0			0	0			1				0	
6.6.1	win	2023-06-27	12:24:35	12:34:23	584220	62cdb59eb5cfe2052ca5074c	3	1	main_z	11	advance_on_keypress_ZEE	54	stimuli_distractor_trianglediamonds.svg	stimuli_distractor_diamondtriangles.svg	35	no	57	0	559	0	0			0	0			1				0	
6.6.1	win	2023-06-27	12:24:35	12:34:24	585813	62cdb59eb5cfe2052ca5074c	3	1	main_z	11	main_z	55	stimuli_target_rectangletriangles.svg	stimuli_distractor_diamondtriangles.svg	5	yes	44	1	393	0	0			0	0			1				0	
6.6.1	win	2023-06-27	12:24:35	12:34:24	585813	62cdb59eb5cfe2052ca5074c	3	1	main_z	11	advance_on_keypress_ZEE	56	stimuli_target_rectangletriangles.svg	stimuli_distractor_diamondtriangles.svg	5	yes	57	0	521	0	0			0	0			1				0	
6.6.1	win	2023-06-27	12:24:35	12:34:26	587461	62cdb59eb5cfe2052ca5074c	3	1	main_z	11	main_z	57	stimuli_distractor_trianglediamonds.svg	stimuli_target_trianglesquares.svg	26	yes	44	1	490	0	0			0	0			1				0	
6.6.1	win	2023-06-27	12:24:35	12:34:26	587461	62cdb59eb5cfe2052ca5074c	3	1	main_z	11	advance_on_keypress_ZEE	58	stimuli_distractor_trianglediamonds.svg	stimuli_target_trianglesquares.svg	26	yes	57	0	486	0	0			0	0			1				0	
6.6.1	win	2023-06-27	12:24:35	12:34:28	589069	62cdb59eb5cfe2052ca5074c	3	1	main_z	11	main_z	59	stimuli_target_diamondrectangles.svg	stimuli_distractor_diamondtriangles.svg	23	yes	44	1	482	0	0			0	0			1				0	
6.6.1	win	2023-06-27	12:24:35	12:34:28	589069	62cdb59eb5cfe2052ca5074c	3	1	main_z	11	advance_on_keypress_ZEE	60	stimuli_target_diamondrectangles.svg	stimuli_distractor_diamondtriangles.svg	23	yes	57	0	614	0	0			0	0			1				0	
6.6.1	win	2023-06-27	12:24:35	12:34:29	590716	62cdb59eb5cfe2052ca5074c	3	1	main_z	11	main_z	61	stimuli_target_squaretriangles.svg	stimuli_distractor_diamondtriangles.svg	7	yes	44	1	379	0	0			0	0			1				0	
6.6.1	win	2023-06-27	12:24:35	12:34:29	590716	62cdb59eb5cfe2052ca5074c	3	1	main_z	11	advance_on_keypress_ZEE	62	stimuli_target_squaretriangles.svg	stimuli_distractor_diamondtriangles.svg	7	yes	57	0	708	0	0			0	0			1				0	
6.6.1	win	2023-06-27	12:24:35	12:34:31	592693	62cdb59eb5cfe2052ca5074c	3	1	main_z	11	main_z	63	stimuli_distractor_trianglediamonds.svg	stimuli_target_rectangletriangles.svg	9	yes	44	1	639	0	0			0	0			1				0	
6.6.1	win	2023-06-27	12:24:35	12:34:31	592693	62cdb59eb5cfe2052ca5074c	3	1	main_z	11	advance_on_keypress_ZEE	64	stimuli_distractor_trianglediamonds.svg	stimuli_target_rectangletriangles.svg	9	yes	57	0	910	0	0			0	0			1				0	
6.6.1	win	2023-06-27	12:24:35	12:34:33	594636	62cdb59eb5cfe2052ca5074c	3	1	main_z	11	main_z	65	stimuli_target_diamondsquares.svg	stimuli_distractor_trianglediamonds.svg	20	yes	44	1	399	0	0			0	0			1				0	
6.6.1	win	2023-06-27	12:24:35	12:34:33	594636	62cdb59eb5cfe2052ca5074c	3	1	main_z	11	advance_on_keypress_ZEE	66	stimuli_target_diamondsquares.svg	stimuli_distractor_trianglediamonds.svg	20	yes	57	0	479	0	0			0	0			1				0	
6.6.1	win	2023-06-27	12:24:35	12:34:36	597754	62cdb59eb5cfe2052ca5074c	3	1	main_z	11	main_z	67	stimuli_distractor_diamondtriangles.svg	stimuli_distractor_trianglediamonds.svg	38	no	0	1	2000	0	0			0	0			1				0	
6.6.1	win	2023-06-27	12:24:35	12:34:36	597754	62cdb59eb5cfe2052ca5074c	3	1	main_z	11	advance_on_keypress_ZEE	68	stimuli_distractor_diamondtriangles.svg	stimuli_distractor_trianglediamonds.svg	38	no	57	0	514	0	0			0	0			1				0	
6.6.1	win	2023-06-27	12:24:35	12:34:38	599349	62cdb59eb5cfe2052ca5074c	3	1	main_z	11	main_z	69	stimuli_distractor_trianglediamonds.svg	stimuli_target_diamondrectangles.svg	27	yes	44	1	428	0	0			0	0			1				0	
6.6.1	win	2023-06-27	12:24:35	12:34:38	599349	62cdb59eb5cfe2052ca5074c	3	1	main_z	11	advance_on_keypress_ZEE	70	stimuli_distractor_trianglediamonds.svg	stimuli_target_diamondrectangles.svg	27	yes	57	0	483	0	0			0	0			1				0	
6.6.1	win	2023-06-27	12:24:35	12:34:39	600885	62cdb59eb5cfe2052ca5074c	3	1	main_z	11	main_z	71	stimuli_target_rectangletriangles.svg	stimuli_distractor_trianglediamonds.svg	1	yes	44	1	414	0	0			0	0			1				0	
6.6.1	win	2023-06-27	12:24:35	12:34:39	600885	62cdb59eb5cfe2052ca5074c	3	1	main_z	11	advance_on_keypress_ZEE	72	stimuli_target_rectangletriangles.svg	stimuli_distractor_trianglediamonds.svg	1	yes	57	0	446	0	0			0	0			1				0	
6.6.1	win	2023-06-27	12:24:35	12:34:41	602333	62cdb59eb5cfe2052ca5074c	3	1	main_z	11	main_z	73	stimuli_target_squaretriangles.svg	stimuli_distractor_trianglediamonds.svg	3	yes	44	1	363	0	0			0	0			1				0	
6.6.1	win	2023-06-27	12:24:35	12:34:41	602333	62cdb59eb5cfe2052ca5074c	3	1	main_z	11	advance_on_keypress_ZEE	74	stimuli_target_squaretriangles.svg	stimuli_distractor_trianglediamonds.svg	3	yes	57	0	563	0	0			0	0			1				0	
6.6.1	win	2023-06-27	12:24:35	12:34:43	604165	62cdb59eb5cfe2052ca5074c	3	1	main_z	11	main_z	75	stimuli_target_trianglesquares.svg	stimuli_distractor_trianglediamonds.svg	18	yes	44	1	627	0	0			0	0			1				0	
6.6.1	win	2023-06-27	12:24:35	12:34:43	604165	62cdb59eb5cfe2052ca5074c	3	1	main_z	11	advance_on_keypress_ZEE	76	stimuli_target_trianglesquares.svg	stimuli_distractor_trianglediamonds.svg	18	yes	57	0	811	0	0			0	0			1				0	
6.6.1	win	2023-06-27	12:24:35	12:34:45	606677	62cdb59eb5cfe2052ca5074c	3	1	main_z	11	main_z	77	stimuli_target_rectanglediamonds.svg	stimuli_distractor_trianglediamonds.svg	2	yes	44	1	1073	0	0			0	0			1				0	
6.6.1	win	2023-06-27	12:24:35	12:34:45	606677	62cdb59eb5cfe2052ca5074c	3	1	main_z	11	advance_on_keypress_ZEE	78	stimuli_target_rectanglediamonds.svg	stimuli_distractor_trianglediamonds.svg	2	yes	57	0	502	0	0			0	0			1				0	
6.6.1	win	2023-06-27	12:24:35	12:34:47	608261	62cdb59eb5cfe2052ca5074c	3	1	main_z	11	main_z	79	stimuli_target_squarediamonds.svg	stimuli_distractor_diamondtriangles.svg	8	yes	44	1	441	0	0			0	0			1				0	
6.6.1	win	2023-06-27	12:24:35	12:34:47	608261	62cdb59eb5cfe2052ca5074c	3	1	main_z	11	advance_on_keypress_ZEE	80	stimuli_target_squarediamonds.svg	stimuli_distractor_diamondtriangles.svg	8	yes	57	0	422	0	0			0	0			1				0	
6.6.1	win	2023-06-27	12:24:35	12:34:48	609901	62cdb59eb5cfe2052ca5074c	3	1	main_z	11	main_z	81	stimuli_distractor_trianglediamonds.svg	stimuli_target_trianglerectangles.svg	25	yes	44	1	581	0	0			0	0			1				0	
6.6.1	win	2023-06-27	12:24:35	12:34:48	609901	62cdb59eb5cfe2052ca5074c	3	1	main_z	11	advance_on_keypress_ZEE	82	stimuli_distractor_trianglediamonds.svg	stimuli_target_trianglerectangles.svg	25	yes	57	0	493	0	0			0	0			1				0	
6.6.1	win	2023-06-27	12:24:35	12:34:52	613037	62cdb59eb5cfe2052ca5074c	3	1	main_z	11	main_z	83	stimuli_distractor_trianglediamonds.svg	stimuli_distractor_trianglediamonds.svg	33	no	0	1	2000	0	0			0	0			1				0	
6.6.1	win	2023-06-27	12:24:35	12:34:52	613037	62cdb59eb5cfe2052ca5074c	3	1	main_z	11	advance_on_keypress_ZEE	84	stimuli_distractor_trianglediamonds.svg	stimuli_distractor_trianglediamonds.svg	33	no	57	0	367	0	0			0	0			1				0	
6.6.1	win	2023-06-27	12:24:35	12:34:53	614436	62cdb59eb5cfe2052ca5074c	3	1	main_z	11	main_z	85	stimuli_target_squaretriangles.svg	stimuli_distractor_diamondtriangles.svg	7	yes	44	1	383	0	0			0	0			1				0	
6.6.1	win	2023-06-27	12:24:35	12:34:53	614436	62cdb59eb5cfe2052ca5074c	3	1	main_z	11	advance_on_keypress_ZEE	86	stimuli_target_squaretriangles.svg	stimuli_distractor_diamondtriangles.svg	7	yes	57	0	383	0	0			0	0			1				0	
6.6.1	win	2023-06-27	12:24:35	12:34:55	616165	62cdb59eb5cfe2052ca5074c	3	1	main_z	11	main_z	87	stimuli_distractor_diamondtriangles.svg	stimuli_target_squarediamonds.svg	16	yes	44	1	694	0	0			0	0			1				0	
6.6.1	win	2023-06-27	12:24:35	12:34:55	616165	62cdb59eb5cfe2052ca5074c	3	1	main_z	11	advance_on_keypress_ZEE	88	stimuli_distractor_diamondtriangles.svg	stimuli_target_squarediamonds.svg	16	yes	57	0	403	0	0			0	0			1				0	
6.6.1	win	2023-06-27	12:24:35	12:34:56	617861	62cdb59eb5cfe2052ca5074c	3	1	main_z	11	main_z	89	stimuli_distractor_diamondtriangles.svg	stimuli_target_trianglesquares.svg	30	yes	44	1	657	0	0			0	0			1				0	
6.6.1	win	2023-06-27	12:24:35	12:34:56	617861	62cdb59eb5cfe2052ca5074c	3	1	main_z	11	advance_on_keypress_ZEE	90	stimuli_distractor_diamondtriangles.svg	stimuli_target_trianglesquares.svg	30	yes	57	0	374	0	0			0	0			1				0	
6.6.1	win	2023-06-27	12:24:35	12:34:58	619350	62cdb59eb5cfe2052ca5074c	3	1	main_z	11	main_z	91	stimuli_target_rectangletriangles.svg	stimuli_distractor_trianglediamonds.svg	1	yes	44	1	479	0	0			0	0			1				0	
6.6.1	win	2023-06-27	12:24:35	12:34:58	619350	62cdb59eb5cfe2052ca5074c	3	1	main_z	11	advance_on_keypress_ZEE	92	stimuli_target_rectangletriangles.svg	stimuli_distractor_trianglediamonds.svg	1	yes	57	0	388	0	0			0	0			1				0	
6.6.1	win	2023-06-27	12:24:35	12:35:00	621181	62cdb59eb5cfe2052ca5074c	3	1	main_z	11	main_z	93	stimuli_target_trianglerectangles.svg	stimuli_distractor_diamondtriangles.svg	21	yes	44	1	810	0	0			0	0			1				0	
6.6.1	win	2023-06-27	12:24:35	12:35:00	621181	62cdb59eb5cfe2052ca5074c	3	1	main_z	11	advance_on_keypress_ZEE	94	stimuli_target_trianglerectangles.svg	stimuli_distractor_diamondtriangles.svg	21	yes	57	0	346	0	0			0	0			1				0	
6.6.1	win	2023-06-27	12:24:35	12:35:01	622693	62cdb59eb5cfe2052ca5074c	3	1	main_z	11	main_z	95	stimuli_distractor_trianglediamonds.svg	stimuli_target_diamondsquares.svg	28	yes	44	1	539	0	0			0	0			1				0	
6.6.1	win	2023-06-27	12:24:35	12:35:01	622693	62cdb59eb5cfe2052ca5074c	3	1	main_z	11	advance_on_keypress_ZEE	96	stimuli_distractor_trianglediamonds.svg	stimuli_target_diamondsquares.svg	28	yes	57	0	414	0	0			0	0			1				0	
6.6.1	win	2023-06-27	12:24:35	12:35:03	624205	62cdb59eb5cfe2052ca5074c	3	1	main_z	11	main_z	97	stimuli_target_squarediamonds.svg	stimuli_distractor_trianglediamonds.svg	4	yes	44	1	451	0	0			0	0			1				0	
6.6.1	win	2023-06-27	12:24:35	12:35:03	624205	62cdb59eb5cfe2052ca5074c	3	1	main_z	11	advance_on_keypress_ZEE	98	stimuli_target_squarediamonds.svg	stimuli_distractor_trianglediamonds.svg	4	yes	57	0	360	0	0			0	0			1				0	
6.6.1	win	2023-06-27	12:24:35	12:35:06	627204	62cdb59eb5cfe2052ca5074c	3	1	main_z	11	main_z	99	stimuli_distractor_trianglediamonds.svg	stimuli_distractor_diamondtriangles.svg	36	no	0	1	2000	0	0			0	0			1				0	
6.6.1	win	2023-06-27	12:24:35	12:35:06	627204	62cdb59eb5cfe2052ca5074c	3	1	main_z	11	advance_on_keypress_ZEE	100	stimuli_distractor_trianglediamonds.svg	stimuli_distractor_diamondtriangles.svg	36	no	57	0	745	0	0			0	0			1				0	
6.6.1	win	2023-06-27	12:24:35	12:35:08	629461	62cdb59eb5cfe2052ca5074c	3	1	main_z	11	main_z	101	stimuli_distractor_diamondtriangles.svg	stimuli_target_diamondrectangles.svg	31	yes	44	1	873	0	0			0	0			1				0	
6.6.1	win	2023-06-27	12:24:35	12:35:08	629461	62cdb59eb5cfe2052ca5074c	3	1	main_z	11	advance_on_keypress_ZEE	102	stimuli_distractor_diamondtriangles.svg	stimuli_target_diamondrectangles.svg	31	yes	57	0	494	0	0			0	0			1				0	
6.6.1	win	2023-06-27	12:24:35	12:35:11	632587	62cdb59eb5cfe2052ca5074c	3	1	main_z	11	main_z	103	stimuli_distractor_trianglediamonds.svg	stimuli_distractor_trianglediamonds.svg	34	no	0	1	2000	0	0			0	0			1				0	
6.6.1	win	2023-06-27	12:24:35	12:35:11	632587	62cdb59eb5cfe2052ca5074c	3	1	main_z	11	advance_on_keypress_ZEE	104	stimuli_distractor_trianglediamonds.svg	stimuli_distractor_trianglediamonds.svg	34	no	57	0	713	0	0			0	0			1				0	
6.6.1	win	2023-06-27	12:24:35	12:35:15	635954	62cdb59eb5cfe2052ca5074c	3	1	main_z	11	main_z	105	stimuli_distractor_diamondtriangles.svg	stimuli_distractor_diamondtriangles.svg	40	no	0	1	2000	0	0			0	0			1				0	
6.6.1	win	2023-06-27	12:24:35	12:35:15	635954	62cdb59eb5cfe2052ca5074c	3	1	main_z	11	advance_on_keypress_ZEE	106	stimuli_distractor_diamondtriangles.svg	stimuli_distractor_diamondtriangles.svg	40	no	57	0	514	0	0			0	0			1				0	
6.6.1	win	2023-06-27	12:24:35	12:35:16	637644	62cdb59eb5cfe2052ca5074c	3	1	main_z	11	main_z	107	stimuli_target_trianglerectangles.svg	stimuli_distractor_trianglediamonds.svg	17	yes	44	1	524	0	0			0	0			1				0	
6.6.1	win	2023-06-27	12:24:35	12:35:16	637644	62cdb59eb5cfe2052ca5074c	3	1	main_z	11	advance_on_keypress_ZEE	108	stimuli_target_trianglerectangles.svg	stimuli_distractor_trianglediamonds.svg	17	yes	57	0	408	0	0			0	0			1				0	
6.6.1	win	2023-06-27	12:24:35	12:35:19	640687	62cdb59eb5cfe2052ca5074c	3	1	main_z	11	main_z	109	stimuli_distractor_trianglediamonds.svg	stimuli_target_rectangletriangles.svg	9	yes	0	0	2000	0	0			0	0			1				0	
6.6.1	win	2023-06-27	12:24:35	12:35:19	640687	62cdb59eb5cfe2052ca5074c	3	1	main_z	11	advance_on_keypress_ZEE	110	stimuli_distractor_trianglediamonds.svg	stimuli_target_rectangletriangles.svg	9	yes	57	0	557	0	0			0	0			1				0	
6.6.1	win	2023-06-27	12:24:35	12:35:21	642404	62cdb59eb5cfe2052ca5074c	3	1	main_z	11	main_z	111	stimuli_distractor_trianglediamonds.svg	stimuli_target_squarediamonds.svg	12	yes	44	1	517	0	0			0	0			1				0	
6.6.1	win	2023-06-27	12:24:35	12:35:21	642404	62cdb59eb5cfe2052ca5074c	3	1	main_z	11	advance_on_keypress_ZEE	112	stimuli_distractor_trianglediamonds.svg	stimuli_target_squarediamonds.svg	12	yes	57	0	585	0	0			0	0			1				0	
6.6.1	win	2023-06-27	12:24:35	12:35:24	645637	62cdb59eb5cfe2052ca5074c	3	1	main_z	11	main_z	113	stimuli_distractor_diamondtriangles.svg	stimuli_distractor_trianglediamonds.svg	38	no	0	1	2000	0	0			0	0			1				0	
6.6.1	win	2023-06-27	12:24:35	12:35:24	645637	62cdb59eb5cfe2052ca5074c	3	1	main_z	11	advance_on_keypress_ZEE	114	stimuli_distractor_diamondtriangles.svg	stimuli_distractor_trianglediamonds.svg	38	no	57	0	478	0	0			0	0			1				0	
6.6.1	win	2023-06-27	12:24:35	12:35:26	647197	62cdb59eb5cfe2052ca5074c	3	1	main_z	11	main_z	115	stimuli_target_rectanglediamonds.svg	stimuli_distractor_diamondtriangles.svg	6	yes	44	1	444	0	0			0	0			1				0	
6.6.1	win	2023-06-27	12:24:35	12:35:26	647197	62cdb59eb5cfe2052ca5074c	3	1	main_z	11	advance_on_keypress_ZEE	116	stimuli_target_rectanglediamonds.svg	stimuli_distractor_diamondtriangles.svg	6	yes	57	0	425	0	0			0	0			1				0	
6.6.1	win	2023-06-27	12:24:35	12:35:27	648885	62cdb59eb5cfe2052ca5074c	3	1	main_z	11	main_z	117	stimuli_target_diamondsquares.svg	stimuli_distractor_diamondtriangles.svg	24	yes	44	1	631	0	0			0	0			1				0	
6.6.1	win	2023-06-27	12:24:35	12:35:27	648885	62cdb59eb5cfe2052ca5074c	3	1	main_z	11	advance_on_keypress_ZEE	118	stimuli_target_diamondsquares.svg	stimuli_distractor_diamondtriangles.svg	24	yes	57	0	477	0	0			0	0			1				0	
6.6.1	win	2023-06-27	12:24:35	12:35:29	650413	62cdb59eb5cfe2052ca5074c	3	1	main_z	11	main_z	119	stimuli_target_diamondrectangles.svg	stimuli_distractor_diamondtriangles.svg	23	yes	44	1	409	0	0			0	0			1				0	
6.6.1	win	2023-06-27	12:24:35	12:35:29	650413	62cdb59eb5cfe2052ca5074c	3	1	main_z	11	advance_on_keypress_ZEE	120	stimuli_target_diamondrectangles.svg	stimuli_distractor_diamondtriangles.svg	23	yes	57	0	400	0	0			0	0			1				0	
6.6.1	win	2023-06-27	12:24:35	12:35:31	652005	62cdb59eb5cfe2052ca5074c	3	1	main_z	11	main_z	121	stimuli_distractor_diamondtriangles.svg	stimuli_target_rectangletriangles.svg	13	yes	44	1	551	0	0			0	0			1				0	
6.6.1	win	2023-06-27	12:24:35	12:35:31	652005	62cdb59eb5cfe2052ca5074c	3	1	main_z	11	advance_on_keypress_ZEE	122	stimuli_distractor_diamondtriangles.svg	stimuli_target_rectangletriangles.svg	13	yes	57	0	521	0	0			0	0			1				0	
6.6.1	win	2023-06-27	12:24:35	12:35:32	653717	62cdb59eb5cfe2052ca5074c	3	1	main_z	11	main_z	123	stimuli_target_trianglesquares.svg	stimuli_distractor_trianglediamonds.svg	18	yes	44	1	546	0	0			0	0			1				0	
6.6.1	win	2023-06-27	12:24:35	12:35:32	653717	62cdb59eb5cfe2052ca5074c	3	1	main_z	11	advance_on_keypress_ZEE	124	stimuli_target_trianglesquares.svg	stimuli_distractor_trianglediamonds.svg	18	yes	57	0	604	0	0			0	0			1				0	
6.6.1	win	2023-06-27	12:24:35	12:35:34	655381	62cdb59eb5cfe2052ca5074c	3	1	main_z	11	main_z	125	stimuli_target_squarediamonds.svg	stimuli_distractor_diamondtriangles.svg	8	yes	44	1	427	0	0			0	0			1				0	
6.6.1	win	2023-06-27	12:24:35	12:35:34	655381	62cdb59eb5cfe2052ca5074c	3	1	main_z	11	advance_on_keypress_ZEE	126	stimuli_target_squarediamonds.svg	stimuli_distractor_diamondtriangles.svg	8	yes	57	0	409	0	0			0	0			1				0	
6.6.1	win	2023-06-27	12:24:35	12:35:35	656861	62cdb59eb5cfe2052ca5074c	3	1	main_z	11	main_z	127	stimuli_target_rectanglediamonds.svg	stimuli_distractor_trianglediamonds.svg	2	yes	44	1	441	0	0			0	0			1				0	
6.6.1	win	2023-06-27	12:24:35	12:35:35	656861	62cdb59eb5cfe2052ca5074c	3	1	main_z	11	advance_on_keypress_ZEE	128	stimuli_target_rectanglediamonds.svg	stimuli_distractor_trianglediamonds.svg	2	yes	57	0	406	0	0			0	0			1				0	
6.6.1	win	2023-06-27	12:24:35	12:35:37	658397	62cdb59eb5cfe2052ca5074c	3	1	main_z	11	main_z	129	stimuli_distractor_diamondtriangles.svg	stimuli_target_squaretriangles.svg	15	yes	44	1	494	0	0			0	0			1				0	
6.6.1	win	2023-06-27	12:24:35	12:35:37	658397	62cdb59eb5cfe2052ca5074c	3	1	main_z	11	advance_on_keypress_ZEE	130	stimuli_distractor_diamondtriangles.svg	stimuli_target_squaretriangles.svg	15	yes	57	0	393	0	0			0	0			1				0	
6.6.1	win	2023-06-27	12:24:35	12:35:40	661420	62cdb59eb5cfe2052ca5074c	3	1	main_z	11	main_z	131	stimuli_distractor_diamondtriangles.svg	stimuli_distractor_diamondtriangles.svg	39	no	0	1	2000	0	0			0	0			1				0	
6.6.1	win	2023-06-27	12:24:35	12:35:40	661420	62cdb59eb5cfe2052ca5074c	3	1	main_z	11	advance_on_keypress_ZEE	132	stimuli_distractor_diamondtriangles.svg	stimuli_distractor_diamondtriangles.svg	39	no	57	0	376	0	0			0	0			1				0	
6.6.1	win	2023-06-27	12:24:35	12:35:43	664437	62cdb59eb5cfe2052ca5074c	3	1	main_z	11	main_z	133	stimuli_distractor_diamondtriangles.svg	stimuli_distractor_trianglediamonds.svg	37	no	0	1	2000	0	0			0	0			1				0	
6.6.1	win	2023-06-27	12:24:35	12:35:43	664437	62cdb59eb5cfe2052ca5074c	3	1	main_z	11	advance_on_keypress_ZEE	134	stimuli_distractor_diamondtriangles.svg	stimuli_distractor_trianglediamonds.svg	37	no	57	0	360	0	0			0	0			1				0	
6.6.1	win	2023-06-27	12:24:35	12:35:44	665836	62cdb59eb5cfe2052ca5074c	3	1	main_z	11	main_z	135	stimuli_target_squaretriangles.svg	stimuli_distractor_trianglediamonds.svg	3	yes	44	1	399	0	0			0	0			1				0	
6.6.1	win	2023-06-27	12:24:35	12:35:44	665836	62cdb59eb5cfe2052ca5074c	3	1	main_z	11	advance_on_keypress_ZEE	136	stimuli_target_squaretriangles.svg	stimuli_distractor_trianglediamonds.svg	3	yes	57	0	463	0	0			0	0			1				0	
6.6.1	win	2023-06-27	12:24:35	12:35:46	667373	62cdb59eb5cfe2052ca5074c	3	1	main_z	11	main_z	137	stimuli_distractor_trianglediamonds.svg	stimuli_target_squaretriangles.svg	11	yes	44	1	435	0	0			0	0			1				0	
6.6.1	win	2023-06-27	12:24:35	12:35:46	667373	62cdb59eb5cfe2052ca5074c	3	1	main_z	11	advance_on_keypress_ZEE	138	stimuli_distractor_trianglediamonds.svg	stimuli_target_squaretriangles.svg	11	yes	57	0	385	0	0			0	0			1				0	
6.6.1	win	2023-06-27	12:24:35	12:35:48	669173	62cdb59eb5cfe2052ca5074c	3	1	main_z	11	main_z	139	stimuli_distractor_diamondtriangles.svg	stimuli_target_diamondsquares.svg	32	yes	44	1	769	0	0			0	0			1				0	
6.6.1	win	2023-06-27	12:24:35	12:35:48	669173	62cdb59eb5cfe2052ca5074c	3	1	main_z	11	advance_on_keypress_ZEE	140	stimuli_distractor_diamondtriangles.svg	stimuli_target_diamondsquares.svg	32	yes	57	0	473	0	0			0	0			1				0	
6.6.1	win	2023-06-27	12:24:35	12:35:49	670709	62cdb59eb5cfe2052ca5074c	3	1	main_z	11	main_z	141	stimuli_target_trianglesquares.svg	stimuli_distractor_diamondtriangles.svg	22	yes	44	1	421	0	0			0	0			1				0	
6.6.1	win	2023-06-27	12:24:35	12:35:49	670709	62cdb59eb5cfe2052ca5074c	3	1	main_z	11	advance_on_keypress_ZEE	142	stimuli_target_trianglesquares.svg	stimuli_distractor_diamondtriangles.svg	22	yes	57	0	372	0	0			0	0			1				0	
6.6.1	win	2023-06-27	12:24:35	12:35:51	672189	62cdb59eb5cfe2052ca5074c	3	1	main_z	11	main_z	143	stimuli_distractor_trianglediamonds.svg	stimuli_target_rectanglediamonds.svg	10	yes	44	1	468	0	0			0	0			1				0	
6.6.1	win	2023-06-27	12:24:35	12:35:51	672189	62cdb59eb5cfe2052ca5074c	3	1	main_z	11	advance_on_keypress_ZEE	144	stimuli_distractor_trianglediamonds.svg	stimuli_target_rectanglediamonds.svg	10	yes	57	0	329	0	0			0	0			1				0	
6.6.1	win	2023-06-27	12:24:35	12:35:52	673573	62cdb59eb5cfe2052ca5074c	3	1	main_z	11	main_z	145	stimuli_distractor_diamondtriangles.svg	stimuli_target_rectanglediamonds.svg	14	yes	44	1	419	0	0			0	0			1				0	
6.6.1	win	2023-06-27	12:24:35	12:35:52	673573	62cdb59eb5cfe2052ca5074c	3	1	main_z	11	advance_on_keypress_ZEE	146	stimuli_distractor_diamondtriangles.svg	stimuli_target_rectanglediamonds.svg	14	yes	57	0	353	0	0			0	0			1				0	
6.6.1	win	2023-06-27	12:24:35	12:35:54	674989	62cdb59eb5cfe2052ca5074c	3	1	main_z	11	main_z	147	stimuli_target_diamondrectangles.svg	stimuli_distractor_trianglediamonds.svg	19	yes	44	1	418	0	0			0	0			1				0	
6.6.1	win	2023-06-27	12:24:35	12:35:54	674989	62cdb59eb5cfe2052ca5074c	3	1	main_z	11	advance_on_keypress_ZEE	148	stimuli_target_diamondrectangles.svg	stimuli_distractor_trianglediamonds.svg	19	yes	57	0	305	0	0			0	0			1				0	
6.6.1	win	2023-06-27	12:24:35	12:35:55	676389	62cdb59eb5cfe2052ca5074c	3	1	main_z	11	main_z	149	stimuli_distractor_diamondtriangles.svg	stimuli_target_trianglerectangles.svg	29	yes	44	1	451	0	0			0	0			1				0	
6.6.1	win	2023-06-27	12:24:35	12:35:55	676389	62cdb59eb5cfe2052ca5074c	3	1	main_z	11	advance_on_keypress_ZEE	150	stimuli_distractor_diamondtriangles.svg	stimuli_target_trianglerectangles.svg	29	yes	57	0	329	0	0			0	0			1				0	
6.6.1	win	2023-06-27	12:24:35	12:35:56	677797	62cdb59eb5cfe2052ca5074c	3	1	main_z	11	main_z	151	stimuli_target_rectangletriangles.svg	stimuli_distractor_diamondtriangles.svg	5	yes	44	1	443	0	0			0	0			1				0	
6.6.1	win	2023-06-27	12:24:35	12:35:56	677797	62cdb59eb5cfe2052ca5074c	3	1	main_z	11	advance_on_keypress_ZEE	152	stimuli_target_rectangletriangles.svg	stimuli_distractor_diamondtriangles.svg	5	yes	57	0	305	0	0			0	0			1				0	
6.6.1	win	2023-06-27	12:24:35	12:35:58	679108	62cdb59eb5cfe2052ca5074c	3	1	main_z	11	main_z	153	stimuli_distractor_trianglediamonds.svg	stimuli_distractor_diamondtriangles.svg	35	no	44	0	371	0	0			0	0			1				0	
6.6.1	win	2023-06-27	12:24:35	12:35:58	679108	62cdb59eb5cfe2052ca5074c	3	1	main_z	11	advance_on_keypress_ZEE	154	stimuli_distractor_trianglediamonds.svg	stimuli_distractor_diamondtriangles.svg	35	no	57	0	332	0	0			0	0			1				0	
6.6.1	win	2023-06-27	12:24:35	12:35:59	680885	62cdb59eb5cfe2052ca5074c	3	1	main_z	11	main_z	155	stimuli_distractor_trianglediamonds.svg	stimuli_target_diamondrectangles.svg	27	yes	44	1	797	0	0			0	0			1				0	
6.6.1	win	2023-06-27	12:24:35	12:35:59	680885	62cdb59eb5cfe2052ca5074c	3	1	main_z	11	advance_on_keypress_ZEE	156	stimuli_distractor_trianglediamonds.svg	stimuli_target_diamondrectangles.svg	27	yes	57	0	389	0	0			0	0			1				0	
6.6.1	win	2023-06-27	12:24:35	12:36:01	682573	62cdb59eb5cfe2052ca5074c	3	1	main_z	11	main_z	157	stimuli_target_diamondsquares.svg	stimuli_distractor_trianglediamonds.svg	20	yes	44	1	652	0	0			0	0			1				0	
6.6.1	win	2023-06-27	12:24:35	12:36:01	682573	62cdb59eb5cfe2052ca5074c	3	1	main_z	11	advance_on_keypress_ZEE	158	stimuli_target_diamondsquares.svg	stimuli_distractor_trianglediamonds.svg	20	yes	57	0	337	0	0			0	0			1				0	
6.6.1	win	2023-06-27	12:24:35	12:36:03	684060	62cdb59eb5cfe2052ca5074c	3	1	main_z	11	main_z	159	stimuli_distractor_trianglediamonds.svg	stimuli_target_trianglesquares.svg	26	yes	44	1	507	0	0			0	0			1				0	
6.6.1	win	2023-06-27	12:24:35	12:36:03	684060	62cdb59eb5cfe2052ca5074c	3	1	main_z	11	advance_on_keypress_ZEE	160	stimuli_distractor_trianglediamonds.svg	stimuli_target_trianglesquares.svg	26	yes	57	0	302	0	0			0	0			1				0	
6.6.1	win	2023-06-27	12:24:35	12:36:03	684060	62cdb59eb5cfe2052ca5074c	3	1	headphonecheck_calibration	14	headphonecheck_calibrationIntro	1	stimuli_distractor_trianglediamonds.svg	stimuli_target_trianglesquares.svg	26	yes	calibrationButton	0	3480	0	0			0	0			1				0	
6.6.1	win	2023-06-27	12:24:35	12:36:03	684060	62cdb59eb5cfe2052ca5074c	3	1	headphonecheck_testphase	15	test_collectResponse	3	stimuli_distractor_trianglediamonds.svg	stimuli_target_trianglesquares.svg	26	yes	first	0	2042	1	5	antiphase_hc_osi.wav	2	0	0			1				0	
6.6.1	win	2023-06-27	12:24:35	12:36:03	684060	62cdb59eb5cfe2052ca5074c	3	1	headphonecheck_testphase	15	test_collectResponse	6	stimuli_distractor_trianglediamonds.svg	stimuli_target_trianglesquares.svg	26	yes	first	0	557	2	6	antiphase_hc_ois.wav	3	0	0			1				0	
6.6.1	win	2023-06-27	12:24:35	12:36:03	684060	62cdb59eb5cfe2052ca5074c	3	1	headphonecheck_testphase	15	test_collectResponse	9	stimuli_distractor_trianglediamonds.svg	stimuli_target_trianglesquares.svg	26	yes	third	0	330	3	1	antiphase_hc_iso.wav	2	0	0			1				0	
6.6.1	win	2023-06-27	12:24:35	12:36:03	684060	62cdb59eb5cfe2052ca5074c	3	1	headphonecheck_testphase	15	test_collectResponse	12	stimuli_distractor_trianglediamonds.svg	stimuli_target_trianglesquares.svg	26	yes	second	0	685	4	2	antiphase_hc_ios.wav	3	0	0			1				0	
6.6.1	win	2023-06-27	12:24:35	12:36:03	684060	62cdb59eb5cfe2052ca5074c	3	1	headphonecheck_testphase	15	test_collectResponse	15	stimuli_distractor_trianglediamonds.svg	stimuli_target_trianglesquares.svg	26	yes	second	0	371	5	3	antiphase_hc_soi.wav	1	0	0			1				0	
6.6.1	win	2023-06-27	12:24:35	12:36:03	684060	62cdb59eb5cfe2052ca5074c	3	1	headphonecheck_testphase	15	test_collectResponse	18	stimuli_distractor_trianglediamonds.svg	stimuli_target_trianglesquares.svg	26	yes	third	0	343	6	4	antiphase_hc_sio.wav	1	0	0			1				0	
6.6.1	win	2023-06-27	12:24:35	12:36:03	684060	62cdb59eb5cfe2052ca5074c	3	1	stereocheck_calibration	17	stereocheck_calibrationIntro	1	stimuli_distractor_trianglediamonds.svg	stimuli_target_trianglesquares.svg	26	yes	stereocheck_calibrationButton	0	3356	6	4	antiphase_hc_sio.wav	1	0	0			1				0	
6.6.1	win	2023-06-27	12:24:35	12:36:03	684060	62cdb59eb5cfe2052ca5074c	3	1	stereocheck_testphase	18	stereocheck_test_collectResponse	3	stimuli_distractor_trianglediamonds.svg	stimuli_target_trianglesquares.svg	26	yes	stereocheck_left	1	358	6	4	antiphase_hc_sio.wav	1	1	1	noise_calib_stim_LEFT.wav	1	1				0	
6.6.1	win	2023-06-27	12:24:35	12:36:03	684060	62cdb59eb5cfe2052ca5074c	3	1	stereocheck_testphase	18	stereocheck_test_collectResponse	6	stimuli_distractor_trianglediamonds.svg	stimuli_target_trianglesquares.svg	26	yes	stereocheck_left	0	3940	6	4	antiphase_hc_sio.wav	1	2	4	noise_calib_stim_RIGHT.wav	2	1				0	
6.6.1	win	2023-06-27	12:24:35	12:36:03	684060	62cdb59eb5cfe2052ca5074c	3	1	stereocheck_testphase	18	stereocheck_test_collectResponse	9	stimuli_distractor_trianglediamonds.svg	stimuli_target_trianglesquares.svg	26	yes	stereocheck_left	1	326	6	4	antiphase_hc_sio.wav	1	3	3	noise_calib_stim_LEFT.wav	1	1				0	
6.6.1	win	2023-06-27	12:24:35	12:36:03	684060	62cdb59eb5cfe2052ca5074c	3	1	stereocheck_testphase	18	stereocheck_test_collectResponse	12	stimuli_distractor_trianglediamonds.svg	stimuli_target_trianglesquares.svg	26	yes	stereocheck_left	1	367	6	4	antiphase_hc_sio.wav	1	4	2	noise_calib_stim_LEFT.wav	1	1				0	
6.6.1	win	2023-06-27	12:24:35	12:36:03	684060	62cdb59eb5cfe2052ca5074c	3	1	stereocheck_testphase	18	stereocheck_test_collectResponse	15	stimuli_distractor_trianglediamonds.svg	stimuli_target_trianglesquares.svg	26	yes	stereocheck_right	1	326	6	4	antiphase_hc_sio.wav	1	5	5	noise_calib_stim_RIGHT.wav	2	1				0	
6.6.1	win	2023-06-27	12:24:35	12:36:03	684060	62cdb59eb5cfe2052ca5074c	3	1	stereocheck_testphase	18	stereocheck_test_collectResponse	18	stimuli_distractor_trianglediamonds.svg	stimuli_target_trianglesquares.svg	26	yes	stereocheck_right	1	516	6	4	antiphase_hc_sio.wav	1	6	6	noise_calib_stim_RIGHT.wav	2	1				0	
6.6.1	win	2023-06-27	12:24:35	12:36:03	684060	62cdb59eb5cfe2052ca5074c	3	1	DL_practice	21	DL_practice	2	stimuli_distractor_trianglediamonds.svg	stimuli_target_trianglesquares.svg	26	yes	ga	1	2092	6	4	antiphase_hc_sio.wav	1	6	6	noise_calib_stim_RIGHT.wav	2	18	blb_dichoticlistening_ga-ta.mp3	ga	ta	1	left
6.6.1	win	2023-06-27	12:24:35	12:36:03	684060	62cdb59eb5cfe2052ca5074c	3	1	DL_practice	21	DL_practice	3	stimuli_distractor_trianglediamonds.svg	stimuli_target_trianglesquares.svg	26	yes	pa	0	1327	6	4	antiphase_hc_sio.wav	1	6	6	noise_calib_stim_RIGHT.wav	2	7	blb_dichoticlistening_da-ba.mp3	da	ba	1	other
6.6.1	win	2023-06-27	12:24:35	12:36:03	684060	62cdb59eb5cfe2052ca5074c	3	1	DL_practice	21	DL_practice	4	stimuli_distractor_trianglediamonds.svg	stimuli_target_trianglesquares.svg	26	yes	pa	1	1200	6	4	antiphase_hc_sio.wav	1	6	6	noise_calib_stim_RIGHT.wav	2	29	blb_dichoticlistening_pa-pa.mp3	pa	pa	0	left
6.6.1	win	2023-06-27	12:24:35	12:36:03	684060	62cdb59eb5cfe2052ca5074c	3	1	DL_practice	21	DL_practice	5	stimuli_distractor_trianglediamonds.svg	stimuli_target_trianglesquares.svg	26	yes	ka	1	1038	6	4	antiphase_hc_sio.wav	1	6	6	noise_calib_stim_RIGHT.wav	2	22	blb_dichoticlistening_ka-ka.mp3	ka	ka	0	left
6.6.1	win	2023-06-27	12:24:35	12:36:03	684060	62cdb59eb5cfe2052ca5074c	3	1	DL_practice	21	DL_practice	6	stimuli_distractor_trianglediamonds.svg	stimuli_target_trianglesquares.svg	26	yes	ka	1	866	6	4	antiphase_hc_sio.wav	1	6	6	noise_calib_stim_RIGHT.wav	2	23	blb_dichoticlistening_ka-pa.mp3	ka	pa	1	left
6.6.1	win	2023-06-27	12:24:35	12:36:03	684060	62cdb59eb5cfe2052ca5074c	3	1	DL_practice	21	DL_practice	7	stimuli_distractor_trianglediamonds.svg	stimuli_target_trianglesquares.svg	26	yes	ba	1	1069	6	4	antiphase_hc_sio.wav	1	6	6	noise_calib_stim_RIGHT.wav	2	1	blb_dichoticlistening_ba-ba.mp3	ba	ba	0	left
6.6.1	win	2023-06-27	12:24:35	12:36:03	684060	62cdb59eb5cfe2052ca5074c	3	1	DL_practice	21	DL_practice	8	stimuli_distractor_trianglediamonds.svg	stimuli_target_trianglesquares.svg	26	yes	ga	0	976	6	4	antiphase_hc_sio.wav	1	6	6	noise_calib_stim_RIGHT.wav	2	8	blb_dichoticlistening_da-da.mp3	da	da	0	other
6.6.1	win	2023-06-27	12:24:35	12:36:03	684060	62cdb59eb5cfe2052ca5074c	3	1	DL_practice	21	DL_practice	9	stimuli_distractor_trianglediamonds.svg	stimuli_target_trianglesquares.svg	26	yes	ga	1	871	6	4	antiphase_hc_sio.wav	1	6	6	noise_calib_stim_RIGHT.wav	2	15	blb_dichoticlistening_ga-ga.mp3	ga	ga	0	left
6.6.1	win	2023-06-27	12:24:35	12:36:03	684060	62cdb59eb5cfe2052ca5074c	3	1	DL_practice	21	DL_practice	10	stimuli_distractor_trianglediamonds.svg	stimuli_target_trianglesquares.svg	26	yes	ta	1	1339	6	4	antiphase_hc_sio.wav	1	6	6	noise_calib_stim_RIGHT.wav	2	36	blb_dichoticlistening_ta-ta.mp3	ta	ta	0	left
6.6.1	win	2023-06-27	12:24:35	12:36:03	684060	62cdb59eb5cfe2052ca5074c	3	1	DL_test	23	DL_test	1	stimuli_distractor_trianglediamonds.svg	stimuli_target_trianglesquares.svg	26	yes	ga	1	720	6	4	antiphase_hc_sio.wav	1	6	6	noise_calib_stim_RIGHT.wav	2	15	blb_dichoticlistening_ga-ga.mp3	ga	ga	0	left
6.6.1	win	2023-06-27	12:24:35	12:36:03	684060	62cdb59eb5cfe2052ca5074c	3	1	DL_test	23	DL_test	2	stimuli_distractor_trianglediamonds.svg	stimuli_target_trianglesquares.svg	26	yes	da	1	1161	6	4	antiphase_hc_sio.wav	1	6	6	noise_calib_stim_RIGHT.wav	2	11	blb_dichoticlistening_da-pa.mp3	da	pa	1	left
6.6.1	win	2023-06-27	12:24:35	12:36:03	684060	62cdb59eb5cfe2052ca5074c	3	1	DL_test	23	DL_test	3	stimuli_distractor_trianglediamonds.svg	stimuli_target_trianglesquares.svg	26	yes	ga	1	841	6	4	antiphase_hc_sio.wav	1	6	6	noise_calib_stim_RIGHT.wav	2	9	blb_dichoticlistening_da-ga.mp3	da	ga	1	right
6.6.1	win	2023-06-27	12:24:35	12:36:03	684060	62cdb59eb5cfe2052ca5074c	3	1	DL_test	23	DL_test	4	stimuli_distractor_trianglediamonds.svg	stimuli_target_trianglesquares.svg	26	yes	ba	1	1261	6	4	antiphase_hc_sio.wav	1	6	6	noise_calib_stim_RIGHT.wav	2	2	blb_dichoticlistening_ba-da.mp3	ba	da	1	left
6.6.1	win	2023-06-27	12:24:35	12:36:03	684060	62cdb59eb5cfe2052ca5074c	3	1	DL_test	23	DL_test	5	stimuli_distractor_trianglediamonds.svg	stimuli_target_trianglesquares.svg	26	yes	ga	0	801	6	4	antiphase_hc_sio.wav	1	6	6	noise_calib_stim_RIGHT.wav	2	20	blb_dichoticlistening_ka-da.mp3	ka	da	1	other
6.6.1	win	2023-06-27	12:24:35	12:36:03	684060	62cdb59eb5cfe2052ca5074c	3	1	DL_test	23	DL_test	6	stimuli_distractor_trianglediamonds.svg	stimuli_target_trianglesquares.svg	26	yes	ba	1	863	6	4	antiphase_hc_sio.wav	1	6	6	noise_calib_stim_RIGHT.wav	2	7	blb_dichoticlistening_da-ba.mp3	da	ba	1	right
6.6.1	win	2023-06-27	12:24:35	12:36:03	684060	62cdb59eb5cfe2052ca5074c	3	1	DL_test	23	DL_test	7	stimuli_distractor_trianglediamonds.svg	stimuli_target_trianglesquares.svg	26	yes	ka	1	1035	6	4	antiphase_hc_sio.wav	1	6	6	noise_calib_stim_RIGHT.wav	2	23	blb_dichoticlistening_ka-pa.mp3	ka	pa	1	left
6.6.1	win	2023-06-27	12:24:35	12:36:03	684060	62cdb59eb5cfe2052ca5074c	3	1	DL_test	23	DL_test	8	stimuli_distractor_trianglediamonds.svg	stimuli_target_trianglesquares.svg	26	yes	ga	1	1040	6	4	antiphase_hc_sio.wav	1	6	6	noise_calib_stim_RIGHT.wav	2	27	blb_dichoticlistening_pa-ga.mp3	pa	ga	1	right
6.6.1	win	2023-06-27	12:24:35	12:36:03	684060	62cdb59eb5cfe2052ca5074c	3	1	DL_test	23	DL_test	9	stimuli_distractor_trianglediamonds.svg	stimuli_target_trianglesquares.svg	26	yes	ta	1	1165	6	4	antiphase_hc_sio.wav	1	6	6	noise_calib_stim_RIGHT.wav	2	36	blb_dichoticlistening_ta-ta.mp3	ta	ta	0	left
6.6.1	win	2023-06-27	12:24:35	12:36:03	684060	62cdb59eb5cfe2052ca5074c	3	1	DL_test	23	DL_test	10	stimuli_distractor_trianglediamonds.svg	stimuli_target_trianglesquares.svg	26	yes	ka	1	1076	6	4	antiphase_hc_sio.wav	1	6	6	noise_calib_stim_RIGHT.wav	2	34	blb_dichoticlistening_ta-ka.mp3	ta	ka	1	right
6.6.1	win	2023-06-27	12:24:35	12:36:03	684060	62cdb59eb5cfe2052ca5074c	3	1	DL_test	23	DL_test	11	stimuli_distractor_trianglediamonds.svg	stimuli_target_trianglesquares.svg	26	yes	ga	1	1055	6	4	antiphase_hc_sio.wav	1	6	6	noise_calib_stim_RIGHT.wav	2	33	blb_dichoticlistening_ta-ga.mp3	ta	ga	1	right
6.6.1	win	2023-06-27	12:24:35	12:36:03	684060	62cdb59eb5cfe2052ca5074c	3	1	DL_test	23	DL_test	12	stimuli_distractor_trianglediamonds.svg	stimuli_target_trianglesquares.svg	26	yes	ba	1	1098	6	4	antiphase_hc_sio.wav	1	6	6	noise_calib_stim_RIGHT.wav	2	31	blb_dichoticlistening_ta-ba.mp3	ta	ba	1	right
6.6.1	win	2023-06-27	12:24:35	12:36:03	684060	62cdb59eb5cfe2052ca5074c	3	1	DL_test	23	DL_test	13	stimuli_distractor_trianglediamonds.svg	stimuli_target_trianglesquares.svg	26	yes	ga	1	1092	6	4	antiphase_hc_sio.wav	1	6	6	noise_calib_stim_RIGHT.wav	2	17	blb_dichoticlistening_ga-pa.mp3	ga	pa	1	left
6.6.1	win	2023-06-27	12:24:35	12:36:03	684060	62cdb59eb5cfe2052ca5074c	3	1	DL_test	23	DL_test	14	stimuli_distractor_trianglediamonds.svg	stimuli_target_trianglesquares.svg	26	yes	da	1	1278	6	4	antiphase_hc_sio.wav	1	6	6	noise_calib_stim_RIGHT.wav	2	12	blb_dichoticlistening_da-ta.mp3	da	ta	1	left
6.6.1	win	2023-06-27	12:24:35	12:36:03	684060	62cdb59eb5cfe2052ca5074c	3	1	DL_test	23	DL_test	15	stimuli_distractor_trianglediamonds.svg	stimuli_target_trianglesquares.svg	26	yes	da	1	1183	6	4	antiphase_hc_sio.wav	1	6	6	noise_calib_stim_RIGHT.wav	2	26	blb_dichoticlistening_pa-da.mp3	pa	da	1	right
6.6.1	win	2023-06-27	12:24:35	12:36:03	684060	62cdb59eb5cfe2052ca5074c	3	1	DL_test	23	DL_test	16	stimuli_distractor_trianglediamonds.svg	stimuli_target_trianglesquares.svg	26	yes	ga	0	1070	6	4	antiphase_hc_sio.wav	1	6	6	noise_calib_stim_RIGHT.wav	2	32	blb_dichoticlistening_ta-da.mp3	ta	da	1	other
6.6.1	win	2023-06-27	12:24:35	12:36:03	684060	62cdb59eb5cfe2052ca5074c	3	1	DL_test	23	DL_test	17	stimuli_distractor_trianglediamonds.svg	stimuli_target_trianglesquares.svg	26	yes	ga	0	888	6	4	antiphase_hc_sio.wav	1	6	6	noise_calib_stim_RIGHT.wav	2	8	blb_dichoticlistening_da-da.mp3	da	da	0	other
6.6.1	win	2023-06-27	12:24:35	12:36:03	684060	62cdb59eb5cfe2052ca5074c	3	1	DL_test	23	DL_test	18	stimuli_distractor_trianglediamonds.svg	stimuli_target_trianglesquares.svg	26	yes	pa	1	969	6	4	antiphase_hc_sio.wav	1	6	6	noise_calib_stim_RIGHT.wav	2	29	blb_dichoticlistening_pa-pa.mp3	pa	pa	0	left
6.6.1	win	2023-06-27	12:24:35	12:36:03	684060	62cdb59eb5cfe2052ca5074c	3	1	DL_test	23	DL_test	19	stimuli_distractor_trianglediamonds.svg	stimuli_target_trianglesquares.svg	26	yes	ka	1	1080	6	4	antiphase_hc_sio.wav	1	6	6	noise_calib_stim_RIGHT.wav	2	28	blb_dichoticlistening_pa-ka.mp3	pa	ka	1	right
6.6.1	win	2023-06-27	12:24:35	12:36:03	684060	62cdb59eb5cfe2052ca5074c	3	1	DL_test	23	DL_test	20	stimuli_distractor_trianglediamonds.svg	stimuli_target_trianglesquares.svg	26	yes	ga	1	963	6	4	antiphase_hc_sio.wav	1	6	6	noise_calib_stim_RIGHT.wav	2	21	blb_dichoticlistening_ka-ga.mp3	ka	ga	1	right
6.6.1	win	2023-06-27	12:24:35	12:36:03	684060	62cdb59eb5cfe2052ca5074c	3	1	DL_test	23	DL_test	21	stimuli_distractor_trianglediamonds.svg	stimuli_target_trianglesquares.svg	26	yes	ba	1	955	6	4	antiphase_hc_sio.wav	1	6	6	noise_calib_stim_RIGHT.wav	2	4	blb_dichoticlistening_ba-ka.mp3	ba	ka	1	left
6.6.1	win	2023-06-27	12:24:35	12:36:03	684060	62cdb59eb5cfe2052ca5074c	3	1	DL_test	23	DL_test	22	stimuli_distractor_trianglediamonds.svg	stimuli_target_trianglesquares.svg	26	yes	ba	1	1298	6	4	antiphase_hc_sio.wav	1	6	6	noise_calib_stim_RIGHT.wav	2	3	blb_dichoticlistening_ba-ga.mp3	ba	ga	1	left
6.6.1	win	2023-06-27	12:24:35	12:36:03	684060	62cdb59eb5cfe2052ca5074c	3	1	DL_test	23	DL_test	23	stimuli_distractor_trianglediamonds.svg	stimuli_target_trianglesquares.svg	26	yes	ba	1	1004	6	4	antiphase_hc_sio.wav	1	6	6	noise_calib_stim_RIGHT.wav	2	6	blb_dichoticlistening_ba-ta.mp3	ba	ta	1	left
6.6.1	win	2023-06-27	12:24:35	12:36:03	684060	62cdb59eb5cfe2052ca5074c	3	1	DL_test	23	DL_test	24	stimuli_distractor_trianglediamonds.svg	stimuli_target_trianglesquares.svg	26	yes	ga	1	810	6	4	antiphase_hc_sio.wav	1	6	6	noise_calib_stim_RIGHT.wav	2	14	blb_dichoticlistening_ga-da.mp3	ga	da	1	left
6.6.1	win	2023-06-27	12:24:35	12:36:03	684060	62cdb59eb5cfe2052ca5074c	3	1	DL_test	23	DL_test	25	stimuli_distractor_trianglediamonds.svg	stimuli_target_trianglesquares.svg	26	yes	ba	1	1080	6	4	antiphase_hc_sio.wav	1	6	6	noise_calib_stim_RIGHT.wav	2	5	blb_dichoticlistening_ba-pa.mp3	ba	pa	1	left
6.6.1	win	2023-06-27	12:24:35	12:36:03	684060	62cdb59eb5cfe2052ca5074c	3	1	DL_test	23	DL_test	26	stimuli_distractor_trianglediamonds.svg	stimuli_target_trianglesquares.svg	26	yes	ka	0	1027	6	4	antiphase_hc_sio.wav	1	6	6	noise_calib_stim_RIGHT.wav	2	30	blb_dichoticlistening_pa-ta.mp3	pa	ta	1	other
