build	computer.platform	date	time	timestamp	time_elapsed_ms	subject	group	session	blockcode	blocknum	trialcode	trialnum	stimulus_left	stimulus_right	stim_index	target_present	response	correct	latency	headphonecheck_countTestTrials	headphonecheck_index	headphonecheck_testSound	headphonecheck_correctResponse	stereocheck_countTestTrials	stereocheck_index	stereocheck_testSound	stereocheck_correctResponse	DL_index	DL_soundfile	DL_leftSound	DL_rightSound	DL_dualSound	DL_choice
6.6.1	win	2023-06-01	17:09:15	17:12:38	200050	58a63a64ea3d11000170e1cc	3	1	practice_slash	5	practice_slash	1	stimuli_distractor_trianglediamonds.svg	stimuli_target_rectanglediamonds.svg	10	yes	53	1	517	0	0			0	0			1				0	
6.6.1	win	2023-06-01	17:09:15	17:12:38	200050	58a63a64ea3d11000170e1cc	3	1	practice_slash	5	advance_on_keypress_SLASH	2	stimuli_distractor_trianglediamonds.svg	stimuli_target_rectanglediamonds.svg	10	yes	57	0	1566	0	0			0	0			1				0	
6.6.1	win	2023-06-01	17:09:15	17:12:41	203793	58a63a64ea3d11000170e1cc	3	1	practice_slash	5	practice_slash	3	stimuli_distractor_diamondtriangles.svg	stimuli_distractor_diamondtriangles.svg	13	no	53	0	558	0	0			0	0			1				0	
6.6.1	win	2023-06-01	17:09:15	17:12:41	203793	58a63a64ea3d11000170e1cc	3	1	practice_slash	5	advance_on_keypress_SLASH	4	stimuli_distractor_diamondtriangles.svg	stimuli_distractor_diamondtriangles.svg	13	no	57	0	530	0	0			0	0			1				0	
6.6.1	win	2023-06-01	17:09:15	17:12:46	207952	58a63a64ea3d11000170e1cc	3	1	practice_slash	5	practice_slash	5	stimuli_distractor_trianglediamonds.svg	stimuli_distractor_diamondtriangles.svg	16	no	0	1	2003	0	0			0	0			1				0	
6.6.1	win	2023-06-01	17:09:15	17:12:46	207952	58a63a64ea3d11000170e1cc	3	1	practice_slash	5	advance_on_keypress_SLASH	6	stimuli_distractor_trianglediamonds.svg	stimuli_distractor_diamondtriangles.svg	16	no	57	0	1445	0	0			0	0			1				0	
6.6.1	win	2023-06-01	17:09:15	17:12:49	211451	58a63a64ea3d11000170e1cc	3	1	practice_slash	5	practice_slash	7	stimuli_target_rectanglediamonds.svg	stimuli_distractor_trianglediamonds.svg	4	yes	53	1	407	0	0			0	0			1				0	
6.6.1	win	2023-06-01	17:09:15	17:12:49	211451	58a63a64ea3d11000170e1cc	3	1	practice_slash	5	advance_on_keypress_SLASH	8	stimuli_target_rectanglediamonds.svg	stimuli_distractor_trianglediamonds.svg	4	yes	57	0	1397	0	0			0	0			1				0	
6.6.1	win	2023-06-01	17:09:15	17:12:53	214919	58a63a64ea3d11000170e1cc	3	1	practice_slash	5	practice_slash	9	stimuli_target_squarediamonds.svg	stimuli_distractor_diamondtriangles.svg	2	yes	53	1	415	0	0			0	0			1				0	
6.6.1	win	2023-06-01	17:09:15	17:12:53	214919	58a63a64ea3d11000170e1cc	3	1	practice_slash	5	advance_on_keypress_SLASH	10	stimuli_target_squarediamonds.svg	stimuli_distractor_diamondtriangles.svg	2	yes	57	0	729	0	0			0	0			1				0	
6.6.1	win	2023-06-01	17:09:15	17:12:55	217841	58a63a64ea3d11000170e1cc	3	1	practice_slash	5	practice_slash	11	stimuli_distractor_trianglediamonds.svg	stimuli_distractor_trianglediamonds.svg	15	no	53	0	557	0	0			0	0			1				0	
6.6.1	win	2023-06-01	17:09:15	17:12:55	217841	58a63a64ea3d11000170e1cc	3	1	practice_slash	5	advance_on_keypress_SLASH	12	stimuli_distractor_trianglediamonds.svg	stimuli_distractor_trianglediamonds.svg	15	no	57	0	481	0	0			0	0			1				0	
6.6.1	win	2023-06-01	17:09:15	17:12:58	220469	58a63a64ea3d11000170e1cc	3	1	practice_slash	5	practice_slash	13	stimuli_distractor_trianglediamonds.svg	stimuli_target_squarediamonds.svg	11	yes	53	1	493	0	0			0	0			1				0	
6.6.1	win	2023-06-01	17:09:15	17:12:58	220469	58a63a64ea3d11000170e1cc	3	1	practice_slash	5	advance_on_keypress_SLASH	14	stimuli_distractor_trianglediamonds.svg	stimuli_target_squarediamonds.svg	11	yes	57	0	1629	0	0			0	0			1				0	
6.6.1	win	2023-06-01	17:09:15	17:13:03	225739	58a63a64ea3d11000170e1cc	3	1	practice_slash	5	practice_slash	15	stimuli_distractor_diamondtriangles.svg	stimuli_target_diamondrectangles.svg	8	yes	0	0	2003	0	0			0	0			1				0	
6.6.1	win	2023-06-01	17:09:15	17:13:03	225739	58a63a64ea3d11000170e1cc	3	1	practice_slash	5	advance_on_keypress_SLASH	16	stimuli_distractor_diamondtriangles.svg	stimuli_target_diamondrectangles.svg	8	yes	57	0	760	0	0			0	0			1				0	
6.6.1	win	2023-06-01	17:09:15	17:13:08	230123	58a63a64ea3d11000170e1cc	3	1	practice_slash	5	practice_slash	17	stimuli_distractor_diamondtriangles.svg	stimuli_distractor_trianglediamonds.svg	14	no	0	1	2003	0	0			0	0			1				0	
6.6.1	win	2023-06-01	17:09:15	17:13:08	230123	58a63a64ea3d11000170e1cc	3	1	practice_slash	5	advance_on_keypress_SLASH	18	stimuli_distractor_diamondtriangles.svg	stimuli_distractor_trianglediamonds.svg	14	no	57	0	582	0	0			0	0			1				0	
6.6.1	win	2023-06-01	17:09:15	17:13:11	232889	58a63a64ea3d11000170e1cc	3	1	practice_slash	5	practice_slash	19	stimuli_distractor_diamondtriangles.svg	stimuli_target_rectangletriangles.svg	7	yes	53	1	536	0	0			0	0			1				0	
6.6.1	win	2023-06-01	17:09:15	17:13:11	232889	58a63a64ea3d11000170e1cc	3	1	practice_slash	5	advance_on_keypress_SLASH	20	stimuli_distractor_diamondtriangles.svg	stimuli_target_rectangletriangles.svg	7	yes	57	0	583	0	0			0	0			1				0	
6.6.1	win	2023-06-01	17:09:15	17:13:13	235777	58a63a64ea3d11000170e1cc	3	1	practice_slash	5	practice_slash	21	stimuli_target_squarediamonds.svg	stimuli_distractor_trianglediamonds.svg	5	yes	53	1	677	0	0			0	0			1				0	
6.6.1	win	2023-06-01	17:09:15	17:13:13	235777	58a63a64ea3d11000170e1cc	3	1	practice_slash	5	advance_on_keypress_SLASH	22	stimuli_target_squarediamonds.svg	stimuli_distractor_trianglediamonds.svg	5	yes	57	0	595	0	0			0	0			1				0	
6.6.1	win	2023-06-01	17:09:15	17:13:18	239995	58a63a64ea3d11000170e1cc	3	1	practice_slash	5	practice_slash	23	stimuli_distractor_trianglediamonds.svg	stimuli_target_diamondrectangles.svg	12	yes	0	0	2003	0	0			0	0			1				0	
6.6.1	win	2023-06-01	17:09:15	17:13:18	239995	58a63a64ea3d11000170e1cc	3	1	practice_slash	5	advance_on_keypress_SLASH	24	stimuli_distractor_trianglediamonds.svg	stimuli_target_diamondrectangles.svg	12	yes	57	0	535	0	0			0	0			1				0	
6.6.1	win	2023-06-01	17:09:15	17:13:20	242736	58a63a64ea3d11000170e1cc	3	1	practice_slash	5	practice_slash	25	stimuli_target_rectanglediamonds.svg	stimuli_distractor_diamondtriangles.svg	1	yes	53	1	566	0	0			0	0			1				0	
6.6.1	win	2023-06-01	17:09:15	17:13:20	242736	58a63a64ea3d11000170e1cc	3	1	practice_slash	5	advance_on_keypress_SLASH	26	stimuli_target_rectanglediamonds.svg	stimuli_distractor_diamondtriangles.svg	1	yes	57	0	461	0	0			0	0			1				0	
6.6.1	win	2023-06-01	17:09:15	17:13:24	246828	58a63a64ea3d11000170e1cc	3	1	practice_slash	5	practice_slash	27	stimuli_distractor_diamondtriangles.svg	stimuli_target_trianglerectangles.svg	9	yes	0	0	2003	0	0			0	0			1				0	
6.6.1	win	2023-06-01	17:09:15	17:13:24	246828	58a63a64ea3d11000170e1cc	3	1	practice_slash	5	advance_on_keypress_SLASH	28	stimuli_distractor_diamondtriangles.svg	stimuli_target_trianglerectangles.svg	9	yes	57	0	518	0	0			0	0			1				0	
6.6.1	win	2023-06-01	17:09:15	17:13:29	250971	58a63a64ea3d11000170e1cc	3	1	practice_slash	5	practice_slash	29	stimuli_target_diamondsquares.svg	stimuli_distractor_diamondtriangles.svg	3	yes	0	0	2003	0	0			0	0			1				0	
6.6.1	win	2023-06-01	17:09:15	17:13:29	250971	58a63a64ea3d11000170e1cc	3	1	practice_slash	5	advance_on_keypress_SLASH	30	stimuli_target_diamondsquares.svg	stimuli_distractor_diamondtriangles.svg	3	yes	57	0	471	0	0			0	0			1				0	
6.6.1	win	2023-06-01	17:09:15	17:13:31	253649	58a63a64ea3d11000170e1cc	3	1	practice_slash	5	practice_slash	31	stimuli_target_diamondsquares.svg	stimuli_distractor_trianglediamonds.svg	6	yes	53	1	587	0	0			0	0			1				0	
6.6.1	win	2023-06-01	17:09:15	17:13:31	253649	58a63a64ea3d11000170e1cc	3	1	practice_slash	5	advance_on_keypress_SLASH	32	stimuli_target_diamondsquares.svg	stimuli_distractor_trianglediamonds.svg	6	yes	57	0	579	0	0			0	0			1				0	
6.6.1	win	2023-06-01	17:09:15	17:13:43	265273	58a63a64ea3d11000170e1cc	3	1	main_slash	7	main_slash	1	stimuli_distractor_diamondtriangles.svg	stimuli_target_trianglesquares.svg	30	yes	53	1	691	0	0			0	0			1				0	
6.6.1	win	2023-06-01	17:09:15	17:13:43	265273	58a63a64ea3d11000170e1cc	3	1	main_slash	7	advance_on_keypress_SLASH	2	stimuli_distractor_diamondtriangles.svg	stimuli_target_trianglesquares.svg	30	yes	57	0	997	0	0			0	0			1				0	
6.6.1	win	2023-06-01	17:09:15	17:13:45	267511	58a63a64ea3d11000170e1cc	3	1	main_slash	7	main_slash	3	stimuli_target_trianglesquares.svg	stimuli_distractor_trianglediamonds.svg	18	yes	53	1	617	0	0			0	0			1				0	
6.6.1	win	2023-06-01	17:09:15	17:13:45	267511	58a63a64ea3d11000170e1cc	3	1	main_slash	7	advance_on_keypress_SLASH	4	stimuli_target_trianglesquares.svg	stimuli_distractor_trianglediamonds.svg	18	yes	57	0	679	0	0			0	0			1				0	
6.6.1	win	2023-06-01	17:09:15	17:13:47	269463	58a63a64ea3d11000170e1cc	3	1	main_slash	7	main_slash	5	stimuli_distractor_trianglediamonds.svg	stimuli_target_diamondrectangles.svg	27	yes	53	1	651	0	0			0	0			1				0	
6.6.1	win	2023-06-01	17:09:15	17:13:47	269463	58a63a64ea3d11000170e1cc	3	1	main_slash	7	advance_on_keypress_SLASH	6	stimuli_distractor_trianglediamonds.svg	stimuli_target_diamondrectangles.svg	27	yes	57	0	717	0	0			0	0			1				0	
6.6.1	win	2023-06-01	17:09:15	17:13:50	272801	58a63a64ea3d11000170e1cc	3	1	main_slash	7	main_slash	7	stimuli_distractor_diamondtriangles.svg	stimuli_distractor_diamondtriangles.svg	40	no	0	1	2003	0	0			0	0			1				0	
6.6.1	win	2023-06-01	17:09:15	17:13:50	272801	58a63a64ea3d11000170e1cc	3	1	main_slash	7	advance_on_keypress_SLASH	8	stimuli_distractor_diamondtriangles.svg	stimuli_distractor_diamondtriangles.svg	40	no	57	0	525	0	0			0	0			1				0	
6.6.1	win	2023-06-01	17:09:15	17:13:54	275961	58a63a64ea3d11000170e1cc	3	1	main_slash	7	main_slash	9	stimuli_distractor_trianglediamonds.svg	stimuli_distractor_diamondtriangles.svg	36	no	0	1	2003	0	0			0	0			1				0	
6.6.1	win	2023-06-01	17:09:15	17:13:54	275961	58a63a64ea3d11000170e1cc	3	1	main_slash	7	advance_on_keypress_SLASH	10	stimuli_distractor_trianglediamonds.svg	stimuli_distractor_diamondtriangles.svg	36	no	57	0	377	0	0			0	0			1				0	
6.6.1	win	2023-06-01	17:09:15	17:13:55	277511	58a63a64ea3d11000170e1cc	3	1	main_slash	7	main_slash	11	stimuli_distractor_trianglediamonds.svg	stimuli_target_trianglesquares.svg	26	yes	53	1	559	0	0			0	0			1				0	
6.6.1	win	2023-06-01	17:09:15	17:13:55	277511	58a63a64ea3d11000170e1cc	3	1	main_slash	7	advance_on_keypress_SLASH	12	stimuli_distractor_trianglediamonds.svg	stimuli_target_trianglesquares.svg	26	yes	57	0	891	0	0			0	0			1				0	
6.6.1	win	2023-06-01	17:09:15	17:13:57	279703	58a63a64ea3d11000170e1cc	3	1	main_slash	7	main_slash	13	stimuli_target_trianglerectangles.svg	stimuli_distractor_diamondtriangles.svg	21	yes	53	1	686	0	0			0	0			1				0	
6.6.1	win	2023-06-01	17:09:15	17:13:57	279703	58a63a64ea3d11000170e1cc	3	1	main_slash	7	advance_on_keypress_SLASH	14	stimuli_target_trianglerectangles.svg	stimuli_distractor_diamondtriangles.svg	21	yes	57	0	2109	0	0			0	0			1				0	
6.6.1	win	2023-06-01	17:09:15	17:14:02	284427	58a63a64ea3d11000170e1cc	3	1	main_slash	7	main_slash	15	stimuli_distractor_diamondtriangles.svg	stimuli_target_diamondrectangles.svg	31	yes	0	0	2003	0	0			0	0			1				0	
6.6.1	win	2023-06-01	17:09:15	17:14:02	284427	58a63a64ea3d11000170e1cc	3	1	main_slash	7	advance_on_keypress_SLASH	16	stimuli_distractor_diamondtriangles.svg	stimuli_target_diamondrectangles.svg	31	yes	57	0	518	0	0			0	0			1				0	
6.6.1	win	2023-06-01	17:09:15	17:14:04	286215	58a63a64ea3d11000170e1cc	3	1	main_slash	7	main_slash	17	stimuli_target_diamondrectangles.svg	stimuli_distractor_diamondtriangles.svg	23	yes	53	1	641	0	0			0	0			1				0	
6.6.1	win	2023-06-01	17:09:15	17:14:04	286215	58a63a64ea3d11000170e1cc	3	1	main_slash	7	advance_on_keypress_SLASH	18	stimuli_target_diamondrectangles.svg	stimuli_distractor_diamondtriangles.svg	23	yes	57	0	2076	0	0			0	0			1				0	
6.6.1	win	2023-06-01	17:09:15	17:14:07	289575	58a63a64ea3d11000170e1cc	3	1	main_slash	7	main_slash	19	stimuli_distractor_diamondtriangles.svg	stimuli_target_trianglerectangles.svg	29	yes	53	1	666	0	0			0	0			1				0	
6.6.1	win	2023-06-01	17:09:15	17:14:07	289575	58a63a64ea3d11000170e1cc	3	1	main_slash	7	advance_on_keypress_SLASH	20	stimuli_distractor_diamondtriangles.svg	stimuli_target_trianglerectangles.svg	29	yes	57	0	423	0	0			0	0			1				0	
6.6.1	win	2023-06-01	17:09:15	17:14:09	291303	58a63a64ea3d11000170e1cc	3	1	main_slash	7	main_slash	21	stimuli_target_diamondrectangles.svg	stimuli_distractor_trianglediamonds.svg	19	yes	53	1	684	0	0			0	0			1				0	
6.6.1	win	2023-06-01	17:09:15	17:14:09	291303	58a63a64ea3d11000170e1cc	3	1	main_slash	7	advance_on_keypress_SLASH	22	stimuli_target_diamondrectangles.svg	stimuli_distractor_trianglediamonds.svg	19	yes	57	0	523	0	0			0	0			1				0	
6.6.1	win	2023-06-01	17:09:15	17:14:11	293287	58a63a64ea3d11000170e1cc	3	1	main_slash	7	main_slash	23	stimuli_target_trianglesquares.svg	stimuli_distractor_diamondtriangles.svg	22	yes	53	1	822	0	0			0	0			1				0	
6.6.1	win	2023-06-01	17:09:15	17:14:11	293287	58a63a64ea3d11000170e1cc	3	1	main_slash	7	advance_on_keypress_SLASH	24	stimuli_target_trianglesquares.svg	stimuli_distractor_diamondtriangles.svg	22	yes	57	0	375	0	0			0	0			1				0	
6.6.1	win	2023-06-01	17:09:15	17:14:14	296292	58a63a64ea3d11000170e1cc	3	1	main_slash	7	main_slash	25	stimuli_distractor_trianglediamonds.svg	stimuli_distractor_trianglediamonds.svg	34	no	0	1	2003	0	0			0	0			1				0	
6.6.1	win	2023-06-01	17:09:15	17:14:14	296292	58a63a64ea3d11000170e1cc	3	1	main_slash	7	advance_on_keypress_SLASH	26	stimuli_distractor_trianglediamonds.svg	stimuli_distractor_trianglediamonds.svg	34	no	57	0	524	0	0			0	0			1				0	
6.6.1	win	2023-06-01	17:09:15	17:14:16	298151	58a63a64ea3d11000170e1cc	3	1	main_slash	7	main_slash	27	stimuli_target_trianglerectangles.svg	stimuli_distractor_trianglediamonds.svg	17	yes	53	1	720	0	0			0	0			1				0	
6.6.1	win	2023-06-01	17:09:15	17:14:16	298151	58a63a64ea3d11000170e1cc	3	1	main_slash	7	advance_on_keypress_SLASH	28	stimuli_target_trianglerectangles.svg	stimuli_distractor_trianglediamonds.svg	17	yes	57	0	540	0	0			0	0			1				0	
6.6.1	win	2023-06-01	17:09:15	17:14:18	299975	58a63a64ea3d11000170e1cc	3	1	main_slash	7	main_slash	29	stimuli_distractor_diamondtriangles.svg	stimuli_target_diamondsquares.svg	32	yes	53	1	667	0	0			0	0			1				0	
6.6.1	win	2023-06-01	17:09:15	17:14:18	299975	58a63a64ea3d11000170e1cc	3	1	main_slash	7	advance_on_keypress_SLASH	30	stimuli_distractor_diamondtriangles.svg	stimuli_target_diamondsquares.svg	32	yes	57	0	328	0	0			0	0			1				0	
6.6.1	win	2023-06-01	17:09:15	17:14:21	302952	58a63a64ea3d11000170e1cc	3	1	main_slash	7	main_slash	31	stimuli_target_rectangletriangles.svg	stimuli_distractor_trianglediamonds.svg	1	yes	0	0	2003	0	0			0	0			1				0	
6.6.1	win	2023-06-01	17:09:15	17:14:21	302952	58a63a64ea3d11000170e1cc	3	1	main_slash	7	advance_on_keypress_SLASH	32	stimuli_target_rectangletriangles.svg	stimuli_distractor_trianglediamonds.svg	1	yes	57	0	393	0	0			0	0			1				0	
6.6.1	win	2023-06-01	17:09:15	17:14:24	305879	58a63a64ea3d11000170e1cc	3	1	main_slash	7	main_slash	33	stimuli_target_rectanglediamonds.svg	stimuli_distractor_trianglediamonds.svg	2	yes	53	1	1897	0	0			0	0			1				0	
6.6.1	win	2023-06-01	17:09:15	17:14:24	305879	58a63a64ea3d11000170e1cc	3	1	main_slash	7	advance_on_keypress_SLASH	34	stimuli_target_rectanglediamonds.svg	stimuli_distractor_trianglediamonds.svg	2	yes	57	0	443	0	0			0	0			1				0	
6.6.1	win	2023-06-01	17:09:15	17:14:25	307703	58a63a64ea3d11000170e1cc	3	1	main_slash	7	main_slash	35	stimuli_distractor_trianglediamonds.svg	stimuli_target_rectangletriangles.svg	9	yes	53	1	763	0	0			0	0			1				0	
6.6.1	win	2023-06-01	17:09:15	17:14:25	307703	58a63a64ea3d11000170e1cc	3	1	main_slash	7	advance_on_keypress_SLASH	36	stimuli_distractor_trianglediamonds.svg	stimuli_target_rectangletriangles.svg	9	yes	57	0	358	0	0			0	0			1				0	
6.6.1	win	2023-06-01	17:09:15	17:14:27	309223	58a63a64ea3d11000170e1cc	3	1	main_slash	7	main_slash	37	stimuli_distractor_diamondtriangles.svg	stimuli_target_rectangletriangles.svg	13	yes	53	1	538	0	0			0	0			1				0	
6.6.1	win	2023-06-01	17:09:15	17:14:27	309223	58a63a64ea3d11000170e1cc	3	1	main_slash	7	advance_on_keypress_SLASH	38	stimuli_distractor_diamondtriangles.svg	stimuli_target_rectangletriangles.svg	13	yes	57	0	395	0	0			0	0			1				0	
6.6.1	win	2023-06-01	17:09:15	17:14:28	310823	58a63a64ea3d11000170e1cc	3	1	main_slash	7	main_slash	39	stimuli_distractor_trianglediamonds.svg	stimuli_target_squarediamonds.svg	12	yes	53	1	587	0	0			0	0			1				0	
6.6.1	win	2023-06-01	17:09:15	17:14:28	310823	58a63a64ea3d11000170e1cc	3	1	main_slash	7	advance_on_keypress_SLASH	40	stimuli_distractor_trianglediamonds.svg	stimuli_target_squarediamonds.svg	12	yes	57	0	396	0	0			0	0			1				0	
6.6.1	win	2023-06-01	17:09:15	17:14:31	313838	58a63a64ea3d11000170e1cc	3	1	main_slash	7	main_slash	41	stimuli_target_diamondsquares.svg	stimuli_distractor_diamondtriangles.svg	24	yes	0	0	2003	0	0			0	0			1				0	
6.6.1	win	2023-06-01	17:09:15	17:14:31	313838	58a63a64ea3d11000170e1cc	3	1	main_slash	7	advance_on_keypress_SLASH	42	stimuli_target_diamondsquares.svg	stimuli_distractor_diamondtriangles.svg	24	yes	57	0	451	0	0			0	0			1				0	
6.6.1	win	2023-06-01	17:09:15	17:14:33	315447	58a63a64ea3d11000170e1cc	3	1	main_slash	7	main_slash	43	stimuli_target_rectanglediamonds.svg	stimuli_distractor_diamondtriangles.svg	6	yes	53	1	533	0	0			0	0			1				0	
6.6.1	win	2023-06-01	17:09:15	17:14:33	315447	58a63a64ea3d11000170e1cc	3	1	main_slash	7	advance_on_keypress_SLASH	44	stimuli_target_rectanglediamonds.svg	stimuli_distractor_diamondtriangles.svg	6	yes	57	0	471	0	0			0	0			1				0	
6.6.1	win	2023-06-01	17:09:15	17:14:35	316968	58a63a64ea3d11000170e1cc	3	1	main_slash	7	main_slash	45	stimuli_target_squaretriangles.svg	stimuli_distractor_diamondtriangles.svg	7	yes	53	1	422	0	0			0	0			1				0	
6.6.1	win	2023-06-01	17:09:15	17:14:35	316968	58a63a64ea3d11000170e1cc	3	1	main_slash	7	advance_on_keypress_SLASH	46	stimuli_target_squaretriangles.svg	stimuli_distractor_diamondtriangles.svg	7	yes	57	0	491	0	0			0	0			1				0	
6.6.1	win	2023-06-01	17:09:15	17:14:38	320080	58a63a64ea3d11000170e1cc	3	1	main_slash	7	main_slash	47	stimuli_distractor_trianglediamonds.svg	stimuli_target_trianglerectangles.svg	25	yes	0	0	2003	0	0			0	0			1				0	
6.6.1	win	2023-06-01	17:09:15	17:14:38	320080	58a63a64ea3d11000170e1cc	3	1	main_slash	7	advance_on_keypress_SLASH	48	stimuli_distractor_trianglediamonds.svg	stimuli_target_trianglerectangles.svg	25	yes	57	0	481	0	0			0	0			1				0	
6.6.1	win	2023-06-01	17:09:15	17:14:39	321664	58a63a64ea3d11000170e1cc	3	1	main_slash	7	main_slash	49	stimuli_distractor_diamondtriangles.svg	stimuli_target_squaretriangles.svg	15	yes	53	1	478	0	0			0	0			1				0	
6.6.1	win	2023-06-01	17:09:15	17:14:39	321664	58a63a64ea3d11000170e1cc	3	1	main_slash	7	advance_on_keypress_SLASH	50	stimuli_distractor_diamondtriangles.svg	stimuli_target_squaretriangles.svg	15	yes	57	0	448	0	0			0	0			1				0	
6.6.1	win	2023-06-01	17:09:15	17:14:41	323164	58a63a64ea3d11000170e1cc	3	1	main_slash	7	main_slash	51	stimuli_target_squarediamonds.svg	stimuli_distractor_trianglediamonds.svg	4	yes	53	1	421	0	0			0	0			1				0	
6.6.1	win	2023-06-01	17:09:15	17:14:41	323164	58a63a64ea3d11000170e1cc	3	1	main_slash	7	advance_on_keypress_SLASH	52	stimuli_target_squarediamonds.svg	stimuli_distractor_trianglediamonds.svg	4	yes	57	0	403	0	0			0	0			1				0	
6.6.1	win	2023-06-01	17:09:15	17:14:44	326190	58a63a64ea3d11000170e1cc	3	1	main_slash	7	main_slash	53	stimuli_distractor_trianglediamonds.svg	stimuli_target_diamondsquares.svg	28	yes	0	0	2003	0	0			0	0			1				0	
6.6.1	win	2023-06-01	17:09:15	17:14:44	326190	58a63a64ea3d11000170e1cc	3	1	main_slash	7	advance_on_keypress_SLASH	54	stimuli_distractor_trianglediamonds.svg	stimuli_target_diamondsquares.svg	28	yes	57	0	339	0	0			0	0			1				0	
6.6.1	win	2023-06-01	17:09:15	17:14:45	327724	58a63a64ea3d11000170e1cc	3	1	main_slash	7	main_slash	55	stimuli_target_squaretriangles.svg	stimuli_distractor_trianglediamonds.svg	3	yes	53	1	564	0	0			0	0			1				0	
6.6.1	win	2023-06-01	17:09:15	17:14:45	327724	58a63a64ea3d11000170e1cc	3	1	main_slash	7	advance_on_keypress_SLASH	56	stimuli_target_squaretriangles.svg	stimuli_distractor_trianglediamonds.svg	3	yes	57	0	403	0	0			0	0			1				0	
6.6.1	win	2023-06-01	17:09:15	17:14:48	330778	58a63a64ea3d11000170e1cc	3	1	main_slash	7	main_slash	57	stimuli_distractor_trianglediamonds.svg	stimuli_distractor_trianglediamonds.svg	33	no	0	1	2003	0	0			0	0			1				0	
6.6.1	win	2023-06-01	17:09:15	17:14:48	330778	58a63a64ea3d11000170e1cc	3	1	main_slash	7	advance_on_keypress_SLASH	58	stimuli_distractor_trianglediamonds.svg	stimuli_distractor_trianglediamonds.svg	33	no	57	0	407	0	0			0	0			1				0	
6.6.1	win	2023-06-01	17:09:15	17:14:50	332311	58a63a64ea3d11000170e1cc	3	1	main_slash	7	main_slash	59	stimuli_target_squarediamonds.svg	stimuli_distractor_diamondtriangles.svg	8	yes	53	1	485	0	0			0	0			1				0	
6.6.1	win	2023-06-01	17:09:15	17:14:50	332311	58a63a64ea3d11000170e1cc	3	1	main_slash	7	advance_on_keypress_SLASH	60	stimuli_target_squarediamonds.svg	stimuli_distractor_diamondtriangles.svg	8	yes	57	0	439	0	0			0	0			1				0	
6.6.1	win	2023-06-01	17:09:15	17:14:53	335380	58a63a64ea3d11000170e1cc	3	1	main_slash	7	main_slash	61	stimuli_distractor_diamondtriangles.svg	stimuli_distractor_diamondtriangles.svg	39	no	0	1	2003	0	0			0	0			1				0	
6.6.1	win	2023-06-01	17:09:15	17:14:53	335380	58a63a64ea3d11000170e1cc	3	1	main_slash	7	advance_on_keypress_SLASH	62	stimuli_distractor_diamondtriangles.svg	stimuli_distractor_diamondtriangles.svg	39	no	57	0	365	0	0			0	0			1				0	
6.6.1	win	2023-06-01	17:09:15	17:14:56	338362	58a63a64ea3d11000170e1cc	3	1	main_slash	7	main_slash	63	stimuli_distractor_trianglediamonds.svg	stimuli_distractor_diamondtriangles.svg	35	no	0	1	2003	0	0			0	0			1				0	
6.6.1	win	2023-06-01	17:09:15	17:14:56	338362	58a63a64ea3d11000170e1cc	3	1	main_slash	7	advance_on_keypress_SLASH	64	stimuli_distractor_trianglediamonds.svg	stimuli_distractor_diamondtriangles.svg	35	no	57	0	391	0	0			0	0			1				0	
6.6.1	win	2023-06-01	17:09:15	17:14:58	340039	58a63a64ea3d11000170e1cc	3	1	main_slash	7	main_slash	65	stimuli_target_rectangletriangles.svg	stimuli_distractor_diamondtriangles.svg	5	yes	53	1	671	0	0			0	0			1				0	
6.6.1	win	2023-06-01	17:09:15	17:14:58	340039	58a63a64ea3d11000170e1cc	3	1	main_slash	7	advance_on_keypress_SLASH	66	stimuli_target_rectangletriangles.svg	stimuli_distractor_diamondtriangles.svg	5	yes	57	0	572	0	0			0	0			1				0	
6.6.1	win	2023-06-01	17:09:15	17:15:01	343228	58a63a64ea3d11000170e1cc	3	1	main_slash	7	main_slash	67	stimuli_distractor_diamondtriangles.svg	stimuli_distractor_trianglediamonds.svg	37	no	0	1	2003	0	0			0	0			1				0	
6.6.1	win	2023-06-01	17:09:15	17:15:01	343228	58a63a64ea3d11000170e1cc	3	1	main_slash	7	advance_on_keypress_SLASH	68	stimuli_distractor_diamondtriangles.svg	stimuli_distractor_trianglediamonds.svg	37	no	57	0	341	0	0			0	0			1				0	
6.6.1	win	2023-06-01	17:09:15	17:15:02	344807	58a63a64ea3d11000170e1cc	3	1	main_slash	7	main_slash	69	stimuli_distractor_diamondtriangles.svg	stimuli_target_rectanglediamonds.svg	14	yes	53	1	621	0	0			0	0			1				0	
6.6.1	win	2023-06-01	17:09:15	17:15:02	344807	58a63a64ea3d11000170e1cc	3	1	main_slash	7	advance_on_keypress_SLASH	70	stimuli_distractor_diamondtriangles.svg	stimuli_target_rectanglediamonds.svg	14	yes	57	0	1131	0	0			0	0			1				0	
6.6.1	win	2023-06-01	17:09:15	17:15:06	348560	58a63a64ea3d11000170e1cc	3	1	main_slash	7	main_slash	71	stimuli_distractor_diamondtriangles.svg	stimuli_distractor_trianglediamonds.svg	38	no	0	1	2003	0	0			0	0			1				0	
6.6.1	win	2023-06-01	17:09:15	17:15:06	348560	58a63a64ea3d11000170e1cc	3	1	main_slash	7	advance_on_keypress_SLASH	72	stimuli_distractor_diamondtriangles.svg	stimuli_distractor_trianglediamonds.svg	38	no	57	0	337	0	0			0	0			1				0	
6.6.1	win	2023-06-01	17:09:15	17:15:08	350103	58a63a64ea3d11000170e1cc	3	1	main_slash	7	main_slash	73	stimuli_distractor_trianglediamonds.svg	stimuli_target_squaretriangles.svg	11	yes	53	1	593	0	0			0	0			1				0	
6.6.1	win	2023-06-01	17:09:15	17:15:08	350103	58a63a64ea3d11000170e1cc	3	1	main_slash	7	advance_on_keypress_SLASH	74	stimuli_distractor_trianglediamonds.svg	stimuli_target_squaretriangles.svg	11	yes	57	0	410	0	0			0	0			1				0	
6.6.1	win	2023-06-01	17:09:15	17:15:11	353149	58a63a64ea3d11000170e1cc	3	1	main_slash	7	main_slash	75	stimuli_target_diamondsquares.svg	stimuli_distractor_trianglediamonds.svg	20	yes	0	0	2003	0	0			0	0			1				0	
6.6.1	win	2023-06-01	17:09:15	17:15:11	353149	58a63a64ea3d11000170e1cc	3	1	main_slash	7	advance_on_keypress_SLASH	76	stimuli_target_diamondsquares.svg	stimuli_distractor_trianglediamonds.svg	20	yes	57	0	373	0	0			0	0			1				0	
6.6.1	win	2023-06-01	17:09:15	17:15:12	354823	58a63a64ea3d11000170e1cc	3	1	main_slash	7	main_slash	77	stimuli_distractor_trianglediamonds.svg	stimuli_target_rectanglediamonds.svg	10	yes	53	1	683	0	0			0	0			1				0	
6.6.1	win	2023-06-01	17:09:15	17:15:12	354823	58a63a64ea3d11000170e1cc	3	1	main_slash	7	advance_on_keypress_SLASH	78	stimuli_distractor_trianglediamonds.svg	stimuli_target_rectanglediamonds.svg	10	yes	57	0	554	0	0			0	0			1				0	
6.6.1	win	2023-06-01	17:09:15	17:15:14	356535	58a63a64ea3d11000170e1cc	3	1	main_slash	7	main_slash	79	stimuli_distractor_diamondtriangles.svg	stimuli_target_squarediamonds.svg	16	yes	53	1	539	0	0			0	0			1				0	
6.6.1	win	2023-06-01	17:09:15	17:15:14	356535	58a63a64ea3d11000170e1cc	3	1	main_slash	7	advance_on_keypress_SLASH	80	stimuli_distractor_diamondtriangles.svg	stimuli_target_squarediamonds.svg	16	yes	57	0	428	0	0			0	0			1				0	
6.6.1	win	2023-06-01	17:09:15	17:15:17	359584	58a63a64ea3d11000170e1cc	3	1	main_slash	7	main_slash	81	stimuli_target_diamondsquares.svg	stimuli_distractor_diamondtriangles.svg	24	yes	0	0	2003	0	0			0	0			1				0	
6.6.1	win	2023-06-01	17:09:15	17:15:17	359584	58a63a64ea3d11000170e1cc	3	1	main_slash	7	advance_on_keypress_SLASH	82	stimuli_target_diamondsquares.svg	stimuli_distractor_diamondtriangles.svg	24	yes	57	0	417	0	0			0	0			1				0	
6.6.1	win	2023-06-01	17:09:15	17:15:19	361294	58a63a64ea3d11000170e1cc	3	1	main_slash	7	main_slash	83	stimuli_distractor_trianglediamonds.svg	stimuli_target_trianglerectangles.svg	25	yes	53	1	669	0	0			0	0			1				0	
6.6.1	win	2023-06-01	17:09:15	17:15:19	361294	58a63a64ea3d11000170e1cc	3	1	main_slash	7	advance_on_keypress_SLASH	84	stimuli_distractor_trianglediamonds.svg	stimuli_target_trianglerectangles.svg	25	yes	57	0	403	0	0			0	0			1				0	
6.6.1	win	2023-06-01	17:09:15	17:15:22	364183	58a63a64ea3d11000170e1cc	3	1	main_slash	7	main_slash	85	stimuli_target_rectanglediamonds.svg	stimuli_distractor_trianglediamonds.svg	2	yes	53	1	1859	0	0			0	0			1				0	
6.6.1	win	2023-06-01	17:09:15	17:15:22	364183	58a63a64ea3d11000170e1cc	3	1	main_slash	7	advance_on_keypress_SLASH	86	stimuli_target_rectanglediamonds.svg	stimuli_distractor_trianglediamonds.svg	2	yes	57	0	455	0	0			0	0			1				0	
6.6.1	win	2023-06-01	17:09:15	17:15:24	365927	58a63a64ea3d11000170e1cc	3	1	main_slash	7	main_slash	87	stimuli_target_rectangletriangles.svg	stimuli_distractor_trianglediamonds.svg	1	yes	53	1	672	0	0			0	0			1				0	
6.6.1	win	2023-06-01	17:09:15	17:15:24	365927	58a63a64ea3d11000170e1cc	3	1	main_slash	7	advance_on_keypress_SLASH	88	stimuli_target_rectangletriangles.svg	stimuli_distractor_trianglediamonds.svg	1	yes	57	0	301	0	0			0	0			1				0	
6.6.1	win	2023-06-01	17:09:15	17:15:26	368851	58a63a64ea3d11000170e1cc	3	1	main_slash	7	main_slash	89	stimuli_distractor_diamondtriangles.svg	stimuli_target_trianglerectangles.svg	29	yes	0	0	2003	0	0			0	0			1				0	
6.6.1	win	2023-06-01	17:09:15	17:15:26	368851	58a63a64ea3d11000170e1cc	3	1	main_slash	7	advance_on_keypress_SLASH	90	stimuli_distractor_diamondtriangles.svg	stimuli_target_trianglerectangles.svg	29	yes	57	0	303	0	0			0	0			1				0	
6.6.1	win	2023-06-01	17:09:15	17:15:28	370760	58a63a64ea3d11000170e1cc	3	1	main_slash	7	main_slash	91	stimuli_target_trianglesquares.svg	stimuli_distractor_trianglediamonds.svg	18	yes	53	1	992	0	0			0	0			1				0	
6.6.1	win	2023-06-01	17:09:15	17:15:28	370760	58a63a64ea3d11000170e1cc	3	1	main_slash	7	advance_on_keypress_SLASH	92	stimuli_target_trianglesquares.svg	stimuli_distractor_trianglediamonds.svg	18	yes	57	0	359	0	0			0	0			1				0	
6.6.1	win	2023-06-01	17:09:15	17:15:30	372407	58a63a64ea3d11000170e1cc	3	1	main_slash	7	main_slash	93	stimuli_target_diamondsquares.svg	stimuli_distractor_trianglediamonds.svg	20	yes	53	1	673	0	0			0	0			1				0	
6.6.1	win	2023-06-01	17:09:15	17:15:30	372407	58a63a64ea3d11000170e1cc	3	1	main_slash	7	advance_on_keypress_SLASH	94	stimuli_target_diamondsquares.svg	stimuli_distractor_trianglediamonds.svg	20	yes	57	0	551	0	0			0	0			1				0	
6.6.1	win	2023-06-01	17:09:15	17:15:33	375579	58a63a64ea3d11000170e1cc	3	1	main_slash	7	main_slash	95	stimuli_distractor_trianglediamonds.svg	stimuli_distractor_diamondtriangles.svg	36	no	0	1	2003	0	0			0	0			1				0	
6.6.1	win	2023-06-01	17:09:15	17:15:33	375579	58a63a64ea3d11000170e1cc	3	1	main_slash	7	advance_on_keypress_SLASH	96	stimuli_distractor_trianglediamonds.svg	stimuli_distractor_diamondtriangles.svg	36	no	57	0	374	0	0			0	0			1				0	
6.6.1	win	2023-06-01	17:09:15	17:15:35	377127	58a63a64ea3d11000170e1cc	3	1	main_slash	7	main_slash	97	stimuli_distractor_trianglediamonds.svg	stimuli_target_squaretriangles.svg	11	yes	53	1	555	0	0			0	0			1				0	
6.6.1	win	2023-06-01	17:09:15	17:15:35	377127	58a63a64ea3d11000170e1cc	3	1	main_slash	7	advance_on_keypress_SLASH	98	stimuli_distractor_trianglediamonds.svg	stimuli_target_squaretriangles.svg	11	yes	57	0	487	0	0			0	0			1				0	
6.6.1	win	2023-06-01	17:09:15	17:15:37	379383	58a63a64ea3d11000170e1cc	3	1	main_slash	7	main_slash	99	stimuli_target_squaretriangles.svg	stimuli_distractor_diamondtriangles.svg	7	yes	53	1	1150	0	0			0	0			1				0	
6.6.1	win	2023-06-01	17:09:15	17:15:37	379383	58a63a64ea3d11000170e1cc	3	1	main_slash	7	advance_on_keypress_SLASH	100	stimuli_target_squaretriangles.svg	stimuli_distractor_diamondtriangles.svg	7	yes	57	0	395	0	0			0	0			1				0	
6.6.1	win	2023-06-01	17:09:15	17:15:40	382399	58a63a64ea3d11000170e1cc	3	1	main_slash	7	main_slash	101	stimuli_distractor_trianglediamonds.svg	stimuli_distractor_trianglediamonds.svg	33	no	0	1	2003	0	0			0	0			1				0	
6.6.1	win	2023-06-01	17:09:15	17:15:40	382399	58a63a64ea3d11000170e1cc	3	1	main_slash	7	advance_on_keypress_SLASH	102	stimuli_distractor_trianglediamonds.svg	stimuli_distractor_trianglediamonds.svg	33	no	57	0	370	0	0			0	0			1				0	
6.6.1	win	2023-06-01	17:09:15	17:15:43	385387	58a63a64ea3d11000170e1cc	3	1	main_slash	7	main_slash	103	stimuli_target_diamondrectangles.svg	stimuli_distractor_diamondtriangles.svg	23	yes	0	0	2003	0	0			0	0			1				0	
6.6.1	win	2023-06-01	17:09:15	17:15:43	385387	58a63a64ea3d11000170e1cc	3	1	main_slash	7	advance_on_keypress_SLASH	104	stimuli_target_diamondrectangles.svg	stimuli_distractor_diamondtriangles.svg	23	yes	57	0	389	0	0			0	0			1				0	
6.6.1	win	2023-06-01	17:09:15	17:15:45	387495	58a63a64ea3d11000170e1cc	3	1	main_slash	7	main_slash	105	stimuli_target_squarediamonds.svg	stimuli_distractor_diamondtriangles.svg	8	yes	53	1	1101	0	0			0	0			1				0	
6.6.1	win	2023-06-01	17:09:15	17:15:45	387495	58a63a64ea3d11000170e1cc	3	1	main_slash	7	advance_on_keypress_SLASH	106	stimuli_target_squarediamonds.svg	stimuli_distractor_diamondtriangles.svg	8	yes	57	0	395	0	0			0	0			1				0	
6.6.1	win	2023-06-01	17:09:15	17:15:48	390511	58a63a64ea3d11000170e1cc	3	1	main_slash	7	main_slash	107	stimuli_distractor_trianglediamonds.svg	stimuli_distractor_diamondtriangles.svg	35	no	0	1	2003	0	0			0	0			1				0	
6.6.1	win	2023-06-01	17:09:15	17:15:48	390511	58a63a64ea3d11000170e1cc	3	1	main_slash	7	advance_on_keypress_SLASH	108	stimuli_distractor_trianglediamonds.svg	stimuli_distractor_diamondtriangles.svg	35	no	57	0	258	0	0			0	0			1				0	
6.6.1	win	2023-06-01	17:09:15	17:15:51	393397	58a63a64ea3d11000170e1cc	3	1	main_slash	7	main_slash	109	stimuli_distractor_diamondtriangles.svg	stimuli_distractor_diamondtriangles.svg	39	no	0	1	2003	0	0			0	0			1				0	
6.6.1	win	2023-06-01	17:09:15	17:15:51	393397	58a63a64ea3d11000170e1cc	3	1	main_slash	7	advance_on_keypress_SLASH	110	stimuli_distractor_diamondtriangles.svg	stimuli_distractor_diamondtriangles.svg	39	no	57	0	493	0	0			0	0			1				0	
6.6.1	win	2023-06-01	17:09:15	17:15:53	395143	58a63a64ea3d11000170e1cc	3	1	main_slash	7	main_slash	111	stimuli_target_rectanglediamonds.svg	stimuli_distractor_diamondtriangles.svg	6	yes	53	1	621	0	0			0	0			1				0	
6.6.1	win	2023-06-01	17:09:15	17:15:53	395143	58a63a64ea3d11000170e1cc	3	1	main_slash	7	advance_on_keypress_SLASH	112	stimuli_target_rectanglediamonds.svg	stimuli_distractor_diamondtriangles.svg	6	yes	57	0	461	0	0			0	0			1				0	
6.6.1	win	2023-06-01	17:09:15	17:15:55	396920	58a63a64ea3d11000170e1cc	3	1	main_slash	7	main_slash	113	stimuli_distractor_trianglediamonds.svg	stimuli_target_rectangletriangles.svg	9	yes	53	1	688	0	0			0	0			1				0	
6.6.1	win	2023-06-01	17:09:15	17:15:55	396920	58a63a64ea3d11000170e1cc	3	1	main_slash	7	advance_on_keypress_SLASH	114	stimuli_distractor_trianglediamonds.svg	stimuli_target_rectangletriangles.svg	9	yes	57	0	425	0	0			0	0			1				0	
6.6.1	win	2023-06-01	17:09:15	17:15:56	398796	58a63a64ea3d11000170e1cc	3	1	main_slash	7	main_slash	115	stimuli_distractor_trianglediamonds.svg	stimuli_target_squarediamonds.svg	12	yes	53	1	817	0	0			0	0			1				0	
6.6.1	win	2023-06-01	17:09:15	17:15:56	398796	58a63a64ea3d11000170e1cc	3	1	main_slash	7	advance_on_keypress_SLASH	116	stimuli_distractor_trianglediamonds.svg	stimuli_target_squarediamonds.svg	12	yes	57	0	356	0	0			0	0			1				0	
6.6.1	win	2023-06-01	17:09:15	17:15:58	400822	58a63a64ea3d11000170e1cc	3	1	main_slash	7	main_slash	117	stimuli_distractor_trianglediamonds.svg	stimuli_target_rectanglediamonds.svg	10	yes	53	1	1030	0	0			0	0			1				0	
6.6.1	win	2023-06-01	17:09:15	17:15:58	400822	58a63a64ea3d11000170e1cc	3	1	main_slash	7	advance_on_keypress_SLASH	118	stimuli_distractor_trianglediamonds.svg	stimuli_target_rectanglediamonds.svg	10	yes	57	0	333	0	0			0	0			1				0	
6.6.1	win	2023-06-01	17:09:15	17:16:01	403804	58a63a64ea3d11000170e1cc	3	1	main_slash	7	main_slash	119	stimuli_target_trianglerectangles.svg	stimuli_distractor_diamondtriangles.svg	21	yes	0	0	2003	0	0			0	0			1				0	
6.6.1	win	2023-06-01	17:09:15	17:16:01	403804	58a63a64ea3d11000170e1cc	3	1	main_slash	7	advance_on_keypress_SLASH	120	stimuli_target_trianglerectangles.svg	stimuli_distractor_diamondtriangles.svg	21	yes	57	0	359	0	0			0	0			1				0	
6.6.1	win	2023-06-01	17:09:15	17:16:03	405607	58a63a64ea3d11000170e1cc	3	1	main_slash	7	main_slash	121	stimuli_target_squaretriangles.svg	stimuli_distractor_trianglediamonds.svg	3	yes	53	1	827	0	0			0	0			1				0	
6.6.1	win	2023-06-01	17:09:15	17:16:03	405607	58a63a64ea3d11000170e1cc	3	1	main_slash	7	advance_on_keypress_SLASH	122	stimuli_target_squaretriangles.svg	stimuli_distractor_trianglediamonds.svg	3	yes	57	0	296	0	0			0	0			1				0	
6.6.1	win	2023-06-01	17:09:15	17:16:06	408527	58a63a64ea3d11000170e1cc	3	1	main_slash	7	main_slash	123	stimuli_distractor_diamondtriangles.svg	stimuli_distractor_diamondtriangles.svg	40	no	0	1	2003	0	0			0	0			1				0	
6.6.1	win	2023-06-01	17:09:15	17:16:06	408527	58a63a64ea3d11000170e1cc	3	1	main_slash	7	advance_on_keypress_SLASH	124	stimuli_distractor_diamondtriangles.svg	stimuli_distractor_diamondtriangles.svg	40	no	57	0	368	0	0			0	0			1				0	
6.6.1	win	2023-06-01	17:09:15	17:16:09	411543	58a63a64ea3d11000170e1cc	3	1	main_slash	7	main_slash	125	stimuli_distractor_diamondtriangles.svg	stimuli_distractor_trianglediamonds.svg	38	no	0	1	2003	0	0			0	0			1				0	
6.6.1	win	2023-06-01	17:09:15	17:16:09	411543	58a63a64ea3d11000170e1cc	3	1	main_slash	7	advance_on_keypress_SLASH	126	stimuli_distractor_diamondtriangles.svg	stimuli_distractor_trianglediamonds.svg	38	no	57	0	328	0	0			0	0			1				0	
6.6.1	win	2023-06-01	17:09:15	17:16:11	413536	58a63a64ea3d11000170e1cc	3	1	main_slash	7	main_slash	127	stimuli_distractor_trianglediamonds.svg	stimuli_target_trianglesquares.svg	26	yes	53	1	1017	0	0			0	0			1				0	
6.6.1	win	2023-06-01	17:09:15	17:16:11	413536	58a63a64ea3d11000170e1cc	3	1	main_slash	7	advance_on_keypress_SLASH	128	stimuli_distractor_trianglediamonds.svg	stimuli_target_trianglesquares.svg	26	yes	57	0	435	0	0			0	0			1				0	
6.6.1	win	2023-06-01	17:09:15	17:16:13	415434	58a63a64ea3d11000170e1cc	3	1	main_slash	7	main_slash	129	stimuli_target_rectangletriangles.svg	stimuli_distractor_diamondtriangles.svg	5	yes	53	1	833	0	0			0	0			1				0	
6.6.1	win	2023-06-01	17:09:15	17:16:13	415434	58a63a64ea3d11000170e1cc	3	1	main_slash	7	advance_on_keypress_SLASH	130	stimuli_target_rectangletriangles.svg	stimuli_distractor_diamondtriangles.svg	5	yes	57	0	362	0	0			0	0			1				0	
6.6.1	win	2023-06-01	17:09:15	17:16:15	417175	58a63a64ea3d11000170e1cc	3	1	main_slash	7	main_slash	131	stimuli_distractor_diamondtriangles.svg	stimuli_target_squaretriangles.svg	15	yes	53	1	743	0	0			0	0			1				0	
6.6.1	win	2023-06-01	17:09:15	17:16:15	417175	58a63a64ea3d11000170e1cc	3	1	main_slash	7	advance_on_keypress_SLASH	132	stimuli_distractor_diamondtriangles.svg	stimuli_target_squaretriangles.svg	15	yes	57	0	409	0	0			0	0			1				0	
6.6.1	win	2023-06-01	17:09:15	17:16:17	419255	58a63a64ea3d11000170e1cc	3	1	main_slash	7	main_slash	133	stimuli_distractor_diamondtriangles.svg	stimuli_target_diamondsquares.svg	32	yes	53	1	1051	0	0			0	0			1				0	
6.6.1	win	2023-06-01	17:09:15	17:16:17	419255	58a63a64ea3d11000170e1cc	3	1	main_slash	7	advance_on_keypress_SLASH	134	stimuli_distractor_diamondtriangles.svg	stimuli_target_diamondsquares.svg	32	yes	57	0	266	0	0			0	0			1				0	
6.6.1	win	2023-06-01	17:09:15	17:16:20	422167	58a63a64ea3d11000170e1cc	3	1	main_slash	7	main_slash	135	stimuli_distractor_trianglediamonds.svg	stimuli_distractor_trianglediamonds.svg	34	no	0	1	2003	0	0			0	0			1				0	
6.6.1	win	2023-06-01	17:09:15	17:16:20	422167	58a63a64ea3d11000170e1cc	3	1	main_slash	7	advance_on_keypress_SLASH	136	stimuli_distractor_trianglediamonds.svg	stimuli_distractor_trianglediamonds.svg	34	no	57	0	442	0	0			0	0			1				0	
6.6.1	win	2023-06-01	17:09:15	17:16:22	424209	58a63a64ea3d11000170e1cc	3	1	main_slash	7	main_slash	137	stimuli_target_diamondrectangles.svg	stimuli_distractor_trianglediamonds.svg	19	yes	53	1	952	0	0			0	0			1				0	
6.6.1	win	2023-06-01	17:09:15	17:16:22	424209	58a63a64ea3d11000170e1cc	3	1	main_slash	7	advance_on_keypress_SLASH	138	stimuli_target_diamondrectangles.svg	stimuli_distractor_trianglediamonds.svg	19	yes	57	0	302	0	0			0	0			1				0	
6.6.1	win	2023-06-01	17:09:15	17:16:25	427138	58a63a64ea3d11000170e1cc	3	1	main_slash	7	main_slash	139	stimuli_target_trianglesquares.svg	stimuli_distractor_diamondtriangles.svg	22	yes	0	0	2003	0	0			0	0			1				0	
6.6.1	win	2023-06-01	17:09:15	17:16:25	427138	58a63a64ea3d11000170e1cc	3	1	main_slash	7	advance_on_keypress_SLASH	140	stimuli_target_trianglesquares.svg	stimuli_distractor_diamondtriangles.svg	22	yes	57	0	304	0	0			0	0			1				0	
6.6.1	win	2023-06-01	17:09:15	17:16:26	428791	58a63a64ea3d11000170e1cc	3	1	main_slash	7	main_slash	141	stimuli_distractor_trianglediamonds.svg	stimuli_target_diamondsquares.svg	28	yes	53	1	731	0	0			0	0			1				0	
6.6.1	win	2023-06-01	17:09:15	17:16:26	428791	58a63a64ea3d11000170e1cc	3	1	main_slash	7	advance_on_keypress_SLASH	142	stimuli_distractor_trianglediamonds.svg	stimuli_target_diamondsquares.svg	28	yes	57	0	425	0	0			0	0			1				0	
6.6.1	win	2023-06-01	17:09:15	17:16:28	430522	58a63a64ea3d11000170e1cc	3	1	main_slash	7	main_slash	143	stimuli_distractor_diamondtriangles.svg	stimuli_target_diamondrectangles.svg	31	yes	53	1	673	0	0			0	0			1				0	
6.6.1	win	2023-06-01	17:09:15	17:16:28	430522	58a63a64ea3d11000170e1cc	3	1	main_slash	7	advance_on_keypress_SLASH	144	stimuli_distractor_diamondtriangles.svg	stimuli_target_diamondrectangles.svg	31	yes	57	0	407	0	0			0	0			1				0	
6.6.1	win	2023-06-01	17:09:15	17:16:31	433577	58a63a64ea3d11000170e1cc	3	1	main_slash	7	main_slash	145	stimuli_distractor_diamondtriangles.svg	stimuli_distractor_trianglediamonds.svg	37	no	0	1	2003	0	0			0	0			1				0	
6.6.1	win	2023-06-01	17:09:15	17:16:31	433577	58a63a64ea3d11000170e1cc	3	1	main_slash	7	advance_on_keypress_SLASH	146	stimuli_distractor_diamondtriangles.svg	stimuli_distractor_trianglediamonds.svg	37	no	57	0	347	0	0			0	0			1				0	
6.6.1	win	2023-06-01	17:09:15	17:16:33	435642	58a63a64ea3d11000170e1cc	3	1	main_slash	7	main_slash	147	stimuli_distractor_diamondtriangles.svg	stimuli_target_rectangletriangles.svg	13	yes	53	1	1084	0	0			0	0			1				0	
6.6.1	win	2023-06-01	17:09:15	17:16:33	435642	58a63a64ea3d11000170e1cc	3	1	main_slash	7	advance_on_keypress_SLASH	148	stimuli_distractor_diamondtriangles.svg	stimuli_target_rectangletriangles.svg	13	yes	57	0	323	0	0			0	0			1				0	
6.6.1	win	2023-06-01	17:09:15	17:16:35	437634	58a63a64ea3d11000170e1cc	3	1	main_slash	7	main_slash	149	stimuli_distractor_diamondtriangles.svg	stimuli_target_trianglesquares.svg	30	yes	53	1	1016	0	0			0	0			1				0	
6.6.1	win	2023-06-01	17:09:15	17:16:35	437634	58a63a64ea3d11000170e1cc	3	1	main_slash	7	advance_on_keypress_SLASH	150	stimuli_distractor_diamondtriangles.svg	stimuli_target_trianglesquares.svg	30	yes	57	0	239	0	0			0	0			1				0	
6.6.1	win	2023-06-01	17:09:15	17:16:37	439511	58a63a64ea3d11000170e1cc	3	1	main_slash	7	main_slash	151	stimuli_target_squarediamonds.svg	stimuli_distractor_trianglediamonds.svg	4	yes	53	1	1017	0	0			0	0			1				0	
6.6.1	win	2023-06-01	17:09:15	17:16:37	439511	58a63a64ea3d11000170e1cc	3	1	main_slash	7	advance_on_keypress_SLASH	152	stimuli_target_squarediamonds.svg	stimuli_distractor_trianglediamonds.svg	4	yes	57	0	282	0	0			0	0			1				0	
6.6.1	win	2023-06-01	17:09:15	17:16:39	441527	58a63a64ea3d11000170e1cc	3	1	main_slash	7	main_slash	153	stimuli_distractor_trianglediamonds.svg	stimuli_target_diamondrectangles.svg	27	yes	53	1	1106	0	0			0	0			1				0	
6.6.1	win	2023-06-01	17:09:15	17:16:39	441527	58a63a64ea3d11000170e1cc	3	1	main_slash	7	advance_on_keypress_SLASH	154	stimuli_distractor_trianglediamonds.svg	stimuli_target_diamondrectangles.svg	27	yes	57	0	331	0	0			0	0			1				0	
6.6.1	win	2023-06-01	17:09:15	17:16:41	443639	58a63a64ea3d11000170e1cc	3	1	main_slash	7	main_slash	155	stimuli_distractor_diamondtriangles.svg	stimuli_target_rectanglediamonds.svg	14	yes	53	1	1169	0	0			0	0			1				0	
6.6.1	win	2023-06-01	17:09:15	17:16:41	443639	58a63a64ea3d11000170e1cc	3	1	main_slash	7	advance_on_keypress_SLASH	156	stimuli_distractor_diamondtriangles.svg	stimuli_target_rectanglediamonds.svg	14	yes	57	0	345	0	0			0	0			1				0	
6.6.1	win	2023-06-01	17:09:15	17:16:43	445623	58a63a64ea3d11000170e1cc	3	1	main_slash	7	main_slash	157	stimuli_distractor_diamondtriangles.svg	stimuli_target_squarediamonds.svg	16	yes	53	1	1019	0	0			0	0			1				0	
6.6.1	win	2023-06-01	17:09:15	17:16:43	445623	58a63a64ea3d11000170e1cc	3	1	main_slash	7	advance_on_keypress_SLASH	158	stimuli_distractor_diamondtriangles.svg	stimuli_target_squarediamonds.svg	16	yes	57	0	348	0	0			0	0			1				0	
6.6.1	win	2023-06-01	17:09:15	17:16:46	448589	58a63a64ea3d11000170e1cc	3	1	main_slash	7	main_slash	159	stimuli_target_trianglerectangles.svg	stimuli_distractor_trianglediamonds.svg	17	yes	0	0	2003	0	0			0	0			1				0	
6.6.1	win	2023-06-01	17:09:15	17:16:46	448589	58a63a64ea3d11000170e1cc	3	1	main_slash	7	advance_on_keypress_SLASH	160	stimuli_target_trianglerectangles.svg	stimuli_distractor_trianglediamonds.svg	17	yes	57	0	420	0	0			0	0			1				0	
6.6.1	win	2023-06-01	17:09:15	17:17:26	488049	58a63a64ea3d11000170e1cc	3	1	practice_z	9	practice_z	1	stimuli_distractor_diamondtriangles.svg	stimuli_target_trianglerectangles.svg	9	yes	44	1	533	0	0			0	0			1				0	
6.6.1	win	2023-06-01	17:09:15	17:17:26	488049	58a63a64ea3d11000170e1cc	3	1	practice_z	9	advance_on_keypress_ZEE	2	stimuli_distractor_diamondtriangles.svg	stimuli_target_trianglerectangles.svg	9	yes	57	0	877	0	0			0	0			1				0	
6.6.1	win	2023-06-01	17:09:15	17:17:30	492550	58a63a64ea3d11000170e1cc	3	1	practice_z	9	practice_z	3	stimuli_distractor_diamondtriangles.svg	stimuli_distractor_trianglediamonds.svg	14	no	0	1	2003	0	0			0	0			1				0	
6.6.1	win	2023-06-01	17:09:15	17:17:30	492550	58a63a64ea3d11000170e1cc	3	1	practice_z	9	advance_on_keypress_ZEE	4	stimuli_distractor_diamondtriangles.svg	stimuli_distractor_trianglediamonds.svg	14	no	57	0	444	0	0			0	0			1				0	
6.6.1	win	2023-06-01	17:09:15	17:17:33	495282	58a63a64ea3d11000170e1cc	3	1	practice_z	9	practice_z	5	stimuli_distractor_trianglediamonds.svg	stimuli_target_diamondrectangles.svg	12	yes	44	1	661	0	0			0	0			1				0	
6.6.1	win	2023-06-01	17:09:15	17:17:33	495282	58a63a64ea3d11000170e1cc	3	1	practice_z	9	advance_on_keypress_ZEE	6	stimuli_distractor_trianglediamonds.svg	stimuli_target_diamondrectangles.svg	12	yes	57	0	448	0	0			0	0			1				0	
6.6.1	win	2023-06-01	17:09:15	17:17:37	499387	58a63a64ea3d11000170e1cc	3	1	practice_z	9	practice_z	7	stimuli_target_squarediamonds.svg	stimuli_distractor_diamondtriangles.svg	2	yes	0	0	2003	0	0			0	0			1				0	
6.6.1	win	2023-06-01	17:09:15	17:17:37	499387	58a63a64ea3d11000170e1cc	3	1	practice_z	9	advance_on_keypress_ZEE	8	stimuli_target_squarediamonds.svg	stimuli_distractor_diamondtriangles.svg	2	yes	57	0	468	0	0			0	0			1				0	
6.6.1	win	2023-06-01	17:09:15	17:17:40	502096	58a63a64ea3d11000170e1cc	3	1	practice_z	9	practice_z	9	stimuli_target_rectanglediamonds.svg	stimuli_distractor_diamondtriangles.svg	1	yes	44	1	602	0	0			0	0			1				0	
6.6.1	win	2023-06-01	17:09:15	17:17:40	502096	58a63a64ea3d11000170e1cc	3	1	practice_z	9	advance_on_keypress_ZEE	10	stimuli_target_rectanglediamonds.svg	stimuli_distractor_diamondtriangles.svg	1	yes	57	0	484	0	0			0	0			1				0	
6.6.1	win	2023-06-01	17:09:15	17:17:44	506245	58a63a64ea3d11000170e1cc	3	1	practice_z	9	practice_z	11	stimuli_target_diamondsquares.svg	stimuli_distractor_diamondtriangles.svg	3	yes	0	0	2003	0	0			0	0			1				0	
6.6.1	win	2023-06-01	17:09:15	17:17:44	506245	58a63a64ea3d11000170e1cc	3	1	practice_z	9	advance_on_keypress_ZEE	12	stimuli_target_diamondsquares.svg	stimuli_distractor_diamondtriangles.svg	3	yes	57	0	397	0	0			0	0			1				0	
6.6.1	win	2023-06-01	17:09:15	17:17:48	510296	58a63a64ea3d11000170e1cc	3	1	practice_z	9	practice_z	13	stimuli_distractor_diamondtriangles.svg	stimuli_distractor_diamondtriangles.svg	13	no	0	1	2003	0	0			0	0			1				0	
6.6.1	win	2023-06-01	17:09:15	17:17:48	510296	58a63a64ea3d11000170e1cc	3	1	practice_z	9	advance_on_keypress_ZEE	14	stimuli_distractor_diamondtriangles.svg	stimuli_distractor_diamondtriangles.svg	13	no	57	0	409	0	0			0	0			1				0	
6.6.1	win	2023-06-01	17:09:15	17:17:52	514357	58a63a64ea3d11000170e1cc	3	1	practice_z	9	practice_z	15	stimuli_distractor_trianglediamonds.svg	stimuli_distractor_trianglediamonds.svg	15	no	0	1	2003	0	0			0	0			1				0	
6.6.1	win	2023-06-01	17:09:15	17:17:52	514357	58a63a64ea3d11000170e1cc	3	1	practice_z	9	advance_on_keypress_ZEE	16	stimuli_distractor_trianglediamonds.svg	stimuli_distractor_trianglediamonds.svg	15	no	57	0	413	0	0			0	0			1				0	
6.6.1	win	2023-06-01	17:09:15	17:17:56	518412	58a63a64ea3d11000170e1cc	3	1	practice_z	9	practice_z	17	stimuli_distractor_trianglediamonds.svg	stimuli_distractor_diamondtriangles.svg	16	no	0	1	2003	0	0			0	0			1				0	
6.6.1	win	2023-06-01	17:09:15	17:17:56	518412	58a63a64ea3d11000170e1cc	3	1	practice_z	9	advance_on_keypress_ZEE	18	stimuli_distractor_trianglediamonds.svg	stimuli_distractor_diamondtriangles.svg	16	no	57	0	386	0	0			0	0			1				0	
6.6.1	win	2023-06-01	17:09:15	17:17:59	521073	58a63a64ea3d11000170e1cc	3	1	practice_z	9	practice_z	19	stimuli_target_rectanglediamonds.svg	stimuli_distractor_trianglediamonds.svg	4	yes	44	1	656	0	0			0	0			1				0	
6.6.1	win	2023-06-01	17:09:15	17:17:59	521073	58a63a64ea3d11000170e1cc	3	1	practice_z	9	advance_on_keypress_ZEE	20	stimuli_target_rectanglediamonds.svg	stimuli_distractor_trianglediamonds.svg	4	yes	57	0	418	0	0			0	0			1				0	
6.6.1	win	2023-06-01	17:09:15	17:18:01	523808	58a63a64ea3d11000170e1cc	3	1	practice_z	9	practice_z	21	stimuli_distractor_trianglediamonds.svg	stimuli_target_squarediamonds.svg	11	yes	44	1	679	0	0			0	0			1				0	
6.6.1	win	2023-06-01	17:09:15	17:18:01	523808	58a63a64ea3d11000170e1cc	3	1	practice_z	9	advance_on_keypress_ZEE	22	stimuli_distractor_trianglediamonds.svg	stimuli_target_squarediamonds.svg	11	yes	57	0	464	0	0			0	0			1				0	
6.6.1	win	2023-06-01	17:09:15	17:18:04	526496	58a63a64ea3d11000170e1cc	3	1	practice_z	9	practice_z	23	stimuli_distractor_trianglediamonds.svg	stimuli_target_rectanglediamonds.svg	10	yes	44	1	603	0	0			0	0			1				0	
6.6.1	win	2023-06-01	17:09:15	17:18:04	526496	58a63a64ea3d11000170e1cc	3	1	practice_z	9	advance_on_keypress_ZEE	24	stimuli_distractor_trianglediamonds.svg	stimuli_target_rectanglediamonds.svg	10	yes	57	0	445	0	0			0	0			1				0	
6.6.1	win	2023-06-01	17:09:15	17:18:07	529105	58a63a64ea3d11000170e1cc	3	1	practice_z	9	practice_z	25	stimuli_distractor_diamondtriangles.svg	stimuli_target_rectangletriangles.svg	7	yes	44	1	541	0	0			0	0			1				0	
6.6.1	win	2023-06-01	17:09:15	17:18:07	529105	58a63a64ea3d11000170e1cc	3	1	practice_z	9	advance_on_keypress_ZEE	26	stimuli_distractor_diamondtriangles.svg	stimuli_target_rectangletriangles.svg	7	yes	57	0	431	0	0			0	0			1				0	
6.6.1	win	2023-06-01	17:09:15	17:18:11	533183	58a63a64ea3d11000170e1cc	3	1	practice_z	9	practice_z	27	stimuli_target_diamondsquares.svg	stimuli_distractor_trianglediamonds.svg	6	yes	0	0	2003	0	0			0	0			1				0	
6.6.1	win	2023-06-01	17:09:15	17:18:11	533183	58a63a64ea3d11000170e1cc	3	1	practice_z	9	advance_on_keypress_ZEE	28	stimuli_target_diamondsquares.svg	stimuli_distractor_trianglediamonds.svg	6	yes	57	0	469	0	0			0	0			1				0	
6.6.1	win	2023-06-01	17:09:15	17:18:15	537307	58a63a64ea3d11000170e1cc	3	1	practice_z	9	practice_z	29	stimuli_distractor_diamondtriangles.svg	stimuli_target_diamondrectangles.svg	8	yes	0	0	2003	0	0			0	0			1				0	
6.6.1	win	2023-06-01	17:09:15	17:18:15	537307	58a63a64ea3d11000170e1cc	3	1	practice_z	9	advance_on_keypress_ZEE	30	stimuli_distractor_diamondtriangles.svg	stimuli_target_diamondrectangles.svg	8	yes	57	0	404	0	0			0	0			1				0	
6.6.1	win	2023-06-01	17:09:15	17:18:19	541358	58a63a64ea3d11000170e1cc	3	1	practice_z	9	practice_z	31	stimuli_target_squarediamonds.svg	stimuli_distractor_trianglediamonds.svg	5	yes	0	0	2003	0	0			0	0			1				0	
6.6.1	win	2023-06-01	17:09:15	17:18:19	541358	58a63a64ea3d11000170e1cc	3	1	practice_z	9	advance_on_keypress_ZEE	32	stimuli_target_squarediamonds.svg	stimuli_distractor_trianglediamonds.svg	5	yes	57	0	336	0	0			0	0			1				0	
6.6.1	win	2023-06-01	17:09:15	17:18:26	548308	58a63a64ea3d11000170e1cc	3	1	main_z	11	main_z	1	stimuli_distractor_trianglediamonds.svg	stimuli_distractor_trianglediamonds.svg	33	no	0	1	2003	0	0			0	0			1				0	
6.6.1	win	2023-06-01	17:09:15	17:18:26	548308	58a63a64ea3d11000170e1cc	3	1	main_z	11	advance_on_keypress_ZEE	2	stimuli_distractor_trianglediamonds.svg	stimuli_distractor_trianglediamonds.svg	33	no	57	0	392	0	0			0	0			1				0	
6.6.1	win	2023-06-01	17:09:15	17:18:28	549943	58a63a64ea3d11000170e1cc	3	1	main_z	11	main_z	3	stimuli_target_squarediamonds.svg	stimuli_distractor_trianglediamonds.svg	4	yes	44	1	616	0	0			0	0			1				0	
6.6.1	win	2023-06-01	17:09:15	17:18:28	549943	58a63a64ea3d11000170e1cc	3	1	main_z	11	advance_on_keypress_ZEE	4	stimuli_target_squarediamonds.svg	stimuli_distractor_trianglediamonds.svg	4	yes	57	0	807	0	0			0	0			1				0	
6.6.1	win	2023-06-01	17:09:15	17:18:30	551954	58a63a64ea3d11000170e1cc	3	1	main_z	11	main_z	5	stimuli_distractor_diamondtriangles.svg	stimuli_target_rectanglediamonds.svg	14	yes	44	1	570	0	0			0	0			1				0	
6.6.1	win	2023-06-01	17:09:15	17:18:30	551954	58a63a64ea3d11000170e1cc	3	1	main_z	11	advance_on_keypress_ZEE	6	stimuli_distractor_diamondtriangles.svg	stimuli_target_rectanglediamonds.svg	14	yes	57	0	525	0	0			0	0			1				0	
6.6.1	win	2023-06-01	17:09:15	17:18:31	553805	58a63a64ea3d11000170e1cc	3	1	main_z	11	main_z	7	stimuli_distractor_trianglediamonds.svg	stimuli_target_rectangletriangles.svg	9	yes	44	1	691	0	0			0	0			1				0	
6.6.1	win	2023-06-01	17:09:15	17:18:31	553805	58a63a64ea3d11000170e1cc	3	1	main_z	11	advance_on_keypress_ZEE	8	stimuli_distractor_trianglediamonds.svg	stimuli_target_rectangletriangles.svg	9	yes	57	0	613	0	0			0	0			1				0	
6.6.1	win	2023-06-01	17:09:15	17:18:34	556023	58a63a64ea3d11000170e1cc	3	1	main_z	11	main_z	9	stimuli_target_trianglesquares.svg	stimuli_distractor_diamondtriangles.svg	22	yes	44	1	989	0	0			0	0			1				0	
6.6.1	win	2023-06-01	17:09:15	17:18:34	556023	58a63a64ea3d11000170e1cc	3	1	main_z	11	advance_on_keypress_ZEE	10	stimuli_target_trianglesquares.svg	stimuli_distractor_diamondtriangles.svg	22	yes	57	0	507	0	0			0	0			1				0	
6.6.1	win	2023-06-01	17:09:15	17:18:35	557830	58a63a64ea3d11000170e1cc	3	1	main_z	11	main_z	11	stimuli_target_rectanglediamonds.svg	stimuli_distractor_trianglediamonds.svg	2	yes	44	1	674	0	0			0	0			1				0	
6.6.1	win	2023-06-01	17:09:15	17:18:35	557830	58a63a64ea3d11000170e1cc	3	1	main_z	11	advance_on_keypress_ZEE	12	stimuli_target_rectanglediamonds.svg	stimuli_distractor_trianglediamonds.svg	2	yes	57	0	380	0	0			0	0			1				0	
6.6.1	win	2023-06-01	17:09:15	17:18:37	559734	58a63a64ea3d11000170e1cc	3	1	main_z	11	main_z	13	stimuli_target_rectanglediamonds.svg	stimuli_distractor_diamondtriangles.svg	6	yes	44	1	914	0	0			0	0			1				0	
6.6.1	win	2023-06-01	17:09:15	17:18:37	559734	58a63a64ea3d11000170e1cc	3	1	main_z	11	advance_on_keypress_ZEE	14	stimuli_target_rectanglediamonds.svg	stimuli_distractor_diamondtriangles.svg	6	yes	57	0	523	0	0			0	0			1				0	
6.6.1	win	2023-06-01	17:09:15	17:18:39	561670	58a63a64ea3d11000170e1cc	3	1	main_z	11	main_z	15	stimuli_target_squarediamonds.svg	stimuli_distractor_diamondtriangles.svg	8	yes	44	1	799	0	0			0	0			1				0	
6.6.1	win	2023-06-01	17:09:15	17:18:39	561670	58a63a64ea3d11000170e1cc	3	1	main_z	11	advance_on_keypress_ZEE	16	stimuli_target_squarediamonds.svg	stimuli_distractor_diamondtriangles.svg	8	yes	57	0	984	0	0			0	0			1				0	
6.6.1	win	2023-06-01	17:09:15	17:18:43	565274	58a63a64ea3d11000170e1cc	3	1	main_z	11	main_z	17	stimuli_distractor_diamondtriangles.svg	stimuli_distractor_trianglediamonds.svg	38	no	0	1	2003	0	0			0	0			1				0	
6.6.1	win	2023-06-01	17:09:15	17:18:43	565274	58a63a64ea3d11000170e1cc	3	1	main_z	11	advance_on_keypress_ZEE	18	stimuli_distractor_diamondtriangles.svg	stimuli_distractor_trianglediamonds.svg	38	no	57	0	439	0	0			0	0			1				0	
6.6.1	win	2023-06-01	17:09:15	17:18:46	568344	58a63a64ea3d11000170e1cc	3	1	main_z	11	main_z	19	stimuli_distractor_diamondtriangles.svg	stimuli_distractor_diamondtriangles.svg	40	no	0	1	2003	0	0			0	0			1				0	
6.6.1	win	2023-06-01	17:09:15	17:18:46	568344	58a63a64ea3d11000170e1cc	3	1	main_z	11	advance_on_keypress_ZEE	20	stimuli_distractor_diamondtriangles.svg	stimuli_distractor_diamondtriangles.svg	40	no	57	0	518	0	0			0	0			1				0	
6.6.1	win	2023-06-01	17:09:15	17:18:49	571504	58a63a64ea3d11000170e1cc	3	1	main_z	11	main_z	21	stimuli_target_trianglerectangles.svg	stimuli_distractor_trianglediamonds.svg	17	yes	0	0	2003	0	0			0	0			1				0	
6.6.1	win	2023-06-01	17:09:15	17:18:49	571504	58a63a64ea3d11000170e1cc	3	1	main_z	11	advance_on_keypress_ZEE	22	stimuli_target_trianglerectangles.svg	stimuli_distractor_trianglediamonds.svg	17	yes	57	0	386	0	0			0	0			1				0	
6.6.1	win	2023-06-01	17:09:15	17:18:51	573015	58a63a64ea3d11000170e1cc	3	1	main_z	11	main_z	23	stimuli_distractor_trianglediamonds.svg	stimuli_target_squaretriangles.svg	11	yes	44	1	513	0	0			0	0			1				0	
6.6.1	win	2023-06-01	17:09:15	17:18:51	573015	58a63a64ea3d11000170e1cc	3	1	main_z	11	advance_on_keypress_ZEE	24	stimuli_distractor_trianglediamonds.svg	stimuli_target_squaretriangles.svg	11	yes	57	0	487	0	0			0	0			1				0	
6.6.1	win	2023-06-01	17:09:15	17:18:54	576135	58a63a64ea3d11000170e1cc	3	1	main_z	11	main_z	25	stimuli_distractor_trianglediamonds.svg	stimuli_distractor_trianglediamonds.svg	34	no	0	1	2003	0	0			0	0			1				0	
6.6.1	win	2023-06-01	17:09:15	17:18:54	576135	58a63a64ea3d11000170e1cc	3	1	main_z	11	advance_on_keypress_ZEE	26	stimuli_distractor_trianglediamonds.svg	stimuli_distractor_trianglediamonds.svg	34	no	57	0	365	0	0			0	0			1				0	
6.6.1	win	2023-06-01	17:09:15	17:18:56	578571	58a63a64ea3d11000170e1cc	3	1	main_z	11	main_z	27	stimuli_distractor_trianglediamonds.svg	stimuli_target_diamondrectangles.svg	27	yes	44	1	1440	0	0			0	0			1				0	
6.6.1	win	2023-06-01	17:09:15	17:18:56	578571	58a63a64ea3d11000170e1cc	3	1	main_z	11	advance_on_keypress_ZEE	28	stimuli_distractor_trianglediamonds.svg	stimuli_target_diamondrectangles.svg	27	yes	57	0	453	0	0			0	0			1				0	
6.6.1	win	2023-06-01	17:09:15	17:18:59	581651	58a63a64ea3d11000170e1cc	3	1	main_z	11	main_z	29	stimuli_distractor_trianglediamonds.svg	stimuli_distractor_diamondtriangles.svg	36	no	0	1	2003	0	0			0	0			1				0	
6.6.1	win	2023-06-01	17:09:15	17:18:59	581651	58a63a64ea3d11000170e1cc	3	1	main_z	11	advance_on_keypress_ZEE	30	stimuli_distractor_trianglediamonds.svg	stimuli_distractor_diamondtriangles.svg	36	no	57	0	446	0	0			0	0			1				0	
6.6.1	win	2023-06-01	17:09:15	17:19:01	583287	58a63a64ea3d11000170e1cc	3	1	main_z	11	main_z	31	stimuli_distractor_diamondtriangles.svg	stimuli_target_trianglesquares.svg	30	yes	44	1	574	0	0			0	0			1				0	
6.6.1	win	2023-06-01	17:09:15	17:19:01	583287	58a63a64ea3d11000170e1cc	3	1	main_z	11	advance_on_keypress_ZEE	32	stimuli_distractor_diamondtriangles.svg	stimuli_target_trianglesquares.svg	30	yes	57	0	396	0	0			0	0			1				0	
6.6.1	win	2023-06-01	17:09:15	17:19:04	586302	58a63a64ea3d11000170e1cc	3	1	main_z	11	main_z	33	stimuli_distractor_diamondtriangles.svg	stimuli_distractor_diamondtriangles.svg	39	no	0	1	2003	0	0			0	0			1				0	
6.6.1	win	2023-06-01	17:09:15	17:19:04	586302	58a63a64ea3d11000170e1cc	3	1	main_z	11	advance_on_keypress_ZEE	34	stimuli_distractor_diamondtriangles.svg	stimuli_distractor_diamondtriangles.svg	39	no	57	0	275	0	0			0	0			1				0	
6.6.1	win	2023-06-01	17:09:15	17:19:06	587991	58a63a64ea3d11000170e1cc	3	1	main_z	11	main_z	35	stimuli_distractor_trianglediamonds.svg	stimuli_target_trianglerectangles.svg	25	yes	44	1	801	0	0			0	0			1				0	
6.6.1	win	2023-06-01	17:09:15	17:19:06	587991	58a63a64ea3d11000170e1cc	3	1	main_z	11	advance_on_keypress_ZEE	36	stimuli_distractor_trianglediamonds.svg	stimuli_target_trianglerectangles.svg	25	yes	57	0	442	0	0			0	0			1				0	
6.6.1	win	2023-06-01	17:09:15	17:19:07	589719	58a63a64ea3d11000170e1cc	3	1	main_z	11	main_z	37	stimuli_target_diamondsquares.svg	stimuli_distractor_trianglediamonds.svg	20	yes	44	1	665	0	0			0	0			1				0	
6.6.1	win	2023-06-01	17:09:15	17:19:07	589719	58a63a64ea3d11000170e1cc	3	1	main_z	11	advance_on_keypress_ZEE	38	stimuli_target_diamondsquares.svg	stimuli_distractor_trianglediamonds.svg	20	yes	57	0	471	0	0			0	0			1				0	
6.6.1	win	2023-06-01	17:09:15	17:19:09	591479	58a63a64ea3d11000170e1cc	3	1	main_z	11	main_z	39	stimuli_target_squaretriangles.svg	stimuli_distractor_diamondtriangles.svg	7	yes	44	1	667	0	0			0	0			1				0	
6.6.1	win	2023-06-01	17:09:15	17:19:09	591479	58a63a64ea3d11000170e1cc	3	1	main_z	11	advance_on_keypress_ZEE	40	stimuli_target_squaretriangles.svg	stimuli_distractor_diamondtriangles.svg	7	yes	57	0	840	0	0			0	0			1				0	
6.6.1	win	2023-06-01	17:09:15	17:19:11	593527	58a63a64ea3d11000170e1cc	3	1	main_z	11	main_z	41	stimuli_distractor_trianglediamonds.svg	stimuli_target_rectanglediamonds.svg	10	yes	44	1	588	0	0			0	0			1				0	
6.6.1	win	2023-06-01	17:09:15	17:19:11	593527	58a63a64ea3d11000170e1cc	3	1	main_z	11	advance_on_keypress_ZEE	42	stimuli_distractor_trianglediamonds.svg	stimuli_target_rectanglediamonds.svg	10	yes	57	0	397	0	0			0	0			1				0	
6.6.1	win	2023-06-01	17:09:15	17:19:13	595495	58a63a64ea3d11000170e1cc	3	1	main_z	11	main_z	43	stimuli_distractor_diamondtriangles.svg	stimuli_target_squaretriangles.svg	15	yes	44	1	958	0	0			0	0			1				0	
6.6.1	win	2023-06-01	17:09:15	17:19:13	595495	58a63a64ea3d11000170e1cc	3	1	main_z	11	advance_on_keypress_ZEE	44	stimuli_distractor_diamondtriangles.svg	stimuli_target_squaretriangles.svg	15	yes	57	0	358	0	0			0	0			1				0	
6.6.1	win	2023-06-01	17:09:15	17:19:16	598474	58a63a64ea3d11000170e1cc	3	1	main_z	11	main_z	45	stimuli_target_trianglerectangles.svg	stimuli_distractor_diamondtriangles.svg	21	yes	0	0	2003	0	0			0	0			1				0	
6.6.1	win	2023-06-01	17:09:15	17:19:16	598474	58a63a64ea3d11000170e1cc	3	1	main_z	11	advance_on_keypress_ZEE	46	stimuli_target_trianglerectangles.svg	stimuli_distractor_diamondtriangles.svg	21	yes	57	0	392	0	0			0	0			1				0	
6.6.1	win	2023-06-01	17:09:15	17:19:18	600071	58a63a64ea3d11000170e1cc	3	1	main_z	11	main_z	47	stimuli_distractor_diamondtriangles.svg	stimuli_target_rectangletriangles.svg	13	yes	44	1	591	0	0			0	0			1				0	
6.6.1	win	2023-06-01	17:09:15	17:19:18	600071	58a63a64ea3d11000170e1cc	3	1	main_z	11	advance_on_keypress_ZEE	48	stimuli_distractor_diamondtriangles.svg	stimuli_target_rectangletriangles.svg	13	yes	57	0	393	0	0			0	0			1				0	
6.6.1	win	2023-06-01	17:09:15	17:19:21	603083	58a63a64ea3d11000170e1cc	3	1	main_z	11	main_z	49	stimuli_target_diamondsquares.svg	stimuli_distractor_diamondtriangles.svg	24	yes	0	0	2003	0	0			0	0			1				0	
6.6.1	win	2023-06-01	17:09:15	17:19:21	603083	58a63a64ea3d11000170e1cc	3	1	main_z	11	advance_on_keypress_ZEE	50	stimuli_target_diamondsquares.svg	stimuli_distractor_diamondtriangles.svg	24	yes	57	0	311	0	0			0	0			1				0	
6.6.1	win	2023-06-01	17:09:15	17:19:22	604855	58a63a64ea3d11000170e1cc	3	1	main_z	11	main_z	51	stimuli_distractor_trianglediamonds.svg	stimuli_target_squarediamonds.svg	12	yes	44	1	843	0	0			0	0			1				0	
6.6.1	win	2023-06-01	17:09:15	17:19:22	604855	58a63a64ea3d11000170e1cc	3	1	main_z	11	advance_on_keypress_ZEE	52	stimuli_distractor_trianglediamonds.svg	stimuli_target_squarediamonds.svg	12	yes	57	0	506	0	0			0	0			1				0	
6.6.1	win	2023-06-01	17:09:15	17:19:25	606983	58a63a64ea3d11000170e1cc	3	1	main_z	11	main_z	53	stimuli_target_diamondrectangles.svg	stimuli_distractor_trianglediamonds.svg	19	yes	44	1	1003	0	0			0	0			1				0	
6.6.1	win	2023-06-01	17:09:15	17:19:25	606983	58a63a64ea3d11000170e1cc	3	1	main_z	11	advance_on_keypress_ZEE	54	stimuli_target_diamondrectangles.svg	stimuli_distractor_trianglediamonds.svg	19	yes	57	0	475	0	0			0	0			1				0	
6.6.1	win	2023-06-01	17:09:15	17:19:28	610075	58a63a64ea3d11000170e1cc	3	1	main_z	11	main_z	55	stimuli_target_rectangletriangles.svg	stimuli_distractor_trianglediamonds.svg	1	yes	0	0	2003	0	0			0	0			1				0	
6.6.1	win	2023-06-01	17:09:15	17:19:28	610075	58a63a64ea3d11000170e1cc	3	1	main_z	11	advance_on_keypress_ZEE	56	stimuli_target_rectangletriangles.svg	stimuli_distractor_trianglediamonds.svg	1	yes	57	0	374	0	0			0	0			1				0	
6.6.1	win	2023-06-01	17:09:15	17:19:29	611799	58a63a64ea3d11000170e1cc	3	1	main_z	11	main_z	57	stimuli_distractor_diamondtriangles.svg	stimuli_target_diamondsquares.svg	32	yes	44	1	731	0	0			0	0			1				0	
6.6.1	win	2023-06-01	17:09:15	17:19:29	611799	58a63a64ea3d11000170e1cc	3	1	main_z	11	advance_on_keypress_ZEE	58	stimuli_distractor_diamondtriangles.svg	stimuli_target_diamondsquares.svg	32	yes	57	0	474	0	0			0	0			1				0	
6.6.1	win	2023-06-01	17:09:15	17:19:33	614910	58a63a64ea3d11000170e1cc	3	1	main_z	11	main_z	59	stimuli_distractor_diamondtriangles.svg	stimuli_distractor_trianglediamonds.svg	37	no	0	1	2003	0	0			0	0			1				0	
6.6.1	win	2023-06-01	17:09:15	17:19:33	614910	58a63a64ea3d11000170e1cc	3	1	main_z	11	advance_on_keypress_ZEE	60	stimuli_distractor_diamondtriangles.svg	stimuli_distractor_trianglediamonds.svg	37	no	57	0	438	0	0			0	0			1				0	
6.6.1	win	2023-06-01	17:09:15	17:19:34	616661	58a63a64ea3d11000170e1cc	3	1	main_z	11	main_z	61	stimuli_distractor_diamondtriangles.svg	stimuli_target_diamondrectangles.svg	31	yes	44	1	682	0	0			0	0			1				0	
6.6.1	win	2023-06-01	17:09:15	17:19:34	616661	58a63a64ea3d11000170e1cc	3	1	main_z	11	advance_on_keypress_ZEE	62	stimuli_distractor_diamondtriangles.svg	stimuli_target_diamondrectangles.svg	31	yes	57	0	463	0	0			0	0			1				0	
6.6.1	win	2023-06-01	17:09:15	17:19:36	618607	58a63a64ea3d11000170e1cc	3	1	main_z	11	main_z	63	stimuli_target_diamondrectangles.svg	stimuli_distractor_diamondtriangles.svg	23	yes	44	1	847	0	0			0	0			1				0	
6.6.1	win	2023-06-01	17:09:15	17:19:36	618607	58a63a64ea3d11000170e1cc	3	1	main_z	11	advance_on_keypress_ZEE	64	stimuli_target_diamondrectangles.svg	stimuli_distractor_diamondtriangles.svg	23	yes	57	0	516	0	0			0	0			1				0	
6.6.1	win	2023-06-01	17:09:15	17:19:38	620695	58a63a64ea3d11000170e1cc	3	1	main_z	11	main_z	65	stimuli_target_rectangletriangles.svg	stimuli_distractor_diamondtriangles.svg	5	yes	44	1	949	0	0			0	0			1				0	
6.6.1	win	2023-06-01	17:09:15	17:19:38	620695	58a63a64ea3d11000170e1cc	3	1	main_z	11	advance_on_keypress_ZEE	66	stimuli_target_rectangletriangles.svg	stimuli_distractor_diamondtriangles.svg	5	yes	57	0	424	0	0			0	0			1				0	
6.6.1	win	2023-06-01	17:09:15	17:19:40	622679	58a63a64ea3d11000170e1cc	3	1	main_z	11	main_z	67	stimuli_distractor_trianglediamonds.svg	stimuli_target_trianglesquares.svg	26	yes	44	1	941	0	0			0	0			1				0	
6.6.1	win	2023-06-01	17:09:15	17:19:40	622679	58a63a64ea3d11000170e1cc	3	1	main_z	11	advance_on_keypress_ZEE	68	stimuli_distractor_trianglediamonds.svg	stimuli_target_trianglesquares.svg	26	yes	57	0	587	0	0			0	0			1				0	
6.6.1	win	2023-06-01	17:09:15	17:19:42	624615	58a63a64ea3d11000170e1cc	3	1	main_z	11	main_z	69	stimuli_target_squaretriangles.svg	stimuli_distractor_trianglediamonds.svg	3	yes	44	1	736	0	0			0	0			1				0	
6.6.1	win	2023-06-01	17:09:15	17:19:42	624615	58a63a64ea3d11000170e1cc	3	1	main_z	11	advance_on_keypress_ZEE	70	stimuli_target_squaretriangles.svg	stimuli_distractor_trianglediamonds.svg	3	yes	57	0	455	0	0			0	0			1				0	
6.6.1	win	2023-06-01	17:09:15	17:19:44	626423	58a63a64ea3d11000170e1cc	3	1	main_z	11	main_z	71	stimuli_target_trianglesquares.svg	stimuli_distractor_trianglediamonds.svg	18	yes	44	1	737	0	0			0	0			1				0	
6.6.1	win	2023-06-01	17:09:15	17:19:44	626423	58a63a64ea3d11000170e1cc	3	1	main_z	11	advance_on_keypress_ZEE	72	stimuli_target_trianglesquares.svg	stimuli_distractor_trianglediamonds.svg	18	yes	57	0	728	0	0			0	0			1				0	
6.6.1	win	2023-06-01	17:09:15	17:19:47	629775	58a63a64ea3d11000170e1cc	3	1	main_z	11	main_z	73	stimuli_distractor_trianglediamonds.svg	stimuli_distractor_diamondtriangles.svg	35	no	0	1	2003	0	0			0	0			1				0	
6.6.1	win	2023-06-01	17:09:15	17:19:47	629775	58a63a64ea3d11000170e1cc	3	1	main_z	11	advance_on_keypress_ZEE	74	stimuli_distractor_trianglediamonds.svg	stimuli_distractor_diamondtriangles.svg	35	no	57	0	337	0	0			0	0			1				0	
6.6.1	win	2023-06-01	17:09:15	17:19:49	631495	58a63a64ea3d11000170e1cc	3	1	main_z	11	main_z	75	stimuli_distractor_diamondtriangles.svg	stimuli_target_trianglerectangles.svg	29	yes	44	1	761	0	0			0	0			1				0	
6.6.1	win	2023-06-01	17:09:15	17:19:49	631495	58a63a64ea3d11000170e1cc	3	1	main_z	11	advance_on_keypress_ZEE	76	stimuli_distractor_diamondtriangles.svg	stimuli_target_trianglerectangles.svg	29	yes	57	0	493	0	0			0	0			1				0	
6.6.1	win	2023-06-01	17:09:15	17:19:51	633463	58a63a64ea3d11000170e1cc	3	1	main_z	11	main_z	77	stimuli_distractor_trianglediamonds.svg	stimuli_target_diamondsquares.svg	28	yes	44	1	860	0	0			0	0			1				0	
6.6.1	win	2023-06-01	17:09:15	17:19:51	633463	58a63a64ea3d11000170e1cc	3	1	main_z	11	advance_on_keypress_ZEE	78	stimuli_distractor_trianglediamonds.svg	stimuli_target_diamondsquares.svg	28	yes	57	0	374	0	0			0	0			1				0	
6.6.1	win	2023-06-01	17:09:15	17:19:53	635303	58a63a64ea3d11000170e1cc	3	1	main_z	11	main_z	79	stimuli_distractor_diamondtriangles.svg	stimuli_target_squarediamonds.svg	16	yes	44	1	844	0	0			0	0			1				0	
6.6.1	win	2023-06-01	17:09:15	17:19:53	635303	58a63a64ea3d11000170e1cc	3	1	main_z	11	advance_on_keypress_ZEE	80	stimuli_distractor_diamondtriangles.svg	stimuli_target_squarediamonds.svg	16	yes	57	0	443	0	0			0	0			1				0	
6.6.1	win	2023-06-01	17:09:15	17:19:56	638368	58a63a64ea3d11000170e1cc	3	1	main_z	11	main_z	81	stimuli_target_diamondrectangles.svg	stimuli_distractor_trianglediamonds.svg	19	yes	0	0	2003	0	0			0	0			1				0	
6.6.1	win	2023-06-01	17:09:15	17:19:56	638368	58a63a64ea3d11000170e1cc	3	1	main_z	11	advance_on_keypress_ZEE	82	stimuli_target_diamondrectangles.svg	stimuli_distractor_trianglediamonds.svg	19	yes	57	0	434	0	0			0	0			1				0	
6.6.1	win	2023-06-01	17:09:15	17:19:58	640423	58a63a64ea3d11000170e1cc	3	1	main_z	11	main_z	83	stimuli_target_rectangletriangles.svg	stimuli_distractor_diamondtriangles.svg	5	yes	44	1	1007	0	0			0	0			1				0	
6.6.1	win	2023-06-01	17:09:15	17:19:58	640423	58a63a64ea3d11000170e1cc	3	1	main_z	11	advance_on_keypress_ZEE	84	stimuli_target_rectangletriangles.svg	stimuli_distractor_diamondtriangles.svg	5	yes	57	0	392	0	0			0	0			1				0	
6.6.1	win	2023-06-01	17:09:15	17:20:00	642344	58a63a64ea3d11000170e1cc	3	1	main_z	11	main_z	85	stimuli_distractor_trianglediamonds.svg	stimuli_target_diamondrectangles.svg	27	yes	44	1	912	0	0			0	0			1				0	
6.6.1	win	2023-06-01	17:09:15	17:20:00	642344	58a63a64ea3d11000170e1cc	3	1	main_z	11	advance_on_keypress_ZEE	86	stimuli_distractor_trianglediamonds.svg	stimuli_target_diamondrectangles.svg	27	yes	57	0	329	0	0			0	0			1				0	
6.6.1	win	2023-06-01	17:09:15	17:20:02	644471	58a63a64ea3d11000170e1cc	3	1	main_z	11	main_z	87	stimuli_distractor_trianglediamonds.svg	stimuli_distractor_diamondtriangles.svg	36	no	44	0	1184	0	0			0	0			1				0	
6.6.1	win	2023-06-01	17:09:15	17:20:02	644471	58a63a64ea3d11000170e1cc	3	1	main_z	11	advance_on_keypress_ZEE	88	stimuli_distractor_trianglediamonds.svg	stimuli_distractor_diamondtriangles.svg	36	no	57	0	379	0	0			0	0			1				0	
6.6.1	win	2023-06-01	17:09:15	17:20:04	646519	58a63a64ea3d11000170e1cc	3	1	main_z	11	main_z	89	stimuli_target_rectanglediamonds.svg	stimuli_distractor_trianglediamonds.svg	2	yes	44	1	1056	0	0			0	0			1				0	
6.6.1	win	2023-06-01	17:09:15	17:20:04	646519	58a63a64ea3d11000170e1cc	3	1	main_z	11	advance_on_keypress_ZEE	90	stimuli_target_rectanglediamonds.svg	stimuli_distractor_trianglediamonds.svg	2	yes	57	0	392	0	0			0	0			1				0	
6.6.1	win	2023-06-01	17:09:15	17:20:06	648503	58a63a64ea3d11000170e1cc	3	1	main_z	11	main_z	91	stimuli_target_trianglesquares.svg	stimuli_distractor_diamondtriangles.svg	22	yes	44	1	975	0	0			0	0			1				0	
6.6.1	win	2023-06-01	17:09:15	17:20:06	648503	58a63a64ea3d11000170e1cc	3	1	main_z	11	advance_on_keypress_ZEE	92	stimuli_target_trianglesquares.svg	stimuli_distractor_diamondtriangles.svg	22	yes	57	0	379	0	0			0	0			1				0	
6.6.1	win	2023-06-01	17:09:15	17:20:08	650487	58a63a64ea3d11000170e1cc	3	1	main_z	11	main_z	93	stimuli_distractor_trianglediamonds.svg	stimuli_target_squaretriangles.svg	11	yes	44	1	992	0	0			0	0			1				0	
6.6.1	win	2023-06-01	17:09:15	17:20:08	650487	58a63a64ea3d11000170e1cc	3	1	main_z	11	advance_on_keypress_ZEE	94	stimuli_distractor_trianglediamonds.svg	stimuli_target_squaretriangles.svg	11	yes	57	0	295	0	0			0	0			1				0	
6.6.1	win	2023-06-01	17:09:15	17:20:10	652183	58a63a64ea3d11000170e1cc	3	1	main_z	11	main_z	95	stimuli_target_squaretriangles.svg	stimuli_distractor_trianglediamonds.svg	3	yes	44	1	784	0	0			0	0			1				0	
6.6.1	win	2023-06-01	17:09:15	17:20:10	652183	58a63a64ea3d11000170e1cc	3	1	main_z	11	advance_on_keypress_ZEE	96	stimuli_target_squaretriangles.svg	stimuli_distractor_trianglediamonds.svg	3	yes	57	0	438	0	0			0	0			1				0	
6.6.1	win	2023-06-01	17:09:15	17:20:13	655253	58a63a64ea3d11000170e1cc	3	1	main_z	11	main_z	97	stimuli_target_trianglerectangles.svg	stimuli_distractor_diamondtriangles.svg	21	yes	0	0	2003	0	0			0	0			1				0	
6.6.1	win	2023-06-01	17:09:15	17:20:13	655253	58a63a64ea3d11000170e1cc	3	1	main_z	11	advance_on_keypress_ZEE	98	stimuli_target_trianglerectangles.svg	stimuli_distractor_diamondtriangles.svg	21	yes	57	0	445	0	0			0	0			1				0	
6.6.1	win	2023-06-01	17:09:15	17:20:15	657191	58a63a64ea3d11000170e1cc	3	1	main_z	11	main_z	99	stimuli_target_diamondsquares.svg	stimuli_distractor_trianglediamonds.svg	20	yes	44	1	869	0	0			0	0			1				0	
6.6.1	win	2023-06-01	17:09:15	17:20:15	657191	58a63a64ea3d11000170e1cc	3	1	main_z	11	advance_on_keypress_ZEE	100	stimuli_target_diamondsquares.svg	stimuli_distractor_trianglediamonds.svg	20	yes	57	0	345	0	0			0	0			1				0	
6.6.1	win	2023-06-01	17:09:15	17:20:17	659079	58a63a64ea3d11000170e1cc	3	1	main_z	11	main_z	101	stimuli_distractor_trianglediamonds.svg	stimuli_target_diamondsquares.svg	28	yes	44	1	923	0	0			0	0			1				0	
6.6.1	win	2023-06-01	17:09:15	17:20:17	659079	58a63a64ea3d11000170e1cc	3	1	main_z	11	advance_on_keypress_ZEE	102	stimuli_distractor_trianglediamonds.svg	stimuli_target_diamondsquares.svg	28	yes	57	0	391	0	0			0	0			1				0	
6.6.1	win	2023-06-01	17:09:15	17:20:20	662092	58a63a64ea3d11000170e1cc	3	1	main_z	11	main_z	103	stimuli_distractor_diamondtriangles.svg	stimuli_distractor_diamondtriangles.svg	40	no	0	1	2003	0	0			0	0			1				0	
6.6.1	win	2023-06-01	17:09:15	17:20:20	662092	58a63a64ea3d11000170e1cc	3	1	main_z	11	advance_on_keypress_ZEE	104	stimuli_distractor_diamondtriangles.svg	stimuli_distractor_diamondtriangles.svg	40	no	57	0	405	0	0			0	0			1				0	
6.6.1	win	2023-06-01	17:09:15	17:20:22	664103	58a63a64ea3d11000170e1cc	3	1	main_z	11	main_z	105	stimuli_distractor_diamondtriangles.svg	stimuli_target_diamondrectangles.svg	31	yes	44	1	991	0	0			0	0			1				0	
6.6.1	win	2023-06-01	17:09:15	17:20:22	664103	58a63a64ea3d11000170e1cc	3	1	main_z	11	advance_on_keypress_ZEE	106	stimuli_distractor_diamondtriangles.svg	stimuli_target_diamondrectangles.svg	31	yes	57	0	364	0	0			0	0			1				0	
6.6.1	win	2023-06-01	17:09:15	17:20:24	666071	58a63a64ea3d11000170e1cc	3	1	main_z	11	main_z	107	stimuli_distractor_diamondtriangles.svg	stimuli_target_diamondsquares.svg	32	yes	44	1	991	0	0			0	0			1				0	
6.6.1	win	2023-06-01	17:09:15	17:20:24	666071	58a63a64ea3d11000170e1cc	3	1	main_z	11	advance_on_keypress_ZEE	108	stimuli_distractor_diamondtriangles.svg	stimuli_target_diamondsquares.svg	32	yes	57	0	493	0	0			0	0			1				0	
6.6.1	win	2023-06-01	17:09:15	17:20:26	668153	58a63a64ea3d11000170e1cc	3	1	main_z	11	main_z	109	stimuli_target_squarediamonds.svg	stimuli_distractor_trianglediamonds.svg	4	yes	44	1	963	0	0			0	0			1				0	
6.6.1	win	2023-06-01	17:09:15	17:20:26	668153	58a63a64ea3d11000170e1cc	3	1	main_z	11	advance_on_keypress_ZEE	110	stimuli_target_squarediamonds.svg	stimuli_distractor_trianglediamonds.svg	4	yes	57	0	375	0	0			0	0			1				0	
6.6.1	win	2023-06-01	17:09:15	17:20:28	670033	58a63a64ea3d11000170e1cc	3	1	main_z	11	main_z	111	stimuli_distractor_diamondtriangles.svg	stimuli_target_squarediamonds.svg	16	yes	44	1	854	0	0			0	0			1				0	
6.6.1	win	2023-06-01	17:09:15	17:20:28	670033	58a63a64ea3d11000170e1cc	3	1	main_z	11	advance_on_keypress_ZEE	112	stimuli_distractor_diamondtriangles.svg	stimuli_target_squarediamonds.svg	16	yes	57	0	322	0	0			0	0			1				0	
6.6.1	win	2023-06-01	17:09:15	17:20:30	671911	58a63a64ea3d11000170e1cc	3	1	main_z	11	main_z	113	stimuli_target_rectangletriangles.svg	stimuli_distractor_trianglediamonds.svg	1	yes	44	1	937	0	0			0	0			1				0	
6.6.1	win	2023-06-01	17:09:15	17:20:30	671911	58a63a64ea3d11000170e1cc	3	1	main_z	11	advance_on_keypress_ZEE	114	stimuli_target_rectangletriangles.svg	stimuli_distractor_trianglediamonds.svg	1	yes	57	0	327	0	0			0	0			1				0	
6.6.1	win	2023-06-01	17:09:15	17:20:33	674862	58a63a64ea3d11000170e1cc	3	1	main_z	11	main_z	115	stimuli_target_trianglerectangles.svg	stimuli_distractor_trianglediamonds.svg	17	yes	0	0	2003	0	0			0	0			1				0	
6.6.1	win	2023-06-01	17:09:15	17:20:33	674862	58a63a64ea3d11000170e1cc	3	1	main_z	11	advance_on_keypress_ZEE	116	stimuli_target_trianglerectangles.svg	stimuli_distractor_trianglediamonds.svg	17	yes	57	0	499	0	0			0	0			1				0	
6.6.1	win	2023-06-01	17:09:15	17:20:36	677983	58a63a64ea3d11000170e1cc	3	1	main_z	11	main_z	117	stimuli_target_diamondsquares.svg	stimuli_distractor_diamondtriangles.svg	24	yes	0	0	2003	0	0			0	0			1				0	
6.6.1	win	2023-06-01	17:09:15	17:20:36	677983	58a63a64ea3d11000170e1cc	3	1	main_z	11	advance_on_keypress_ZEE	118	stimuli_target_diamondsquares.svg	stimuli_distractor_diamondtriangles.svg	24	yes	57	0	466	0	0			0	0			1				0	
6.6.1	win	2023-06-01	17:09:15	17:20:37	679796	58a63a64ea3d11000170e1cc	3	1	main_z	11	main_z	119	stimuli_target_squaretriangles.svg	stimuli_distractor_diamondtriangles.svg	7	yes	44	1	712	0	0			0	0			1				0	
6.6.1	win	2023-06-01	17:09:15	17:20:37	679796	58a63a64ea3d11000170e1cc	3	1	main_z	11	advance_on_keypress_ZEE	120	stimuli_target_squaretriangles.svg	stimuli_distractor_diamondtriangles.svg	7	yes	57	0	396	0	0			0	0			1				0	
6.6.1	win	2023-06-01	17:09:15	17:20:39	681580	58a63a64ea3d11000170e1cc	3	1	main_z	11	main_z	121	stimuli_distractor_diamondtriangles.svg	stimuli_target_squaretriangles.svg	15	yes	44	1	749	0	0			0	0			1				0	
6.6.1	win	2023-06-01	17:09:15	17:20:39	681580	58a63a64ea3d11000170e1cc	3	1	main_z	11	advance_on_keypress_ZEE	122	stimuli_distractor_diamondtriangles.svg	stimuli_target_squaretriangles.svg	15	yes	57	0	808	0	0			0	0			1				0	
6.6.1	win	2023-06-01	17:09:15	17:20:43	685026	58a63a64ea3d11000170e1cc	3	1	main_z	11	main_z	123	stimuli_distractor_diamondtriangles.svg	stimuli_distractor_trianglediamonds.svg	37	no	0	1	2003	0	0			0	0			1				0	
6.6.1	win	2023-06-01	17:09:15	17:20:43	685026	58a63a64ea3d11000170e1cc	3	1	main_z	11	advance_on_keypress_ZEE	124	stimuli_distractor_diamondtriangles.svg	stimuli_distractor_trianglediamonds.svg	37	no	57	0	352	0	0			0	0			1				0	
6.6.1	win	2023-06-01	17:09:15	17:20:45	686999	58a63a64ea3d11000170e1cc	3	1	main_z	11	main_z	125	stimuli_distractor_diamondtriangles.svg	stimuli_target_trianglerectangles.svg	29	yes	44	1	1003	0	0			0	0			1				0	
6.6.1	win	2023-06-01	17:09:15	17:20:45	686999	58a63a64ea3d11000170e1cc	3	1	main_z	11	advance_on_keypress_ZEE	126	stimuli_distractor_diamondtriangles.svg	stimuli_target_trianglerectangles.svg	29	yes	57	0	330	0	0			0	0			1				0	
6.6.1	win	2023-06-01	17:09:15	17:20:46	688663	58a63a64ea3d11000170e1cc	3	1	main_z	11	main_z	127	stimuli_distractor_trianglediamonds.svg	stimuli_target_trianglesquares.svg	26	yes	44	1	705	0	0			0	0			1				0	
6.6.1	win	2023-06-01	17:09:15	17:20:46	688663	58a63a64ea3d11000170e1cc	3	1	main_z	11	advance_on_keypress_ZEE	128	stimuli_distractor_trianglediamonds.svg	stimuli_target_trianglesquares.svg	26	yes	57	0	445	0	0			0	0			1				0	
6.6.1	win	2023-06-01	17:09:15	17:20:48	690743	58a63a64ea3d11000170e1cc	3	1	main_z	11	main_z	129	stimuli_distractor_diamondtriangles.svg	stimuli_target_rectanglediamonds.svg	14	yes	44	1	1021	0	0			0	0			1				0	
6.6.1	win	2023-06-01	17:09:15	17:20:48	690743	58a63a64ea3d11000170e1cc	3	1	main_z	11	advance_on_keypress_ZEE	130	stimuli_distractor_diamondtriangles.svg	stimuli_target_rectanglediamonds.svg	14	yes	57	0	279	0	0			0	0			1				0	
6.6.1	win	2023-06-01	17:09:15	17:20:51	693650	58a63a64ea3d11000170e1cc	3	1	main_z	11	main_z	131	stimuli_distractor_trianglediamonds.svg	stimuli_distractor_trianglediamonds.svg	34	no	0	1	2003	0	0			0	0			1				0	
6.6.1	win	2023-06-01	17:09:15	17:20:51	693650	58a63a64ea3d11000170e1cc	3	1	main_z	11	advance_on_keypress_ZEE	132	stimuli_distractor_trianglediamonds.svg	stimuli_distractor_trianglediamonds.svg	34	no	57	0	318	0	0			0	0			1				0	
6.6.1	win	2023-06-01	17:09:15	17:20:53	695229	58a63a64ea3d11000170e1cc	3	1	main_z	11	main_z	133	stimuli_distractor_trianglediamonds.svg	stimuli_target_rectanglediamonds.svg	10	yes	44	1	625	0	0			0	0			1				0	
6.6.1	win	2023-06-01	17:09:15	17:20:53	695229	58a63a64ea3d11000170e1cc	3	1	main_z	11	advance_on_keypress_ZEE	134	stimuli_distractor_trianglediamonds.svg	stimuli_target_rectanglediamonds.svg	10	yes	57	0	372	0	0			0	0			1				0	
6.6.1	win	2023-06-01	17:09:15	17:20:56	698234	58a63a64ea3d11000170e1cc	3	1	main_z	11	main_z	135	stimuli_distractor_diamondtriangles.svg	stimuli_distractor_trianglediamonds.svg	38	no	0	1	2003	0	0			0	0			1				0	
6.6.1	win	2023-06-01	17:09:15	17:20:56	698234	58a63a64ea3d11000170e1cc	3	1	main_z	11	advance_on_keypress_ZEE	136	stimuli_distractor_diamondtriangles.svg	stimuli_distractor_trianglediamonds.svg	38	no	57	0	377	0	0			0	0			1				0	
6.6.1	win	2023-06-01	17:09:15	17:20:59	701228	58a63a64ea3d11000170e1cc	3	1	main_z	11	main_z	137	stimuli_distractor_trianglediamonds.svg	stimuli_distractor_diamondtriangles.svg	35	no	0	1	2003	0	0			0	0			1				0	
6.6.1	win	2023-06-01	17:09:15	17:20:59	701228	58a63a64ea3d11000170e1cc	3	1	main_z	11	advance_on_keypress_ZEE	138	stimuli_distractor_trianglediamonds.svg	stimuli_distractor_diamondtriangles.svg	35	no	57	0	421	0	0			0	0			1				0	
6.6.1	win	2023-06-01	17:09:15	17:21:01	703079	58a63a64ea3d11000170e1cc	3	1	main_z	11	main_z	139	stimuli_target_squarediamonds.svg	stimuli_distractor_diamondtriangles.svg	8	yes	44	1	817	0	0			0	0			1				0	
6.6.1	win	2023-06-01	17:09:15	17:21:01	703079	58a63a64ea3d11000170e1cc	3	1	main_z	11	advance_on_keypress_ZEE	140	stimuli_target_squarediamonds.svg	stimuli_distractor_diamondtriangles.svg	8	yes	57	0	316	0	0			0	0			1				0	
6.6.1	win	2023-06-01	17:09:15	17:21:03	704871	58a63a64ea3d11000170e1cc	3	1	main_z	11	main_z	141	stimuli_distractor_diamondtriangles.svg	stimuli_target_trianglesquares.svg	30	yes	44	1	850	0	0			0	0			1				0	
6.6.1	win	2023-06-01	17:09:15	17:21:03	704871	58a63a64ea3d11000170e1cc	3	1	main_z	11	advance_on_keypress_ZEE	142	stimuli_distractor_diamondtriangles.svg	stimuli_target_trianglesquares.svg	30	yes	57	0	251	0	0			0	0			1				0	
6.6.1	win	2023-06-01	17:09:15	17:21:05	707755	58a63a64ea3d11000170e1cc	3	1	main_z	11	main_z	143	stimuli_distractor_diamondtriangles.svg	stimuli_target_rectangletriangles.svg	13	yes	0	0	2003	0	0			0	0			1				0	
6.6.1	win	2023-06-01	17:09:15	17:21:05	707755	58a63a64ea3d11000170e1cc	3	1	main_z	11	advance_on_keypress_ZEE	144	stimuli_distractor_diamondtriangles.svg	stimuli_target_rectangletriangles.svg	13	yes	57	0	390	0	0			0	0			1				0	
6.6.1	win	2023-06-01	17:09:15	17:21:07	709695	58a63a64ea3d11000170e1cc	3	1	main_z	11	main_z	145	stimuli_target_rectanglediamonds.svg	stimuli_distractor_diamondtriangles.svg	6	yes	44	1	925	0	0			0	0			1				0	
6.6.1	win	2023-06-01	17:09:15	17:21:07	709695	58a63a64ea3d11000170e1cc	3	1	main_z	11	advance_on_keypress_ZEE	146	stimuli_target_rectanglediamonds.svg	stimuli_distractor_diamondtriangles.svg	6	yes	57	0	450	0	0			0	0			1				0	
6.6.1	win	2023-06-01	17:09:15	17:21:10	712775	58a63a64ea3d11000170e1cc	3	1	main_z	11	main_z	147	stimuli_distractor_diamondtriangles.svg	stimuli_distractor_diamondtriangles.svg	39	no	0	1	2003	0	0			0	0			1				0	
6.6.1	win	2023-06-01	17:09:15	17:21:10	712775	58a63a64ea3d11000170e1cc	3	1	main_z	11	advance_on_keypress_ZEE	148	stimuli_distractor_diamondtriangles.svg	stimuli_distractor_diamondtriangles.svg	39	no	57	0	251	0	0			0	0			1				0	
6.6.1	win	2023-06-01	17:09:15	17:21:12	714282	58a63a64ea3d11000170e1cc	3	1	main_z	11	main_z	149	stimuli_distractor_trianglediamonds.svg	stimuli_target_rectangletriangles.svg	9	yes	44	1	630	0	0			0	0			1				0	
6.6.1	win	2023-06-01	17:09:15	17:21:12	714282	58a63a64ea3d11000170e1cc	3	1	main_z	11	advance_on_keypress_ZEE	150	stimuli_distractor_trianglediamonds.svg	stimuli_target_rectangletriangles.svg	9	yes	57	0	375	0	0			0	0			1				0	
6.6.1	win	2023-06-01	17:09:15	17:21:15	717298	58a63a64ea3d11000170e1cc	3	1	main_z	11	main_z	151	stimuli_target_diamondrectangles.svg	stimuli_distractor_diamondtriangles.svg	23	yes	0	0	2003	0	0			0	0			1				0	
6.6.1	win	2023-06-01	17:09:15	17:21:15	717298	58a63a64ea3d11000170e1cc	3	1	main_z	11	advance_on_keypress_ZEE	152	stimuli_target_diamondrectangles.svg	stimuli_distractor_diamondtriangles.svg	23	yes	57	0	430	0	0			0	0			1				0	
6.6.1	win	2023-06-01	17:09:15	17:21:18	720367	58a63a64ea3d11000170e1cc	3	1	main_z	11	main_z	153	stimuli_distractor_trianglediamonds.svg	stimuli_distractor_trianglediamonds.svg	33	no	0	1	2003	0	0			0	0			1				0	
6.6.1	win	2023-06-01	17:09:15	17:21:18	720367	58a63a64ea3d11000170e1cc	3	1	main_z	11	advance_on_keypress_ZEE	154	stimuli_distractor_trianglediamonds.svg	stimuli_distractor_trianglediamonds.svg	33	no	57	0	468	0	0			0	0			1				0	
6.6.1	win	2023-06-01	17:09:15	17:21:20	722119	58a63a64ea3d11000170e1cc	3	1	main_z	11	main_z	155	stimuli_distractor_trianglediamonds.svg	stimuli_target_squarediamonds.svg	12	yes	44	1	671	0	0			0	0			1				0	
6.6.1	win	2023-06-01	17:09:15	17:21:20	722119	58a63a64ea3d11000170e1cc	3	1	main_z	11	advance_on_keypress_ZEE	156	stimuli_distractor_trianglediamonds.svg	stimuli_target_squarediamonds.svg	12	yes	57	0	460	0	0			0	0			1				0	
6.6.1	win	2023-06-01	17:09:15	17:21:22	724023	58a63a64ea3d11000170e1cc	3	1	main_z	11	main_z	157	stimuli_distractor_trianglediamonds.svg	stimuli_target_trianglerectangles.svg	25	yes	44	1	830	0	0			0	0			1				0	
6.6.1	win	2023-06-01	17:09:15	17:21:22	724023	58a63a64ea3d11000170e1cc	3	1	main_z	11	advance_on_keypress_ZEE	158	stimuli_distractor_trianglediamonds.svg	stimuli_target_trianglerectangles.svg	25	yes	57	0	459	0	0			0	0			1				0	
6.6.1	win	2023-06-01	17:09:15	17:21:24	726071	58a63a64ea3d11000170e1cc	3	1	main_z	11	main_z	159	stimuli_target_trianglesquares.svg	stimuli_distractor_trianglediamonds.svg	18	yes	44	1	974	0	0			0	0			1				0	
6.6.1	win	2023-06-01	17:09:15	17:21:24	726071	58a63a64ea3d11000170e1cc	3	1	main_z	11	advance_on_keypress_ZEE	160	stimuli_target_trianglesquares.svg	stimuli_distractor_trianglediamonds.svg	18	yes	57	0	1353	0	0			0	0			1				0	
6.6.1	win	2023-06-01	17:09:15	17:21:24	726071	58a63a64ea3d11000170e1cc	3	1	headphonecheck_calibration	14	headphonecheck_calibrationIntro	1	stimuli_target_trianglesquares.svg	stimuli_distractor_trianglediamonds.svg	18	yes	calibrationButton	0	3706	0	0			0	0			1				0	
6.6.1	win	2023-06-01	17:09:15	17:21:24	726071	58a63a64ea3d11000170e1cc	3	1	headphonecheck_testphase	15	test_collectResponse	3	stimuli_target_trianglesquares.svg	stimuli_distractor_trianglediamonds.svg	18	yes	second	1	849	1	1	antiphase_hc_iso.wav	2	0	0			1				0	
6.6.1	win	2023-06-01	17:09:15	17:21:24	726071	58a63a64ea3d11000170e1cc	3	1	headphonecheck_testphase	15	test_collectResponse	6	stimuli_target_trianglesquares.svg	stimuli_distractor_trianglediamonds.svg	18	yes	third	1	587	2	6	antiphase_hc_ois.wav	3	0	0			1				0	
6.6.1	win	2023-06-01	17:09:15	17:21:24	726071	58a63a64ea3d11000170e1cc	3	1	headphonecheck_testphase	15	test_collectResponse	9	stimuli_target_trianglesquares.svg	stimuli_distractor_trianglediamonds.svg	18	yes	first	1	424	3	4	antiphase_hc_sio.wav	1	0	0			1				0	
6.6.1	win	2023-06-01	17:09:15	17:21:24	726071	58a63a64ea3d11000170e1cc	3	1	headphonecheck_testphase	15	test_collectResponse	12	stimuli_target_trianglesquares.svg	stimuli_distractor_trianglediamonds.svg	18	yes	second	1	380	4	5	antiphase_hc_osi.wav	2	0	0			1				0	
6.6.1	win	2023-06-01	17:09:15	17:21:24	726071	58a63a64ea3d11000170e1cc	3	1	headphonecheck_testphase	15	test_collectResponse	15	stimuli_target_trianglesquares.svg	stimuli_distractor_trianglediamonds.svg	18	yes	first	1	412	5	3	antiphase_hc_soi.wav	1	0	0			1				0	
6.6.1	win	2023-06-01	17:09:15	17:21:24	726071	58a63a64ea3d11000170e1cc	3	1	headphonecheck_testphase	15	test_collectResponse	18	stimuli_target_trianglesquares.svg	stimuli_distractor_trianglediamonds.svg	18	yes	third	1	492	6	2	antiphase_hc_ios.wav	3	0	0			1				0	
6.6.1	win	2023-06-01	17:09:15	17:21:24	726071	58a63a64ea3d11000170e1cc	3	1	stereocheck_calibration	17	stereocheck_calibrationIntro	1	stimuli_target_trianglesquares.svg	stimuli_distractor_trianglediamonds.svg	18	yes	stereocheck_calibrationButton	0	8677	6	2	antiphase_hc_ios.wav	3	0	0			1				0	
6.6.1	win	2023-06-01	17:09:15	17:21:24	726071	58a63a64ea3d11000170e1cc	3	1	stereocheck_testphase	18	stereocheck_test_collectResponse	3	stimuli_target_trianglesquares.svg	stimuli_distractor_trianglediamonds.svg	18	yes	stereocheck_left	1	2229	6	2	antiphase_hc_ios.wav	3	1	1	noise_calib_stim_LEFT.wav	1	1				0	
6.6.1	win	2023-06-01	17:09:15	17:21:24	726071	58a63a64ea3d11000170e1cc	3	1	stereocheck_testphase	18	stereocheck_test_collectResponse	6	stimuli_target_trianglesquares.svg	stimuli_distractor_trianglediamonds.svg	18	yes	stereocheck_right	1	478	6	2	antiphase_hc_ios.wav	3	2	6	noise_calib_stim_RIGHT.wav	2	1				0	
6.6.1	win	2023-06-01	17:09:15	17:21:24	726071	58a63a64ea3d11000170e1cc	3	1	stereocheck_testphase	18	stereocheck_test_collectResponse	9	stimuli_target_trianglesquares.svg	stimuli_distractor_trianglediamonds.svg	18	yes	stereocheck_right	1	474	6	2	antiphase_hc_ios.wav	3	3	4	noise_calib_stim_RIGHT.wav	2	1				0	
6.6.1	win	2023-06-01	17:09:15	17:21:24	726071	58a63a64ea3d11000170e1cc	3	1	stereocheck_testphase	18	stereocheck_test_collectResponse	12	stimuli_target_trianglesquares.svg	stimuli_distractor_trianglediamonds.svg	18	yes	stereocheck_left	1	457	6	2	antiphase_hc_ios.wav	3	4	2	noise_calib_stim_LEFT.wav	1	1				0	
6.6.1	win	2023-06-01	17:09:15	17:21:24	726071	58a63a64ea3d11000170e1cc	3	1	stereocheck_testphase	18	stereocheck_test_collectResponse	15	stimuli_target_trianglesquares.svg	stimuli_distractor_trianglediamonds.svg	18	yes	stereocheck_right	1	468	6	2	antiphase_hc_ios.wav	3	5	5	noise_calib_stim_RIGHT.wav	2	1				0	
6.6.1	win	2023-06-01	17:09:15	17:21:24	726071	58a63a64ea3d11000170e1cc	3	1	stereocheck_testphase	18	stereocheck_test_collectResponse	18	stimuli_target_trianglesquares.svg	stimuli_distractor_trianglediamonds.svg	18	yes	stereocheck_left	1	454	6	2	antiphase_hc_ios.wav	3	6	3	noise_calib_stim_LEFT.wav	1	1				0	
6.6.1	win	2023-06-01	17:09:15	17:21:24	726071	58a63a64ea3d11000170e1cc	3	1	DL_practice	21	DL_practice	2	stimuli_target_trianglesquares.svg	stimuli_distractor_trianglediamonds.svg	18	yes	da	1	2140	6	2	antiphase_hc_ios.wav	3	6	3	noise_calib_stim_LEFT.wav	1	7	blb_dichoticlistening_da-ba.mp3	da	ba	1	left
6.6.1	win	2023-06-01	17:09:15	17:21:24	726071	58a63a64ea3d11000170e1cc	3	1	DL_practice	21	DL_practice	3	stimuli_target_trianglesquares.svg	stimuli_distractor_trianglediamonds.svg	18	yes	ta	1	1892	6	2	antiphase_hc_ios.wav	3	6	3	noise_calib_stim_LEFT.wav	1	18	blb_dichoticlistening_ga-ta.mp3	ga	ta	1	right
6.6.1	win	2023-06-01	17:09:15	17:21:24	726071	58a63a64ea3d11000170e1cc	3	1	DL_practice	21	DL_practice	4	stimuli_target_trianglesquares.svg	stimuli_distractor_trianglediamonds.svg	18	yes	ga	1	1094	6	2	antiphase_hc_ios.wav	3	6	3	noise_calib_stim_LEFT.wav	1	15	blb_dichoticlistening_ga-ga.mp3	ga	ga	0	left
6.6.1	win	2023-06-01	17:09:15	17:21:24	726071	58a63a64ea3d11000170e1cc	3	1	DL_practice	21	DL_practice	5	stimuli_target_trianglesquares.svg	stimuli_distractor_trianglediamonds.svg	18	yes	ta	1	1279	6	2	antiphase_hc_ios.wav	3	6	3	noise_calib_stim_LEFT.wav	1	36	blb_dichoticlistening_ta-ta.mp3	ta	ta	0	left
6.6.1	win	2023-06-01	17:09:15	17:21:24	726071	58a63a64ea3d11000170e1cc	3	1	DL_practice	21	DL_practice	6	stimuli_target_trianglesquares.svg	stimuli_distractor_trianglediamonds.svg	18	yes	da	1	1557	6	2	antiphase_hc_ios.wav	3	6	3	noise_calib_stim_LEFT.wav	1	8	blb_dichoticlistening_da-da.mp3	da	da	0	left
6.6.1	win	2023-06-01	17:09:15	17:21:24	726071	58a63a64ea3d11000170e1cc	3	1	DL_practice	21	DL_practice	7	stimuli_target_trianglesquares.svg	stimuli_distractor_trianglediamonds.svg	18	yes	ka	1	1179	6	2	antiphase_hc_ios.wav	3	6	3	noise_calib_stim_LEFT.wav	1	22	blb_dichoticlistening_ka-ka.mp3	ka	ka	0	left
6.6.1	win	2023-06-01	17:09:15	17:21:24	726071	58a63a64ea3d11000170e1cc	3	1	DL_practice	21	DL_practice	8	stimuli_target_trianglesquares.svg	stimuli_distractor_trianglediamonds.svg	18	yes	pa	1	985	6	2	antiphase_hc_ios.wav	3	6	3	noise_calib_stim_LEFT.wav	1	29	blb_dichoticlistening_pa-pa.mp3	pa	pa	0	left
6.6.1	win	2023-06-01	17:09:15	17:21:24	726071	58a63a64ea3d11000170e1cc	3	1	DL_practice	21	DL_practice	9	stimuli_target_trianglesquares.svg	stimuli_distractor_trianglediamonds.svg	18	yes	ba	1	1612	6	2	antiphase_hc_ios.wav	3	6	3	noise_calib_stim_LEFT.wav	1	1	blb_dichoticlistening_ba-ba.mp3	ba	ba	0	left
6.6.1	win	2023-06-01	17:09:15	17:21:24	726071	58a63a64ea3d11000170e1cc	3	1	DL_practice	21	DL_practice	10	stimuli_target_trianglesquares.svg	stimuli_distractor_trianglediamonds.svg	18	yes	ka	1	1043	6	2	antiphase_hc_ios.wav	3	6	3	noise_calib_stim_LEFT.wav	1	23	blb_dichoticlistening_ka-pa.mp3	ka	pa	1	left
6.6.1	win	2023-06-01	17:09:15	17:21:24	726071	58a63a64ea3d11000170e1cc	3	1	DL_test	23	DL_test	1	stimuli_target_trianglesquares.svg	stimuli_distractor_trianglediamonds.svg	18	yes	ka	1	929	6	2	antiphase_hc_ios.wav	3	6	3	noise_calib_stim_LEFT.wav	1	23	blb_dichoticlistening_ka-pa.mp3	ka	pa	1	left
6.6.1	win	2023-06-01	17:09:15	17:21:24	726071	58a63a64ea3d11000170e1cc	3	1	DL_test	23	DL_test	2	stimuli_target_trianglesquares.svg	stimuli_distractor_trianglediamonds.svg	18	yes	ka	1	912	6	2	antiphase_hc_ios.wav	3	6	3	noise_calib_stim_LEFT.wav	1	34	blb_dichoticlistening_ta-ka.mp3	ta	ka	1	right
6.6.1	win	2023-06-01	17:09:15	17:21:24	726071	58a63a64ea3d11000170e1cc	3	1	DL_test	23	DL_test	3	stimuli_target_trianglesquares.svg	stimuli_distractor_trianglediamonds.svg	18	yes	ba	1	1192	6	2	antiphase_hc_ios.wav	3	6	3	noise_calib_stim_LEFT.wav	1	13	blb_dichoticlistening_ga-ba.mp3	ga	ba	1	right
6.6.1	win	2023-06-01	17:09:15	17:21:24	726071	58a63a64ea3d11000170e1cc	3	1	DL_test	23	DL_test	4	stimuli_target_trianglesquares.svg	stimuli_distractor_trianglediamonds.svg	18	yes	ga	1	1595	6	2	antiphase_hc_ios.wav	3	6	3	noise_calib_stim_LEFT.wav	1	16	blb_dichoticlistening_ga-ka.mp3	ga	ka	1	left
6.6.1	win	2023-06-01	17:09:15	17:21:24	726071	58a63a64ea3d11000170e1cc	3	1	DL_test	23	DL_test	5	stimuli_target_trianglesquares.svg	stimuli_distractor_trianglediamonds.svg	18	yes	pa	1	1147	6	2	antiphase_hc_ios.wav	3	6	3	noise_calib_stim_LEFT.wav	1	29	blb_dichoticlistening_pa-pa.mp3	pa	pa	0	left
6.6.1	win	2023-06-01	17:09:15	17:21:24	726071	58a63a64ea3d11000170e1cc	3	1	DL_test	23	DL_test	6	stimuli_target_trianglesquares.svg	stimuli_distractor_trianglediamonds.svg	18	yes	ka	1	974	6	2	antiphase_hc_ios.wav	3	6	3	noise_calib_stim_LEFT.wav	1	24	blb_dichoticlistening_ka-ta.mp3	ka	ta	1	left
6.6.1	win	2023-06-01	17:09:15	17:21:24	726071	58a63a64ea3d11000170e1cc	3	1	DL_test	23	DL_test	7	stimuli_target_trianglesquares.svg	stimuli_distractor_trianglediamonds.svg	18	yes	ta	0	1892	6	2	antiphase_hc_ios.wav	3	6	3	noise_calib_stim_LEFT.wav	1	11	blb_dichoticlistening_da-pa.mp3	da	pa	1	other
6.6.1	win	2023-06-01	17:09:15	17:21:24	726071	58a63a64ea3d11000170e1cc	3	1	DL_test	23	DL_test	8	stimuli_target_trianglesquares.svg	stimuli_distractor_trianglediamonds.svg	18	yes	da	1	1387	6	2	antiphase_hc_ios.wav	3	6	3	noise_calib_stim_LEFT.wav	1	32	blb_dichoticlistening_ta-da.mp3	ta	da	1	right
6.6.1	win	2023-06-01	17:09:15	17:21:24	726071	58a63a64ea3d11000170e1cc	3	1	DL_test	23	DL_test	9	stimuli_target_trianglesquares.svg	stimuli_distractor_trianglediamonds.svg	18	yes	da	0	1619	6	2	antiphase_hc_ios.wav	3	6	3	noise_calib_stim_LEFT.wav	1	31	blb_dichoticlistening_ta-ba.mp3	ta	ba	1	other
6.6.1	win	2023-06-01	17:09:15	17:21:24	726071	58a63a64ea3d11000170e1cc	3	1	DL_test	23	DL_test	10	stimuli_target_trianglesquares.svg	stimuli_distractor_trianglediamonds.svg	18	yes	da	0	1419	6	2	antiphase_hc_ios.wav	3	6	3	noise_calib_stim_LEFT.wav	1	18	blb_dichoticlistening_ga-ta.mp3	ga	ta	1	other
6.6.1	win	2023-06-01	17:09:15	17:21:24	726071	58a63a64ea3d11000170e1cc	3	1	DL_test	23	DL_test	11	stimuli_target_trianglesquares.svg	stimuli_distractor_trianglediamonds.svg	18	yes	pa	1	1656	6	2	antiphase_hc_ios.wav	3	6	3	noise_calib_stim_LEFT.wav	1	26	blb_dichoticlistening_pa-da.mp3	pa	da	1	left
6.6.1	win	2023-06-01	17:09:15	17:21:24	726071	58a63a64ea3d11000170e1cc	3	1	DL_test	23	DL_test	12	stimuli_target_trianglesquares.svg	stimuli_distractor_trianglediamonds.svg	18	yes	ta	1	1439	6	2	antiphase_hc_ios.wav	3	6	3	noise_calib_stim_LEFT.wav	1	12	blb_dichoticlistening_da-ta.mp3	da	ta	1	right
6.6.1	win	2023-06-01	17:09:15	17:21:24	726071	58a63a64ea3d11000170e1cc	3	1	DL_test	23	DL_test	13	stimuli_target_trianglesquares.svg	stimuli_distractor_trianglediamonds.svg	18	yes	da	1	1889	6	2	antiphase_hc_ios.wav	3	6	3	noise_calib_stim_LEFT.wav	1	9	blb_dichoticlistening_da-ga.mp3	da	ga	1	left
6.6.1	win	2023-06-01	17:09:15	17:21:24	726071	58a63a64ea3d11000170e1cc	3	1	DL_test	23	DL_test	14	stimuli_target_trianglesquares.svg	stimuli_distractor_trianglediamonds.svg	18	yes	ba	1	1103	6	2	antiphase_hc_ios.wav	3	6	3	noise_calib_stim_LEFT.wav	1	1	blb_dichoticlistening_ba-ba.mp3	ba	ba	0	left
6.6.1	win	2023-06-01	17:09:15	17:21:24	726071	58a63a64ea3d11000170e1cc	3	1	DL_test	23	DL_test	15	stimuli_target_trianglesquares.svg	stimuli_distractor_trianglediamonds.svg	18	yes	ka	1	1092	6	2	antiphase_hc_ios.wav	3	6	3	noise_calib_stim_LEFT.wav	1	28	blb_dichoticlistening_pa-ka.mp3	pa	ka	1	right
6.6.1	win	2023-06-01	17:09:15	17:21:24	726071	58a63a64ea3d11000170e1cc	3	1	DL_test	23	DL_test	16	stimuli_target_trianglesquares.svg	stimuli_distractor_trianglediamonds.svg	18	yes	da	1	1160	6	2	antiphase_hc_ios.wav	3	6	3	noise_calib_stim_LEFT.wav	1	14	blb_dichoticlistening_ga-da.mp3	ga	da	1	right
6.6.1	win	2023-06-01	17:09:15	17:21:24	726071	58a63a64ea3d11000170e1cc	3	1	DL_test	23	DL_test	17	stimuli_target_trianglesquares.svg	stimuli_distractor_trianglediamonds.svg	18	yes	ka	1	993	6	2	antiphase_hc_ios.wav	3	6	3	noise_calib_stim_LEFT.wav	1	22	blb_dichoticlistening_ka-ka.mp3	ka	ka	0	left
6.6.1	win	2023-06-01	17:09:15	17:21:24	726071	58a63a64ea3d11000170e1cc	3	1	DL_test	23	DL_test	18	stimuli_target_trianglesquares.svg	stimuli_distractor_trianglediamonds.svg	18	yes	pa	1	1676	6	2	antiphase_hc_ios.wav	3	6	3	noise_calib_stim_LEFT.wav	1	35	blb_dichoticlistening_ta-pa.mp3	ta	pa	1	right
6.6.1	win	2023-06-01	17:09:15	17:21:24	726071	58a63a64ea3d11000170e1cc	3	1	DL_test	23	DL_test	19	stimuli_target_trianglesquares.svg	stimuli_distractor_trianglediamonds.svg	18	yes	ta	1	1099	6	2	antiphase_hc_ios.wav	3	6	3	noise_calib_stim_LEFT.wav	1	30	blb_dichoticlistening_pa-ta.mp3	pa	ta	1	right
6.6.1	win	2023-06-01	17:09:15	17:21:24	726071	58a63a64ea3d11000170e1cc	3	1	DL_test	23	DL_test	20	stimuli_target_trianglesquares.svg	stimuli_distractor_trianglediamonds.svg	18	yes	ga	0	2156	6	2	antiphase_hc_ios.wav	3	6	3	noise_calib_stim_LEFT.wav	1	20	blb_dichoticlistening_ka-da.mp3	ka	da	1	other
6.6.1	win	2023-06-01	17:09:15	17:21:24	726071	58a63a64ea3d11000170e1cc	3	1	DL_test	23	DL_test	21	stimuli_target_trianglesquares.svg	stimuli_distractor_trianglediamonds.svg	18	yes	da	1	1487	6	2	antiphase_hc_ios.wav	3	6	3	noise_calib_stim_LEFT.wav	1	7	blb_dichoticlistening_da-ba.mp3	da	ba	1	left
6.6.1	win	2023-06-01	17:09:15	17:21:24	726071	58a63a64ea3d11000170e1cc	3	1	DL_test	23	DL_test	22	stimuli_target_trianglesquares.svg	stimuli_distractor_trianglediamonds.svg	18	yes	da	1	1756	6	2	antiphase_hc_ios.wav	3	6	3	noise_calib_stim_LEFT.wav	1	2	blb_dichoticlistening_ba-da.mp3	ba	da	1	right
6.6.1	win	2023-06-01	17:09:15	17:21:24	726071	58a63a64ea3d11000170e1cc	3	1	DL_test	23	DL_test	23	stimuli_target_trianglesquares.svg	stimuli_distractor_trianglediamonds.svg	18	yes	ga	1	1360	6	2	antiphase_hc_ios.wav	3	6	3	noise_calib_stim_LEFT.wav	1	21	blb_dichoticlistening_ka-ga.mp3	ka	ga	1	right
6.6.1	win	2023-06-01	17:09:15	17:21:24	726071	58a63a64ea3d11000170e1cc	3	1	DL_test	23	DL_test	24	stimuli_target_trianglesquares.svg	stimuli_distractor_trianglediamonds.svg	18	yes	pa	1	1284	6	2	antiphase_hc_ios.wav	3	6	3	noise_calib_stim_LEFT.wav	1	17	blb_dichoticlistening_ga-pa.mp3	ga	pa	1	right
6.6.1	win	2023-06-01	17:09:15	17:21:24	726071	58a63a64ea3d11000170e1cc	3	1	DL_test	23	DL_test	25	stimuli_target_trianglesquares.svg	stimuli_distractor_trianglediamonds.svg	18	yes	ta	1	944	6	2	antiphase_hc_ios.wav	3	6	3	noise_calib_stim_LEFT.wav	1	36	blb_dichoticlistening_ta-ta.mp3	ta	ta	0	left
6.6.1	win	2023-06-01	17:09:15	17:21:24	726071	58a63a64ea3d11000170e1cc	3	1	DL_test	23	DL_test	26	stimuli_target_trianglesquares.svg	stimuli_distractor_trianglediamonds.svg	18	yes	ba	1	1957	6	2	antiphase_hc_ios.wav	3	6	3	noise_calib_stim_LEFT.wav	1	3	blb_dichoticlistening_ba-ga.mp3	ba	ga	1	left
