build	computer.platform	date	time	timestamp	time_elapsed_ms	subject	group	session	blockcode	blocknum	trialcode	trialnum	stimulus_left	stimulus_right	stim_index	target_present	response	correct	latency	headphonecheck_countTestTrials	headphonecheck_index	headphonecheck_testSound	headphonecheck_correctResponse	stereocheck_countTestTrials	stereocheck_index	stereocheck_testSound	stereocheck_correctResponse	DL_index	DL_soundfile	DL_leftSound	DL_rightSound	DL_dualSound	DL_choice
6.6.1	win	2023-06-20	20:12:30	0	0	5c086d3d3be61100011a694d	2	1	headphonecheck_calibration	4	headphonecheck_calibrationIntro	1			0		calibrationButton	0	3619	0	0			0	0			1				0	
6.6.1	win	2023-06-20	20:12:30	0	0	5c086d3d3be61100011a694d	2	1	headphonecheck_testphase	5	test_collectResponse	3			0		second	1	3179	1	1	antiphase_hc_iso.wav	2	0	0			1				0	
6.6.1	win	2023-06-20	20:12:30	0	0	5c086d3d3be61100011a694d	2	1	headphonecheck_testphase	5	test_collectResponse	6			0		second	1	766	2	5	antiphase_hc_osi.wav	2	0	0			1				0	
6.6.1	win	2023-06-20	20:12:30	0	0	5c086d3d3be61100011a694d	2	1	headphonecheck_testphase	5	test_collectResponse	9			0		third	1	553	3	2	antiphase_hc_ios.wav	3	0	0			1				0	
6.6.1	win	2023-06-20	20:12:30	0	0	5c086d3d3be61100011a694d	2	1	headphonecheck_testphase	5	test_collectResponse	12			0		first	1	444	4	3	antiphase_hc_soi.wav	1	0	0			1				0	
6.6.1	win	2023-06-20	20:12:30	0	0	5c086d3d3be61100011a694d	2	1	headphonecheck_testphase	5	test_collectResponse	15			0		first	1	687	5	4	antiphase_hc_sio.wav	1	0	0			1				0	
6.6.1	win	2023-06-20	20:12:30	0	0	5c086d3d3be61100011a694d	2	1	headphonecheck_testphase	5	test_collectResponse	18			0		third	1	442	6	6	antiphase_hc_ois.wav	3	0	0			1				0	
6.6.1	win	2023-06-20	20:12:30	0	0	5c086d3d3be61100011a694d	2	1	stereocheck_calibration	7	stereocheck_calibrationIntro	1			0		stereocheck_calibrationButton	0	6986	6	6	antiphase_hc_ois.wav	3	0	0			1				0	
6.6.1	win	2023-06-20	20:12:30	0	0	5c086d3d3be61100011a694d	2	1	stereocheck_testphase	8	stereocheck_test_collectResponse	3			0		stereocheck_left	1	1580	6	6	antiphase_hc_ois.wav	3	1	3	noise_calib_stim_LEFT.wav	1	1				0	
6.6.1	win	2023-06-20	20:12:30	0	0	5c086d3d3be61100011a694d	2	1	stereocheck_testphase	8	stereocheck_test_collectResponse	6			0		stereocheck_left	1	1339	6	6	antiphase_hc_ois.wav	3	2	2	noise_calib_stim_LEFT.wav	1	1				0	
6.6.1	win	2023-06-20	20:12:30	0	0	5c086d3d3be61100011a694d	2	1	stereocheck_testphase	8	stereocheck_test_collectResponse	9			0		stereocheck_left	1	966	6	6	antiphase_hc_ois.wav	3	3	1	noise_calib_stim_LEFT.wav	1	1				0	
6.6.1	win	2023-06-20	20:12:30	0	0	5c086d3d3be61100011a694d	2	1	stereocheck_testphase	8	stereocheck_test_collectResponse	12			0		stereocheck_right	1	836	6	6	antiphase_hc_ois.wav	3	4	6	noise_calib_stim_RIGHT.wav	2	1				0	
6.6.1	win	2023-06-20	20:12:30	0	0	5c086d3d3be61100011a694d	2	1	stereocheck_testphase	8	stereocheck_test_collectResponse	15			0		stereocheck_right	1	1118	6	6	antiphase_hc_ois.wav	3	5	5	noise_calib_stim_RIGHT.wav	2	1				0	
6.6.1	win	2023-06-20	20:12:30	0	0	5c086d3d3be61100011a694d	2	1	stereocheck_testphase	8	stereocheck_test_collectResponse	18			0		stereocheck_right	1	682	6	6	antiphase_hc_ois.wav	3	6	4	noise_calib_stim_RIGHT.wav	2	1				0	
6.6.1	win	2023-06-20	20:12:30	0	0	5c086d3d3be61100011a694d	2	1	DL_practice	11	DL_practice	2			0		pa	1	1524	6	6	antiphase_hc_ois.wav	3	6	4	noise_calib_stim_RIGHT.wav	2	29	blb_dichoticlistening_pa-pa.mp3	pa	pa	0	left
6.6.1	win	2023-06-20	20:12:30	0	0	5c086d3d3be61100011a694d	2	1	DL_practice	11	DL_practice	3			0		ga	1	1169	6	6	antiphase_hc_ois.wav	3	6	4	noise_calib_stim_RIGHT.wav	2	15	blb_dichoticlistening_ga-ga.mp3	ga	ga	0	left
6.6.1	win	2023-06-20	20:12:30	0	0	5c086d3d3be61100011a694d	2	1	DL_practice	11	DL_practice	4			0		ka	1	1186	6	6	antiphase_hc_ois.wav	3	6	4	noise_calib_stim_RIGHT.wav	2	22	blb_dichoticlistening_ka-ka.mp3	ka	ka	0	left
6.6.1	win	2023-06-20	20:12:30	0	0	5c086d3d3be61100011a694d	2	1	DL_practice	11	DL_practice	5			0		ga	1	1596	6	6	antiphase_hc_ois.wav	3	6	4	noise_calib_stim_RIGHT.wav	2	18	blb_dichoticlistening_ga-ta.mp3	ga	ta	1	left
6.6.1	win	2023-06-20	20:12:30	0	0	5c086d3d3be61100011a694d	2	1	DL_practice	11	DL_practice	6			0		ka	1	1361	6	6	antiphase_hc_ois.wav	3	6	4	noise_calib_stim_RIGHT.wav	2	23	blb_dichoticlistening_ka-pa.mp3	ka	pa	1	left
6.6.1	win	2023-06-20	20:12:30	0	0	5c086d3d3be61100011a694d	2	1	DL_practice	11	DL_practice	7			0		ba	1	1246	6	6	antiphase_hc_ois.wav	3	6	4	noise_calib_stim_RIGHT.wav	2	1	blb_dichoticlistening_ba-ba.mp3	ba	ba	0	left
6.6.1	win	2023-06-20	20:12:30	0	0	5c086d3d3be61100011a694d	2	1	DL_practice	11	DL_practice	8			0		da	1	1153	6	6	antiphase_hc_ois.wav	3	6	4	noise_calib_stim_RIGHT.wav	2	7	blb_dichoticlistening_da-ba.mp3	da	ba	1	left
6.6.1	win	2023-06-20	20:12:30	0	0	5c086d3d3be61100011a694d	2	1	DL_practice	11	DL_practice	9			0		ta	1	1769	6	6	antiphase_hc_ois.wav	3	6	4	noise_calib_stim_RIGHT.wav	2	36	blb_dichoticlistening_ta-ta.mp3	ta	ta	0	left
6.6.1	win	2023-06-20	20:12:30	0	0	5c086d3d3be61100011a694d	2	1	DL_practice	11	DL_practice	10			0		da	1	1755	6	6	antiphase_hc_ois.wav	3	6	4	noise_calib_stim_RIGHT.wav	2	8	blb_dichoticlistening_da-da.mp3	da	da	0	left
6.6.1	win	2023-06-20	20:12:30	0	0	5c086d3d3be61100011a694d	2	1	DL_test	13	DL_test	1			0		ka	1	1443	6	6	antiphase_hc_ois.wav	3	6	4	noise_calib_stim_RIGHT.wav	2	20	blb_dichoticlistening_ka-da.mp3	ka	da	1	left
6.6.1	win	2023-06-20	20:12:30	0	0	5c086d3d3be61100011a694d	2	1	DL_test	13	DL_test	2			0		ta	1	1220	6	6	antiphase_hc_ois.wav	3	6	4	noise_calib_stim_RIGHT.wav	2	36	blb_dichoticlistening_ta-ta.mp3	ta	ta	0	left
6.6.1	win	2023-06-20	20:12:30	0	0	5c086d3d3be61100011a694d	2	1	DL_test	13	DL_test	3			0		pa	1	1432	6	6	antiphase_hc_ois.wav	3	6	4	noise_calib_stim_RIGHT.wav	2	30	blb_dichoticlistening_pa-ta.mp3	pa	ta	1	left
6.6.1	win	2023-06-20	20:12:30	0	0	5c086d3d3be61100011a694d	2	1	DL_test	13	DL_test	4			0		ta	1	1674	6	6	antiphase_hc_ois.wav	3	6	4	noise_calib_stim_RIGHT.wav	2	31	blb_dichoticlistening_ta-ba.mp3	ta	ba	1	left
6.6.1	win	2023-06-20	20:12:30	0	0	5c086d3d3be61100011a694d	2	1	DL_test	13	DL_test	5			0		ba	1	2598	6	6	antiphase_hc_ois.wav	3	6	4	noise_calib_stim_RIGHT.wav	2	5	blb_dichoticlistening_ba-pa.mp3	ba	pa	1	left
6.6.1	win	2023-06-20	20:12:30	0	0	5c086d3d3be61100011a694d	2	1	DL_test	13	DL_test	6			0		da	1	1841	6	6	antiphase_hc_ois.wav	3	6	4	noise_calib_stim_RIGHT.wav	2	11	blb_dichoticlistening_da-pa.mp3	da	pa	1	left
6.6.1	win	2023-06-20	20:12:30	0	0	5c086d3d3be61100011a694d	2	1	DL_test	13	DL_test	7			0		da	1	1437	6	6	antiphase_hc_ois.wav	3	6	4	noise_calib_stim_RIGHT.wav	2	7	blb_dichoticlistening_da-ba.mp3	da	ba	1	left
6.6.1	win	2023-06-20	20:12:30	0	0	5c086d3d3be61100011a694d	2	1	DL_test	13	DL_test	8			0		da	1	1187	6	6	antiphase_hc_ois.wav	3	6	4	noise_calib_stim_RIGHT.wav	2	8	blb_dichoticlistening_da-da.mp3	da	da	0	left
6.6.1	win	2023-06-20	20:12:30	0	0	5c086d3d3be61100011a694d	2	1	DL_test	13	DL_test	9			0		ka	1	1710	6	6	antiphase_hc_ois.wav	3	6	4	noise_calib_stim_RIGHT.wav	2	28	blb_dichoticlistening_pa-ka.mp3	pa	ka	1	right
6.6.1	win	2023-06-20	20:12:30	0	0	5c086d3d3be61100011a694d	2	1	DL_test	13	DL_test	10			0		ga	1	1747	6	6	antiphase_hc_ois.wav	3	6	4	noise_calib_stim_RIGHT.wav	2	13	blb_dichoticlistening_ga-ba.mp3	ga	ba	1	left
6.6.1	win	2023-06-20	20:12:30	0	0	5c086d3d3be61100011a694d	2	1	DL_test	13	DL_test	11			0		da	1	2047	6	6	antiphase_hc_ois.wav	3	6	4	noise_calib_stim_RIGHT.wav	2	10	blb_dichoticlistening_da-ka.mp3	da	ka	1	left
6.6.1	win	2023-06-20	20:12:30	0	0	5c086d3d3be61100011a694d	2	1	DL_test	13	DL_test	12			0		ta	1	1840	6	6	antiphase_hc_ois.wav	3	6	4	noise_calib_stim_RIGHT.wav	2	35	blb_dichoticlistening_ta-pa.mp3	ta	pa	1	left
6.6.1	win	2023-06-20	20:12:30	0	0	5c086d3d3be61100011a694d	2	1	DL_test	13	DL_test	13			0		ka	1	1639	6	6	antiphase_hc_ois.wav	3	6	4	noise_calib_stim_RIGHT.wav	2	4	blb_dichoticlistening_ba-ka.mp3	ba	ka	1	right
6.6.1	win	2023-06-20	20:12:30	0	0	5c086d3d3be61100011a694d	2	1	DL_test	13	DL_test	14			0		ka	1	1369	6	6	antiphase_hc_ois.wav	3	6	4	noise_calib_stim_RIGHT.wav	2	23	blb_dichoticlistening_ka-pa.mp3	ka	pa	1	left
6.6.1	win	2023-06-20	20:12:30	0	0	5c086d3d3be61100011a694d	2	1	DL_test	13	DL_test	15			0		da	1	1549	6	6	antiphase_hc_ois.wav	3	6	4	noise_calib_stim_RIGHT.wav	2	12	blb_dichoticlistening_da-ta.mp3	da	ta	1	left
6.6.1	win	2023-06-20	20:12:30	0	0	5c086d3d3be61100011a694d	2	1	DL_test	13	DL_test	16			0		ga	1	1390	6	6	antiphase_hc_ois.wav	3	6	4	noise_calib_stim_RIGHT.wav	2	14	blb_dichoticlistening_ga-da.mp3	ga	da	1	left
6.6.1	win	2023-06-20	20:12:30	0	0	5c086d3d3be61100011a694d	2	1	DL_test	13	DL_test	17			0		ka	1	1355	6	6	antiphase_hc_ois.wav	3	6	4	noise_calib_stim_RIGHT.wav	2	19	blb_dichoticlistening_ka-ba.mp3	ka	ba	1	left
6.6.1	win	2023-06-20	20:12:30	0	0	5c086d3d3be61100011a694d	2	1	DL_test	13	DL_test	18			0		ka	1	1085	6	6	antiphase_hc_ois.wav	3	6	4	noise_calib_stim_RIGHT.wav	2	22	blb_dichoticlistening_ka-ka.mp3	ka	ka	0	left
6.6.1	win	2023-06-20	20:12:30	0	0	5c086d3d3be61100011a694d	2	1	DL_test	13	DL_test	19			0		ga	1	1278	6	6	antiphase_hc_ois.wav	3	6	4	noise_calib_stim_RIGHT.wav	2	18	blb_dichoticlistening_ga-ta.mp3	ga	ta	1	left
6.6.1	win	2023-06-20	20:12:30	0	0	5c086d3d3be61100011a694d	2	1	DL_test	13	DL_test	20			0		pa	1	1296	6	6	antiphase_hc_ois.wav	3	6	4	noise_calib_stim_RIGHT.wav	2	29	blb_dichoticlistening_pa-pa.mp3	pa	pa	0	left
6.6.1	win	2023-06-20	20:12:30	0	0	5c086d3d3be61100011a694d	2	1	DL_test	13	DL_test	21			0		ka	1	1193	6	6	antiphase_hc_ois.wav	3	6	4	noise_calib_stim_RIGHT.wav	2	21	blb_dichoticlistening_ka-ga.mp3	ka	ga	1	left
6.6.1	win	2023-06-20	20:12:30	0	0	5c086d3d3be61100011a694d	2	1	DL_test	13	DL_test	22			0		pa	1	1501	6	6	antiphase_hc_ois.wav	3	6	4	noise_calib_stim_RIGHT.wav	2	26	blb_dichoticlistening_pa-da.mp3	pa	da	1	left
6.6.1	win	2023-06-20	20:12:30	0	0	5c086d3d3be61100011a694d	2	1	DL_test	13	DL_test	23			0		ka	1	1209	6	6	antiphase_hc_ois.wav	3	6	4	noise_calib_stim_RIGHT.wav	2	34	blb_dichoticlistening_ta-ka.mp3	ta	ka	1	right
6.6.1	win	2023-06-20	20:12:30	0	0	5c086d3d3be61100011a694d	2	1	DL_test	13	DL_test	24			0		ga	1	1402	6	6	antiphase_hc_ois.wav	3	6	4	noise_calib_stim_RIGHT.wav	2	15	blb_dichoticlistening_ga-ga.mp3	ga	ga	0	left
6.6.1	win	2023-06-20	20:12:30	0	0	5c086d3d3be61100011a694d	2	1	DL_test	13	DL_test	25			0		ta	1	2749	6	6	antiphase_hc_ois.wav	3	6	4	noise_calib_stim_RIGHT.wav	2	32	blb_dichoticlistening_ta-da.mp3	ta	da	1	left
6.6.1	win	2023-06-20	20:12:30	0	0	5c086d3d3be61100011a694d	2	1	DL_test	13	DL_test	26			0		ka	0	2139	6	6	antiphase_hc_ois.wav	3	6	4	noise_calib_stim_RIGHT.wav	2	33	blb_dichoticlistening_ta-ga.mp3	ta	ga	1	other
6.6.1	win	2023-06-20	20:12:30	0	0	5c086d3d3be61100011a694d	2	1	DL_test	13	DL_test	27			0		ba	1	1609	6	6	antiphase_hc_ois.wav	3	6	4	noise_calib_stim_RIGHT.wav	2	3	blb_dichoticlistening_ba-ga.mp3	ba	ga	1	left
6.6.1	win	2023-06-20	20:12:30	0	0	5c086d3d3be61100011a694d	2	1	DL_test	13	DL_test	28			0		da	1	1623	6	6	antiphase_hc_ois.wav	3	6	4	noise_calib_stim_RIGHT.wav	2	9	blb_dichoticlistening_da-ga.mp3	da	ga	1	left
6.6.1	win	2023-06-20	20:12:30	0	0	5c086d3d3be61100011a694d	2	1	DL_test	13	DL_test	29			0		pa	1	1425	6	6	antiphase_hc_ois.wav	3	6	4	noise_calib_stim_RIGHT.wav	2	25	blb_dichoticlistening_pa-ba.mp3	pa	ba	1	left
6.6.1	win	2023-06-20	20:12:30	0	0	5c086d3d3be61100011a694d	2	1	DL_test	13	DL_test	30			0		ka	1	1756	6	6	antiphase_hc_ois.wav	3	6	4	noise_calib_stim_RIGHT.wav	2	16	blb_dichoticlistening_ga-ka.mp3	ga	ka	1	right
6.6.1	win	2023-06-20	20:12:30	0	0	5c086d3d3be61100011a694d	2	1	DL_test	13	DL_test	31			0		ba	1	1824	6	6	antiphase_hc_ois.wav	3	6	4	noise_calib_stim_RIGHT.wav	2	2	blb_dichoticlistening_ba-da.mp3	ba	da	1	left
6.6.1	win	2023-06-20	20:12:30	0	0	5c086d3d3be61100011a694d	2	1	DL_test	13	DL_test	32			0		pa	0	2686	6	6	antiphase_hc_ois.wav	3	6	4	noise_calib_stim_RIGHT.wav	2	6	blb_dichoticlistening_ba-ta.mp3	ba	ta	1	other
6.6.1	win	2023-06-20	20:12:30	0	0	5c086d3d3be61100011a694d	2	1	DL_test	13	DL_test	33			0		ga	1	1705	6	6	antiphase_hc_ois.wav	3	6	4	noise_calib_stim_RIGHT.wav	2	17	blb_dichoticlistening_ga-pa.mp3	ga	pa	1	left
6.6.1	win	2023-06-20	20:12:30	0	0	5c086d3d3be61100011a694d	2	1	DL_test	13	DL_test	34			0		ba	1	1905	6	6	antiphase_hc_ois.wav	3	6	4	noise_calib_stim_RIGHT.wav	2	1	blb_dichoticlistening_ba-ba.mp3	ba	ba	0	left
6.6.1	win	2023-06-20	20:12:30	0	0	5c086d3d3be61100011a694d	2	1	DL_test	13	DL_test	35			0		pa	1	2195	6	6	antiphase_hc_ois.wav	3	6	4	noise_calib_stim_RIGHT.wav	2	27	blb_dichoticlistening_pa-ga.mp3	pa	ga	1	left
6.6.1	win	2023-06-20	20:12:30	0	0	5c086d3d3be61100011a694d	2	1	DL_test	13	DL_test	36			0		ka	1	1212	6	6	antiphase_hc_ois.wav	3	6	4	noise_calib_stim_RIGHT.wav	2	24	blb_dichoticlistening_ka-ta.mp3	ka	ta	1	left
6.6.1	win	2023-06-20	20:12:30	0	0	5c086d3d3be61100011a694d	2	1	DL_test	14	DL_test	1			0		ba	1	1686	6	6	antiphase_hc_ois.wav	3	6	4	noise_calib_stim_RIGHT.wav	2	3	blb_dichoticlistening_ba-ga.mp3	ba	ga	1	left
6.6.1	win	2023-06-20	20:12:30	0	0	5c086d3d3be61100011a694d	2	1	DL_test	14	DL_test	2			0		da	1	1244	6	6	antiphase_hc_ois.wav	3	6	4	noise_calib_stim_RIGHT.wav	2	11	blb_dichoticlistening_da-pa.mp3	da	pa	1	left
6.6.1	win	2023-06-20	20:12:30	0	0	5c086d3d3be61100011a694d	2	1	DL_test	14	DL_test	3			0		ba	1	1411	6	6	antiphase_hc_ois.wav	3	6	4	noise_calib_stim_RIGHT.wav	2	7	blb_dichoticlistening_da-ba.mp3	da	ba	1	right
6.6.1	win	2023-06-20	20:12:30	0	0	5c086d3d3be61100011a694d	2	1	DL_test	14	DL_test	4			0		ka	1	1119	6	6	antiphase_hc_ois.wav	3	6	4	noise_calib_stim_RIGHT.wav	2	22	blb_dichoticlistening_ka-ka.mp3	ka	ka	0	left
6.6.1	win	2023-06-20	20:12:30	0	0	5c086d3d3be61100011a694d	2	1	DL_test	14	DL_test	5			0		ka	1	1093	6	6	antiphase_hc_ois.wav	3	6	4	noise_calib_stim_RIGHT.wav	2	34	blb_dichoticlistening_ta-ka.mp3	ta	ka	1	right
6.6.1	win	2023-06-20	20:12:30	0	0	5c086d3d3be61100011a694d	2	1	DL_test	14	DL_test	6			0		ka	0	1491	6	6	antiphase_hc_ois.wav	3	6	4	noise_calib_stim_RIGHT.wav	2	33	blb_dichoticlistening_ta-ga.mp3	ta	ga	1	other
6.6.1	win	2023-06-20	20:12:30	0	0	5c086d3d3be61100011a694d	2	1	DL_test	14	DL_test	7			0		pa	1	1696	6	6	antiphase_hc_ois.wav	3	6	4	noise_calib_stim_RIGHT.wav	2	29	blb_dichoticlistening_pa-pa.mp3	pa	pa	0	left
6.6.1	win	2023-06-20	20:12:30	0	0	5c086d3d3be61100011a694d	2	1	DL_test	14	DL_test	8			0		ga	1	1352	6	6	antiphase_hc_ois.wav	3	6	4	noise_calib_stim_RIGHT.wav	2	14	blb_dichoticlistening_ga-da.mp3	ga	da	1	left
6.6.1	win	2023-06-20	20:12:30	0	0	5c086d3d3be61100011a694d	2	1	DL_test	14	DL_test	9			0		ba	1	2080	6	6	antiphase_hc_ois.wav	3	6	4	noise_calib_stim_RIGHT.wav	2	4	blb_dichoticlistening_ba-ka.mp3	ba	ka	1	left
6.6.1	win	2023-06-20	20:12:30	0	0	5c086d3d3be61100011a694d	2	1	DL_test	14	DL_test	10			0		ka	1	1294	6	6	antiphase_hc_ois.wav	3	6	4	noise_calib_stim_RIGHT.wav	2	21	blb_dichoticlistening_ka-ga.mp3	ka	ga	1	left
6.6.1	win	2023-06-20	20:12:30	0	0	5c086d3d3be61100011a694d	2	1	DL_test	14	DL_test	11			0		ba	1	1427	6	6	antiphase_hc_ois.wav	3	6	4	noise_calib_stim_RIGHT.wav	2	1	blb_dichoticlistening_ba-ba.mp3	ba	ba	0	left
6.6.1	win	2023-06-20	20:12:30	0	0	5c086d3d3be61100011a694d	2	1	DL_test	14	DL_test	12			0		ka	0	1648	6	6	antiphase_hc_ois.wav	3	6	4	noise_calib_stim_RIGHT.wav	2	18	blb_dichoticlistening_ga-ta.mp3	ga	ta	1	other
6.6.1	win	2023-06-20	20:12:30	0	0	5c086d3d3be61100011a694d	2	1	DL_test	14	DL_test	13			0		ga	1	1609	6	6	antiphase_hc_ois.wav	3	6	4	noise_calib_stim_RIGHT.wav	2	16	blb_dichoticlistening_ga-ka.mp3	ga	ka	1	left
6.6.1	win	2023-06-20	20:12:30	0	0	5c086d3d3be61100011a694d	2	1	DL_test	14	DL_test	14			0		da	1	1360	6	6	antiphase_hc_ois.wav	3	6	4	noise_calib_stim_RIGHT.wav	2	8	blb_dichoticlistening_da-da.mp3	da	da	0	left
6.6.1	win	2023-06-20	20:12:30	0	0	5c086d3d3be61100011a694d	2	1	DL_test	14	DL_test	15			0		pa	1	1336	6	6	antiphase_hc_ois.wav	3	6	4	noise_calib_stim_RIGHT.wav	2	25	blb_dichoticlistening_pa-ba.mp3	pa	ba	1	left
6.6.1	win	2023-06-20	20:12:30	0	0	5c086d3d3be61100011a694d	2	1	DL_test	14	DL_test	16			0		ga	1	1161	6	6	antiphase_hc_ois.wav	3	6	4	noise_calib_stim_RIGHT.wav	2	15	blb_dichoticlistening_ga-ga.mp3	ga	ga	0	left
6.6.1	win	2023-06-20	20:12:30	0	0	5c086d3d3be61100011a694d	2	1	DL_test	14	DL_test	17			0		ta	0	1712	6	6	antiphase_hc_ois.wav	3	6	4	noise_calib_stim_RIGHT.wav	2	28	blb_dichoticlistening_pa-ka.mp3	pa	ka	1	other
6.6.1	win	2023-06-20	20:12:30	0	0	5c086d3d3be61100011a694d	2	1	DL_test	14	DL_test	18			0		ta	1	1726	6	6	antiphase_hc_ois.wav	3	6	4	noise_calib_stim_RIGHT.wav	2	36	blb_dichoticlistening_ta-ta.mp3	ta	ta	0	left
6.6.1	win	2023-06-20	20:12:30	0	0	5c086d3d3be61100011a694d	2	1	DL_test	14	DL_test	19			0		ta	1	1518	6	6	antiphase_hc_ois.wav	3	6	4	noise_calib_stim_RIGHT.wav	2	32	blb_dichoticlistening_ta-da.mp3	ta	da	1	left
6.6.1	win	2023-06-20	20:12:30	0	0	5c086d3d3be61100011a694d	2	1	DL_test	14	DL_test	20			0		da	0	1287	6	6	antiphase_hc_ois.wav	3	6	4	noise_calib_stim_RIGHT.wav	2	5	blb_dichoticlistening_ba-pa.mp3	ba	pa	1	other
6.6.1	win	2023-06-20	20:12:30	0	0	5c086d3d3be61100011a694d	2	1	DL_test	14	DL_test	21			0		ga	1	1823	6	6	antiphase_hc_ois.wav	3	6	4	noise_calib_stim_RIGHT.wav	2	17	blb_dichoticlistening_ga-pa.mp3	ga	pa	1	left
6.6.1	win	2023-06-20	20:12:30	0	0	5c086d3d3be61100011a694d	2	1	DL_test	14	DL_test	22			0		pa	1	3299	6	6	antiphase_hc_ois.wav	3	6	4	noise_calib_stim_RIGHT.wav	2	27	blb_dichoticlistening_pa-ga.mp3	pa	ga	1	left
6.6.1	win	2023-06-20	20:12:30	0	0	5c086d3d3be61100011a694d	2	1	DL_test	14	DL_test	23			0		ta	1	1325	6	6	antiphase_hc_ois.wav	3	6	4	noise_calib_stim_RIGHT.wav	2	31	blb_dichoticlistening_ta-ba.mp3	ta	ba	1	left
6.6.1	win	2023-06-20	20:12:30	0	0	5c086d3d3be61100011a694d	2	1	DL_test	14	DL_test	24			0		ga	1	1424	6	6	antiphase_hc_ois.wav	3	6	4	noise_calib_stim_RIGHT.wav	2	13	blb_dichoticlistening_ga-ba.mp3	ga	ba	1	left
6.6.1	win	2023-06-20	20:12:30	0	0	5c086d3d3be61100011a694d	2	1	DL_test	14	DL_test	25			0		ba	1	1568	6	6	antiphase_hc_ois.wav	3	6	4	noise_calib_stim_RIGHT.wav	2	2	blb_dichoticlistening_ba-da.mp3	ba	da	1	left
6.6.1	win	2023-06-20	20:12:30	0	0	5c086d3d3be61100011a694d	2	1	DL_test	14	DL_test	26			0		ta	1	1675	6	6	antiphase_hc_ois.wav	3	6	4	noise_calib_stim_RIGHT.wav	2	30	blb_dichoticlistening_pa-ta.mp3	pa	ta	1	right
6.6.1	win	2023-06-20	20:12:30	0	0	5c086d3d3be61100011a694d	2	1	DL_test	14	DL_test	27			0		ka	1	1347	6	6	antiphase_hc_ois.wav	3	6	4	noise_calib_stim_RIGHT.wav	2	24	blb_dichoticlistening_ka-ta.mp3	ka	ta	1	left
6.6.1	win	2023-06-20	20:12:30	0	0	5c086d3d3be61100011a694d	2	1	DL_test	14	DL_test	28			0		ka	1	1168	6	6	antiphase_hc_ois.wav	3	6	4	noise_calib_stim_RIGHT.wav	2	23	blb_dichoticlistening_ka-pa.mp3	ka	pa	1	left
6.6.1	win	2023-06-20	20:12:30	0	0	5c086d3d3be61100011a694d	2	1	DL_test	14	DL_test	29			0		ka	0	1262	6	6	antiphase_hc_ois.wav	3	6	4	noise_calib_stim_RIGHT.wav	2	6	blb_dichoticlistening_ba-ta.mp3	ba	ta	1	other
6.6.1	win	2023-06-20	20:12:30	0	0	5c086d3d3be61100011a694d	2	1	DL_test	14	DL_test	30			0		pa	1	1648	6	6	antiphase_hc_ois.wav	3	6	4	noise_calib_stim_RIGHT.wav	2	26	blb_dichoticlistening_pa-da.mp3	pa	da	1	left
6.6.1	win	2023-06-20	20:12:30	0	0	5c086d3d3be61100011a694d	2	1	DL_test	14	DL_test	31			0		pa	0	1608	6	6	antiphase_hc_ois.wav	3	6	4	noise_calib_stim_RIGHT.wav	2	10	blb_dichoticlistening_da-ka.mp3	da	ka	1	other
6.6.1	win	2023-06-20	20:12:30	0	0	5c086d3d3be61100011a694d	2	1	DL_test	14	DL_test	32			0		pa	1	940	6	6	antiphase_hc_ois.wav	3	6	4	noise_calib_stim_RIGHT.wav	2	35	blb_dichoticlistening_ta-pa.mp3	ta	pa	1	right
6.6.1	win	2023-06-20	20:12:30	0	0	5c086d3d3be61100011a694d	2	1	DL_test	14	DL_test	33			0		ka	1	2184	6	6	antiphase_hc_ois.wav	3	6	4	noise_calib_stim_RIGHT.wav	2	20	blb_dichoticlistening_ka-da.mp3	ka	da	1	left
6.6.1	win	2023-06-20	20:12:30	0	0	5c086d3d3be61100011a694d	2	1	DL_test	14	DL_test	34			0		da	1	1287	6	6	antiphase_hc_ois.wav	3	6	4	noise_calib_stim_RIGHT.wav	2	12	blb_dichoticlistening_da-ta.mp3	da	ta	1	left
6.6.1	win	2023-06-20	20:12:30	0	0	5c086d3d3be61100011a694d	2	1	DL_test	14	DL_test	35			0		ga	1	1446	6	6	antiphase_hc_ois.wav	3	6	4	noise_calib_stim_RIGHT.wav	2	9	blb_dichoticlistening_da-ga.mp3	da	ga	1	right
6.6.1	win	2023-06-20	20:12:30	0	0	5c086d3d3be61100011a694d	2	1	DL_test	14	DL_test	36			0		ka	1	1455	6	6	antiphase_hc_ois.wav	3	6	4	noise_calib_stim_RIGHT.wav	2	19	blb_dichoticlistening_ka-ba.mp3	ka	ba	1	left
6.6.1	win	2023-06-20	20:12:30	0	0	5c086d3d3be61100011a694d	2	1	DL_test	15	DL_test	1			0		pa	1	1342	6	6	antiphase_hc_ois.wav	3	6	4	noise_calib_stim_RIGHT.wav	2	26	blb_dichoticlistening_pa-da.mp3	pa	da	1	left
6.6.1	win	2023-06-20	20:12:30	0	0	5c086d3d3be61100011a694d	2	1	DL_test	15	DL_test	2			0		ga	1	1256	6	6	antiphase_hc_ois.wav	3	6	4	noise_calib_stim_RIGHT.wav	2	27	blb_dichoticlistening_pa-ga.mp3	pa	ga	1	right
6.6.1	win	2023-06-20	20:12:30	0	0	5c086d3d3be61100011a694d	2	1	DL_test	15	DL_test	3			0		ka	1	1177	6	6	antiphase_hc_ois.wav	3	6	4	noise_calib_stim_RIGHT.wav	2	21	blb_dichoticlistening_ka-ga.mp3	ka	ga	1	left
6.6.1	win	2023-06-20	20:12:30	0	0	5c086d3d3be61100011a694d	2	1	DL_test	15	DL_test	4			0		ga	1	1439	6	6	antiphase_hc_ois.wav	3	6	4	noise_calib_stim_RIGHT.wav	2	16	blb_dichoticlistening_ga-ka.mp3	ga	ka	1	left
6.6.1	win	2023-06-20	20:12:30	0	0	5c086d3d3be61100011a694d	2	1	DL_test	15	DL_test	5			0		ta	1	1798	6	6	antiphase_hc_ois.wav	3	6	4	noise_calib_stim_RIGHT.wav	2	36	blb_dichoticlistening_ta-ta.mp3	ta	ta	0	left
6.6.1	win	2023-06-20	20:12:30	0	0	5c086d3d3be61100011a694d	2	1	DL_test	15	DL_test	6			0		ta	1	1467	6	6	antiphase_hc_ois.wav	3	6	4	noise_calib_stim_RIGHT.wav	2	32	blb_dichoticlistening_ta-da.mp3	ta	da	1	left
6.6.1	win	2023-06-20	20:12:30	0	0	5c086d3d3be61100011a694d	2	1	DL_test	15	DL_test	7			0		ka	1	1535	6	6	antiphase_hc_ois.wav	3	6	4	noise_calib_stim_RIGHT.wav	2	24	blb_dichoticlistening_ka-ta.mp3	ka	ta	1	left
6.6.1	win	2023-06-20	20:12:30	0	0	5c086d3d3be61100011a694d	2	1	DL_test	15	DL_test	8			0		ba	1	1935	6	6	antiphase_hc_ois.wav	3	6	4	noise_calib_stim_RIGHT.wav	2	3	blb_dichoticlistening_ba-ga.mp3	ba	ga	1	left
6.6.1	win	2023-06-20	20:12:30	0	0	5c086d3d3be61100011a694d	2	1	DL_test	15	DL_test	9			0		ga	1	1417	6	6	antiphase_hc_ois.wav	3	6	4	noise_calib_stim_RIGHT.wav	2	13	blb_dichoticlistening_ga-ba.mp3	ga	ba	1	left
6.6.1	win	2023-06-20	20:12:30	0	0	5c086d3d3be61100011a694d	2	1	DL_test	15	DL_test	10			0		da	1	1469	6	6	antiphase_hc_ois.wav	3	6	4	noise_calib_stim_RIGHT.wav	2	11	blb_dichoticlistening_da-pa.mp3	da	pa	1	left
6.6.1	win	2023-06-20	20:12:30	0	0	5c086d3d3be61100011a694d	2	1	DL_test	15	DL_test	11			0		ta	1	1653	6	6	antiphase_hc_ois.wav	3	6	4	noise_calib_stim_RIGHT.wav	2	31	blb_dichoticlistening_ta-ba.mp3	ta	ba	1	left
6.6.1	win	2023-06-20	20:12:30	0	0	5c086d3d3be61100011a694d	2	1	DL_test	15	DL_test	12			0		ka	1	1275	6	6	antiphase_hc_ois.wav	3	6	4	noise_calib_stim_RIGHT.wav	2	34	blb_dichoticlistening_ta-ka.mp3	ta	ka	1	right
6.6.1	win	2023-06-20	20:12:30	0	0	5c086d3d3be61100011a694d	2	1	DL_test	15	DL_test	13			0		ga	1	1296	6	6	antiphase_hc_ois.wav	3	6	4	noise_calib_stim_RIGHT.wav	2	18	blb_dichoticlistening_ga-ta.mp3	ga	ta	1	left
6.6.1	win	2023-06-20	20:12:30	0	0	5c086d3d3be61100011a694d	2	1	DL_test	15	DL_test	14			0		ba	1	1894	6	6	antiphase_hc_ois.wav	3	6	4	noise_calib_stim_RIGHT.wav	2	6	blb_dichoticlistening_ba-ta.mp3	ba	ta	1	left
6.6.1	win	2023-06-20	20:12:30	0	0	5c086d3d3be61100011a694d	2	1	DL_test	15	DL_test	15			0		da	1	1454	6	6	antiphase_hc_ois.wav	3	6	4	noise_calib_stim_RIGHT.wav	2	9	blb_dichoticlistening_da-ga.mp3	da	ga	1	left
6.6.1	win	2023-06-20	20:12:30	0	0	5c086d3d3be61100011a694d	2	1	DL_test	15	DL_test	16			0		pa	1	1317	6	6	antiphase_hc_ois.wav	3	6	4	noise_calib_stim_RIGHT.wav	2	29	blb_dichoticlistening_pa-pa.mp3	pa	pa	0	left
6.6.1	win	2023-06-20	20:12:30	0	0	5c086d3d3be61100011a694d	2	1	DL_test	15	DL_test	17			0		da	1	1262	6	6	antiphase_hc_ois.wav	3	6	4	noise_calib_stim_RIGHT.wav	2	7	blb_dichoticlistening_da-ba.mp3	da	ba	1	left
6.6.1	win	2023-06-20	20:12:30	0	0	5c086d3d3be61100011a694d	2	1	DL_test	15	DL_test	18			0		ta	1	1377	6	6	antiphase_hc_ois.wav	3	6	4	noise_calib_stim_RIGHT.wav	2	33	blb_dichoticlistening_ta-ga.mp3	ta	ga	1	left
6.6.1	win	2023-06-20	20:12:30	0	0	5c086d3d3be61100011a694d	2	1	DL_test	15	DL_test	19			0		da	1	1066	6	6	antiphase_hc_ois.wav	3	6	4	noise_calib_stim_RIGHT.wav	2	8	blb_dichoticlistening_da-da.mp3	da	da	0	left
6.6.1	win	2023-06-20	20:12:30	0	0	5c086d3d3be61100011a694d	2	1	DL_test	15	DL_test	20			0		ga	1	1169	6	6	antiphase_hc_ois.wav	3	6	4	noise_calib_stim_RIGHT.wav	2	17	blb_dichoticlistening_ga-pa.mp3	ga	pa	1	left
6.6.1	win	2023-06-20	20:12:30	0	0	5c086d3d3be61100011a694d	2	1	DL_test	15	DL_test	21			0		ga	1	1560	6	6	antiphase_hc_ois.wav	3	6	4	noise_calib_stim_RIGHT.wav	2	15	blb_dichoticlistening_ga-ga.mp3	ga	ga	0	left
6.6.1	win	2023-06-20	20:12:30	0	0	5c086d3d3be61100011a694d	2	1	DL_test	15	DL_test	22			0		ta	1	1311	6	6	antiphase_hc_ois.wav	3	6	4	noise_calib_stim_RIGHT.wav	2	35	blb_dichoticlistening_ta-pa.mp3	ta	pa	1	left
6.6.1	win	2023-06-20	20:12:30	0	0	5c086d3d3be61100011a694d	2	1	DL_test	15	DL_test	23			0		pa	1	1363	6	6	antiphase_hc_ois.wav	3	6	4	noise_calib_stim_RIGHT.wav	2	28	blb_dichoticlistening_pa-ka.mp3	pa	ka	1	left
6.6.1	win	2023-06-20	20:12:30	0	0	5c086d3d3be61100011a694d	2	1	DL_test	15	DL_test	24			0		ka	1	2347	6	6	antiphase_hc_ois.wav	3	6	4	noise_calib_stim_RIGHT.wav	2	4	blb_dichoticlistening_ba-ka.mp3	ba	ka	1	right
6.6.1	win	2023-06-20	20:12:30	0	0	5c086d3d3be61100011a694d	2	1	DL_test	15	DL_test	25			0		ka	1	1285	6	6	antiphase_hc_ois.wav	3	6	4	noise_calib_stim_RIGHT.wav	2	22	blb_dichoticlistening_ka-ka.mp3	ka	ka	0	left
6.6.1	win	2023-06-20	20:12:30	0	0	5c086d3d3be61100011a694d	2	1	DL_test	15	DL_test	26			0		ba	1	2155	6	6	antiphase_hc_ois.wav	3	6	4	noise_calib_stim_RIGHT.wav	2	1	blb_dichoticlistening_ba-ba.mp3	ba	ba	0	left
6.6.1	win	2023-06-20	20:12:30	0	0	5c086d3d3be61100011a694d	2	1	DL_test	15	DL_test	27			0		ka	1	1488	6	6	antiphase_hc_ois.wav	3	6	4	noise_calib_stim_RIGHT.wav	2	23	blb_dichoticlistening_ka-pa.mp3	ka	pa	1	left
6.6.1	win	2023-06-20	20:12:30	0	0	5c086d3d3be61100011a694d	2	1	DL_test	15	DL_test	28			0		ba	1	1653	6	6	antiphase_hc_ois.wav	3	6	4	noise_calib_stim_RIGHT.wav	2	2	blb_dichoticlistening_ba-da.mp3	ba	da	1	left
6.6.1	win	2023-06-20	20:12:30	0	0	5c086d3d3be61100011a694d	2	1	DL_test	15	DL_test	29			0		ka	1	1769	6	6	antiphase_hc_ois.wav	3	6	4	noise_calib_stim_RIGHT.wav	2	19	blb_dichoticlistening_ka-ba.mp3	ka	ba	1	left
6.6.1	win	2023-06-20	20:12:30	0	0	5c086d3d3be61100011a694d	2	1	DL_test	15	DL_test	30			0		da	1	1342	6	6	antiphase_hc_ois.wav	3	6	4	noise_calib_stim_RIGHT.wav	2	10	blb_dichoticlistening_da-ka.mp3	da	ka	1	left
6.6.1	win	2023-06-20	20:12:30	0	0	5c086d3d3be61100011a694d	2	1	DL_test	15	DL_test	31			0		pa	1	1502	6	6	antiphase_hc_ois.wav	3	6	4	noise_calib_stim_RIGHT.wav	2	25	blb_dichoticlistening_pa-ba.mp3	pa	ba	1	left
6.6.1	win	2023-06-20	20:12:30	0	0	5c086d3d3be61100011a694d	2	1	DL_test	15	DL_test	32			0		da	1	1471	6	6	antiphase_hc_ois.wav	3	6	4	noise_calib_stim_RIGHT.wav	2	14	blb_dichoticlistening_ga-da.mp3	ga	da	1	right
6.6.1	win	2023-06-20	20:12:30	0	0	5c086d3d3be61100011a694d	2	1	DL_test	15	DL_test	33			0		ka	1	1174	6	6	antiphase_hc_ois.wav	3	6	4	noise_calib_stim_RIGHT.wav	2	20	blb_dichoticlistening_ka-da.mp3	ka	da	1	left
6.6.1	win	2023-06-20	20:12:30	0	0	5c086d3d3be61100011a694d	2	1	DL_test	15	DL_test	34			0		pa	1	1877	6	6	antiphase_hc_ois.wav	3	6	4	noise_calib_stim_RIGHT.wav	2	5	blb_dichoticlistening_ba-pa.mp3	ba	pa	1	right
6.6.1	win	2023-06-20	20:12:30	0	0	5c086d3d3be61100011a694d	2	1	DL_test	15	DL_test	35			0		da	1	1802	6	6	antiphase_hc_ois.wav	3	6	4	noise_calib_stim_RIGHT.wav	2	12	blb_dichoticlistening_da-ta.mp3	da	ta	1	left
6.6.1	win	2023-06-20	20:12:30	0	0	5c086d3d3be61100011a694d	2	1	DL_test	15	DL_test	36			0		ta	1	1780	6	6	antiphase_hc_ois.wav	3	6	4	noise_calib_stim_RIGHT.wav	2	30	blb_dichoticlistening_pa-ta.mp3	pa	ta	1	right
6.6.1	win	2023-06-20	20:12:30	0	0	5c086d3d3be61100011a694d	2	1	DL_test	16	DL_test	1			0		ga	1	1465	6	6	antiphase_hc_ois.wav	3	6	4	noise_calib_stim_RIGHT.wav	2	18	blb_dichoticlistening_ga-ta.mp3	ga	ta	1	left
6.6.1	win	2023-06-20	20:12:30	0	0	5c086d3d3be61100011a694d	2	1	DL_test	16	DL_test	2			0		ta	1	1324	6	6	antiphase_hc_ois.wav	3	6	4	noise_calib_stim_RIGHT.wav	2	35	blb_dichoticlistening_ta-pa.mp3	ta	pa	1	left
6.6.1	win	2023-06-20	20:12:30	0	0	5c086d3d3be61100011a694d	2	1	DL_test	16	DL_test	3			0		ta	1	1255	6	6	antiphase_hc_ois.wav	3	6	4	noise_calib_stim_RIGHT.wav	2	36	blb_dichoticlistening_ta-ta.mp3	ta	ta	0	left
6.6.1	win	2023-06-20	20:12:30	0	0	5c086d3d3be61100011a694d	2	1	DL_test	16	DL_test	4			0		ka	1	1838	6	6	antiphase_hc_ois.wav	3	6	4	noise_calib_stim_RIGHT.wav	2	19	blb_dichoticlistening_ka-ba.mp3	ka	ba	1	left
6.6.1	win	2023-06-20	20:12:30	0	0	5c086d3d3be61100011a694d	2	1	DL_test	16	DL_test	5			0		ba	1	1521	6	6	antiphase_hc_ois.wav	3	6	4	noise_calib_stim_RIGHT.wav	2	1	blb_dichoticlistening_ba-ba.mp3	ba	ba	0	left
6.6.1	win	2023-06-20	20:12:30	0	0	5c086d3d3be61100011a694d	2	1	DL_test	16	DL_test	6			0		ka	0	1758	6	6	antiphase_hc_ois.wav	3	6	4	noise_calib_stim_RIGHT.wav	2	33	blb_dichoticlistening_ta-ga.mp3	ta	ga	1	other
6.6.1	win	2023-06-20	20:12:30	0	0	5c086d3d3be61100011a694d	2	1	DL_test	16	DL_test	7			0		ka	1	1204	6	6	antiphase_hc_ois.wav	3	6	4	noise_calib_stim_RIGHT.wav	2	23	blb_dichoticlistening_ka-pa.mp3	ka	pa	1	left
6.6.1	win	2023-06-20	20:12:30	0	0	5c086d3d3be61100011a694d	2	1	DL_test	16	DL_test	8			0		ga	1	1370	6	6	antiphase_hc_ois.wav	3	6	4	noise_calib_stim_RIGHT.wav	2	13	blb_dichoticlistening_ga-ba.mp3	ga	ba	1	left
6.6.1	win	2023-06-20	20:12:30	0	0	5c086d3d3be61100011a694d	2	1	DL_test	16	DL_test	9			0		ba	1	1944	6	6	antiphase_hc_ois.wav	3	6	4	noise_calib_stim_RIGHT.wav	2	5	blb_dichoticlistening_ba-pa.mp3	ba	pa	1	left
6.6.1	win	2023-06-20	20:12:30	0	0	5c086d3d3be61100011a694d	2	1	DL_test	16	DL_test	10			0		da	1	1264	6	6	antiphase_hc_ois.wav	3	6	4	noise_calib_stim_RIGHT.wav	2	10	blb_dichoticlistening_da-ka.mp3	da	ka	1	left
6.6.1	win	2023-06-20	20:12:30	0	0	5c086d3d3be61100011a694d	2	1	DL_test	16	DL_test	11			0		ka	1	1324	6	6	antiphase_hc_ois.wav	3	6	4	noise_calib_stim_RIGHT.wav	2	21	blb_dichoticlistening_ka-ga.mp3	ka	ga	1	left
6.6.1	win	2023-06-20	20:12:30	0	0	5c086d3d3be61100011a694d	2	1	DL_test	16	DL_test	12			0		ta	1	1526	6	6	antiphase_hc_ois.wav	3	6	4	noise_calib_stim_RIGHT.wav	2	31	blb_dichoticlistening_ta-ba.mp3	ta	ba	1	left
6.6.1	win	2023-06-20	20:12:30	0	0	5c086d3d3be61100011a694d	2	1	DL_test	16	DL_test	13			0		da	1	1232	6	6	antiphase_hc_ois.wav	3	6	4	noise_calib_stim_RIGHT.wav	2	11	blb_dichoticlistening_da-pa.mp3	da	pa	1	left
6.6.1	win	2023-06-20	20:12:30	0	0	5c086d3d3be61100011a694d	2	1	DL_test	16	DL_test	14			0		pa	1	1675	6	6	antiphase_hc_ois.wav	3	6	4	noise_calib_stim_RIGHT.wav	2	25	blb_dichoticlistening_pa-ba.mp3	pa	ba	1	left
6.6.1	win	2023-06-20	20:12:30	0	0	5c086d3d3be61100011a694d	2	1	DL_test	16	DL_test	15			0		da	1	1981	6	6	antiphase_hc_ois.wav	3	6	4	noise_calib_stim_RIGHT.wav	2	8	blb_dichoticlistening_da-da.mp3	da	da	0	left
6.6.1	win	2023-06-20	20:12:30	0	0	5c086d3d3be61100011a694d	2	1	DL_test	16	DL_test	16			0		ka	1	1465	6	6	antiphase_hc_ois.wav	3	6	4	noise_calib_stim_RIGHT.wav	2	34	blb_dichoticlistening_ta-ka.mp3	ta	ka	1	right
6.6.1	win	2023-06-20	20:12:30	0	0	5c086d3d3be61100011a694d	2	1	DL_test	16	DL_test	17			0		ba	1	1311	6	6	antiphase_hc_ois.wav	3	6	4	noise_calib_stim_RIGHT.wav	2	3	blb_dichoticlistening_ba-ga.mp3	ba	ga	1	left
6.6.1	win	2023-06-20	20:12:30	0	0	5c086d3d3be61100011a694d	2	1	DL_test	16	DL_test	18			0		ka	1	1338	6	6	antiphase_hc_ois.wav	3	6	4	noise_calib_stim_RIGHT.wav	2	24	blb_dichoticlistening_ka-ta.mp3	ka	ta	1	left
6.6.1	win	2023-06-20	20:12:30	0	0	5c086d3d3be61100011a694d	2	1	DL_test	16	DL_test	19			0		ka	1	1407	6	6	antiphase_hc_ois.wav	3	6	4	noise_calib_stim_RIGHT.wav	2	4	blb_dichoticlistening_ba-ka.mp3	ba	ka	1	right
6.6.1	win	2023-06-20	20:12:30	0	0	5c086d3d3be61100011a694d	2	1	DL_test	16	DL_test	20			0		ga	1	1268	6	6	antiphase_hc_ois.wav	3	6	4	noise_calib_stim_RIGHT.wav	2	17	blb_dichoticlistening_ga-pa.mp3	ga	pa	1	left
6.6.1	win	2023-06-20	20:12:30	0	0	5c086d3d3be61100011a694d	2	1	DL_test	16	DL_test	21			0		ga	1	1405	6	6	antiphase_hc_ois.wav	3	6	4	noise_calib_stim_RIGHT.wav	2	16	blb_dichoticlistening_ga-ka.mp3	ga	ka	1	left
6.6.1	win	2023-06-20	20:12:30	0	0	5c086d3d3be61100011a694d	2	1	DL_test	16	DL_test	22			0		da	1	1280	6	6	antiphase_hc_ois.wav	3	6	4	noise_calib_stim_RIGHT.wav	2	7	blb_dichoticlistening_da-ba.mp3	da	ba	1	left
6.6.1	win	2023-06-20	20:12:30	0	0	5c086d3d3be61100011a694d	2	1	DL_test	16	DL_test	23			0		ga	1	1529	6	6	antiphase_hc_ois.wav	3	6	4	noise_calib_stim_RIGHT.wav	2	14	blb_dichoticlistening_ga-da.mp3	ga	da	1	left
6.6.1	win	2023-06-20	20:12:30	0	0	5c086d3d3be61100011a694d	2	1	DL_test	16	DL_test	24			0		ta	1	1209	6	6	antiphase_hc_ois.wav	3	6	4	noise_calib_stim_RIGHT.wav	2	32	blb_dichoticlistening_ta-da.mp3	ta	da	1	left
6.6.1	win	2023-06-20	20:12:30	0	0	5c086d3d3be61100011a694d	2	1	DL_test	16	DL_test	25			0		ga	1	1451	6	6	antiphase_hc_ois.wav	3	6	4	noise_calib_stim_RIGHT.wav	2	15	blb_dichoticlistening_ga-ga.mp3	ga	ga	0	left
6.6.1	win	2023-06-20	20:12:30	0	0	5c086d3d3be61100011a694d	2	1	DL_test	16	DL_test	26			0		da	1	2089	6	6	antiphase_hc_ois.wav	3	6	4	noise_calib_stim_RIGHT.wav	2	12	blb_dichoticlistening_da-ta.mp3	da	ta	1	left
6.6.1	win	2023-06-20	20:12:30	0	0	5c086d3d3be61100011a694d	2	1	DL_test	16	DL_test	27			0		ka	1	1190	6	6	antiphase_hc_ois.wav	3	6	4	noise_calib_stim_RIGHT.wav	2	22	blb_dichoticlistening_ka-ka.mp3	ka	ka	0	left
6.6.1	win	2023-06-20	20:12:30	0	0	5c086d3d3be61100011a694d	2	1	DL_test	16	DL_test	28			0		pa	1	1410	6	6	antiphase_hc_ois.wav	3	6	4	noise_calib_stim_RIGHT.wav	2	27	blb_dichoticlistening_pa-ga.mp3	pa	ga	1	left
6.6.1	win	2023-06-20	20:12:30	0	0	5c086d3d3be61100011a694d	2	1	DL_test	16	DL_test	29			0		ka	1	1788	6	6	antiphase_hc_ois.wav	3	6	4	noise_calib_stim_RIGHT.wav	2	28	blb_dichoticlistening_pa-ka.mp3	pa	ka	1	right
6.6.1	win	2023-06-20	20:12:30	0	0	5c086d3d3be61100011a694d	2	1	DL_test	16	DL_test	30			0		ka	1	1292	6	6	antiphase_hc_ois.wav	3	6	4	noise_calib_stim_RIGHT.wav	2	20	blb_dichoticlistening_ka-da.mp3	ka	da	1	left
6.6.1	win	2023-06-20	20:12:30	0	0	5c086d3d3be61100011a694d	2	1	DL_test	16	DL_test	31			0		da	1	1504	6	6	antiphase_hc_ois.wav	3	6	4	noise_calib_stim_RIGHT.wav	2	9	blb_dichoticlistening_da-ga.mp3	da	ga	1	left
6.6.1	win	2023-06-20	20:12:30	0	0	5c086d3d3be61100011a694d	2	1	DL_test	16	DL_test	32			0		ta	1	1937	6	6	antiphase_hc_ois.wav	3	6	4	noise_calib_stim_RIGHT.wav	2	6	blb_dichoticlistening_ba-ta.mp3	ba	ta	1	right
6.6.1	win	2023-06-20	20:12:30	0	0	5c086d3d3be61100011a694d	2	1	DL_test	16	DL_test	33			0		pa	1	1279	6	6	antiphase_hc_ois.wav	3	6	4	noise_calib_stim_RIGHT.wav	2	29	blb_dichoticlistening_pa-pa.mp3	pa	pa	0	left
6.6.1	win	2023-06-20	20:12:30	0	0	5c086d3d3be61100011a694d	2	1	DL_test	16	DL_test	34			0		pa	1	1738	6	6	antiphase_hc_ois.wav	3	6	4	noise_calib_stim_RIGHT.wav	2	26	blb_dichoticlistening_pa-da.mp3	pa	da	1	left
6.6.1	win	2023-06-20	20:12:30	0	0	5c086d3d3be61100011a694d	2	1	DL_test	16	DL_test	35			0		pa	1	1162	6	6	antiphase_hc_ois.wav	3	6	4	noise_calib_stim_RIGHT.wav	2	30	blb_dichoticlistening_pa-ta.mp3	pa	ta	1	left
6.6.1	win	2023-06-20	20:12:30	0	0	5c086d3d3be61100011a694d	2	1	DL_test	16	DL_test	36			0		ba	1	1597	6	6	antiphase_hc_ois.wav	3	6	4	noise_calib_stim_RIGHT.wav	2	2	blb_dichoticlistening_ba-da.mp3	ba	da	1	left
6.6.1	win	2023-06-20	20:12:30	20:25:06	751594	5c086d3d3be61100011a694d	2	1	practice_z	22	practice_z	1	stimuli_distractor_trianglediamonds.svg	stimuli_target_squarediamonds.svg	11	yes	44	1	644	6	6	antiphase_hc_ois.wav	3	6	4	noise_calib_stim_RIGHT.wav	2	2	blb_dichoticlistening_ba-da.mp3	ba	da	1	left
6.6.1	win	2023-06-20	20:12:30	20:25:06	751594	5c086d3d3be61100011a694d	2	1	practice_z	22	advance_on_keypress_ZEE	2	stimuli_distractor_trianglediamonds.svg	stimuli_target_squarediamonds.svg	11	yes	57	0	2219	6	6	antiphase_hc_ois.wav	3	6	4	noise_calib_stim_RIGHT.wav	2	2	blb_dichoticlistening_ba-da.mp3	ba	da	1	left
6.6.1	win	2023-06-20	20:12:30	20:25:11	755947	5c086d3d3be61100011a694d	2	1	practice_z	22	practice_z	3	stimuli_target_rectanglediamonds.svg	stimuli_distractor_diamondtriangles.svg	1	yes	44	1	480	6	6	antiphase_hc_ois.wav	3	6	4	noise_calib_stim_RIGHT.wav	2	2	blb_dichoticlistening_ba-da.mp3	ba	da	1	left
6.6.1	win	2023-06-20	20:12:30	20:25:11	755947	5c086d3d3be61100011a694d	2	1	practice_z	22	advance_on_keypress_ZEE	4	stimuli_target_rectanglediamonds.svg	stimuli_distractor_diamondtriangles.svg	1	yes	57	0	725	6	6	antiphase_hc_ois.wav	3	6	4	noise_calib_stim_RIGHT.wav	2	2	blb_dichoticlistening_ba-da.mp3	ba	da	1	left
6.6.1	win	2023-06-20	20:12:30	20:25:14	758958	5c086d3d3be61100011a694d	2	1	practice_z	22	practice_z	5	stimuli_target_squarediamonds.svg	stimuli_distractor_diamondtriangles.svg	2	yes	44	1	640	6	6	antiphase_hc_ois.wav	3	6	4	noise_calib_stim_RIGHT.wav	2	2	blb_dichoticlistening_ba-da.mp3	ba	da	1	left
6.6.1	win	2023-06-20	20:12:30	20:25:14	758958	5c086d3d3be61100011a694d	2	1	practice_z	22	advance_on_keypress_ZEE	6	stimuli_target_squarediamonds.svg	stimuli_distractor_diamondtriangles.svg	2	yes	57	0	587	6	6	antiphase_hc_ois.wav	3	6	4	noise_calib_stim_RIGHT.wav	2	2	blb_dichoticlistening_ba-da.mp3	ba	da	1	left
6.6.1	win	2023-06-20	20:12:30	20:25:18	763183	5c086d3d3be61100011a694d	2	1	practice_z	22	practice_z	7	stimuli_distractor_diamondtriangles.svg	stimuli_distractor_trianglediamonds.svg	14	no	0	1	2000	6	6	antiphase_hc_ois.wav	3	6	4	noise_calib_stim_RIGHT.wav	2	2	blb_dichoticlistening_ba-da.mp3	ba	da	1	left
6.6.1	win	2023-06-20	20:12:30	20:25:18	763183	5c086d3d3be61100011a694d	2	1	practice_z	22	advance_on_keypress_ZEE	8	stimuli_distractor_diamondtriangles.svg	stimuli_distractor_trianglediamonds.svg	14	no	57	0	667	6	6	antiphase_hc_ois.wav	3	6	4	noise_calib_stim_RIGHT.wav	2	2	blb_dichoticlistening_ba-da.mp3	ba	da	1	left
6.6.1	win	2023-06-20	20:12:30	20:25:22	767500	5c086d3d3be61100011a694d	2	1	practice_z	22	practice_z	9	stimuli_distractor_diamondtriangles.svg	stimuli_target_trianglerectangles.svg	9	yes	0	0	2000	6	6	antiphase_hc_ois.wav	3	6	4	noise_calib_stim_RIGHT.wav	2	2	blb_dichoticlistening_ba-da.mp3	ba	da	1	left
6.6.1	win	2023-06-20	20:12:30	20:25:22	767500	5c086d3d3be61100011a694d	2	1	practice_z	22	advance_on_keypress_ZEE	10	stimuli_distractor_diamondtriangles.svg	stimuli_target_trianglerectangles.svg	9	yes	57	0	586	6	6	antiphase_hc_ois.wav	3	6	4	noise_calib_stim_RIGHT.wav	2	2	blb_dichoticlistening_ba-da.mp3	ba	da	1	left
6.6.1	win	2023-06-20	20:12:30	20:25:26	771733	5c086d3d3be61100011a694d	2	1	practice_z	22	practice_z	11	stimuli_distractor_diamondtriangles.svg	stimuli_distractor_diamondtriangles.svg	13	no	0	1	2000	6	6	antiphase_hc_ois.wav	3	6	4	noise_calib_stim_RIGHT.wav	2	2	blb_dichoticlistening_ba-da.mp3	ba	da	1	left
6.6.1	win	2023-06-20	20:12:30	20:25:26	771733	5c086d3d3be61100011a694d	2	1	practice_z	22	advance_on_keypress_ZEE	12	stimuli_distractor_diamondtriangles.svg	stimuli_distractor_diamondtriangles.svg	13	no	57	0	828	6	6	antiphase_hc_ois.wav	3	6	4	noise_calib_stim_RIGHT.wav	2	2	blb_dichoticlistening_ba-da.mp3	ba	da	1	left
6.6.1	win	2023-06-20	20:12:30	20:25:30	775461	5c086d3d3be61100011a694d	2	1	practice_z	22	practice_z	13	stimuli_distractor_diamondtriangles.svg	stimuli_target_diamondrectangles.svg	8	yes	44	1	1245	6	6	antiphase_hc_ois.wav	3	6	4	noise_calib_stim_RIGHT.wav	2	2	blb_dichoticlistening_ba-da.mp3	ba	da	1	left
6.6.1	win	2023-06-20	20:12:30	20:25:30	775461	5c086d3d3be61100011a694d	2	1	practice_z	22	advance_on_keypress_ZEE	14	stimuli_distractor_diamondtriangles.svg	stimuli_target_diamondrectangles.svg	8	yes	57	0	621	6	6	antiphase_hc_ois.wav	3	6	4	noise_calib_stim_RIGHT.wav	2	2	blb_dichoticlistening_ba-da.mp3	ba	da	1	left
6.6.1	win	2023-06-20	20:12:30	20:25:34	779749	5c086d3d3be61100011a694d	2	1	practice_z	22	practice_z	15	stimuli_distractor_trianglediamonds.svg	stimuli_distractor_diamondtriangles.svg	16	no	0	1	2000	6	6	antiphase_hc_ois.wav	3	6	4	noise_calib_stim_RIGHT.wav	2	2	blb_dichoticlistening_ba-da.mp3	ba	da	1	left
6.6.1	win	2023-06-20	20:12:30	20:25:34	779749	5c086d3d3be61100011a694d	2	1	practice_z	22	advance_on_keypress_ZEE	16	stimuli_distractor_trianglediamonds.svg	stimuli_distractor_diamondtriangles.svg	16	no	57	0	417	6	6	antiphase_hc_ois.wav	3	6	4	noise_calib_stim_RIGHT.wav	2	2	blb_dichoticlistening_ba-da.mp3	ba	da	1	left
6.6.1	win	2023-06-20	20:12:30	20:25:37	782541	5c086d3d3be61100011a694d	2	1	practice_z	22	practice_z	17	stimuli_target_squarediamonds.svg	stimuli_distractor_trianglediamonds.svg	5	yes	44	1	726	6	6	antiphase_hc_ois.wav	3	6	4	noise_calib_stim_RIGHT.wav	2	2	blb_dichoticlistening_ba-da.mp3	ba	da	1	left
6.6.1	win	2023-06-20	20:12:30	20:25:37	782541	5c086d3d3be61100011a694d	2	1	practice_z	22	advance_on_keypress_ZEE	18	stimuli_target_squarediamonds.svg	stimuli_distractor_trianglediamonds.svg	5	yes	57	0	1321	6	6	antiphase_hc_ois.wav	3	6	4	noise_calib_stim_RIGHT.wav	2	2	blb_dichoticlistening_ba-da.mp3	ba	da	1	left
6.6.1	win	2023-06-20	20:12:30	20:25:41	786434	5c086d3d3be61100011a694d	2	1	practice_z	22	practice_z	19	stimuli_distractor_trianglediamonds.svg	stimuli_target_diamondrectangles.svg	12	yes	44	1	937	6	6	antiphase_hc_ois.wav	3	6	4	noise_calib_stim_RIGHT.wav	2	2	blb_dichoticlistening_ba-da.mp3	ba	da	1	left
6.6.1	win	2023-06-20	20:12:30	20:25:41	786434	5c086d3d3be61100011a694d	2	1	practice_z	22	advance_on_keypress_ZEE	20	stimuli_distractor_trianglediamonds.svg	stimuli_target_diamondrectangles.svg	12	yes	57	0	564	6	6	antiphase_hc_ois.wav	3	6	4	noise_calib_stim_RIGHT.wav	2	2	blb_dichoticlistening_ba-da.mp3	ba	da	1	left
6.6.1	win	2023-06-20	20:12:30	20:25:44	789482	5c086d3d3be61100011a694d	2	1	practice_z	22	practice_z	21	stimuli_distractor_diamondtriangles.svg	stimuli_target_rectangletriangles.svg	7	yes	44	1	835	6	6	antiphase_hc_ois.wav	3	6	4	noise_calib_stim_RIGHT.wav	2	2	blb_dichoticlistening_ba-da.mp3	ba	da	1	left
6.6.1	win	2023-06-20	20:12:30	20:25:44	789482	5c086d3d3be61100011a694d	2	1	practice_z	22	advance_on_keypress_ZEE	22	stimuli_distractor_diamondtriangles.svg	stimuli_target_rectangletriangles.svg	7	yes	57	0	654	6	6	antiphase_hc_ois.wav	3	6	4	noise_calib_stim_RIGHT.wav	2	2	blb_dichoticlistening_ba-da.mp3	ba	da	1	left
6.6.1	win	2023-06-20	20:12:30	20:25:48	793781	5c086d3d3be61100011a694d	2	1	practice_z	22	practice_z	23	stimuli_distractor_trianglediamonds.svg	stimuli_distractor_trianglediamonds.svg	15	no	0	1	2000	6	6	antiphase_hc_ois.wav	3	6	4	noise_calib_stim_RIGHT.wav	2	2	blb_dichoticlistening_ba-da.mp3	ba	da	1	left
6.6.1	win	2023-06-20	20:12:30	20:25:48	793781	5c086d3d3be61100011a694d	2	1	practice_z	22	advance_on_keypress_ZEE	24	stimuli_distractor_trianglediamonds.svg	stimuli_distractor_trianglediamonds.svg	15	no	57	0	439	6	6	antiphase_hc_ois.wav	3	6	4	noise_calib_stim_RIGHT.wav	2	2	blb_dichoticlistening_ba-da.mp3	ba	da	1	left
6.6.1	win	2023-06-20	20:12:30	20:25:53	797865	5c086d3d3be61100011a694d	2	1	practice_z	22	practice_z	25	stimuli_target_diamondsquares.svg	stimuli_distractor_trianglediamonds.svg	6	yes	0	0	2000	6	6	antiphase_hc_ois.wav	3	6	4	noise_calib_stim_RIGHT.wav	2	2	blb_dichoticlistening_ba-da.mp3	ba	da	1	left
6.6.1	win	2023-06-20	20:12:30	20:25:53	797865	5c086d3d3be61100011a694d	2	1	practice_z	22	advance_on_keypress_ZEE	26	stimuli_target_diamondsquares.svg	stimuli_distractor_trianglediamonds.svg	6	yes	57	0	480	6	6	antiphase_hc_ois.wav	3	6	4	noise_calib_stim_RIGHT.wav	2	2	blb_dichoticlistening_ba-da.mp3	ba	da	1	left
6.6.1	win	2023-06-20	20:12:30	20:25:55	800718	5c086d3d3be61100011a694d	2	1	practice_z	22	practice_z	27	stimuli_target_rectanglediamonds.svg	stimuli_distractor_trianglediamonds.svg	4	yes	44	1	722	6	6	antiphase_hc_ois.wav	3	6	4	noise_calib_stim_RIGHT.wav	2	2	blb_dichoticlistening_ba-da.mp3	ba	da	1	left
6.6.1	win	2023-06-20	20:12:30	20:25:55	800718	5c086d3d3be61100011a694d	2	1	practice_z	22	advance_on_keypress_ZEE	28	stimuli_target_rectanglediamonds.svg	stimuli_distractor_trianglediamonds.svg	4	yes	57	0	911	6	6	antiphase_hc_ois.wav	3	6	4	noise_calib_stim_RIGHT.wav	2	2	blb_dichoticlistening_ba-da.mp3	ba	da	1	left
6.6.1	win	2023-06-20	20:12:30	20:25:59	803940	5c086d3d3be61100011a694d	2	1	practice_z	22	practice_z	29	stimuli_distractor_trianglediamonds.svg	stimuli_target_rectanglediamonds.svg	10	yes	44	1	675	6	6	antiphase_hc_ois.wav	3	6	4	noise_calib_stim_RIGHT.wav	2	2	blb_dichoticlistening_ba-da.mp3	ba	da	1	left
6.6.1	win	2023-06-20	20:12:30	20:25:59	803940	5c086d3d3be61100011a694d	2	1	practice_z	22	advance_on_keypress_ZEE	30	stimuli_distractor_trianglediamonds.svg	stimuli_target_rectanglediamonds.svg	10	yes	57	0	610	6	6	antiphase_hc_ois.wav	3	6	4	noise_calib_stim_RIGHT.wav	2	2	blb_dichoticlistening_ba-da.mp3	ba	da	1	left
6.6.1	win	2023-06-20	20:12:30	20:26:02	806829	5c086d3d3be61100011a694d	2	1	practice_z	22	practice_z	31	stimuli_target_diamondsquares.svg	stimuli_distractor_diamondtriangles.svg	3	yes	44	1	650	6	6	antiphase_hc_ois.wav	3	6	4	noise_calib_stim_RIGHT.wav	2	2	blb_dichoticlistening_ba-da.mp3	ba	da	1	left
6.6.1	win	2023-06-20	20:12:30	20:26:02	806829	5c086d3d3be61100011a694d	2	1	practice_z	22	advance_on_keypress_ZEE	32	stimuli_target_diamondsquares.svg	stimuli_distractor_diamondtriangles.svg	3	yes	57	0	660	6	6	antiphase_hc_ois.wav	3	6	4	noise_calib_stim_RIGHT.wav	2	2	blb_dichoticlistening_ba-da.mp3	ba	da	1	left
6.6.1	win	2023-06-20	20:12:30	20:26:10	815699	5c086d3d3be61100011a694d	2	1	main_z	24	main_z	1	stimuli_distractor_diamondtriangles.svg	stimuli_distractor_trianglediamonds.svg	37	no	44	0	1421	6	6	antiphase_hc_ois.wav	3	6	4	noise_calib_stim_RIGHT.wav	2	2	blb_dichoticlistening_ba-da.mp3	ba	da	1	left
6.6.1	win	2023-06-20	20:12:30	20:26:10	815699	5c086d3d3be61100011a694d	2	1	main_z	24	advance_on_keypress_ZEE	2	stimuli_distractor_diamondtriangles.svg	stimuli_distractor_trianglediamonds.svg	37	no	57	0	1534	6	6	antiphase_hc_ois.wav	3	6	4	noise_calib_stim_RIGHT.wav	2	2	blb_dichoticlistening_ba-da.mp3	ba	da	1	left
6.6.1	win	2023-06-20	20:12:30	20:26:13	818463	5c086d3d3be61100011a694d	2	1	main_z	24	main_z	3	stimuli_target_diamondrectangles.svg	stimuli_distractor_diamondtriangles.svg	23	yes	44	1	586	6	6	antiphase_hc_ois.wav	3	6	4	noise_calib_stim_RIGHT.wav	2	2	blb_dichoticlistening_ba-da.mp3	ba	da	1	left
6.6.1	win	2023-06-20	20:12:30	20:26:13	818463	5c086d3d3be61100011a694d	2	1	main_z	24	advance_on_keypress_ZEE	4	stimuli_target_diamondrectangles.svg	stimuli_distractor_diamondtriangles.svg	23	yes	57	0	1156	6	6	antiphase_hc_ois.wav	3	6	4	noise_calib_stim_RIGHT.wav	2	2	blb_dichoticlistening_ba-da.mp3	ba	da	1	left
6.6.1	win	2023-06-20	20:12:30	20:26:16	820909	5c086d3d3be61100011a694d	2	1	main_z	24	main_z	5	stimuli_target_diamondsquares.svg	stimuli_distractor_diamondtriangles.svg	24	yes	44	1	648	6	6	antiphase_hc_ois.wav	3	6	4	noise_calib_stim_RIGHT.wav	2	2	blb_dichoticlistening_ba-da.mp3	ba	da	1	left
6.6.1	win	2023-06-20	20:12:30	20:26:16	820909	5c086d3d3be61100011a694d	2	1	main_z	24	advance_on_keypress_ZEE	6	stimuli_target_diamondsquares.svg	stimuli_distractor_diamondtriangles.svg	24	yes	57	0	1050	6	6	antiphase_hc_ois.wav	3	6	4	noise_calib_stim_RIGHT.wav	2	2	blb_dichoticlistening_ba-da.mp3	ba	da	1	left
6.6.1	win	2023-06-20	20:12:30	20:26:19	823819	5c086d3d3be61100011a694d	2	1	main_z	24	main_z	7	stimuli_distractor_trianglediamonds.svg	stimuli_target_squaretriangles.svg	11	yes	44	1	1209	6	6	antiphase_hc_ois.wav	3	6	4	noise_calib_stim_RIGHT.wav	2	2	blb_dichoticlistening_ba-da.mp3	ba	da	1	left
6.6.1	win	2023-06-20	20:12:30	20:26:19	823819	5c086d3d3be61100011a694d	2	1	main_z	24	advance_on_keypress_ZEE	8	stimuli_distractor_trianglediamonds.svg	stimuli_target_squaretriangles.svg	11	yes	57	0	1477	6	6	antiphase_hc_ois.wav	3	6	4	noise_calib_stim_RIGHT.wav	2	2	blb_dichoticlistening_ba-da.mp3	ba	da	1	left
6.6.1	win	2023-06-20	20:12:30	20:26:21	826495	5c086d3d3be61100011a694d	2	1	main_z	24	main_z	9	stimuli_target_squaretriangles.svg	stimuli_distractor_trianglediamonds.svg	3	yes	44	1	568	6	6	antiphase_hc_ois.wav	3	6	4	noise_calib_stim_RIGHT.wav	2	2	blb_dichoticlistening_ba-da.mp3	ba	da	1	left
6.6.1	win	2023-06-20	20:12:30	20:26:21	826495	5c086d3d3be61100011a694d	2	1	main_z	24	advance_on_keypress_ZEE	10	stimuli_target_squaretriangles.svg	stimuli_distractor_trianglediamonds.svg	3	yes	57	0	690	6	6	antiphase_hc_ois.wav	3	6	4	noise_calib_stim_RIGHT.wav	2	2	blb_dichoticlistening_ba-da.mp3	ba	da	1	left
6.6.1	win	2023-06-20	20:12:30	20:26:25	829827	5c086d3d3be61100011a694d	2	1	main_z	24	main_z	11	stimuli_distractor_trianglediamonds.svg	stimuli_target_diamondsquares.svg	28	yes	0	0	2000	6	6	antiphase_hc_ois.wav	3	6	4	noise_calib_stim_RIGHT.wav	2	2	blb_dichoticlistening_ba-da.mp3	ba	da	1	left
6.6.1	win	2023-06-20	20:12:30	20:26:25	829827	5c086d3d3be61100011a694d	2	1	main_z	24	advance_on_keypress_ZEE	12	stimuli_distractor_trianglediamonds.svg	stimuli_target_diamondsquares.svg	28	yes	57	0	823	6	6	antiphase_hc_ois.wav	3	6	4	noise_calib_stim_RIGHT.wav	2	2	blb_dichoticlistening_ba-da.mp3	ba	da	1	left
6.6.1	win	2023-06-20	20:12:30	20:26:27	831943	5c086d3d3be61100011a694d	2	1	main_z	24	main_z	13	stimuli_target_trianglesquares.svg	stimuli_distractor_diamondtriangles.svg	22	yes	44	1	650	6	6	antiphase_hc_ois.wav	3	6	4	noise_calib_stim_RIGHT.wav	2	2	blb_dichoticlistening_ba-da.mp3	ba	da	1	left
6.6.1	win	2023-06-20	20:12:30	20:26:27	831943	5c086d3d3be61100011a694d	2	1	main_z	24	advance_on_keypress_ZEE	14	stimuli_target_trianglesquares.svg	stimuli_distractor_diamondtriangles.svg	22	yes	57	0	896	6	6	antiphase_hc_ois.wav	3	6	4	noise_calib_stim_RIGHT.wav	2	2	blb_dichoticlistening_ba-da.mp3	ba	da	1	left
6.6.1	win	2023-06-20	20:12:30	20:26:29	834494	5c086d3d3be61100011a694d	2	1	main_z	24	main_z	15	stimuli_distractor_diamondtriangles.svg	stimuli_target_rectanglediamonds.svg	14	yes	44	1	1001	6	6	antiphase_hc_ois.wav	3	6	4	noise_calib_stim_RIGHT.wav	2	2	blb_dichoticlistening_ba-da.mp3	ba	da	1	left
6.6.1	win	2023-06-20	20:12:30	20:26:29	834494	5c086d3d3be61100011a694d	2	1	main_z	24	advance_on_keypress_ZEE	16	stimuli_distractor_diamondtriangles.svg	stimuli_target_rectanglediamonds.svg	14	yes	57	0	732	6	6	antiphase_hc_ois.wav	3	6	4	noise_calib_stim_RIGHT.wav	2	2	blb_dichoticlistening_ba-da.mp3	ba	da	1	left
6.6.1	win	2023-06-20	20:12:30	20:26:32	836877	5c086d3d3be61100011a694d	2	1	main_z	24	main_z	17	stimuli_distractor_trianglediamonds.svg	stimuli_target_trianglesquares.svg	26	yes	44	1	1001	6	6	antiphase_hc_ois.wav	3	6	4	noise_calib_stim_RIGHT.wav	2	2	blb_dichoticlistening_ba-da.mp3	ba	da	1	left
6.6.1	win	2023-06-20	20:12:30	20:26:32	836877	5c086d3d3be61100011a694d	2	1	main_z	24	advance_on_keypress_ZEE	18	stimuli_distractor_trianglediamonds.svg	stimuli_target_trianglesquares.svg	26	yes	57	0	572	6	6	antiphase_hc_ois.wav	3	6	4	noise_calib_stim_RIGHT.wav	2	2	blb_dichoticlistening_ba-da.mp3	ba	da	1	left
6.6.1	win	2023-06-20	20:12:30	20:26:34	839024	5c086d3d3be61100011a694d	2	1	main_z	24	main_z	19	stimuli_target_squarediamonds.svg	stimuli_distractor_trianglediamonds.svg	4	yes	44	1	931	6	6	antiphase_hc_ois.wav	3	6	4	noise_calib_stim_RIGHT.wav	2	2	blb_dichoticlistening_ba-da.mp3	ba	da	1	left
6.6.1	win	2023-06-20	20:12:30	20:26:34	839024	5c086d3d3be61100011a694d	2	1	main_z	24	advance_on_keypress_ZEE	20	stimuli_target_squarediamonds.svg	stimuli_distractor_trianglediamonds.svg	4	yes	57	0	853	6	6	antiphase_hc_ois.wav	3	6	4	noise_calib_stim_RIGHT.wav	2	2	blb_dichoticlistening_ba-da.mp3	ba	da	1	left
6.6.1	win	2023-06-20	20:12:30	20:26:36	841465	5c086d3d3be61100011a694d	2	1	main_z	24	main_z	21	stimuli_distractor_diamondtriangles.svg	stimuli_target_diamondrectangles.svg	31	yes	44	1	939	6	6	antiphase_hc_ois.wav	3	6	4	noise_calib_stim_RIGHT.wav	2	2	blb_dichoticlistening_ba-da.mp3	ba	da	1	left
6.6.1	win	2023-06-20	20:12:30	20:26:36	841465	5c086d3d3be61100011a694d	2	1	main_z	24	advance_on_keypress_ZEE	22	stimuli_distractor_diamondtriangles.svg	stimuli_target_diamondrectangles.svg	31	yes	57	0	586	6	6	antiphase_hc_ois.wav	3	6	4	noise_calib_stim_RIGHT.wav	2	2	blb_dichoticlistening_ba-da.mp3	ba	da	1	left
6.6.1	win	2023-06-20	20:12:30	20:26:39	844692	5c086d3d3be61100011a694d	2	1	main_z	24	main_z	23	stimuli_distractor_trianglediamonds.svg	stimuli_distractor_trianglediamonds.svg	33	no	0	1	2000	6	6	antiphase_hc_ois.wav	3	6	4	noise_calib_stim_RIGHT.wav	2	2	blb_dichoticlistening_ba-da.mp3	ba	da	1	left
6.6.1	win	2023-06-20	20:12:30	20:26:39	844692	5c086d3d3be61100011a694d	2	1	main_z	24	advance_on_keypress_ZEE	24	stimuli_distractor_trianglediamonds.svg	stimuli_distractor_trianglediamonds.svg	33	no	57	0	652	6	6	antiphase_hc_ois.wav	3	6	4	noise_calib_stim_RIGHT.wav	2	2	blb_dichoticlistening_ba-da.mp3	ba	da	1	left
6.6.1	win	2023-06-20	20:12:30	20:26:41	846764	5c086d3d3be61100011a694d	2	1	main_z	24	main_z	25	stimuli_distractor_trianglediamonds.svg	stimuli_target_squarediamonds.svg	12	yes	44	1	772	6	6	antiphase_hc_ois.wav	3	6	4	noise_calib_stim_RIGHT.wav	2	2	blb_dichoticlistening_ba-da.mp3	ba	da	1	left
6.6.1	win	2023-06-20	20:12:30	20:26:41	846764	5c086d3d3be61100011a694d	2	1	main_z	24	advance_on_keypress_ZEE	26	stimuli_distractor_trianglediamonds.svg	stimuli_target_squarediamonds.svg	12	yes	57	0	652	6	6	antiphase_hc_ois.wav	3	6	4	noise_calib_stim_RIGHT.wav	2	2	blb_dichoticlistening_ba-da.mp3	ba	da	1	left
6.6.1	win	2023-06-20	20:12:30	20:26:44	848876	5c086d3d3be61100011a694d	2	1	main_z	24	main_z	27	stimuli_target_trianglesquares.svg	stimuli_distractor_trianglediamonds.svg	18	yes	44	1	818	6	6	antiphase_hc_ois.wav	3	6	4	noise_calib_stim_RIGHT.wav	2	2	blb_dichoticlistening_ba-da.mp3	ba	da	1	left
6.6.1	win	2023-06-20	20:12:30	20:26:44	848876	5c086d3d3be61100011a694d	2	1	main_z	24	advance_on_keypress_ZEE	28	stimuli_target_trianglesquares.svg	stimuli_distractor_trianglediamonds.svg	18	yes	57	0	625	6	6	antiphase_hc_ois.wav	3	6	4	noise_calib_stim_RIGHT.wav	2	2	blb_dichoticlistening_ba-da.mp3	ba	da	1	left
6.6.1	win	2023-06-20	20:12:30	20:26:47	852142	5c086d3d3be61100011a694d	2	1	main_z	24	main_z	29	stimuli_distractor_trianglediamonds.svg	stimuli_target_diamondrectangles.svg	27	yes	0	0	2000	6	6	antiphase_hc_ois.wav	3	6	4	noise_calib_stim_RIGHT.wav	2	2	blb_dichoticlistening_ba-da.mp3	ba	da	1	left
6.6.1	win	2023-06-20	20:12:30	20:26:47	852142	5c086d3d3be61100011a694d	2	1	main_z	24	advance_on_keypress_ZEE	30	stimuli_distractor_trianglediamonds.svg	stimuli_target_diamondrectangles.svg	27	yes	57	0	601	6	6	antiphase_hc_ois.wav	3	6	4	noise_calib_stim_RIGHT.wav	2	2	blb_dichoticlistening_ba-da.mp3	ba	da	1	left
6.6.1	win	2023-06-20	20:12:30	20:26:50	855391	5c086d3d3be61100011a694d	2	1	main_z	24	main_z	31	stimuli_distractor_trianglediamonds.svg	stimuli_distractor_trianglediamonds.svg	34	no	0	1	2000	6	6	antiphase_hc_ois.wav	3	6	4	noise_calib_stim_RIGHT.wav	2	2	blb_dichoticlistening_ba-da.mp3	ba	da	1	left
6.6.1	win	2023-06-20	20:12:30	20:26:50	855391	5c086d3d3be61100011a694d	2	1	main_z	24	advance_on_keypress_ZEE	32	stimuli_distractor_trianglediamonds.svg	stimuli_distractor_trianglediamonds.svg	34	no	57	0	513	6	6	antiphase_hc_ois.wav	3	6	4	noise_calib_stim_RIGHT.wav	2	2	blb_dichoticlistening_ba-da.mp3	ba	da	1	left
6.6.1	win	2023-06-20	20:12:30	20:26:52	857240	5c086d3d3be61100011a694d	2	1	main_z	24	main_z	33	stimuli_target_diamondsquares.svg	stimuli_distractor_trianglediamonds.svg	20	yes	44	1	698	6	6	antiphase_hc_ois.wav	3	6	4	noise_calib_stim_RIGHT.wav	2	2	blb_dichoticlistening_ba-da.mp3	ba	da	1	left
6.6.1	win	2023-06-20	20:12:30	20:26:52	857240	5c086d3d3be61100011a694d	2	1	main_z	24	advance_on_keypress_ZEE	34	stimuli_target_diamondsquares.svg	stimuli_distractor_trianglediamonds.svg	20	yes	57	0	1021	6	6	antiphase_hc_ois.wav	3	6	4	noise_calib_stim_RIGHT.wav	2	2	blb_dichoticlistening_ba-da.mp3	ba	da	1	left
6.6.1	win	2023-06-20	20:12:30	20:26:54	859507	5c086d3d3be61100011a694d	2	1	main_z	24	main_z	35	stimuli_distractor_diamondtriangles.svg	stimuli_target_squarediamonds.svg	16	yes	44	1	598	6	6	antiphase_hc_ois.wav	3	6	4	noise_calib_stim_RIGHT.wav	2	2	blb_dichoticlistening_ba-da.mp3	ba	da	1	left
6.6.1	win	2023-06-20	20:12:30	20:26:54	859507	5c086d3d3be61100011a694d	2	1	main_z	24	advance_on_keypress_ZEE	36	stimuli_distractor_diamondtriangles.svg	stimuli_target_squarediamonds.svg	16	yes	57	0	1011	6	6	antiphase_hc_ois.wav	3	6	4	noise_calib_stim_RIGHT.wav	2	2	blb_dichoticlistening_ba-da.mp3	ba	da	1	left
6.6.1	win	2023-06-20	20:12:30	20:26:57	861953	5c086d3d3be61100011a694d	2	1	main_z	24	main_z	37	stimuli_distractor_diamondtriangles.svg	stimuli_target_rectangletriangles.svg	13	yes	44	1	794	6	6	antiphase_hc_ois.wav	3	6	4	noise_calib_stim_RIGHT.wav	2	2	blb_dichoticlistening_ba-da.mp3	ba	da	1	left
6.6.1	win	2023-06-20	20:12:30	20:26:57	861953	5c086d3d3be61100011a694d	2	1	main_z	24	advance_on_keypress_ZEE	38	stimuli_distractor_diamondtriangles.svg	stimuli_target_rectangletriangles.svg	13	yes	57	0	939	6	6	antiphase_hc_ois.wav	3	6	4	noise_calib_stim_RIGHT.wav	2	2	blb_dichoticlistening_ba-da.mp3	ba	da	1	left
6.6.1	win	2023-06-20	20:12:30	20:26:59	864485	5c086d3d3be61100011a694d	2	1	main_z	24	main_z	39	stimuli_target_trianglerectangles.svg	stimuli_distractor_diamondtriangles.svg	21	yes	44	1	961	6	6	antiphase_hc_ois.wav	3	6	4	noise_calib_stim_RIGHT.wav	2	2	blb_dichoticlistening_ba-da.mp3	ba	da	1	left
6.6.1	win	2023-06-20	20:12:30	20:26:59	864485	5c086d3d3be61100011a694d	2	1	main_z	24	advance_on_keypress_ZEE	40	stimuli_target_trianglerectangles.svg	stimuli_distractor_diamondtriangles.svg	21	yes	57	0	660	6	6	antiphase_hc_ois.wav	3	6	4	noise_calib_stim_RIGHT.wav	2	2	blb_dichoticlistening_ba-da.mp3	ba	da	1	left
6.6.1	win	2023-06-20	20:12:30	20:27:01	866682	5c086d3d3be61100011a694d	2	1	main_z	24	main_z	41	stimuli_target_rectanglediamonds.svg	stimuli_distractor_diamondtriangles.svg	6	yes	44	1	908	6	6	antiphase_hc_ois.wav	3	6	4	noise_calib_stim_RIGHT.wav	2	2	blb_dichoticlistening_ba-da.mp3	ba	da	1	left
6.6.1	win	2023-06-20	20:12:30	20:27:01	866682	5c086d3d3be61100011a694d	2	1	main_z	24	advance_on_keypress_ZEE	42	stimuli_target_rectanglediamonds.svg	stimuli_distractor_diamondtriangles.svg	6	yes	57	0	719	6	6	antiphase_hc_ois.wav	3	6	4	noise_calib_stim_RIGHT.wav	2	2	blb_dichoticlistening_ba-da.mp3	ba	da	1	left
6.6.1	win	2023-06-20	20:12:30	20:27:04	868909	5c086d3d3be61100011a694d	2	1	main_z	24	main_z	43	stimuli_distractor_trianglediamonds.svg	stimuli_target_trianglerectangles.svg	25	yes	44	1	869	6	6	antiphase_hc_ois.wav	3	6	4	noise_calib_stim_RIGHT.wav	2	2	blb_dichoticlistening_ba-da.mp3	ba	da	1	left
6.6.1	win	2023-06-20	20:12:30	20:27:04	868909	5c086d3d3be61100011a694d	2	1	main_z	24	advance_on_keypress_ZEE	44	stimuli_distractor_trianglediamonds.svg	stimuli_target_trianglerectangles.svg	25	yes	57	0	537	6	6	antiphase_hc_ois.wav	3	6	4	noise_calib_stim_RIGHT.wav	2	2	blb_dichoticlistening_ba-da.mp3	ba	da	1	left
6.6.1	win	2023-06-20	20:12:30	20:27:06	870948	5c086d3d3be61100011a694d	2	1	main_z	24	main_z	45	stimuli_distractor_trianglediamonds.svg	stimuli_target_rectanglediamonds.svg	10	yes	44	1	857	6	6	antiphase_hc_ois.wav	3	6	4	noise_calib_stim_RIGHT.wav	2	2	blb_dichoticlistening_ba-da.mp3	ba	da	1	left
6.6.1	win	2023-06-20	20:12:30	20:27:06	870948	5c086d3d3be61100011a694d	2	1	main_z	24	advance_on_keypress_ZEE	46	stimuli_distractor_trianglediamonds.svg	stimuli_target_rectanglediamonds.svg	10	yes	57	0	470	6	6	antiphase_hc_ois.wav	3	6	4	noise_calib_stim_RIGHT.wav	2	2	blb_dichoticlistening_ba-da.mp3	ba	da	1	left
6.6.1	win	2023-06-20	20:12:30	20:27:09	874057	5c086d3d3be61100011a694d	2	1	main_z	24	main_z	47	stimuli_distractor_trianglediamonds.svg	stimuli_distractor_diamondtriangles.svg	36	no	0	1	2000	6	6	antiphase_hc_ois.wav	3	6	4	noise_calib_stim_RIGHT.wav	2	2	blb_dichoticlistening_ba-da.mp3	ba	da	1	left
6.6.1	win	2023-06-20	20:12:30	20:27:09	874057	5c086d3d3be61100011a694d	2	1	main_z	24	advance_on_keypress_ZEE	48	stimuli_distractor_trianglediamonds.svg	stimuli_distractor_diamondtriangles.svg	36	no	57	0	473	6	6	antiphase_hc_ois.wav	3	6	4	noise_calib_stim_RIGHT.wav	2	2	blb_dichoticlistening_ba-da.mp3	ba	da	1	left
6.6.1	win	2023-06-20	20:12:30	20:27:11	875804	5c086d3d3be61100011a694d	2	1	main_z	24	main_z	49	stimuli_target_squaretriangles.svg	stimuli_distractor_diamondtriangles.svg	7	yes	44	1	631	6	6	antiphase_hc_ois.wav	3	6	4	noise_calib_stim_RIGHT.wav	2	2	blb_dichoticlistening_ba-da.mp3	ba	da	1	left
6.6.1	win	2023-06-20	20:12:30	20:27:11	875804	5c086d3d3be61100011a694d	2	1	main_z	24	advance_on_keypress_ZEE	50	stimuli_target_squaretriangles.svg	stimuli_distractor_diamondtriangles.svg	7	yes	57	0	472	6	6	antiphase_hc_ois.wav	3	6	4	noise_calib_stim_RIGHT.wav	2	2	blb_dichoticlistening_ba-da.mp3	ba	da	1	left
6.6.1	win	2023-06-20	20:12:30	20:27:14	878923	5c086d3d3be61100011a694d	2	1	main_z	24	main_z	51	stimuli_distractor_diamondtriangles.svg	stimuli_distractor_diamondtriangles.svg	40	no	0	1	2000	6	6	antiphase_hc_ois.wav	3	6	4	noise_calib_stim_RIGHT.wav	2	2	blb_dichoticlistening_ba-da.mp3	ba	da	1	left
6.6.1	win	2023-06-20	20:12:30	20:27:14	878923	5c086d3d3be61100011a694d	2	1	main_z	24	advance_on_keypress_ZEE	52	stimuli_distractor_diamondtriangles.svg	stimuli_distractor_diamondtriangles.svg	40	no	57	0	472	6	6	antiphase_hc_ois.wav	3	6	4	noise_calib_stim_RIGHT.wav	2	2	blb_dichoticlistening_ba-da.mp3	ba	da	1	left
6.6.1	win	2023-06-20	20:12:30	20:27:15	880765	5c086d3d3be61100011a694d	2	1	main_z	24	main_z	53	stimuli_target_rectanglediamonds.svg	stimuli_distractor_trianglediamonds.svg	2	yes	44	1	725	6	6	antiphase_hc_ois.wav	3	6	4	noise_calib_stim_RIGHT.wav	2	2	blb_dichoticlistening_ba-da.mp3	ba	da	1	left
6.6.1	win	2023-06-20	20:12:30	20:27:15	880765	5c086d3d3be61100011a694d	2	1	main_z	24	advance_on_keypress_ZEE	54	stimuli_target_rectanglediamonds.svg	stimuli_distractor_trianglediamonds.svg	2	yes	57	0	457	6	6	antiphase_hc_ois.wav	3	6	4	noise_calib_stim_RIGHT.wav	2	2	blb_dichoticlistening_ba-da.mp3	ba	da	1	left
6.6.1	win	2023-06-20	20:12:30	20:27:19	883856	5c086d3d3be61100011a694d	2	1	main_z	24	main_z	55	stimuli_distractor_diamondtriangles.svg	stimuli_distractor_diamondtriangles.svg	39	no	0	1	2000	6	6	antiphase_hc_ois.wav	3	6	4	noise_calib_stim_RIGHT.wav	2	2	blb_dichoticlistening_ba-da.mp3	ba	da	1	left
6.6.1	win	2023-06-20	20:12:30	20:27:19	883856	5c086d3d3be61100011a694d	2	1	main_z	24	advance_on_keypress_ZEE	56	stimuli_distractor_diamondtriangles.svg	stimuli_distractor_diamondtriangles.svg	39	no	57	0	611	6	6	antiphase_hc_ois.wav	3	6	4	noise_calib_stim_RIGHT.wav	2	2	blb_dichoticlistening_ba-da.mp3	ba	da	1	left
6.6.1	win	2023-06-20	20:12:30	20:27:20	885624	5c086d3d3be61100011a694d	2	1	main_z	24	main_z	57	stimuli_distractor_trianglediamonds.svg	stimuli_target_rectangletriangles.svg	9	yes	44	1	515	6	6	antiphase_hc_ois.wav	3	6	4	noise_calib_stim_RIGHT.wav	2	2	blb_dichoticlistening_ba-da.mp3	ba	da	1	left
6.6.1	win	2023-06-20	20:12:30	20:27:20	885624	5c086d3d3be61100011a694d	2	1	main_z	24	advance_on_keypress_ZEE	58	stimuli_distractor_trianglediamonds.svg	stimuli_target_rectangletriangles.svg	9	yes	57	0	625	6	6	antiphase_hc_ois.wav	3	6	4	noise_calib_stim_RIGHT.wav	2	2	blb_dichoticlistening_ba-da.mp3	ba	da	1	left
6.6.1	win	2023-06-20	20:12:30	20:27:22	887724	5c086d3d3be61100011a694d	2	1	main_z	24	main_z	59	stimuli_distractor_diamondtriangles.svg	stimuli_target_diamondsquares.svg	32	yes	44	1	835	6	6	antiphase_hc_ois.wav	3	6	4	noise_calib_stim_RIGHT.wav	2	2	blb_dichoticlistening_ba-da.mp3	ba	da	1	left
6.6.1	win	2023-06-20	20:12:30	20:27:22	887724	5c086d3d3be61100011a694d	2	1	main_z	24	advance_on_keypress_ZEE	60	stimuli_distractor_diamondtriangles.svg	stimuli_target_diamondsquares.svg	32	yes	57	0	920	6	6	antiphase_hc_ois.wav	3	6	4	noise_calib_stim_RIGHT.wav	2	2	blb_dichoticlistening_ba-da.mp3	ba	da	1	left
6.6.1	win	2023-06-20	20:12:30	20:27:25	889983	5c086d3d3be61100011a694d	2	1	main_z	24	main_z	61	stimuli_target_rectangletriangles.svg	stimuli_distractor_trianglediamonds.svg	1	yes	44	1	694	6	6	antiphase_hc_ois.wav	3	6	4	noise_calib_stim_RIGHT.wav	2	2	blb_dichoticlistening_ba-da.mp3	ba	da	1	left
6.6.1	win	2023-06-20	20:12:30	20:27:25	889983	5c086d3d3be61100011a694d	2	1	main_z	24	advance_on_keypress_ZEE	62	stimuli_target_rectangletriangles.svg	stimuli_distractor_trianglediamonds.svg	1	yes	57	0	505	6	6	antiphase_hc_ois.wav	3	6	4	noise_calib_stim_RIGHT.wav	2	2	blb_dichoticlistening_ba-da.mp3	ba	da	1	left
6.6.1	win	2023-06-20	20:12:30	20:27:28	893123	5c086d3d3be61100011a694d	2	1	main_z	24	main_z	63	stimuli_distractor_diamondtriangles.svg	stimuli_distractor_trianglediamonds.svg	38	no	0	1	2000	6	6	antiphase_hc_ois.wav	3	6	4	noise_calib_stim_RIGHT.wav	2	2	blb_dichoticlistening_ba-da.mp3	ba	da	1	left
6.6.1	win	2023-06-20	20:12:30	20:27:28	893123	5c086d3d3be61100011a694d	2	1	main_z	24	advance_on_keypress_ZEE	64	stimuli_distractor_diamondtriangles.svg	stimuli_distractor_trianglediamonds.svg	38	no	57	0	596	6	6	antiphase_hc_ois.wav	3	6	4	noise_calib_stim_RIGHT.wav	2	2	blb_dichoticlistening_ba-da.mp3	ba	da	1	left
6.6.1	win	2023-06-20	20:12:30	20:27:30	895160	5c086d3d3be61100011a694d	2	1	main_z	24	main_z	65	stimuli_target_rectangletriangles.svg	stimuli_distractor_diamondtriangles.svg	5	yes	44	1	788	6	6	antiphase_hc_ois.wav	3	6	4	noise_calib_stim_RIGHT.wav	2	2	blb_dichoticlistening_ba-da.mp3	ba	da	1	left
6.6.1	win	2023-06-20	20:12:30	20:27:30	895160	5c086d3d3be61100011a694d	2	1	main_z	24	advance_on_keypress_ZEE	66	stimuli_target_rectangletriangles.svg	stimuli_distractor_diamondtriangles.svg	5	yes	57	0	486	6	6	antiphase_hc_ois.wav	3	6	4	noise_calib_stim_RIGHT.wav	2	2	blb_dichoticlistening_ba-da.mp3	ba	da	1	left
6.6.1	win	2023-06-20	20:12:30	20:27:32	896993	5c086d3d3be61100011a694d	2	1	main_z	24	main_z	67	stimuli_distractor_diamondtriangles.svg	stimuli_target_squaretriangles.svg	15	yes	44	1	704	6	6	antiphase_hc_ois.wav	3	6	4	noise_calib_stim_RIGHT.wav	2	2	blb_dichoticlistening_ba-da.mp3	ba	da	1	left
6.6.1	win	2023-06-20	20:12:30	20:27:32	896993	5c086d3d3be61100011a694d	2	1	main_z	24	advance_on_keypress_ZEE	68	stimuli_distractor_diamondtriangles.svg	stimuli_target_squaretriangles.svg	15	yes	57	0	476	6	6	antiphase_hc_ois.wav	3	6	4	noise_calib_stim_RIGHT.wav	2	2	blb_dichoticlistening_ba-da.mp3	ba	da	1	left
6.6.1	win	2023-06-20	20:12:30	20:27:34	898911	5c086d3d3be61100011a694d	2	1	main_z	24	main_z	69	stimuli_target_trianglerectangles.svg	stimuli_distractor_trianglediamonds.svg	17	yes	44	1	806	6	6	antiphase_hc_ois.wav	3	6	4	noise_calib_stim_RIGHT.wav	2	2	blb_dichoticlistening_ba-da.mp3	ba	da	1	left
6.6.1	win	2023-06-20	20:12:30	20:27:34	898911	5c086d3d3be61100011a694d	2	1	main_z	24	advance_on_keypress_ZEE	70	stimuli_target_trianglerectangles.svg	stimuli_distractor_trianglediamonds.svg	17	yes	57	0	439	6	6	antiphase_hc_ois.wav	3	6	4	noise_calib_stim_RIGHT.wav	2	2	blb_dichoticlistening_ba-da.mp3	ba	da	1	left
6.6.1	win	2023-06-20	20:12:30	20:27:36	900967	5c086d3d3be61100011a694d	2	1	main_z	24	main_z	71	stimuli_distractor_diamondtriangles.svg	stimuli_target_trianglerectangles.svg	29	yes	44	1	978	6	6	antiphase_hc_ois.wav	3	6	4	noise_calib_stim_RIGHT.wav	2	2	blb_dichoticlistening_ba-da.mp3	ba	da	1	left
6.6.1	win	2023-06-20	20:12:30	20:27:36	900967	5c086d3d3be61100011a694d	2	1	main_z	24	advance_on_keypress_ZEE	72	stimuli_distractor_diamondtriangles.svg	stimuli_target_trianglerectangles.svg	29	yes	57	0	541	6	6	antiphase_hc_ois.wav	3	6	4	noise_calib_stim_RIGHT.wav	2	2	blb_dichoticlistening_ba-da.mp3	ba	da	1	left
6.6.1	win	2023-06-20	20:12:30	20:27:38	903017	5c086d3d3be61100011a694d	2	1	main_z	24	main_z	73	stimuli_distractor_diamondtriangles.svg	stimuli_target_trianglesquares.svg	30	yes	44	1	862	6	6	antiphase_hc_ois.wav	3	6	4	noise_calib_stim_RIGHT.wav	2	2	blb_dichoticlistening_ba-da.mp3	ba	da	1	left
6.6.1	win	2023-06-20	20:12:30	20:27:38	903017	5c086d3d3be61100011a694d	2	1	main_z	24	advance_on_keypress_ZEE	74	stimuli_distractor_diamondtriangles.svg	stimuli_target_trianglesquares.svg	30	yes	57	0	382	6	6	antiphase_hc_ois.wav	3	6	4	noise_calib_stim_RIGHT.wav	2	2	blb_dichoticlistening_ba-da.mp3	ba	da	1	left
6.6.1	win	2023-06-20	20:12:30	20:27:39	904789	5c086d3d3be61100011a694d	2	1	main_z	24	main_z	75	stimuli_target_diamondrectangles.svg	stimuli_distractor_trianglediamonds.svg	19	yes	44	1	751	6	6	antiphase_hc_ois.wav	3	6	4	noise_calib_stim_RIGHT.wav	2	2	blb_dichoticlistening_ba-da.mp3	ba	da	1	left
6.6.1	win	2023-06-20	20:12:30	20:27:39	904789	5c086d3d3be61100011a694d	2	1	main_z	24	advance_on_keypress_ZEE	76	stimuli_target_diamondrectangles.svg	stimuli_distractor_trianglediamonds.svg	19	yes	57	0	375	6	6	antiphase_hc_ois.wav	3	6	4	noise_calib_stim_RIGHT.wav	2	2	blb_dichoticlistening_ba-da.mp3	ba	da	1	left
6.6.1	win	2023-06-20	20:12:30	20:27:41	906716	5c086d3d3be61100011a694d	2	1	main_z	24	main_z	77	stimuli_target_squarediamonds.svg	stimuli_distractor_diamondtriangles.svg	8	yes	44	1	911	6	6	antiphase_hc_ois.wav	3	6	4	noise_calib_stim_RIGHT.wav	2	2	blb_dichoticlistening_ba-da.mp3	ba	da	1	left
6.6.1	win	2023-06-20	20:12:30	20:27:41	906716	5c086d3d3be61100011a694d	2	1	main_z	24	advance_on_keypress_ZEE	78	stimuli_target_squarediamonds.svg	stimuli_distractor_diamondtriangles.svg	8	yes	57	0	309	6	6	antiphase_hc_ois.wav	3	6	4	noise_calib_stim_RIGHT.wav	2	2	blb_dichoticlistening_ba-da.mp3	ba	da	1	left
6.6.1	win	2023-06-20	20:12:30	20:27:44	909655	5c086d3d3be61100011a694d	2	1	main_z	24	main_z	79	stimuli_distractor_trianglediamonds.svg	stimuli_distractor_diamondtriangles.svg	35	no	0	1	2000	6	6	antiphase_hc_ois.wav	3	6	4	noise_calib_stim_RIGHT.wav	2	2	blb_dichoticlistening_ba-da.mp3	ba	da	1	left
6.6.1	win	2023-06-20	20:12:30	20:27:44	909655	5c086d3d3be61100011a694d	2	1	main_z	24	advance_on_keypress_ZEE	80	stimuli_distractor_trianglediamonds.svg	stimuli_distractor_diamondtriangles.svg	35	no	57	0	466	6	6	antiphase_hc_ois.wav	3	6	4	noise_calib_stim_RIGHT.wav	2	2	blb_dichoticlistening_ba-da.mp3	ba	da	1	left
6.6.1	win	2023-06-20	20:12:30	20:27:47	911927	5c086d3d3be61100011a694d	2	1	main_z	24	main_z	81	stimuli_target_trianglerectangles.svg	stimuli_distractor_diamondtriangles.svg	21	yes	44	1	1156	6	6	antiphase_hc_ois.wav	3	6	4	noise_calib_stim_RIGHT.wav	2	2	blb_dichoticlistening_ba-da.mp3	ba	da	1	left
6.6.1	win	2023-06-20	20:12:30	20:27:47	911927	5c086d3d3be61100011a694d	2	1	main_z	24	advance_on_keypress_ZEE	82	stimuli_target_trianglerectangles.svg	stimuli_distractor_diamondtriangles.svg	21	yes	57	0	1887	6	6	antiphase_hc_ois.wav	3	6	4	noise_calib_stim_RIGHT.wav	2	2	blb_dichoticlistening_ba-da.mp3	ba	da	1	left
6.6.1	win	2023-06-20	20:12:30	20:27:50	914877	5c086d3d3be61100011a694d	2	1	main_z	24	main_z	83	stimuli_target_squaretriangles.svg	stimuli_distractor_trianglediamonds.svg	3	yes	44	1	424	6	6	antiphase_hc_ois.wav	3	6	4	noise_calib_stim_RIGHT.wav	2	2	blb_dichoticlistening_ba-da.mp3	ba	da	1	left
6.6.1	win	2023-06-20	20:12:30	20:27:50	914877	5c086d3d3be61100011a694d	2	1	main_z	24	advance_on_keypress_ZEE	84	stimuli_target_squaretriangles.svg	stimuli_distractor_trianglediamonds.svg	3	yes	57	0	443	6	6	antiphase_hc_ois.wav	3	6	4	noise_calib_stim_RIGHT.wav	2	2	blb_dichoticlistening_ba-da.mp3	ba	da	1	left
6.6.1	win	2023-06-20	20:12:30	20:27:51	916435	5c086d3d3be61100011a694d	2	1	main_z	24	main_z	85	stimuli_target_rectanglediamonds.svg	stimuli_distractor_trianglediamonds.svg	2	yes	44	1	481	6	6	antiphase_hc_ois.wav	3	6	4	noise_calib_stim_RIGHT.wav	2	2	blb_dichoticlistening_ba-da.mp3	ba	da	1	left
6.6.1	win	2023-06-20	20:12:30	20:27:51	916435	5c086d3d3be61100011a694d	2	1	main_z	24	advance_on_keypress_ZEE	86	stimuli_target_rectanglediamonds.svg	stimuli_distractor_trianglediamonds.svg	2	yes	57	0	387	6	6	antiphase_hc_ois.wav	3	6	4	noise_calib_stim_RIGHT.wav	2	2	blb_dichoticlistening_ba-da.mp3	ba	da	1	left
6.6.1	win	2023-06-20	20:12:30	20:27:53	918178	5c086d3d3be61100011a694d	2	1	main_z	24	main_z	87	stimuli_distractor_diamondtriangles.svg	stimuli_target_trianglerectangles.svg	29	yes	44	1	708	6	6	antiphase_hc_ois.wav	3	6	4	noise_calib_stim_RIGHT.wav	2	2	blb_dichoticlistening_ba-da.mp3	ba	da	1	left
6.6.1	win	2023-06-20	20:12:30	20:27:53	918178	5c086d3d3be61100011a694d	2	1	main_z	24	advance_on_keypress_ZEE	88	stimuli_distractor_diamondtriangles.svg	stimuli_target_trianglerectangles.svg	29	yes	57	0	439	6	6	antiphase_hc_ois.wav	3	6	4	noise_calib_stim_RIGHT.wav	2	2	blb_dichoticlistening_ba-da.mp3	ba	da	1	left
6.6.1	win	2023-06-20	20:12:30	20:27:55	919929	5c086d3d3be61100011a694d	2	1	main_z	24	main_z	89	stimuli_distractor_trianglediamonds.svg	stimuli_target_trianglerectangles.svg	25	yes	44	1	674	6	6	antiphase_hc_ois.wav	3	6	4	noise_calib_stim_RIGHT.wav	2	2	blb_dichoticlistening_ba-da.mp3	ba	da	1	left
6.6.1	win	2023-06-20	20:12:30	20:27:55	919929	5c086d3d3be61100011a694d	2	1	main_z	24	advance_on_keypress_ZEE	90	stimuli_distractor_trianglediamonds.svg	stimuli_target_trianglerectangles.svg	25	yes	57	0	381	6	6	antiphase_hc_ois.wav	3	6	4	noise_calib_stim_RIGHT.wav	2	2	blb_dichoticlistening_ba-da.mp3	ba	da	1	left
6.6.1	win	2023-06-20	20:12:30	20:27:57	921838	5c086d3d3be61100011a694d	2	1	main_z	24	main_z	91	stimuli_target_squaretriangles.svg	stimuli_distractor_diamondtriangles.svg	7	yes	44	1	884	6	6	antiphase_hc_ois.wav	3	6	4	noise_calib_stim_RIGHT.wav	2	2	blb_dichoticlistening_ba-da.mp3	ba	da	1	left
6.6.1	win	2023-06-20	20:12:30	20:27:57	921838	5c086d3d3be61100011a694d	2	1	main_z	24	advance_on_keypress_ZEE	92	stimuli_target_squaretriangles.svg	stimuli_distractor_diamondtriangles.svg	7	yes	57	0	412	6	6	antiphase_hc_ois.wav	3	6	4	noise_calib_stim_RIGHT.wav	2	2	blb_dichoticlistening_ba-da.mp3	ba	da	1	left
6.6.1	win	2023-06-20	20:12:30	20:27:58	923724	5c086d3d3be61100011a694d	2	1	main_z	24	main_z	93	stimuli_target_rectangletriangles.svg	stimuli_distractor_trianglediamonds.svg	1	yes	44	1	838	6	6	antiphase_hc_ois.wav	3	6	4	noise_calib_stim_RIGHT.wav	2	2	blb_dichoticlistening_ba-da.mp3	ba	da	1	left
6.6.1	win	2023-06-20	20:12:30	20:27:58	923724	5c086d3d3be61100011a694d	2	1	main_z	24	advance_on_keypress_ZEE	94	stimuli_target_rectangletriangles.svg	stimuli_distractor_trianglediamonds.svg	1	yes	57	0	1388	6	6	antiphase_hc_ois.wav	3	6	4	noise_calib_stim_RIGHT.wav	2	2	blb_dichoticlistening_ba-da.mp3	ba	da	1	left
6.6.1	win	2023-06-20	20:12:30	20:28:01	926412	5c086d3d3be61100011a694d	2	1	main_z	24	main_z	95	stimuli_target_trianglesquares.svg	stimuli_distractor_diamondtriangles.svg	22	yes	44	1	658	6	6	antiphase_hc_ois.wav	3	6	4	noise_calib_stim_RIGHT.wav	2	2	blb_dichoticlistening_ba-da.mp3	ba	da	1	left
6.6.1	win	2023-06-20	20:12:30	20:28:01	926412	5c086d3d3be61100011a694d	2	1	main_z	24	advance_on_keypress_ZEE	96	stimuli_target_trianglesquares.svg	stimuli_distractor_diamondtriangles.svg	22	yes	57	0	695	6	6	antiphase_hc_ois.wav	3	6	4	noise_calib_stim_RIGHT.wav	2	2	blb_dichoticlistening_ba-da.mp3	ba	da	1	left
6.6.1	win	2023-06-20	20:12:30	20:28:03	928602	5c086d3d3be61100011a694d	2	1	main_z	24	main_z	97	stimuli_distractor_trianglediamonds.svg	stimuli_target_diamondsquares.svg	28	yes	44	1	866	6	6	antiphase_hc_ois.wav	3	6	4	noise_calib_stim_RIGHT.wav	2	2	blb_dichoticlistening_ba-da.mp3	ba	da	1	left
6.6.1	win	2023-06-20	20:12:30	20:28:03	928602	5c086d3d3be61100011a694d	2	1	main_z	24	advance_on_keypress_ZEE	98	stimuli_distractor_trianglediamonds.svg	stimuli_target_diamondsquares.svg	28	yes	57	0	721	6	6	antiphase_hc_ois.wav	3	6	4	noise_calib_stim_RIGHT.wav	2	2	blb_dichoticlistening_ba-da.mp3	ba	da	1	left
6.6.1	win	2023-06-20	20:12:30	20:28:05	930758	5c086d3d3be61100011a694d	2	1	main_z	24	main_z	99	stimuli_target_rectanglediamonds.svg	stimuli_distractor_diamondtriangles.svg	6	yes	44	1	788	6	6	antiphase_hc_ois.wav	3	6	4	noise_calib_stim_RIGHT.wav	2	2	blb_dichoticlistening_ba-da.mp3	ba	da	1	left
6.6.1	win	2023-06-20	20:12:30	20:28:05	930758	5c086d3d3be61100011a694d	2	1	main_z	24	advance_on_keypress_ZEE	100	stimuli_target_rectanglediamonds.svg	stimuli_distractor_diamondtriangles.svg	6	yes	57	0	411	6	6	antiphase_hc_ois.wav	3	6	4	noise_calib_stim_RIGHT.wav	2	2	blb_dichoticlistening_ba-da.mp3	ba	da	1	left
6.6.1	win	2023-06-20	20:12:30	20:28:07	932643	5c086d3d3be61100011a694d	2	1	main_z	24	main_z	101	stimuli_distractor_trianglediamonds.svg	stimuli_target_diamondrectangles.svg	27	yes	44	1	840	6	6	antiphase_hc_ois.wav	3	6	4	noise_calib_stim_RIGHT.wav	2	2	blb_dichoticlistening_ba-da.mp3	ba	da	1	left
6.6.1	win	2023-06-20	20:12:30	20:28:07	932643	5c086d3d3be61100011a694d	2	1	main_z	24	advance_on_keypress_ZEE	102	stimuli_distractor_trianglediamonds.svg	stimuli_target_diamondrectangles.svg	27	yes	57	0	431	6	6	antiphase_hc_ois.wav	3	6	4	noise_calib_stim_RIGHT.wav	2	2	blb_dichoticlistening_ba-da.mp3	ba	da	1	left
6.6.1	win	2023-06-20	20:12:30	20:28:09	934627	5c086d3d3be61100011a694d	2	1	main_z	24	main_z	103	stimuli_target_squarediamonds.svg	stimuli_distractor_diamondtriangles.svg	8	yes	44	1	908	6	6	antiphase_hc_ois.wav	3	6	4	noise_calib_stim_RIGHT.wav	2	2	blb_dichoticlistening_ba-da.mp3	ba	da	1	left
6.6.1	win	2023-06-20	20:12:30	20:28:09	934627	5c086d3d3be61100011a694d	2	1	main_z	24	advance_on_keypress_ZEE	104	stimuli_target_squarediamonds.svg	stimuli_distractor_diamondtriangles.svg	8	yes	57	0	359	6	6	antiphase_hc_ois.wav	3	6	4	noise_calib_stim_RIGHT.wav	2	2	blb_dichoticlistening_ba-da.mp3	ba	da	1	left
6.6.1	win	2023-06-20	20:12:30	20:28:11	936463	5c086d3d3be61100011a694d	2	1	main_z	24	main_z	105	stimuli_distractor_diamondtriangles.svg	stimuli_target_rectanglediamonds.svg	14	yes	44	1	844	6	6	antiphase_hc_ois.wav	3	6	4	noise_calib_stim_RIGHT.wav	2	2	blb_dichoticlistening_ba-da.mp3	ba	da	1	left
6.6.1	win	2023-06-20	20:12:30	20:28:11	936463	5c086d3d3be61100011a694d	2	1	main_z	24	advance_on_keypress_ZEE	106	stimuli_distractor_diamondtriangles.svg	stimuli_target_rectanglediamonds.svg	14	yes	57	0	411	6	6	antiphase_hc_ois.wav	3	6	4	noise_calib_stim_RIGHT.wav	2	2	blb_dichoticlistening_ba-da.mp3	ba	da	1	left
6.6.1	win	2023-06-20	20:12:30	20:28:13	938321	5c086d3d3be61100011a694d	2	1	main_z	24	main_z	107	stimuli_distractor_diamondtriangles.svg	stimuli_target_diamondrectangles.svg	31	yes	44	1	820	6	6	antiphase_hc_ois.wav	3	6	4	noise_calib_stim_RIGHT.wav	2	2	blb_dichoticlistening_ba-da.mp3	ba	da	1	left
6.6.1	win	2023-06-20	20:12:30	20:28:13	938321	5c086d3d3be61100011a694d	2	1	main_z	24	advance_on_keypress_ZEE	108	stimuli_distractor_diamondtriangles.svg	stimuli_target_diamondrectangles.svg	31	yes	57	0	2844	6	6	antiphase_hc_ois.wav	3	6	4	noise_calib_stim_RIGHT.wav	2	2	blb_dichoticlistening_ba-da.mp3	ba	da	1	left
6.6.1	win	2023-06-20	20:12:30	20:28:19	943802	5c086d3d3be61100011a694d	2	1	main_z	24	main_z	109	stimuli_distractor_trianglediamonds.svg	stimuli_distractor_trianglediamonds.svg	34	no	0	1	2000	6	6	antiphase_hc_ois.wav	3	6	4	noise_calib_stim_RIGHT.wav	2	2	blb_dichoticlistening_ba-da.mp3	ba	da	1	left
6.6.1	win	2023-06-20	20:12:30	20:28:19	943802	5c086d3d3be61100011a694d	2	1	main_z	24	advance_on_keypress_ZEE	110	stimuli_distractor_trianglediamonds.svg	stimuli_distractor_trianglediamonds.svg	34	no	57	0	663	6	6	antiphase_hc_ois.wav	3	6	4	noise_calib_stim_RIGHT.wav	2	2	blb_dichoticlistening_ba-da.mp3	ba	da	1	left
6.6.1	win	2023-06-20	20:12:30	20:28:20	945769	5c086d3d3be61100011a694d	2	1	main_z	24	main_z	111	stimuli_target_squarediamonds.svg	stimuli_distractor_trianglediamonds.svg	4	yes	44	1	649	6	6	antiphase_hc_ois.wav	3	6	4	noise_calib_stim_RIGHT.wav	2	2	blb_dichoticlistening_ba-da.mp3	ba	da	1	left
6.6.1	win	2023-06-20	20:12:30	20:28:20	945769	5c086d3d3be61100011a694d	2	1	main_z	24	advance_on_keypress_ZEE	112	stimuli_target_squarediamonds.svg	stimuli_distractor_trianglediamonds.svg	4	yes	57	0	676	6	6	antiphase_hc_ois.wav	3	6	4	noise_calib_stim_RIGHT.wav	2	2	blb_dichoticlistening_ba-da.mp3	ba	da	1	left
6.6.1	win	2023-06-20	20:12:30	20:28:23	947996	5c086d3d3be61100011a694d	2	1	main_z	24	main_z	113	stimuli_distractor_diamondtriangles.svg	stimuli_target_trianglesquares.svg	30	yes	44	1	911	6	6	antiphase_hc_ois.wav	3	6	4	noise_calib_stim_RIGHT.wav	2	2	blb_dichoticlistening_ba-da.mp3	ba	da	1	left
6.6.1	win	2023-06-20	20:12:30	20:28:23	947996	5c086d3d3be61100011a694d	2	1	main_z	24	advance_on_keypress_ZEE	114	stimuli_distractor_diamondtriangles.svg	stimuli_target_trianglesquares.svg	30	yes	57	0	1185	6	6	antiphase_hc_ois.wav	3	6	4	noise_calib_stim_RIGHT.wav	2	2	blb_dichoticlistening_ba-da.mp3	ba	da	1	left
6.6.1	win	2023-06-20	20:12:30	20:28:25	950626	5c086d3d3be61100011a694d	2	1	main_z	24	main_z	115	stimuli_distractor_diamondtriangles.svg	stimuli_target_rectangletriangles.svg	13	yes	44	1	808	6	6	antiphase_hc_ois.wav	3	6	4	noise_calib_stim_RIGHT.wav	2	2	blb_dichoticlistening_ba-da.mp3	ba	da	1	left
6.6.1	win	2023-06-20	20:12:30	20:28:25	950626	5c086d3d3be61100011a694d	2	1	main_z	24	advance_on_keypress_ZEE	116	stimuli_distractor_diamondtriangles.svg	stimuli_target_rectangletriangles.svg	13	yes	57	0	476	6	6	antiphase_hc_ois.wav	3	6	4	noise_calib_stim_RIGHT.wav	2	2	blb_dichoticlistening_ba-da.mp3	ba	da	1	left
6.6.1	win	2023-06-20	20:12:30	20:28:28	952839	5c086d3d3be61100011a694d	2	1	main_z	24	main_z	117	stimuli_distractor_diamondtriangles.svg	stimuli_distractor_trianglediamonds.svg	38	no	44	0	1104	6	6	antiphase_hc_ois.wav	3	6	4	noise_calib_stim_RIGHT.wav	2	2	blb_dichoticlistening_ba-da.mp3	ba	da	1	left
6.6.1	win	2023-06-20	20:12:30	20:28:28	952839	5c086d3d3be61100011a694d	2	1	main_z	24	advance_on_keypress_ZEE	118	stimuli_distractor_diamondtriangles.svg	stimuli_distractor_trianglediamonds.svg	38	no	57	0	1908	6	6	antiphase_hc_ois.wav	3	6	4	noise_calib_stim_RIGHT.wav	2	2	blb_dichoticlistening_ba-da.mp3	ba	da	1	left
6.6.1	win	2023-06-20	20:12:30	20:28:32	957385	5c086d3d3be61100011a694d	2	1	main_z	24	main_z	119	stimuli_distractor_diamondtriangles.svg	stimuli_distractor_diamondtriangles.svg	40	no	0	1	2000	6	6	antiphase_hc_ois.wav	3	6	4	noise_calib_stim_RIGHT.wav	2	2	blb_dichoticlistening_ba-da.mp3	ba	da	1	left
6.6.1	win	2023-06-20	20:12:30	20:28:32	957385	5c086d3d3be61100011a694d	2	1	main_z	24	advance_on_keypress_ZEE	120	stimuli_distractor_diamondtriangles.svg	stimuli_distractor_diamondtriangles.svg	40	no	57	0	653	6	6	antiphase_hc_ois.wav	3	6	4	noise_calib_stim_RIGHT.wav	2	2	blb_dichoticlistening_ba-da.mp3	ba	da	1	left
6.6.1	win	2023-06-20	20:12:30	20:28:34	959377	5c086d3d3be61100011a694d	2	1	main_z	24	main_z	121	stimuli_distractor_diamondtriangles.svg	stimuli_target_diamondsquares.svg	32	yes	44	1	694	6	6	antiphase_hc_ois.wav	3	6	4	noise_calib_stim_RIGHT.wav	2	2	blb_dichoticlistening_ba-da.mp3	ba	da	1	left
6.6.1	win	2023-06-20	20:12:30	20:28:34	959377	5c086d3d3be61100011a694d	2	1	main_z	24	advance_on_keypress_ZEE	122	stimuli_distractor_diamondtriangles.svg	stimuli_target_diamondsquares.svg	32	yes	57	0	488	6	6	antiphase_hc_ois.wav	3	6	4	noise_calib_stim_RIGHT.wav	2	2	blb_dichoticlistening_ba-da.mp3	ba	da	1	left
6.6.1	win	2023-06-20	20:12:30	20:28:36	961280	5c086d3d3be61100011a694d	2	1	main_z	24	main_z	123	stimuli_target_trianglerectangles.svg	stimuli_distractor_trianglediamonds.svg	17	yes	44	1	778	6	6	antiphase_hc_ois.wav	3	6	4	noise_calib_stim_RIGHT.wav	2	2	blb_dichoticlistening_ba-da.mp3	ba	da	1	left
6.6.1	win	2023-06-20	20:12:30	20:28:36	961280	5c086d3d3be61100011a694d	2	1	main_z	24	advance_on_keypress_ZEE	124	stimuli_target_trianglerectangles.svg	stimuli_distractor_trianglediamonds.svg	17	yes	57	0	770	6	6	antiphase_hc_ois.wav	3	6	4	noise_calib_stim_RIGHT.wav	2	2	blb_dichoticlistening_ba-da.mp3	ba	da	1	left
6.6.1	win	2023-06-20	20:12:30	20:28:38	963251	5c086d3d3be61100011a694d	2	1	main_z	24	main_z	125	stimuli_target_trianglesquares.svg	stimuli_distractor_trianglediamonds.svg	18	yes	44	1	549	6	6	antiphase_hc_ois.wav	3	6	4	noise_calib_stim_RIGHT.wav	2	2	blb_dichoticlistening_ba-da.mp3	ba	da	1	left
6.6.1	win	2023-06-20	20:12:30	20:28:38	963251	5c086d3d3be61100011a694d	2	1	main_z	24	advance_on_keypress_ZEE	126	stimuli_target_trianglesquares.svg	stimuli_distractor_trianglediamonds.svg	18	yes	57	0	486	6	6	antiphase_hc_ois.wav	3	6	4	noise_calib_stim_RIGHT.wav	2	2	blb_dichoticlistening_ba-da.mp3	ba	da	1	left
6.6.1	win	2023-06-20	20:12:30	20:28:40	965233	5c086d3d3be61100011a694d	2	1	main_z	24	main_z	127	stimuli_target_diamondrectangles.svg	stimuli_distractor_trianglediamonds.svg	19	yes	44	1	849	6	6	antiphase_hc_ois.wav	3	6	4	noise_calib_stim_RIGHT.wav	2	2	blb_dichoticlistening_ba-da.mp3	ba	da	1	left
6.6.1	win	2023-06-20	20:12:30	20:28:40	965233	5c086d3d3be61100011a694d	2	1	main_z	24	advance_on_keypress_ZEE	128	stimuli_target_diamondrectangles.svg	stimuli_distractor_trianglediamonds.svg	19	yes	57	0	457	6	6	antiphase_hc_ois.wav	3	6	4	noise_calib_stim_RIGHT.wav	2	2	blb_dichoticlistening_ba-da.mp3	ba	da	1	left
6.6.1	win	2023-06-20	20:12:30	20:28:43	968335	5c086d3d3be61100011a694d	2	1	main_z	24	main_z	129	stimuli_distractor_diamondtriangles.svg	stimuli_distractor_diamondtriangles.svg	39	no	0	1	2000	6	6	antiphase_hc_ois.wav	3	6	4	noise_calib_stim_RIGHT.wav	2	2	blb_dichoticlistening_ba-da.mp3	ba	da	1	left
6.6.1	win	2023-06-20	20:12:30	20:28:43	968335	5c086d3d3be61100011a694d	2	1	main_z	24	advance_on_keypress_ZEE	130	stimuli_distractor_diamondtriangles.svg	stimuli_distractor_diamondtriangles.svg	39	no	57	0	1033	6	6	antiphase_hc_ois.wav	3	6	4	noise_calib_stim_RIGHT.wav	2	2	blb_dichoticlistening_ba-da.mp3	ba	da	1	left
6.6.1	win	2023-06-20	20:12:30	20:28:45	970729	5c086d3d3be61100011a694d	2	1	main_z	24	main_z	131	stimuli_distractor_diamondtriangles.svg	stimuli_target_squarediamonds.svg	16	yes	44	1	712	6	6	antiphase_hc_ois.wav	3	6	4	noise_calib_stim_RIGHT.wav	2	2	blb_dichoticlistening_ba-da.mp3	ba	da	1	left
6.6.1	win	2023-06-20	20:12:30	20:28:45	970729	5c086d3d3be61100011a694d	2	1	main_z	24	advance_on_keypress_ZEE	132	stimuli_distractor_diamondtriangles.svg	stimuli_target_squarediamonds.svg	16	yes	57	0	472	6	6	antiphase_hc_ois.wav	3	6	4	noise_calib_stim_RIGHT.wav	2	2	blb_dichoticlistening_ba-da.mp3	ba	da	1	left
6.6.1	win	2023-06-20	20:12:30	20:28:47	972743	5c086d3d3be61100011a694d	2	1	main_z	24	main_z	133	stimuli_distractor_trianglediamonds.svg	stimuli_target_rectangletriangles.svg	9	yes	44	1	910	6	6	antiphase_hc_ois.wav	3	6	4	noise_calib_stim_RIGHT.wav	2	2	blb_dichoticlistening_ba-da.mp3	ba	da	1	left
6.6.1	win	2023-06-20	20:12:30	20:28:47	972743	5c086d3d3be61100011a694d	2	1	main_z	24	advance_on_keypress_ZEE	134	stimuli_distractor_trianglediamonds.svg	stimuli_target_rectangletriangles.svg	9	yes	57	0	488	6	6	antiphase_hc_ois.wav	3	6	4	noise_calib_stim_RIGHT.wav	2	2	blb_dichoticlistening_ba-da.mp3	ba	da	1	left
6.6.1	win	2023-06-20	20:12:30	20:28:51	975867	5c086d3d3be61100011a694d	2	1	main_z	24	main_z	135	stimuli_distractor_trianglediamonds.svg	stimuli_distractor_trianglediamonds.svg	33	no	0	1	2000	6	6	antiphase_hc_ois.wav	3	6	4	noise_calib_stim_RIGHT.wav	2	2	blb_dichoticlistening_ba-da.mp3	ba	da	1	left
6.6.1	win	2023-06-20	20:12:30	20:28:51	975867	5c086d3d3be61100011a694d	2	1	main_z	24	advance_on_keypress_ZEE	136	stimuli_distractor_trianglediamonds.svg	stimuli_distractor_trianglediamonds.svg	33	no	57	0	480	6	6	antiphase_hc_ois.wav	3	6	4	noise_calib_stim_RIGHT.wav	2	2	blb_dichoticlistening_ba-da.mp3	ba	da	1	left
6.6.1	win	2023-06-20	20:12:30	20:28:52	977692	5c086d3d3be61100011a694d	2	1	main_z	24	main_z	137	stimuli_distractor_trianglediamonds.svg	stimuli_target_squarediamonds.svg	12	yes	44	1	692	6	6	antiphase_hc_ois.wav	3	6	4	noise_calib_stim_RIGHT.wav	2	2	blb_dichoticlistening_ba-da.mp3	ba	da	1	left
6.6.1	win	2023-06-20	20:12:30	20:28:52	977692	5c086d3d3be61100011a694d	2	1	main_z	24	advance_on_keypress_ZEE	138	stimuli_distractor_trianglediamonds.svg	stimuli_target_squarediamonds.svg	12	yes	57	0	1312	6	6	antiphase_hc_ois.wav	3	6	4	noise_calib_stim_RIGHT.wav	2	2	blb_dichoticlistening_ba-da.mp3	ba	da	1	left
6.6.1	win	2023-06-20	20:12:30	20:28:56	980939	5c086d3d3be61100011a694d	2	1	main_z	24	main_z	139	stimuli_distractor_diamondtriangles.svg	stimuli_target_squaretriangles.svg	15	yes	44	1	1306	6	6	antiphase_hc_ois.wav	3	6	4	noise_calib_stim_RIGHT.wav	2	2	blb_dichoticlistening_ba-da.mp3	ba	da	1	left
6.6.1	win	2023-06-20	20:12:30	20:28:56	980939	5c086d3d3be61100011a694d	2	1	main_z	24	advance_on_keypress_ZEE	140	stimuli_distractor_diamondtriangles.svg	stimuli_target_squaretriangles.svg	15	yes	57	0	2102	6	6	antiphase_hc_ois.wav	3	6	4	noise_calib_stim_RIGHT.wav	2	2	blb_dichoticlistening_ba-da.mp3	ba	da	1	left
6.6.1	win	2023-06-20	20:12:30	20:28:59	984693	5c086d3d3be61100011a694d	2	1	main_z	24	main_z	141	stimuli_target_diamondrectangles.svg	stimuli_distractor_diamondtriangles.svg	23	yes	44	1	1010	6	6	antiphase_hc_ois.wav	3	6	4	noise_calib_stim_RIGHT.wav	2	2	blb_dichoticlistening_ba-da.mp3	ba	da	1	left
6.6.1	win	2023-06-20	20:12:30	20:28:59	984693	5c086d3d3be61100011a694d	2	1	main_z	24	advance_on_keypress_ZEE	142	stimuli_target_diamondrectangles.svg	stimuli_distractor_diamondtriangles.svg	23	yes	57	0	2245	6	6	antiphase_hc_ois.wav	3	6	4	noise_calib_stim_RIGHT.wav	2	2	blb_dichoticlistening_ba-da.mp3	ba	da	1	left
6.6.1	win	2023-06-20	20:12:30	20:29:03	988120	5c086d3d3be61100011a694d	2	1	main_z	24	main_z	143	stimuli_target_rectangletriangles.svg	stimuli_distractor_diamondtriangles.svg	5	yes	44	1	554	6	6	antiphase_hc_ois.wav	3	6	4	noise_calib_stim_RIGHT.wav	2	2	blb_dichoticlistening_ba-da.mp3	ba	da	1	left
6.6.1	win	2023-06-20	20:12:30	20:29:03	988120	5c086d3d3be61100011a694d	2	1	main_z	24	advance_on_keypress_ZEE	144	stimuli_target_rectangletriangles.svg	stimuli_distractor_diamondtriangles.svg	5	yes	57	0	497	6	6	antiphase_hc_ois.wav	3	6	4	noise_calib_stim_RIGHT.wav	2	2	blb_dichoticlistening_ba-da.mp3	ba	da	1	left
6.6.1	win	2023-06-20	20:12:30	20:29:06	991265	5c086d3d3be61100011a694d	2	1	main_z	24	main_z	145	stimuli_distractor_trianglediamonds.svg	stimuli_distractor_diamondtriangles.svg	35	no	0	1	2000	6	6	antiphase_hc_ois.wav	3	6	4	noise_calib_stim_RIGHT.wav	2	2	blb_dichoticlistening_ba-da.mp3	ba	da	1	left
6.6.1	win	2023-06-20	20:12:30	20:29:06	991265	5c086d3d3be61100011a694d	2	1	main_z	24	advance_on_keypress_ZEE	146	stimuli_distractor_trianglediamonds.svg	stimuli_distractor_diamondtriangles.svg	35	no	57	0	749	6	6	antiphase_hc_ois.wav	3	6	4	noise_calib_stim_RIGHT.wav	2	2	blb_dichoticlistening_ba-da.mp3	ba	da	1	left
6.6.1	win	2023-06-20	20:12:30	20:29:09	994665	5c086d3d3be61100011a694d	2	1	main_z	24	main_z	147	stimuli_distractor_trianglediamonds.svg	stimuli_distractor_diamondtriangles.svg	36	no	0	1	2000	6	6	antiphase_hc_ois.wav	3	6	4	noise_calib_stim_RIGHT.wav	2	2	blb_dichoticlistening_ba-da.mp3	ba	da	1	left
6.6.1	win	2023-06-20	20:12:30	20:29:09	994665	5c086d3d3be61100011a694d	2	1	main_z	24	advance_on_keypress_ZEE	148	stimuli_distractor_trianglediamonds.svg	stimuli_distractor_diamondtriangles.svg	36	no	57	0	580	6	6	antiphase_hc_ois.wav	3	6	4	noise_calib_stim_RIGHT.wav	2	2	blb_dichoticlistening_ba-da.mp3	ba	da	1	left
6.6.1	win	2023-06-20	20:12:30	20:29:11	996482	5c086d3d3be61100011a694d	2	1	main_z	24	main_z	149	stimuli_distractor_trianglediamonds.svg	stimuli_target_rectanglediamonds.svg	10	yes	44	1	583	6	6	antiphase_hc_ois.wav	3	6	4	noise_calib_stim_RIGHT.wav	2	2	blb_dichoticlistening_ba-da.mp3	ba	da	1	left
6.6.1	win	2023-06-20	20:12:30	20:29:11	996482	5c086d3d3be61100011a694d	2	1	main_z	24	advance_on_keypress_ZEE	150	stimuli_distractor_trianglediamonds.svg	stimuli_target_rectanglediamonds.svg	10	yes	57	0	1294	6	6	antiphase_hc_ois.wav	3	6	4	noise_calib_stim_RIGHT.wav	2	2	blb_dichoticlistening_ba-da.mp3	ba	da	1	left
6.6.1	win	2023-06-20	20:12:30	20:29:14	999319	5c086d3d3be61100011a694d	2	1	main_z	24	main_z	151	stimuli_distractor_trianglediamonds.svg	stimuli_target_squaretriangles.svg	11	yes	44	1	904	6	6	antiphase_hc_ois.wav	3	6	4	noise_calib_stim_RIGHT.wav	2	2	blb_dichoticlistening_ba-da.mp3	ba	da	1	left
6.6.1	win	2023-06-20	20:12:30	20:29:14	999319	5c086d3d3be61100011a694d	2	1	main_z	24	advance_on_keypress_ZEE	152	stimuli_distractor_trianglediamonds.svg	stimuli_target_squaretriangles.svg	11	yes	57	0	556	6	6	antiphase_hc_ois.wav	3	6	4	noise_calib_stim_RIGHT.wav	2	2	blb_dichoticlistening_ba-da.mp3	ba	da	1	left
6.6.1	win	2023-06-20	20:12:30	20:29:17	1002515	5c086d3d3be61100011a694d	2	1	main_z	24	main_z	153	stimuli_distractor_diamondtriangles.svg	stimuli_distractor_trianglediamonds.svg	37	no	0	1	2000	6	6	antiphase_hc_ois.wav	3	6	4	noise_calib_stim_RIGHT.wav	2	2	blb_dichoticlistening_ba-da.mp3	ba	da	1	left
6.6.1	win	2023-06-20	20:12:30	20:29:17	1002515	5c086d3d3be61100011a694d	2	1	main_z	24	advance_on_keypress_ZEE	154	stimuli_distractor_diamondtriangles.svg	stimuli_distractor_trianglediamonds.svg	37	no	57	0	737	6	6	antiphase_hc_ois.wav	3	6	4	noise_calib_stim_RIGHT.wav	2	2	blb_dichoticlistening_ba-da.mp3	ba	da	1	left
6.6.1	win	2023-06-20	20:12:30	20:29:19	1004543	5c086d3d3be61100011a694d	2	1	main_z	24	main_z	155	stimuli_distractor_trianglediamonds.svg	stimuli_target_trianglesquares.svg	26	yes	44	1	645	6	6	antiphase_hc_ois.wav	3	6	4	noise_calib_stim_RIGHT.wav	2	2	blb_dichoticlistening_ba-da.mp3	ba	da	1	left
6.6.1	win	2023-06-20	20:12:30	20:29:19	1004543	5c086d3d3be61100011a694d	2	1	main_z	24	advance_on_keypress_ZEE	156	stimuli_distractor_trianglediamonds.svg	stimuli_target_trianglesquares.svg	26	yes	57	0	722	6	6	antiphase_hc_ois.wav	3	6	4	noise_calib_stim_RIGHT.wav	2	2	blb_dichoticlistening_ba-da.mp3	ba	da	1	left
6.6.1	win	2023-06-20	20:12:30	20:29:21	1006573	5c086d3d3be61100011a694d	2	1	main_z	24	main_z	157	stimuli_target_diamondsquares.svg	stimuli_distractor_trianglediamonds.svg	20	yes	44	1	675	6	6	antiphase_hc_ois.wav	3	6	4	noise_calib_stim_RIGHT.wav	2	2	blb_dichoticlistening_ba-da.mp3	ba	da	1	left
6.6.1	win	2023-06-20	20:12:30	20:29:21	1006573	5c086d3d3be61100011a694d	2	1	main_z	24	advance_on_keypress_ZEE	158	stimuli_target_diamondsquares.svg	stimuli_distractor_trianglediamonds.svg	20	yes	57	0	480	6	6	antiphase_hc_ois.wav	3	6	4	noise_calib_stim_RIGHT.wav	2	2	blb_dichoticlistening_ba-da.mp3	ba	da	1	left
6.6.1	win	2023-06-20	20:12:30	20:29:23	1008258	5c086d3d3be61100011a694d	2	1	main_z	24	main_z	159	stimuli_target_diamondsquares.svg	stimuli_distractor_diamondtriangles.svg	24	yes	44	1	561	6	6	antiphase_hc_ois.wav	3	6	4	noise_calib_stim_RIGHT.wav	2	2	blb_dichoticlistening_ba-da.mp3	ba	da	1	left
6.6.1	win	2023-06-20	20:12:30	20:29:23	1008258	5c086d3d3be61100011a694d	2	1	main_z	24	advance_on_keypress_ZEE	160	stimuli_target_diamondsquares.svg	stimuli_distractor_diamondtriangles.svg	24	yes	57	0	539	6	6	antiphase_hc_ois.wav	3	6	4	noise_calib_stim_RIGHT.wav	2	2	blb_dichoticlistening_ba-da.mp3	ba	da	1	left
6.6.1	win	2023-06-20	20:12:30	20:29:55	1040408	5c086d3d3be61100011a694d	2	1	practice_slash	26	practice_slash	1	stimuli_distractor_trianglediamonds.svg	stimuli_target_rectanglediamonds.svg	10	yes	53	1	945	6	6	antiphase_hc_ois.wav	3	6	4	noise_calib_stim_RIGHT.wav	2	2	blb_dichoticlistening_ba-da.mp3	ba	da	1	left
6.6.1	win	2023-06-20	20:12:30	20:29:55	1040408	5c086d3d3be61100011a694d	2	1	practice_slash	26	advance_on_keypress_SLASH	2	stimuli_distractor_trianglediamonds.svg	stimuli_target_rectanglediamonds.svg	10	yes	57	0	1047	6	6	antiphase_hc_ois.wav	3	6	4	noise_calib_stim_RIGHT.wav	2	2	blb_dichoticlistening_ba-da.mp3	ba	da	1	left
6.6.1	win	2023-06-20	20:12:30	20:30:00	1045114	5c086d3d3be61100011a694d	2	1	practice_slash	26	practice_slash	3	stimuli_target_diamondsquares.svg	stimuli_distractor_trianglediamonds.svg	6	yes	0	0	2000	6	6	antiphase_hc_ois.wav	3	6	4	noise_calib_stim_RIGHT.wav	2	2	blb_dichoticlistening_ba-da.mp3	ba	da	1	left
6.6.1	win	2023-06-20	20:12:30	20:30:00	1045114	5c086d3d3be61100011a694d	2	1	practice_slash	26	advance_on_keypress_SLASH	4	stimuli_target_diamondsquares.svg	stimuli_distractor_trianglediamonds.svg	6	yes	57	0	636	6	6	antiphase_hc_ois.wav	3	6	4	noise_calib_stim_RIGHT.wav	2	2	blb_dichoticlistening_ba-da.mp3	ba	da	1	left
6.6.1	win	2023-06-20	20:12:30	20:30:03	1048138	5c086d3d3be61100011a694d	2	1	practice_slash	26	practice_slash	5	stimuli_distractor_trianglediamonds.svg	stimuli_target_diamondrectangles.svg	12	yes	53	1	742	6	6	antiphase_hc_ois.wav	3	6	4	noise_calib_stim_RIGHT.wav	2	2	blb_dichoticlistening_ba-da.mp3	ba	da	1	left
6.6.1	win	2023-06-20	20:12:30	20:30:03	1048138	5c086d3d3be61100011a694d	2	1	practice_slash	26	advance_on_keypress_SLASH	6	stimuli_distractor_trianglediamonds.svg	stimuli_target_diamondrectangles.svg	12	yes	57	0	726	6	6	antiphase_hc_ois.wav	3	6	4	noise_calib_stim_RIGHT.wav	2	2	blb_dichoticlistening_ba-da.mp3	ba	da	1	left
6.6.1	win	2023-06-20	20:12:30	20:30:07	1052497	5c086d3d3be61100011a694d	2	1	practice_slash	26	practice_slash	7	stimuli_distractor_trianglediamonds.svg	stimuli_distractor_trianglediamonds.svg	15	no	0	1	2000	6	6	antiphase_hc_ois.wav	3	6	4	noise_calib_stim_RIGHT.wav	2	2	blb_dichoticlistening_ba-da.mp3	ba	da	1	left
6.6.1	win	2023-06-20	20:12:30	20:30:07	1052497	5c086d3d3be61100011a694d	2	1	practice_slash	26	advance_on_keypress_SLASH	8	stimuli_distractor_trianglediamonds.svg	stimuli_distractor_trianglediamonds.svg	15	no	57	0	483	6	6	antiphase_hc_ois.wav	3	6	4	noise_calib_stim_RIGHT.wav	2	2	blb_dichoticlistening_ba-da.mp3	ba	da	1	left
6.6.1	win	2023-06-20	20:12:30	20:30:11	1056630	5c086d3d3be61100011a694d	2	1	practice_slash	26	practice_slash	9	stimuli_distractor_diamondtriangles.svg	stimuli_distractor_trianglediamonds.svg	14	no	0	1	2000	6	6	antiphase_hc_ois.wav	3	6	4	noise_calib_stim_RIGHT.wav	2	2	blb_dichoticlistening_ba-da.mp3	ba	da	1	left
6.6.1	win	2023-06-20	20:12:30	20:30:11	1056630	5c086d3d3be61100011a694d	2	1	practice_slash	26	advance_on_keypress_SLASH	10	stimuli_distractor_diamondtriangles.svg	stimuli_distractor_trianglediamonds.svg	14	no	57	0	380	6	6	antiphase_hc_ois.wav	3	6	4	noise_calib_stim_RIGHT.wav	2	2	blb_dichoticlistening_ba-da.mp3	ba	da	1	left
6.6.1	win	2023-06-20	20:12:30	20:30:14	1059396	5c086d3d3be61100011a694d	2	1	practice_slash	26	practice_slash	11	stimuli_distractor_diamondtriangles.svg	stimuli_target_diamondrectangles.svg	8	yes	53	1	733	6	6	antiphase_hc_ois.wav	3	6	4	noise_calib_stim_RIGHT.wav	2	2	blb_dichoticlistening_ba-da.mp3	ba	da	1	left
6.6.1	win	2023-06-20	20:12:30	20:30:14	1059396	5c086d3d3be61100011a694d	2	1	practice_slash	26	advance_on_keypress_SLASH	12	stimuli_distractor_diamondtriangles.svg	stimuli_target_diamondrectangles.svg	8	yes	57	0	492	6	6	antiphase_hc_ois.wav	3	6	4	noise_calib_stim_RIGHT.wav	2	2	blb_dichoticlistening_ba-da.mp3	ba	da	1	left
6.6.1	win	2023-06-20	20:12:30	20:30:18	1063529	5c086d3d3be61100011a694d	2	1	practice_slash	26	practice_slash	13	stimuli_distractor_diamondtriangles.svg	stimuli_distractor_diamondtriangles.svg	13	no	0	1	2000	6	6	antiphase_hc_ois.wav	3	6	4	noise_calib_stim_RIGHT.wav	2	2	blb_dichoticlistening_ba-da.mp3	ba	da	1	left
6.6.1	win	2023-06-20	20:12:30	20:30:18	1063529	5c086d3d3be61100011a694d	2	1	practice_slash	26	advance_on_keypress_SLASH	14	stimuli_distractor_diamondtriangles.svg	stimuli_distractor_diamondtriangles.svg	13	no	57	0	409	6	6	antiphase_hc_ois.wav	3	6	4	noise_calib_stim_RIGHT.wav	2	2	blb_dichoticlistening_ba-da.mp3	ba	da	1	left
6.6.1	win	2023-06-20	20:12:30	20:30:21	1066189	5c086d3d3be61100011a694d	2	1	practice_slash	26	practice_slash	15	stimuli_target_diamondsquares.svg	stimuli_distractor_diamondtriangles.svg	3	yes	53	1	611	6	6	antiphase_hc_ois.wav	3	6	4	noise_calib_stim_RIGHT.wav	2	2	blb_dichoticlistening_ba-da.mp3	ba	da	1	left
6.6.1	win	2023-06-20	20:12:30	20:30:21	1066189	5c086d3d3be61100011a694d	2	1	practice_slash	26	advance_on_keypress_SLASH	16	stimuli_target_diamondsquares.svg	stimuli_distractor_diamondtriangles.svg	3	yes	57	0	815	6	6	antiphase_hc_ois.wav	3	6	4	noise_calib_stim_RIGHT.wav	2	2	blb_dichoticlistening_ba-da.mp3	ba	da	1	left
6.6.1	win	2023-06-20	20:12:30	20:30:24	1069254	5c086d3d3be61100011a694d	2	1	practice_slash	26	practice_slash	17	stimuli_target_rectanglediamonds.svg	stimuli_distractor_diamondtriangles.svg	1	yes	53	1	608	6	6	antiphase_hc_ois.wav	3	6	4	noise_calib_stim_RIGHT.wav	2	2	blb_dichoticlistening_ba-da.mp3	ba	da	1	left
6.6.1	win	2023-06-20	20:12:30	20:30:24	1069254	5c086d3d3be61100011a694d	2	1	practice_slash	26	advance_on_keypress_SLASH	18	stimuli_target_rectanglediamonds.svg	stimuli_distractor_diamondtriangles.svg	1	yes	57	0	588	6	6	antiphase_hc_ois.wav	3	6	4	noise_calib_stim_RIGHT.wav	2	2	blb_dichoticlistening_ba-da.mp3	ba	da	1	left
6.6.1	win	2023-06-20	20:12:30	20:30:27	1072075	5c086d3d3be61100011a694d	2	1	practice_slash	26	practice_slash	19	stimuli_target_squarediamonds.svg	stimuli_distractor_trianglediamonds.svg	5	yes	53	1	596	6	6	antiphase_hc_ois.wav	3	6	4	noise_calib_stim_RIGHT.wav	2	2	blb_dichoticlistening_ba-da.mp3	ba	da	1	left
