build	computer.platform	date	time	timestamp	time_elapsed_ms	subject	group	session	blockcode	blocknum	trialcode	trialnum	stimulus_left	stimulus_right	stim_index	target_present	response	correct	latency	headphonecheck_countTestTrials	headphonecheck_index	headphonecheck_testSound	headphonecheck_correctResponse	stereocheck_countTestTrials	stereocheck_index	stereocheck_testSound	stereocheck_correctResponse	DL_index	DL_soundfile	DL_leftSound	DL_rightSound	DL_dualSound	DL_choice
6.6.1	win	2023-07-08	12:37:25	0	0	577d1216b425c40001434b2f	1	1	headphonecheck_calibration	4	headphonecheck_calibrationIntro	1			0		calibrationButton	0	3957	0	0			0	0			1				0	
6.6.1	win	2023-07-08	12:37:25	0	0	577d1216b425c40001434b2f	1	1	headphonecheck_testphase	5	test_collectResponse	3			0		second	1	775	1	1	antiphase_hc_iso.wav	2	0	0			1				0	
6.6.1	win	2023-07-08	12:37:25	0	0	577d1216b425c40001434b2f	1	1	headphonecheck_testphase	5	test_collectResponse	6			0		third	1	970	2	6	antiphase_hc_ois.wav	3	0	0			1				0	
6.6.1	win	2023-07-08	12:37:25	0	0	577d1216b425c40001434b2f	1	1	headphonecheck_testphase	5	test_collectResponse	9			0		first	1	683	3	4	antiphase_hc_sio.wav	1	0	0			1				0	
6.6.1	win	2023-07-08	12:37:25	0	0	577d1216b425c40001434b2f	1	1	headphonecheck_testphase	5	test_collectResponse	12			0		first	1	588	4	3	antiphase_hc_soi.wav	1	0	0			1				0	
6.6.1	win	2023-07-08	12:37:25	0	0	577d1216b425c40001434b2f	1	1	headphonecheck_testphase	5	test_collectResponse	15			0		second	1	653	5	5	antiphase_hc_osi.wav	2	0	0			1				0	
6.6.1	win	2023-07-08	12:37:25	0	0	577d1216b425c40001434b2f	1	1	headphonecheck_testphase	5	test_collectResponse	18			0		third	1	547	6	2	antiphase_hc_ios.wav	3	0	0			1				0	
6.6.1	win	2023-07-08	12:37:25	0	0	577d1216b425c40001434b2f	1	1	stereocheck_calibration	7	stereocheck_calibrationIntro	1			0		stereocheck_calibrationButton	0	4390	6	2	antiphase_hc_ios.wav	3	0	0			1				0	
6.6.1	win	2023-07-08	12:37:25	0	0	577d1216b425c40001434b2f	1	1	stereocheck_testphase	8	stereocheck_test_collectResponse	3			0		stereocheck_left	1	532	6	2	antiphase_hc_ios.wav	3	1	1	noise_calib_stim_LEFT.wav	1	1				0	
6.6.1	win	2023-07-08	12:37:25	0	0	577d1216b425c40001434b2f	1	1	stereocheck_testphase	8	stereocheck_test_collectResponse	6			0		stereocheck_right	1	355	6	2	antiphase_hc_ios.wav	3	2	5	noise_calib_stim_RIGHT.wav	2	1				0	
6.6.1	win	2023-07-08	12:37:25	0	0	577d1216b425c40001434b2f	1	1	stereocheck_testphase	8	stereocheck_test_collectResponse	9			0		stereocheck_left	1	363	6	2	antiphase_hc_ios.wav	3	3	3	noise_calib_stim_LEFT.wav	1	1				0	
6.6.1	win	2023-07-08	12:37:25	0	0	577d1216b425c40001434b2f	1	1	stereocheck_testphase	8	stereocheck_test_collectResponse	12			0		stereocheck_right	1	399	6	2	antiphase_hc_ios.wav	3	4	6	noise_calib_stim_RIGHT.wav	2	1				0	
6.6.1	win	2023-07-08	12:37:25	0	0	577d1216b425c40001434b2f	1	1	stereocheck_testphase	8	stereocheck_test_collectResponse	15			0		stereocheck_left	1	247	6	2	antiphase_hc_ios.wav	3	5	2	noise_calib_stim_LEFT.wav	1	1				0	
6.6.1	win	2023-07-08	12:37:25	0	0	577d1216b425c40001434b2f	1	1	stereocheck_testphase	8	stereocheck_test_collectResponse	18			0		stereocheck_right	1	301	6	2	antiphase_hc_ios.wav	3	6	4	noise_calib_stim_RIGHT.wav	2	1				0	
6.6.1	win	2023-07-08	12:37:25	0	0	577d1216b425c40001434b2f	1	1	DL_practice	11	DL_practice	2			0		ka	1	1410	6	2	antiphase_hc_ios.wav	3	6	4	noise_calib_stim_RIGHT.wav	2	23	blb_dichoticlistening_ka-pa.mp3	ka	pa	1	left
6.6.1	win	2023-07-08	12:37:25	0	0	577d1216b425c40001434b2f	1	1	DL_practice	11	DL_practice	3			0		da	1	1082	6	2	antiphase_hc_ios.wav	3	6	4	noise_calib_stim_RIGHT.wav	2	8	blb_dichoticlistening_da-da.mp3	da	da	0	left
6.6.1	win	2023-07-08	12:37:25	0	0	577d1216b425c40001434b2f	1	1	DL_practice	11	DL_practice	4			0		ba	1	1812	6	2	antiphase_hc_ios.wav	3	6	4	noise_calib_stim_RIGHT.wav	2	1	blb_dichoticlistening_ba-ba.mp3	ba	ba	0	left
6.6.1	win	2023-07-08	12:37:25	0	0	577d1216b425c40001434b2f	1	1	DL_practice	11	DL_practice	5			0		ta	1	1609	6	2	antiphase_hc_ios.wav	3	6	4	noise_calib_stim_RIGHT.wav	2	18	blb_dichoticlistening_ga-ta.mp3	ga	ta	1	right
6.6.1	win	2023-07-08	12:37:25	0	0	577d1216b425c40001434b2f	1	1	DL_practice	11	DL_practice	6			0		da	1	1769	6	2	antiphase_hc_ios.wav	3	6	4	noise_calib_stim_RIGHT.wav	2	7	blb_dichoticlistening_da-ba.mp3	da	ba	1	left
6.6.1	win	2023-07-08	12:37:25	0	0	577d1216b425c40001434b2f	1	1	DL_practice	11	DL_practice	7			0		ga	1	1144	6	2	antiphase_hc_ios.wav	3	6	4	noise_calib_stim_RIGHT.wav	2	15	blb_dichoticlistening_ga-ga.mp3	ga	ga	0	left
6.6.1	win	2023-07-08	12:37:25	0	0	577d1216b425c40001434b2f	1	1	DL_practice	11	DL_practice	8			0		pa	1	1433	6	2	antiphase_hc_ios.wav	3	6	4	noise_calib_stim_RIGHT.wav	2	29	blb_dichoticlistening_pa-pa.mp3	pa	pa	0	left
6.6.1	win	2023-07-08	12:37:25	0	0	577d1216b425c40001434b2f	1	1	DL_practice	11	DL_practice	9			0		ka	1	911	6	2	antiphase_hc_ios.wav	3	6	4	noise_calib_stim_RIGHT.wav	2	22	blb_dichoticlistening_ka-ka.mp3	ka	ka	0	left
6.6.1	win	2023-07-08	12:37:25	0	0	577d1216b425c40001434b2f	1	1	DL_practice	11	DL_practice	10			0		ta	1	1025	6	2	antiphase_hc_ios.wav	3	6	4	noise_calib_stim_RIGHT.wav	2	36	blb_dichoticlistening_ta-ta.mp3	ta	ta	0	left
6.6.1	win	2023-07-08	12:37:25	0	0	577d1216b425c40001434b2f	1	1	DL_test	13	DL_test	1			0		ka	1	943	6	2	antiphase_hc_ios.wav	3	6	4	noise_calib_stim_RIGHT.wav	2	16	blb_dichoticlistening_ga-ka.mp3	ga	ka	1	right
6.6.1	win	2023-07-08	12:37:25	0	0	577d1216b425c40001434b2f	1	1	DL_test	13	DL_test	2			0		pa	0	1088	6	2	antiphase_hc_ios.wav	3	6	4	noise_calib_stim_RIGHT.wav	2	10	blb_dichoticlistening_da-ka.mp3	da	ka	1	other
6.6.1	win	2023-07-08	12:37:25	0	0	577d1216b425c40001434b2f	1	1	DL_test	13	DL_test	3			0		ka	1	985	6	2	antiphase_hc_ios.wav	3	6	4	noise_calib_stim_RIGHT.wav	2	4	blb_dichoticlistening_ba-ka.mp3	ba	ka	1	right
6.6.1	win	2023-07-08	12:37:25	0	0	577d1216b425c40001434b2f	1	1	DL_test	13	DL_test	4			0		pa	1	1233	6	2	antiphase_hc_ios.wav	3	6	4	noise_calib_stim_RIGHT.wav	2	26	blb_dichoticlistening_pa-da.mp3	pa	da	1	left
6.6.1	win	2023-07-08	12:37:25	0	0	577d1216b425c40001434b2f	1	1	DL_test	13	DL_test	5			0		ga	1	1373	6	2	antiphase_hc_ios.wav	3	6	4	noise_calib_stim_RIGHT.wav	2	33	blb_dichoticlistening_ta-ga.mp3	ta	ga	1	right
6.6.1	win	2023-07-08	12:37:25	0	0	577d1216b425c40001434b2f	1	1	DL_test	13	DL_test	6			0		ka	1	1134	6	2	antiphase_hc_ios.wav	3	6	4	noise_calib_stim_RIGHT.wav	2	22	blb_dichoticlistening_ka-ka.mp3	ka	ka	0	left
6.6.1	win	2023-07-08	12:37:25	0	0	577d1216b425c40001434b2f	1	1	DL_test	13	DL_test	7			0		pa	1	1229	6	2	antiphase_hc_ios.wav	3	6	4	noise_calib_stim_RIGHT.wav	2	27	blb_dichoticlistening_pa-ga.mp3	pa	ga	1	left
6.6.1	win	2023-07-08	12:37:25	0	0	577d1216b425c40001434b2f	1	1	DL_test	13	DL_test	8			0		ga	1	1379	6	2	antiphase_hc_ios.wav	3	6	4	noise_calib_stim_RIGHT.wav	2	13	blb_dichoticlistening_ga-ba.mp3	ga	ba	1	left
6.6.1	win	2023-07-08	12:37:25	0	0	577d1216b425c40001434b2f	1	1	DL_test	13	DL_test	9			0		ba	1	1210	6	2	antiphase_hc_ios.wav	3	6	4	noise_calib_stim_RIGHT.wav	2	2	blb_dichoticlistening_ba-da.mp3	ba	da	1	left
6.6.1	win	2023-07-08	12:37:25	0	0	577d1216b425c40001434b2f	1	1	DL_test	13	DL_test	10			0		ta	1	1447	6	2	antiphase_hc_ios.wav	3	6	4	noise_calib_stim_RIGHT.wav	2	6	blb_dichoticlistening_ba-ta.mp3	ba	ta	1	right
6.6.1	win	2023-07-08	12:37:25	0	0	577d1216b425c40001434b2f	1	1	DL_test	13	DL_test	11			0		da	1	1131	6	2	antiphase_hc_ios.wav	3	6	4	noise_calib_stim_RIGHT.wav	2	8	blb_dichoticlistening_da-da.mp3	da	da	0	left
6.6.1	win	2023-07-08	12:37:25	0	0	577d1216b425c40001434b2f	1	1	DL_test	13	DL_test	12			0		ba	1	860	6	2	antiphase_hc_ios.wav	3	6	4	noise_calib_stim_RIGHT.wav	2	1	blb_dichoticlistening_ba-ba.mp3	ba	ba	0	left
6.6.1	win	2023-07-08	12:37:25	0	0	577d1216b425c40001434b2f	1	1	DL_test	13	DL_test	13			0		pa	1	1281	6	2	antiphase_hc_ios.wav	3	6	4	noise_calib_stim_RIGHT.wav	2	28	blb_dichoticlistening_pa-ka.mp3	pa	ka	1	left
6.6.1	win	2023-07-08	12:37:25	0	0	577d1216b425c40001434b2f	1	1	DL_test	13	DL_test	14			0		ta	1	1156	6	2	antiphase_hc_ios.wav	3	6	4	noise_calib_stim_RIGHT.wav	2	12	blb_dichoticlistening_da-ta.mp3	da	ta	1	right
6.6.1	win	2023-07-08	12:37:25	0	0	577d1216b425c40001434b2f	1	1	DL_test	13	DL_test	15			0		ka	1	1163	6	2	antiphase_hc_ios.wav	3	6	4	noise_calib_stim_RIGHT.wav	2	23	blb_dichoticlistening_ka-pa.mp3	ka	pa	1	left
6.6.1	win	2023-07-08	12:37:25	0	0	577d1216b425c40001434b2f	1	1	DL_test	13	DL_test	16			0		pa	1	930	6	2	antiphase_hc_ios.wav	3	6	4	noise_calib_stim_RIGHT.wav	2	5	blb_dichoticlistening_ba-pa.mp3	ba	pa	1	right
6.6.1	win	2023-07-08	12:37:25	0	0	577d1216b425c40001434b2f	1	1	DL_test	13	DL_test	17			0		ga	1	1059	6	2	antiphase_hc_ios.wav	3	6	4	noise_calib_stim_RIGHT.wav	2	15	blb_dichoticlistening_ga-ga.mp3	ga	ga	0	left
6.6.1	win	2023-07-08	12:37:25	0	0	577d1216b425c40001434b2f	1	1	DL_test	13	DL_test	18			0		da	1	856	6	2	antiphase_hc_ios.wav	3	6	4	noise_calib_stim_RIGHT.wav	2	9	blb_dichoticlistening_da-ga.mp3	da	ga	1	left
6.6.1	win	2023-07-08	12:37:25	0	0	577d1216b425c40001434b2f	1	1	DL_test	13	DL_test	19			0		ba	1	1219	6	2	antiphase_hc_ios.wav	3	6	4	noise_calib_stim_RIGHT.wav	2	3	blb_dichoticlistening_ba-ga.mp3	ba	ga	1	left
6.6.1	win	2023-07-08	12:37:25	0	0	577d1216b425c40001434b2f	1	1	DL_test	13	DL_test	20			0		ta	1	1088	6	2	antiphase_hc_ios.wav	3	6	4	noise_calib_stim_RIGHT.wav	2	18	blb_dichoticlistening_ga-ta.mp3	ga	ta	1	right
6.6.1	win	2023-07-08	12:37:25	0	0	577d1216b425c40001434b2f	1	1	DL_test	13	DL_test	21			0		ka	1	1114	6	2	antiphase_hc_ios.wav	3	6	4	noise_calib_stim_RIGHT.wav	2	24	blb_dichoticlistening_ka-ta.mp3	ka	ta	1	left
6.6.1	win	2023-07-08	12:37:25	0	0	577d1216b425c40001434b2f	1	1	DL_test	13	DL_test	22			0		pa	1	884	6	2	antiphase_hc_ios.wav	3	6	4	noise_calib_stim_RIGHT.wav	2	17	blb_dichoticlistening_ga-pa.mp3	ga	pa	1	right
6.6.1	win	2023-07-08	12:37:25	0	0	577d1216b425c40001434b2f	1	1	DL_test	13	DL_test	23			0		ka	1	783	6	2	antiphase_hc_ios.wav	3	6	4	noise_calib_stim_RIGHT.wav	2	19	blb_dichoticlistening_ka-ba.mp3	ka	ba	1	left
6.6.1	win	2023-07-08	12:37:25	0	0	577d1216b425c40001434b2f	1	1	DL_test	13	DL_test	24			0		ba	1	1078	6	2	antiphase_hc_ios.wav	3	6	4	noise_calib_stim_RIGHT.wav	2	7	blb_dichoticlistening_da-ba.mp3	da	ba	1	right
6.6.1	win	2023-07-08	12:37:25	0	0	577d1216b425c40001434b2f	1	1	DL_test	13	DL_test	25			0		ka	1	929	6	2	antiphase_hc_ios.wav	3	6	4	noise_calib_stim_RIGHT.wav	2	34	blb_dichoticlistening_ta-ka.mp3	ta	ka	1	right
6.6.1	win	2023-07-08	12:37:25	0	0	577d1216b425c40001434b2f	1	1	DL_test	13	DL_test	26			0		ka	1	810	6	2	antiphase_hc_ios.wav	3	6	4	noise_calib_stim_RIGHT.wav	2	20	blb_dichoticlistening_ka-da.mp3	ka	da	1	left
6.6.1	win	2023-07-08	12:37:25	0	0	577d1216b425c40001434b2f	1	1	DL_test	13	DL_test	27			0		pa	1	887	6	2	antiphase_hc_ios.wav	3	6	4	noise_calib_stim_RIGHT.wav	2	25	blb_dichoticlistening_pa-ba.mp3	pa	ba	1	left
6.6.1	win	2023-07-08	12:37:25	0	0	577d1216b425c40001434b2f	1	1	DL_test	13	DL_test	28			0		ta	1	1211	6	2	antiphase_hc_ios.wav	3	6	4	noise_calib_stim_RIGHT.wav	2	36	blb_dichoticlistening_ta-ta.mp3	ta	ta	0	left
6.6.1	win	2023-07-08	12:37:25	0	0	577d1216b425c40001434b2f	1	1	DL_test	13	DL_test	29			0		ta	1	1241	6	2	antiphase_hc_ios.wav	3	6	4	noise_calib_stim_RIGHT.wav	2	31	blb_dichoticlistening_ta-ba.mp3	ta	ba	1	left
6.6.1	win	2023-07-08	12:37:25	0	0	577d1216b425c40001434b2f	1	1	DL_test	13	DL_test	30			0		ka	1	956	6	2	antiphase_hc_ios.wav	3	6	4	noise_calib_stim_RIGHT.wav	2	21	blb_dichoticlistening_ka-ga.mp3	ka	ga	1	left
6.6.1	win	2023-07-08	12:37:25	0	0	577d1216b425c40001434b2f	1	1	DL_test	13	DL_test	31			0		da	1	861	6	2	antiphase_hc_ios.wav	3	6	4	noise_calib_stim_RIGHT.wav	2	14	blb_dichoticlistening_ga-da.mp3	ga	da	1	right
6.6.1	win	2023-07-08	12:37:25	0	0	577d1216b425c40001434b2f	1	1	DL_test	13	DL_test	32			0		da	1	1554	6	2	antiphase_hc_ios.wav	3	6	4	noise_calib_stim_RIGHT.wav	2	32	blb_dichoticlistening_ta-da.mp3	ta	da	1	right
6.6.1	win	2023-07-08	12:37:25	0	0	577d1216b425c40001434b2f	1	1	DL_test	13	DL_test	33			0		pa	1	905	6	2	antiphase_hc_ios.wav	3	6	4	noise_calib_stim_RIGHT.wav	2	11	blb_dichoticlistening_da-pa.mp3	da	pa	1	right
6.6.1	win	2023-07-08	12:37:25	0	0	577d1216b425c40001434b2f	1	1	DL_test	13	DL_test	34			0		pa	1	924	6	2	antiphase_hc_ios.wav	3	6	4	noise_calib_stim_RIGHT.wav	2	30	blb_dichoticlistening_pa-ta.mp3	pa	ta	1	left
6.6.1	win	2023-07-08	12:37:25	0	0	577d1216b425c40001434b2f	1	1	DL_test	13	DL_test	35			0		pa	1	779	6	2	antiphase_hc_ios.wav	3	6	4	noise_calib_stim_RIGHT.wav	2	35	blb_dichoticlistening_ta-pa.mp3	ta	pa	1	right
6.6.1	win	2023-07-08	12:37:25	0	0	577d1216b425c40001434b2f	1	1	DL_test	13	DL_test	36			0		pa	1	842	6	2	antiphase_hc_ios.wav	3	6	4	noise_calib_stim_RIGHT.wav	2	29	blb_dichoticlistening_pa-pa.mp3	pa	pa	0	left
6.6.1	win	2023-07-08	12:37:25	0	0	577d1216b425c40001434b2f	1	1	DL_test	14	DL_test	1			0		ba	1	1841	6	2	antiphase_hc_ios.wav	3	6	4	noise_calib_stim_RIGHT.wav	2	3	blb_dichoticlistening_ba-ga.mp3	ba	ga	1	left
6.6.1	win	2023-07-08	12:37:25	0	0	577d1216b425c40001434b2f	1	1	DL_test	14	DL_test	2			0		ka	1	1037	6	2	antiphase_hc_ios.wav	3	6	4	noise_calib_stim_RIGHT.wav	2	22	blb_dichoticlistening_ka-ka.mp3	ka	ka	0	left
6.6.1	win	2023-07-08	12:37:25	0	0	577d1216b425c40001434b2f	1	1	DL_test	14	DL_test	3			0		ta	1	1090	6	2	antiphase_hc_ios.wav	3	6	4	noise_calib_stim_RIGHT.wav	2	36	blb_dichoticlistening_ta-ta.mp3	ta	ta	0	left
6.6.1	win	2023-07-08	12:37:25	0	0	577d1216b425c40001434b2f	1	1	DL_test	14	DL_test	4			0		pa	0	868	6	2	antiphase_hc_ios.wav	3	6	4	noise_calib_stim_RIGHT.wav	2	10	blb_dichoticlistening_da-ka.mp3	da	ka	1	other
6.6.1	win	2023-07-08	12:37:25	0	0	577d1216b425c40001434b2f	1	1	DL_test	14	DL_test	5			0		ka	0	880	6	2	antiphase_hc_ios.wav	3	6	4	noise_calib_stim_RIGHT.wav	2	18	blb_dichoticlistening_ga-ta.mp3	ga	ta	1	other
6.6.1	win	2023-07-08	12:37:25	0	0	577d1216b425c40001434b2f	1	1	DL_test	14	DL_test	6			0		ta	1	1035	6	2	antiphase_hc_ios.wav	3	6	4	noise_calib_stim_RIGHT.wav	2	6	blb_dichoticlistening_ba-ta.mp3	ba	ta	1	right
6.6.1	win	2023-07-08	12:37:25	0	0	577d1216b425c40001434b2f	1	1	DL_test	14	DL_test	7			0		da	1	942	6	2	antiphase_hc_ios.wav	3	6	4	noise_calib_stim_RIGHT.wav	2	9	blb_dichoticlistening_da-ga.mp3	da	ga	1	left
6.6.1	win	2023-07-08	12:37:25	0	0	577d1216b425c40001434b2f	1	1	DL_test	14	DL_test	8			0		pa	1	813	6	2	antiphase_hc_ios.wav	3	6	4	noise_calib_stim_RIGHT.wav	2	26	blb_dichoticlistening_pa-da.mp3	pa	da	1	left
6.6.1	win	2023-07-08	12:37:25	0	0	577d1216b425c40001434b2f	1	1	DL_test	14	DL_test	9			0		ka	1	723	6	2	antiphase_hc_ios.wav	3	6	4	noise_calib_stim_RIGHT.wav	2	24	blb_dichoticlistening_ka-ta.mp3	ka	ta	1	left
6.6.1	win	2023-07-08	12:37:25	0	0	577d1216b425c40001434b2f	1	1	DL_test	14	DL_test	10			0		ka	1	837	6	2	antiphase_hc_ios.wav	3	6	4	noise_calib_stim_RIGHT.wav	2	21	blb_dichoticlistening_ka-ga.mp3	ka	ga	1	left
6.6.1	win	2023-07-08	12:37:25	0	0	577d1216b425c40001434b2f	1	1	DL_test	14	DL_test	11			0		pa	1	890	6	2	antiphase_hc_ios.wav	3	6	4	noise_calib_stim_RIGHT.wav	2	11	blb_dichoticlistening_da-pa.mp3	da	pa	1	right
6.6.1	win	2023-07-08	12:37:25	0	0	577d1216b425c40001434b2f	1	1	DL_test	14	DL_test	12			0		da	1	868	6	2	antiphase_hc_ios.wav	3	6	4	noise_calib_stim_RIGHT.wav	2	8	blb_dichoticlistening_da-da.mp3	da	da	0	left
6.6.1	win	2023-07-08	12:37:25	0	0	577d1216b425c40001434b2f	1	1	DL_test	14	DL_test	13			0		ba	1	887	6	2	antiphase_hc_ios.wav	3	6	4	noise_calib_stim_RIGHT.wav	2	1	blb_dichoticlistening_ba-ba.mp3	ba	ba	0	left
6.6.1	win	2023-07-08	12:37:25	0	0	577d1216b425c40001434b2f	1	1	DL_test	14	DL_test	14			0		ta	1	1147	6	2	antiphase_hc_ios.wav	3	6	4	noise_calib_stim_RIGHT.wav	2	32	blb_dichoticlistening_ta-da.mp3	ta	da	1	left
6.6.1	win	2023-07-08	12:37:25	0	0	577d1216b425c40001434b2f	1	1	DL_test	14	DL_test	15			0		ka	1	763	6	2	antiphase_hc_ios.wav	3	6	4	noise_calib_stim_RIGHT.wav	2	4	blb_dichoticlistening_ba-ka.mp3	ba	ka	1	right
6.6.1	win	2023-07-08	12:37:25	0	0	577d1216b425c40001434b2f	1	1	DL_test	14	DL_test	16			0		pa	1	801	6	2	antiphase_hc_ios.wav	3	6	4	noise_calib_stim_RIGHT.wav	2	28	blb_dichoticlistening_pa-ka.mp3	pa	ka	1	left
6.6.1	win	2023-07-08	12:37:25	0	0	577d1216b425c40001434b2f	1	1	DL_test	14	DL_test	17			0		pa	1	816	6	2	antiphase_hc_ios.wav	3	6	4	noise_calib_stim_RIGHT.wav	2	17	blb_dichoticlistening_ga-pa.mp3	ga	pa	1	right
6.6.1	win	2023-07-08	12:37:25	0	0	577d1216b425c40001434b2f	1	1	DL_test	14	DL_test	18			0		ka	1	730	6	2	antiphase_hc_ios.wav	3	6	4	noise_calib_stim_RIGHT.wav	2	19	blb_dichoticlistening_ka-ba.mp3	ka	ba	1	left
6.6.1	win	2023-07-08	12:37:25	0	0	577d1216b425c40001434b2f	1	1	DL_test	14	DL_test	19			0		pa	1	923	6	2	antiphase_hc_ios.wav	3	6	4	noise_calib_stim_RIGHT.wav	2	25	blb_dichoticlistening_pa-ba.mp3	pa	ba	1	left
6.6.1	win	2023-07-08	12:37:25	0	0	577d1216b425c40001434b2f	1	1	DL_test	14	DL_test	20			0		pa	1	988	6	2	antiphase_hc_ios.wav	3	6	4	noise_calib_stim_RIGHT.wav	2	23	blb_dichoticlistening_ka-pa.mp3	ka	pa	1	right
6.6.1	win	2023-07-08	12:37:25	0	0	577d1216b425c40001434b2f	1	1	DL_test	14	DL_test	21			0		pa	1	836	6	2	antiphase_hc_ios.wav	3	6	4	noise_calib_stim_RIGHT.wav	2	27	blb_dichoticlistening_pa-ga.mp3	pa	ga	1	left
6.6.1	win	2023-07-08	12:37:25	0	0	577d1216b425c40001434b2f	1	1	DL_test	14	DL_test	22			0		ba	1	1008	6	2	antiphase_hc_ios.wav	3	6	4	noise_calib_stim_RIGHT.wav	2	7	blb_dichoticlistening_da-ba.mp3	da	ba	1	right
6.6.1	win	2023-07-08	12:37:25	0	0	577d1216b425c40001434b2f	1	1	DL_test	14	DL_test	23			0		ka	1	853	6	2	antiphase_hc_ios.wav	3	6	4	noise_calib_stim_RIGHT.wav	2	34	blb_dichoticlistening_ta-ka.mp3	ta	ka	1	right
6.6.1	win	2023-07-08	12:37:25	0	0	577d1216b425c40001434b2f	1	1	DL_test	14	DL_test	24			0		ka	1	689	6	2	antiphase_hc_ios.wav	3	6	4	noise_calib_stim_RIGHT.wav	2	16	blb_dichoticlistening_ga-ka.mp3	ga	ka	1	right
6.6.1	win	2023-07-08	12:37:25	0	0	577d1216b425c40001434b2f	1	1	DL_test	14	DL_test	25			0		pa	1	774	6	2	antiphase_hc_ios.wav	3	6	4	noise_calib_stim_RIGHT.wav	2	35	blb_dichoticlistening_ta-pa.mp3	ta	pa	1	right
6.6.1	win	2023-07-08	12:37:25	0	0	577d1216b425c40001434b2f	1	1	DL_test	14	DL_test	26			0		pa	1	883	6	2	antiphase_hc_ios.wav	3	6	4	noise_calib_stim_RIGHT.wav	2	30	blb_dichoticlistening_pa-ta.mp3	pa	ta	1	left
6.6.1	win	2023-07-08	12:37:25	0	0	577d1216b425c40001434b2f	1	1	DL_test	14	DL_test	27			0		ba	1	854	6	2	antiphase_hc_ios.wav	3	6	4	noise_calib_stim_RIGHT.wav	2	2	blb_dichoticlistening_ba-da.mp3	ba	da	1	left
6.6.1	win	2023-07-08	12:37:25	0	0	577d1216b425c40001434b2f	1	1	DL_test	14	DL_test	28			0		da	1	731	6	2	antiphase_hc_ios.wav	3	6	4	noise_calib_stim_RIGHT.wav	2	14	blb_dichoticlistening_ga-da.mp3	ga	da	1	right
6.6.1	win	2023-07-08	12:37:25	0	0	577d1216b425c40001434b2f	1	1	DL_test	14	DL_test	29			0		ka	1	948	6	2	antiphase_hc_ios.wav	3	6	4	noise_calib_stim_RIGHT.wav	2	20	blb_dichoticlistening_ka-da.mp3	ka	da	1	left
6.6.1	win	2023-07-08	12:37:25	0	0	577d1216b425c40001434b2f	1	1	DL_test	14	DL_test	30			0		ba	0	1428	6	2	antiphase_hc_ios.wav	3	6	4	noise_calib_stim_RIGHT.wav	2	33	blb_dichoticlistening_ta-ga.mp3	ta	ga	1	other
6.6.1	win	2023-07-08	12:37:25	0	0	577d1216b425c40001434b2f	1	1	DL_test	14	DL_test	31			0		ta	1	955	6	2	antiphase_hc_ios.wav	3	6	4	noise_calib_stim_RIGHT.wav	2	12	blb_dichoticlistening_da-ta.mp3	da	ta	1	right
6.6.1	win	2023-07-08	12:37:25	0	0	577d1216b425c40001434b2f	1	1	DL_test	14	DL_test	32			0		ba	1	1494	6	2	antiphase_hc_ios.wav	3	6	4	noise_calib_stim_RIGHT.wav	2	13	blb_dichoticlistening_ga-ba.mp3	ga	ba	1	right
6.6.1	win	2023-07-08	12:37:25	0	0	577d1216b425c40001434b2f	1	1	DL_test	14	DL_test	33			0		ta	1	923	6	2	antiphase_hc_ios.wav	3	6	4	noise_calib_stim_RIGHT.wav	2	31	blb_dichoticlistening_ta-ba.mp3	ta	ba	1	left
6.6.1	win	2023-07-08	12:37:25	0	0	577d1216b425c40001434b2f	1	1	DL_test	14	DL_test	34			0		pa	1	980	6	2	antiphase_hc_ios.wav	3	6	4	noise_calib_stim_RIGHT.wav	2	5	blb_dichoticlistening_ba-pa.mp3	ba	pa	1	right
6.6.1	win	2023-07-08	12:37:25	0	0	577d1216b425c40001434b2f	1	1	DL_test	14	DL_test	35			0		ga	1	1126	6	2	antiphase_hc_ios.wav	3	6	4	noise_calib_stim_RIGHT.wav	2	15	blb_dichoticlistening_ga-ga.mp3	ga	ga	0	left
6.6.1	win	2023-07-08	12:37:25	0	0	577d1216b425c40001434b2f	1	1	DL_test	14	DL_test	36			0		pa	1	772	6	2	antiphase_hc_ios.wav	3	6	4	noise_calib_stim_RIGHT.wav	2	29	blb_dichoticlistening_pa-pa.mp3	pa	pa	0	left
6.6.1	win	2023-07-08	12:37:25	0	0	577d1216b425c40001434b2f	1	1	DL_test	15	DL_test	1			0		ka	0	1179	6	2	antiphase_hc_ios.wav	3	6	4	noise_calib_stim_RIGHT.wav	2	33	blb_dichoticlistening_ta-ga.mp3	ta	ga	1	other
6.6.1	win	2023-07-08	12:37:25	0	0	577d1216b425c40001434b2f	1	1	DL_test	15	DL_test	2			0		da	1	849	6	2	antiphase_hc_ios.wav	3	6	4	noise_calib_stim_RIGHT.wav	2	8	blb_dichoticlistening_da-da.mp3	da	da	0	left
6.6.1	win	2023-07-08	12:37:25	0	0	577d1216b425c40001434b2f	1	1	DL_test	15	DL_test	3			0		ga	1	1016	6	2	antiphase_hc_ios.wav	3	6	4	noise_calib_stim_RIGHT.wav	2	14	blb_dichoticlistening_ga-da.mp3	ga	da	1	left
6.6.1	win	2023-07-08	12:37:25	0	0	577d1216b425c40001434b2f	1	1	DL_test	15	DL_test	4			0		ka	1	978	6	2	antiphase_hc_ios.wav	3	6	4	noise_calib_stim_RIGHT.wav	2	19	blb_dichoticlistening_ka-ba.mp3	ka	ba	1	left
6.6.1	win	2023-07-08	12:37:25	0	0	577d1216b425c40001434b2f	1	1	DL_test	15	DL_test	5			0		ta	1	953	6	2	antiphase_hc_ios.wav	3	6	4	noise_calib_stim_RIGHT.wav	2	31	blb_dichoticlistening_ta-ba.mp3	ta	ba	1	left
6.6.1	win	2023-07-08	12:37:25	0	0	577d1216b425c40001434b2f	1	1	DL_test	15	DL_test	6			0		ka	1	809	6	2	antiphase_hc_ios.wav	3	6	4	noise_calib_stim_RIGHT.wav	2	16	blb_dichoticlistening_ga-ka.mp3	ga	ka	1	right
6.6.1	win	2023-07-08	12:37:25	0	0	577d1216b425c40001434b2f	1	1	DL_test	15	DL_test	7			0		pa	1	815	6	2	antiphase_hc_ios.wav	3	6	4	noise_calib_stim_RIGHT.wav	2	30	blb_dichoticlistening_pa-ta.mp3	pa	ta	1	left
6.6.1	win	2023-07-08	12:37:25	0	0	577d1216b425c40001434b2f	1	1	DL_test	15	DL_test	8			0		ba	1	1398	6	2	antiphase_hc_ios.wav	3	6	4	noise_calib_stim_RIGHT.wav	2	1	blb_dichoticlistening_ba-ba.mp3	ba	ba	0	left
6.6.1	win	2023-07-08	12:37:25	0	0	577d1216b425c40001434b2f	1	1	DL_test	15	DL_test	9			0		ka	1	866	6	2	antiphase_hc_ios.wav	3	6	4	noise_calib_stim_RIGHT.wav	2	34	blb_dichoticlistening_ta-ka.mp3	ta	ka	1	right
6.6.1	win	2023-07-08	12:37:25	0	0	577d1216b425c40001434b2f	1	1	DL_test	15	DL_test	10			0		ka	1	759	6	2	antiphase_hc_ios.wav	3	6	4	noise_calib_stim_RIGHT.wav	2	21	blb_dichoticlistening_ka-ga.mp3	ka	ga	1	left
6.6.1	win	2023-07-08	12:37:25	0	0	577d1216b425c40001434b2f	1	1	DL_test	15	DL_test	11			0		ka	1	791	6	2	antiphase_hc_ios.wav	3	6	4	noise_calib_stim_RIGHT.wav	2	20	blb_dichoticlistening_ka-da.mp3	ka	da	1	left
6.6.1	win	2023-07-08	12:37:25	0	0	577d1216b425c40001434b2f	1	1	DL_test	15	DL_test	12			0		ta	1	976	6	2	antiphase_hc_ios.wav	3	6	4	noise_calib_stim_RIGHT.wav	2	12	blb_dichoticlistening_da-ta.mp3	da	ta	1	right
6.6.1	win	2023-07-08	12:37:25	0	0	577d1216b425c40001434b2f	1	1	DL_test	15	DL_test	13			0		pa	1	775	6	2	antiphase_hc_ios.wav	3	6	4	noise_calib_stim_RIGHT.wav	2	25	blb_dichoticlistening_pa-ba.mp3	pa	ba	1	left
6.6.1	win	2023-07-08	12:37:25	0	0	577d1216b425c40001434b2f	1	1	DL_test	15	DL_test	14			0		ka	1	782	6	2	antiphase_hc_ios.wav	3	6	4	noise_calib_stim_RIGHT.wav	2	28	blb_dichoticlistening_pa-ka.mp3	pa	ka	1	right
6.6.1	win	2023-07-08	12:37:25	0	0	577d1216b425c40001434b2f	1	1	DL_test	15	DL_test	15			0		ta	1	899	6	2	antiphase_hc_ios.wav	3	6	4	noise_calib_stim_RIGHT.wav	2	24	blb_dichoticlistening_ka-ta.mp3	ka	ta	1	right
6.6.1	win	2023-07-08	12:37:25	0	0	577d1216b425c40001434b2f	1	1	DL_test	15	DL_test	16			0		pa	1	1053	6	2	antiphase_hc_ios.wav	3	6	4	noise_calib_stim_RIGHT.wav	2	26	blb_dichoticlistening_pa-da.mp3	pa	da	1	left
6.6.1	win	2023-07-08	12:37:25	0	0	577d1216b425c40001434b2f	1	1	DL_test	15	DL_test	17			0		ka	1	865	6	2	antiphase_hc_ios.wav	3	6	4	noise_calib_stim_RIGHT.wav	2	23	blb_dichoticlistening_ka-pa.mp3	ka	pa	1	left
6.6.1	win	2023-07-08	12:37:25	0	0	577d1216b425c40001434b2f	1	1	DL_test	15	DL_test	18			0		ka	1	779	6	2	antiphase_hc_ios.wav	3	6	4	noise_calib_stim_RIGHT.wav	2	4	blb_dichoticlistening_ba-ka.mp3	ba	ka	1	right
6.6.1	win	2023-07-08	12:37:25	0	0	577d1216b425c40001434b2f	1	1	DL_test	15	DL_test	19			0		ka	1	761	6	2	antiphase_hc_ios.wav	3	6	4	noise_calib_stim_RIGHT.wav	2	22	blb_dichoticlistening_ka-ka.mp3	ka	ka	0	left
6.6.1	win	2023-07-08	12:37:25	0	0	577d1216b425c40001434b2f	1	1	DL_test	15	DL_test	20			0		ta	1	930	6	2	antiphase_hc_ios.wav	3	6	4	noise_calib_stim_RIGHT.wav	2	32	blb_dichoticlistening_ta-da.mp3	ta	da	1	left
6.6.1	win	2023-07-08	12:37:25	0	0	577d1216b425c40001434b2f	1	1	DL_test	15	DL_test	21			0		pa	0	834	6	2	antiphase_hc_ios.wav	3	6	4	noise_calib_stim_RIGHT.wav	2	10	blb_dichoticlistening_da-ka.mp3	da	ka	1	other
6.6.1	win	2023-07-08	12:37:25	0	0	577d1216b425c40001434b2f	1	1	DL_test	15	DL_test	22			0		pa	1	1009	6	2	antiphase_hc_ios.wav	3	6	4	noise_calib_stim_RIGHT.wav	2	17	blb_dichoticlistening_ga-pa.mp3	ga	pa	1	right
6.6.1	win	2023-07-08	12:37:25	0	0	577d1216b425c40001434b2f	1	1	DL_test	15	DL_test	23			0		pa	1	1068	6	2	antiphase_hc_ios.wav	3	6	4	noise_calib_stim_RIGHT.wav	2	35	blb_dichoticlistening_ta-pa.mp3	ta	pa	1	right
6.6.1	win	2023-07-08	12:37:25	0	0	577d1216b425c40001434b2f	1	1	DL_test	15	DL_test	24			0		pa	1	728	6	2	antiphase_hc_ios.wav	3	6	4	noise_calib_stim_RIGHT.wav	2	11	blb_dichoticlistening_da-pa.mp3	da	pa	1	right
6.6.1	win	2023-07-08	12:37:25	0	0	577d1216b425c40001434b2f	1	1	DL_test	15	DL_test	25			0		da	1	1058	6	2	antiphase_hc_ios.wav	3	6	4	noise_calib_stim_RIGHT.wav	2	9	blb_dichoticlistening_da-ga.mp3	da	ga	1	left
6.6.1	win	2023-07-08	12:37:25	0	0	577d1216b425c40001434b2f	1	1	DL_test	15	DL_test	26			0		ta	1	860	6	2	antiphase_hc_ios.wav	3	6	4	noise_calib_stim_RIGHT.wav	2	36	blb_dichoticlistening_ta-ta.mp3	ta	ta	0	left
6.6.1	win	2023-07-08	12:37:25	0	0	577d1216b425c40001434b2f	1	1	DL_test	15	DL_test	27			0		ba	1	1457	6	2	antiphase_hc_ios.wav	3	6	4	noise_calib_stim_RIGHT.wav	2	7	blb_dichoticlistening_da-ba.mp3	da	ba	1	right
6.6.1	win	2023-07-08	12:37:25	0	0	577d1216b425c40001434b2f	1	1	DL_test	15	DL_test	28			0		ka	0	956	6	2	antiphase_hc_ios.wav	3	6	4	noise_calib_stim_RIGHT.wav	2	18	blb_dichoticlistening_ga-ta.mp3	ga	ta	1	other
6.6.1	win	2023-07-08	12:37:25	0	0	577d1216b425c40001434b2f	1	1	DL_test	15	DL_test	29			0		pa	1	1332	6	2	antiphase_hc_ios.wav	3	6	4	noise_calib_stim_RIGHT.wav	2	27	blb_dichoticlistening_pa-ga.mp3	pa	ga	1	left
6.6.1	win	2023-07-08	12:37:25	0	0	577d1216b425c40001434b2f	1	1	DL_test	15	DL_test	30			0		pa	1	774	6	2	antiphase_hc_ios.wav	3	6	4	noise_calib_stim_RIGHT.wav	2	5	blb_dichoticlistening_ba-pa.mp3	ba	pa	1	right
6.6.1	win	2023-07-08	12:37:25	0	0	577d1216b425c40001434b2f	1	1	DL_test	15	DL_test	31			0		ga	1	926	6	2	antiphase_hc_ios.wav	3	6	4	noise_calib_stim_RIGHT.wav	2	15	blb_dichoticlistening_ga-ga.mp3	ga	ga	0	left
6.6.1	win	2023-07-08	12:37:25	0	0	577d1216b425c40001434b2f	1	1	DL_test	15	DL_test	32			0		ta	1	1334	6	2	antiphase_hc_ios.wav	3	6	4	noise_calib_stim_RIGHT.wav	2	6	blb_dichoticlistening_ba-ta.mp3	ba	ta	1	right
6.6.1	win	2023-07-08	12:37:25	0	0	577d1216b425c40001434b2f	1	1	DL_test	15	DL_test	33			0		ba	1	1055	6	2	antiphase_hc_ios.wav	3	6	4	noise_calib_stim_RIGHT.wav	2	13	blb_dichoticlistening_ga-ba.mp3	ga	ba	1	right
6.6.1	win	2023-07-08	12:37:25	0	0	577d1216b425c40001434b2f	1	1	DL_test	15	DL_test	34			0		pa	1	803	6	2	antiphase_hc_ios.wav	3	6	4	noise_calib_stim_RIGHT.wav	2	29	blb_dichoticlistening_pa-pa.mp3	pa	pa	0	left
6.6.1	win	2023-07-08	12:37:25	0	0	577d1216b425c40001434b2f	1	1	DL_test	15	DL_test	35			0		ga	1	713	6	2	antiphase_hc_ios.wav	3	6	4	noise_calib_stim_RIGHT.wav	2	3	blb_dichoticlistening_ba-ga.mp3	ba	ga	1	right
6.6.1	win	2023-07-08	12:37:25	0	0	577d1216b425c40001434b2f	1	1	DL_test	15	DL_test	36			0		ba	1	1243	6	2	antiphase_hc_ios.wav	3	6	4	noise_calib_stim_RIGHT.wav	2	2	blb_dichoticlistening_ba-da.mp3	ba	da	1	left
6.6.1	win	2023-07-08	12:37:25	0	0	577d1216b425c40001434b2f	1	1	DL_test	16	DL_test	1			0		pa	1	769	6	2	antiphase_hc_ios.wav	3	6	4	noise_calib_stim_RIGHT.wav	2	26	blb_dichoticlistening_pa-da.mp3	pa	da	1	left
6.6.1	win	2023-07-08	12:37:25	0	0	577d1216b425c40001434b2f	1	1	DL_test	16	DL_test	2			0		pa	1	1177	6	2	antiphase_hc_ios.wav	3	6	4	noise_calib_stim_RIGHT.wav	2	17	blb_dichoticlistening_ga-pa.mp3	ga	pa	1	right
6.6.1	win	2023-07-08	12:37:25	0	0	577d1216b425c40001434b2f	1	1	DL_test	16	DL_test	3			0		ba	1	1183	6	2	antiphase_hc_ios.wav	3	6	4	noise_calib_stim_RIGHT.wav	2	1	blb_dichoticlistening_ba-ba.mp3	ba	ba	0	left
6.6.1	win	2023-07-08	12:37:25	0	0	577d1216b425c40001434b2f	1	1	DL_test	16	DL_test	4			0		da	1	830	6	2	antiphase_hc_ios.wav	3	6	4	noise_calib_stim_RIGHT.wav	2	8	blb_dichoticlistening_da-da.mp3	da	da	0	left
6.6.1	win	2023-07-08	12:37:25	0	0	577d1216b425c40001434b2f	1	1	DL_test	16	DL_test	5			0		ka	1	739	6	2	antiphase_hc_ios.wav	3	6	4	noise_calib_stim_RIGHT.wav	2	22	blb_dichoticlistening_ka-ka.mp3	ka	ka	0	left
6.6.1	win	2023-07-08	12:37:25	0	0	577d1216b425c40001434b2f	1	1	DL_test	16	DL_test	6			0		ta	1	1235	6	2	antiphase_hc_ios.wav	3	6	4	noise_calib_stim_RIGHT.wav	2	31	blb_dichoticlistening_ta-ba.mp3	ta	ba	1	left
6.6.1	win	2023-07-08	12:37:25	0	0	577d1216b425c40001434b2f	1	1	DL_test	16	DL_test	7			0		ka	0	1037	6	2	antiphase_hc_ios.wav	3	6	4	noise_calib_stim_RIGHT.wav	2	18	blb_dichoticlistening_ga-ta.mp3	ga	ta	1	other
6.6.1	win	2023-07-08	12:37:25	0	0	577d1216b425c40001434b2f	1	1	DL_test	16	DL_test	8			0		pa	1	691	6	2	antiphase_hc_ios.wav	3	6	4	noise_calib_stim_RIGHT.wav	2	25	blb_dichoticlistening_pa-ba.mp3	pa	ba	1	left
6.6.1	win	2023-07-08	12:37:25	0	0	577d1216b425c40001434b2f	1	1	DL_test	16	DL_test	9			0		pa	1	654	6	2	antiphase_hc_ios.wav	3	6	4	noise_calib_stim_RIGHT.wav	2	29	blb_dichoticlistening_pa-pa.mp3	pa	pa	0	left
6.6.1	win	2023-07-08	12:37:25	0	0	577d1216b425c40001434b2f	1	1	DL_test	16	DL_test	10			0		ka	1	1242	6	2	antiphase_hc_ios.wav	3	6	4	noise_calib_stim_RIGHT.wav	2	34	blb_dichoticlistening_ta-ka.mp3	ta	ka	1	right
6.6.1	win	2023-07-08	12:37:25	0	0	577d1216b425c40001434b2f	1	1	DL_test	16	DL_test	11			0		ta	1	734	6	2	antiphase_hc_ios.wav	3	6	4	noise_calib_stim_RIGHT.wav	2	12	blb_dichoticlistening_da-ta.mp3	da	ta	1	right
6.6.1	win	2023-07-08	12:37:25	0	0	577d1216b425c40001434b2f	1	1	DL_test	16	DL_test	12			0		pa	1	623	6	2	antiphase_hc_ios.wav	3	6	4	noise_calib_stim_RIGHT.wav	2	5	blb_dichoticlistening_ba-pa.mp3	ba	pa	1	right
6.6.1	win	2023-07-08	12:37:25	0	0	577d1216b425c40001434b2f	1	1	DL_test	16	DL_test	13			0		ta	1	956	6	2	antiphase_hc_ios.wav	3	6	4	noise_calib_stim_RIGHT.wav	2	32	blb_dichoticlistening_ta-da.mp3	ta	da	1	left
6.6.1	win	2023-07-08	12:37:25	0	0	577d1216b425c40001434b2f	1	1	DL_test	16	DL_test	14			0		pa	0	955	6	2	antiphase_hc_ios.wav	3	6	4	noise_calib_stim_RIGHT.wav	2	6	blb_dichoticlistening_ba-ta.mp3	ba	ta	1	other
6.6.1	win	2023-07-08	12:37:25	0	0	577d1216b425c40001434b2f	1	1	DL_test	16	DL_test	15			0		ga	1	1211	6	2	antiphase_hc_ios.wav	3	6	4	noise_calib_stim_RIGHT.wav	2	15	blb_dichoticlistening_ga-ga.mp3	ga	ga	0	left
6.6.1	win	2023-07-08	12:37:25	0	0	577d1216b425c40001434b2f	1	1	DL_test	16	DL_test	16			0		pa	1	852	6	2	antiphase_hc_ios.wav	3	6	4	noise_calib_stim_RIGHT.wav	2	30	blb_dichoticlistening_pa-ta.mp3	pa	ta	1	left
6.6.1	win	2023-07-08	12:37:25	0	0	577d1216b425c40001434b2f	1	1	DL_test	16	DL_test	17			0		ka	1	866	6	2	antiphase_hc_ios.wav	3	6	4	noise_calib_stim_RIGHT.wav	2	20	blb_dichoticlistening_ka-da.mp3	ka	da	1	left
6.6.1	win	2023-07-08	12:37:25	0	0	577d1216b425c40001434b2f	1	1	DL_test	16	DL_test	18			0		ta	1	838	6	2	antiphase_hc_ios.wav	3	6	4	noise_calib_stim_RIGHT.wav	2	36	blb_dichoticlistening_ta-ta.mp3	ta	ta	0	left
6.6.1	win	2023-07-08	12:37:25	0	0	577d1216b425c40001434b2f	1	1	DL_test	16	DL_test	19			0		da	1	906	6	2	antiphase_hc_ios.wav	3	6	4	noise_calib_stim_RIGHT.wav	2	14	blb_dichoticlistening_ga-da.mp3	ga	da	1	right
6.6.1	win	2023-07-08	12:37:25	0	0	577d1216b425c40001434b2f	1	1	DL_test	16	DL_test	20			0		ka	1	844	6	2	antiphase_hc_ios.wav	3	6	4	noise_calib_stim_RIGHT.wav	2	19	blb_dichoticlistening_ka-ba.mp3	ka	ba	1	left
6.6.1	win	2023-07-08	12:37:25	0	0	577d1216b425c40001434b2f	1	1	DL_test	16	DL_test	21			0		ka	1	801	6	2	antiphase_hc_ios.wav	3	6	4	noise_calib_stim_RIGHT.wav	2	21	blb_dichoticlistening_ka-ga.mp3	ka	ga	1	left
6.6.1	win	2023-07-08	12:37:25	0	0	577d1216b425c40001434b2f	1	1	DL_test	16	DL_test	22			0		da	1	895	6	2	antiphase_hc_ios.wav	3	6	4	noise_calib_stim_RIGHT.wav	2	2	blb_dichoticlistening_ba-da.mp3	ba	da	1	right
6.6.1	win	2023-07-08	12:37:25	0	0	577d1216b425c40001434b2f	1	1	DL_test	16	DL_test	23			0		ka	1	825	6	2	antiphase_hc_ios.wav	3	6	4	noise_calib_stim_RIGHT.wav	2	4	blb_dichoticlistening_ba-ka.mp3	ba	ka	1	right
6.6.1	win	2023-07-08	12:37:25	0	0	577d1216b425c40001434b2f	1	1	DL_test	16	DL_test	24			0		ta	1	1118	6	2	antiphase_hc_ios.wav	3	6	4	noise_calib_stim_RIGHT.wav	2	33	blb_dichoticlistening_ta-ga.mp3	ta	ga	1	left
6.6.1	win	2023-07-08	12:37:25	0	0	577d1216b425c40001434b2f	1	1	DL_test	16	DL_test	25			0		ka	1	776	6	2	antiphase_hc_ios.wav	3	6	4	noise_calib_stim_RIGHT.wav	2	24	blb_dichoticlistening_ka-ta.mp3	ka	ta	1	left
6.6.1	win	2023-07-08	12:37:25	0	0	577d1216b425c40001434b2f	1	1	DL_test	16	DL_test	26			0		da	1	735	6	2	antiphase_hc_ios.wav	3	6	4	noise_calib_stim_RIGHT.wav	2	9	blb_dichoticlistening_da-ga.mp3	da	ga	1	left
6.6.1	win	2023-07-08	12:37:25	0	0	577d1216b425c40001434b2f	1	1	DL_test	16	DL_test	27			0		ba	1	767	6	2	antiphase_hc_ios.wav	3	6	4	noise_calib_stim_RIGHT.wav	2	13	blb_dichoticlistening_ga-ba.mp3	ga	ba	1	right
6.6.1	win	2023-07-08	12:37:25	0	0	577d1216b425c40001434b2f	1	1	DL_test	16	DL_test	28			0		ga	1	774	6	2	antiphase_hc_ios.wav	3	6	4	noise_calib_stim_RIGHT.wav	2	3	blb_dichoticlistening_ba-ga.mp3	ba	ga	1	right
6.6.1	win	2023-07-08	12:37:25	0	0	577d1216b425c40001434b2f	1	1	DL_test	16	DL_test	29			0		pa	0	782	6	2	antiphase_hc_ios.wav	3	6	4	noise_calib_stim_RIGHT.wav	2	10	blb_dichoticlistening_da-ka.mp3	da	ka	1	other
6.6.1	win	2023-07-08	12:37:25	0	0	577d1216b425c40001434b2f	1	1	DL_test	16	DL_test	30			0		pa	1	925	6	2	antiphase_hc_ios.wav	3	6	4	noise_calib_stim_RIGHT.wav	2	35	blb_dichoticlistening_ta-pa.mp3	ta	pa	1	right
6.6.1	win	2023-07-08	12:37:25	0	0	577d1216b425c40001434b2f	1	1	DL_test	16	DL_test	31			0		pa	1	958	6	2	antiphase_hc_ios.wav	3	6	4	noise_calib_stim_RIGHT.wav	2	27	blb_dichoticlistening_pa-ga.mp3	pa	ga	1	left
6.6.1	win	2023-07-08	12:37:25	0	0	577d1216b425c40001434b2f	1	1	DL_test	16	DL_test	32			0		pa	1	1117	6	2	antiphase_hc_ios.wav	3	6	4	noise_calib_stim_RIGHT.wav	2	11	blb_dichoticlistening_da-pa.mp3	da	pa	1	right
6.6.1	win	2023-07-08	12:37:25	0	0	577d1216b425c40001434b2f	1	1	DL_test	16	DL_test	33			0		ka	1	839	6	2	antiphase_hc_ios.wav	3	6	4	noise_calib_stim_RIGHT.wav	2	28	blb_dichoticlistening_pa-ka.mp3	pa	ka	1	right
6.6.1	win	2023-07-08	12:37:25	0	0	577d1216b425c40001434b2f	1	1	DL_test	16	DL_test	34			0		ka	1	2029	6	2	antiphase_hc_ios.wav	3	6	4	noise_calib_stim_RIGHT.wav	2	23	blb_dichoticlistening_ka-pa.mp3	ka	pa	1	left
6.6.1	win	2023-07-08	12:37:25	0	0	577d1216b425c40001434b2f	1	1	DL_test	16	DL_test	35			0		ba	1	946	6	2	antiphase_hc_ios.wav	3	6	4	noise_calib_stim_RIGHT.wav	2	7	blb_dichoticlistening_da-ba.mp3	da	ba	1	right
6.6.1	win	2023-07-08	12:37:25	0	0	577d1216b425c40001434b2f	1	1	DL_test	16	DL_test	36			0		ka	1	843	6	2	antiphase_hc_ios.wav	3	6	4	noise_calib_stim_RIGHT.wav	2	16	blb_dichoticlistening_ga-ka.mp3	ga	ka	1	right
6.6.1	win	2023-07-08	12:37:25	12:48:47	676463	577d1216b425c40001434b2f	1	1	practice_slash	22	practice_slash	1	stimuli_distractor_diamondtriangles.svg	stimuli_target_trianglerectangles.svg	9	yes	53	1	1358	6	2	antiphase_hc_ios.wav	3	6	4	noise_calib_stim_RIGHT.wav	2	16	blb_dichoticlistening_ga-ka.mp3	ga	ka	1	right
6.6.1	win	2023-07-08	12:37:25	12:48:47	676463	577d1216b425c40001434b2f	1	1	practice_slash	22	advance_on_keypress_SLASH	2	stimuli_distractor_diamondtriangles.svg	stimuli_target_trianglerectangles.svg	9	yes	57	0	1273	6	2	antiphase_hc_ios.wav	3	6	4	noise_calib_stim_RIGHT.wav	2	16	blb_dichoticlistening_ga-ka.mp3	ga	ka	1	right
6.6.1	win	2023-07-08	12:37:25	12:48:50	680023	577d1216b425c40001434b2f	1	1	practice_slash	22	practice_slash	3	stimuli_distractor_diamondtriangles.svg	stimuli_target_rectangletriangles.svg	7	yes	53	1	652	6	2	antiphase_hc_ios.wav	3	6	4	noise_calib_stim_RIGHT.wav	2	16	blb_dichoticlistening_ga-ka.mp3	ga	ka	1	right
6.6.1	win	2023-07-08	12:37:25	12:48:50	680023	577d1216b425c40001434b2f	1	1	practice_slash	22	advance_on_keypress_SLASH	4	stimuli_distractor_diamondtriangles.svg	stimuli_target_rectangletriangles.svg	7	yes	57	0	530	6	2	antiphase_hc_ios.wav	3	6	4	noise_calib_stim_RIGHT.wav	2	16	blb_dichoticlistening_ga-ka.mp3	ga	ka	1	right
6.6.1	win	2023-07-08	12:37:25	12:48:54	684203	577d1216b425c40001434b2f	1	1	practice_slash	22	practice_slash	5	stimuli_distractor_diamondtriangles.svg	stimuli_target_diamondrectangles.svg	8	yes	0	0	2000	6	2	antiphase_hc_ios.wav	3	6	4	noise_calib_stim_RIGHT.wav	2	16	blb_dichoticlistening_ga-ka.mp3	ga	ka	1	right
6.6.1	win	2023-07-08	12:37:25	12:48:54	684203	577d1216b425c40001434b2f	1	1	practice_slash	22	advance_on_keypress_SLASH	6	stimuli_distractor_diamondtriangles.svg	stimuli_target_diamondrectangles.svg	8	yes	57	0	2117	6	2	antiphase_hc_ios.wav	3	6	4	noise_calib_stim_RIGHT.wav	2	16	blb_dichoticlistening_ga-ka.mp3	ga	ka	1	right
6.6.1	win	2023-07-08	12:37:25	12:49:00	689969	577d1216b425c40001434b2f	1	1	practice_slash	22	practice_slash	7	stimuli_distractor_trianglediamonds.svg	stimuli_distractor_diamondtriangles.svg	16	no	0	1	2000	6	2	antiphase_hc_ios.wav	3	6	4	noise_calib_stim_RIGHT.wav	2	16	blb_dichoticlistening_ga-ka.mp3	ga	ka	1	right
6.6.1	win	2023-07-08	12:37:25	12:49:00	689969	577d1216b425c40001434b2f	1	1	practice_slash	22	advance_on_keypress_SLASH	8	stimuli_distractor_trianglediamonds.svg	stimuli_distractor_diamondtriangles.svg	16	no	57	0	640	6	2	antiphase_hc_ios.wav	3	6	4	noise_calib_stim_RIGHT.wav	2	16	blb_dichoticlistening_ga-ka.mp3	ga	ka	1	right
6.6.1	win	2023-07-08	12:37:25	12:49:03	693103	577d1216b425c40001434b2f	1	1	practice_slash	22	practice_slash	9	stimuli_target_rectanglediamonds.svg	stimuli_distractor_diamondtriangles.svg	1	yes	53	1	852	6	2	antiphase_hc_ios.wav	3	6	4	noise_calib_stim_RIGHT.wav	2	16	blb_dichoticlistening_ga-ka.mp3	ga	ka	1	right
6.6.1	win	2023-07-08	12:37:25	12:49:03	693103	577d1216b425c40001434b2f	1	1	practice_slash	22	advance_on_keypress_SLASH	10	stimuli_target_rectanglediamonds.svg	stimuli_distractor_diamondtriangles.svg	1	yes	57	0	627	6	2	antiphase_hc_ios.wav	3	6	4	noise_calib_stim_RIGHT.wav	2	16	blb_dichoticlistening_ga-ka.mp3	ga	ka	1	right
6.6.1	win	2023-07-08	12:37:25	12:49:06	695902	577d1216b425c40001434b2f	1	1	practice_slash	22	practice_slash	11	stimuli_distractor_trianglediamonds.svg	stimuli_target_rectanglediamonds.svg	10	yes	53	1	537	6	2	antiphase_hc_ios.wav	3	6	4	noise_calib_stim_RIGHT.wav	2	16	blb_dichoticlistening_ga-ka.mp3	ga	ka	1	right
6.6.1	win	2023-07-08	12:37:25	12:49:06	695902	577d1216b425c40001434b2f	1	1	practice_slash	22	advance_on_keypress_SLASH	12	stimuli_distractor_trianglediamonds.svg	stimuli_target_rectanglediamonds.svg	10	yes	57	0	468	6	2	antiphase_hc_ios.wav	3	6	4	noise_calib_stim_RIGHT.wav	2	16	blb_dichoticlistening_ga-ka.mp3	ga	ka	1	right
6.6.1	win	2023-07-08	12:37:25	12:49:09	699095	577d1216b425c40001434b2f	1	1	practice_slash	22	practice_slash	13	stimuli_target_diamondsquares.svg	stimuli_distractor_diamondtriangles.svg	3	yes	53	1	1081	6	2	antiphase_hc_ios.wav	3	6	4	noise_calib_stim_RIGHT.wav	2	16	blb_dichoticlistening_ga-ka.mp3	ga	ka	1	right
6.6.1	win	2023-07-08	12:37:25	12:49:09	699095	577d1216b425c40001434b2f	1	1	practice_slash	22	advance_on_keypress_SLASH	14	stimuli_target_diamondsquares.svg	stimuli_distractor_diamondtriangles.svg	3	yes	57	0	1340	6	2	antiphase_hc_ios.wav	3	6	4	noise_calib_stim_RIGHT.wav	2	16	blb_dichoticlistening_ga-ka.mp3	ga	ka	1	right
6.6.1	win	2023-07-08	12:37:25	12:49:13	702775	577d1216b425c40001434b2f	1	1	practice_slash	22	practice_slash	15	stimuli_target_squarediamonds.svg	stimuli_distractor_diamondtriangles.svg	2	yes	53	1	694	6	2	antiphase_hc_ios.wav	3	6	4	noise_calib_stim_RIGHT.wav	2	16	blb_dichoticlistening_ga-ka.mp3	ga	ka	1	right
6.6.1	win	2023-07-08	12:37:25	12:49:13	702775	577d1216b425c40001434b2f	1	1	practice_slash	22	advance_on_keypress_SLASH	16	stimuli_target_squarediamonds.svg	stimuli_distractor_diamondtriangles.svg	2	yes	57	0	884	6	2	antiphase_hc_ios.wav	3	6	4	noise_calib_stim_RIGHT.wav	2	16	blb_dichoticlistening_ga-ka.mp3	ga	ka	1	right
6.6.1	win	2023-07-08	12:37:25	12:49:17	707296	577d1216b425c40001434b2f	1	1	practice_slash	22	practice_slash	17	stimuli_distractor_diamondtriangles.svg	stimuli_distractor_trianglediamonds.svg	14	no	0	1	2000	6	2	antiphase_hc_ios.wav	3	6	4	noise_calib_stim_RIGHT.wav	2	16	blb_dichoticlistening_ga-ka.mp3	ga	ka	1	right
6.6.1	win	2023-07-08	12:37:25	12:49:17	707296	577d1216b425c40001434b2f	1	1	practice_slash	22	advance_on_keypress_SLASH	18	stimuli_distractor_diamondtriangles.svg	stimuli_distractor_trianglediamonds.svg	14	no	57	0	536	6	2	antiphase_hc_ios.wav	3	6	4	noise_calib_stim_RIGHT.wav	2	16	blb_dichoticlistening_ga-ka.mp3	ga	ka	1	right
6.6.1	win	2023-07-08	12:37:25	12:49:20	710014	577d1216b425c40001434b2f	1	1	practice_slash	22	practice_slash	19	stimuli_target_squarediamonds.svg	stimuli_distractor_trianglediamonds.svg	5	yes	53	1	537	6	2	antiphase_hc_ios.wav	3	6	4	noise_calib_stim_RIGHT.wav	2	16	blb_dichoticlistening_ga-ka.mp3	ga	ka	1	right
6.6.1	win	2023-07-08	12:37:25	12:49:20	710014	577d1216b425c40001434b2f	1	1	practice_slash	22	advance_on_keypress_SLASH	20	stimuli_target_squarediamonds.svg	stimuli_distractor_trianglediamonds.svg	5	yes	57	0	507	6	2	antiphase_hc_ios.wav	3	6	4	noise_calib_stim_RIGHT.wav	2	16	blb_dichoticlistening_ga-ka.mp3	ga	ka	1	right
6.6.1	win	2023-07-08	12:37:25	12:49:23	712727	577d1216b425c40001434b2f	1	1	practice_slash	22	practice_slash	21	stimuli_distractor_trianglediamonds.svg	stimuli_target_squarediamonds.svg	11	yes	53	1	566	6	2	antiphase_hc_ios.wav	3	6	4	noise_calib_stim_RIGHT.wav	2	16	blb_dichoticlistening_ga-ka.mp3	ga	ka	1	right
6.6.1	win	2023-07-08	12:37:25	12:49:23	712727	577d1216b425c40001434b2f	1	1	practice_slash	22	advance_on_keypress_SLASH	22	stimuli_distractor_trianglediamonds.svg	stimuli_target_squarediamonds.svg	11	yes	57	0	337	6	2	antiphase_hc_ios.wav	3	6	4	noise_calib_stim_RIGHT.wav	2	16	blb_dichoticlistening_ga-ka.mp3	ga	ka	1	right
6.6.1	win	2023-07-08	12:37:25	12:49:26	715511	577d1216b425c40001434b2f	1	1	practice_slash	22	practice_slash	23	stimuli_target_rectanglediamonds.svg	stimuli_distractor_trianglediamonds.svg	4	yes	53	1	801	6	2	antiphase_hc_ios.wav	3	6	4	noise_calib_stim_RIGHT.wav	2	16	blb_dichoticlistening_ga-ka.mp3	ga	ka	1	right
6.6.1	win	2023-07-08	12:37:25	12:49:26	715511	577d1216b425c40001434b2f	1	1	practice_slash	22	advance_on_keypress_SLASH	24	stimuli_target_rectanglediamonds.svg	stimuli_distractor_trianglediamonds.svg	4	yes	57	0	1130	6	2	antiphase_hc_ios.wav	3	6	4	noise_calib_stim_RIGHT.wav	2	16	blb_dichoticlistening_ga-ka.mp3	ga	ka	1	right
6.6.1	win	2023-07-08	12:37:25	12:49:30	720291	577d1216b425c40001434b2f	1	1	practice_slash	22	practice_slash	25	stimuli_distractor_diamondtriangles.svg	stimuli_distractor_diamondtriangles.svg	13	no	0	1	2000	6	2	antiphase_hc_ios.wav	3	6	4	noise_calib_stim_RIGHT.wav	2	16	blb_dichoticlistening_ga-ka.mp3	ga	ka	1	right
6.6.1	win	2023-07-08	12:37:25	12:49:30	720291	577d1216b425c40001434b2f	1	1	practice_slash	22	advance_on_keypress_SLASH	26	stimuli_distractor_diamondtriangles.svg	stimuli_distractor_diamondtriangles.svg	13	no	57	0	427	6	2	antiphase_hc_ios.wav	3	6	4	noise_calib_stim_RIGHT.wav	2	16	blb_dichoticlistening_ga-ka.mp3	ga	ka	1	right
6.6.1	win	2023-07-08	12:37:25	12:49:33	723318	577d1216b425c40001434b2f	1	1	practice_slash	22	practice_slash	27	stimuli_target_diamondsquares.svg	stimuli_distractor_trianglediamonds.svg	6	yes	53	1	962	6	2	antiphase_hc_ios.wav	3	6	4	noise_calib_stim_RIGHT.wav	2	16	blb_dichoticlistening_ga-ka.mp3	ga	ka	1	right
6.6.1	win	2023-07-08	12:37:25	12:49:33	723318	577d1216b425c40001434b2f	1	1	practice_slash	22	advance_on_keypress_SLASH	28	stimuli_target_diamondsquares.svg	stimuli_distractor_trianglediamonds.svg	6	yes	57	0	531	6	2	antiphase_hc_ios.wav	3	6	4	noise_calib_stim_RIGHT.wav	2	16	blb_dichoticlistening_ga-ka.mp3	ga	ka	1	right
6.6.1	win	2023-07-08	12:37:25	12:49:38	727505	577d1216b425c40001434b2f	1	1	practice_slash	22	practice_slash	29	stimuli_distractor_trianglediamonds.svg	stimuli_distractor_trianglediamonds.svg	15	no	0	1	2000	6	2	antiphase_hc_ios.wav	3	6	4	noise_calib_stim_RIGHT.wav	2	16	blb_dichoticlistening_ga-ka.mp3	ga	ka	1	right
6.6.1	win	2023-07-08	12:37:25	12:49:38	727505	577d1216b425c40001434b2f	1	1	practice_slash	22	advance_on_keypress_SLASH	30	stimuli_distractor_trianglediamonds.svg	stimuli_distractor_trianglediamonds.svg	15	no	57	0	469	6	2	antiphase_hc_ios.wav	3	6	4	noise_calib_stim_RIGHT.wav	2	16	blb_dichoticlistening_ga-ka.mp3	ga	ka	1	right
6.6.1	win	2023-07-08	12:37:25	12:49:41	730511	577d1216b425c40001434b2f	1	1	practice_slash	22	practice_slash	31	stimuli_distractor_trianglediamonds.svg	stimuli_target_diamondrectangles.svg	12	yes	53	1	889	6	2	antiphase_hc_ios.wav	3	6	4	noise_calib_stim_RIGHT.wav	2	16	blb_dichoticlistening_ga-ka.mp3	ga	ka	1	right
6.6.1	win	2023-07-08	12:37:25	12:49:41	730511	577d1216b425c40001434b2f	1	1	practice_slash	22	advance_on_keypress_SLASH	32	stimuli_distractor_trianglediamonds.svg	stimuli_target_diamondrectangles.svg	12	yes	57	0	478	6	2	antiphase_hc_ios.wav	3	6	4	noise_calib_stim_RIGHT.wav	2	16	blb_dichoticlistening_ga-ka.mp3	ga	ka	1	right
6.6.1	win	2023-07-08	12:37:25	12:49:52	741849	577d1216b425c40001434b2f	1	1	main_slash	24	main_slash	1	stimuli_distractor_diamondtriangles.svg	stimuli_distractor_diamondtriangles.svg	40	no	0	1	2000	6	2	antiphase_hc_ios.wav	3	6	4	noise_calib_stim_RIGHT.wav	2	16	blb_dichoticlistening_ga-ka.mp3	ga	ka	1	right
6.6.1	win	2023-07-08	12:37:25	12:49:52	741849	577d1216b425c40001434b2f	1	1	main_slash	24	advance_on_keypress_SLASH	2	stimuli_distractor_diamondtriangles.svg	stimuli_distractor_diamondtriangles.svg	40	no	57	0	604	6	2	antiphase_hc_ios.wav	3	6	4	noise_calib_stim_RIGHT.wav	2	16	blb_dichoticlistening_ga-ka.mp3	ga	ka	1	right
6.6.1	win	2023-07-08	12:37:25	12:49:54	743677	577d1216b425c40001434b2f	1	1	main_slash	24	main_slash	3	stimuli_distractor_diamondtriangles.svg	stimuli_target_squarediamonds.svg	16	yes	53	1	579	6	2	antiphase_hc_ios.wav	3	6	4	noise_calib_stim_RIGHT.wav	2	16	blb_dichoticlistening_ga-ka.mp3	ga	ka	1	right
6.6.1	win	2023-07-08	12:37:25	12:49:54	743677	577d1216b425c40001434b2f	1	1	main_slash	24	advance_on_keypress_SLASH	4	stimuli_distractor_diamondtriangles.svg	stimuli_target_squarediamonds.svg	16	yes	57	0	1045	6	2	antiphase_hc_ios.wav	3	6	4	noise_calib_stim_RIGHT.wav	2	16	blb_dichoticlistening_ga-ka.mp3	ga	ka	1	right
6.6.1	win	2023-07-08	12:37:25	12:49:56	746085	577d1216b425c40001434b2f	1	1	main_slash	24	main_slash	5	stimuli_target_diamondsquares.svg	stimuli_distractor_diamondtriangles.svg	24	yes	53	1	738	6	2	antiphase_hc_ios.wav	3	6	4	noise_calib_stim_RIGHT.wav	2	16	blb_dichoticlistening_ga-ka.mp3	ga	ka	1	right
6.6.1	win	2023-07-08	12:37:25	12:49:56	746085	577d1216b425c40001434b2f	1	1	main_slash	24	advance_on_keypress_SLASH	6	stimuli_target_diamondsquares.svg	stimuli_distractor_diamondtriangles.svg	24	yes	57	0	876	6	2	antiphase_hc_ios.wav	3	6	4	noise_calib_stim_RIGHT.wav	2	16	blb_dichoticlistening_ga-ka.mp3	ga	ka	1	right
6.6.1	win	2023-07-08	12:37:25	12:49:58	748189	577d1216b425c40001434b2f	1	1	main_slash	24	main_slash	7	stimuli_distractor_trianglediamonds.svg	stimuli_target_rectangletriangles.svg	9	yes	53	1	592	6	2	antiphase_hc_ios.wav	3	6	4	noise_calib_stim_RIGHT.wav	2	16	blb_dichoticlistening_ga-ka.mp3	ga	ka	1	right
6.6.1	win	2023-07-08	12:37:25	12:49:58	748189	577d1216b425c40001434b2f	1	1	main_slash	24	advance_on_keypress_SLASH	8	stimuli_distractor_trianglediamonds.svg	stimuli_target_rectangletriangles.svg	9	yes	57	0	817	6	2	antiphase_hc_ios.wav	3	6	4	noise_calib_stim_RIGHT.wav	2	16	blb_dichoticlistening_ga-ka.mp3	ga	ka	1	right
6.6.1	win	2023-07-08	12:37:25	12:50:01	750701	577d1216b425c40001434b2f	1	1	main_slash	24	main_slash	9	stimuli_target_squaretriangles.svg	stimuli_distractor_diamondtriangles.svg	7	yes	53	1	1055	6	2	antiphase_hc_ios.wav	3	6	4	noise_calib_stim_RIGHT.wav	2	16	blb_dichoticlistening_ga-ka.mp3	ga	ka	1	right
6.6.1	win	2023-07-08	12:37:25	12:50:01	750701	577d1216b425c40001434b2f	1	1	main_slash	24	advance_on_keypress_SLASH	10	stimuli_target_squaretriangles.svg	stimuli_distractor_diamondtriangles.svg	7	yes	57	0	869	6	2	antiphase_hc_ios.wav	3	6	4	noise_calib_stim_RIGHT.wav	2	16	blb_dichoticlistening_ga-ka.mp3	ga	ka	1	right
6.6.1	win	2023-07-08	12:37:25	12:50:04	754212	577d1216b425c40001434b2f	1	1	main_slash	24	main_slash	11	stimuli_distractor_trianglediamonds.svg	stimuli_distractor_trianglediamonds.svg	34	no	0	1	2000	6	2	antiphase_hc_ios.wav	3	6	4	noise_calib_stim_RIGHT.wav	2	16	blb_dichoticlistening_ga-ka.mp3	ga	ka	1	right
6.6.1	win	2023-07-08	12:37:25	12:50:04	754212	577d1216b425c40001434b2f	1	1	main_slash	24	advance_on_keypress_SLASH	12	stimuli_distractor_trianglediamonds.svg	stimuli_distractor_trianglediamonds.svg	34	no	57	0	417	6	2	antiphase_hc_ios.wav	3	6	4	noise_calib_stim_RIGHT.wav	2	16	blb_dichoticlistening_ga-ka.mp3	ga	ka	1	right
6.6.1	win	2023-07-08	12:37:25	12:50:06	756093	577d1216b425c40001434b2f	1	1	main_slash	24	main_slash	13	stimuli_distractor_trianglediamonds.svg	stimuli_distractor_diamondtriangles.svg	35	no	53	0	816	6	2	antiphase_hc_ios.wav	3	6	4	noise_calib_stim_RIGHT.wav	2	16	blb_dichoticlistening_ga-ka.mp3	ga	ka	1	right
6.6.1	win	2023-07-08	12:37:25	12:50:06	756093	577d1216b425c40001434b2f	1	1	main_slash	24	advance_on_keypress_SLASH	14	stimuli_distractor_trianglediamonds.svg	stimuli_distractor_diamondtriangles.svg	35	no	57	0	799	6	2	antiphase_hc_ios.wav	3	6	4	noise_calib_stim_RIGHT.wav	2	16	blb_dichoticlistening_ga-ka.mp3	ga	ka	1	right
6.6.1	win	2023-07-08	12:37:25	12:50:08	758157	577d1216b425c40001434b2f	1	1	main_slash	24	main_slash	15	stimuli_distractor_trianglediamonds.svg	stimuli_target_diamondsquares.svg	28	yes	53	1	614	6	2	antiphase_hc_ios.wav	3	6	4	noise_calib_stim_RIGHT.wav	2	16	blb_dichoticlistening_ga-ka.mp3	ga	ka	1	right
6.6.1	win	2023-07-08	12:37:25	12:50:08	758157	577d1216b425c40001434b2f	1	1	main_slash	24	advance_on_keypress_SLASH	16	stimuli_distractor_trianglediamonds.svg	stimuli_target_diamondsquares.svg	28	yes	57	0	1253	6	2	antiphase_hc_ios.wav	3	6	4	noise_calib_stim_RIGHT.wav	2	16	blb_dichoticlistening_ga-ka.mp3	ga	ka	1	right
6.6.1	win	2023-07-08	12:37:25	12:50:11	760661	577d1216b425c40001434b2f	1	1	main_slash	24	main_slash	17	stimuli_target_squaretriangles.svg	stimuli_distractor_trianglediamonds.svg	3	yes	53	1	602	6	2	antiphase_hc_ios.wav	3	6	4	noise_calib_stim_RIGHT.wav	2	16	blb_dichoticlistening_ga-ka.mp3	ga	ka	1	right
6.6.1	win	2023-07-08	12:37:25	12:50:11	760661	577d1216b425c40001434b2f	1	1	main_slash	24	advance_on_keypress_SLASH	18	stimuli_target_squaretriangles.svg	stimuli_distractor_trianglediamonds.svg	3	yes	57	0	1026	6	2	antiphase_hc_ios.wav	3	6	4	noise_calib_stim_RIGHT.wav	2	16	blb_dichoticlistening_ga-ka.mp3	ga	ka	1	right
6.6.1	win	2023-07-08	12:37:25	12:50:13	763053	577d1216b425c40001434b2f	1	1	main_slash	24	main_slash	19	stimuli_target_squarediamonds.svg	stimuli_distractor_trianglediamonds.svg	4	yes	53	1	728	6	2	antiphase_hc_ios.wav	3	6	4	noise_calib_stim_RIGHT.wav	2	16	blb_dichoticlistening_ga-ka.mp3	ga	ka	1	right
6.6.1	win	2023-07-08	12:37:25	12:50:13	763053	577d1216b425c40001434b2f	1	1	main_slash	24	advance_on_keypress_SLASH	20	stimuli_target_squarediamonds.svg	stimuli_distractor_trianglediamonds.svg	4	yes	57	0	875	6	2	antiphase_hc_ios.wav	3	6	4	noise_calib_stim_RIGHT.wav	2	16	blb_dichoticlistening_ga-ka.mp3	ga	ka	1	right
6.6.1	win	2023-07-08	12:37:25	12:50:15	765021	577d1216b425c40001434b2f	1	1	main_slash	24	main_slash	21	stimuli_distractor_trianglediamonds.svg	stimuli_target_squarediamonds.svg	12	yes	53	1	463	6	2	antiphase_hc_ios.wav	3	6	4	noise_calib_stim_RIGHT.wav	2	16	blb_dichoticlistening_ga-ka.mp3	ga	ka	1	right
6.6.1	win	2023-07-08	12:37:25	12:50:15	765021	577d1216b425c40001434b2f	1	1	main_slash	24	advance_on_keypress_SLASH	22	stimuli_distractor_trianglediamonds.svg	stimuli_target_squarediamonds.svg	12	yes	57	0	853	6	2	antiphase_hc_ios.wav	3	6	4	noise_calib_stim_RIGHT.wav	2	16	blb_dichoticlistening_ga-ka.mp3	ga	ka	1	right
6.6.1	win	2023-07-08	12:37:25	12:50:17	766973	577d1216b425c40001434b2f	1	1	main_slash	24	main_slash	23	stimuli_distractor_diamondtriangles.svg	stimuli_target_rectangletriangles.svg	13	yes	53	1	466	6	2	antiphase_hc_ios.wav	3	6	4	noise_calib_stim_RIGHT.wav	2	16	blb_dichoticlistening_ga-ka.mp3	ga	ka	1	right
6.6.1	win	2023-07-08	12:37:25	12:50:17	766973	577d1216b425c40001434b2f	1	1	main_slash	24	advance_on_keypress_SLASH	24	stimuli_distractor_diamondtriangles.svg	stimuli_target_rectangletriangles.svg	13	yes	57	0	711	6	2	antiphase_hc_ios.wav	3	6	4	noise_calib_stim_RIGHT.wav	2	16	blb_dichoticlistening_ga-ka.mp3	ga	ka	1	right
6.6.1	win	2023-07-08	12:37:25	12:50:20	770323	577d1216b425c40001434b2f	1	1	main_slash	24	main_slash	25	stimuli_distractor_trianglediamonds.svg	stimuli_distractor_trianglediamonds.svg	33	no	0	1	2000	6	2	antiphase_hc_ios.wav	3	6	4	noise_calib_stim_RIGHT.wav	2	16	blb_dichoticlistening_ga-ka.mp3	ga	ka	1	right
6.6.1	win	2023-07-08	12:37:25	12:50:20	770323	577d1216b425c40001434b2f	1	1	main_slash	24	advance_on_keypress_SLASH	26	stimuli_distractor_trianglediamonds.svg	stimuli_distractor_trianglediamonds.svg	33	no	57	0	610	6	2	antiphase_hc_ios.wav	3	6	4	noise_calib_stim_RIGHT.wav	2	16	blb_dichoticlistening_ga-ka.mp3	ga	ka	1	right
6.6.1	win	2023-07-08	12:37:25	12:50:22	772093	577d1216b425c40001434b2f	1	1	main_slash	24	main_slash	27	stimuli_target_rectangletriangles.svg	stimuli_distractor_diamondtriangles.svg	5	yes	53	1	521	6	2	antiphase_hc_ios.wav	3	6	4	noise_calib_stim_RIGHT.wav	2	16	blb_dichoticlistening_ga-ka.mp3	ga	ka	1	right
6.6.1	win	2023-07-08	12:37:25	12:50:22	772093	577d1216b425c40001434b2f	1	1	main_slash	24	advance_on_keypress_SLASH	28	stimuli_target_rectangletriangles.svg	stimuli_distractor_diamondtriangles.svg	5	yes	57	0	940	6	2	antiphase_hc_ios.wav	3	6	4	noise_calib_stim_RIGHT.wav	2	16	blb_dichoticlistening_ga-ka.mp3	ga	ka	1	right
6.6.1	win	2023-07-08	12:37:25	12:50:24	774229	577d1216b425c40001434b2f	1	1	main_slash	24	main_slash	29	stimuli_target_squarediamonds.svg	stimuli_distractor_diamondtriangles.svg	8	yes	53	1	558	6	2	antiphase_hc_ios.wav	3	6	4	noise_calib_stim_RIGHT.wav	2	16	blb_dichoticlistening_ga-ka.mp3	ga	ka	1	right
6.6.1	win	2023-07-08	12:37:25	12:50:24	774229	577d1216b425c40001434b2f	1	1	main_slash	24	advance_on_keypress_SLASH	30	stimuli_target_squarediamonds.svg	stimuli_distractor_diamondtriangles.svg	8	yes	57	0	687	6	2	antiphase_hc_ios.wav	3	6	4	noise_calib_stim_RIGHT.wav	2	16	blb_dichoticlistening_ga-ka.mp3	ga	ka	1	right
6.6.1	win	2023-07-08	12:37:25	12:50:26	776077	577d1216b425c40001434b2f	1	1	main_slash	24	main_slash	31	stimuli_distractor_trianglediamonds.svg	stimuli_target_squaretriangles.svg	11	yes	53	1	523	6	2	antiphase_hc_ios.wav	3	6	4	noise_calib_stim_RIGHT.wav	2	16	blb_dichoticlistening_ga-ka.mp3	ga	ka	1	right
6.6.1	win	2023-07-08	12:37:25	12:50:26	776077	577d1216b425c40001434b2f	1	1	main_slash	24	advance_on_keypress_SLASH	32	stimuli_distractor_trianglediamonds.svg	stimuli_target_squaretriangles.svg	11	yes	57	0	598	6	2	antiphase_hc_ios.wav	3	6	4	noise_calib_stim_RIGHT.wav	2	16	blb_dichoticlistening_ga-ka.mp3	ga	ka	1	right
6.6.1	win	2023-07-08	12:37:25	12:50:29	779320	577d1216b425c40001434b2f	1	1	main_slash	24	main_slash	33	stimuli_distractor_trianglediamonds.svg	stimuli_target_trianglerectangles.svg	25	yes	0	0	2000	6	2	antiphase_hc_ios.wav	3	6	4	noise_calib_stim_RIGHT.wav	2	16	blb_dichoticlistening_ga-ka.mp3	ga	ka	1	right
6.6.1	win	2023-07-08	12:37:25	12:50:29	779320	577d1216b425c40001434b2f	1	1	main_slash	24	advance_on_keypress_SLASH	34	stimuli_distractor_trianglediamonds.svg	stimuli_target_trianglerectangles.svg	25	yes	57	0	581	6	2	antiphase_hc_ios.wav	3	6	4	noise_calib_stim_RIGHT.wav	2	16	blb_dichoticlistening_ga-ka.mp3	ga	ka	1	right
6.6.1	win	2023-07-08	12:37:25	12:50:31	781068	577d1216b425c40001434b2f	1	1	main_slash	24	main_slash	35	stimuli_target_rectanglediamonds.svg	stimuli_distractor_trianglediamonds.svg	2	yes	53	1	508	6	2	antiphase_hc_ios.wav	3	6	4	noise_calib_stim_RIGHT.wav	2	16	blb_dichoticlistening_ga-ka.mp3	ga	ka	1	right
6.6.1	win	2023-07-08	12:37:25	12:50:31	781068	577d1216b425c40001434b2f	1	1	main_slash	24	advance_on_keypress_SLASH	36	stimuli_target_rectanglediamonds.svg	stimuli_distractor_trianglediamonds.svg	2	yes	57	0	783	6	2	antiphase_hc_ios.wav	3	6	4	noise_calib_stim_RIGHT.wav	2	16	blb_dichoticlistening_ga-ka.mp3	ga	ka	1	right
6.6.1	win	2023-07-08	12:37:25	12:50:33	783061	577d1216b425c40001434b2f	1	1	main_slash	24	main_slash	37	stimuli_distractor_diamondtriangles.svg	stimuli_target_diamondsquares.svg	32	yes	53	1	559	6	2	antiphase_hc_ios.wav	3	6	4	noise_calib_stim_RIGHT.wav	2	16	blb_dichoticlistening_ga-ka.mp3	ga	ka	1	right
6.6.1	win	2023-07-08	12:37:25	12:50:33	783061	577d1216b425c40001434b2f	1	1	main_slash	24	advance_on_keypress_SLASH	38	stimuli_distractor_diamondtriangles.svg	stimuli_target_diamondsquares.svg	32	yes	57	0	721	6	2	antiphase_hc_ios.wav	3	6	4	noise_calib_stim_RIGHT.wav	2	16	blb_dichoticlistening_ga-ka.mp3	ga	ka	1	right
6.6.1	win	2023-07-08	12:37:25	12:50:35	785246	577d1216b425c40001434b2f	1	1	main_slash	24	main_slash	39	stimuli_target_trianglerectangles.svg	stimuli_distractor_trianglediamonds.svg	17	yes	53	1	828	6	2	antiphase_hc_ios.wav	3	6	4	noise_calib_stim_RIGHT.wav	2	16	blb_dichoticlistening_ga-ka.mp3	ga	ka	1	right
6.6.1	win	2023-07-08	12:37:25	12:50:35	785246	577d1216b425c40001434b2f	1	1	main_slash	24	advance_on_keypress_SLASH	40	stimuli_target_trianglerectangles.svg	stimuli_distractor_trianglediamonds.svg	17	yes	57	0	826	6	2	antiphase_hc_ios.wav	3	6	4	noise_calib_stim_RIGHT.wav	2	16	blb_dichoticlistening_ga-ka.mp3	ga	ka	1	right
6.6.1	win	2023-07-08	12:37:25	12:50:37	787253	577d1216b425c40001434b2f	1	1	main_slash	24	main_slash	41	stimuli_distractor_diamondtriangles.svg	stimuli_target_rectanglediamonds.svg	14	yes	53	1	553	6	2	antiphase_hc_ios.wav	3	6	4	noise_calib_stim_RIGHT.wav	2	16	blb_dichoticlistening_ga-ka.mp3	ga	ka	1	right
6.6.1	win	2023-07-08	12:37:25	12:50:37	787253	577d1216b425c40001434b2f	1	1	main_slash	24	advance_on_keypress_SLASH	42	stimuli_distractor_diamondtriangles.svg	stimuli_target_rectanglediamonds.svg	14	yes	57	0	754	6	2	antiphase_hc_ios.wav	3	6	4	noise_calib_stim_RIGHT.wav	2	16	blb_dichoticlistening_ga-ka.mp3	ga	ka	1	right
6.6.1	win	2023-07-08	12:37:25	12:50:39	789253	577d1216b425c40001434b2f	1	1	main_slash	24	main_slash	43	stimuli_target_rectangletriangles.svg	stimuli_distractor_trianglediamonds.svg	1	yes	53	1	603	6	2	antiphase_hc_ios.wav	3	6	4	noise_calib_stim_RIGHT.wav	2	16	blb_dichoticlistening_ga-ka.mp3	ga	ka	1	right
6.6.1	win	2023-07-08	12:37:25	12:50:39	789253	577d1216b425c40001434b2f	1	1	main_slash	24	advance_on_keypress_SLASH	44	stimuli_target_rectangletriangles.svg	stimuli_distractor_trianglediamonds.svg	1	yes	57	0	699	6	2	antiphase_hc_ios.wav	3	6	4	noise_calib_stim_RIGHT.wav	2	16	blb_dichoticlistening_ga-ka.mp3	ga	ka	1	right
6.6.1	win	2023-07-08	12:37:25	12:50:41	791317	577d1216b425c40001434b2f	1	1	main_slash	24	main_slash	45	stimuli_target_trianglerectangles.svg	stimuli_distractor_diamondtriangles.svg	21	yes	53	1	718	6	2	antiphase_hc_ios.wav	3	6	4	noise_calib_stim_RIGHT.wav	2	16	blb_dichoticlistening_ga-ka.mp3	ga	ka	1	right
6.6.1	win	2023-07-08	12:37:25	12:50:41	791317	577d1216b425c40001434b2f	1	1	main_slash	24	advance_on_keypress_SLASH	46	stimuli_target_trianglerectangles.svg	stimuli_distractor_diamondtriangles.svg	21	yes	57	0	713	6	2	antiphase_hc_ios.wav	3	6	4	noise_calib_stim_RIGHT.wav	2	16	blb_dichoticlistening_ga-ka.mp3	ga	ka	1	right
6.6.1	win	2023-07-08	12:37:25	12:50:45	794682	577d1216b425c40001434b2f	1	1	main_slash	24	main_slash	47	stimuli_distractor_diamondtriangles.svg	stimuli_distractor_trianglediamonds.svg	38	no	0	1	2000	6	2	antiphase_hc_ios.wav	3	6	4	noise_calib_stim_RIGHT.wav	2	16	blb_dichoticlistening_ga-ka.mp3	ga	ka	1	right
6.6.1	win	2023-07-08	12:37:25	12:50:45	794682	577d1216b425c40001434b2f	1	1	main_slash	24	advance_on_keypress_SLASH	48	stimuli_distractor_diamondtriangles.svg	stimuli_distractor_trianglediamonds.svg	38	no	57	0	771	6	2	antiphase_hc_ios.wav	3	6	4	noise_calib_stim_RIGHT.wav	2	16	blb_dichoticlistening_ga-ka.mp3	ga	ka	1	right
6.6.1	win	2023-07-08	12:37:25	12:50:47	796615	577d1216b425c40001434b2f	1	1	main_slash	24	main_slash	49	stimuli_target_diamondrectangles.svg	stimuli_distractor_trianglediamonds.svg	19	yes	53	1	516	6	2	antiphase_hc_ios.wav	3	6	4	noise_calib_stim_RIGHT.wav	2	16	blb_dichoticlistening_ga-ka.mp3	ga	ka	1	right
6.6.1	win	2023-07-08	12:37:25	12:50:47	796615	577d1216b425c40001434b2f	1	1	main_slash	24	advance_on_keypress_SLASH	50	stimuli_target_diamondrectangles.svg	stimuli_distractor_trianglediamonds.svg	19	yes	57	0	775	6	2	antiphase_hc_ios.wav	3	6	4	noise_calib_stim_RIGHT.wav	2	16	blb_dichoticlistening_ga-ka.mp3	ga	ka	1	right
6.6.1	win	2023-07-08	12:37:25	12:50:49	798621	577d1216b425c40001434b2f	1	1	main_slash	24	main_slash	51	stimuli_distractor_diamondtriangles.svg	stimuli_target_squaretriangles.svg	15	yes	53	1	591	6	2	antiphase_hc_ios.wav	3	6	4	noise_calib_stim_RIGHT.wav	2	16	blb_dichoticlistening_ga-ka.mp3	ga	ka	1	right
6.6.1	win	2023-07-08	12:37:25	12:50:49	798621	577d1216b425c40001434b2f	1	1	main_slash	24	advance_on_keypress_SLASH	52	stimuli_distractor_diamondtriangles.svg	stimuli_target_squaretriangles.svg	15	yes	57	0	607	6	2	antiphase_hc_ios.wav	3	6	4	noise_calib_stim_RIGHT.wav	2	16	blb_dichoticlistening_ga-ka.mp3	ga	ka	1	right
6.6.1	win	2023-07-08	12:37:25	12:50:52	801863	577d1216b425c40001434b2f	1	1	main_slash	24	main_slash	53	stimuli_distractor_diamondtriangles.svg	stimuli_distractor_diamondtriangles.svg	39	no	0	1	2000	6	2	antiphase_hc_ios.wav	3	6	4	noise_calib_stim_RIGHT.wav	2	16	blb_dichoticlistening_ga-ka.mp3	ga	ka	1	right
6.6.1	win	2023-07-08	12:37:25	12:50:52	801863	577d1216b425c40001434b2f	1	1	main_slash	24	advance_on_keypress_SLASH	54	stimuli_distractor_diamondtriangles.svg	stimuli_distractor_diamondtriangles.svg	39	no	57	0	550	6	2	antiphase_hc_ios.wav	3	6	4	noise_calib_stim_RIGHT.wav	2	16	blb_dichoticlistening_ga-ka.mp3	ga	ka	1	right
6.6.1	win	2023-07-08	12:37:25	12:50:54	803613	577d1216b425c40001434b2f	1	1	main_slash	24	main_slash	55	stimuli_target_trianglesquares.svg	stimuli_distractor_trianglediamonds.svg	18	yes	53	1	551	6	2	antiphase_hc_ios.wav	3	6	4	noise_calib_stim_RIGHT.wav	2	16	blb_dichoticlistening_ga-ka.mp3	ga	ka	1	right
6.6.1	win	2023-07-08	12:37:25	12:50:54	803613	577d1216b425c40001434b2f	1	1	main_slash	24	advance_on_keypress_SLASH	56	stimuli_target_trianglesquares.svg	stimuli_distractor_trianglediamonds.svg	18	yes	57	0	729	6	2	antiphase_hc_ios.wav	3	6	4	noise_calib_stim_RIGHT.wav	2	16	blb_dichoticlistening_ga-ka.mp3	ga	ka	1	right
6.6.1	win	2023-07-08	12:37:25	12:50:56	805606	577d1216b425c40001434b2f	1	1	main_slash	24	main_slash	57	stimuli_distractor_diamondtriangles.svg	stimuli_target_trianglesquares.svg	30	yes	53	1	628	6	2	antiphase_hc_ios.wav	3	6	4	noise_calib_stim_RIGHT.wav	2	16	blb_dichoticlistening_ga-ka.mp3	ga	ka	1	right
6.6.1	win	2023-07-08	12:37:25	12:50:56	805606	577d1216b425c40001434b2f	1	1	main_slash	24	advance_on_keypress_SLASH	58	stimuli_distractor_diamondtriangles.svg	stimuli_target_trianglesquares.svg	30	yes	57	0	666	6	2	antiphase_hc_ios.wav	3	6	4	noise_calib_stim_RIGHT.wav	2	16	blb_dichoticlistening_ga-ka.mp3	ga	ka	1	right
6.6.1	win	2023-07-08	12:37:25	12:50:58	807525	577d1216b425c40001434b2f	1	1	main_slash	24	main_slash	59	stimuli_target_trianglesquares.svg	stimuli_distractor_diamondtriangles.svg	22	yes	53	1	615	6	2	antiphase_hc_ios.wav	3	6	4	noise_calib_stim_RIGHT.wav	2	16	blb_dichoticlistening_ga-ka.mp3	ga	ka	1	right
6.6.1	win	2023-07-08	12:37:25	12:50:58	807525	577d1216b425c40001434b2f	1	1	main_slash	24	advance_on_keypress_SLASH	60	stimuli_target_trianglesquares.svg	stimuli_distractor_diamondtriangles.svg	22	yes	57	0	670	6	2	antiphase_hc_ios.wav	3	6	4	noise_calib_stim_RIGHT.wav	2	16	blb_dichoticlistening_ga-ka.mp3	ga	ka	1	right
6.6.1	win	2023-07-08	12:37:25	12:51:00	809429	577d1216b425c40001434b2f	1	1	main_slash	24	main_slash	61	stimuli_target_rectanglediamonds.svg	stimuli_distractor_diamondtriangles.svg	6	yes	53	1	586	6	2	antiphase_hc_ios.wav	3	6	4	noise_calib_stim_RIGHT.wav	2	16	blb_dichoticlistening_ga-ka.mp3	ga	ka	1	right
6.6.1	win	2023-07-08	12:37:25	12:51:00	809429	577d1216b425c40001434b2f	1	1	main_slash	24	advance_on_keypress_SLASH	62	stimuli_target_rectanglediamonds.svg	stimuli_distractor_diamondtriangles.svg	6	yes	57	0	626	6	2	antiphase_hc_ios.wav	3	6	4	noise_calib_stim_RIGHT.wav	2	16	blb_dichoticlistening_ga-ka.mp3	ga	ka	1	right
6.6.1	win	2023-07-08	12:37:25	12:51:01	811301	577d1216b425c40001434b2f	1	1	main_slash	24	main_slash	63	stimuli_distractor_trianglediamonds.svg	stimuli_target_trianglesquares.svg	26	yes	53	1	608	6	2	antiphase_hc_ios.wav	3	6	4	noise_calib_stim_RIGHT.wav	2	16	blb_dichoticlistening_ga-ka.mp3	ga	ka	1	right
6.6.1	win	2023-07-08	12:37:25	12:51:01	811301	577d1216b425c40001434b2f	1	1	main_slash	24	advance_on_keypress_SLASH	64	stimuli_distractor_trianglediamonds.svg	stimuli_target_trianglesquares.svg	26	yes	57	0	720	6	2	antiphase_hc_ios.wav	3	6	4	noise_calib_stim_RIGHT.wav	2	16	blb_dichoticlistening_ga-ka.mp3	ga	ka	1	right
6.6.1	win	2023-07-08	12:37:25	12:51:05	814658	577d1216b425c40001434b2f	1	1	main_slash	24	main_slash	65	stimuli_distractor_diamondtriangles.svg	stimuli_distractor_trianglediamonds.svg	37	no	0	1	2000	6	2	antiphase_hc_ios.wav	3	6	4	noise_calib_stim_RIGHT.wav	2	16	blb_dichoticlistening_ga-ka.mp3	ga	ka	1	right
6.6.1	win	2023-07-08	12:37:25	12:51:05	814658	577d1216b425c40001434b2f	1	1	main_slash	24	advance_on_keypress_SLASH	66	stimuli_distractor_diamondtriangles.svg	stimuli_distractor_trianglediamonds.svg	37	no	57	0	531	6	2	antiphase_hc_ios.wav	3	6	4	noise_calib_stim_RIGHT.wav	2	16	blb_dichoticlistening_ga-ka.mp3	ga	ka	1	right
6.6.1	win	2023-07-08	12:37:25	12:51:08	817841	577d1216b425c40001434b2f	1	1	main_slash	24	main_slash	67	stimuli_distractor_trianglediamonds.svg	stimuli_distractor_diamondtriangles.svg	36	no	0	1	2000	6	2	antiphase_hc_ios.wav	3	6	4	noise_calib_stim_RIGHT.wav	2	16	blb_dichoticlistening_ga-ka.mp3	ga	ka	1	right
6.6.1	win	2023-07-08	12:37:25	12:51:08	817841	577d1216b425c40001434b2f	1	1	main_slash	24	advance_on_keypress_SLASH	68	stimuli_distractor_trianglediamonds.svg	stimuli_distractor_diamondtriangles.svg	36	no	57	0	812	6	2	antiphase_hc_ios.wav	3	6	4	noise_calib_stim_RIGHT.wav	2	16	blb_dichoticlistening_ga-ka.mp3	ga	ka	1	right
6.6.1	win	2023-07-08	12:37:25	12:51:10	819925	577d1216b425c40001434b2f	1	1	main_slash	24	main_slash	69	stimuli_distractor_diamondtriangles.svg	stimuli_target_trianglerectangles.svg	29	yes	53	1	635	6	2	antiphase_hc_ios.wav	3	6	4	noise_calib_stim_RIGHT.wav	2	16	blb_dichoticlistening_ga-ka.mp3	ga	ka	1	right
6.6.1	win	2023-07-08	12:37:25	12:51:10	819925	577d1216b425c40001434b2f	1	1	main_slash	24	advance_on_keypress_SLASH	70	stimuli_distractor_diamondtriangles.svg	stimuli_target_trianglerectangles.svg	29	yes	57	0	698	6	2	antiphase_hc_ios.wav	3	6	4	noise_calib_stim_RIGHT.wav	2	16	blb_dichoticlistening_ga-ka.mp3	ga	ka	1	right
6.6.1	win	2023-07-08	12:37:25	12:51:12	821885	577d1216b425c40001434b2f	1	1	main_slash	24	main_slash	71	stimuli_target_diamondrectangles.svg	stimuli_distractor_diamondtriangles.svg	23	yes	53	1	613	6	2	antiphase_hc_ios.wav	3	6	4	noise_calib_stim_RIGHT.wav	2	16	blb_dichoticlistening_ga-ka.mp3	ga	ka	1	right
6.6.1	win	2023-07-08	12:37:25	12:51:12	821885	577d1216b425c40001434b2f	1	1	main_slash	24	advance_on_keypress_SLASH	72	stimuli_target_diamondrectangles.svg	stimuli_distractor_diamondtriangles.svg	23	yes	57	0	636	6	2	antiphase_hc_ios.wav	3	6	4	noise_calib_stim_RIGHT.wav	2	16	blb_dichoticlistening_ga-ka.mp3	ga	ka	1	right
6.6.1	win	2023-07-08	12:37:25	12:51:14	824013	577d1216b425c40001434b2f	1	1	main_slash	24	main_slash	73	stimuli_distractor_trianglediamonds.svg	stimuli_target_diamondrectangles.svg	27	yes	53	1	858	6	2	antiphase_hc_ios.wav	3	6	4	noise_calib_stim_RIGHT.wav	2	16	blb_dichoticlistening_ga-ka.mp3	ga	ka	1	right
6.6.1	win	2023-07-08	12:37:25	12:51:14	824013	577d1216b425c40001434b2f	1	1	main_slash	24	advance_on_keypress_SLASH	74	stimuli_distractor_trianglediamonds.svg	stimuli_target_diamondrectangles.svg	27	yes	57	0	665	6	2	antiphase_hc_ios.wav	3	6	4	noise_calib_stim_RIGHT.wav	2	16	blb_dichoticlistening_ga-ka.mp3	ga	ka	1	right
6.6.1	win	2023-07-08	12:37:25	12:51:16	825901	577d1216b425c40001434b2f	1	1	main_slash	24	main_slash	75	stimuli_distractor_trianglediamonds.svg	stimuli_target_rectanglediamonds.svg	10	yes	53	1	580	6	2	antiphase_hc_ios.wav	3	6	4	noise_calib_stim_RIGHT.wav	2	16	blb_dichoticlistening_ga-ka.mp3	ga	ka	1	right
6.6.1	win	2023-07-08	12:37:25	12:51:16	825901	577d1216b425c40001434b2f	1	1	main_slash	24	advance_on_keypress_SLASH	76	stimuli_distractor_trianglediamonds.svg	stimuli_target_rectanglediamonds.svg	10	yes	57	0	708	6	2	antiphase_hc_ios.wav	3	6	4	noise_calib_stim_RIGHT.wav	2	16	blb_dichoticlistening_ga-ka.mp3	ga	ka	1	right
6.6.1	win	2023-07-08	12:37:25	12:51:18	827805	577d1216b425c40001434b2f	1	1	main_slash	24	main_slash	77	stimuli_target_diamondsquares.svg	stimuli_distractor_trianglediamonds.svg	20	yes	53	1	551	6	2	antiphase_hc_ios.wav	3	6	4	noise_calib_stim_RIGHT.wav	2	16	blb_dichoticlistening_ga-ka.mp3	ga	ka	1	right
6.6.1	win	2023-07-08	12:37:25	12:51:18	827805	577d1216b425c40001434b2f	1	1	main_slash	24	advance_on_keypress_SLASH	78	stimuli_target_diamondsquares.svg	stimuli_distractor_trianglediamonds.svg	20	yes	57	0	641	6	2	antiphase_hc_ios.wav	3	6	4	noise_calib_stim_RIGHT.wav	2	16	blb_dichoticlistening_ga-ka.mp3	ga	ka	1	right
6.6.1	win	2023-07-08	12:37:25	12:51:20	829637	577d1216b425c40001434b2f	1	1	main_slash	24	main_slash	79	stimuli_distractor_diamondtriangles.svg	stimuli_target_diamondrectangles.svg	31	yes	53	1	550	6	2	antiphase_hc_ios.wav	3	6	4	noise_calib_stim_RIGHT.wav	2	16	blb_dichoticlistening_ga-ka.mp3	ga	ka	1	right
6.6.1	win	2023-07-08	12:37:25	12:51:20	829637	577d1216b425c40001434b2f	1	1	main_slash	24	advance_on_keypress_SLASH	80	stimuli_distractor_diamondtriangles.svg	stimuli_target_diamondrectangles.svg	31	yes	57	0	576	6	2	antiphase_hc_ios.wav	3	6	4	noise_calib_stim_RIGHT.wav	2	16	blb_dichoticlistening_ga-ka.mp3	ga	ka	1	right
6.6.1	win	2023-07-08	12:37:25	12:51:22	831381	577d1216b425c40001434b2f	1	1	main_slash	24	main_slash	81	stimuli_target_diamondsquares.svg	stimuli_distractor_diamondtriangles.svg	24	yes	53	1	528	6	2	antiphase_hc_ios.wav	3	6	4	noise_calib_stim_RIGHT.wav	2	16	blb_dichoticlistening_ga-ka.mp3	ga	ka	1	right
6.6.1	win	2023-07-08	12:37:25	12:51:22	831381	577d1216b425c40001434b2f	1	1	main_slash	24	advance_on_keypress_SLASH	82	stimuli_target_diamondsquares.svg	stimuli_distractor_diamondtriangles.svg	24	yes	57	0	539	6	2	antiphase_hc_ios.wav	3	6	4	noise_calib_stim_RIGHT.wav	2	16	blb_dichoticlistening_ga-ka.mp3	ga	ka	1	right
6.6.1	win	2023-07-08	12:37:25	12:51:23	833021	577d1216b425c40001434b2f	1	1	main_slash	24	main_slash	83	stimuli_target_trianglesquares.svg	stimuli_distractor_diamondtriangles.svg	22	yes	53	1	469	6	2	antiphase_hc_ios.wav	3	6	4	noise_calib_stim_RIGHT.wav	2	16	blb_dichoticlistening_ga-ka.mp3	ga	ka	1	right
6.6.1	win	2023-07-08	12:37:25	12:51:23	833021	577d1216b425c40001434b2f	1	1	main_slash	24	advance_on_keypress_SLASH	84	stimuli_target_trianglesquares.svg	stimuli_distractor_diamondtriangles.svg	22	yes	57	0	570	6	2	antiphase_hc_ios.wav	3	6	4	noise_calib_stim_RIGHT.wav	2	16	blb_dichoticlistening_ga-ka.mp3	ga	ka	1	right
6.6.1	win	2023-07-08	12:37:25	12:51:25	834773	577d1216b425c40001434b2f	1	1	main_slash	24	main_slash	85	stimuli_target_trianglerectangles.svg	stimuli_distractor_trianglediamonds.svg	17	yes	53	1	538	6	2	antiphase_hc_ios.wav	3	6	4	noise_calib_stim_RIGHT.wav	2	16	blb_dichoticlistening_ga-ka.mp3	ga	ka	1	right
6.6.1	win	2023-07-08	12:37:25	12:51:25	834773	577d1216b425c40001434b2f	1	1	main_slash	24	advance_on_keypress_SLASH	86	stimuli_target_trianglerectangles.svg	stimuli_distractor_trianglediamonds.svg	17	yes	57	0	549	6	2	antiphase_hc_ios.wav	3	6	4	noise_calib_stim_RIGHT.wav	2	16	blb_dichoticlistening_ga-ka.mp3	ga	ka	1	right
6.6.1	win	2023-07-08	12:37:25	12:51:27	836534	577d1216b425c40001434b2f	1	1	main_slash	24	main_slash	87	stimuli_target_rectanglediamonds.svg	stimuli_distractor_trianglediamonds.svg	2	yes	53	1	567	6	2	antiphase_hc_ios.wav	3	6	4	noise_calib_stim_RIGHT.wav	2	16	blb_dichoticlistening_ga-ka.mp3	ga	ka	1	right
6.6.1	win	2023-07-08	12:37:25	12:51:27	836534	577d1216b425c40001434b2f	1	1	main_slash	24	advance_on_keypress_SLASH	88	stimuli_target_rectanglediamonds.svg	stimuli_distractor_trianglediamonds.svg	2	yes	57	0	502	6	2	antiphase_hc_ios.wav	3	6	4	noise_calib_stim_RIGHT.wav	2	16	blb_dichoticlistening_ga-ka.mp3	ga	ka	1	right
6.6.1	win	2023-07-08	12:37:25	12:51:28	838238	577d1216b425c40001434b2f	1	1	main_slash	24	main_slash	89	stimuli_distractor_diamondtriangles.svg	stimuli_target_trianglesquares.svg	30	yes	53	1	553	6	2	antiphase_hc_ios.wav	3	6	4	noise_calib_stim_RIGHT.wav	2	16	blb_dichoticlistening_ga-ka.mp3	ga	ka	1	right
6.6.1	win	2023-07-08	12:37:25	12:51:28	838238	577d1216b425c40001434b2f	1	1	main_slash	24	advance_on_keypress_SLASH	90	stimuli_distractor_diamondtriangles.svg	stimuli_target_trianglesquares.svg	30	yes	57	0	523	6	2	antiphase_hc_ios.wav	3	6	4	noise_calib_stim_RIGHT.wav	2	16	blb_dichoticlistening_ga-ka.mp3	ga	ka	1	right
6.6.1	win	2023-07-08	12:37:25	12:51:30	839949	577d1216b425c40001434b2f	1	1	main_slash	24	main_slash	91	stimuli_target_diamondsquares.svg	stimuli_distractor_trianglediamonds.svg	20	yes	53	1	549	6	2	antiphase_hc_ios.wav	3	6	4	noise_calib_stim_RIGHT.wav	2	16	blb_dichoticlistening_ga-ka.mp3	ga	ka	1	right
6.6.1	win	2023-07-08	12:37:25	12:51:30	839949	577d1216b425c40001434b2f	1	1	main_slash	24	advance_on_keypress_SLASH	92	stimuli_target_diamondsquares.svg	stimuli_distractor_trianglediamonds.svg	20	yes	57	0	511	6	2	antiphase_hc_ios.wav	3	6	4	noise_calib_stim_RIGHT.wav	2	16	blb_dichoticlistening_ga-ka.mp3	ga	ka	1	right
6.6.1	win	2023-07-08	12:37:25	12:51:32	841645	577d1216b425c40001434b2f	1	1	main_slash	24	main_slash	93	stimuli_distractor_trianglediamonds.svg	stimuli_target_squarediamonds.svg	12	yes	53	1	546	6	2	antiphase_hc_ios.wav	3	6	4	noise_calib_stim_RIGHT.wav	2	16	blb_dichoticlistening_ga-ka.mp3	ga	ka	1	right
6.6.1	win	2023-07-08	12:37:25	12:51:32	841645	577d1216b425c40001434b2f	1	1	main_slash	24	advance_on_keypress_SLASH	94	stimuli_distractor_trianglediamonds.svg	stimuli_target_squarediamonds.svg	12	yes	57	0	540	6	2	antiphase_hc_ios.wav	3	6	4	noise_calib_stim_RIGHT.wav	2	16	blb_dichoticlistening_ga-ka.mp3	ga	ka	1	right
6.6.1	win	2023-07-08	12:37:25	12:51:34	843349	577d1216b425c40001434b2f	1	1	main_slash	24	main_slash	95	stimuli_distractor_trianglediamonds.svg	stimuli_target_rectanglediamonds.svg	10	yes	53	1	534	6	2	antiphase_hc_ios.wav	3	6	4	noise_calib_stim_RIGHT.wav	2	16	blb_dichoticlistening_ga-ka.mp3	ga	ka	1	right
6.6.1	win	2023-07-08	12:37:25	12:51:34	843349	577d1216b425c40001434b2f	1	1	main_slash	24	advance_on_keypress_SLASH	96	stimuli_distractor_trianglediamonds.svg	stimuli_target_rectanglediamonds.svg	10	yes	57	0	536	6	2	antiphase_hc_ios.wav	3	6	4	noise_calib_stim_RIGHT.wav	2	16	blb_dichoticlistening_ga-ka.mp3	ga	ka	1	right
6.6.1	win	2023-07-08	12:37:25	12:51:35	845237	577d1216b425c40001434b2f	1	1	main_slash	24	main_slash	97	stimuli_distractor_trianglediamonds.svg	stimuli_target_trianglerectangles.svg	25	yes	53	1	706	6	2	antiphase_hc_ios.wav	3	6	4	noise_calib_stim_RIGHT.wav	2	16	blb_dichoticlistening_ga-ka.mp3	ga	ka	1	right
6.6.1	win	2023-07-08	12:37:25	12:51:35	845237	577d1216b425c40001434b2f	1	1	main_slash	24	advance_on_keypress_SLASH	98	stimuli_distractor_trianglediamonds.svg	stimuli_target_trianglerectangles.svg	25	yes	57	0	493	6	2	antiphase_hc_ios.wav	3	6	4	noise_calib_stim_RIGHT.wav	2	16	blb_dichoticlistening_ga-ka.mp3	ga	ka	1	right
6.6.1	win	2023-07-08	12:37:25	12:51:37	846918	577d1216b425c40001434b2f	1	1	main_slash	24	main_slash	99	stimuli_target_diamondrectangles.svg	stimuli_distractor_diamondtriangles.svg	23	yes	53	1	554	6	2	antiphase_hc_ios.wav	3	6	4	noise_calib_stim_RIGHT.wav	2	16	blb_dichoticlistening_ga-ka.mp3	ga	ka	1	right
6.6.1	win	2023-07-08	12:37:25	12:51:37	846918	577d1216b425c40001434b2f	1	1	main_slash	24	advance_on_keypress_SLASH	100	stimuli_target_diamondrectangles.svg	stimuli_distractor_diamondtriangles.svg	23	yes	57	0	379	6	2	antiphase_hc_ios.wav	3	6	4	noise_calib_stim_RIGHT.wav	2	16	blb_dichoticlistening_ga-ka.mp3	ga	ka	1	right
6.6.1	win	2023-07-08	12:37:25	12:51:39	848645	577d1216b425c40001434b2f	1	1	main_slash	24	main_slash	101	stimuli_distractor_trianglediamonds.svg	stimuli_distractor_diamondtriangles.svg	36	no	53	0	715	6	2	antiphase_hc_ios.wav	3	6	4	noise_calib_stim_RIGHT.wav	2	16	blb_dichoticlistening_ga-ka.mp3	ga	ka	1	right
6.6.1	win	2023-07-08	12:37:25	12:51:39	848645	577d1216b425c40001434b2f	1	1	main_slash	24	advance_on_keypress_SLASH	102	stimuli_distractor_trianglediamonds.svg	stimuli_distractor_diamondtriangles.svg	36	no	57	0	454	6	2	antiphase_hc_ios.wav	3	6	4	noise_calib_stim_RIGHT.wav	2	16	blb_dichoticlistening_ga-ka.mp3	ga	ka	1	right
6.6.1	win	2023-07-08	12:37:25	12:51:41	850341	577d1216b425c40001434b2f	1	1	main_slash	24	main_slash	103	stimuli_distractor_diamondtriangles.svg	stimuli_target_diamondsquares.svg	32	yes	53	1	595	6	2	antiphase_hc_ios.wav	3	6	4	noise_calib_stim_RIGHT.wav	2	16	blb_dichoticlistening_ga-ka.mp3	ga	ka	1	right
6.6.1	win	2023-07-08	12:37:25	12:51:41	850341	577d1216b425c40001434b2f	1	1	main_slash	24	advance_on_keypress_SLASH	104	stimuli_distractor_diamondtriangles.svg	stimuli_target_diamondsquares.svg	32	yes	57	0	483	6	2	antiphase_hc_ios.wav	3	6	4	noise_calib_stim_RIGHT.wav	2	16	blb_dichoticlistening_ga-ka.mp3	ga	ka	1	right
6.6.1	win	2023-07-08	12:37:25	12:51:42	852053	577d1216b425c40001434b2f	1	1	main_slash	24	main_slash	105	stimuli_distractor_diamondtriangles.svg	stimuli_target_squarediamonds.svg	16	yes	53	1	591	6	2	antiphase_hc_ios.wav	3	6	4	noise_calib_stim_RIGHT.wav	2	16	blb_dichoticlistening_ga-ka.mp3	ga	ka	1	right
6.6.1	win	2023-07-08	12:37:25	12:51:42	852053	577d1216b425c40001434b2f	1	1	main_slash	24	advance_on_keypress_SLASH	106	stimuli_distractor_diamondtriangles.svg	stimuli_target_squarediamonds.svg	16	yes	57	0	503	6	2	antiphase_hc_ios.wav	3	6	4	noise_calib_stim_RIGHT.wav	2	16	blb_dichoticlistening_ga-ka.mp3	ga	ka	1	right
6.6.1	win	2023-07-08	12:37:25	12:51:44	853861	577d1216b425c40001434b2f	1	1	main_slash	24	main_slash	107	stimuli_distractor_diamondtriangles.svg	stimuli_target_squaretriangles.svg	15	yes	53	1	666	6	2	antiphase_hc_ios.wav	3	6	4	noise_calib_stim_RIGHT.wav	2	16	blb_dichoticlistening_ga-ka.mp3	ga	ka	1	right
6.6.1	win	2023-07-08	12:37:25	12:51:44	853861	577d1216b425c40001434b2f	1	1	main_slash	24	advance_on_keypress_SLASH	108	stimuli_distractor_diamondtriangles.svg	stimuli_target_squaretriangles.svg	15	yes	57	0	679	6	2	antiphase_hc_ios.wav	3	6	4	noise_calib_stim_RIGHT.wav	2	16	blb_dichoticlistening_ga-ka.mp3	ga	ka	1	right
6.6.1	win	2023-07-08	12:37:25	12:51:46	855813	577d1216b425c40001434b2f	1	1	main_slash	24	main_slash	109	stimuli_target_trianglesquares.svg	stimuli_distractor_trianglediamonds.svg	18	yes	53	1	635	6	2	antiphase_hc_ios.wav	3	6	4	noise_calib_stim_RIGHT.wav	2	16	blb_dichoticlistening_ga-ka.mp3	ga	ka	1	right
6.6.1	win	2023-07-08	12:37:25	12:51:46	855813	577d1216b425c40001434b2f	1	1	main_slash	24	advance_on_keypress_SLASH	110	stimuli_target_trianglesquares.svg	stimuli_distractor_trianglediamonds.svg	18	yes	57	0	458	6	2	antiphase_hc_ios.wav	3	6	4	noise_calib_stim_RIGHT.wav	2	16	blb_dichoticlistening_ga-ka.mp3	ga	ka	1	right
6.6.1	win	2023-07-08	12:37:25	12:51:49	858910	577d1216b425c40001434b2f	1	1	main_slash	24	main_slash	111	stimuli_distractor_diamondtriangles.svg	stimuli_distractor_diamondtriangles.svg	39	no	0	1	2000	6	2	antiphase_hc_ios.wav	3	6	4	noise_calib_stim_RIGHT.wav	2	16	blb_dichoticlistening_ga-ka.mp3	ga	ka	1	right
6.6.1	win	2023-07-08	12:37:25	12:51:49	858910	577d1216b425c40001434b2f	1	1	main_slash	24	advance_on_keypress_SLASH	112	stimuli_distractor_diamondtriangles.svg	stimuli_distractor_diamondtriangles.svg	39	no	57	0	527	6	2	antiphase_hc_ios.wav	3	6	4	noise_calib_stim_RIGHT.wav	2	16	blb_dichoticlistening_ga-ka.mp3	ga	ka	1	right
6.6.1	win	2023-07-08	12:37:25	12:51:51	860525	577d1216b425c40001434b2f	1	1	main_slash	24	main_slash	113	stimuli_distractor_diamondtriangles.svg	stimuli_target_diamondrectangles.svg	31	yes	53	1	449	6	2	antiphase_hc_ios.wav	3	6	4	noise_calib_stim_RIGHT.wav	2	16	blb_dichoticlistening_ga-ka.mp3	ga	ka	1	right
6.6.1	win	2023-07-08	12:37:25	12:51:51	860525	577d1216b425c40001434b2f	1	1	main_slash	24	advance_on_keypress_SLASH	114	stimuli_distractor_diamondtriangles.svg	stimuli_target_diamondrectangles.svg	31	yes	57	0	494	6	2	antiphase_hc_ios.wav	3	6	4	noise_calib_stim_RIGHT.wav	2	16	blb_dichoticlistening_ga-ka.mp3	ga	ka	1	right
6.6.1	win	2023-07-08	12:37:25	12:51:53	862365	577d1216b425c40001434b2f	1	1	main_slash	24	main_slash	115	stimuli_target_rectanglediamonds.svg	stimuli_distractor_diamondtriangles.svg	6	yes	53	1	706	6	2	antiphase_hc_ios.wav	3	6	4	noise_calib_stim_RIGHT.wav	2	16	blb_dichoticlistening_ga-ka.mp3	ga	ka	1	right
6.6.1	win	2023-07-08	12:37:25	12:51:53	862365	577d1216b425c40001434b2f	1	1	main_slash	24	advance_on_keypress_SLASH	116	stimuli_target_rectanglediamonds.svg	stimuli_distractor_diamondtriangles.svg	6	yes	57	0	406	6	2	antiphase_hc_ios.wav	3	6	4	noise_calib_stim_RIGHT.wav	2	16	blb_dichoticlistening_ga-ka.mp3	ga	ka	1	right
6.6.1	win	2023-07-08	12:37:25	12:51:54	864005	577d1216b425c40001434b2f	1	1	main_slash	24	main_slash	117	stimuli_distractor_diamondtriangles.svg	stimuli_target_rectangletriangles.svg	13	yes	53	1	596	6	2	antiphase_hc_ios.wav	3	6	4	noise_calib_stim_RIGHT.wav	2	16	blb_dichoticlistening_ga-ka.mp3	ga	ka	1	right
6.6.1	win	2023-07-08	12:37:25	12:51:54	864005	577d1216b425c40001434b2f	1	1	main_slash	24	advance_on_keypress_SLASH	118	stimuli_distractor_diamondtriangles.svg	stimuli_target_rectangletriangles.svg	13	yes	57	0	381	6	2	antiphase_hc_ios.wav	3	6	4	noise_calib_stim_RIGHT.wav	2	16	blb_dichoticlistening_ga-ka.mp3	ga	ka	1	right
6.6.1	win	2023-07-08	12:37:25	12:51:56	865749	577d1216b425c40001434b2f	1	1	main_slash	24	main_slash	119	stimuli_distractor_diamondtriangles.svg	stimuli_distractor_trianglediamonds.svg	37	no	53	0	724	6	2	antiphase_hc_ios.wav	3	6	4	noise_calib_stim_RIGHT.wav	2	16	blb_dichoticlistening_ga-ka.mp3	ga	ka	1	right
6.6.1	win	2023-07-08	12:37:25	12:51:56	865749	577d1216b425c40001434b2f	1	1	main_slash	24	advance_on_keypress_SLASH	120	stimuli_distractor_diamondtriangles.svg	stimuli_distractor_trianglediamonds.svg	37	no	57	0	1255	6	2	antiphase_hc_ios.wav	3	6	4	noise_calib_stim_RIGHT.wav	2	16	blb_dichoticlistening_ga-ka.mp3	ga	ka	1	right
6.6.1	win	2023-07-08	12:37:25	12:51:58	868189	577d1216b425c40001434b2f	1	1	main_slash	24	main_slash	121	stimuli_distractor_trianglediamonds.svg	stimuli_target_trianglesquares.svg	26	yes	53	1	549	6	2	antiphase_hc_ios.wav	3	6	4	noise_calib_stim_RIGHT.wav	2	16	blb_dichoticlistening_ga-ka.mp3	ga	ka	1	right
6.6.1	win	2023-07-08	12:37:25	12:51:58	868189	577d1216b425c40001434b2f	1	1	main_slash	24	advance_on_keypress_SLASH	122	stimuli_distractor_trianglediamonds.svg	stimuli_target_trianglesquares.svg	26	yes	57	0	342	6	2	antiphase_hc_ios.wav	3	6	4	noise_calib_stim_RIGHT.wav	2	16	blb_dichoticlistening_ga-ka.mp3	ga	ka	1	right
6.6.1	win	2023-07-08	12:37:25	12:52:01	871173	577d1216b425c40001434b2f	1	1	main_slash	24	main_slash	123	stimuli_distractor_trianglediamonds.svg	stimuli_distractor_trianglediamonds.svg	33	no	0	1	2000	6	2	antiphase_hc_ios.wav	3	6	4	noise_calib_stim_RIGHT.wav	2	16	blb_dichoticlistening_ga-ka.mp3	ga	ka	1	right
6.6.1	win	2023-07-08	12:37:25	12:52:01	871173	577d1216b425c40001434b2f	1	1	main_slash	24	advance_on_keypress_SLASH	124	stimuli_distractor_trianglediamonds.svg	stimuli_distractor_trianglediamonds.svg	33	no	57	0	584	6	2	antiphase_hc_ios.wav	3	6	4	noise_calib_stim_RIGHT.wav	2	16	blb_dichoticlistening_ga-ka.mp3	ga	ka	1	right
6.6.1	win	2023-07-08	12:37:25	12:52:03	872845	577d1216b425c40001434b2f	1	1	main_slash	24	main_slash	125	stimuli_distractor_diamondtriangles.svg	stimuli_target_trianglerectangles.svg	29	yes	53	1	439	6	2	antiphase_hc_ios.wav	3	6	4	noise_calib_stim_RIGHT.wav	2	16	blb_dichoticlistening_ga-ka.mp3	ga	ka	1	right
6.6.1	win	2023-07-08	12:37:25	12:52:03	872845	577d1216b425c40001434b2f	1	1	main_slash	24	advance_on_keypress_SLASH	126	stimuli_distractor_diamondtriangles.svg	stimuli_target_trianglerectangles.svg	29	yes	57	0	414	6	2	antiphase_hc_ios.wav	3	6	4	noise_calib_stim_RIGHT.wav	2	16	blb_dichoticlistening_ga-ka.mp3	ga	ka	1	right
6.6.1	win	2023-07-08	12:37:25	12:52:05	874477	577d1216b425c40001434b2f	1	1	main_slash	24	main_slash	127	stimuli_target_squarediamonds.svg	stimuli_distractor_trianglediamonds.svg	4	yes	53	1	572	6	2	antiphase_hc_ios.wav	3	6	4	noise_calib_stim_RIGHT.wav	2	16	blb_dichoticlistening_ga-ka.mp3	ga	ka	1	right
6.6.1	win	2023-07-08	12:37:25	12:52:05	874477	577d1216b425c40001434b2f	1	1	main_slash	24	advance_on_keypress_SLASH	128	stimuli_target_squarediamonds.svg	stimuli_distractor_trianglediamonds.svg	4	yes	57	0	413	6	2	antiphase_hc_ios.wav	3	6	4	noise_calib_stim_RIGHT.wav	2	16	blb_dichoticlistening_ga-ka.mp3	ga	ka	1	right
6.6.1	win	2023-07-08	12:37:25	12:52:08	877521	577d1216b425c40001434b2f	1	1	main_slash	24	main_slash	129	stimuli_distractor_diamondtriangles.svg	stimuli_distractor_trianglediamonds.svg	38	no	0	1	2000	6	2	antiphase_hc_ios.wav	3	6	4	noise_calib_stim_RIGHT.wav	2	16	blb_dichoticlistening_ga-ka.mp3	ga	ka	1	right
6.6.1	win	2023-07-08	12:37:25	12:52:08	877521	577d1216b425c40001434b2f	1	1	main_slash	24	advance_on_keypress_SLASH	130	stimuli_distractor_diamondtriangles.svg	stimuli_distractor_trianglediamonds.svg	38	no	57	0	532	6	2	antiphase_hc_ios.wav	3	6	4	noise_calib_stim_RIGHT.wav	2	16	blb_dichoticlistening_ga-ka.mp3	ga	ka	1	right
6.6.1	win	2023-07-08	12:37:25	12:52:09	879219	577d1216b425c40001434b2f	1	1	main_slash	24	main_slash	131	stimuli_target_squarediamonds.svg	stimuli_distractor_diamondtriangles.svg	8	yes	53	1	510	6	2	antiphase_hc_ios.wav	3	6	4	noise_calib_stim_RIGHT.wav	2	16	blb_dichoticlistening_ga-ka.mp3	ga	ka	1	right
6.6.1	win	2023-07-08	12:37:25	12:52:09	879219	577d1216b425c40001434b2f	1	1	main_slash	24	advance_on_keypress_SLASH	132	stimuli_target_squarediamonds.svg	stimuli_distractor_diamondtriangles.svg	8	yes	57	0	385	6	2	antiphase_hc_ios.wav	3	6	4	noise_calib_stim_RIGHT.wav	2	16	blb_dichoticlistening_ga-ka.mp3	ga	ka	1	right
6.6.1	win	2023-07-08	12:37:25	12:52:11	880989	577d1216b425c40001434b2f	1	1	main_slash	24	main_slash	133	stimuli_target_rectangletriangles.svg	stimuli_distractor_trianglediamonds.svg	1	yes	53	1	736	6	2	antiphase_hc_ios.wav	3	6	4	noise_calib_stim_RIGHT.wav	2	16	blb_dichoticlistening_ga-ka.mp3	ga	ka	1	right
6.6.1	win	2023-07-08	12:37:25	12:52:11	880989	577d1216b425c40001434b2f	1	1	main_slash	24	advance_on_keypress_SLASH	134	stimuli_target_rectangletriangles.svg	stimuli_distractor_trianglediamonds.svg	1	yes	57	0	347	6	2	antiphase_hc_ios.wav	3	6	4	noise_calib_stim_RIGHT.wav	2	16	blb_dichoticlistening_ga-ka.mp3	ga	ka	1	right
6.6.1	win	2023-07-08	12:37:25	12:52:13	883277	577d1216b425c40001434b2f	1	1	main_slash	24	main_slash	135	stimuli_distractor_trianglediamonds.svg	stimuli_target_rectangletriangles.svg	9	yes	53	1	1308	6	2	antiphase_hc_ios.wav	3	6	4	noise_calib_stim_RIGHT.wav	2	16	blb_dichoticlistening_ga-ka.mp3	ga	ka	1	right
6.6.1	win	2023-07-08	12:37:25	12:52:13	883277	577d1216b425c40001434b2f	1	1	main_slash	24	advance_on_keypress_SLASH	136	stimuli_distractor_trianglediamonds.svg	stimuli_target_rectangletriangles.svg	9	yes	57	0	696	6	2	antiphase_hc_ios.wav	3	6	4	noise_calib_stim_RIGHT.wav	2	16	blb_dichoticlistening_ga-ka.mp3	ga	ka	1	right
6.6.1	win	2023-07-08	12:37:25	12:52:15	885253	577d1216b425c40001434b2f	1	1	main_slash	24	main_slash	137	stimuli_target_squaretriangles.svg	stimuli_distractor_diamondtriangles.svg	7	yes	53	1	652	6	2	antiphase_hc_ios.wav	3	6	4	noise_calib_stim_RIGHT.wav	2	16	blb_dichoticlistening_ga-ka.mp3	ga	ka	1	right
6.6.1	win	2023-07-08	12:37:25	12:52:15	885253	577d1216b425c40001434b2f	1	1	main_slash	24	advance_on_keypress_SLASH	138	stimuli_target_squaretriangles.svg	stimuli_distractor_diamondtriangles.svg	7	yes	57	0	369	6	2	antiphase_hc_ios.wav	3	6	4	noise_calib_stim_RIGHT.wav	2	16	blb_dichoticlistening_ga-ka.mp3	ga	ka	1	right
6.6.1	win	2023-07-08	12:37:25	12:52:17	886957	577d1216b425c40001434b2f	1	1	main_slash	24	main_slash	139	stimuli_target_trianglerectangles.svg	stimuli_distractor_diamondtriangles.svg	21	yes	53	1	689	6	2	antiphase_hc_ios.wav	3	6	4	noise_calib_stim_RIGHT.wav	2	16	blb_dichoticlistening_ga-ka.mp3	ga	ka	1	right
6.6.1	win	2023-07-08	12:37:25	12:52:17	886957	577d1216b425c40001434b2f	1	1	main_slash	24	advance_on_keypress_SLASH	140	stimuli_target_trianglerectangles.svg	stimuli_distractor_diamondtriangles.svg	21	yes	57	0	422	6	2	antiphase_hc_ios.wav	3	6	4	noise_calib_stim_RIGHT.wav	2	16	blb_dichoticlistening_ga-ka.mp3	ga	ka	1	right
6.6.1	win	2023-07-08	12:37:25	12:52:19	888629	577d1216b425c40001434b2f	1	1	main_slash	24	main_slash	141	stimuli_distractor_diamondtriangles.svg	stimuli_target_rectanglediamonds.svg	14	yes	53	1	612	6	2	antiphase_hc_ios.wav	3	6	4	noise_calib_stim_RIGHT.wav	2	16	blb_dichoticlistening_ga-ka.mp3	ga	ka	1	right
6.6.1	win	2023-07-08	12:37:25	12:52:19	888629	577d1216b425c40001434b2f	1	1	main_slash	24	advance_on_keypress_SLASH	142	stimuli_distractor_diamondtriangles.svg	stimuli_target_rectanglediamonds.svg	14	yes	57	0	244	6	2	antiphase_hc_ios.wav	3	6	4	noise_calib_stim_RIGHT.wav	2	16	blb_dichoticlistening_ga-ka.mp3	ga	ka	1	right
6.6.1	win	2023-07-08	12:37:25	12:52:20	889973	577d1216b425c40001434b2f	1	1	main_slash	24	main_slash	143	stimuli_distractor_trianglediamonds.svg	stimuli_target_squaretriangles.svg	11	yes	53	1	473	6	2	antiphase_hc_ios.wav	3	6	4	noise_calib_stim_RIGHT.wav	2	16	blb_dichoticlistening_ga-ka.mp3	ga	ka	1	right
6.6.1	win	2023-07-08	12:37:25	12:52:20	889973	577d1216b425c40001434b2f	1	1	main_slash	24	advance_on_keypress_SLASH	144	stimuli_distractor_trianglediamonds.svg	stimuli_target_squaretriangles.svg	11	yes	57	0	278	6	2	antiphase_hc_ios.wav	3	6	4	noise_calib_stim_RIGHT.wav	2	16	blb_dichoticlistening_ga-ka.mp3	ga	ka	1	right
6.6.1	win	2023-07-08	12:37:25	12:52:22	891637	577d1216b425c40001434b2f	1	1	main_slash	24	main_slash	145	stimuli_distractor_trianglediamonds.svg	stimuli_target_diamondrectangles.svg	27	yes	53	1	754	6	2	antiphase_hc_ios.wav	3	6	4	noise_calib_stim_RIGHT.wav	2	16	blb_dichoticlistening_ga-ka.mp3	ga	ka	1	right
6.6.1	win	2023-07-08	12:37:25	12:52:22	891637	577d1216b425c40001434b2f	1	1	main_slash	24	advance_on_keypress_SLASH	146	stimuli_distractor_trianglediamonds.svg	stimuli_target_diamondrectangles.svg	27	yes	57	0	324	6	2	antiphase_hc_ios.wav	3	6	4	noise_calib_stim_RIGHT.wav	2	16	blb_dichoticlistening_ga-ka.mp3	ga	ka	1	right
6.6.1	win	2023-07-08	12:37:25	12:52:25	894599	577d1216b425c40001434b2f	1	1	main_slash	24	main_slash	147	stimuli_distractor_trianglediamonds.svg	stimuli_distractor_diamondtriangles.svg	35	no	0	1	2000	6	2	antiphase_hc_ios.wav	3	6	4	noise_calib_stim_RIGHT.wav	2	16	blb_dichoticlistening_ga-ka.mp3	ga	ka	1	right
6.6.1	win	2023-07-08	12:37:25	12:52:25	894599	577d1216b425c40001434b2f	1	1	main_slash	24	advance_on_keypress_SLASH	148	stimuli_distractor_trianglediamonds.svg	stimuli_distractor_diamondtriangles.svg	35	no	57	0	846	6	2	antiphase_hc_ios.wav	3	6	4	noise_calib_stim_RIGHT.wav	2	16	blb_dichoticlistening_ga-ka.mp3	ga	ka	1	right
6.6.1	win	2023-07-08	12:37:25	12:52:27	896741	577d1216b425c40001434b2f	1	1	main_slash	24	main_slash	149	stimuli_distractor_trianglediamonds.svg	stimuli_target_diamondsquares.svg	28	yes	53	1	660	6	2	antiphase_hc_ios.wav	3	6	4	noise_calib_stim_RIGHT.wav	2	16	blb_dichoticlistening_ga-ka.mp3	ga	ka	1	right
6.6.1	win	2023-07-08	12:37:25	12:52:27	896741	577d1216b425c40001434b2f	1	1	main_slash	24	advance_on_keypress_SLASH	150	stimuli_distractor_trianglediamonds.svg	stimuli_target_diamondsquares.svg	28	yes	57	0	426	6	2	antiphase_hc_ios.wav	3	6	4	noise_calib_stim_RIGHT.wav	2	16	blb_dichoticlistening_ga-ka.mp3	ga	ka	1	right
6.6.1	win	2023-07-08	12:37:25	12:52:29	898397	577d1216b425c40001434b2f	1	1	main_slash	24	main_slash	151	stimuli_target_diamondrectangles.svg	stimuli_distractor_trianglediamonds.svg	19	yes	53	1	600	6	2	antiphase_hc_ios.wav	3	6	4	noise_calib_stim_RIGHT.wav	2	16	blb_dichoticlistening_ga-ka.mp3	ga	ka	1	right
6.6.1	win	2023-07-08	12:37:25	12:52:29	898397	577d1216b425c40001434b2f	1	1	main_slash	24	advance_on_keypress_SLASH	152	stimuli_target_diamondrectangles.svg	stimuli_distractor_trianglediamonds.svg	19	yes	57	0	240	6	2	antiphase_hc_ios.wav	3	6	4	noise_calib_stim_RIGHT.wav	2	16	blb_dichoticlistening_ga-ka.mp3	ga	ka	1	right
6.6.1	win	2023-07-08	12:37:25	12:52:31	901280	577d1216b425c40001434b2f	1	1	main_slash	24	main_slash	153	stimuli_distractor_trianglediamonds.svg	stimuli_distractor_trianglediamonds.svg	34	no	0	1	2000	6	2	antiphase_hc_ios.wav	3	6	4	noise_calib_stim_RIGHT.wav	2	16	blb_dichoticlistening_ga-ka.mp3	ga	ka	1	right
6.6.1	win	2023-07-08	12:37:25	12:52:31	901280	577d1216b425c40001434b2f	1	1	main_slash	24	advance_on_keypress_SLASH	154	stimuli_distractor_trianglediamonds.svg	stimuli_distractor_trianglediamonds.svg	34	no	57	0	645	6	2	antiphase_hc_ios.wav	3	6	4	noise_calib_stim_RIGHT.wav	2	16	blb_dichoticlistening_ga-ka.mp3	ga	ka	1	right
6.6.1	win	2023-07-08	12:37:25	12:52:33	903261	577d1216b425c40001434b2f	1	1	main_slash	24	main_slash	155	stimuli_target_squaretriangles.svg	stimuli_distractor_trianglediamonds.svg	3	yes	53	1	699	6	2	antiphase_hc_ios.wav	3	6	4	noise_calib_stim_RIGHT.wav	2	16	blb_dichoticlistening_ga-ka.mp3	ga	ka	1	right
6.6.1	win	2023-07-08	12:37:25	12:52:33	903261	577d1216b425c40001434b2f	1	1	main_slash	24	advance_on_keypress_SLASH	156	stimuli_target_squaretriangles.svg	stimuli_distractor_trianglediamonds.svg	3	yes	57	0	439	6	2	antiphase_hc_ios.wav	3	6	4	noise_calib_stim_RIGHT.wav	2	16	blb_dichoticlistening_ga-ka.mp3	ga	ka	1	right
6.6.1	win	2023-07-08	12:37:25	12:52:35	904877	577d1216b425c40001434b2f	1	1	main_slash	24	main_slash	157	stimuli_target_rectangletriangles.svg	stimuli_distractor_diamondtriangles.svg	5	yes	53	1	532	6	2	antiphase_hc_ios.wav	3	6	4	noise_calib_stim_RIGHT.wav	2	16	blb_dichoticlistening_ga-ka.mp3	ga	ka	1	right
6.6.1	win	2023-07-08	12:37:25	12:52:35	904877	577d1216b425c40001434b2f	1	1	main_slash	24	advance_on_keypress_SLASH	158	stimuli_target_rectangletriangles.svg	stimuli_distractor_diamondtriangles.svg	5	yes	57	0	310	6	2	antiphase_hc_ios.wav	3	6	4	noise_calib_stim_RIGHT.wav	2	16	blb_dichoticlistening_ga-ka.mp3	ga	ka	1	right
6.6.1	win	2023-07-08	12:37:25	12:52:38	907828	577d1216b425c40001434b2f	1	1	main_slash	24	main_slash	159	stimuli_distractor_diamondtriangles.svg	stimuli_distractor_diamondtriangles.svg	40	no	0	1	2000	6	2	antiphase_hc_ios.wav	3	6	4	noise_calib_stim_RIGHT.wav	2	16	blb_dichoticlistening_ga-ka.mp3	ga	ka	1	right
6.6.1	win	2023-07-08	12:37:25	12:52:38	907828	577d1216b425c40001434b2f	1	1	main_slash	24	advance_on_keypress_SLASH	160	stimuli_distractor_diamondtriangles.svg	stimuli_distractor_diamondtriangles.svg	40	no	57	0	993	6	2	antiphase_hc_ios.wav	3	6	4	noise_calib_stim_RIGHT.wav	2	16	blb_dichoticlistening_ga-ka.mp3	ga	ka	1	right
6.6.1	win	2023-07-08	12:37:25	12:53:10	939935	577d1216b425c40001434b2f	1	1	practice_z	26	practice_z	1	stimuli_distractor_trianglediamonds.svg	stimuli_distractor_trianglediamonds.svg	15	no	0	1	2000	6	2	antiphase_hc_ios.wav	3	6	4	noise_calib_stim_RIGHT.wav	2	16	blb_dichoticlistening_ga-ka.mp3	ga	ka	1	right
6.6.1	win	2023-07-08	12:37:25	12:53:10	939935	577d1216b425c40001434b2f	1	1	practice_z	26	advance_on_keypress_ZEE	2	stimuli_distractor_trianglediamonds.svg	stimuli_distractor_trianglediamonds.svg	15	no	57	0	631	6	2	antiphase_hc_ios.wav	3	6	4	noise_calib_stim_RIGHT.wav	2	16	blb_dichoticlistening_ga-ka.mp3	ga	ka	1	right
6.6.1	win	2023-07-08	12:37:25	12:53:13	942806	577d1216b425c40001434b2f	1	1	practice_z	26	practice_z	3	stimuli_distractor_trianglediamonds.svg	stimuli_target_diamondrectangles.svg	12	yes	44	1	589	6	2	antiphase_hc_ios.wav	3	6	4	noise_calib_stim_RIGHT.wav	2	16	blb_dichoticlistening_ga-ka.mp3	ga	ka	1	right
6.6.1	win	2023-07-08	12:37:25	12:53:13	942806	577d1216b425c40001434b2f	1	1	practice_z	26	advance_on_keypress_ZEE	4	stimuli_distractor_trianglediamonds.svg	stimuli_target_diamondrectangles.svg	12	yes	57	0	966	6	2	antiphase_hc_ios.wav	3	6	4	noise_calib_stim_RIGHT.wav	2	16	blb_dichoticlistening_ga-ka.mp3	ga	ka	1	right
6.6.1	win	2023-07-08	12:37:25	12:53:16	945846	577d1216b425c40001434b2f	1	1	practice_z	26	practice_z	5	stimuli_distractor_trianglediamonds.svg	stimuli_target_rectanglediamonds.svg	10	yes	44	1	430	6	2	antiphase_hc_ios.wav	3	6	4	noise_calib_stim_RIGHT.wav	2	16	blb_dichoticlistening_ga-ka.mp3	ga	ka	1	right
6.6.1	win	2023-07-08	12:37:25	12:53:16	945846	577d1216b425c40001434b2f	1	1	practice_z	26	advance_on_keypress_ZEE	6	stimuli_distractor_trianglediamonds.svg	stimuli_target_rectanglediamonds.svg	10	yes	57	0	1901	6	2	antiphase_hc_ios.wav	3	6	4	noise_calib_stim_RIGHT.wav	2	16	blb_dichoticlistening_ga-ka.mp3	ga	ka	1	right
6.6.1	win	2023-07-08	12:37:25	12:53:20	949982	577d1216b425c40001434b2f	1	1	practice_z	26	practice_z	7	stimuli_target_squarediamonds.svg	stimuli_distractor_diamondtriangles.svg	2	yes	44	1	584	6	2	antiphase_hc_ios.wav	3	6	4	noise_calib_stim_RIGHT.wav	2	16	blb_dichoticlistening_ga-ka.mp3	ga	ka	1	right
6.6.1	win	2023-07-08	12:37:25	12:53:20	949982	577d1216b425c40001434b2f	1	1	practice_z	26	advance_on_keypress_ZEE	8	stimuli_target_squarediamonds.svg	stimuli_distractor_diamondtriangles.svg	2	yes	57	0	1033	6	2	antiphase_hc_ios.wav	3	6	4	noise_calib_stim_RIGHT.wav	2	16	blb_dichoticlistening_ga-ka.mp3	ga	ka	1	right
6.6.1	win	2023-07-08	12:37:25	12:53:23	953246	577d1216b425c40001434b2f	1	1	practice_z	26	practice_z	9	stimuli_distractor_diamondtriangles.svg	stimuli_target_trianglerectangles.svg	9	yes	44	1	582	6	2	antiphase_hc_ios.wav	3	6	4	noise_calib_stim_RIGHT.wav	2	16	blb_dichoticlistening_ga-ka.mp3	ga	ka	1	right
6.6.1	win	2023-07-08	12:37:25	12:53:23	953246	577d1216b425c40001434b2f	1	1	practice_z	26	advance_on_keypress_ZEE	10	stimuli_distractor_diamondtriangles.svg	stimuli_target_trianglerectangles.svg	9	yes	57	0	647	6	2	antiphase_hc_ios.wav	3	6	4	noise_calib_stim_RIGHT.wav	2	16	blb_dichoticlistening_ga-ka.mp3	ga	ka	1	right
6.6.1	win	2023-07-08	12:37:25	12:53:28	957546	577d1216b425c40001434b2f	1	1	practice_z	26	practice_z	11	stimuli_distractor_trianglediamonds.svg	stimuli_distractor_diamondtriangles.svg	16	no	0	1	2000	6	2	antiphase_hc_ios.wav	3	6	4	noise_calib_stim_RIGHT.wav	2	16	blb_dichoticlistening_ga-ka.mp3	ga	ka	1	right
6.6.1	win	2023-07-08	12:37:25	12:53:28	957546	577d1216b425c40001434b2f	1	1	practice_z	26	advance_on_keypress_ZEE	12	stimuli_distractor_trianglediamonds.svg	stimuli_distractor_diamondtriangles.svg	16	no	57	0	412	6	2	antiphase_hc_ios.wav	3	6	4	noise_calib_stim_RIGHT.wav	2	16	blb_dichoticlistening_ga-ka.mp3	ga	ka	1	right
6.6.1	win	2023-07-08	12:37:25	12:53:30	960110	577d1216b425c40001434b2f	1	1	practice_z	26	practice_z	13	stimuli_target_diamondsquares.svg	stimuli_distractor_diamondtriangles.svg	3	yes	44	1	507	6	2	antiphase_hc_ios.wav	3	6	4	noise_calib_stim_RIGHT.wav	2	16	blb_dichoticlistening_ga-ka.mp3	ga	ka	1	right
6.6.1	win	2023-07-08	12:37:25	12:53:30	960110	577d1216b425c40001434b2f	1	1	practice_z	26	advance_on_keypress_ZEE	14	stimuli_target_diamondsquares.svg	stimuli_distractor_diamondtriangles.svg	3	yes	57	0	391	6	2	antiphase_hc_ios.wav	3	6	4	noise_calib_stim_RIGHT.wav	2	16	blb_dichoticlistening_ga-ka.mp3	ga	ka	1	right
