build	computer.platform	date	time	timestamp	time_elapsed_ms	subject	group	session	blockcode	blocknum	trialcode	trialnum	stimulus_left	stimulus_right	stim_index	target_present	response	correct	latency	headphonecheck_countTestTrials	headphonecheck_index	headphonecheck_testSound	headphonecheck_correctResponse	stereocheck_countTestTrials	stereocheck_index	stereocheck_testSound	stereocheck_correctResponse	DL_index	DL_soundfile	DL_leftSound	DL_rightSound	DL_dualSound	DL_choice
6.6.1	win	2023-06-26	23:57:29	0	0	6413627f4adf0cc7eb330dfc	1	1	headphonecheck_calibration	4	headphonecheck_calibrationIntro	1			0		calibrationButton	0	3471	0	0			0	0			1				0	
6.6.1	win	2023-06-26	23:57:29	0	0	6413627f4adf0cc7eb330dfc	1	1	headphonecheck_testphase	5	test_collectResponse	3			0		second	1	579	1	5	antiphase_hc_osi.wav	2	0	0			1				0	
6.6.1	win	2023-06-26	23:57:29	0	0	6413627f4adf0cc7eb330dfc	1	1	headphonecheck_testphase	5	test_collectResponse	6			0		third	1	510	2	2	antiphase_hc_ios.wav	3	0	0			1				0	
6.6.1	win	2023-06-26	23:57:29	0	0	6413627f4adf0cc7eb330dfc	1	1	headphonecheck_testphase	5	test_collectResponse	9			0		second	1	1978	3	1	antiphase_hc_iso.wav	2	0	0			1				0	
6.6.1	win	2023-06-26	23:57:29	0	0	6413627f4adf0cc7eb330dfc	1	1	headphonecheck_testphase	5	test_collectResponse	12			0		first	1	823	4	3	antiphase_hc_soi.wav	1	0	0			1				0	
6.6.1	win	2023-06-26	23:57:29	0	0	6413627f4adf0cc7eb330dfc	1	1	headphonecheck_testphase	5	test_collectResponse	15			0		first	1	766	5	4	antiphase_hc_sio.wav	1	0	0			1				0	
6.6.1	win	2023-06-26	23:57:29	0	0	6413627f4adf0cc7eb330dfc	1	1	headphonecheck_testphase	5	test_collectResponse	18			0		third	1	443	6	6	antiphase_hc_ois.wav	3	0	0			1				0	
6.6.1	win	2023-06-26	23:57:29	0	0	6413627f4adf0cc7eb330dfc	1	1	stereocheck_calibration	7	stereocheck_calibrationIntro	1			0		stereocheck_calibrationButton	0	4787	6	6	antiphase_hc_ois.wav	3	0	0			1				0	
6.6.1	win	2023-06-26	23:57:29	0	0	6413627f4adf0cc7eb330dfc	1	1	stereocheck_testphase	8	stereocheck_test_collectResponse	3			0		stereocheck_left	1	196	6	6	antiphase_hc_ois.wav	3	1	3	noise_calib_stim_LEFT.wav	1	1				0	
6.6.1	win	2023-06-26	23:57:29	0	0	6413627f4adf0cc7eb330dfc	1	1	stereocheck_testphase	8	stereocheck_test_collectResponse	6			0		stereocheck_left	1	573	6	6	antiphase_hc_ois.wav	3	2	1	noise_calib_stim_LEFT.wav	1	1				0	
6.6.1	win	2023-06-26	23:57:29	0	0	6413627f4adf0cc7eb330dfc	1	1	stereocheck_testphase	8	stereocheck_test_collectResponse	9			0		stereocheck_right	1	471	6	6	antiphase_hc_ois.wav	3	3	4	noise_calib_stim_RIGHT.wav	2	1				0	
6.6.1	win	2023-06-26	23:57:29	0	0	6413627f4adf0cc7eb330dfc	1	1	stereocheck_testphase	8	stereocheck_test_collectResponse	12			0		stereocheck_left	1	266	6	6	antiphase_hc_ois.wav	3	4	2	noise_calib_stim_LEFT.wav	1	1				0	
6.6.1	win	2023-06-26	23:57:29	0	0	6413627f4adf0cc7eb330dfc	1	1	stereocheck_testphase	8	stereocheck_test_collectResponse	15			0		stereocheck_right	1	172	6	6	antiphase_hc_ois.wav	3	5	6	noise_calib_stim_RIGHT.wav	2	1				0	
6.6.1	win	2023-06-26	23:57:29	0	0	6413627f4adf0cc7eb330dfc	1	1	stereocheck_testphase	8	stereocheck_test_collectResponse	18			0		stereocheck_right	1	208	6	6	antiphase_hc_ois.wav	3	6	5	noise_calib_stim_RIGHT.wav	2	1				0	
6.6.1	win	2023-06-26	23:57:29	0	0	6413627f4adf0cc7eb330dfc	1	1	DL_practice	11	DL_practice	2			0		ta	0	3325	6	6	antiphase_hc_ois.wav	3	6	5	noise_calib_stim_RIGHT.wav	2	23	blb_dichoticlistening_ka-pa.mp3	ka	pa	1	other
6.6.1	win	2023-06-26	23:57:29	0	0	6413627f4adf0cc7eb330dfc	1	1	DL_practice	11	DL_practice	3			0		ka	0	1733	6	6	antiphase_hc_ois.wav	3	6	5	noise_calib_stim_RIGHT.wav	2	18	blb_dichoticlistening_ga-ta.mp3	ga	ta	1	other
6.6.1	win	2023-06-26	23:57:29	0	0	6413627f4adf0cc7eb330dfc	1	1	DL_practice	11	DL_practice	4			0		ga	1	1150	6	6	antiphase_hc_ois.wav	3	6	5	noise_calib_stim_RIGHT.wav	2	15	blb_dichoticlistening_ga-ga.mp3	ga	ga	0	left
6.6.1	win	2023-06-26	23:57:29	0	0	6413627f4adf0cc7eb330dfc	1	1	DL_practice	11	DL_practice	5			0		ba	1	1528	6	6	antiphase_hc_ois.wav	3	6	5	noise_calib_stim_RIGHT.wav	2	1	blb_dichoticlistening_ba-ba.mp3	ba	ba	0	left
6.6.1	win	2023-06-26	23:57:29	0	0	6413627f4adf0cc7eb330dfc	1	1	DL_practice	11	DL_practice	6			0		da	1	1244	6	6	antiphase_hc_ois.wav	3	6	5	noise_calib_stim_RIGHT.wav	2	7	blb_dichoticlistening_da-ba.mp3	da	ba	1	left
6.6.1	win	2023-06-26	23:57:29	0	0	6413627f4adf0cc7eb330dfc	1	1	DL_practice	11	DL_practice	7			0		pa	1	1223	6	6	antiphase_hc_ois.wav	3	6	5	noise_calib_stim_RIGHT.wav	2	29	blb_dichoticlistening_pa-pa.mp3	pa	pa	0	left
6.6.1	win	2023-06-26	23:57:29	0	0	6413627f4adf0cc7eb330dfc	1	1	DL_practice	11	DL_practice	8			0		da	1	1104	6	6	antiphase_hc_ois.wav	3	6	5	noise_calib_stim_RIGHT.wav	2	8	blb_dichoticlistening_da-da.mp3	da	da	0	left
6.6.1	win	2023-06-26	23:57:29	0	0	6413627f4adf0cc7eb330dfc	1	1	DL_practice	11	DL_practice	9			0		ka	1	1191	6	6	antiphase_hc_ois.wav	3	6	5	noise_calib_stim_RIGHT.wav	2	22	blb_dichoticlistening_ka-ka.mp3	ka	ka	0	left
6.6.1	win	2023-06-26	23:57:29	0	0	6413627f4adf0cc7eb330dfc	1	1	DL_practice	11	DL_practice	10			0		ta	1	1357	6	6	antiphase_hc_ois.wav	3	6	5	noise_calib_stim_RIGHT.wav	2	36	blb_dichoticlistening_ta-ta.mp3	ta	ta	0	left
6.6.1	win	2023-06-26	23:57:29	0	0	6413627f4adf0cc7eb330dfc	1	1	DL_test	13	DL_test	1			0		da	1	1280	6	6	antiphase_hc_ois.wav	3	6	5	noise_calib_stim_RIGHT.wav	2	14	blb_dichoticlistening_ga-da.mp3	ga	da	1	right
6.6.1	win	2023-06-26	23:57:29	0	0	6413627f4adf0cc7eb330dfc	1	1	DL_test	13	DL_test	2			0		pa	1	1113	6	6	antiphase_hc_ois.wav	3	6	5	noise_calib_stim_RIGHT.wav	2	25	blb_dichoticlistening_pa-ba.mp3	pa	ba	1	left
6.6.1	win	2023-06-26	23:57:29	0	0	6413627f4adf0cc7eb330dfc	1	1	DL_test	13	DL_test	3			0		ba	1	1632	6	6	antiphase_hc_ois.wav	3	6	5	noise_calib_stim_RIGHT.wav	2	1	blb_dichoticlistening_ba-ba.mp3	ba	ba	0	left
6.6.1	win	2023-06-26	23:57:29	0	0	6413627f4adf0cc7eb330dfc	1	1	DL_test	13	DL_test	4			0		ka	1	1139	6	6	antiphase_hc_ois.wav	3	6	5	noise_calib_stim_RIGHT.wav	2	4	blb_dichoticlistening_ba-ka.mp3	ba	ka	1	right
6.6.1	win	2023-06-26	23:57:29	0	0	6413627f4adf0cc7eb330dfc	1	1	DL_test	13	DL_test	5			0		da	1	1828	6	6	antiphase_hc_ois.wav	3	6	5	noise_calib_stim_RIGHT.wav	2	32	blb_dichoticlistening_ta-da.mp3	ta	da	1	right
6.6.1	win	2023-06-26	23:57:29	0	0	6413627f4adf0cc7eb330dfc	1	1	DL_test	13	DL_test	6			0		da	1	1960	6	6	antiphase_hc_ois.wav	3	6	5	noise_calib_stim_RIGHT.wav	2	9	blb_dichoticlistening_da-ga.mp3	da	ga	1	left
6.6.1	win	2023-06-26	23:57:29	0	0	6413627f4adf0cc7eb330dfc	1	1	DL_test	13	DL_test	7			0		pa	1	1071	6	6	antiphase_hc_ois.wav	3	6	5	noise_calib_stim_RIGHT.wav	2	29	blb_dichoticlistening_pa-pa.mp3	pa	pa	0	left
6.6.1	win	2023-06-26	23:57:29	0	0	6413627f4adf0cc7eb330dfc	1	1	DL_test	13	DL_test	8			0		ka	1	1061	6	6	antiphase_hc_ois.wav	3	6	5	noise_calib_stim_RIGHT.wav	2	22	blb_dichoticlistening_ka-ka.mp3	ka	ka	0	left
6.6.1	win	2023-06-26	23:57:29	0	0	6413627f4adf0cc7eb330dfc	1	1	DL_test	13	DL_test	9			0		pa	0	2280	6	6	antiphase_hc_ois.wav	3	6	5	noise_calib_stim_RIGHT.wav	2	10	blb_dichoticlistening_da-ka.mp3	da	ka	1	other
6.6.1	win	2023-06-26	23:57:29	0	0	6413627f4adf0cc7eb330dfc	1	1	DL_test	13	DL_test	10			0		ka	1	1140	6	6	antiphase_hc_ois.wav	3	6	5	noise_calib_stim_RIGHT.wav	2	16	blb_dichoticlistening_ga-ka.mp3	ga	ka	1	right
6.6.1	win	2023-06-26	23:57:29	0	0	6413627f4adf0cc7eb330dfc	1	1	DL_test	13	DL_test	11			0		ga	1	1413	6	6	antiphase_hc_ois.wav	3	6	5	noise_calib_stim_RIGHT.wav	2	15	blb_dichoticlistening_ga-ga.mp3	ga	ga	0	left
6.6.1	win	2023-06-26	23:57:29	0	0	6413627f4adf0cc7eb330dfc	1	1	DL_test	13	DL_test	12			0		ta	1	2145	6	6	antiphase_hc_ois.wav	3	6	5	noise_calib_stim_RIGHT.wav	2	6	blb_dichoticlistening_ba-ta.mp3	ba	ta	1	right
6.6.1	win	2023-06-26	23:57:29	0	0	6413627f4adf0cc7eb330dfc	1	1	DL_test	13	DL_test	13			0		ka	1	1364	6	6	antiphase_hc_ois.wav	3	6	5	noise_calib_stim_RIGHT.wav	2	24	blb_dichoticlistening_ka-ta.mp3	ka	ta	1	left
6.6.1	win	2023-06-26	23:57:29	0	0	6413627f4adf0cc7eb330dfc	1	1	DL_test	13	DL_test	14			0		da	1	1137	6	6	antiphase_hc_ois.wav	3	6	5	noise_calib_stim_RIGHT.wav	2	7	blb_dichoticlistening_da-ba.mp3	da	ba	1	left
6.6.1	win	2023-06-26	23:57:29	0	0	6413627f4adf0cc7eb330dfc	1	1	DL_test	13	DL_test	15			0		ka	1	1680	6	6	antiphase_hc_ois.wav	3	6	5	noise_calib_stim_RIGHT.wav	2	28	blb_dichoticlistening_pa-ka.mp3	pa	ka	1	right
6.6.1	win	2023-06-26	23:57:29	0	0	6413627f4adf0cc7eb330dfc	1	1	DL_test	13	DL_test	16			0		pa	1	720	6	6	antiphase_hc_ois.wav	3	6	5	noise_calib_stim_RIGHT.wav	2	5	blb_dichoticlistening_ba-pa.mp3	ba	pa	1	right
6.6.1	win	2023-06-26	23:57:29	0	0	6413627f4adf0cc7eb330dfc	1	1	DL_test	13	DL_test	17			0		ta	1	1515	6	6	antiphase_hc_ois.wav	3	6	5	noise_calib_stim_RIGHT.wav	2	35	blb_dichoticlistening_ta-pa.mp3	ta	pa	1	left
6.6.1	win	2023-06-26	23:57:29	0	0	6413627f4adf0cc7eb330dfc	1	1	DL_test	13	DL_test	18			0		ga	0	1712	6	6	antiphase_hc_ois.wav	3	6	5	noise_calib_stim_RIGHT.wav	2	20	blb_dichoticlistening_ka-da.mp3	ka	da	1	other
6.6.1	win	2023-06-26	23:57:29	0	0	6413627f4adf0cc7eb330dfc	1	1	DL_test	13	DL_test	19			0		da	1	1187	6	6	antiphase_hc_ois.wav	3	6	5	noise_calib_stim_RIGHT.wav	2	8	blb_dichoticlistening_da-da.mp3	da	da	0	left
6.6.1	win	2023-06-26	23:57:29	0	0	6413627f4adf0cc7eb330dfc	1	1	DL_test	13	DL_test	20			0		da	0	4307	6	6	antiphase_hc_ois.wav	3	6	5	noise_calib_stim_RIGHT.wav	2	13	blb_dichoticlistening_ga-ba.mp3	ga	ba	1	other
6.6.1	win	2023-06-26	23:57:29	0	0	6413627f4adf0cc7eb330dfc	1	1	DL_test	13	DL_test	21			0		pa	1	1189	6	6	antiphase_hc_ois.wav	3	6	5	noise_calib_stim_RIGHT.wav	2	11	blb_dichoticlistening_da-pa.mp3	da	pa	1	right
6.6.1	win	2023-06-26	23:57:29	0	0	6413627f4adf0cc7eb330dfc	1	1	DL_test	13	DL_test	22			0		ka	1	1207	6	6	antiphase_hc_ois.wav	3	6	5	noise_calib_stim_RIGHT.wav	2	34	blb_dichoticlistening_ta-ka.mp3	ta	ka	1	right
6.6.1	win	2023-06-26	23:57:29	0	0	6413627f4adf0cc7eb330dfc	1	1	DL_test	13	DL_test	23			0		ta	1	1416	6	6	antiphase_hc_ois.wav	3	6	5	noise_calib_stim_RIGHT.wav	2	30	blb_dichoticlistening_pa-ta.mp3	pa	ta	1	right
6.6.1	win	2023-06-26	23:57:29	0	0	6413627f4adf0cc7eb330dfc	1	1	DL_test	13	DL_test	24			0		pa	1	1197	6	6	antiphase_hc_ois.wav	3	6	5	noise_calib_stim_RIGHT.wav	2	17	blb_dichoticlistening_ga-pa.mp3	ga	pa	1	right
6.6.1	win	2023-06-26	23:57:29	0	0	6413627f4adf0cc7eb330dfc	1	1	DL_test	13	DL_test	25			0		ga	1	1293	6	6	antiphase_hc_ois.wav	3	6	5	noise_calib_stim_RIGHT.wav	2	33	blb_dichoticlistening_ta-ga.mp3	ta	ga	1	right
6.6.1	win	2023-06-26	23:57:29	0	0	6413627f4adf0cc7eb330dfc	1	1	DL_test	13	DL_test	26			0		da	1	2322	6	6	antiphase_hc_ois.wav	3	6	5	noise_calib_stim_RIGHT.wav	2	26	blb_dichoticlistening_pa-da.mp3	pa	da	1	right
6.6.1	win	2023-06-26	23:57:29	0	0	6413627f4adf0cc7eb330dfc	1	1	DL_test	13	DL_test	27			0		ta	1	1289	6	6	antiphase_hc_ois.wav	3	6	5	noise_calib_stim_RIGHT.wav	2	12	blb_dichoticlistening_da-ta.mp3	da	ta	1	right
6.6.1	win	2023-06-26	23:57:29	0	0	6413627f4adf0cc7eb330dfc	1	1	DL_test	13	DL_test	28			0		da	1	1654	6	6	antiphase_hc_ois.wav	3	6	5	noise_calib_stim_RIGHT.wav	2	2	blb_dichoticlistening_ba-da.mp3	ba	da	1	right
6.6.1	win	2023-06-26	23:57:29	0	0	6413627f4adf0cc7eb330dfc	1	1	DL_test	13	DL_test	29			0		ta	1	1420	6	6	antiphase_hc_ois.wav	3	6	5	noise_calib_stim_RIGHT.wav	2	36	blb_dichoticlistening_ta-ta.mp3	ta	ta	0	left
6.6.1	win	2023-06-26	23:57:29	0	0	6413627f4adf0cc7eb330dfc	1	1	DL_test	13	DL_test	30			0		ka	1	1399	6	6	antiphase_hc_ois.wav	3	6	5	noise_calib_stim_RIGHT.wav	2	21	blb_dichoticlistening_ka-ga.mp3	ka	ga	1	left
6.6.1	win	2023-06-26	23:57:29	0	0	6413627f4adf0cc7eb330dfc	1	1	DL_test	13	DL_test	31			0		ka	0	1449	6	6	antiphase_hc_ois.wav	3	6	5	noise_calib_stim_RIGHT.wav	2	18	blb_dichoticlistening_ga-ta.mp3	ga	ta	1	other
6.6.1	win	2023-06-26	23:57:29	0	0	6413627f4adf0cc7eb330dfc	1	1	DL_test	13	DL_test	32			0		da	0	1386	6	6	antiphase_hc_ois.wav	3	6	5	noise_calib_stim_RIGHT.wav	2	27	blb_dichoticlistening_pa-ga.mp3	pa	ga	1	other
6.6.1	win	2023-06-26	23:57:29	0	0	6413627f4adf0cc7eb330dfc	1	1	DL_test	13	DL_test	33			0		ka	1	1104	6	6	antiphase_hc_ois.wav	3	6	5	noise_calib_stim_RIGHT.wav	2	19	blb_dichoticlistening_ka-ba.mp3	ka	ba	1	left
6.6.1	win	2023-06-26	23:57:29	0	0	6413627f4adf0cc7eb330dfc	1	1	DL_test	13	DL_test	34			0		ka	0	2460	6	6	antiphase_hc_ois.wav	3	6	5	noise_calib_stim_RIGHT.wav	2	31	blb_dichoticlistening_ta-ba.mp3	ta	ba	1	other
6.6.1	win	2023-06-26	23:57:29	0	0	6413627f4adf0cc7eb330dfc	1	1	DL_test	13	DL_test	35			0		da	0	1118	6	6	antiphase_hc_ois.wav	3	6	5	noise_calib_stim_RIGHT.wav	2	3	blb_dichoticlistening_ba-ga.mp3	ba	ga	1	other
6.6.1	win	2023-06-26	23:57:29	0	0	6413627f4adf0cc7eb330dfc	1	1	DL_test	13	DL_test	36			0		ta	0	1672	6	6	antiphase_hc_ois.wav	3	6	5	noise_calib_stim_RIGHT.wav	2	23	blb_dichoticlistening_ka-pa.mp3	ka	pa	1	other
6.6.1	win	2023-06-26	23:57:29	0	0	6413627f4adf0cc7eb330dfc	1	1	DL_test	14	DL_test	1			0		pa	1	1553	6	6	antiphase_hc_ois.wav	3	6	5	noise_calib_stim_RIGHT.wav	2	11	blb_dichoticlistening_da-pa.mp3	da	pa	1	right
6.6.1	win	2023-06-26	23:57:29	0	0	6413627f4adf0cc7eb330dfc	1	1	DL_test	14	DL_test	2			0		ta	1	1621	6	6	antiphase_hc_ois.wav	3	6	5	noise_calib_stim_RIGHT.wav	2	18	blb_dichoticlistening_ga-ta.mp3	ga	ta	1	right
6.6.1	win	2023-06-26	23:57:29	0	0	6413627f4adf0cc7eb330dfc	1	1	DL_test	14	DL_test	3			0		ta	1	654	6	6	antiphase_hc_ois.wav	3	6	5	noise_calib_stim_RIGHT.wav	2	36	blb_dichoticlistening_ta-ta.mp3	ta	ta	0	left
6.6.1	win	2023-06-26	23:57:29	0	0	6413627f4adf0cc7eb330dfc	1	1	DL_test	14	DL_test	4			0		ta	1	1554	6	6	antiphase_hc_ois.wav	3	6	5	noise_calib_stim_RIGHT.wav	2	35	blb_dichoticlistening_ta-pa.mp3	ta	pa	1	left
6.6.1	win	2023-06-26	23:57:29	0	0	6413627f4adf0cc7eb330dfc	1	1	DL_test	14	DL_test	5			0		ka	1	1367	6	6	antiphase_hc_ois.wav	3	6	5	noise_calib_stim_RIGHT.wav	2	22	blb_dichoticlistening_ka-ka.mp3	ka	ka	0	left
6.6.1	win	2023-06-26	23:57:29	0	0	6413627f4adf0cc7eb330dfc	1	1	DL_test	14	DL_test	6			0		ga	1	2149	6	6	antiphase_hc_ois.wav	3	6	5	noise_calib_stim_RIGHT.wav	2	21	blb_dichoticlistening_ka-ga.mp3	ka	ga	1	right
6.6.1	win	2023-06-26	23:57:29	0	0	6413627f4adf0cc7eb330dfc	1	1	DL_test	14	DL_test	7			0		da	1	1095	6	6	antiphase_hc_ois.wav	3	6	5	noise_calib_stim_RIGHT.wav	2	2	blb_dichoticlistening_ba-da.mp3	ba	da	1	right
6.6.1	win	2023-06-26	23:57:29	0	0	6413627f4adf0cc7eb330dfc	1	1	DL_test	14	DL_test	8			0		da	1	1404	6	6	antiphase_hc_ois.wav	3	6	5	noise_calib_stim_RIGHT.wav	2	14	blb_dichoticlistening_ga-da.mp3	ga	da	1	right
6.6.1	win	2023-06-26	23:57:29	0	0	6413627f4adf0cc7eb330dfc	1	1	DL_test	14	DL_test	9			0		ta	1	1447	6	6	antiphase_hc_ois.wav	3	6	5	noise_calib_stim_RIGHT.wav	2	6	blb_dichoticlistening_ba-ta.mp3	ba	ta	1	right
6.6.1	win	2023-06-26	23:57:29	0	0	6413627f4adf0cc7eb330dfc	1	1	DL_test	14	DL_test	10			0		ka	1	2198	6	6	antiphase_hc_ois.wav	3	6	5	noise_calib_stim_RIGHT.wav	2	34	blb_dichoticlistening_ta-ka.mp3	ta	ka	1	right
6.6.1	win	2023-06-26	23:57:29	0	0	6413627f4adf0cc7eb330dfc	1	1	DL_test	14	DL_test	11			0		ta	0	961	6	6	antiphase_hc_ois.wav	3	6	5	noise_calib_stim_RIGHT.wav	2	28	blb_dichoticlistening_pa-ka.mp3	pa	ka	1	other
6.6.1	win	2023-06-26	23:57:29	0	0	6413627f4adf0cc7eb330dfc	1	1	DL_test	14	DL_test	12			0		pa	1	1106	6	6	antiphase_hc_ois.wav	3	6	5	noise_calib_stim_RIGHT.wav	2	17	blb_dichoticlistening_ga-pa.mp3	ga	pa	1	right
6.6.1	win	2023-06-26	23:57:29	0	0	6413627f4adf0cc7eb330dfc	1	1	DL_test	14	DL_test	13			0		da	1	1415	6	6	antiphase_hc_ois.wav	3	6	5	noise_calib_stim_RIGHT.wav	2	8	blb_dichoticlistening_da-da.mp3	da	da	0	left
6.6.1	win	2023-06-26	23:57:29	0	0	6413627f4adf0cc7eb330dfc	1	1	DL_test	14	DL_test	14			0		ta	1	1167	6	6	antiphase_hc_ois.wav	3	6	5	noise_calib_stim_RIGHT.wav	2	30	blb_dichoticlistening_pa-ta.mp3	pa	ta	1	right
6.6.1	win	2023-06-26	23:57:29	0	0	6413627f4adf0cc7eb330dfc	1	1	DL_test	14	DL_test	15			0		ba	1	1460	6	6	antiphase_hc_ois.wav	3	6	5	noise_calib_stim_RIGHT.wav	2	1	blb_dichoticlistening_ba-ba.mp3	ba	ba	0	left
6.6.1	win	2023-06-26	23:57:29	0	0	6413627f4adf0cc7eb330dfc	1	1	DL_test	14	DL_test	16			0		ka	1	1121	6	6	antiphase_hc_ois.wav	3	6	5	noise_calib_stim_RIGHT.wav	2	19	blb_dichoticlistening_ka-ba.mp3	ka	ba	1	left
6.6.1	win	2023-06-26	23:57:29	0	0	6413627f4adf0cc7eb330dfc	1	1	DL_test	14	DL_test	17			0		ka	1	1115	6	6	antiphase_hc_ois.wav	3	6	5	noise_calib_stim_RIGHT.wav	2	4	blb_dichoticlistening_ba-ka.mp3	ba	ka	1	right
6.6.1	win	2023-06-26	23:57:29	0	0	6413627f4adf0cc7eb330dfc	1	1	DL_test	14	DL_test	18			0		pa	1	1367	6	6	antiphase_hc_ois.wav	3	6	5	noise_calib_stim_RIGHT.wav	2	25	blb_dichoticlistening_pa-ba.mp3	pa	ba	1	left
6.6.1	win	2023-06-26	23:57:29	0	0	6413627f4adf0cc7eb330dfc	1	1	DL_test	14	DL_test	19			0		da	1	1441	6	6	antiphase_hc_ois.wav	3	6	5	noise_calib_stim_RIGHT.wav	2	7	blb_dichoticlistening_da-ba.mp3	da	ba	1	left
6.6.1	win	2023-06-26	23:57:29	0	0	6413627f4adf0cc7eb330dfc	1	1	DL_test	14	DL_test	20			0		da	0	1411	6	6	antiphase_hc_ois.wav	3	6	5	noise_calib_stim_RIGHT.wav	2	3	blb_dichoticlistening_ba-ga.mp3	ba	ga	1	other
6.6.1	win	2023-06-26	23:57:29	0	0	6413627f4adf0cc7eb330dfc	1	1	DL_test	14	DL_test	21			0		da	0	1318	6	6	antiphase_hc_ois.wav	3	6	5	noise_calib_stim_RIGHT.wav	2	27	blb_dichoticlistening_pa-ga.mp3	pa	ga	1	other
6.6.1	win	2023-06-26	23:57:29	0	0	6413627f4adf0cc7eb330dfc	1	1	DL_test	14	DL_test	22			0		ka	1	761	6	6	antiphase_hc_ois.wav	3	6	5	noise_calib_stim_RIGHT.wav	2	24	blb_dichoticlistening_ka-ta.mp3	ka	ta	1	left
6.6.1	win	2023-06-26	23:57:29	0	0	6413627f4adf0cc7eb330dfc	1	1	DL_test	14	DL_test	23			0		ka	0	3397	6	6	antiphase_hc_ois.wav	3	6	5	noise_calib_stim_RIGHT.wav	2	32	blb_dichoticlistening_ta-da.mp3	ta	da	1	other
6.6.1	win	2023-06-26	23:57:29	0	0	6413627f4adf0cc7eb330dfc	1	1	DL_test	14	DL_test	24			0		pa	0	1449	6	6	antiphase_hc_ois.wav	3	6	5	noise_calib_stim_RIGHT.wav	2	10	blb_dichoticlistening_da-ka.mp3	da	ka	1	other
6.6.1	win	2023-06-26	23:57:29	0	0	6413627f4adf0cc7eb330dfc	1	1	DL_test	14	DL_test	25			0		ka	1	1044	6	6	antiphase_hc_ois.wav	3	6	5	noise_calib_stim_RIGHT.wav	2	23	blb_dichoticlistening_ka-pa.mp3	ka	pa	1	left
6.6.1	win	2023-06-26	23:57:29	0	0	6413627f4adf0cc7eb330dfc	1	1	DL_test	14	DL_test	26			0		pa	1	2202	6	6	antiphase_hc_ois.wav	3	6	5	noise_calib_stim_RIGHT.wav	2	26	blb_dichoticlistening_pa-da.mp3	pa	da	1	left
6.6.1	win	2023-06-26	23:57:29	0	0	6413627f4adf0cc7eb330dfc	1	1	DL_test	14	DL_test	27			0		ka	1	975	6	6	antiphase_hc_ois.wav	3	6	5	noise_calib_stim_RIGHT.wav	2	20	blb_dichoticlistening_ka-da.mp3	ka	da	1	left
6.6.1	win	2023-06-26	23:57:29	0	0	6413627f4adf0cc7eb330dfc	1	1	DL_test	14	DL_test	28			0		ka	0	1090	6	6	antiphase_hc_ois.wav	3	6	5	noise_calib_stim_RIGHT.wav	2	31	blb_dichoticlistening_ta-ba.mp3	ta	ba	1	other
6.6.1	win	2023-06-26	23:57:29	0	0	6413627f4adf0cc7eb330dfc	1	1	DL_test	14	DL_test	29			0		ka	1	1083	6	6	antiphase_hc_ois.wav	3	6	5	noise_calib_stim_RIGHT.wav	2	16	blb_dichoticlistening_ga-ka.mp3	ga	ka	1	right
6.6.1	win	2023-06-26	23:57:29	0	0	6413627f4adf0cc7eb330dfc	1	1	DL_test	14	DL_test	30			0		ta	1	1020	6	6	antiphase_hc_ois.wav	3	6	5	noise_calib_stim_RIGHT.wav	2	12	blb_dichoticlistening_da-ta.mp3	da	ta	1	right
6.6.1	win	2023-06-26	23:57:29	0	0	6413627f4adf0cc7eb330dfc	1	1	DL_test	14	DL_test	31			0		da	1	1384	6	6	antiphase_hc_ois.wav	3	6	5	noise_calib_stim_RIGHT.wav	2	9	blb_dichoticlistening_da-ga.mp3	da	ga	1	left
6.6.1	win	2023-06-26	23:57:29	0	0	6413627f4adf0cc7eb330dfc	1	1	DL_test	14	DL_test	32			0		pa	1	1744	6	6	antiphase_hc_ois.wav	3	6	5	noise_calib_stim_RIGHT.wav	2	29	blb_dichoticlistening_pa-pa.mp3	pa	pa	0	left
6.6.1	win	2023-06-26	23:57:29	0	0	6413627f4adf0cc7eb330dfc	1	1	DL_test	14	DL_test	33			0		da	0	1344	6	6	antiphase_hc_ois.wav	3	6	5	noise_calib_stim_RIGHT.wav	2	15	blb_dichoticlistening_ga-ga.mp3	ga	ga	0	other
6.6.1	win	2023-06-26	23:57:29	0	0	6413627f4adf0cc7eb330dfc	1	1	DL_test	14	DL_test	34			0		da	0	1012	6	6	antiphase_hc_ois.wav	3	6	5	noise_calib_stim_RIGHT.wav	2	13	blb_dichoticlistening_ga-ba.mp3	ga	ba	1	other
6.6.1	win	2023-06-26	23:57:29	0	0	6413627f4adf0cc7eb330dfc	1	1	DL_test	14	DL_test	35			0		pa	1	817	6	6	antiphase_hc_ois.wav	3	6	5	noise_calib_stim_RIGHT.wav	2	5	blb_dichoticlistening_ba-pa.mp3	ba	pa	1	right
6.6.1	win	2023-06-26	23:57:29	0	0	6413627f4adf0cc7eb330dfc	1	1	DL_test	14	DL_test	36			0		ka	0	2020	6	6	antiphase_hc_ois.wav	3	6	5	noise_calib_stim_RIGHT.wav	2	33	blb_dichoticlistening_ta-ga.mp3	ta	ga	1	other
6.6.1	win	2023-06-26	23:57:29	0	0	6413627f4adf0cc7eb330dfc	1	1	DL_test	15	DL_test	1			0		ka	1	30423	6	6	antiphase_hc_ois.wav	3	6	5	noise_calib_stim_RIGHT.wav	2	21	blb_dichoticlistening_ka-ga.mp3	ka	ga	1	left
6.6.1	win	2023-06-26	23:57:29	0	0	6413627f4adf0cc7eb330dfc	1	1	DL_test	15	DL_test	2			0		da	0	1290	6	6	antiphase_hc_ois.wav	3	6	5	noise_calib_stim_RIGHT.wav	2	33	blb_dichoticlistening_ta-ga.mp3	ta	ga	1	other
6.6.1	win	2023-06-26	23:57:29	0	0	6413627f4adf0cc7eb330dfc	1	1	DL_test	15	DL_test	3			0		ka	1	1468	6	6	antiphase_hc_ois.wav	3	6	5	noise_calib_stim_RIGHT.wav	2	19	blb_dichoticlistening_ka-ba.mp3	ka	ba	1	left
6.6.1	win	2023-06-26	23:57:29	0	0	6413627f4adf0cc7eb330dfc	1	1	DL_test	15	DL_test	4			0		pa	1	1928	6	6	antiphase_hc_ois.wav	3	6	5	noise_calib_stim_RIGHT.wav	2	27	blb_dichoticlistening_pa-ga.mp3	pa	ga	1	left
6.6.1	win	2023-06-26	23:57:29	0	0	6413627f4adf0cc7eb330dfc	1	1	DL_test	15	DL_test	5			0		pa	1	1072	6	6	antiphase_hc_ois.wav	3	6	5	noise_calib_stim_RIGHT.wav	2	25	blb_dichoticlistening_pa-ba.mp3	pa	ba	1	left
6.6.1	win	2023-06-26	23:57:29	0	0	6413627f4adf0cc7eb330dfc	1	1	DL_test	15	DL_test	6			0		ka	1	1324	6	6	antiphase_hc_ois.wav	3	6	5	noise_calib_stim_RIGHT.wav	2	20	blb_dichoticlistening_ka-da.mp3	ka	da	1	left
6.6.1	win	2023-06-26	23:57:29	0	0	6413627f4adf0cc7eb330dfc	1	1	DL_test	15	DL_test	7			0		ta	0	1617	6	6	antiphase_hc_ois.wav	3	6	5	noise_calib_stim_RIGHT.wav	2	28	blb_dichoticlistening_pa-ka.mp3	pa	ka	1	other
6.6.1	win	2023-06-26	23:57:29	0	0	6413627f4adf0cc7eb330dfc	1	1	DL_test	15	DL_test	8			0		pa	1	1100	6	6	antiphase_hc_ois.wav	3	6	5	noise_calib_stim_RIGHT.wav	2	5	blb_dichoticlistening_ba-pa.mp3	ba	pa	1	right
6.6.1	win	2023-06-26	23:57:29	0	0	6413627f4adf0cc7eb330dfc	1	1	DL_test	15	DL_test	9			0		da	1	1388	6	6	antiphase_hc_ois.wav	3	6	5	noise_calib_stim_RIGHT.wav	2	14	blb_dichoticlistening_ga-da.mp3	ga	da	1	right
6.6.1	win	2023-06-26	23:57:29	0	0	6413627f4adf0cc7eb330dfc	1	1	DL_test	15	DL_test	10			0		da	1	1395	6	6	antiphase_hc_ois.wav	3	6	5	noise_calib_stim_RIGHT.wav	2	2	blb_dichoticlistening_ba-da.mp3	ba	da	1	right
6.6.1	win	2023-06-26	23:57:29	0	0	6413627f4adf0cc7eb330dfc	1	1	DL_test	15	DL_test	11			0		ka	1	1030	6	6	antiphase_hc_ois.wav	3	6	5	noise_calib_stim_RIGHT.wav	2	22	blb_dichoticlistening_ka-ka.mp3	ka	ka	0	left
6.6.1	win	2023-06-26	23:57:29	0	0	6413627f4adf0cc7eb330dfc	1	1	DL_test	15	DL_test	12			0		da	1	1399	6	6	antiphase_hc_ois.wav	3	6	5	noise_calib_stim_RIGHT.wav	2	9	blb_dichoticlistening_da-ga.mp3	da	ga	1	left
6.6.1	win	2023-06-26	23:57:29	0	0	6413627f4adf0cc7eb330dfc	1	1	DL_test	15	DL_test	13			0		ka	0	1499	6	6	antiphase_hc_ois.wav	3	6	5	noise_calib_stim_RIGHT.wav	2	18	blb_dichoticlistening_ga-ta.mp3	ga	ta	1	other
6.6.1	win	2023-06-26	23:57:29	0	0	6413627f4adf0cc7eb330dfc	1	1	DL_test	15	DL_test	14			0		pa	1	1441	6	6	antiphase_hc_ois.wav	3	6	5	noise_calib_stim_RIGHT.wav	2	29	blb_dichoticlistening_pa-pa.mp3	pa	pa	0	left
6.6.1	win	2023-06-26	23:57:29	0	0	6413627f4adf0cc7eb330dfc	1	1	DL_test	15	DL_test	15			0		da	0	1186	6	6	antiphase_hc_ois.wav	3	6	5	noise_calib_stim_RIGHT.wav	2	3	blb_dichoticlistening_ba-ga.mp3	ba	ga	1	other
6.6.1	win	2023-06-26	23:57:29	0	0	6413627f4adf0cc7eb330dfc	1	1	DL_test	15	DL_test	16			0		ta	1	1423	6	6	antiphase_hc_ois.wav	3	6	5	noise_calib_stim_RIGHT.wav	2	30	blb_dichoticlistening_pa-ta.mp3	pa	ta	1	right
6.6.1	win	2023-06-26	23:57:29	0	0	6413627f4adf0cc7eb330dfc	1	1	DL_test	15	DL_test	17			0		ka	1	1091	6	6	antiphase_hc_ois.wav	3	6	5	noise_calib_stim_RIGHT.wav	2	34	blb_dichoticlistening_ta-ka.mp3	ta	ka	1	right
6.6.1	win	2023-06-26	23:57:29	0	0	6413627f4adf0cc7eb330dfc	1	1	DL_test	15	DL_test	18			0		ta	1	1608	6	6	antiphase_hc_ois.wav	3	6	5	noise_calib_stim_RIGHT.wav	2	36	blb_dichoticlistening_ta-ta.mp3	ta	ta	0	left
6.6.1	win	2023-06-26	23:57:29	0	0	6413627f4adf0cc7eb330dfc	1	1	DL_test	15	DL_test	19			0		pa	0	1376	6	6	antiphase_hc_ois.wav	3	6	5	noise_calib_stim_RIGHT.wav	2	6	blb_dichoticlistening_ba-ta.mp3	ba	ta	1	other
6.6.1	win	2023-06-26	23:57:29	0	0	6413627f4adf0cc7eb330dfc	1	1	DL_test	15	DL_test	20			0		da	1	1475	6	6	antiphase_hc_ois.wav	3	6	5	noise_calib_stim_RIGHT.wav	2	7	blb_dichoticlistening_da-ba.mp3	da	ba	1	left
6.6.1	win	2023-06-26	23:57:29	0	0	6413627f4adf0cc7eb330dfc	1	1	DL_test	15	DL_test	21			0		da	0	1194	6	6	antiphase_hc_ois.wav	3	6	5	noise_calib_stim_RIGHT.wav	2	15	blb_dichoticlistening_ga-ga.mp3	ga	ga	0	other
6.6.1	win	2023-06-26	23:57:29	0	0	6413627f4adf0cc7eb330dfc	1	1	DL_test	15	DL_test	22			0		ka	1	1094	6	6	antiphase_hc_ois.wav	3	6	5	noise_calib_stim_RIGHT.wav	2	4	blb_dichoticlistening_ba-ka.mp3	ba	ka	1	right
6.6.1	win	2023-06-26	23:57:29	0	0	6413627f4adf0cc7eb330dfc	1	1	DL_test	15	DL_test	23			0		ka	1	1343	6	6	antiphase_hc_ois.wav	3	6	5	noise_calib_stim_RIGHT.wav	2	23	blb_dichoticlistening_ka-pa.mp3	ka	pa	1	left
6.6.1	win	2023-06-26	23:57:29	0	0	6413627f4adf0cc7eb330dfc	1	1	DL_test	15	DL_test	24			0		ka	1	1529	6	6	antiphase_hc_ois.wav	3	6	5	noise_calib_stim_RIGHT.wav	2	24	blb_dichoticlistening_ka-ta.mp3	ka	ta	1	left
6.6.1	win	2023-06-26	23:57:29	0	0	6413627f4adf0cc7eb330dfc	1	1	DL_test	15	DL_test	25			0		pa	1	1557	6	6	antiphase_hc_ois.wav	3	6	5	noise_calib_stim_RIGHT.wav	2	17	blb_dichoticlistening_ga-pa.mp3	ga	pa	1	right
6.6.1	win	2023-06-26	23:57:29	0	0	6413627f4adf0cc7eb330dfc	1	1	DL_test	15	DL_test	26			0		da	0	1425	6	6	antiphase_hc_ois.wav	3	6	5	noise_calib_stim_RIGHT.wav	2	13	blb_dichoticlistening_ga-ba.mp3	ga	ba	1	other
6.6.1	win	2023-06-26	23:57:29	0	0	6413627f4adf0cc7eb330dfc	1	1	DL_test	15	DL_test	27			0		ta	1	1407	6	6	antiphase_hc_ois.wav	3	6	5	noise_calib_stim_RIGHT.wav	2	35	blb_dichoticlistening_ta-pa.mp3	ta	pa	1	left
6.6.1	win	2023-06-26	23:57:29	0	0	6413627f4adf0cc7eb330dfc	1	1	DL_test	15	DL_test	28			0		ba	1	1463	6	6	antiphase_hc_ois.wav	3	6	5	noise_calib_stim_RIGHT.wav	2	1	blb_dichoticlistening_ba-ba.mp3	ba	ba	0	left
6.6.1	win	2023-06-26	23:57:29	0	0	6413627f4adf0cc7eb330dfc	1	1	DL_test	15	DL_test	29			0		pa	1	1156	6	6	antiphase_hc_ois.wav	3	6	5	noise_calib_stim_RIGHT.wav	2	11	blb_dichoticlistening_da-pa.mp3	da	pa	1	right
6.6.1	win	2023-06-26	23:57:29	0	0	6413627f4adf0cc7eb330dfc	1	1	DL_test	15	DL_test	30			0		da	1	1142	6	6	antiphase_hc_ois.wav	3	6	5	noise_calib_stim_RIGHT.wav	2	8	blb_dichoticlistening_da-da.mp3	da	da	0	left
6.6.1	win	2023-06-26	23:57:29	0	0	6413627f4adf0cc7eb330dfc	1	1	DL_test	15	DL_test	31			0		ta	1	1465	6	6	antiphase_hc_ois.wav	3	6	5	noise_calib_stim_RIGHT.wav	2	12	blb_dichoticlistening_da-ta.mp3	da	ta	1	right
6.6.1	win	2023-06-26	23:57:29	0	0	6413627f4adf0cc7eb330dfc	1	1	DL_test	15	DL_test	32			0		da	1	1912	6	6	antiphase_hc_ois.wav	3	6	5	noise_calib_stim_RIGHT.wav	2	26	blb_dichoticlistening_pa-da.mp3	pa	da	1	right
6.6.1	win	2023-06-26	23:57:29	0	0	6413627f4adf0cc7eb330dfc	1	1	DL_test	15	DL_test	33			0		da	0	2144	6	6	antiphase_hc_ois.wav	3	6	5	noise_calib_stim_RIGHT.wav	2	31	blb_dichoticlistening_ta-ba.mp3	ta	ba	1	other
6.6.1	win	2023-06-26	23:57:29	0	0	6413627f4adf0cc7eb330dfc	1	1	DL_test	15	DL_test	34			0		da	1	1591	6	6	antiphase_hc_ois.wav	3	6	5	noise_calib_stim_RIGHT.wav	2	32	blb_dichoticlistening_ta-da.mp3	ta	da	1	right
6.6.1	win	2023-06-26	23:57:29	0	0	6413627f4adf0cc7eb330dfc	1	1	DL_test	15	DL_test	35			0		pa	0	1118	6	6	antiphase_hc_ois.wav	3	6	5	noise_calib_stim_RIGHT.wav	2	10	blb_dichoticlistening_da-ka.mp3	da	ka	1	other
6.6.1	win	2023-06-26	23:57:29	0	0	6413627f4adf0cc7eb330dfc	1	1	DL_test	15	DL_test	36			0		ka	1	1052	6	6	antiphase_hc_ois.wav	3	6	5	noise_calib_stim_RIGHT.wav	2	16	blb_dichoticlistening_ga-ka.mp3	ga	ka	1	right
6.6.1	win	2023-06-26	23:57:29	0	0	6413627f4adf0cc7eb330dfc	1	1	DL_test	16	DL_test	1			0		da	0	1837	6	6	antiphase_hc_ois.wav	3	6	5	noise_calib_stim_RIGHT.wav	2	31	blb_dichoticlistening_ta-ba.mp3	ta	ba	1	other
6.6.1	win	2023-06-26	23:57:29	0	0	6413627f4adf0cc7eb330dfc	1	1	DL_test	16	DL_test	2			0		da	1	1222	6	6	antiphase_hc_ois.wav	3	6	5	noise_calib_stim_RIGHT.wav	2	7	blb_dichoticlistening_da-ba.mp3	da	ba	1	left
6.6.1	win	2023-06-26	23:57:29	0	0	6413627f4adf0cc7eb330dfc	1	1	DL_test	16	DL_test	3			0		ka	1	1608	6	6	antiphase_hc_ois.wav	3	6	5	noise_calib_stim_RIGHT.wav	2	19	blb_dichoticlistening_ka-ba.mp3	ka	ba	1	left
6.6.1	win	2023-06-26	23:57:29	0	0	6413627f4adf0cc7eb330dfc	1	1	DL_test	16	DL_test	4			0		pa	1	1250	6	6	antiphase_hc_ois.wav	3	6	5	noise_calib_stim_RIGHT.wav	2	11	blb_dichoticlistening_da-pa.mp3	da	pa	1	right
6.6.1	win	2023-06-26	23:57:29	0	0	6413627f4adf0cc7eb330dfc	1	1	DL_test	16	DL_test	5			0		ka	1	1265	6	6	antiphase_hc_ois.wav	3	6	5	noise_calib_stim_RIGHT.wav	2	28	blb_dichoticlistening_pa-ka.mp3	pa	ka	1	right
6.6.1	win	2023-06-26	23:57:29	0	0	6413627f4adf0cc7eb330dfc	1	1	DL_test	16	DL_test	6			0		ta	1	1556	6	6	antiphase_hc_ois.wav	3	6	5	noise_calib_stim_RIGHT.wav	2	35	blb_dichoticlistening_ta-pa.mp3	ta	pa	1	left
6.6.1	win	2023-06-26	23:57:29	0	0	6413627f4adf0cc7eb330dfc	1	1	DL_test	16	DL_test	7			0		ka	0	1509	6	6	antiphase_hc_ois.wav	3	6	5	noise_calib_stim_RIGHT.wav	2	18	blb_dichoticlistening_ga-ta.mp3	ga	ta	1	other
6.6.1	win	2023-06-26	23:57:29	0	0	6413627f4adf0cc7eb330dfc	1	1	DL_test	16	DL_test	8			0		ba	1	1083	6	6	antiphase_hc_ois.wav	3	6	5	noise_calib_stim_RIGHT.wav	2	1	blb_dichoticlistening_ba-ba.mp3	ba	ba	0	left
6.6.1	win	2023-06-26	23:57:29	0	0	6413627f4adf0cc7eb330dfc	1	1	DL_test	16	DL_test	9			0		ka	1	1246	6	6	antiphase_hc_ois.wav	3	6	5	noise_calib_stim_RIGHT.wav	2	23	blb_dichoticlistening_ka-pa.mp3	ka	pa	1	left
6.6.1	win	2023-06-26	23:57:29	0	0	6413627f4adf0cc7eb330dfc	1	1	DL_test	16	DL_test	10			0		da	1	1019	6	6	antiphase_hc_ois.wav	3	6	5	noise_calib_stim_RIGHT.wav	2	2	blb_dichoticlistening_ba-da.mp3	ba	da	1	right
6.6.1	win	2023-06-26	23:57:29	0	0	6413627f4adf0cc7eb330dfc	1	1	DL_test	16	DL_test	11			0		ka	1	1071	6	6	antiphase_hc_ois.wav	3	6	5	noise_calib_stim_RIGHT.wav	2	22	blb_dichoticlistening_ka-ka.mp3	ka	ka	0	left
6.6.1	win	2023-06-26	23:57:29	0	0	6413627f4adf0cc7eb330dfc	1	1	DL_test	16	DL_test	12			0		da	0	1377	6	6	antiphase_hc_ois.wav	3	6	5	noise_calib_stim_RIGHT.wav	2	33	blb_dichoticlistening_ta-ga.mp3	ta	ga	1	other
6.6.1	win	2023-06-26	23:57:29	0	0	6413627f4adf0cc7eb330dfc	1	1	DL_test	16	DL_test	13			0		pa	1	1398	6	6	antiphase_hc_ois.wav	3	6	5	noise_calib_stim_RIGHT.wav	2	25	blb_dichoticlistening_pa-ba.mp3	pa	ba	1	left
6.6.1	win	2023-06-26	23:57:29	0	0	6413627f4adf0cc7eb330dfc	1	1	DL_test	16	DL_test	14			0		da	1	1463	6	6	antiphase_hc_ois.wav	3	6	5	noise_calib_stim_RIGHT.wav	2	8	blb_dichoticlistening_da-da.mp3	da	da	0	left
6.6.1	win	2023-06-26	23:57:29	0	0	6413627f4adf0cc7eb330dfc	1	1	DL_test	16	DL_test	15			0		ka	1	1081	6	6	antiphase_hc_ois.wav	3	6	5	noise_calib_stim_RIGHT.wav	2	4	blb_dichoticlistening_ba-ka.mp3	ba	ka	1	right
6.6.1	win	2023-06-26	23:57:29	0	0	6413627f4adf0cc7eb330dfc	1	1	DL_test	16	DL_test	16			0		da	0	1132	6	6	antiphase_hc_ois.wav	3	6	5	noise_calib_stim_RIGHT.wav	2	27	blb_dichoticlistening_pa-ga.mp3	pa	ga	1	other
6.6.1	win	2023-06-26	23:57:29	0	0	6413627f4adf0cc7eb330dfc	1	1	DL_test	16	DL_test	17			0		ka	1	1121	6	6	antiphase_hc_ois.wav	3	6	5	noise_calib_stim_RIGHT.wav	2	24	blb_dichoticlistening_ka-ta.mp3	ka	ta	1	left
6.6.1	win	2023-06-26	23:57:29	0	0	6413627f4adf0cc7eb330dfc	1	1	DL_test	16	DL_test	18			0		da	1	1365	6	6	antiphase_hc_ois.wav	3	6	5	noise_calib_stim_RIGHT.wav	2	32	blb_dichoticlistening_ta-da.mp3	ta	da	1	right
6.6.1	win	2023-06-26	23:57:29	0	0	6413627f4adf0cc7eb330dfc	1	1	DL_test	16	DL_test	19			0		pa	0	1454	6	6	antiphase_hc_ois.wav	3	6	5	noise_calib_stim_RIGHT.wav	2	10	blb_dichoticlistening_da-ka.mp3	da	ka	1	other
6.6.1	win	2023-06-26	23:57:29	0	0	6413627f4adf0cc7eb330dfc	1	1	DL_test	16	DL_test	20			0		ka	1	914	6	6	antiphase_hc_ois.wav	3	6	5	noise_calib_stim_RIGHT.wav	2	16	blb_dichoticlistening_ga-ka.mp3	ga	ka	1	right
6.6.1	win	2023-06-26	23:57:29	0	0	6413627f4adf0cc7eb330dfc	1	1	DL_test	16	DL_test	21			0		pa	1	1351	6	6	antiphase_hc_ois.wav	3	6	5	noise_calib_stim_RIGHT.wav	2	5	blb_dichoticlistening_ba-pa.mp3	ba	pa	1	right
6.6.1	win	2023-06-26	23:57:29	0	0	6413627f4adf0cc7eb330dfc	1	1	DL_test	16	DL_test	22			0		da	0	1313	6	6	antiphase_hc_ois.wav	3	6	5	noise_calib_stim_RIGHT.wav	2	3	blb_dichoticlistening_ba-ga.mp3	ba	ga	1	other
6.6.1	win	2023-06-26	23:57:29	0	0	6413627f4adf0cc7eb330dfc	1	1	DL_test	16	DL_test	23			0		da	0	1080	6	6	antiphase_hc_ois.wav	3	6	5	noise_calib_stim_RIGHT.wav	2	13	blb_dichoticlistening_ga-ba.mp3	ga	ba	1	other
6.6.1	win	2023-06-26	23:57:29	0	0	6413627f4adf0cc7eb330dfc	1	1	DL_test	16	DL_test	24			0		pa	1	1482	6	6	antiphase_hc_ois.wav	3	6	5	noise_calib_stim_RIGHT.wav	2	17	blb_dichoticlistening_ga-pa.mp3	ga	pa	1	right
6.6.1	win	2023-06-26	23:57:29	0	0	6413627f4adf0cc7eb330dfc	1	1	DL_test	16	DL_test	25			0		da	0	1107	6	6	antiphase_hc_ois.wav	3	6	5	noise_calib_stim_RIGHT.wav	2	15	blb_dichoticlistening_ga-ga.mp3	ga	ga	0	other
6.6.1	win	2023-06-26	23:57:29	0	0	6413627f4adf0cc7eb330dfc	1	1	DL_test	16	DL_test	26			0		ka	0	1661	6	6	antiphase_hc_ois.wav	3	6	5	noise_calib_stim_RIGHT.wav	2	6	blb_dichoticlistening_ba-ta.mp3	ba	ta	1	other
6.6.1	win	2023-06-26	23:57:29	0	0	6413627f4adf0cc7eb330dfc	1	1	DL_test	16	DL_test	27			0		ta	1	1178	6	6	antiphase_hc_ois.wav	3	6	5	noise_calib_stim_RIGHT.wav	2	30	blb_dichoticlistening_pa-ta.mp3	pa	ta	1	right
6.6.1	win	2023-06-26	23:57:29	0	0	6413627f4adf0cc7eb330dfc	1	1	DL_test	16	DL_test	28			0		da	1	1380	6	6	antiphase_hc_ois.wav	3	6	5	noise_calib_stim_RIGHT.wav	2	26	blb_dichoticlistening_pa-da.mp3	pa	da	1	right
6.6.1	win	2023-06-26	23:57:29	0	0	6413627f4adf0cc7eb330dfc	1	1	DL_test	16	DL_test	29			0		ka	1	1129	6	6	antiphase_hc_ois.wav	3	6	5	noise_calib_stim_RIGHT.wav	2	20	blb_dichoticlistening_ka-da.mp3	ka	da	1	left
6.6.1	win	2023-06-26	23:57:29	0	0	6413627f4adf0cc7eb330dfc	1	1	DL_test	16	DL_test	30			0		pa	1	1511	6	6	antiphase_hc_ois.wav	3	6	5	noise_calib_stim_RIGHT.wav	2	29	blb_dichoticlistening_pa-pa.mp3	pa	pa	0	left
6.6.1	win	2023-06-26	23:57:29	0	0	6413627f4adf0cc7eb330dfc	1	1	DL_test	16	DL_test	31			0		ta	1	1529	6	6	antiphase_hc_ois.wav	3	6	5	noise_calib_stim_RIGHT.wav	2	12	blb_dichoticlistening_da-ta.mp3	da	ta	1	right
6.6.1	win	2023-06-26	23:57:29	0	0	6413627f4adf0cc7eb330dfc	1	1	DL_test	16	DL_test	32			0		da	1	1132	6	6	antiphase_hc_ois.wav	3	6	5	noise_calib_stim_RIGHT.wav	2	14	blb_dichoticlistening_ga-da.mp3	ga	da	1	right
6.6.1	win	2023-06-26	23:57:29	0	0	6413627f4adf0cc7eb330dfc	1	1	DL_test	16	DL_test	33			0		ga	1	1031	6	6	antiphase_hc_ois.wav	3	6	5	noise_calib_stim_RIGHT.wav	2	21	blb_dichoticlistening_ka-ga.mp3	ka	ga	1	right
6.6.1	win	2023-06-26	23:57:29	0	0	6413627f4adf0cc7eb330dfc	1	1	DL_test	16	DL_test	34			0		da	1	1181	6	6	antiphase_hc_ois.wav	3	6	5	noise_calib_stim_RIGHT.wav	2	9	blb_dichoticlistening_da-ga.mp3	da	ga	1	left
6.6.1	win	2023-06-26	23:57:29	0	0	6413627f4adf0cc7eb330dfc	1	1	DL_test	16	DL_test	35			0		ta	1	1378	6	6	antiphase_hc_ois.wav	3	6	5	noise_calib_stim_RIGHT.wav	2	34	blb_dichoticlistening_ta-ka.mp3	ta	ka	1	left
6.6.1	win	2023-06-26	23:57:29	0	0	6413627f4adf0cc7eb330dfc	1	1	DL_test	16	DL_test	36			0		ta	1	1377	6	6	antiphase_hc_ois.wav	3	6	5	noise_calib_stim_RIGHT.wav	2	36	blb_dichoticlistening_ta-ta.mp3	ta	ta	0	left
6.6.1	win	2023-06-26	23:57:29	00:17:41	1208846	6413627f4adf0cc7eb330dfc	1	1	practice_slash	22	practice_slash	1	stimuli_distractor_diamondtriangles.svg	stimuli_target_diamondrectangles.svg	8	yes	53	1	869	6	6	antiphase_hc_ois.wav	3	6	5	noise_calib_stim_RIGHT.wav	2	36	blb_dichoticlistening_ta-ta.mp3	ta	ta	0	left
6.6.1	win	2023-06-26	23:57:29	00:17:41	1208846	6413627f4adf0cc7eb330dfc	1	1	practice_slash	22	advance_on_keypress_SLASH	2	stimuli_distractor_diamondtriangles.svg	stimuli_target_diamondrectangles.svg	8	yes	57	0	897	6	6	antiphase_hc_ois.wav	3	6	5	noise_calib_stim_RIGHT.wav	2	36	blb_dichoticlistening_ta-ta.mp3	ta	ta	0	left
6.6.1	win	2023-06-26	23:57:29	00:17:45	1212318	6413627f4adf0cc7eb330dfc	1	1	practice_slash	22	practice_slash	3	stimuli_target_rectanglediamonds.svg	stimuli_distractor_diamondtriangles.svg	1	yes	53	1	933	6	6	antiphase_hc_ois.wav	3	6	5	noise_calib_stim_RIGHT.wav	2	36	blb_dichoticlistening_ta-ta.mp3	ta	ta	0	left
6.6.1	win	2023-06-26	23:57:29	00:17:45	1212318	6413627f4adf0cc7eb330dfc	1	1	practice_slash	22	advance_on_keypress_SLASH	4	stimuli_target_rectanglediamonds.svg	stimuli_distractor_diamondtriangles.svg	1	yes	57	0	1101	6	6	antiphase_hc_ois.wav	3	6	5	noise_calib_stim_RIGHT.wav	2	36	blb_dichoticlistening_ta-ta.mp3	ta	ta	0	left
6.6.1	win	2023-06-26	23:57:29	00:17:49	1216398	6413627f4adf0cc7eb330dfc	1	1	practice_slash	22	practice_slash	5	stimuli_target_diamondsquares.svg	stimuli_distractor_trianglediamonds.svg	6	yes	53	1	1325	6	6	antiphase_hc_ois.wav	3	6	5	noise_calib_stim_RIGHT.wav	2	36	blb_dichoticlistening_ta-ta.mp3	ta	ta	0	left
6.6.1	win	2023-06-26	23:57:29	00:17:49	1216398	6413627f4adf0cc7eb330dfc	1	1	practice_slash	22	advance_on_keypress_SLASH	6	stimuli_target_diamondsquares.svg	stimuli_distractor_trianglediamonds.svg	6	yes	57	0	781	6	6	antiphase_hc_ois.wav	3	6	5	noise_calib_stim_RIGHT.wav	2	36	blb_dichoticlistening_ta-ta.mp3	ta	ta	0	left
6.6.1	win	2023-06-26	23:57:29	00:17:52	1219813	6413627f4adf0cc7eb330dfc	1	1	practice_slash	22	practice_slash	7	stimuli_target_squarediamonds.svg	stimuli_distractor_diamondtriangles.svg	2	yes	53	1	986	6	6	antiphase_hc_ois.wav	3	6	5	noise_calib_stim_RIGHT.wav	2	36	blb_dichoticlistening_ta-ta.mp3	ta	ta	0	left
6.6.1	win	2023-06-26	23:57:29	00:17:52	1219813	6413627f4adf0cc7eb330dfc	1	1	practice_slash	22	advance_on_keypress_SLASH	8	stimuli_target_squarediamonds.svg	stimuli_distractor_diamondtriangles.svg	2	yes	57	0	696	6	6	antiphase_hc_ois.wav	3	6	5	noise_calib_stim_RIGHT.wav	2	36	blb_dichoticlistening_ta-ta.mp3	ta	ta	0	left
6.6.1	win	2023-06-26	23:57:29	00:17:57	1224160	6413627f4adf0cc7eb330dfc	1	1	practice_slash	22	practice_slash	9	stimuli_distractor_diamondtriangles.svg	stimuli_distractor_diamondtriangles.svg	13	no	0	1	2000	6	6	antiphase_hc_ois.wav	3	6	5	noise_calib_stim_RIGHT.wav	2	36	blb_dichoticlistening_ta-ta.mp3	ta	ta	0	left
6.6.1	win	2023-06-26	23:57:29	00:17:57	1224160	6413627f4adf0cc7eb330dfc	1	1	practice_slash	22	advance_on_keypress_SLASH	10	stimuli_distractor_diamondtriangles.svg	stimuli_distractor_diamondtriangles.svg	13	no	57	0	882	6	6	antiphase_hc_ois.wav	3	6	5	noise_calib_stim_RIGHT.wav	2	36	blb_dichoticlistening_ta-ta.mp3	ta	ta	0	left
6.6.1	win	2023-06-26	23:57:29	00:18:01	1228199	6413627f4adf0cc7eb330dfc	1	1	practice_slash	22	practice_slash	11	stimuli_distractor_trianglediamonds.svg	stimuli_target_diamondrectangles.svg	12	yes	53	1	1521	6	6	antiphase_hc_ois.wav	3	6	5	noise_calib_stim_RIGHT.wav	2	36	blb_dichoticlistening_ta-ta.mp3	ta	ta	0	left
6.6.1	win	2023-06-26	23:57:29	00:18:01	1228199	6413627f4adf0cc7eb330dfc	1	1	practice_slash	22	advance_on_keypress_SLASH	12	stimuli_distractor_trianglediamonds.svg	stimuli_target_diamondrectangles.svg	12	yes	57	0	710	6	6	antiphase_hc_ois.wav	3	6	5	noise_calib_stim_RIGHT.wav	2	36	blb_dichoticlistening_ta-ta.mp3	ta	ta	0	left
6.6.1	win	2023-06-26	23:57:29	00:18:04	1231998	6413627f4adf0cc7eb330dfc	1	1	practice_slash	22	practice_slash	13	stimuli_distractor_trianglediamonds.svg	stimuli_target_rectanglediamonds.svg	10	yes	53	1	1448	6	6	antiphase_hc_ois.wav	3	6	5	noise_calib_stim_RIGHT.wav	2	36	blb_dichoticlistening_ta-ta.mp3	ta	ta	0	left
6.6.1	win	2023-06-26	23:57:29	00:18:04	1231998	6413627f4adf0cc7eb330dfc	1	1	practice_slash	22	advance_on_keypress_SLASH	14	stimuli_distractor_trianglediamonds.svg	stimuli_target_rectanglediamonds.svg	10	yes	57	0	816	6	6	antiphase_hc_ois.wav	3	6	5	noise_calib_stim_RIGHT.wav	2	36	blb_dichoticlistening_ta-ta.mp3	ta	ta	0	left
6.6.1	win	2023-06-26	23:57:29	00:18:08	1235542	6413627f4adf0cc7eb330dfc	1	1	practice_slash	22	practice_slash	15	stimuli_target_rectanglediamonds.svg	stimuli_distractor_trianglediamonds.svg	4	yes	53	1	1084	6	6	antiphase_hc_ois.wav	3	6	5	noise_calib_stim_RIGHT.wav	2	36	blb_dichoticlistening_ta-ta.mp3	ta	ta	0	left
6.6.1	win	2023-06-26	23:57:29	00:18:08	1235542	6413627f4adf0cc7eb330dfc	1	1	practice_slash	22	advance_on_keypress_SLASH	16	stimuli_target_rectanglediamonds.svg	stimuli_distractor_trianglediamonds.svg	4	yes	57	0	664	6	6	antiphase_hc_ois.wav	3	6	5	noise_calib_stim_RIGHT.wav	2	36	blb_dichoticlistening_ta-ta.mp3	ta	ta	0	left
6.6.1	win	2023-06-26	23:57:29	00:18:12	1239844	6413627f4adf0cc7eb330dfc	1	1	practice_slash	22	practice_slash	17	stimuli_distractor_trianglediamonds.svg	stimuli_distractor_trianglediamonds.svg	15	no	0	1	2000	6	6	antiphase_hc_ois.wav	3	6	5	noise_calib_stim_RIGHT.wav	2	36	blb_dichoticlistening_ta-ta.mp3	ta	ta	0	left
6.6.1	win	2023-06-26	23:57:29	00:18:12	1239844	6413627f4adf0cc7eb330dfc	1	1	practice_slash	22	advance_on_keypress_SLASH	18	stimuli_distractor_trianglediamonds.svg	stimuli_distractor_trianglediamonds.svg	15	no	57	0	432	6	6	antiphase_hc_ois.wav	3	6	5	noise_calib_stim_RIGHT.wav	2	36	blb_dichoticlistening_ta-ta.mp3	ta	ta	0	left
6.6.1	win	2023-06-26	23:57:29	00:18:15	1243022	6413627f4adf0cc7eb330dfc	1	1	practice_slash	22	practice_slash	19	stimuli_distractor_trianglediamonds.svg	stimuli_distractor_diamondtriangles.svg	16	no	53	0	1107	6	6	antiphase_hc_ois.wav	3	6	5	noise_calib_stim_RIGHT.wav	2	36	blb_dichoticlistening_ta-ta.mp3	ta	ta	0	left
6.6.1	win	2023-06-26	23:57:29	00:18:15	1243022	6413627f4adf0cc7eb330dfc	1	1	practice_slash	22	advance_on_keypress_SLASH	20	stimuli_distractor_trianglediamonds.svg	stimuli_distractor_diamondtriangles.svg	16	no	57	0	540	6	6	antiphase_hc_ois.wav	3	6	5	noise_calib_stim_RIGHT.wav	2	36	blb_dichoticlistening_ta-ta.mp3	ta	ta	0	left
6.6.1	win	2023-06-26	23:57:29	00:18:20	1247202	6413627f4adf0cc7eb330dfc	1	1	practice_slash	22	practice_slash	21	stimuli_distractor_diamondtriangles.svg	stimuli_distractor_trianglediamonds.svg	14	no	0	1	2000	6	6	antiphase_hc_ois.wav	3	6	5	noise_calib_stim_RIGHT.wav	2	36	blb_dichoticlistening_ta-ta.mp3	ta	ta	0	left
6.6.1	win	2023-06-26	23:57:29	00:18:20	1247202	6413627f4adf0cc7eb330dfc	1	1	practice_slash	22	advance_on_keypress_SLASH	22	stimuli_distractor_diamondtriangles.svg	stimuli_distractor_trianglediamonds.svg	14	no	57	0	578	6	6	antiphase_hc_ois.wav	3	6	5	noise_calib_stim_RIGHT.wav	2	36	blb_dichoticlistening_ta-ta.mp3	ta	ta	0	left
6.6.1	win	2023-06-26	23:57:29	00:18:23	1250246	6413627f4adf0cc7eb330dfc	1	1	practice_slash	22	practice_slash	23	stimuli_distractor_diamondtriangles.svg	stimuli_target_rectangletriangles.svg	7	yes	53	1	813	6	6	antiphase_hc_ois.wav	3	6	5	noise_calib_stim_RIGHT.wav	2	36	blb_dichoticlistening_ta-ta.mp3	ta	ta	0	left
6.6.1	win	2023-06-26	23:57:29	00:18:23	1250246	6413627f4adf0cc7eb330dfc	1	1	practice_slash	22	advance_on_keypress_SLASH	24	stimuli_distractor_diamondtriangles.svg	stimuli_target_rectangletriangles.svg	7	yes	57	0	790	6	6	antiphase_hc_ois.wav	3	6	5	noise_calib_stim_RIGHT.wav	2	36	blb_dichoticlistening_ta-ta.mp3	ta	ta	0	left
6.6.1	win	2023-06-26	23:57:29	00:18:26	1253926	6413627f4adf0cc7eb330dfc	1	1	practice_slash	22	practice_slash	25	stimuli_distractor_diamondtriangles.svg	stimuli_target_trianglerectangles.svg	9	yes	53	1	1243	6	6	antiphase_hc_ois.wav	3	6	5	noise_calib_stim_RIGHT.wav	2	36	blb_dichoticlistening_ta-ta.mp3	ta	ta	0	left
6.6.1	win	2023-06-26	23:57:29	00:18:26	1253926	6413627f4adf0cc7eb330dfc	1	1	practice_slash	22	advance_on_keypress_SLASH	26	stimuli_distractor_diamondtriangles.svg	stimuli_target_trianglerectangles.svg	9	yes	57	0	1134	6	6	antiphase_hc_ois.wav	3	6	5	noise_calib_stim_RIGHT.wav	2	36	blb_dichoticlistening_ta-ta.mp3	ta	ta	0	left
6.6.1	win	2023-06-26	23:57:29	00:18:30	1257566	6413627f4adf0cc7eb330dfc	1	1	practice_slash	22	practice_slash	27	stimuli_target_squarediamonds.svg	stimuli_distractor_trianglediamonds.svg	5	yes	53	1	863	6	6	antiphase_hc_ois.wav	3	6	5	noise_calib_stim_RIGHT.wav	2	36	blb_dichoticlistening_ta-ta.mp3	ta	ta	0	left
6.6.1	win	2023-06-26	23:57:29	00:18:30	1257566	6413627f4adf0cc7eb330dfc	1	1	practice_slash	22	advance_on_keypress_SLASH	28	stimuli_target_squarediamonds.svg	stimuli_distractor_trianglediamonds.svg	5	yes	57	0	646	6	6	antiphase_hc_ois.wav	3	6	5	noise_calib_stim_RIGHT.wav	2	36	blb_dichoticlistening_ta-ta.mp3	ta	ta	0	left
6.6.1	win	2023-06-26	23:57:29	00:18:33	1260742	6413627f4adf0cc7eb330dfc	1	1	practice_slash	22	practice_slash	29	stimuli_target_diamondsquares.svg	stimuli_distractor_diamondtriangles.svg	3	yes	53	1	884	6	6	antiphase_hc_ois.wav	3	6	5	noise_calib_stim_RIGHT.wav	2	36	blb_dichoticlistening_ta-ta.mp3	ta	ta	0	left
6.6.1	win	2023-06-26	23:57:29	00:18:33	1260742	6413627f4adf0cc7eb330dfc	1	1	practice_slash	22	advance_on_keypress_SLASH	30	stimuli_target_diamondsquares.svg	stimuli_distractor_diamondtriangles.svg	3	yes	57	0	638	6	6	antiphase_hc_ois.wav	3	6	5	noise_calib_stim_RIGHT.wav	2	36	blb_dichoticlistening_ta-ta.mp3	ta	ta	0	left
6.6.1	win	2023-06-26	23:57:29	00:18:36	1263998	6413627f4adf0cc7eb330dfc	1	1	practice_slash	22	practice_slash	31	stimuli_distractor_trianglediamonds.svg	stimuli_target_squarediamonds.svg	11	yes	53	1	964	6	6	antiphase_hc_ois.wav	3	6	5	noise_calib_stim_RIGHT.wav	2	36	blb_dichoticlistening_ta-ta.mp3	ta	ta	0	left
6.6.1	win	2023-06-26	23:57:29	00:18:36	1263998	6413627f4adf0cc7eb330dfc	1	1	practice_slash	22	advance_on_keypress_SLASH	32	stimuli_distractor_trianglediamonds.svg	stimuli_target_squarediamonds.svg	11	yes	57	0	1864	6	6	antiphase_hc_ois.wav	3	6	5	noise_calib_stim_RIGHT.wav	2	36	blb_dichoticlistening_ta-ta.mp3	ta	ta	0	left
6.6.1	win	2023-06-26	23:57:29	00:18:49	1276862	6413627f4adf0cc7eb330dfc	1	1	main_slash	24	main_slash	1	stimuli_target_diamondrectangles.svg	stimuli_distractor_trianglediamonds.svg	19	yes	53	1	872	6	6	antiphase_hc_ois.wav	3	6	5	noise_calib_stim_RIGHT.wav	2	36	blb_dichoticlistening_ta-ta.mp3	ta	ta	0	left
6.6.1	win	2023-06-26	23:57:29	00:18:49	1276862	6413627f4adf0cc7eb330dfc	1	1	main_slash	24	advance_on_keypress_SLASH	2	stimuli_target_diamondrectangles.svg	stimuli_distractor_trianglediamonds.svg	19	yes	57	0	686	6	6	antiphase_hc_ois.wav	3	6	5	noise_calib_stim_RIGHT.wav	2	36	blb_dichoticlistening_ta-ta.mp3	ta	ta	0	left
6.6.1	win	2023-06-26	23:57:29	00:18:51	1279110	6413627f4adf0cc7eb330dfc	1	1	main_slash	24	main_slash	3	stimuli_distractor_diamondtriangles.svg	stimuli_target_rectangletriangles.svg	13	yes	53	1	918	6	6	antiphase_hc_ois.wav	3	6	5	noise_calib_stim_RIGHT.wav	2	36	blb_dichoticlistening_ta-ta.mp3	ta	ta	0	left
6.6.1	win	2023-06-26	23:57:29	00:18:51	1279110	6413627f4adf0cc7eb330dfc	1	1	main_slash	24	advance_on_keypress_SLASH	4	stimuli_distractor_diamondtriangles.svg	stimuli_target_rectangletriangles.svg	13	yes	57	0	717	6	6	antiphase_hc_ois.wav	3	6	5	noise_calib_stim_RIGHT.wav	2	36	blb_dichoticlistening_ta-ta.mp3	ta	ta	0	left
6.6.1	win	2023-06-26	23:57:29	00:18:54	1281398	6413627f4adf0cc7eb330dfc	1	1	main_slash	24	main_slash	5	stimuli_distractor_trianglediamonds.svg	stimuli_target_diamondsquares.svg	28	yes	53	1	934	6	6	antiphase_hc_ois.wav	3	6	5	noise_calib_stim_RIGHT.wav	2	36	blb_dichoticlistening_ta-ta.mp3	ta	ta	0	left
6.6.1	win	2023-06-26	23:57:29	00:18:54	1281398	6413627f4adf0cc7eb330dfc	1	1	main_slash	24	advance_on_keypress_SLASH	6	stimuli_distractor_trianglediamonds.svg	stimuli_target_diamondsquares.svg	28	yes	57	0	790	6	6	antiphase_hc_ois.wav	3	6	5	noise_calib_stim_RIGHT.wav	2	36	blb_dichoticlistening_ta-ta.mp3	ta	ta	0	left
6.6.1	win	2023-06-26	23:57:29	00:18:57	1284302	6413627f4adf0cc7eb330dfc	1	1	main_slash	24	main_slash	7	stimuli_distractor_diamondtriangles.svg	stimuli_target_rectanglediamonds.svg	14	yes	53	1	1461	6	6	antiphase_hc_ois.wav	3	6	5	noise_calib_stim_RIGHT.wav	2	36	blb_dichoticlistening_ta-ta.mp3	ta	ta	0	left
6.6.1	win	2023-06-26	23:57:29	00:18:57	1284302	6413627f4adf0cc7eb330dfc	1	1	main_slash	24	advance_on_keypress_SLASH	8	stimuli_distractor_diamondtriangles.svg	stimuli_target_rectanglediamonds.svg	14	yes	57	0	705	6	6	antiphase_hc_ois.wav	3	6	5	noise_calib_stim_RIGHT.wav	2	36	blb_dichoticlistening_ta-ta.mp3	ta	ta	0	left
6.6.1	win	2023-06-26	23:57:29	00:18:59	1286494	6413627f4adf0cc7eb330dfc	1	1	main_slash	24	main_slash	9	stimuli_distractor_diamondtriangles.svg	stimuli_target_squarediamonds.svg	16	yes	53	1	846	6	6	antiphase_hc_ois.wav	3	6	5	noise_calib_stim_RIGHT.wav	2	36	blb_dichoticlistening_ta-ta.mp3	ta	ta	0	left
6.6.1	win	2023-06-26	23:57:29	00:18:59	1286494	6413627f4adf0cc7eb330dfc	1	1	main_slash	24	advance_on_keypress_SLASH	10	stimuli_distractor_diamondtriangles.svg	stimuli_target_squarediamonds.svg	16	yes	57	0	878	6	6	antiphase_hc_ois.wav	3	6	5	noise_calib_stim_RIGHT.wav	2	36	blb_dichoticlistening_ta-ta.mp3	ta	ta	0	left
6.6.1	win	2023-06-26	23:57:29	00:19:02	1290012	6413627f4adf0cc7eb330dfc	1	1	main_slash	24	main_slash	11	stimuli_target_trianglerectangles.svg	stimuli_distractor_diamondtriangles.svg	21	yes	0	0	2000	6	6	antiphase_hc_ois.wav	3	6	5	noise_calib_stim_RIGHT.wav	2	36	blb_dichoticlistening_ta-ta.mp3	ta	ta	0	left
6.6.1	win	2023-06-26	23:57:29	00:19:02	1290012	6413627f4adf0cc7eb330dfc	1	1	main_slash	24	advance_on_keypress_SLASH	12	stimuli_target_trianglerectangles.svg	stimuli_distractor_diamondtriangles.svg	21	yes	57	0	480	6	6	antiphase_hc_ois.wav	3	6	5	noise_calib_stim_RIGHT.wav	2	36	blb_dichoticlistening_ta-ta.mp3	ta	ta	0	left
6.6.1	win	2023-06-26	23:57:29	00:19:05	1292382	6413627f4adf0cc7eb330dfc	1	1	main_slash	24	main_slash	13	stimuli_distractor_trianglediamonds.svg	stimuli_distractor_diamondtriangles.svg	36	no	53	0	1237	6	6	antiphase_hc_ois.wav	3	6	5	noise_calib_stim_RIGHT.wav	2	36	blb_dichoticlistening_ta-ta.mp3	ta	ta	0	left
6.6.1	win	2023-06-26	23:57:29	00:19:05	1292382	6413627f4adf0cc7eb330dfc	1	1	main_slash	24	advance_on_keypress_SLASH	14	stimuli_distractor_trianglediamonds.svg	stimuli_distractor_diamondtriangles.svg	36	no	57	0	717	6	6	antiphase_hc_ois.wav	3	6	5	noise_calib_stim_RIGHT.wav	2	36	blb_dichoticlistening_ta-ta.mp3	ta	ta	0	left
6.6.1	win	2023-06-26	23:57:29	00:19:07	1294654	6413627f4adf0cc7eb330dfc	1	1	main_slash	24	main_slash	15	stimuli_distractor_trianglediamonds.svg	stimuli_distractor_trianglediamonds.svg	34	no	53	0	918	6	6	antiphase_hc_ois.wav	3	6	5	noise_calib_stim_RIGHT.wav	2	36	blb_dichoticlistening_ta-ta.mp3	ta	ta	0	left
6.6.1	win	2023-06-26	23:57:29	00:19:07	1294654	6413627f4adf0cc7eb330dfc	1	1	main_slash	24	advance_on_keypress_SLASH	16	stimuli_distractor_trianglediamonds.svg	stimuli_distractor_trianglediamonds.svg	34	no	57	0	590	6	6	antiphase_hc_ois.wav	3	6	5	noise_calib_stim_RIGHT.wav	2	36	blb_dichoticlistening_ta-ta.mp3	ta	ta	0	left
6.6.1	win	2023-06-26	23:57:29	00:19:10	1297870	6413627f4adf0cc7eb330dfc	1	1	main_slash	24	main_slash	17	stimuli_distractor_diamondtriangles.svg	stimuli_distractor_trianglediamonds.svg	37	no	0	1	2000	6	6	antiphase_hc_ois.wav	3	6	5	noise_calib_stim_RIGHT.wav	2	36	blb_dichoticlistening_ta-ta.mp3	ta	ta	0	left
6.6.1	win	2023-06-26	23:57:29	00:19:10	1297870	6413627f4adf0cc7eb330dfc	1	1	main_slash	24	advance_on_keypress_SLASH	18	stimuli_distractor_diamondtriangles.svg	stimuli_distractor_trianglediamonds.svg	37	no	57	0	1157	6	6	antiphase_hc_ois.wav	3	6	5	noise_calib_stim_RIGHT.wav	2	36	blb_dichoticlistening_ta-ta.mp3	ta	ta	0	left
6.6.1	win	2023-06-26	23:57:29	00:19:13	1301078	6413627f4adf0cc7eb330dfc	1	1	main_slash	24	main_slash	19	stimuli_distractor_trianglediamonds.svg	stimuli_target_squarediamonds.svg	12	yes	53	1	1399	6	6	antiphase_hc_ois.wav	3	6	5	noise_calib_stim_RIGHT.wav	2	36	blb_dichoticlistening_ta-ta.mp3	ta	ta	0	left
6.6.1	win	2023-06-26	23:57:29	00:19:13	1301078	6413627f4adf0cc7eb330dfc	1	1	main_slash	24	advance_on_keypress_SLASH	20	stimuli_distractor_trianglediamonds.svg	stimuli_target_squarediamonds.svg	12	yes	57	0	2241	6	6	antiphase_hc_ois.wav	3	6	5	noise_calib_stim_RIGHT.wav	2	36	blb_dichoticlistening_ta-ta.mp3	ta	ta	0	left
6.6.1	win	2023-06-26	23:57:29	00:19:18	1305382	6413627f4adf0cc7eb330dfc	1	1	main_slash	24	main_slash	21	stimuli_target_rectanglediamonds.svg	stimuli_distractor_trianglediamonds.svg	2	yes	53	1	1416	6	6	antiphase_hc_ois.wav	3	6	5	noise_calib_stim_RIGHT.wav	2	36	blb_dichoticlistening_ta-ta.mp3	ta	ta	0	left
6.6.1	win	2023-06-26	23:57:29	00:19:18	1305382	6413627f4adf0cc7eb330dfc	1	1	main_slash	24	advance_on_keypress_SLASH	22	stimuli_target_rectanglediamonds.svg	stimuli_distractor_trianglediamonds.svg	2	yes	57	0	661	6	6	antiphase_hc_ois.wav	3	6	5	noise_calib_stim_RIGHT.wav	2	36	blb_dichoticlistening_ta-ta.mp3	ta	ta	0	left
6.6.1	win	2023-06-26	23:57:29	00:19:20	1307438	6413627f4adf0cc7eb330dfc	1	1	main_slash	24	main_slash	23	stimuli_distractor_trianglediamonds.svg	stimuli_target_rectangletriangles.svg	9	yes	53	1	742	6	6	antiphase_hc_ois.wav	3	6	5	noise_calib_stim_RIGHT.wav	2	36	blb_dichoticlistening_ta-ta.mp3	ta	ta	0	left
6.6.1	win	2023-06-26	23:57:29	00:19:20	1307438	6413627f4adf0cc7eb330dfc	1	1	main_slash	24	advance_on_keypress_SLASH	24	stimuli_distractor_trianglediamonds.svg	stimuli_target_rectangletriangles.svg	9	yes	57	0	964	6	6	antiphase_hc_ois.wav	3	6	5	noise_calib_stim_RIGHT.wav	2	36	blb_dichoticlistening_ta-ta.mp3	ta	ta	0	left
6.6.1	win	2023-06-26	23:57:29	00:19:22	1309886	6413627f4adf0cc7eb330dfc	1	1	main_slash	24	main_slash	25	stimuli_distractor_diamondtriangles.svg	stimuli_target_diamondsquares.svg	32	yes	53	1	837	6	6	antiphase_hc_ois.wav	3	6	5	noise_calib_stim_RIGHT.wav	2	36	blb_dichoticlistening_ta-ta.mp3	ta	ta	0	left
6.6.1	win	2023-06-26	23:57:29	00:19:22	1309886	6413627f4adf0cc7eb330dfc	1	1	main_slash	24	advance_on_keypress_SLASH	26	stimuli_distractor_diamondtriangles.svg	stimuli_target_diamondsquares.svg	32	yes	57	0	686	6	6	antiphase_hc_ois.wav	3	6	5	noise_calib_stim_RIGHT.wav	2	36	blb_dichoticlistening_ta-ta.mp3	ta	ta	0	left
6.6.1	win	2023-06-26	23:57:29	00:19:24	1312086	6413627f4adf0cc7eb330dfc	1	1	main_slash	24	main_slash	27	stimuli_target_rectangletriangles.svg	stimuli_distractor_diamondtriangles.svg	5	yes	53	1	876	6	6	antiphase_hc_ois.wav	3	6	5	noise_calib_stim_RIGHT.wav	2	36	blb_dichoticlistening_ta-ta.mp3	ta	ta	0	left
6.6.1	win	2023-06-26	23:57:29	00:19:24	1312086	6413627f4adf0cc7eb330dfc	1	1	main_slash	24	advance_on_keypress_SLASH	28	stimuli_target_rectangletriangles.svg	stimuli_distractor_diamondtriangles.svg	5	yes	57	0	574	6	6	antiphase_hc_ois.wav	3	6	5	noise_calib_stim_RIGHT.wav	2	36	blb_dichoticlistening_ta-ta.mp3	ta	ta	0	left
6.6.1	win	2023-06-26	23:57:29	00:19:28	1315313	6413627f4adf0cc7eb330dfc	1	1	main_slash	24	main_slash	29	stimuli_distractor_diamondtriangles.svg	stimuli_target_squaretriangles.svg	15	yes	0	0	2000	6	6	antiphase_hc_ois.wav	3	6	5	noise_calib_stim_RIGHT.wav	2	36	blb_dichoticlistening_ta-ta.mp3	ta	ta	0	left
6.6.1	win	2023-06-26	23:57:29	00:19:28	1315313	6413627f4adf0cc7eb330dfc	1	1	main_slash	24	advance_on_keypress_SLASH	30	stimuli_distractor_diamondtriangles.svg	stimuli_target_squaretriangles.svg	15	yes	57	0	333	6	6	antiphase_hc_ois.wav	3	6	5	noise_calib_stim_RIGHT.wav	2	36	blb_dichoticlistening_ta-ta.mp3	ta	ta	0	left
6.6.1	win	2023-06-26	23:57:29	00:19:29	1317078	6413627f4adf0cc7eb330dfc	1	1	main_slash	24	main_slash	31	stimuli_target_trianglesquares.svg	stimuli_distractor_diamondtriangles.svg	22	yes	53	1	791	6	6	antiphase_hc_ois.wav	3	6	5	noise_calib_stim_RIGHT.wav	2	36	blb_dichoticlistening_ta-ta.mp3	ta	ta	0	left
6.6.1	win	2023-06-26	23:57:29	00:19:29	1317078	6413627f4adf0cc7eb330dfc	1	1	main_slash	24	advance_on_keypress_SLASH	32	stimuli_target_trianglesquares.svg	stimuli_distractor_diamondtriangles.svg	22	yes	57	0	581	6	6	antiphase_hc_ois.wav	3	6	5	noise_calib_stim_RIGHT.wav	2	36	blb_dichoticlistening_ta-ta.mp3	ta	ta	0	left
6.6.1	win	2023-06-26	23:57:29	00:19:32	1319182	6413627f4adf0cc7eb330dfc	1	1	main_slash	24	main_slash	33	stimuli_distractor_diamondtriangles.svg	stimuli_distractor_trianglediamonds.svg	38	no	53	0	900	6	6	antiphase_hc_ois.wav	3	6	5	noise_calib_stim_RIGHT.wav	2	36	blb_dichoticlistening_ta-ta.mp3	ta	ta	0	left
6.6.1	win	2023-06-26	23:57:29	00:19:32	1319182	6413627f4adf0cc7eb330dfc	1	1	main_slash	24	advance_on_keypress_SLASH	34	stimuli_distractor_diamondtriangles.svg	stimuli_distractor_trianglediamonds.svg	38	no	57	0	537	6	6	antiphase_hc_ois.wav	3	6	5	noise_calib_stim_RIGHT.wav	2	36	blb_dichoticlistening_ta-ta.mp3	ta	ta	0	left
6.6.1	win	2023-06-26	23:57:29	00:19:34	1321406	6413627f4adf0cc7eb330dfc	1	1	main_slash	24	main_slash	35	stimuli_target_trianglesquares.svg	stimuli_distractor_trianglediamonds.svg	18	yes	53	1	1060	6	6	antiphase_hc_ois.wav	3	6	5	noise_calib_stim_RIGHT.wav	2	36	blb_dichoticlistening_ta-ta.mp3	ta	ta	0	left
6.6.1	win	2023-06-26	23:57:29	00:19:34	1321406	6413627f4adf0cc7eb330dfc	1	1	main_slash	24	advance_on_keypress_SLASH	36	stimuli_target_trianglesquares.svg	stimuli_distractor_trianglediamonds.svg	18	yes	57	0	550	6	6	antiphase_hc_ois.wav	3	6	5	noise_calib_stim_RIGHT.wav	2	36	blb_dichoticlistening_ta-ta.mp3	ta	ta	0	left
6.6.1	win	2023-06-26	23:57:29	00:19:35	1323134	6413627f4adf0cc7eb330dfc	1	1	main_slash	24	main_slash	37	stimuli_target_diamondsquares.svg	stimuli_distractor_trianglediamonds.svg	20	yes	53	1	525	6	6	antiphase_hc_ois.wav	3	6	5	noise_calib_stim_RIGHT.wav	2	36	blb_dichoticlistening_ta-ta.mp3	ta	ta	0	left
6.6.1	win	2023-06-26	23:57:29	00:19:35	1323134	6413627f4adf0cc7eb330dfc	1	1	main_slash	24	advance_on_keypress_SLASH	38	stimuli_target_diamondsquares.svg	stimuli_distractor_trianglediamonds.svg	20	yes	57	0	605	6	6	antiphase_hc_ois.wav	3	6	5	noise_calib_stim_RIGHT.wav	2	36	blb_dichoticlistening_ta-ta.mp3	ta	ta	0	left
6.6.1	win	2023-06-26	23:57:29	00:19:37	1324942	6413627f4adf0cc7eb330dfc	1	1	main_slash	24	main_slash	39	stimuli_target_trianglerectangles.svg	stimuli_distractor_trianglediamonds.svg	17	yes	53	1	573	6	6	antiphase_hc_ois.wav	3	6	5	noise_calib_stim_RIGHT.wav	2	36	blb_dichoticlistening_ta-ta.mp3	ta	ta	0	left
6.6.1	win	2023-06-26	23:57:29	00:19:37	1324942	6413627f4adf0cc7eb330dfc	1	1	main_slash	24	advance_on_keypress_SLASH	40	stimuli_target_trianglerectangles.svg	stimuli_distractor_trianglediamonds.svg	17	yes	57	0	869	6	6	antiphase_hc_ois.wav	3	6	5	noise_calib_stim_RIGHT.wav	2	36	blb_dichoticlistening_ta-ta.mp3	ta	ta	0	left
6.6.1	win	2023-06-26	23:57:29	00:19:41	1328449	6413627f4adf0cc7eb330dfc	1	1	main_slash	24	main_slash	41	stimuli_distractor_diamondtriangles.svg	stimuli_distractor_diamondtriangles.svg	40	no	0	1	2000	6	6	antiphase_hc_ois.wav	3	6	5	noise_calib_stim_RIGHT.wav	2	36	blb_dichoticlistening_ta-ta.mp3	ta	ta	0	left
6.6.1	win	2023-06-26	23:57:29	00:19:41	1328449	6413627f4adf0cc7eb330dfc	1	1	main_slash	24	advance_on_keypress_SLASH	42	stimuli_distractor_diamondtriangles.svg	stimuli_distractor_diamondtriangles.svg	40	no	57	0	402	6	6	antiphase_hc_ois.wav	3	6	5	noise_calib_stim_RIGHT.wav	2	36	blb_dichoticlistening_ta-ta.mp3	ta	ta	0	left
6.6.1	win	2023-06-26	23:57:29	00:19:43	1330342	6413627f4adf0cc7eb330dfc	1	1	main_slash	24	main_slash	43	stimuli_distractor_trianglediamonds.svg	stimuli_target_trianglerectangles.svg	25	yes	53	1	838	6	6	antiphase_hc_ois.wav	3	6	5	noise_calib_stim_RIGHT.wav	2	36	blb_dichoticlistening_ta-ta.mp3	ta	ta	0	left
6.6.1	win	2023-06-26	23:57:29	00:19:43	1330342	6413627f4adf0cc7eb330dfc	1	1	main_slash	24	advance_on_keypress_SLASH	44	stimuli_distractor_trianglediamonds.svg	stimuli_target_trianglerectangles.svg	25	yes	57	0	758	6	6	antiphase_hc_ois.wav	3	6	5	noise_calib_stim_RIGHT.wav	2	36	blb_dichoticlistening_ta-ta.mp3	ta	ta	0	left
6.6.1	win	2023-06-26	23:57:29	00:19:45	1332526	6413627f4adf0cc7eb330dfc	1	1	main_slash	24	main_slash	45	stimuli_distractor_diamondtriangles.svg	stimuli_target_trianglesquares.svg	30	yes	53	1	786	6	6	antiphase_hc_ois.wav	3	6	5	noise_calib_stim_RIGHT.wav	2	36	blb_dichoticlistening_ta-ta.mp3	ta	ta	0	left
6.6.1	win	2023-06-26	23:57:29	00:19:45	1332526	6413627f4adf0cc7eb330dfc	1	1	main_slash	24	advance_on_keypress_SLASH	46	stimuli_distractor_diamondtriangles.svg	stimuli_target_trianglesquares.svg	30	yes	57	0	904	6	6	antiphase_hc_ois.wav	3	6	5	noise_calib_stim_RIGHT.wav	2	36	blb_dichoticlistening_ta-ta.mp3	ta	ta	0	left
6.6.1	win	2023-06-26	23:57:29	00:19:47	1334958	6413627f4adf0cc7eb330dfc	1	1	main_slash	24	main_slash	47	stimuli_target_rectangletriangles.svg	stimuli_distractor_trianglediamonds.svg	1	yes	53	1	890	6	6	antiphase_hc_ois.wav	3	6	5	noise_calib_stim_RIGHT.wav	2	36	blb_dichoticlistening_ta-ta.mp3	ta	ta	0	left
6.6.1	win	2023-06-26	23:57:29	00:19:47	1334958	6413627f4adf0cc7eb330dfc	1	1	main_slash	24	advance_on_keypress_SLASH	48	stimuli_target_rectangletriangles.svg	stimuli_distractor_trianglediamonds.svg	1	yes	57	0	870	6	6	antiphase_hc_ois.wav	3	6	5	noise_calib_stim_RIGHT.wav	2	36	blb_dichoticlistening_ta-ta.mp3	ta	ta	0	left
6.6.1	win	2023-06-26	23:57:29	00:19:50	1337198	6413627f4adf0cc7eb330dfc	1	1	main_slash	24	main_slash	49	stimuli_target_squarediamonds.svg	stimuli_distractor_diamondtriangles.svg	8	yes	53	1	717	6	6	antiphase_hc_ois.wav	3	6	5	noise_calib_stim_RIGHT.wav	2	36	blb_dichoticlistening_ta-ta.mp3	ta	ta	0	left
6.6.1	win	2023-06-26	23:57:29	00:19:50	1337198	6413627f4adf0cc7eb330dfc	1	1	main_slash	24	advance_on_keypress_SLASH	50	stimuli_target_squarediamonds.svg	stimuli_distractor_diamondtriangles.svg	8	yes	57	0	744	6	6	antiphase_hc_ois.wav	3	6	5	noise_calib_stim_RIGHT.wav	2	36	blb_dichoticlistening_ta-ta.mp3	ta	ta	0	left
6.6.1	win	2023-06-26	23:57:29	00:19:52	1339438	6413627f4adf0cc7eb330dfc	1	1	main_slash	24	main_slash	51	stimuli_distractor_trianglediamonds.svg	stimuli_target_rectanglediamonds.svg	10	yes	53	1	856	6	6	antiphase_hc_ois.wav	3	6	5	noise_calib_stim_RIGHT.wav	2	36	blb_dichoticlistening_ta-ta.mp3	ta	ta	0	left
6.6.1	win	2023-06-26	23:57:29	00:19:52	1339438	6413627f4adf0cc7eb330dfc	1	1	main_slash	24	advance_on_keypress_SLASH	52	stimuli_distractor_trianglediamonds.svg	stimuli_target_rectanglediamonds.svg	10	yes	57	0	770	6	6	antiphase_hc_ois.wav	3	6	5	noise_calib_stim_RIGHT.wav	2	36	blb_dichoticlistening_ta-ta.mp3	ta	ta	0	left
6.6.1	win	2023-06-26	23:57:29	00:19:54	1341606	6413627f4adf0cc7eb330dfc	1	1	main_slash	24	main_slash	53	stimuli_target_diamondsquares.svg	stimuli_distractor_diamondtriangles.svg	24	yes	53	1	750	6	6	antiphase_hc_ois.wav	3	6	5	noise_calib_stim_RIGHT.wav	2	36	blb_dichoticlistening_ta-ta.mp3	ta	ta	0	left
6.6.1	win	2023-06-26	23:57:29	00:19:54	1341606	6413627f4adf0cc7eb330dfc	1	1	main_slash	24	advance_on_keypress_SLASH	54	stimuli_target_diamondsquares.svg	stimuli_distractor_diamondtriangles.svg	24	yes	57	0	798	6	6	antiphase_hc_ois.wav	3	6	5	noise_calib_stim_RIGHT.wav	2	36	blb_dichoticlistening_ta-ta.mp3	ta	ta	0	left
6.6.1	win	2023-06-26	23:57:29	00:19:56	1343846	6413627f4adf0cc7eb330dfc	1	1	main_slash	24	main_slash	55	stimuli_distractor_diamondtriangles.svg	stimuli_distractor_diamondtriangles.svg	39	no	53	0	805	6	6	antiphase_hc_ois.wav	3	6	5	noise_calib_stim_RIGHT.wav	2	36	blb_dichoticlistening_ta-ta.mp3	ta	ta	0	left
6.6.1	win	2023-06-26	23:57:29	00:19:56	1343846	6413627f4adf0cc7eb330dfc	1	1	main_slash	24	advance_on_keypress_SLASH	56	stimuli_distractor_diamondtriangles.svg	stimuli_distractor_diamondtriangles.svg	39	no	57	0	517	6	6	antiphase_hc_ois.wav	3	6	5	noise_calib_stim_RIGHT.wav	2	36	blb_dichoticlistening_ta-ta.mp3	ta	ta	0	left
6.6.1	win	2023-06-26	23:57:29	00:19:58	1345695	6413627f4adf0cc7eb330dfc	1	1	main_slash	24	main_slash	57	stimuli_target_squarediamonds.svg	stimuli_distractor_trianglediamonds.svg	4	yes	53	1	693	6	6	antiphase_hc_ois.wav	3	6	5	noise_calib_stim_RIGHT.wav	2	36	blb_dichoticlistening_ta-ta.mp3	ta	ta	0	left
6.6.1	win	2023-06-26	23:57:29	00:19:58	1345695	6413627f4adf0cc7eb330dfc	1	1	main_slash	24	advance_on_keypress_SLASH	58	stimuli_target_squarediamonds.svg	stimuli_distractor_trianglediamonds.svg	4	yes	57	0	463	6	6	antiphase_hc_ois.wav	3	6	5	noise_calib_stim_RIGHT.wav	2	36	blb_dichoticlistening_ta-ta.mp3	ta	ta	0	left
6.6.1	win	2023-06-26	23:57:29	00:20:00	1347662	6413627f4adf0cc7eb330dfc	1	1	main_slash	24	main_slash	59	stimuli_distractor_trianglediamonds.svg	stimuli_target_diamondrectangles.svg	27	yes	53	1	859	6	6	antiphase_hc_ois.wav	3	6	5	noise_calib_stim_RIGHT.wav	2	36	blb_dichoticlistening_ta-ta.mp3	ta	ta	0	left
6.6.1	win	2023-06-26	23:57:29	00:20:00	1347662	6413627f4adf0cc7eb330dfc	1	1	main_slash	24	advance_on_keypress_SLASH	60	stimuli_distractor_trianglediamonds.svg	stimuli_target_diamondrectangles.svg	27	yes	57	0	606	6	6	antiphase_hc_ois.wav	3	6	5	noise_calib_stim_RIGHT.wav	2	36	blb_dichoticlistening_ta-ta.mp3	ta	ta	0	left
6.6.1	win	2023-06-26	23:57:29	00:20:02	1349598	6413627f4adf0cc7eb330dfc	1	1	main_slash	24	main_slash	61	stimuli_target_squaretriangles.svg	stimuli_distractor_trianglediamonds.svg	3	yes	53	1	678	6	6	antiphase_hc_ois.wav	3	6	5	noise_calib_stim_RIGHT.wav	2	36	blb_dichoticlistening_ta-ta.mp3	ta	ta	0	left
6.6.1	win	2023-06-26	23:57:29	00:20:02	1349598	6413627f4adf0cc7eb330dfc	1	1	main_slash	24	advance_on_keypress_SLASH	62	stimuli_target_squaretriangles.svg	stimuli_distractor_trianglediamonds.svg	3	yes	57	0	614	6	6	antiphase_hc_ois.wav	3	6	5	noise_calib_stim_RIGHT.wav	2	36	blb_dichoticlistening_ta-ta.mp3	ta	ta	0	left
6.6.1	win	2023-06-26	23:57:29	00:20:04	1351782	6413627f4adf0cc7eb330dfc	1	1	main_slash	24	main_slash	63	stimuli_distractor_diamondtriangles.svg	stimuli_target_trianglerectangles.svg	29	yes	53	1	917	6	6	antiphase_hc_ois.wav	3	6	5	noise_calib_stim_RIGHT.wav	2	36	blb_dichoticlistening_ta-ta.mp3	ta	ta	0	left
6.6.1	win	2023-06-26	23:57:29	00:20:04	1351782	6413627f4adf0cc7eb330dfc	1	1	main_slash	24	advance_on_keypress_SLASH	64	stimuli_distractor_diamondtriangles.svg	stimuli_target_trianglerectangles.svg	29	yes	57	0	555	6	6	antiphase_hc_ois.wav	3	6	5	noise_calib_stim_RIGHT.wav	2	36	blb_dichoticlistening_ta-ta.mp3	ta	ta	0	left
6.6.1	win	2023-06-26	23:57:29	00:20:06	1353678	6413627f4adf0cc7eb330dfc	1	1	main_slash	24	main_slash	65	stimuli_distractor_trianglediamonds.svg	stimuli_target_squaretriangles.svg	11	yes	53	1	695	6	6	antiphase_hc_ois.wav	3	6	5	noise_calib_stim_RIGHT.wav	2	36	blb_dichoticlistening_ta-ta.mp3	ta	ta	0	left
6.6.1	win	2023-06-26	23:57:29	00:20:06	1353678	6413627f4adf0cc7eb330dfc	1	1	main_slash	24	advance_on_keypress_SLASH	66	stimuli_distractor_trianglediamonds.svg	stimuli_target_squaretriangles.svg	11	yes	57	0	518	6	6	antiphase_hc_ois.wav	3	6	5	noise_calib_stim_RIGHT.wav	2	36	blb_dichoticlistening_ta-ta.mp3	ta	ta	0	left
6.6.1	win	2023-06-26	23:57:29	00:20:08	1355782	6413627f4adf0cc7eb330dfc	1	1	main_slash	24	main_slash	67	stimuli_distractor_trianglediamonds.svg	stimuli_distractor_diamondtriangles.svg	35	no	53	0	933	6	6	antiphase_hc_ois.wav	3	6	5	noise_calib_stim_RIGHT.wav	2	36	blb_dichoticlistening_ta-ta.mp3	ta	ta	0	left
6.6.1	win	2023-06-26	23:57:29	00:20:08	1355782	6413627f4adf0cc7eb330dfc	1	1	main_slash	24	advance_on_keypress_SLASH	68	stimuli_distractor_trianglediamonds.svg	stimuli_distractor_diamondtriangles.svg	35	no	57	0	579	6	6	antiphase_hc_ois.wav	3	6	5	noise_calib_stim_RIGHT.wav	2	36	blb_dichoticlistening_ta-ta.mp3	ta	ta	0	left
6.6.1	win	2023-06-26	23:57:29	00:20:10	1357902	6413627f4adf0cc7eb330dfc	1	1	main_slash	24	main_slash	69	stimuli_target_diamondrectangles.svg	stimuli_distractor_diamondtriangles.svg	23	yes	53	1	893	6	6	antiphase_hc_ois.wav	3	6	5	noise_calib_stim_RIGHT.wav	2	36	blb_dichoticlistening_ta-ta.mp3	ta	ta	0	left
6.6.1	win	2023-06-26	23:57:29	00:20:10	1357902	6413627f4adf0cc7eb330dfc	1	1	main_slash	24	advance_on_keypress_SLASH	70	stimuli_target_diamondrectangles.svg	stimuli_distractor_diamondtriangles.svg	23	yes	57	0	535	6	6	antiphase_hc_ois.wav	3	6	5	noise_calib_stim_RIGHT.wav	2	36	blb_dichoticlistening_ta-ta.mp3	ta	ta	0	left
6.6.1	win	2023-06-26	23:57:29	00:20:12	1359854	6413627f4adf0cc7eb330dfc	1	1	main_slash	24	main_slash	71	stimuli_distractor_trianglediamonds.svg	stimuli_target_trianglesquares.svg	26	yes	53	1	781	6	6	antiphase_hc_ois.wav	3	6	5	noise_calib_stim_RIGHT.wav	2	36	blb_dichoticlistening_ta-ta.mp3	ta	ta	0	left
6.6.1	win	2023-06-26	23:57:29	00:20:12	1359854	6413627f4adf0cc7eb330dfc	1	1	main_slash	24	advance_on_keypress_SLASH	72	stimuli_distractor_trianglediamonds.svg	stimuli_target_trianglesquares.svg	26	yes	57	0	486	6	6	antiphase_hc_ois.wav	3	6	5	noise_calib_stim_RIGHT.wav	2	36	blb_dichoticlistening_ta-ta.mp3	ta	ta	0	left
6.6.1	win	2023-06-26	23:57:29	00:20:14	1362046	6413627f4adf0cc7eb330dfc	1	1	main_slash	24	main_slash	73	stimuli_target_squaretriangles.svg	stimuli_distractor_diamondtriangles.svg	7	yes	53	1	1053	6	6	antiphase_hc_ois.wav	3	6	5	noise_calib_stim_RIGHT.wav	2	36	blb_dichoticlistening_ta-ta.mp3	ta	ta	0	left
6.6.1	win	2023-06-26	23:57:29	00:20:14	1362046	6413627f4adf0cc7eb330dfc	1	1	main_slash	24	advance_on_keypress_SLASH	74	stimuli_target_squaretriangles.svg	stimuli_distractor_diamondtriangles.svg	7	yes	57	0	477	6	6	antiphase_hc_ois.wav	3	6	5	noise_calib_stim_RIGHT.wav	2	36	blb_dichoticlistening_ta-ta.mp3	ta	ta	0	left
6.6.1	win	2023-06-26	23:57:29	00:20:16	1363966	6413627f4adf0cc7eb330dfc	1	1	main_slash	24	main_slash	75	stimuli_target_rectanglediamonds.svg	stimuli_distractor_diamondtriangles.svg	6	yes	53	1	789	6	6	antiphase_hc_ois.wav	3	6	5	noise_calib_stim_RIGHT.wav	2	36	blb_dichoticlistening_ta-ta.mp3	ta	ta	0	left
6.6.1	win	2023-06-26	23:57:29	00:20:16	1363966	6413627f4adf0cc7eb330dfc	1	1	main_slash	24	advance_on_keypress_SLASH	76	stimuli_target_rectanglediamonds.svg	stimuli_distractor_diamondtriangles.svg	6	yes	57	0	566	6	6	antiphase_hc_ois.wav	3	6	5	noise_calib_stim_RIGHT.wav	2	36	blb_dichoticlistening_ta-ta.mp3	ta	ta	0	left
6.6.1	win	2023-06-26	23:57:29	00:20:18	1366070	6413627f4adf0cc7eb330dfc	1	1	main_slash	24	main_slash	77	stimuli_distractor_diamondtriangles.svg	stimuli_target_diamondrectangles.svg	31	yes	53	1	890	6	6	antiphase_hc_ois.wav	3	6	5	noise_calib_stim_RIGHT.wav	2	36	blb_dichoticlistening_ta-ta.mp3	ta	ta	0	left
6.6.1	win	2023-06-26	23:57:29	00:20:18	1366070	6413627f4adf0cc7eb330dfc	1	1	main_slash	24	advance_on_keypress_SLASH	78	stimuli_distractor_diamondtriangles.svg	stimuli_target_diamondrectangles.svg	31	yes	57	0	557	6	6	antiphase_hc_ois.wav	3	6	5	noise_calib_stim_RIGHT.wav	2	36	blb_dichoticlistening_ta-ta.mp3	ta	ta	0	left
6.6.1	win	2023-06-26	23:57:29	00:20:21	1368182	6413627f4adf0cc7eb330dfc	1	1	main_slash	24	main_slash	79	stimuli_distractor_trianglediamonds.svg	stimuli_distractor_trianglediamonds.svg	33	no	53	0	901	6	6	antiphase_hc_ois.wav	3	6	5	noise_calib_stim_RIGHT.wav	2	36	blb_dichoticlistening_ta-ta.mp3	ta	ta	0	left
6.6.1	win	2023-06-26	23:57:29	00:20:21	1368182	6413627f4adf0cc7eb330dfc	1	1	main_slash	24	advance_on_keypress_SLASH	80	stimuli_distractor_trianglediamonds.svg	stimuli_distractor_trianglediamonds.svg	33	no	57	0	534	6	6	antiphase_hc_ois.wav	3	6	5	noise_calib_stim_RIGHT.wav	2	36	blb_dichoticlistening_ta-ta.mp3	ta	ta	0	left
6.6.1	win	2023-06-26	23:57:29	00:20:23	1370422	6413627f4adf0cc7eb330dfc	1	1	main_slash	24	main_slash	81	stimuli_distractor_diamondtriangles.svg	stimuli_distractor_trianglediamonds.svg	37	no	53	0	1067	6	6	antiphase_hc_ois.wav	3	6	5	noise_calib_stim_RIGHT.wav	2	36	blb_dichoticlistening_ta-ta.mp3	ta	ta	0	left
6.6.1	win	2023-06-26	23:57:29	00:20:23	1370422	6413627f4adf0cc7eb330dfc	1	1	main_slash	24	advance_on_keypress_SLASH	82	stimuli_distractor_diamondtriangles.svg	stimuli_distractor_trianglediamonds.svg	37	no	57	0	514	6	6	antiphase_hc_ois.wav	3	6	5	noise_calib_stim_RIGHT.wav	2	36	blb_dichoticlistening_ta-ta.mp3	ta	ta	0	left
6.6.1	win	2023-06-26	23:57:29	00:20:25	1372438	6413627f4adf0cc7eb330dfc	1	1	main_slash	24	main_slash	83	stimuli_distractor_diamondtriangles.svg	stimuli_target_rectanglediamonds.svg	14	yes	53	1	853	6	6	antiphase_hc_ois.wav	3	6	5	noise_calib_stim_RIGHT.wav	2	36	blb_dichoticlistening_ta-ta.mp3	ta	ta	0	left
6.6.1	win	2023-06-26	23:57:29	00:20:25	1372438	6413627f4adf0cc7eb330dfc	1	1	main_slash	24	advance_on_keypress_SLASH	84	stimuli_distractor_diamondtriangles.svg	stimuli_target_rectanglediamonds.svg	14	yes	57	0	483	6	6	antiphase_hc_ois.wav	3	6	5	noise_calib_stim_RIGHT.wav	2	36	blb_dichoticlistening_ta-ta.mp3	ta	ta	0	left
6.6.1	win	2023-06-26	23:57:29	00:20:27	1374406	6413627f4adf0cc7eb330dfc	1	1	main_slash	24	main_slash	85	stimuli_target_squaretriangles.svg	stimuli_distractor_trianglediamonds.svg	3	yes	53	1	845	6	6	antiphase_hc_ois.wav	3	6	5	noise_calib_stim_RIGHT.wav	2	36	blb_dichoticlistening_ta-ta.mp3	ta	ta	0	left
6.6.1	win	2023-06-26	23:57:29	00:20:27	1374406	6413627f4adf0cc7eb330dfc	1	1	main_slash	24	advance_on_keypress_SLASH	86	stimuli_target_squaretriangles.svg	stimuli_distractor_trianglediamonds.svg	3	yes	57	0	590	6	6	antiphase_hc_ois.wav	3	6	5	noise_calib_stim_RIGHT.wav	2	36	blb_dichoticlistening_ta-ta.mp3	ta	ta	0	left
6.6.1	win	2023-06-26	23:57:29	00:20:30	1377642	6413627f4adf0cc7eb330dfc	1	1	main_slash	24	main_slash	87	stimuli_distractor_trianglediamonds.svg	stimuli_distractor_trianglediamonds.svg	34	no	0	1	2000	6	6	antiphase_hc_ois.wav	3	6	5	noise_calib_stim_RIGHT.wav	2	36	blb_dichoticlistening_ta-ta.mp3	ta	ta	0	left
6.6.1	win	2023-06-26	23:57:29	00:20:30	1377642	6413627f4adf0cc7eb330dfc	1	1	main_slash	24	advance_on_keypress_SLASH	88	stimuli_distractor_trianglediamonds.svg	stimuli_distractor_trianglediamonds.svg	34	no	57	0	562	6	6	antiphase_hc_ois.wav	3	6	5	noise_calib_stim_RIGHT.wav	2	36	blb_dichoticlistening_ta-ta.mp3	ta	ta	0	left
6.6.1	win	2023-06-26	23:57:29	00:20:33	1380844	6413627f4adf0cc7eb330dfc	1	1	main_slash	24	main_slash	89	stimuli_distractor_diamondtriangles.svg	stimuli_target_squarediamonds.svg	16	yes	0	0	2000	6	6	antiphase_hc_ois.wav	3	6	5	noise_calib_stim_RIGHT.wav	2	36	blb_dichoticlistening_ta-ta.mp3	ta	ta	0	left
6.6.1	win	2023-06-26	23:57:29	00:20:33	1380844	6413627f4adf0cc7eb330dfc	1	1	main_slash	24	advance_on_keypress_SLASH	90	stimuli_distractor_diamondtriangles.svg	stimuli_target_squarediamonds.svg	16	yes	57	0	566	6	6	antiphase_hc_ois.wav	3	6	5	noise_calib_stim_RIGHT.wav	2	36	blb_dichoticlistening_ta-ta.mp3	ta	ta	0	left
6.6.1	win	2023-06-26	23:57:29	00:20:35	1382750	6413627f4adf0cc7eb330dfc	1	1	main_slash	24	main_slash	91	stimuli_target_diamondrectangles.svg	stimuli_distractor_trianglediamonds.svg	19	yes	53	1	717	6	6	antiphase_hc_ois.wav	3	6	5	noise_calib_stim_RIGHT.wav	2	36	blb_dichoticlistening_ta-ta.mp3	ta	ta	0	left
6.6.1	win	2023-06-26	23:57:29	00:20:35	1382750	6413627f4adf0cc7eb330dfc	1	1	main_slash	24	advance_on_keypress_SLASH	92	stimuli_target_diamondrectangles.svg	stimuli_distractor_trianglediamonds.svg	19	yes	57	0	347	6	6	antiphase_hc_ois.wav	3	6	5	noise_calib_stim_RIGHT.wav	2	36	blb_dichoticlistening_ta-ta.mp3	ta	ta	0	left
6.6.1	win	2023-06-26	23:57:29	00:20:37	1384558	6413627f4adf0cc7eb330dfc	1	1	main_slash	24	main_slash	93	stimuli_target_diamondsquares.svg	stimuli_distractor_diamondtriangles.svg	24	yes	53	1	813	6	6	antiphase_hc_ois.wav	3	6	5	noise_calib_stim_RIGHT.wav	2	36	blb_dichoticlistening_ta-ta.mp3	ta	ta	0	left
6.6.1	win	2023-06-26	23:57:29	00:20:37	1384558	6413627f4adf0cc7eb330dfc	1	1	main_slash	24	advance_on_keypress_SLASH	94	stimuli_target_diamondsquares.svg	stimuli_distractor_diamondtriangles.svg	24	yes	57	0	392	6	6	antiphase_hc_ois.wav	3	6	5	noise_calib_stim_RIGHT.wav	2	36	blb_dichoticlistening_ta-ta.mp3	ta	ta	0	left
6.6.1	win	2023-06-26	23:57:29	00:20:40	1387593	6413627f4adf0cc7eb330dfc	1	1	main_slash	24	main_slash	95	stimuli_distractor_trianglediamonds.svg	stimuli_target_rectangletriangles.svg	9	yes	0	0	2000	6	6	antiphase_hc_ois.wav	3	6	5	noise_calib_stim_RIGHT.wav	2	36	blb_dichoticlistening_ta-ta.mp3	ta	ta	0	left
6.6.1	win	2023-06-26	23:57:29	00:20:40	1387593	6413627f4adf0cc7eb330dfc	1	1	main_slash	24	advance_on_keypress_SLASH	96	stimuli_distractor_trianglediamonds.svg	stimuli_target_rectangletriangles.svg	9	yes	57	0	434	6	6	antiphase_hc_ois.wav	3	6	5	noise_calib_stim_RIGHT.wav	2	36	blb_dichoticlistening_ta-ta.mp3	ta	ta	0	left
6.6.1	win	2023-06-26	23:57:29	00:20:42	1389382	6413627f4adf0cc7eb330dfc	1	1	main_slash	24	main_slash	97	stimuli_target_rectangletriangles.svg	stimuli_distractor_trianglediamonds.svg	1	yes	53	1	707	6	6	antiphase_hc_ois.wav	3	6	5	noise_calib_stim_RIGHT.wav	2	36	blb_dichoticlistening_ta-ta.mp3	ta	ta	0	left
6.6.1	win	2023-06-26	23:57:29	00:20:42	1389382	6413627f4adf0cc7eb330dfc	1	1	main_slash	24	advance_on_keypress_SLASH	98	stimuli_target_rectangletriangles.svg	stimuli_distractor_trianglediamonds.svg	1	yes	57	0	366	6	6	antiphase_hc_ois.wav	3	6	5	noise_calib_stim_RIGHT.wav	2	36	blb_dichoticlistening_ta-ta.mp3	ta	ta	0	left
6.6.1	win	2023-06-26	23:57:29	00:20:44	1391574	6413627f4adf0cc7eb330dfc	1	1	main_slash	24	main_slash	99	stimuli_distractor_diamondtriangles.svg	stimuli_target_trianglerectangles.svg	29	yes	53	1	1173	6	6	antiphase_hc_ois.wav	3	6	5	noise_calib_stim_RIGHT.wav	2	36	blb_dichoticlistening_ta-ta.mp3	ta	ta	0	left
6.6.1	win	2023-06-26	23:57:29	00:20:44	1391574	6413627f4adf0cc7eb330dfc	1	1	main_slash	24	advance_on_keypress_SLASH	100	stimuli_distractor_diamondtriangles.svg	stimuli_target_trianglerectangles.svg	29	yes	57	0	435	6	6	antiphase_hc_ois.wav	3	6	5	noise_calib_stim_RIGHT.wav	2	36	blb_dichoticlistening_ta-ta.mp3	ta	ta	0	left
6.6.1	win	2023-06-26	23:57:29	00:20:47	1394642	6413627f4adf0cc7eb330dfc	1	1	main_slash	24	main_slash	101	stimuli_distractor_diamondtriangles.svg	stimuli_distractor_trianglediamonds.svg	38	no	0	1	2000	6	6	antiphase_hc_ois.wav	3	6	5	noise_calib_stim_RIGHT.wav	2	36	blb_dichoticlistening_ta-ta.mp3	ta	ta	0	left
6.6.1	win	2023-06-26	23:57:29	00:20:47	1394642	6413627f4adf0cc7eb330dfc	1	1	main_slash	24	advance_on_keypress_SLASH	102	stimuli_distractor_diamondtriangles.svg	stimuli_distractor_trianglediamonds.svg	38	no	57	0	529	6	6	antiphase_hc_ois.wav	3	6	5	noise_calib_stim_RIGHT.wav	2	36	blb_dichoticlistening_ta-ta.mp3	ta	ta	0	left
6.6.1	win	2023-06-26	23:57:29	00:20:49	1397070	6413627f4adf0cc7eb330dfc	1	1	main_slash	24	main_slash	103	stimuli_distractor_diamondtriangles.svg	stimuli_target_rectangletriangles.svg	13	yes	53	1	1265	6	6	antiphase_hc_ois.wav	3	6	5	noise_calib_stim_RIGHT.wav	2	36	blb_dichoticlistening_ta-ta.mp3	ta	ta	0	left
6.6.1	win	2023-06-26	23:57:29	00:20:49	1397070	6413627f4adf0cc7eb330dfc	1	1	main_slash	24	advance_on_keypress_SLASH	104	stimuli_distractor_diamondtriangles.svg	stimuli_target_rectangletriangles.svg	13	yes	57	0	420	6	6	antiphase_hc_ois.wav	3	6	5	noise_calib_stim_RIGHT.wav	2	36	blb_dichoticlistening_ta-ta.mp3	ta	ta	0	left
6.6.1	win	2023-06-26	23:57:29	00:20:51	1398870	6413627f4adf0cc7eb330dfc	1	1	main_slash	24	main_slash	105	stimuli_distractor_trianglediamonds.svg	stimuli_target_diamondrectangles.svg	27	yes	53	1	741	6	6	antiphase_hc_ois.wav	3	6	5	noise_calib_stim_RIGHT.wav	2	36	blb_dichoticlistening_ta-ta.mp3	ta	ta	0	left
6.6.1	win	2023-06-26	23:57:29	00:20:51	1398870	6413627f4adf0cc7eb330dfc	1	1	main_slash	24	advance_on_keypress_SLASH	106	stimuli_distractor_trianglediamonds.svg	stimuli_target_diamondrectangles.svg	27	yes	57	0	342	6	6	antiphase_hc_ois.wav	3	6	5	noise_calib_stim_RIGHT.wav	2	36	blb_dichoticlistening_ta-ta.mp3	ta	ta	0	left
6.6.1	win	2023-06-26	23:57:29	00:20:54	1401438	6413627f4adf0cc7eb330dfc	1	1	main_slash	24	main_slash	107	stimuli_target_trianglerectangles.svg	stimuli_distractor_trianglediamonds.svg	17	yes	53	1	1584	6	6	antiphase_hc_ois.wav	3	6	5	noise_calib_stim_RIGHT.wav	2	36	blb_dichoticlistening_ta-ta.mp3	ta	ta	0	left
6.6.1	win	2023-06-26	23:57:29	00:20:54	1401438	6413627f4adf0cc7eb330dfc	1	1	main_slash	24	advance_on_keypress_SLASH	108	stimuli_target_trianglerectangles.svg	stimuli_distractor_trianglediamonds.svg	17	yes	57	0	478	6	6	antiphase_hc_ois.wav	3	6	5	noise_calib_stim_RIGHT.wav	2	36	blb_dichoticlistening_ta-ta.mp3	ta	ta	0	left
6.6.1	win	2023-06-26	23:57:29	00:20:57	1404561	6413627f4adf0cc7eb330dfc	1	1	main_slash	24	main_slash	109	stimuli_distractor_trianglediamonds.svg	stimuli_distractor_diamondtriangles.svg	36	no	0	1	2000	6	6	antiphase_hc_ois.wav	3	6	5	noise_calib_stim_RIGHT.wav	2	36	blb_dichoticlistening_ta-ta.mp3	ta	ta	0	left
6.6.1	win	2023-06-26	23:57:29	00:20:57	1404561	6413627f4adf0cc7eb330dfc	1	1	main_slash	24	advance_on_keypress_SLASH	110	stimuli_distractor_trianglediamonds.svg	stimuli_distractor_diamondtriangles.svg	36	no	57	0	411	6	6	antiphase_hc_ois.wav	3	6	5	noise_calib_stim_RIGHT.wav	2	36	blb_dichoticlistening_ta-ta.mp3	ta	ta	0	left
6.6.1	win	2023-06-26	23:57:29	00:20:59	1406494	6413627f4adf0cc7eb330dfc	1	1	main_slash	24	main_slash	111	stimuli_target_squarediamonds.svg	stimuli_distractor_trianglediamonds.svg	4	yes	53	1	885	6	6	antiphase_hc_ois.wav	3	6	5	noise_calib_stim_RIGHT.wav	2	36	blb_dichoticlistening_ta-ta.mp3	ta	ta	0	left
6.6.1	win	2023-06-26	23:57:29	00:20:59	1406494	6413627f4adf0cc7eb330dfc	1	1	main_slash	24	advance_on_keypress_SLASH	112	stimuli_target_squarediamonds.svg	stimuli_distractor_trianglediamonds.svg	4	yes	57	0	390	6	6	antiphase_hc_ois.wav	3	6	5	noise_calib_stim_RIGHT.wav	2	36	blb_dichoticlistening_ta-ta.mp3	ta	ta	0	left
6.6.1	win	2023-06-26	23:57:29	00:21:01	1408574	6413627f4adf0cc7eb330dfc	1	1	main_slash	24	main_slash	113	stimuli_target_rectangletriangles.svg	stimuli_distractor_diamondtriangles.svg	5	yes	53	1	1037	6	6	antiphase_hc_ois.wav	3	6	5	noise_calib_stim_RIGHT.wav	2	36	blb_dichoticlistening_ta-ta.mp3	ta	ta	0	left
6.6.1	win	2023-06-26	23:57:29	00:21:01	1408574	6413627f4adf0cc7eb330dfc	1	1	main_slash	24	advance_on_keypress_SLASH	114	stimuli_target_rectangletriangles.svg	stimuli_distractor_diamondtriangles.svg	5	yes	57	0	413	6	6	antiphase_hc_ois.wav	3	6	5	noise_calib_stim_RIGHT.wav	2	36	blb_dichoticlistening_ta-ta.mp3	ta	ta	0	left
6.6.1	win	2023-06-26	23:57:29	00:21:03	1410446	6413627f4adf0cc7eb330dfc	1	1	main_slash	24	main_slash	115	stimuli_distractor_trianglediamonds.svg	stimuli_target_rectanglediamonds.svg	10	yes	53	1	813	6	6	antiphase_hc_ois.wav	3	6	5	noise_calib_stim_RIGHT.wav	2	36	blb_dichoticlistening_ta-ta.mp3	ta	ta	0	left
6.6.1	win	2023-06-26	23:57:29	00:21:03	1410446	6413627f4adf0cc7eb330dfc	1	1	main_slash	24	advance_on_keypress_SLASH	116	stimuli_distractor_trianglediamonds.svg	stimuli_target_rectanglediamonds.svg	10	yes	57	0	582	6	6	antiphase_hc_ois.wav	3	6	5	noise_calib_stim_RIGHT.wav	2	36	blb_dichoticlistening_ta-ta.mp3	ta	ta	0	left
6.6.1	win	2023-06-26	23:57:29	00:21:05	1412622	6413627f4adf0cc7eb330dfc	1	1	main_slash	24	main_slash	117	stimuli_target_rectanglediamonds.svg	stimuli_distractor_diamondtriangles.svg	6	yes	53	1	941	6	6	antiphase_hc_ois.wav	3	6	5	noise_calib_stim_RIGHT.wav	2	36	blb_dichoticlistening_ta-ta.mp3	ta	ta	0	left
6.6.1	win	2023-06-26	23:57:29	00:21:05	1412622	6413627f4adf0cc7eb330dfc	1	1	main_slash	24	advance_on_keypress_SLASH	118	stimuli_target_rectanglediamonds.svg	stimuli_distractor_diamondtriangles.svg	6	yes	57	0	868	6	6	antiphase_hc_ois.wav	3	6	5	noise_calib_stim_RIGHT.wav	2	36	blb_dichoticlistening_ta-ta.mp3	ta	ta	0	left
6.6.1	win	2023-06-26	23:57:29	00:21:08	1415470	6413627f4adf0cc7eb330dfc	1	1	main_slash	24	main_slash	119	stimuli_distractor_trianglediamonds.svg	stimuli_distractor_diamondtriangles.svg	35	no	53	0	1341	6	6	antiphase_hc_ois.wav	3	6	5	noise_calib_stim_RIGHT.wav	2	36	blb_dichoticlistening_ta-ta.mp3	ta	ta	0	left
6.6.1	win	2023-06-26	23:57:29	00:21:08	1415470	6413627f4adf0cc7eb330dfc	1	1	main_slash	24	advance_on_keypress_SLASH	120	stimuli_distractor_trianglediamonds.svg	stimuli_distractor_diamondtriangles.svg	35	no	57	0	670	6	6	antiphase_hc_ois.wav	3	6	5	noise_calib_stim_RIGHT.wav	2	36	blb_dichoticlistening_ta-ta.mp3	ta	ta	0	left
6.6.1	win	2023-06-26	23:57:29	00:21:10	1417822	6413627f4adf0cc7eb330dfc	1	1	main_slash	24	main_slash	121	stimuli_target_diamondsquares.svg	stimuli_distractor_trianglediamonds.svg	20	yes	53	1	1037	6	6	antiphase_hc_ois.wav	3	6	5	noise_calib_stim_RIGHT.wav	2	36	blb_dichoticlistening_ta-ta.mp3	ta	ta	0	left
6.6.1	win	2023-06-26	23:57:29	00:21:10	1417822	6413627f4adf0cc7eb330dfc	1	1	main_slash	24	advance_on_keypress_SLASH	122	stimuli_target_diamondsquares.svg	stimuli_distractor_trianglediamonds.svg	20	yes	57	0	684	6	6	antiphase_hc_ois.wav	3	6	5	noise_calib_stim_RIGHT.wav	2	36	blb_dichoticlistening_ta-ta.mp3	ta	ta	0	left
6.6.1	win	2023-06-26	23:57:29	00:21:14	1421142	6413627f4adf0cc7eb330dfc	1	1	main_slash	24	main_slash	123	stimuli_distractor_diamondtriangles.svg	stimuli_distractor_diamondtriangles.svg	40	no	0	1	2000	6	6	antiphase_hc_ois.wav	3	6	5	noise_calib_stim_RIGHT.wav	2	36	blb_dichoticlistening_ta-ta.mp3	ta	ta	0	left
6.6.1	win	2023-06-26	23:57:29	00:21:14	1421142	6413627f4adf0cc7eb330dfc	1	1	main_slash	24	advance_on_keypress_SLASH	124	stimuli_distractor_diamondtriangles.svg	stimuli_distractor_diamondtriangles.svg	40	no	57	0	1286	6	6	antiphase_hc_ois.wav	3	6	5	noise_calib_stim_RIGHT.wav	2	36	blb_dichoticlistening_ta-ta.mp3	ta	ta	0	left
6.6.1	win	2023-06-26	23:57:29	00:21:16	1423990	6413627f4adf0cc7eb330dfc	1	1	main_slash	24	main_slash	125	stimuli_distractor_diamondtriangles.svg	stimuli_target_trianglesquares.svg	30	yes	53	1	917	6	6	antiphase_hc_ois.wav	3	6	5	noise_calib_stim_RIGHT.wav	2	36	blb_dichoticlistening_ta-ta.mp3	ta	ta	0	left
6.6.1	win	2023-06-26	23:57:29	00:21:16	1423990	6413627f4adf0cc7eb330dfc	1	1	main_slash	24	advance_on_keypress_SLASH	126	stimuli_distractor_diamondtriangles.svg	stimuli_target_trianglesquares.svg	30	yes	57	0	566	6	6	antiphase_hc_ois.wav	3	6	5	noise_calib_stim_RIGHT.wav	2	36	blb_dichoticlistening_ta-ta.mp3	ta	ta	0	left
6.6.1	win	2023-06-26	23:57:29	00:21:18	1426118	6413627f4adf0cc7eb330dfc	1	1	main_slash	24	main_slash	127	stimuli_distractor_trianglediamonds.svg	stimuli_target_diamondsquares.svg	28	yes	53	1	920	6	6	antiphase_hc_ois.wav	3	6	5	noise_calib_stim_RIGHT.wav	2	36	blb_dichoticlistening_ta-ta.mp3	ta	ta	0	left
6.6.1	win	2023-06-26	23:57:29	00:21:18	1426118	6413627f4adf0cc7eb330dfc	1	1	main_slash	24	advance_on_keypress_SLASH	128	stimuli_distractor_trianglediamonds.svg	stimuli_target_diamondsquares.svg	28	yes	57	0	557	6	6	antiphase_hc_ois.wav	3	6	5	noise_calib_stim_RIGHT.wav	2	36	blb_dichoticlistening_ta-ta.mp3	ta	ta	0	left
6.6.1	win	2023-06-26	23:57:29	00:21:21	1428662	6413627f4adf0cc7eb330dfc	1	1	main_slash	24	main_slash	129	stimuli_distractor_diamondtriangles.svg	stimuli_target_diamondrectangles.svg	31	yes	53	1	1339	6	6	antiphase_hc_ois.wav	3	6	5	noise_calib_stim_RIGHT.wav	2	36	blb_dichoticlistening_ta-ta.mp3	ta	ta	0	left
6.6.1	win	2023-06-26	23:57:29	00:21:21	1428662	6413627f4adf0cc7eb330dfc	1	1	main_slash	24	advance_on_keypress_SLASH	130	stimuli_distractor_diamondtriangles.svg	stimuli_target_diamondrectangles.svg	31	yes	57	0	692	6	6	antiphase_hc_ois.wav	3	6	5	noise_calib_stim_RIGHT.wav	2	36	blb_dichoticlistening_ta-ta.mp3	ta	ta	0	left
6.6.1	win	2023-06-26	23:57:29	00:21:23	1430902	6413627f4adf0cc7eb330dfc	1	1	main_slash	24	main_slash	131	stimuli_target_squaretriangles.svg	stimuli_distractor_diamondtriangles.svg	7	yes	53	1	901	6	6	antiphase_hc_ois.wav	3	6	5	noise_calib_stim_RIGHT.wav	2	36	blb_dichoticlistening_ta-ta.mp3	ta	ta	0	left
6.6.1	win	2023-06-26	23:57:29	00:21:23	1430902	6413627f4adf0cc7eb330dfc	1	1	main_slash	24	advance_on_keypress_SLASH	132	stimuli_target_squaretriangles.svg	stimuli_distractor_diamondtriangles.svg	7	yes	57	0	431	6	6	antiphase_hc_ois.wav	3	6	5	noise_calib_stim_RIGHT.wav	2	36	blb_dichoticlistening_ta-ta.mp3	ta	ta	0	left
6.6.1	win	2023-06-26	23:57:29	00:21:25	1432822	6413627f4adf0cc7eb330dfc	1	1	main_slash	24	main_slash	133	stimuli_target_rectanglediamonds.svg	stimuli_distractor_trianglediamonds.svg	2	yes	53	1	842	6	6	antiphase_hc_ois.wav	3	6	5	noise_calib_stim_RIGHT.wav	2	36	blb_dichoticlistening_ta-ta.mp3	ta	ta	0	left
6.6.1	win	2023-06-26	23:57:29	00:21:25	1432822	6413627f4adf0cc7eb330dfc	1	1	main_slash	24	advance_on_keypress_SLASH	134	stimuli_target_rectanglediamonds.svg	stimuli_distractor_trianglediamonds.svg	2	yes	57	0	429	6	6	antiphase_hc_ois.wav	3	6	5	noise_calib_stim_RIGHT.wav	2	36	blb_dichoticlistening_ta-ta.mp3	ta	ta	0	left
6.6.1	win	2023-06-26	23:57:29	00:21:27	1434822	6413627f4adf0cc7eb330dfc	1	1	main_slash	24	main_slash	135	stimuli_distractor_trianglediamonds.svg	stimuli_target_squaretriangles.svg	11	yes	53	1	930	6	6	antiphase_hc_ois.wav	3	6	5	noise_calib_stim_RIGHT.wav	2	36	blb_dichoticlistening_ta-ta.mp3	ta	ta	0	left
6.6.1	win	2023-06-26	23:57:29	00:21:27	1434822	6413627f4adf0cc7eb330dfc	1	1	main_slash	24	advance_on_keypress_SLASH	136	stimuli_distractor_trianglediamonds.svg	stimuli_target_squaretriangles.svg	11	yes	57	0	423	6	6	antiphase_hc_ois.wav	3	6	5	noise_calib_stim_RIGHT.wav	2	36	blb_dichoticlistening_ta-ta.mp3	ta	ta	0	left
6.6.1	win	2023-06-26	23:57:29	00:21:29	1436462	6413627f4adf0cc7eb330dfc	1	1	main_slash	24	main_slash	137	stimuli_distractor_trianglediamonds.svg	stimuli_target_squarediamonds.svg	12	yes	53	1	573	6	6	antiphase_hc_ois.wav	3	6	5	noise_calib_stim_RIGHT.wav	2	36	blb_dichoticlistening_ta-ta.mp3	ta	ta	0	left
6.6.1	win	2023-06-26	23:57:29	00:21:29	1436462	6413627f4adf0cc7eb330dfc	1	1	main_slash	24	advance_on_keypress_SLASH	138	stimuli_distractor_trianglediamonds.svg	stimuli_target_squarediamonds.svg	12	yes	57	0	555	6	6	antiphase_hc_ois.wav	3	6	5	noise_calib_stim_RIGHT.wav	2	36	blb_dichoticlistening_ta-ta.mp3	ta	ta	0	left
6.6.1	win	2023-06-26	23:57:29	00:21:31	1438654	6413627f4adf0cc7eb330dfc	1	1	main_slash	24	main_slash	139	stimuli_distractor_trianglediamonds.svg	stimuli_target_trianglerectangles.svg	25	yes	53	1	991	6	6	antiphase_hc_ois.wav	3	6	5	noise_calib_stim_RIGHT.wav	2	36	blb_dichoticlistening_ta-ta.mp3	ta	ta	0	left
6.6.1	win	2023-06-26	23:57:29	00:21:31	1438654	6413627f4adf0cc7eb330dfc	1	1	main_slash	24	advance_on_keypress_SLASH	140	stimuli_distractor_trianglediamonds.svg	stimuli_target_trianglerectangles.svg	25	yes	57	0	542	6	6	antiphase_hc_ois.wav	3	6	5	noise_calib_stim_RIGHT.wav	2	36	blb_dichoticlistening_ta-ta.mp3	ta	ta	0	left
6.6.1	win	2023-06-26	23:57:29	00:21:33	1440470	6413627f4adf0cc7eb330dfc	1	1	main_slash	24	main_slash	141	stimuli_distractor_diamondtriangles.svg	stimuli_target_diamondsquares.svg	32	yes	53	1	621	6	6	antiphase_hc_ois.wav	3	6	5	noise_calib_stim_RIGHT.wav	2	36	blb_dichoticlistening_ta-ta.mp3	ta	ta	0	left
6.6.1	win	2023-06-26	23:57:29	00:21:33	1440470	6413627f4adf0cc7eb330dfc	1	1	main_slash	24	advance_on_keypress_SLASH	142	stimuli_distractor_diamondtriangles.svg	stimuli_target_diamondsquares.svg	32	yes	57	0	406	6	6	antiphase_hc_ois.wav	3	6	5	noise_calib_stim_RIGHT.wav	2	36	blb_dichoticlistening_ta-ta.mp3	ta	ta	0	left
6.6.1	win	2023-06-26	23:57:29	00:21:36	1443520	6413627f4adf0cc7eb330dfc	1	1	main_slash	24	main_slash	143	stimuli_distractor_diamondtriangles.svg	stimuli_distractor_diamondtriangles.svg	39	no	0	1	2000	6	6	antiphase_hc_ois.wav	3	6	5	noise_calib_stim_RIGHT.wav	2	36	blb_dichoticlistening_ta-ta.mp3	ta	ta	0	left
6.6.1	win	2023-06-26	23:57:29	00:21:36	1443520	6413627f4adf0cc7eb330dfc	1	1	main_slash	24	advance_on_keypress_SLASH	144	stimuli_distractor_diamondtriangles.svg	stimuli_distractor_diamondtriangles.svg	39	no	57	0	380	6	6	antiphase_hc_ois.wav	3	6	5	noise_calib_stim_RIGHT.wav	2	36	blb_dichoticlistening_ta-ta.mp3	ta	ta	0	left
6.6.1	win	2023-06-26	23:57:29	00:21:38	1445358	6413627f4adf0cc7eb330dfc	1	1	main_slash	24	main_slash	145	stimuli_target_squarediamonds.svg	stimuli_distractor_diamondtriangles.svg	8	yes	53	1	805	6	6	antiphase_hc_ois.wav	3	6	5	noise_calib_stim_RIGHT.wav	2	36	blb_dichoticlistening_ta-ta.mp3	ta	ta	0	left
6.6.1	win	2023-06-26	23:57:29	00:21:38	1445358	6413627f4adf0cc7eb330dfc	1	1	main_slash	24	advance_on_keypress_SLASH	146	stimuli_target_squarediamonds.svg	stimuli_distractor_diamondtriangles.svg	8	yes	57	0	390	6	6	antiphase_hc_ois.wav	3	6	5	noise_calib_stim_RIGHT.wav	2	36	blb_dichoticlistening_ta-ta.mp3	ta	ta	0	left
6.6.1	win	2023-06-26	23:57:29	00:21:40	1447334	6413627f4adf0cc7eb330dfc	1	1	main_slash	24	main_slash	147	stimuli_target_trianglerectangles.svg	stimuli_distractor_diamondtriangles.svg	21	yes	53	1	933	6	6	antiphase_hc_ois.wav	3	6	5	noise_calib_stim_RIGHT.wav	2	36	blb_dichoticlistening_ta-ta.mp3	ta	ta	0	left
6.6.1	win	2023-06-26	23:57:29	00:21:40	1447334	6413627f4adf0cc7eb330dfc	1	1	main_slash	24	advance_on_keypress_SLASH	148	stimuli_target_trianglerectangles.svg	stimuli_distractor_diamondtriangles.svg	21	yes	57	0	334	6	6	antiphase_hc_ois.wav	3	6	5	noise_calib_stim_RIGHT.wav	2	36	blb_dichoticlistening_ta-ta.mp3	ta	ta	0	left
6.6.1	win	2023-06-26	23:57:29	00:21:41	1449118	6413627f4adf0cc7eb330dfc	1	1	main_slash	24	main_slash	149	stimuli_target_trianglesquares.svg	stimuli_distractor_trianglediamonds.svg	18	yes	53	1	797	6	6	antiphase_hc_ois.wav	3	6	5	noise_calib_stim_RIGHT.wav	2	36	blb_dichoticlistening_ta-ta.mp3	ta	ta	0	left
6.6.1	win	2023-06-26	23:57:29	00:21:41	1449118	6413627f4adf0cc7eb330dfc	1	1	main_slash	24	advance_on_keypress_SLASH	150	stimuli_target_trianglesquares.svg	stimuli_distractor_trianglediamonds.svg	18	yes	57	0	647	6	6	antiphase_hc_ois.wav	3	6	5	noise_calib_stim_RIGHT.wav	2	36	blb_dichoticlistening_ta-ta.mp3	ta	ta	0	left
6.6.1	win	2023-06-26	23:57:29	00:21:44	1451286	6413627f4adf0cc7eb330dfc	1	1	main_slash	24	main_slash	151	stimuli_target_diamondrectangles.svg	stimuli_distractor_diamondtriangles.svg	23	yes	53	1	872	6	6	antiphase_hc_ois.wav	3	6	5	noise_calib_stim_RIGHT.wav	2	36	blb_dichoticlistening_ta-ta.mp3	ta	ta	0	left
6.6.1	win	2023-06-26	23:57:29	00:21:44	1451286	6413627f4adf0cc7eb330dfc	1	1	main_slash	24	advance_on_keypress_SLASH	152	stimuli_target_diamondrectangles.svg	stimuli_distractor_diamondtriangles.svg	23	yes	57	0	566	6	6	antiphase_hc_ois.wav	3	6	5	noise_calib_stim_RIGHT.wav	2	36	blb_dichoticlistening_ta-ta.mp3	ta	ta	0	left
6.6.1	win	2023-06-26	23:57:29	00:21:47	1454501	6413627f4adf0cc7eb330dfc	1	1	main_slash	24	main_slash	153	stimuli_distractor_trianglediamonds.svg	stimuli_distractor_trianglediamonds.svg	33	no	0	1	2000	6	6	antiphase_hc_ois.wav	3	6	5	noise_calib_stim_RIGHT.wav	2	36	blb_dichoticlistening_ta-ta.mp3	ta	ta	0	left
6.6.1	win	2023-06-26	23:57:29	00:21:47	1454501	6413627f4adf0cc7eb330dfc	1	1	main_slash	24	advance_on_keypress_SLASH	154	stimuli_distractor_trianglediamonds.svg	stimuli_distractor_trianglediamonds.svg	33	no	57	0	407	6	6	antiphase_hc_ois.wav	3	6	5	noise_calib_stim_RIGHT.wav	2	36	blb_dichoticlistening_ta-ta.mp3	ta	ta	0	left
6.6.1	win	2023-06-26	23:57:29	00:21:49	1456310	6413627f4adf0cc7eb330dfc	1	1	main_slash	24	main_slash	155	stimuli_target_trianglesquares.svg	stimuli_distractor_diamondtriangles.svg	22	yes	53	1	763	6	6	antiphase_hc_ois.wav	3	6	5	noise_calib_stim_RIGHT.wav	2	36	blb_dichoticlistening_ta-ta.mp3	ta	ta	0	left
6.6.1	win	2023-06-26	23:57:29	00:21:49	1456310	6413627f4adf0cc7eb330dfc	1	1	main_slash	24	advance_on_keypress_SLASH	156	stimuli_target_trianglesquares.svg	stimuli_distractor_diamondtriangles.svg	22	yes	57	0	485	6	6	antiphase_hc_ois.wav	3	6	5	noise_calib_stim_RIGHT.wav	2	36	blb_dichoticlistening_ta-ta.mp3	ta	ta	0	left
6.6.1	win	2023-06-26	23:57:29	00:21:52	1459450	6413627f4adf0cc7eb330dfc	1	1	main_slash	24	main_slash	157	stimuli_distractor_diamondtriangles.svg	stimuli_target_squaretriangles.svg	15	yes	0	0	2000	6	6	antiphase_hc_ois.wav	3	6	5	noise_calib_stim_RIGHT.wav	2	36	blb_dichoticlistening_ta-ta.mp3	ta	ta	0	left
6.6.1	win	2023-06-26	23:57:29	00:21:52	1459450	6413627f4adf0cc7eb330dfc	1	1	main_slash	24	advance_on_keypress_SLASH	158	stimuli_distractor_diamondtriangles.svg	stimuli_target_squaretriangles.svg	15	yes	57	0	530	6	6	antiphase_hc_ois.wav	3	6	5	noise_calib_stim_RIGHT.wav	2	36	blb_dichoticlistening_ta-ta.mp3	ta	ta	0	left
6.6.1	win	2023-06-26	23:57:29	00:21:54	1461262	6413627f4adf0cc7eb330dfc	1	1	main_slash	24	main_slash	159	stimuli_distractor_trianglediamonds.svg	stimuli_target_trianglesquares.svg	26	yes	53	1	630	6	6	antiphase_hc_ois.wav	3	6	5	noise_calib_stim_RIGHT.wav	2	36	blb_dichoticlistening_ta-ta.mp3	ta	ta	0	left
6.6.1	win	2023-06-26	23:57:29	00:21:54	1461262	6413627f4adf0cc7eb330dfc	1	1	main_slash	24	advance_on_keypress_SLASH	160	stimuli_distractor_trianglediamonds.svg	stimuli_target_trianglesquares.svg	26	yes	57	0	368	6	6	antiphase_hc_ois.wav	3	6	5	noise_calib_stim_RIGHT.wav	2	36	blb_dichoticlistening_ta-ta.mp3	ta	ta	0	left
6.6.1	win	2023-06-26	23:57:29	00:22:33	1500135	6413627f4adf0cc7eb330dfc	1	1	practice_z	26	practice_z	1	stimuli_target_squarediamonds.svg	stimuli_distractor_trianglediamonds.svg	5	yes	44	1	638	6	6	antiphase_hc_ois.wav	3	6	5	noise_calib_stim_RIGHT.wav	2	36	blb_dichoticlistening_ta-ta.mp3	ta	ta	0	left
6.6.1	win	2023-06-26	23:57:29	00:22:33	1500135	6413627f4adf0cc7eb330dfc	1	1	practice_z	26	advance_on_keypress_ZEE	2	stimuli_target_squarediamonds.svg	stimuli_distractor_trianglediamonds.svg	5	yes	57	0	606	6	6	antiphase_hc_ois.wav	3	6	5	noise_calib_stim_RIGHT.wav	2	36	blb_dichoticlistening_ta-ta.mp3	ta	ta	0	left
6.6.1	win	2023-06-26	23:57:29	00:22:35	1502951	6413627f4adf0cc7eb330dfc	1	1	practice_z	26	practice_z	3	stimuli_target_rectanglediamonds.svg	stimuli_distractor_trianglediamonds.svg	4	yes	44	1	557	6	6	antiphase_hc_ois.wav	3	6	5	noise_calib_stim_RIGHT.wav	2	36	blb_dichoticlistening_ta-ta.mp3	ta	ta	0	left
6.6.1	win	2023-06-26	23:57:29	00:22:35	1502951	6413627f4adf0cc7eb330dfc	1	1	practice_z	26	advance_on_keypress_ZEE	4	stimuli_target_rectanglediamonds.svg	stimuli_distractor_trianglediamonds.svg	4	yes	57	0	261	6	6	antiphase_hc_ois.wav	3	6	5	noise_calib_stim_RIGHT.wav	2	36	blb_dichoticlistening_ta-ta.mp3	ta	ta	0	left
6.6.1	win	2023-06-26	23:57:29	00:22:39	1506866	6413627f4adf0cc7eb330dfc	1	1	practice_z	26	practice_z	5	stimuli_distractor_trianglediamonds.svg	stimuli_distractor_trianglediamonds.svg	15	no	0	1	2000	6	6	antiphase_hc_ois.wav	3	6	5	noise_calib_stim_RIGHT.wav	2	36	blb_dichoticlistening_ta-ta.mp3	ta	ta	0	left
6.6.1	win	2023-06-26	23:57:29	00:22:39	1506866	6413627f4adf0cc7eb330dfc	1	1	practice_z	26	advance_on_keypress_ZEE	6	stimuli_distractor_trianglediamonds.svg	stimuli_distractor_trianglediamonds.svg	15	no	57	0	511	6	6	antiphase_hc_ois.wav	3	6	5	noise_calib_stim_RIGHT.wav	2	36	blb_dichoticlistening_ta-ta.mp3	ta	ta	0	left
6.6.1	win	2023-06-26	23:57:29	00:22:42	1509566	6413627f4adf0cc7eb330dfc	1	1	practice_z	26	practice_z	7	stimuli_target_diamondsquares.svg	stimuli_distractor_diamondtriangles.svg	3	yes	44	1	541	6	6	antiphase_hc_ois.wav	3	6	5	noise_calib_stim_RIGHT.wav	2	36	blb_dichoticlistening_ta-ta.mp3	ta	ta	0	left
6.6.1	win	2023-06-26	23:57:29	00:22:42	1509566	6413627f4adf0cc7eb330dfc	1	1	practice_z	26	advance_on_keypress_ZEE	8	stimuli_target_diamondsquares.svg	stimuli_distractor_diamondtriangles.svg	3	yes	57	0	550	6	6	antiphase_hc_ois.wav	3	6	5	noise_calib_stim_RIGHT.wav	2	36	blb_dichoticlistening_ta-ta.mp3	ta	ta	0	left
6.6.1	win	2023-06-26	23:57:29	00:22:45	1512415	6413627f4adf0cc7eb330dfc	1	1	practice_z	26	practice_z	9	stimuli_distractor_diamondtriangles.svg	stimuli_target_rectangletriangles.svg	7	yes	44	1	645	6	6	antiphase_hc_ois.wav	3	6	5	noise_calib_stim_RIGHT.wav	2	36	blb_dichoticlistening_ta-ta.mp3	ta	ta	0	left
6.6.1	win	2023-06-26	23:57:29	00:22:45	1512415	6413627f4adf0cc7eb330dfc	1	1	practice_z	26	advance_on_keypress_ZEE	10	stimuli_distractor_diamondtriangles.svg	stimuli_target_rectangletriangles.svg	7	yes	57	0	416	6	6	antiphase_hc_ois.wav	3	6	5	noise_calib_stim_RIGHT.wav	2	36	blb_dichoticlistening_ta-ta.mp3	ta	ta	0	left
6.6.1	win	2023-06-26	23:57:29	00:22:48	1515214	6413627f4adf0cc7eb330dfc	1	1	practice_z	26	practice_z	11	stimuli_distractor_diamondtriangles.svg	stimuli_distractor_trianglediamonds.svg	14	no	44	0	733	6	6	antiphase_hc_ois.wav	3	6	5	noise_calib_stim_RIGHT.wav	2	36	blb_dichoticlistening_ta-ta.mp3	ta	ta	0	left
6.6.1	win	2023-06-26	23:57:29	00:22:48	1515214	6413627f4adf0cc7eb330dfc	1	1	practice_z	26	advance_on_keypress_ZEE	12	stimuli_distractor_diamondtriangles.svg	stimuli_distractor_trianglediamonds.svg	14	no	57	0	493	6	6	antiphase_hc_ois.wav	3	6	5	noise_calib_stim_RIGHT.wav	2	36	blb_dichoticlistening_ta-ta.mp3	ta	ta	0	left
6.6.1	win	2023-06-26	23:57:29	00:22:50	1517815	6413627f4adf0cc7eb330dfc	1	1	practice_z	26	practice_z	13	stimuli_target_rectanglediamonds.svg	stimuli_distractor_diamondtriangles.svg	1	yes	44	1	453	6	6	antiphase_hc_ois.wav	3	6	5	noise_calib_stim_RIGHT.wav	2	36	blb_dichoticlistening_ta-ta.mp3	ta	ta	0	left
6.6.1	win	2023-06-26	23:57:29	00:22:50	1517815	6413627f4adf0cc7eb330dfc	1	1	practice_z	26	advance_on_keypress_ZEE	14	stimuli_target_rectanglediamonds.svg	stimuli_distractor_diamondtriangles.svg	1	yes	57	0	381	6	6	antiphase_hc_ois.wav	3	6	5	noise_calib_stim_RIGHT.wav	2	36	blb_dichoticlistening_ta-ta.mp3	ta	ta	0	left
