build	computer.platform	date	time	timestamp	time_elapsed_ms	subject	group	session	blockcode	blocknum	trialcode	trialnum	stimulus_left	stimulus_right	stim_index	target_present	response	correct	latency	headphonecheck_countTestTrials	headphonecheck_index	headphonecheck_testSound	headphonecheck_correctResponse	stereocheck_countTestTrials	stereocheck_index	stereocheck_testSound	stereocheck_correctResponse	DL_index	DL_soundfile	DL_leftSound	DL_rightSound	DL_dualSound	DL_choice
6.6.1	win	2023-07-16	22:04:42	0	0	5fc14a9cfddce609bd3e5015	2	1	headphonecheck_calibration	4	headphonecheck_calibrationIntro	1			0		calibrationButton	0	4498	0	0			0	0			1				0	
6.6.1	win	2023-07-16	22:04:42	0	0	5fc14a9cfddce609bd3e5015	2	1	headphonecheck_testphase	5	test_collectResponse	3			0		second	1	561	1	1	antiphase_hc_iso.wav	2	0	0			1				0	
6.6.1	win	2023-07-16	22:04:42	0	0	5fc14a9cfddce609bd3e5015	2	1	headphonecheck_testphase	5	test_collectResponse	6			0		third	1	145	2	2	antiphase_hc_ios.wav	3	0	0			1				0	
6.6.1	win	2023-07-16	22:04:42	0	0	5fc14a9cfddce609bd3e5015	2	1	headphonecheck_testphase	5	test_collectResponse	9			0		first	1	77	3	4	antiphase_hc_sio.wav	1	0	0			1				0	
6.6.1	win	2023-07-16	22:04:42	0	0	5fc14a9cfddce609bd3e5015	2	1	headphonecheck_testphase	5	test_collectResponse	12			0		second	1	339	4	5	antiphase_hc_osi.wav	2	0	0			1				0	
6.6.1	win	2023-07-16	22:04:42	0	0	5fc14a9cfddce609bd3e5015	2	1	headphonecheck_testphase	5	test_collectResponse	15			0		first	1	1597	5	3	antiphase_hc_soi.wav	1	0	0			1				0	
6.6.1	win	2023-07-16	22:04:42	0	0	5fc14a9cfddce609bd3e5015	2	1	headphonecheck_testphase	5	test_collectResponse	18			0		third	1	422	6	6	antiphase_hc_ois.wav	3	0	0			1				0	
6.6.1	win	2023-07-16	22:04:42	0	0	5fc14a9cfddce609bd3e5015	2	1	stereocheck_calibration	7	stereocheck_calibrationIntro	1			0		stereocheck_calibrationButton	0	6067	6	6	antiphase_hc_ois.wav	3	0	0			1				0	
6.6.1	win	2023-07-16	22:04:42	0	0	5fc14a9cfddce609bd3e5015	2	1	stereocheck_testphase	8	stereocheck_test_collectResponse	3			0		stereocheck_right	1	357	6	6	antiphase_hc_ois.wav	3	1	6	noise_calib_stim_RIGHT.wav	2	1				0	
6.6.1	win	2023-07-16	22:04:42	0	0	5fc14a9cfddce609bd3e5015	2	1	stereocheck_testphase	8	stereocheck_test_collectResponse	6			0		stereocheck_right	1	244	6	6	antiphase_hc_ois.wav	3	2	4	noise_calib_stim_RIGHT.wav	2	1				0	
6.6.1	win	2023-07-16	22:04:42	0	0	5fc14a9cfddce609bd3e5015	2	1	stereocheck_testphase	8	stereocheck_test_collectResponse	9			0		stereocheck_left	1	331	6	6	antiphase_hc_ois.wav	3	3	1	noise_calib_stim_LEFT.wav	1	1				0	
6.6.1	win	2023-07-16	22:04:42	0	0	5fc14a9cfddce609bd3e5015	2	1	stereocheck_testphase	8	stereocheck_test_collectResponse	12			0		stereocheck_left	1	270	6	6	antiphase_hc_ois.wav	3	4	2	noise_calib_stim_LEFT.wav	1	1				0	
6.6.1	win	2023-07-16	22:04:42	0	0	5fc14a9cfddce609bd3e5015	2	1	stereocheck_testphase	8	stereocheck_test_collectResponse	15			0		stereocheck_left	1	372	6	6	antiphase_hc_ois.wav	3	5	3	noise_calib_stim_LEFT.wav	1	1				0	
6.6.1	win	2023-07-16	22:04:42	0	0	5fc14a9cfddce609bd3e5015	2	1	stereocheck_testphase	8	stereocheck_test_collectResponse	18			0		stereocheck_right	1	447	6	6	antiphase_hc_ois.wav	3	6	5	noise_calib_stim_RIGHT.wav	2	1				0	
6.6.1	win	2023-07-16	22:04:42	0	0	5fc14a9cfddce609bd3e5015	2	1	DL_practice	11	DL_practice	2			0		ga	1	1149	6	6	antiphase_hc_ois.wav	3	6	5	noise_calib_stim_RIGHT.wav	2	15	blb_dichoticlistening_ga-ga.mp3	ga	ga	0	left
6.6.1	win	2023-07-16	22:04:42	0	0	5fc14a9cfddce609bd3e5015	2	1	DL_practice	11	DL_practice	3			0		ka	1	990	6	6	antiphase_hc_ois.wav	3	6	5	noise_calib_stim_RIGHT.wav	2	22	blb_dichoticlistening_ka-ka.mp3	ka	ka	0	left
6.6.1	win	2023-07-16	22:04:42	0	0	5fc14a9cfddce609bd3e5015	2	1	DL_practice	11	DL_practice	4			0		ta	1	1175	6	6	antiphase_hc_ois.wav	3	6	5	noise_calib_stim_RIGHT.wav	2	36	blb_dichoticlistening_ta-ta.mp3	ta	ta	0	left
6.6.1	win	2023-07-16	22:04:42	0	0	5fc14a9cfddce609bd3e5015	2	1	DL_practice	11	DL_practice	5			0		ka	0	1317	6	6	antiphase_hc_ois.wav	3	6	5	noise_calib_stim_RIGHT.wav	2	18	blb_dichoticlistening_ga-ta.mp3	ga	ta	1	other
6.6.1	win	2023-07-16	22:04:42	0	0	5fc14a9cfddce609bd3e5015	2	1	DL_practice	11	DL_practice	6			0		ba	1	1780	6	6	antiphase_hc_ois.wav	3	6	5	noise_calib_stim_RIGHT.wav	2	1	blb_dichoticlistening_ba-ba.mp3	ba	ba	0	left
6.6.1	win	2023-07-16	22:04:42	0	0	5fc14a9cfddce609bd3e5015	2	1	DL_practice	11	DL_practice	7			0		ka	1	1202	6	6	antiphase_hc_ois.wav	3	6	5	noise_calib_stim_RIGHT.wav	2	23	blb_dichoticlistening_ka-pa.mp3	ka	pa	1	left
6.6.1	win	2023-07-16	22:04:42	0	0	5fc14a9cfddce609bd3e5015	2	1	DL_practice	11	DL_practice	8			0		da	1	689	6	6	antiphase_hc_ois.wav	3	6	5	noise_calib_stim_RIGHT.wav	2	8	blb_dichoticlistening_da-da.mp3	da	da	0	left
6.6.1	win	2023-07-16	22:04:42	0	0	5fc14a9cfddce609bd3e5015	2	1	DL_practice	11	DL_practice	9			0		pa	1	850	6	6	antiphase_hc_ois.wav	3	6	5	noise_calib_stim_RIGHT.wav	2	29	blb_dichoticlistening_pa-pa.mp3	pa	pa	0	left
6.6.1	win	2023-07-16	22:04:42	0	0	5fc14a9cfddce609bd3e5015	2	1	DL_practice	11	DL_practice	10			0		da	1	1165	6	6	antiphase_hc_ois.wav	3	6	5	noise_calib_stim_RIGHT.wav	2	7	blb_dichoticlistening_da-ba.mp3	da	ba	1	left
6.6.1	win	2023-07-16	22:04:42	0	0	5fc14a9cfddce609bd3e5015	2	1	DL_test	13	DL_test	1			0		ta	0	1478	6	6	antiphase_hc_ois.wav	3	6	5	noise_calib_stim_RIGHT.wav	2	10	blb_dichoticlistening_da-ka.mp3	da	ka	1	other
6.6.1	win	2023-07-16	22:04:42	0	0	5fc14a9cfddce609bd3e5015	2	1	DL_test	13	DL_test	2			0		ka	1	739	6	6	antiphase_hc_ois.wav	3	6	5	noise_calib_stim_RIGHT.wav	2	34	blb_dichoticlistening_ta-ka.mp3	ta	ka	1	right
6.6.1	win	2023-07-16	22:04:42	0	0	5fc14a9cfddce609bd3e5015	2	1	DL_test	13	DL_test	3			0		da	0	1930	6	6	antiphase_hc_ois.wav	3	6	5	noise_calib_stim_RIGHT.wav	2	13	blb_dichoticlistening_ga-ba.mp3	ga	ba	1	other
6.6.1	win	2023-07-16	22:04:42	0	0	5fc14a9cfddce609bd3e5015	2	1	DL_test	13	DL_test	4			0		ka	1	825	6	6	antiphase_hc_ois.wav	3	6	5	noise_calib_stim_RIGHT.wav	2	16	blb_dichoticlistening_ga-ka.mp3	ga	ka	1	right
6.6.1	win	2023-07-16	22:04:42	0	0	5fc14a9cfddce609bd3e5015	2	1	DL_test	13	DL_test	5			0		ta	1	956	6	6	antiphase_hc_ois.wav	3	6	5	noise_calib_stim_RIGHT.wav	2	36	blb_dichoticlistening_ta-ta.mp3	ta	ta	0	left
6.6.1	win	2023-07-16	22:04:42	0	0	5fc14a9cfddce609bd3e5015	2	1	DL_test	13	DL_test	6			0		ka	0	1065	6	6	antiphase_hc_ois.wav	3	6	5	noise_calib_stim_RIGHT.wav	2	18	blb_dichoticlistening_ga-ta.mp3	ga	ta	1	other
6.6.1	win	2023-07-16	22:04:42	0	0	5fc14a9cfddce609bd3e5015	2	1	DL_test	13	DL_test	7			0		pa	1	958	6	6	antiphase_hc_ois.wav	3	6	5	noise_calib_stim_RIGHT.wav	2	5	blb_dichoticlistening_ba-pa.mp3	ba	pa	1	right
6.6.1	win	2023-07-16	22:04:42	0	0	5fc14a9cfddce609bd3e5015	2	1	DL_test	13	DL_test	8			0		ga	1	914	6	6	antiphase_hc_ois.wav	3	6	5	noise_calib_stim_RIGHT.wav	2	15	blb_dichoticlistening_ga-ga.mp3	ga	ga	0	left
6.6.1	win	2023-07-16	22:04:42	0	0	5fc14a9cfddce609bd3e5015	2	1	DL_test	13	DL_test	9			0		da	1	1115	6	6	antiphase_hc_ois.wav	3	6	5	noise_calib_stim_RIGHT.wav	2	8	blb_dichoticlistening_da-da.mp3	da	da	0	left
6.6.1	win	2023-07-16	22:04:42	0	0	5fc14a9cfddce609bd3e5015	2	1	DL_test	13	DL_test	10			0		ta	1	1379	6	6	antiphase_hc_ois.wav	3	6	5	noise_calib_stim_RIGHT.wav	2	30	blb_dichoticlistening_pa-ta.mp3	pa	ta	1	right
6.6.1	win	2023-07-16	22:04:42	0	0	5fc14a9cfddce609bd3e5015	2	1	DL_test	13	DL_test	11			0		ka	1	912	6	6	antiphase_hc_ois.wav	3	6	5	noise_calib_stim_RIGHT.wav	2	21	blb_dichoticlistening_ka-ga.mp3	ka	ga	1	left
6.6.1	win	2023-07-16	22:04:42	0	0	5fc14a9cfddce609bd3e5015	2	1	DL_test	13	DL_test	12			0		ta	1	1497	6	6	antiphase_hc_ois.wav	3	6	5	noise_calib_stim_RIGHT.wav	2	12	blb_dichoticlistening_da-ta.mp3	da	ta	1	right
6.6.1	win	2023-07-16	22:04:42	0	0	5fc14a9cfddce609bd3e5015	2	1	DL_test	13	DL_test	13			0		pa	1	1432	6	6	antiphase_hc_ois.wav	3	6	5	noise_calib_stim_RIGHT.wav	2	17	blb_dichoticlistening_ga-pa.mp3	ga	pa	1	right
6.6.1	win	2023-07-16	22:04:42	0	0	5fc14a9cfddce609bd3e5015	2	1	DL_test	13	DL_test	14			0		ta	0	1710	6	6	antiphase_hc_ois.wav	3	6	5	noise_calib_stim_RIGHT.wav	2	11	blb_dichoticlistening_da-pa.mp3	da	pa	1	other
6.6.1	win	2023-07-16	22:04:42	0	0	5fc14a9cfddce609bd3e5015	2	1	DL_test	13	DL_test	15			0		ka	1	859	6	6	antiphase_hc_ois.wav	3	6	5	noise_calib_stim_RIGHT.wav	2	22	blb_dichoticlistening_ka-ka.mp3	ka	ka	0	left
6.6.1	win	2023-07-16	22:04:42	0	0	5fc14a9cfddce609bd3e5015	2	1	DL_test	13	DL_test	16			0		ka	1	1292	6	6	antiphase_hc_ois.wav	3	6	5	noise_calib_stim_RIGHT.wav	2	28	blb_dichoticlistening_pa-ka.mp3	pa	ka	1	right
6.6.1	win	2023-07-16	22:04:42	0	0	5fc14a9cfddce609bd3e5015	2	1	DL_test	13	DL_test	17			0		ka	1	873	6	6	antiphase_hc_ois.wav	3	6	5	noise_calib_stim_RIGHT.wav	2	24	blb_dichoticlistening_ka-ta.mp3	ka	ta	1	left
6.6.1	win	2023-07-16	22:04:42	0	0	5fc14a9cfddce609bd3e5015	2	1	DL_test	13	DL_test	18			0		da	1	818	6	6	antiphase_hc_ois.wav	3	6	5	noise_calib_stim_RIGHT.wav	2	14	blb_dichoticlistening_ga-da.mp3	ga	da	1	right
6.6.1	win	2023-07-16	22:04:42	0	0	5fc14a9cfddce609bd3e5015	2	1	DL_test	13	DL_test	19			0		ka	1	1793	6	6	antiphase_hc_ois.wav	3	6	5	noise_calib_stim_RIGHT.wav	2	20	blb_dichoticlistening_ka-da.mp3	ka	da	1	left
6.6.1	win	2023-07-16	22:04:42	0	0	5fc14a9cfddce609bd3e5015	2	1	DL_test	13	DL_test	20			0		ka	1	1347	6	6	antiphase_hc_ois.wav	3	6	5	noise_calib_stim_RIGHT.wav	2	23	blb_dichoticlistening_ka-pa.mp3	ka	pa	1	left
6.6.1	win	2023-07-16	22:04:42	0	0	5fc14a9cfddce609bd3e5015	2	1	DL_test	13	DL_test	21			0		ta	1	1110	6	6	antiphase_hc_ois.wav	3	6	5	noise_calib_stim_RIGHT.wav	2	31	blb_dichoticlistening_ta-ba.mp3	ta	ba	1	left
6.6.1	win	2023-07-16	22:04:42	0	0	5fc14a9cfddce609bd3e5015	2	1	DL_test	13	DL_test	22			0		ga	1	1600	6	6	antiphase_hc_ois.wav	3	6	5	noise_calib_stim_RIGHT.wav	2	33	blb_dichoticlistening_ta-ga.mp3	ta	ga	1	right
6.6.1	win	2023-07-16	22:04:42	0	0	5fc14a9cfddce609bd3e5015	2	1	DL_test	13	DL_test	23			0		ta	1	1128	6	6	antiphase_hc_ois.wav	3	6	5	noise_calib_stim_RIGHT.wav	2	6	blb_dichoticlistening_ba-ta.mp3	ba	ta	1	right
6.6.1	win	2023-07-16	22:04:42	0	0	5fc14a9cfddce609bd3e5015	2	1	DL_test	13	DL_test	24			0		pa	0	1362	6	6	antiphase_hc_ois.wav	3	6	5	noise_calib_stim_RIGHT.wav	2	1	blb_dichoticlistening_ba-ba.mp3	ba	ba	0	other
6.6.1	win	2023-07-16	22:04:42	0	0	5fc14a9cfddce609bd3e5015	2	1	DL_test	13	DL_test	25			0		ka	1	1283	6	6	antiphase_hc_ois.wav	3	6	5	noise_calib_stim_RIGHT.wav	2	4	blb_dichoticlistening_ba-ka.mp3	ba	ka	1	right
6.6.1	win	2023-07-16	22:04:42	0	0	5fc14a9cfddce609bd3e5015	2	1	DL_test	13	DL_test	26			0		ka	1	1327	6	6	antiphase_hc_ois.wav	3	6	5	noise_calib_stim_RIGHT.wav	2	19	blb_dichoticlistening_ka-ba.mp3	ka	ba	1	left
6.6.1	win	2023-07-16	22:04:42	0	0	5fc14a9cfddce609bd3e5015	2	1	DL_test	13	DL_test	27			0		da	1	1176	6	6	antiphase_hc_ois.wav	3	6	5	noise_calib_stim_RIGHT.wav	2	9	blb_dichoticlistening_da-ga.mp3	da	ga	1	left
6.6.1	win	2023-07-16	22:04:42	0	0	5fc14a9cfddce609bd3e5015	2	1	DL_test	13	DL_test	28			0		ta	1	1164	6	6	antiphase_hc_ois.wav	3	6	5	noise_calib_stim_RIGHT.wav	2	32	blb_dichoticlistening_ta-da.mp3	ta	da	1	left
6.6.1	win	2023-07-16	22:04:42	0	0	5fc14a9cfddce609bd3e5015	2	1	DL_test	13	DL_test	29			0		da	0	1343	6	6	antiphase_hc_ois.wav	3	6	5	noise_calib_stim_RIGHT.wav	2	3	blb_dichoticlistening_ba-ga.mp3	ba	ga	1	other
6.6.1	win	2023-07-16	22:04:42	0	0	5fc14a9cfddce609bd3e5015	2	1	DL_test	13	DL_test	30			0		ka	0	1530	6	6	antiphase_hc_ois.wav	3	6	5	noise_calib_stim_RIGHT.wav	2	27	blb_dichoticlistening_pa-ga.mp3	pa	ga	1	other
6.6.1	win	2023-07-16	22:04:42	0	0	5fc14a9cfddce609bd3e5015	2	1	DL_test	13	DL_test	31			0		pa	1	700	6	6	antiphase_hc_ois.wav	3	6	5	noise_calib_stim_RIGHT.wav	2	25	blb_dichoticlistening_pa-ba.mp3	pa	ba	1	left
6.6.1	win	2023-07-16	22:04:42	0	0	5fc14a9cfddce609bd3e5015	2	1	DL_test	13	DL_test	32			0		da	1	954	6	6	antiphase_hc_ois.wav	3	6	5	noise_calib_stim_RIGHT.wav	2	2	blb_dichoticlistening_ba-da.mp3	ba	da	1	right
6.6.1	win	2023-07-16	22:04:42	0	0	5fc14a9cfddce609bd3e5015	2	1	DL_test	13	DL_test	33			0		ta	1	852	6	6	antiphase_hc_ois.wav	3	6	5	noise_calib_stim_RIGHT.wav	2	35	blb_dichoticlistening_ta-pa.mp3	ta	pa	1	left
6.6.1	win	2023-07-16	22:04:42	0	0	5fc14a9cfddce609bd3e5015	2	1	DL_test	13	DL_test	34			0		pa	1	788	6	6	antiphase_hc_ois.wav	3	6	5	noise_calib_stim_RIGHT.wav	2	29	blb_dichoticlistening_pa-pa.mp3	pa	pa	0	left
6.6.1	win	2023-07-16	22:04:42	0	0	5fc14a9cfddce609bd3e5015	2	1	DL_test	13	DL_test	35			0		ta	0	838	6	6	antiphase_hc_ois.wav	3	6	5	noise_calib_stim_RIGHT.wav	2	26	blb_dichoticlistening_pa-da.mp3	pa	da	1	other
6.6.1	win	2023-07-16	22:04:42	0	0	5fc14a9cfddce609bd3e5015	2	1	DL_test	13	DL_test	36			0		da	1	921	6	6	antiphase_hc_ois.wav	3	6	5	noise_calib_stim_RIGHT.wav	2	7	blb_dichoticlistening_da-ba.mp3	da	ba	1	left
6.6.1	win	2023-07-16	22:04:42	0	0	5fc14a9cfddce609bd3e5015	2	1	DL_test	14	DL_test	1			0		ka	1	936	6	6	antiphase_hc_ois.wav	3	6	5	noise_calib_stim_RIGHT.wav	2	21	blb_dichoticlistening_ka-ga.mp3	ka	ga	1	left
6.6.1	win	2023-07-16	22:04:42	0	0	5fc14a9cfddce609bd3e5015	2	1	DL_test	14	DL_test	2			0		da	0	956	6	6	antiphase_hc_ois.wav	3	6	5	noise_calib_stim_RIGHT.wav	2	3	blb_dichoticlistening_ba-ga.mp3	ba	ga	1	other
6.6.1	win	2023-07-16	22:04:42	0	0	5fc14a9cfddce609bd3e5015	2	1	DL_test	14	DL_test	3			0		ka	1	742	6	6	antiphase_hc_ois.wav	3	6	5	noise_calib_stim_RIGHT.wav	2	22	blb_dichoticlistening_ka-ka.mp3	ka	ka	0	left
6.6.1	win	2023-07-16	22:04:42	0	0	5fc14a9cfddce609bd3e5015	2	1	DL_test	14	DL_test	4			0		pa	1	1419	6	6	antiphase_hc_ois.wav	3	6	5	noise_calib_stim_RIGHT.wav	2	28	blb_dichoticlistening_pa-ka.mp3	pa	ka	1	left
6.6.1	win	2023-07-16	22:04:42	0	0	5fc14a9cfddce609bd3e5015	2	1	DL_test	14	DL_test	5			0		ta	0	1063	6	6	antiphase_hc_ois.wav	3	6	5	noise_calib_stim_RIGHT.wav	2	10	blb_dichoticlistening_da-ka.mp3	da	ka	1	other
6.6.1	win	2023-07-16	22:04:42	0	0	5fc14a9cfddce609bd3e5015	2	1	DL_test	14	DL_test	6			0		pa	0	1238	6	6	antiphase_hc_ois.wav	3	6	5	noise_calib_stim_RIGHT.wav	2	13	blb_dichoticlistening_ga-ba.mp3	ga	ba	1	other
6.6.1	win	2023-07-16	22:04:42	0	0	5fc14a9cfddce609bd3e5015	2	1	DL_test	14	DL_test	7			0		pa	1	894	6	6	antiphase_hc_ois.wav	3	6	5	noise_calib_stim_RIGHT.wav	2	25	blb_dichoticlistening_pa-ba.mp3	pa	ba	1	left
6.6.1	win	2023-07-16	22:04:42	0	0	5fc14a9cfddce609bd3e5015	2	1	DL_test	14	DL_test	8			0		ka	1	753	6	6	antiphase_hc_ois.wav	3	6	5	noise_calib_stim_RIGHT.wav	2	4	blb_dichoticlistening_ba-ka.mp3	ba	ka	1	right
6.6.1	win	2023-07-16	22:04:42	0	0	5fc14a9cfddce609bd3e5015	2	1	DL_test	14	DL_test	9			0		ka	1	1207	6	6	antiphase_hc_ois.wav	3	6	5	noise_calib_stim_RIGHT.wav	2	19	blb_dichoticlistening_ka-ba.mp3	ka	ba	1	left
6.6.1	win	2023-07-16	22:04:42	0	0	5fc14a9cfddce609bd3e5015	2	1	DL_test	14	DL_test	10			0		ka	1	956	6	6	antiphase_hc_ois.wav	3	6	5	noise_calib_stim_RIGHT.wav	2	16	blb_dichoticlistening_ga-ka.mp3	ga	ka	1	right
6.6.1	win	2023-07-16	22:04:42	0	0	5fc14a9cfddce609bd3e5015	2	1	DL_test	14	DL_test	11			0		pa	1	747	6	6	antiphase_hc_ois.wav	3	6	5	noise_calib_stim_RIGHT.wav	2	29	blb_dichoticlistening_pa-pa.mp3	pa	pa	0	left
6.6.1	win	2023-07-16	22:04:42	0	0	5fc14a9cfddce609bd3e5015	2	1	DL_test	14	DL_test	12			0		da	1	2132	6	6	antiphase_hc_ois.wav	3	6	5	noise_calib_stim_RIGHT.wav	2	7	blb_dichoticlistening_da-ba.mp3	da	ba	1	left
6.6.1	win	2023-07-16	22:04:42	0	0	5fc14a9cfddce609bd3e5015	2	1	DL_test	14	DL_test	13			0		ta	0	1153	6	6	antiphase_hc_ois.wav	3	6	5	noise_calib_stim_RIGHT.wav	2	26	blb_dichoticlistening_pa-da.mp3	pa	da	1	other
6.6.1	win	2023-07-16	22:04:42	0	0	5fc14a9cfddce609bd3e5015	2	1	DL_test	14	DL_test	14			0		pa	0	806	6	6	antiphase_hc_ois.wav	3	6	5	noise_calib_stim_RIGHT.wav	2	1	blb_dichoticlistening_ba-ba.mp3	ba	ba	0	other
6.6.1	win	2023-07-16	22:04:42	0	0	5fc14a9cfddce609bd3e5015	2	1	DL_test	14	DL_test	15			0		ta	1	705	6	6	antiphase_hc_ois.wav	3	6	5	noise_calib_stim_RIGHT.wav	2	12	blb_dichoticlistening_da-ta.mp3	da	ta	1	right
6.6.1	win	2023-07-16	22:04:42	0	0	5fc14a9cfddce609bd3e5015	2	1	DL_test	14	DL_test	16			0		ka	1	876	6	6	antiphase_hc_ois.wav	3	6	5	noise_calib_stim_RIGHT.wav	2	34	blb_dichoticlistening_ta-ka.mp3	ta	ka	1	right
6.6.1	win	2023-07-16	22:04:42	0	0	5fc14a9cfddce609bd3e5015	2	1	DL_test	14	DL_test	17			0		ka	1	1447	6	6	antiphase_hc_ois.wav	3	6	5	noise_calib_stim_RIGHT.wav	2	24	blb_dichoticlistening_ka-ta.mp3	ka	ta	1	left
6.6.1	win	2023-07-16	22:04:42	0	0	5fc14a9cfddce609bd3e5015	2	1	DL_test	14	DL_test	18			0		ta	1	880	6	6	antiphase_hc_ois.wav	3	6	5	noise_calib_stim_RIGHT.wav	2	35	blb_dichoticlistening_ta-pa.mp3	ta	pa	1	left
6.6.1	win	2023-07-16	22:04:42	0	0	5fc14a9cfddce609bd3e5015	2	1	DL_test	14	DL_test	19			0		pa	1	1775	6	6	antiphase_hc_ois.wav	3	6	5	noise_calib_stim_RIGHT.wav	2	27	blb_dichoticlistening_pa-ga.mp3	pa	ga	1	left
6.6.1	win	2023-07-16	22:04:42	0	0	5fc14a9cfddce609bd3e5015	2	1	DL_test	14	DL_test	20			0		ta	0	1236	6	6	antiphase_hc_ois.wav	3	6	5	noise_calib_stim_RIGHT.wav	2	17	blb_dichoticlistening_ga-pa.mp3	ga	pa	1	other
6.6.1	win	2023-07-16	22:04:42	0	0	5fc14a9cfddce609bd3e5015	2	1	DL_test	14	DL_test	21			0		pa	1	2199	6	6	antiphase_hc_ois.wav	3	6	5	noise_calib_stim_RIGHT.wav	2	30	blb_dichoticlistening_pa-ta.mp3	pa	ta	1	left
6.6.1	win	2023-07-16	22:04:42	0	0	5fc14a9cfddce609bd3e5015	2	1	DL_test	14	DL_test	22			0		ka	0	1448	6	6	antiphase_hc_ois.wav	3	6	5	noise_calib_stim_RIGHT.wav	2	6	blb_dichoticlistening_ba-ta.mp3	ba	ta	1	other
6.6.1	win	2023-07-16	22:04:42	0	0	5fc14a9cfddce609bd3e5015	2	1	DL_test	14	DL_test	23			0		ka	1	915	6	6	antiphase_hc_ois.wav	3	6	5	noise_calib_stim_RIGHT.wav	2	23	blb_dichoticlistening_ka-pa.mp3	ka	pa	1	left
6.6.1	win	2023-07-16	22:04:42	0	0	5fc14a9cfddce609bd3e5015	2	1	DL_test	14	DL_test	24			0		da	1	861	6	6	antiphase_hc_ois.wav	3	6	5	noise_calib_stim_RIGHT.wav	2	14	blb_dichoticlistening_ga-da.mp3	ga	da	1	right
6.6.1	win	2023-07-16	22:04:42	0	0	5fc14a9cfddce609bd3e5015	2	1	DL_test	14	DL_test	25			0		ta	1	964	6	6	antiphase_hc_ois.wav	3	6	5	noise_calib_stim_RIGHT.wav	2	31	blb_dichoticlistening_ta-ba.mp3	ta	ba	1	left
6.6.1	win	2023-07-16	22:04:42	0	0	5fc14a9cfddce609bd3e5015	2	1	DL_test	14	DL_test	26			0		da	1	903	6	6	antiphase_hc_ois.wav	3	6	5	noise_calib_stim_RIGHT.wav	2	2	blb_dichoticlistening_ba-da.mp3	ba	da	1	right
6.6.1	win	2023-07-16	22:04:42	0	0	5fc14a9cfddce609bd3e5015	2	1	DL_test	14	DL_test	27			0		pa	1	1352	6	6	antiphase_hc_ois.wav	3	6	5	noise_calib_stim_RIGHT.wav	2	11	blb_dichoticlistening_da-pa.mp3	da	pa	1	right
6.6.1	win	2023-07-16	22:04:42	0	0	5fc14a9cfddce609bd3e5015	2	1	DL_test	14	DL_test	28			0		da	1	955	6	6	antiphase_hc_ois.wav	3	6	5	noise_calib_stim_RIGHT.wav	2	8	blb_dichoticlistening_da-da.mp3	da	da	0	left
6.6.1	win	2023-07-16	22:04:42	0	0	5fc14a9cfddce609bd3e5015	2	1	DL_test	14	DL_test	29			0		ka	0	748	6	6	antiphase_hc_ois.wav	3	6	5	noise_calib_stim_RIGHT.wav	2	18	blb_dichoticlistening_ga-ta.mp3	ga	ta	1	other
6.6.1	win	2023-07-16	22:04:42	0	0	5fc14a9cfddce609bd3e5015	2	1	DL_test	14	DL_test	30			0		ka	1	810	6	6	antiphase_hc_ois.wav	3	6	5	noise_calib_stim_RIGHT.wav	2	20	blb_dichoticlistening_ka-da.mp3	ka	da	1	left
6.6.1	win	2023-07-16	22:04:42	0	0	5fc14a9cfddce609bd3e5015	2	1	DL_test	14	DL_test	31			0		ta	1	1162	6	6	antiphase_hc_ois.wav	3	6	5	noise_calib_stim_RIGHT.wav	2	32	blb_dichoticlistening_ta-da.mp3	ta	da	1	left
6.6.1	win	2023-07-16	22:04:42	0	0	5fc14a9cfddce609bd3e5015	2	1	DL_test	14	DL_test	32			0		pa	1	664	6	6	antiphase_hc_ois.wav	3	6	5	noise_calib_stim_RIGHT.wav	2	5	blb_dichoticlistening_ba-pa.mp3	ba	pa	1	right
6.6.1	win	2023-07-16	22:04:42	0	0	5fc14a9cfddce609bd3e5015	2	1	DL_test	14	DL_test	33			0		ta	1	815	6	6	antiphase_hc_ois.wav	3	6	5	noise_calib_stim_RIGHT.wav	2	36	blb_dichoticlistening_ta-ta.mp3	ta	ta	0	left
6.6.1	win	2023-07-16	22:04:42	0	0	5fc14a9cfddce609bd3e5015	2	1	DL_test	14	DL_test	34			0		ga	1	884	6	6	antiphase_hc_ois.wav	3	6	5	noise_calib_stim_RIGHT.wav	2	15	blb_dichoticlistening_ga-ga.mp3	ga	ga	0	left
6.6.1	win	2023-07-16	22:04:42	0	0	5fc14a9cfddce609bd3e5015	2	1	DL_test	14	DL_test	35			0		da	1	825	6	6	antiphase_hc_ois.wav	3	6	5	noise_calib_stim_RIGHT.wav	2	9	blb_dichoticlistening_da-ga.mp3	da	ga	1	left
6.6.1	win	2023-07-16	22:04:42	0	0	5fc14a9cfddce609bd3e5015	2	1	DL_test	14	DL_test	36			0		ka	0	808	6	6	antiphase_hc_ois.wav	3	6	5	noise_calib_stim_RIGHT.wav	2	33	blb_dichoticlistening_ta-ga.mp3	ta	ga	1	other
6.6.1	win	2023-07-16	22:04:42	0	0	5fc14a9cfddce609bd3e5015	2	1	DL_test	15	DL_test	1			0		ka	1	694	6	6	antiphase_hc_ois.wav	3	6	5	noise_calib_stim_RIGHT.wav	2	16	blb_dichoticlistening_ga-ka.mp3	ga	ka	1	right
6.6.1	win	2023-07-16	22:04:42	0	0	5fc14a9cfddce609bd3e5015	2	1	DL_test	15	DL_test	2			0		pa	0	864	6	6	antiphase_hc_ois.wav	3	6	5	noise_calib_stim_RIGHT.wav	2	1	blb_dichoticlistening_ba-ba.mp3	ba	ba	0	other
6.6.1	win	2023-07-16	22:04:42	0	0	5fc14a9cfddce609bd3e5015	2	1	DL_test	15	DL_test	3			0		ka	1	689	6	6	antiphase_hc_ois.wav	3	6	5	noise_calib_stim_RIGHT.wav	2	4	blb_dichoticlistening_ba-ka.mp3	ba	ka	1	right
6.6.1	win	2023-07-16	22:04:42	0	0	5fc14a9cfddce609bd3e5015	2	1	DL_test	15	DL_test	4			0		ka	1	622	6	6	antiphase_hc_ois.wav	3	6	5	noise_calib_stim_RIGHT.wav	2	22	blb_dichoticlistening_ka-ka.mp3	ka	ka	0	left
6.6.1	win	2023-07-16	22:04:42	0	0	5fc14a9cfddce609bd3e5015	2	1	DL_test	15	DL_test	5			0		ka	1	910	6	6	antiphase_hc_ois.wav	3	6	5	noise_calib_stim_RIGHT.wav	2	19	blb_dichoticlistening_ka-ba.mp3	ka	ba	1	left
6.6.1	win	2023-07-16	22:04:42	0	0	5fc14a9cfddce609bd3e5015	2	1	DL_test	15	DL_test	6			0		ga	1	1192	6	6	antiphase_hc_ois.wav	3	6	5	noise_calib_stim_RIGHT.wav	2	33	blb_dichoticlistening_ta-ga.mp3	ta	ga	1	right
6.6.1	win	2023-07-16	22:04:42	0	0	5fc14a9cfddce609bd3e5015	2	1	DL_test	15	DL_test	7			0		pa	1	745	6	6	antiphase_hc_ois.wav	3	6	5	noise_calib_stim_RIGHT.wav	2	29	blb_dichoticlistening_pa-pa.mp3	pa	pa	0	left
6.6.1	win	2023-07-16	22:04:42	0	0	5fc14a9cfddce609bd3e5015	2	1	DL_test	15	DL_test	8			0		da	1	793	6	6	antiphase_hc_ois.wav	3	6	5	noise_calib_stim_RIGHT.wav	2	2	blb_dichoticlistening_ba-da.mp3	ba	da	1	right
6.6.1	win	2023-07-16	22:04:42	0	0	5fc14a9cfddce609bd3e5015	2	1	DL_test	15	DL_test	9			0		ka	0	823	6	6	antiphase_hc_ois.wav	3	6	5	noise_calib_stim_RIGHT.wav	2	6	blb_dichoticlistening_ba-ta.mp3	ba	ta	1	other
6.6.1	win	2023-07-16	22:04:42	0	0	5fc14a9cfddce609bd3e5015	2	1	DL_test	15	DL_test	10			0		da	1	833	6	6	antiphase_hc_ois.wav	3	6	5	noise_calib_stim_RIGHT.wav	2	14	blb_dichoticlistening_ga-da.mp3	ga	da	1	right
6.6.1	win	2023-07-16	22:04:42	0	0	5fc14a9cfddce609bd3e5015	2	1	DL_test	15	DL_test	11			0		da	1	662	6	6	antiphase_hc_ois.wav	3	6	5	noise_calib_stim_RIGHT.wav	2	9	blb_dichoticlistening_da-ga.mp3	da	ga	1	left
6.6.1	win	2023-07-16	22:04:42	0	0	5fc14a9cfddce609bd3e5015	2	1	DL_test	15	DL_test	12			0		ka	1	901	6	6	antiphase_hc_ois.wav	3	6	5	noise_calib_stim_RIGHT.wav	2	23	blb_dichoticlistening_ka-pa.mp3	ka	pa	1	left
6.6.1	win	2023-07-16	22:04:42	0	0	5fc14a9cfddce609bd3e5015	2	1	DL_test	15	DL_test	13			0		ka	0	1710	6	6	antiphase_hc_ois.wav	3	6	5	noise_calib_stim_RIGHT.wav	2	27	blb_dichoticlistening_pa-ga.mp3	pa	ga	1	other
6.6.1	win	2023-07-16	22:04:42	0	0	5fc14a9cfddce609bd3e5015	2	1	DL_test	15	DL_test	14			0		ta	0	989	6	6	antiphase_hc_ois.wav	3	6	5	noise_calib_stim_RIGHT.wav	2	11	blb_dichoticlistening_da-pa.mp3	da	pa	1	other
6.6.1	win	2023-07-16	22:04:42	0	0	5fc14a9cfddce609bd3e5015	2	1	DL_test	15	DL_test	15			0		pa	0	1935	6	6	antiphase_hc_ois.wav	3	6	5	noise_calib_stim_RIGHT.wav	2	10	blb_dichoticlistening_da-ka.mp3	da	ka	1	other
6.6.1	win	2023-07-16	22:04:42	0	0	5fc14a9cfddce609bd3e5015	2	1	DL_test	15	DL_test	16			0		ta	1	742	6	6	antiphase_hc_ois.wav	3	6	5	noise_calib_stim_RIGHT.wav	2	36	blb_dichoticlistening_ta-ta.mp3	ta	ta	0	left
6.6.1	win	2023-07-16	22:04:42	0	0	5fc14a9cfddce609bd3e5015	2	1	DL_test	15	DL_test	17			0		ga	1	912	6	6	antiphase_hc_ois.wav	3	6	5	noise_calib_stim_RIGHT.wav	2	15	blb_dichoticlistening_ga-ga.mp3	ga	ga	0	left
6.6.1	win	2023-07-16	22:04:42	0	0	5fc14a9cfddce609bd3e5015	2	1	DL_test	15	DL_test	18			0		ta	1	1000	6	6	antiphase_hc_ois.wav	3	6	5	noise_calib_stim_RIGHT.wav	2	32	blb_dichoticlistening_ta-da.mp3	ta	da	1	left
6.6.1	win	2023-07-16	22:04:42	0	0	5fc14a9cfddce609bd3e5015	2	1	DL_test	15	DL_test	19			0		da	1	1183	6	6	antiphase_hc_ois.wav	3	6	5	noise_calib_stim_RIGHT.wav	2	26	blb_dichoticlistening_pa-da.mp3	pa	da	1	right
6.6.1	win	2023-07-16	22:04:42	0	0	5fc14a9cfddce609bd3e5015	2	1	DL_test	15	DL_test	20			0		da	1	962	6	6	antiphase_hc_ois.wav	3	6	5	noise_calib_stim_RIGHT.wav	2	7	blb_dichoticlistening_da-ba.mp3	da	ba	1	left
6.6.1	win	2023-07-16	22:04:42	0	0	5fc14a9cfddce609bd3e5015	2	1	DL_test	15	DL_test	21			0		ka	1	904	6	6	antiphase_hc_ois.wav	3	6	5	noise_calib_stim_RIGHT.wav	2	20	blb_dichoticlistening_ka-da.mp3	ka	da	1	left
6.6.1	win	2023-07-16	22:04:42	0	0	5fc14a9cfddce609bd3e5015	2	1	DL_test	15	DL_test	22			0		ka	1	712	6	6	antiphase_hc_ois.wav	3	6	5	noise_calib_stim_RIGHT.wav	2	34	blb_dichoticlistening_ta-ka.mp3	ta	ka	1	right
6.6.1	win	2023-07-16	22:04:42	0	0	5fc14a9cfddce609bd3e5015	2	1	DL_test	15	DL_test	23			0		ga	1	1963	6	6	antiphase_hc_ois.wav	3	6	5	noise_calib_stim_RIGHT.wav	2	3	blb_dichoticlistening_ba-ga.mp3	ba	ga	1	right
6.6.1	win	2023-07-16	22:04:42	0	0	5fc14a9cfddce609bd3e5015	2	1	DL_test	15	DL_test	24			0		ta	1	897	6	6	antiphase_hc_ois.wav	3	6	5	noise_calib_stim_RIGHT.wav	2	12	blb_dichoticlistening_da-ta.mp3	da	ta	1	right
6.6.1	win	2023-07-16	22:04:42	0	0	5fc14a9cfddce609bd3e5015	2	1	DL_test	15	DL_test	25			0		pa	1	1285	6	6	antiphase_hc_ois.wav	3	6	5	noise_calib_stim_RIGHT.wav	2	28	blb_dichoticlistening_pa-ka.mp3	pa	ka	1	left
6.6.1	win	2023-07-16	22:04:42	0	0	5fc14a9cfddce609bd3e5015	2	1	DL_test	15	DL_test	26			0		ka	1	882	6	6	antiphase_hc_ois.wav	3	6	5	noise_calib_stim_RIGHT.wav	2	21	blb_dichoticlistening_ka-ga.mp3	ka	ga	1	left
6.6.1	win	2023-07-16	22:04:42	0	0	5fc14a9cfddce609bd3e5015	2	1	DL_test	15	DL_test	27			0		pa	1	1143	6	6	antiphase_hc_ois.wav	3	6	5	noise_calib_stim_RIGHT.wav	2	17	blb_dichoticlistening_ga-pa.mp3	ga	pa	1	right
6.6.1	win	2023-07-16	22:04:42	0	0	5fc14a9cfddce609bd3e5015	2	1	DL_test	15	DL_test	28			0		ka	1	947	6	6	antiphase_hc_ois.wav	3	6	5	noise_calib_stim_RIGHT.wav	2	24	blb_dichoticlistening_ka-ta.mp3	ka	ta	1	left
6.6.1	win	2023-07-16	22:04:42	0	0	5fc14a9cfddce609bd3e5015	2	1	DL_test	15	DL_test	29			0		pa	1	727	6	6	antiphase_hc_ois.wav	3	6	5	noise_calib_stim_RIGHT.wav	2	25	blb_dichoticlistening_pa-ba.mp3	pa	ba	1	left
6.6.1	win	2023-07-16	22:04:42	0	0	5fc14a9cfddce609bd3e5015	2	1	DL_test	15	DL_test	30			0		ta	1	784	6	6	antiphase_hc_ois.wav	3	6	5	noise_calib_stim_RIGHT.wav	2	35	blb_dichoticlistening_ta-pa.mp3	ta	pa	1	left
6.6.1	win	2023-07-16	22:04:42	0	0	5fc14a9cfddce609bd3e5015	2	1	DL_test	15	DL_test	31			0		da	1	1035	6	6	antiphase_hc_ois.wav	3	6	5	noise_calib_stim_RIGHT.wav	2	8	blb_dichoticlistening_da-da.mp3	da	da	0	left
6.6.1	win	2023-07-16	22:04:42	0	0	5fc14a9cfddce609bd3e5015	2	1	DL_test	15	DL_test	32			0		ka	0	1178	6	6	antiphase_hc_ois.wav	3	6	5	noise_calib_stim_RIGHT.wav	2	18	blb_dichoticlistening_ga-ta.mp3	ga	ta	1	other
6.6.1	win	2023-07-16	22:04:42	0	0	5fc14a9cfddce609bd3e5015	2	1	DL_test	15	DL_test	33			0		da	0	1455	6	6	antiphase_hc_ois.wav	3	6	5	noise_calib_stim_RIGHT.wav	2	13	blb_dichoticlistening_ga-ba.mp3	ga	ba	1	other
6.6.1	win	2023-07-16	22:04:42	0	0	5fc14a9cfddce609bd3e5015	2	1	DL_test	15	DL_test	34			0		ta	1	1555	6	6	antiphase_hc_ois.wav	3	6	5	noise_calib_stim_RIGHT.wav	2	30	blb_dichoticlistening_pa-ta.mp3	pa	ta	1	right
6.6.1	win	2023-07-16	22:04:42	0	0	5fc14a9cfddce609bd3e5015	2	1	DL_test	15	DL_test	35			0		ka	0	2654	6	6	antiphase_hc_ois.wav	3	6	5	noise_calib_stim_RIGHT.wav	2	31	blb_dichoticlistening_ta-ba.mp3	ta	ba	1	other
6.6.1	win	2023-07-16	22:04:42	0	0	5fc14a9cfddce609bd3e5015	2	1	DL_test	15	DL_test	36			0		pa	1	756	6	6	antiphase_hc_ois.wav	3	6	5	noise_calib_stim_RIGHT.wav	2	5	blb_dichoticlistening_ba-pa.mp3	ba	pa	1	right
6.6.1	win	2023-07-16	22:04:42	0	0	5fc14a9cfddce609bd3e5015	2	1	DL_test	16	DL_test	1			0		ka	1	778	6	6	antiphase_hc_ois.wav	3	6	5	noise_calib_stim_RIGHT.wav	2	16	blb_dichoticlistening_ga-ka.mp3	ga	ka	1	right
6.6.1	win	2023-07-16	22:04:42	0	0	5fc14a9cfddce609bd3e5015	2	1	DL_test	16	DL_test	2			0		ta	0	944	6	6	antiphase_hc_ois.wav	3	6	5	noise_calib_stim_RIGHT.wav	2	10	blb_dichoticlistening_da-ka.mp3	da	ka	1	other
6.6.1	win	2023-07-16	22:04:42	0	0	5fc14a9cfddce609bd3e5015	2	1	DL_test	16	DL_test	3			0		ta	1	1119	6	6	antiphase_hc_ois.wav	3	6	5	noise_calib_stim_RIGHT.wav	2	35	blb_dichoticlistening_ta-pa.mp3	ta	pa	1	left
6.6.1	win	2023-07-16	22:04:42	0	0	5fc14a9cfddce609bd3e5015	2	1	DL_test	16	DL_test	4			0		da	1	814	6	6	antiphase_hc_ois.wav	3	6	5	noise_calib_stim_RIGHT.wav	2	9	blb_dichoticlistening_da-ga.mp3	da	ga	1	left
6.6.1	win	2023-07-16	22:04:42	0	0	5fc14a9cfddce609bd3e5015	2	1	DL_test	16	DL_test	5			0		da	1	721	6	6	antiphase_hc_ois.wav	3	6	5	noise_calib_stim_RIGHT.wav	2	8	blb_dichoticlistening_da-da.mp3	da	da	0	left
6.6.1	win	2023-07-16	22:04:42	0	0	5fc14a9cfddce609bd3e5015	2	1	DL_test	16	DL_test	6			0		ta	1	921	6	6	antiphase_hc_ois.wav	3	6	5	noise_calib_stim_RIGHT.wav	2	30	blb_dichoticlistening_pa-ta.mp3	pa	ta	1	right
6.6.1	win	2023-07-16	22:04:42	0	0	5fc14a9cfddce609bd3e5015	2	1	DL_test	16	DL_test	7			0		ka	1	997	6	6	antiphase_hc_ois.wav	3	6	5	noise_calib_stim_RIGHT.wav	2	23	blb_dichoticlistening_ka-pa.mp3	ka	pa	1	left
6.6.1	win	2023-07-16	22:04:42	0	0	5fc14a9cfddce609bd3e5015	2	1	DL_test	16	DL_test	8			0		ta	1	890	6	6	antiphase_hc_ois.wav	3	6	5	noise_calib_stim_RIGHT.wav	2	12	blb_dichoticlistening_da-ta.mp3	da	ta	1	right
6.6.1	win	2023-07-16	22:04:42	0	0	5fc14a9cfddce609bd3e5015	2	1	DL_test	16	DL_test	9			0		ka	0	1248	6	6	antiphase_hc_ois.wav	3	6	5	noise_calib_stim_RIGHT.wav	2	18	blb_dichoticlistening_ga-ta.mp3	ga	ta	1	other
6.6.1	win	2023-07-16	22:04:42	0	0	5fc14a9cfddce609bd3e5015	2	1	DL_test	16	DL_test	10			0		pa	0	1032	6	6	antiphase_hc_ois.wav	3	6	5	noise_calib_stim_RIGHT.wav	2	13	blb_dichoticlistening_ga-ba.mp3	ga	ba	1	other
6.6.1	win	2023-07-16	22:04:42	0	0	5fc14a9cfddce609bd3e5015	2	1	DL_test	16	DL_test	11			0		ka	1	829	6	6	antiphase_hc_ois.wav	3	6	5	noise_calib_stim_RIGHT.wav	2	34	blb_dichoticlistening_ta-ka.mp3	ta	ka	1	right
6.6.1	win	2023-07-16	22:04:42	0	0	5fc14a9cfddce609bd3e5015	2	1	DL_test	16	DL_test	12			0		pa	1	867	6	6	antiphase_hc_ois.wav	3	6	5	noise_calib_stim_RIGHT.wav	2	25	blb_dichoticlistening_pa-ba.mp3	pa	ba	1	left
6.6.1	win	2023-07-16	22:04:42	0	0	5fc14a9cfddce609bd3e5015	2	1	DL_test	16	DL_test	13			0		ka	1	772	6	6	antiphase_hc_ois.wav	3	6	5	noise_calib_stim_RIGHT.wav	2	24	blb_dichoticlistening_ka-ta.mp3	ka	ta	1	left
6.6.1	win	2023-07-16	22:04:42	0	0	5fc14a9cfddce609bd3e5015	2	1	DL_test	16	DL_test	14			0		ta	0	864	6	6	antiphase_hc_ois.wav	3	6	5	noise_calib_stim_RIGHT.wav	2	11	blb_dichoticlistening_da-pa.mp3	da	pa	1	other
6.6.1	win	2023-07-16	22:04:42	0	0	5fc14a9cfddce609bd3e5015	2	1	DL_test	16	DL_test	15			0		pa	1	705	6	6	antiphase_hc_ois.wav	3	6	5	noise_calib_stim_RIGHT.wav	2	29	blb_dichoticlistening_pa-pa.mp3	pa	pa	0	left
6.6.1	win	2023-07-16	22:04:42	0	0	5fc14a9cfddce609bd3e5015	2	1	DL_test	16	DL_test	16			0		da	1	809	6	6	antiphase_hc_ois.wav	3	6	5	noise_calib_stim_RIGHT.wav	2	2	blb_dichoticlistening_ba-da.mp3	ba	da	1	right
6.6.1	win	2023-07-16	22:04:42	0	0	5fc14a9cfddce609bd3e5015	2	1	DL_test	16	DL_test	17			0		ka	1	866	6	6	antiphase_hc_ois.wav	3	6	5	noise_calib_stim_RIGHT.wav	2	19	blb_dichoticlistening_ka-ba.mp3	ka	ba	1	left
6.6.1	win	2023-07-16	22:04:42	0	0	5fc14a9cfddce609bd3e5015	2	1	DL_test	16	DL_test	18			0		ka	1	781	6	6	antiphase_hc_ois.wav	3	6	5	noise_calib_stim_RIGHT.wav	2	28	blb_dichoticlistening_pa-ka.mp3	pa	ka	1	right
6.6.1	win	2023-07-16	22:04:42	0	0	5fc14a9cfddce609bd3e5015	2	1	DL_test	16	DL_test	19			0		ga	1	1195	6	6	antiphase_hc_ois.wav	3	6	5	noise_calib_stim_RIGHT.wav	2	17	blb_dichoticlistening_ga-pa.mp3	ga	pa	1	left
6.6.1	win	2023-07-16	22:04:42	0	0	5fc14a9cfddce609bd3e5015	2	1	DL_test	16	DL_test	20			0		ta	1	1242	6	6	antiphase_hc_ois.wav	3	6	5	noise_calib_stim_RIGHT.wav	2	32	blb_dichoticlistening_ta-da.mp3	ta	da	1	left
6.6.1	win	2023-07-16	22:04:42	0	0	5fc14a9cfddce609bd3e5015	2	1	DL_test	16	DL_test	21			0		ga	1	803	6	6	antiphase_hc_ois.wav	3	6	5	noise_calib_stim_RIGHT.wav	2	15	blb_dichoticlistening_ga-ga.mp3	ga	ga	0	left
6.6.1	win	2023-07-16	22:04:42	0	0	5fc14a9cfddce609bd3e5015	2	1	DL_test	16	DL_test	22			0		da	1	855	6	6	antiphase_hc_ois.wav	3	6	5	noise_calib_stim_RIGHT.wav	2	7	blb_dichoticlistening_da-ba.mp3	da	ba	1	left
6.6.1	win	2023-07-16	22:04:42	0	0	5fc14a9cfddce609bd3e5015	2	1	DL_test	16	DL_test	23			0		pa	1	874	6	6	antiphase_hc_ois.wav	3	6	5	noise_calib_stim_RIGHT.wav	2	5	blb_dichoticlistening_ba-pa.mp3	ba	pa	1	right
6.6.1	win	2023-07-16	22:04:42	0	0	5fc14a9cfddce609bd3e5015	2	1	DL_test	16	DL_test	24			0		ta	0	890	6	6	antiphase_hc_ois.wav	3	6	5	noise_calib_stim_RIGHT.wav	2	26	blb_dichoticlistening_pa-da.mp3	pa	da	1	other
6.6.1	win	2023-07-16	22:04:42	0	0	5fc14a9cfddce609bd3e5015	2	1	DL_test	16	DL_test	25			0		pa	1	854	6	6	antiphase_hc_ois.wav	3	6	5	noise_calib_stim_RIGHT.wav	2	27	blb_dichoticlistening_pa-ga.mp3	pa	ga	1	left
6.6.1	win	2023-07-16	22:04:42	0	0	5fc14a9cfddce609bd3e5015	2	1	DL_test	16	DL_test	26			0		ka	1	717	6	6	antiphase_hc_ois.wav	3	6	5	noise_calib_stim_RIGHT.wav	2	21	blb_dichoticlistening_ka-ga.mp3	ka	ga	1	left
6.6.1	win	2023-07-16	22:04:42	0	0	5fc14a9cfddce609bd3e5015	2	1	DL_test	16	DL_test	27			0		ka	0	1728	6	6	antiphase_hc_ois.wav	3	6	5	noise_calib_stim_RIGHT.wav	2	31	blb_dichoticlistening_ta-ba.mp3	ta	ba	1	other
6.6.1	win	2023-07-16	22:04:42	0	0	5fc14a9cfddce609bd3e5015	2	1	DL_test	16	DL_test	28			0		pa	0	861	6	6	antiphase_hc_ois.wav	3	6	5	noise_calib_stim_RIGHT.wav	2	1	blb_dichoticlistening_ba-ba.mp3	ba	ba	0	other
6.6.1	win	2023-07-16	22:04:42	0	0	5fc14a9cfddce609bd3e5015	2	1	DL_test	16	DL_test	29			0		ta	1	809	6	6	antiphase_hc_ois.wav	3	6	5	noise_calib_stim_RIGHT.wav	2	36	blb_dichoticlistening_ta-ta.mp3	ta	ta	0	left
6.6.1	win	2023-07-16	22:04:42	0	0	5fc14a9cfddce609bd3e5015	2	1	DL_test	16	DL_test	30			0		ka	1	806	6	6	antiphase_hc_ois.wav	3	6	5	noise_calib_stim_RIGHT.wav	2	4	blb_dichoticlistening_ba-ka.mp3	ba	ka	1	right
6.6.1	win	2023-07-16	22:04:42	0	0	5fc14a9cfddce609bd3e5015	2	1	DL_test	16	DL_test	31			0		ka	1	898	6	6	antiphase_hc_ois.wav	3	6	5	noise_calib_stim_RIGHT.wav	2	20	blb_dichoticlistening_ka-da.mp3	ka	da	1	left
6.6.1	win	2023-07-16	22:04:42	0	0	5fc14a9cfddce609bd3e5015	2	1	DL_test	16	DL_test	32			0		da	1	862	6	6	antiphase_hc_ois.wav	3	6	5	noise_calib_stim_RIGHT.wav	2	14	blb_dichoticlistening_ga-da.mp3	ga	da	1	right
6.6.1	win	2023-07-16	22:04:42	0	0	5fc14a9cfddce609bd3e5015	2	1	DL_test	16	DL_test	33			0		ga	1	929	6	6	antiphase_hc_ois.wav	3	6	5	noise_calib_stim_RIGHT.wav	2	3	blb_dichoticlistening_ba-ga.mp3	ba	ga	1	right
6.6.1	win	2023-07-16	22:04:42	0	0	5fc14a9cfddce609bd3e5015	2	1	DL_test	16	DL_test	34			0		ka	0	844	6	6	antiphase_hc_ois.wav	3	6	5	noise_calib_stim_RIGHT.wav	2	6	blb_dichoticlistening_ba-ta.mp3	ba	ta	1	other
6.6.1	win	2023-07-16	22:04:42	0	0	5fc14a9cfddce609bd3e5015	2	1	DL_test	16	DL_test	35			0		ka	0	761	6	6	antiphase_hc_ois.wav	3	6	5	noise_calib_stim_RIGHT.wav	2	33	blb_dichoticlistening_ta-ga.mp3	ta	ga	1	other
6.6.1	win	2023-07-16	22:04:42	0	0	5fc14a9cfddce609bd3e5015	2	1	DL_test	16	DL_test	36			0		ka	1	685	6	6	antiphase_hc_ois.wav	3	6	5	noise_calib_stim_RIGHT.wav	2	22	blb_dichoticlistening_ka-ka.mp3	ka	ka	0	left
6.6.1	win	2023-07-16	22:04:42	22:17:40	770161	5fc14a9cfddce609bd3e5015	2	1	practice_z	22	practice_z	1	stimuli_distractor_trianglediamonds.svg	stimuli_target_diamondrectangles.svg	12	yes	44	1	1649	6	6	antiphase_hc_ois.wav	3	6	5	noise_calib_stim_RIGHT.wav	2	22	blb_dichoticlistening_ka-ka.mp3	ka	ka	0	left
6.6.1	win	2023-07-16	22:04:42	22:17:40	770161	5fc14a9cfddce609bd3e5015	2	1	practice_z	22	advance_on_keypress_ZEE	2	stimuli_distractor_trianglediamonds.svg	stimuli_target_diamondrectangles.svg	12	yes	57	0	2268	6	6	antiphase_hc_ois.wav	3	6	5	noise_calib_stim_RIGHT.wav	2	22	blb_dichoticlistening_ka-ka.mp3	ka	ka	0	left
6.6.1	win	2023-07-16	22:04:42	22:17:45	774916	5fc14a9cfddce609bd3e5015	2	1	practice_z	22	practice_z	3	stimuli_target_diamondsquares.svg	stimuli_distractor_diamondtriangles.svg	3	yes	44	1	835	6	6	antiphase_hc_ois.wav	3	6	5	noise_calib_stim_RIGHT.wav	2	22	blb_dichoticlistening_ka-ka.mp3	ka	ka	0	left
6.6.1	win	2023-07-16	22:04:42	22:17:45	774916	5fc14a9cfddce609bd3e5015	2	1	practice_z	22	advance_on_keypress_ZEE	4	stimuli_target_diamondsquares.svg	stimuli_distractor_diamondtriangles.svg	3	yes	57	0	1082	6	6	antiphase_hc_ois.wav	3	6	5	noise_calib_stim_RIGHT.wav	2	22	blb_dichoticlistening_ka-ka.mp3	ka	ka	0	left
6.6.1	win	2023-07-16	22:04:42	22:17:49	778957	5fc14a9cfddce609bd3e5015	2	1	practice_z	22	practice_z	5	stimuli_distractor_trianglediamonds.svg	stimuli_target_squarediamonds.svg	11	yes	44	1	1311	6	6	antiphase_hc_ois.wav	3	6	5	noise_calib_stim_RIGHT.wav	2	22	blb_dichoticlistening_ka-ka.mp3	ka	ka	0	left
6.6.1	win	2023-07-16	22:04:42	22:17:49	778957	5fc14a9cfddce609bd3e5015	2	1	practice_z	22	advance_on_keypress_ZEE	6	stimuli_distractor_trianglediamonds.svg	stimuli_target_squarediamonds.svg	11	yes	57	0	406	6	6	antiphase_hc_ois.wav	3	6	5	noise_calib_stim_RIGHT.wav	2	22	blb_dichoticlistening_ka-ka.mp3	ka	ka	0	left
6.6.1	win	2023-07-16	22:04:42	22:17:52	781832	5fc14a9cfddce609bd3e5015	2	1	practice_z	22	practice_z	7	stimuli_distractor_trianglediamonds.svg	stimuli_target_rectanglediamonds.svg	10	yes	44	1	804	6	6	antiphase_hc_ois.wav	3	6	5	noise_calib_stim_RIGHT.wav	2	22	blb_dichoticlistening_ka-ka.mp3	ka	ka	0	left
6.6.1	win	2023-07-16	22:04:42	22:17:52	781832	5fc14a9cfddce609bd3e5015	2	1	practice_z	22	advance_on_keypress_ZEE	8	stimuli_distractor_trianglediamonds.svg	stimuli_target_rectanglediamonds.svg	10	yes	57	0	274	6	6	antiphase_hc_ois.wav	3	6	5	noise_calib_stim_RIGHT.wav	2	22	blb_dichoticlistening_ka-ka.mp3	ka	ka	0	left
6.6.1	win	2023-07-16	22:04:42	22:17:54	784147	5fc14a9cfddce609bd3e5015	2	1	practice_z	22	practice_z	9	stimuli_target_squarediamonds.svg	stimuli_distractor_trianglediamonds.svg	5	yes	44	1	402	6	6	antiphase_hc_ois.wav	3	6	5	noise_calib_stim_RIGHT.wav	2	22	blb_dichoticlistening_ka-ka.mp3	ka	ka	0	left
6.6.1	win	2023-07-16	22:04:42	22:17:54	784147	5fc14a9cfddce609bd3e5015	2	1	practice_z	22	advance_on_keypress_ZEE	10	stimuli_target_squarediamonds.svg	stimuli_distractor_trianglediamonds.svg	5	yes	57	0	219	6	6	antiphase_hc_ois.wav	3	6	5	noise_calib_stim_RIGHT.wav	2	22	blb_dichoticlistening_ka-ka.mp3	ka	ka	0	left
6.6.1	win	2023-07-16	22:04:42	22:17:58	788012	5fc14a9cfddce609bd3e5015	2	1	practice_z	22	practice_z	11	stimuli_distractor_trianglediamonds.svg	stimuli_distractor_diamondtriangles.svg	16	no	0	1	2000	6	6	antiphase_hc_ois.wav	3	6	5	noise_calib_stim_RIGHT.wav	2	22	blb_dichoticlistening_ka-ka.mp3	ka	ka	0	left
6.6.1	win	2023-07-16	22:04:42	22:17:58	788012	5fc14a9cfddce609bd3e5015	2	1	practice_z	22	advance_on_keypress_ZEE	12	stimuli_distractor_trianglediamonds.svg	stimuli_distractor_diamondtriangles.svg	16	no	57	0	628	6	6	antiphase_hc_ois.wav	3	6	5	noise_calib_stim_RIGHT.wav	2	22	blb_dichoticlistening_ka-ka.mp3	ka	ka	0	left
6.6.1	win	2023-07-16	22:04:42	22:18:02	792229	5fc14a9cfddce609bd3e5015	2	1	practice_z	22	practice_z	13	stimuli_distractor_trianglediamonds.svg	stimuli_distractor_trianglediamonds.svg	15	no	44	0	1934	6	6	antiphase_hc_ois.wav	3	6	5	noise_calib_stim_RIGHT.wav	2	22	blb_dichoticlistening_ka-ka.mp3	ka	ka	0	left
6.6.1	win	2023-07-16	22:04:42	22:18:02	792229	5fc14a9cfddce609bd3e5015	2	1	practice_z	22	advance_on_keypress_ZEE	14	stimuli_distractor_trianglediamonds.svg	stimuli_distractor_trianglediamonds.svg	15	no	57	0	490	6	6	antiphase_hc_ois.wav	3	6	5	noise_calib_stim_RIGHT.wav	2	22	blb_dichoticlistening_ka-ka.mp3	ka	ka	0	left
6.6.1	win	2023-07-16	22:04:42	22:18:05	795277	5fc14a9cfddce609bd3e5015	2	1	practice_z	22	practice_z	15	stimuli_target_diamondsquares.svg	stimuli_distractor_trianglediamonds.svg	6	yes	44	1	915	6	6	antiphase_hc_ois.wav	3	6	5	noise_calib_stim_RIGHT.wav	2	22	blb_dichoticlistening_ka-ka.mp3	ka	ka	0	left
6.6.1	win	2023-07-16	22:04:42	22:18:05	795277	5fc14a9cfddce609bd3e5015	2	1	practice_z	22	advance_on_keypress_ZEE	16	stimuli_target_diamondsquares.svg	stimuli_distractor_trianglediamonds.svg	6	yes	57	0	511	6	6	antiphase_hc_ois.wav	3	6	5	noise_calib_stim_RIGHT.wav	2	22	blb_dichoticlistening_ka-ka.mp3	ka	ka	0	left
6.6.1	win	2023-07-16	22:04:42	22:18:08	798253	5fc14a9cfddce609bd3e5015	2	1	practice_z	22	practice_z	17	stimuli_target_squarediamonds.svg	stimuli_distractor_diamondtriangles.svg	2	yes	44	1	809	6	6	antiphase_hc_ois.wav	3	6	5	noise_calib_stim_RIGHT.wav	2	22	blb_dichoticlistening_ka-ka.mp3	ka	ka	0	left
6.6.1	win	2023-07-16	22:04:42	22:18:08	798253	5fc14a9cfddce609bd3e5015	2	1	practice_z	22	advance_on_keypress_ZEE	18	stimuli_target_squarediamonds.svg	stimuli_distractor_diamondtriangles.svg	2	yes	57	0	294	6	6	antiphase_hc_ois.wav	3	6	5	noise_calib_stim_RIGHT.wav	2	22	blb_dichoticlistening_ka-ka.mp3	ka	ka	0	left
6.6.1	win	2023-07-16	22:04:42	22:18:11	801035	5fc14a9cfddce609bd3e5015	2	1	practice_z	22	practice_z	19	stimuli_target_rectanglediamonds.svg	stimuli_distractor_trianglediamonds.svg	4	yes	44	1	840	6	6	antiphase_hc_ois.wav	3	6	5	noise_calib_stim_RIGHT.wav	2	22	blb_dichoticlistening_ka-ka.mp3	ka	ka	0	left
6.6.1	win	2023-07-16	22:04:42	22:18:11	801035	5fc14a9cfddce609bd3e5015	2	1	practice_z	22	advance_on_keypress_ZEE	20	stimuli_target_rectanglediamonds.svg	stimuli_distractor_trianglediamonds.svg	4	yes	57	0	333	6	6	antiphase_hc_ois.wav	3	6	5	noise_calib_stim_RIGHT.wav	2	22	blb_dichoticlistening_ka-ka.mp3	ka	ka	0	left
6.6.1	win	2023-07-16	22:04:42	22:18:14	804062	5fc14a9cfddce609bd3e5015	2	1	practice_z	22	practice_z	21	stimuli_distractor_diamondtriangles.svg	stimuli_target_diamondrectangles.svg	8	yes	44	1	1051	6	6	antiphase_hc_ois.wav	3	6	5	noise_calib_stim_RIGHT.wav	2	22	blb_dichoticlistening_ka-ka.mp3	ka	ka	0	left
6.6.1	win	2023-07-16	22:04:42	22:18:14	804062	5fc14a9cfddce609bd3e5015	2	1	practice_z	22	advance_on_keypress_ZEE	22	stimuli_distractor_diamondtriangles.svg	stimuli_target_diamondrectangles.svg	8	yes	57	0	319	6	6	antiphase_hc_ois.wav	3	6	5	noise_calib_stim_RIGHT.wav	2	22	blb_dichoticlistening_ka-ka.mp3	ka	ka	0	left
6.6.1	win	2023-07-16	22:04:42	22:18:17	807094	5fc14a9cfddce609bd3e5015	2	1	practice_z	22	practice_z	23	stimuli_target_rectanglediamonds.svg	stimuli_distractor_diamondtriangles.svg	1	yes	44	1	1066	6	6	antiphase_hc_ois.wav	3	6	5	noise_calib_stim_RIGHT.wav	2	22	blb_dichoticlistening_ka-ka.mp3	ka	ka	0	left
6.6.1	win	2023-07-16	22:04:42	22:18:17	807094	5fc14a9cfddce609bd3e5015	2	1	practice_z	22	advance_on_keypress_ZEE	24	stimuli_target_rectanglediamonds.svg	stimuli_distractor_diamondtriangles.svg	1	yes	57	0	335	6	6	antiphase_hc_ois.wav	3	6	5	noise_calib_stim_RIGHT.wav	2	22	blb_dichoticlistening_ka-ka.mp3	ka	ka	0	left
6.6.1	win	2023-07-16	22:04:42	22:18:21	811077	5fc14a9cfddce609bd3e5015	2	1	practice_z	22	practice_z	25	stimuli_distractor_diamondtriangles.svg	stimuli_distractor_diamondtriangles.svg	13	no	0	1	2000	6	6	antiphase_hc_ois.wav	3	6	5	noise_calib_stim_RIGHT.wav	2	22	blb_dichoticlistening_ka-ka.mp3	ka	ka	0	left
6.6.1	win	2023-07-16	22:04:42	22:18:21	811077	5fc14a9cfddce609bd3e5015	2	1	practice_z	22	advance_on_keypress_ZEE	26	stimuli_distractor_diamondtriangles.svg	stimuli_distractor_diamondtriangles.svg	13	no	57	0	442	6	6	antiphase_hc_ois.wav	3	6	5	noise_calib_stim_RIGHT.wav	2	22	blb_dichoticlistening_ka-ka.mp3	ka	ka	0	left
6.6.1	win	2023-07-16	22:04:42	22:18:24	813994	5fc14a9cfddce609bd3e5015	2	1	practice_z	22	practice_z	27	stimuli_distractor_diamondtriangles.svg	stimuli_target_rectangletriangles.svg	7	yes	44	1	816	6	6	antiphase_hc_ois.wav	3	6	5	noise_calib_stim_RIGHT.wav	2	22	blb_dichoticlistening_ka-ka.mp3	ka	ka	0	left
6.6.1	win	2023-07-16	22:04:42	22:18:24	813994	5fc14a9cfddce609bd3e5015	2	1	practice_z	22	advance_on_keypress_ZEE	28	stimuli_distractor_diamondtriangles.svg	stimuli_target_rectangletriangles.svg	7	yes	57	0	309	6	6	antiphase_hc_ois.wav	3	6	5	noise_calib_stim_RIGHT.wav	2	22	blb_dichoticlistening_ka-ka.mp3	ka	ka	0	left
6.6.1	win	2023-07-16	22:04:42	22:18:27	817062	5fc14a9cfddce609bd3e5015	2	1	practice_z	22	practice_z	29	stimuli_distractor_diamondtriangles.svg	stimuli_target_trianglerectangles.svg	9	yes	44	1	1101	6	6	antiphase_hc_ois.wav	3	6	5	noise_calib_stim_RIGHT.wav	2	22	blb_dichoticlistening_ka-ka.mp3	ka	ka	0	left
6.6.1	win	2023-07-16	22:04:42	22:18:27	817062	5fc14a9cfddce609bd3e5015	2	1	practice_z	22	advance_on_keypress_ZEE	30	stimuli_distractor_diamondtriangles.svg	stimuli_target_trianglerectangles.svg	9	yes	57	0	478	6	6	antiphase_hc_ois.wav	3	6	5	noise_calib_stim_RIGHT.wav	2	22	blb_dichoticlistening_ka-ka.mp3	ka	ka	0	left
6.6.1	win	2023-07-16	22:04:42	22:18:31	821194	5fc14a9cfddce609bd3e5015	2	1	practice_z	22	practice_z	31	stimuli_distractor_diamondtriangles.svg	stimuli_distractor_trianglediamonds.svg	14	no	0	1	2000	6	6	antiphase_hc_ois.wav	3	6	5	noise_calib_stim_RIGHT.wav	2	22	blb_dichoticlistening_ka-ka.mp3	ka	ka	0	left
6.6.1	win	2023-07-16	22:04:42	22:18:31	821194	5fc14a9cfddce609bd3e5015	2	1	practice_z	22	advance_on_keypress_ZEE	32	stimuli_distractor_diamondtriangles.svg	stimuli_distractor_trianglediamonds.svg	14	no	57	0	617	6	6	antiphase_hc_ois.wav	3	6	5	noise_calib_stim_RIGHT.wav	2	22	blb_dichoticlistening_ka-ka.mp3	ka	ka	0	left
6.6.1	win	2023-07-16	22:04:42	22:18:38	828687	5fc14a9cfddce609bd3e5015	2	1	main_z	24	main_z	1	stimuli_target_diamondsquares.svg	stimuli_distractor_diamondtriangles.svg	24	yes	44	1	795	6	6	antiphase_hc_ois.wav	3	6	5	noise_calib_stim_RIGHT.wav	2	22	blb_dichoticlistening_ka-ka.mp3	ka	ka	0	left
6.6.1	win	2023-07-16	22:04:42	22:18:38	828687	5fc14a9cfddce609bd3e5015	2	1	main_z	24	advance_on_keypress_ZEE	2	stimuli_target_diamondsquares.svg	stimuli_distractor_diamondtriangles.svg	24	yes	57	0	695	6	6	antiphase_hc_ois.wav	3	6	5	noise_calib_stim_RIGHT.wav	2	22	blb_dichoticlistening_ka-ka.mp3	ka	ka	0	left
6.6.1	win	2023-07-16	22:04:42	22:18:41	830820	5fc14a9cfddce609bd3e5015	2	1	main_z	24	main_z	3	stimuli_target_rectangletriangles.svg	stimuli_distractor_trianglediamonds.svg	1	yes	44	1	778	6	6	antiphase_hc_ois.wav	3	6	5	noise_calib_stim_RIGHT.wav	2	22	blb_dichoticlistening_ka-ka.mp3	ka	ka	0	left
6.6.1	win	2023-07-16	22:04:42	22:18:41	830820	5fc14a9cfddce609bd3e5015	2	1	main_z	24	advance_on_keypress_ZEE	4	stimuli_target_rectangletriangles.svg	stimuli_distractor_trianglediamonds.svg	1	yes	57	0	456	6	6	antiphase_hc_ois.wav	3	6	5	noise_calib_stim_RIGHT.wav	2	22	blb_dichoticlistening_ka-ka.mp3	ka	ka	0	left
6.6.1	win	2023-07-16	22:04:42	22:18:43	832826	5fc14a9cfddce609bd3e5015	2	1	main_z	24	main_z	5	stimuli_distractor_diamondtriangles.svg	stimuli_distractor_trianglediamonds.svg	38	no	44	0	900	6	6	antiphase_hc_ois.wav	3	6	5	noise_calib_stim_RIGHT.wav	2	22	blb_dichoticlistening_ka-ka.mp3	ka	ka	0	left
6.6.1	win	2023-07-16	22:04:42	22:18:43	832826	5fc14a9cfddce609bd3e5015	2	1	main_z	24	advance_on_keypress_ZEE	6	stimuli_distractor_diamondtriangles.svg	stimuli_distractor_trianglediamonds.svg	38	no	57	0	476	6	6	antiphase_hc_ois.wav	3	6	5	noise_calib_stim_RIGHT.wav	2	22	blb_dichoticlistening_ka-ka.mp3	ka	ka	0	left
6.6.1	win	2023-07-16	22:04:42	22:18:45	834923	5fc14a9cfddce609bd3e5015	2	1	main_z	24	main_z	7	stimuli_target_squarediamonds.svg	stimuli_distractor_trianglediamonds.svg	4	yes	44	1	981	6	6	antiphase_hc_ois.wav	3	6	5	noise_calib_stim_RIGHT.wav	2	22	blb_dichoticlistening_ka-ka.mp3	ka	ka	0	left
6.6.1	win	2023-07-16	22:04:42	22:18:45	834923	5fc14a9cfddce609bd3e5015	2	1	main_z	24	advance_on_keypress_ZEE	8	stimuli_target_squarediamonds.svg	stimuli_distractor_trianglediamonds.svg	4	yes	57	0	367	6	6	antiphase_hc_ois.wav	3	6	5	noise_calib_stim_RIGHT.wav	2	22	blb_dichoticlistening_ka-ka.mp3	ka	ka	0	left
6.6.1	win	2023-07-16	22:04:42	22:18:47	837035	5fc14a9cfddce609bd3e5015	2	1	main_z	24	main_z	9	stimuli_target_trianglerectangles.svg	stimuli_distractor_diamondtriangles.svg	21	yes	44	1	1095	6	6	antiphase_hc_ois.wav	3	6	5	noise_calib_stim_RIGHT.wav	2	22	blb_dichoticlistening_ka-ka.mp3	ka	ka	0	left
6.6.1	win	2023-07-16	22:04:42	22:18:47	837035	5fc14a9cfddce609bd3e5015	2	1	main_z	24	advance_on_keypress_ZEE	10	stimuli_target_trianglerectangles.svg	stimuli_distractor_diamondtriangles.svg	21	yes	57	0	430	6	6	antiphase_hc_ois.wav	3	6	5	noise_calib_stim_RIGHT.wav	2	22	blb_dichoticlistening_ka-ka.mp3	ka	ka	0	left
6.6.1	win	2023-07-16	22:04:42	22:18:49	838962	5fc14a9cfddce609bd3e5015	2	1	main_z	24	main_z	11	stimuli_distractor_diamondtriangles.svg	stimuli_target_diamondrectangles.svg	31	yes	44	1	837	6	6	antiphase_hc_ois.wav	3	6	5	noise_calib_stim_RIGHT.wav	2	22	blb_dichoticlistening_ka-ka.mp3	ka	ka	0	left
6.6.1	win	2023-07-16	22:04:42	22:18:49	838962	5fc14a9cfddce609bd3e5015	2	1	main_z	24	advance_on_keypress_ZEE	12	stimuli_distractor_diamondtriangles.svg	stimuli_target_diamondrectangles.svg	31	yes	57	0	512	6	6	antiphase_hc_ois.wav	3	6	5	noise_calib_stim_RIGHT.wav	2	22	blb_dichoticlistening_ka-ka.mp3	ka	ka	0	left
6.6.1	win	2023-07-16	22:04:42	22:18:51	840932	5fc14a9cfddce609bd3e5015	2	1	main_z	24	main_z	13	stimuli_distractor_trianglediamonds.svg	stimuli_target_squaretriangles.svg	11	yes	44	1	809	6	6	antiphase_hc_ois.wav	3	6	5	noise_calib_stim_RIGHT.wav	2	22	blb_dichoticlistening_ka-ka.mp3	ka	ka	0	left
6.6.1	win	2023-07-16	22:04:42	22:18:51	840932	5fc14a9cfddce609bd3e5015	2	1	main_z	24	advance_on_keypress_ZEE	14	stimuli_distractor_trianglediamonds.svg	stimuli_target_squaretriangles.svg	11	yes	57	0	418	6	6	antiphase_hc_ois.wav	3	6	5	noise_calib_stim_RIGHT.wav	2	22	blb_dichoticlistening_ka-ka.mp3	ka	ka	0	left
6.6.1	win	2023-07-16	22:04:42	22:18:53	842901	5fc14a9cfddce609bd3e5015	2	1	main_z	24	main_z	15	stimuli_distractor_trianglediamonds.svg	stimuli_target_diamondrectangles.svg	27	yes	44	1	911	6	6	antiphase_hc_ois.wav	3	6	5	noise_calib_stim_RIGHT.wav	2	22	blb_dichoticlistening_ka-ka.mp3	ka	ka	0	left
6.6.1	win	2023-07-16	22:04:42	22:18:53	842901	5fc14a9cfddce609bd3e5015	2	1	main_z	24	advance_on_keypress_ZEE	16	stimuli_distractor_trianglediamonds.svg	stimuli_target_diamondrectangles.svg	27	yes	57	0	396	6	6	antiphase_hc_ois.wav	3	6	5	noise_calib_stim_RIGHT.wav	2	22	blb_dichoticlistening_ka-ka.mp3	ka	ka	0	left
6.6.1	win	2023-07-16	22:04:42	22:18:54	844737	5fc14a9cfddce609bd3e5015	2	1	main_z	24	main_z	17	stimuli_distractor_trianglediamonds.svg	stimuli_target_trianglesquares.svg	26	yes	44	1	814	6	6	antiphase_hc_ois.wav	3	6	5	noise_calib_stim_RIGHT.wav	2	22	blb_dichoticlistening_ka-ka.mp3	ka	ka	0	left
6.6.1	win	2023-07-16	22:04:42	22:18:54	844737	5fc14a9cfddce609bd3e5015	2	1	main_z	24	advance_on_keypress_ZEE	18	stimuli_distractor_trianglediamonds.svg	stimuli_target_trianglesquares.svg	26	yes	57	0	414	6	6	antiphase_hc_ois.wav	3	6	5	noise_calib_stim_RIGHT.wav	2	22	blb_dichoticlistening_ka-ka.mp3	ka	ka	0	left
6.6.1	win	2023-07-16	22:04:42	22:18:57	847007	5fc14a9cfddce609bd3e5015	2	1	main_z	24	main_z	19	stimuli_distractor_trianglediamonds.svg	stimuli_target_squarediamonds.svg	12	yes	44	1	1200	6	6	antiphase_hc_ois.wav	3	6	5	noise_calib_stim_RIGHT.wav	2	22	blb_dichoticlistening_ka-ka.mp3	ka	ka	0	left
6.6.1	win	2023-07-16	22:04:42	22:18:57	847007	5fc14a9cfddce609bd3e5015	2	1	main_z	24	advance_on_keypress_ZEE	20	stimuli_distractor_trianglediamonds.svg	stimuli_target_squarediamonds.svg	12	yes	57	0	436	6	6	antiphase_hc_ois.wav	3	6	5	noise_calib_stim_RIGHT.wav	2	22	blb_dichoticlistening_ka-ka.mp3	ka	ka	0	left
6.6.1	win	2023-07-16	22:04:42	22:18:59	849140	5fc14a9cfddce609bd3e5015	2	1	main_z	24	main_z	21	stimuli_target_squaretriangles.svg	stimuli_distractor_diamondtriangles.svg	7	yes	44	1	1049	6	6	antiphase_hc_ois.wav	3	6	5	noise_calib_stim_RIGHT.wav	2	22	blb_dichoticlistening_ka-ka.mp3	ka	ka	0	left
6.6.1	win	2023-07-16	22:04:42	22:18:59	849140	5fc14a9cfddce609bd3e5015	2	1	main_z	24	advance_on_keypress_ZEE	22	stimuli_target_squaretriangles.svg	stimuli_distractor_diamondtriangles.svg	7	yes	57	0	383	6	6	antiphase_hc_ois.wav	3	6	5	noise_calib_stim_RIGHT.wav	2	22	blb_dichoticlistening_ka-ka.mp3	ka	ka	0	left
6.6.1	win	2023-07-16	22:04:42	22:19:01	851006	5fc14a9cfddce609bd3e5015	2	1	main_z	24	main_z	23	stimuli_distractor_diamondtriangles.svg	stimuli_target_diamondsquares.svg	32	yes	44	1	832	6	6	antiphase_hc_ois.wav	3	6	5	noise_calib_stim_RIGHT.wav	2	22	blb_dichoticlistening_ka-ka.mp3	ka	ka	0	left
6.6.1	win	2023-07-16	22:04:42	22:19:01	851006	5fc14a9cfddce609bd3e5015	2	1	main_z	24	advance_on_keypress_ZEE	24	stimuli_distractor_diamondtriangles.svg	stimuli_target_diamondsquares.svg	32	yes	57	0	444	6	6	antiphase_hc_ois.wav	3	6	5	noise_calib_stim_RIGHT.wav	2	22	blb_dichoticlistening_ka-ka.mp3	ka	ka	0	left
6.6.1	win	2023-07-16	22:04:42	22:19:03	853273	5fc14a9cfddce609bd3e5015	2	1	main_z	24	main_z	25	stimuli_distractor_diamondtriangles.svg	stimuli_target_rectangletriangles.svg	13	yes	44	1	1164	6	6	antiphase_hc_ois.wav	3	6	5	noise_calib_stim_RIGHT.wav	2	22	blb_dichoticlistening_ka-ka.mp3	ka	ka	0	left
6.6.1	win	2023-07-16	22:04:42	22:19:03	853273	5fc14a9cfddce609bd3e5015	2	1	main_z	24	advance_on_keypress_ZEE	26	stimuli_distractor_diamondtriangles.svg	stimuli_target_rectangletriangles.svg	13	yes	57	0	454	6	6	antiphase_hc_ois.wav	3	6	5	noise_calib_stim_RIGHT.wav	2	22	blb_dichoticlistening_ka-ka.mp3	ka	ka	0	left
6.6.1	win	2023-07-16	22:04:42	22:19:05	855261	5fc14a9cfddce609bd3e5015	2	1	main_z	24	main_z	27	stimuli_distractor_diamondtriangles.svg	stimuli_target_squaretriangles.svg	15	yes	44	1	887	6	6	antiphase_hc_ois.wav	3	6	5	noise_calib_stim_RIGHT.wav	2	22	blb_dichoticlistening_ka-ka.mp3	ka	ka	0	left
6.6.1	win	2023-07-16	22:04:42	22:19:05	855261	5fc14a9cfddce609bd3e5015	2	1	main_z	24	advance_on_keypress_ZEE	28	stimuli_distractor_diamondtriangles.svg	stimuli_target_squaretriangles.svg	15	yes	57	0	399	6	6	antiphase_hc_ois.wav	3	6	5	noise_calib_stim_RIGHT.wav	2	22	blb_dichoticlistening_ka-ka.mp3	ka	ka	0	left
6.6.1	win	2023-07-16	22:04:42	22:19:07	857352	5fc14a9cfddce609bd3e5015	2	1	main_z	24	main_z	29	stimuli_target_trianglerectangles.svg	stimuli_distractor_trianglediamonds.svg	17	yes	44	1	1045	6	6	antiphase_hc_ois.wav	3	6	5	noise_calib_stim_RIGHT.wav	2	22	blb_dichoticlistening_ka-ka.mp3	ka	ka	0	left
6.6.1	win	2023-07-16	22:04:42	22:19:07	857352	5fc14a9cfddce609bd3e5015	2	1	main_z	24	advance_on_keypress_ZEE	30	stimuli_target_trianglerectangles.svg	stimuli_distractor_trianglediamonds.svg	17	yes	57	0	409	6	6	antiphase_hc_ois.wav	3	6	5	noise_calib_stim_RIGHT.wav	2	22	blb_dichoticlistening_ka-ka.mp3	ka	ka	0	left
6.6.1	win	2023-07-16	22:04:42	22:19:09	859452	5fc14a9cfddce609bd3e5015	2	1	main_z	24	main_z	31	stimuli_target_rectangletriangles.svg	stimuli_distractor_diamondtriangles.svg	5	yes	44	1	1045	6	6	antiphase_hc_ois.wav	3	6	5	noise_calib_stim_RIGHT.wav	2	22	blb_dichoticlistening_ka-ka.mp3	ka	ka	0	left
6.6.1	win	2023-07-16	22:04:42	22:19:09	859452	5fc14a9cfddce609bd3e5015	2	1	main_z	24	advance_on_keypress_ZEE	32	stimuli_target_rectangletriangles.svg	stimuli_distractor_diamondtriangles.svg	5	yes	57	0	425	6	6	antiphase_hc_ois.wav	3	6	5	noise_calib_stim_RIGHT.wav	2	22	blb_dichoticlistening_ka-ka.mp3	ka	ka	0	left
6.6.1	win	2023-07-16	22:04:42	22:19:11	861417	5fc14a9cfddce609bd3e5015	2	1	main_z	24	main_z	33	stimuli_target_rectanglediamonds.svg	stimuli_distractor_trianglediamonds.svg	2	yes	44	1	893	6	6	antiphase_hc_ois.wav	3	6	5	noise_calib_stim_RIGHT.wav	2	22	blb_dichoticlistening_ka-ka.mp3	ka	ka	0	left
6.6.1	win	2023-07-16	22:04:42	22:19:11	861417	5fc14a9cfddce609bd3e5015	2	1	main_z	24	advance_on_keypress_ZEE	34	stimuli_target_rectanglediamonds.svg	stimuli_distractor_trianglediamonds.svg	2	yes	57	0	407	6	6	antiphase_hc_ois.wav	3	6	5	noise_calib_stim_RIGHT.wav	2	22	blb_dichoticlistening_ka-ka.mp3	ka	ka	0	left
6.6.1	win	2023-07-16	22:04:42	22:19:13	863470	5fc14a9cfddce609bd3e5015	2	1	main_z	24	main_z	35	stimuli_target_trianglesquares.svg	stimuli_distractor_trianglediamonds.svg	18	yes	44	1	1013	6	6	antiphase_hc_ois.wav	3	6	5	noise_calib_stim_RIGHT.wav	2	22	blb_dichoticlistening_ka-ka.mp3	ka	ka	0	left
6.6.1	win	2023-07-16	22:04:42	22:19:13	863470	5fc14a9cfddce609bd3e5015	2	1	main_z	24	advance_on_keypress_ZEE	36	stimuli_target_trianglesquares.svg	stimuli_distractor_trianglediamonds.svg	18	yes	57	0	399	6	6	antiphase_hc_ois.wav	3	6	5	noise_calib_stim_RIGHT.wav	2	22	blb_dichoticlistening_ka-ka.mp3	ka	ka	0	left
6.6.1	win	2023-07-16	22:04:42	22:19:15	865627	5fc14a9cfddce609bd3e5015	2	1	main_z	24	main_z	37	stimuli_distractor_diamondtriangles.svg	stimuli_distractor_trianglediamonds.svg	37	no	44	0	1104	6	6	antiphase_hc_ois.wav	3	6	5	noise_calib_stim_RIGHT.wav	2	22	blb_dichoticlistening_ka-ka.mp3	ka	ka	0	left
6.6.1	win	2023-07-16	22:04:42	22:19:15	865627	5fc14a9cfddce609bd3e5015	2	1	main_z	24	advance_on_keypress_ZEE	38	stimuli_distractor_diamondtriangles.svg	stimuli_distractor_trianglediamonds.svg	37	no	57	0	527	6	6	antiphase_hc_ois.wav	3	6	5	noise_calib_stim_RIGHT.wav	2	22	blb_dichoticlistening_ka-ka.mp3	ka	ka	0	left
6.6.1	win	2023-07-16	22:04:42	22:19:17	867698	5fc14a9cfddce609bd3e5015	2	1	main_z	24	main_z	39	stimuli_distractor_diamondtriangles.svg	stimuli_target_trianglesquares.svg	30	yes	44	1	908	6	6	antiphase_hc_ois.wav	3	6	5	noise_calib_stim_RIGHT.wav	2	22	blb_dichoticlistening_ka-ka.mp3	ka	ka	0	left
6.6.1	win	2023-07-16	22:04:42	22:19:17	867698	5fc14a9cfddce609bd3e5015	2	1	main_z	24	advance_on_keypress_ZEE	40	stimuli_distractor_diamondtriangles.svg	stimuli_target_trianglesquares.svg	30	yes	57	0	396	6	6	antiphase_hc_ois.wav	3	6	5	noise_calib_stim_RIGHT.wav	2	22	blb_dichoticlistening_ka-ka.mp3	ka	ka	0	left
6.6.1	win	2023-07-16	22:04:42	22:19:19	869555	5fc14a9cfddce609bd3e5015	2	1	main_z	24	main_z	41	stimuli_distractor_trianglediamonds.svg	stimuli_target_diamondsquares.svg	28	yes	44	1	815	6	6	antiphase_hc_ois.wav	3	6	5	noise_calib_stim_RIGHT.wav	2	22	blb_dichoticlistening_ka-ka.mp3	ka	ka	0	left
6.6.1	win	2023-07-16	22:04:42	22:19:19	869555	5fc14a9cfddce609bd3e5015	2	1	main_z	24	advance_on_keypress_ZEE	42	stimuli_distractor_trianglediamonds.svg	stimuli_target_diamondsquares.svg	28	yes	57	0	392	6	6	antiphase_hc_ois.wav	3	6	5	noise_calib_stim_RIGHT.wav	2	22	blb_dichoticlistening_ka-ka.mp3	ka	ka	0	left
6.6.1	win	2023-07-16	22:04:42	22:19:22	871840	5fc14a9cfddce609bd3e5015	2	1	main_z	24	main_z	43	stimuli_distractor_trianglediamonds.svg	stimuli_distractor_trianglediamonds.svg	34	no	44	0	1251	6	6	antiphase_hc_ois.wav	3	6	5	noise_calib_stim_RIGHT.wav	2	22	blb_dichoticlistening_ka-ka.mp3	ka	ka	0	left
6.6.1	win	2023-07-16	22:04:42	22:19:22	871840	5fc14a9cfddce609bd3e5015	2	1	main_z	24	advance_on_keypress_ZEE	44	stimuli_distractor_trianglediamonds.svg	stimuli_distractor_trianglediamonds.svg	34	no	57	0	441	6	6	antiphase_hc_ois.wav	3	6	5	noise_calib_stim_RIGHT.wav	2	22	blb_dichoticlistening_ka-ka.mp3	ka	ka	0	left
6.6.1	win	2023-07-16	22:04:42	22:19:25	874923	5fc14a9cfddce609bd3e5015	2	1	main_z	24	main_z	45	stimuli_distractor_diamondtriangles.svg	stimuli_distractor_diamondtriangles.svg	39	no	0	1	2000	6	6	antiphase_hc_ois.wav	3	6	5	noise_calib_stim_RIGHT.wav	2	22	blb_dichoticlistening_ka-ka.mp3	ka	ka	0	left
6.6.1	win	2023-07-16	22:04:42	22:19:25	874923	5fc14a9cfddce609bd3e5015	2	1	main_z	24	advance_on_keypress_ZEE	46	stimuli_distractor_diamondtriangles.svg	stimuli_distractor_diamondtriangles.svg	39	no	57	0	697	6	6	antiphase_hc_ois.wav	3	6	5	noise_calib_stim_RIGHT.wav	2	22	blb_dichoticlistening_ka-ka.mp3	ka	ka	0	left
6.6.1	win	2023-07-16	22:04:42	22:19:28	878273	5fc14a9cfddce609bd3e5015	2	1	main_z	24	main_z	47	stimuli_distractor_trianglediamonds.svg	stimuli_distractor_trianglediamonds.svg	33	no	0	1	2000	6	6	antiphase_hc_ois.wav	3	6	5	noise_calib_stim_RIGHT.wav	2	22	blb_dichoticlistening_ka-ka.mp3	ka	ka	0	left
6.6.1	win	2023-07-16	22:04:42	22:19:28	878273	5fc14a9cfddce609bd3e5015	2	1	main_z	24	advance_on_keypress_ZEE	48	stimuli_distractor_trianglediamonds.svg	stimuli_distractor_trianglediamonds.svg	33	no	57	0	609	6	6	antiphase_hc_ois.wav	3	6	5	noise_calib_stim_RIGHT.wav	2	22	blb_dichoticlistening_ka-ka.mp3	ka	ka	0	left
6.6.1	win	2023-07-16	22:04:42	22:19:30	880413	5fc14a9cfddce609bd3e5015	2	1	main_z	24	main_z	49	stimuli_target_squarediamonds.svg	stimuli_distractor_diamondtriangles.svg	8	yes	44	1	891	6	6	antiphase_hc_ois.wav	3	6	5	noise_calib_stim_RIGHT.wav	2	22	blb_dichoticlistening_ka-ka.mp3	ka	ka	0	left
6.6.1	win	2023-07-16	22:04:42	22:19:30	880413	5fc14a9cfddce609bd3e5015	2	1	main_z	24	advance_on_keypress_ZEE	50	stimuli_target_squarediamonds.svg	stimuli_distractor_diamondtriangles.svg	8	yes	57	0	389	6	6	antiphase_hc_ois.wav	3	6	5	noise_calib_stim_RIGHT.wav	2	22	blb_dichoticlistening_ka-ka.mp3	ka	ka	0	left
6.6.1	win	2023-07-16	22:04:42	22:19:33	883439	5fc14a9cfddce609bd3e5015	2	1	main_z	24	main_z	51	stimuli_distractor_diamondtriangles.svg	stimuli_distractor_diamondtriangles.svg	40	no	0	1	2000	6	6	antiphase_hc_ois.wav	3	6	5	noise_calib_stim_RIGHT.wav	2	22	blb_dichoticlistening_ka-ka.mp3	ka	ka	0	left
6.6.1	win	2023-07-16	22:04:42	22:19:33	883439	5fc14a9cfddce609bd3e5015	2	1	main_z	24	advance_on_keypress_ZEE	52	stimuli_distractor_diamondtriangles.svg	stimuli_distractor_diamondtriangles.svg	40	no	57	0	849	6	6	antiphase_hc_ois.wav	3	6	5	noise_calib_stim_RIGHT.wav	2	22	blb_dichoticlistening_ka-ka.mp3	ka	ka	0	left
6.6.1	win	2023-07-16	22:04:42	22:19:35	885733	5fc14a9cfddce609bd3e5015	2	1	main_z	24	main_z	53	stimuli_distractor_diamondtriangles.svg	stimuli_target_trianglerectangles.svg	29	yes	44	1	794	6	6	antiphase_hc_ois.wav	3	6	5	noise_calib_stim_RIGHT.wav	2	22	blb_dichoticlistening_ka-ka.mp3	ka	ka	0	left
6.6.1	win	2023-07-16	22:04:42	22:19:35	885733	5fc14a9cfddce609bd3e5015	2	1	main_z	24	advance_on_keypress_ZEE	54	stimuli_distractor_diamondtriangles.svg	stimuli_target_trianglerectangles.svg	29	yes	57	0	380	6	6	antiphase_hc_ois.wav	3	6	5	noise_calib_stim_RIGHT.wav	2	22	blb_dichoticlistening_ka-ka.mp3	ka	ka	0	left
6.6.1	win	2023-07-16	22:04:42	22:19:37	887597	5fc14a9cfddce609bd3e5015	2	1	main_z	24	main_z	55	stimuli_target_diamondrectangles.svg	stimuli_distractor_diamondtriangles.svg	23	yes	44	1	841	6	6	antiphase_hc_ois.wav	3	6	5	noise_calib_stim_RIGHT.wav	2	22	blb_dichoticlistening_ka-ka.mp3	ka	ka	0	left
6.6.1	win	2023-07-16	22:04:42	22:19:37	887597	5fc14a9cfddce609bd3e5015	2	1	main_z	24	advance_on_keypress_ZEE	56	stimuli_target_diamondrectangles.svg	stimuli_distractor_diamondtriangles.svg	23	yes	57	0	349	6	6	antiphase_hc_ois.wav	3	6	5	noise_calib_stim_RIGHT.wav	2	22	blb_dichoticlistening_ka-ka.mp3	ka	ka	0	left
6.6.1	win	2023-07-16	22:04:42	22:19:39	889367	5fc14a9cfddce609bd3e5015	2	1	main_z	24	main_z	57	stimuli_target_diamondrectangles.svg	stimuli_distractor_trianglediamonds.svg	19	yes	44	1	778	6	6	antiphase_hc_ois.wav	3	6	5	noise_calib_stim_RIGHT.wav	2	22	blb_dichoticlistening_ka-ka.mp3	ka	ka	0	left
6.6.1	win	2023-07-16	22:04:42	22:19:39	889367	5fc14a9cfddce609bd3e5015	2	1	main_z	24	advance_on_keypress_ZEE	58	stimuli_target_diamondrectangles.svg	stimuli_distractor_trianglediamonds.svg	19	yes	57	0	332	6	6	antiphase_hc_ois.wav	3	6	5	noise_calib_stim_RIGHT.wav	2	22	blb_dichoticlistening_ka-ka.mp3	ka	ka	0	left
6.6.1	win	2023-07-16	22:04:42	22:19:42	892343	5fc14a9cfddce609bd3e5015	2	1	main_z	24	main_z	59	stimuli_distractor_diamondtriangles.svg	stimuli_target_squarediamonds.svg	16	yes	44	1	1987	6	6	antiphase_hc_ois.wav	3	6	5	noise_calib_stim_RIGHT.wav	2	22	blb_dichoticlistening_ka-ka.mp3	ka	ka	0	left
6.6.1	win	2023-07-16	22:04:42	22:19:42	892343	5fc14a9cfddce609bd3e5015	2	1	main_z	24	advance_on_keypress_ZEE	60	stimuli_distractor_diamondtriangles.svg	stimuli_target_squarediamonds.svg	16	yes	57	0	382	6	6	antiphase_hc_ois.wav	3	6	5	noise_calib_stim_RIGHT.wav	2	22	blb_dichoticlistening_ka-ka.mp3	ka	ka	0	left
6.6.1	win	2023-07-16	22:04:42	22:19:44	894169	5fc14a9cfddce609bd3e5015	2	1	main_z	24	main_z	61	stimuli_target_diamondsquares.svg	stimuli_distractor_trianglediamonds.svg	20	yes	44	1	797	6	6	antiphase_hc_ois.wav	3	6	5	noise_calib_stim_RIGHT.wav	2	22	blb_dichoticlistening_ka-ka.mp3	ka	ka	0	left
6.6.1	win	2023-07-16	22:04:42	22:19:44	894169	5fc14a9cfddce609bd3e5015	2	1	main_z	24	advance_on_keypress_ZEE	62	stimuli_target_diamondsquares.svg	stimuli_distractor_trianglediamonds.svg	20	yes	57	0	321	6	6	antiphase_hc_ois.wav	3	6	5	noise_calib_stim_RIGHT.wav	2	22	blb_dichoticlistening_ka-ka.mp3	ka	ka	0	left
6.6.1	win	2023-07-16	22:04:42	22:19:46	895945	5fc14a9cfddce609bd3e5015	2	1	main_z	24	main_z	63	stimuli_distractor_diamondtriangles.svg	stimuli_target_rectanglediamonds.svg	14	yes	44	1	806	6	6	antiphase_hc_ois.wav	3	6	5	noise_calib_stim_RIGHT.wav	2	22	blb_dichoticlistening_ka-ka.mp3	ka	ka	0	left
6.6.1	win	2023-07-16	22:04:42	22:19:46	895945	5fc14a9cfddce609bd3e5015	2	1	main_z	24	advance_on_keypress_ZEE	64	stimuli_distractor_diamondtriangles.svg	stimuli_target_rectanglediamonds.svg	14	yes	57	0	272	6	6	antiphase_hc_ois.wav	3	6	5	noise_calib_stim_RIGHT.wav	2	22	blb_dichoticlistening_ka-ka.mp3	ka	ka	0	left
6.6.1	win	2023-07-16	22:04:42	22:19:48	897770	5fc14a9cfddce609bd3e5015	2	1	main_z	24	main_z	65	stimuli_target_rectanglediamonds.svg	stimuli_distractor_diamondtriangles.svg	6	yes	44	1	915	6	6	antiphase_hc_ois.wav	3	6	5	noise_calib_stim_RIGHT.wav	2	22	blb_dichoticlistening_ka-ka.mp3	ka	ka	0	left
6.6.1	win	2023-07-16	22:04:42	22:19:48	897770	5fc14a9cfddce609bd3e5015	2	1	main_z	24	advance_on_keypress_ZEE	66	stimuli_target_rectanglediamonds.svg	stimuli_distractor_diamondtriangles.svg	6	yes	57	0	215	6	6	antiphase_hc_ois.wav	3	6	5	noise_calib_stim_RIGHT.wav	2	22	blb_dichoticlistening_ka-ka.mp3	ka	ka	0	left
6.6.1	win	2023-07-16	22:04:42	22:19:50	900638	5fc14a9cfddce609bd3e5015	2	1	main_z	24	main_z	67	stimuli_distractor_trianglediamonds.svg	stimuli_distractor_diamondtriangles.svg	36	no	0	1	2000	6	6	antiphase_hc_ois.wav	3	6	5	noise_calib_stim_RIGHT.wav	2	22	blb_dichoticlistening_ka-ka.mp3	ka	ka	0	left
6.6.1	win	2023-07-16	22:04:42	22:19:50	900638	5fc14a9cfddce609bd3e5015	2	1	main_z	24	advance_on_keypress_ZEE	68	stimuli_distractor_trianglediamonds.svg	stimuli_distractor_diamondtriangles.svg	36	no	57	0	642	6	6	antiphase_hc_ois.wav	3	6	5	noise_calib_stim_RIGHT.wav	2	22	blb_dichoticlistening_ka-ka.mp3	ka	ka	0	left
6.6.1	win	2023-07-16	22:04:42	22:19:53	903634	5fc14a9cfddce609bd3e5015	2	1	main_z	24	main_z	69	stimuli_distractor_trianglediamonds.svg	stimuli_target_rectangletriangles.svg	9	yes	44	1	1712	6	6	antiphase_hc_ois.wav	3	6	5	noise_calib_stim_RIGHT.wav	2	22	blb_dichoticlistening_ka-ka.mp3	ka	ka	0	left
6.6.1	win	2023-07-16	22:04:42	22:19:53	903634	5fc14a9cfddce609bd3e5015	2	1	main_z	24	advance_on_keypress_ZEE	70	stimuli_distractor_trianglediamonds.svg	stimuli_target_rectangletriangles.svg	9	yes	57	0	332	6	6	antiphase_hc_ois.wav	3	6	5	noise_calib_stim_RIGHT.wav	2	22	blb_dichoticlistening_ka-ka.mp3	ka	ka	0	left
6.6.1	win	2023-07-16	22:04:42	22:19:56	906006	5fc14a9cfddce609bd3e5015	2	1	main_z	24	main_z	71	stimuli_distractor_trianglediamonds.svg	stimuli_distractor_diamondtriangles.svg	35	no	44	0	1383	6	6	antiphase_hc_ois.wav	3	6	5	noise_calib_stim_RIGHT.wav	2	22	blb_dichoticlistening_ka-ka.mp3	ka	ka	0	left
6.6.1	win	2023-07-16	22:04:42	22:19:56	906006	5fc14a9cfddce609bd3e5015	2	1	main_z	24	advance_on_keypress_ZEE	72	stimuli_distractor_trianglediamonds.svg	stimuli_distractor_diamondtriangles.svg	35	no	57	0	340	6	6	antiphase_hc_ois.wav	3	6	5	noise_calib_stim_RIGHT.wav	2	22	blb_dichoticlistening_ka-ka.mp3	ka	ka	0	left
6.6.1	win	2023-07-16	22:04:42	22:19:58	908329	5fc14a9cfddce609bd3e5015	2	1	main_z	24	main_z	73	stimuli_distractor_trianglediamonds.svg	stimuli_target_rectanglediamonds.svg	10	yes	44	1	1341	6	6	antiphase_hc_ois.wav	3	6	5	noise_calib_stim_RIGHT.wav	2	22	blb_dichoticlistening_ka-ka.mp3	ka	ka	0	left
6.6.1	win	2023-07-16	22:04:42	22:19:58	908329	5fc14a9cfddce609bd3e5015	2	1	main_z	24	advance_on_keypress_ZEE	74	stimuli_distractor_trianglediamonds.svg	stimuli_target_rectanglediamonds.svg	10	yes	57	0	267	6	6	antiphase_hc_ois.wav	3	6	5	noise_calib_stim_RIGHT.wav	2	22	blb_dichoticlistening_ka-ka.mp3	ka	ka	0	left
6.6.1	win	2023-07-16	22:04:42	22:20:00	910129	5fc14a9cfddce609bd3e5015	2	1	main_z	24	main_z	75	stimuli_target_squaretriangles.svg	stimuli_distractor_trianglediamonds.svg	3	yes	44	1	891	6	6	antiphase_hc_ois.wav	3	6	5	noise_calib_stim_RIGHT.wav	2	22	blb_dichoticlistening_ka-ka.mp3	ka	ka	0	left
6.6.1	win	2023-07-16	22:04:42	22:20:00	910129	5fc14a9cfddce609bd3e5015	2	1	main_z	24	advance_on_keypress_ZEE	76	stimuli_target_squaretriangles.svg	stimuli_distractor_trianglediamonds.svg	3	yes	57	0	251	6	6	antiphase_hc_ois.wav	3	6	5	noise_calib_stim_RIGHT.wav	2	22	blb_dichoticlistening_ka-ka.mp3	ka	ka	0	left
6.6.1	win	2023-07-16	22:04:42	22:20:02	911940	5fc14a9cfddce609bd3e5015	2	1	main_z	24	main_z	77	stimuli_distractor_trianglediamonds.svg	stimuli_target_trianglerectangles.svg	25	yes	44	1	919	6	6	antiphase_hc_ois.wav	3	6	5	noise_calib_stim_RIGHT.wav	2	22	blb_dichoticlistening_ka-ka.mp3	ka	ka	0	left
6.6.1	win	2023-07-16	22:04:42	22:20:02	911940	5fc14a9cfddce609bd3e5015	2	1	main_z	24	advance_on_keypress_ZEE	78	stimuli_distractor_trianglediamonds.svg	stimuli_target_trianglerectangles.svg	25	yes	57	0	284	6	6	antiphase_hc_ois.wav	3	6	5	noise_calib_stim_RIGHT.wav	2	22	blb_dichoticlistening_ka-ka.mp3	ka	ka	0	left
6.6.1	win	2023-07-16	22:04:42	22:20:04	913791	5fc14a9cfddce609bd3e5015	2	1	main_z	24	main_z	79	stimuli_target_trianglesquares.svg	stimuli_distractor_diamondtriangles.svg	22	yes	44	1	920	6	6	antiphase_hc_ois.wav	3	6	5	noise_calib_stim_RIGHT.wav	2	22	blb_dichoticlistening_ka-ka.mp3	ka	ka	0	left
6.6.1	win	2023-07-16	22:04:42	22:20:04	913791	5fc14a9cfddce609bd3e5015	2	1	main_z	24	advance_on_keypress_ZEE	80	stimuli_target_trianglesquares.svg	stimuli_distractor_diamondtriangles.svg	22	yes	57	0	253	6	6	antiphase_hc_ois.wav	3	6	5	noise_calib_stim_RIGHT.wav	2	22	blb_dichoticlistening_ka-ka.mp3	ka	ka	0	left
6.6.1	win	2023-07-16	22:04:42	22:20:06	915764	5fc14a9cfddce609bd3e5015	2	1	main_z	24	main_z	81	stimuli_distractor_trianglediamonds.svg	stimuli_target_rectangletriangles.svg	9	yes	44	1	1077	6	6	antiphase_hc_ois.wav	3	6	5	noise_calib_stim_RIGHT.wav	2	22	blb_dichoticlistening_ka-ka.mp3	ka	ka	0	left
6.6.1	win	2023-07-16	22:04:42	22:20:06	915764	5fc14a9cfddce609bd3e5015	2	1	main_z	24	advance_on_keypress_ZEE	82	stimuli_distractor_trianglediamonds.svg	stimuli_target_rectangletriangles.svg	9	yes	57	0	251	6	6	antiphase_hc_ois.wav	3	6	5	noise_calib_stim_RIGHT.wav	2	22	blb_dichoticlistening_ka-ka.mp3	ka	ka	0	left
6.6.1	win	2023-07-16	22:04:42	22:20:07	917571	5fc14a9cfddce609bd3e5015	2	1	main_z	24	main_z	83	stimuli_distractor_trianglediamonds.svg	stimuli_target_diamondsquares.svg	28	yes	44	1	916	6	6	antiphase_hc_ois.wav	3	6	5	noise_calib_stim_RIGHT.wav	2	22	blb_dichoticlistening_ka-ka.mp3	ka	ka	0	left
6.6.1	win	2023-07-16	22:04:42	22:20:07	917571	5fc14a9cfddce609bd3e5015	2	1	main_z	24	advance_on_keypress_ZEE	84	stimuli_distractor_trianglediamonds.svg	stimuli_target_diamondsquares.svg	28	yes	57	0	298	6	6	antiphase_hc_ois.wav	3	6	5	noise_calib_stim_RIGHT.wav	2	22	blb_dichoticlistening_ka-ka.mp3	ka	ka	0	left
6.6.1	win	2023-07-16	22:04:42	22:20:09	919686	5fc14a9cfddce609bd3e5015	2	1	main_z	24	main_z	85	stimuli_target_squarediamonds.svg	stimuli_distractor_trianglediamonds.svg	4	yes	44	1	1165	6	6	antiphase_hc_ois.wav	3	6	5	noise_calib_stim_RIGHT.wav	2	22	blb_dichoticlistening_ka-ka.mp3	ka	ka	0	left
6.6.1	win	2023-07-16	22:04:42	22:20:09	919686	5fc14a9cfddce609bd3e5015	2	1	main_z	24	advance_on_keypress_ZEE	86	stimuli_target_squarediamonds.svg	stimuli_distractor_trianglediamonds.svg	4	yes	57	0	209	6	6	antiphase_hc_ois.wav	3	6	5	noise_calib_stim_RIGHT.wav	2	22	blb_dichoticlistening_ka-ka.mp3	ka	ka	0	left
6.6.1	win	2023-07-16	22:04:42	22:20:11	921511	5fc14a9cfddce609bd3e5015	2	1	main_z	24	main_z	87	stimuli_distractor_diamondtriangles.svg	stimuli_target_diamondsquares.svg	32	yes	44	1	974	6	6	antiphase_hc_ois.wav	3	6	5	noise_calib_stim_RIGHT.wav	2	22	blb_dichoticlistening_ka-ka.mp3	ka	ka	0	left
6.6.1	win	2023-07-16	22:04:42	22:20:11	921511	5fc14a9cfddce609bd3e5015	2	1	main_z	24	advance_on_keypress_ZEE	88	stimuli_distractor_diamondtriangles.svg	stimuli_target_diamondsquares.svg	32	yes	57	0	241	6	6	antiphase_hc_ois.wav	3	6	5	noise_calib_stim_RIGHT.wav	2	22	blb_dichoticlistening_ka-ka.mp3	ka	ka	0	left
6.6.1	win	2023-07-16	22:04:42	22:20:13	923273	5fc14a9cfddce609bd3e5015	2	1	main_z	24	main_z	89	stimuli_target_squaretriangles.svg	stimuli_distractor_diamondtriangles.svg	7	yes	44	1	887	6	6	antiphase_hc_ois.wav	3	6	5	noise_calib_stim_RIGHT.wav	2	22	blb_dichoticlistening_ka-ka.mp3	ka	ka	0	left
6.6.1	win	2023-07-16	22:04:42	22:20:13	923273	5fc14a9cfddce609bd3e5015	2	1	main_z	24	advance_on_keypress_ZEE	90	stimuli_target_squaretriangles.svg	stimuli_distractor_diamondtriangles.svg	7	yes	57	0	247	6	6	antiphase_hc_ois.wav	3	6	5	noise_calib_stim_RIGHT.wav	2	22	blb_dichoticlistening_ka-ka.mp3	ka	ka	0	left
6.6.1	win	2023-07-16	22:04:42	22:20:16	926171	5fc14a9cfddce609bd3e5015	2	1	main_z	24	main_z	91	stimuli_distractor_diamondtriangles.svg	stimuli_distractor_diamondtriangles.svg	39	no	0	1	2000	6	6	antiphase_hc_ois.wav	3	6	5	noise_calib_stim_RIGHT.wav	2	22	blb_dichoticlistening_ka-ka.mp3	ka	ka	0	left
6.6.1	win	2023-07-16	22:04:42	22:20:16	926171	5fc14a9cfddce609bd3e5015	2	1	main_z	24	advance_on_keypress_ZEE	92	stimuli_distractor_diamondtriangles.svg	stimuli_distractor_diamondtriangles.svg	39	no	57	0	413	6	6	antiphase_hc_ois.wav	3	6	5	noise_calib_stim_RIGHT.wav	2	22	blb_dichoticlistening_ka-ka.mp3	ka	ka	0	left
6.6.1	win	2023-07-16	22:04:42	22:20:18	927998	5fc14a9cfddce609bd3e5015	2	1	main_z	24	main_z	93	stimuli_distractor_trianglediamonds.svg	stimuli_target_trianglerectangles.svg	25	yes	44	1	761	6	6	antiphase_hc_ois.wav	3	6	5	noise_calib_stim_RIGHT.wav	2	22	blb_dichoticlistening_ka-ka.mp3	ka	ka	0	left
6.6.1	win	2023-07-16	22:04:42	22:20:18	927998	5fc14a9cfddce609bd3e5015	2	1	main_z	24	advance_on_keypress_ZEE	94	stimuli_distractor_trianglediamonds.svg	stimuli_target_trianglerectangles.svg	25	yes	57	0	227	6	6	antiphase_hc_ois.wav	3	6	5	noise_calib_stim_RIGHT.wav	2	22	blb_dichoticlistening_ka-ka.mp3	ka	ka	0	left
6.6.1	win	2023-07-16	22:04:42	22:20:21	930871	5fc14a9cfddce609bd3e5015	2	1	main_z	24	main_z	95	stimuli_distractor_trianglediamonds.svg	stimuli_distractor_diamondtriangles.svg	36	no	0	1	2000	6	6	antiphase_hc_ois.wav	3	6	5	noise_calib_stim_RIGHT.wav	2	22	blb_dichoticlistening_ka-ka.mp3	ka	ka	0	left
6.6.1	win	2023-07-16	22:04:42	22:20:21	930871	5fc14a9cfddce609bd3e5015	2	1	main_z	24	advance_on_keypress_ZEE	96	stimuli_distractor_trianglediamonds.svg	stimuli_distractor_diamondtriangles.svg	36	no	57	0	634	6	6	antiphase_hc_ois.wav	3	6	5	noise_calib_stim_RIGHT.wav	2	22	blb_dichoticlistening_ka-ka.mp3	ka	ka	0	left
6.6.1	win	2023-07-16	22:04:42	22:20:23	933045	5fc14a9cfddce609bd3e5015	2	1	main_z	24	main_z	97	stimuli_target_diamondrectangles.svg	stimuli_distractor_trianglediamonds.svg	19	yes	44	1	892	6	6	antiphase_hc_ois.wav	3	6	5	noise_calib_stim_RIGHT.wav	2	22	blb_dichoticlistening_ka-ka.mp3	ka	ka	0	left
6.6.1	win	2023-07-16	22:04:42	22:20:23	933045	5fc14a9cfddce609bd3e5015	2	1	main_z	24	advance_on_keypress_ZEE	98	stimuli_target_diamondrectangles.svg	stimuli_distractor_trianglediamonds.svg	19	yes	57	0	257	6	6	antiphase_hc_ois.wav	3	6	5	noise_calib_stim_RIGHT.wav	2	22	blb_dichoticlistening_ka-ka.mp3	ka	ka	0	left
6.6.1	win	2023-07-16	22:04:42	22:20:25	934855	5fc14a9cfddce609bd3e5015	2	1	main_z	24	main_z	99	stimuli_target_diamondrectangles.svg	stimuli_distractor_diamondtriangles.svg	23	yes	44	1	919	6	6	antiphase_hc_ois.wav	3	6	5	noise_calib_stim_RIGHT.wav	2	22	blb_dichoticlistening_ka-ka.mp3	ka	ka	0	left
6.6.1	win	2023-07-16	22:04:42	22:20:25	934855	5fc14a9cfddce609bd3e5015	2	1	main_z	24	advance_on_keypress_ZEE	100	stimuli_target_diamondrectangles.svg	stimuli_distractor_diamondtriangles.svg	23	yes	57	0	214	6	6	antiphase_hc_ois.wav	3	6	5	noise_calib_stim_RIGHT.wav	2	22	blb_dichoticlistening_ka-ka.mp3	ka	ka	0	left
6.6.1	win	2023-07-16	22:04:42	22:20:27	937720	5fc14a9cfddce609bd3e5015	2	1	main_z	24	main_z	101	stimuli_distractor_trianglediamonds.svg	stimuli_distractor_diamondtriangles.svg	35	no	0	1	2000	6	6	antiphase_hc_ois.wav	3	6	5	noise_calib_stim_RIGHT.wav	2	22	blb_dichoticlistening_ka-ka.mp3	ka	ka	0	left
6.6.1	win	2023-07-16	22:04:42	22:20:27	937720	5fc14a9cfddce609bd3e5015	2	1	main_z	24	advance_on_keypress_ZEE	102	stimuli_distractor_trianglediamonds.svg	stimuli_distractor_diamondtriangles.svg	35	no	57	0	443	6	6	antiphase_hc_ois.wav	3	6	5	noise_calib_stim_RIGHT.wav	2	22	blb_dichoticlistening_ka-ka.mp3	ka	ka	0	left
6.6.1	win	2023-07-16	22:04:42	22:20:29	939625	5fc14a9cfddce609bd3e5015	2	1	main_z	24	main_z	103	stimuli_distractor_trianglediamonds.svg	stimuli_target_diamondrectangles.svg	27	yes	44	1	823	6	6	antiphase_hc_ois.wav	3	6	5	noise_calib_stim_RIGHT.wav	2	22	blb_dichoticlistening_ka-ka.mp3	ka	ka	0	left
6.6.1	win	2023-07-16	22:04:42	22:20:29	939625	5fc14a9cfddce609bd3e5015	2	1	main_z	24	advance_on_keypress_ZEE	104	stimuli_distractor_trianglediamonds.svg	stimuli_target_diamondrectangles.svg	27	yes	57	0	237	6	6	antiphase_hc_ois.wav	3	6	5	noise_calib_stim_RIGHT.wav	2	22	blb_dichoticlistening_ka-ka.mp3	ka	ka	0	left
6.6.1	win	2023-07-16	22:04:42	22:20:31	941335	5fc14a9cfddce609bd3e5015	2	1	main_z	24	main_z	105	stimuli_distractor_diamondtriangles.svg	stimuli_target_diamondrectangles.svg	31	yes	44	1	832	6	6	antiphase_hc_ois.wav	3	6	5	noise_calib_stim_RIGHT.wav	2	22	blb_dichoticlistening_ka-ka.mp3	ka	ka	0	left
6.6.1	win	2023-07-16	22:04:42	22:20:31	941335	5fc14a9cfddce609bd3e5015	2	1	main_z	24	advance_on_keypress_ZEE	106	stimuli_distractor_diamondtriangles.svg	stimuli_target_diamondrectangles.svg	31	yes	57	0	205	6	6	antiphase_hc_ois.wav	3	6	5	noise_calib_stim_RIGHT.wav	2	22	blb_dichoticlistening_ka-ka.mp3	ka	ka	0	left
6.6.1	win	2023-07-16	22:04:42	22:20:34	944186	5fc14a9cfddce609bd3e5015	2	1	main_z	24	main_z	107	stimuli_distractor_diamondtriangles.svg	stimuli_distractor_diamondtriangles.svg	40	no	0	1	2000	6	6	antiphase_hc_ois.wav	3	6	5	noise_calib_stim_RIGHT.wav	2	22	blb_dichoticlistening_ka-ka.mp3	ka	ka	0	left
6.6.1	win	2023-07-16	22:04:42	22:20:34	944186	5fc14a9cfddce609bd3e5015	2	1	main_z	24	advance_on_keypress_ZEE	108	stimuli_distractor_diamondtriangles.svg	stimuli_distractor_diamondtriangles.svg	40	no	57	0	441	6	6	antiphase_hc_ois.wav	3	6	5	noise_calib_stim_RIGHT.wav	2	22	blb_dichoticlistening_ka-ka.mp3	ka	ka	0	left
6.6.1	win	2023-07-16	22:04:42	22:20:36	946038	5fc14a9cfddce609bd3e5015	2	1	main_z	24	main_z	109	stimuli_target_rectanglediamonds.svg	stimuli_distractor_diamondtriangles.svg	6	yes	44	1	768	6	6	antiphase_hc_ois.wav	3	6	5	noise_calib_stim_RIGHT.wav	2	22	blb_dichoticlistening_ka-ka.mp3	ka	ka	0	left
6.6.1	win	2023-07-16	22:04:42	22:20:36	946038	5fc14a9cfddce609bd3e5015	2	1	main_z	24	advance_on_keypress_ZEE	110	stimuli_target_rectanglediamonds.svg	stimuli_distractor_diamondtriangles.svg	6	yes	57	0	207	6	6	antiphase_hc_ois.wav	3	6	5	noise_calib_stim_RIGHT.wav	2	22	blb_dichoticlistening_ka-ka.mp3	ka	ka	0	left
6.6.1	win	2023-07-16	22:04:42	22:20:38	947990	5fc14a9cfddce609bd3e5015	2	1	main_z	24	main_z	111	stimuli_distractor_diamondtriangles.svg	stimuli_target_trianglerectangles.svg	29	yes	44	1	1104	6	6	antiphase_hc_ois.wav	3	6	5	noise_calib_stim_RIGHT.wav	2	22	blb_dichoticlistening_ka-ka.mp3	ka	ka	0	left
6.6.1	win	2023-07-16	22:04:42	22:20:38	947990	5fc14a9cfddce609bd3e5015	2	1	main_z	24	advance_on_keypress_ZEE	112	stimuli_distractor_diamondtriangles.svg	stimuli_target_trianglerectangles.svg	29	yes	57	0	192	6	6	antiphase_hc_ois.wav	3	6	5	noise_calib_stim_RIGHT.wav	2	22	blb_dichoticlistening_ka-ka.mp3	ka	ka	0	left
6.6.1	win	2023-07-16	22:04:42	22:20:40	949980	5fc14a9cfddce609bd3e5015	2	1	main_z	24	main_z	113	stimuli_distractor_trianglediamonds.svg	stimuli_target_squarediamonds.svg	12	yes	44	1	1160	6	6	antiphase_hc_ois.wav	3	6	5	noise_calib_stim_RIGHT.wav	2	22	blb_dichoticlistening_ka-ka.mp3	ka	ka	0	left
6.6.1	win	2023-07-16	22:04:42	22:20:40	949980	5fc14a9cfddce609bd3e5015	2	1	main_z	24	advance_on_keypress_ZEE	114	stimuli_distractor_trianglediamonds.svg	stimuli_target_squarediamonds.svg	12	yes	57	0	165	6	6	antiphase_hc_ois.wav	3	6	5	noise_calib_stim_RIGHT.wav	2	22	blb_dichoticlistening_ka-ka.mp3	ka	ka	0	left
6.6.1	win	2023-07-16	22:04:42	22:20:41	951722	5fc14a9cfddce609bd3e5015	2	1	main_z	24	main_z	115	stimuli_target_rectanglediamonds.svg	stimuli_distractor_trianglediamonds.svg	2	yes	44	1	936	6	6	antiphase_hc_ois.wav	3	6	5	noise_calib_stim_RIGHT.wav	2	22	blb_dichoticlistening_ka-ka.mp3	ka	ka	0	left
6.6.1	win	2023-07-16	22:04:42	22:20:41	951722	5fc14a9cfddce609bd3e5015	2	1	main_z	24	advance_on_keypress_ZEE	116	stimuli_target_rectanglediamonds.svg	stimuli_distractor_trianglediamonds.svg	2	yes	57	0	226	6	6	antiphase_hc_ois.wav	3	6	5	noise_calib_stim_RIGHT.wav	2	22	blb_dichoticlistening_ka-ka.mp3	ka	ka	0	left
6.6.1	win	2023-07-16	22:04:42	22:20:43	953486	5fc14a9cfddce609bd3e5015	2	1	main_z	24	main_z	117	stimuli_distractor_diamondtriangles.svg	stimuli_target_squaretriangles.svg	15	yes	44	1	900	6	6	antiphase_hc_ois.wav	3	6	5	noise_calib_stim_RIGHT.wav	2	22	blb_dichoticlistening_ka-ka.mp3	ka	ka	0	left
6.6.1	win	2023-07-16	22:04:42	22:20:43	953486	5fc14a9cfddce609bd3e5015	2	1	main_z	24	advance_on_keypress_ZEE	118	stimuli_distractor_diamondtriangles.svg	stimuli_target_squaretriangles.svg	15	yes	57	0	194	6	6	antiphase_hc_ois.wav	3	6	5	noise_calib_stim_RIGHT.wav	2	22	blb_dichoticlistening_ka-ka.mp3	ka	ka	0	left
6.6.1	win	2023-07-16	22:04:42	22:20:45	955483	5fc14a9cfddce609bd3e5015	2	1	main_z	24	main_z	119	stimuli_distractor_trianglediamonds.svg	stimuli_target_rectanglediamonds.svg	10	yes	44	1	1164	6	6	antiphase_hc_ois.wav	3	6	5	noise_calib_stim_RIGHT.wav	2	22	blb_dichoticlistening_ka-ka.mp3	ka	ka	0	left
6.6.1	win	2023-07-16	22:04:42	22:20:45	955483	5fc14a9cfddce609bd3e5015	2	1	main_z	24	advance_on_keypress_ZEE	120	stimuli_distractor_trianglediamonds.svg	stimuli_target_rectanglediamonds.svg	10	yes	57	0	187	6	6	antiphase_hc_ois.wav	3	6	5	noise_calib_stim_RIGHT.wav	2	22	blb_dichoticlistening_ka-ka.mp3	ka	ka	0	left
6.6.1	win	2023-07-16	22:04:42	22:20:48	958319	5fc14a9cfddce609bd3e5015	2	1	main_z	24	main_z	121	stimuli_distractor_diamondtriangles.svg	stimuli_distractor_trianglediamonds.svg	38	no	0	1	2000	6	6	antiphase_hc_ois.wav	3	6	5	noise_calib_stim_RIGHT.wav	2	22	blb_dichoticlistening_ka-ka.mp3	ka	ka	0	left
6.6.1	win	2023-07-16	22:04:42	22:20:48	958319	5fc14a9cfddce609bd3e5015	2	1	main_z	24	advance_on_keypress_ZEE	122	stimuli_distractor_diamondtriangles.svg	stimuli_distractor_trianglediamonds.svg	38	no	57	0	603	6	6	antiphase_hc_ois.wav	3	6	5	noise_calib_stim_RIGHT.wav	2	22	blb_dichoticlistening_ka-ka.mp3	ka	ka	0	left
6.6.1	win	2023-07-16	22:04:42	22:20:50	960558	5fc14a9cfddce609bd3e5015	2	1	main_z	24	main_z	123	stimuli_distractor_diamondtriangles.svg	stimuli_target_squarediamonds.svg	16	yes	44	1	990	6	6	antiphase_hc_ois.wav	3	6	5	noise_calib_stim_RIGHT.wav	2	22	blb_dichoticlistening_ka-ka.mp3	ka	ka	0	left
6.6.1	win	2023-07-16	22:04:42	22:20:50	960558	5fc14a9cfddce609bd3e5015	2	1	main_z	24	advance_on_keypress_ZEE	124	stimuli_distractor_diamondtriangles.svg	stimuli_target_squarediamonds.svg	16	yes	57	0	186	6	6	antiphase_hc_ois.wav	3	6	5	noise_calib_stim_RIGHT.wav	2	22	blb_dichoticlistening_ka-ka.mp3	ka	ka	0	left
6.6.1	win	2023-07-16	22:04:42	22:20:52	962672	5fc14a9cfddce609bd3e5015	2	1	main_z	24	main_z	125	stimuli_distractor_trianglediamonds.svg	stimuli_distractor_trianglediamonds.svg	34	no	44	0	1286	6	6	antiphase_hc_ois.wav	3	6	5	noise_calib_stim_RIGHT.wav	2	22	blb_dichoticlistening_ka-ka.mp3	ka	ka	0	left
6.6.1	win	2023-07-16	22:04:42	22:20:52	962672	5fc14a9cfddce609bd3e5015	2	1	main_z	24	advance_on_keypress_ZEE	126	stimuli_distractor_trianglediamonds.svg	stimuli_distractor_trianglediamonds.svg	34	no	57	0	180	6	6	antiphase_hc_ois.wav	3	6	5	noise_calib_stim_RIGHT.wav	2	22	blb_dichoticlistening_ka-ka.mp3	ka	ka	0	left
6.6.1	win	2023-07-16	22:04:42	22:20:54	964332	5fc14a9cfddce609bd3e5015	2	1	main_z	24	main_z	127	stimuli_target_trianglesquares.svg	stimuli_distractor_diamondtriangles.svg	22	yes	44	1	830	6	6	antiphase_hc_ois.wav	3	6	5	noise_calib_stim_RIGHT.wav	2	22	blb_dichoticlistening_ka-ka.mp3	ka	ka	0	left
6.6.1	win	2023-07-16	22:04:42	22:20:54	964332	5fc14a9cfddce609bd3e5015	2	1	main_z	24	advance_on_keypress_ZEE	128	stimuli_target_trianglesquares.svg	stimuli_distractor_diamondtriangles.svg	22	yes	57	0	194	6	6	antiphase_hc_ois.wav	3	6	5	noise_calib_stim_RIGHT.wav	2	22	blb_dichoticlistening_ka-ka.mp3	ka	ka	0	left
6.6.1	win	2023-07-16	22:04:42	22:20:56	966060	5fc14a9cfddce609bd3e5015	2	1	main_z	24	main_z	129	stimuli_distractor_diamondtriangles.svg	stimuli_target_rectangletriangles.svg	13	yes	44	1	891	6	6	antiphase_hc_ois.wav	3	6	5	noise_calib_stim_RIGHT.wav	2	22	blb_dichoticlistening_ka-ka.mp3	ka	ka	0	left
6.6.1	win	2023-07-16	22:04:42	22:20:56	966060	5fc14a9cfddce609bd3e5015	2	1	main_z	24	advance_on_keypress_ZEE	130	stimuli_distractor_diamondtriangles.svg	stimuli_target_rectangletriangles.svg	13	yes	57	0	198	6	6	antiphase_hc_ois.wav	3	6	5	noise_calib_stim_RIGHT.wav	2	22	blb_dichoticlistening_ka-ka.mp3	ka	ka	0	left
6.6.1	win	2023-07-16	22:04:42	22:20:57	967705	5fc14a9cfddce609bd3e5015	2	1	main_z	24	main_z	131	stimuli_distractor_trianglediamonds.svg	stimuli_target_trianglesquares.svg	26	yes	44	1	803	6	6	antiphase_hc_ois.wav	3	6	5	noise_calib_stim_RIGHT.wav	2	22	blb_dichoticlistening_ka-ka.mp3	ka	ka	0	left
6.6.1	win	2023-07-16	22:04:42	22:20:57	967705	5fc14a9cfddce609bd3e5015	2	1	main_z	24	advance_on_keypress_ZEE	132	stimuli_distractor_trianglediamonds.svg	stimuli_target_trianglesquares.svg	26	yes	57	0	221	6	6	antiphase_hc_ois.wav	3	6	5	noise_calib_stim_RIGHT.wav	2	22	blb_dichoticlistening_ka-ka.mp3	ka	ka	0	left
6.6.1	win	2023-07-16	22:04:42	22:20:59	969336	5fc14a9cfddce609bd3e5015	2	1	main_z	24	main_z	133	stimuli_target_diamondsquares.svg	stimuli_distractor_trianglediamonds.svg	20	yes	44	1	767	6	6	antiphase_hc_ois.wav	3	6	5	noise_calib_stim_RIGHT.wav	2	22	blb_dichoticlistening_ka-ka.mp3	ka	ka	0	left
6.6.1	win	2023-07-16	22:04:42	22:20:59	969336	5fc14a9cfddce609bd3e5015	2	1	main_z	24	advance_on_keypress_ZEE	134	stimuli_target_diamondsquares.svg	stimuli_distractor_trianglediamonds.svg	20	yes	57	0	226	6	6	antiphase_hc_ois.wav	3	6	5	noise_calib_stim_RIGHT.wav	2	22	blb_dichoticlistening_ka-ka.mp3	ka	ka	0	left
6.6.1	win	2023-07-16	22:04:42	22:21:01	971102	5fc14a9cfddce609bd3e5015	2	1	main_z	24	main_z	135	stimuli_distractor_diamondtriangles.svg	stimuli_target_rectanglediamonds.svg	14	yes	44	1	900	6	6	antiphase_hc_ois.wav	3	6	5	noise_calib_stim_RIGHT.wav	2	22	blb_dichoticlistening_ka-ka.mp3	ka	ka	0	left
6.6.1	win	2023-07-16	22:04:42	22:21:01	971102	5fc14a9cfddce609bd3e5015	2	1	main_z	24	advance_on_keypress_ZEE	136	stimuli_distractor_diamondtriangles.svg	stimuli_target_rectanglediamonds.svg	14	yes	57	0	226	6	6	antiphase_hc_ois.wav	3	6	5	noise_calib_stim_RIGHT.wav	2	22	blb_dichoticlistening_ka-ka.mp3	ka	ka	0	left
6.6.1	win	2023-07-16	22:04:42	22:21:03	972914	5fc14a9cfddce609bd3e5015	2	1	main_z	24	main_z	137	stimuli_distractor_trianglediamonds.svg	stimuli_distractor_trianglediamonds.svg	33	no	44	0	946	6	6	antiphase_hc_ois.wav	3	6	5	noise_calib_stim_RIGHT.wav	2	22	blb_dichoticlistening_ka-ka.mp3	ka	ka	0	left
6.6.1	win	2023-07-16	22:04:42	22:21:03	972914	5fc14a9cfddce609bd3e5015	2	1	main_z	24	advance_on_keypress_ZEE	138	stimuli_distractor_trianglediamonds.svg	stimuli_distractor_trianglediamonds.svg	33	no	57	0	182	6	6	antiphase_hc_ois.wav	3	6	5	noise_calib_stim_RIGHT.wav	2	22	blb_dichoticlistening_ka-ka.mp3	ka	ka	0	left
6.6.1	win	2023-07-16	22:04:42	22:21:04	974583	5fc14a9cfddce609bd3e5015	2	1	main_z	24	main_z	139	stimuli_target_rectangletriangles.svg	stimuli_distractor_trianglediamonds.svg	1	yes	44	1	831	6	6	antiphase_hc_ois.wav	3	6	5	noise_calib_stim_RIGHT.wav	2	22	blb_dichoticlistening_ka-ka.mp3	ka	ka	0	left
6.6.1	win	2023-07-16	22:04:42	22:21:04	974583	5fc14a9cfddce609bd3e5015	2	1	main_z	24	advance_on_keypress_ZEE	140	stimuli_target_rectangletriangles.svg	stimuli_distractor_trianglediamonds.svg	1	yes	57	0	172	6	6	antiphase_hc_ois.wav	3	6	5	noise_calib_stim_RIGHT.wav	2	22	blb_dichoticlistening_ka-ka.mp3	ka	ka	0	left
6.6.1	win	2023-07-16	22:04:42	22:21:06	976251	5fc14a9cfddce609bd3e5015	2	1	main_z	24	main_z	141	stimuli_target_trianglerectangles.svg	stimuli_distractor_trianglediamonds.svg	17	yes	44	1	849	6	6	antiphase_hc_ois.wav	3	6	5	noise_calib_stim_RIGHT.wav	2	22	blb_dichoticlistening_ka-ka.mp3	ka	ka	0	left
6.6.1	win	2023-07-16	22:04:42	22:21:06	976251	5fc14a9cfddce609bd3e5015	2	1	main_z	24	advance_on_keypress_ZEE	142	stimuli_target_trianglerectangles.svg	stimuli_distractor_trianglediamonds.svg	17	yes	57	0	231	6	6	antiphase_hc_ois.wav	3	6	5	noise_calib_stim_RIGHT.wav	2	22	blb_dichoticlistening_ka-ka.mp3	ka	ka	0	left
6.6.1	win	2023-07-16	22:04:42	22:21:08	978005	5fc14a9cfddce609bd3e5015	2	1	main_z	24	main_z	143	stimuli_distractor_diamondtriangles.svg	stimuli_target_trianglesquares.svg	30	yes	44	1	870	6	6	antiphase_hc_ois.wav	3	6	5	noise_calib_stim_RIGHT.wav	2	22	blb_dichoticlistening_ka-ka.mp3	ka	ka	0	left
6.6.1	win	2023-07-16	22:04:42	22:21:08	978005	5fc14a9cfddce609bd3e5015	2	1	main_z	24	advance_on_keypress_ZEE	144	stimuli_distractor_diamondtriangles.svg	stimuli_target_trianglesquares.svg	30	yes	57	0	266	6	6	antiphase_hc_ois.wav	3	6	5	noise_calib_stim_RIGHT.wav	2	22	blb_dichoticlistening_ka-ka.mp3	ka	ka	0	left
6.6.1	win	2023-07-16	22:04:42	22:21:10	980570	5fc14a9cfddce609bd3e5015	2	1	main_z	24	main_z	145	stimuli_target_rectangletriangles.svg	stimuli_distractor_diamondtriangles.svg	5	yes	44	1	1652	6	6	antiphase_hc_ois.wav	3	6	5	noise_calib_stim_RIGHT.wav	2	22	blb_dichoticlistening_ka-ka.mp3	ka	ka	0	left
6.6.1	win	2023-07-16	22:04:42	22:21:10	980570	5fc14a9cfddce609bd3e5015	2	1	main_z	24	advance_on_keypress_ZEE	146	stimuli_target_rectangletriangles.svg	stimuli_distractor_diamondtriangles.svg	5	yes	57	0	229	6	6	antiphase_hc_ois.wav	3	6	5	noise_calib_stim_RIGHT.wav	2	22	blb_dichoticlistening_ka-ka.mp3	ka	ka	0	left
6.6.1	win	2023-07-16	22:04:42	22:21:12	982331	5fc14a9cfddce609bd3e5015	2	1	main_z	24	main_z	147	stimuli_distractor_trianglediamonds.svg	stimuli_target_squaretriangles.svg	11	yes	44	1	880	6	6	antiphase_hc_ois.wav	3	6	5	noise_calib_stim_RIGHT.wav	2	22	blb_dichoticlistening_ka-ka.mp3	ka	ka	0	left
6.6.1	win	2023-07-16	22:04:42	22:21:12	982331	5fc14a9cfddce609bd3e5015	2	1	main_z	24	advance_on_keypress_ZEE	148	stimuli_distractor_trianglediamonds.svg	stimuli_target_squaretriangles.svg	11	yes	57	0	205	6	6	antiphase_hc_ois.wav	3	6	5	noise_calib_stim_RIGHT.wav	2	22	blb_dichoticlistening_ka-ka.mp3	ka	ka	0	left
6.6.1	win	2023-07-16	22:04:42	22:21:14	984095	5fc14a9cfddce609bd3e5015	2	1	main_z	24	main_z	149	stimuli_target_trianglerectangles.svg	stimuli_distractor_diamondtriangles.svg	21	yes	44	1	911	6	6	antiphase_hc_ois.wav	3	6	5	noise_calib_stim_RIGHT.wav	2	22	blb_dichoticlistening_ka-ka.mp3	ka	ka	0	left
6.6.1	win	2023-07-16	22:04:42	22:21:14	984095	5fc14a9cfddce609bd3e5015	2	1	main_z	24	advance_on_keypress_ZEE	150	stimuli_target_trianglerectangles.svg	stimuli_distractor_diamondtriangles.svg	21	yes	57	0	182	6	6	antiphase_hc_ois.wav	3	6	5	noise_calib_stim_RIGHT.wav	2	22	blb_dichoticlistening_ka-ka.mp3	ka	ka	0	left
6.6.1	win	2023-07-16	22:04:42	22:21:15	985734	5fc14a9cfddce609bd3e5015	2	1	main_z	24	main_z	151	stimuli_target_diamondsquares.svg	stimuli_distractor_diamondtriangles.svg	24	yes	44	1	800	6	6	antiphase_hc_ois.wav	3	6	5	noise_calib_stim_RIGHT.wav	2	22	blb_dichoticlistening_ka-ka.mp3	ka	ka	0	left
6.6.1	win	2023-07-16	22:04:42	22:21:15	985734	5fc14a9cfddce609bd3e5015	2	1	main_z	24	advance_on_keypress_ZEE	152	stimuli_target_diamondsquares.svg	stimuli_distractor_diamondtriangles.svg	24	yes	57	0	184	6	6	antiphase_hc_ois.wav	3	6	5	noise_calib_stim_RIGHT.wav	2	22	blb_dichoticlistening_ka-ka.mp3	ka	ka	0	left
6.6.1	win	2023-07-16	22:04:42	22:21:17	987483	5fc14a9cfddce609bd3e5015	2	1	main_z	24	main_z	153	stimuli_target_squaretriangles.svg	stimuli_distractor_trianglediamonds.svg	3	yes	44	1	915	6	6	antiphase_hc_ois.wav	3	6	5	noise_calib_stim_RIGHT.wav	2	22	blb_dichoticlistening_ka-ka.mp3	ka	ka	0	left
6.6.1	win	2023-07-16	22:04:42	22:21:17	987483	5fc14a9cfddce609bd3e5015	2	1	main_z	24	advance_on_keypress_ZEE	154	stimuli_target_squaretriangles.svg	stimuli_distractor_trianglediamonds.svg	3	yes	57	0	176	6	6	antiphase_hc_ois.wav	3	6	5	noise_calib_stim_RIGHT.wav	2	22	blb_dichoticlistening_ka-ka.mp3	ka	ka	0	left
6.6.1	win	2023-07-16	22:04:42	22:21:19	989076	5fc14a9cfddce609bd3e5015	2	1	main_z	24	main_z	155	stimuli_target_squarediamonds.svg	stimuli_distractor_diamondtriangles.svg	8	yes	44	1	775	6	6	antiphase_hc_ois.wav	3	6	5	noise_calib_stim_RIGHT.wav	2	22	blb_dichoticlistening_ka-ka.mp3	ka	ka	0	left
6.6.1	win	2023-07-16	22:04:42	22:21:19	989076	5fc14a9cfddce609bd3e5015	2	1	main_z	24	advance_on_keypress_ZEE	156	stimuli_target_squarediamonds.svg	stimuli_distractor_diamondtriangles.svg	8	yes	57	0	243	6	6	antiphase_hc_ois.wav	3	6	5	noise_calib_stim_RIGHT.wav	2	22	blb_dichoticlistening_ka-ka.mp3	ka	ka	0	left
6.6.1	win	2023-07-16	22:04:42	22:21:21	990807	5fc14a9cfddce609bd3e5015	2	1	main_z	24	main_z	157	stimuli_target_trianglesquares.svg	stimuli_distractor_trianglediamonds.svg	18	yes	44	1	856	6	6	antiphase_hc_ois.wav	3	6	5	noise_calib_stim_RIGHT.wav	2	22	blb_dichoticlistening_ka-ka.mp3	ka	ka	0	left
6.6.1	win	2023-07-16	22:04:42	22:21:21	990807	5fc14a9cfddce609bd3e5015	2	1	main_z	24	advance_on_keypress_ZEE	158	stimuli_target_trianglesquares.svg	stimuli_distractor_trianglediamonds.svg	18	yes	57	0	211	6	6	antiphase_hc_ois.wav	3	6	5	noise_calib_stim_RIGHT.wav	2	22	blb_dichoticlistening_ka-ka.mp3	ka	ka	0	left
6.6.1	win	2023-07-16	22:04:42	22:21:23	992867	5fc14a9cfddce609bd3e5015	2	1	main_z	24	main_z	159	stimuli_distractor_diamondtriangles.svg	stimuli_distractor_trianglediamonds.svg	37	no	44	0	1199	6	6	antiphase_hc_ois.wav	3	6	5	noise_calib_stim_RIGHT.wav	2	22	blb_dichoticlistening_ka-ka.mp3	ka	ka	0	left
6.6.1	win	2023-07-16	22:04:42	22:21:23	992867	5fc14a9cfddce609bd3e5015	2	1	main_z	24	advance_on_keypress_ZEE	160	stimuli_distractor_diamondtriangles.svg	stimuli_distractor_trianglediamonds.svg	37	no	57	0	184	6	6	antiphase_hc_ois.wav	3	6	5	noise_calib_stim_RIGHT.wav	2	22	blb_dichoticlistening_ka-ka.mp3	ka	ka	0	left
6.6.1	win	2023-07-16	22:04:42	22:21:58	1028051	5fc14a9cfddce609bd3e5015	2	1	practice_slash	26	practice_slash	1	stimuli_distractor_trianglediamonds.svg	stimuli_distractor_trianglediamonds.svg	15	no	0	1	2000	6	6	antiphase_hc_ois.wav	3	6	5	noise_calib_stim_RIGHT.wav	2	22	blb_dichoticlistening_ka-ka.mp3	ka	ka	0	left
6.6.1	win	2023-07-16	22:04:42	22:21:58	1028051	5fc14a9cfddce609bd3e5015	2	1	practice_slash	26	advance_on_keypress_SLASH	2	stimuli_distractor_trianglediamonds.svg	stimuli_distractor_trianglediamonds.svg	15	no	57	0	700	6	6	antiphase_hc_ois.wav	3	6	5	noise_calib_stim_RIGHT.wav	2	22	blb_dichoticlistening_ka-ka.mp3	ka	ka	0	left
6.6.1	win	2023-07-16	22:04:42	22:22:01	1031308	5fc14a9cfddce609bd3e5015	2	1	practice_slash	26	practice_slash	3	stimuli_distractor_trianglediamonds.svg	stimuli_target_rectanglediamonds.svg	10	yes	53	1	907	6	6	antiphase_hc_ois.wav	3	6	5	noise_calib_stim_RIGHT.wav	2	22	blb_dichoticlistening_ka-ka.mp3	ka	ka	0	left
6.6.1	win	2023-07-16	22:04:42	22:22:01	1031308	5fc14a9cfddce609bd3e5015	2	1	practice_slash	26	advance_on_keypress_SLASH	4	stimuli_distractor_trianglediamonds.svg	stimuli_target_rectanglediamonds.svg	10	yes	57	0	423	6	6	antiphase_hc_ois.wav	3	6	5	noise_calib_stim_RIGHT.wav	2	22	blb_dichoticlistening_ka-ka.mp3	ka	ka	0	left
6.6.1	win	2023-07-16	22:04:42	22:22:04	1033918	5fc14a9cfddce609bd3e5015	2	1	practice_slash	26	practice_slash	5	stimuli_target_rectanglediamonds.svg	stimuli_distractor_diamondtriangles.svg	1	yes	53	1	550	6	6	antiphase_hc_ois.wav	3	6	5	noise_calib_stim_RIGHT.wav	2	22	blb_dichoticlistening_ka-ka.mp3	ka	ka	0	left
6.6.1	win	2023-07-16	22:04:42	22:22:04	1033918	5fc14a9cfddce609bd3e5015	2	1	practice_slash	26	advance_on_keypress_SLASH	6	stimuli_target_rectanglediamonds.svg	stimuli_distractor_diamondtriangles.svg	1	yes	57	0	397	6	6	antiphase_hc_ois.wav	3	6	5	noise_calib_stim_RIGHT.wav	2	22	blb_dichoticlistening_ka-ka.mp3	ka	ka	0	left
6.6.1	win	2023-07-16	22:04:42	22:22:07	1036837	5fc14a9cfddce609bd3e5015	2	1	practice_slash	26	practice_slash	7	stimuli_distractor_diamondtriangles.svg	stimuli_target_diamondrectangles.svg	8	yes	53	1	871	6	6	antiphase_hc_ois.wav	3	6	5	noise_calib_stim_RIGHT.wav	2	22	blb_dichoticlistening_ka-ka.mp3	ka	ka	0	left
6.6.1	win	2023-07-16	22:04:42	22:22:07	1036837	5fc14a9cfddce609bd3e5015	2	1	practice_slash	26	advance_on_keypress_SLASH	8	stimuli_distractor_diamondtriangles.svg	stimuli_target_diamondrectangles.svg	8	yes	57	0	170	6	6	antiphase_hc_ois.wav	3	6	5	noise_calib_stim_RIGHT.wav	2	22	blb_dichoticlistening_ka-ka.mp3	ka	ka	0	left
6.6.1	win	2023-07-16	22:04:42	22:22:10	1040651	5fc14a9cfddce609bd3e5015	2	1	practice_slash	26	practice_slash	9	stimuli_distractor_diamondtriangles.svg	stimuli_distractor_trianglediamonds.svg	14	no	0	1	2000	6	6	antiphase_hc_ois.wav	3	6	5	noise_calib_stim_RIGHT.wav	2	22	blb_dichoticlistening_ka-ka.mp3	ka	ka	0	left
6.6.1	win	2023-07-16	22:04:42	22:22:10	1040651	5fc14a9cfddce609bd3e5015	2	1	practice_slash	26	advance_on_keypress_SLASH	10	stimuli_distractor_diamondtriangles.svg	stimuli_distractor_trianglediamonds.svg	14	no	57	0	582	6	6	antiphase_hc_ois.wav	3	6	5	noise_calib_stim_RIGHT.wav	2	22	blb_dichoticlistening_ka-ka.mp3	ka	ka	0	left
6.6.1	win	2023-07-16	22:04:42	22:22:13	1043541	5fc14a9cfddce609bd3e5015	2	1	practice_slash	26	practice_slash	11	stimuli_target_rectanglediamonds.svg	stimuli_distractor_trianglediamonds.svg	4	yes	53	1	657	6	6	antiphase_hc_ois.wav	3	6	5	noise_calib_stim_RIGHT.wav	2	22	blb_dichoticlistening_ka-ka.mp3	ka	ka	0	left
6.6.1	win	2023-07-16	22:04:42	22:22:13	1043541	5fc14a9cfddce609bd3e5015	2	1	practice_slash	26	advance_on_keypress_SLASH	12	stimuli_target_rectanglediamonds.svg	stimuli_distractor_trianglediamonds.svg	4	yes	57	0	227	6	6	antiphase_hc_ois.wav	3	6	5	noise_calib_stim_RIGHT.wav	2	22	blb_dichoticlistening_ka-ka.mp3	ka	ka	0	left
6.6.1	win	2023-07-16	22:04:42	22:22:16	1046253	5fc14a9cfddce609bd3e5015	2	1	practice_slash	26	practice_slash	13	stimuli_target_diamondsquares.svg	stimuli_distractor_diamondtriangles.svg	3	yes	53	1	837	6	6	antiphase_hc_ois.wav	3	6	5	noise_calib_stim_RIGHT.wav	2	22	blb_dichoticlistening_ka-ka.mp3	ka	ka	0	left
6.6.1	win	2023-07-16	22:04:42	22:22:16	1046253	5fc14a9cfddce609bd3e5015	2	1	practice_slash	26	advance_on_keypress_SLASH	14	stimuli_target_diamondsquares.svg	stimuli_distractor_diamondtriangles.svg	3	yes	57	0	402	6	6	antiphase_hc_ois.wav	3	6	5	noise_calib_stim_RIGHT.wav	2	22	blb_dichoticlistening_ka-ka.mp3	ka	ka	0	left
6.6.1	win	2023-07-16	22:04:42	22:22:19	1049193	5fc14a9cfddce609bd3e5015	2	1	practice_slash	26	practice_slash	15	stimuli_distractor_diamondtriangles.svg	stimuli_target_rectangletriangles.svg	7	yes	53	1	894	6	6	antiphase_hc_ois.wav	3	6	5	noise_calib_stim_RIGHT.wav	2	22	blb_dichoticlistening_ka-ka.mp3	ka	ka	0	left
6.6.1	win	2023-07-16	22:04:42	22:22:19	1049193	5fc14a9cfddce609bd3e5015	2	1	practice_slash	26	advance_on_keypress_SLASH	16	stimuli_distractor_diamondtriangles.svg	stimuli_target_rectangletriangles.svg	7	yes	57	0	270	6	6	antiphase_hc_ois.wav	3	6	5	noise_calib_stim_RIGHT.wav	2	22	blb_dichoticlistening_ka-ka.mp3	ka	ka	0	left
6.6.1	win	2023-07-16	22:04:42	22:22:23	1053117	5fc14a9cfddce609bd3e5015	2	1	practice_slash	26	practice_slash	17	stimuli_distractor_trianglediamonds.svg	stimuli_distractor_diamondtriangles.svg	16	no	0	1	2000	6	6	antiphase_hc_ois.wav	3	6	5	noise_calib_stim_RIGHT.wav	2	22	blb_dichoticlistening_ka-ka.mp3	ka	ka	0	left
6.6.1	win	2023-07-16	22:04:42	22:22:23	1053117	5fc14a9cfddce609bd3e5015	2	1	practice_slash	26	advance_on_keypress_SLASH	18	stimuli_distractor_trianglediamonds.svg	stimuli_distractor_diamondtriangles.svg	16	no	57	0	736	6	6	antiphase_hc_ois.wav	3	6	5	noise_calib_stim_RIGHT.wav	2	22	blb_dichoticlistening_ka-ka.mp3	ka	ka	0	left
