build	computer.platform	date	time	timestamp	time_elapsed_ms	subject	group	session	blockcode	blocknum	trialcode	trialnum	stimulus_left	stimulus_right	stim_index	target_present	response	correct	latency	headphonecheck_countTestTrials	headphonecheck_index	headphonecheck_testSound	headphonecheck_correctResponse	stereocheck_countTestTrials	stereocheck_index	stereocheck_testSound	stereocheck_correctResponse	DL_index	DL_soundfile	DL_leftSound	DL_rightSound	DL_dualSound	DL_choice
6.6.1	win	2023-06-14	11:49:04	11:51:27	137853	63f77ee4aa0961332b87fd0f	3	1	practice_slash	5	practice_slash	1	stimuli_target_rectanglediamonds.svg	stimuli_distractor_diamondtriangles.svg	1	yes	53	1	731	0	0			0	0			1				0	
6.6.1	win	2023-06-14	11:49:04	11:51:27	137853	63f77ee4aa0961332b87fd0f	3	1	practice_slash	5	advance_on_keypress_SLASH	2	stimuli_target_rectanglediamonds.svg	stimuli_distractor_diamondtriangles.svg	1	yes	57	0	864	0	0			0	0			1				0	
6.6.1	win	2023-06-14	11:49:04	11:51:31	141420	63f77ee4aa0961332b87fd0f	3	1	practice_slash	5	practice_slash	3	stimuli_distractor_diamondtriangles.svg	stimuli_target_trianglerectangles.svg	9	yes	53	1	1047	0	0			0	0			1				0	
6.6.1	win	2023-06-14	11:49:04	11:51:31	141420	63f77ee4aa0961332b87fd0f	3	1	practice_slash	5	advance_on_keypress_SLASH	4	stimuli_distractor_diamondtriangles.svg	stimuli_target_trianglerectangles.svg	9	yes	57	0	803	0	0			0	0			1				0	
6.6.1	win	2023-06-14	11:49:04	11:51:34	145079	63f77ee4aa0961332b87fd0f	3	1	practice_slash	5	practice_slash	5	stimuli_target_diamondsquares.svg	stimuli_distractor_trianglediamonds.svg	6	yes	53	1	1207	0	0			0	0			1				0	
6.6.1	win	2023-06-14	11:49:04	11:51:34	145079	63f77ee4aa0961332b87fd0f	3	1	practice_slash	5	advance_on_keypress_SLASH	6	stimuli_target_diamondsquares.svg	stimuli_distractor_trianglediamonds.svg	6	yes	57	0	854	0	0			0	0			1				0	
6.6.1	win	2023-06-14	11:49:04	11:51:38	148811	63f77ee4aa0961332b87fd0f	3	1	practice_slash	5	practice_slash	7	stimuli_target_rectanglediamonds.svg	stimuli_distractor_trianglediamonds.svg	4	yes	53	1	1222	0	0			0	0			1				0	
6.6.1	win	2023-06-14	11:49:04	11:51:38	148811	63f77ee4aa0961332b87fd0f	3	1	practice_slash	5	advance_on_keypress_SLASH	8	stimuli_target_rectanglediamonds.svg	stimuli_distractor_trianglediamonds.svg	4	yes	57	0	525	0	0			0	0			1				0	
6.6.1	win	2023-06-14	11:49:04	11:51:42	152989	63f77ee4aa0961332b87fd0f	3	1	practice_slash	5	practice_slash	9	stimuli_distractor_diamondtriangles.svg	stimuli_distractor_diamondtriangles.svg	13	no	0	1	2000	0	0			0	0			1				0	
6.6.1	win	2023-06-14	11:49:04	11:51:42	152989	63f77ee4aa0961332b87fd0f	3	1	practice_slash	5	advance_on_keypress_SLASH	10	stimuli_distractor_diamondtriangles.svg	stimuli_distractor_diamondtriangles.svg	13	no	57	0	730	0	0			0	0			1				0	
6.6.1	win	2023-06-14	11:49:04	11:51:45	156179	63f77ee4aa0961332b87fd0f	3	1	practice_slash	5	practice_slash	11	stimuli_distractor_trianglediamonds.svg	stimuli_target_diamondrectangles.svg	12	yes	53	1	806	0	0			0	0			1				0	
6.6.1	win	2023-06-14	11:49:04	11:51:45	156179	63f77ee4aa0961332b87fd0f	3	1	practice_slash	5	advance_on_keypress_SLASH	12	stimuli_distractor_trianglediamonds.svg	stimuli_target_diamondrectangles.svg	12	yes	57	0	1242	0	0			0	0			1				0	
6.6.1	win	2023-06-14	11:49:04	11:51:49	160242	63f77ee4aa0961332b87fd0f	3	1	practice_slash	5	practice_slash	13	stimuli_distractor_diamondtriangles.svg	stimuli_target_diamondrectangles.svg	8	yes	53	1	1169	0	0			0	0			1				0	
6.6.1	win	2023-06-14	11:49:04	11:51:49	160242	63f77ee4aa0961332b87fd0f	3	1	practice_slash	5	advance_on_keypress_SLASH	14	stimuli_distractor_diamondtriangles.svg	stimuli_target_diamondrectangles.svg	8	yes	57	0	588	0	0			0	0			1				0	
6.6.1	win	2023-06-14	11:49:04	11:51:53	163514	63f77ee4aa0961332b87fd0f	3	1	practice_slash	5	practice_slash	15	stimuli_distractor_diamondtriangles.svg	stimuli_target_rectangletriangles.svg	7	yes	53	1	1041	0	0			0	0			1				0	
6.6.1	win	2023-06-14	11:49:04	11:51:53	163514	63f77ee4aa0961332b87fd0f	3	1	practice_slash	5	advance_on_keypress_SLASH	16	stimuli_distractor_diamondtriangles.svg	stimuli_target_rectangletriangles.svg	7	yes	57	0	553	0	0			0	0			1				0	
6.6.1	win	2023-06-14	11:49:04	11:51:56	166595	63f77ee4aa0961332b87fd0f	3	1	practice_slash	5	practice_slash	17	stimuli_target_squarediamonds.svg	stimuli_distractor_diamondtriangles.svg	2	yes	53	1	873	0	0			0	0			1				0	
6.6.1	win	2023-06-14	11:49:04	11:51:56	166595	63f77ee4aa0961332b87fd0f	3	1	practice_slash	5	advance_on_keypress_SLASH	18	stimuli_target_squarediamonds.svg	stimuli_distractor_diamondtriangles.svg	2	yes	57	0	550	0	0			0	0			1				0	
6.6.1	win	2023-06-14	11:49:04	11:51:59	169751	63f77ee4aa0961332b87fd0f	3	1	practice_slash	5	practice_slash	19	stimuli_distractor_trianglediamonds.svg	stimuli_target_squarediamonds.svg	11	yes	53	1	947	0	0			0	0			1				0	
6.6.1	win	2023-06-14	11:49:04	11:51:59	169751	63f77ee4aa0961332b87fd0f	3	1	practice_slash	5	advance_on_keypress_SLASH	20	stimuli_distractor_trianglediamonds.svg	stimuli_target_squarediamonds.svg	11	yes	57	0	1255	0	0			0	0			1				0	
6.6.1	win	2023-06-14	11:49:04	11:52:04	174656	63f77ee4aa0961332b87fd0f	3	1	practice_slash	5	practice_slash	21	stimuli_distractor_trianglediamonds.svg	stimuli_distractor_trianglediamonds.svg	15	no	0	1	2000	0	0			0	0			1				0	
6.6.1	win	2023-06-14	11:49:04	11:52:04	174656	63f77ee4aa0961332b87fd0f	3	1	practice_slash	5	advance_on_keypress_SLASH	22	stimuli_distractor_trianglediamonds.svg	stimuli_distractor_trianglediamonds.svg	15	no	57	0	886	0	0			0	0			1				0	
6.6.1	win	2023-06-14	11:49:04	11:52:08	179190	63f77ee4aa0961332b87fd0f	3	1	practice_slash	5	practice_slash	23	stimuli_distractor_trianglediamonds.svg	stimuli_distractor_diamondtriangles.svg	16	no	0	1	2000	0	0			0	0			1				0	
6.6.1	win	2023-06-14	11:49:04	11:52:08	179190	63f77ee4aa0961332b87fd0f	3	1	practice_slash	5	advance_on_keypress_SLASH	24	stimuli_distractor_trianglediamonds.svg	stimuli_distractor_diamondtriangles.svg	16	no	57	0	522	0	0			0	0			1				0	
6.6.1	win	2023-06-14	11:49:04	11:52:12	182352	63f77ee4aa0961332b87fd0f	3	1	practice_slash	5	practice_slash	25	stimuli_target_squarediamonds.svg	stimuli_distractor_trianglediamonds.svg	5	yes	53	1	997	0	0			0	0			1				0	
6.6.1	win	2023-06-14	11:49:04	11:52:12	182352	63f77ee4aa0961332b87fd0f	3	1	practice_slash	5	advance_on_keypress_SLASH	26	stimuli_target_squarediamonds.svg	stimuli_distractor_trianglediamonds.svg	5	yes	57	0	540	0	0			0	0			1				0	
6.6.1	win	2023-06-14	11:49:04	11:52:16	186539	63f77ee4aa0961332b87fd0f	3	1	practice_slash	5	practice_slash	27	stimuli_distractor_diamondtriangles.svg	stimuli_distractor_trianglediamonds.svg	14	no	0	1	2000	0	0			0	0			1				0	
6.6.1	win	2023-06-14	11:49:04	11:52:16	186539	63f77ee4aa0961332b87fd0f	3	1	practice_slash	5	advance_on_keypress_SLASH	28	stimuli_distractor_diamondtriangles.svg	stimuli_distractor_trianglediamonds.svg	14	no	57	0	400	0	0			0	0			1				0	
6.6.1	win	2023-06-14	11:49:04	11:52:19	189407	63f77ee4aa0961332b87fd0f	3	1	practice_slash	5	practice_slash	29	stimuli_distractor_trianglediamonds.svg	stimuli_target_rectanglediamonds.svg	10	yes	53	1	819	0	0			0	0			1				0	
6.6.1	win	2023-06-14	11:49:04	11:52:19	189407	63f77ee4aa0961332b87fd0f	3	1	practice_slash	5	advance_on_keypress_SLASH	30	stimuli_distractor_trianglediamonds.svg	stimuli_target_rectanglediamonds.svg	10	yes	57	0	724	0	0			0	0			1				0	
6.6.1	win	2023-06-14	11:49:04	11:52:22	192778	63f77ee4aa0961332b87fd0f	3	1	practice_slash	5	practice_slash	31	stimuli_target_diamondsquares.svg	stimuli_distractor_diamondtriangles.svg	3	yes	53	1	1007	0	0			0	0			1				0	
6.6.1	win	2023-06-14	11:49:04	11:52:22	192778	63f77ee4aa0961332b87fd0f	3	1	practice_slash	5	advance_on_keypress_SLASH	32	stimuli_target_diamondsquares.svg	stimuli_distractor_diamondtriangles.svg	3	yes	57	0	652	0	0			0	0			1				0	
6.6.1	win	2023-06-14	11:49:04	11:52:29	199970	63f77ee4aa0961332b87fd0f	3	1	main_slash	7	main_slash	1	stimuli_distractor_trianglediamonds.svg	stimuli_distractor_trianglediamonds.svg	33	no	0	1	2000	0	0			0	0			1				0	
6.6.1	win	2023-06-14	11:49:04	11:52:29	199970	63f77ee4aa0961332b87fd0f	3	1	main_slash	7	advance_on_keypress_SLASH	2	stimuli_distractor_trianglediamonds.svg	stimuli_distractor_trianglediamonds.svg	33	no	57	0	866	0	0			0	0			1				0	
6.6.1	win	2023-06-14	11:49:04	11:52:31	202087	63f77ee4aa0961332b87fd0f	3	1	main_slash	7	main_slash	3	stimuli_target_trianglesquares.svg	stimuli_distractor_diamondtriangles.svg	22	yes	53	1	601	0	0			0	0			1				0	
6.6.1	win	2023-06-14	11:49:04	11:52:31	202087	63f77ee4aa0961332b87fd0f	3	1	main_slash	7	advance_on_keypress_SLASH	4	stimuli_target_trianglesquares.svg	stimuli_distractor_diamondtriangles.svg	22	yes	57	0	1869	0	0			0	0			1				0	
6.6.1	win	2023-06-14	11:49:04	11:52:35	205619	63f77ee4aa0961332b87fd0f	3	1	main_slash	7	main_slash	5	stimuli_target_rectanglediamonds.svg	stimuli_distractor_diamondtriangles.svg	6	yes	53	1	1016	0	0			0	0			1				0	
6.6.1	win	2023-06-14	11:49:04	11:52:35	205619	63f77ee4aa0961332b87fd0f	3	1	main_slash	7	advance_on_keypress_SLASH	6	stimuli_target_rectanglediamonds.svg	stimuli_distractor_diamondtriangles.svg	6	yes	57	0	1110	0	0			0	0			1				0	
6.6.1	win	2023-06-14	11:49:04	11:52:38	208399	63f77ee4aa0961332b87fd0f	3	1	main_slash	7	main_slash	7	stimuli_distractor_diamondtriangles.svg	stimuli_target_rectangletriangles.svg	13	yes	53	1	1030	0	0			0	0			1				0	
6.6.1	win	2023-06-14	11:49:04	11:52:38	208399	63f77ee4aa0961332b87fd0f	3	1	main_slash	7	advance_on_keypress_SLASH	8	stimuli_distractor_diamondtriangles.svg	stimuli_target_rectangletriangles.svg	13	yes	57	0	714	0	0			0	0			1				0	
6.6.1	win	2023-06-14	11:49:04	11:52:40	210755	63f77ee4aa0961332b87fd0f	3	1	main_slash	7	main_slash	9	stimuli_distractor_trianglediamonds.svg	stimuli_target_trianglesquares.svg	26	yes	53	1	986	0	0			0	0			1				0	
6.6.1	win	2023-06-14	11:49:04	11:52:40	210755	63f77ee4aa0961332b87fd0f	3	1	main_slash	7	advance_on_keypress_SLASH	10	stimuli_distractor_trianglediamonds.svg	stimuli_target_trianglesquares.svg	26	yes	57	0	1143	0	0			0	0			1				0	
6.6.1	win	2023-06-14	11:49:04	11:52:43	213994	63f77ee4aa0961332b87fd0f	3	1	main_slash	7	main_slash	11	stimuli_distractor_trianglediamonds.svg	stimuli_target_trianglerectangles.svg	25	yes	53	1	1457	0	0			0	0			1				0	
6.6.1	win	2023-06-14	11:49:04	11:52:43	213994	63f77ee4aa0961332b87fd0f	3	1	main_slash	7	advance_on_keypress_SLASH	12	stimuli_distractor_trianglediamonds.svg	stimuli_target_trianglerectangles.svg	25	yes	57	0	881	0	0			0	0			1				0	
6.6.1	win	2023-06-14	11:49:04	11:52:46	216735	63f77ee4aa0961332b87fd0f	3	1	main_slash	7	main_slash	13	stimuli_distractor_diamondtriangles.svg	stimuli_distractor_trianglediamonds.svg	37	no	53	0	1198	0	0			0	0			1				0	
6.6.1	win	2023-06-14	11:49:04	11:52:46	216735	63f77ee4aa0961332b87fd0f	3	1	main_slash	7	advance_on_keypress_SLASH	14	stimuli_distractor_diamondtriangles.svg	stimuli_distractor_trianglediamonds.svg	37	no	57	0	656	0	0			0	0			1				0	
6.6.1	win	2023-06-14	11:49:04	11:52:48	219192	63f77ee4aa0961332b87fd0f	3	1	main_slash	7	main_slash	15	stimuli_distractor_trianglediamonds.svg	stimuli_target_rectanglediamonds.svg	10	yes	53	1	1154	0	0			0	0			1				0	
6.6.1	win	2023-06-14	11:49:04	11:52:48	219192	63f77ee4aa0961332b87fd0f	3	1	main_slash	7	advance_on_keypress_SLASH	16	stimuli_distractor_trianglediamonds.svg	stimuli_target_rectanglediamonds.svg	10	yes	57	0	961	0	0			0	0			1				0	
6.6.1	win	2023-06-14	11:49:04	11:52:52	222377	63f77ee4aa0961332b87fd0f	3	1	main_slash	7	main_slash	17	stimuli_target_rectanglediamonds.svg	stimuli_distractor_trianglediamonds.svg	2	yes	53	1	1591	0	0			0	0			1				0	
6.6.1	win	2023-06-14	11:49:04	11:52:52	222377	63f77ee4aa0961332b87fd0f	3	1	main_slash	7	advance_on_keypress_SLASH	18	stimuli_target_rectanglediamonds.svg	stimuli_distractor_trianglediamonds.svg	2	yes	57	0	1098	0	0			0	0			1				0	
6.6.1	win	2023-06-14	11:49:04	11:52:54	225327	63f77ee4aa0961332b87fd0f	3	1	main_slash	7	main_slash	19	stimuli_target_diamondsquares.svg	stimuli_distractor_trianglediamonds.svg	20	yes	53	1	1191	0	0			0	0			1				0	
6.6.1	win	2023-06-14	11:49:04	11:52:54	225327	63f77ee4aa0961332b87fd0f	3	1	main_slash	7	advance_on_keypress_SLASH	20	stimuli_target_diamondsquares.svg	stimuli_distractor_trianglediamonds.svg	20	yes	57	0	616	0	0			0	0			1				0	
6.6.1	win	2023-06-14	11:49:04	11:52:57	227700	63f77ee4aa0961332b87fd0f	3	1	main_slash	7	main_slash	21	stimuli_target_squaretriangles.svg	stimuli_distractor_diamondtriangles.svg	7	yes	53	1	1098	0	0			0	0			1				0	
6.6.1	win	2023-06-14	11:49:04	11:52:57	227700	63f77ee4aa0961332b87fd0f	3	1	main_slash	7	advance_on_keypress_SLASH	22	stimuli_target_squaretriangles.svg	stimuli_distractor_diamondtriangles.svg	7	yes	57	0	966	0	0			0	0			1				0	
6.6.1	win	2023-06-14	11:49:04	11:53:00	230335	63f77ee4aa0961332b87fd0f	3	1	main_slash	7	main_slash	23	stimuli_distractor_diamondtriangles.svg	stimuli_target_diamondrectangles.svg	31	yes	53	1	1015	0	0			0	0			1				0	
6.6.1	win	2023-06-14	11:49:04	11:53:00	230335	63f77ee4aa0961332b87fd0f	3	1	main_slash	7	advance_on_keypress_SLASH	24	stimuli_distractor_diamondtriangles.svg	stimuli_target_diamondrectangles.svg	31	yes	57	0	594	0	0			0	0			1				0	
6.6.1	win	2023-06-14	11:49:04	11:53:02	232620	63f77ee4aa0961332b87fd0f	3	1	main_slash	7	main_slash	25	stimuli_distractor_trianglediamonds.svg	stimuli_target_diamondsquares.svg	28	yes	53	1	1051	0	0			0	0			1				0	
6.6.1	win	2023-06-14	11:49:04	11:53:02	232620	63f77ee4aa0961332b87fd0f	3	1	main_slash	7	advance_on_keypress_SLASH	26	stimuli_distractor_trianglediamonds.svg	stimuli_target_diamondsquares.svg	28	yes	57	0	1030	0	0			0	0			1				0	
6.6.1	win	2023-06-14	11:49:04	11:53:05	236303	63f77ee4aa0961332b87fd0f	3	1	main_slash	7	main_slash	27	stimuli_distractor_trianglediamonds.svg	stimuli_distractor_diamondtriangles.svg	35	no	0	1	2000	0	0			0	0			1				0	
6.6.1	win	2023-06-14	11:49:04	11:53:05	236303	63f77ee4aa0961332b87fd0f	3	1	main_slash	7	advance_on_keypress_SLASH	28	stimuli_distractor_trianglediamonds.svg	stimuli_distractor_diamondtriangles.svg	35	no	57	0	518	0	0			0	0			1				0	
6.6.1	win	2023-06-14	11:49:04	11:53:09	239469	63f77ee4aa0961332b87fd0f	3	1	main_slash	7	main_slash	29	stimuli_distractor_diamondtriangles.svg	stimuli_distractor_diamondtriangles.svg	40	no	0	1	2000	0	0			0	0			1				0	
6.6.1	win	2023-06-14	11:49:04	11:53:09	239469	63f77ee4aa0961332b87fd0f	3	1	main_slash	7	advance_on_keypress_SLASH	30	stimuli_distractor_diamondtriangles.svg	stimuli_distractor_diamondtriangles.svg	40	no	57	0	540	0	0			0	0			1				0	
6.6.1	win	2023-06-14	11:49:04	11:53:11	241608	63f77ee4aa0961332b87fd0f	3	1	main_slash	7	main_slash	31	stimuli_target_rectangletriangles.svg	stimuli_distractor_trianglediamonds.svg	1	yes	53	1	955	0	0			0	0			1				0	
6.6.1	win	2023-06-14	11:49:04	11:53:11	241608	63f77ee4aa0961332b87fd0f	3	1	main_slash	7	advance_on_keypress_SLASH	32	stimuli_target_rectangletriangles.svg	stimuli_distractor_trianglediamonds.svg	1	yes	57	0	825	0	0			0	0			1				0	
6.6.1	win	2023-06-14	11:49:04	11:53:13	244156	63f77ee4aa0961332b87fd0f	3	1	main_slash	7	main_slash	33	stimuli_target_squaretriangles.svg	stimuli_distractor_trianglediamonds.svg	3	yes	53	1	1087	0	0			0	0			1				0	
6.6.1	win	2023-06-14	11:49:04	11:53:13	244156	63f77ee4aa0961332b87fd0f	3	1	main_slash	7	advance_on_keypress_SLASH	34	stimuli_target_squaretriangles.svg	stimuli_distractor_trianglediamonds.svg	3	yes	57	0	942	0	0			0	0			1				0	
6.6.1	win	2023-06-14	11:49:04	11:53:17	247736	63f77ee4aa0961332b87fd0f	3	1	main_slash	7	main_slash	35	stimuli_distractor_diamondtriangles.svg	stimuli_distractor_diamondtriangles.svg	39	no	0	1	2000	0	0			0	0			1				0	
6.6.1	win	2023-06-14	11:49:04	11:53:17	247736	63f77ee4aa0961332b87fd0f	3	1	main_slash	7	advance_on_keypress_SLASH	36	stimuli_distractor_diamondtriangles.svg	stimuli_distractor_diamondtriangles.svg	39	no	57	0	666	0	0			0	0			1				0	
6.6.1	win	2023-06-14	11:49:04	11:53:19	250080	63f77ee4aa0961332b87fd0f	3	1	main_slash	7	main_slash	37	stimuli_target_squarediamonds.svg	stimuli_distractor_diamondtriangles.svg	8	yes	53	1	1027	0	0			0	0			1				0	
6.6.1	win	2023-06-14	11:49:04	11:53:19	250080	63f77ee4aa0961332b87fd0f	3	1	main_slash	7	advance_on_keypress_SLASH	38	stimuli_target_squarediamonds.svg	stimuli_distractor_diamondtriangles.svg	8	yes	57	0	658	0	0			0	0			1				0	
6.6.1	win	2023-06-14	11:49:04	11:53:22	252616	63f77ee4aa0961332b87fd0f	3	1	main_slash	7	main_slash	39	stimuli_target_diamondrectangles.svg	stimuli_distractor_trianglediamonds.svg	19	yes	53	1	1230	0	0			0	0			1				0	
6.6.1	win	2023-06-14	11:49:04	11:53:22	252616	63f77ee4aa0961332b87fd0f	3	1	main_slash	7	advance_on_keypress_SLASH	40	stimuli_target_diamondrectangles.svg	stimuli_distractor_trianglediamonds.svg	19	yes	57	0	732	0	0			0	0			1				0	
6.6.1	win	2023-06-14	11:49:04	11:53:24	255268	63f77ee4aa0961332b87fd0f	3	1	main_slash	7	main_slash	41	stimuli_target_squarediamonds.svg	stimuli_distractor_trianglediamonds.svg	4	yes	53	1	1266	0	0			0	0			1				0	
6.6.1	win	2023-06-14	11:49:04	11:53:24	255268	63f77ee4aa0961332b87fd0f	3	1	main_slash	7	advance_on_keypress_SLASH	42	stimuli_target_squarediamonds.svg	stimuli_distractor_trianglediamonds.svg	4	yes	57	0	597	0	0			0	0			1				0	
6.6.1	win	2023-06-14	11:49:04	11:53:27	257743	63f77ee4aa0961332b87fd0f	3	1	main_slash	7	main_slash	43	stimuli_target_diamondrectangles.svg	stimuli_distractor_diamondtriangles.svg	23	yes	53	1	1224	0	0			0	0			1				0	
6.6.1	win	2023-06-14	11:49:04	11:53:27	257743	63f77ee4aa0961332b87fd0f	3	1	main_slash	7	advance_on_keypress_SLASH	44	stimuli_target_diamondrectangles.svg	stimuli_distractor_diamondtriangles.svg	23	yes	57	0	650	0	0			0	0			1				0	
6.6.1	win	2023-06-14	11:49:04	11:53:30	260354	63f77ee4aa0961332b87fd0f	3	1	main_slash	7	main_slash	45	stimuli_distractor_diamondtriangles.svg	stimuli_target_rectanglediamonds.svg	14	yes	53	1	1302	0	0			0	0			1				0	
6.6.1	win	2023-06-14	11:49:04	11:53:30	260354	63f77ee4aa0961332b87fd0f	3	1	main_slash	7	advance_on_keypress_SLASH	46	stimuli_distractor_diamondtriangles.svg	stimuli_target_rectanglediamonds.svg	14	yes	57	0	522	0	0			0	0			1				0	
6.6.1	win	2023-06-14	11:49:04	11:53:33	263519	63f77ee4aa0961332b87fd0f	3	1	main_slash	7	main_slash	47	stimuli_distractor_trianglediamonds.svg	stimuli_distractor_diamondtriangles.svg	36	no	0	1	2000	0	0			0	0			1				0	
6.6.1	win	2023-06-14	11:49:04	11:53:33	263519	63f77ee4aa0961332b87fd0f	3	1	main_slash	7	advance_on_keypress_SLASH	48	stimuli_distractor_trianglediamonds.svg	stimuli_distractor_diamondtriangles.svg	36	no	57	0	894	0	0			0	0			1				0	
6.6.1	win	2023-06-14	11:49:04	11:53:35	265731	63f77ee4aa0961332b87fd0f	3	1	main_slash	7	main_slash	49	stimuli_distractor_trianglediamonds.svg	stimuli_target_squaretriangles.svg	11	yes	53	1	678	0	0			0	0			1				0	
6.6.1	win	2023-06-14	11:49:04	11:53:35	265731	63f77ee4aa0961332b87fd0f	3	1	main_slash	7	advance_on_keypress_SLASH	50	stimuli_distractor_trianglediamonds.svg	stimuli_target_squaretriangles.svg	11	yes	57	0	649	0	0			0	0			1				0	
6.6.1	win	2023-06-14	11:49:04	11:53:37	268098	63f77ee4aa0961332b87fd0f	3	1	main_slash	7	main_slash	51	stimuli_distractor_trianglediamonds.svg	stimuli_target_diamondrectangles.svg	27	yes	53	1	1062	0	0			0	0			1				0	
6.6.1	win	2023-06-14	11:49:04	11:53:37	268098	63f77ee4aa0961332b87fd0f	3	1	main_slash	7	advance_on_keypress_SLASH	52	stimuli_distractor_trianglediamonds.svg	stimuli_target_diamondrectangles.svg	27	yes	57	0	865	0	0			0	0			1				0	
6.6.1	win	2023-06-14	11:49:04	11:53:40	270671	63f77ee4aa0961332b87fd0f	3	1	main_slash	7	main_slash	53	stimuli_target_trianglerectangles.svg	stimuli_distractor_diamondtriangles.svg	21	yes	53	1	1052	0	0			0	0			1				0	
6.6.1	win	2023-06-14	11:49:04	11:53:40	270671	63f77ee4aa0961332b87fd0f	3	1	main_slash	7	advance_on_keypress_SLASH	54	stimuli_target_trianglerectangles.svg	stimuli_distractor_diamondtriangles.svg	21	yes	57	0	687	0	0			0	0			1				0	
6.6.1	win	2023-06-14	11:49:04	11:53:42	272985	63f77ee4aa0961332b87fd0f	3	1	main_slash	7	main_slash	55	stimuli_target_rectangletriangles.svg	stimuli_distractor_diamondtriangles.svg	5	yes	53	1	982	0	0			0	0			1				0	
6.6.1	win	2023-06-14	11:49:04	11:53:42	272985	63f77ee4aa0961332b87fd0f	3	1	main_slash	7	advance_on_keypress_SLASH	56	stimuli_target_rectangletriangles.svg	stimuli_distractor_diamondtriangles.svg	5	yes	57	0	652	0	0			0	0			1				0	
6.6.1	win	2023-06-14	11:49:04	11:53:45	275364	63f77ee4aa0961332b87fd0f	3	1	main_slash	7	main_slash	57	stimuli_distractor_trianglediamonds.svg	stimuli_distractor_trianglediamonds.svg	34	no	53	0	1078	0	0			0	0			1				0	
6.6.1	win	2023-06-14	11:49:04	11:53:45	275364	63f77ee4aa0961332b87fd0f	3	1	main_slash	7	advance_on_keypress_SLASH	58	stimuli_distractor_trianglediamonds.svg	stimuli_distractor_trianglediamonds.svg	34	no	57	0	593	0	0			0	0			1				0	
6.6.1	win	2023-06-14	11:49:04	11:53:47	277639	63f77ee4aa0961332b87fd0f	3	1	main_slash	7	main_slash	59	stimuli_target_diamondsquares.svg	stimuli_distractor_diamondtriangles.svg	24	yes	53	1	1036	0	0			0	0			1				0	
6.6.1	win	2023-06-14	11:49:04	11:53:47	277639	63f77ee4aa0961332b87fd0f	3	1	main_slash	7	advance_on_keypress_SLASH	60	stimuli_target_diamondsquares.svg	stimuli_distractor_diamondtriangles.svg	24	yes	57	0	553	0	0			0	0			1				0	
6.6.1	win	2023-06-14	11:49:04	11:53:49	279870	63f77ee4aa0961332b87fd0f	3	1	main_slash	7	main_slash	61	stimuli_distractor_diamondtriangles.svg	stimuli_target_squaretriangles.svg	15	yes	53	1	1035	0	0			0	0			1				0	
6.6.1	win	2023-06-14	11:49:04	11:53:49	279870	63f77ee4aa0961332b87fd0f	3	1	main_slash	7	advance_on_keypress_SLASH	62	stimuli_distractor_diamondtriangles.svg	stimuli_target_squaretriangles.svg	15	yes	57	0	737	0	0			0	0			1				0	
6.6.1	win	2023-06-14	11:49:04	11:53:52	282714	63f77ee4aa0961332b87fd0f	3	1	main_slash	7	main_slash	63	stimuli_target_trianglesquares.svg	stimuli_distractor_trianglediamonds.svg	18	yes	53	1	1462	0	0			0	0			1				0	
6.6.1	win	2023-06-14	11:49:04	11:53:52	282714	63f77ee4aa0961332b87fd0f	3	1	main_slash	7	advance_on_keypress_SLASH	64	stimuli_target_trianglesquares.svg	stimuli_distractor_trianglediamonds.svg	18	yes	57	0	825	0	0			0	0			1				0	
6.6.1	win	2023-06-14	11:49:04	11:53:55	285403	63f77ee4aa0961332b87fd0f	3	1	main_slash	7	main_slash	65	stimuli_distractor_trianglediamonds.svg	stimuli_target_squarediamonds.svg	12	yes	53	1	1218	0	0			0	0			1				0	
6.6.1	win	2023-06-14	11:49:04	11:53:55	285403	63f77ee4aa0961332b87fd0f	3	1	main_slash	7	advance_on_keypress_SLASH	66	stimuli_distractor_trianglediamonds.svg	stimuli_target_squarediamonds.svg	12	yes	57	0	751	0	0			0	0			1				0	
6.6.1	win	2023-06-14	11:49:04	11:53:57	287952	63f77ee4aa0961332b87fd0f	3	1	main_slash	7	main_slash	67	stimuli_distractor_diamondtriangles.svg	stimuli_target_trianglesquares.svg	30	yes	53	1	1150	0	0			0	0			1				0	
6.6.1	win	2023-06-14	11:49:04	11:53:57	287952	63f77ee4aa0961332b87fd0f	3	1	main_slash	7	advance_on_keypress_SLASH	68	stimuli_distractor_diamondtriangles.svg	stimuli_target_trianglesquares.svg	30	yes	57	0	758	0	0			0	0			1				0	
6.6.1	win	2023-06-14	11:49:04	11:54:00	290391	63f77ee4aa0961332b87fd0f	3	1	main_slash	7	main_slash	69	stimuli_distractor_diamondtriangles.svg	stimuli_target_trianglerectangles.svg	29	yes	53	1	1040	0	0			0	0			1				0	
6.6.1	win	2023-06-14	11:49:04	11:54:00	290391	63f77ee4aa0961332b87fd0f	3	1	main_slash	7	advance_on_keypress_SLASH	70	stimuli_distractor_diamondtriangles.svg	stimuli_target_trianglerectangles.svg	29	yes	57	0	629	0	0			0	0			1				0	
6.6.1	win	2023-06-14	11:49:04	11:54:03	293669	63f77ee4aa0961332b87fd0f	3	1	main_slash	7	main_slash	71	stimuli_target_trianglerectangles.svg	stimuli_distractor_trianglediamonds.svg	17	yes	0	0	2000	0	0			0	0			1				0	
6.6.1	win	2023-06-14	11:49:04	11:54:03	293669	63f77ee4aa0961332b87fd0f	3	1	main_slash	7	advance_on_keypress_SLASH	72	stimuli_target_trianglerectangles.svg	stimuli_distractor_trianglediamonds.svg	17	yes	57	0	510	0	0			0	0			1				0	
6.6.1	win	2023-06-14	11:49:04	11:54:05	296321	63f77ee4aa0961332b87fd0f	3	1	main_slash	7	main_slash	73	stimuli_distractor_diamondtriangles.svg	stimuli_target_squarediamonds.svg	16	yes	53	1	1503	0	0			0	0			1				0	
6.6.1	win	2023-06-14	11:49:04	11:54:05	296321	63f77ee4aa0961332b87fd0f	3	1	main_slash	7	advance_on_keypress_SLASH	74	stimuli_distractor_diamondtriangles.svg	stimuli_target_squarediamonds.svg	16	yes	57	0	759	0	0			0	0			1				0	
6.6.1	win	2023-06-14	11:49:04	11:54:08	298955	63f77ee4aa0961332b87fd0f	3	1	main_slash	7	main_slash	75	stimuli_distractor_diamondtriangles.svg	stimuli_distractor_trianglediamonds.svg	38	no	53	0	1236	0	0			0	0			1				0	
6.6.1	win	2023-06-14	11:49:04	11:54:08	298955	63f77ee4aa0961332b87fd0f	3	1	main_slash	7	advance_on_keypress_SLASH	76	stimuli_distractor_diamondtriangles.svg	stimuli_distractor_trianglediamonds.svg	38	no	57	0	600	0	0			0	0			1				0	
6.6.1	win	2023-06-14	11:49:04	11:54:10	301265	63f77ee4aa0961332b87fd0f	3	1	main_slash	7	main_slash	77	stimuli_distractor_trianglediamonds.svg	stimuli_target_rectangletriangles.svg	9	yes	53	1	1063	0	0			0	0			1				0	
6.6.1	win	2023-06-14	11:49:04	11:54:10	301265	63f77ee4aa0961332b87fd0f	3	1	main_slash	7	advance_on_keypress_SLASH	78	stimuli_distractor_trianglediamonds.svg	stimuli_target_rectangletriangles.svg	9	yes	57	0	620	0	0			0	0			1				0	
6.6.1	win	2023-06-14	11:49:04	11:54:13	303348	63f77ee4aa0961332b87fd0f	3	1	main_slash	7	main_slash	79	stimuli_distractor_diamondtriangles.svg	stimuli_target_diamondsquares.svg	32	yes	53	1	813	0	0			0	0			1				0	
6.6.1	win	2023-06-14	11:49:04	11:54:13	303348	63f77ee4aa0961332b87fd0f	3	1	main_slash	7	advance_on_keypress_SLASH	80	stimuli_distractor_diamondtriangles.svg	stimuli_target_diamondsquares.svg	32	yes	57	0	518	0	0			0	0			1				0	
6.6.1	win	2023-06-14	11:49:04	11:54:16	306518	63f77ee4aa0961332b87fd0f	3	1	main_slash	7	main_slash	81	stimuli_distractor_trianglediamonds.svg	stimuli_distractor_trianglediamonds.svg	33	no	0	1	2000	0	0			0	0			1				0	
6.6.1	win	2023-06-14	11:49:04	11:54:16	306518	63f77ee4aa0961332b87fd0f	3	1	main_slash	7	advance_on_keypress_SLASH	82	stimuli_distractor_trianglediamonds.svg	stimuli_distractor_trianglediamonds.svg	33	no	57	0	552	0	0			0	0			1				0	
6.6.1	win	2023-06-14	11:49:04	11:54:19	309718	63f77ee4aa0961332b87fd0f	3	1	main_slash	7	main_slash	83	stimuli_distractor_diamondtriangles.svg	stimuli_distractor_diamondtriangles.svg	39	no	0	1	2000	0	0			0	0			1				0	
6.6.1	win	2023-06-14	11:49:04	11:54:19	309718	63f77ee4aa0961332b87fd0f	3	1	main_slash	7	advance_on_keypress_SLASH	84	stimuli_distractor_diamondtriangles.svg	stimuli_distractor_diamondtriangles.svg	39	no	57	0	537	0	0			0	0			1				0	
6.6.1	win	2023-06-14	11:49:04	11:54:21	311778	63f77ee4aa0961332b87fd0f	3	1	main_slash	7	main_slash	85	stimuli_distractor_diamondtriangles.svg	stimuli_target_trianglesquares.svg	30	yes	53	1	877	0	0			0	0			1				0	
6.6.1	win	2023-06-14	11:49:04	11:54:21	311778	63f77ee4aa0961332b87fd0f	3	1	main_slash	7	advance_on_keypress_SLASH	86	stimuli_distractor_diamondtriangles.svg	stimuli_target_trianglesquares.svg	30	yes	57	0	707	0	0			0	0			1				0	
6.6.1	win	2023-06-14	11:49:04	11:54:23	314327	63f77ee4aa0961332b87fd0f	3	1	main_slash	7	main_slash	87	stimuli_target_squaretriangles.svg	stimuli_distractor_trianglediamonds.svg	3	yes	53	1	1191	0	0			0	0			1				0	
6.6.1	win	2023-06-14	11:49:04	11:54:23	314327	63f77ee4aa0961332b87fd0f	3	1	main_slash	7	advance_on_keypress_SLASH	88	stimuli_target_squaretriangles.svg	stimuli_distractor_trianglediamonds.svg	3	yes	57	0	710	0	0			0	0			1				0	
6.6.1	win	2023-06-14	11:49:04	11:54:26	316715	63f77ee4aa0961332b87fd0f	3	1	main_slash	7	main_slash	89	stimuli_distractor_trianglediamonds.svg	stimuli_target_rectangletriangles.svg	9	yes	53	1	1030	0	0			0	0			1				0	
6.6.1	win	2023-06-14	11:49:04	11:54:26	316715	63f77ee4aa0961332b87fd0f	3	1	main_slash	7	advance_on_keypress_SLASH	90	stimuli_distractor_trianglediamonds.svg	stimuli_target_rectangletriangles.svg	9	yes	57	0	669	0	0			0	0			1				0	
6.6.1	win	2023-06-14	11:49:04	11:54:29	320035	63f77ee4aa0961332b87fd0f	3	1	main_slash	7	main_slash	91	stimuli_distractor_trianglediamonds.svg	stimuli_distractor_diamondtriangles.svg	36	no	0	1	2000	0	0			0	0			1				0	
6.6.1	win	2023-06-14	11:49:04	11:54:29	320035	63f77ee4aa0961332b87fd0f	3	1	main_slash	7	advance_on_keypress_SLASH	92	stimuli_distractor_trianglediamonds.svg	stimuli_distractor_diamondtriangles.svg	36	no	57	0	771	0	0			0	0			1				0	
6.6.1	win	2023-06-14	11:49:04	11:54:31	322228	63f77ee4aa0961332b87fd0f	3	1	main_slash	7	main_slash	93	stimuli_target_diamondsquares.svg	stimuli_distractor_trianglediamonds.svg	20	yes	53	1	777	0	0			0	0			1				0	
6.6.1	win	2023-06-14	11:49:04	11:54:31	322228	63f77ee4aa0961332b87fd0f	3	1	main_slash	7	advance_on_keypress_SLASH	94	stimuli_target_diamondsquares.svg	stimuli_distractor_trianglediamonds.svg	20	yes	57	0	1165	0	0			0	0			1				0	
6.6.1	win	2023-06-14	11:49:04	11:54:34	325119	63f77ee4aa0961332b87fd0f	3	1	main_slash	7	main_slash	95	stimuli_target_rectanglediamonds.svg	stimuli_distractor_trianglediamonds.svg	2	yes	53	1	1068	0	0			0	0			1				0	
6.6.1	win	2023-06-14	11:49:04	11:54:34	325119	63f77ee4aa0961332b87fd0f	3	1	main_slash	7	advance_on_keypress_SLASH	96	stimuli_target_rectanglediamonds.svg	stimuli_distractor_trianglediamonds.svg	2	yes	57	0	715	0	0			0	0			1				0	
6.6.1	win	2023-06-14	11:49:04	11:54:37	327769	63f77ee4aa0961332b87fd0f	3	1	main_slash	7	main_slash	97	stimuli_distractor_trianglediamonds.svg	stimuli_target_rectanglediamonds.svg	10	yes	53	1	1285	0	0			0	0			1				0	
6.6.1	win	2023-06-14	11:49:04	11:54:37	327769	63f77ee4aa0961332b87fd0f	3	1	main_slash	7	advance_on_keypress_SLASH	98	stimuli_distractor_trianglediamonds.svg	stimuli_target_rectanglediamonds.svg	10	yes	57	0	1212	0	0			0	0			1				0	
6.6.1	win	2023-06-14	11:49:04	11:54:40	330824	63f77ee4aa0961332b87fd0f	3	1	main_slash	7	main_slash	99	stimuli_target_rectanglediamonds.svg	stimuli_distractor_diamondtriangles.svg	6	yes	53	1	1206	0	0			0	0			1				0	
6.6.1	win	2023-06-14	11:49:04	11:54:40	330824	63f77ee4aa0961332b87fd0f	3	1	main_slash	7	advance_on_keypress_SLASH	100	stimuli_target_rectanglediamonds.svg	stimuli_distractor_diamondtriangles.svg	6	yes	57	0	986	0	0			0	0			1				0	
6.6.1	win	2023-06-14	11:49:04	11:54:44	334451	63f77ee4aa0961332b87fd0f	3	1	main_slash	7	main_slash	101	stimuli_distractor_trianglediamonds.svg	stimuli_target_diamondsquares.svg	28	yes	0	0	2000	0	0			0	0			1				0	
6.6.1	win	2023-06-14	11:49:04	11:54:44	334451	63f77ee4aa0961332b87fd0f	3	1	main_slash	7	advance_on_keypress_SLASH	102	stimuli_distractor_trianglediamonds.svg	stimuli_target_diamondsquares.svg	28	yes	57	0	542	0	0			0	0			1				0	
6.6.1	win	2023-06-14	11:49:04	11:54:46	336777	63f77ee4aa0961332b87fd0f	3	1	main_slash	7	main_slash	103	stimuli_target_rectangletriangles.svg	stimuli_distractor_trianglediamonds.svg	1	yes	53	1	1142	0	0			0	0			1				0	
6.6.1	win	2023-06-14	11:49:04	11:54:46	336777	63f77ee4aa0961332b87fd0f	3	1	main_slash	7	advance_on_keypress_SLASH	104	stimuli_target_rectangletriangles.svg	stimuli_distractor_trianglediamonds.svg	1	yes	57	0	906	0	0			0	0			1				0	
6.6.1	win	2023-06-14	11:49:04	11:54:49	339978	63f77ee4aa0961332b87fd0f	3	1	main_slash	7	main_slash	105	stimuli_distractor_diamondtriangles.svg	stimuli_target_rectanglediamonds.svg	14	yes	53	1	1644	0	0			0	0			1				0	
6.6.1	win	2023-06-14	11:49:04	11:54:49	339978	63f77ee4aa0961332b87fd0f	3	1	main_slash	7	advance_on_keypress_SLASH	106	stimuli_distractor_diamondtriangles.svg	stimuli_target_rectanglediamonds.svg	14	yes	57	0	921	0	0			0	0			1				0	
6.6.1	win	2023-06-14	11:49:04	11:54:52	342966	63f77ee4aa0961332b87fd0f	3	1	main_slash	7	main_slash	107	stimuli_target_trianglesquares.svg	stimuli_distractor_trianglediamonds.svg	18	yes	53	1	1414	0	0			0	0			1				0	
6.6.1	win	2023-06-14	11:49:04	11:54:52	342966	63f77ee4aa0961332b87fd0f	3	1	main_slash	7	advance_on_keypress_SLASH	108	stimuli_target_trianglesquares.svg	stimuli_distractor_trianglediamonds.svg	18	yes	57	0	778	0	0			0	0			1				0	
6.6.1	win	2023-06-14	11:49:04	11:54:55	345546	63f77ee4aa0961332b87fd0f	3	1	main_slash	7	main_slash	109	stimuli_target_diamondrectangles.svg	stimuli_distractor_diamondtriangles.svg	23	yes	53	1	1162	0	0			0	0			1				0	
6.6.1	win	2023-06-14	11:49:04	11:54:55	345546	63f77ee4aa0961332b87fd0f	3	1	main_slash	7	advance_on_keypress_SLASH	110	stimuli_target_diamondrectangles.svg	stimuli_distractor_diamondtriangles.svg	23	yes	57	0	620	0	0			0	0			1				0	
6.6.1	win	2023-06-14	11:49:04	11:54:57	347843	63f77ee4aa0961332b87fd0f	3	1	main_slash	7	main_slash	111	stimuli_target_trianglerectangles.svg	stimuli_distractor_diamondtriangles.svg	21	yes	53	1	1026	0	0			0	0			1				0	
6.6.1	win	2023-06-14	11:49:04	11:54:57	347843	63f77ee4aa0961332b87fd0f	3	1	main_slash	7	advance_on_keypress_SLASH	112	stimuli_target_trianglerectangles.svg	stimuli_distractor_diamondtriangles.svg	21	yes	57	0	450	0	0			0	0			1				0	
6.6.1	win	2023-06-14	11:49:04	11:55:00	350951	63f77ee4aa0961332b87fd0f	3	1	main_slash	7	main_slash	113	stimuli_distractor_trianglediamonds.svg	stimuli_distractor_trianglediamonds.svg	34	no	0	1	2000	0	0			0	0			1				0	
6.6.1	win	2023-06-14	11:49:04	11:55:00	350951	63f77ee4aa0961332b87fd0f	3	1	main_slash	7	advance_on_keypress_SLASH	114	stimuli_distractor_trianglediamonds.svg	stimuli_distractor_trianglediamonds.svg	34	no	57	0	613	0	0			0	0			1				0	
6.6.1	win	2023-06-14	11:49:04	11:55:03	354218	63f77ee4aa0961332b87fd0f	3	1	main_slash	7	main_slash	115	stimuli_distractor_trianglediamonds.svg	stimuli_distractor_diamondtriangles.svg	35	no	0	1	2000	0	0			0	0			1				0	
6.6.1	win	2023-06-14	11:49:04	11:55:03	354218	63f77ee4aa0961332b87fd0f	3	1	main_slash	7	advance_on_keypress_SLASH	116	stimuli_distractor_trianglediamonds.svg	stimuli_distractor_diamondtriangles.svg	35	no	57	0	564	0	0			0	0			1				0	
6.6.1	win	2023-06-14	11:49:04	11:55:06	356493	63f77ee4aa0961332b87fd0f	3	1	main_slash	7	main_slash	117	stimuli_distractor_trianglediamonds.svg	stimuli_target_trianglerectangles.svg	25	yes	53	1	1059	0	0			0	0			1				0	
6.6.1	win	2023-06-14	11:49:04	11:55:06	356493	63f77ee4aa0961332b87fd0f	3	1	main_slash	7	advance_on_keypress_SLASH	118	stimuli_distractor_trianglediamonds.svg	stimuli_target_trianglerectangles.svg	25	yes	57	0	618	0	0			0	0			1				0	
6.6.1	win	2023-06-14	11:49:04	11:55:08	358867	63f77ee4aa0961332b87fd0f	3	1	main_slash	7	main_slash	119	stimuli_target_trianglerectangles.svg	stimuli_distractor_trianglediamonds.svg	17	yes	53	1	1100	0	0			0	0			1				0	
6.6.1	win	2023-06-14	11:49:04	11:55:08	358867	63f77ee4aa0961332b87fd0f	3	1	main_slash	7	advance_on_keypress_SLASH	120	stimuli_target_trianglerectangles.svg	stimuli_distractor_trianglediamonds.svg	17	yes	57	0	1061	0	0			0	0			1				0	
6.6.1	win	2023-06-14	11:49:04	11:55:11	361707	63f77ee4aa0961332b87fd0f	3	1	main_slash	7	main_slash	121	stimuli_distractor_diamondtriangles.svg	stimuli_target_squarediamonds.svg	16	yes	53	1	1140	0	0			0	0			1				0	
6.6.1	win	2023-06-14	11:49:04	11:55:11	361707	63f77ee4aa0961332b87fd0f	3	1	main_slash	7	advance_on_keypress_SLASH	122	stimuli_distractor_diamondtriangles.svg	stimuli_target_squarediamonds.svg	16	yes	57	0	793	0	0			0	0			1				0	
6.6.1	win	2023-06-14	11:49:04	11:55:13	364158	63f77ee4aa0961332b87fd0f	3	1	main_slash	7	main_slash	123	stimuli_target_diamondsquares.svg	stimuli_distractor_diamondtriangles.svg	24	yes	53	1	1007	0	0			0	0			1				0	
6.6.1	win	2023-06-14	11:49:04	11:55:13	364158	63f77ee4aa0961332b87fd0f	3	1	main_slash	7	advance_on_keypress_SLASH	124	stimuli_target_diamondsquares.svg	stimuli_distractor_diamondtriangles.svg	24	yes	57	0	767	0	0			0	0			1				0	
6.6.1	win	2023-06-14	11:49:04	11:55:16	366792	63f77ee4aa0961332b87fd0f	3	1	main_slash	7	main_slash	125	stimuli_distractor_diamondtriangles.svg	stimuli_target_diamondsquares.svg	32	yes	53	1	1208	0	0			0	0			1				0	
6.6.1	win	2023-06-14	11:49:04	11:55:16	366792	63f77ee4aa0961332b87fd0f	3	1	main_slash	7	advance_on_keypress_SLASH	126	stimuli_distractor_diamondtriangles.svg	stimuli_target_diamondsquares.svg	32	yes	57	0	668	0	0			0	0			1				0	
6.6.1	win	2023-06-14	11:49:04	11:55:18	369226	63f77ee4aa0961332b87fd0f	3	1	main_slash	7	main_slash	127	stimuli_target_squaretriangles.svg	stimuli_distractor_diamondtriangles.svg	7	yes	53	1	1109	0	0			0	0			1				0	
6.6.1	win	2023-06-14	11:49:04	11:55:18	369226	63f77ee4aa0961332b87fd0f	3	1	main_slash	7	advance_on_keypress_SLASH	128	stimuli_target_squaretriangles.svg	stimuli_distractor_diamondtriangles.svg	7	yes	57	0	1110	0	0			0	0			1				0	
6.6.1	win	2023-06-14	11:49:04	11:55:21	371964	63f77ee4aa0961332b87fd0f	3	1	main_slash	7	main_slash	129	stimuli_distractor_trianglediamonds.svg	stimuli_target_squarediamonds.svg	12	yes	53	1	980	0	0			0	0			1				0	
6.6.1	win	2023-06-14	11:49:04	11:55:21	371964	63f77ee4aa0961332b87fd0f	3	1	main_slash	7	advance_on_keypress_SLASH	130	stimuli_distractor_trianglediamonds.svg	stimuli_target_squarediamonds.svg	12	yes	57	0	1461	0	0			0	0			1				0	
6.6.1	win	2023-06-14	11:49:04	11:55:25	375736	63f77ee4aa0961332b87fd0f	3	1	main_slash	7	main_slash	131	stimuli_distractor_diamondtriangles.svg	stimuli_distractor_diamondtriangles.svg	40	no	53	0	1668	0	0			0	0			1				0	
6.6.1	win	2023-06-14	11:49:04	11:55:25	375736	63f77ee4aa0961332b87fd0f	3	1	main_slash	7	advance_on_keypress_SLASH	132	stimuli_distractor_diamondtriangles.svg	stimuli_distractor_diamondtriangles.svg	40	no	57	0	746	0	0			0	0			1				0	
6.6.1	win	2023-06-14	11:49:04	11:55:28	379134	63f77ee4aa0961332b87fd0f	3	1	main_slash	7	main_slash	133	stimuli_distractor_diamondtriangles.svg	stimuli_distractor_trianglediamonds.svg	38	no	0	1	2000	0	0			0	0			1				0	
6.6.1	win	2023-06-14	11:49:04	11:55:28	379134	63f77ee4aa0961332b87fd0f	3	1	main_slash	7	advance_on_keypress_SLASH	134	stimuli_distractor_diamondtriangles.svg	stimuli_distractor_trianglediamonds.svg	38	no	57	0	1131	0	0			0	0			1				0	
6.6.1	win	2023-06-14	11:49:04	11:55:31	381947	63f77ee4aa0961332b87fd0f	3	1	main_slash	7	main_slash	135	stimuli_target_squarediamonds.svg	stimuli_distractor_diamondtriangles.svg	8	yes	53	1	1030	0	0			0	0			1				0	
6.6.1	win	2023-06-14	11:49:04	11:55:31	381947	63f77ee4aa0961332b87fd0f	3	1	main_slash	7	advance_on_keypress_SLASH	136	stimuli_target_squarediamonds.svg	stimuli_distractor_diamondtriangles.svg	8	yes	57	0	821	0	0			0	0			1				0	
6.6.1	win	2023-06-14	11:49:04	11:55:34	384423	63f77ee4aa0961332b87fd0f	3	1	main_slash	7	main_slash	137	stimuli_distractor_trianglediamonds.svg	stimuli_target_squaretriangles.svg	11	yes	53	1	1005	0	0			0	0			1				0	
6.6.1	win	2023-06-14	11:49:04	11:55:34	384423	63f77ee4aa0961332b87fd0f	3	1	main_slash	7	advance_on_keypress_SLASH	138	stimuli_distractor_trianglediamonds.svg	stimuli_target_squaretriangles.svg	11	yes	57	0	722	0	0			0	0			1				0	
6.6.1	win	2023-06-14	11:49:04	11:55:36	386820	63f77ee4aa0961332b87fd0f	3	1	main_slash	7	main_slash	139	stimuli_target_diamondrectangles.svg	stimuli_distractor_trianglediamonds.svg	19	yes	53	1	1037	0	0			0	0			1				0	
6.6.1	win	2023-06-14	11:49:04	11:55:36	386820	63f77ee4aa0961332b87fd0f	3	1	main_slash	7	advance_on_keypress_SLASH	140	stimuli_target_diamondrectangles.svg	stimuli_distractor_trianglediamonds.svg	19	yes	57	0	654	0	0			0	0			1				0	
6.6.1	win	2023-06-14	11:49:04	11:55:39	390117	63f77ee4aa0961332b87fd0f	3	1	main_slash	7	main_slash	141	stimuli_target_trianglesquares.svg	stimuli_distractor_diamondtriangles.svg	22	yes	0	0	2000	0	0			0	0			1				0	
6.6.1	win	2023-06-14	11:49:04	11:55:39	390117	63f77ee4aa0961332b87fd0f	3	1	main_slash	7	advance_on_keypress_SLASH	142	stimuli_target_trianglesquares.svg	stimuli_distractor_diamondtriangles.svg	22	yes	57	0	580	0	0			0	0			1				0	
6.6.1	win	2023-06-14	11:49:04	11:55:41	392066	63f77ee4aa0961332b87fd0f	3	1	main_slash	7	main_slash	143	stimuli_distractor_trianglediamonds.svg	stimuli_target_trianglesquares.svg	26	yes	53	1	715	0	0			0	0			1				0	
6.6.1	win	2023-06-14	11:49:04	11:55:41	392066	63f77ee4aa0961332b87fd0f	3	1	main_slash	7	advance_on_keypress_SLASH	144	stimuli_distractor_trianglediamonds.svg	stimuli_target_trianglesquares.svg	26	yes	57	0	731	0	0			0	0			1				0	
6.6.1	win	2023-06-14	11:49:04	11:55:43	394120	63f77ee4aa0961332b87fd0f	3	1	main_slash	7	main_slash	145	stimuli_distractor_diamondtriangles.svg	stimuli_target_squaretriangles.svg	15	yes	53	1	669	0	0			0	0			1				0	
6.6.1	win	2023-06-14	11:49:04	11:55:43	394120	63f77ee4aa0961332b87fd0f	3	1	main_slash	7	advance_on_keypress_SLASH	146	stimuli_distractor_diamondtriangles.svg	stimuli_target_squaretriangles.svg	15	yes	57	0	579	0	0			0	0			1				0	
6.6.1	win	2023-06-14	11:49:04	11:55:45	396054	63f77ee4aa0961332b87fd0f	3	1	main_slash	7	main_slash	147	stimuli_distractor_trianglediamonds.svg	stimuli_target_diamondrectangles.svg	27	yes	53	1	721	0	0			0	0			1				0	
6.6.1	win	2023-06-14	11:49:04	11:55:45	396054	63f77ee4aa0961332b87fd0f	3	1	main_slash	7	advance_on_keypress_SLASH	148	stimuli_distractor_trianglediamonds.svg	stimuli_target_diamondrectangles.svg	27	yes	57	0	622	0	0			0	0			1				0	
6.6.1	win	2023-06-14	11:49:04	11:55:48	398421	63f77ee4aa0961332b87fd0f	3	1	main_slash	7	main_slash	149	stimuli_target_squarediamonds.svg	stimuli_distractor_trianglediamonds.svg	4	yes	53	1	1104	0	0			0	0			1				0	
6.6.1	win	2023-06-14	11:49:04	11:55:48	398421	63f77ee4aa0961332b87fd0f	3	1	main_slash	7	advance_on_keypress_SLASH	150	stimuli_target_squarediamonds.svg	stimuli_distractor_trianglediamonds.svg	4	yes	57	0	536	0	0			0	0			1				0	
6.6.1	win	2023-06-14	11:49:04	11:55:50	400904	63f77ee4aa0961332b87fd0f	3	1	main_slash	7	main_slash	151	stimuli_distractor_diamondtriangles.svg	stimuli_target_diamondrectangles.svg	31	yes	53	1	1304	0	0			0	0			1				0	
6.6.1	win	2023-06-14	11:49:04	11:55:50	400904	63f77ee4aa0961332b87fd0f	3	1	main_slash	7	advance_on_keypress_SLASH	152	stimuli_distractor_diamondtriangles.svg	stimuli_target_diamondrectangles.svg	31	yes	57	0	612	0	0			0	0			1				0	
6.6.1	win	2023-06-14	11:49:04	11:55:52	402943	63f77ee4aa0961332b87fd0f	3	1	main_slash	7	main_slash	153	stimuli_distractor_diamondtriangles.svg	stimuli_target_trianglerectangles.svg	29	yes	53	1	793	0	0			0	0			1				0	
6.6.1	win	2023-06-14	11:49:04	11:55:52	402943	63f77ee4aa0961332b87fd0f	3	1	main_slash	7	advance_on_keypress_SLASH	154	stimuli_distractor_diamondtriangles.svg	stimuli_target_trianglerectangles.svg	29	yes	57	0	3032	0	0			0	0			1				0	
6.6.1	win	2023-06-14	11:49:04	11:55:56	407111	63f77ee4aa0961332b87fd0f	3	1	main_slash	7	main_slash	155	stimuli_distractor_diamondtriangles.svg	stimuli_target_rectangletriangles.svg	13	yes	53	1	477	0	0			0	0			1				0	
6.6.1	win	2023-06-14	11:49:04	11:55:56	407111	63f77ee4aa0961332b87fd0f	3	1	main_slash	7	advance_on_keypress_SLASH	156	stimuli_distractor_diamondtriangles.svg	stimuli_target_rectangletriangles.svg	13	yes	57	0	413	0	0			0	0			1				0	
6.6.1	win	2023-06-14	11:49:04	11:55:58	408932	63f77ee4aa0961332b87fd0f	3	1	main_slash	7	main_slash	157	stimuli_target_rectangletriangles.svg	stimuli_distractor_diamondtriangles.svg	5	yes	53	1	749	0	0			0	0			1				0	
6.6.1	win	2023-06-14	11:49:04	11:55:58	408932	63f77ee4aa0961332b87fd0f	3	1	main_slash	7	advance_on_keypress_SLASH	158	stimuli_target_rectangletriangles.svg	stimuli_distractor_diamondtriangles.svg	5	yes	57	0	532	0	0			0	0			1				0	
6.6.1	win	2023-06-14	11:49:04	11:56:00	411160	63f77ee4aa0961332b87fd0f	3	1	main_slash	7	main_slash	159	stimuli_distractor_diamondtriangles.svg	stimuli_distractor_trianglediamonds.svg	37	no	53	0	1043	0	0			0	0			1				0	
6.6.1	win	2023-06-14	11:49:04	11:56:00	411160	63f77ee4aa0961332b87fd0f	3	1	main_slash	7	advance_on_keypress_SLASH	160	stimuli_distractor_diamondtriangles.svg	stimuli_distractor_trianglediamonds.svg	37	no	57	0	545	0	0			0	0			1				0	
6.6.1	win	2023-06-14	11:49:04	11:56:24	435217	63f77ee4aa0961332b87fd0f	3	1	practice_z	9	practice_z	1	stimuli_target_rectanglediamonds.svg	stimuli_distractor_trianglediamonds.svg	4	yes	44	1	1565	0	0			0	0			1				0	
6.6.1	win	2023-06-14	11:49:04	11:56:24	435217	63f77ee4aa0961332b87fd0f	3	1	practice_z	9	advance_on_keypress_ZEE	2	stimuli_target_rectanglediamonds.svg	stimuli_distractor_trianglediamonds.svg	4	yes	57	0	579	0	0			0	0			1				0	
6.6.1	win	2023-06-14	11:49:04	11:56:29	439453	63f77ee4aa0961332b87fd0f	3	1	practice_z	9	practice_z	3	stimuli_distractor_diamondtriangles.svg	stimuli_distractor_trianglediamonds.svg	14	no	0	1	2000	0	0			0	0			1				0	
6.6.1	win	2023-06-14	11:49:04	11:56:29	439453	63f77ee4aa0961332b87fd0f	3	1	practice_z	9	advance_on_keypress_ZEE	4	stimuli_distractor_diamondtriangles.svg	stimuli_distractor_trianglediamonds.svg	14	no	57	0	616	0	0			0	0			1				0	
6.6.1	win	2023-06-14	11:49:04	11:56:31	442296	63f77ee4aa0961332b87fd0f	3	1	practice_z	9	practice_z	5	stimuli_distractor_trianglediamonds.svg	stimuli_target_rectanglediamonds.svg	10	yes	44	1	576	0	0			0	0			1				0	
6.6.1	win	2023-06-14	11:49:04	11:56:31	442296	63f77ee4aa0961332b87fd0f	3	1	practice_z	9	advance_on_keypress_ZEE	6	stimuli_distractor_trianglediamonds.svg	stimuli_target_rectanglediamonds.svg	10	yes	57	0	500	0	0			0	0			1				0	
6.6.1	win	2023-06-14	11:49:04	11:56:34	444974	63f77ee4aa0961332b87fd0f	3	1	practice_z	9	practice_z	7	stimuli_distractor_diamondtriangles.svg	stimuli_target_rectangletriangles.svg	7	yes	44	1	522	0	0			0	0			1				0	
6.6.1	win	2023-06-14	11:49:04	11:56:34	444974	63f77ee4aa0961332b87fd0f	3	1	practice_z	9	advance_on_keypress_ZEE	8	stimuli_distractor_diamondtriangles.svg	stimuli_target_rectangletriangles.svg	7	yes	57	0	599	0	0			0	0			1				0	
6.6.1	win	2023-06-14	11:49:04	11:56:38	449235	63f77ee4aa0961332b87fd0f	3	1	practice_z	9	practice_z	9	stimuli_target_diamondsquares.svg	stimuli_distractor_trianglediamonds.svg	6	yes	0	0	2000	0	0			0	0			1				0	
6.6.1	win	2023-06-14	11:49:04	11:56:38	449235	63f77ee4aa0961332b87fd0f	3	1	practice_z	9	advance_on_keypress_ZEE	10	stimuli_target_diamondsquares.svg	stimuli_distractor_trianglediamonds.svg	6	yes	57	0	600	0	0			0	0			1				0	
6.6.1	win	2023-06-14	11:49:04	11:56:41	452160	63f77ee4aa0961332b87fd0f	3	1	practice_z	9	practice_z	11	stimuli_distractor_diamondtriangles.svg	stimuli_target_diamondrectangles.svg	8	yes	44	1	675	0	0			0	0			1				0	
6.6.1	win	2023-06-14	11:49:04	11:56:41	452160	63f77ee4aa0961332b87fd0f	3	1	practice_z	9	advance_on_keypress_ZEE	12	stimuli_distractor_diamondtriangles.svg	stimuli_target_diamondrectangles.svg	8	yes	57	0	594	0	0			0	0			1				0	
6.6.1	win	2023-06-14	11:49:04	11:56:46	456418	63f77ee4aa0961332b87fd0f	3	1	practice_z	9	practice_z	13	stimuli_distractor_diamondtriangles.svg	stimuli_distractor_diamondtriangles.svg	13	no	0	1	2000	0	0			0	0			1				0	
6.6.1	win	2023-06-14	11:49:04	11:56:46	456418	63f77ee4aa0961332b87fd0f	3	1	practice_z	9	advance_on_keypress_ZEE	14	stimuli_distractor_diamondtriangles.svg	stimuli_distractor_diamondtriangles.svg	13	no	57	0	575	0	0			0	0			1				0	
6.6.1	win	2023-06-14	11:49:04	11:56:49	459772	63f77ee4aa0961332b87fd0f	3	1	practice_z	9	practice_z	15	stimuli_target_diamondsquares.svg	stimuli_distractor_diamondtriangles.svg	3	yes	44	1	1136	0	0			0	0			1				0	
6.6.1	win	2023-06-14	11:49:04	11:56:49	459772	63f77ee4aa0961332b87fd0f	3	1	practice_z	9	advance_on_keypress_ZEE	16	stimuli_target_diamondsquares.svg	stimuli_distractor_diamondtriangles.svg	3	yes	57	0	518	0	0			0	0			1				0	
6.6.1	win	2023-06-14	11:49:04	11:56:52	462614	63f77ee4aa0961332b87fd0f	3	1	practice_z	9	practice_z	17	stimuli_distractor_diamondtriangles.svg	stimuli_target_trianglerectangles.svg	9	yes	44	1	678	0	0			0	0			1				0	
6.6.1	win	2023-06-14	11:49:04	11:56:52	462614	63f77ee4aa0961332b87fd0f	3	1	practice_z	9	advance_on_keypress_ZEE	18	stimuli_distractor_diamondtriangles.svg	stimuli_target_trianglerectangles.svg	9	yes	57	0	568	0	0			0	0			1				0	
6.6.1	win	2023-06-14	11:49:04	11:56:56	466835	63f77ee4aa0961332b87fd0f	3	1	practice_z	9	practice_z	19	stimuli_distractor_trianglediamonds.svg	stimuli_distractor_trianglediamonds.svg	15	no	0	1	2000	0	0			0	0			1				0	
6.6.1	win	2023-06-14	11:49:04	11:56:56	466835	63f77ee4aa0961332b87fd0f	3	1	practice_z	9	advance_on_keypress_ZEE	20	stimuli_distractor_trianglediamonds.svg	stimuli_distractor_trianglediamonds.svg	15	no	57	0	598	0	0			0	0			1				0	
6.6.1	win	2023-06-14	11:49:04	11:56:59	469619	63f77ee4aa0961332b87fd0f	3	1	practice_z	9	practice_z	21	stimuli_target_squarediamonds.svg	stimuli_distractor_trianglediamonds.svg	5	yes	44	1	534	0	0			0	0			1				0	
6.6.1	win	2023-06-14	11:49:04	11:56:59	469619	63f77ee4aa0961332b87fd0f	3	1	practice_z	9	advance_on_keypress_ZEE	22	stimuli_target_squarediamonds.svg	stimuli_distractor_trianglediamonds.svg	5	yes	57	0	493	0	0			0	0			1				0	
6.6.1	win	2023-06-14	11:49:04	11:57:02	472448	63f77ee4aa0961332b87fd0f	3	1	practice_z	9	practice_z	23	stimuli_distractor_trianglediamonds.svg	stimuli_target_squarediamonds.svg	11	yes	44	1	696	0	0			0	0			1				0	
6.6.1	win	2023-06-14	11:49:04	11:57:02	472448	63f77ee4aa0961332b87fd0f	3	1	practice_z	9	advance_on_keypress_ZEE	24	stimuli_distractor_trianglediamonds.svg	stimuli_target_squarediamonds.svg	11	yes	57	0	440	0	0			0	0			1				0	
6.6.1	win	2023-06-14	11:49:04	11:57:06	476535	63f77ee4aa0961332b87fd0f	3	1	practice_z	9	practice_z	25	stimuli_distractor_trianglediamonds.svg	stimuli_distractor_diamondtriangles.svg	16	no	0	1	2000	0	0			0	0			1				0	
6.6.1	win	2023-06-14	11:49:04	11:57:06	476535	63f77ee4aa0961332b87fd0f	3	1	practice_z	9	advance_on_keypress_ZEE	26	stimuli_distractor_trianglediamonds.svg	stimuli_distractor_diamondtriangles.svg	16	no	57	0	512	0	0			0	0			1				0	
6.6.1	win	2023-06-14	11:49:04	11:57:09	479387	63f77ee4aa0961332b87fd0f	3	1	practice_z	9	practice_z	27	stimuli_distractor_trianglediamonds.svg	stimuli_target_diamondrectangles.svg	12	yes	44	1	686	0	0			0	0			1				0	
6.6.1	win	2023-06-14	11:49:04	11:57:09	479387	63f77ee4aa0961332b87fd0f	3	1	practice_z	9	advance_on_keypress_ZEE	28	stimuli_distractor_trianglediamonds.svg	stimuli_target_diamondrectangles.svg	12	yes	57	0	407	0	0			0	0			1				0	
6.6.1	win	2023-06-14	11:49:04	11:57:11	482126	63f77ee4aa0961332b87fd0f	3	1	practice_z	9	practice_z	29	stimuli_target_squarediamonds.svg	stimuli_distractor_diamondtriangles.svg	2	yes	44	1	691	0	0			0	0			1				0	
6.6.1	win	2023-06-14	11:49:04	11:57:11	482126	63f77ee4aa0961332b87fd0f	3	1	practice_z	9	advance_on_keypress_ZEE	30	stimuli_target_squarediamonds.svg	stimuli_distractor_diamondtriangles.svg	2	yes	57	0	509	0	0			0	0			1				0	
6.6.1	win	2023-06-14	11:49:04	11:57:14	484904	63f77ee4aa0961332b87fd0f	3	1	practice_z	9	practice_z	31	stimuli_target_rectanglediamonds.svg	stimuli_distractor_diamondtriangles.svg	1	yes	44	1	619	0	0			0	0			1				0	
6.6.1	win	2023-06-14	11:49:04	11:57:14	484904	63f77ee4aa0961332b87fd0f	3	1	practice_z	9	advance_on_keypress_ZEE	32	stimuli_target_rectanglediamonds.svg	stimuli_distractor_diamondtriangles.svg	1	yes	57	0	298	0	0			0	0			1				0	
6.6.1	win	2023-06-14	11:49:04	11:57:18	489316	63f77ee4aa0961332b87fd0f	3	1	main_z	11	main_z	1	stimuli_target_trianglesquares.svg	stimuli_distractor_diamondtriangles.svg	22	yes	44	1	650	0	0			0	0			1				0	
6.6.1	win	2023-06-14	11:49:04	11:57:18	489316	63f77ee4aa0961332b87fd0f	3	1	main_z	11	advance_on_keypress_ZEE	2	stimuli_target_trianglesquares.svg	stimuli_distractor_diamondtriangles.svg	22	yes	57	0	953	0	0			0	0			1				0	
6.6.1	win	2023-06-14	11:49:04	11:57:21	491573	63f77ee4aa0961332b87fd0f	3	1	main_z	11	main_z	3	stimuli_target_rectangletriangles.svg	stimuli_distractor_trianglediamonds.svg	1	yes	44	1	659	0	0			0	0			1				0	
6.6.1	win	2023-06-14	11:49:04	11:57:21	491573	63f77ee4aa0961332b87fd0f	3	1	main_z	11	advance_on_keypress_ZEE	4	stimuli_target_rectangletriangles.svg	stimuli_distractor_trianglediamonds.svg	1	yes	57	0	1019	0	0			0	0			1				0	
6.6.1	win	2023-06-14	11:49:04	11:57:23	493908	63f77ee4aa0961332b87fd0f	3	1	main_z	11	main_z	5	stimuli_target_rectangletriangles.svg	stimuli_distractor_diamondtriangles.svg	5	yes	44	1	659	0	0			0	0			1				0	
6.6.1	win	2023-06-14	11:49:04	11:57:23	493908	63f77ee4aa0961332b87fd0f	3	1	main_z	11	advance_on_keypress_ZEE	6	stimuli_target_rectangletriangles.svg	stimuli_distractor_diamondtriangles.svg	5	yes	57	0	850	0	0			0	0			1				0	
6.6.1	win	2023-06-14	11:49:04	11:57:25	496039	63f77ee4aa0961332b87fd0f	3	1	main_z	11	main_z	7	stimuli_distractor_trianglediamonds.svg	stimuli_target_squarediamonds.svg	12	yes	44	1	623	0	0			0	0			1				0	
6.6.1	win	2023-06-14	11:49:04	11:57:25	496039	63f77ee4aa0961332b87fd0f	3	1	main_z	11	advance_on_keypress_ZEE	8	stimuli_distractor_trianglediamonds.svg	stimuli_target_squarediamonds.svg	12	yes	57	0	613	0	0			0	0			1				0	
6.6.1	win	2023-06-14	11:49:04	11:57:28	498438	63f77ee4aa0961332b87fd0f	3	1	main_z	11	main_z	9	stimuli_target_diamondrectangles.svg	stimuli_distractor_trianglediamonds.svg	19	yes	44	1	1139	0	0			0	0			1				0	
6.6.1	win	2023-06-14	11:49:04	11:57:28	498438	63f77ee4aa0961332b87fd0f	3	1	main_z	11	advance_on_keypress_ZEE	10	stimuli_target_diamondrectangles.svg	stimuli_distractor_trianglediamonds.svg	19	yes	57	0	585	0	0			0	0			1				0	
6.6.1	win	2023-06-14	11:49:04	11:57:30	500399	63f77ee4aa0961332b87fd0f	3	1	main_z	11	main_z	11	stimuli_target_squarediamonds.svg	stimuli_distractor_diamondtriangles.svg	8	yes	44	1	717	0	0			0	0			1				0	
6.6.1	win	2023-06-14	11:49:04	11:57:30	500399	63f77ee4aa0961332b87fd0f	3	1	main_z	11	advance_on_keypress_ZEE	12	stimuli_target_squarediamonds.svg	stimuli_distractor_diamondtriangles.svg	8	yes	57	0	850	0	0			0	0			1				0	
6.6.1	win	2023-06-14	11:49:04	11:57:32	502758	63f77ee4aa0961332b87fd0f	3	1	main_z	11	main_z	13	stimuli_distractor_diamondtriangles.svg	stimuli_target_trianglesquares.svg	30	yes	44	1	858	0	0			0	0			1				0	
6.6.1	win	2023-06-14	11:49:04	11:57:32	502758	63f77ee4aa0961332b87fd0f	3	1	main_z	11	advance_on_keypress_ZEE	14	stimuli_distractor_diamondtriangles.svg	stimuli_target_trianglesquares.svg	30	yes	57	0	636	0	0			0	0			1				0	
6.6.1	win	2023-06-14	11:49:04	11:57:34	505261	63f77ee4aa0961332b87fd0f	3	1	main_z	11	main_z	15	stimuli_target_trianglerectangles.svg	stimuli_distractor_diamondtriangles.svg	21	yes	44	1	1212	0	0			0	0			1				0	
6.6.1	win	2023-06-14	11:49:04	11:57:34	505261	63f77ee4aa0961332b87fd0f	3	1	main_z	11	advance_on_keypress_ZEE	16	stimuli_target_trianglerectangles.svg	stimuli_distractor_diamondtriangles.svg	21	yes	57	0	501	0	0			0	0			1				0	
6.6.1	win	2023-06-14	11:49:04	11:57:38	508416	63f77ee4aa0961332b87fd0f	3	1	main_z	11	main_z	17	stimuli_distractor_diamondtriangles.svg	stimuli_distractor_diamondtriangles.svg	40	no	0	1	2000	0	0			0	0			1				0	
6.6.1	win	2023-06-14	11:49:04	11:57:38	508416	63f77ee4aa0961332b87fd0f	3	1	main_z	11	advance_on_keypress_ZEE	18	stimuli_distractor_diamondtriangles.svg	stimuli_distractor_diamondtriangles.svg	40	no	57	0	576	0	0			0	0			1				0	
6.6.1	win	2023-06-14	11:49:04	11:57:40	510912	63f77ee4aa0961332b87fd0f	3	1	main_z	11	main_z	19	stimuli_target_diamondrectangles.svg	stimuli_distractor_diamondtriangles.svg	23	yes	44	1	1280	0	0			0	0			1				0	
6.6.1	win	2023-06-14	11:49:04	11:57:40	510912	63f77ee4aa0961332b87fd0f	3	1	main_z	11	advance_on_keypress_ZEE	20	stimuli_target_diamondrectangles.svg	stimuli_distractor_diamondtriangles.svg	23	yes	57	0	891	0	0			0	0			1				0	
6.6.1	win	2023-06-14	11:49:04	11:57:43	513634	63f77ee4aa0961332b87fd0f	3	1	main_z	11	main_z	21	stimuli_distractor_diamondtriangles.svg	stimuli_distractor_trianglediamonds.svg	38	no	44	0	1186	0	0			0	0			1				0	
6.6.1	win	2023-06-14	11:49:04	11:57:43	513634	63f77ee4aa0961332b87fd0f	3	1	main_z	11	advance_on_keypress_ZEE	22	stimuli_distractor_diamondtriangles.svg	stimuli_distractor_trianglediamonds.svg	38	no	57	0	387	0	0			0	0			1				0	
6.6.1	win	2023-06-14	11:49:04	11:57:46	516666	63f77ee4aa0961332b87fd0f	3	1	main_z	11	main_z	23	stimuli_distractor_diamondtriangles.svg	stimuli_target_squarediamonds.svg	16	yes	0	0	2000	0	0			0	0			1				0	
6.6.1	win	2023-06-14	11:49:04	11:57:46	516666	63f77ee4aa0961332b87fd0f	3	1	main_z	11	advance_on_keypress_ZEE	24	stimuli_distractor_diamondtriangles.svg	stimuli_target_squarediamonds.svg	16	yes	57	0	826	0	0			0	0			1				0	
6.6.1	win	2023-06-14	11:49:04	11:57:48	519181	63f77ee4aa0961332b87fd0f	3	1	main_z	11	main_z	25	stimuli_target_squaretriangles.svg	stimuli_distractor_trianglediamonds.svg	3	yes	44	1	1049	0	0			0	0			1				0	
6.6.1	win	2023-06-14	11:49:04	11:57:48	519181	63f77ee4aa0961332b87fd0f	3	1	main_z	11	advance_on_keypress_ZEE	26	stimuli_target_squaretriangles.svg	stimuli_distractor_trianglediamonds.svg	3	yes	57	0	665	0	0			0	0			1				0	
6.6.1	win	2023-06-14	11:49:04	11:57:50	521211	63f77ee4aa0961332b87fd0f	3	1	main_z	11	main_z	27	stimuli_distractor_trianglediamonds.svg	stimuli_target_trianglerectangles.svg	25	yes	44	1	713	0	0			0	0			1				0	
6.6.1	win	2023-06-14	11:49:04	11:57:50	521211	63f77ee4aa0961332b87fd0f	3	1	main_z	11	advance_on_keypress_ZEE	28	stimuli_distractor_trianglediamonds.svg	stimuli_target_trianglerectangles.svg	25	yes	57	0	502	0	0			0	0			1				0	
6.6.1	win	2023-06-14	11:49:04	11:57:53	523599	63f77ee4aa0961332b87fd0f	3	1	main_z	11	main_z	29	stimuli_target_trianglesquares.svg	stimuli_distractor_trianglediamonds.svg	18	yes	44	1	1233	0	0			0	0			1				0	
6.6.1	win	2023-06-14	11:49:04	11:57:53	523599	63f77ee4aa0961332b87fd0f	3	1	main_z	11	advance_on_keypress_ZEE	30	stimuli_target_trianglesquares.svg	stimuli_distractor_trianglediamonds.svg	18	yes	57	0	399	0	0			0	0			1				0	
6.6.1	win	2023-06-14	11:49:04	11:57:55	525380	63f77ee4aa0961332b87fd0f	3	1	main_z	11	main_z	31	stimuli_target_rectanglediamonds.svg	stimuli_distractor_diamondtriangles.svg	6	yes	44	1	732	0	0			0	0			1				0	
6.6.1	win	2023-06-14	11:49:04	11:57:55	525380	63f77ee4aa0961332b87fd0f	3	1	main_z	11	advance_on_keypress_ZEE	32	stimuli_target_rectanglediamonds.svg	stimuli_distractor_diamondtriangles.svg	6	yes	57	0	397	0	0			0	0			1				0	
6.6.1	win	2023-06-14	11:49:04	11:57:56	527139	63f77ee4aa0961332b87fd0f	3	1	main_z	11	main_z	33	stimuli_distractor_diamondtriangles.svg	stimuli_target_diamondrectangles.svg	31	yes	44	1	707	0	0			0	0			1				0	
6.6.1	win	2023-06-14	11:49:04	11:57:56	527139	63f77ee4aa0961332b87fd0f	3	1	main_z	11	advance_on_keypress_ZEE	34	stimuli_distractor_diamondtriangles.svg	stimuli_target_diamondrectangles.svg	31	yes	57	0	430	0	0			0	0			1				0	
6.6.1	win	2023-06-14	11:49:04	11:57:59	530215	63f77ee4aa0961332b87fd0f	3	1	main_z	11	main_z	35	stimuli_distractor_diamondtriangles.svg	stimuli_distractor_trianglediamonds.svg	37	no	0	1	2000	0	0			0	0			1				0	
6.6.1	win	2023-06-14	11:49:04	11:57:59	530215	63f77ee4aa0961332b87fd0f	3	1	main_z	11	advance_on_keypress_ZEE	36	stimuli_distractor_diamondtriangles.svg	stimuli_distractor_trianglediamonds.svg	37	no	57	0	567	0	0			0	0			1				0	
6.6.1	win	2023-06-14	11:49:04	11:58:03	533432	63f77ee4aa0961332b87fd0f	3	1	main_z	11	main_z	37	stimuli_distractor_trianglediamonds.svg	stimuli_distractor_trianglediamonds.svg	34	no	0	1	2000	0	0			0	0			1				0	
6.6.1	win	2023-06-14	11:49:04	11:58:03	533432	63f77ee4aa0961332b87fd0f	3	1	main_z	11	advance_on_keypress_ZEE	38	stimuli_distractor_trianglediamonds.svg	stimuli_distractor_trianglediamonds.svg	34	no	57	0	583	0	0			0	0			1				0	
6.6.1	win	2023-06-14	11:49:04	11:58:06	536665	63f77ee4aa0961332b87fd0f	3	1	main_z	11	main_z	39	stimuli_distractor_trianglediamonds.svg	stimuli_distractor_diamondtriangles.svg	36	no	0	1	2000	0	0			0	0			1				0	
6.6.1	win	2023-06-14	11:49:04	11:58:06	536665	63f77ee4aa0961332b87fd0f	3	1	main_z	11	advance_on_keypress_ZEE	40	stimuli_distractor_trianglediamonds.svg	stimuli_distractor_diamondtriangles.svg	36	no	57	0	513	0	0			0	0			1				0	
6.6.1	win	2023-06-14	11:49:04	11:58:08	538681	63f77ee4aa0961332b87fd0f	3	1	main_z	11	main_z	41	stimuli_distractor_diamondtriangles.svg	stimuli_target_diamondsquares.svg	32	yes	44	1	866	0	0			0	0			1				0	
6.6.1	win	2023-06-14	11:49:04	11:58:08	538681	63f77ee4aa0961332b87fd0f	3	1	main_z	11	advance_on_keypress_ZEE	42	stimuli_distractor_diamondtriangles.svg	stimuli_target_diamondsquares.svg	32	yes	57	0	394	0	0			0	0			1				0	
6.6.1	win	2023-06-14	11:49:04	11:58:10	540341	63f77ee4aa0961332b87fd0f	3	1	main_z	11	main_z	43	stimuli_distractor_trianglediamonds.svg	stimuli_target_rectangletriangles.svg	9	yes	44	1	625	0	0			0	0			1				0	
6.6.1	win	2023-06-14	11:49:04	11:58:10	540341	63f77ee4aa0961332b87fd0f	3	1	main_z	11	advance_on_keypress_ZEE	44	stimuli_distractor_trianglediamonds.svg	stimuli_target_rectangletriangles.svg	9	yes	57	0	444	0	0			0	0			1				0	
6.6.1	win	2023-06-14	11:49:04	11:58:11	542308	63f77ee4aa0961332b87fd0f	3	1	main_z	11	main_z	45	stimuli_target_squaretriangles.svg	stimuli_distractor_diamondtriangles.svg	7	yes	44	1	876	0	0			0	0			1				0	
6.6.1	win	2023-06-14	11:49:04	11:58:11	542308	63f77ee4aa0961332b87fd0f	3	1	main_z	11	advance_on_keypress_ZEE	46	stimuli_target_squaretriangles.svg	stimuli_distractor_diamondtriangles.svg	7	yes	57	0	423	0	0			0	0			1				0	
6.6.1	win	2023-06-14	11:49:04	11:58:13	543951	63f77ee4aa0961332b87fd0f	3	1	main_z	11	main_z	47	stimuli_distractor_trianglediamonds.svg	stimuli_target_squaretriangles.svg	11	yes	44	1	569	0	0			0	0			1				0	
6.6.1	win	2023-06-14	11:49:04	11:58:13	543951	63f77ee4aa0961332b87fd0f	3	1	main_z	11	advance_on_keypress_ZEE	48	stimuli_distractor_trianglediamonds.svg	stimuli_target_squaretriangles.svg	11	yes	57	0	331	0	0			0	0			1				0	
6.6.1	win	2023-06-14	11:49:04	11:58:15	545645	63f77ee4aa0961332b87fd0f	3	1	main_z	11	main_z	49	stimuli_target_squarediamonds.svg	stimuli_distractor_trianglediamonds.svg	4	yes	44	1	714	0	0			0	0			1				0	
6.6.1	win	2023-06-14	11:49:04	11:58:15	545645	63f77ee4aa0961332b87fd0f	3	1	main_z	11	advance_on_keypress_ZEE	50	stimuli_target_squarediamonds.svg	stimuli_distractor_trianglediamonds.svg	4	yes	57	0	390	0	0			0	0			1				0	
6.6.1	win	2023-06-14	11:49:04	11:58:16	547232	63f77ee4aa0961332b87fd0f	3	1	main_z	11	main_z	51	stimuli_distractor_trianglediamonds.svg	stimuli_target_trianglesquares.svg	26	yes	44	1	549	0	0			0	0			1				0	
6.6.1	win	2023-06-14	11:49:04	11:58:16	547232	63f77ee4aa0961332b87fd0f	3	1	main_z	11	advance_on_keypress_ZEE	52	stimuli_distractor_trianglediamonds.svg	stimuli_target_trianglesquares.svg	26	yes	57	0	389	0	0			0	0			1				0	
6.6.1	win	2023-06-14	11:49:04	11:58:18	548844	63f77ee4aa0961332b87fd0f	3	1	main_z	11	main_z	53	stimuli_distractor_diamondtriangles.svg	stimuli_target_trianglerectangles.svg	29	yes	44	1	578	0	0			0	0			1				0	
6.6.1	win	2023-06-14	11:49:04	11:58:18	548844	63f77ee4aa0961332b87fd0f	3	1	main_z	11	advance_on_keypress_ZEE	54	stimuli_distractor_diamondtriangles.svg	stimuli_target_trianglerectangles.svg	29	yes	57	0	360	0	0			0	0			1				0	
6.6.1	win	2023-06-14	11:49:04	11:58:19	550327	63f77ee4aa0961332b87fd0f	3	1	main_z	11	main_z	55	stimuli_distractor_diamondtriangles.svg	stimuli_target_rectanglediamonds.svg	14	yes	44	1	479	0	0			0	0			1				0	
6.6.1	win	2023-06-14	11:49:04	11:58:19	550327	63f77ee4aa0961332b87fd0f	3	1	main_z	11	advance_on_keypress_ZEE	56	stimuli_distractor_diamondtriangles.svg	stimuli_target_rectanglediamonds.svg	14	yes	57	0	346	0	0			0	0			1				0	
6.6.1	win	2023-06-14	11:49:04	11:58:21	551772	63f77ee4aa0961332b87fd0f	3	1	main_z	11	main_z	57	stimuli_distractor_diamondtriangles.svg	stimuli_target_squaretriangles.svg	15	yes	44	1	440	0	0			0	0			1				0	
6.6.1	win	2023-06-14	11:49:04	11:58:21	551772	63f77ee4aa0961332b87fd0f	3	1	main_z	11	advance_on_keypress_ZEE	58	stimuli_distractor_diamondtriangles.svg	stimuli_target_squaretriangles.svg	15	yes	57	0	319	0	0			0	0			1				0	
6.6.1	win	2023-06-14	11:49:04	11:58:23	554310	63f77ee4aa0961332b87fd0f	3	1	main_z	11	main_z	59	stimuli_target_diamondsquares.svg	stimuli_distractor_diamondtriangles.svg	24	yes	44	1	1578	0	0			0	0			1				0	
6.6.1	win	2023-06-14	11:49:04	11:58:23	554310	63f77ee4aa0961332b87fd0f	3	1	main_z	11	advance_on_keypress_ZEE	60	stimuli_target_diamondsquares.svg	stimuli_distractor_diamondtriangles.svg	24	yes	57	0	2554	0	0			0	0			1				0	
6.6.1	win	2023-06-14	11:49:04	11:58:29	559515	63f77ee4aa0961332b87fd0f	3	1	main_z	11	main_z	61	stimuli_distractor_diamondtriangles.svg	stimuli_distractor_diamondtriangles.svg	39	no	0	1	2000	0	0			0	0			1				0	
6.6.1	win	2023-06-14	11:49:04	11:58:29	559515	63f77ee4aa0961332b87fd0f	3	1	main_z	11	advance_on_keypress_ZEE	62	stimuli_distractor_diamondtriangles.svg	stimuli_distractor_diamondtriangles.svg	39	no	57	0	613	0	0			0	0			1				0	
6.6.1	win	2023-06-14	11:49:04	11:58:31	561458	63f77ee4aa0961332b87fd0f	3	1	main_z	11	main_z	63	stimuli_target_trianglerectangles.svg	stimuli_distractor_trianglediamonds.svg	17	yes	44	1	694	0	0			0	0			1				0	
6.6.1	win	2023-06-14	11:49:04	11:58:31	561458	63f77ee4aa0961332b87fd0f	3	1	main_z	11	advance_on_keypress_ZEE	64	stimuli_target_trianglerectangles.svg	stimuli_distractor_trianglediamonds.svg	17	yes	57	0	481	0	0			0	0			1				0	
6.6.1	win	2023-06-14	11:49:04	11:58:33	563382	63f77ee4aa0961332b87fd0f	3	1	main_z	11	main_z	65	stimuli_distractor_trianglediamonds.svg	stimuli_target_diamondsquares.svg	28	yes	44	1	783	0	0			0	0			1				0	
6.6.1	win	2023-06-14	11:49:04	11:58:33	563382	63f77ee4aa0961332b87fd0f	3	1	main_z	11	advance_on_keypress_ZEE	66	stimuli_distractor_trianglediamonds.svg	stimuli_target_diamondsquares.svg	28	yes	57	0	520	0	0			0	0			1				0	
6.6.1	win	2023-06-14	11:49:04	11:58:36	566548	63f77ee4aa0961332b87fd0f	3	1	main_z	11	main_z	67	stimuli_distractor_trianglediamonds.svg	stimuli_distractor_trianglediamonds.svg	33	no	0	1	2000	0	0			0	0			1				0	
6.6.1	win	2023-06-14	11:49:04	11:58:36	566548	63f77ee4aa0961332b87fd0f	3	1	main_z	11	advance_on_keypress_ZEE	68	stimuli_distractor_trianglediamonds.svg	stimuli_distractor_trianglediamonds.svg	33	no	57	0	487	0	0			0	0			1				0	
6.6.1	win	2023-06-14	11:49:04	11:58:37	568280	63f77ee4aa0961332b87fd0f	3	1	main_z	11	main_z	69	stimuli_target_rectanglediamonds.svg	stimuli_distractor_trianglediamonds.svg	2	yes	44	1	599	0	0			0	0			1				0	
6.6.1	win	2023-06-14	11:49:04	11:58:37	568280	63f77ee4aa0961332b87fd0f	3	1	main_z	11	advance_on_keypress_ZEE	70	stimuli_target_rectanglediamonds.svg	stimuli_distractor_trianglediamonds.svg	2	yes	57	0	520	0	0			0	0			1				0	
6.6.1	win	2023-06-14	11:49:04	11:58:39	570314	63f77ee4aa0961332b87fd0f	3	1	main_z	11	main_z	71	stimuli_target_diamondsquares.svg	stimuli_distractor_trianglediamonds.svg	20	yes	44	1	866	0	0			0	0			1				0	
6.6.1	win	2023-06-14	11:49:04	11:58:39	570314	63f77ee4aa0961332b87fd0f	3	1	main_z	11	advance_on_keypress_ZEE	72	stimuli_target_diamondsquares.svg	stimuli_distractor_trianglediamonds.svg	20	yes	57	0	376	0	0			0	0			1				0	
6.6.1	win	2023-06-14	11:49:04	11:58:43	573332	63f77ee4aa0961332b87fd0f	3	1	main_z	11	main_z	73	stimuli_distractor_trianglediamonds.svg	stimuli_distractor_diamondtriangles.svg	35	no	0	1	2000	0	0			0	0			1				0	
6.6.1	win	2023-06-14	11:49:04	11:58:43	573332	63f77ee4aa0961332b87fd0f	3	1	main_z	11	advance_on_keypress_ZEE	74	stimuli_distractor_trianglediamonds.svg	stimuli_distractor_diamondtriangles.svg	35	no	57	0	459	0	0			0	0			1				0	
6.6.1	win	2023-06-14	11:49:04	11:58:46	576431	63f77ee4aa0961332b87fd0f	3	1	main_z	11	main_z	75	stimuli_distractor_trianglediamonds.svg	stimuli_target_rectanglediamonds.svg	10	yes	0	0	2000	0	0			0	0			1				0	
6.6.1	win	2023-06-14	11:49:04	11:58:46	576431	63f77ee4aa0961332b87fd0f	3	1	main_z	11	advance_on_keypress_ZEE	76	stimuli_distractor_trianglediamonds.svg	stimuli_target_rectanglediamonds.svg	10	yes	57	0	487	0	0			0	0			1				0	
6.6.1	win	2023-06-14	11:49:04	11:58:48	578429	63f77ee4aa0961332b87fd0f	3	1	main_z	11	main_z	77	stimuli_distractor_diamondtriangles.svg	stimuli_target_rectangletriangles.svg	13	yes	44	1	864	0	0			0	0			1				0	
6.6.1	win	2023-06-14	11:49:04	11:58:48	578429	63f77ee4aa0961332b87fd0f	3	1	main_z	11	advance_on_keypress_ZEE	78	stimuli_distractor_diamondtriangles.svg	stimuli_target_rectangletriangles.svg	13	yes	57	0	646	0	0			0	0			1				0	
6.6.1	win	2023-06-14	11:49:04	11:58:50	581013	63f77ee4aa0961332b87fd0f	3	1	main_z	11	main_z	79	stimuli_distractor_trianglediamonds.svg	stimuli_target_diamondrectangles.svg	27	yes	44	1	1298	0	0			0	0			1				0	
6.6.1	win	2023-06-14	11:49:04	11:58:50	581013	63f77ee4aa0961332b87fd0f	3	1	main_z	11	advance_on_keypress_ZEE	80	stimuli_distractor_trianglediamonds.svg	stimuli_target_diamondrectangles.svg	27	yes	57	0	380	0	0			0	0			1				0	
6.6.1	win	2023-06-14	11:49:04	11:58:52	582916	63f77ee4aa0961332b87fd0f	3	1	main_z	11	main_z	81	stimuli_distractor_trianglediamonds.svg	stimuli_target_diamondrectangles.svg	27	yes	44	1	868	0	0			0	0			1				0	
6.6.1	win	2023-06-14	11:49:04	11:58:52	582916	63f77ee4aa0961332b87fd0f	3	1	main_z	11	advance_on_keypress_ZEE	82	stimuli_distractor_trianglediamonds.svg	stimuli_target_diamondrectangles.svg	27	yes	57	0	384	0	0			0	0			1				0	
6.6.1	win	2023-06-14	11:49:04	11:58:54	584671	63f77ee4aa0961332b87fd0f	3	1	main_z	11	main_z	83	stimuli_target_trianglerectangles.svg	stimuli_distractor_diamondtriangles.svg	21	yes	44	1	723	0	0			0	0			1				0	
6.6.1	win	2023-06-14	11:49:04	11:58:54	584671	63f77ee4aa0961332b87fd0f	3	1	main_z	11	advance_on_keypress_ZEE	84	stimuli_target_trianglerectangles.svg	stimuli_distractor_diamondtriangles.svg	21	yes	57	0	314	0	0			0	0			1				0	
6.6.1	win	2023-06-14	11:49:04	11:58:56	586380	63f77ee4aa0961332b87fd0f	3	1	main_z	11	main_z	85	stimuli_distractor_trianglediamonds.svg	stimuli_target_squaretriangles.svg	11	yes	44	1	749	0	0			0	0			1				0	
6.6.1	win	2023-06-14	11:49:04	11:58:56	586380	63f77ee4aa0961332b87fd0f	3	1	main_z	11	advance_on_keypress_ZEE	86	stimuli_distractor_trianglediamonds.svg	stimuli_target_squaretriangles.svg	11	yes	57	0	314	0	0			0	0			1				0	
6.6.1	win	2023-06-14	11:49:04	11:58:59	589348	63f77ee4aa0961332b87fd0f	3	1	main_z	11	main_z	87	stimuli_distractor_trianglediamonds.svg	stimuli_distractor_trianglediamonds.svg	33	no	0	1	2000	0	0			0	0			1				0	
6.6.1	win	2023-06-14	11:49:04	11:58:59	589348	63f77ee4aa0961332b87fd0f	3	1	main_z	11	advance_on_keypress_ZEE	88	stimuli_distractor_trianglediamonds.svg	stimuli_distractor_trianglediamonds.svg	33	no	57	0	518	0	0			0	0			1				0	
6.6.1	win	2023-06-14	11:49:04	11:59:00	591249	63f77ee4aa0961332b87fd0f	3	1	main_z	11	main_z	89	stimuli_target_trianglesquares.svg	stimuli_distractor_diamondtriangles.svg	22	yes	44	1	734	0	0			0	0			1				0	
6.6.1	win	2023-06-14	11:49:04	11:59:00	591249	63f77ee4aa0961332b87fd0f	3	1	main_z	11	advance_on_keypress_ZEE	90	stimuli_target_trianglesquares.svg	stimuli_distractor_diamondtriangles.svg	22	yes	57	0	306	0	0			0	0			1				0	
6.6.1	win	2023-06-14	11:49:04	11:59:02	592848	63f77ee4aa0961332b87fd0f	3	1	main_z	11	main_z	91	stimuli_distractor_diamondtriangles.svg	stimuli_target_trianglesquares.svg	30	yes	44	1	650	0	0			0	0			1				0	
6.6.1	win	2023-06-14	11:49:04	11:59:02	592848	63f77ee4aa0961332b87fd0f	3	1	main_z	11	advance_on_keypress_ZEE	92	stimuli_distractor_diamondtriangles.svg	stimuli_target_trianglesquares.svg	30	yes	57	0	334	0	0			0	0			1				0	
6.6.1	win	2023-06-14	11:49:04	11:59:04	595005	63f77ee4aa0961332b87fd0f	3	1	main_z	11	main_z	93	stimuli_distractor_trianglediamonds.svg	stimuli_target_rectangletriangles.svg	9	yes	44	1	1174	0	0			0	0			1				0	
6.6.1	win	2023-06-14	11:49:04	11:59:04	595005	63f77ee4aa0961332b87fd0f	3	1	main_z	11	advance_on_keypress_ZEE	94	stimuli_distractor_trianglediamonds.svg	stimuli_target_rectangletriangles.svg	9	yes	57	0	579	0	0			0	0			1				0	
6.6.1	win	2023-06-14	11:49:04	11:59:06	596834	63f77ee4aa0961332b87fd0f	3	1	main_z	11	main_z	95	stimuli_distractor_diamondtriangles.svg	stimuli_target_trianglerectangles.svg	29	yes	44	1	620	0	0			0	0			1				0	
6.6.1	win	2023-06-14	11:49:04	11:59:06	596834	63f77ee4aa0961332b87fd0f	3	1	main_z	11	advance_on_keypress_ZEE	96	stimuli_distractor_diamondtriangles.svg	stimuli_target_trianglerectangles.svg	29	yes	57	0	397	0	0			0	0			1				0	
6.6.1	win	2023-06-14	11:49:04	11:59:08	598522	63f77ee4aa0961332b87fd0f	3	1	main_z	11	main_z	97	stimuli_target_trianglerectangles.svg	stimuli_distractor_trianglediamonds.svg	17	yes	44	1	641	0	0			0	0			1				0	
6.6.1	win	2023-06-14	11:49:04	11:59:08	598522	63f77ee4aa0961332b87fd0f	3	1	main_z	11	advance_on_keypress_ZEE	98	stimuli_target_trianglerectangles.svg	stimuli_distractor_trianglediamonds.svg	17	yes	57	0	274	0	0			0	0			1				0	
6.6.1	win	2023-06-14	11:49:04	11:59:09	600136	63f77ee4aa0961332b87fd0f	3	1	main_z	11	main_z	99	stimuli_target_diamondsquares.svg	stimuli_distractor_trianglediamonds.svg	20	yes	44	1	689	0	0			0	0			1				0	
6.6.1	win	2023-06-14	11:49:04	11:59:09	600136	63f77ee4aa0961332b87fd0f	3	1	main_z	11	advance_on_keypress_ZEE	100	stimuli_target_diamondsquares.svg	stimuli_distractor_trianglediamonds.svg	20	yes	57	0	362	0	0			0	0			1				0	
6.6.1	win	2023-06-14	11:49:04	11:59:11	601986	63f77ee4aa0961332b87fd0f	3	1	main_z	11	main_z	101	stimuli_distractor_diamondtriangles.svg	stimuli_distractor_trianglediamonds.svg	37	no	44	0	855	0	0			0	0			1				0	
6.6.1	win	2023-06-14	11:49:04	11:59:11	601986	63f77ee4aa0961332b87fd0f	3	1	main_z	11	advance_on_keypress_ZEE	102	stimuli_distractor_diamondtriangles.svg	stimuli_distractor_trianglediamonds.svg	37	no	57	0	580	0	0			0	0			1				0	
6.6.1	win	2023-06-14	11:49:04	11:59:13	604006	63f77ee4aa0961332b87fd0f	3	1	main_z	11	main_z	103	stimuli_distractor_trianglediamonds.svg	stimuli_target_trianglerectangles.svg	25	yes	44	1	792	0	0			0	0			1				0	
6.6.1	win	2023-06-14	11:49:04	11:59:13	604006	63f77ee4aa0961332b87fd0f	3	1	main_z	11	advance_on_keypress_ZEE	104	stimuli_distractor_trianglediamonds.svg	stimuli_target_trianglerectangles.svg	25	yes	57	0	310	0	0			0	0			1				0	
6.6.1	win	2023-06-14	11:49:04	11:59:15	606153	63f77ee4aa0961332b87fd0f	3	1	main_z	11	main_z	105	stimuli_target_squaretriangles.svg	stimuli_distractor_trianglediamonds.svg	3	yes	44	1	1188	0	0			0	0			1				0	
6.6.1	win	2023-06-14	11:49:04	11:59:15	606153	63f77ee4aa0961332b87fd0f	3	1	main_z	11	advance_on_keypress_ZEE	106	stimuli_target_squaretriangles.svg	stimuli_distractor_trianglediamonds.svg	3	yes	57	0	328	0	0			0	0			1				0	
6.6.1	win	2023-06-14	11:49:04	11:59:17	607841	63f77ee4aa0961332b87fd0f	3	1	main_z	11	main_z	107	stimuli_target_rectangletriangles.svg	stimuli_distractor_diamondtriangles.svg	5	yes	44	1	727	0	0			0	0			1				0	
6.6.1	win	2023-06-14	11:49:04	11:59:17	607841	63f77ee4aa0961332b87fd0f	3	1	main_z	11	advance_on_keypress_ZEE	108	stimuli_target_rectangletriangles.svg	stimuli_distractor_diamondtriangles.svg	5	yes	57	0	366	0	0			0	0			1				0	
6.6.1	win	2023-06-14	11:49:04	11:59:19	609507	63f77ee4aa0961332b87fd0f	3	1	main_z	11	main_z	109	stimuli_distractor_diamondtriangles.svg	stimuli_target_rectanglediamonds.svg	14	yes	44	1	642	0	0			0	0			1				0	
6.6.1	win	2023-06-14	11:49:04	11:59:19	609507	63f77ee4aa0961332b87fd0f	3	1	main_z	11	advance_on_keypress_ZEE	110	stimuli_distractor_diamondtriangles.svg	stimuli_target_rectanglediamonds.svg	14	yes	57	0	386	0	0			0	0			1				0	
6.6.1	win	2023-06-14	11:49:04	11:59:21	611567	63f77ee4aa0961332b87fd0f	3	1	main_z	11	main_z	111	stimuli_distractor_diamondtriangles.svg	stimuli_target_rectangletriangles.svg	13	yes	44	1	1019	0	0			0	0			1				0	
6.6.1	win	2023-06-14	11:49:04	11:59:21	611567	63f77ee4aa0961332b87fd0f	3	1	main_z	11	advance_on_keypress_ZEE	112	stimuli_distractor_diamondtriangles.svg	stimuli_target_rectangletriangles.svg	13	yes	57	0	354	0	0			0	0			1				0	
6.6.1	win	2023-06-14	11:49:04	11:59:22	613255	63f77ee4aa0961332b87fd0f	3	1	main_z	11	main_z	113	stimuli_distractor_trianglediamonds.svg	stimuli_target_squarediamonds.svg	12	yes	44	1	691	0	0			0	0			1				0	
6.6.1	win	2023-06-14	11:49:04	11:59:22	613255	63f77ee4aa0961332b87fd0f	3	1	main_z	11	advance_on_keypress_ZEE	114	stimuli_distractor_trianglediamonds.svg	stimuli_target_squarediamonds.svg	12	yes	57	0	418	0	0			0	0			1				0	
6.6.1	win	2023-06-14	11:49:04	11:59:24	614888	63f77ee4aa0961332b87fd0f	3	1	main_z	11	main_z	115	stimuli_target_squarediamonds.svg	stimuli_distractor_trianglediamonds.svg	4	yes	44	1	558	0	0			0	0			1				0	
6.6.1	win	2023-06-14	11:49:04	11:59:24	614888	63f77ee4aa0961332b87fd0f	3	1	main_z	11	advance_on_keypress_ZEE	116	stimuli_target_squarediamonds.svg	stimuli_distractor_trianglediamonds.svg	4	yes	57	0	411	0	0			0	0			1				0	
6.6.1	win	2023-06-14	11:49:04	11:59:26	616617	63f77ee4aa0961332b87fd0f	3	1	main_z	11	main_z	117	stimuli_distractor_trianglediamonds.svg	stimuli_target_trianglesquares.svg	26	yes	44	1	670	0	0			0	0			1				0	
6.6.1	win	2023-06-14	11:49:04	11:59:26	616617	63f77ee4aa0961332b87fd0f	3	1	main_z	11	advance_on_keypress_ZEE	118	stimuli_distractor_trianglediamonds.svg	stimuli_target_trianglesquares.svg	26	yes	57	0	403	0	0			0	0			1				0	
6.6.1	win	2023-06-14	11:49:04	11:59:28	618377	63f77ee4aa0961332b87fd0f	3	1	main_z	11	main_z	119	stimuli_distractor_trianglediamonds.svg	stimuli_target_diamondsquares.svg	28	yes	44	1	712	0	0			0	0			1				0	
6.6.1	win	2023-06-14	11:49:04	11:59:28	618377	63f77ee4aa0961332b87fd0f	3	1	main_z	11	advance_on_keypress_ZEE	120	stimuli_distractor_trianglediamonds.svg	stimuli_target_diamondsquares.svg	28	yes	57	0	572	0	0			0	0			1				0	
6.6.1	win	2023-06-14	11:49:04	11:59:30	620487	63f77ee4aa0961332b87fd0f	3	1	main_z	11	main_z	121	stimuli_target_diamondrectangles.svg	stimuli_distractor_diamondtriangles.svg	23	yes	44	1	890	0	0			0	0			1				0	
6.6.1	win	2023-06-14	11:49:04	11:59:30	620487	63f77ee4aa0961332b87fd0f	3	1	main_z	11	advance_on_keypress_ZEE	122	stimuli_target_diamondrectangles.svg	stimuli_distractor_diamondtriangles.svg	23	yes	57	0	507	0	0			0	0			1				0	
6.6.1	win	2023-06-14	11:49:04	11:59:32	622720	63f77ee4aa0961332b87fd0f	3	1	main_z	11	main_z	123	stimuli_target_diamondrectangles.svg	stimuli_distractor_trianglediamonds.svg	19	yes	44	1	1090	0	0			0	0			1				0	
6.6.1	win	2023-06-14	11:49:04	11:59:32	622720	63f77ee4aa0961332b87fd0f	3	1	main_z	11	advance_on_keypress_ZEE	124	stimuli_target_diamondrectangles.svg	stimuli_distractor_trianglediamonds.svg	19	yes	57	0	1135	0	0			0	0			1				0	
6.6.1	win	2023-06-14	11:49:04	11:59:36	626497	63f77ee4aa0961332b87fd0f	3	1	main_z	11	main_z	125	stimuli_distractor_trianglediamonds.svg	stimuli_distractor_trianglediamonds.svg	34	no	0	1	2000	0	0			0	0			1				0	
6.6.1	win	2023-06-14	11:49:04	11:59:36	626497	63f77ee4aa0961332b87fd0f	3	1	main_z	11	advance_on_keypress_ZEE	126	stimuli_distractor_trianglediamonds.svg	stimuli_distractor_trianglediamonds.svg	34	no	57	0	968	0	0			0	0			1				0	
6.6.1	win	2023-06-14	11:49:04	11:59:38	628678	63f77ee4aa0961332b87fd0f	3	1	main_z	11	main_z	127	stimuli_distractor_trianglediamonds.svg	stimuli_target_rectanglediamonds.svg	10	yes	44	1	564	0	0			0	0			1				0	
6.6.1	win	2023-06-14	11:49:04	11:59:38	628678	63f77ee4aa0961332b87fd0f	3	1	main_z	11	advance_on_keypress_ZEE	128	stimuli_distractor_trianglediamonds.svg	stimuli_target_rectanglediamonds.svg	10	yes	57	0	435	0	0			0	0			1				0	
6.6.1	win	2023-06-14	11:49:04	11:59:41	631764	63f77ee4aa0961332b87fd0f	3	1	main_z	11	main_z	129	stimuli_distractor_trianglediamonds.svg	stimuli_distractor_diamondtriangles.svg	36	no	0	1	2000	0	0			0	0			1				0	
6.6.1	win	2023-06-14	11:49:04	11:59:41	631764	63f77ee4aa0961332b87fd0f	3	1	main_z	11	advance_on_keypress_ZEE	130	stimuli_distractor_trianglediamonds.svg	stimuli_distractor_diamondtriangles.svg	36	no	57	0	644	0	0			0	0			1				0	
6.6.1	win	2023-06-14	11:49:04	11:59:43	633669	63f77ee4aa0961332b87fd0f	3	1	main_z	11	main_z	131	stimuli_distractor_diamondtriangles.svg	stimuli_target_diamondsquares.svg	32	yes	44	1	622	0	0			0	0			1				0	
6.6.1	win	2023-06-14	11:49:04	11:59:43	633669	63f77ee4aa0961332b87fd0f	3	1	main_z	11	advance_on_keypress_ZEE	132	stimuli_distractor_diamondtriangles.svg	stimuli_target_diamondsquares.svg	32	yes	57	0	968	0	0			0	0			1				0	
6.6.1	win	2023-06-14	11:49:04	11:59:46	637280	63f77ee4aa0961332b87fd0f	3	1	main_z	11	main_z	133	stimuli_distractor_diamondtriangles.svg	stimuli_distractor_trianglediamonds.svg	38	no	0	1	2000	0	0			0	0			1				0	
6.6.1	win	2023-06-14	11:49:04	11:59:46	637280	63f77ee4aa0961332b87fd0f	3	1	main_z	11	advance_on_keypress_ZEE	134	stimuli_distractor_diamondtriangles.svg	stimuli_distractor_trianglediamonds.svg	38	no	57	0	605	0	0			0	0			1				0	
6.6.1	win	2023-06-14	11:49:04	11:59:50	640530	63f77ee4aa0961332b87fd0f	3	1	main_z	11	main_z	135	stimuli_distractor_diamondtriangles.svg	stimuli_distractor_diamondtriangles.svg	40	no	0	1	2000	0	0			0	0			1				0	
6.6.1	win	2023-06-14	11:49:04	11:59:50	640530	63f77ee4aa0961332b87fd0f	3	1	main_z	11	advance_on_keypress_ZEE	136	stimuli_distractor_diamondtriangles.svg	stimuli_distractor_diamondtriangles.svg	40	no	57	0	456	0	0			0	0			1				0	
6.6.1	win	2023-06-14	11:49:04	11:59:52	642454	63f77ee4aa0961332b87fd0f	3	1	main_z	11	main_z	137	stimuli_target_squarediamonds.svg	stimuli_distractor_diamondtriangles.svg	8	yes	44	1	824	0	0			0	0			1				0	
6.6.1	win	2023-06-14	11:49:04	11:59:52	642454	63f77ee4aa0961332b87fd0f	3	1	main_z	11	advance_on_keypress_ZEE	138	stimuli_target_squarediamonds.svg	stimuli_distractor_diamondtriangles.svg	8	yes	57	0	694	0	0			0	0			1				0	
6.6.1	win	2023-06-14	11:49:04	11:59:54	644587	63f77ee4aa0961332b87fd0f	3	1	main_z	11	main_z	139	stimuli_target_rectanglediamonds.svg	stimuli_distractor_trianglediamonds.svg	2	yes	44	1	807	0	0			0	0			1				0	
6.6.1	win	2023-06-14	11:49:04	11:59:54	644587	63f77ee4aa0961332b87fd0f	3	1	main_z	11	advance_on_keypress_ZEE	140	stimuli_target_rectanglediamonds.svg	stimuli_distractor_trianglediamonds.svg	2	yes	57	0	533	0	0			0	0			1				0	
6.6.1	win	2023-06-14	11:49:04	11:59:56	646683	63f77ee4aa0961332b87fd0f	3	1	main_z	11	main_z	141	stimuli_target_diamondsquares.svg	stimuli_distractor_diamondtriangles.svg	24	yes	44	1	920	0	0			0	0			1				0	
6.6.1	win	2023-06-14	11:49:04	11:59:56	646683	63f77ee4aa0961332b87fd0f	3	1	main_z	11	advance_on_keypress_ZEE	142	stimuli_target_diamondsquares.svg	stimuli_distractor_diamondtriangles.svg	24	yes	57	0	437	0	0			0	0			1				0	
6.6.1	win	2023-06-14	11:49:04	11:59:58	648566	63f77ee4aa0961332b87fd0f	3	1	main_z	11	main_z	143	stimuli_distractor_diamondtriangles.svg	stimuli_target_diamondrectangles.svg	31	yes	44	1	803	0	0			0	0			1				0	
6.6.1	win	2023-06-14	11:49:04	11:59:58	648566	63f77ee4aa0961332b87fd0f	3	1	main_z	11	advance_on_keypress_ZEE	144	stimuli_distractor_diamondtriangles.svg	stimuli_target_diamondrectangles.svg	31	yes	57	0	603	0	0			0	0			1				0	
6.6.1	win	2023-06-14	11:49:04	12:00:01	651814	63f77ee4aa0961332b87fd0f	3	1	main_z	11	main_z	145	stimuli_distractor_diamondtriangles.svg	stimuli_distractor_diamondtriangles.svg	39	no	0	1	2000	0	0			0	0			1				0	
6.6.1	win	2023-06-14	11:49:04	12:00:01	651814	63f77ee4aa0961332b87fd0f	3	1	main_z	11	advance_on_keypress_ZEE	146	stimuli_distractor_diamondtriangles.svg	stimuli_distractor_diamondtriangles.svg	39	no	57	0	662	0	0			0	0			1				0	
6.6.1	win	2023-06-14	11:49:04	12:00:04	655114	63f77ee4aa0961332b87fd0f	3	1	main_z	11	main_z	147	stimuli_distractor_trianglediamonds.svg	stimuli_distractor_diamondtriangles.svg	35	no	0	1	2000	0	0			0	0			1				0	
6.6.1	win	2023-06-14	11:49:04	12:00:04	655114	63f77ee4aa0961332b87fd0f	3	1	main_z	11	advance_on_keypress_ZEE	148	stimuli_distractor_trianglediamonds.svg	stimuli_distractor_diamondtriangles.svg	35	no	57	0	666	0	0			0	0			1				0	
6.6.1	win	2023-06-14	11:49:04	12:00:06	657171	63f77ee4aa0961332b87fd0f	3	1	main_z	11	main_z	149	stimuli_target_rectanglediamonds.svg	stimuli_distractor_diamondtriangles.svg	6	yes	44	1	741	0	0			0	0			1				0	
6.6.1	win	2023-06-14	11:49:04	12:00:06	657171	63f77ee4aa0961332b87fd0f	3	1	main_z	11	advance_on_keypress_ZEE	150	stimuli_target_rectanglediamonds.svg	stimuli_distractor_diamondtriangles.svg	6	yes	57	0	398	0	0			0	0			1				0	
6.6.1	win	2023-06-14	11:49:04	12:00:08	658817	63f77ee4aa0961332b87fd0f	3	1	main_z	11	main_z	151	stimuli_target_rectangletriangles.svg	stimuli_distractor_trianglediamonds.svg	1	yes	44	1	587	0	0			0	0			1				0	
6.6.1	win	2023-06-14	11:49:04	12:00:08	658817	63f77ee4aa0961332b87fd0f	3	1	main_z	11	advance_on_keypress_ZEE	152	stimuli_target_rectangletriangles.svg	stimuli_distractor_trianglediamonds.svg	1	yes	57	0	318	0	0			0	0			1				0	
6.6.1	win	2023-06-14	11:49:04	12:00:09	660323	63f77ee4aa0961332b87fd0f	3	1	main_z	11	main_z	153	stimuli_target_squaretriangles.svg	stimuli_distractor_diamondtriangles.svg	7	yes	44	1	543	0	0			0	0			1				0	
6.6.1	win	2023-06-14	11:49:04	12:00:09	660323	63f77ee4aa0961332b87fd0f	3	1	main_z	11	advance_on_keypress_ZEE	154	stimuli_target_squaretriangles.svg	stimuli_distractor_diamondtriangles.svg	7	yes	57	0	317	0	0			0	0			1				0	
6.6.1	win	2023-06-14	11:49:04	12:00:11	661790	63f77ee4aa0961332b87fd0f	3	1	main_z	11	main_z	155	stimuli_distractor_diamondtriangles.svg	stimuli_target_squaretriangles.svg	15	yes	44	1	494	0	0			0	0			1				0	
6.6.1	win	2023-06-14	11:49:04	12:00:11	661790	63f77ee4aa0961332b87fd0f	3	1	main_z	11	advance_on_keypress_ZEE	156	stimuli_distractor_diamondtriangles.svg	stimuli_target_squaretriangles.svg	15	yes	57	0	354	0	0			0	0			1				0	
6.6.1	win	2023-06-14	11:49:04	12:00:12	663275	63f77ee4aa0961332b87fd0f	3	1	main_z	11	main_z	157	stimuli_distractor_diamondtriangles.svg	stimuli_target_squarediamonds.svg	16	yes	44	1	479	0	0			0	0			1				0	
6.6.1	win	2023-06-14	11:49:04	12:00:12	663275	63f77ee4aa0961332b87fd0f	3	1	main_z	11	advance_on_keypress_ZEE	158	stimuli_distractor_diamondtriangles.svg	stimuli_target_squarediamonds.svg	16	yes	57	0	333	0	0			0	0			1				0	
6.6.1	win	2023-06-14	11:49:04	12:00:15	666264	63f77ee4aa0961332b87fd0f	3	1	main_z	11	main_z	159	stimuli_target_trianglesquares.svg	stimuli_distractor_trianglediamonds.svg	18	yes	0	0	2000	0	0			0	0			1				0	
6.6.1	win	2023-06-14	11:49:04	12:00:15	666264	63f77ee4aa0961332b87fd0f	3	1	main_z	11	advance_on_keypress_ZEE	160	stimuli_target_trianglesquares.svg	stimuli_distractor_trianglediamonds.svg	18	yes	57	0	607	0	0			0	0			1				0	
6.6.1	win	2023-06-14	11:49:04	12:00:15	666264	63f77ee4aa0961332b87fd0f	3	1	headphonecheck_calibration	14	headphonecheck_calibrationIntro	1	stimuli_target_trianglesquares.svg	stimuli_distractor_trianglediamonds.svg	18	yes	calibrationButton	0	1487	0	0			0	0			1				0	
6.6.1	win	2023-06-14	11:49:04	12:00:15	666264	63f77ee4aa0961332b87fd0f	3	1	headphonecheck_testphase	15	test_collectResponse	3	stimuli_target_trianglesquares.svg	stimuli_distractor_trianglediamonds.svg	18	yes	first	1	4595	1	3	antiphase_hc_soi.wav	1	0	0			1				0	
6.6.1	win	2023-06-14	11:49:04	12:00:15	666264	63f77ee4aa0961332b87fd0f	3	1	headphonecheck_testphase	15	test_collectResponse	6	stimuli_target_trianglesquares.svg	stimuli_distractor_trianglediamonds.svg	18	yes	third	1	588	2	2	antiphase_hc_ios.wav	3	0	0			1				0	
6.6.1	win	2023-06-14	11:49:04	12:00:15	666264	63f77ee4aa0961332b87fd0f	3	1	headphonecheck_testphase	15	test_collectResponse	9	stimuli_target_trianglesquares.svg	stimuli_distractor_trianglediamonds.svg	18	yes	second	1	642	3	5	antiphase_hc_osi.wav	2	0	0			1				0	
6.6.1	win	2023-06-14	11:49:04	12:00:15	666264	63f77ee4aa0961332b87fd0f	3	1	headphonecheck_testphase	15	test_collectResponse	12	stimuli_target_trianglesquares.svg	stimuli_distractor_trianglediamonds.svg	18	yes	first	1	373	4	4	antiphase_hc_sio.wav	1	0	0			1				0	
6.6.1	win	2023-06-14	11:49:04	12:00:15	666264	63f77ee4aa0961332b87fd0f	3	1	headphonecheck_testphase	15	test_collectResponse	15	stimuli_target_trianglesquares.svg	stimuli_distractor_trianglediamonds.svg	18	yes	third	1	227	5	6	antiphase_hc_ois.wav	3	0	0			1				0	
6.6.1	win	2023-06-14	11:49:04	12:00:15	666264	63f77ee4aa0961332b87fd0f	3	1	headphonecheck_testphase	15	test_collectResponse	18	stimuli_target_trianglesquares.svg	stimuli_distractor_trianglediamonds.svg	18	yes	second	1	439	6	1	antiphase_hc_iso.wav	2	0	0			1				0	
6.6.1	win	2023-06-14	11:49:04	12:00:15	666264	63f77ee4aa0961332b87fd0f	3	1	stereocheck_calibration	17	stereocheck_calibrationIntro	1	stimuli_target_trianglesquares.svg	stimuli_distractor_trianglediamonds.svg	18	yes	stereocheck_calibrationButton	0	2022	6	1	antiphase_hc_iso.wav	2	0	0			1				0	
6.6.1	win	2023-06-14	11:49:04	12:00:15	666264	63f77ee4aa0961332b87fd0f	3	1	stereocheck_testphase	18	stereocheck_test_collectResponse	3	stimuli_target_trianglesquares.svg	stimuli_distractor_trianglediamonds.svg	18	yes	stereocheck_left	1	1214	6	1	antiphase_hc_iso.wav	2	1	3	noise_calib_stim_LEFT.wav	1	1				0	
6.6.1	win	2023-06-14	11:49:04	12:00:15	666264	63f77ee4aa0961332b87fd0f	3	1	stereocheck_testphase	18	stereocheck_test_collectResponse	6	stimuli_target_trianglesquares.svg	stimuli_distractor_trianglediamonds.svg	18	yes	stereocheck_left	1	307	6	1	antiphase_hc_iso.wav	2	2	1	noise_calib_stim_LEFT.wav	1	1				0	
6.6.1	win	2023-06-14	11:49:04	12:00:15	666264	63f77ee4aa0961332b87fd0f	3	1	stereocheck_testphase	18	stereocheck_test_collectResponse	9	stimuli_target_trianglesquares.svg	stimuli_distractor_trianglediamonds.svg	18	yes	stereocheck_right	1	445	6	1	antiphase_hc_iso.wav	2	3	6	noise_calib_stim_RIGHT.wav	2	1				0	
6.6.1	win	2023-06-14	11:49:04	12:00:15	666264	63f77ee4aa0961332b87fd0f	3	1	stereocheck_testphase	18	stereocheck_test_collectResponse	12	stimuli_target_trianglesquares.svg	stimuli_distractor_trianglediamonds.svg	18	yes	stereocheck_left	1	449	6	1	antiphase_hc_iso.wav	2	4	2	noise_calib_stim_LEFT.wav	1	1				0	
6.6.1	win	2023-06-14	11:49:04	12:00:15	666264	63f77ee4aa0961332b87fd0f	3	1	stereocheck_testphase	18	stereocheck_test_collectResponse	15	stimuli_target_trianglesquares.svg	stimuli_distractor_trianglediamonds.svg	18	yes	stereocheck_right	1	391	6	1	antiphase_hc_iso.wav	2	5	5	noise_calib_stim_RIGHT.wav	2	1				0	
6.6.1	win	2023-06-14	11:49:04	12:00:15	666264	63f77ee4aa0961332b87fd0f	3	1	stereocheck_testphase	18	stereocheck_test_collectResponse	18	stimuli_target_trianglesquares.svg	stimuli_distractor_trianglediamonds.svg	18	yes	stereocheck_right	1	964	6	1	antiphase_hc_iso.wav	2	6	4	noise_calib_stim_RIGHT.wav	2	1				0	
6.6.1	win	2023-06-14	11:49:04	12:00:15	666264	63f77ee4aa0961332b87fd0f	3	1	DL_practice	21	DL_practice	2	stimuli_target_trianglesquares.svg	stimuli_distractor_trianglediamonds.svg	18	yes	pa	1	1657	6	1	antiphase_hc_iso.wav	2	6	4	noise_calib_stim_RIGHT.wav	2	29	blb_dichoticlistening_pa-pa.mp3	pa	pa	0	left
6.6.1	win	2023-06-14	11:49:04	12:00:15	666264	63f77ee4aa0961332b87fd0f	3	1	DL_practice	21	DL_practice	3	stimuli_target_trianglesquares.svg	stimuli_distractor_trianglediamonds.svg	18	yes	ta	1	1228	6	1	antiphase_hc_iso.wav	2	6	4	noise_calib_stim_RIGHT.wav	2	36	blb_dichoticlistening_ta-ta.mp3	ta	ta	0	left
6.6.1	win	2023-06-14	11:49:04	12:00:15	666264	63f77ee4aa0961332b87fd0f	3	1	DL_practice	21	DL_practice	4	stimuli_target_trianglesquares.svg	stimuli_distractor_trianglediamonds.svg	18	yes	ka	1	986	6	1	antiphase_hc_iso.wav	2	6	4	noise_calib_stim_RIGHT.wav	2	22	blb_dichoticlistening_ka-ka.mp3	ka	ka	0	left
6.6.1	win	2023-06-14	11:49:04	12:00:15	666264	63f77ee4aa0961332b87fd0f	3	1	DL_practice	21	DL_practice	5	stimuli_target_trianglesquares.svg	stimuli_distractor_trianglediamonds.svg	18	yes	ga	1	2898	6	1	antiphase_hc_iso.wav	2	6	4	noise_calib_stim_RIGHT.wav	2	18	blb_dichoticlistening_ga-ta.mp3	ga	ta	1	left
6.6.1	win	2023-06-14	11:49:04	12:00:15	666264	63f77ee4aa0961332b87fd0f	3	1	DL_practice	21	DL_practice	6	stimuli_target_trianglesquares.svg	stimuli_distractor_trianglediamonds.svg	18	yes	ba	1	1688	6	1	antiphase_hc_iso.wav	2	6	4	noise_calib_stim_RIGHT.wav	2	1	blb_dichoticlistening_ba-ba.mp3	ba	ba	0	left
6.6.1	win	2023-06-14	11:49:04	12:00:15	666264	63f77ee4aa0961332b87fd0f	3	1	DL_practice	21	DL_practice	7	stimuli_target_trianglesquares.svg	stimuli_distractor_trianglediamonds.svg	18	yes	pa	1	1375	6	1	antiphase_hc_iso.wav	2	6	4	noise_calib_stim_RIGHT.wav	2	23	blb_dichoticlistening_ka-pa.mp3	ka	pa	1	right
6.6.1	win	2023-06-14	11:49:04	12:00:15	666264	63f77ee4aa0961332b87fd0f	3	1	DL_practice	21	DL_practice	8	stimuli_target_trianglesquares.svg	stimuli_distractor_trianglediamonds.svg	18	yes	da	1	1664	6	1	antiphase_hc_iso.wav	2	6	4	noise_calib_stim_RIGHT.wav	2	7	blb_dichoticlistening_da-ba.mp3	da	ba	1	left
6.6.1	win	2023-06-14	11:49:04	12:00:15	666264	63f77ee4aa0961332b87fd0f	3	1	DL_practice	21	DL_practice	9	stimuli_target_trianglesquares.svg	stimuli_distractor_trianglediamonds.svg	18	yes	da	1	1446	6	1	antiphase_hc_iso.wav	2	6	4	noise_calib_stim_RIGHT.wav	2	8	blb_dichoticlistening_da-da.mp3	da	da	0	left
6.6.1	win	2023-06-14	11:49:04	12:00:15	666264	63f77ee4aa0961332b87fd0f	3	1	DL_practice	21	DL_practice	10	stimuli_target_trianglesquares.svg	stimuli_distractor_trianglediamonds.svg	18	yes	ga	1	1179	6	1	antiphase_hc_iso.wav	2	6	4	noise_calib_stim_RIGHT.wav	2	15	blb_dichoticlistening_ga-ga.mp3	ga	ga	0	left
6.6.1	win	2023-06-14	11:49:04	12:00:15	666264	63f77ee4aa0961332b87fd0f	3	1	DL_test	23	DL_test	1	stimuli_target_trianglesquares.svg	stimuli_distractor_trianglediamonds.svg	18	yes	ka	1	2030	6	1	antiphase_hc_iso.wav	2	6	4	noise_calib_stim_RIGHT.wav	2	19	blb_dichoticlistening_ka-ba.mp3	ka	ba	1	left
6.6.1	win	2023-06-14	11:49:04	12:00:15	666264	63f77ee4aa0961332b87fd0f	3	1	DL_test	23	DL_test	2	stimuli_target_trianglesquares.svg	stimuli_distractor_trianglediamonds.svg	18	yes	pa	0	1251	6	1	antiphase_hc_iso.wav	2	6	4	noise_calib_stim_RIGHT.wav	2	6	blb_dichoticlistening_ba-ta.mp3	ba	ta	1	other
6.6.1	win	2023-06-14	11:49:04	12:00:15	666264	63f77ee4aa0961332b87fd0f	3	1	DL_test	23	DL_test	3	stimuli_target_trianglesquares.svg	stimuli_distractor_trianglediamonds.svg	18	yes	ta	1	1323	6	1	antiphase_hc_iso.wav	2	6	4	noise_calib_stim_RIGHT.wav	2	31	blb_dichoticlistening_ta-ba.mp3	ta	ba	1	left
6.6.1	win	2023-06-14	11:49:04	12:00:15	666264	63f77ee4aa0961332b87fd0f	3	1	DL_test	23	DL_test	4	stimuli_target_trianglesquares.svg	stimuli_distractor_trianglediamonds.svg	18	yes	ga	1	1323	6	1	antiphase_hc_iso.wav	2	6	4	noise_calib_stim_RIGHT.wav	2	9	blb_dichoticlistening_da-ga.mp3	da	ga	1	right
6.6.1	win	2023-06-14	11:49:04	12:00:15	666264	63f77ee4aa0961332b87fd0f	3	1	DL_test	23	DL_test	5	stimuli_target_trianglesquares.svg	stimuli_distractor_trianglediamonds.svg	18	yes	ga	1	1567	6	1	antiphase_hc_iso.wav	2	6	4	noise_calib_stim_RIGHT.wav	2	15	blb_dichoticlistening_ga-ga.mp3	ga	ga	0	left
6.6.1	win	2023-06-14	11:49:04	12:00:15	666264	63f77ee4aa0961332b87fd0f	3	1	DL_test	23	DL_test	6	stimuli_target_trianglesquares.svg	stimuli_distractor_trianglediamonds.svg	18	yes	pa	1	1713	6	1	antiphase_hc_iso.wav	2	6	4	noise_calib_stim_RIGHT.wav	2	23	blb_dichoticlistening_ka-pa.mp3	ka	pa	1	right
6.6.1	win	2023-06-14	11:49:04	12:00:15	666264	63f77ee4aa0961332b87fd0f	3	1	DL_test	23	DL_test	7	stimuli_target_trianglesquares.svg	stimuli_distractor_trianglediamonds.svg	18	yes	da	1	2175	6	1	antiphase_hc_iso.wav	2	6	4	noise_calib_stim_RIGHT.wav	2	7	blb_dichoticlistening_da-ba.mp3	da	ba	1	left
6.6.1	win	2023-06-14	11:49:04	12:00:15	666264	63f77ee4aa0961332b87fd0f	3	1	DL_test	23	DL_test	8	stimuli_target_trianglesquares.svg	stimuli_distractor_trianglediamonds.svg	18	yes	pa	1	1712	6	1	antiphase_hc_iso.wav	2	6	4	noise_calib_stim_RIGHT.wav	2	17	blb_dichoticlistening_ga-pa.mp3	ga	pa	1	right
6.6.1	win	2023-06-14	11:49:04	12:00:15	666264	63f77ee4aa0961332b87fd0f	3	1	DL_test	23	DL_test	9	stimuli_target_trianglesquares.svg	stimuli_distractor_trianglediamonds.svg	18	yes	ka	0	3038	6	1	antiphase_hc_iso.wav	2	6	4	noise_calib_stim_RIGHT.wav	2	33	blb_dichoticlistening_ta-ga.mp3	ta	ga	1	other
6.6.1	win	2023-06-14	11:49:04	12:00:15	666264	63f77ee4aa0961332b87fd0f	3	1	DL_test	23	DL_test	10	stimuli_target_trianglesquares.svg	stimuli_distractor_trianglediamonds.svg	18	yes	ta	0	3149	6	1	antiphase_hc_iso.wav	2	6	4	noise_calib_stim_RIGHT.wav	2	2	blb_dichoticlistening_ba-da.mp3	ba	da	1	other
6.6.1	win	2023-06-14	11:49:04	12:00:15	666264	63f77ee4aa0961332b87fd0f	3	1	DL_test	23	DL_test	11	stimuli_target_trianglesquares.svg	stimuli_distractor_trianglediamonds.svg	18	yes	ka	1	1493	6	1	antiphase_hc_iso.wav	2	6	4	noise_calib_stim_RIGHT.wav	2	16	blb_dichoticlistening_ga-ka.mp3	ga	ka	1	right
6.6.1	win	2023-06-14	11:49:04	12:00:15	666264	63f77ee4aa0961332b87fd0f	3	1	DL_test	23	DL_test	12	stimuli_target_trianglesquares.svg	stimuli_distractor_trianglediamonds.svg	18	yes	pa	1	2050	6	1	antiphase_hc_iso.wav	2	6	4	noise_calib_stim_RIGHT.wav	2	30	blb_dichoticlistening_pa-ta.mp3	pa	ta	1	left
6.6.1	win	2023-06-14	11:49:04	12:00:15	666264	63f77ee4aa0961332b87fd0f	3	1	DL_test	23	DL_test	13	stimuli_target_trianglesquares.svg	stimuli_distractor_trianglediamonds.svg	18	yes	ka	1	1546	6	1	antiphase_hc_iso.wav	2	6	4	noise_calib_stim_RIGHT.wav	2	21	blb_dichoticlistening_ka-ga.mp3	ka	ga	1	left
6.6.1	win	2023-06-14	11:49:04	12:00:15	666264	63f77ee4aa0961332b87fd0f	3	1	DL_test	23	DL_test	14	stimuli_target_trianglesquares.svg	stimuli_distractor_trianglediamonds.svg	18	yes	ta	1	1371	6	1	antiphase_hc_iso.wav	2	6	4	noise_calib_stim_RIGHT.wav	2	24	blb_dichoticlistening_ka-ta.mp3	ka	ta	1	right
6.6.1	win	2023-06-14	11:49:04	12:00:15	666264	63f77ee4aa0961332b87fd0f	3	1	DL_test	23	DL_test	15	stimuli_target_trianglesquares.svg	stimuli_distractor_trianglediamonds.svg	18	yes	pa	0	1525	6	1	antiphase_hc_iso.wav	2	6	4	noise_calib_stim_RIGHT.wav	2	4	blb_dichoticlistening_ba-ka.mp3	ba	ka	1	other
6.6.1	win	2023-06-14	11:49:04	12:00:15	666264	63f77ee4aa0961332b87fd0f	3	1	DL_test	23	DL_test	16	stimuli_target_trianglesquares.svg	stimuli_distractor_trianglediamonds.svg	18	yes	ba	1	1876	6	1	antiphase_hc_iso.wav	2	6	4	noise_calib_stim_RIGHT.wav	2	3	blb_dichoticlistening_ba-ga.mp3	ba	ga	1	left
6.6.1	win	2023-06-14	11:49:04	12:00:15	666264	63f77ee4aa0961332b87fd0f	3	1	DL_test	23	DL_test	17	stimuli_target_trianglesquares.svg	stimuli_distractor_trianglediamonds.svg	18	yes	ta	1	1867	6	1	antiphase_hc_iso.wav	2	6	4	noise_calib_stim_RIGHT.wav	2	34	blb_dichoticlistening_ta-ka.mp3	ta	ka	1	left
6.6.1	win	2023-06-14	11:49:04	12:00:15	666264	63f77ee4aa0961332b87fd0f	3	1	DL_test	23	DL_test	18	stimuli_target_trianglesquares.svg	stimuli_distractor_trianglediamonds.svg	18	yes	ga	1	2766	6	1	antiphase_hc_iso.wav	2	6	4	noise_calib_stim_RIGHT.wav	2	18	blb_dichoticlistening_ga-ta.mp3	ga	ta	1	left
6.6.1	win	2023-06-14	11:49:04	12:00:15	666264	63f77ee4aa0961332b87fd0f	3	1	DL_test	23	DL_test	19	stimuli_target_trianglesquares.svg	stimuli_distractor_trianglediamonds.svg	18	yes	ta	0	2333	6	1	antiphase_hc_iso.wav	2	6	4	noise_calib_stim_RIGHT.wav	2	26	blb_dichoticlistening_pa-da.mp3	pa	da	1	other
6.6.1	win	2023-06-14	11:49:04	12:00:15	666264	63f77ee4aa0961332b87fd0f	3	1	DL_test	23	DL_test	20	stimuli_target_trianglesquares.svg	stimuli_distractor_trianglediamonds.svg	18	yes	ta	1	2192	6	1	antiphase_hc_iso.wav	2	6	4	noise_calib_stim_RIGHT.wav	2	36	blb_dichoticlistening_ta-ta.mp3	ta	ta	0	left
6.6.1	win	2023-06-14	11:49:04	12:00:15	666264	63f77ee4aa0961332b87fd0f	3	1	DL_test	23	DL_test	21	stimuli_target_trianglesquares.svg	stimuli_distractor_trianglediamonds.svg	18	yes	ba	0	1547	6	1	antiphase_hc_iso.wav	2	6	4	noise_calib_stim_RIGHT.wav	2	8	blb_dichoticlistening_da-da.mp3	da	da	0	other
6.6.1	win	2023-06-14	11:49:04	12:00:15	666264	63f77ee4aa0961332b87fd0f	3	1	DL_test	23	DL_test	22	stimuli_target_trianglesquares.svg	stimuli_distractor_trianglediamonds.svg	18	yes	pa	0	1713	6	1	antiphase_hc_iso.wav	2	6	4	noise_calib_stim_RIGHT.wav	2	10	blb_dichoticlistening_da-ka.mp3	da	ka	1	other
6.6.1	win	2023-06-14	11:49:04	12:00:15	666264	63f77ee4aa0961332b87fd0f	3	1	DL_test	23	DL_test	23	stimuli_target_trianglesquares.svg	stimuli_distractor_trianglediamonds.svg	18	yes	ta	0	1647	6	1	antiphase_hc_iso.wav	2	6	4	noise_calib_stim_RIGHT.wav	2	28	blb_dichoticlistening_pa-ka.mp3	pa	ka	1	other
6.6.1	win	2023-06-14	11:49:04	12:00:15	666264	63f77ee4aa0961332b87fd0f	3	1	DL_test	23	DL_test	24	stimuli_target_trianglesquares.svg	stimuli_distractor_trianglediamonds.svg	18	yes	ga	1	1396	6	1	antiphase_hc_iso.wav	2	6	4	noise_calib_stim_RIGHT.wav	2	14	blb_dichoticlistening_ga-da.mp3	ga	da	1	left
6.6.1	win	2023-06-14	11:49:04	12:00:15	666264	63f77ee4aa0961332b87fd0f	3	1	DL_test	23	DL_test	25	stimuli_target_trianglesquares.svg	stimuli_distractor_trianglediamonds.svg	18	yes	ta	1	1439	6	1	antiphase_hc_iso.wav	2	6	4	noise_calib_stim_RIGHT.wav	2	12	blb_dichoticlistening_da-ta.mp3	da	ta	1	right
6.6.1	win	2023-06-14	11:49:04	12:00:15	666264	63f77ee4aa0961332b87fd0f	3	1	DL_test	23	DL_test	26	stimuli_target_trianglesquares.svg	stimuli_distractor_trianglediamonds.svg	18	yes	ka	1	1361	6	1	antiphase_hc_iso.wav	2	6	4	noise_calib_stim_RIGHT.wav	2	22	blb_dichoticlistening_ka-ka.mp3	ka	ka	0	left
