build	computer.platform	date	time	timestamp	time_elapsed_ms	subject	group	session	blockcode	blocknum	trialcode	trialnum	stimulus_left	stimulus_right	stim_index	target_present	response	correct	latency	headphonecheck_countTestTrials	headphonecheck_index	headphonecheck_testSound	headphonecheck_correctResponse	stereocheck_countTestTrials	stereocheck_index	stereocheck_testSound	stereocheck_correctResponse	DL_index	DL_soundfile	DL_leftSound	DL_rightSound	DL_dualSound	DL_choice
6.6.1	mac	2023-06-28	09:44:28	09:47:36	184712	616f3c3672c07234d96edc86	4	1	practice_z	5	practice_z	1	stimuli_target_rectanglediamonds.svg	stimuli_distractor_trianglediamonds.svg	4	yes	44	1	592	0	0			0	0			1				0	
6.6.1	mac	2023-06-28	09:44:28	09:47:36	184712	616f3c3672c07234d96edc86	4	1	practice_z	5	advance_on_keypress_ZEE	2	stimuli_target_rectanglediamonds.svg	stimuli_distractor_trianglediamonds.svg	4	yes	57	0	1533	0	0			0	0			1				0	
6.6.1	mac	2023-06-28	09:44:28	09:47:41	189881	616f3c3672c07234d96edc86	4	1	practice_z	5	practice_z	3	stimuli_distractor_diamondtriangles.svg	stimuli_distractor_diamondtriangles.svg	13	no	0	1	2000	0	0			0	0			1				0	
6.6.1	mac	2023-06-28	09:44:28	09:47:41	189881	616f3c3672c07234d96edc86	4	1	practice_z	5	advance_on_keypress_ZEE	4	stimuli_distractor_diamondtriangles.svg	stimuli_distractor_diamondtriangles.svg	13	no	57	0	678	0	0			0	0			1				0	
6.6.1	mac	2023-06-28	09:44:28	09:47:44	193039	616f3c3672c07234d96edc86	4	1	practice_z	5	practice_z	5	stimuli_distractor_trianglediamonds.svg	stimuli_target_diamondrectangles.svg	12	yes	44	1	838	0	0			0	0			1				0	
6.6.1	mac	2023-06-28	09:44:28	09:47:44	193039	616f3c3672c07234d96edc86	4	1	practice_z	5	advance_on_keypress_ZEE	6	stimuli_distractor_trianglediamonds.svg	stimuli_target_diamondrectangles.svg	12	yes	57	0	1122	0	0			0	0			1				0	
6.6.1	mac	2023-06-28	09:44:28	09:47:48	196697	616f3c3672c07234d96edc86	4	1	practice_z	5	practice_z	7	stimuli_distractor_trianglediamonds.svg	stimuli_target_rectanglediamonds.svg	10	yes	44	1	914	0	0			0	0			1				0	
6.6.1	mac	2023-06-28	09:44:28	09:47:48	196697	616f3c3672c07234d96edc86	4	1	practice_z	5	advance_on_keypress_ZEE	8	stimuli_distractor_trianglediamonds.svg	stimuli_target_rectanglediamonds.svg	10	yes	57	0	665	0	0			0	0			1				0	
6.6.1	mac	2023-06-28	09:44:28	09:47:51	199984	616f3c3672c07234d96edc86	4	1	practice_z	5	practice_z	9	stimuli_target_diamondsquares.svg	stimuli_distractor_diamondtriangles.svg	3	yes	44	1	984	0	0			0	0			1				0	
6.6.1	mac	2023-06-28	09:44:28	09:47:51	199984	616f3c3672c07234d96edc86	4	1	practice_z	5	advance_on_keypress_ZEE	10	stimuli_target_diamondsquares.svg	stimuli_distractor_diamondtriangles.svg	3	yes	57	0	636	0	0			0	0			1				0	
6.6.1	mac	2023-06-28	09:44:28	09:47:55	203259	616f3c3672c07234d96edc86	4	1	practice_z	5	practice_z	11	stimuli_target_squarediamonds.svg	stimuli_distractor_trianglediamonds.svg	5	yes	44	1	991	0	0			0	0			1				0	
6.6.1	mac	2023-06-28	09:44:28	09:47:55	203259	616f3c3672c07234d96edc86	4	1	practice_z	5	advance_on_keypress_ZEE	12	stimuli_target_squarediamonds.svg	stimuli_distractor_trianglediamonds.svg	5	yes	57	0	560	0	0			0	0			1				0	
6.6.1	mac	2023-06-28	09:44:28	09:47:58	206352	616f3c3672c07234d96edc86	4	1	practice_z	5	practice_z	13	stimuli_target_squarediamonds.svg	stimuli_distractor_diamondtriangles.svg	2	yes	44	1	901	0	0			0	0			1				0	
6.6.1	mac	2023-06-28	09:44:28	09:47:58	206352	616f3c3672c07234d96edc86	4	1	practice_z	5	advance_on_keypress_ZEE	14	stimuli_target_squarediamonds.svg	stimuli_distractor_diamondtriangles.svg	2	yes	57	0	464	0	0			0	0			1				0	
6.6.1	mac	2023-06-28	09:44:28	09:48:01	209264	616f3c3672c07234d96edc86	4	1	practice_z	5	practice_z	15	stimuli_target_diamondsquares.svg	stimuli_distractor_trianglediamonds.svg	6	yes	44	1	814	0	0			0	0			1				0	
6.6.1	mac	2023-06-28	09:44:28	09:48:01	209264	616f3c3672c07234d96edc86	4	1	practice_z	5	advance_on_keypress_ZEE	16	stimuli_target_diamondsquares.svg	stimuli_distractor_trianglediamonds.svg	6	yes	57	0	460	0	0			0	0			1				0	
6.6.1	mac	2023-06-28	09:44:28	09:48:03	212245	616f3c3672c07234d96edc86	4	1	practice_z	5	practice_z	17	stimuli_distractor_diamondtriangles.svg	stimuli_target_rectangletriangles.svg	7	yes	44	1	879	0	0			0	0			1				0	
6.6.1	mac	2023-06-28	09:44:28	09:48:03	212245	616f3c3672c07234d96edc86	4	1	practice_z	5	advance_on_keypress_ZEE	18	stimuli_distractor_diamondtriangles.svg	stimuli_target_rectangletriangles.svg	7	yes	57	0	458	0	0			0	0			1				0	
6.6.1	mac	2023-06-28	09:44:28	09:48:06	215191	616f3c3672c07234d96edc86	4	1	practice_z	5	practice_z	19	stimuli_target_rectanglediamonds.svg	stimuli_distractor_diamondtriangles.svg	1	yes	44	1	840	0	0			0	0			1				0	
6.6.1	mac	2023-06-28	09:44:28	09:48:06	215191	616f3c3672c07234d96edc86	4	1	practice_z	5	advance_on_keypress_ZEE	20	stimuli_target_rectanglediamonds.svg	stimuli_distractor_diamondtriangles.svg	1	yes	57	0	473	0	0			0	0			1				0	
6.6.1	mac	2023-06-28	09:44:28	09:48:09	218175	616f3c3672c07234d96edc86	4	1	practice_z	5	practice_z	21	stimuli_distractor_diamondtriangles.svg	stimuli_target_trianglerectangles.svg	9	yes	44	1	874	0	0			0	0			1				0	
6.6.1	mac	2023-06-28	09:44:28	09:48:09	218175	616f3c3672c07234d96edc86	4	1	practice_z	5	advance_on_keypress_ZEE	22	stimuli_distractor_diamondtriangles.svg	stimuli_target_trianglerectangles.svg	9	yes	57	0	437	0	0			0	0			1				0	
6.6.1	mac	2023-06-28	09:44:28	09:48:13	222232	616f3c3672c07234d96edc86	4	1	practice_z	5	practice_z	23	stimuli_distractor_diamondtriangles.svg	stimuli_distractor_trianglediamonds.svg	14	no	0	1	2000	0	0			0	0			1				0	
6.6.1	mac	2023-06-28	09:44:28	09:48:13	222232	616f3c3672c07234d96edc86	4	1	practice_z	5	advance_on_keypress_ZEE	24	stimuli_distractor_diamondtriangles.svg	stimuli_distractor_trianglediamonds.svg	14	no	57	0	510	0	0			0	0			1				0	
6.6.1	mac	2023-06-28	09:44:28	09:48:16	225141	616f3c3672c07234d96edc86	4	1	practice_z	5	practice_z	25	stimuli_distractor_trianglediamonds.svg	stimuli_target_squarediamonds.svg	11	yes	44	1	758	0	0			0	0			1				0	
6.6.1	mac	2023-06-28	09:44:28	09:48:16	225141	616f3c3672c07234d96edc86	4	1	practice_z	5	advance_on_keypress_ZEE	26	stimuli_distractor_trianglediamonds.svg	stimuli_target_squarediamonds.svg	11	yes	57	0	522	0	0			0	0			1				0	
6.6.1	mac	2023-06-28	09:44:28	09:48:21	229282	616f3c3672c07234d96edc86	4	1	practice_z	5	practice_z	27	stimuli_distractor_trianglediamonds.svg	stimuli_distractor_trianglediamonds.svg	15	no	0	1	2000	0	0			0	0			1				0	
6.6.1	mac	2023-06-28	09:44:28	09:48:21	229282	616f3c3672c07234d96edc86	4	1	practice_z	5	advance_on_keypress_ZEE	28	stimuli_distractor_trianglediamonds.svg	stimuli_distractor_trianglediamonds.svg	15	no	57	0	409	0	0			0	0			1				0	
6.6.1	mac	2023-06-28	09:44:28	09:48:23	232238	616f3c3672c07234d96edc86	4	1	practice_z	5	practice_z	29	stimuli_distractor_diamondtriangles.svg	stimuli_target_diamondrectangles.svg	8	yes	44	1	905	0	0			0	0			1				0	
6.6.1	mac	2023-06-28	09:44:28	09:48:23	232238	616f3c3672c07234d96edc86	4	1	practice_z	5	advance_on_keypress_ZEE	30	stimuli_distractor_diamondtriangles.svg	stimuli_target_diamondrectangles.svg	8	yes	57	0	574	0	0			0	0			1				0	
6.6.1	mac	2023-06-28	09:44:28	09:48:28	236431	616f3c3672c07234d96edc86	4	1	practice_z	5	practice_z	31	stimuli_distractor_trianglediamonds.svg	stimuli_distractor_diamondtriangles.svg	16	no	0	1	2000	0	0			0	0			1				0	
6.6.1	mac	2023-06-28	09:44:28	09:48:28	236431	616f3c3672c07234d96edc86	4	1	practice_z	5	advance_on_keypress_ZEE	32	stimuli_distractor_trianglediamonds.svg	stimuli_distractor_diamondtriangles.svg	16	no	57	0	488	0	0			0	0			1				0	
6.6.1	mac	2023-06-28	09:44:28	09:48:38	246512	616f3c3672c07234d96edc86	4	1	main_z	7	main_z	1	stimuli_target_diamondrectangles.svg	stimuli_distractor_trianglediamonds.svg	19	yes	44	1	544	0	0			0	0			1				0	
6.6.1	mac	2023-06-28	09:44:28	09:48:38	246512	616f3c3672c07234d96edc86	4	1	main_z	7	advance_on_keypress_ZEE	2	stimuli_target_diamondrectangles.svg	stimuli_distractor_trianglediamonds.svg	19	yes	57	0	974	0	0			0	0			1				0	
6.6.1	mac	2023-06-28	09:44:28	09:48:40	248649	616f3c3672c07234d96edc86	4	1	main_z	7	main_z	3	stimuli_distractor_trianglediamonds.svg	stimuli_target_trianglerectangles.svg	25	yes	44	1	532	0	0			0	0			1				0	
6.6.1	mac	2023-06-28	09:44:28	09:48:40	248649	616f3c3672c07234d96edc86	4	1	main_z	7	advance_on_keypress_ZEE	4	stimuli_distractor_trianglediamonds.svg	stimuli_target_trianglerectangles.svg	25	yes	57	0	927	0	0			0	0			1				0	
6.6.1	mac	2023-06-28	09:44:28	09:48:42	250798	616f3c3672c07234d96edc86	4	1	main_z	7	main_z	5	stimuli_distractor_trianglediamonds.svg	stimuli_target_diamondrectangles.svg	27	yes	44	1	599	0	0			0	0			1				0	
6.6.1	mac	2023-06-28	09:44:28	09:48:42	250798	616f3c3672c07234d96edc86	4	1	main_z	7	advance_on_keypress_ZEE	6	stimuli_distractor_trianglediamonds.svg	stimuli_target_diamondrectangles.svg	27	yes	57	0	610	0	0			0	0			1				0	
6.6.1	mac	2023-06-28	09:44:28	09:48:44	252825	616f3c3672c07234d96edc86	4	1	main_z	7	main_z	7	stimuli_target_squarediamonds.svg	stimuli_distractor_diamondtriangles.svg	8	yes	44	1	793	0	0			0	0			1				0	
6.6.1	mac	2023-06-28	09:44:28	09:48:44	252825	616f3c3672c07234d96edc86	4	1	main_z	7	advance_on_keypress_ZEE	8	stimuli_target_squarediamonds.svg	stimuli_distractor_diamondtriangles.svg	8	yes	57	0	1174	0	0			0	0			1				0	
6.6.1	mac	2023-06-28	09:44:28	09:48:47	255360	616f3c3672c07234d96edc86	4	1	main_z	7	main_z	9	stimuli_target_diamondsquares.svg	stimuli_distractor_trianglediamonds.svg	20	yes	44	1	743	0	0			0	0			1				0	
6.6.1	mac	2023-06-28	09:44:28	09:48:47	255360	616f3c3672c07234d96edc86	4	1	main_z	7	advance_on_keypress_ZEE	10	stimuli_target_diamondsquares.svg	stimuli_distractor_trianglediamonds.svg	20	yes	57	0	909	0	0			0	0			1				0	
6.6.1	mac	2023-06-28	09:44:28	09:48:49	257865	616f3c3672c07234d96edc86	4	1	main_z	7	main_z	11	stimuli_target_rectanglediamonds.svg	stimuli_distractor_diamondtriangles.svg	6	yes	44	1	965	0	0			0	0			1				0	
6.6.1	mac	2023-06-28	09:44:28	09:48:49	257865	616f3c3672c07234d96edc86	4	1	main_z	7	advance_on_keypress_ZEE	12	stimuli_target_rectanglediamonds.svg	stimuli_distractor_diamondtriangles.svg	6	yes	57	0	504	0	0			0	0			1				0	
6.6.1	mac	2023-06-28	09:44:28	09:48:52	260997	616f3c3672c07234d96edc86	4	1	main_z	7	main_z	13	stimuli_distractor_diamondtriangles.svg	stimuli_distractor_trianglediamonds.svg	38	no	0	1	2000	0	0			0	0			1				0	
6.6.1	mac	2023-06-28	09:44:28	09:48:52	260997	616f3c3672c07234d96edc86	4	1	main_z	7	advance_on_keypress_ZEE	14	stimuli_distractor_diamondtriangles.svg	stimuli_distractor_trianglediamonds.svg	38	no	57	0	538	0	0			0	0			1				0	
6.6.1	mac	2023-06-28	09:44:28	09:48:54	262865	616f3c3672c07234d96edc86	4	1	main_z	7	main_z	15	stimuli_distractor_trianglediamonds.svg	stimuli_target_squarediamonds.svg	12	yes	44	1	699	0	0			0	0			1				0	
6.6.1	mac	2023-06-28	09:44:28	09:48:54	262865	616f3c3672c07234d96edc86	4	1	main_z	7	advance_on_keypress_ZEE	16	stimuli_distractor_trianglediamonds.svg	stimuli_target_squarediamonds.svg	12	yes	57	0	671	0	0			0	0			1				0	
6.6.1	mac	2023-06-28	09:44:28	09:48:56	264879	616f3c3672c07234d96edc86	4	1	main_z	7	main_z	17	stimuli_distractor_trianglediamonds.svg	stimuli_target_rectangletriangles.svg	9	yes	44	1	713	0	0			0	0			1				0	
6.6.1	mac	2023-06-28	09:44:28	09:48:56	264879	616f3c3672c07234d96edc86	4	1	main_z	7	advance_on_keypress_ZEE	18	stimuli_distractor_trianglediamonds.svg	stimuli_target_rectangletriangles.svg	9	yes	57	0	498	0	0			0	0			1				0	
6.6.1	mac	2023-06-28	09:44:28	09:48:58	266760	616f3c3672c07234d96edc86	4	1	main_z	7	main_z	19	stimuli_target_diamondsquares.svg	stimuli_distractor_diamondtriangles.svg	24	yes	44	1	743	0	0			0	0			1				0	
6.6.1	mac	2023-06-28	09:44:28	09:48:58	266760	616f3c3672c07234d96edc86	4	1	main_z	7	advance_on_keypress_ZEE	20	stimuli_target_diamondsquares.svg	stimuli_distractor_diamondtriangles.svg	24	yes	57	0	477	0	0			0	0			1				0	
6.6.1	mac	2023-06-28	09:44:28	09:49:00	268648	616f3c3672c07234d96edc86	4	1	main_z	7	main_z	21	stimuli_distractor_diamondtriangles.svg	stimuli_target_rectanglediamonds.svg	14	yes	44	1	781	0	0			0	0			1				0	
6.6.1	mac	2023-06-28	09:44:28	09:49:00	268648	616f3c3672c07234d96edc86	4	1	main_z	7	advance_on_keypress_ZEE	22	stimuli_distractor_diamondtriangles.svg	stimuli_target_rectanglediamonds.svg	14	yes	57	0	461	0	0			0	0			1				0	
6.6.1	mac	2023-06-28	09:44:28	09:49:02	270531	616f3c3672c07234d96edc86	4	1	main_z	7	main_z	23	stimuli_distractor_diamondtriangles.svg	stimuli_target_diamondsquares.svg	32	yes	44	1	781	0	0			0	0			1				0	
6.6.1	mac	2023-06-28	09:44:28	09:49:02	270531	616f3c3672c07234d96edc86	4	1	main_z	7	advance_on_keypress_ZEE	24	stimuli_distractor_diamondtriangles.svg	stimuli_target_diamondsquares.svg	32	yes	57	0	386	0	0			0	0			1				0	
6.6.1	mac	2023-06-28	09:44:28	09:49:04	272477	616f3c3672c07234d96edc86	4	1	main_z	7	main_z	25	stimuli_target_rectangletriangles.svg	stimuli_distractor_trianglediamonds.svg	1	yes	44	1	927	0	0			0	0			1				0	
6.6.1	mac	2023-06-28	09:44:28	09:49:04	272477	616f3c3672c07234d96edc86	4	1	main_z	7	advance_on_keypress_ZEE	26	stimuli_target_rectangletriangles.svg	stimuli_distractor_trianglediamonds.svg	1	yes	57	0	393	0	0			0	0			1				0	
6.6.1	mac	2023-06-28	09:44:28	09:49:07	275497	616f3c3672c07234d96edc86	4	1	main_z	7	main_z	27	stimuli_distractor_diamondtriangles.svg	stimuli_distractor_diamondtriangles.svg	39	no	0	1	2000	0	0			0	0			1				0	
6.6.1	mac	2023-06-28	09:44:28	09:49:07	275497	616f3c3672c07234d96edc86	4	1	main_z	7	advance_on_keypress_ZEE	28	stimuli_distractor_diamondtriangles.svg	stimuli_distractor_diamondtriangles.svg	39	no	57	0	627	0	0			0	0			1				0	
6.6.1	mac	2023-06-28	09:44:28	09:49:09	277557	616f3c3672c07234d96edc86	4	1	main_z	7	main_z	29	stimuli_target_diamondrectangles.svg	stimuli_distractor_diamondtriangles.svg	23	yes	44	1	790	0	0			0	0			1				0	
6.6.1	mac	2023-06-28	09:44:28	09:49:09	277557	616f3c3672c07234d96edc86	4	1	main_z	7	advance_on_keypress_ZEE	30	stimuli_target_diamondrectangles.svg	stimuli_distractor_diamondtriangles.svg	23	yes	57	0	401	0	0			0	0			1				0	
6.6.1	mac	2023-06-28	09:44:28	09:49:11	279452	616f3c3672c07234d96edc86	4	1	main_z	7	main_z	31	stimuli_distractor_trianglediamonds.svg	stimuli_target_trianglesquares.svg	26	yes	44	1	865	0	0			0	0			1				0	
6.6.1	mac	2023-06-28	09:44:28	09:49:11	279452	616f3c3672c07234d96edc86	4	1	main_z	7	advance_on_keypress_ZEE	32	stimuli_distractor_trianglediamonds.svg	stimuli_target_trianglesquares.svg	26	yes	57	0	464	0	0			0	0			1				0	
6.6.1	mac	2023-06-28	09:44:28	09:49:13	281377	616f3c3672c07234d96edc86	4	1	main_z	7	main_z	33	stimuli_target_trianglerectangles.svg	stimuli_distractor_trianglediamonds.svg	17	yes	44	1	827	0	0			0	0			1				0	
6.6.1	mac	2023-06-28	09:44:28	09:49:13	281377	616f3c3672c07234d96edc86	4	1	main_z	7	advance_on_keypress_ZEE	34	stimuli_target_trianglerectangles.svg	stimuli_distractor_trianglediamonds.svg	17	yes	57	0	376	0	0			0	0			1				0	
6.6.1	mac	2023-06-28	09:44:28	09:49:16	284380	616f3c3672c07234d96edc86	4	1	main_z	7	main_z	35	stimuli_distractor_diamondtriangles.svg	stimuli_distractor_trianglediamonds.svg	37	no	0	1	2000	0	0			0	0			1				0	
6.6.1	mac	2023-06-28	09:44:28	09:49:16	284380	616f3c3672c07234d96edc86	4	1	main_z	7	advance_on_keypress_ZEE	36	stimuli_distractor_diamondtriangles.svg	stimuli_distractor_trianglediamonds.svg	37	no	57	0	419	0	0			0	0			1				0	
6.6.1	mac	2023-06-28	09:44:28	09:49:17	286091	616f3c3672c07234d96edc86	4	1	main_z	7	main_z	37	stimuli_target_trianglesquares.svg	stimuli_distractor_trianglediamonds.svg	18	yes	44	1	658	0	0			0	0			1				0	
6.6.1	mac	2023-06-28	09:44:28	09:49:17	286091	616f3c3672c07234d96edc86	4	1	main_z	7	advance_on_keypress_ZEE	38	stimuli_target_trianglesquares.svg	stimuli_distractor_trianglediamonds.svg	18	yes	57	0	375	0	0			0	0			1				0	
6.6.1	mac	2023-06-28	09:44:28	09:49:20	289081	616f3c3672c07234d96edc86	4	1	main_z	7	main_z	39	stimuli_distractor_trianglediamonds.svg	stimuli_distractor_diamondtriangles.svg	35	no	0	1	2000	0	0			0	0			1				0	
6.6.1	mac	2023-06-28	09:44:28	09:49:20	289081	616f3c3672c07234d96edc86	4	1	main_z	7	advance_on_keypress_ZEE	40	stimuli_distractor_trianglediamonds.svg	stimuli_distractor_diamondtriangles.svg	35	no	57	0	476	0	0			0	0			1				0	
6.6.1	mac	2023-06-28	09:44:28	09:49:23	291702	616f3c3672c07234d96edc86	4	1	main_z	7	main_z	41	stimuli_distractor_diamondtriangles.svg	stimuli_target_squarediamonds.svg	16	yes	44	1	1520	0	0			0	0			1				0	
6.6.1	mac	2023-06-28	09:44:28	09:49:23	291702	616f3c3672c07234d96edc86	4	1	main_z	7	advance_on_keypress_ZEE	42	stimuli_distractor_diamondtriangles.svg	stimuli_target_squarediamonds.svg	16	yes	57	0	826	0	0			0	0			1				0	
6.6.1	mac	2023-06-28	09:44:28	09:49:25	293883	616f3c3672c07234d96edc86	4	1	main_z	7	main_z	43	stimuli_distractor_trianglediamonds.svg	stimuli_target_rectanglediamonds.svg	10	yes	44	1	734	0	0			0	0			1				0	
6.6.1	mac	2023-06-28	09:44:28	09:49:25	293883	616f3c3672c07234d96edc86	4	1	main_z	7	advance_on_keypress_ZEE	44	stimuli_distractor_trianglediamonds.svg	stimuli_target_rectanglediamonds.svg	10	yes	57	0	460	0	0			0	0			1				0	
6.6.1	mac	2023-06-28	09:44:28	09:49:27	295981	616f3c3672c07234d96edc86	4	1	main_z	7	main_z	45	stimuli_target_trianglerectangles.svg	stimuli_distractor_diamondtriangles.svg	21	yes	44	1	998	0	0			0	0			1				0	
6.6.1	mac	2023-06-28	09:44:28	09:49:27	295981	616f3c3672c07234d96edc86	4	1	main_z	7	advance_on_keypress_ZEE	46	stimuli_target_trianglerectangles.svg	stimuli_distractor_diamondtriangles.svg	21	yes	57	0	436	0	0			0	0			1				0	
6.6.1	mac	2023-06-28	09:44:28	09:49:30	299047	616f3c3672c07234d96edc86	4	1	main_z	7	main_z	47	stimuli_distractor_trianglediamonds.svg	stimuli_distractor_diamondtriangles.svg	36	no	0	1	2000	0	0			0	0			1				0	
6.6.1	mac	2023-06-28	09:44:28	09:49:30	299047	616f3c3672c07234d96edc86	4	1	main_z	7	advance_on_keypress_ZEE	48	stimuli_distractor_trianglediamonds.svg	stimuli_distractor_diamondtriangles.svg	36	no	57	0	818	0	0			0	0			1				0	
6.6.1	mac	2023-06-28	09:44:28	09:49:33	301323	616f3c3672c07234d96edc86	4	1	main_z	7	main_z	49	stimuli_target_squaretriangles.svg	stimuli_distractor_trianglediamonds.svg	3	yes	44	1	823	0	0			0	0			1				0	
6.6.1	mac	2023-06-28	09:44:28	09:49:33	301323	616f3c3672c07234d96edc86	4	1	main_z	7	advance_on_keypress_ZEE	50	stimuli_target_squaretriangles.svg	stimuli_distractor_trianglediamonds.svg	3	yes	57	0	451	0	0			0	0			1				0	
6.6.1	mac	2023-06-28	09:44:28	09:49:34	303237	616f3c3672c07234d96edc86	4	1	main_z	7	main_z	51	stimuli_target_squaretriangles.svg	stimuli_distractor_diamondtriangles.svg	7	yes	44	1	838	0	0			0	0			1				0	
6.6.1	mac	2023-06-28	09:44:28	09:49:34	303237	616f3c3672c07234d96edc86	4	1	main_z	7	advance_on_keypress_ZEE	52	stimuli_target_squaretriangles.svg	stimuli_distractor_diamondtriangles.svg	7	yes	57	0	385	0	0			0	0			1				0	
6.6.1	mac	2023-06-28	09:44:28	09:49:36	305104	616f3c3672c07234d96edc86	4	1	main_z	7	main_z	53	stimuli_distractor_diamondtriangles.svg	stimuli_target_squaretriangles.svg	15	yes	44	1	854	0	0			0	0			1				0	
6.6.1	mac	2023-06-28	09:44:28	09:49:36	305104	616f3c3672c07234d96edc86	4	1	main_z	7	advance_on_keypress_ZEE	54	stimuli_distractor_diamondtriangles.svg	stimuli_target_squaretriangles.svg	15	yes	57	0	382	0	0			0	0			1				0	
6.6.1	mac	2023-06-28	09:44:28	09:49:38	306901	616f3c3672c07234d96edc86	4	1	main_z	7	main_z	55	stimuli_distractor_diamondtriangles.svg	stimuli_target_trianglesquares.svg	30	yes	44	1	784	0	0			0	0			1				0	
6.6.1	mac	2023-06-28	09:44:28	09:49:38	306901	616f3c3672c07234d96edc86	4	1	main_z	7	advance_on_keypress_ZEE	56	stimuli_distractor_diamondtriangles.svg	stimuli_target_trianglesquares.svg	30	yes	57	0	383	0	0			0	0			1				0	
6.6.1	mac	2023-06-28	09:44:28	09:49:40	308842	616f3c3672c07234d96edc86	4	1	main_z	7	main_z	57	stimuli_distractor_diamondtriangles.svg	stimuli_target_diamondrectangles.svg	31	yes	44	1	925	0	0			0	0			1				0	
6.6.1	mac	2023-06-28	09:44:28	09:49:40	308842	616f3c3672c07234d96edc86	4	1	main_z	7	advance_on_keypress_ZEE	58	stimuli_distractor_diamondtriangles.svg	stimuli_target_diamondrectangles.svg	31	yes	57	0	401	0	0			0	0			1				0	
6.6.1	mac	2023-06-28	09:44:28	09:49:43	311864	616f3c3672c07234d96edc86	4	1	main_z	7	main_z	59	stimuli_distractor_trianglediamonds.svg	stimuli_distractor_trianglediamonds.svg	33	no	0	1	2000	0	0			0	0			1				0	
6.6.1	mac	2023-06-28	09:44:28	09:49:43	311864	616f3c3672c07234d96edc86	4	1	main_z	7	advance_on_keypress_ZEE	60	stimuli_distractor_trianglediamonds.svg	stimuli_distractor_trianglediamonds.svg	33	no	57	0	468	0	0			0	0			1				0	
6.6.1	mac	2023-06-28	09:44:28	09:49:45	313743	616f3c3672c07234d96edc86	4	1	main_z	7	main_z	61	stimuli_target_rectangletriangles.svg	stimuli_distractor_diamondtriangles.svg	5	yes	44	1	776	0	0			0	0			1				0	
6.6.1	mac	2023-06-28	09:44:28	09:49:45	313743	616f3c3672c07234d96edc86	4	1	main_z	7	advance_on_keypress_ZEE	62	stimuli_target_rectangletriangles.svg	stimuli_distractor_diamondtriangles.svg	5	yes	57	0	396	0	0			0	0			1				0	
6.6.1	mac	2023-06-28	09:44:28	09:49:47	315598	616f3c3672c07234d96edc86	4	1	main_z	7	main_z	63	stimuli_distractor_diamondtriangles.svg	stimuli_target_trianglerectangles.svg	29	yes	44	1	815	0	0			0	0			1				0	
6.6.1	mac	2023-06-28	09:44:28	09:49:47	315598	616f3c3672c07234d96edc86	4	1	main_z	7	advance_on_keypress_ZEE	64	stimuli_distractor_diamondtriangles.svg	stimuli_target_trianglerectangles.svg	29	yes	57	0	350	0	0			0	0			1				0	
6.6.1	mac	2023-06-28	09:44:28	09:49:50	318580	616f3c3672c07234d96edc86	4	1	main_z	7	main_z	65	stimuli_distractor_trianglediamonds.svg	stimuli_distractor_trianglediamonds.svg	34	no	0	1	2000	0	0			0	0			1				0	
6.6.1	mac	2023-06-28	09:44:28	09:49:50	318580	616f3c3672c07234d96edc86	4	1	main_z	7	advance_on_keypress_ZEE	66	stimuli_distractor_trianglediamonds.svg	stimuli_distractor_trianglediamonds.svg	34	no	57	0	552	0	0			0	0			1				0	
6.6.1	mac	2023-06-28	09:44:28	09:49:52	320423	616f3c3672c07234d96edc86	4	1	main_z	7	main_z	67	stimuli_target_rectanglediamonds.svg	stimuli_distractor_trianglediamonds.svg	2	yes	44	1	657	0	0			0	0			1				0	
6.6.1	mac	2023-06-28	09:44:28	09:49:52	320423	616f3c3672c07234d96edc86	4	1	main_z	7	advance_on_keypress_ZEE	68	stimuli_target_rectanglediamonds.svg	stimuli_distractor_trianglediamonds.svg	2	yes	57	0	392	0	0			0	0			1				0	
6.6.1	mac	2023-06-28	09:44:28	09:49:53	322096	616f3c3672c07234d96edc86	4	1	main_z	7	main_z	69	stimuli_target_squarediamonds.svg	stimuli_distractor_trianglediamonds.svg	4	yes	44	1	663	0	0			0	0			1				0	
6.6.1	mac	2023-06-28	09:44:28	09:49:53	322096	616f3c3672c07234d96edc86	4	1	main_z	7	advance_on_keypress_ZEE	70	stimuli_target_squarediamonds.svg	stimuli_distractor_trianglediamonds.svg	4	yes	57	0	367	0	0			0	0			1				0	
6.6.1	mac	2023-06-28	09:44:28	09:49:56	325097	616f3c3672c07234d96edc86	4	1	main_z	7	main_z	71	stimuli_distractor_diamondtriangles.svg	stimuli_distractor_diamondtriangles.svg	40	no	0	1	2000	0	0			0	0			1				0	
6.6.1	mac	2023-06-28	09:44:28	09:49:56	325097	616f3c3672c07234d96edc86	4	1	main_z	7	advance_on_keypress_ZEE	72	stimuli_distractor_diamondtriangles.svg	stimuli_distractor_diamondtriangles.svg	40	no	57	0	434	0	0			0	0			1				0	
6.6.1	mac	2023-06-28	09:44:28	09:49:58	326841	616f3c3672c07234d96edc86	4	1	main_z	7	main_z	73	stimuli_target_trianglesquares.svg	stimuli_distractor_diamondtriangles.svg	22	yes	44	1	673	0	0			0	0			1				0	
6.6.1	mac	2023-06-28	09:44:28	09:49:58	326841	616f3c3672c07234d96edc86	4	1	main_z	7	advance_on_keypress_ZEE	74	stimuli_target_trianglesquares.svg	stimuli_distractor_diamondtriangles.svg	22	yes	57	0	383	0	0			0	0			1				0	
6.6.1	mac	2023-06-28	09:44:28	09:50:00	328669	616f3c3672c07234d96edc86	4	1	main_z	7	main_z	75	stimuli_distractor_diamondtriangles.svg	stimuli_target_rectangletriangles.svg	13	yes	44	1	819	0	0			0	0			1				0	
6.6.1	mac	2023-06-28	09:44:28	09:50:00	328669	616f3c3672c07234d96edc86	4	1	main_z	7	advance_on_keypress_ZEE	76	stimuli_distractor_diamondtriangles.svg	stimuli_target_rectangletriangles.svg	13	yes	57	0	398	0	0			0	0			1				0	
6.6.1	mac	2023-06-28	09:44:28	09:50:02	330470	616f3c3672c07234d96edc86	4	1	main_z	7	main_z	77	stimuli_distractor_trianglediamonds.svg	stimuli_target_diamondsquares.svg	28	yes	44	1	770	0	0			0	0			1				0	
6.6.1	mac	2023-06-28	09:44:28	09:50:02	330470	616f3c3672c07234d96edc86	4	1	main_z	7	advance_on_keypress_ZEE	78	stimuli_distractor_trianglediamonds.svg	stimuli_target_diamondsquares.svg	28	yes	57	0	356	0	0			0	0			1				0	
6.6.1	mac	2023-06-28	09:44:28	09:50:04	332390	616f3c3672c07234d96edc86	4	1	main_z	7	main_z	79	stimuli_distractor_trianglediamonds.svg	stimuli_target_squaretriangles.svg	11	yes	44	1	942	0	0			0	0			1				0	
6.6.1	mac	2023-06-28	09:44:28	09:50:04	332390	616f3c3672c07234d96edc86	4	1	main_z	7	advance_on_keypress_ZEE	80	stimuli_distractor_trianglediamonds.svg	stimuli_target_squaretriangles.svg	11	yes	57	0	342	0	0			0	0			1				0	
6.6.1	mac	2023-06-28	09:44:28	09:50:05	334194	616f3c3672c07234d96edc86	4	1	main_z	7	main_z	81	stimuli_target_diamondsquares.svg	stimuli_distractor_diamondtriangles.svg	24	yes	44	1	827	0	0			0	0			1				0	
6.6.1	mac	2023-06-28	09:44:28	09:50:05	334194	616f3c3672c07234d96edc86	4	1	main_z	7	advance_on_keypress_ZEE	82	stimuli_target_diamondsquares.svg	stimuli_distractor_diamondtriangles.svg	24	yes	57	0	339	0	0			0	0			1				0	
6.6.1	mac	2023-06-28	09:44:28	09:50:08	337165	616f3c3672c07234d96edc86	4	1	main_z	7	main_z	83	stimuli_distractor_diamondtriangles.svg	stimuli_distractor_trianglediamonds.svg	38	no	0	1	2000	0	0			0	0			1				0	
6.6.1	mac	2023-06-28	09:44:28	09:50:08	337165	616f3c3672c07234d96edc86	4	1	main_z	7	advance_on_keypress_ZEE	84	stimuli_distractor_diamondtriangles.svg	stimuli_distractor_trianglediamonds.svg	38	no	57	0	572	0	0			0	0			1				0	
6.6.1	mac	2023-06-28	09:44:28	09:50:11	339284	616f3c3672c07234d96edc86	4	1	main_z	7	main_z	85	stimuli_target_trianglerectangles.svg	stimuli_distractor_diamondtriangles.svg	21	yes	44	1	918	0	0			0	0			1				0	
6.6.1	mac	2023-06-28	09:44:28	09:50:11	339284	616f3c3672c07234d96edc86	4	1	main_z	7	advance_on_keypress_ZEE	86	stimuli_target_trianglerectangles.svg	stimuli_distractor_diamondtriangles.svg	21	yes	57	0	356	0	0			0	0			1				0	
6.6.1	mac	2023-06-28	09:44:28	09:50:12	341007	616f3c3672c07234d96edc86	4	1	main_z	7	main_z	87	stimuli_distractor_diamondtriangles.svg	stimuli_target_trianglesquares.svg	30	yes	44	1	741	0	0			0	0			1				0	
6.6.1	mac	2023-06-28	09:44:28	09:50:12	341007	616f3c3672c07234d96edc86	4	1	main_z	7	advance_on_keypress_ZEE	88	stimuli_distractor_diamondtriangles.svg	stimuli_target_trianglesquares.svg	30	yes	57	0	330	0	0			0	0			1				0	
6.6.1	mac	2023-06-28	09:44:28	09:50:14	342920	616f3c3672c07234d96edc86	4	1	main_z	7	main_z	89	stimuli_target_trianglerectangles.svg	stimuli_distractor_trianglediamonds.svg	17	yes	44	1	953	0	0			0	0			1				0	
6.6.1	mac	2023-06-28	09:44:28	09:50:14	342920	616f3c3672c07234d96edc86	4	1	main_z	7	advance_on_keypress_ZEE	90	stimuli_target_trianglerectangles.svg	stimuli_distractor_trianglediamonds.svg	17	yes	57	0	379	0	0			0	0			1				0	
6.6.1	mac	2023-06-28	09:44:28	09:50:17	345930	616f3c3672c07234d96edc86	4	1	main_z	7	main_z	91	stimuli_distractor_trianglediamonds.svg	stimuli_distractor_diamondtriangles.svg	36	no	0	1	2000	0	0			0	0			1				0	
6.6.1	mac	2023-06-28	09:44:28	09:50:17	345930	616f3c3672c07234d96edc86	4	1	main_z	7	advance_on_keypress_ZEE	92	stimuli_distractor_trianglediamonds.svg	stimuli_distractor_diamondtriangles.svg	36	no	57	0	497	0	0			0	0			1				0	
6.6.1	mac	2023-06-28	09:44:28	09:50:19	347774	616f3c3672c07234d96edc86	4	1	main_z	7	main_z	93	stimuli_distractor_trianglediamonds.svg	stimuli_target_trianglerectangles.svg	25	yes	44	1	708	0	0			0	0			1				0	
6.6.1	mac	2023-06-28	09:44:28	09:50:19	347774	616f3c3672c07234d96edc86	4	1	main_z	7	advance_on_keypress_ZEE	94	stimuli_distractor_trianglediamonds.svg	stimuli_target_trianglerectangles.svg	25	yes	57	0	299	0	0			0	0			1				0	
6.6.1	mac	2023-06-28	09:44:28	09:50:21	349503	616f3c3672c07234d96edc86	4	1	main_z	7	main_z	95	stimuli_target_rectanglediamonds.svg	stimuli_distractor_diamondtriangles.svg	6	yes	44	1	803	0	0			0	0			1				0	
6.6.1	mac	2023-06-28	09:44:28	09:50:21	349503	616f3c3672c07234d96edc86	4	1	main_z	7	advance_on_keypress_ZEE	96	stimuli_target_rectanglediamonds.svg	stimuli_distractor_diamondtriangles.svg	6	yes	57	0	336	0	0			0	0			1				0	
6.6.1	mac	2023-06-28	09:44:28	09:50:23	351354	616f3c3672c07234d96edc86	4	1	main_z	7	main_z	97	stimuli_target_squaretriangles.svg	stimuli_distractor_diamondtriangles.svg	7	yes	44	1	885	0	0			0	0			1				0	
6.6.1	mac	2023-06-28	09:44:28	09:50:23	351354	616f3c3672c07234d96edc86	4	1	main_z	7	advance_on_keypress_ZEE	98	stimuli_target_squaretriangles.svg	stimuli_distractor_diamondtriangles.svg	7	yes	57	0	392	0	0			0	0			1				0	
6.6.1	mac	2023-06-28	09:44:28	09:50:25	353420	616f3c3672c07234d96edc86	4	1	main_z	7	main_z	99	stimuli_target_squaretriangles.svg	stimuli_distractor_trianglediamonds.svg	3	yes	44	1	1038	0	0			0	0			1				0	
6.6.1	mac	2023-06-28	09:44:28	09:50:25	353420	616f3c3672c07234d96edc86	4	1	main_z	7	advance_on_keypress_ZEE	100	stimuli_target_squaretriangles.svg	stimuli_distractor_trianglediamonds.svg	3	yes	57	0	286	0	0			0	0			1				0	
6.6.1	mac	2023-06-28	09:44:28	09:50:28	356330	616f3c3672c07234d96edc86	4	1	main_z	7	main_z	101	stimuli_distractor_diamondtriangles.svg	stimuli_distractor_diamondtriangles.svg	39	no	0	1	2000	0	0			0	0			1				0	
6.6.1	mac	2023-06-28	09:44:28	09:50:28	356330	616f3c3672c07234d96edc86	4	1	main_z	7	advance_on_keypress_ZEE	102	stimuli_distractor_diamondtriangles.svg	stimuli_distractor_diamondtriangles.svg	39	no	57	0	304	0	0			0	0			1				0	
6.6.1	mac	2023-06-28	09:44:28	09:50:31	359264	616f3c3672c07234d96edc86	4	1	main_z	7	main_z	103	stimuli_distractor_diamondtriangles.svg	stimuli_distractor_trianglediamonds.svg	37	no	0	1	2000	0	0			0	0			1				0	
6.6.1	mac	2023-06-28	09:44:28	09:50:31	359264	616f3c3672c07234d96edc86	4	1	main_z	7	advance_on_keypress_ZEE	104	stimuli_distractor_diamondtriangles.svg	stimuli_distractor_trianglediamonds.svg	37	no	57	0	464	0	0			0	0			1				0	
6.6.1	mac	2023-06-28	09:44:28	09:50:33	362024	616f3c3672c07234d96edc86	4	1	main_z	7	main_z	105	stimuli_distractor_diamondtriangles.svg	stimuli_target_trianglerectangles.svg	29	yes	44	1	1657	0	0			0	0			1				0	
6.6.1	mac	2023-06-28	09:44:28	09:50:33	362024	616f3c3672c07234d96edc86	4	1	main_z	7	advance_on_keypress_ZEE	106	stimuli_distractor_diamondtriangles.svg	stimuli_target_trianglerectangles.svg	29	yes	57	0	492	0	0			0	0			1				0	
6.6.1	mac	2023-06-28	09:44:28	09:50:36	365130	616f3c3672c07234d96edc86	4	1	main_z	7	main_z	107	stimuli_distractor_diamondtriangles.svg	stimuli_distractor_diamondtriangles.svg	40	no	0	1	2000	0	0			0	0			1				0	
6.6.1	mac	2023-06-28	09:44:28	09:50:36	365130	616f3c3672c07234d96edc86	4	1	main_z	7	advance_on_keypress_ZEE	108	stimuli_distractor_diamondtriangles.svg	stimuli_distractor_diamondtriangles.svg	40	no	57	0	388	0	0			0	0			1				0	
6.6.1	mac	2023-06-28	09:44:28	09:50:38	366983	616f3c3672c07234d96edc86	4	1	main_z	7	main_z	109	stimuli_distractor_trianglediamonds.svg	stimuli_target_rectanglediamonds.svg	10	yes	44	1	834	0	0			0	0			1				0	
6.6.1	mac	2023-06-28	09:44:28	09:50:38	366983	616f3c3672c07234d96edc86	4	1	main_z	7	advance_on_keypress_ZEE	110	stimuli_distractor_trianglediamonds.svg	stimuli_target_rectanglediamonds.svg	10	yes	57	0	306	0	0			0	0			1				0	
6.6.1	mac	2023-06-28	09:44:28	09:50:40	368532	616f3c3672c07234d96edc86	4	1	main_z	7	main_z	111	stimuli_distractor_trianglediamonds.svg	stimuli_target_rectangletriangles.svg	9	yes	44	1	615	0	0			0	0			1				0	
6.6.1	mac	2023-06-28	09:44:28	09:50:40	368532	616f3c3672c07234d96edc86	4	1	main_z	7	advance_on_keypress_ZEE	112	stimuli_distractor_trianglediamonds.svg	stimuli_target_rectangletriangles.svg	9	yes	57	0	342	0	0			0	0			1				0	
6.6.1	mac	2023-06-28	09:44:28	09:50:41	370162	616f3c3672c07234d96edc86	4	1	main_z	7	main_z	113	stimuli_target_squarediamonds.svg	stimuli_distractor_trianglediamonds.svg	4	yes	44	1	663	0	0			0	0			1				0	
6.6.1	mac	2023-06-28	09:44:28	09:50:41	370162	616f3c3672c07234d96edc86	4	1	main_z	7	advance_on_keypress_ZEE	114	stimuli_target_squarediamonds.svg	stimuli_distractor_trianglediamonds.svg	4	yes	57	0	304	0	0			0	0			1				0	
6.6.1	mac	2023-06-28	09:44:28	09:50:43	371748	616f3c3672c07234d96edc86	4	1	main_z	7	main_z	115	stimuli_distractor_trianglediamonds.svg	stimuli_target_trianglesquares.svg	26	yes	44	1	648	0	0			0	0			1				0	
6.6.1	mac	2023-06-28	09:44:28	09:50:43	371748	616f3c3672c07234d96edc86	4	1	main_z	7	advance_on_keypress_ZEE	116	stimuli_distractor_trianglediamonds.svg	stimuli_target_trianglesquares.svg	26	yes	57	0	333	0	0			0	0			1				0	
6.6.1	mac	2023-06-28	09:44:28	09:50:45	373485	616f3c3672c07234d96edc86	4	1	main_z	7	main_z	117	stimuli_target_diamondrectangles.svg	stimuli_distractor_trianglediamonds.svg	19	yes	44	1	768	0	0			0	0			1				0	
6.6.1	mac	2023-06-28	09:44:28	09:50:45	373485	616f3c3672c07234d96edc86	4	1	main_z	7	advance_on_keypress_ZEE	118	stimuli_target_diamondrectangles.svg	stimuli_distractor_trianglediamonds.svg	19	yes	57	0	301	0	0			0	0			1				0	
6.6.1	mac	2023-06-28	09:44:28	09:50:46	375245	616f3c3672c07234d96edc86	4	1	main_z	7	main_z	119	stimuli_target_diamondrectangles.svg	stimuli_distractor_diamondtriangles.svg	23	yes	44	1	829	0	0			0	0			1				0	
6.6.1	mac	2023-06-28	09:44:28	09:50:46	375245	616f3c3672c07234d96edc86	4	1	main_z	7	advance_on_keypress_ZEE	120	stimuli_target_diamondrectangles.svg	stimuli_distractor_diamondtriangles.svg	23	yes	57	0	353	0	0			0	0			1				0	
6.6.1	mac	2023-06-28	09:44:28	09:50:48	376840	616f3c3672c07234d96edc86	4	1	main_z	7	main_z	121	stimuli_target_rectanglediamonds.svg	stimuli_distractor_trianglediamonds.svg	2	yes	44	1	608	0	0			0	0			1				0	
6.6.1	mac	2023-06-28	09:44:28	09:50:48	376840	616f3c3672c07234d96edc86	4	1	main_z	7	advance_on_keypress_ZEE	122	stimuli_target_rectanglediamonds.svg	stimuli_distractor_trianglediamonds.svg	2	yes	57	0	338	0	0			0	0			1				0	
6.6.1	mac	2023-06-28	09:44:28	09:50:50	378446	616f3c3672c07234d96edc86	4	1	main_z	7	main_z	123	stimuli_distractor_diamondtriangles.svg	stimuli_target_rectanglediamonds.svg	14	yes	44	1	646	0	0			0	0			1				0	
6.6.1	mac	2023-06-28	09:44:28	09:50:50	378446	616f3c3672c07234d96edc86	4	1	main_z	7	advance_on_keypress_ZEE	124	stimuli_distractor_diamondtriangles.svg	stimuli_target_rectanglediamonds.svg	14	yes	57	0	326	0	0			0	0			1				0	
6.6.1	mac	2023-06-28	09:44:28	09:50:51	380101	616f3c3672c07234d96edc86	4	1	main_z	7	main_z	125	stimuli_distractor_trianglediamonds.svg	stimuli_target_diamondrectangles.svg	27	yes	44	1	702	0	0			0	0			1				0	
6.6.1	mac	2023-06-28	09:44:28	09:50:51	380101	616f3c3672c07234d96edc86	4	1	main_z	7	advance_on_keypress_ZEE	126	stimuli_distractor_trianglediamonds.svg	stimuli_target_diamondrectangles.svg	27	yes	57	0	342	0	0			0	0			1				0	
6.6.1	mac	2023-06-28	09:44:28	09:50:54	383063	616f3c3672c07234d96edc86	4	1	main_z	7	main_z	127	stimuli_distractor_trianglediamonds.svg	stimuli_distractor_trianglediamonds.svg	34	no	0	1	2000	0	0			0	0			1				0	
6.6.1	mac	2023-06-28	09:44:28	09:50:54	383063	616f3c3672c07234d96edc86	4	1	main_z	7	advance_on_keypress_ZEE	128	stimuli_distractor_trianglediamonds.svg	stimuli_distractor_trianglediamonds.svg	34	no	57	0	358	0	0			0	0			1				0	
6.6.1	mac	2023-06-28	09:44:28	09:50:56	384738	616f3c3672c07234d96edc86	4	1	main_z	7	main_z	129	stimuli_target_squarediamonds.svg	stimuli_distractor_diamondtriangles.svg	8	yes	44	1	688	0	0			0	0			1				0	
6.6.1	mac	2023-06-28	09:44:28	09:50:56	384738	616f3c3672c07234d96edc86	4	1	main_z	7	advance_on_keypress_ZEE	130	stimuli_target_squarediamonds.svg	stimuli_distractor_diamondtriangles.svg	8	yes	57	0	327	0	0			0	0			1				0	
6.6.1	mac	2023-06-28	09:44:28	09:50:59	387680	616f3c3672c07234d96edc86	4	1	main_z	7	main_z	131	stimuli_distractor_trianglediamonds.svg	stimuli_distractor_diamondtriangles.svg	35	no	0	1	2000	0	0			0	0			1				0	
6.6.1	mac	2023-06-28	09:44:28	09:50:59	387680	616f3c3672c07234d96edc86	4	1	main_z	7	advance_on_keypress_ZEE	132	stimuli_distractor_trianglediamonds.svg	stimuli_distractor_diamondtriangles.svg	35	no	57	0	544	0	0			0	0			1				0	
6.6.1	mac	2023-06-28	09:44:28	09:51:01	389387	616f3c3672c07234d96edc86	4	1	main_z	7	main_z	133	stimuli_distractor_trianglediamonds.svg	stimuli_target_squarediamonds.svg	12	yes	44	1	537	0	0			0	0			1				0	
6.6.1	mac	2023-06-28	09:44:28	09:51:01	389387	616f3c3672c07234d96edc86	4	1	main_z	7	advance_on_keypress_ZEE	134	stimuli_distractor_trianglediamonds.svg	stimuli_target_squarediamonds.svg	12	yes	57	0	316	0	0			0	0			1				0	
6.6.1	mac	2023-06-28	09:44:28	09:51:02	390999	616f3c3672c07234d96edc86	4	1	main_z	7	main_z	135	stimuli_target_rectangletriangles.svg	stimuli_distractor_trianglediamonds.svg	1	yes	44	1	666	0	0			0	0			1				0	
6.6.1	mac	2023-06-28	09:44:28	09:51:02	390999	616f3c3672c07234d96edc86	4	1	main_z	7	advance_on_keypress_ZEE	136	stimuli_target_rectangletriangles.svg	stimuli_distractor_trianglediamonds.svg	1	yes	57	0	350	0	0			0	0			1				0	
6.6.1	mac	2023-06-28	09:44:28	09:51:04	392703	616f3c3672c07234d96edc86	4	1	main_z	7	main_z	137	stimuli_target_trianglesquares.svg	stimuli_distractor_trianglediamonds.svg	18	yes	44	1	721	0	0			0	0			1				0	
6.6.1	mac	2023-06-28	09:44:28	09:51:04	392703	616f3c3672c07234d96edc86	4	1	main_z	7	advance_on_keypress_ZEE	138	stimuli_target_trianglesquares.svg	stimuli_distractor_trianglediamonds.svg	18	yes	57	0	363	0	0			0	0			1				0	
6.6.1	mac	2023-06-28	09:44:28	09:51:06	394417	616f3c3672c07234d96edc86	4	1	main_z	7	main_z	139	stimuli_target_trianglesquares.svg	stimuli_distractor_diamondtriangles.svg	22	yes	44	1	717	0	0			0	0			1				0	
6.6.1	mac	2023-06-28	09:44:28	09:51:06	394417	616f3c3672c07234d96edc86	4	1	main_z	7	advance_on_keypress_ZEE	140	stimuli_target_trianglesquares.svg	stimuli_distractor_diamondtriangles.svg	22	yes	57	0	318	0	0			0	0			1				0	
6.6.1	mac	2023-06-28	09:44:28	09:51:07	396008	616f3c3672c07234d96edc86	4	1	main_z	7	main_z	141	stimuli_distractor_diamondtriangles.svg	stimuli_target_squarediamonds.svg	16	yes	44	1	641	0	0			0	0			1				0	
6.6.1	mac	2023-06-28	09:44:28	09:51:07	396008	616f3c3672c07234d96edc86	4	1	main_z	7	advance_on_keypress_ZEE	142	stimuli_distractor_diamondtriangles.svg	stimuli_target_squarediamonds.svg	16	yes	57	0	341	0	0			0	0			1				0	
6.6.1	mac	2023-06-28	09:44:28	09:51:10	398964	616f3c3672c07234d96edc86	4	1	main_z	7	main_z	143	stimuli_distractor_trianglediamonds.svg	stimuli_distractor_trianglediamonds.svg	33	no	0	1	2000	0	0			0	0			1				0	
6.6.1	mac	2023-06-28	09:44:28	09:51:10	398964	616f3c3672c07234d96edc86	4	1	main_z	7	advance_on_keypress_ZEE	144	stimuli_distractor_trianglediamonds.svg	stimuli_distractor_trianglediamonds.svg	33	no	57	0	291	0	0			0	0			1				0	
6.6.1	mac	2023-06-28	09:44:28	09:51:12	400508	616f3c3672c07234d96edc86	4	1	main_z	7	main_z	145	stimuli_distractor_diamondtriangles.svg	stimuli_target_squaretriangles.svg	15	yes	44	1	625	0	0			0	0			1				0	
6.6.1	mac	2023-06-28	09:44:28	09:51:12	400508	616f3c3672c07234d96edc86	4	1	main_z	7	advance_on_keypress_ZEE	146	stimuli_distractor_diamondtriangles.svg	stimuli_target_squaretriangles.svg	15	yes	57	0	305	0	0			0	0			1				0	
6.6.1	mac	2023-06-28	09:44:28	09:51:13	401978	616f3c3672c07234d96edc86	4	1	main_z	7	main_z	147	stimuli_target_rectangletriangles.svg	stimuli_distractor_diamondtriangles.svg	5	yes	44	1	545	0	0			0	0			1				0	
6.6.1	mac	2023-06-28	09:44:28	09:51:13	401978	616f3c3672c07234d96edc86	4	1	main_z	7	advance_on_keypress_ZEE	148	stimuli_target_rectangletriangles.svg	stimuli_distractor_diamondtriangles.svg	5	yes	57	0	280	0	0			0	0			1				0	
6.6.1	mac	2023-06-28	09:44:28	09:51:15	403479	616f3c3672c07234d96edc86	4	1	main_z	7	main_z	149	stimuli_distractor_trianglediamonds.svg	stimuli_target_squaretriangles.svg	11	yes	44	1	579	0	0			0	0			1				0	
6.6.1	mac	2023-06-28	09:44:28	09:51:15	403479	616f3c3672c07234d96edc86	4	1	main_z	7	advance_on_keypress_ZEE	150	stimuli_distractor_trianglediamonds.svg	stimuli_target_squaretriangles.svg	11	yes	57	0	305	0	0			0	0			1				0	
6.6.1	mac	2023-06-28	09:44:28	09:51:16	405106	616f3c3672c07234d96edc86	4	1	main_z	7	main_z	151	stimuli_target_diamondsquares.svg	stimuli_distractor_trianglediamonds.svg	20	yes	44	1	690	0	0			0	0			1				0	
6.6.1	mac	2023-06-28	09:44:28	09:51:16	405106	616f3c3672c07234d96edc86	4	1	main_z	7	advance_on_keypress_ZEE	152	stimuli_target_diamondsquares.svg	stimuli_distractor_trianglediamonds.svg	20	yes	57	0	323	0	0			0	0			1				0	
6.6.1	mac	2023-06-28	09:44:28	09:51:18	406722	616f3c3672c07234d96edc86	4	1	main_z	7	main_z	153	stimuli_distractor_diamondtriangles.svg	stimuli_target_diamondsquares.svg	32	yes	44	1	672	0	0			0	0			1				0	
6.6.1	mac	2023-06-28	09:44:28	09:51:18	406722	616f3c3672c07234d96edc86	4	1	main_z	7	advance_on_keypress_ZEE	154	stimuli_distractor_diamondtriangles.svg	stimuli_target_diamondsquares.svg	32	yes	57	0	375	0	0			0	0			1				0	
6.6.1	mac	2023-06-28	09:44:28	09:51:20	408328	616f3c3672c07234d96edc86	4	1	main_z	7	main_z	155	stimuli_distractor_trianglediamonds.svg	stimuli_target_diamondsquares.svg	28	yes	44	1	613	0	0			0	0			1				0	
6.6.1	mac	2023-06-28	09:44:28	09:51:20	408328	616f3c3672c07234d96edc86	4	1	main_z	7	advance_on_keypress_ZEE	156	stimuli_distractor_trianglediamonds.svg	stimuli_target_diamondsquares.svg	28	yes	57	0	304	0	0			0	0			1				0	
6.6.1	mac	2023-06-28	09:44:28	09:51:21	409883	616f3c3672c07234d96edc86	4	1	main_z	7	main_z	157	stimuli_distractor_diamondtriangles.svg	stimuli_target_rectangletriangles.svg	13	yes	44	1	616	0	0			0	0			1				0	
6.6.1	mac	2023-06-28	09:44:28	09:51:21	409883	616f3c3672c07234d96edc86	4	1	main_z	7	advance_on_keypress_ZEE	158	stimuli_distractor_diamondtriangles.svg	stimuli_target_rectangletriangles.svg	13	yes	57	0	308	0	0			0	0			1				0	
6.6.1	mac	2023-06-28	09:44:28	09:51:23	411384	616f3c3672c07234d96edc86	4	1	main_z	7	main_z	159	stimuli_distractor_diamondtriangles.svg	stimuli_target_diamondrectangles.svg	31	yes	44	1	567	0	0			0	0			1				0	
6.6.1	mac	2023-06-28	09:44:28	09:51:23	411384	616f3c3672c07234d96edc86	4	1	main_z	7	advance_on_keypress_ZEE	160	stimuli_distractor_diamondtriangles.svg	stimuli_target_diamondrectangles.svg	31	yes	57	0	339	0	0			0	0			1				0	
6.6.1	mac	2023-06-28	09:44:28	09:51:47	435765	616f3c3672c07234d96edc86	4	1	practice_slash	9	practice_slash	1	stimuli_distractor_trianglediamonds.svg	stimuli_distractor_diamondtriangles.svg	16	no	0	1	2000	0	0			0	0			1				0	
6.6.1	mac	2023-06-28	09:44:28	09:51:47	435765	616f3c3672c07234d96edc86	4	1	practice_slash	9	advance_on_keypress_SLASH	2	stimuli_distractor_trianglediamonds.svg	stimuli_distractor_diamondtriangles.svg	16	no	57	0	669	0	0			0	0			1				0	
6.6.1	mac	2023-06-28	09:44:28	09:51:50	438644	616f3c3672c07234d96edc86	4	1	practice_slash	9	practice_slash	3	stimuli_distractor_diamondtriangles.svg	stimuli_target_rectangletriangles.svg	7	yes	53	1	576	0	0			0	0			1				0	
6.6.1	mac	2023-06-28	09:44:28	09:51:50	438644	616f3c3672c07234d96edc86	4	1	practice_slash	9	advance_on_keypress_SLASH	4	stimuli_distractor_diamondtriangles.svg	stimuli_target_rectangletriangles.svg	7	yes	57	0	604	0	0			0	0			1				0	
6.6.1	mac	2023-06-28	09:44:28	09:51:54	442880	616f3c3672c07234d96edc86	4	1	practice_slash	9	practice_slash	5	stimuli_distractor_trianglediamonds.svg	stimuli_distractor_trianglediamonds.svg	15	no	0	1	2000	0	0			0	0			1				0	
6.6.1	mac	2023-06-28	09:44:28	09:51:54	442880	616f3c3672c07234d96edc86	4	1	practice_slash	9	advance_on_keypress_SLASH	6	stimuli_distractor_trianglediamonds.svg	stimuli_distractor_trianglediamonds.svg	15	no	57	0	428	0	0			0	0			1				0	
6.6.1	mac	2023-06-28	09:44:28	09:51:58	446948	616f3c3672c07234d96edc86	4	1	practice_slash	9	practice_slash	7	stimuli_distractor_diamondtriangles.svg	stimuli_distractor_diamondtriangles.svg	13	no	0	1	2000	0	0			0	0			1				0	
6.6.1	mac	2023-06-28	09:44:28	09:51:58	446948	616f3c3672c07234d96edc86	4	1	practice_slash	9	advance_on_keypress_SLASH	8	stimuli_distractor_diamondtriangles.svg	stimuli_distractor_diamondtriangles.svg	13	no	57	0	464	0	0			0	0			1				0	
6.6.1	mac	2023-06-28	09:44:28	09:52:01	449703	616f3c3672c07234d96edc86	4	1	practice_slash	9	practice_slash	9	stimuli_distractor_trianglediamonds.svg	stimuli_target_squarediamonds.svg	11	yes	53	1	652	0	0			0	0			1				0	
6.6.1	mac	2023-06-28	09:44:28	09:52:01	449703	616f3c3672c07234d96edc86	4	1	practice_slash	9	advance_on_keypress_SLASH	10	stimuli_distractor_trianglediamonds.svg	stimuli_target_squarediamonds.svg	11	yes	57	0	929	0	0			0	0			1				0	
6.6.1	mac	2023-06-28	09:44:28	09:52:04	452835	616f3c3672c07234d96edc86	4	1	practice_slash	9	practice_slash	11	stimuli_target_rectanglediamonds.svg	stimuli_distractor_diamondtriangles.svg	1	yes	53	1	568	0	0			0	0			1				0	
6.6.1	mac	2023-06-28	09:44:28	09:52:04	452835	616f3c3672c07234d96edc86	4	1	practice_slash	9	advance_on_keypress_SLASH	12	stimuli_target_rectanglediamonds.svg	stimuli_distractor_diamondtriangles.svg	1	yes	57	0	271	0	0			0	0			1				0	
6.6.1	mac	2023-06-28	09:44:28	09:52:06	455225	616f3c3672c07234d96edc86	4	1	practice_slash	9	practice_slash	13	stimuli_distractor_diamondtriangles.svg	stimuli_target_trianglerectangles.svg	9	yes	53	1	491	0	0			0	0			1				0	
6.6.1	mac	2023-06-28	09:44:28	09:52:06	455225	616f3c3672c07234d96edc86	4	1	practice_slash	9	advance_on_keypress_SLASH	14	stimuli_distractor_diamondtriangles.svg	stimuli_target_trianglerectangles.svg	9	yes	57	0	257	0	0			0	0			1				0	
6.6.1	mac	2023-06-28	09:44:28	09:52:09	457634	616f3c3672c07234d96edc86	4	1	practice_slash	9	practice_slash	15	stimuli_target_diamondsquares.svg	stimuli_distractor_diamondtriangles.svg	3	yes	53	1	533	0	0			0	0			1				0	
6.6.1	mac	2023-06-28	09:44:28	09:52:09	457634	616f3c3672c07234d96edc86	4	1	practice_slash	9	advance_on_keypress_SLASH	16	stimuli_target_diamondsquares.svg	stimuli_distractor_diamondtriangles.svg	3	yes	57	0	261	0	0			0	0			1				0	
6.6.1	mac	2023-06-28	09:44:28	09:52:11	460080	616f3c3672c07234d96edc86	4	1	practice_slash	9	practice_slash	17	stimuli_target_squarediamonds.svg	stimuli_distractor_diamondtriangles.svg	2	yes	53	1	547	0	0			0	0			1				0	
6.6.1	mac	2023-06-28	09:44:28	09:52:11	460080	616f3c3672c07234d96edc86	4	1	practice_slash	9	advance_on_keypress_SLASH	18	stimuli_target_squarediamonds.svg	stimuli_distractor_diamondtriangles.svg	2	yes	57	0	412	0	0			0	0			1				0	
6.6.1	mac	2023-06-28	09:44:28	09:52:14	462412	616f3c3672c07234d96edc86	4	1	practice_slash	9	practice_slash	19	stimuli_distractor_trianglediamonds.svg	stimuli_target_diamondrectangles.svg	12	yes	53	1	279	0	0			0	0			1				0	
6.6.1	mac	2023-06-28	09:44:28	09:52:14	462412	616f3c3672c07234d96edc86	4	1	practice_slash	9	advance_on_keypress_SLASH	20	stimuli_distractor_trianglediamonds.svg	stimuli_target_diamondrectangles.svg	12	yes	57	0	292	0	0			0	0			1				0	
6.6.1	mac	2023-06-28	09:44:28	09:52:18	466330	616f3c3672c07234d96edc86	4	1	practice_slash	9	practice_slash	21	stimuli_distractor_diamondtriangles.svg	stimuli_distractor_trianglediamonds.svg	14	no	0	1	2000	0	0			0	0			1				0	
6.6.1	mac	2023-06-28	09:44:28	09:52:18	466330	616f3c3672c07234d96edc86	4	1	practice_slash	9	advance_on_keypress_SLASH	22	stimuli_distractor_diamondtriangles.svg	stimuli_distractor_trianglediamonds.svg	14	no	57	0	595	0	0			0	0			1				0	
6.6.1	mac	2023-06-28	09:44:28	09:52:20	469128	616f3c3672c07234d96edc86	4	1	practice_slash	9	practice_slash	23	stimuli_distractor_trianglediamonds.svg	stimuli_target_rectanglediamonds.svg	10	yes	53	1	562	0	0			0	0			1				0	
6.6.1	mac	2023-06-28	09:44:28	09:52:20	469128	616f3c3672c07234d96edc86	4	1	practice_slash	9	advance_on_keypress_SLASH	24	stimuli_distractor_trianglediamonds.svg	stimuli_target_rectanglediamonds.svg	10	yes	57	0	357	0	0			0	0			1				0	
6.6.1	mac	2023-06-28	09:44:28	09:52:23	471696	616f3c3672c07234d96edc86	4	1	practice_slash	9	practice_slash	25	stimuli_target_rectanglediamonds.svg	stimuli_distractor_trianglediamonds.svg	4	yes	53	1	579	0	0			0	0			1				0	
6.6.1	mac	2023-06-28	09:44:28	09:52:23	471696	616f3c3672c07234d96edc86	4	1	practice_slash	9	advance_on_keypress_SLASH	26	stimuli_target_rectanglediamonds.svg	stimuli_distractor_trianglediamonds.svg	4	yes	57	0	331	0	0			0	0			1				0	
6.6.1	mac	2023-06-28	09:44:28	09:52:26	474263	616f3c3672c07234d96edc86	4	1	practice_slash	9	practice_slash	27	stimuli_target_diamondsquares.svg	stimuli_distractor_trianglediamonds.svg	6	yes	53	1	596	0	0			0	0			1				0	
6.6.1	mac	2023-06-28	09:44:28	09:52:26	474263	616f3c3672c07234d96edc86	4	1	practice_slash	9	advance_on_keypress_SLASH	28	stimuli_target_diamondsquares.svg	stimuli_distractor_trianglediamonds.svg	6	yes	57	0	544	0	0			0	0			1				0	
6.6.1	mac	2023-06-28	09:44:28	09:52:28	477051	616f3c3672c07234d96edc86	4	1	practice_slash	9	practice_slash	29	stimuli_distractor_diamondtriangles.svg	stimuli_target_diamondrectangles.svg	8	yes	53	1	618	0	0			0	0			1				0	
6.6.1	mac	2023-06-28	09:44:28	09:52:28	477051	616f3c3672c07234d96edc86	4	1	practice_slash	9	advance_on_keypress_SLASH	30	stimuli_distractor_diamondtriangles.svg	stimuli_target_diamondrectangles.svg	8	yes	57	0	265	0	0			0	0			1				0	
6.6.1	mac	2023-06-28	09:44:28	09:52:31	479436	616f3c3672c07234d96edc86	4	1	practice_slash	9	practice_slash	31	stimuli_target_squarediamonds.svg	stimuli_distractor_trianglediamonds.svg	5	yes	53	1	485	0	0			0	0			1				0	
6.6.1	mac	2023-06-28	09:44:28	09:52:31	479436	616f3c3672c07234d96edc86	4	1	practice_slash	9	advance_on_keypress_SLASH	32	stimuli_target_squarediamonds.svg	stimuli_distractor_trianglediamonds.svg	5	yes	57	0	396	0	0			0	0			1				0	
6.6.1	mac	2023-06-28	09:44:28	09:52:35	483840	616f3c3672c07234d96edc86	4	1	main_slash	11	main_slash	1	stimuli_target_squaretriangles.svg	stimuli_distractor_trianglediamonds.svg	3	yes	53	1	489	0	0			0	0			1				0	
6.6.1	mac	2023-06-28	09:44:28	09:52:35	483840	616f3c3672c07234d96edc86	4	1	main_slash	11	advance_on_keypress_SLASH	2	stimuli_target_squaretriangles.svg	stimuli_distractor_trianglediamonds.svg	3	yes	57	0	474	0	0			0	0			1				0	
6.6.1	mac	2023-06-28	09:44:28	09:52:38	486947	616f3c3672c07234d96edc86	4	1	main_slash	11	main_slash	3	stimuli_distractor_trianglediamonds.svg	stimuli_distractor_diamondtriangles.svg	35	no	0	1	2000	0	0			0	0			1				0	
6.6.1	mac	2023-06-28	09:44:28	09:52:38	486947	616f3c3672c07234d96edc86	4	1	main_slash	11	advance_on_keypress_SLASH	4	stimuli_distractor_trianglediamonds.svg	stimuli_distractor_diamondtriangles.svg	35	no	57	0	656	0	0			0	0			1				0	
6.6.1	mac	2023-06-28	09:44:28	09:52:40	488772	616f3c3672c07234d96edc86	4	1	main_slash	11	main_slash	5	stimuli_distractor_diamondtriangles.svg	stimuli_target_trianglesquares.svg	30	yes	53	1	539	0	0			0	0			1				0	
6.6.1	mac	2023-06-28	09:44:28	09:52:40	488772	616f3c3672c07234d96edc86	4	1	main_slash	11	advance_on_keypress_SLASH	6	stimuli_distractor_diamondtriangles.svg	stimuli_target_trianglesquares.svg	30	yes	57	0	592	0	0			0	0			1				0	
6.6.1	mac	2023-06-28	09:44:28	09:52:42	490565	616f3c3672c07234d96edc86	4	1	main_slash	11	main_slash	7	stimuli_target_trianglesquares.svg	stimuli_distractor_diamondtriangles.svg	22	yes	53	1	565	0	0			0	0			1				0	
6.6.1	mac	2023-06-28	09:44:28	09:52:42	490565	616f3c3672c07234d96edc86	4	1	main_slash	11	advance_on_keypress_SLASH	8	stimuli_target_trianglesquares.svg	stimuli_distractor_diamondtriangles.svg	22	yes	57	0	387	0	0			0	0			1				0	
6.6.1	mac	2023-06-28	09:44:28	09:52:43	492155	616f3c3672c07234d96edc86	4	1	main_slash	11	main_slash	9	stimuli_distractor_trianglediamonds.svg	stimuli_target_diamondrectangles.svg	27	yes	53	1	572	0	0			0	0			1				0	
6.6.1	mac	2023-06-28	09:44:28	09:52:43	492155	616f3c3672c07234d96edc86	4	1	main_slash	11	advance_on_keypress_SLASH	10	stimuli_distractor_trianglediamonds.svg	stimuli_target_diamondrectangles.svg	27	yes	57	0	379	0	0			0	0			1				0	
6.6.1	mac	2023-06-28	09:44:28	09:52:46	495163	616f3c3672c07234d96edc86	4	1	main_slash	11	main_slash	11	stimuli_distractor_diamondtriangles.svg	stimuli_distractor_trianglediamonds.svg	38	no	0	1	2000	0	0			0	0			1				0	
6.6.1	mac	2023-06-28	09:44:28	09:52:46	495163	616f3c3672c07234d96edc86	4	1	main_slash	11	advance_on_keypress_SLASH	12	stimuli_distractor_diamondtriangles.svg	stimuli_distractor_trianglediamonds.svg	38	no	57	0	300	0	0			0	0			1				0	
6.6.1	mac	2023-06-28	09:44:28	09:52:48	496627	616f3c3672c07234d96edc86	4	1	main_slash	11	main_slash	13	stimuli_distractor_trianglediamonds.svg	stimuli_target_squaretriangles.svg	11	yes	53	1	524	0	0			0	0			1				0	
6.6.1	mac	2023-06-28	09:44:28	09:52:48	496627	616f3c3672c07234d96edc86	4	1	main_slash	11	advance_on_keypress_SLASH	14	stimuli_distractor_trianglediamonds.svg	stimuli_target_squaretriangles.svg	11	yes	57	0	382	0	0			0	0			1				0	
6.6.1	mac	2023-06-28	09:44:28	09:52:49	498106	616f3c3672c07234d96edc86	4	1	main_slash	11	main_slash	15	stimuli_target_squarediamonds.svg	stimuli_distractor_trianglediamonds.svg	4	yes	53	1	456	0	0			0	0			1				0	
6.6.1	mac	2023-06-28	09:44:28	09:52:49	498106	616f3c3672c07234d96edc86	4	1	main_slash	11	advance_on_keypress_SLASH	16	stimuli_target_squarediamonds.svg	stimuli_distractor_trianglediamonds.svg	4	yes	57	0	370	0	0			0	0			1				0	
6.6.1	mac	2023-06-28	09:44:28	09:52:52	501097	616f3c3672c07234d96edc86	4	1	main_slash	11	main_slash	17	stimuli_distractor_diamondtriangles.svg	stimuli_distractor_trianglediamonds.svg	37	no	0	1	2000	0	0			0	0			1				0	
6.6.1	mac	2023-06-28	09:44:28	09:52:52	501097	616f3c3672c07234d96edc86	4	1	main_slash	11	advance_on_keypress_SLASH	18	stimuli_distractor_diamondtriangles.svg	stimuli_distractor_trianglediamonds.svg	37	no	57	0	539	0	0			0	0			1				0	
6.6.1	mac	2023-06-28	09:44:28	09:52:54	502822	616f3c3672c07234d96edc86	4	1	main_slash	11	main_slash	19	stimuli_target_diamondrectangles.svg	stimuli_distractor_diamondtriangles.svg	23	yes	53	1	555	0	0			0	0			1				0	
6.6.1	mac	2023-06-28	09:44:28	09:52:54	502822	616f3c3672c07234d96edc86	4	1	main_slash	11	advance_on_keypress_SLASH	20	stimuli_target_diamondrectangles.svg	stimuli_distractor_diamondtriangles.svg	23	yes	57	0	307	0	0			0	0			1				0	
6.6.1	mac	2023-06-28	09:44:28	09:52:57	505764	616f3c3672c07234d96edc86	4	1	main_slash	11	main_slash	21	stimuli_distractor_diamondtriangles.svg	stimuli_distractor_diamondtriangles.svg	39	no	0	1	2000	0	0			0	0			1				0	
6.6.1	mac	2023-06-28	09:44:28	09:52:57	505764	616f3c3672c07234d96edc86	4	1	main_slash	11	advance_on_keypress_SLASH	22	stimuli_distractor_diamondtriangles.svg	stimuli_distractor_diamondtriangles.svg	39	no	57	0	254	0	0			0	0			1				0	
6.6.1	mac	2023-06-28	09:44:28	09:52:58	507076	616f3c3672c07234d96edc86	4	1	main_slash	11	main_slash	23	stimuli_distractor_diamondtriangles.svg	stimuli_target_squarediamonds.svg	16	yes	53	1	426	0	0			0	0			1				0	
6.6.1	mac	2023-06-28	09:44:28	09:52:58	507076	616f3c3672c07234d96edc86	4	1	main_slash	11	advance_on_keypress_SLASH	24	stimuli_distractor_diamondtriangles.svg	stimuli_target_squarediamonds.svg	16	yes	57	0	320	0	0			0	0			1				0	
6.6.1	mac	2023-06-28	09:44:28	09:53:00	508653	616f3c3672c07234d96edc86	4	1	main_slash	11	main_slash	25	stimuli_target_diamondrectangles.svg	stimuli_distractor_trianglediamonds.svg	19	yes	53	1	620	0	0			0	0			1				0	
6.6.1	mac	2023-06-28	09:44:28	09:53:00	508653	616f3c3672c07234d96edc86	4	1	main_slash	11	advance_on_keypress_SLASH	26	stimuli_target_diamondrectangles.svg	stimuli_distractor_trianglediamonds.svg	19	yes	57	0	300	0	0			0	0			1				0	
6.6.1	mac	2023-06-28	09:44:28	09:53:02	510532	616f3c3672c07234d96edc86	4	1	main_slash	11	main_slash	27	stimuli_target_rectangletriangles.svg	stimuli_distractor_diamondtriangles.svg	5	yes	53	1	949	0	0			0	0			1				0	
6.6.1	mac	2023-06-28	09:44:28	09:53:02	510532	616f3c3672c07234d96edc86	4	1	main_slash	11	advance_on_keypress_SLASH	28	stimuli_target_rectangletriangles.svg	stimuli_distractor_diamondtriangles.svg	5	yes	57	0	283	0	0			0	0			1				0	
6.6.1	mac	2023-06-28	09:44:28	09:53:03	511948	616f3c3672c07234d96edc86	4	1	main_slash	11	main_slash	29	stimuli_distractor_diamondtriangles.svg	stimuli_target_rectanglediamonds.svg	14	yes	53	1	499	0	0			0	0			1				0	
6.6.1	mac	2023-06-28	09:44:28	09:53:03	511948	616f3c3672c07234d96edc86	4	1	main_slash	11	advance_on_keypress_SLASH	30	stimuli_distractor_diamondtriangles.svg	stimuli_target_rectanglediamonds.svg	14	yes	57	0	441	0	0			0	0			1				0	
6.6.1	mac	2023-06-28	09:44:28	09:53:06	515014	616f3c3672c07234d96edc86	4	1	main_slash	11	main_slash	31	stimuli_distractor_trianglediamonds.svg	stimuli_distractor_trianglediamonds.svg	33	no	0	1	2000	0	0			0	0			1				0	
6.6.1	mac	2023-06-28	09:44:28	09:53:06	515014	616f3c3672c07234d96edc86	4	1	main_slash	11	advance_on_keypress_SLASH	32	stimuli_distractor_trianglediamonds.svg	stimuli_distractor_trianglediamonds.svg	33	no	57	0	486	0	0			0	0			1				0	
6.6.1	mac	2023-06-28	09:44:28	09:53:08	516503	616f3c3672c07234d96edc86	4	1	main_slash	11	main_slash	33	stimuli_target_rectanglediamonds.svg	stimuli_distractor_diamondtriangles.svg	6	yes	53	1	368	0	0			0	0			1				0	
6.6.1	mac	2023-06-28	09:44:28	09:53:08	516503	616f3c3672c07234d96edc86	4	1	main_slash	11	advance_on_keypress_SLASH	34	stimuli_target_rectanglediamonds.svg	stimuli_distractor_diamondtriangles.svg	6	yes	57	0	275	0	0			0	0			1				0	
6.6.1	mac	2023-06-28	09:44:28	09:53:09	517913	616f3c3672c07234d96edc86	4	1	main_slash	11	main_slash	35	stimuli_target_diamondsquares.svg	stimuli_distractor_trianglediamonds.svg	20	yes	53	1	514	0	0			0	0			1				0	
6.6.1	mac	2023-06-28	09:44:28	09:53:09	517913	616f3c3672c07234d96edc86	4	1	main_slash	11	advance_on_keypress_SLASH	36	stimuli_target_diamondsquares.svg	stimuli_distractor_trianglediamonds.svg	20	yes	57	0	266	0	0			0	0			1				0	
6.6.1	mac	2023-06-28	09:44:28	09:53:11	519342	616f3c3672c07234d96edc86	4	1	main_slash	11	main_slash	37	stimuli_distractor_trianglediamonds.svg	stimuli_target_trianglerectangles.svg	25	yes	53	1	524	0	0			0	0			1				0	
6.6.1	mac	2023-06-28	09:44:28	09:53:11	519342	616f3c3672c07234d96edc86	4	1	main_slash	11	advance_on_keypress_SLASH	38	stimuli_distractor_trianglediamonds.svg	stimuli_target_trianglerectangles.svg	25	yes	57	0	322	0	0			0	0			1				0	
6.6.1	mac	2023-06-28	09:44:28	09:53:14	522298	616f3c3672c07234d96edc86	4	1	main_slash	11	main_slash	39	stimuli_distractor_diamondtriangles.svg	stimuli_distractor_diamondtriangles.svg	40	no	0	1	2000	0	0			0	0			1				0	
6.6.1	mac	2023-06-28	09:44:28	09:53:14	522298	616f3c3672c07234d96edc86	4	1	main_slash	11	advance_on_keypress_SLASH	40	stimuli_distractor_diamondtriangles.svg	stimuli_distractor_diamondtriangles.svg	40	no	57	0	320	0	0			0	0			1				0	
6.6.1	mac	2023-06-28	09:44:28	09:53:15	523656	616f3c3672c07234d96edc86	4	1	main_slash	11	main_slash	41	stimuli_distractor_trianglediamonds.svg	stimuli_target_rectanglediamonds.svg	10	yes	53	1	406	0	0			0	0			1				0	
6.6.1	mac	2023-06-28	09:44:28	09:53:15	523656	616f3c3672c07234d96edc86	4	1	main_slash	11	advance_on_keypress_SLASH	42	stimuli_distractor_trianglediamonds.svg	stimuli_target_rectanglediamonds.svg	10	yes	57	0	298	0	0			0	0			1				0	
6.6.1	mac	2023-06-28	09:44:28	09:53:16	525135	616f3c3672c07234d96edc86	4	1	main_slash	11	main_slash	43	stimuli_target_squaretriangles.svg	stimuli_distractor_diamondtriangles.svg	7	yes	53	1	552	0	0			0	0			1				0	
6.6.1	mac	2023-06-28	09:44:28	09:53:16	525135	616f3c3672c07234d96edc86	4	1	main_slash	11	advance_on_keypress_SLASH	44	stimuli_target_squaretriangles.svg	stimuli_distractor_diamondtriangles.svg	7	yes	57	0	305	0	0			0	0			1				0	
6.6.1	mac	2023-06-28	09:44:28	09:53:18	526536	616f3c3672c07234d96edc86	4	1	main_slash	11	main_slash	45	stimuli_distractor_diamondtriangles.svg	stimuli_target_rectangletriangles.svg	13	yes	53	1	469	0	0			0	0			1				0	
6.6.1	mac	2023-06-28	09:44:28	09:53:18	526536	616f3c3672c07234d96edc86	4	1	main_slash	11	advance_on_keypress_SLASH	46	stimuli_distractor_diamondtriangles.svg	stimuli_target_rectangletriangles.svg	13	yes	57	0	295	0	0			0	0			1				0	
6.6.1	mac	2023-06-28	09:44:28	09:53:19	528026	616f3c3672c07234d96edc86	4	1	main_slash	11	main_slash	47	stimuli_distractor_diamondtriangles.svg	stimuli_target_diamondrectangles.svg	31	yes	53	1	559	0	0			0	0			1				0	
6.6.1	mac	2023-06-28	09:44:28	09:53:19	528026	616f3c3672c07234d96edc86	4	1	main_slash	11	advance_on_keypress_SLASH	48	stimuli_distractor_diamondtriangles.svg	stimuli_target_diamondrectangles.svg	31	yes	57	0	312	0	0			0	0			1				0	
6.6.1	mac	2023-06-28	09:44:28	09:53:21	529545	616f3c3672c07234d96edc86	4	1	main_slash	11	main_slash	49	stimuli_target_rectangletriangles.svg	stimuli_distractor_trianglediamonds.svg	1	yes	53	1	578	0	0			0	0			1				0	
6.6.1	mac	2023-06-28	09:44:28	09:53:21	529545	616f3c3672c07234d96edc86	4	1	main_slash	11	advance_on_keypress_SLASH	50	stimuli_target_rectangletriangles.svg	stimuli_distractor_trianglediamonds.svg	1	yes	57	0	307	0	0			0	0			1				0	
6.6.1	mac	2023-06-28	09:44:28	09:53:22	530978	616f3c3672c07234d96edc86	4	1	main_slash	11	main_slash	51	stimuli_target_squarediamonds.svg	stimuli_distractor_diamondtriangles.svg	8	yes	53	1	495	0	0			0	0			1				0	
6.6.1	mac	2023-06-28	09:44:28	09:53:22	530978	616f3c3672c07234d96edc86	4	1	main_slash	11	advance_on_keypress_SLASH	52	stimuli_target_squarediamonds.svg	stimuli_distractor_diamondtriangles.svg	8	yes	57	0	342	0	0			0	0			1				0	
6.6.1	mac	2023-06-28	09:44:28	09:53:25	533947	616f3c3672c07234d96edc86	4	1	main_slash	11	main_slash	53	stimuli_distractor_trianglediamonds.svg	stimuli_distractor_diamondtriangles.svg	36	no	0	1	2000	0	0			0	0			1				0	
6.6.1	mac	2023-06-28	09:44:28	09:53:25	533947	616f3c3672c07234d96edc86	4	1	main_slash	11	advance_on_keypress_SLASH	54	stimuli_distractor_trianglediamonds.svg	stimuli_distractor_diamondtriangles.svg	36	no	57	0	287	0	0			0	0			1				0	
6.6.1	mac	2023-06-28	09:44:28	09:53:27	535468	616f3c3672c07234d96edc86	4	1	main_slash	11	main_slash	55	stimuli_target_trianglerectangles.svg	stimuli_distractor_diamondtriangles.svg	21	yes	53	1	601	0	0			0	0			1				0	
6.6.1	mac	2023-06-28	09:44:28	09:53:27	535468	616f3c3672c07234d96edc86	4	1	main_slash	11	advance_on_keypress_SLASH	56	stimuli_target_trianglerectangles.svg	stimuli_distractor_diamondtriangles.svg	21	yes	57	0	307	0	0			0	0			1				0	
6.6.1	mac	2023-06-28	09:44:28	09:53:28	536788	616f3c3672c07234d96edc86	4	1	main_slash	11	main_slash	57	stimuli_target_rectanglediamonds.svg	stimuli_distractor_trianglediamonds.svg	2	yes	53	1	389	0	0			0	0			1				0	
6.6.1	mac	2023-06-28	09:44:28	09:53:28	536788	616f3c3672c07234d96edc86	4	1	main_slash	11	advance_on_keypress_SLASH	58	stimuli_target_rectanglediamonds.svg	stimuli_distractor_trianglediamonds.svg	2	yes	57	0	312	0	0			0	0			1				0	
6.6.1	mac	2023-06-28	09:44:28	09:53:29	538090	616f3c3672c07234d96edc86	4	1	main_slash	11	main_slash	59	stimuli_distractor_trianglediamonds.svg	stimuli_target_squarediamonds.svg	12	yes	53	1	357	0	0			0	0			1				0	
6.6.1	mac	2023-06-28	09:44:28	09:53:29	538090	616f3c3672c07234d96edc86	4	1	main_slash	11	advance_on_keypress_SLASH	60	stimuli_distractor_trianglediamonds.svg	stimuli_target_squarediamonds.svg	12	yes	57	0	403	0	0			0	0			1				0	
6.6.1	mac	2023-06-28	09:44:28	09:53:31	539683	616f3c3672c07234d96edc86	4	1	main_slash	11	main_slash	61	stimuli_target_trianglerectangles.svg	stimuli_distractor_trianglediamonds.svg	17	yes	53	1	566	0	0			0	0			1				0	
6.6.1	mac	2023-06-28	09:44:28	09:53:31	539683	616f3c3672c07234d96edc86	4	1	main_slash	11	advance_on_keypress_SLASH	62	stimuli_target_trianglerectangles.svg	stimuli_distractor_trianglediamonds.svg	17	yes	57	0	285	0	0			0	0			1				0	
6.6.1	mac	2023-06-28	09:44:28	09:53:32	541170	616f3c3672c07234d96edc86	4	1	main_slash	11	main_slash	63	stimuli_distractor_diamondtriangles.svg	stimuli_target_trianglerectangles.svg	29	yes	53	1	572	0	0			0	0			1				0	
6.6.1	mac	2023-06-28	09:44:28	09:53:32	541170	616f3c3672c07234d96edc86	4	1	main_slash	11	advance_on_keypress_SLASH	64	stimuli_distractor_diamondtriangles.svg	stimuli_target_trianglerectangles.svg	29	yes	57	0	262	0	0			0	0			1				0	
6.6.1	mac	2023-06-28	09:44:28	09:53:34	542751	616f3c3672c07234d96edc86	4	1	main_slash	11	main_slash	65	stimuli_distractor_trianglediamonds.svg	stimuli_target_diamondsquares.svg	28	yes	53	1	684	0	0			0	0			1				0	
6.6.1	mac	2023-06-28	09:44:28	09:53:34	542751	616f3c3672c07234d96edc86	4	1	main_slash	11	advance_on_keypress_SLASH	66	stimuli_distractor_trianglediamonds.svg	stimuli_target_diamondsquares.svg	28	yes	57	0	325	0	0			0	0			1				0	
6.6.1	mac	2023-06-28	09:44:28	09:53:37	545698	616f3c3672c07234d96edc86	4	1	main_slash	11	main_slash	67	stimuli_distractor_trianglediamonds.svg	stimuli_distractor_trianglediamonds.svg	34	no	0	1	2000	0	0			0	0			1				0	
6.6.1	mac	2023-06-28	09:44:28	09:53:37	545698	616f3c3672c07234d96edc86	4	1	main_slash	11	advance_on_keypress_SLASH	68	stimuli_distractor_trianglediamonds.svg	stimuli_distractor_trianglediamonds.svg	34	no	57	0	841	0	0			0	0			1				0	
6.6.1	mac	2023-06-28	09:44:28	09:53:39	547676	616f3c3672c07234d96edc86	4	1	main_slash	11	main_slash	69	stimuli_target_diamondsquares.svg	stimuli_distractor_diamondtriangles.svg	24	yes	53	1	509	0	0			0	0			1				0	
6.6.1	mac	2023-06-28	09:44:28	09:53:39	547676	616f3c3672c07234d96edc86	4	1	main_slash	11	advance_on_keypress_SLASH	70	stimuli_target_diamondsquares.svg	stimuli_distractor_diamondtriangles.svg	24	yes	57	0	291	0	0			0	0			1				0	
6.6.1	mac	2023-06-28	09:44:28	09:53:40	549181	616f3c3672c07234d96edc86	4	1	main_slash	11	main_slash	71	stimuli_target_trianglesquares.svg	stimuli_distractor_trianglediamonds.svg	18	yes	53	1	581	0	0			0	0			1				0	
6.6.1	mac	2023-06-28	09:44:28	09:53:40	549181	616f3c3672c07234d96edc86	4	1	main_slash	11	advance_on_keypress_SLASH	72	stimuli_target_trianglesquares.svg	stimuli_distractor_trianglediamonds.svg	18	yes	57	0	318	0	0			0	0			1				0	
6.6.1	mac	2023-06-28	09:44:28	09:53:42	550688	616f3c3672c07234d96edc86	4	1	main_slash	11	main_slash	73	stimuli_distractor_trianglediamonds.svg	stimuli_target_rectangletriangles.svg	9	yes	53	1	555	0	0			0	0			1				0	
6.6.1	mac	2023-06-28	09:44:28	09:53:42	550688	616f3c3672c07234d96edc86	4	1	main_slash	11	advance_on_keypress_SLASH	74	stimuli_distractor_trianglediamonds.svg	stimuli_target_rectangletriangles.svg	9	yes	57	0	263	0	0			0	0			1				0	
6.6.1	mac	2023-06-28	09:44:28	09:53:43	552090	616f3c3672c07234d96edc86	4	1	main_slash	11	main_slash	75	stimuli_distractor_trianglediamonds.svg	stimuli_target_trianglesquares.svg	26	yes	53	1	507	0	0			0	0			1				0	
6.6.1	mac	2023-06-28	09:44:28	09:53:43	552090	616f3c3672c07234d96edc86	4	1	main_slash	11	advance_on_keypress_SLASH	76	stimuli_distractor_trianglediamonds.svg	stimuli_target_trianglesquares.svg	26	yes	57	0	301	0	0			0	0			1				0	
6.6.1	mac	2023-06-28	09:44:28	09:53:45	553576	616f3c3672c07234d96edc86	4	1	main_slash	11	main_slash	77	stimuli_distractor_diamondtriangles.svg	stimuli_target_squaretriangles.svg	15	yes	53	1	559	0	0			0	0			1				0	
6.6.1	mac	2023-06-28	09:44:28	09:53:45	553576	616f3c3672c07234d96edc86	4	1	main_slash	11	advance_on_keypress_SLASH	78	stimuli_distractor_diamondtriangles.svg	stimuli_target_squaretriangles.svg	15	yes	57	0	296	0	0			0	0			1				0	
6.6.1	mac	2023-06-28	09:44:28	09:53:46	555003	616f3c3672c07234d96edc86	4	1	main_slash	11	main_slash	79	stimuli_distractor_diamondtriangles.svg	stimuli_target_diamondsquares.svg	32	yes	53	1	503	0	0			0	0			1				0	
6.6.1	mac	2023-06-28	09:44:28	09:53:46	555003	616f3c3672c07234d96edc86	4	1	main_slash	11	advance_on_keypress_SLASH	80	stimuli_distractor_diamondtriangles.svg	stimuli_target_diamondsquares.svg	32	yes	57	0	294	0	0			0	0			1				0	
6.6.1	mac	2023-06-28	09:44:28	09:53:48	556518	616f3c3672c07234d96edc86	4	1	main_slash	11	main_slash	81	stimuli_distractor_diamondtriangles.svg	stimuli_target_trianglerectangles.svg	29	yes	53	1	601	0	0			0	0			1				0	
6.6.1	mac	2023-06-28	09:44:28	09:53:48	556518	616f3c3672c07234d96edc86	4	1	main_slash	11	advance_on_keypress_SLASH	82	stimuli_distractor_diamondtriangles.svg	stimuli_target_trianglerectangles.svg	29	yes	57	0	344	0	0			0	0			1				0	
6.6.1	mac	2023-06-28	09:44:28	09:53:51	559480	616f3c3672c07234d96edc86	4	1	main_slash	11	main_slash	83	stimuli_distractor_trianglediamonds.svg	stimuli_distractor_diamondtriangles.svg	36	no	0	1	2000	0	0			0	0			1				0	
6.6.1	mac	2023-06-28	09:44:28	09:53:51	559480	616f3c3672c07234d96edc86	4	1	main_slash	11	advance_on_keypress_SLASH	84	stimuli_distractor_trianglediamonds.svg	stimuli_distractor_diamondtriangles.svg	36	no	57	0	544	0	0			0	0			1				0	
6.6.1	mac	2023-06-28	09:44:28	09:53:52	561123	616f3c3672c07234d96edc86	4	1	main_slash	11	main_slash	85	stimuli_distractor_trianglediamonds.svg	stimuli_target_squaretriangles.svg	11	yes	53	1	473	0	0			0	0			1				0	
6.6.1	mac	2023-06-28	09:44:28	09:53:52	561123	616f3c3672c07234d96edc86	4	1	main_slash	11	advance_on_keypress_SLASH	86	stimuli_distractor_trianglediamonds.svg	stimuli_target_squaretriangles.svg	11	yes	57	0	374	0	0			0	0			1				0	
6.6.1	mac	2023-06-28	09:44:28	09:53:54	562587	616f3c3672c07234d96edc86	4	1	main_slash	11	main_slash	87	stimuli_distractor_diamondtriangles.svg	stimuli_target_rectangletriangles.svg	13	yes	53	1	470	0	0			0	0			1				0	
6.6.1	mac	2023-06-28	09:44:28	09:53:54	562587	616f3c3672c07234d96edc86	4	1	main_slash	11	advance_on_keypress_SLASH	88	stimuli_distractor_diamondtriangles.svg	stimuli_target_rectangletriangles.svg	13	yes	57	0	275	0	0			0	0			1				0	
6.6.1	mac	2023-06-28	09:44:28	09:53:55	563978	616f3c3672c07234d96edc86	4	1	main_slash	11	main_slash	89	stimuli_target_trianglesquares.svg	stimuli_distractor_trianglediamonds.svg	18	yes	53	1	495	0	0			0	0			1				0	
6.6.1	mac	2023-06-28	09:44:28	09:53:55	563978	616f3c3672c07234d96edc86	4	1	main_slash	11	advance_on_keypress_SLASH	90	stimuli_target_trianglesquares.svg	stimuli_distractor_trianglediamonds.svg	18	yes	57	0	217	0	0			0	0			1				0	
6.6.1	mac	2023-06-28	09:44:28	09:53:58	566831	616f3c3672c07234d96edc86	4	1	main_slash	11	main_slash	91	stimuli_distractor_trianglediamonds.svg	stimuli_distractor_trianglediamonds.svg	33	no	0	1	2000	0	0			0	0			1				0	
6.6.1	mac	2023-06-28	09:44:28	09:53:58	566831	616f3c3672c07234d96edc86	4	1	main_slash	11	advance_on_keypress_SLASH	92	stimuli_distractor_trianglediamonds.svg	stimuli_distractor_trianglediamonds.svg	33	no	57	0	256	0	0			0	0			1				0	
6.6.1	mac	2023-06-28	09:44:28	09:54:00	568296	616f3c3672c07234d96edc86	4	1	main_slash	11	main_slash	93	stimuli_distractor_trianglediamonds.svg	stimuli_target_trianglerectangles.svg	25	yes	53	1	579	0	0			0	0			1				0	
6.6.1	mac	2023-06-28	09:44:28	09:54:00	568296	616f3c3672c07234d96edc86	4	1	main_slash	11	advance_on_keypress_SLASH	94	stimuli_distractor_trianglediamonds.svg	stimuli_target_trianglerectangles.svg	25	yes	57	0	250	0	0			0	0			1				0	
6.6.1	mac	2023-06-28	09:44:28	09:54:01	569685	616f3c3672c07234d96edc86	4	1	main_slash	11	main_slash	95	stimuli_distractor_trianglediamonds.svg	stimuli_target_squarediamonds.svg	12	yes	53	1	502	0	0			0	0			1				0	
6.6.1	mac	2023-06-28	09:44:28	09:54:01	569685	616f3c3672c07234d96edc86	4	1	main_slash	11	advance_on_keypress_SLASH	96	stimuli_distractor_trianglediamonds.svg	stimuli_target_squarediamonds.svg	12	yes	57	0	229	0	0			0	0			1				0	
6.6.1	mac	2023-06-28	09:44:28	09:54:02	571082	616f3c3672c07234d96edc86	4	1	main_slash	11	main_slash	97	stimuli_target_squaretriangles.svg	stimuli_distractor_trianglediamonds.svg	3	yes	53	1	533	0	0			0	0			1				0	
6.6.1	mac	2023-06-28	09:44:28	09:54:02	571082	616f3c3672c07234d96edc86	4	1	main_slash	11	advance_on_keypress_SLASH	98	stimuli_target_squaretriangles.svg	stimuli_distractor_trianglediamonds.svg	3	yes	57	0	332	0	0			0	0			1				0	
6.6.1	mac	2023-06-28	09:44:28	09:54:04	572684	616f3c3672c07234d96edc86	4	1	main_slash	11	main_slash	99	stimuli_target_rectanglediamonds.svg	stimuli_distractor_trianglediamonds.svg	2	yes	53	1	634	0	0			0	0			1				0	
6.6.1	mac	2023-06-28	09:44:28	09:54:04	572684	616f3c3672c07234d96edc86	4	1	main_slash	11	advance_on_keypress_SLASH	100	stimuli_target_rectanglediamonds.svg	stimuli_distractor_trianglediamonds.svg	2	yes	57	0	192	0	0			0	0			1				0	
6.6.1	mac	2023-06-28	09:44:28	09:54:05	573926	616f3c3672c07234d96edc86	4	1	main_slash	11	main_slash	101	stimuli_distractor_diamondtriangles.svg	stimuli_target_trianglesquares.svg	30	yes	53	1	426	0	0			0	0			1				0	
6.6.1	mac	2023-06-28	09:44:28	09:54:05	573926	616f3c3672c07234d96edc86	4	1	main_slash	11	advance_on_keypress_SLASH	102	stimuli_distractor_diamondtriangles.svg	stimuli_target_trianglesquares.svg	30	yes	57	0	238	0	0			0	0			1				0	
6.6.1	mac	2023-06-28	09:44:28	09:54:08	576798	616f3c3672c07234d96edc86	4	1	main_slash	11	main_slash	103	stimuli_distractor_diamondtriangles.svg	stimuli_distractor_trianglediamonds.svg	37	no	0	1	2000	0	0			0	0			1				0	
6.6.1	mac	2023-06-28	09:44:28	09:54:08	576798	616f3c3672c07234d96edc86	4	1	main_slash	11	advance_on_keypress_SLASH	104	stimuli_distractor_diamondtriangles.svg	stimuli_distractor_trianglediamonds.svg	37	no	57	0	621	0	0			0	0			1				0	
6.6.1	mac	2023-06-28	09:44:28	09:54:10	578672	616f3c3672c07234d96edc86	4	1	main_slash	11	main_slash	105	stimuli_distractor_trianglediamonds.svg	stimuli_target_diamondsquares.svg	28	yes	53	1	622	0	0			0	0			1				0	
6.6.1	mac	2023-06-28	09:44:28	09:54:10	578672	616f3c3672c07234d96edc86	4	1	main_slash	11	advance_on_keypress_SLASH	106	stimuli_distractor_trianglediamonds.svg	stimuli_target_diamondsquares.svg	28	yes	57	0	207	0	0			0	0			1				0	
6.6.1	mac	2023-06-28	09:44:28	09:54:13	581497	616f3c3672c07234d96edc86	4	1	main_slash	11	main_slash	107	stimuli_distractor_diamondtriangles.svg	stimuli_distractor_diamondtriangles.svg	40	no	0	1	2000	0	0			0	0			1				0	
6.6.1	mac	2023-06-28	09:44:28	09:54:13	581497	616f3c3672c07234d96edc86	4	1	main_slash	11	advance_on_keypress_SLASH	108	stimuli_distractor_diamondtriangles.svg	stimuli_distractor_diamondtriangles.svg	40	no	57	0	316	0	0			0	0			1				0	
6.6.1	mac	2023-06-28	09:44:28	09:54:14	582876	616f3c3672c07234d96edc86	4	1	main_slash	11	main_slash	109	stimuli_target_rectangletriangles.svg	stimuli_distractor_trianglediamonds.svg	1	yes	53	1	427	0	0			0	0			1				0	
6.6.1	mac	2023-06-28	09:44:28	09:54:14	582876	616f3c3672c07234d96edc86	4	1	main_slash	11	advance_on_keypress_SLASH	110	stimuli_target_rectangletriangles.svg	stimuli_distractor_trianglediamonds.svg	1	yes	57	0	208	0	0			0	0			1				0	
6.6.1	mac	2023-06-28	09:44:28	09:54:15	584206	616f3c3672c07234d96edc86	4	1	main_slash	11	main_slash	111	stimuli_target_diamondsquares.svg	stimuli_distractor_diamondtriangles.svg	24	yes	53	1	489	0	0			0	0			1				0	
6.6.1	mac	2023-06-28	09:44:28	09:54:15	584206	616f3c3672c07234d96edc86	4	1	main_slash	11	advance_on_keypress_SLASH	112	stimuli_target_diamondsquares.svg	stimuli_distractor_diamondtriangles.svg	24	yes	57	0	189	0	0			0	0			1				0	
6.6.1	mac	2023-06-28	09:44:28	09:54:17	585472	616f3c3672c07234d96edc86	4	1	main_slash	11	main_slash	113	stimuli_target_trianglerectangles.svg	stimuli_distractor_trianglediamonds.svg	17	yes	53	1	455	0	0			0	0			1				0	
6.6.1	mac	2023-06-28	09:44:28	09:54:17	585472	616f3c3672c07234d96edc86	4	1	main_slash	11	advance_on_keypress_SLASH	114	stimuli_target_trianglerectangles.svg	stimuli_distractor_trianglediamonds.svg	17	yes	57	0	186	0	0			0	0			1				0	
6.6.1	mac	2023-06-28	09:44:28	09:54:18	586744	616f3c3672c07234d96edc86	4	1	main_slash	11	main_slash	115	stimuli_target_trianglerectangles.svg	stimuli_distractor_diamondtriangles.svg	21	yes	53	1	462	0	0			0	0			1				0	
6.6.1	mac	2023-06-28	09:44:28	09:54:18	586744	616f3c3672c07234d96edc86	4	1	main_slash	11	advance_on_keypress_SLASH	116	stimuli_target_trianglerectangles.svg	stimuli_distractor_diamondtriangles.svg	21	yes	57	0	165	0	0			0	0			1				0	
6.6.1	mac	2023-06-28	09:44:28	09:54:19	588199	616f3c3672c07234d96edc86	4	1	main_slash	11	main_slash	117	stimuli_distractor_trianglediamonds.svg	stimuli_target_trianglesquares.svg	26	yes	53	1	650	0	0			0	0			1				0	
6.6.1	mac	2023-06-28	09:44:28	09:54:19	588199	616f3c3672c07234d96edc86	4	1	main_slash	11	advance_on_keypress_SLASH	118	stimuli_distractor_trianglediamonds.svg	stimuli_target_trianglesquares.svg	26	yes	57	0	155	0	0			0	0			1				0	
6.6.1	mac	2023-06-28	09:44:28	09:54:21	589493	616f3c3672c07234d96edc86	4	1	main_slash	11	main_slash	119	stimuli_target_squarediamonds.svg	stimuli_distractor_diamondtriangles.svg	8	yes	53	1	510	0	0			0	0			1				0	
6.6.1	mac	2023-06-28	09:44:28	09:54:21	589493	616f3c3672c07234d96edc86	4	1	main_slash	11	advance_on_keypress_SLASH	120	stimuli_target_squarediamonds.svg	stimuli_distractor_diamondtriangles.svg	8	yes	57	0	212	0	0			0	0			1				0	
6.6.1	mac	2023-06-28	09:44:28	09:54:24	592347	616f3c3672c07234d96edc86	4	1	main_slash	11	main_slash	121	stimuli_distractor_trianglediamonds.svg	stimuli_distractor_diamondtriangles.svg	35	no	0	1	2000	0	0			0	0			1				0	
6.6.1	mac	2023-06-28	09:44:28	09:54:24	592347	616f3c3672c07234d96edc86	4	1	main_slash	11	advance_on_keypress_SLASH	122	stimuli_distractor_trianglediamonds.svg	stimuli_distractor_diamondtriangles.svg	35	no	57	0	688	0	0			0	0			1				0	
6.6.1	mac	2023-06-28	09:44:28	09:54:25	594093	616f3c3672c07234d96edc86	4	1	main_slash	11	main_slash	123	stimuli_distractor_diamondtriangles.svg	stimuli_target_squaretriangles.svg	15	yes	53	1	427	0	0			0	0			1				0	
6.6.1	mac	2023-06-28	09:44:28	09:54:25	594093	616f3c3672c07234d96edc86	4	1	main_slash	11	advance_on_keypress_SLASH	124	stimuli_distractor_diamondtriangles.svg	stimuli_target_squaretriangles.svg	15	yes	57	0	223	0	0			0	0			1				0	
6.6.1	mac	2023-06-28	09:44:28	09:54:27	595362	616f3c3672c07234d96edc86	4	1	main_slash	11	main_slash	125	stimuli_target_squarediamonds.svg	stimuli_distractor_trianglediamonds.svg	4	yes	53	1	412	0	0			0	0			1				0	
6.6.1	mac	2023-06-28	09:44:28	09:54:27	595362	616f3c3672c07234d96edc86	4	1	main_slash	11	advance_on_keypress_SLASH	126	stimuli_target_squarediamonds.svg	stimuli_distractor_trianglediamonds.svg	4	yes	57	0	218	0	0			0	0			1				0	
6.6.1	mac	2023-06-28	09:44:28	09:54:28	596752	616f3c3672c07234d96edc86	4	1	main_slash	11	main_slash	127	stimuli_target_squaretriangles.svg	stimuli_distractor_diamondtriangles.svg	7	yes	53	1	537	0	0			0	0			1				0	
6.6.1	mac	2023-06-28	09:44:28	09:54:28	596752	616f3c3672c07234d96edc86	4	1	main_slash	11	advance_on_keypress_SLASH	128	stimuli_target_squaretriangles.svg	stimuli_distractor_diamondtriangles.svg	7	yes	57	0	221	0	0			0	0			1				0	
6.6.1	mac	2023-06-28	09:44:28	09:54:29	598147	616f3c3672c07234d96edc86	4	1	main_slash	11	main_slash	129	stimuli_target_trianglesquares.svg	stimuli_distractor_diamondtriangles.svg	22	yes	53	1	547	0	0			0	0			1				0	
6.6.1	mac	2023-06-28	09:44:28	09:54:29	598147	616f3c3672c07234d96edc86	4	1	main_slash	11	advance_on_keypress_SLASH	130	stimuli_target_trianglesquares.svg	stimuli_distractor_diamondtriangles.svg	22	yes	57	0	212	0	0			0	0			1				0	
6.6.1	mac	2023-06-28	09:44:28	09:54:31	599308	616f3c3672c07234d96edc86	4	1	main_slash	11	main_slash	131	stimuli_distractor_trianglediamonds.svg	stimuli_target_rectanglediamonds.svg	10	yes	53	1	308	0	0			0	0			1				0	
6.6.1	mac	2023-06-28	09:44:28	09:54:31	599308	616f3c3672c07234d96edc86	4	1	main_slash	11	advance_on_keypress_SLASH	132	stimuli_distractor_trianglediamonds.svg	stimuli_target_rectanglediamonds.svg	10	yes	57	0	240	0	0			0	0			1				0	
6.6.1	mac	2023-06-28	09:44:28	09:54:32	600673	616f3c3672c07234d96edc86	4	1	main_slash	11	main_slash	133	stimuli_target_diamondrectangles.svg	stimuli_distractor_trianglediamonds.svg	19	yes	53	1	506	0	0			0	0			1				0	
6.6.1	mac	2023-06-28	09:44:28	09:54:32	600673	616f3c3672c07234d96edc86	4	1	main_slash	11	advance_on_keypress_SLASH	134	stimuli_target_diamondrectangles.svg	stimuli_distractor_trianglediamonds.svg	19	yes	57	0	163	0	0			0	0			1				0	
6.6.1	mac	2023-06-28	09:44:28	09:54:33	601930	616f3c3672c07234d96edc86	4	1	main_slash	11	main_slash	135	stimuli_distractor_diamondtriangles.svg	stimuli_target_squarediamonds.svg	16	yes	53	1	463	0	0			0	0			1				0	
6.6.1	mac	2023-06-28	09:44:28	09:54:33	601930	616f3c3672c07234d96edc86	4	1	main_slash	11	advance_on_keypress_SLASH	136	stimuli_distractor_diamondtriangles.svg	stimuli_target_squarediamonds.svg	16	yes	57	0	834	0	0			0	0			1				0	
6.6.1	mac	2023-06-28	09:44:28	09:54:37	605397	616f3c3672c07234d96edc86	4	1	main_slash	11	main_slash	137	stimuli_distractor_trianglediamonds.svg	stimuli_distractor_trianglediamonds.svg	34	no	0	1	2000	0	0			0	0			1				0	
6.6.1	mac	2023-06-28	09:44:28	09:54:37	605397	616f3c3672c07234d96edc86	4	1	main_slash	11	advance_on_keypress_SLASH	138	stimuli_distractor_trianglediamonds.svg	stimuli_distractor_trianglediamonds.svg	34	no	57	0	616	0	0			0	0			1				0	
6.6.1	mac	2023-06-28	09:44:28	09:54:40	608647	616f3c3672c07234d96edc86	4	1	main_slash	11	main_slash	139	stimuli_distractor_diamondtriangles.svg	stimuli_distractor_diamondtriangles.svg	39	no	0	1	2000	0	0			0	0			1				0	
6.6.1	mac	2023-06-28	09:44:28	09:54:40	608647	616f3c3672c07234d96edc86	4	1	main_slash	11	advance_on_keypress_SLASH	140	stimuli_distractor_diamondtriangles.svg	stimuli_distractor_diamondtriangles.svg	39	no	57	0	259	0	0			0	0			1				0	
6.6.1	mac	2023-06-28	09:44:28	09:54:41	610042	616f3c3672c07234d96edc86	4	1	main_slash	11	main_slash	141	stimuli_distractor_trianglediamonds.svg	stimuli_target_diamondrectangles.svg	27	yes	53	1	493	0	0			0	0			1				0	
6.6.1	mac	2023-06-28	09:44:28	09:54:41	610042	616f3c3672c07234d96edc86	4	1	main_slash	11	advance_on_keypress_SLASH	142	stimuli_distractor_trianglediamonds.svg	stimuli_target_diamondrectangles.svg	27	yes	57	0	255	0	0			0	0			1				0	
6.6.1	mac	2023-06-28	09:44:28	09:54:43	611573	616f3c3672c07234d96edc86	4	1	main_slash	11	main_slash	143	stimuli_distractor_diamondtriangles.svg	stimuli_distractor_trianglediamonds.svg	38	no	53	0	656	0	0			0	0			1				0	
6.6.1	mac	2023-06-28	09:44:28	09:54:43	611573	616f3c3672c07234d96edc86	4	1	main_slash	11	advance_on_keypress_SLASH	144	stimuli_distractor_diamondtriangles.svg	stimuli_distractor_trianglediamonds.svg	38	no	57	0	265	0	0			0	0			1				0	
6.6.1	mac	2023-06-28	09:44:28	09:54:44	613071	616f3c3672c07234d96edc86	4	1	main_slash	11	main_slash	145	stimuli_target_diamondrectangles.svg	stimuli_distractor_diamondtriangles.svg	23	yes	53	1	604	0	0			0	0			1				0	
6.6.1	mac	2023-06-28	09:44:28	09:54:44	613071	616f3c3672c07234d96edc86	4	1	main_slash	11	advance_on_keypress_SLASH	146	stimuli_target_diamondrectangles.svg	stimuli_distractor_diamondtriangles.svg	23	yes	57	0	180	0	0			0	0			1				0	
6.6.1	mac	2023-06-28	09:44:28	09:54:46	614632	616f3c3672c07234d96edc86	4	1	main_slash	11	main_slash	147	stimuli_distractor_diamondtriangles.svg	stimuli_target_rectanglediamonds.svg	14	yes	53	1	749	0	0			0	0			1				0	
6.6.1	mac	2023-06-28	09:44:28	09:54:46	614632	616f3c3672c07234d96edc86	4	1	main_slash	11	advance_on_keypress_SLASH	148	stimuli_distractor_diamondtriangles.svg	stimuli_target_rectanglediamonds.svg	14	yes	57	0	262	0	0			0	0			1				0	
6.6.1	mac	2023-06-28	09:44:28	09:54:47	616158	616f3c3672c07234d96edc86	4	1	main_slash	11	main_slash	149	stimuli_target_rectanglediamonds.svg	stimuli_distractor_diamondtriangles.svg	6	yes	53	1	625	0	0			0	0			1				0	
6.6.1	mac	2023-06-28	09:44:28	09:54:47	616158	616f3c3672c07234d96edc86	4	1	main_slash	11	advance_on_keypress_SLASH	150	stimuli_target_rectanglediamonds.svg	stimuli_distractor_diamondtriangles.svg	6	yes	57	0	167	0	0			0	0			1				0	
6.6.1	mac	2023-06-28	09:44:28	09:54:49	617538	616f3c3672c07234d96edc86	4	1	main_slash	11	main_slash	151	stimuli_target_diamondsquares.svg	stimuli_distractor_trianglediamonds.svg	20	yes	53	1	588	0	0			0	0			1				0	
6.6.1	mac	2023-06-28	09:44:28	09:54:49	617538	616f3c3672c07234d96edc86	4	1	main_slash	11	advance_on_keypress_SLASH	152	stimuli_target_diamondsquares.svg	stimuli_distractor_trianglediamonds.svg	20	yes	57	0	212	0	0			0	0			1				0	
6.6.1	mac	2023-06-28	09:44:28	09:54:50	619084	616f3c3672c07234d96edc86	4	1	main_slash	11	main_slash	153	stimuli_distractor_trianglediamonds.svg	stimuli_target_rectangletriangles.svg	9	yes	53	1	701	0	0			0	0			1				0	
6.6.1	mac	2023-06-28	09:44:28	09:54:50	619084	616f3c3672c07234d96edc86	4	1	main_slash	11	advance_on_keypress_SLASH	154	stimuli_distractor_trianglediamonds.svg	stimuli_target_rectangletriangles.svg	9	yes	57	0	211	0	0			0	0			1				0	
6.6.1	mac	2023-06-28	09:44:28	09:54:52	620579	616f3c3672c07234d96edc86	4	1	main_slash	11	main_slash	155	stimuli_distractor_diamondtriangles.svg	stimuli_target_diamondsquares.svg	32	yes	53	1	646	0	0			0	0			1				0	
6.6.1	mac	2023-06-28	09:44:28	09:54:52	620579	616f3c3672c07234d96edc86	4	1	main_slash	11	advance_on_keypress_SLASH	156	stimuli_distractor_diamondtriangles.svg	stimuli_target_diamondsquares.svg	32	yes	57	0	190	0	0			0	0			1				0	
6.6.1	mac	2023-06-28	09:44:28	09:54:53	621995	616f3c3672c07234d96edc86	4	1	main_slash	11	main_slash	157	stimuli_target_rectangletriangles.svg	stimuli_distractor_diamondtriangles.svg	5	yes	53	1	595	0	0			0	0			1				0	
6.6.1	mac	2023-06-28	09:44:28	09:54:53	621995	616f3c3672c07234d96edc86	4	1	main_slash	11	advance_on_keypress_SLASH	158	stimuli_target_rectangletriangles.svg	stimuli_distractor_diamondtriangles.svg	5	yes	57	0	162	0	0			0	0			1				0	
6.6.1	mac	2023-06-28	09:44:28	09:54:55	623385	616f3c3672c07234d96edc86	4	1	main_slash	11	main_slash	159	stimuli_distractor_diamondtriangles.svg	stimuli_target_diamondrectangles.svg	31	yes	53	1	585	0	0			0	0			1				0	
6.6.1	mac	2023-06-28	09:44:28	09:54:55	623385	616f3c3672c07234d96edc86	4	1	main_slash	11	advance_on_keypress_SLASH	160	stimuli_distractor_diamondtriangles.svg	stimuli_target_diamondrectangles.svg	31	yes	57	0	172	0	0			0	0			1				0	
6.6.1	mac	2023-06-28	09:44:28	09:54:55	623385	616f3c3672c07234d96edc86	4	1	headphonecheck_calibration	14	headphonecheck_calibrationIntro	1	stimuli_distractor_diamondtriangles.svg	stimuli_target_diamondrectangles.svg	31	yes	calibrationButton	0	4315	0	0			0	0			1				0	
6.6.1	mac	2023-06-28	09:44:28	09:54:55	623385	616f3c3672c07234d96edc86	4	1	headphonecheck_testphase	15	test_collectResponse	3	stimuli_distractor_diamondtriangles.svg	stimuli_target_diamondrectangles.svg	31	yes	second	0	8831	1	2	antiphase_hc_ios.wav	3	0	0			1				0	
6.6.1	mac	2023-06-28	09:44:28	09:54:55	623385	616f3c3672c07234d96edc86	4	1	headphonecheck_testphase	15	test_collectResponse	6	stimuli_distractor_diamondtriangles.svg	stimuli_target_diamondrectangles.svg	31	yes	first	0	1748	2	5	antiphase_hc_osi.wav	2	0	0			1				0	
6.6.1	mac	2023-06-28	09:44:28	09:54:55	623385	616f3c3672c07234d96edc86	4	1	headphonecheck_testphase	15	test_collectResponse	9	stimuli_distractor_diamondtriangles.svg	stimuli_target_diamondrectangles.svg	31	yes	second	1	983	3	1	antiphase_hc_iso.wav	2	0	0			1				0	
6.6.1	mac	2023-06-28	09:44:28	09:54:55	623385	616f3c3672c07234d96edc86	4	1	headphonecheck_testphase	15	test_collectResponse	12	stimuli_distractor_diamondtriangles.svg	stimuli_target_diamondrectangles.svg	31	yes	first	1	799	4	4	antiphase_hc_sio.wav	1	0	0			1				0	
6.6.1	mac	2023-06-28	09:44:28	09:54:55	623385	616f3c3672c07234d96edc86	4	1	headphonecheck_testphase	15	test_collectResponse	15	stimuli_distractor_diamondtriangles.svg	stimuli_target_diamondrectangles.svg	31	yes	first	1	583	5	3	antiphase_hc_soi.wav	1	0	0			1				0	
6.6.1	mac	2023-06-28	09:44:28	09:54:55	623385	616f3c3672c07234d96edc86	4	1	headphonecheck_testphase	15	test_collectResponse	18	stimuli_distractor_diamondtriangles.svg	stimuli_target_diamondrectangles.svg	31	yes	third	1	398	6	6	antiphase_hc_ois.wav	3	0	0			1				0	
6.6.1	mac	2023-06-28	09:44:28	09:54:55	623385	616f3c3672c07234d96edc86	4	1	stereocheck_calibration	17	stereocheck_calibrationIntro	1	stimuli_distractor_diamondtriangles.svg	stimuli_target_diamondrectangles.svg	31	yes	stereocheck_calibrationButton	0	4232	6	6	antiphase_hc_ois.wav	3	0	0			1				0	
6.6.1	mac	2023-06-28	09:44:28	09:54:55	623385	616f3c3672c07234d96edc86	4	1	stereocheck_testphase	18	stereocheck_test_collectResponse	3	stimuli_distractor_diamondtriangles.svg	stimuli_target_diamondrectangles.svg	31	yes	stereocheck_left	1	883	6	6	antiphase_hc_ois.wav	3	1	1	noise_calib_stim_LEFT.wav	1	1				0	
6.6.1	mac	2023-06-28	09:44:28	09:54:55	623385	616f3c3672c07234d96edc86	4	1	stereocheck_testphase	18	stereocheck_test_collectResponse	6	stimuli_distractor_diamondtriangles.svg	stimuli_target_diamondrectangles.svg	31	yes	stereocheck_right	1	383	6	6	antiphase_hc_ois.wav	3	2	4	noise_calib_stim_RIGHT.wav	2	1				0	
6.6.1	mac	2023-06-28	09:44:28	09:54:55	623385	616f3c3672c07234d96edc86	4	1	stereocheck_testphase	18	stereocheck_test_collectResponse	9	stimuli_distractor_diamondtriangles.svg	stimuli_target_diamondrectangles.svg	31	yes	stereocheck_left	1	264	6	6	antiphase_hc_ois.wav	3	3	3	noise_calib_stim_LEFT.wav	1	1				0	
6.6.1	mac	2023-06-28	09:44:28	09:54:55	623385	616f3c3672c07234d96edc86	4	1	stereocheck_testphase	18	stereocheck_test_collectResponse	12	stimuli_distractor_diamondtriangles.svg	stimuli_target_diamondrectangles.svg	31	yes	stereocheck_right	1	251	6	6	antiphase_hc_ois.wav	3	4	6	noise_calib_stim_RIGHT.wav	2	1				0	
6.6.1	mac	2023-06-28	09:44:28	09:54:55	623385	616f3c3672c07234d96edc86	4	1	stereocheck_testphase	18	stereocheck_test_collectResponse	15	stimuli_distractor_diamondtriangles.svg	stimuli_target_diamondrectangles.svg	31	yes	stereocheck_right	1	231	6	6	antiphase_hc_ois.wav	3	5	5	noise_calib_stim_RIGHT.wav	2	1				0	
6.6.1	mac	2023-06-28	09:44:28	09:54:55	623385	616f3c3672c07234d96edc86	4	1	stereocheck_testphase	18	stereocheck_test_collectResponse	18	stimuli_distractor_diamondtriangles.svg	stimuli_target_diamondrectangles.svg	31	yes	stereocheck_left	1	182	6	6	antiphase_hc_ois.wav	3	6	2	noise_calib_stim_LEFT.wav	1	1				0	
6.6.1	mac	2023-06-28	09:44:28	09:54:55	623385	616f3c3672c07234d96edc86	4	1	DL_practice	21	DL_practice	2	stimuli_distractor_diamondtriangles.svg	stimuli_target_diamondrectangles.svg	31	yes	ga	1	1055	6	6	antiphase_hc_ois.wav	3	6	2	noise_calib_stim_LEFT.wav	1	18	blb_dichoticlistening_ga-ta.mp3	ga	ta	1	left
6.6.1	mac	2023-06-28	09:44:28	09:54:55	623385	616f3c3672c07234d96edc86	4	1	DL_practice	21	DL_practice	3	stimuli_distractor_diamondtriangles.svg	stimuli_target_diamondrectangles.svg	31	yes	ga	1	822	6	6	antiphase_hc_ois.wav	3	6	2	noise_calib_stim_LEFT.wav	1	15	blb_dichoticlistening_ga-ga.mp3	ga	ga	0	left
6.6.1	mac	2023-06-28	09:44:28	09:54:55	623385	616f3c3672c07234d96edc86	4	1	DL_practice	21	DL_practice	4	stimuli_distractor_diamondtriangles.svg	stimuli_target_diamondrectangles.svg	31	yes	ta	1	1288	6	6	antiphase_hc_ois.wav	3	6	2	noise_calib_stim_LEFT.wav	1	36	blb_dichoticlistening_ta-ta.mp3	ta	ta	0	left
6.6.1	mac	2023-06-28	09:44:28	09:54:55	623385	616f3c3672c07234d96edc86	4	1	DL_practice	21	DL_practice	5	stimuli_distractor_diamondtriangles.svg	stimuli_target_diamondrectangles.svg	31	yes	ka	1	1005	6	6	antiphase_hc_ois.wav	3	6	2	noise_calib_stim_LEFT.wav	1	22	blb_dichoticlistening_ka-ka.mp3	ka	ka	0	left
6.6.1	mac	2023-06-28	09:44:28	09:54:55	623385	616f3c3672c07234d96edc86	4	1	DL_practice	21	DL_practice	6	stimuli_distractor_diamondtriangles.svg	stimuli_target_diamondrectangles.svg	31	yes	pa	1	1105	6	6	antiphase_hc_ois.wav	3	6	2	noise_calib_stim_LEFT.wav	1	29	blb_dichoticlistening_pa-pa.mp3	pa	pa	0	left
6.6.1	mac	2023-06-28	09:44:28	09:54:55	623385	616f3c3672c07234d96edc86	4	1	DL_practice	21	DL_practice	7	stimuli_distractor_diamondtriangles.svg	stimuli_target_diamondrectangles.svg	31	yes	ba	1	1072	6	6	antiphase_hc_ois.wav	3	6	2	noise_calib_stim_LEFT.wav	1	1	blb_dichoticlistening_ba-ba.mp3	ba	ba	0	left
6.6.1	mac	2023-06-28	09:44:28	09:54:55	623385	616f3c3672c07234d96edc86	4	1	DL_practice	21	DL_practice	8	stimuli_distractor_diamondtriangles.svg	stimuli_target_diamondrectangles.svg	31	yes	ba	1	938	6	6	antiphase_hc_ois.wav	3	6	2	noise_calib_stim_LEFT.wav	1	7	blb_dichoticlistening_da-ba.mp3	da	ba	1	right
6.6.1	mac	2023-06-28	09:44:28	09:54:55	623385	616f3c3672c07234d96edc86	4	1	DL_practice	21	DL_practice	9	stimuli_distractor_diamondtriangles.svg	stimuli_target_diamondrectangles.svg	31	yes	da	1	2622	6	6	antiphase_hc_ois.wav	3	6	2	noise_calib_stim_LEFT.wav	1	8	blb_dichoticlistening_da-da.mp3	da	da	0	left
6.6.1	mac	2023-06-28	09:44:28	09:54:55	623385	616f3c3672c07234d96edc86	4	1	DL_practice	21	DL_practice	10	stimuli_distractor_diamondtriangles.svg	stimuli_target_diamondrectangles.svg	31	yes	ka	1	1072	6	6	antiphase_hc_ois.wav	3	6	2	noise_calib_stim_LEFT.wav	1	23	blb_dichoticlistening_ka-pa.mp3	ka	pa	1	left
6.6.1	mac	2023-06-28	09:44:28	09:54:55	623385	616f3c3672c07234d96edc86	4	1	DL_test	23	DL_test	1	stimuli_distractor_diamondtriangles.svg	stimuli_target_diamondrectangles.svg	31	yes	ba	1	1422	6	6	antiphase_hc_ois.wav	3	6	2	noise_calib_stim_LEFT.wav	1	6	blb_dichoticlistening_ba-ta.mp3	ba	ta	1	left
6.6.1	mac	2023-06-28	09:44:28	09:54:55	623385	616f3c3672c07234d96edc86	4	1	DL_test	23	DL_test	2	stimuli_distractor_diamondtriangles.svg	stimuli_target_diamondrectangles.svg	31	yes	ba	1	1005	6	6	antiphase_hc_ois.wav	3	6	2	noise_calib_stim_LEFT.wav	1	25	blb_dichoticlistening_pa-ba.mp3	pa	ba	1	right
6.6.1	mac	2023-06-28	09:44:28	09:54:55	623385	616f3c3672c07234d96edc86	4	1	DL_test	23	DL_test	3	stimuli_distractor_diamondtriangles.svg	stimuli_target_diamondrectangles.svg	31	yes	ta	1	1272	6	6	antiphase_hc_ois.wav	3	6	2	noise_calib_stim_LEFT.wav	1	36	blb_dichoticlistening_ta-ta.mp3	ta	ta	0	left
6.6.1	mac	2023-06-28	09:44:28	09:54:55	623385	616f3c3672c07234d96edc86	4	1	DL_test	23	DL_test	4	stimuli_distractor_diamondtriangles.svg	stimuli_target_diamondrectangles.svg	31	yes	ga	1	939	6	6	antiphase_hc_ois.wav	3	6	2	noise_calib_stim_LEFT.wav	1	16	blb_dichoticlistening_ga-ka.mp3	ga	ka	1	left
6.6.1	mac	2023-06-28	09:44:28	09:54:55	623385	616f3c3672c07234d96edc86	4	1	DL_test	23	DL_test	5	stimuli_distractor_diamondtriangles.svg	stimuli_target_diamondrectangles.svg	31	yes	ba	1	1322	6	6	antiphase_hc_ois.wav	3	6	2	noise_calib_stim_LEFT.wav	1	13	blb_dichoticlistening_ga-ba.mp3	ga	ba	1	right
6.6.1	mac	2023-06-28	09:44:28	09:54:55	623385	616f3c3672c07234d96edc86	4	1	DL_test	23	DL_test	6	stimuli_distractor_diamondtriangles.svg	stimuli_target_diamondrectangles.svg	31	yes	ga	1	1122	6	6	antiphase_hc_ois.wav	3	6	2	noise_calib_stim_LEFT.wav	1	27	blb_dichoticlistening_pa-ga.mp3	pa	ga	1	right
6.6.1	mac	2023-06-28	09:44:28	09:54:55	623385	616f3c3672c07234d96edc86	4	1	DL_test	23	DL_test	7	stimuli_distractor_diamondtriangles.svg	stimuli_target_diamondrectangles.svg	31	yes	ka	1	1039	6	6	antiphase_hc_ois.wav	3	6	2	noise_calib_stim_LEFT.wav	1	28	blb_dichoticlistening_pa-ka.mp3	pa	ka	1	right
6.6.1	mac	2023-06-28	09:44:28	09:54:55	623385	616f3c3672c07234d96edc86	4	1	DL_test	23	DL_test	8	stimuli_distractor_diamondtriangles.svg	stimuli_target_diamondrectangles.svg	31	yes	ka	1	889	6	6	antiphase_hc_ois.wav	3	6	2	noise_calib_stim_LEFT.wav	1	34	blb_dichoticlistening_ta-ka.mp3	ta	ka	1	right
6.6.1	mac	2023-06-28	09:44:28	09:54:55	623385	616f3c3672c07234d96edc86	4	1	DL_test	23	DL_test	9	stimuli_distractor_diamondtriangles.svg	stimuli_target_diamondrectangles.svg	31	yes	ga	0	906	6	6	antiphase_hc_ois.wav	3	6	2	noise_calib_stim_LEFT.wav	1	20	blb_dichoticlistening_ka-da.mp3	ka	da	1	other
6.6.1	mac	2023-06-28	09:44:28	09:54:55	623385	616f3c3672c07234d96edc86	4	1	DL_test	23	DL_test	10	stimuli_distractor_diamondtriangles.svg	stimuli_target_diamondrectangles.svg	31	yes	ka	1	923	6	6	antiphase_hc_ois.wav	3	6	2	noise_calib_stim_LEFT.wav	1	22	blb_dichoticlistening_ka-ka.mp3	ka	ka	0	left
6.6.1	mac	2023-06-28	09:44:28	09:54:55	623385	616f3c3672c07234d96edc86	4	1	DL_test	23	DL_test	11	stimuli_distractor_diamondtriangles.svg	stimuli_target_diamondrectangles.svg	31	yes	ga	1	939	6	6	antiphase_hc_ois.wav	3	6	2	noise_calib_stim_LEFT.wav	1	9	blb_dichoticlistening_da-ga.mp3	da	ga	1	right
6.6.1	mac	2023-06-28	09:44:28	09:54:55	623385	616f3c3672c07234d96edc86	4	1	DL_test	23	DL_test	12	stimuli_distractor_diamondtriangles.svg	stimuli_target_diamondrectangles.svg	31	yes	ga	1	856	6	6	antiphase_hc_ois.wav	3	6	2	noise_calib_stim_LEFT.wav	1	21	blb_dichoticlistening_ka-ga.mp3	ka	ga	1	right
6.6.1	mac	2023-06-28	09:44:28	09:54:55	623385	616f3c3672c07234d96edc86	4	1	DL_test	23	DL_test	13	stimuli_distractor_diamondtriangles.svg	stimuli_target_diamondrectangles.svg	31	yes	ba	1	1440	6	6	antiphase_hc_ois.wav	3	6	2	noise_calib_stim_LEFT.wav	1	3	blb_dichoticlistening_ba-ga.mp3	ba	ga	1	left
6.6.1	mac	2023-06-28	09:44:28	09:54:55	623385	616f3c3672c07234d96edc86	4	1	DL_test	23	DL_test	14	stimuli_distractor_diamondtriangles.svg	stimuli_target_diamondrectangles.svg	31	yes	ka	1	923	6	6	antiphase_hc_ois.wav	3	6	2	noise_calib_stim_LEFT.wav	1	24	blb_dichoticlistening_ka-ta.mp3	ka	ta	1	left
6.6.1	mac	2023-06-28	09:44:28	09:54:55	623385	616f3c3672c07234d96edc86	4	1	DL_test	23	DL_test	15	stimuli_distractor_diamondtriangles.svg	stimuli_target_diamondrectangles.svg	31	yes	da	1	1072	6	6	antiphase_hc_ois.wav	3	6	2	noise_calib_stim_LEFT.wav	1	12	blb_dichoticlistening_da-ta.mp3	da	ta	1	left
6.6.1	mac	2023-06-28	09:44:28	09:54:55	623385	616f3c3672c07234d96edc86	4	1	DL_test	23	DL_test	16	stimuli_distractor_diamondtriangles.svg	stimuli_target_diamondrectangles.svg	31	yes	ga	1	956	6	6	antiphase_hc_ois.wav	3	6	2	noise_calib_stim_LEFT.wav	1	33	blb_dichoticlistening_ta-ga.mp3	ta	ga	1	right
6.6.1	mac	2023-06-28	09:44:28	09:54:55	623385	616f3c3672c07234d96edc86	4	1	DL_test	23	DL_test	17	stimuli_distractor_diamondtriangles.svg	stimuli_target_diamondrectangles.svg	31	yes	pa	1	1239	6	6	antiphase_hc_ois.wav	3	6	2	noise_calib_stim_LEFT.wav	1	29	blb_dichoticlistening_pa-pa.mp3	pa	pa	0	left
6.6.1	mac	2023-06-28	09:44:28	09:54:55	623385	616f3c3672c07234d96edc86	4	1	DL_test	23	DL_test	18	stimuli_distractor_diamondtriangles.svg	stimuli_target_diamondrectangles.svg	31	yes	da	1	1206	6	6	antiphase_hc_ois.wav	3	6	2	noise_calib_stim_LEFT.wav	1	32	blb_dichoticlistening_ta-da.mp3	ta	da	1	right
6.6.1	mac	2023-06-28	09:44:28	09:54:55	623385	616f3c3672c07234d96edc86	4	1	DL_test	23	DL_test	19	stimuli_distractor_diamondtriangles.svg	stimuli_target_diamondrectangles.svg	31	yes	pa	0	2123	6	6	antiphase_hc_ois.wav	3	6	2	noise_calib_stim_LEFT.wav	1	31	blb_dichoticlistening_ta-ba.mp3	ta	ba	1	other
6.6.1	mac	2023-06-28	09:44:28	09:54:55	623385	616f3c3672c07234d96edc86	4	1	DL_test	23	DL_test	20	stimuli_distractor_diamondtriangles.svg	stimuli_target_diamondrectangles.svg	31	yes	da	1	1273	6	6	antiphase_hc_ois.wav	3	6	2	noise_calib_stim_LEFT.wav	1	11	blb_dichoticlistening_da-pa.mp3	da	pa	1	left
6.6.1	mac	2023-06-28	09:44:28	09:54:55	623385	616f3c3672c07234d96edc86	4	1	DL_test	23	DL_test	21	stimuli_distractor_diamondtriangles.svg	stimuli_target_diamondrectangles.svg	31	yes	ba	1	1389	6	6	antiphase_hc_ois.wav	3	6	2	noise_calib_stim_LEFT.wav	1	1	blb_dichoticlistening_ba-ba.mp3	ba	ba	0	left
6.6.1	mac	2023-06-28	09:44:28	09:54:55	623385	616f3c3672c07234d96edc86	4	1	DL_test	23	DL_test	22	stimuli_distractor_diamondtriangles.svg	stimuli_target_diamondrectangles.svg	31	yes	pa	1	1489	6	6	antiphase_hc_ois.wav	3	6	2	noise_calib_stim_LEFT.wav	1	5	blb_dichoticlistening_ba-pa.mp3	ba	pa	1	right
6.6.1	mac	2023-06-28	09:44:28	09:54:55	623385	616f3c3672c07234d96edc86	4	1	DL_test	23	DL_test	23	stimuli_distractor_diamondtriangles.svg	stimuli_target_diamondrectangles.svg	31	yes	ka	1	923	6	6	antiphase_hc_ois.wav	3	6	2	noise_calib_stim_LEFT.wav	1	23	blb_dichoticlistening_ka-pa.mp3	ka	pa	1	left
6.6.1	mac	2023-06-28	09:44:28	09:54:55	623385	616f3c3672c07234d96edc86	4	1	DL_test	23	DL_test	24	stimuli_distractor_diamondtriangles.svg	stimuli_target_diamondrectangles.svg	31	yes	ba	1	1206	6	6	antiphase_hc_ois.wav	3	6	2	noise_calib_stim_LEFT.wav	1	7	blb_dichoticlistening_da-ba.mp3	da	ba	1	right
6.6.1	mac	2023-06-28	09:44:28	09:54:55	623385	616f3c3672c07234d96edc86	4	1	DL_test	23	DL_test	25	stimuli_distractor_diamondtriangles.svg	stimuli_target_diamondrectangles.svg	31	yes	ga	1	1423	6	6	antiphase_hc_ois.wav	3	6	2	noise_calib_stim_LEFT.wav	1	18	blb_dichoticlistening_ga-ta.mp3	ga	ta	1	left
6.6.1	mac	2023-06-28	09:44:28	09:54:55	623385	616f3c3672c07234d96edc86	4	1	DL_test	23	DL_test	26	stimuli_distractor_diamondtriangles.svg	stimuli_target_diamondrectangles.svg	31	yes	da	1	1390	6	6	antiphase_hc_ois.wav	3	6	2	noise_calib_stim_LEFT.wav	1	26	blb_dichoticlistening_pa-da.mp3	pa	da	1	right
