build	computer.platform	date	time	timestamp	time_elapsed_ms	subject	group	session	blockcode	blocknum	trialcode	trialnum	stimulus_left	stimulus_right	stim_index	target_present	response	correct	latency	headphonecheck_countTestTrials	headphonecheck_index	headphonecheck_testSound	headphonecheck_correctResponse	stereocheck_countTestTrials	stereocheck_index	stereocheck_testSound	stereocheck_correctResponse	DL_index	DL_soundfile	DL_leftSound	DL_rightSound	DL_dualSound	DL_choice
6.6.1	win	2023-06-12	15:28:02	15:36:24	489532	5c560b6fccb08c0001e134a8	4	1	practice_z	5	practice_z	1	stimuli_distractor_diamondtriangles.svg	stimuli_distractor_trianglediamonds.svg	14	no	44	0	996	0	0			0	0			1				0	
6.6.1	win	2023-06-12	15:28:02	15:36:24	489532	5c560b6fccb08c0001e134a8	4	1	practice_z	5	advance_on_keypress_ZEE	2	stimuli_distractor_diamondtriangles.svg	stimuli_distractor_trianglediamonds.svg	14	no	57	0	1402	0	0			0	0			1				0	
6.6.1	win	2023-06-12	15:28:02	15:36:27	493105	5c560b6fccb08c0001e134a8	4	1	practice_z	5	practice_z	3	stimuli_distractor_diamondtriangles.svg	stimuli_target_diamondrectangles.svg	8	yes	44	1	519	0	0			0	0			1				0	
6.6.1	win	2023-06-12	15:28:02	15:36:27	493105	5c560b6fccb08c0001e134a8	4	1	practice_z	5	advance_on_keypress_ZEE	4	stimuli_distractor_diamondtriangles.svg	stimuli_target_diamondrectangles.svg	8	yes	57	0	863	0	0			0	0			1				0	
6.6.1	win	2023-06-12	15:28:02	15:36:31	496726	5c560b6fccb08c0001e134a8	4	1	practice_z	5	practice_z	5	stimuli_distractor_trianglediamonds.svg	stimuli_target_diamondrectangles.svg	12	yes	44	1	1124	0	0			0	0			1				0	
6.6.1	win	2023-06-12	15:28:02	15:36:31	496726	5c560b6fccb08c0001e134a8	4	1	practice_z	5	advance_on_keypress_ZEE	6	stimuli_distractor_trianglediamonds.svg	stimuli_target_diamondrectangles.svg	12	yes	57	0	849	0	0			0	0			1				0	
6.6.1	win	2023-06-12	15:28:02	15:36:34	499657	5c560b6fccb08c0001e134a8	4	1	practice_z	5	practice_z	7	stimuli_target_rectanglediamonds.svg	stimuli_distractor_trianglediamonds.svg	4	yes	44	1	438	0	0			0	0			1				0	
6.6.1	win	2023-06-12	15:28:02	15:36:34	499657	5c560b6fccb08c0001e134a8	4	1	practice_z	5	advance_on_keypress_ZEE	8	stimuli_target_rectanglediamonds.svg	stimuli_distractor_trianglediamonds.svg	4	yes	57	0	562	0	0			0	0			1				0	
6.6.1	win	2023-06-12	15:28:02	15:36:37	502656	5c560b6fccb08c0001e134a8	4	1	practice_z	5	practice_z	9	stimuli_target_diamondsquares.svg	stimuli_distractor_trianglediamonds.svg	6	yes	44	1	788	0	0			0	0			1				0	
6.6.1	win	2023-06-12	15:28:02	15:36:37	502656	5c560b6fccb08c0001e134a8	4	1	practice_z	5	advance_on_keypress_ZEE	10	stimuli_target_diamondsquares.svg	stimuli_distractor_trianglediamonds.svg	6	yes	57	0	722	0	0			0	0			1				0	
6.6.1	win	2023-06-12	15:28:02	15:36:40	505376	5c560b6fccb08c0001e134a8	4	1	practice_z	5	practice_z	11	stimuli_target_squarediamonds.svg	stimuli_distractor_trianglediamonds.svg	5	yes	44	1	356	0	0			0	0			1				0	
6.6.1	win	2023-06-12	15:28:02	15:36:40	505376	5c560b6fccb08c0001e134a8	4	1	practice_z	5	advance_on_keypress_ZEE	12	stimuli_target_squarediamonds.svg	stimuli_distractor_trianglediamonds.svg	5	yes	57	0	484	0	0			0	0			1				0	
6.6.1	win	2023-06-12	15:28:02	15:36:42	508013	5c560b6fccb08c0001e134a8	4	1	practice_z	5	practice_z	13	stimuli_distractor_diamondtriangles.svg	stimuli_target_trianglerectangles.svg	9	yes	44	1	511	0	0			0	0			1				0	
6.6.1	win	2023-06-12	15:28:02	15:36:42	508013	5c560b6fccb08c0001e134a8	4	1	practice_z	5	advance_on_keypress_ZEE	14	stimuli_distractor_diamondtriangles.svg	stimuli_target_trianglerectangles.svg	9	yes	57	0	349	0	0			0	0			1				0	
6.6.1	win	2023-06-12	15:28:02	15:36:45	510472	5c560b6fccb08c0001e134a8	4	1	practice_z	5	practice_z	15	stimuli_distractor_trianglediamonds.svg	stimuli_target_rectanglediamonds.svg	10	yes	44	1	469	0	0			0	0			1				0	
6.6.1	win	2023-06-12	15:28:02	15:36:45	510472	5c560b6fccb08c0001e134a8	4	1	practice_z	5	advance_on_keypress_ZEE	16	stimuli_distractor_trianglediamonds.svg	stimuli_target_rectanglediamonds.svg	10	yes	57	0	458	0	0			0	0			1				0	
6.6.1	win	2023-06-12	15:28:02	15:36:47	513061	5c560b6fccb08c0001e134a8	4	1	practice_z	5	practice_z	17	stimuli_target_diamondsquares.svg	stimuli_distractor_diamondtriangles.svg	3	yes	44	1	491	0	0			0	0			1				0	
6.6.1	win	2023-06-12	15:28:02	15:36:47	513061	5c560b6fccb08c0001e134a8	4	1	practice_z	5	advance_on_keypress_ZEE	18	stimuli_target_diamondsquares.svg	stimuli_distractor_diamondtriangles.svg	3	yes	57	0	564	0	0			0	0			1				0	
6.6.1	win	2023-06-12	15:28:02	15:36:50	516261	5c560b6fccb08c0001e134a8	4	1	practice_z	5	practice_z	19	stimuli_distractor_trianglediamonds.svg	stimuli_distractor_diamondtriangles.svg	16	no	44	0	991	0	0			0	0			1				0	
6.6.1	win	2023-06-12	15:28:02	15:36:50	516261	5c560b6fccb08c0001e134a8	4	1	practice_z	5	advance_on_keypress_ZEE	20	stimuli_distractor_trianglediamonds.svg	stimuli_distractor_diamondtriangles.svg	16	no	57	0	130	0	0			0	0			1				0	
6.6.1	win	2023-06-12	15:28:02	15:36:53	518541	5c560b6fccb08c0001e134a8	4	1	practice_z	5	practice_z	21	stimuli_target_rectanglediamonds.svg	stimuli_distractor_diamondtriangles.svg	1	yes	44	1	504	0	0			0	0			1				0	
6.6.1	win	2023-06-12	15:28:02	15:36:53	518541	5c560b6fccb08c0001e134a8	4	1	practice_z	5	advance_on_keypress_ZEE	22	stimuli_target_rectanglediamonds.svg	stimuli_distractor_diamondtriangles.svg	1	yes	57	0	414	0	0			0	0			1				0	
6.6.1	win	2023-06-12	15:28:02	15:36:56	521604	5c560b6fccb08c0001e134a8	4	1	practice_z	5	practice_z	23	stimuli_distractor_diamondtriangles.svg	stimuli_target_rectangletriangles.svg	7	yes	44	1	1002	0	0			0	0			1				0	
6.6.1	win	2023-06-12	15:28:02	15:36:56	521604	5c560b6fccb08c0001e134a8	4	1	practice_z	5	advance_on_keypress_ZEE	24	stimuli_distractor_diamondtriangles.svg	stimuli_target_rectangletriangles.svg	7	yes	57	0	525	0	0			0	0			1				0	
6.6.1	win	2023-06-12	15:28:02	15:36:59	524437	5c560b6fccb08c0001e134a8	4	1	practice_z	5	practice_z	25	stimuli_target_squarediamonds.svg	stimuli_distractor_diamondtriangles.svg	2	yes	44	1	667	0	0			0	0			1				0	
6.6.1	win	2023-06-12	15:28:02	15:36:59	524437	5c560b6fccb08c0001e134a8	4	1	practice_z	5	advance_on_keypress_ZEE	26	stimuli_target_squarediamonds.svg	stimuli_distractor_diamondtriangles.svg	2	yes	57	0	443	0	0			0	0			1				0	
6.6.1	win	2023-06-12	15:28:02	15:37:01	527059	5c560b6fccb08c0001e134a8	4	1	practice_z	5	practice_z	27	stimuli_distractor_trianglediamonds.svg	stimuli_distractor_trianglediamonds.svg	15	no	44	0	539	0	0			0	0			1				0	
6.6.1	win	2023-06-12	15:28:02	15:37:01	527059	5c560b6fccb08c0001e134a8	4	1	practice_z	5	advance_on_keypress_ZEE	28	stimuli_distractor_trianglediamonds.svg	stimuli_distractor_trianglediamonds.svg	15	no	57	0	221	0	0			0	0			1				0	
6.6.1	win	2023-06-12	15:28:02	15:37:04	530053	5c560b6fccb08c0001e134a8	4	1	practice_z	5	practice_z	29	stimuli_distractor_diamondtriangles.svg	stimuli_distractor_diamondtriangles.svg	13	no	44	0	1133	0	0			0	0			1				0	
6.6.1	win	2023-06-12	15:28:02	15:37:04	530053	5c560b6fccb08c0001e134a8	4	1	practice_z	5	advance_on_keypress_ZEE	30	stimuli_distractor_diamondtriangles.svg	stimuli_distractor_diamondtriangles.svg	13	no	57	0	528	0	0			0	0			1				0	
6.6.1	win	2023-06-12	15:28:02	15:37:07	533283	5c560b6fccb08c0001e134a8	4	1	practice_z	5	practice_z	31	stimuli_distractor_trianglediamonds.svg	stimuli_target_squarediamonds.svg	11	yes	44	1	1063	0	0			0	0			1				0	
6.6.1	win	2023-06-12	15:28:02	15:37:07	533283	5c560b6fccb08c0001e134a8	4	1	practice_z	5	advance_on_keypress_ZEE	32	stimuli_distractor_trianglediamonds.svg	stimuli_target_squarediamonds.svg	11	yes	57	0	635	0	0			0	0			1				0	
6.6.1	win	2023-06-12	15:28:02	15:37:15	540326	5c560b6fccb08c0001e134a8	4	1	main_z	7	main_z	1	stimuli_distractor_trianglediamonds.svg	stimuli_target_diamondrectangles.svg	27	yes	44	1	473	0	0			0	0			1				0	
6.6.1	win	2023-06-12	15:28:02	15:37:15	540326	5c560b6fccb08c0001e134a8	4	1	main_z	7	advance_on_keypress_ZEE	2	stimuli_distractor_trianglediamonds.svg	stimuli_target_diamondrectangles.svg	27	yes	57	0	865	0	0			0	0			1				0	
6.6.1	win	2023-06-12	15:28:02	15:37:17	542414	5c560b6fccb08c0001e134a8	4	1	main_z	7	main_z	3	stimuli_target_diamondsquares.svg	stimuli_distractor_trianglediamonds.svg	20	yes	44	1	577	0	0			0	0			1				0	
6.6.1	win	2023-06-12	15:28:02	15:37:17	542414	5c560b6fccb08c0001e134a8	4	1	main_z	7	advance_on_keypress_ZEE	4	stimuli_target_diamondsquares.svg	stimuli_distractor_trianglediamonds.svg	20	yes	57	0	963	0	0			0	0			1				0	
6.6.1	win	2023-06-12	15:28:02	15:37:19	544721	5c560b6fccb08c0001e134a8	4	1	main_z	7	main_z	5	stimuli_distractor_diamondtriangles.svg	stimuli_target_trianglerectangles.svg	29	yes	44	1	702	0	0			0	0			1				0	
6.6.1	win	2023-06-12	15:28:02	15:37:19	544721	5c560b6fccb08c0001e134a8	4	1	main_z	7	advance_on_keypress_ZEE	6	stimuli_distractor_diamondtriangles.svg	stimuli_target_trianglerectangles.svg	29	yes	57	0	1565	0	0			0	0			1				0	
6.6.1	win	2023-06-12	15:28:02	15:37:21	547268	5c560b6fccb08c0001e134a8	4	1	main_z	7	main_z	7	stimuli_target_diamondsquares.svg	stimuli_distractor_diamondtriangles.svg	24	yes	44	1	331	0	0			0	0			1				0	
6.6.1	win	2023-06-12	15:28:02	15:37:21	547268	5c560b6fccb08c0001e134a8	4	1	main_z	7	advance_on_keypress_ZEE	8	stimuli_target_diamondsquares.svg	stimuli_distractor_diamondtriangles.svg	24	yes	57	0	1157	0	0			0	0			1				0	
6.6.1	win	2023-06-12	15:28:02	15:37:25	551070	5c560b6fccb08c0001e134a8	4	1	main_z	7	main_z	9	stimuli_distractor_trianglediamonds.svg	stimuli_distractor_diamondtriangles.svg	36	no	0	1	2000	0	0			0	0			1				0	
6.6.1	win	2023-06-12	15:28:02	15:37:25	551070	5c560b6fccb08c0001e134a8	4	1	main_z	7	advance_on_keypress_ZEE	10	stimuli_distractor_trianglediamonds.svg	stimuli_distractor_diamondtriangles.svg	36	no	57	0	1369	0	0			0	0			1				0	
6.6.1	win	2023-06-12	15:28:02	15:37:29	554723	5c560b6fccb08c0001e134a8	4	1	main_z	7	main_z	11	stimuli_target_diamondrectangles.svg	stimuli_distractor_diamondtriangles.svg	23	yes	44	1	1637	0	0			0	0			1				0	
6.6.1	win	2023-06-12	15:28:02	15:37:29	554723	5c560b6fccb08c0001e134a8	4	1	main_z	7	advance_on_keypress_ZEE	12	stimuli_target_diamondrectangles.svg	stimuli_distractor_diamondtriangles.svg	23	yes	57	0	1072	0	0			0	0			1				0	
6.6.1	win	2023-06-12	15:28:02	15:37:33	558438	5c560b6fccb08c0001e134a8	4	1	main_z	7	main_z	13	stimuli_distractor_diamondtriangles.svg	stimuli_distractor_diamondtriangles.svg	39	no	0	1	2000	0	0			0	0			1				0	
6.6.1	win	2023-06-12	15:28:02	15:37:33	558438	5c560b6fccb08c0001e134a8	4	1	main_z	7	advance_on_keypress_ZEE	14	stimuli_distractor_diamondtriangles.svg	stimuli_distractor_diamondtriangles.svg	39	no	57	0	549	0	0			0	0			1				0	
6.6.1	win	2023-06-12	15:28:02	15:37:35	560898	5c560b6fccb08c0001e134a8	4	1	main_z	7	main_z	15	stimuli_distractor_diamondtriangles.svg	stimuli_target_squaretriangles.svg	15	yes	44	1	1262	0	0			0	0			1				0	
6.6.1	win	2023-06-12	15:28:02	15:37:35	560898	5c560b6fccb08c0001e134a8	4	1	main_z	7	advance_on_keypress_ZEE	16	stimuli_distractor_diamondtriangles.svg	stimuli_target_squaretriangles.svg	15	yes	57	0	1322	0	0			0	0			1				0	
6.6.1	win	2023-06-12	15:28:02	15:37:38	563945	5c560b6fccb08c0001e134a8	4	1	main_z	7	main_z	17	stimuli_target_squarediamonds.svg	stimuli_distractor_trianglediamonds.svg	4	yes	44	1	1092	0	0			0	0			1				0	
6.6.1	win	2023-06-12	15:28:02	15:37:38	563945	5c560b6fccb08c0001e134a8	4	1	main_z	7	advance_on_keypress_ZEE	18	stimuli_target_squarediamonds.svg	stimuli_distractor_trianglediamonds.svg	4	yes	57	0	811	0	0			0	0			1				0	
6.6.1	win	2023-06-12	15:28:02	15:37:41	566494	5c560b6fccb08c0001e134a8	4	1	main_z	7	main_z	19	stimuli_distractor_trianglediamonds.svg	stimuli_target_trianglerectangles.svg	25	yes	44	1	1107	0	0			0	0			1				0	
6.6.1	win	2023-06-12	15:28:02	15:37:41	566494	5c560b6fccb08c0001e134a8	4	1	main_z	7	advance_on_keypress_ZEE	20	stimuli_distractor_trianglediamonds.svg	stimuli_target_trianglerectangles.svg	25	yes	57	0	1031	0	0			0	0			1				0	
6.6.1	win	2023-06-12	15:28:02	15:37:44	570170	5c560b6fccb08c0001e134a8	4	1	main_z	7	main_z	21	stimuli_distractor_trianglediamonds.svg	stimuli_target_rectangletriangles.svg	9	yes	0	0	2000	0	0			0	0			1				0	
6.6.1	win	2023-06-12	15:28:02	15:37:44	570170	5c560b6fccb08c0001e134a8	4	1	main_z	7	advance_on_keypress_ZEE	22	stimuli_distractor_trianglediamonds.svg	stimuli_target_rectangletriangles.svg	9	yes	57	0	1165	0	0			0	0			1				0	
6.6.1	win	2023-06-12	15:28:02	15:37:47	573131	5c560b6fccb08c0001e134a8	4	1	main_z	7	main_z	23	stimuli_target_trianglerectangles.svg	stimuli_distractor_trianglediamonds.svg	17	yes	44	1	1143	0	0			0	0			1				0	
6.6.1	win	2023-06-12	15:28:02	15:37:47	573131	5c560b6fccb08c0001e134a8	4	1	main_z	7	advance_on_keypress_ZEE	24	stimuli_target_trianglerectangles.svg	stimuli_distractor_trianglediamonds.svg	17	yes	57	0	542	0	0			0	0			1				0	
6.6.1	win	2023-06-12	15:28:02	15:37:50	575942	5c560b6fccb08c0001e134a8	4	1	main_z	7	main_z	25	stimuli_target_rectanglediamonds.svg	stimuli_distractor_diamondtriangles.svg	6	yes	44	1	1639	0	0			0	0			1				0	
6.6.1	win	2023-06-12	15:28:02	15:37:50	575942	5c560b6fccb08c0001e134a8	4	1	main_z	7	advance_on_keypress_ZEE	26	stimuli_target_rectanglediamonds.svg	stimuli_distractor_diamondtriangles.svg	6	yes	57	0	661	0	0			0	0			1				0	
6.6.1	win	2023-06-12	15:28:02	15:37:53	578722	5c560b6fccb08c0001e134a8	4	1	main_z	7	main_z	27	stimuli_target_rectangletriangles.svg	stimuli_distractor_diamondtriangles.svg	5	yes	44	1	1485	0	0			0	0			1				0	
6.6.1	win	2023-06-12	15:28:02	15:37:53	578722	5c560b6fccb08c0001e134a8	4	1	main_z	7	advance_on_keypress_ZEE	28	stimuli_target_rectangletriangles.svg	stimuli_distractor_diamondtriangles.svg	5	yes	57	0	745	0	0			0	0			1				0	
6.6.1	win	2023-06-12	15:28:02	15:37:56	582103	5c560b6fccb08c0001e134a8	4	1	main_z	7	main_z	29	stimuli_distractor_diamondtriangles.svg	stimuli_target_rectangletriangles.svg	13	yes	0	0	2000	0	0			0	0			1				0	
6.6.1	win	2023-06-12	15:28:02	15:37:56	582103	5c560b6fccb08c0001e134a8	4	1	main_z	7	advance_on_keypress_ZEE	30	stimuli_distractor_diamondtriangles.svg	stimuli_target_rectangletriangles.svg	13	yes	57	0	477	0	0			0	0			1				0	
6.6.1	win	2023-06-12	15:28:02	15:37:58	583911	5c560b6fccb08c0001e134a8	4	1	main_z	7	main_z	31	stimuli_distractor_diamondtriangles.svg	stimuli_target_diamondrectangles.svg	31	yes	44	1	691	0	0			0	0			1				0	
6.6.1	win	2023-06-12	15:28:02	15:37:58	583911	5c560b6fccb08c0001e134a8	4	1	main_z	7	advance_on_keypress_ZEE	32	stimuli_distractor_diamondtriangles.svg	stimuli_target_diamondrectangles.svg	31	yes	57	0	833	0	0			0	0			1				0	
6.6.1	win	2023-06-12	15:28:02	15:38:02	587384	5c560b6fccb08c0001e134a8	4	1	main_z	7	main_z	33	stimuli_distractor_trianglediamonds.svg	stimuli_target_squarediamonds.svg	12	yes	44	1	1997	0	0			0	0			1				0	
6.6.1	win	2023-06-12	15:28:02	15:38:02	587384	5c560b6fccb08c0001e134a8	4	1	main_z	7	advance_on_keypress_ZEE	34	stimuli_distractor_trianglediamonds.svg	stimuli_target_squarediamonds.svg	12	yes	57	0	546	0	0			0	0			1				0	
6.6.1	win	2023-06-12	15:28:02	15:38:04	589439	5c560b6fccb08c0001e134a8	4	1	main_z	7	main_z	35	stimuli_distractor_trianglediamonds.svg	stimuli_target_squaretriangles.svg	11	yes	44	1	885	0	0			0	0			1				0	
6.6.1	win	2023-06-12	15:28:02	15:38:04	589439	5c560b6fccb08c0001e134a8	4	1	main_z	7	advance_on_keypress_ZEE	36	stimuli_distractor_trianglediamonds.svg	stimuli_target_squaretriangles.svg	11	yes	57	0	687	0	0			0	0			1				0	
6.6.1	win	2023-06-12	15:28:02	15:38:05	591213	5c560b6fccb08c0001e134a8	4	1	main_z	7	main_z	37	stimuli_distractor_trianglediamonds.svg	stimuli_distractor_diamondtriangles.svg	35	no	44	0	442	0	0			0	0			1				0	
6.6.1	win	2023-06-12	15:28:02	15:38:05	591213	5c560b6fccb08c0001e134a8	4	1	main_z	7	advance_on_keypress_ZEE	38	stimuli_distractor_trianglediamonds.svg	stimuli_distractor_diamondtriangles.svg	35	no	57	0	630	0	0			0	0			1				0	
6.6.1	win	2023-06-12	15:28:02	15:38:09	594470	5c560b6fccb08c0001e134a8	4	1	main_z	7	main_z	39	stimuli_distractor_diamondtriangles.svg	stimuli_distractor_diamondtriangles.svg	40	no	0	1	2000	0	0			0	0			1				0	
6.6.1	win	2023-06-12	15:28:02	15:38:09	594470	5c560b6fccb08c0001e134a8	4	1	main_z	7	advance_on_keypress_ZEE	40	stimuli_distractor_diamondtriangles.svg	stimuli_distractor_diamondtriangles.svg	40	no	57	0	411	0	0			0	0			1				0	
6.6.1	win	2023-06-12	15:28:02	15:38:11	596543	5c560b6fccb08c0001e134a8	4	1	main_z	7	main_z	41	stimuli_distractor_trianglediamonds.svg	stimuli_target_trianglesquares.svg	26	yes	44	1	1023	0	0			0	0			1				0	
6.6.1	win	2023-06-12	15:28:02	15:38:11	596543	5c560b6fccb08c0001e134a8	4	1	main_z	7	advance_on_keypress_ZEE	42	stimuli_distractor_trianglediamonds.svg	stimuli_target_trianglesquares.svg	26	yes	57	0	863	0	0			0	0			1				0	
6.6.1	win	2023-06-12	15:28:02	15:38:13	599256	5c560b6fccb08c0001e134a8	4	1	main_z	7	main_z	43	stimuli_distractor_diamondtriangles.svg	stimuli_target_diamondsquares.svg	32	yes	44	1	1219	0	0			0	0			1				0	
6.6.1	win	2023-06-12	15:28:02	15:38:13	599256	5c560b6fccb08c0001e134a8	4	1	main_z	7	advance_on_keypress_ZEE	44	stimuli_distractor_diamondtriangles.svg	stimuli_target_diamondsquares.svg	32	yes	57	0	590	0	0			0	0			1				0	
6.6.1	win	2023-06-12	15:28:02	15:38:16	602268	5c560b6fccb08c0001e134a8	4	1	main_z	7	main_z	45	stimuli_distractor_diamondtriangles.svg	stimuli_target_trianglesquares.svg	30	yes	44	1	1780	0	0			0	0			1				0	
6.6.1	win	2023-06-12	15:28:02	15:38:16	602268	5c560b6fccb08c0001e134a8	4	1	main_z	7	advance_on_keypress_ZEE	46	stimuli_distractor_diamondtriangles.svg	stimuli_target_trianglesquares.svg	30	yes	57	0	640	0	0			0	0			1				0	
6.6.1	win	2023-06-12	15:28:02	15:38:20	605554	5c560b6fccb08c0001e134a8	4	1	main_z	7	main_z	47	stimuli_distractor_trianglediamonds.svg	stimuli_distractor_trianglediamonds.svg	34	no	0	1	2000	0	0			0	0			1				0	
6.6.1	win	2023-06-12	15:28:02	15:38:20	605554	5c560b6fccb08c0001e134a8	4	1	main_z	7	advance_on_keypress_ZEE	48	stimuli_distractor_trianglediamonds.svg	stimuli_distractor_trianglediamonds.svg	34	no	57	0	106	0	0			0	0			1				0	
6.6.1	win	2023-06-12	15:28:02	15:38:21	607014	5c560b6fccb08c0001e134a8	4	1	main_z	7	main_z	49	stimuli_distractor_diamondtriangles.svg	stimuli_target_squarediamonds.svg	16	yes	44	1	710	0	0			0	0			1				0	
6.6.1	win	2023-06-12	15:28:02	15:38:21	607014	5c560b6fccb08c0001e134a8	4	1	main_z	7	advance_on_keypress_ZEE	50	stimuli_distractor_diamondtriangles.svg	stimuli_target_squarediamonds.svg	16	yes	57	0	720	0	0			0	0			1				0	
6.6.1	win	2023-06-12	15:28:02	15:38:25	610371	5c560b6fccb08c0001e134a8	4	1	main_z	7	main_z	51	stimuli_distractor_trianglediamonds.svg	stimuli_target_diamondsquares.svg	28	yes	0	0	2000	0	0			0	0			1				0	
6.6.1	win	2023-06-12	15:28:02	15:38:25	610371	5c560b6fccb08c0001e134a8	4	1	main_z	7	advance_on_keypress_ZEE	52	stimuli_distractor_trianglediamonds.svg	stimuli_target_diamondsquares.svg	28	yes	57	0	569	0	0			0	0			1				0	
6.6.1	win	2023-06-12	15:28:02	15:38:27	613256	5c560b6fccb08c0001e134a8	4	1	main_z	7	main_z	53	stimuli_distractor_trianglediamonds.svg	stimuli_target_rectanglediamonds.svg	10	yes	44	1	1668	0	0			0	0			1				0	
6.6.1	win	2023-06-12	15:28:02	15:38:27	613256	5c560b6fccb08c0001e134a8	4	1	main_z	7	advance_on_keypress_ZEE	54	stimuli_distractor_trianglediamonds.svg	stimuli_target_rectanglediamonds.svg	10	yes	57	0	621	0	0			0	0			1				0	
6.6.1	win	2023-06-12	15:28:02	15:38:29	615190	5c560b6fccb08c0001e134a8	4	1	main_z	7	main_z	55	stimuli_target_squarediamonds.svg	stimuli_distractor_diamondtriangles.svg	8	yes	44	1	669	0	0			0	0			1				0	
6.6.1	win	2023-06-12	15:28:02	15:38:29	615190	5c560b6fccb08c0001e134a8	4	1	main_z	7	advance_on_keypress_ZEE	56	stimuli_target_squarediamonds.svg	stimuli_distractor_diamondtriangles.svg	8	yes	57	0	748	0	0			0	0			1				0	
6.6.1	win	2023-06-12	15:28:02	15:38:32	617336	5c560b6fccb08c0001e134a8	4	1	main_z	7	main_z	57	stimuli_target_squaretriangles.svg	stimuli_distractor_diamondtriangles.svg	7	yes	44	1	748	0	0			0	0			1				0	
6.6.1	win	2023-06-12	15:28:02	15:38:32	617336	5c560b6fccb08c0001e134a8	4	1	main_z	7	advance_on_keypress_ZEE	58	stimuli_target_squaretriangles.svg	stimuli_distractor_diamondtriangles.svg	7	yes	57	0	662	0	0			0	0			1				0	
6.6.1	win	2023-06-12	15:28:02	15:38:34	619533	5c560b6fccb08c0001e134a8	4	1	main_z	7	main_z	59	stimuli_target_rectangletriangles.svg	stimuli_distractor_trianglediamonds.svg	1	yes	44	1	895	0	0			0	0			1				0	
6.6.1	win	2023-06-12	15:28:02	15:38:34	619533	5c560b6fccb08c0001e134a8	4	1	main_z	7	advance_on_keypress_ZEE	60	stimuli_target_rectangletriangles.svg	stimuli_distractor_trianglediamonds.svg	1	yes	57	0	590	0	0			0	0			1				0	
6.6.1	win	2023-06-12	15:28:02	15:38:36	621603	5c560b6fccb08c0001e134a8	4	1	main_z	7	main_z	61	stimuli_target_trianglerectangles.svg	stimuli_distractor_diamondtriangles.svg	21	yes	44	1	849	0	0			0	0			1				0	
6.6.1	win	2023-06-12	15:28:02	15:38:36	621603	5c560b6fccb08c0001e134a8	4	1	main_z	7	advance_on_keypress_ZEE	62	stimuli_target_trianglerectangles.svg	stimuli_distractor_diamondtriangles.svg	21	yes	57	0	931	0	0			0	0			1				0	
6.6.1	win	2023-06-12	15:28:02	15:38:39	625188	5c560b6fccb08c0001e134a8	4	1	main_z	7	main_z	63	stimuli_distractor_diamondtriangles.svg	stimuli_distractor_trianglediamonds.svg	38	no	0	1	2000	0	0			0	0			1				0	
6.6.1	win	2023-06-12	15:28:02	15:38:39	625188	5c560b6fccb08c0001e134a8	4	1	main_z	7	advance_on_keypress_ZEE	64	stimuli_distractor_diamondtriangles.svg	stimuli_distractor_trianglediamonds.svg	38	no	57	0	408	0	0			0	0			1				0	
6.6.1	win	2023-06-12	15:28:02	15:38:41	627239	5c560b6fccb08c0001e134a8	4	1	main_z	7	main_z	65	stimuli_target_squaretriangles.svg	stimuli_distractor_trianglediamonds.svg	3	yes	44	1	1001	0	0			0	0			1				0	
6.6.1	win	2023-06-12	15:28:02	15:38:41	627239	5c560b6fccb08c0001e134a8	4	1	main_z	7	advance_on_keypress_ZEE	66	stimuli_target_squaretriangles.svg	stimuli_distractor_trianglediamonds.svg	3	yes	57	0	2678	0	0			0	0			1				0	
6.6.1	win	2023-06-12	15:28:02	15:38:47	632572	5c560b6fccb08c0001e134a8	4	1	main_z	7	main_z	67	stimuli_target_diamondrectangles.svg	stimuli_distractor_trianglediamonds.svg	19	yes	0	0	2000	0	0			0	0			1				0	
6.6.1	win	2023-06-12	15:28:02	15:38:47	632572	5c560b6fccb08c0001e134a8	4	1	main_z	7	advance_on_keypress_ZEE	68	stimuli_target_diamondrectangles.svg	stimuli_distractor_trianglediamonds.svg	19	yes	57	0	861	0	0			0	0			1				0	
6.6.1	win	2023-06-12	15:28:02	15:38:49	635293	5c560b6fccb08c0001e134a8	4	1	main_z	7	main_z	69	stimuli_distractor_diamondtriangles.svg	stimuli_target_rectanglediamonds.svg	14	yes	44	1	1221	0	0			0	0			1				0	
6.6.1	win	2023-06-12	15:28:02	15:38:49	635293	5c560b6fccb08c0001e134a8	4	1	main_z	7	advance_on_keypress_ZEE	70	stimuli_distractor_diamondtriangles.svg	stimuli_target_rectanglediamonds.svg	14	yes	57	0	485	0	0			0	0			1				0	
6.6.1	win	2023-06-12	15:28:02	15:38:51	636956	5c560b6fccb08c0001e134a8	4	1	main_z	7	main_z	71	stimuli_target_rectanglediamonds.svg	stimuli_distractor_trianglediamonds.svg	2	yes	44	1	535	0	0			0	0			1				0	
6.6.1	win	2023-06-12	15:28:02	15:38:51	636956	5c560b6fccb08c0001e134a8	4	1	main_z	7	advance_on_keypress_ZEE	72	stimuli_target_rectanglediamonds.svg	stimuli_distractor_trianglediamonds.svg	2	yes	57	0	978	0	0			0	0			1				0	
6.6.1	win	2023-06-12	15:28:02	15:38:53	639168	5c560b6fccb08c0001e134a8	4	1	main_z	7	main_z	73	stimuli_target_trianglesquares.svg	stimuli_distractor_diamondtriangles.svg	22	yes	44	1	597	0	0			0	0			1				0	
6.6.1	win	2023-06-12	15:28:02	15:38:53	639168	5c560b6fccb08c0001e134a8	4	1	main_z	7	advance_on_keypress_ZEE	74	stimuli_target_trianglesquares.svg	stimuli_distractor_diamondtriangles.svg	22	yes	57	0	495	0	0			0	0			1				0	
6.6.1	win	2023-06-12	15:28:02	15:38:56	642305	5c560b6fccb08c0001e134a8	4	1	main_z	7	main_z	75	stimuli_distractor_trianglediamonds.svg	stimuli_distractor_trianglediamonds.svg	33	no	0	1	2000	0	0			0	0			1				0	
6.6.1	win	2023-06-12	15:28:02	15:38:56	642305	5c560b6fccb08c0001e134a8	4	1	main_z	7	advance_on_keypress_ZEE	76	stimuli_distractor_trianglediamonds.svg	stimuli_distractor_trianglediamonds.svg	33	no	57	0	56	0	0			0	0			1				0	
6.6.1	win	2023-06-12	15:28:02	15:38:59	645005	5c560b6fccb08c0001e134a8	4	1	main_z	7	main_z	77	stimuli_distractor_diamondtriangles.svg	stimuli_distractor_trianglediamonds.svg	37	no	0	1	2000	0	0			0	0			1				0	
6.6.1	win	2023-06-12	15:28:02	15:38:59	645005	5c560b6fccb08c0001e134a8	4	1	main_z	7	advance_on_keypress_ZEE	78	stimuli_distractor_diamondtriangles.svg	stimuli_distractor_trianglediamonds.svg	37	no	57	0	542	0	0			0	0			1				0	
6.6.1	win	2023-06-12	15:28:02	15:39:01	646734	5c560b6fccb08c0001e134a8	4	1	main_z	7	main_z	79	stimuli_target_trianglesquares.svg	stimuli_distractor_trianglediamonds.svg	18	yes	44	1	545	0	0			0	0			1				0	
6.6.1	win	2023-06-12	15:28:02	15:39:01	646734	5c560b6fccb08c0001e134a8	4	1	main_z	7	advance_on_keypress_ZEE	80	stimuli_target_trianglesquares.svg	stimuli_distractor_trianglediamonds.svg	18	yes	57	0	815	0	0			0	0			1				0	
6.6.1	win	2023-06-12	15:28:02	15:39:03	649011	5c560b6fccb08c0001e134a8	4	1	main_z	7	main_z	81	stimuli_distractor_trianglediamonds.svg	stimuli_target_trianglesquares.svg	26	yes	44	1	823	0	0			0	0			1				0	
6.6.1	win	2023-06-12	15:28:02	15:39:03	649011	5c560b6fccb08c0001e134a8	4	1	main_z	7	advance_on_keypress_ZEE	82	stimuli_distractor_trianglediamonds.svg	stimuli_target_trianglesquares.svg	26	yes	57	0	683	0	0			0	0			1				0	
6.6.1	win	2023-06-12	15:28:02	15:39:05	650893	5c560b6fccb08c0001e134a8	4	1	main_z	7	main_z	83	stimuli_distractor_trianglediamonds.svg	stimuli_target_diamondrectangles.svg	27	yes	44	1	554	0	0			0	0			1				0	
6.6.1	win	2023-06-12	15:28:02	15:39:05	650893	5c560b6fccb08c0001e134a8	4	1	main_z	7	advance_on_keypress_ZEE	84	stimuli_distractor_trianglediamonds.svg	stimuli_target_diamondrectangles.svg	27	yes	57	0	448	0	0			0	0			1				0	
6.6.1	win	2023-06-12	15:28:02	15:39:07	652505	5c560b6fccb08c0001e134a8	4	1	main_z	7	main_z	85	stimuli_target_squarediamonds.svg	stimuli_distractor_diamondtriangles.svg	8	yes	44	1	516	0	0			0	0			1				0	
6.6.1	win	2023-06-12	15:28:02	15:39:07	652505	5c560b6fccb08c0001e134a8	4	1	main_z	7	advance_on_keypress_ZEE	86	stimuli_target_squarediamonds.svg	stimuli_distractor_diamondtriangles.svg	8	yes	57	0	443	0	0			0	0			1				0	
6.6.1	win	2023-06-12	15:28:02	15:39:08	654135	5c560b6fccb08c0001e134a8	4	1	main_z	7	main_z	87	stimuli_target_diamondsquares.svg	stimuli_distractor_trianglediamonds.svg	20	yes	44	1	546	0	0			0	0			1				0	
6.6.1	win	2023-06-12	15:28:02	15:39:08	654135	5c560b6fccb08c0001e134a8	4	1	main_z	7	advance_on_keypress_ZEE	88	stimuli_target_diamondsquares.svg	stimuli_distractor_trianglediamonds.svg	20	yes	57	0	387	0	0			0	0			1				0	
6.6.1	win	2023-06-12	15:28:02	15:39:10	656155	5c560b6fccb08c0001e134a8	4	1	main_z	7	main_z	89	stimuli_distractor_trianglediamonds.svg	stimuli_target_rectanglediamonds.svg	10	yes	44	1	983	0	0			0	0			1				0	
6.6.1	win	2023-06-12	15:28:02	15:39:10	656155	5c560b6fccb08c0001e134a8	4	1	main_z	7	advance_on_keypress_ZEE	90	stimuli_distractor_trianglediamonds.svg	stimuli_target_rectanglediamonds.svg	10	yes	57	0	538	0	0			0	0			1				0	
6.6.1	win	2023-06-12	15:28:02	15:39:12	657614	5c560b6fccb08c0001e134a8	4	1	main_z	7	main_z	91	stimuli_distractor_diamondtriangles.svg	stimuli_distractor_diamondtriangles.svg	39	no	44	0	275	0	0			0	0			1				0	
6.6.1	win	2023-06-12	15:28:02	15:39:12	657614	5c560b6fccb08c0001e134a8	4	1	main_z	7	advance_on_keypress_ZEE	92	stimuli_distractor_diamondtriangles.svg	stimuli_distractor_diamondtriangles.svg	39	no	57	0	688	0	0			0	0			1				0	
6.6.1	win	2023-06-12	15:28:02	15:39:14	659551	5c560b6fccb08c0001e134a8	4	1	main_z	7	main_z	93	stimuli_target_squaretriangles.svg	stimuli_distractor_trianglediamonds.svg	3	yes	44	1	612	0	0			0	0			1				0	
6.6.1	win	2023-06-12	15:28:02	15:39:14	659551	5c560b6fccb08c0001e134a8	4	1	main_z	7	advance_on_keypress_ZEE	94	stimuli_target_squaretriangles.svg	stimuli_distractor_trianglediamonds.svg	3	yes	57	0	632	0	0			0	0			1				0	
6.6.1	win	2023-06-12	15:28:02	15:39:16	662009	5c560b6fccb08c0001e134a8	4	1	main_z	7	main_z	95	stimuli_target_trianglesquares.svg	stimuli_distractor_diamondtriangles.svg	22	yes	44	1	1187	0	0			0	0			1				0	
6.6.1	win	2023-06-12	15:28:02	15:39:16	662009	5c560b6fccb08c0001e134a8	4	1	main_z	7	advance_on_keypress_ZEE	96	stimuli_target_trianglesquares.svg	stimuli_distractor_diamondtriangles.svg	22	yes	57	0	794	0	0			0	0			1				0	
6.6.1	win	2023-06-12	15:28:02	15:39:18	663942	5c560b6fccb08c0001e134a8	4	1	main_z	7	main_z	97	stimuli_target_squarediamonds.svg	stimuli_distractor_trianglediamonds.svg	4	yes	44	1	502	0	0			0	0			1				0	
6.6.1	win	2023-06-12	15:28:02	15:39:18	663942	5c560b6fccb08c0001e134a8	4	1	main_z	7	advance_on_keypress_ZEE	98	stimuli_target_squarediamonds.svg	stimuli_distractor_trianglediamonds.svg	4	yes	57	0	538	0	0			0	0			1				0	
6.6.1	win	2023-06-12	15:28:02	15:39:20	665818	5c560b6fccb08c0001e134a8	4	1	main_z	7	main_z	99	stimuli_target_diamondsquares.svg	stimuli_distractor_diamondtriangles.svg	24	yes	44	1	696	0	0			0	0			1				0	
6.6.1	win	2023-06-12	15:28:02	15:39:20	665818	5c560b6fccb08c0001e134a8	4	1	main_z	7	advance_on_keypress_ZEE	100	stimuli_target_diamondsquares.svg	stimuli_distractor_diamondtriangles.svg	24	yes	57	0	447	0	0			0	0			1				0	
6.6.1	win	2023-06-12	15:28:02	15:39:22	667952	5c560b6fccb08c0001e134a8	4	1	main_z	7	main_z	101	stimuli_distractor_trianglediamonds.svg	stimuli_distractor_diamondtriangles.svg	35	no	44	0	1046	0	0			0	0			1				0	
6.6.1	win	2023-06-12	15:28:02	15:39:22	667952	5c560b6fccb08c0001e134a8	4	1	main_z	7	advance_on_keypress_ZEE	102	stimuli_distractor_trianglediamonds.svg	stimuli_distractor_diamondtriangles.svg	35	no	57	0	549	0	0			0	0			1				0	
6.6.1	win	2023-06-12	15:28:02	15:39:24	670098	5c560b6fccb08c0001e134a8	4	1	main_z	7	main_z	103	stimuli_distractor_diamondtriangles.svg	stimuli_distractor_trianglediamonds.svg	38	no	44	0	959	0	0			0	0			1				0	
6.6.1	win	2023-06-12	15:28:02	15:39:24	670098	5c560b6fccb08c0001e134a8	4	1	main_z	7	advance_on_keypress_ZEE	104	stimuli_distractor_diamondtriangles.svg	stimuli_distractor_trianglediamonds.svg	38	no	57	0	953	0	0			0	0			1				0	
6.6.1	win	2023-06-12	15:28:02	15:39:28	673689	5c560b6fccb08c0001e134a8	4	1	main_z	7	main_z	105	stimuli_target_rectanglediamonds.svg	stimuli_distractor_diamondtriangles.svg	6	yes	0	0	2000	0	0			0	0			1				0	
6.6.1	win	2023-06-12	15:28:02	15:39:28	673689	5c560b6fccb08c0001e134a8	4	1	main_z	7	advance_on_keypress_ZEE	106	stimuli_target_rectanglediamonds.svg	stimuli_distractor_diamondtriangles.svg	6	yes	57	0	7855	0	0			0	0			1				0	
6.6.1	win	2023-06-12	15:28:02	15:39:38	684190	5c560b6fccb08c0001e134a8	4	1	main_z	7	main_z	107	stimuli_distractor_trianglediamonds.svg	stimuli_distractor_trianglediamonds.svg	34	no	0	1	2000	0	0			0	0			1				0	
6.6.1	win	2023-06-12	15:28:02	15:39:38	684190	5c560b6fccb08c0001e134a8	4	1	main_z	7	advance_on_keypress_ZEE	108	stimuli_distractor_trianglediamonds.svg	stimuli_distractor_trianglediamonds.svg	34	no	57	0	4959	0	0			0	0			1				0	
6.6.1	win	2023-06-12	15:28:02	15:39:44	690224	5c560b6fccb08c0001e134a8	4	1	main_z	7	main_z	109	stimuli_target_rectanglediamonds.svg	stimuli_distractor_trianglediamonds.svg	2	yes	44	1	435	0	0			0	0			1				0	
6.6.1	win	2023-06-12	15:28:02	15:39:44	690224	5c560b6fccb08c0001e134a8	4	1	main_z	7	advance_on_keypress_ZEE	110	stimuli_target_rectanglediamonds.svg	stimuli_distractor_trianglediamonds.svg	2	yes	57	0	524	0	0			0	0			1				0	
6.6.1	win	2023-06-12	15:28:02	15:39:46	691392	5c560b6fccb08c0001e134a8	4	1	main_z	7	main_z	111	stimuli_distractor_trianglediamonds.svg	stimuli_target_squarediamonds.svg	12	yes	44	1	2	0	0			0	0			1				0	
6.6.1	win	2023-06-12	15:28:02	15:39:46	691392	5c560b6fccb08c0001e134a8	4	1	main_z	7	advance_on_keypress_ZEE	112	stimuli_distractor_trianglediamonds.svg	stimuli_target_squarediamonds.svg	12	yes	57	0	552	0	0			0	0			1				0	
6.6.1	win	2023-06-12	15:28:02	15:39:48	693492	5c560b6fccb08c0001e134a8	4	1	main_z	7	main_z	113	stimuli_distractor_diamondtriangles.svg	stimuli_distractor_trianglediamonds.svg	37	no	44	0	903	0	0			0	0			1				0	
6.6.1	win	2023-06-12	15:28:02	15:39:48	693492	5c560b6fccb08c0001e134a8	4	1	main_z	7	advance_on_keypress_ZEE	114	stimuli_distractor_diamondtriangles.svg	stimuli_distractor_trianglediamonds.svg	37	no	57	0	710	0	0			0	0			1				0	
6.6.1	win	2023-06-12	15:28:02	15:39:50	695632	5c560b6fccb08c0001e134a8	4	1	main_z	7	main_z	115	stimuli_distractor_diamondtriangles.svg	stimuli_target_rectangletriangles.svg	13	yes	44	1	793	0	0			0	0			1				0	
6.6.1	win	2023-06-12	15:28:02	15:39:50	695632	5c560b6fccb08c0001e134a8	4	1	main_z	7	advance_on_keypress_ZEE	116	stimuli_distractor_diamondtriangles.svg	stimuli_target_rectangletriangles.svg	13	yes	57	0	780	0	0			0	0			1				0	
6.6.1	win	2023-06-12	15:28:02	15:39:53	699056	5c560b6fccb08c0001e134a8	4	1	main_z	7	main_z	117	stimuli_distractor_diamondtriangles.svg	stimuli_target_diamondrectangles.svg	31	yes	0	0	2000	0	0			0	0			1				0	
6.6.1	win	2023-06-12	15:28:02	15:39:53	699056	5c560b6fccb08c0001e134a8	4	1	main_z	7	advance_on_keypress_ZEE	118	stimuli_distractor_diamondtriangles.svg	stimuli_target_diamondrectangles.svg	31	yes	57	0	1028	0	0			0	0			1				0	
6.6.1	win	2023-06-12	15:28:02	15:39:56	701332	5c560b6fccb08c0001e134a8	4	1	main_z	7	main_z	119	stimuli_target_rectangletriangles.svg	stimuli_distractor_diamondtriangles.svg	5	yes	44	1	609	0	0			0	0			1				0	
6.6.1	win	2023-06-12	15:28:02	15:39:56	701332	5c560b6fccb08c0001e134a8	4	1	main_z	7	advance_on_keypress_ZEE	120	stimuli_target_rectangletriangles.svg	stimuli_distractor_diamondtriangles.svg	5	yes	57	0	2525	0	0			0	0			1				0	
6.6.1	win	2023-06-12	15:28:02	15:39:59	705246	5c560b6fccb08c0001e134a8	4	1	main_z	7	main_z	121	stimuli_distractor_trianglediamonds.svg	stimuli_target_diamondsquares.svg	28	yes	44	1	756	0	0			0	0			1				0	
6.6.1	win	2023-06-12	15:28:02	15:39:59	705246	5c560b6fccb08c0001e134a8	4	1	main_z	7	advance_on_keypress_ZEE	122	stimuli_distractor_trianglediamonds.svg	stimuli_target_diamondsquares.svg	28	yes	57	0	563	0	0			0	0			1				0	
6.6.1	win	2023-06-12	15:28:02	15:40:01	707230	5c560b6fccb08c0001e134a8	4	1	main_z	7	main_z	123	stimuli_target_squaretriangles.svg	stimuli_distractor_diamondtriangles.svg	7	yes	44	1	790	0	0			0	0			1				0	
6.6.1	win	2023-06-12	15:28:02	15:40:01	707230	5c560b6fccb08c0001e134a8	4	1	main_z	7	advance_on_keypress_ZEE	124	stimuli_target_squaretriangles.svg	stimuli_distractor_diamondtriangles.svg	7	yes	57	0	637	0	0			0	0			1				0	
6.6.1	win	2023-06-12	15:28:02	15:40:05	710506	5c560b6fccb08c0001e134a8	4	1	main_z	7	main_z	125	stimuli_target_trianglerectangles.svg	stimuli_distractor_trianglediamonds.svg	17	yes	0	0	2000	0	0			0	0			1				0	
6.6.1	win	2023-06-12	15:28:02	15:40:05	710506	5c560b6fccb08c0001e134a8	4	1	main_z	7	advance_on_keypress_ZEE	126	stimuli_target_trianglerectangles.svg	stimuli_distractor_trianglediamonds.svg	17	yes	57	0	503	0	0			0	0			1				0	
6.6.1	win	2023-06-12	15:28:02	15:40:07	712735	5c560b6fccb08c0001e134a8	4	1	main_z	7	main_z	127	stimuli_distractor_diamondtriangles.svg	stimuli_distractor_diamondtriangles.svg	40	no	44	0	1079	0	0			0	0			1				0	
6.6.1	win	2023-06-12	15:28:02	15:40:07	712735	5c560b6fccb08c0001e134a8	4	1	main_z	7	advance_on_keypress_ZEE	128	stimuli_distractor_diamondtriangles.svg	stimuli_distractor_diamondtriangles.svg	40	no	57	0	615	0	0			0	0			1				0	
6.6.1	win	2023-06-12	15:28:02	15:40:10	715677	5c560b6fccb08c0001e134a8	4	1	main_z	7	main_z	129	stimuli_target_diamondrectangles.svg	stimuli_distractor_trianglediamonds.svg	19	yes	44	1	1687	0	0			0	0			1				0	
6.6.1	win	2023-06-12	15:28:02	15:40:10	715677	5c560b6fccb08c0001e134a8	4	1	main_z	7	advance_on_keypress_ZEE	130	stimuli_target_diamondrectangles.svg	stimuli_distractor_trianglediamonds.svg	19	yes	57	0	651	0	0			0	0			1				0	
6.6.1	win	2023-06-12	15:28:02	15:40:13	718745	5c560b6fccb08c0001e134a8	4	1	main_z	7	main_z	131	stimuli_distractor_trianglediamonds.svg	stimuli_target_trianglerectangles.svg	25	yes	44	1	1772	0	0			0	0			1				0	
6.6.1	win	2023-06-12	15:28:02	15:40:13	718745	5c560b6fccb08c0001e134a8	4	1	main_z	7	advance_on_keypress_ZEE	132	stimuli_distractor_trianglediamonds.svg	stimuli_target_trianglerectangles.svg	25	yes	57	0	1392	0	0			0	0			1				0	
6.6.1	win	2023-06-12	15:28:02	15:40:16	722032	5c560b6fccb08c0001e134a8	4	1	main_z	7	main_z	133	stimuli_target_rectangletriangles.svg	stimuli_distractor_trianglediamonds.svg	1	yes	44	1	1257	0	0			0	0			1				0	
6.6.1	win	2023-06-12	15:28:02	15:40:16	722032	5c560b6fccb08c0001e134a8	4	1	main_z	7	advance_on_keypress_ZEE	134	stimuli_target_rectangletriangles.svg	stimuli_distractor_trianglediamonds.svg	1	yes	57	0	565	0	0			0	0			1				0	
6.6.1	win	2023-06-12	15:28:02	15:40:18	723947	5c560b6fccb08c0001e134a8	4	1	main_z	7	main_z	135	stimuli_target_diamondrectangles.svg	stimuli_distractor_diamondtriangles.svg	23	yes	44	1	707	0	0			0	0			1				0	
6.6.1	win	2023-06-12	15:28:02	15:40:18	723947	5c560b6fccb08c0001e134a8	4	1	main_z	7	advance_on_keypress_ZEE	136	stimuli_target_diamondrectangles.svg	stimuli_distractor_diamondtriangles.svg	23	yes	57	0	973	0	0			0	0			1				0	
6.6.1	win	2023-06-12	15:28:02	15:40:21	726332	5c560b6fccb08c0001e134a8	4	1	main_z	7	main_z	137	stimuli_target_trianglesquares.svg	stimuli_distractor_trianglediamonds.svg	18	yes	44	1	774	0	0			0	0			1				0	
6.6.1	win	2023-06-12	15:28:02	15:40:21	726332	5c560b6fccb08c0001e134a8	4	1	main_z	7	advance_on_keypress_ZEE	138	stimuli_target_trianglesquares.svg	stimuli_distractor_trianglediamonds.svg	18	yes	57	0	831	0	0			0	0			1				0	
6.6.1	win	2023-06-12	15:28:02	15:40:24	729807	5c560b6fccb08c0001e134a8	4	1	main_z	7	main_z	139	stimuli_distractor_trianglediamonds.svg	stimuli_target_squaretriangles.svg	11	yes	0	0	2000	0	0			0	0			1				0	
6.6.1	win	2023-06-12	15:28:02	15:40:24	729807	5c560b6fccb08c0001e134a8	4	1	main_z	7	advance_on_keypress_ZEE	140	stimuli_distractor_trianglediamonds.svg	stimuli_target_squaretriangles.svg	11	yes	57	0	924	0	0			0	0			1				0	
6.6.1	win	2023-06-12	15:28:02	15:40:26	731929	5c560b6fccb08c0001e134a8	4	1	main_z	7	main_z	141	stimuli_distractor_trianglediamonds.svg	stimuli_target_rectangletriangles.svg	9	yes	44	1	555	0	0			0	0			1				0	
6.6.1	win	2023-06-12	15:28:02	15:40:26	731929	5c560b6fccb08c0001e134a8	4	1	main_z	7	advance_on_keypress_ZEE	142	stimuli_distractor_trianglediamonds.svg	stimuli_target_rectangletriangles.svg	9	yes	57	0	995	0	0			0	0			1				0	
6.6.1	win	2023-06-12	15:28:02	15:40:28	734252	5c560b6fccb08c0001e134a8	4	1	main_z	7	main_z	143	stimuli_distractor_diamondtriangles.svg	stimuli_target_diamondsquares.svg	32	yes	44	1	695	0	0			0	0			1				0	
6.6.1	win	2023-06-12	15:28:02	15:40:28	734252	5c560b6fccb08c0001e134a8	4	1	main_z	7	advance_on_keypress_ZEE	144	stimuli_distractor_diamondtriangles.svg	stimuli_target_diamondsquares.svg	32	yes	57	0	667	0	0			0	0			1				0	
6.6.1	win	2023-06-12	15:28:02	15:40:30	736319	5c560b6fccb08c0001e134a8	4	1	main_z	7	main_z	145	stimuli_distractor_diamondtriangles.svg	stimuli_target_trianglesquares.svg	30	yes	44	1	762	0	0			0	0			1				0	
6.6.1	win	2023-06-12	15:28:02	15:40:30	736319	5c560b6fccb08c0001e134a8	4	1	main_z	7	advance_on_keypress_ZEE	146	stimuli_distractor_diamondtriangles.svg	stimuli_target_trianglesquares.svg	30	yes	57	0	593	0	0			0	0			1				0	
6.6.1	win	2023-06-12	15:28:02	15:40:34	739540	5c560b6fccb08c0001e134a8	4	1	main_z	7	main_z	147	stimuli_distractor_diamondtriangles.svg	stimuli_target_rectanglediamonds.svg	14	yes	0	0	2000	0	0			0	0			1				0	
6.6.1	win	2023-06-12	15:28:02	15:40:34	739540	5c560b6fccb08c0001e134a8	4	1	main_z	7	advance_on_keypress_ZEE	148	stimuli_distractor_diamondtriangles.svg	stimuli_target_rectanglediamonds.svg	14	yes	57	0	880	0	0			0	0			1				0	
6.6.1	win	2023-06-12	15:28:02	15:40:37	743074	5c560b6fccb08c0001e134a8	4	1	main_z	7	main_z	149	stimuli_distractor_trianglediamonds.svg	stimuli_distractor_trianglediamonds.svg	33	no	0	1	2000	0	0			0	0			1				0	
6.6.1	win	2023-06-12	15:28:02	15:40:37	743074	5c560b6fccb08c0001e134a8	4	1	main_z	7	advance_on_keypress_ZEE	150	stimuli_distractor_trianglediamonds.svg	stimuli_distractor_trianglediamonds.svg	33	no	57	0	924	0	0			0	0			1				0	
6.6.1	win	2023-06-12	15:28:02	15:40:40	746251	5c560b6fccb08c0001e134a8	4	1	main_z	7	main_z	151	stimuli_target_trianglerectangles.svg	stimuli_distractor_diamondtriangles.svg	21	yes	44	1	1610	0	0			0	0			1				0	
6.6.1	win	2023-06-12	15:28:02	15:40:40	746251	5c560b6fccb08c0001e134a8	4	1	main_z	7	advance_on_keypress_ZEE	152	stimuli_target_trianglerectangles.svg	stimuli_distractor_diamondtriangles.svg	21	yes	57	0	418	0	0			0	0			1				0	
6.6.1	win	2023-06-12	15:28:02	15:40:42	747940	5c560b6fccb08c0001e134a8	4	1	main_z	7	main_z	153	stimuli_distractor_diamondtriangles.svg	stimuli_target_squaretriangles.svg	15	yes	44	1	633	0	0			0	0			1				0	
6.6.1	win	2023-06-12	15:28:02	15:40:42	747940	5c560b6fccb08c0001e134a8	4	1	main_z	7	advance_on_keypress_ZEE	154	stimuli_distractor_diamondtriangles.svg	stimuli_target_squaretriangles.svg	15	yes	57	0	436	0	0			0	0			1				0	
6.6.1	win	2023-06-12	15:28:02	15:40:44	750144	5c560b6fccb08c0001e134a8	4	1	main_z	7	main_z	155	stimuli_distractor_trianglediamonds.svg	stimuli_distractor_diamondtriangles.svg	36	no	44	0	1120	0	0			0	0			1				0	
6.6.1	win	2023-06-12	15:28:02	15:40:44	750144	5c560b6fccb08c0001e134a8	4	1	main_z	7	advance_on_keypress_ZEE	156	stimuli_distractor_trianglediamonds.svg	stimuli_distractor_diamondtriangles.svg	36	no	57	0	473	0	0			0	0			1				0	
6.6.1	win	2023-06-12	15:28:02	15:40:46	752109	5c560b6fccb08c0001e134a8	4	1	main_z	7	main_z	157	stimuli_distractor_diamondtriangles.svg	stimuli_target_squarediamonds.svg	16	yes	44	1	852	0	0			0	0			1				0	
6.6.1	win	2023-06-12	15:28:02	15:40:46	752109	5c560b6fccb08c0001e134a8	4	1	main_z	7	advance_on_keypress_ZEE	158	stimuli_distractor_diamondtriangles.svg	stimuli_target_squarediamonds.svg	16	yes	57	0	464	0	0			0	0			1				0	
6.6.1	win	2023-06-12	15:28:02	15:40:49	754427	5c560b6fccb08c0001e134a8	4	1	main_z	7	main_z	159	stimuli_distractor_diamondtriangles.svg	stimuli_target_trianglerectangles.svg	29	yes	44	1	1202	0	0			0	0			1				0	
6.6.1	win	2023-06-12	15:28:02	15:40:49	754427	5c560b6fccb08c0001e134a8	4	1	main_z	7	advance_on_keypress_ZEE	160	stimuli_distractor_diamondtriangles.svg	stimuli_target_trianglerectangles.svg	29	yes	57	0	367	0	0			0	0			1				0	
6.6.1	win	2023-06-12	15:28:02	15:41:19	784770	5c560b6fccb08c0001e134a8	4	1	practice_slash	9	practice_slash	1	stimuli_distractor_trianglediamonds.svg	stimuli_target_diamondrectangles.svg	12	yes	53	1	1277	0	0			0	0			1				0	
6.6.1	win	2023-06-12	15:28:02	15:41:19	784770	5c560b6fccb08c0001e134a8	4	1	practice_slash	9	advance_on_keypress_SLASH	2	stimuli_distractor_trianglediamonds.svg	stimuli_target_diamondrectangles.svg	12	yes	57	0	2572	0	0			0	0			1				0	
6.6.1	win	2023-06-12	15:28:02	15:41:24	789586	5c560b6fccb08c0001e134a8	4	1	practice_slash	9	practice_slash	3	stimuli_target_rectanglediamonds.svg	stimuli_distractor_diamondtriangles.svg	1	yes	53	1	610	0	0			0	0			1				0	
6.6.1	win	2023-06-12	15:28:02	15:41:24	789586	5c560b6fccb08c0001e134a8	4	1	practice_slash	9	advance_on_keypress_SLASH	4	stimuli_target_rectanglediamonds.svg	stimuli_distractor_diamondtriangles.svg	1	yes	57	0	358	0	0			0	0			1				0	
6.6.1	win	2023-06-12	15:28:02	15:41:26	791842	5c560b6fccb08c0001e134a8	4	1	practice_slash	9	practice_slash	5	stimuli_target_rectanglediamonds.svg	stimuli_distractor_trianglediamonds.svg	4	yes	53	1	266	0	0			0	0			1				0	
6.6.1	win	2023-06-12	15:28:02	15:41:26	791842	5c560b6fccb08c0001e134a8	4	1	practice_slash	9	advance_on_keypress_SLASH	6	stimuli_target_rectanglediamonds.svg	stimuli_distractor_trianglediamonds.svg	4	yes	57	0	553	0	0			0	0			1				0	
6.6.1	win	2023-06-12	15:28:02	15:41:28	794285	5c560b6fccb08c0001e134a8	4	1	practice_slash	9	practice_slash	7	stimuli_distractor_trianglediamonds.svg	stimuli_target_squarediamonds.svg	11	yes	53	1	242	0	0			0	0			1				0	
6.6.1	win	2023-06-12	15:28:02	15:41:28	794285	5c560b6fccb08c0001e134a8	4	1	practice_slash	9	advance_on_keypress_SLASH	8	stimuli_distractor_trianglediamonds.svg	stimuli_target_squarediamonds.svg	11	yes	57	0	83	0	0			0	0			1				0	
6.6.1	win	2023-06-12	15:28:02	15:41:30	796067	5c560b6fccb08c0001e134a8	4	1	practice_slash	9	practice_slash	9	stimuli_distractor_diamondtriangles.svg	stimuli_target_trianglerectangles.svg	9	yes	53	1	58	0	0			0	0			1				0	
6.6.1	win	2023-06-12	15:28:02	15:41:30	796067	5c560b6fccb08c0001e134a8	4	1	practice_slash	9	advance_on_keypress_SLASH	10	stimuli_distractor_diamondtriangles.svg	stimuli_target_trianglerectangles.svg	9	yes	57	0	282	0	0			0	0			1				0	
6.6.1	win	2023-06-12	15:28:02	15:41:33	799257	5c560b6fccb08c0001e134a8	4	1	practice_slash	9	practice_slash	11	stimuli_target_diamondsquares.svg	stimuli_distractor_diamondtriangles.svg	3	yes	53	1	1264	0	0			0	0			1				0	
6.6.1	win	2023-06-12	15:28:02	15:41:33	799257	5c560b6fccb08c0001e134a8	4	1	practice_slash	9	advance_on_keypress_SLASH	12	stimuli_target_diamondsquares.svg	stimuli_distractor_diamondtriangles.svg	3	yes	57	0	348	0	0			0	0			1				0	
6.6.1	win	2023-06-12	15:28:02	15:41:36	801821	5c560b6fccb08c0001e134a8	4	1	practice_slash	9	practice_slash	13	stimuli_distractor_trianglediamonds.svg	stimuli_target_rectanglediamonds.svg	10	yes	53	1	562	0	0			0	0			1				0	
6.6.1	win	2023-06-12	15:28:02	15:41:36	801821	5c560b6fccb08c0001e134a8	4	1	practice_slash	9	advance_on_keypress_SLASH	14	stimuli_distractor_trianglediamonds.svg	stimuli_target_rectanglediamonds.svg	10	yes	57	0	568	0	0			0	0			1				0	
6.6.1	win	2023-06-12	15:28:02	15:41:39	804610	5c560b6fccb08c0001e134a8	4	1	practice_slash	9	practice_slash	15	stimuli_target_diamondsquares.svg	stimuli_distractor_trianglediamonds.svg	6	yes	53	1	584	0	0			0	0			1				0	
6.6.1	win	2023-06-12	15:28:02	15:41:39	804610	5c560b6fccb08c0001e134a8	4	1	practice_slash	9	advance_on_keypress_SLASH	16	stimuli_target_diamondsquares.svg	stimuli_distractor_trianglediamonds.svg	6	yes	57	0	519	0	0			0	0			1				0	
6.6.1	win	2023-06-12	15:28:02	15:41:41	807183	5c560b6fccb08c0001e134a8	4	1	practice_slash	9	practice_slash	17	stimuli_distractor_trianglediamonds.svg	stimuli_distractor_diamondtriangles.svg	16	no	53	0	408	0	0			0	0			1				0	
6.6.1	win	2023-06-12	15:28:02	15:41:41	807183	5c560b6fccb08c0001e134a8	4	1	practice_slash	9	advance_on_keypress_SLASH	18	stimuli_distractor_trianglediamonds.svg	stimuli_distractor_diamondtriangles.svg	16	no	57	0	416	0	0			0	0			1				0	
6.6.1	win	2023-06-12	15:28:02	15:41:44	809944	5c560b6fccb08c0001e134a8	4	1	practice_slash	9	practice_slash	19	stimuli_target_squarediamonds.svg	stimuli_distractor_diamondtriangles.svg	2	yes	53	1	701	0	0			0	0			1				0	
6.6.1	win	2023-06-12	15:28:02	15:41:44	809944	5c560b6fccb08c0001e134a8	4	1	practice_slash	9	advance_on_keypress_SLASH	20	stimuli_target_squarediamonds.svg	stimuli_distractor_diamondtriangles.svg	2	yes	57	0	711	0	0			0	0			1				0	
6.6.1	win	2023-06-12	15:28:02	15:41:47	812748	5c560b6fccb08c0001e134a8	4	1	practice_slash	9	practice_slash	21	stimuli_distractor_diamondtriangles.svg	stimuli_distractor_trianglediamonds.svg	14	no	53	0	455	0	0			0	0			1				0	
6.6.1	win	2023-06-12	15:28:02	15:41:47	812748	5c560b6fccb08c0001e134a8	4	1	practice_slash	9	advance_on_keypress_SLASH	22	stimuli_distractor_diamondtriangles.svg	stimuli_distractor_trianglediamonds.svg	14	no	57	0	416	0	0			0	0			1				0	
6.6.1	win	2023-06-12	15:28:02	15:41:49	815259	5c560b6fccb08c0001e134a8	4	1	practice_slash	9	practice_slash	23	stimuli_target_squarediamonds.svg	stimuli_distractor_trianglediamonds.svg	5	yes	53	1	448	0	0			0	0			1				0	
6.6.1	win	2023-06-12	15:28:02	15:41:49	815259	5c560b6fccb08c0001e134a8	4	1	practice_slash	9	advance_on_keypress_SLASH	24	stimuli_target_squarediamonds.svg	stimuli_distractor_trianglediamonds.svg	5	yes	57	0	586	0	0			0	0			1				0	
6.6.1	win	2023-06-12	15:28:02	15:41:54	819494	5c560b6fccb08c0001e134a8	4	1	practice_slash	9	practice_slash	25	stimuli_distractor_diamondtriangles.svg	stimuli_distractor_diamondtriangles.svg	13	no	0	1	2000	0	0			0	0			1				0	
6.6.1	win	2023-06-12	15:28:02	15:41:54	819494	5c560b6fccb08c0001e134a8	4	1	practice_slash	9	advance_on_keypress_SLASH	26	stimuli_distractor_diamondtriangles.svg	stimuli_distractor_diamondtriangles.svg	13	no	57	0	652	0	0			0	0			1				0	
6.6.1	win	2023-06-12	15:28:02	15:41:56	822326	5c560b6fccb08c0001e134a8	4	1	practice_slash	9	practice_slash	27	stimuli_distractor_trianglediamonds.svg	stimuli_distractor_trianglediamonds.svg	15	no	53	0	532	0	0			0	0			1				0	
6.6.1	win	2023-06-12	15:28:02	15:41:56	822326	5c560b6fccb08c0001e134a8	4	1	practice_slash	9	advance_on_keypress_SLASH	28	stimuli_distractor_trianglediamonds.svg	stimuli_distractor_trianglediamonds.svg	15	no	57	0	540	0	0			0	0			1				0	
6.6.1	win	2023-06-12	15:28:02	15:41:59	825037	5c560b6fccb08c0001e134a8	4	1	practice_slash	9	practice_slash	29	stimuli_distractor_diamondtriangles.svg	stimuli_target_rectangletriangles.svg	7	yes	53	1	526	0	0			0	0			1				0	
6.6.1	win	2023-06-12	15:28:02	15:41:59	825037	5c560b6fccb08c0001e134a8	4	1	practice_slash	9	advance_on_keypress_SLASH	30	stimuli_distractor_diamondtriangles.svg	stimuli_target_rectangletriangles.svg	7	yes	57	0	516	0	0			0	0			1				0	
6.6.1	win	2023-06-12	15:28:02	15:42:02	827557	5c560b6fccb08c0001e134a8	4	1	practice_slash	9	practice_slash	31	stimuli_distractor_diamondtriangles.svg	stimuli_target_diamondrectangles.svg	8	yes	53	1	363	0	0			0	0			1				0	
6.6.1	win	2023-06-12	15:28:02	15:42:02	827557	5c560b6fccb08c0001e134a8	4	1	practice_slash	9	advance_on_keypress_SLASH	32	stimuli_distractor_diamondtriangles.svg	stimuli_target_diamondrectangles.svg	8	yes	57	0	644	0	0			0	0			1				0	
6.6.1	win	2023-06-12	15:28:02	15:42:17	842778	5c560b6fccb08c0001e134a8	4	1	main_slash	11	main_slash	1	stimuli_distractor_diamondtriangles.svg	stimuli_target_diamondrectangles.svg	31	yes	53	1	718	0	0			0	0			1				0	
6.6.1	win	2023-06-12	15:28:02	15:42:17	842778	5c560b6fccb08c0001e134a8	4	1	main_slash	11	advance_on_keypress_SLASH	2	stimuli_distractor_diamondtriangles.svg	stimuli_target_diamondrectangles.svg	31	yes	57	0	815	0	0			0	0			1				0	
6.6.1	win	2023-06-12	15:28:02	15:42:20	845378	5c560b6fccb08c0001e134a8	4	1	main_slash	11	main_slash	3	stimuli_distractor_diamondtriangles.svg	stimuli_distractor_trianglediamonds.svg	37	no	53	0	1135	0	0			0	0			1				0	
6.6.1	win	2023-06-12	15:28:02	15:42:20	845378	5c560b6fccb08c0001e134a8	4	1	main_slash	11	advance_on_keypress_SLASH	4	stimuli_distractor_diamondtriangles.svg	stimuli_distractor_trianglediamonds.svg	37	no	57	0	523	0	0			0	0			1				0	
6.6.1	win	2023-06-12	15:28:02	15:42:22	847680	5c560b6fccb08c0001e134a8	4	1	main_slash	11	main_slash	5	stimuli_distractor_trianglediamonds.svg	stimuli_distractor_diamondtriangles.svg	35	no	53	0	1137	0	0			0	0			1				0	
6.6.1	win	2023-06-12	15:28:02	15:42:22	847680	5c560b6fccb08c0001e134a8	4	1	main_slash	11	advance_on_keypress_SLASH	6	stimuli_distractor_trianglediamonds.svg	stimuli_distractor_diamondtriangles.svg	35	no	57	0	544	0	0			0	0			1				0	
6.6.1	win	2023-06-12	15:28:02	15:42:24	849533	5c560b6fccb08c0001e134a8	4	1	main_slash	11	main_slash	7	stimuli_target_trianglesquares.svg	stimuli_distractor_diamondtriangles.svg	22	yes	53	1	674	0	0			0	0			1				0	
6.6.1	win	2023-06-12	15:28:02	15:42:24	849533	5c560b6fccb08c0001e134a8	4	1	main_slash	11	advance_on_keypress_SLASH	8	stimuli_target_trianglesquares.svg	stimuli_distractor_diamondtriangles.svg	22	yes	57	0	592	0	0			0	0			1				0	
6.6.1	win	2023-06-12	15:28:02	15:42:25	851119	5c560b6fccb08c0001e134a8	4	1	main_slash	11	main_slash	9	stimuli_target_squaretriangles.svg	stimuli_distractor_diamondtriangles.svg	7	yes	53	1	359	0	0			0	0			1				0	
6.6.1	win	2023-06-12	15:28:02	15:42:25	851119	5c560b6fccb08c0001e134a8	4	1	main_slash	11	advance_on_keypress_SLASH	10	stimuli_target_squaretriangles.svg	stimuli_distractor_diamondtriangles.svg	7	yes	57	0	628	0	0			0	0			1				0	
6.6.1	win	2023-06-12	15:28:02	15:42:27	852735	5c560b6fccb08c0001e134a8	4	1	main_slash	11	main_slash	11	stimuli_target_trianglerectangles.svg	stimuli_distractor_diamondtriangles.svg	21	yes	53	1	359	0	0			0	0			1				0	
6.6.1	win	2023-06-12	15:28:02	15:42:27	852735	5c560b6fccb08c0001e134a8	4	1	main_slash	11	advance_on_keypress_SLASH	12	stimuli_target_trianglerectangles.svg	stimuli_distractor_diamondtriangles.svg	21	yes	57	0	659	0	0			0	0			1				0	
6.6.1	win	2023-06-12	15:28:02	15:42:29	854382	5c560b6fccb08c0001e134a8	4	1	main_slash	11	main_slash	13	stimuli_distractor_trianglediamonds.svg	stimuli_target_rectangletriangles.svg	9	yes	53	1	356	0	0			0	0			1				0	
6.6.1	win	2023-06-12	15:28:02	15:42:29	854382	5c560b6fccb08c0001e134a8	4	1	main_slash	11	advance_on_keypress_SLASH	14	stimuli_distractor_trianglediamonds.svg	stimuli_target_rectangletriangles.svg	9	yes	57	0	470	0	0			0	0			1				0	
6.6.1	win	2023-06-12	15:28:02	15:42:30	855790	5c560b6fccb08c0001e134a8	4	1	main_slash	11	main_slash	15	stimuli_distractor_trianglediamonds.svg	stimuli_target_trianglesquares.svg	26	yes	53	1	297	0	0			0	0			1				0	
6.6.1	win	2023-06-12	15:28:02	15:42:30	855790	5c560b6fccb08c0001e134a8	4	1	main_slash	11	advance_on_keypress_SLASH	16	stimuli_distractor_trianglediamonds.svg	stimuli_target_trianglesquares.svg	26	yes	57	0	625	0	0			0	0			1				0	
6.6.1	win	2023-06-12	15:28:02	15:42:32	857325	5c560b6fccb08c0001e134a8	4	1	main_slash	11	main_slash	17	stimuli_distractor_trianglediamonds.svg	stimuli_target_trianglerectangles.svg	25	yes	53	1	265	0	0			0	0			1				0	
6.6.1	win	2023-06-12	15:28:02	15:42:32	857325	5c560b6fccb08c0001e134a8	4	1	main_slash	11	advance_on_keypress_SLASH	18	stimuli_distractor_trianglediamonds.svg	stimuli_target_trianglerectangles.svg	25	yes	57	0	804	0	0			0	0			1				0	
6.6.1	win	2023-06-12	15:28:02	15:42:33	858986	5c560b6fccb08c0001e134a8	4	1	main_slash	11	main_slash	19	stimuli_distractor_diamondtriangles.svg	stimuli_distractor_diamondtriangles.svg	40	no	53	0	209	0	0			0	0			1				0	
6.6.1	win	2023-06-12	15:28:02	15:42:33	858986	5c560b6fccb08c0001e134a8	4	1	main_slash	11	advance_on_keypress_SLASH	20	stimuli_distractor_diamondtriangles.svg	stimuli_distractor_diamondtriangles.svg	40	no	57	0	682	0	0			0	0			1				0	
6.6.1	win	2023-06-12	15:28:02	15:42:35	860684	5c560b6fccb08c0001e134a8	4	1	main_slash	11	main_slash	21	stimuli_target_squarediamonds.svg	stimuli_distractor_trianglediamonds.svg	4	yes	53	1	374	0	0			0	0			1				0	
6.6.1	win	2023-06-12	15:28:02	15:42:35	860684	5c560b6fccb08c0001e134a8	4	1	main_slash	11	advance_on_keypress_SLASH	22	stimuli_target_squarediamonds.svg	stimuli_distractor_trianglediamonds.svg	4	yes	57	0	75	0	0			0	0			1				0	
6.6.1	win	2023-06-12	15:28:02	15:42:36	861814	5c560b6fccb08c0001e134a8	4	1	main_slash	11	main_slash	23	stimuli_target_squarediamonds.svg	stimuli_distractor_diamondtriangles.svg	8	yes	53	1	421	0	0			0	0			1				0	
6.6.1	win	2023-06-12	15:28:02	15:42:36	861814	5c560b6fccb08c0001e134a8	4	1	main_slash	11	advance_on_keypress_SLASH	24	stimuli_target_squarediamonds.svg	stimuli_distractor_diamondtriangles.svg	8	yes	57	0	599	0	0			0	0			1				0	
6.6.1	win	2023-06-12	15:28:02	15:42:38	863387	5c560b6fccb08c0001e134a8	4	1	main_slash	11	main_slash	25	stimuli_target_diamondrectangles.svg	stimuli_distractor_diamondtriangles.svg	23	yes	53	1	327	0	0			0	0			1				0	
6.6.1	win	2023-06-12	15:28:02	15:42:38	863387	5c560b6fccb08c0001e134a8	4	1	main_slash	11	advance_on_keypress_SLASH	26	stimuli_target_diamondrectangles.svg	stimuli_distractor_diamondtriangles.svg	23	yes	57	0	648	0	0			0	0			1				0	
6.6.1	win	2023-06-12	15:28:02	15:42:39	864931	5c560b6fccb08c0001e134a8	4	1	main_slash	11	main_slash	27	stimuli_distractor_trianglediamonds.svg	stimuli_distractor_trianglediamonds.svg	33	no	53	0	254	0	0			0	0			1				0	
6.6.1	win	2023-06-12	15:28:02	15:42:39	864931	5c560b6fccb08c0001e134a8	4	1	main_slash	11	advance_on_keypress_SLASH	28	stimuli_distractor_trianglediamonds.svg	stimuli_distractor_trianglediamonds.svg	33	no	57	0	597	0	0			0	0			1				0	
6.6.1	win	2023-06-12	15:28:02	15:42:41	866474	5c560b6fccb08c0001e134a8	4	1	main_slash	11	main_slash	29	stimuli_distractor_trianglediamonds.svg	stimuli_target_diamondrectangles.svg	27	yes	53	1	297	0	0			0	0			1				0	
6.6.1	win	2023-06-12	15:28:02	15:42:41	866474	5c560b6fccb08c0001e134a8	4	1	main_slash	11	advance_on_keypress_SLASH	30	stimuli_distractor_trianglediamonds.svg	stimuli_target_diamondrectangles.svg	27	yes	57	0	988	0	0			0	0			1				0	
6.6.1	win	2023-06-12	15:28:02	15:42:44	870110	5c560b6fccb08c0001e134a8	4	1	main_slash	11	main_slash	31	stimuli_distractor_diamondtriangles.svg	stimuli_target_trianglesquares.svg	30	yes	0	0	2000	0	0			0	0			1				0	
6.6.1	win	2023-06-12	15:28:02	15:42:44	870110	5c560b6fccb08c0001e134a8	4	1	main_slash	11	advance_on_keypress_SLASH	32	stimuli_distractor_diamondtriangles.svg	stimuli_target_trianglesquares.svg	30	yes	57	0	734	0	0			0	0			1				0	
6.6.1	win	2023-06-12	15:28:02	15:42:46	871781	5c560b6fccb08c0001e134a8	4	1	main_slash	11	main_slash	33	stimuli_distractor_diamondtriangles.svg	stimuli_target_rectangletriangles.svg	13	yes	53	1	288	0	0			0	0			1				0	
6.6.1	win	2023-06-12	15:28:02	15:42:46	871781	5c560b6fccb08c0001e134a8	4	1	main_slash	11	advance_on_keypress_SLASH	34	stimuli_distractor_diamondtriangles.svg	stimuli_target_rectangletriangles.svg	13	yes	57	0	616	0	0			0	0			1				0	
6.6.1	win	2023-06-12	15:28:02	15:42:48	873409	5c560b6fccb08c0001e134a8	4	1	main_slash	11	main_slash	35	stimuli_distractor_diamondtriangles.svg	stimuli_distractor_diamondtriangles.svg	39	no	53	0	366	0	0			0	0			1				0	
6.6.1	win	2023-06-12	15:28:02	15:42:48	873409	5c560b6fccb08c0001e134a8	4	1	main_slash	11	advance_on_keypress_SLASH	36	stimuli_distractor_diamondtriangles.svg	stimuli_distractor_diamondtriangles.svg	39	no	57	0	706	0	0			0	0			1				0	
6.6.1	win	2023-06-12	15:28:02	15:42:49	875096	5c560b6fccb08c0001e134a8	4	1	main_slash	11	main_slash	37	stimuli_target_diamondsquares.svg	stimuli_distractor_trianglediamonds.svg	20	yes	53	1	336	0	0			0	0			1				0	
6.6.1	win	2023-06-12	15:28:02	15:42:49	875096	5c560b6fccb08c0001e134a8	4	1	main_slash	11	advance_on_keypress_SLASH	38	stimuli_target_diamondsquares.svg	stimuli_distractor_trianglediamonds.svg	20	yes	57	0	1870	0	0			0	0			1				0	
6.6.1	win	2023-06-12	15:28:02	15:42:52	878123	5c560b6fccb08c0001e134a8	4	1	main_slash	11	main_slash	39	stimuli_target_diamondsquares.svg	stimuli_distractor_diamondtriangles.svg	24	yes	53	1	513	0	0			0	0			1				0	
6.6.1	win	2023-06-12	15:28:02	15:42:52	878123	5c560b6fccb08c0001e134a8	4	1	main_slash	11	advance_on_keypress_SLASH	40	stimuli_target_diamondsquares.svg	stimuli_distractor_diamondtriangles.svg	24	yes	57	0	545	0	0			0	0			1				0	
6.6.1	win	2023-06-12	15:28:02	15:42:54	879548	5c560b6fccb08c0001e134a8	4	1	main_slash	11	main_slash	41	stimuli_distractor_trianglediamonds.svg	stimuli_distractor_diamondtriangles.svg	36	no	53	0	255	0	0			0	0			1				0	
6.6.1	win	2023-06-12	15:28:02	15:42:54	879548	5c560b6fccb08c0001e134a8	4	1	main_slash	11	advance_on_keypress_SLASH	42	stimuli_distractor_trianglediamonds.svg	stimuli_distractor_diamondtriangles.svg	36	no	57	0	577	0	0			0	0			1				0	
6.6.1	win	2023-06-12	15:28:02	15:42:55	880953	5c560b6fccb08c0001e134a8	4	1	main_slash	11	main_slash	43	stimuli_distractor_trianglediamonds.svg	stimuli_distractor_trianglediamonds.svg	34	no	53	0	193	0	0			0	0			1				0	
6.6.1	win	2023-06-12	15:28:02	15:42:55	880953	5c560b6fccb08c0001e134a8	4	1	main_slash	11	advance_on_keypress_SLASH	44	stimuli_distractor_trianglediamonds.svg	stimuli_distractor_trianglediamonds.svg	34	no	57	0	447	0	0			0	0			1				0	
6.6.1	win	2023-06-12	15:28:02	15:42:56	882269	5c560b6fccb08c0001e134a8	4	1	main_slash	11	main_slash	45	stimuli_distractor_trianglediamonds.svg	stimuli_target_diamondsquares.svg	28	yes	53	1	242	0	0			0	0			1				0	
6.6.1	win	2023-06-12	15:28:02	15:42:56	882269	5c560b6fccb08c0001e134a8	4	1	main_slash	11	advance_on_keypress_SLASH	46	stimuli_distractor_trianglediamonds.svg	stimuli_target_diamondsquares.svg	28	yes	57	0	425	0	0			0	0			1				0	
6.6.1	win	2023-06-12	15:28:02	15:42:58	883613	5c560b6fccb08c0001e134a8	4	1	main_slash	11	main_slash	47	stimuli_distractor_diamondtriangles.svg	stimuli_target_diamondsquares.svg	32	yes	53	1	286	0	0			0	0			1				0	
6.6.1	win	2023-06-12	15:28:02	15:42:58	883613	5c560b6fccb08c0001e134a8	4	1	main_slash	11	advance_on_keypress_SLASH	48	stimuli_distractor_diamondtriangles.svg	stimuli_target_diamondsquares.svg	32	yes	57	0	641	0	0			0	0			1				0	
6.6.1	win	2023-06-12	15:28:02	15:43:01	886366	5c560b6fccb08c0001e134a8	4	1	main_slash	11	main_slash	49	stimuli_distractor_diamondtriangles.svg	stimuli_target_trianglerectangles.svg	29	yes	53	1	1472	0	0			0	0			1				0	
6.6.1	win	2023-06-12	15:28:02	15:43:01	886366	5c560b6fccb08c0001e134a8	4	1	main_slash	11	advance_on_keypress_SLASH	50	stimuli_distractor_diamondtriangles.svg	stimuli_target_trianglerectangles.svg	29	yes	57	0	486	0	0			0	0			1				0	
6.6.1	win	2023-06-12	15:28:02	15:43:02	887673	5c560b6fccb08c0001e134a8	4	1	main_slash	11	main_slash	51	stimuli_target_diamondrectangles.svg	stimuli_distractor_trianglediamonds.svg	19	yes	53	1	179	0	0			0	0			1				0	
6.6.1	win	2023-06-12	15:28:02	15:43:02	887673	5c560b6fccb08c0001e134a8	4	1	main_slash	11	advance_on_keypress_SLASH	52	stimuli_target_diamondrectangles.svg	stimuli_distractor_trianglediamonds.svg	19	yes	57	0	572	0	0			0	0			1				0	
6.6.1	win	2023-06-12	15:28:02	15:43:04	889886	5c560b6fccb08c0001e134a8	4	1	main_slash	11	main_slash	53	stimuli_target_trianglerectangles.svg	stimuli_distractor_trianglediamonds.svg	17	yes	53	1	1009	0	0			0	0			1				0	
6.6.1	win	2023-06-12	15:28:02	15:43:04	889886	5c560b6fccb08c0001e134a8	4	1	main_slash	11	advance_on_keypress_SLASH	54	stimuli_target_trianglerectangles.svg	stimuli_distractor_trianglediamonds.svg	17	yes	57	0	941	0	0			0	0			1				0	
6.6.1	win	2023-06-12	15:28:02	15:43:06	892257	5c560b6fccb08c0001e134a8	4	1	main_slash	11	main_slash	55	stimuli_distractor_trianglediamonds.svg	stimuli_target_rectanglediamonds.svg	10	yes	53	1	797	0	0			0	0			1				0	
6.6.1	win	2023-06-12	15:28:02	15:43:06	892257	5c560b6fccb08c0001e134a8	4	1	main_slash	11	advance_on_keypress_SLASH	56	stimuli_distractor_trianglediamonds.svg	stimuli_target_rectanglediamonds.svg	10	yes	57	0	852	0	0			0	0			1				0	
6.6.1	win	2023-06-12	15:28:02	15:43:09	894738	5c560b6fccb08c0001e134a8	4	1	main_slash	11	main_slash	57	stimuli_target_rectanglediamonds.svg	stimuli_distractor_diamondtriangles.svg	6	yes	53	1	993	0	0			0	0			1				0	
6.6.1	win	2023-06-12	15:28:02	15:43:09	894738	5c560b6fccb08c0001e134a8	4	1	main_slash	11	advance_on_keypress_SLASH	58	stimuli_target_rectanglediamonds.svg	stimuli_distractor_diamondtriangles.svg	6	yes	57	0	1184	0	0			0	0			1				0	
6.6.1	win	2023-06-12	15:28:02	15:43:11	897118	5c560b6fccb08c0001e134a8	4	1	main_slash	11	main_slash	59	stimuli_distractor_diamondtriangles.svg	stimuli_target_squarediamonds.svg	16	yes	53	1	557	0	0			0	0			1				0	
6.6.1	win	2023-06-12	15:28:02	15:43:11	897118	5c560b6fccb08c0001e134a8	4	1	main_slash	11	advance_on_keypress_SLASH	60	stimuli_distractor_diamondtriangles.svg	stimuli_target_squarediamonds.svg	16	yes	57	0	609	0	0			0	0			1				0	
6.6.1	win	2023-06-12	15:28:02	15:43:13	899063	5c560b6fccb08c0001e134a8	4	1	main_slash	11	main_slash	61	stimuli_distractor_diamondtriangles.svg	stimuli_target_squaretriangles.svg	15	yes	53	1	702	0	0			0	0			1				0	
6.6.1	win	2023-06-12	15:28:02	15:43:13	899063	5c560b6fccb08c0001e134a8	4	1	main_slash	11	advance_on_keypress_SLASH	62	stimuli_distractor_diamondtriangles.svg	stimuli_target_squaretriangles.svg	15	yes	57	0	549	0	0			0	0			1				0	
6.6.1	win	2023-06-12	15:28:02	15:43:15	901003	5c560b6fccb08c0001e134a8	4	1	main_slash	11	main_slash	63	stimuli_target_trianglesquares.svg	stimuli_distractor_trianglediamonds.svg	18	yes	53	1	741	0	0			0	0			1				0	
6.6.1	win	2023-06-12	15:28:02	15:43:15	901003	5c560b6fccb08c0001e134a8	4	1	main_slash	11	advance_on_keypress_SLASH	64	stimuli_target_trianglesquares.svg	stimuli_distractor_trianglediamonds.svg	18	yes	57	0	667	0	0			0	0			1				0	
6.6.1	win	2023-06-12	15:28:02	15:43:17	902621	5c560b6fccb08c0001e134a8	4	1	main_slash	11	main_slash	65	stimuli_target_squaretriangles.svg	stimuli_distractor_trianglediamonds.svg	3	yes	53	1	310	0	0			0	0			1				0	
6.6.1	win	2023-06-12	15:28:02	15:43:17	902621	5c560b6fccb08c0001e134a8	4	1	main_slash	11	advance_on_keypress_SLASH	66	stimuli_target_squaretriangles.svg	stimuli_distractor_trianglediamonds.svg	3	yes	57	0	650	0	0			0	0			1				0	
6.6.1	win	2023-06-12	15:28:02	15:43:18	904224	5c560b6fccb08c0001e134a8	4	1	main_slash	11	main_slash	67	stimuli_distractor_trianglediamonds.svg	stimuli_target_squarediamonds.svg	12	yes	53	1	312	0	0			0	0			1				0	
6.6.1	win	2023-06-12	15:28:02	15:43:18	904224	5c560b6fccb08c0001e134a8	4	1	main_slash	11	advance_on_keypress_SLASH	68	stimuli_distractor_trianglediamonds.svg	stimuli_target_squarediamonds.svg	12	yes	57	0	581	0	0			0	0			1				0	
6.6.1	win	2023-06-12	15:28:02	15:43:20	905641	5c560b6fccb08c0001e134a8	4	1	main_slash	11	main_slash	69	stimuli_distractor_diamondtriangles.svg	stimuli_target_rectanglediamonds.svg	14	yes	53	1	197	0	0			0	0			1				0	
6.6.1	win	2023-06-12	15:28:02	15:43:20	905641	5c560b6fccb08c0001e134a8	4	1	main_slash	11	advance_on_keypress_SLASH	70	stimuli_distractor_diamondtriangles.svg	stimuli_target_rectanglediamonds.svg	14	yes	57	0	959	0	0			0	0			1				0	
6.6.1	win	2023-06-12	15:28:02	15:43:22	907585	5c560b6fccb08c0001e134a8	4	1	main_slash	11	main_slash	71	stimuli_target_rectangletriangles.svg	stimuli_distractor_diamondtriangles.svg	5	yes	53	1	340	0	0			0	0			1				0	
6.6.1	win	2023-06-12	15:28:02	15:43:22	907585	5c560b6fccb08c0001e134a8	4	1	main_slash	11	advance_on_keypress_SLASH	72	stimuli_target_rectangletriangles.svg	stimuli_distractor_diamondtriangles.svg	5	yes	57	0	562	0	0			0	0			1				0	
6.6.1	win	2023-06-12	15:28:02	15:43:23	909088	5c560b6fccb08c0001e134a8	4	1	main_slash	11	main_slash	73	stimuli_distractor_trianglediamonds.svg	stimuli_target_squaretriangles.svg	11	yes	53	1	311	0	0			0	0			1				0	
6.6.1	win	2023-06-12	15:28:02	15:43:23	909088	5c560b6fccb08c0001e134a8	4	1	main_slash	11	advance_on_keypress_SLASH	74	stimuli_distractor_trianglediamonds.svg	stimuli_target_squaretriangles.svg	11	yes	57	0	526	0	0			0	0			1				0	
6.6.1	win	2023-06-12	15:28:02	15:43:25	910527	5c560b6fccb08c0001e134a8	4	1	main_slash	11	main_slash	75	stimuli_target_rectanglediamonds.svg	stimuli_distractor_trianglediamonds.svg	2	yes	53	1	283	0	0			0	0			1				0	
6.6.1	win	2023-06-12	15:28:02	15:43:25	910527	5c560b6fccb08c0001e134a8	4	1	main_slash	11	advance_on_keypress_SLASH	76	stimuli_target_rectanglediamonds.svg	stimuli_distractor_trianglediamonds.svg	2	yes	57	0	485	0	0			0	0			1				0	
6.6.1	win	2023-06-12	15:28:02	15:43:26	911959	5c560b6fccb08c0001e134a8	4	1	main_slash	11	main_slash	77	stimuli_distractor_diamondtriangles.svg	stimuli_distractor_trianglediamonds.svg	38	no	53	0	298	0	0			0	0			1				0	
6.6.1	win	2023-06-12	15:28:02	15:43:26	911959	5c560b6fccb08c0001e134a8	4	1	main_slash	11	advance_on_keypress_SLASH	78	stimuli_distractor_diamondtriangles.svg	stimuli_distractor_trianglediamonds.svg	38	no	57	0	443	0	0			0	0			1				0	
6.6.1	win	2023-06-12	15:28:02	15:43:27	913300	5c560b6fccb08c0001e134a8	4	1	main_slash	11	main_slash	79	stimuli_target_rectangletriangles.svg	stimuli_distractor_trianglediamonds.svg	1	yes	53	1	256	0	0			0	0			1				0	
6.6.1	win	2023-06-12	15:28:02	15:43:27	913300	5c560b6fccb08c0001e134a8	4	1	main_slash	11	advance_on_keypress_SLASH	80	stimuli_target_rectangletriangles.svg	stimuli_distractor_trianglediamonds.svg	1	yes	57	0	442	0	0			0	0			1				0	
6.6.1	win	2023-06-12	15:28:02	15:43:29	914649	5c560b6fccb08c0001e134a8	4	1	main_slash	11	main_slash	81	stimuli_distractor_diamondtriangles.svg	stimuli_target_diamondsquares.svg	32	yes	53	1	272	0	0			0	0			1				0	
6.6.1	win	2023-06-12	15:28:02	15:43:29	914649	5c560b6fccb08c0001e134a8	4	1	main_slash	11	advance_on_keypress_SLASH	82	stimuli_distractor_diamondtriangles.svg	stimuli_target_diamondsquares.svg	32	yes	57	0	344	0	0			0	0			1				0	
6.6.1	win	2023-06-12	15:28:02	15:43:30	915983	5c560b6fccb08c0001e134a8	4	1	main_slash	11	main_slash	83	stimuli_target_diamondsquares.svg	stimuli_distractor_trianglediamonds.svg	20	yes	53	1	355	0	0			0	0			1				0	
6.6.1	win	2023-06-12	15:28:02	15:43:30	915983	5c560b6fccb08c0001e134a8	4	1	main_slash	11	advance_on_keypress_SLASH	84	stimuli_target_diamondsquares.svg	stimuli_distractor_trianglediamonds.svg	20	yes	57	0	612	0	0			0	0			1				0	
6.6.1	win	2023-06-12	15:28:02	15:43:32	917901	5c560b6fccb08c0001e134a8	4	1	main_slash	11	main_slash	85	stimuli_distractor_trianglediamonds.svg	stimuli_target_rectangletriangles.svg	9	yes	53	1	673	0	0			0	0			1				0	
6.6.1	win	2023-06-12	15:28:02	15:43:32	917901	5c560b6fccb08c0001e134a8	4	1	main_slash	11	advance_on_keypress_SLASH	86	stimuli_distractor_trianglediamonds.svg	stimuli_target_rectangletriangles.svg	9	yes	57	0	555	0	0			0	0			1				0	
6.6.1	win	2023-06-12	15:28:02	15:43:34	919683	5c560b6fccb08c0001e134a8	4	1	main_slash	11	main_slash	87	stimuli_target_squaretriangles.svg	stimuli_distractor_trianglediamonds.svg	3	yes	53	1	588	0	0			0	0			1				0	
6.6.1	win	2023-06-12	15:28:02	15:43:34	919683	5c560b6fccb08c0001e134a8	4	1	main_slash	11	advance_on_keypress_SLASH	88	stimuli_target_squaretriangles.svg	stimuli_distractor_trianglediamonds.svg	3	yes	57	0	572	0	0			0	0			1				0	
6.6.1	win	2023-06-12	15:28:02	15:43:35	921216	5c560b6fccb08c0001e134a8	4	1	main_slash	11	main_slash	89	stimuli_distractor_trianglediamonds.svg	stimuli_target_rectanglediamonds.svg	10	yes	53	1	322	0	0			0	0			1				0	
6.6.1	win	2023-06-12	15:28:02	15:43:35	921216	5c560b6fccb08c0001e134a8	4	1	main_slash	11	advance_on_keypress_SLASH	90	stimuli_distractor_trianglediamonds.svg	stimuli_target_rectanglediamonds.svg	10	yes	57	0	447	0	0			0	0			1				0	
6.6.1	win	2023-06-12	15:28:02	15:43:37	922655	5c560b6fccb08c0001e134a8	4	1	main_slash	11	main_slash	91	stimuli_target_squaretriangles.svg	stimuli_distractor_diamondtriangles.svg	7	yes	53	1	344	0	0			0	0			1				0	
6.6.1	win	2023-06-12	15:28:02	15:43:37	922655	5c560b6fccb08c0001e134a8	4	1	main_slash	11	advance_on_keypress_SLASH	92	stimuli_target_squaretriangles.svg	stimuli_distractor_diamondtriangles.svg	7	yes	57	0	522	0	0			0	0			1				0	
6.6.1	win	2023-06-12	15:28:02	15:43:38	924113	5c560b6fccb08c0001e134a8	4	1	main_slash	11	main_slash	93	stimuli_target_squarediamonds.svg	stimuli_distractor_trianglediamonds.svg	4	yes	53	1	301	0	0			0	0			1				0	
6.6.1	win	2023-06-12	15:28:02	15:43:38	924113	5c560b6fccb08c0001e134a8	4	1	main_slash	11	advance_on_keypress_SLASH	94	stimuli_target_squarediamonds.svg	stimuli_distractor_trianglediamonds.svg	4	yes	57	0	589	0	0			0	0			1				0	
6.6.1	win	2023-06-12	15:28:02	15:43:40	925651	5c560b6fccb08c0001e134a8	4	1	main_slash	11	main_slash	95	stimuli_distractor_trianglediamonds.svg	stimuli_distractor_diamondtriangles.svg	36	no	53	0	305	0	0			0	0			1				0	
6.6.1	win	2023-06-12	15:28:02	15:43:40	925651	5c560b6fccb08c0001e134a8	4	1	main_slash	11	advance_on_keypress_SLASH	96	stimuli_distractor_trianglediamonds.svg	stimuli_distractor_diamondtriangles.svg	36	no	57	0	967	0	0			0	0			1				0	
6.6.1	win	2023-06-12	15:28:02	15:43:42	927604	5c560b6fccb08c0001e134a8	4	1	main_slash	11	main_slash	97	stimuli_target_diamondrectangles.svg	stimuli_distractor_diamondtriangles.svg	23	yes	53	1	341	0	0			0	0			1				0	
6.6.1	win	2023-06-12	15:28:02	15:43:42	927604	5c560b6fccb08c0001e134a8	4	1	main_slash	11	advance_on_keypress_SLASH	98	stimuli_target_diamondrectangles.svg	stimuli_distractor_diamondtriangles.svg	23	yes	57	0	912	0	0			0	0			1				0	
6.6.1	win	2023-06-12	15:28:02	15:43:43	929302	5c560b6fccb08c0001e134a8	4	1	main_slash	11	main_slash	99	stimuli_target_rectangletriangles.svg	stimuli_distractor_trianglediamonds.svg	1	yes	53	1	157	0	0			0	0			1				0	
6.6.1	win	2023-06-12	15:28:02	15:43:43	929302	5c560b6fccb08c0001e134a8	4	1	main_slash	11	advance_on_keypress_SLASH	100	stimuli_target_rectangletriangles.svg	stimuli_distractor_trianglediamonds.svg	1	yes	57	0	640	0	0			0	0			1				0	
6.6.1	win	2023-06-12	15:28:02	15:43:45	930954	5c560b6fccb08c0001e134a8	4	1	main_slash	11	main_slash	101	stimuli_target_diamondsquares.svg	stimuli_distractor_diamondtriangles.svg	24	yes	53	1	376	0	0			0	0			1				0	
6.6.1	win	2023-06-12	15:28:02	15:43:45	930954	5c560b6fccb08c0001e134a8	4	1	main_slash	11	advance_on_keypress_SLASH	102	stimuli_target_diamondsquares.svg	stimuli_distractor_diamondtriangles.svg	24	yes	57	0	965	0	0			0	0			1				0	
6.6.1	win	2023-06-12	15:28:02	15:43:47	933103	5c560b6fccb08c0001e134a8	4	1	main_slash	11	main_slash	103	stimuli_distractor_diamondtriangles.svg	stimuli_target_rectanglediamonds.svg	14	yes	53	1	540	0	0			0	0			1				0	
6.6.1	win	2023-06-12	15:28:02	15:43:47	933103	5c560b6fccb08c0001e134a8	4	1	main_slash	11	advance_on_keypress_SLASH	104	stimuli_distractor_diamondtriangles.svg	stimuli_target_rectanglediamonds.svg	14	yes	57	0	550	0	0			0	0			1				0	
6.6.1	win	2023-06-12	15:28:02	15:43:49	934514	5c560b6fccb08c0001e134a8	4	1	main_slash	11	main_slash	105	stimuli_distractor_diamondtriangles.svg	stimuli_distractor_trianglediamonds.svg	38	no	53	0	219	0	0			0	0			1				0	
6.6.1	win	2023-06-12	15:28:02	15:43:49	934514	5c560b6fccb08c0001e134a8	4	1	main_slash	11	advance_on_keypress_SLASH	106	stimuli_distractor_diamondtriangles.svg	stimuli_distractor_trianglediamonds.svg	38	no	57	0	849	0	0			0	0			1				0	
6.6.1	win	2023-06-12	15:28:02	15:43:51	936365	5c560b6fccb08c0001e134a8	4	1	main_slash	11	main_slash	107	stimuli_distractor_trianglediamonds.svg	stimuli_target_squarediamonds.svg	12	yes	53	1	354	0	0			0	0			1				0	
6.6.1	win	2023-06-12	15:28:02	15:43:51	936365	5c560b6fccb08c0001e134a8	4	1	main_slash	11	advance_on_keypress_SLASH	108	stimuli_distractor_trianglediamonds.svg	stimuli_target_squarediamonds.svg	12	yes	57	0	560	0	0			0	0			1				0	
6.6.1	win	2023-06-12	15:28:02	15:43:52	937780	5c560b6fccb08c0001e134a8	4	1	main_slash	11	main_slash	109	stimuli_target_trianglerectangles.svg	stimuli_distractor_trianglediamonds.svg	17	yes	53	1	218	0	0			0	0			1				0	
6.6.1	win	2023-06-12	15:28:02	15:43:52	937780	5c560b6fccb08c0001e134a8	4	1	main_slash	11	advance_on_keypress_SLASH	110	stimuli_target_trianglerectangles.svg	stimuli_distractor_trianglediamonds.svg	17	yes	57	0	1108	0	0			0	0			1				0	
6.6.1	win	2023-06-12	15:28:02	15:43:54	939875	5c560b6fccb08c0001e134a8	4	1	main_slash	11	main_slash	111	stimuli_target_rectangletriangles.svg	stimuli_distractor_diamondtriangles.svg	5	yes	53	1	347	0	0			0	0			1				0	
6.6.1	win	2023-06-12	15:28:02	15:43:54	939875	5c560b6fccb08c0001e134a8	4	1	main_slash	11	advance_on_keypress_SLASH	112	stimuli_target_rectangletriangles.svg	stimuli_distractor_diamondtriangles.svg	5	yes	57	0	394	0	0			0	0			1				0	
6.6.1	win	2023-06-12	15:28:02	15:43:55	941191	5c560b6fccb08c0001e134a8	4	1	main_slash	11	main_slash	113	stimuli_target_trianglerectangles.svg	stimuli_distractor_diamondtriangles.svg	21	yes	53	1	296	0	0			0	0			1				0	
6.6.1	win	2023-06-12	15:28:02	15:43:55	941191	5c560b6fccb08c0001e134a8	4	1	main_slash	11	advance_on_keypress_SLASH	114	stimuli_target_trianglerectangles.svg	stimuli_distractor_diamondtriangles.svg	21	yes	57	0	458	0	0			0	0			1				0	
6.6.1	win	2023-06-12	15:28:02	15:43:57	943005	5c560b6fccb08c0001e134a8	4	1	main_slash	11	main_slash	115	stimuli_distractor_trianglediamonds.svg	stimuli_distractor_diamondtriangles.svg	35	no	53	0	727	0	0			0	0			1				0	
6.6.1	win	2023-06-12	15:28:02	15:43:57	943005	5c560b6fccb08c0001e134a8	4	1	main_slash	11	advance_on_keypress_SLASH	116	stimuli_distractor_trianglediamonds.svg	stimuli_distractor_diamondtriangles.svg	35	no	57	0	355	0	0			0	0			1				0	
6.6.1	win	2023-06-12	15:28:02	15:43:59	944736	5c560b6fccb08c0001e134a8	4	1	main_slash	11	main_slash	117	stimuli_distractor_diamondtriangles.svg	stimuli_target_squaretriangles.svg	15	yes	53	1	741	0	0			0	0			1				0	
6.6.1	win	2023-06-12	15:28:02	15:43:59	944736	5c560b6fccb08c0001e134a8	4	1	main_slash	11	advance_on_keypress_SLASH	118	stimuli_distractor_diamondtriangles.svg	stimuli_target_squaretriangles.svg	15	yes	57	0	805	0	0			0	0			1				0	
6.6.1	win	2023-06-12	15:28:02	15:44:01	946737	5c560b6fccb08c0001e134a8	4	1	main_slash	11	main_slash	119	stimuli_distractor_trianglediamonds.svg	stimuli_target_squaretriangles.svg	11	yes	53	1	559	0	0			0	0			1				0	
6.6.1	win	2023-06-12	15:28:02	15:44:01	946737	5c560b6fccb08c0001e134a8	4	1	main_slash	11	advance_on_keypress_SLASH	120	stimuli_distractor_trianglediamonds.svg	stimuli_target_squaretriangles.svg	11	yes	57	0	416	0	0			0	0			1				0	
6.6.1	win	2023-06-12	15:28:02	15:44:04	949795	5c560b6fccb08c0001e134a8	4	1	main_slash	11	main_slash	121	stimuli_distractor_trianglediamonds.svg	stimuli_target_trianglerectangles.svg	25	yes	0	0	2000	0	0			0	0			1				0	
6.6.1	win	2023-06-12	15:28:02	15:44:04	949795	5c560b6fccb08c0001e134a8	4	1	main_slash	11	advance_on_keypress_SLASH	122	stimuli_distractor_trianglediamonds.svg	stimuli_target_trianglerectangles.svg	25	yes	57	0	632	0	0			0	0			1				0	
6.6.1	win	2023-06-12	15:28:02	15:44:06	951568	5c560b6fccb08c0001e134a8	4	1	main_slash	11	main_slash	123	stimuli_distractor_diamondtriangles.svg	stimuli_target_rectangletriangles.svg	13	yes	53	1	490	0	0			0	0			1				0	
6.6.1	win	2023-06-12	15:28:02	15:44:06	951568	5c560b6fccb08c0001e134a8	4	1	main_slash	11	advance_on_keypress_SLASH	124	stimuli_distractor_diamondtriangles.svg	stimuli_target_rectangletriangles.svg	13	yes	57	0	1687	0	0			0	0			1				0	
6.6.1	win	2023-06-12	15:28:02	15:44:09	954780	5c560b6fccb08c0001e134a8	4	1	main_slash	11	main_slash	125	stimuli_target_trianglesquares.svg	stimuli_distractor_diamondtriangles.svg	22	yes	53	1	885	0	0			0	0			1				0	
6.6.1	win	2023-06-12	15:28:02	15:44:09	954780	5c560b6fccb08c0001e134a8	4	1	main_slash	11	advance_on_keypress_SLASH	126	stimuli_target_trianglesquares.svg	stimuli_distractor_diamondtriangles.svg	22	yes	57	0	751	0	0			0	0			1				0	
6.6.1	win	2023-06-12	15:28:02	15:44:11	957189	5c560b6fccb08c0001e134a8	4	1	main_slash	11	main_slash	127	stimuli_distractor_diamondtriangles.svg	stimuli_target_trianglerectangles.svg	29	yes	53	1	1010	0	0			0	0			1				0	
6.6.1	win	2023-06-12	15:28:02	15:44:11	957189	5c560b6fccb08c0001e134a8	4	1	main_slash	11	advance_on_keypress_SLASH	128	stimuli_distractor_diamondtriangles.svg	stimuli_target_trianglerectangles.svg	29	yes	57	0	548	0	0			0	0			1				0	
6.6.1	win	2023-06-12	15:28:02	15:44:14	959373	5c560b6fccb08c0001e134a8	4	1	main_slash	11	main_slash	129	stimuli_distractor_diamondtriangles.svg	stimuli_distractor_diamondtriangles.svg	39	no	53	0	994	0	0			0	0			1				0	
6.6.1	win	2023-06-12	15:28:02	15:44:14	959373	5c560b6fccb08c0001e134a8	4	1	main_slash	11	advance_on_keypress_SLASH	130	stimuli_distractor_diamondtriangles.svg	stimuli_distractor_diamondtriangles.svg	39	no	57	0	6047	0	0			0	0			1				0	
6.6.1	win	2023-06-12	15:28:02	15:44:21	967248	5c560b6fccb08c0001e134a8	4	1	main_slash	11	main_slash	131	stimuli_distractor_diamondtriangles.svg	stimuli_target_trianglesquares.svg	30	yes	53	1	1186	0	0			0	0			1				0	
6.6.1	win	2023-06-12	15:28:02	15:44:21	967248	5c560b6fccb08c0001e134a8	4	1	main_slash	11	advance_on_keypress_SLASH	132	stimuli_distractor_diamondtriangles.svg	stimuli_target_trianglesquares.svg	30	yes	57	0	570	0	0			0	0			1				0	
6.6.1	win	2023-06-12	15:28:02	15:44:25	970462	5c560b6fccb08c0001e134a8	4	1	main_slash	11	main_slash	133	stimuli_target_rectanglediamonds.svg	stimuli_distractor_trianglediamonds.svg	2	yes	0	0	2000	0	0			0	0			1				0	
6.6.1	win	2023-06-12	15:28:02	15:44:25	970462	5c560b6fccb08c0001e134a8	4	1	main_slash	11	advance_on_keypress_SLASH	134	stimuli_target_rectanglediamonds.svg	stimuli_distractor_trianglediamonds.svg	2	yes	57	0	1103	0	0			0	0			1				0	
6.6.1	win	2023-06-12	15:28:02	15:44:28	974213	5c560b6fccb08c0001e134a8	4	1	main_slash	11	main_slash	135	stimuli_distractor_diamondtriangles.svg	stimuli_target_diamondrectangles.svg	31	yes	0	0	2000	0	0			0	0			1				0	
6.6.1	win	2023-06-12	15:28:02	15:44:28	974213	5c560b6fccb08c0001e134a8	4	1	main_slash	11	advance_on_keypress_SLASH	136	stimuli_distractor_diamondtriangles.svg	stimuli_target_diamondrectangles.svg	31	yes	57	0	1034	0	0			0	0			1				0	
6.6.1	win	2023-06-12	15:28:02	15:44:31	976505	5c560b6fccb08c0001e134a8	4	1	main_slash	11	main_slash	137	stimuli_target_trianglesquares.svg	stimuli_distractor_trianglediamonds.svg	18	yes	53	1	609	0	0			0	0			1				0	
6.6.1	win	2023-06-12	15:28:02	15:44:31	976505	5c560b6fccb08c0001e134a8	4	1	main_slash	11	advance_on_keypress_SLASH	138	stimuli_target_trianglesquares.svg	stimuli_distractor_trianglediamonds.svg	18	yes	57	0	737	0	0			0	0			1				0	
6.6.1	win	2023-06-12	15:28:02	15:44:32	977993	5c560b6fccb08c0001e134a8	4	1	main_slash	11	main_slash	139	stimuli_distractor_diamondtriangles.svg	stimuli_distractor_trianglediamonds.svg	37	no	53	0	114	0	0			0	0			1				0	
6.6.1	win	2023-06-12	15:28:02	15:44:32	977993	5c560b6fccb08c0001e134a8	4	1	main_slash	11	advance_on_keypress_SLASH	140	stimuli_distractor_diamondtriangles.svg	stimuli_distractor_trianglediamonds.svg	37	no	57	0	514	0	0			0	0			1				0	
6.6.1	win	2023-06-12	15:28:02	15:44:34	979471	5c560b6fccb08c0001e134a8	4	1	main_slash	11	main_slash	141	stimuli_distractor_diamondtriangles.svg	stimuli_target_squarediamonds.svg	16	yes	53	1	325	0	0			0	0			1				0	
6.6.1	win	2023-06-12	15:28:02	15:44:34	979471	5c560b6fccb08c0001e134a8	4	1	main_slash	11	advance_on_keypress_SLASH	142	stimuli_distractor_diamondtriangles.svg	stimuli_target_squarediamonds.svg	16	yes	57	0	392	0	0			0	0			1				0	
6.6.1	win	2023-06-12	15:28:02	15:44:36	981471	5c560b6fccb08c0001e134a8	4	1	main_slash	11	main_slash	143	stimuli_target_rectanglediamonds.svg	stimuli_distractor_diamondtriangles.svg	6	yes	53	1	975	0	0			0	0			1				0	
6.6.1	win	2023-06-12	15:28:02	15:44:36	981471	5c560b6fccb08c0001e134a8	4	1	main_slash	11	advance_on_keypress_SLASH	144	stimuli_target_rectanglediamonds.svg	stimuli_distractor_diamondtriangles.svg	6	yes	57	0	1197	0	0			0	0			1				0	
6.6.1	win	2023-06-12	15:28:02	15:44:38	983576	5c560b6fccb08c0001e134a8	4	1	main_slash	11	main_slash	145	stimuli_distractor_trianglediamonds.svg	stimuli_distractor_trianglediamonds.svg	34	no	53	0	263	0	0			0	0			1				0	
6.6.1	win	2023-06-12	15:28:02	15:44:38	983576	5c560b6fccb08c0001e134a8	4	1	main_slash	11	advance_on_keypress_SLASH	146	stimuli_distractor_trianglediamonds.svg	stimuli_distractor_trianglediamonds.svg	34	no	57	0	423	0	0			0	0			1				0	
6.6.1	win	2023-06-12	15:28:02	15:44:39	984952	5c560b6fccb08c0001e134a8	4	1	main_slash	11	main_slash	147	stimuli_distractor_trianglediamonds.svg	stimuli_target_trianglesquares.svg	26	yes	53	1	306	0	0			0	0			1				0	
6.6.1	win	2023-06-12	15:28:02	15:44:39	984952	5c560b6fccb08c0001e134a8	4	1	main_slash	11	advance_on_keypress_SLASH	148	stimuli_distractor_trianglediamonds.svg	stimuli_target_trianglesquares.svg	26	yes	57	0	357	0	0			0	0			1				0	
6.6.1	win	2023-06-12	15:28:02	15:44:41	986864	5c560b6fccb08c0001e134a8	4	1	main_slash	11	main_slash	149	stimuli_distractor_diamondtriangles.svg	stimuli_distractor_diamondtriangles.svg	40	no	53	0	918	0	0			0	0			1				0	
6.6.1	win	2023-06-12	15:28:02	15:44:41	986864	5c560b6fccb08c0001e134a8	4	1	main_slash	11	advance_on_keypress_SLASH	150	stimuli_distractor_diamondtriangles.svg	stimuli_distractor_diamondtriangles.svg	40	no	57	0	546	0	0			0	0			1				0	
6.6.1	win	2023-06-12	15:28:02	15:44:42	988258	5c560b6fccb08c0001e134a8	4	1	main_slash	11	main_slash	151	stimuli_target_squarediamonds.svg	stimuli_distractor_diamondtriangles.svg	8	yes	53	1	195	0	0			0	0			1				0	
6.6.1	win	2023-06-12	15:28:02	15:44:42	988258	5c560b6fccb08c0001e134a8	4	1	main_slash	11	advance_on_keypress_SLASH	152	stimuli_target_squarediamonds.svg	stimuli_distractor_diamondtriangles.svg	8	yes	57	0	460	0	0			0	0			1				0	
6.6.1	win	2023-06-12	15:28:02	15:44:44	989575	5c560b6fccb08c0001e134a8	4	1	main_slash	11	main_slash	153	stimuli_distractor_trianglediamonds.svg	stimuli_distractor_trianglediamonds.svg	33	no	53	0	229	0	0			0	0			1				0	
6.6.1	win	2023-06-12	15:28:02	15:44:44	989575	5c560b6fccb08c0001e134a8	4	1	main_slash	11	advance_on_keypress_SLASH	154	stimuli_distractor_trianglediamonds.svg	stimuli_distractor_trianglediamonds.svg	33	no	57	0	431	0	0			0	0			1				0	
6.6.1	win	2023-06-12	15:28:02	15:44:45	990834	5c560b6fccb08c0001e134a8	4	1	main_slash	11	main_slash	155	stimuli_distractor_trianglediamonds.svg	stimuli_target_diamondsquares.svg	28	yes	53	1	188	0	0			0	0			1				0	
6.6.1	win	2023-06-12	15:28:02	15:44:45	990834	5c560b6fccb08c0001e134a8	4	1	main_slash	11	advance_on_keypress_SLASH	156	stimuli_distractor_trianglediamonds.svg	stimuli_target_diamondsquares.svg	28	yes	57	0	424	0	0			0	0			1				0	
6.6.1	win	2023-06-12	15:28:02	15:44:46	992194	5c560b6fccb08c0001e134a8	4	1	main_slash	11	main_slash	157	stimuli_target_diamondrectangles.svg	stimuli_distractor_trianglediamonds.svg	19	yes	53	1	297	0	0			0	0			1				0	
6.6.1	win	2023-06-12	15:28:02	15:44:46	992194	5c560b6fccb08c0001e134a8	4	1	main_slash	11	advance_on_keypress_SLASH	158	stimuli_target_diamondrectangles.svg	stimuli_distractor_trianglediamonds.svg	19	yes	57	0	279	0	0			0	0			1				0	
6.6.1	win	2023-06-12	15:28:02	15:44:48	993770	5c560b6fccb08c0001e134a8	4	1	main_slash	11	main_slash	159	stimuli_distractor_trianglediamonds.svg	stimuli_target_diamondrectangles.svg	27	yes	53	1	640	0	0			0	0			1				0	
6.6.1	win	2023-06-12	15:28:02	15:44:48	993770	5c560b6fccb08c0001e134a8	4	1	main_slash	11	advance_on_keypress_SLASH	160	stimuli_distractor_trianglediamonds.svg	stimuli_target_diamondrectangles.svg	27	yes	57	0	428	0	0			0	0			1				0	
6.6.1	win	2023-06-12	15:28:02	15:44:48	993770	5c560b6fccb08c0001e134a8	4	1	headphonecheck_calibration	14	headphonecheck_calibrationIntro	1	stimuli_distractor_trianglediamonds.svg	stimuli_target_diamondrectangles.svg	27	yes	calibrationButton	0	2946	0	0			0	0			1				0	
6.6.1	win	2023-06-12	15:28:02	15:44:48	993770	5c560b6fccb08c0001e134a8	4	1	headphonecheck_testphase	15	test_collectResponse	3	stimuli_distractor_trianglediamonds.svg	stimuli_target_diamondrectangles.svg	27	yes	second	0	406	1	2	antiphase_hc_ios.wav	3	0	0			1				0	
6.6.1	win	2023-06-12	15:28:02	15:44:48	993770	5c560b6fccb08c0001e134a8	4	1	headphonecheck_testphase	15	test_collectResponse	6	stimuli_distractor_trianglediamonds.svg	stimuli_target_diamondrectangles.svg	27	yes	first	0	373	2	5	antiphase_hc_osi.wav	2	0	0			1				0	
6.6.1	win	2023-06-12	15:28:02	15:44:48	993770	5c560b6fccb08c0001e134a8	4	1	headphonecheck_testphase	15	test_collectResponse	9	stimuli_distractor_trianglediamonds.svg	stimuli_target_diamondrectangles.svg	27	yes	second	1	322	3	1	antiphase_hc_iso.wav	2	0	0			1				0	
6.6.1	win	2023-06-12	15:28:02	15:44:48	993770	5c560b6fccb08c0001e134a8	4	1	headphonecheck_testphase	15	test_collectResponse	12	stimuli_distractor_trianglediamonds.svg	stimuli_target_diamondrectangles.svg	27	yes	first	1	265	4	4	antiphase_hc_sio.wav	1	0	0			1				0	
6.6.1	win	2023-06-12	15:28:02	15:44:48	993770	5c560b6fccb08c0001e134a8	4	1	headphonecheck_testphase	15	test_collectResponse	15	stimuli_distractor_trianglediamonds.svg	stimuli_target_diamondrectangles.svg	27	yes	first	1	91	5	3	antiphase_hc_soi.wav	1	0	0			1				0	
6.6.1	win	2023-06-12	15:28:02	15:44:48	993770	5c560b6fccb08c0001e134a8	4	1	headphonecheck_testphase	15	test_collectResponse	18	stimuli_distractor_trianglediamonds.svg	stimuli_target_diamondrectangles.svg	27	yes	first	0	233	6	6	antiphase_hc_ois.wav	3	0	0			1				0	
6.6.1	win	2023-06-12	15:28:02	15:44:48	993770	5c560b6fccb08c0001e134a8	4	1	stereocheck_calibration	17	stereocheck_calibrationIntro	1	stimuli_distractor_trianglediamonds.svg	stimuli_target_diamondrectangles.svg	27	yes	stereocheck_calibrationButton	0	1822	6	6	antiphase_hc_ois.wav	3	0	0			1				0	
6.6.1	win	2023-06-12	15:28:02	15:44:48	993770	5c560b6fccb08c0001e134a8	4	1	stereocheck_testphase	18	stereocheck_test_collectResponse	3	stimuli_distractor_trianglediamonds.svg	stimuli_target_diamondrectangles.svg	27	yes	stereocheck_left	1	665	6	6	antiphase_hc_ois.wav	3	1	1	noise_calib_stim_LEFT.wav	1	1				0	
6.6.1	win	2023-06-12	15:28:02	15:44:48	993770	5c560b6fccb08c0001e134a8	4	1	stereocheck_testphase	18	stereocheck_test_collectResponse	6	stimuli_distractor_trianglediamonds.svg	stimuli_target_diamondrectangles.svg	27	yes	stereocheck_right	1	498	6	6	antiphase_hc_ois.wav	3	2	5	noise_calib_stim_RIGHT.wav	2	1				0	
6.6.1	win	2023-06-12	15:28:02	15:44:48	993770	5c560b6fccb08c0001e134a8	4	1	stereocheck_testphase	18	stereocheck_test_collectResponse	9	stimuli_distractor_trianglediamonds.svg	stimuli_target_diamondrectangles.svg	27	yes	stereocheck_left	1	757	6	6	antiphase_hc_ois.wav	3	3	2	noise_calib_stim_LEFT.wav	1	1				0	
6.6.1	win	2023-06-12	15:28:02	15:44:48	993770	5c560b6fccb08c0001e134a8	4	1	stereocheck_testphase	18	stereocheck_test_collectResponse	12	stimuli_distractor_trianglediamonds.svg	stimuli_target_diamondrectangles.svg	27	yes	stereocheck_right	1	315	6	6	antiphase_hc_ois.wav	3	4	6	noise_calib_stim_RIGHT.wav	2	1				0	
6.6.1	win	2023-06-12	15:28:02	15:44:48	993770	5c560b6fccb08c0001e134a8	4	1	stereocheck_testphase	18	stereocheck_test_collectResponse	15	stimuli_distractor_trianglediamonds.svg	stimuli_target_diamondrectangles.svg	27	yes	stereocheck_right	1	865	6	6	antiphase_hc_ois.wav	3	5	4	noise_calib_stim_RIGHT.wav	2	1				0	
6.6.1	win	2023-06-12	15:28:02	15:44:48	993770	5c560b6fccb08c0001e134a8	4	1	stereocheck_testphase	18	stereocheck_test_collectResponse	18	stimuli_distractor_trianglediamonds.svg	stimuli_target_diamondrectangles.svg	27	yes	stereocheck_left	1	273	6	6	antiphase_hc_ois.wav	3	6	3	noise_calib_stim_LEFT.wav	1	1				0	
6.6.1	win	2023-06-12	15:28:02	15:44:48	993770	5c560b6fccb08c0001e134a8	4	1	DL_practice	21	DL_practice	2	stimuli_distractor_trianglediamonds.svg	stimuli_target_diamondrectangles.svg	27	yes	ga	1	1097	6	6	antiphase_hc_ois.wav	3	6	3	noise_calib_stim_LEFT.wav	1	18	blb_dichoticlistening_ga-ta.mp3	ga	ta	1	left
6.6.1	win	2023-06-12	15:28:02	15:44:48	993770	5c560b6fccb08c0001e134a8	4	1	DL_practice	21	DL_practice	3	stimuli_distractor_trianglediamonds.svg	stimuli_target_diamondrectangles.svg	27	yes	ga	1	764	6	6	antiphase_hc_ois.wav	3	6	3	noise_calib_stim_LEFT.wav	1	15	blb_dichoticlistening_ga-ga.mp3	ga	ga	0	left
6.6.1	win	2023-06-12	15:28:02	15:44:48	993770	5c560b6fccb08c0001e134a8	4	1	DL_practice	21	DL_practice	4	stimuli_distractor_trianglediamonds.svg	stimuli_target_diamondrectangles.svg	27	yes	pa	0	998	6	6	antiphase_hc_ois.wav	3	6	3	noise_calib_stim_LEFT.wav	1	1	blb_dichoticlistening_ba-ba.mp3	ba	ba	0	other
6.6.1	win	2023-06-12	15:28:02	15:44:48	993770	5c560b6fccb08c0001e134a8	4	1	DL_practice	21	DL_practice	5	stimuli_distractor_trianglediamonds.svg	stimuli_target_diamondrectangles.svg	27	yes	ba	1	1831	6	6	antiphase_hc_ois.wav	3	6	3	noise_calib_stim_LEFT.wav	1	7	blb_dichoticlistening_da-ba.mp3	da	ba	1	right
6.6.1	win	2023-06-12	15:28:02	15:44:48	993770	5c560b6fccb08c0001e134a8	4	1	DL_practice	21	DL_practice	6	stimuli_distractor_trianglediamonds.svg	stimuli_target_diamondrectangles.svg	27	yes	ka	1	1099	6	6	antiphase_hc_ois.wav	3	6	3	noise_calib_stim_LEFT.wav	1	22	blb_dichoticlistening_ka-ka.mp3	ka	ka	0	left
6.6.1	win	2023-06-12	15:28:02	15:44:48	993770	5c560b6fccb08c0001e134a8	4	1	DL_practice	21	DL_practice	7	stimuli_distractor_trianglediamonds.svg	stimuli_target_diamondrectangles.svg	27	yes	ka	1	972	6	6	antiphase_hc_ois.wav	3	6	3	noise_calib_stim_LEFT.wav	1	23	blb_dichoticlistening_ka-pa.mp3	ka	pa	1	left
6.6.1	win	2023-06-12	15:28:02	15:44:48	993770	5c560b6fccb08c0001e134a8	4	1	DL_practice	21	DL_practice	8	stimuli_distractor_trianglediamonds.svg	stimuli_target_diamondrectangles.svg	27	yes	ga	0	56137	6	6	antiphase_hc_ois.wav	3	6	3	noise_calib_stim_LEFT.wav	1	8	blb_dichoticlistening_da-da.mp3	da	da	0	other
6.6.1	win	2023-06-12	15:28:02	15:44:48	993770	5c560b6fccb08c0001e134a8	4	1	DL_practice	21	DL_practice	9	stimuli_distractor_trianglediamonds.svg	stimuli_target_diamondrectangles.svg	27	yes	ka	0	1464	6	6	antiphase_hc_ois.wav	3	6	3	noise_calib_stim_LEFT.wav	1	36	blb_dichoticlistening_ta-ta.mp3	ta	ta	0	other
6.6.1	win	2023-06-12	15:28:02	15:44:48	993770	5c560b6fccb08c0001e134a8	4	1	DL_practice	21	DL_practice	10	stimuli_distractor_trianglediamonds.svg	stimuli_target_diamondrectangles.svg	27	yes	pa	1	1031	6	6	antiphase_hc_ois.wav	3	6	3	noise_calib_stim_LEFT.wav	1	29	blb_dichoticlistening_pa-pa.mp3	pa	pa	0	left
6.6.1	win	2023-06-12	15:28:02	15:44:48	993770	5c560b6fccb08c0001e134a8	4	1	DL_test	23	DL_test	1	stimuli_distractor_trianglediamonds.svg	stimuli_target_diamondrectangles.svg	27	yes	pa	1	1581	6	6	antiphase_hc_ois.wav	3	6	3	noise_calib_stim_LEFT.wav	1	29	blb_dichoticlistening_pa-pa.mp3	pa	pa	0	left
6.6.1	win	2023-06-12	15:28:02	15:44:48	993770	5c560b6fccb08c0001e134a8	4	1	DL_test	23	DL_test	2	stimuli_distractor_trianglediamonds.svg	stimuli_target_diamondrectangles.svg	27	yes	ga	0	806	6	6	antiphase_hc_ois.wav	3	6	3	noise_calib_stim_LEFT.wav	1	26	blb_dichoticlistening_pa-da.mp3	pa	da	1	other
6.6.1	win	2023-06-12	15:28:02	15:44:48	993770	5c560b6fccb08c0001e134a8	4	1	DL_test	23	DL_test	3	stimuli_distractor_trianglediamonds.svg	stimuli_target_diamondrectangles.svg	27	yes	ka	1	898	6	6	antiphase_hc_ois.wav	3	6	3	noise_calib_stim_LEFT.wav	1	28	blb_dichoticlistening_pa-ka.mp3	pa	ka	1	right
6.6.1	win	2023-06-12	15:28:02	15:44:48	993770	5c560b6fccb08c0001e134a8	4	1	DL_test	23	DL_test	4	stimuli_distractor_trianglediamonds.svg	stimuli_target_diamondrectangles.svg	27	yes	ga	1	2298	6	6	antiphase_hc_ois.wav	3	6	3	noise_calib_stim_LEFT.wav	1	15	blb_dichoticlistening_ga-ga.mp3	ga	ga	0	left
6.6.1	win	2023-06-12	15:28:02	15:44:48	993770	5c560b6fccb08c0001e134a8	4	1	DL_test	23	DL_test	5	stimuli_distractor_trianglediamonds.svg	stimuli_target_diamondrectangles.svg	27	yes	pa	1	790	6	6	antiphase_hc_ois.wav	3	6	3	noise_calib_stim_LEFT.wav	1	25	blb_dichoticlistening_pa-ba.mp3	pa	ba	1	left
6.6.1	win	2023-06-12	15:28:02	15:44:48	993770	5c560b6fccb08c0001e134a8	4	1	DL_test	23	DL_test	6	stimuli_distractor_trianglediamonds.svg	stimuli_target_diamondrectangles.svg	27	yes	pa	1	823	6	6	antiphase_hc_ois.wav	3	6	3	noise_calib_stim_LEFT.wav	1	30	blb_dichoticlistening_pa-ta.mp3	pa	ta	1	left
6.6.1	win	2023-06-12	15:28:02	15:44:48	993770	5c560b6fccb08c0001e134a8	4	1	DL_test	23	DL_test	7	stimuli_distractor_trianglediamonds.svg	stimuli_target_diamondrectangles.svg	27	yes	pa	0	1156	6	6	antiphase_hc_ois.wav	3	6	3	noise_calib_stim_LEFT.wav	1	10	blb_dichoticlistening_da-ka.mp3	da	ka	1	other
6.6.1	win	2023-06-12	15:28:02	15:44:48	993770	5c560b6fccb08c0001e134a8	4	1	DL_test	23	DL_test	8	stimuli_distractor_trianglediamonds.svg	stimuli_target_diamondrectangles.svg	27	yes	ga	1	873	6	6	antiphase_hc_ois.wav	3	6	3	noise_calib_stim_LEFT.wav	1	18	blb_dichoticlistening_ga-ta.mp3	ga	ta	1	left
6.6.1	win	2023-06-12	15:28:02	15:44:48	993770	5c560b6fccb08c0001e134a8	4	1	DL_test	23	DL_test	9	stimuli_distractor_trianglediamonds.svg	stimuli_target_diamondrectangles.svg	27	yes	ta	1	1789	6	6	antiphase_hc_ois.wav	3	6	3	noise_calib_stim_LEFT.wav	1	31	blb_dichoticlistening_ta-ba.mp3	ta	ba	1	left
6.6.1	win	2023-06-12	15:28:02	15:44:48	993770	5c560b6fccb08c0001e134a8	4	1	DL_test	23	DL_test	10	stimuli_distractor_trianglediamonds.svg	stimuli_target_diamondrectangles.svg	27	yes	ga	0	1398	6	6	antiphase_hc_ois.wav	3	6	3	noise_calib_stim_LEFT.wav	1	11	blb_dichoticlistening_da-pa.mp3	da	pa	1	other
6.6.1	win	2023-06-12	15:28:02	15:44:48	993770	5c560b6fccb08c0001e134a8	4	1	DL_test	23	DL_test	11	stimuli_distractor_trianglediamonds.svg	stimuli_target_diamondrectangles.svg	27	yes	ga	1	932	6	6	antiphase_hc_ois.wav	3	6	3	noise_calib_stim_LEFT.wav	1	9	blb_dichoticlistening_da-ga.mp3	da	ga	1	right
6.6.1	win	2023-06-12	15:28:02	15:44:48	993770	5c560b6fccb08c0001e134a8	4	1	DL_test	23	DL_test	12	stimuli_distractor_trianglediamonds.svg	stimuli_target_diamondrectangles.svg	27	yes	ta	0	2948	6	6	antiphase_hc_ois.wav	3	6	3	noise_calib_stim_LEFT.wav	1	20	blb_dichoticlistening_ka-da.mp3	ka	da	1	other
6.6.1	win	2023-06-12	15:28:02	15:44:48	993770	5c560b6fccb08c0001e134a8	4	1	DL_test	23	DL_test	13	stimuli_distractor_trianglediamonds.svg	stimuli_target_diamondrectangles.svg	27	yes	ga	1	1173	6	6	antiphase_hc_ois.wav	3	6	3	noise_calib_stim_LEFT.wav	1	33	blb_dichoticlistening_ta-ga.mp3	ta	ga	1	right
6.6.1	win	2023-06-12	15:28:02	15:44:48	993770	5c560b6fccb08c0001e134a8	4	1	DL_test	23	DL_test	14	stimuli_distractor_trianglediamonds.svg	stimuli_target_diamondrectangles.svg	27	yes	ka	1	1257	6	6	antiphase_hc_ois.wav	3	6	3	noise_calib_stim_LEFT.wav	1	22	blb_dichoticlistening_ka-ka.mp3	ka	ka	0	left
6.6.1	win	2023-06-12	15:28:02	15:44:48	993770	5c560b6fccb08c0001e134a8	4	1	DL_test	23	DL_test	15	stimuli_distractor_trianglediamonds.svg	stimuli_target_diamondrectangles.svg	27	yes	ba	1	2032	6	6	antiphase_hc_ois.wav	3	6	3	noise_calib_stim_LEFT.wav	1	1	blb_dichoticlistening_ba-ba.mp3	ba	ba	0	left
6.6.1	win	2023-06-12	15:28:02	15:44:48	993770	5c560b6fccb08c0001e134a8	4	1	DL_test	23	DL_test	16	stimuli_distractor_trianglediamonds.svg	stimuli_target_diamondrectangles.svg	27	yes	ga	1	1764	6	6	antiphase_hc_ois.wav	3	6	3	noise_calib_stim_LEFT.wav	1	14	blb_dichoticlistening_ga-da.mp3	ga	da	1	left
6.6.1	win	2023-06-12	15:28:02	15:44:48	993770	5c560b6fccb08c0001e134a8	4	1	DL_test	23	DL_test	17	stimuli_distractor_trianglediamonds.svg	stimuli_target_diamondrectangles.svg	27	yes	ta	1	1865	6	6	antiphase_hc_ois.wav	3	6	3	noise_calib_stim_LEFT.wav	1	35	blb_dichoticlistening_ta-pa.mp3	ta	pa	1	left
6.6.1	win	2023-06-12	15:28:02	15:44:48	993770	5c560b6fccb08c0001e134a8	4	1	DL_test	23	DL_test	18	stimuli_distractor_trianglediamonds.svg	stimuli_target_diamondrectangles.svg	27	yes	ga	1	1148	6	6	antiphase_hc_ois.wav	3	6	3	noise_calib_stim_LEFT.wav	1	16	blb_dichoticlistening_ga-ka.mp3	ga	ka	1	left
6.6.1	win	2023-06-12	15:28:02	15:44:48	993770	5c560b6fccb08c0001e134a8	4	1	DL_test	23	DL_test	19	stimuli_distractor_trianglediamonds.svg	stimuli_target_diamondrectangles.svg	27	yes	ka	1	1048	6	6	antiphase_hc_ois.wav	3	6	3	noise_calib_stim_LEFT.wav	1	34	blb_dichoticlistening_ta-ka.mp3	ta	ka	1	right
6.6.1	win	2023-06-12	15:28:02	15:44:48	993770	5c560b6fccb08c0001e134a8	4	1	DL_test	23	DL_test	20	stimuli_distractor_trianglediamonds.svg	stimuli_target_diamondrectangles.svg	27	yes	ga	0	2174310	6	6	antiphase_hc_ois.wav	3	6	3	noise_calib_stim_LEFT.wav	1	19	blb_dichoticlistening_ka-ba.mp3	ka	ba	1	other
6.6.1	win	2023-06-12	15:28:02	15:44:48	993770	5c560b6fccb08c0001e134a8	4	1	DL_test	23	DL_test	21	stimuli_distractor_trianglediamonds.svg	stimuli_target_diamondrectangles.svg	27	yes	ba	1	2081	6	6	antiphase_hc_ois.wav	3	6	3	noise_calib_stim_LEFT.wav	1	3	blb_dichoticlistening_ba-ga.mp3	ba	ga	1	left
6.6.1	win	2023-06-12	15:28:02	15:44:48	993770	5c560b6fccb08c0001e134a8	4	1	DL_test	23	DL_test	22	stimuli_distractor_trianglediamonds.svg	stimuli_target_diamondrectangles.svg	27	yes	da	1	1247	6	6	antiphase_hc_ois.wav	3	6	3	noise_calib_stim_LEFT.wav	1	2	blb_dichoticlistening_ba-da.mp3	ba	da	1	right
6.6.1	win	2023-06-12	15:28:02	15:44:48	993770	5c560b6fccb08c0001e134a8	4	1	DL_test	23	DL_test	23	stimuli_distractor_trianglediamonds.svg	stimuli_target_diamondrectangles.svg	27	yes	ka	1	1455	6	6	antiphase_hc_ois.wav	3	6	3	noise_calib_stim_LEFT.wav	1	24	blb_dichoticlistening_ka-ta.mp3	ka	ta	1	left
6.6.1	win	2023-06-12	15:28:02	15:44:48	993770	5c560b6fccb08c0001e134a8	4	1	DL_test	23	DL_test	24	stimuli_distractor_trianglediamonds.svg	stimuli_target_diamondrectangles.svg	27	yes	ga	1	1089	6	6	antiphase_hc_ois.wav	3	6	3	noise_calib_stim_LEFT.wav	1	17	blb_dichoticlistening_ga-pa.mp3	ga	pa	1	left
6.6.1	win	2023-06-12	15:28:02	15:44:48	993770	5c560b6fccb08c0001e134a8	4	1	DL_test	23	DL_test	25	stimuli_distractor_trianglediamonds.svg	stimuli_target_diamondrectangles.svg	27	yes	ba	1	1172	6	6	antiphase_hc_ois.wav	3	6	3	noise_calib_stim_LEFT.wav	1	13	blb_dichoticlistening_ga-ba.mp3	ga	ba	1	right
6.6.1	win	2023-06-12	15:28:02	15:44:48	993770	5c560b6fccb08c0001e134a8	4	1	DL_test	23	DL_test	26	stimuli_distractor_trianglediamonds.svg	stimuli_target_diamondrectangles.svg	27	yes	ta	1	1348	6	6	antiphase_hc_ois.wav	3	6	3	noise_calib_stim_LEFT.wav	1	6	blb_dichoticlistening_ba-ta.mp3	ba	ta	1	right
