build	computer.platform	date	time	timestamp	time_elapsed_ms	subject	group	session	blockcode	blocknum	trialcode	trialnum	stimulus_left	stimulus_right	stim_index	target_present	response	correct	latency	headphonecheck_countTestTrials	headphonecheck_index	headphonecheck_testSound	headphonecheck_correctResponse	stereocheck_countTestTrials	stereocheck_index	stereocheck_testSound	stereocheck_correctResponse	DL_index	DL_soundfile	DL_leftSound	DL_rightSound	DL_dualSound	DL_choice
6.6.1	mac	2023-06-12	23:38:53	0	0	5efa98dd74af25000cdbbf43	1	1	headphonecheck_calibration	4	headphonecheck_calibrationIntro	1			0		calibrationButton	0	1208	0	0			0	0			1				0	
6.6.1	mac	2023-06-12	23:38:53	0	0	5efa98dd74af25000cdbbf43	1	1	headphonecheck_testphase	5	test_collectResponse	3			0		second	1	700	1	5	antiphase_hc_osi.wav	2	0	0			1				0	
6.6.1	mac	2023-06-12	23:38:53	0	0	5efa98dd74af25000cdbbf43	1	1	headphonecheck_testphase	5	test_collectResponse	6			0		second	1	184	2	1	antiphase_hc_iso.wav	2	0	0			1				0	
6.6.1	mac	2023-06-12	23:38:53	0	0	5efa98dd74af25000cdbbf43	1	1	headphonecheck_testphase	5	test_collectResponse	9			0		first	1	291	3	4	antiphase_hc_sio.wav	1	0	0			1				0	
6.6.1	mac	2023-06-12	23:38:53	0	0	5efa98dd74af25000cdbbf43	1	1	headphonecheck_testphase	5	test_collectResponse	12			0		third	1	91	4	2	antiphase_hc_ios.wav	3	0	0			1				0	
6.6.1	mac	2023-06-12	23:38:53	0	0	5efa98dd74af25000cdbbf43	1	1	headphonecheck_testphase	5	test_collectResponse	15			0		first	1	109	5	3	antiphase_hc_soi.wav	1	0	0			1				0	
6.6.1	mac	2023-06-12	23:38:53	0	0	5efa98dd74af25000cdbbf43	1	1	headphonecheck_testphase	5	test_collectResponse	18			0		third	1	176	6	6	antiphase_hc_ois.wav	3	0	0			1				0	
6.6.1	mac	2023-06-12	23:38:53	0	0	5efa98dd74af25000cdbbf43	1	1	stereocheck_calibration	7	stereocheck_calibrationIntro	1			0		stereocheck_calibrationButton	0	2771	6	6	antiphase_hc_ois.wav	3	0	0			1				0	
6.6.1	mac	2023-06-12	23:38:53	0	0	5efa98dd74af25000cdbbf43	1	1	stereocheck_testphase	8	stereocheck_test_collectResponse	3			0		stereocheck_right	1	498	6	6	antiphase_hc_ois.wav	3	1	5	noise_calib_stim_RIGHT.wav	2	1				0	
6.6.1	mac	2023-06-12	23:38:53	0	0	5efa98dd74af25000cdbbf43	1	1	stereocheck_testphase	8	stereocheck_test_collectResponse	6			0		stereocheck_left	1	320	6	6	antiphase_hc_ois.wav	3	2	1	noise_calib_stim_LEFT.wav	1	1				0	
6.6.1	mac	2023-06-12	23:38:53	0	0	5efa98dd74af25000cdbbf43	1	1	stereocheck_testphase	8	stereocheck_test_collectResponse	9			0		stereocheck_right	1	159	6	6	antiphase_hc_ois.wav	3	3	4	noise_calib_stim_RIGHT.wav	2	1				0	
6.6.1	mac	2023-06-12	23:38:53	0	0	5efa98dd74af25000cdbbf43	1	1	stereocheck_testphase	8	stereocheck_test_collectResponse	12			0		stereocheck_left	1	115	6	6	antiphase_hc_ois.wav	3	4	3	noise_calib_stim_LEFT.wav	1	1				0	
6.6.1	mac	2023-06-12	23:38:53	0	0	5efa98dd74af25000cdbbf43	1	1	stereocheck_testphase	8	stereocheck_test_collectResponse	15			0		stereocheck_right	1	204	6	6	antiphase_hc_ois.wav	3	5	6	noise_calib_stim_RIGHT.wav	2	1				0	
6.6.1	mac	2023-06-12	23:38:53	0	0	5efa98dd74af25000cdbbf43	1	1	stereocheck_testphase	8	stereocheck_test_collectResponse	18			0		stereocheck_left	1	88	6	6	antiphase_hc_ois.wav	3	6	2	noise_calib_stim_LEFT.wav	1	1				0	
6.6.1	mac	2023-06-12	23:38:53	0	0	5efa98dd74af25000cdbbf43	1	1	DL_practice	11	DL_practice	2			0		ta	1	1654	6	6	antiphase_hc_ois.wav	3	6	2	noise_calib_stim_LEFT.wav	1	36	blb_dichoticlistening_ta-ta.mp3	ta	ta	0	left
6.6.1	mac	2023-06-12	23:38:53	0	0	5efa98dd74af25000cdbbf43	1	1	DL_practice	11	DL_practice	3			0		pa	1	728	6	6	antiphase_hc_ois.wav	3	6	2	noise_calib_stim_LEFT.wav	1	29	blb_dichoticlistening_pa-pa.mp3	pa	pa	0	left
6.6.1	mac	2023-06-12	23:38:53	0	0	5efa98dd74af25000cdbbf43	1	1	DL_practice	11	DL_practice	4			0		ba	1	1581	6	6	antiphase_hc_ois.wav	3	6	2	noise_calib_stim_LEFT.wav	1	7	blb_dichoticlistening_da-ba.mp3	da	ba	1	right
6.6.1	mac	2023-06-12	23:38:53	0	0	5efa98dd74af25000cdbbf43	1	1	DL_practice	11	DL_practice	5			0		ba	1	718	6	6	antiphase_hc_ois.wav	3	6	2	noise_calib_stim_LEFT.wav	1	1	blb_dichoticlistening_ba-ba.mp3	ba	ba	0	left
6.6.1	mac	2023-06-12	23:38:53	0	0	5efa98dd74af25000cdbbf43	1	1	DL_practice	11	DL_practice	6			0		ka	0	1104	6	6	antiphase_hc_ois.wav	3	6	2	noise_calib_stim_LEFT.wav	1	18	blb_dichoticlistening_ga-ta.mp3	ga	ta	1	other
6.6.1	mac	2023-06-12	23:38:53	0	0	5efa98dd74af25000cdbbf43	1	1	DL_practice	11	DL_practice	7			0		ga	1	697	6	6	antiphase_hc_ois.wav	3	6	2	noise_calib_stim_LEFT.wav	1	15	blb_dichoticlistening_ga-ga.mp3	ga	ga	0	left
6.6.1	mac	2023-06-12	23:38:53	0	0	5efa98dd74af25000cdbbf43	1	1	DL_practice	11	DL_practice	8			0		da	1	748	6	6	antiphase_hc_ois.wav	3	6	2	noise_calib_stim_LEFT.wav	1	8	blb_dichoticlistening_da-da.mp3	da	da	0	left
6.6.1	mac	2023-06-12	23:38:53	0	0	5efa98dd74af25000cdbbf43	1	1	DL_practice	11	DL_practice	9			0		ka	1	981	6	6	antiphase_hc_ois.wav	3	6	2	noise_calib_stim_LEFT.wav	1	23	blb_dichoticlistening_ka-pa.mp3	ka	pa	1	left
6.6.1	mac	2023-06-12	23:38:53	0	0	5efa98dd74af25000cdbbf43	1	1	DL_practice	11	DL_practice	10			0		ka	1	543	6	6	antiphase_hc_ois.wav	3	6	2	noise_calib_stim_LEFT.wav	1	22	blb_dichoticlistening_ka-ka.mp3	ka	ka	0	left
6.6.1	mac	2023-06-12	23:38:53	0	0	5efa98dd74af25000cdbbf43	1	1	DL_test	13	DL_test	1			0		ka	1	779	6	6	antiphase_hc_ois.wav	3	6	2	noise_calib_stim_LEFT.wav	1	24	blb_dichoticlistening_ka-ta.mp3	ka	ta	1	left
6.6.1	mac	2023-06-12	23:38:53	0	0	5efa98dd74af25000cdbbf43	1	1	DL_test	13	DL_test	2			0		ta	1	1182	6	6	antiphase_hc_ois.wav	3	6	2	noise_calib_stim_LEFT.wav	1	32	blb_dichoticlistening_ta-da.mp3	ta	da	1	left
6.6.1	mac	2023-06-12	23:38:53	0	0	5efa98dd74af25000cdbbf43	1	1	DL_test	13	DL_test	3			0		ka	1	1226	6	6	antiphase_hc_ois.wav	3	6	2	noise_calib_stim_LEFT.wav	1	34	blb_dichoticlistening_ta-ka.mp3	ta	ka	1	right
6.6.1	mac	2023-06-12	23:38:53	0	0	5efa98dd74af25000cdbbf43	1	1	DL_test	13	DL_test	4			0		ka	1	622	6	6	antiphase_hc_ois.wav	3	6	2	noise_calib_stim_LEFT.wav	1	4	blb_dichoticlistening_ba-ka.mp3	ba	ka	1	right
6.6.1	mac	2023-06-12	23:38:53	0	0	5efa98dd74af25000cdbbf43	1	1	DL_test	13	DL_test	5			0		pa	1	733	6	6	antiphase_hc_ois.wav	3	6	2	noise_calib_stim_LEFT.wav	1	29	blb_dichoticlistening_pa-pa.mp3	pa	pa	0	left
6.6.1	mac	2023-06-12	23:38:53	0	0	5efa98dd74af25000cdbbf43	1	1	DL_test	13	DL_test	6			0		ga	1	1724	6	6	antiphase_hc_ois.wav	3	6	2	noise_calib_stim_LEFT.wav	1	33	blb_dichoticlistening_ta-ga.mp3	ta	ga	1	right
6.6.1	mac	2023-06-12	23:38:53	0	0	5efa98dd74af25000cdbbf43	1	1	DL_test	13	DL_test	7			0		ka	0	1511	6	6	antiphase_hc_ois.wav	3	6	2	noise_calib_stim_LEFT.wav	1	18	blb_dichoticlistening_ga-ta.mp3	ga	ta	1	other
6.6.1	mac	2023-06-12	23:38:53	0	0	5efa98dd74af25000cdbbf43	1	1	DL_test	13	DL_test	8			0		ta	1	2049	6	6	antiphase_hc_ois.wav	3	6	2	noise_calib_stim_LEFT.wav	1	36	blb_dichoticlistening_ta-ta.mp3	ta	ta	0	left
6.6.1	mac	2023-06-12	23:38:53	0	0	5efa98dd74af25000cdbbf43	1	1	DL_test	13	DL_test	9			0		ka	1	4890	6	6	antiphase_hc_ois.wav	3	6	2	noise_calib_stim_LEFT.wav	1	16	blb_dichoticlistening_ga-ka.mp3	ga	ka	1	right
6.6.1	mac	2023-06-12	23:38:53	0	0	5efa98dd74af25000cdbbf43	1	1	DL_test	13	DL_test	10			0		ka	0	738	6	6	antiphase_hc_ois.wav	3	6	2	noise_calib_stim_LEFT.wav	1	6	blb_dichoticlistening_ba-ta.mp3	ba	ta	1	other
6.6.1	mac	2023-06-12	23:38:53	0	0	5efa98dd74af25000cdbbf43	1	1	DL_test	13	DL_test	11			0		ta	1	1109	6	6	antiphase_hc_ois.wav	3	6	2	noise_calib_stim_LEFT.wav	1	12	blb_dichoticlistening_da-ta.mp3	da	ta	1	right
6.6.1	mac	2023-06-12	23:38:53	0	0	5efa98dd74af25000cdbbf43	1	1	DL_test	13	DL_test	12			0		ga	1	948	6	6	antiphase_hc_ois.wav	3	6	2	noise_calib_stim_LEFT.wav	1	9	blb_dichoticlistening_da-ga.mp3	da	ga	1	right
6.6.1	mac	2023-06-12	23:38:53	0	0	5efa98dd74af25000cdbbf43	1	1	DL_test	13	DL_test	13			0		pa	1	900	6	6	antiphase_hc_ois.wav	3	6	2	noise_calib_stim_LEFT.wav	1	30	blb_dichoticlistening_pa-ta.mp3	pa	ta	1	left
6.6.1	mac	2023-06-12	23:38:53	0	0	5efa98dd74af25000cdbbf43	1	1	DL_test	13	DL_test	14			0		ka	1	688	6	6	antiphase_hc_ois.wav	3	6	2	noise_calib_stim_LEFT.wav	1	22	blb_dichoticlistening_ka-ka.mp3	ka	ka	0	left
6.6.1	mac	2023-06-12	23:38:53	0	0	5efa98dd74af25000cdbbf43	1	1	DL_test	13	DL_test	15			0		ka	1	756	6	6	antiphase_hc_ois.wav	3	6	2	noise_calib_stim_LEFT.wav	1	28	blb_dichoticlistening_pa-ka.mp3	pa	ka	1	right
6.6.1	mac	2023-06-12	23:38:53	0	0	5efa98dd74af25000cdbbf43	1	1	DL_test	13	DL_test	16			0		pa	1	928	6	6	antiphase_hc_ois.wav	3	6	2	noise_calib_stim_LEFT.wav	1	27	blb_dichoticlistening_pa-ga.mp3	pa	ga	1	left
6.6.1	mac	2023-06-12	23:38:53	0	0	5efa98dd74af25000cdbbf43	1	1	DL_test	13	DL_test	17			0		da	0	849	6	6	antiphase_hc_ois.wav	3	6	2	noise_calib_stim_LEFT.wav	1	13	blb_dichoticlistening_ga-ba.mp3	ga	ba	1	other
6.6.1	mac	2023-06-12	23:38:53	0	0	5efa98dd74af25000cdbbf43	1	1	DL_test	13	DL_test	18			0		ba	1	875	6	6	antiphase_hc_ois.wav	3	6	2	noise_calib_stim_LEFT.wav	1	3	blb_dichoticlistening_ba-ga.mp3	ba	ga	1	left
6.6.1	mac	2023-06-12	23:38:53	0	0	5efa98dd74af25000cdbbf43	1	1	DL_test	13	DL_test	19			0		ba	1	932	6	6	antiphase_hc_ois.wav	3	6	2	noise_calib_stim_LEFT.wav	1	2	blb_dichoticlistening_ba-da.mp3	ba	da	1	left
6.6.1	mac	2023-06-12	23:38:53	0	0	5efa98dd74af25000cdbbf43	1	1	DL_test	13	DL_test	20			0		pa	1	1157	6	6	antiphase_hc_ois.wav	3	6	2	noise_calib_stim_LEFT.wav	1	5	blb_dichoticlistening_ba-pa.mp3	ba	pa	1	right
6.6.1	mac	2023-06-12	23:38:53	0	0	5efa98dd74af25000cdbbf43	1	1	DL_test	13	DL_test	21			0		pa	1	869	6	6	antiphase_hc_ois.wav	3	6	2	noise_calib_stim_LEFT.wav	1	26	blb_dichoticlistening_pa-da.mp3	pa	da	1	left
6.6.1	mac	2023-06-12	23:38:53	0	0	5efa98dd74af25000cdbbf43	1	1	DL_test	13	DL_test	22			0		ba	1	1036	6	6	antiphase_hc_ois.wav	3	6	2	noise_calib_stim_LEFT.wav	1	7	blb_dichoticlistening_da-ba.mp3	da	ba	1	right
6.6.1	mac	2023-06-12	23:38:53	0	0	5efa98dd74af25000cdbbf43	1	1	DL_test	13	DL_test	23			0		ba	0	929	6	6	antiphase_hc_ois.wav	3	6	2	noise_calib_stim_LEFT.wav	1	10	blb_dichoticlistening_da-ka.mp3	da	ka	1	other
6.6.1	mac	2023-06-12	23:38:53	0	0	5efa98dd74af25000cdbbf43	1	1	DL_test	13	DL_test	24			0		ba	1	772	6	6	antiphase_hc_ois.wav	3	6	2	noise_calib_stim_LEFT.wav	1	1	blb_dichoticlistening_ba-ba.mp3	ba	ba	0	left
6.6.1	mac	2023-06-12	23:38:53	0	0	5efa98dd74af25000cdbbf43	1	1	DL_test	13	DL_test	25			0		pa	1	1028	6	6	antiphase_hc_ois.wav	3	6	2	noise_calib_stim_LEFT.wav	1	11	blb_dichoticlistening_da-pa.mp3	da	pa	1	right
6.6.1	mac	2023-06-12	23:38:53	0	0	5efa98dd74af25000cdbbf43	1	1	DL_test	13	DL_test	26			0		ka	1	728	6	6	antiphase_hc_ois.wav	3	6	2	noise_calib_stim_LEFT.wav	1	19	blb_dichoticlistening_ka-ba.mp3	ka	ba	1	left
6.6.1	mac	2023-06-12	23:38:53	0	0	5efa98dd74af25000cdbbf43	1	1	DL_test	13	DL_test	27			0		ka	1	736	6	6	antiphase_hc_ois.wav	3	6	2	noise_calib_stim_LEFT.wav	1	23	blb_dichoticlistening_ka-pa.mp3	ka	pa	1	left
6.6.1	mac	2023-06-12	23:38:53	0	0	5efa98dd74af25000cdbbf43	1	1	DL_test	13	DL_test	28			0		da	1	1164	6	6	antiphase_hc_ois.wav	3	6	2	noise_calib_stim_LEFT.wav	1	8	blb_dichoticlistening_da-da.mp3	da	da	0	left
6.6.1	mac	2023-06-12	23:38:53	0	0	5efa98dd74af25000cdbbf43	1	1	DL_test	13	DL_test	29			0		ta	1	1220	6	6	antiphase_hc_ois.wav	3	6	2	noise_calib_stim_LEFT.wav	1	31	blb_dichoticlistening_ta-ba.mp3	ta	ba	1	left
6.6.1	mac	2023-06-12	23:38:53	0	0	5efa98dd74af25000cdbbf43	1	1	DL_test	13	DL_test	30			0		ga	1	803	6	6	antiphase_hc_ois.wav	3	6	2	noise_calib_stim_LEFT.wav	1	15	blb_dichoticlistening_ga-ga.mp3	ga	ga	0	left
6.6.1	mac	2023-06-12	23:38:53	0	0	5efa98dd74af25000cdbbf43	1	1	DL_test	13	DL_test	31			0		ka	1	797	6	6	antiphase_hc_ois.wav	3	6	2	noise_calib_stim_LEFT.wav	1	21	blb_dichoticlistening_ka-ga.mp3	ka	ga	1	left
6.6.1	mac	2023-06-12	23:38:53	0	0	5efa98dd74af25000cdbbf43	1	1	DL_test	13	DL_test	32			0		pa	1	624	6	6	antiphase_hc_ois.wav	3	6	2	noise_calib_stim_LEFT.wav	1	17	blb_dichoticlistening_ga-pa.mp3	ga	pa	1	right
6.6.1	mac	2023-06-12	23:38:53	0	0	5efa98dd74af25000cdbbf43	1	1	DL_test	13	DL_test	33			0		ka	0	931	6	6	antiphase_hc_ois.wav	3	6	2	noise_calib_stim_LEFT.wav	1	14	blb_dichoticlistening_ga-da.mp3	ga	da	1	other
6.6.1	mac	2023-06-12	23:38:53	0	0	5efa98dd74af25000cdbbf43	1	1	DL_test	13	DL_test	34			0		ka	1	1335	6	6	antiphase_hc_ois.wav	3	6	2	noise_calib_stim_LEFT.wav	1	20	blb_dichoticlistening_ka-da.mp3	ka	da	1	left
6.6.1	mac	2023-06-12	23:38:53	0	0	5efa98dd74af25000cdbbf43	1	1	DL_test	13	DL_test	35			0		pa	1	666	6	6	antiphase_hc_ois.wav	3	6	2	noise_calib_stim_LEFT.wav	1	35	blb_dichoticlistening_ta-pa.mp3	ta	pa	1	right
6.6.1	mac	2023-06-12	23:38:53	0	0	5efa98dd74af25000cdbbf43	1	1	DL_test	13	DL_test	36			0		pa	1	964	6	6	antiphase_hc_ois.wav	3	6	2	noise_calib_stim_LEFT.wav	1	25	blb_dichoticlistening_pa-ba.mp3	pa	ba	1	left
6.6.1	mac	2023-06-12	23:38:53	0	0	5efa98dd74af25000cdbbf43	1	1	DL_test	14	DL_test	1			0		ga	1	794	6	6	antiphase_hc_ois.wav	3	6	2	noise_calib_stim_LEFT.wav	1	15	blb_dichoticlistening_ga-ga.mp3	ga	ga	0	left
6.6.1	mac	2023-06-12	23:38:53	0	0	5efa98dd74af25000cdbbf43	1	1	DL_test	14	DL_test	2			0		ka	0	628	6	6	antiphase_hc_ois.wav	3	6	2	noise_calib_stim_LEFT.wav	1	32	blb_dichoticlistening_ta-da.mp3	ta	da	1	other
6.6.1	mac	2023-06-12	23:38:53	0	0	5efa98dd74af25000cdbbf43	1	1	DL_test	14	DL_test	3			0		ga	1	923	6	6	antiphase_hc_ois.wav	3	6	2	noise_calib_stim_LEFT.wav	1	9	blb_dichoticlistening_da-ga.mp3	da	ga	1	right
6.6.1	mac	2023-06-12	23:38:53	0	0	5efa98dd74af25000cdbbf43	1	1	DL_test	14	DL_test	4			0		ka	1	761	6	6	antiphase_hc_ois.wav	3	6	2	noise_calib_stim_LEFT.wav	1	28	blb_dichoticlistening_pa-ka.mp3	pa	ka	1	right
6.6.1	mac	2023-06-12	23:38:53	0	0	5efa98dd74af25000cdbbf43	1	1	DL_test	14	DL_test	5			0		ga	1	1100	6	6	antiphase_hc_ois.wav	3	6	2	noise_calib_stim_LEFT.wav	1	33	blb_dichoticlistening_ta-ga.mp3	ta	ga	1	right
6.6.1	mac	2023-06-12	23:38:53	0	0	5efa98dd74af25000cdbbf43	1	1	DL_test	14	DL_test	6			0		pa	1	819	6	6	antiphase_hc_ois.wav	3	6	2	noise_calib_stim_LEFT.wav	1	11	blb_dichoticlistening_da-pa.mp3	da	pa	1	right
6.6.1	mac	2023-06-12	23:38:53	0	0	5efa98dd74af25000cdbbf43	1	1	DL_test	14	DL_test	7			0		ba	1	1573	6	6	antiphase_hc_ois.wav	3	6	2	noise_calib_stim_LEFT.wav	1	2	blb_dichoticlistening_ba-da.mp3	ba	da	1	left
6.6.1	mac	2023-06-12	23:38:53	0	0	5efa98dd74af25000cdbbf43	1	1	DL_test	14	DL_test	8			0		ka	1	1113	6	6	antiphase_hc_ois.wav	3	6	2	noise_calib_stim_LEFT.wav	1	19	blb_dichoticlistening_ka-ba.mp3	ka	ba	1	left
6.6.1	mac	2023-06-12	23:38:53	0	0	5efa98dd74af25000cdbbf43	1	1	DL_test	14	DL_test	9			0		pa	1	914	6	6	antiphase_hc_ois.wav	3	6	2	noise_calib_stim_LEFT.wav	1	25	blb_dichoticlistening_pa-ba.mp3	pa	ba	1	left
6.6.1	mac	2023-06-12	23:38:53	0	0	5efa98dd74af25000cdbbf43	1	1	DL_test	14	DL_test	10			0		ba	1	1252	6	6	antiphase_hc_ois.wav	3	6	2	noise_calib_stim_LEFT.wav	1	3	blb_dichoticlistening_ba-ga.mp3	ba	ga	1	left
6.6.1	mac	2023-06-12	23:38:53	0	0	5efa98dd74af25000cdbbf43	1	1	DL_test	14	DL_test	11			0		pa	1	1045	6	6	antiphase_hc_ois.wav	3	6	2	noise_calib_stim_LEFT.wav	1	30	blb_dichoticlistening_pa-ta.mp3	pa	ta	1	left
6.6.1	mac	2023-06-12	23:38:53	0	0	5efa98dd74af25000cdbbf43	1	1	DL_test	14	DL_test	12			0		ba	1	1239	6	6	antiphase_hc_ois.wav	3	6	2	noise_calib_stim_LEFT.wav	1	7	blb_dichoticlistening_da-ba.mp3	da	ba	1	right
6.6.1	mac	2023-06-12	23:38:53	0	0	5efa98dd74af25000cdbbf43	1	1	DL_test	14	DL_test	13			0		ba	1	631	6	6	antiphase_hc_ois.wav	3	6	2	noise_calib_stim_LEFT.wav	1	1	blb_dichoticlistening_ba-ba.mp3	ba	ba	0	left
6.6.1	mac	2023-06-12	23:38:53	0	0	5efa98dd74af25000cdbbf43	1	1	DL_test	14	DL_test	14			0		ga	1	1074	6	6	antiphase_hc_ois.wav	3	6	2	noise_calib_stim_LEFT.wav	1	14	blb_dichoticlistening_ga-da.mp3	ga	da	1	left
6.6.1	mac	2023-06-12	23:38:53	0	0	5efa98dd74af25000cdbbf43	1	1	DL_test	14	DL_test	15			0		ka	1	879	6	6	antiphase_hc_ois.wav	3	6	2	noise_calib_stim_LEFT.wav	1	4	blb_dichoticlistening_ba-ka.mp3	ba	ka	1	right
6.6.1	mac	2023-06-12	23:38:53	0	0	5efa98dd74af25000cdbbf43	1	1	DL_test	14	DL_test	16			0		pa	1	781	6	6	antiphase_hc_ois.wav	3	6	2	noise_calib_stim_LEFT.wav	1	35	blb_dichoticlistening_ta-pa.mp3	ta	pa	1	right
6.6.1	mac	2023-06-12	23:38:53	0	0	5efa98dd74af25000cdbbf43	1	1	DL_test	14	DL_test	17			0		pa	0	578	6	6	antiphase_hc_ois.wav	3	6	2	noise_calib_stim_LEFT.wav	1	31	blb_dichoticlistening_ta-ba.mp3	ta	ba	1	other
6.6.1	mac	2023-06-12	23:38:53	0	0	5efa98dd74af25000cdbbf43	1	1	DL_test	14	DL_test	18			0		da	1	1169	6	6	antiphase_hc_ois.wav	3	6	2	noise_calib_stim_LEFT.wav	1	8	blb_dichoticlistening_da-da.mp3	da	da	0	left
6.6.1	mac	2023-06-12	23:38:53	0	0	5efa98dd74af25000cdbbf43	1	1	DL_test	14	DL_test	19			0		ka	0	1000	6	6	antiphase_hc_ois.wav	3	6	2	noise_calib_stim_LEFT.wav	1	6	blb_dichoticlistening_ba-ta.mp3	ba	ta	1	other
6.6.1	mac	2023-06-12	23:38:53	0	0	5efa98dd74af25000cdbbf43	1	1	DL_test	14	DL_test	20			0		pa	0	783	6	6	antiphase_hc_ois.wav	3	6	2	noise_calib_stim_LEFT.wav	1	10	blb_dichoticlistening_da-ka.mp3	da	ka	1	other
6.6.1	mac	2023-06-12	23:38:53	0	0	5efa98dd74af25000cdbbf43	1	1	DL_test	14	DL_test	21			0		ka	1	667	6	6	antiphase_hc_ois.wav	3	6	2	noise_calib_stim_LEFT.wav	1	16	blb_dichoticlistening_ga-ka.mp3	ga	ka	1	right
6.6.1	mac	2023-06-12	23:38:53	0	0	5efa98dd74af25000cdbbf43	1	1	DL_test	14	DL_test	22			0		pa	1	816	6	6	antiphase_hc_ois.wav	3	6	2	noise_calib_stim_LEFT.wav	1	17	blb_dichoticlistening_ga-pa.mp3	ga	pa	1	right
6.6.1	mac	2023-06-12	23:38:53	0	0	5efa98dd74af25000cdbbf43	1	1	DL_test	14	DL_test	23			0		pa	1	882	6	6	antiphase_hc_ois.wav	3	6	2	noise_calib_stim_LEFT.wav	1	26	blb_dichoticlistening_pa-da.mp3	pa	da	1	left
6.6.1	mac	2023-06-12	23:38:53	0	0	5efa98dd74af25000cdbbf43	1	1	DL_test	14	DL_test	24			0		ka	0	598	6	6	antiphase_hc_ois.wav	3	6	2	noise_calib_stim_LEFT.wav	1	18	blb_dichoticlistening_ga-ta.mp3	ga	ta	1	other
6.6.1	mac	2023-06-12	23:38:53	0	0	5efa98dd74af25000cdbbf43	1	1	DL_test	14	DL_test	25			0		ka	1	536	6	6	antiphase_hc_ois.wav	3	6	2	noise_calib_stim_LEFT.wav	1	22	blb_dichoticlistening_ka-ka.mp3	ka	ka	0	left
6.6.1	mac	2023-06-12	23:38:53	0	0	5efa98dd74af25000cdbbf43	1	1	DL_test	14	DL_test	26			0		ta	1	1071	6	6	antiphase_hc_ois.wav	3	6	2	noise_calib_stim_LEFT.wav	1	12	blb_dichoticlistening_da-ta.mp3	da	ta	1	right
6.6.1	mac	2023-06-12	23:38:53	0	0	5efa98dd74af25000cdbbf43	1	1	DL_test	14	DL_test	27			0		ka	1	896	6	6	antiphase_hc_ois.wav	3	6	2	noise_calib_stim_LEFT.wav	1	23	blb_dichoticlistening_ka-pa.mp3	ka	pa	1	left
6.6.1	mac	2023-06-12	23:38:53	0	0	5efa98dd74af25000cdbbf43	1	1	DL_test	14	DL_test	28			0		ka	1	685	6	6	antiphase_hc_ois.wav	3	6	2	noise_calib_stim_LEFT.wav	1	34	blb_dichoticlistening_ta-ka.mp3	ta	ka	1	right
6.6.1	mac	2023-06-12	23:38:53	0	0	5efa98dd74af25000cdbbf43	1	1	DL_test	14	DL_test	29			0		ka	1	527	6	6	antiphase_hc_ois.wav	3	6	2	noise_calib_stim_LEFT.wav	1	24	blb_dichoticlistening_ka-ta.mp3	ka	ta	1	left
6.6.1	mac	2023-06-12	23:38:53	0	0	5efa98dd74af25000cdbbf43	1	1	DL_test	14	DL_test	30			0		ka	1	670	6	6	antiphase_hc_ois.wav	3	6	2	noise_calib_stim_LEFT.wav	1	20	blb_dichoticlistening_ka-da.mp3	ka	da	1	left
6.6.1	mac	2023-06-12	23:38:53	0	0	5efa98dd74af25000cdbbf43	1	1	DL_test	14	DL_test	31			0		ba	1	1125	6	6	antiphase_hc_ois.wav	3	6	2	noise_calib_stim_LEFT.wav	1	13	blb_dichoticlistening_ga-ba.mp3	ga	ba	1	right
6.6.1	mac	2023-06-12	23:38:53	0	0	5efa98dd74af25000cdbbf43	1	1	DL_test	14	DL_test	32			0		ka	1	1033	6	6	antiphase_hc_ois.wav	3	6	2	noise_calib_stim_LEFT.wav	1	21	blb_dichoticlistening_ka-ga.mp3	ka	ga	1	left
6.6.1	mac	2023-06-12	23:38:53	0	0	5efa98dd74af25000cdbbf43	1	1	DL_test	14	DL_test	33			0		ka	0	825	6	6	antiphase_hc_ois.wav	3	6	2	noise_calib_stim_LEFT.wav	1	27	blb_dichoticlistening_pa-ga.mp3	pa	ga	1	other
6.6.1	mac	2023-06-12	23:38:53	0	0	5efa98dd74af25000cdbbf43	1	1	DL_test	14	DL_test	34			0		pa	1	755	6	6	antiphase_hc_ois.wav	3	6	2	noise_calib_stim_LEFT.wav	1	5	blb_dichoticlistening_ba-pa.mp3	ba	pa	1	right
6.6.1	mac	2023-06-12	23:38:53	0	0	5efa98dd74af25000cdbbf43	1	1	DL_test	14	DL_test	35			0		pa	1	511	6	6	antiphase_hc_ois.wav	3	6	2	noise_calib_stim_LEFT.wav	1	29	blb_dichoticlistening_pa-pa.mp3	pa	pa	0	left
6.6.1	mac	2023-06-12	23:38:53	0	0	5efa98dd74af25000cdbbf43	1	1	DL_test	14	DL_test	36			0		ta	1	748	6	6	antiphase_hc_ois.wav	3	6	2	noise_calib_stim_LEFT.wav	1	36	blb_dichoticlistening_ta-ta.mp3	ta	ta	0	left
6.6.1	mac	2023-06-12	23:38:53	0	0	5efa98dd74af25000cdbbf43	1	1	DL_test	15	DL_test	1			0		ba	1	1467	6	6	antiphase_hc_ois.wav	3	6	2	noise_calib_stim_LEFT.wav	1	7	blb_dichoticlistening_da-ba.mp3	da	ba	1	right
6.6.1	mac	2023-06-12	23:38:53	0	0	5efa98dd74af25000cdbbf43	1	1	DL_test	15	DL_test	2			0		pa	1	997	6	6	antiphase_hc_ois.wav	3	6	2	noise_calib_stim_LEFT.wav	1	5	blb_dichoticlistening_ba-pa.mp3	ba	pa	1	right
6.6.1	mac	2023-06-12	23:38:53	0	0	5efa98dd74af25000cdbbf43	1	1	DL_test	15	DL_test	3			0		da	1	933	6	6	antiphase_hc_ois.wav	3	6	2	noise_calib_stim_LEFT.wav	1	8	blb_dichoticlistening_da-da.mp3	da	da	0	left
6.6.1	mac	2023-06-12	23:38:53	0	0	5efa98dd74af25000cdbbf43	1	1	DL_test	15	DL_test	4			0		ga	1	622	6	6	antiphase_hc_ois.wav	3	6	2	noise_calib_stim_LEFT.wav	1	9	blb_dichoticlistening_da-ga.mp3	da	ga	1	right
6.6.1	mac	2023-06-12	23:38:53	0	0	5efa98dd74af25000cdbbf43	1	1	DL_test	15	DL_test	5			0		ga	1	535	6	6	antiphase_hc_ois.wav	3	6	2	noise_calib_stim_LEFT.wav	1	14	blb_dichoticlistening_ga-da.mp3	ga	da	1	left
6.6.1	mac	2023-06-12	23:38:53	0	0	5efa98dd74af25000cdbbf43	1	1	DL_test	15	DL_test	6			0		ba	1	1351	6	6	antiphase_hc_ois.wav	3	6	2	noise_calib_stim_LEFT.wav	1	13	blb_dichoticlistening_ga-ba.mp3	ga	ba	1	right
6.6.1	mac	2023-06-12	23:38:53	0	0	5efa98dd74af25000cdbbf43	1	1	DL_test	15	DL_test	7			0		ka	1	682	6	6	antiphase_hc_ois.wav	3	6	2	noise_calib_stim_LEFT.wav	1	28	blb_dichoticlistening_pa-ka.mp3	pa	ka	1	right
6.6.1	mac	2023-06-12	23:38:53	0	0	5efa98dd74af25000cdbbf43	1	1	DL_test	15	DL_test	8			0		ka	1	918	6	6	antiphase_hc_ois.wav	3	6	2	noise_calib_stim_LEFT.wav	1	23	blb_dichoticlistening_ka-pa.mp3	ka	pa	1	left
6.6.1	mac	2023-06-12	23:38:53	0	0	5efa98dd74af25000cdbbf43	1	1	DL_test	15	DL_test	9			0		pa	0	1034	6	6	antiphase_hc_ois.wav	3	6	2	noise_calib_stim_LEFT.wav	1	3	blb_dichoticlistening_ba-ga.mp3	ba	ga	1	other
6.6.1	mac	2023-06-12	23:38:53	0	0	5efa98dd74af25000cdbbf43	1	1	DL_test	15	DL_test	10			0		ka	0	683	6	6	antiphase_hc_ois.wav	3	6	2	noise_calib_stim_LEFT.wav	1	6	blb_dichoticlistening_ba-ta.mp3	ba	ta	1	other
6.6.1	mac	2023-06-12	23:38:53	0	0	5efa98dd74af25000cdbbf43	1	1	DL_test	15	DL_test	11			0		ka	1	486	6	6	antiphase_hc_ois.wav	3	6	2	noise_calib_stim_LEFT.wav	1	22	blb_dichoticlistening_ka-ka.mp3	ka	ka	0	left
6.6.1	mac	2023-06-12	23:38:53	0	0	5efa98dd74af25000cdbbf43	1	1	DL_test	15	DL_test	12			0		pa	1	531	6	6	antiphase_hc_ois.wav	3	6	2	noise_calib_stim_LEFT.wav	1	29	blb_dichoticlistening_pa-pa.mp3	pa	pa	0	left
6.6.1	mac	2023-06-12	23:38:53	0	0	5efa98dd74af25000cdbbf43	1	1	DL_test	15	DL_test	13			0		pa	1	715	6	6	antiphase_hc_ois.wav	3	6	2	noise_calib_stim_LEFT.wav	1	35	blb_dichoticlistening_ta-pa.mp3	ta	pa	1	right
6.6.1	mac	2023-06-12	23:38:53	0	0	5efa98dd74af25000cdbbf43	1	1	DL_test	15	DL_test	14			0		ka	1	585	6	6	antiphase_hc_ois.wav	3	6	2	noise_calib_stim_LEFT.wav	1	16	blb_dichoticlistening_ga-ka.mp3	ga	ka	1	right
6.6.1	mac	2023-06-12	23:38:53	0	0	5efa98dd74af25000cdbbf43	1	1	DL_test	15	DL_test	15			0		ka	0	440	6	6	antiphase_hc_ois.wav	3	6	2	noise_calib_stim_LEFT.wav	1	18	blb_dichoticlistening_ga-ta.mp3	ga	ta	1	other
6.6.1	mac	2023-06-12	23:38:53	0	0	5efa98dd74af25000cdbbf43	1	1	DL_test	15	DL_test	16			0		ga	1	929	6	6	antiphase_hc_ois.wav	3	6	2	noise_calib_stim_LEFT.wav	1	27	blb_dichoticlistening_pa-ga.mp3	pa	ga	1	right
6.6.1	mac	2023-06-12	23:38:53	0	0	5efa98dd74af25000cdbbf43	1	1	DL_test	15	DL_test	17			0		ka	1	838	6	6	antiphase_hc_ois.wav	3	6	2	noise_calib_stim_LEFT.wav	1	24	blb_dichoticlistening_ka-ta.mp3	ka	ta	1	left
6.6.1	mac	2023-06-12	23:38:53	0	0	5efa98dd74af25000cdbbf43	1	1	DL_test	15	DL_test	18			0		ba	1	1351	6	6	antiphase_hc_ois.wav	3	6	2	noise_calib_stim_LEFT.wav	1	2	blb_dichoticlistening_ba-da.mp3	ba	da	1	left
6.6.1	mac	2023-06-12	23:38:53	0	0	5efa98dd74af25000cdbbf43	1	1	DL_test	15	DL_test	19			0		ba	1	1252	6	6	antiphase_hc_ois.wav	3	6	2	noise_calib_stim_LEFT.wav	1	25	blb_dichoticlistening_pa-ba.mp3	pa	ba	1	right
6.6.1	mac	2023-06-12	23:38:53	0	0	5efa98dd74af25000cdbbf43	1	1	DL_test	15	DL_test	20			0		ka	1	1003	6	6	antiphase_hc_ois.wav	3	6	2	noise_calib_stim_LEFT.wav	1	4	blb_dichoticlistening_ba-ka.mp3	ba	ka	1	right
6.6.1	mac	2023-06-12	23:38:53	0	0	5efa98dd74af25000cdbbf43	1	1	DL_test	15	DL_test	21			0		pa	1	623	6	6	antiphase_hc_ois.wav	3	6	2	noise_calib_stim_LEFT.wav	1	11	blb_dichoticlistening_da-pa.mp3	da	pa	1	right
6.6.1	mac	2023-06-12	23:38:53	0	0	5efa98dd74af25000cdbbf43	1	1	DL_test	15	DL_test	22			0		ga	1	897	6	6	antiphase_hc_ois.wav	3	6	2	noise_calib_stim_LEFT.wav	1	15	blb_dichoticlistening_ga-ga.mp3	ga	ga	0	left
6.6.1	mac	2023-06-12	23:38:53	0	0	5efa98dd74af25000cdbbf43	1	1	DL_test	15	DL_test	23			0		pa	1	793	6	6	antiphase_hc_ois.wav	3	6	2	noise_calib_stim_LEFT.wav	1	26	blb_dichoticlistening_pa-da.mp3	pa	da	1	left
6.6.1	mac	2023-06-12	23:38:53	0	0	5efa98dd74af25000cdbbf43	1	1	DL_test	15	DL_test	24			0		ta	1	752	6	6	antiphase_hc_ois.wav	3	6	2	noise_calib_stim_LEFT.wav	1	32	blb_dichoticlistening_ta-da.mp3	ta	da	1	left
6.6.1	mac	2023-06-12	23:38:53	0	0	5efa98dd74af25000cdbbf43	1	1	DL_test	15	DL_test	25			0		pa	1	888	6	6	antiphase_hc_ois.wav	3	6	2	noise_calib_stim_LEFT.wav	1	17	blb_dichoticlistening_ga-pa.mp3	ga	pa	1	right
6.6.1	mac	2023-06-12	23:38:53	0	0	5efa98dd74af25000cdbbf43	1	1	DL_test	15	DL_test	26			0		pa	0	622	6	6	antiphase_hc_ois.wav	3	6	2	noise_calib_stim_LEFT.wav	1	12	blb_dichoticlistening_da-ta.mp3	da	ta	1	other
6.6.1	mac	2023-06-12	23:38:53	0	0	5efa98dd74af25000cdbbf43	1	1	DL_test	15	DL_test	27			0		pa	0	572	6	6	antiphase_hc_ois.wav	3	6	2	noise_calib_stim_LEFT.wav	1	10	blb_dichoticlistening_da-ka.mp3	da	ka	1	other
6.6.1	mac	2023-06-12	23:38:53	0	0	5efa98dd74af25000cdbbf43	1	1	DL_test	15	DL_test	28			0		ka	0	669	6	6	antiphase_hc_ois.wav	3	6	2	noise_calib_stim_LEFT.wav	1	33	blb_dichoticlistening_ta-ga.mp3	ta	ga	1	other
6.6.1	mac	2023-06-12	23:38:53	0	0	5efa98dd74af25000cdbbf43	1	1	DL_test	15	DL_test	29			0		ta	1	1442	6	6	antiphase_hc_ois.wav	3	6	2	noise_calib_stim_LEFT.wav	1	36	blb_dichoticlistening_ta-ta.mp3	ta	ta	0	left
6.6.1	mac	2023-06-12	23:38:53	0	0	5efa98dd74af25000cdbbf43	1	1	DL_test	15	DL_test	30			0		ta	1	803	6	6	antiphase_hc_ois.wav	3	6	2	noise_calib_stim_LEFT.wav	1	30	blb_dichoticlistening_pa-ta.mp3	pa	ta	1	right
6.6.1	mac	2023-06-12	23:38:53	0	0	5efa98dd74af25000cdbbf43	1	1	DL_test	15	DL_test	31			0		ta	1	702	6	6	antiphase_hc_ois.wav	3	6	2	noise_calib_stim_LEFT.wav	1	31	blb_dichoticlistening_ta-ba.mp3	ta	ba	1	left
6.6.1	mac	2023-06-12	23:38:53	0	0	5efa98dd74af25000cdbbf43	1	1	DL_test	15	DL_test	32			0		ka	1	1231	6	6	antiphase_hc_ois.wav	3	6	2	noise_calib_stim_LEFT.wav	1	34	blb_dichoticlistening_ta-ka.mp3	ta	ka	1	right
6.6.1	mac	2023-06-12	23:38:53	0	0	5efa98dd74af25000cdbbf43	1	1	DL_test	15	DL_test	33			0		ka	1	619	6	6	antiphase_hc_ois.wav	3	6	2	noise_calib_stim_LEFT.wav	1	19	blb_dichoticlistening_ka-ba.mp3	ka	ba	1	left
6.6.1	mac	2023-06-12	23:38:53	0	0	5efa98dd74af25000cdbbf43	1	1	DL_test	15	DL_test	34			0		ka	1	509	6	6	antiphase_hc_ois.wav	3	6	2	noise_calib_stim_LEFT.wav	1	20	blb_dichoticlistening_ka-da.mp3	ka	da	1	left
6.6.1	mac	2023-06-12	23:38:53	0	0	5efa98dd74af25000cdbbf43	1	1	DL_test	15	DL_test	35			0		ba	1	1438	6	6	antiphase_hc_ois.wav	3	6	2	noise_calib_stim_LEFT.wav	1	1	blb_dichoticlistening_ba-ba.mp3	ba	ba	0	left
6.6.1	mac	2023-06-12	23:38:53	0	0	5efa98dd74af25000cdbbf43	1	1	DL_test	15	DL_test	36			0		ka	1	858	6	6	antiphase_hc_ois.wav	3	6	2	noise_calib_stim_LEFT.wav	1	21	blb_dichoticlistening_ka-ga.mp3	ka	ga	1	left
6.6.1	mac	2023-06-12	23:38:53	0	0	5efa98dd74af25000cdbbf43	1	1	DL_test	16	DL_test	1			0		ka	0	690	6	6	antiphase_hc_ois.wav	3	6	2	noise_calib_stim_LEFT.wav	1	18	blb_dichoticlistening_ga-ta.mp3	ga	ta	1	other
6.6.1	mac	2023-06-12	23:38:53	0	0	5efa98dd74af25000cdbbf43	1	1	DL_test	16	DL_test	2			0		ka	1	545	6	6	antiphase_hc_ois.wav	3	6	2	noise_calib_stim_LEFT.wav	1	4	blb_dichoticlistening_ba-ka.mp3	ba	ka	1	right
6.6.1	mac	2023-06-12	23:38:53	0	0	5efa98dd74af25000cdbbf43	1	1	DL_test	16	DL_test	3			0		pa	1	662	6	6	antiphase_hc_ois.wav	3	6	2	noise_calib_stim_LEFT.wav	1	25	blb_dichoticlistening_pa-ba.mp3	pa	ba	1	left
6.6.1	mac	2023-06-12	23:38:53	0	0	5efa98dd74af25000cdbbf43	1	1	DL_test	16	DL_test	4			0		ka	0	869	6	6	antiphase_hc_ois.wav	3	6	2	noise_calib_stim_LEFT.wav	1	32	blb_dichoticlistening_ta-da.mp3	ta	da	1	other
6.6.1	mac	2023-06-12	23:38:53	0	0	5efa98dd74af25000cdbbf43	1	1	DL_test	16	DL_test	5			0		ka	1	495	6	6	antiphase_hc_ois.wav	3	6	2	noise_calib_stim_LEFT.wav	1	34	blb_dichoticlistening_ta-ka.mp3	ta	ka	1	right
6.6.1	mac	2023-06-12	23:38:53	0	0	5efa98dd74af25000cdbbf43	1	1	DL_test	16	DL_test	6			0		pa	0	596	6	6	antiphase_hc_ois.wav	3	6	2	noise_calib_stim_LEFT.wav	1	2	blb_dichoticlistening_ba-da.mp3	ba	da	1	other
6.6.1	mac	2023-06-12	23:38:53	0	0	5efa98dd74af25000cdbbf43	1	1	DL_test	16	DL_test	7			0		pa	1	502	6	6	antiphase_hc_ois.wav	3	6	2	noise_calib_stim_LEFT.wav	1	11	blb_dichoticlistening_da-pa.mp3	da	pa	1	right
6.6.1	mac	2023-06-12	23:38:53	0	0	5efa98dd74af25000cdbbf43	1	1	DL_test	16	DL_test	8			0		ka	0	904	6	6	antiphase_hc_ois.wav	3	6	2	noise_calib_stim_LEFT.wav	1	31	blb_dichoticlistening_ta-ba.mp3	ta	ba	1	other
6.6.1	mac	2023-06-12	23:38:53	0	0	5efa98dd74af25000cdbbf43	1	1	DL_test	16	DL_test	9			0		ka	1	396	6	6	antiphase_hc_ois.wav	3	6	2	noise_calib_stim_LEFT.wav	1	24	blb_dichoticlistening_ka-ta.mp3	ka	ta	1	left
6.6.1	mac	2023-06-12	23:38:53	0	0	5efa98dd74af25000cdbbf43	1	1	DL_test	16	DL_test	10			0		da	0	1212	6	6	antiphase_hc_ois.wav	3	6	2	noise_calib_stim_LEFT.wav	1	1	blb_dichoticlistening_ba-ba.mp3	ba	ba	0	other
6.6.1	mac	2023-06-12	23:38:53	0	0	5efa98dd74af25000cdbbf43	1	1	DL_test	16	DL_test	11			0		da	1	537	6	6	antiphase_hc_ois.wav	3	6	2	noise_calib_stim_LEFT.wav	1	8	blb_dichoticlistening_da-da.mp3	da	da	0	left
6.6.1	mac	2023-06-12	23:38:53	0	0	5efa98dd74af25000cdbbf43	1	1	DL_test	16	DL_test	12			0		ka	1	857	6	6	antiphase_hc_ois.wav	3	6	2	noise_calib_stim_LEFT.wav	1	21	blb_dichoticlistening_ka-ga.mp3	ka	ga	1	left
6.6.1	mac	2023-06-12	23:38:53	0	0	5efa98dd74af25000cdbbf43	1	1	DL_test	16	DL_test	13			0		pa	1	968	6	6	antiphase_hc_ois.wav	3	6	2	noise_calib_stim_LEFT.wav	1	27	blb_dichoticlistening_pa-ga.mp3	pa	ga	1	left
6.6.1	mac	2023-06-12	23:38:53	0	0	5efa98dd74af25000cdbbf43	1	1	DL_test	16	DL_test	14			0		ka	1	701	6	6	antiphase_hc_ois.wav	3	6	2	noise_calib_stim_LEFT.wav	1	16	blb_dichoticlistening_ga-ka.mp3	ga	ka	1	right
6.6.1	mac	2023-06-12	23:38:53	0	0	5efa98dd74af25000cdbbf43	1	1	DL_test	16	DL_test	15			0		pa	0	1186	6	6	antiphase_hc_ois.wav	3	6	2	noise_calib_stim_LEFT.wav	1	10	blb_dichoticlistening_da-ka.mp3	da	ka	1	other
6.6.1	mac	2023-06-12	23:38:53	0	0	5efa98dd74af25000cdbbf43	1	1	DL_test	16	DL_test	16			0		ta	0	1152	6	6	antiphase_hc_ois.wav	3	6	2	noise_calib_stim_LEFT.wav	1	26	blb_dichoticlistening_pa-da.mp3	pa	da	1	other
6.6.1	mac	2023-06-12	23:38:53	0	0	5efa98dd74af25000cdbbf43	1	1	DL_test	16	DL_test	17			0		ta	1	441	6	6	antiphase_hc_ois.wav	3	6	2	noise_calib_stim_LEFT.wav	1	30	blb_dichoticlistening_pa-ta.mp3	pa	ta	1	right
6.6.1	mac	2023-06-12	23:38:53	0	0	5efa98dd74af25000cdbbf43	1	1	DL_test	16	DL_test	18			0		ka	1	935	6	6	antiphase_hc_ois.wav	3	6	2	noise_calib_stim_LEFT.wav	1	28	blb_dichoticlistening_pa-ka.mp3	pa	ka	1	right
6.6.1	mac	2023-06-12	23:38:53	0	0	5efa98dd74af25000cdbbf43	1	1	DL_test	16	DL_test	19			0		ta	1	854	6	6	antiphase_hc_ois.wav	3	6	2	noise_calib_stim_LEFT.wav	1	36	blb_dichoticlistening_ta-ta.mp3	ta	ta	0	left
6.6.1	mac	2023-06-12	23:38:53	0	0	5efa98dd74af25000cdbbf43	1	1	DL_test	16	DL_test	20			0		ta	1	691	6	6	antiphase_hc_ois.wav	3	6	2	noise_calib_stim_LEFT.wav	1	6	blb_dichoticlistening_ba-ta.mp3	ba	ta	1	right
6.6.1	mac	2023-06-12	23:38:53	0	0	5efa98dd74af25000cdbbf43	1	1	DL_test	16	DL_test	21			0		ba	1	1542	6	6	antiphase_hc_ois.wav	3	6	2	noise_calib_stim_LEFT.wav	1	13	blb_dichoticlistening_ga-ba.mp3	ga	ba	1	right
6.6.1	mac	2023-06-12	23:38:53	0	0	5efa98dd74af25000cdbbf43	1	1	DL_test	16	DL_test	22			0		ga	1	951	6	6	antiphase_hc_ois.wav	3	6	2	noise_calib_stim_LEFT.wav	1	14	blb_dichoticlistening_ga-da.mp3	ga	da	1	left
6.6.1	mac	2023-06-12	23:38:53	0	0	5efa98dd74af25000cdbbf43	1	1	DL_test	16	DL_test	23			0		pa	1	777	6	6	antiphase_hc_ois.wav	3	6	2	noise_calib_stim_LEFT.wav	1	35	blb_dichoticlistening_ta-pa.mp3	ta	pa	1	right
6.6.1	mac	2023-06-12	23:38:53	0	0	5efa98dd74af25000cdbbf43	1	1	DL_test	16	DL_test	24			0		ka	1	621	6	6	antiphase_hc_ois.wav	3	6	2	noise_calib_stim_LEFT.wav	1	22	blb_dichoticlistening_ka-ka.mp3	ka	ka	0	left
6.6.1	mac	2023-06-12	23:38:53	0	0	5efa98dd74af25000cdbbf43	1	1	DL_test	16	DL_test	25			0		ba	1	1087	6	6	antiphase_hc_ois.wav	3	6	2	noise_calib_stim_LEFT.wav	1	7	blb_dichoticlistening_da-ba.mp3	da	ba	1	right
6.6.1	mac	2023-06-12	23:38:53	0	0	5efa98dd74af25000cdbbf43	1	1	DL_test	16	DL_test	26			0		pa	1	963	6	6	antiphase_hc_ois.wav	3	6	2	noise_calib_stim_LEFT.wav	1	29	blb_dichoticlistening_pa-pa.mp3	pa	pa	0	left
6.6.1	mac	2023-06-12	23:38:53	0	0	5efa98dd74af25000cdbbf43	1	1	DL_test	16	DL_test	27			0		pa	1	807	6	6	antiphase_hc_ois.wav	3	6	2	noise_calib_stim_LEFT.wav	1	17	blb_dichoticlistening_ga-pa.mp3	ga	pa	1	right
6.6.1	mac	2023-06-12	23:38:53	0	0	5efa98dd74af25000cdbbf43	1	1	DL_test	16	DL_test	28			0		ga	1	1146	6	6	antiphase_hc_ois.wav	3	6	2	noise_calib_stim_LEFT.wav	1	3	blb_dichoticlistening_ba-ga.mp3	ba	ga	1	right
6.6.1	mac	2023-06-12	23:38:53	0	0	5efa98dd74af25000cdbbf43	1	1	DL_test	16	DL_test	29			0		ga	1	568	6	6	antiphase_hc_ois.wav	3	6	2	noise_calib_stim_LEFT.wav	1	15	blb_dichoticlistening_ga-ga.mp3	ga	ga	0	left
6.6.1	mac	2023-06-12	23:38:53	0	0	5efa98dd74af25000cdbbf43	1	1	DL_test	16	DL_test	30			0		ga	1	679	6	6	antiphase_hc_ois.wav	3	6	2	noise_calib_stim_LEFT.wav	1	33	blb_dichoticlistening_ta-ga.mp3	ta	ga	1	right
6.6.1	mac	2023-06-12	23:38:53	0	0	5efa98dd74af25000cdbbf43	1	1	DL_test	16	DL_test	31			0		ta	1	1094	6	6	antiphase_hc_ois.wav	3	6	2	noise_calib_stim_LEFT.wav	1	12	blb_dichoticlistening_da-ta.mp3	da	ta	1	right
6.6.1	mac	2023-06-12	23:38:53	0	0	5efa98dd74af25000cdbbf43	1	1	DL_test	16	DL_test	32			0		ka	1	838	6	6	antiphase_hc_ois.wav	3	6	2	noise_calib_stim_LEFT.wav	1	23	blb_dichoticlistening_ka-pa.mp3	ka	pa	1	left
6.6.1	mac	2023-06-12	23:38:53	0	0	5efa98dd74af25000cdbbf43	1	1	DL_test	16	DL_test	33			0		pa	1	611	6	6	antiphase_hc_ois.wav	3	6	2	noise_calib_stim_LEFT.wav	1	5	blb_dichoticlistening_ba-pa.mp3	ba	pa	1	right
6.6.1	mac	2023-06-12	23:38:53	0	0	5efa98dd74af25000cdbbf43	1	1	DL_test	16	DL_test	34			0		ga	0	1087	6	6	antiphase_hc_ois.wav	3	6	2	noise_calib_stim_LEFT.wav	1	20	blb_dichoticlistening_ka-da.mp3	ka	da	1	other
6.6.1	mac	2023-06-12	23:38:53	0	0	5efa98dd74af25000cdbbf43	1	1	DL_test	16	DL_test	35			0		ga	0	1266	6	6	antiphase_hc_ois.wav	3	6	2	noise_calib_stim_LEFT.wav	1	19	blb_dichoticlistening_ka-ba.mp3	ka	ba	1	other
6.6.1	mac	2023-06-12	23:38:53	0	0	5efa98dd74af25000cdbbf43	1	1	DL_test	16	DL_test	36			0		ga	1	586	6	6	antiphase_hc_ois.wav	3	6	2	noise_calib_stim_LEFT.wav	1	9	blb_dichoticlistening_da-ga.mp3	da	ga	1	right
6.6.1	mac	2023-06-12	23:38:53	23:46:34	455836	5efa98dd74af25000cdbbf43	1	1	practice_slash	22	practice_slash	1	stimuli_distractor_diamondtriangles.svg	stimuli_target_rectangletriangles.svg	7	yes	0	0	2000	6	6	antiphase_hc_ois.wav	3	6	2	noise_calib_stim_LEFT.wav	1	9	blb_dichoticlistening_da-ga.mp3	da	ga	1	right
6.6.1	mac	2023-06-12	23:38:53	23:46:34	455836	5efa98dd74af25000cdbbf43	1	1	practice_slash	22	advance_on_keypress_SLASH	2	stimuli_distractor_diamondtriangles.svg	stimuli_target_rectangletriangles.svg	7	yes	57	0	899	6	6	antiphase_hc_ois.wav	3	6	2	noise_calib_stim_LEFT.wav	1	9	blb_dichoticlistening_da-ga.mp3	da	ga	1	right
6.6.1	mac	2023-06-12	23:38:53	23:46:37	459024	5efa98dd74af25000cdbbf43	1	1	practice_slash	22	practice_slash	3	stimuli_distractor_trianglediamonds.svg	stimuli_target_diamondrectangles.svg	12	yes	53	1	533	6	6	antiphase_hc_ois.wav	3	6	2	noise_calib_stim_LEFT.wav	1	9	blb_dichoticlistening_da-ga.mp3	da	ga	1	right
6.6.1	mac	2023-06-12	23:38:53	23:46:37	459024	5efa98dd74af25000cdbbf43	1	1	practice_slash	22	advance_on_keypress_SLASH	4	stimuli_distractor_trianglediamonds.svg	stimuli_target_diamondrectangles.svg	12	yes	57	0	475	6	6	antiphase_hc_ois.wav	3	6	2	noise_calib_stim_LEFT.wav	1	9	blb_dichoticlistening_da-ga.mp3	da	ga	1	right
6.6.1	mac	2023-06-12	23:38:53	23:46:40	461589	5efa98dd74af25000cdbbf43	1	1	practice_slash	22	practice_slash	5	stimuli_distractor_diamondtriangles.svg	stimuli_target_trianglerectangles.svg	9	yes	53	1	467	6	6	antiphase_hc_ois.wav	3	6	2	noise_calib_stim_LEFT.wav	1	9	blb_dichoticlistening_da-ga.mp3	da	ga	1	right
6.6.1	mac	2023-06-12	23:38:53	23:46:40	461589	5efa98dd74af25000cdbbf43	1	1	practice_slash	22	advance_on_keypress_SLASH	6	stimuli_distractor_diamondtriangles.svg	stimuli_target_trianglerectangles.svg	9	yes	57	0	314	6	6	antiphase_hc_ois.wav	3	6	2	noise_calib_stim_LEFT.wav	1	9	blb_dichoticlistening_da-ga.mp3	da	ga	1	right
6.6.1	mac	2023-06-12	23:38:53	23:46:42	463894	5efa98dd74af25000cdbbf43	1	1	practice_slash	22	practice_slash	7	stimuli_distractor_diamondtriangles.svg	stimuli_target_diamondrectangles.svg	8	yes	53	1	326	6	6	antiphase_hc_ois.wav	3	6	2	noise_calib_stim_LEFT.wav	1	9	blb_dichoticlistening_da-ga.mp3	da	ga	1	right
6.6.1	mac	2023-06-12	23:38:53	23:46:42	463894	5efa98dd74af25000cdbbf43	1	1	practice_slash	22	advance_on_keypress_SLASH	8	stimuli_distractor_diamondtriangles.svg	stimuli_target_diamondrectangles.svg	8	yes	57	0	363	6	6	antiphase_hc_ois.wav	3	6	2	noise_calib_stim_LEFT.wav	1	9	blb_dichoticlistening_da-ga.mp3	da	ga	1	right
6.6.1	mac	2023-06-12	23:38:53	23:46:46	467891	5efa98dd74af25000cdbbf43	1	1	practice_slash	22	practice_slash	9	stimuli_target_rectanglediamonds.svg	stimuli_distractor_diamondtriangles.svg	1	yes	0	0	2000	6	6	antiphase_hc_ois.wav	3	6	2	noise_calib_stim_LEFT.wav	1	9	blb_dichoticlistening_da-ga.mp3	da	ga	1	right
6.6.1	mac	2023-06-12	23:38:53	23:46:46	467891	5efa98dd74af25000cdbbf43	1	1	practice_slash	22	advance_on_keypress_SLASH	10	stimuli_target_rectanglediamonds.svg	stimuli_distractor_diamondtriangles.svg	1	yes	57	0	463	6	6	antiphase_hc_ois.wav	3	6	2	noise_calib_stim_LEFT.wav	1	9	blb_dichoticlistening_da-ga.mp3	da	ga	1	right
6.6.1	mac	2023-06-12	23:38:53	23:46:49	470607	5efa98dd74af25000cdbbf43	1	1	practice_slash	22	practice_slash	11	stimuli_distractor_diamondtriangles.svg	stimuli_distractor_trianglediamonds.svg	14	no	53	0	616	6	6	antiphase_hc_ois.wav	3	6	2	noise_calib_stim_LEFT.wav	1	9	blb_dichoticlistening_da-ga.mp3	da	ga	1	right
6.6.1	mac	2023-06-12	23:38:53	23:46:49	470607	5efa98dd74af25000cdbbf43	1	1	practice_slash	22	advance_on_keypress_SLASH	12	stimuli_distractor_diamondtriangles.svg	stimuli_distractor_trianglediamonds.svg	14	no	57	0	431	6	6	antiphase_hc_ois.wav	3	6	2	noise_calib_stim_LEFT.wav	1	9	blb_dichoticlistening_da-ga.mp3	da	ga	1	right
6.6.1	mac	2023-06-12	23:38:53	23:46:53	474677	5efa98dd74af25000cdbbf43	1	1	practice_slash	22	practice_slash	13	stimuli_target_diamondsquares.svg	stimuli_distractor_trianglediamonds.svg	6	yes	0	0	2000	6	6	antiphase_hc_ois.wav	3	6	2	noise_calib_stim_LEFT.wav	1	9	blb_dichoticlistening_da-ga.mp3	da	ga	1	right
6.6.1	mac	2023-06-12	23:38:53	23:46:53	474677	5efa98dd74af25000cdbbf43	1	1	practice_slash	22	advance_on_keypress_SLASH	14	stimuli_target_diamondsquares.svg	stimuli_distractor_trianglediamonds.svg	6	yes	57	0	506	6	6	antiphase_hc_ois.wav	3	6	2	noise_calib_stim_LEFT.wav	1	9	blb_dichoticlistening_da-ga.mp3	da	ga	1	right
6.6.1	mac	2023-06-12	23:38:53	23:46:56	477451	5efa98dd74af25000cdbbf43	1	1	practice_slash	22	practice_slash	15	stimuli_distractor_trianglediamonds.svg	stimuli_target_squarediamonds.svg	11	yes	53	1	573	6	6	antiphase_hc_ois.wav	3	6	2	noise_calib_stim_LEFT.wav	1	9	blb_dichoticlistening_da-ga.mp3	da	ga	1	right
6.6.1	mac	2023-06-12	23:38:53	23:46:56	477451	5efa98dd74af25000cdbbf43	1	1	practice_slash	22	advance_on_keypress_SLASH	16	stimuli_distractor_trianglediamonds.svg	stimuli_target_squarediamonds.svg	11	yes	57	0	414	6	6	antiphase_hc_ois.wav	3	6	2	noise_calib_stim_LEFT.wav	1	9	blb_dichoticlistening_da-ga.mp3	da	ga	1	right
6.6.1	mac	2023-06-12	23:38:53	23:46:58	479881	5efa98dd74af25000cdbbf43	1	1	practice_slash	22	practice_slash	17	stimuli_distractor_trianglediamonds.svg	stimuli_target_rectanglediamonds.svg	10	yes	53	1	380	6	6	antiphase_hc_ois.wav	3	6	2	noise_calib_stim_LEFT.wav	1	9	blb_dichoticlistening_da-ga.mp3	da	ga	1	right
6.6.1	mac	2023-06-12	23:38:53	23:46:58	479881	5efa98dd74af25000cdbbf43	1	1	practice_slash	22	advance_on_keypress_SLASH	18	stimuli_distractor_trianglediamonds.svg	stimuli_target_rectanglediamonds.svg	10	yes	57	0	262	6	6	antiphase_hc_ois.wav	3	6	2	noise_calib_stim_LEFT.wav	1	9	blb_dichoticlistening_da-ga.mp3	da	ga	1	right
6.6.1	mac	2023-06-12	23:38:53	23:47:00	482096	5efa98dd74af25000cdbbf43	1	1	practice_slash	22	practice_slash	19	stimuli_distractor_trianglediamonds.svg	stimuli_distractor_diamondtriangles.svg	16	no	53	0	310	6	6	antiphase_hc_ois.wav	3	6	2	noise_calib_stim_LEFT.wav	1	9	blb_dichoticlistening_da-ga.mp3	da	ga	1	right
6.6.1	mac	2023-06-12	23:38:53	23:47:00	482096	5efa98dd74af25000cdbbf43	1	1	practice_slash	22	advance_on_keypress_SLASH	20	stimuli_distractor_trianglediamonds.svg	stimuli_distractor_diamondtriangles.svg	16	no	57	0	375	6	6	antiphase_hc_ois.wav	3	6	2	noise_calib_stim_LEFT.wav	1	9	blb_dichoticlistening_da-ga.mp3	da	ga	1	right
6.6.1	mac	2023-06-12	23:38:53	23:47:04	486101	5efa98dd74af25000cdbbf43	1	1	practice_slash	22	practice_slash	21	stimuli_distractor_diamondtriangles.svg	stimuli_distractor_diamondtriangles.svg	13	no	0	1	2000	6	6	antiphase_hc_ois.wav	3	6	2	noise_calib_stim_LEFT.wav	1	9	blb_dichoticlistening_da-ga.mp3	da	ga	1	right
6.6.1	mac	2023-06-12	23:38:53	23:47:04	486101	5efa98dd74af25000cdbbf43	1	1	practice_slash	22	advance_on_keypress_SLASH	22	stimuli_distractor_diamondtriangles.svg	stimuli_distractor_diamondtriangles.svg	13	no	57	0	330	6	6	antiphase_hc_ois.wav	3	6	2	noise_calib_stim_LEFT.wav	1	9	blb_dichoticlistening_da-ga.mp3	da	ga	1	right
6.6.1	mac	2023-06-12	23:38:53	23:47:08	490063	5efa98dd74af25000cdbbf43	1	1	practice_slash	22	practice_slash	23	stimuli_target_diamondsquares.svg	stimuli_distractor_diamondtriangles.svg	3	yes	0	0	2000	6	6	antiphase_hc_ois.wav	3	6	2	noise_calib_stim_LEFT.wav	1	9	blb_dichoticlistening_da-ga.mp3	da	ga	1	right
6.6.1	mac	2023-06-12	23:38:53	23:47:08	490063	5efa98dd74af25000cdbbf43	1	1	practice_slash	22	advance_on_keypress_SLASH	24	stimuli_target_diamondsquares.svg	stimuli_distractor_diamondtriangles.svg	3	yes	57	0	515	6	6	antiphase_hc_ois.wav	3	6	2	noise_calib_stim_LEFT.wav	1	9	blb_dichoticlistening_da-ga.mp3	da	ga	1	right
6.6.1	mac	2023-06-12	23:38:53	23:47:11	493110	5efa98dd74af25000cdbbf43	1	1	practice_slash	22	practice_slash	25	stimuli_target_squarediamonds.svg	stimuli_distractor_trianglediamonds.svg	5	yes	53	1	912	6	6	antiphase_hc_ois.wav	3	6	2	noise_calib_stim_LEFT.wav	1	9	blb_dichoticlistening_da-ga.mp3	da	ga	1	right
6.6.1	mac	2023-06-12	23:38:53	23:47:11	493110	5efa98dd74af25000cdbbf43	1	1	practice_slash	22	advance_on_keypress_SLASH	26	stimuli_target_squarediamonds.svg	stimuli_distractor_trianglediamonds.svg	5	yes	57	0	521	6	6	antiphase_hc_ois.wav	3	6	2	noise_calib_stim_LEFT.wav	1	9	blb_dichoticlistening_da-ga.mp3	da	ga	1	right
6.6.1	mac	2023-06-12	23:38:53	23:47:16	497270	5efa98dd74af25000cdbbf43	1	1	practice_slash	22	practice_slash	27	stimuli_distractor_trianglediamonds.svg	stimuli_distractor_trianglediamonds.svg	15	no	0	1	2000	6	6	antiphase_hc_ois.wav	3	6	2	noise_calib_stim_LEFT.wav	1	9	blb_dichoticlistening_da-ga.mp3	da	ga	1	right
6.6.1	mac	2023-06-12	23:38:53	23:47:16	497270	5efa98dd74af25000cdbbf43	1	1	practice_slash	22	advance_on_keypress_SLASH	28	stimuli_distractor_trianglediamonds.svg	stimuli_distractor_trianglediamonds.svg	15	no	57	0	490	6	6	antiphase_hc_ois.wav	3	6	2	noise_calib_stim_LEFT.wav	1	9	blb_dichoticlistening_da-ga.mp3	da	ga	1	right
6.6.1	mac	2023-06-12	23:38:53	23:47:18	499938	5efa98dd74af25000cdbbf43	1	1	practice_slash	22	practice_slash	29	stimuli_target_rectanglediamonds.svg	stimuli_distractor_trianglediamonds.svg	4	yes	53	1	548	6	6	antiphase_hc_ois.wav	3	6	2	noise_calib_stim_LEFT.wav	1	9	blb_dichoticlistening_da-ga.mp3	da	ga	1	right
6.6.1	mac	2023-06-12	23:38:53	23:47:18	499938	5efa98dd74af25000cdbbf43	1	1	practice_slash	22	advance_on_keypress_SLASH	30	stimuli_target_rectanglediamonds.svg	stimuli_distractor_trianglediamonds.svg	4	yes	57	0	344	6	6	antiphase_hc_ois.wav	3	6	2	noise_calib_stim_LEFT.wav	1	9	blb_dichoticlistening_da-ga.mp3	da	ga	1	right
6.6.1	mac	2023-06-12	23:38:53	23:47:21	502356	5efa98dd74af25000cdbbf43	1	1	practice_slash	22	practice_slash	31	stimuli_target_squarediamonds.svg	stimuli_distractor_diamondtriangles.svg	2	yes	53	1	447	6	6	antiphase_hc_ois.wav	3	6	2	noise_calib_stim_LEFT.wav	1	9	blb_dichoticlistening_da-ga.mp3	da	ga	1	right
6.6.1	mac	2023-06-12	23:38:53	23:47:21	502356	5efa98dd74af25000cdbbf43	1	1	practice_slash	22	advance_on_keypress_SLASH	32	stimuli_target_squarediamonds.svg	stimuli_distractor_diamondtriangles.svg	2	yes	57	0	233	6	6	antiphase_hc_ois.wav	3	6	2	noise_calib_stim_LEFT.wav	1	9	blb_dichoticlistening_da-ga.mp3	da	ga	1	right
6.6.1	mac	2023-06-12	23:38:53	23:47:26	508026	5efa98dd74af25000cdbbf43	1	1	main_slash	24	main_slash	1	stimuli_target_rectangletriangles.svg	stimuli_distractor_diamondtriangles.svg	5	yes	53	1	446	6	6	antiphase_hc_ois.wav	3	6	2	noise_calib_stim_LEFT.wav	1	9	blb_dichoticlistening_da-ga.mp3	da	ga	1	right
6.6.1	mac	2023-06-12	23:38:53	23:47:26	508026	5efa98dd74af25000cdbbf43	1	1	main_slash	24	advance_on_keypress_SLASH	2	stimuli_target_rectangletriangles.svg	stimuli_distractor_diamondtriangles.svg	5	yes	57	0	880	6	6	antiphase_hc_ois.wav	3	6	2	noise_calib_stim_LEFT.wav	1	9	blb_dichoticlistening_da-ga.mp3	da	ga	1	right
6.6.1	mac	2023-06-12	23:38:53	23:47:30	511570	5efa98dd74af25000cdbbf43	1	1	main_slash	24	main_slash	3	stimuli_target_diamondrectangles.svg	stimuli_distractor_trianglediamonds.svg	19	yes	0	0	2000	6	6	antiphase_hc_ois.wav	3	6	2	noise_calib_stim_LEFT.wav	1	9	blb_dichoticlistening_da-ga.mp3	da	ga	1	right
6.6.1	mac	2023-06-12	23:38:53	23:47:30	511570	5efa98dd74af25000cdbbf43	1	1	main_slash	24	advance_on_keypress_SLASH	4	stimuli_target_diamondrectangles.svg	stimuli_distractor_trianglediamonds.svg	19	yes	57	0	312	6	6	antiphase_hc_ois.wav	3	6	2	noise_calib_stim_LEFT.wav	1	9	blb_dichoticlistening_da-ga.mp3	da	ga	1	right
6.6.1	mac	2023-06-12	23:38:53	23:47:31	512973	5efa98dd74af25000cdbbf43	1	1	main_slash	24	main_slash	5	stimuli_target_squarediamonds.svg	stimuli_distractor_diamondtriangles.svg	8	yes	53	1	466	6	6	antiphase_hc_ois.wav	3	6	2	noise_calib_stim_LEFT.wav	1	9	blb_dichoticlistening_da-ga.mp3	da	ga	1	right
6.6.1	mac	2023-06-12	23:38:53	23:47:31	512973	5efa98dd74af25000cdbbf43	1	1	main_slash	24	advance_on_keypress_SLASH	6	stimuli_target_squarediamonds.svg	stimuli_distractor_diamondtriangles.svg	8	yes	57	0	699	6	6	antiphase_hc_ois.wav	3	6	2	noise_calib_stim_LEFT.wav	1	9	blb_dichoticlistening_da-ga.mp3	da	ga	1	right
6.6.1	mac	2023-06-12	23:38:53	23:47:33	514966	5efa98dd74af25000cdbbf43	1	1	main_slash	24	main_slash	7	stimuli_distractor_diamondtriangles.svg	stimuli_target_diamondsquares.svg	32	yes	53	1	663	6	6	antiphase_hc_ois.wav	3	6	2	noise_calib_stim_LEFT.wav	1	9	blb_dichoticlistening_da-ga.mp3	da	ga	1	right
6.6.1	mac	2023-06-12	23:38:53	23:47:33	514966	5efa98dd74af25000cdbbf43	1	1	main_slash	24	advance_on_keypress_SLASH	8	stimuli_distractor_diamondtriangles.svg	stimuli_target_diamondsquares.svg	32	yes	57	0	649	6	6	antiphase_hc_ois.wav	3	6	2	noise_calib_stim_LEFT.wav	1	9	blb_dichoticlistening_da-ga.mp3	da	ga	1	right
6.6.1	mac	2023-06-12	23:38:53	23:47:37	518237	5efa98dd74af25000cdbbf43	1	1	main_slash	24	main_slash	9	stimuli_distractor_diamondtriangles.svg	stimuli_target_diamondrectangles.svg	31	yes	0	0	2000	6	6	antiphase_hc_ois.wav	3	6	2	noise_calib_stim_LEFT.wav	1	9	blb_dichoticlistening_da-ga.mp3	da	ga	1	right
6.6.1	mac	2023-06-12	23:38:53	23:47:37	518237	5efa98dd74af25000cdbbf43	1	1	main_slash	24	advance_on_keypress_SLASH	10	stimuli_distractor_diamondtriangles.svg	stimuli_target_diamondrectangles.svg	31	yes	57	0	327	6	6	antiphase_hc_ois.wav	3	6	2	noise_calib_stim_LEFT.wav	1	9	blb_dichoticlistening_da-ga.mp3	da	ga	1	right
6.6.1	mac	2023-06-12	23:38:53	23:47:40	521261	5efa98dd74af25000cdbbf43	1	1	main_slash	24	main_slash	11	stimuli_distractor_diamondtriangles.svg	stimuli_distractor_trianglediamonds.svg	38	no	0	1	2000	6	6	antiphase_hc_ois.wav	3	6	2	noise_calib_stim_LEFT.wav	1	9	blb_dichoticlistening_da-ga.mp3	da	ga	1	right
6.6.1	mac	2023-06-12	23:38:53	23:47:40	521261	5efa98dd74af25000cdbbf43	1	1	main_slash	24	advance_on_keypress_SLASH	12	stimuli_distractor_diamondtriangles.svg	stimuli_distractor_trianglediamonds.svg	38	no	57	0	276	6	6	antiphase_hc_ois.wav	3	6	2	noise_calib_stim_LEFT.wav	1	9	blb_dichoticlistening_da-ga.mp3	da	ga	1	right
6.6.1	mac	2023-06-12	23:38:53	23:47:43	524235	5efa98dd74af25000cdbbf43	1	1	main_slash	24	main_slash	13	stimuli_distractor_diamondtriangles.svg	stimuli_target_trianglerectangles.svg	29	yes	0	0	2000	6	6	antiphase_hc_ois.wav	3	6	2	noise_calib_stim_LEFT.wav	1	9	blb_dichoticlistening_da-ga.mp3	da	ga	1	right
6.6.1	mac	2023-06-12	23:38:53	23:47:43	524235	5efa98dd74af25000cdbbf43	1	1	main_slash	24	advance_on_keypress_SLASH	14	stimuli_distractor_diamondtriangles.svg	stimuli_target_trianglerectangles.svg	29	yes	57	0	319	6	6	antiphase_hc_ois.wav	3	6	2	noise_calib_stim_LEFT.wav	1	9	blb_dichoticlistening_da-ga.mp3	da	ga	1	right
6.6.1	mac	2023-06-12	23:38:53	23:47:44	525806	5efa98dd74af25000cdbbf43	1	1	main_slash	24	main_slash	15	stimuli_distractor_diamondtriangles.svg	stimuli_target_squarediamonds.svg	16	yes	53	1	565	6	6	antiphase_hc_ois.wav	3	6	2	noise_calib_stim_LEFT.wav	1	9	blb_dichoticlistening_da-ga.mp3	da	ga	1	right
6.6.1	mac	2023-06-12	23:38:53	23:47:44	525806	5efa98dd74af25000cdbbf43	1	1	main_slash	24	advance_on_keypress_SLASH	16	stimuli_distractor_diamondtriangles.svg	stimuli_target_squarediamonds.svg	16	yes	57	0	694	6	6	antiphase_hc_ois.wav	3	6	2	noise_calib_stim_LEFT.wav	1	9	blb_dichoticlistening_da-ga.mp3	da	ga	1	right
6.6.1	mac	2023-06-12	23:38:53	23:47:46	527642	5efa98dd74af25000cdbbf43	1	1	main_slash	24	main_slash	17	stimuli_distractor_diamondtriangles.svg	stimuli_target_rectangletriangles.svg	13	yes	53	1	503	6	6	antiphase_hc_ois.wav	3	6	2	noise_calib_stim_LEFT.wav	1	9	blb_dichoticlistening_da-ga.mp3	da	ga	1	right
6.6.1	mac	2023-06-12	23:38:53	23:47:46	527642	5efa98dd74af25000cdbbf43	1	1	main_slash	24	advance_on_keypress_SLASH	18	stimuli_distractor_diamondtriangles.svg	stimuli_target_rectangletriangles.svg	13	yes	57	0	438	6	6	antiphase_hc_ois.wav	3	6	2	noise_calib_stim_LEFT.wav	1	9	blb_dichoticlistening_da-ga.mp3	da	ga	1	right
6.6.1	mac	2023-06-12	23:38:53	23:47:47	529096	5efa98dd74af25000cdbbf43	1	1	main_slash	24	main_slash	19	stimuli_distractor_diamondtriangles.svg	stimuli_target_squaretriangles.svg	15	yes	53	1	326	6	6	antiphase_hc_ois.wav	3	6	2	noise_calib_stim_LEFT.wav	1	9	blb_dichoticlistening_da-ga.mp3	da	ga	1	right
6.6.1	mac	2023-06-12	23:38:53	23:47:47	529096	5efa98dd74af25000cdbbf43	1	1	main_slash	24	advance_on_keypress_SLASH	20	stimuli_distractor_diamondtriangles.svg	stimuli_target_squaretriangles.svg	15	yes	57	0	529	6	6	antiphase_hc_ois.wav	3	6	2	noise_calib_stim_LEFT.wav	1	9	blb_dichoticlistening_da-ga.mp3	da	ga	1	right
6.6.1	mac	2023-06-12	23:38:53	23:47:49	530572	5efa98dd74af25000cdbbf43	1	1	main_slash	24	main_slash	21	stimuli_distractor_trianglediamonds.svg	stimuli_distractor_diamondtriangles.svg	36	no	53	0	313	6	6	antiphase_hc_ois.wav	3	6	2	noise_calib_stim_LEFT.wav	1	9	blb_dichoticlistening_da-ga.mp3	da	ga	1	right
6.6.1	mac	2023-06-12	23:38:53	23:47:49	530572	5efa98dd74af25000cdbbf43	1	1	main_slash	24	advance_on_keypress_SLASH	22	stimuli_distractor_trianglediamonds.svg	stimuli_distractor_diamondtriangles.svg	36	no	57	0	615	6	6	antiphase_hc_ois.wav	3	6	2	noise_calib_stim_LEFT.wav	1	9	blb_dichoticlistening_da-ga.mp3	da	ga	1	right
6.6.1	mac	2023-06-12	23:38:53	23:47:52	533811	5efa98dd74af25000cdbbf43	1	1	main_slash	24	main_slash	23	stimuli_distractor_trianglediamonds.svg	stimuli_distractor_trianglediamonds.svg	34	no	0	1	2000	6	6	antiphase_hc_ois.wav	3	6	2	noise_calib_stim_LEFT.wav	1	9	blb_dichoticlistening_da-ga.mp3	da	ga	1	right
6.6.1	mac	2023-06-12	23:38:53	23:47:52	533811	5efa98dd74af25000cdbbf43	1	1	main_slash	24	advance_on_keypress_SLASH	24	stimuli_distractor_trianglediamonds.svg	stimuli_distractor_trianglediamonds.svg	34	no	57	0	201	6	6	antiphase_hc_ois.wav	3	6	2	noise_calib_stim_LEFT.wav	1	9	blb_dichoticlistening_da-ga.mp3	da	ga	1	right
6.6.1	mac	2023-06-12	23:38:53	23:47:55	536651	5efa98dd74af25000cdbbf43	1	1	main_slash	24	main_slash	25	stimuli_target_diamondsquares.svg	stimuli_distractor_diamondtriangles.svg	24	yes	0	0	2000	6	6	antiphase_hc_ois.wav	3	6	2	noise_calib_stim_LEFT.wav	1	9	blb_dichoticlistening_da-ga.mp3	da	ga	1	right
6.6.1	mac	2023-06-12	23:38:53	23:47:55	536651	5efa98dd74af25000cdbbf43	1	1	main_slash	24	advance_on_keypress_SLASH	26	stimuli_target_diamondsquares.svg	stimuli_distractor_diamondtriangles.svg	24	yes	57	0	298	6	6	antiphase_hc_ois.wav	3	6	2	noise_calib_stim_LEFT.wav	1	9	blb_dichoticlistening_da-ga.mp3	da	ga	1	right
6.6.1	mac	2023-06-12	23:38:53	23:47:58	539594	5efa98dd74af25000cdbbf43	1	1	main_slash	24	main_slash	27	stimuli_distractor_trianglediamonds.svg	stimuli_target_trianglerectangles.svg	25	yes	0	0	2000	6	6	antiphase_hc_ois.wav	3	6	2	noise_calib_stim_LEFT.wav	1	9	blb_dichoticlistening_da-ga.mp3	da	ga	1	right
6.6.1	mac	2023-06-12	23:38:53	23:47:58	539594	5efa98dd74af25000cdbbf43	1	1	main_slash	24	advance_on_keypress_SLASH	28	stimuli_distractor_trianglediamonds.svg	stimuli_target_trianglerectangles.svg	25	yes	57	0	305	6	6	antiphase_hc_ois.wav	3	6	2	noise_calib_stim_LEFT.wav	1	9	blb_dichoticlistening_da-ga.mp3	da	ga	1	right
6.6.1	mac	2023-06-12	23:38:53	23:48:01	542581	5efa98dd74af25000cdbbf43	1	1	main_slash	24	main_slash	29	stimuli_target_diamondsquares.svg	stimuli_distractor_trianglediamonds.svg	20	yes	0	0	2000	6	6	antiphase_hc_ois.wav	3	6	2	noise_calib_stim_LEFT.wav	1	9	blb_dichoticlistening_da-ga.mp3	da	ga	1	right
6.6.1	mac	2023-06-12	23:38:53	23:48:01	542581	5efa98dd74af25000cdbbf43	1	1	main_slash	24	advance_on_keypress_SLASH	30	stimuli_target_diamondsquares.svg	stimuli_distractor_trianglediamonds.svg	20	yes	57	0	75	6	6	antiphase_hc_ois.wav	3	6	2	noise_calib_stim_LEFT.wav	1	9	blb_dichoticlistening_da-ga.mp3	da	ga	1	right
6.6.1	mac	2023-06-12	23:38:53	23:48:04	545355	5efa98dd74af25000cdbbf43	1	1	main_slash	24	main_slash	31	stimuli_distractor_trianglediamonds.svg	stimuli_target_diamondsquares.svg	28	yes	0	0	2000	6	6	antiphase_hc_ois.wav	3	6	2	noise_calib_stim_LEFT.wav	1	9	blb_dichoticlistening_da-ga.mp3	da	ga	1	right
6.6.1	mac	2023-06-12	23:38:53	23:48:04	545355	5efa98dd74af25000cdbbf43	1	1	main_slash	24	advance_on_keypress_SLASH	32	stimuli_distractor_trianglediamonds.svg	stimuli_target_diamondsquares.svg	28	yes	57	0	40	6	6	antiphase_hc_ois.wav	3	6	2	noise_calib_stim_LEFT.wav	1	9	blb_dichoticlistening_da-ga.mp3	da	ga	1	right
6.6.1	mac	2023-06-12	23:38:53	23:48:05	546560	5efa98dd74af25000cdbbf43	1	1	main_slash	24	main_slash	33	stimuli_target_rectanglediamonds.svg	stimuli_distractor_trianglediamonds.svg	2	yes	53	1	473	6	6	antiphase_hc_ois.wav	3	6	2	noise_calib_stim_LEFT.wav	1	9	blb_dichoticlistening_da-ga.mp3	da	ga	1	right
6.6.1	mac	2023-06-12	23:38:53	23:48:05	546560	5efa98dd74af25000cdbbf43	1	1	main_slash	24	advance_on_keypress_SLASH	34	stimuli_target_rectanglediamonds.svg	stimuli_distractor_trianglediamonds.svg	2	yes	57	0	642	6	6	antiphase_hc_ois.wav	3	6	2	noise_calib_stim_LEFT.wav	1	9	blb_dichoticlistening_da-ga.mp3	da	ga	1	right
6.6.1	mac	2023-06-12	23:38:53	23:48:07	548284	5efa98dd74af25000cdbbf43	1	1	main_slash	24	main_slash	35	stimuli_distractor_diamondtriangles.svg	stimuli_target_trianglesquares.svg	30	yes	53	1	442	6	6	antiphase_hc_ois.wav	3	6	2	noise_calib_stim_LEFT.wav	1	9	blb_dichoticlistening_da-ga.mp3	da	ga	1	right
6.6.1	mac	2023-06-12	23:38:53	23:48:07	548284	5efa98dd74af25000cdbbf43	1	1	main_slash	24	advance_on_keypress_SLASH	36	stimuli_distractor_diamondtriangles.svg	stimuli_target_trianglesquares.svg	30	yes	57	0	491	6	6	antiphase_hc_ois.wav	3	6	2	noise_calib_stim_LEFT.wav	1	9	blb_dichoticlistening_da-ga.mp3	da	ga	1	right
6.6.1	mac	2023-06-12	23:38:53	23:48:08	549866	5efa98dd74af25000cdbbf43	1	1	main_slash	24	main_slash	37	stimuli_distractor_trianglediamonds.svg	stimuli_target_squarediamonds.svg	12	yes	53	1	466	6	6	antiphase_hc_ois.wav	3	6	2	noise_calib_stim_LEFT.wav	1	9	blb_dichoticlistening_da-ga.mp3	da	ga	1	right
6.6.1	mac	2023-06-12	23:38:53	23:48:08	549866	5efa98dd74af25000cdbbf43	1	1	main_slash	24	advance_on_keypress_SLASH	38	stimuli_distractor_trianglediamonds.svg	stimuli_target_squarediamonds.svg	12	yes	57	0	477	6	6	antiphase_hc_ois.wav	3	6	2	noise_calib_stim_LEFT.wav	1	9	blb_dichoticlistening_da-ga.mp3	da	ga	1	right
6.6.1	mac	2023-06-12	23:38:53	23:48:11	552967	5efa98dd74af25000cdbbf43	1	1	main_slash	24	main_slash	39	stimuli_distractor_trianglediamonds.svg	stimuli_distractor_diamondtriangles.svg	35	no	0	1	2000	6	6	antiphase_hc_ois.wav	3	6	2	noise_calib_stim_LEFT.wav	1	9	blb_dichoticlistening_da-ga.mp3	da	ga	1	right
6.6.1	mac	2023-06-12	23:38:53	23:48:11	552967	5efa98dd74af25000cdbbf43	1	1	main_slash	24	advance_on_keypress_SLASH	40	stimuli_distractor_trianglediamonds.svg	stimuli_distractor_diamondtriangles.svg	35	no	57	0	279	6	6	antiphase_hc_ois.wav	3	6	2	noise_calib_stim_LEFT.wav	1	9	blb_dichoticlistening_da-ga.mp3	da	ga	1	right
6.6.1	mac	2023-06-12	23:38:53	23:48:13	554471	5efa98dd74af25000cdbbf43	1	1	main_slash	24	main_slash	41	stimuli_distractor_trianglediamonds.svg	stimuli_target_diamondrectangles.svg	27	yes	53	1	607	6	6	antiphase_hc_ois.wav	3	6	2	noise_calib_stim_LEFT.wav	1	9	blb_dichoticlistening_da-ga.mp3	da	ga	1	right
6.6.1	mac	2023-06-12	23:38:53	23:48:13	554471	5efa98dd74af25000cdbbf43	1	1	main_slash	24	advance_on_keypress_SLASH	42	stimuli_distractor_trianglediamonds.svg	stimuli_target_diamondrectangles.svg	27	yes	57	0	469	6	6	antiphase_hc_ois.wav	3	6	2	noise_calib_stim_LEFT.wav	1	9	blb_dichoticlistening_da-ga.mp3	da	ga	1	right
6.6.1	mac	2023-06-12	23:38:53	23:48:16	557575	5efa98dd74af25000cdbbf43	1	1	main_slash	24	main_slash	43	stimuli_distractor_trianglediamonds.svg	stimuli_distractor_trianglediamonds.svg	33	no	0	1	2000	6	6	antiphase_hc_ois.wav	3	6	2	noise_calib_stim_LEFT.wav	1	9	blb_dichoticlistening_da-ga.mp3	da	ga	1	right
6.6.1	mac	2023-06-12	23:38:53	23:48:16	557575	5efa98dd74af25000cdbbf43	1	1	main_slash	24	advance_on_keypress_SLASH	44	stimuli_distractor_trianglediamonds.svg	stimuli_distractor_trianglediamonds.svg	33	no	57	0	258	6	6	antiphase_hc_ois.wav	3	6	2	noise_calib_stim_LEFT.wav	1	9	blb_dichoticlistening_da-ga.mp3	da	ga	1	right
6.6.1	mac	2023-06-12	23:38:53	23:48:19	560512	5efa98dd74af25000cdbbf43	1	1	main_slash	24	main_slash	45	stimuli_distractor_diamondtriangles.svg	stimuli_distractor_diamondtriangles.svg	40	no	0	1	2000	6	6	antiphase_hc_ois.wav	3	6	2	noise_calib_stim_LEFT.wav	1	9	blb_dichoticlistening_da-ga.mp3	da	ga	1	right
6.6.1	mac	2023-06-12	23:38:53	23:48:19	560512	5efa98dd74af25000cdbbf43	1	1	main_slash	24	advance_on_keypress_SLASH	46	stimuli_distractor_diamondtriangles.svg	stimuli_distractor_diamondtriangles.svg	40	no	57	0	336	6	6	antiphase_hc_ois.wav	3	6	2	noise_calib_stim_LEFT.wav	1	9	blb_dichoticlistening_da-ga.mp3	da	ga	1	right
6.6.1	mac	2023-06-12	23:38:53	23:48:20	561960	5efa98dd74af25000cdbbf43	1	1	main_slash	24	main_slash	47	stimuli_distractor_trianglediamonds.svg	stimuli_target_rectanglediamonds.svg	10	yes	53	1	425	6	6	antiphase_hc_ois.wav	3	6	2	noise_calib_stim_LEFT.wav	1	9	blb_dichoticlistening_da-ga.mp3	da	ga	1	right
6.6.1	mac	2023-06-12	23:38:53	23:48:20	561960	5efa98dd74af25000cdbbf43	1	1	main_slash	24	advance_on_keypress_SLASH	48	stimuli_distractor_trianglediamonds.svg	stimuli_target_rectanglediamonds.svg	10	yes	57	0	504	6	6	antiphase_hc_ois.wav	3	6	2	noise_calib_stim_LEFT.wav	1	9	blb_dichoticlistening_da-ga.mp3	da	ga	1	right
6.6.1	mac	2023-06-12	23:38:53	23:48:23	565099	5efa98dd74af25000cdbbf43	1	1	main_slash	24	main_slash	49	stimuli_distractor_diamondtriangles.svg	stimuli_distractor_diamondtriangles.svg	39	no	0	1	2000	6	6	antiphase_hc_ois.wav	3	6	2	noise_calib_stim_LEFT.wav	1	9	blb_dichoticlistening_da-ga.mp3	da	ga	1	right
6.6.1	mac	2023-06-12	23:38:53	23:48:23	565099	5efa98dd74af25000cdbbf43	1	1	main_slash	24	advance_on_keypress_SLASH	50	stimuli_distractor_diamondtriangles.svg	stimuli_distractor_diamondtriangles.svg	39	no	57	0	216	6	6	antiphase_hc_ois.wav	3	6	2	noise_calib_stim_LEFT.wav	1	9	blb_dichoticlistening_da-ga.mp3	da	ga	1	right
6.6.1	mac	2023-06-12	23:38:53	23:48:25	566501	5efa98dd74af25000cdbbf43	1	1	main_slash	24	main_slash	51	stimuli_target_squarediamonds.svg	stimuli_distractor_trianglediamonds.svg	4	yes	53	1	546	6	6	antiphase_hc_ois.wav	3	6	2	noise_calib_stim_LEFT.wav	1	9	blb_dichoticlistening_da-ga.mp3	da	ga	1	right
6.6.1	mac	2023-06-12	23:38:53	23:48:25	566501	5efa98dd74af25000cdbbf43	1	1	main_slash	24	advance_on_keypress_SLASH	52	stimuli_target_squarediamonds.svg	stimuli_distractor_trianglediamonds.svg	4	yes	57	0	471	6	6	antiphase_hc_ois.wav	3	6	2	noise_calib_stim_LEFT.wav	1	9	blb_dichoticlistening_da-ga.mp3	da	ga	1	right
6.6.1	mac	2023-06-12	23:38:53	23:48:27	568417	5efa98dd74af25000cdbbf43	1	1	main_slash	24	main_slash	53	stimuli_target_trianglesquares.svg	stimuli_distractor_diamondtriangles.svg	22	yes	53	1	809	6	6	antiphase_hc_ois.wav	3	6	2	noise_calib_stim_LEFT.wav	1	9	blb_dichoticlistening_da-ga.mp3	da	ga	1	right
6.6.1	mac	2023-06-12	23:38:53	23:48:27	568417	5efa98dd74af25000cdbbf43	1	1	main_slash	24	advance_on_keypress_SLASH	54	stimuli_target_trianglesquares.svg	stimuli_distractor_diamondtriangles.svg	22	yes	57	0	501	6	6	antiphase_hc_ois.wav	3	6	2	noise_calib_stim_LEFT.wav	1	9	blb_dichoticlistening_da-ga.mp3	da	ga	1	right
6.6.1	mac	2023-06-12	23:38:53	23:48:29	570210	5efa98dd74af25000cdbbf43	1	1	main_slash	24	main_slash	55	stimuli_target_trianglerectangles.svg	stimuli_distractor_diamondtriangles.svg	21	yes	53	1	609	6	6	antiphase_hc_ois.wav	3	6	2	noise_calib_stim_LEFT.wav	1	9	blb_dichoticlistening_da-ga.mp3	da	ga	1	right
6.6.1	mac	2023-06-12	23:38:53	23:48:29	570210	5efa98dd74af25000cdbbf43	1	1	main_slash	24	advance_on_keypress_SLASH	56	stimuli_target_trianglerectangles.svg	stimuli_distractor_diamondtriangles.svg	21	yes	57	0	467	6	6	antiphase_hc_ois.wav	3	6	2	noise_calib_stim_LEFT.wav	1	9	blb_dichoticlistening_da-ga.mp3	da	ga	1	right
6.6.1	mac	2023-06-12	23:38:53	23:48:32	573320	5efa98dd74af25000cdbbf43	1	1	main_slash	24	main_slash	57	stimuli_distractor_diamondtriangles.svg	stimuli_distractor_trianglediamonds.svg	37	no	0	1	2000	6	6	antiphase_hc_ois.wav	3	6	2	noise_calib_stim_LEFT.wav	1	9	blb_dichoticlistening_da-ga.mp3	da	ga	1	right
6.6.1	mac	2023-06-12	23:38:53	23:48:32	573320	5efa98dd74af25000cdbbf43	1	1	main_slash	24	advance_on_keypress_SLASH	58	stimuli_distractor_diamondtriangles.svg	stimuli_distractor_trianglediamonds.svg	37	no	57	0	335	6	6	antiphase_hc_ois.wav	3	6	2	noise_calib_stim_LEFT.wav	1	9	blb_dichoticlistening_da-ga.mp3	da	ga	1	right
6.6.1	mac	2023-06-12	23:38:53	23:48:33	574967	5efa98dd74af25000cdbbf43	1	1	main_slash	24	main_slash	59	stimuli_target_trianglerectangles.svg	stimuli_distractor_trianglediamonds.svg	17	yes	53	1	621	6	6	antiphase_hc_ois.wav	3	6	2	noise_calib_stim_LEFT.wav	1	9	blb_dichoticlistening_da-ga.mp3	da	ga	1	right
6.6.1	mac	2023-06-12	23:38:53	23:48:33	574967	5efa98dd74af25000cdbbf43	1	1	main_slash	24	advance_on_keypress_SLASH	60	stimuli_target_trianglerectangles.svg	stimuli_distractor_trianglediamonds.svg	17	yes	57	0	474	6	6	antiphase_hc_ois.wav	3	6	2	noise_calib_stim_LEFT.wav	1	9	blb_dichoticlistening_da-ga.mp3	da	ga	1	right
6.6.1	mac	2023-06-12	23:38:53	23:48:35	576996	5efa98dd74af25000cdbbf43	1	1	main_slash	24	main_slash	61	stimuli_distractor_trianglediamonds.svg	stimuli_target_rectangletriangles.svg	9	yes	53	1	922	6	6	antiphase_hc_ois.wav	3	6	2	noise_calib_stim_LEFT.wav	1	9	blb_dichoticlistening_da-ga.mp3	da	ga	1	right
6.6.1	mac	2023-06-12	23:38:53	23:48:35	576996	5efa98dd74af25000cdbbf43	1	1	main_slash	24	advance_on_keypress_SLASH	62	stimuli_distractor_trianglediamonds.svg	stimuli_target_rectangletriangles.svg	9	yes	57	0	540	6	6	antiphase_hc_ois.wav	3	6	2	noise_calib_stim_LEFT.wav	1	9	blb_dichoticlistening_da-ga.mp3	da	ga	1	right
6.6.1	mac	2023-06-12	23:38:53	23:48:37	578616	5efa98dd74af25000cdbbf43	1	1	main_slash	24	main_slash	63	stimuli_target_rectanglediamonds.svg	stimuli_distractor_diamondtriangles.svg	6	yes	53	1	450	6	6	antiphase_hc_ois.wav	3	6	2	noise_calib_stim_LEFT.wav	1	9	blb_dichoticlistening_da-ga.mp3	da	ga	1	right
6.6.1	mac	2023-06-12	23:38:53	23:48:37	578616	5efa98dd74af25000cdbbf43	1	1	main_slash	24	advance_on_keypress_SLASH	64	stimuli_target_rectanglediamonds.svg	stimuli_distractor_diamondtriangles.svg	6	yes	57	0	489	6	6	antiphase_hc_ois.wav	3	6	2	noise_calib_stim_LEFT.wav	1	9	blb_dichoticlistening_da-ga.mp3	da	ga	1	right
6.6.1	mac	2023-06-12	23:38:53	23:48:38	580134	5efa98dd74af25000cdbbf43	1	1	main_slash	24	main_slash	65	stimuli_target_squaretriangles.svg	stimuli_distractor_trianglediamonds.svg	3	yes	53	1	389	6	6	antiphase_hc_ois.wav	3	6	2	noise_calib_stim_LEFT.wav	1	9	blb_dichoticlistening_da-ga.mp3	da	ga	1	right
6.6.1	mac	2023-06-12	23:38:53	23:48:38	580134	5efa98dd74af25000cdbbf43	1	1	main_slash	24	advance_on_keypress_SLASH	66	stimuli_target_squaretriangles.svg	stimuli_distractor_trianglediamonds.svg	3	yes	57	0	607	6	6	antiphase_hc_ois.wav	3	6	2	noise_calib_stim_LEFT.wav	1	9	blb_dichoticlistening_da-ga.mp3	da	ga	1	right
6.6.1	mac	2023-06-12	23:38:53	23:48:40	582113	5efa98dd74af25000cdbbf43	1	1	main_slash	24	main_slash	67	stimuli_target_diamondrectangles.svg	stimuli_distractor_diamondtriangles.svg	23	yes	53	1	732	6	6	antiphase_hc_ois.wav	3	6	2	noise_calib_stim_LEFT.wav	1	9	blb_dichoticlistening_da-ga.mp3	da	ga	1	right
6.6.1	mac	2023-06-12	23:38:53	23:48:40	582113	5efa98dd74af25000cdbbf43	1	1	main_slash	24	advance_on_keypress_SLASH	68	stimuli_target_diamondrectangles.svg	stimuli_distractor_diamondtriangles.svg	23	yes	57	0	500	6	6	antiphase_hc_ois.wav	3	6	2	noise_calib_stim_LEFT.wav	1	9	blb_dichoticlistening_da-ga.mp3	da	ga	1	right
6.6.1	mac	2023-06-12	23:38:53	23:48:42	583747	5efa98dd74af25000cdbbf43	1	1	main_slash	24	main_slash	69	stimuli_distractor_trianglediamonds.svg	stimuli_target_squaretriangles.svg	11	yes	53	1	503	6	6	antiphase_hc_ois.wav	3	6	2	noise_calib_stim_LEFT.wav	1	9	blb_dichoticlistening_da-ga.mp3	da	ga	1	right
6.6.1	mac	2023-06-12	23:38:53	23:48:42	583747	5efa98dd74af25000cdbbf43	1	1	main_slash	24	advance_on_keypress_SLASH	70	stimuli_distractor_trianglediamonds.svg	stimuli_target_squaretriangles.svg	11	yes	57	0	609	6	6	antiphase_hc_ois.wav	3	6	2	noise_calib_stim_LEFT.wav	1	9	blb_dichoticlistening_da-ga.mp3	da	ga	1	right
6.6.1	mac	2023-06-12	23:38:53	23:48:44	585234	5efa98dd74af25000cdbbf43	1	1	main_slash	24	main_slash	71	stimuli_target_trianglesquares.svg	stimuli_distractor_trianglediamonds.svg	18	yes	53	1	245	6	6	antiphase_hc_ois.wav	3	6	2	noise_calib_stim_LEFT.wav	1	9	blb_dichoticlistening_da-ga.mp3	da	ga	1	right
6.6.1	mac	2023-06-12	23:38:53	23:48:44	585234	5efa98dd74af25000cdbbf43	1	1	main_slash	24	advance_on_keypress_SLASH	72	stimuli_target_trianglesquares.svg	stimuli_distractor_trianglediamonds.svg	18	yes	57	0	906	6	6	antiphase_hc_ois.wav	3	6	2	noise_calib_stim_LEFT.wav	1	9	blb_dichoticlistening_da-ga.mp3	da	ga	1	right
6.6.1	mac	2023-06-12	23:38:53	23:48:46	587909	5efa98dd74af25000cdbbf43	1	1	main_slash	24	main_slash	73	stimuli_target_rectangletriangles.svg	stimuli_distractor_trianglediamonds.svg	1	yes	53	1	1128	6	6	antiphase_hc_ois.wav	3	6	2	noise_calib_stim_LEFT.wav	1	9	blb_dichoticlistening_da-ga.mp3	da	ga	1	right
6.6.1	mac	2023-06-12	23:38:53	23:48:46	587909	5efa98dd74af25000cdbbf43	1	1	main_slash	24	advance_on_keypress_SLASH	74	stimuli_target_rectangletriangles.svg	stimuli_distractor_trianglediamonds.svg	1	yes	57	0	407	6	6	antiphase_hc_ois.wav	3	6	2	noise_calib_stim_LEFT.wav	1	9	blb_dichoticlistening_da-ga.mp3	da	ga	1	right
6.6.1	mac	2023-06-12	23:38:53	23:48:48	589435	5efa98dd74af25000cdbbf43	1	1	main_slash	24	main_slash	75	stimuli_distractor_diamondtriangles.svg	stimuli_target_rectanglediamonds.svg	14	yes	53	1	486	6	6	antiphase_hc_ois.wav	3	6	2	noise_calib_stim_LEFT.wav	1	9	blb_dichoticlistening_da-ga.mp3	da	ga	1	right
6.6.1	mac	2023-06-12	23:38:53	23:48:48	589435	5efa98dd74af25000cdbbf43	1	1	main_slash	24	advance_on_keypress_SLASH	76	stimuli_distractor_diamondtriangles.svg	stimuli_target_rectanglediamonds.svg	14	yes	57	0	484	6	6	antiphase_hc_ois.wav	3	6	2	noise_calib_stim_LEFT.wav	1	9	blb_dichoticlistening_da-ga.mp3	da	ga	1	right
6.6.1	mac	2023-06-12	23:38:53	23:48:49	591140	5efa98dd74af25000cdbbf43	1	1	main_slash	24	main_slash	77	stimuli_distractor_trianglediamonds.svg	stimuli_target_trianglesquares.svg	26	yes	53	1	574	6	6	antiphase_hc_ois.wav	3	6	2	noise_calib_stim_LEFT.wav	1	9	blb_dichoticlistening_da-ga.mp3	da	ga	1	right
6.6.1	mac	2023-06-12	23:38:53	23:48:49	591140	5efa98dd74af25000cdbbf43	1	1	main_slash	24	advance_on_keypress_SLASH	78	stimuli_distractor_trianglediamonds.svg	stimuli_target_trianglesquares.svg	26	yes	57	0	427	6	6	antiphase_hc_ois.wav	3	6	2	noise_calib_stim_LEFT.wav	1	9	blb_dichoticlistening_da-ga.mp3	da	ga	1	right
6.6.1	mac	2023-06-12	23:38:53	23:48:51	592643	5efa98dd74af25000cdbbf43	1	1	main_slash	24	main_slash	79	stimuli_target_squaretriangles.svg	stimuli_distractor_diamondtriangles.svg	7	yes	53	1	445	6	6	antiphase_hc_ois.wav	3	6	2	noise_calib_stim_LEFT.wav	1	9	blb_dichoticlistening_da-ga.mp3	da	ga	1	right
6.6.1	mac	2023-06-12	23:38:53	23:48:51	592643	5efa98dd74af25000cdbbf43	1	1	main_slash	24	advance_on_keypress_SLASH	80	stimuli_target_squaretriangles.svg	stimuli_distractor_diamondtriangles.svg	7	yes	57	0	574	6	6	antiphase_hc_ois.wav	3	6	2	noise_calib_stim_LEFT.wav	1	9	blb_dichoticlistening_da-ga.mp3	da	ga	1	right
6.6.1	mac	2023-06-12	23:38:53	23:48:54	595851	5efa98dd74af25000cdbbf43	1	1	main_slash	24	main_slash	81	stimuli_distractor_diamondtriangles.svg	stimuli_distractor_trianglediamonds.svg	38	no	0	1	2000	6	6	antiphase_hc_ois.wav	3	6	2	noise_calib_stim_LEFT.wav	1	9	blb_dichoticlistening_da-ga.mp3	da	ga	1	right
6.6.1	mac	2023-06-12	23:38:53	23:48:54	595851	5efa98dd74af25000cdbbf43	1	1	main_slash	24	advance_on_keypress_SLASH	82	stimuli_distractor_diamondtriangles.svg	stimuli_distractor_trianglediamonds.svg	38	no	57	0	296	6	6	antiphase_hc_ois.wav	3	6	2	noise_calib_stim_LEFT.wav	1	9	blb_dichoticlistening_da-ga.mp3	da	ga	1	right
6.6.1	mac	2023-06-12	23:38:53	23:48:56	597411	5efa98dd74af25000cdbbf43	1	1	main_slash	24	main_slash	83	stimuli_distractor_diamondtriangles.svg	stimuli_distractor_diamondtriangles.svg	40	no	53	0	572	6	6	antiphase_hc_ois.wav	3	6	2	noise_calib_stim_LEFT.wav	1	9	blb_dichoticlistening_da-ga.mp3	da	ga	1	right
6.6.1	mac	2023-06-12	23:38:53	23:48:56	597411	5efa98dd74af25000cdbbf43	1	1	main_slash	24	advance_on_keypress_SLASH	84	stimuli_distractor_diamondtriangles.svg	stimuli_distractor_diamondtriangles.svg	40	no	57	0	528	6	6	antiphase_hc_ois.wav	3	6	2	noise_calib_stim_LEFT.wav	1	9	blb_dichoticlistening_da-ga.mp3	da	ga	1	right
6.6.1	mac	2023-06-12	23:38:53	23:48:57	598740	5efa98dd74af25000cdbbf43	1	1	main_slash	24	main_slash	85	stimuli_distractor_trianglediamonds.svg	stimuli_target_squarediamonds.svg	12	yes	53	1	178	6	6	antiphase_hc_ois.wav	3	6	2	noise_calib_stim_LEFT.wav	1	9	blb_dichoticlistening_da-ga.mp3	da	ga	1	right
6.6.1	mac	2023-06-12	23:38:53	23:48:57	598740	5efa98dd74af25000cdbbf43	1	1	main_slash	24	advance_on_keypress_SLASH	86	stimuli_distractor_trianglediamonds.svg	stimuli_target_squarediamonds.svg	12	yes	57	0	317	6	6	antiphase_hc_ois.wav	3	6	2	noise_calib_stim_LEFT.wav	1	9	blb_dichoticlistening_da-ga.mp3	da	ga	1	right
6.6.1	mac	2023-06-12	23:38:53	23:48:58	600163	5efa98dd74af25000cdbbf43	1	1	main_slash	24	main_slash	87	stimuli_target_trianglesquares.svg	stimuli_distractor_trianglediamonds.svg	18	yes	53	1	474	6	6	antiphase_hc_ois.wav	3	6	2	noise_calib_stim_LEFT.wav	1	9	blb_dichoticlistening_da-ga.mp3	da	ga	1	right
6.6.1	mac	2023-06-12	23:38:53	23:48:58	600163	5efa98dd74af25000cdbbf43	1	1	main_slash	24	advance_on_keypress_SLASH	88	stimuli_target_trianglesquares.svg	stimuli_distractor_trianglediamonds.svg	18	yes	57	0	217	6	6	antiphase_hc_ois.wav	3	6	2	noise_calib_stim_LEFT.wav	1	9	blb_dichoticlistening_da-ga.mp3	da	ga	1	right
6.6.1	mac	2023-06-12	23:38:53	23:49:00	601232	5efa98dd74af25000cdbbf43	1	1	main_slash	24	main_slash	89	stimuli_target_rectangletriangles.svg	stimuli_distractor_trianglediamonds.svg	1	yes	53	1	209	6	6	antiphase_hc_ois.wav	3	6	2	noise_calib_stim_LEFT.wav	1	9	blb_dichoticlistening_da-ga.mp3	da	ga	1	right
6.6.1	mac	2023-06-12	23:38:53	23:49:00	601232	5efa98dd74af25000cdbbf43	1	1	main_slash	24	advance_on_keypress_SLASH	90	stimuli_target_rectangletriangles.svg	stimuli_distractor_trianglediamonds.svg	1	yes	57	0	262	6	6	antiphase_hc_ois.wav	3	6	2	noise_calib_stim_LEFT.wav	1	9	blb_dichoticlistening_da-ga.mp3	da	ga	1	right
6.6.1	mac	2023-06-12	23:38:53	23:49:01	602358	5efa98dd74af25000cdbbf43	1	1	main_slash	24	main_slash	91	stimuli_target_diamondrectangles.svg	stimuli_distractor_trianglediamonds.svg	19	yes	53	1	236	6	6	antiphase_hc_ois.wav	3	6	2	noise_calib_stim_LEFT.wav	1	9	blb_dichoticlistening_da-ga.mp3	da	ga	1	right
6.6.1	mac	2023-06-12	23:38:53	23:49:01	602358	5efa98dd74af25000cdbbf43	1	1	main_slash	24	advance_on_keypress_SLASH	92	stimuli_target_diamondrectangles.svg	stimuli_distractor_trianglediamonds.svg	19	yes	57	0	387	6	6	antiphase_hc_ois.wav	3	6	2	noise_calib_stim_LEFT.wav	1	9	blb_dichoticlistening_da-ga.mp3	da	ga	1	right
6.6.1	mac	2023-06-12	23:38:53	23:49:04	605387	5efa98dd74af25000cdbbf43	1	1	main_slash	24	main_slash	93	stimuli_distractor_diamondtriangles.svg	stimuli_distractor_trianglediamonds.svg	37	no	0	1	2000	6	6	antiphase_hc_ois.wav	3	6	2	noise_calib_stim_LEFT.wav	1	9	blb_dichoticlistening_da-ga.mp3	da	ga	1	right
6.6.1	mac	2023-06-12	23:38:53	23:49:04	605387	5efa98dd74af25000cdbbf43	1	1	main_slash	24	advance_on_keypress_SLASH	94	stimuli_distractor_diamondtriangles.svg	stimuli_distractor_trianglediamonds.svg	37	no	57	0	378	6	6	antiphase_hc_ois.wav	3	6	2	noise_calib_stim_LEFT.wav	1	9	blb_dichoticlistening_da-ga.mp3	da	ga	1	right
6.6.1	mac	2023-06-12	23:38:53	23:49:05	606924	5efa98dd74af25000cdbbf43	1	1	main_slash	24	main_slash	95	stimuli_target_rectangletriangles.svg	stimuli_distractor_diamondtriangles.svg	5	yes	53	1	535	6	6	antiphase_hc_ois.wav	3	6	2	noise_calib_stim_LEFT.wav	1	9	blb_dichoticlistening_da-ga.mp3	da	ga	1	right
6.6.1	mac	2023-06-12	23:38:53	23:49:05	606924	5efa98dd74af25000cdbbf43	1	1	main_slash	24	advance_on_keypress_SLASH	96	stimuli_target_rectangletriangles.svg	stimuli_distractor_diamondtriangles.svg	5	yes	57	0	577	6	6	antiphase_hc_ois.wav	3	6	2	noise_calib_stim_LEFT.wav	1	9	blb_dichoticlistening_da-ga.mp3	da	ga	1	right
6.6.1	mac	2023-06-12	23:38:53	23:49:07	608932	5efa98dd74af25000cdbbf43	1	1	main_slash	24	main_slash	97	stimuli_distractor_trianglediamonds.svg	stimuli_distractor_trianglediamonds.svg	33	no	53	0	791	6	6	antiphase_hc_ois.wav	3	6	2	noise_calib_stim_LEFT.wav	1	9	blb_dichoticlistening_da-ga.mp3	da	ga	1	right
6.6.1	mac	2023-06-12	23:38:53	23:49:07	608932	5efa98dd74af25000cdbbf43	1	1	main_slash	24	advance_on_keypress_SLASH	98	stimuli_distractor_trianglediamonds.svg	stimuli_distractor_trianglediamonds.svg	33	no	57	0	277	6	6	antiphase_hc_ois.wav	3	6	2	noise_calib_stim_LEFT.wav	1	9	blb_dichoticlistening_da-ga.mp3	da	ga	1	right
6.6.1	mac	2023-06-12	23:38:53	23:49:10	611828	5efa98dd74af25000cdbbf43	1	1	main_slash	24	main_slash	99	stimuli_distractor_diamondtriangles.svg	stimuli_target_trianglesquares.svg	30	yes	0	0	2000	6	6	antiphase_hc_ois.wav	3	6	2	noise_calib_stim_LEFT.wav	1	9	blb_dichoticlistening_da-ga.mp3	da	ga	1	right
6.6.1	mac	2023-06-12	23:38:53	23:49:10	611828	5efa98dd74af25000cdbbf43	1	1	main_slash	24	advance_on_keypress_SLASH	100	stimuli_distractor_diamondtriangles.svg	stimuli_target_trianglesquares.svg	30	yes	57	0	157	6	6	antiphase_hc_ois.wav	3	6	2	noise_calib_stim_LEFT.wav	1	9	blb_dichoticlistening_da-ga.mp3	da	ga	1	right
6.6.1	mac	2023-06-12	23:38:53	23:49:12	613215	5efa98dd74af25000cdbbf43	1	1	main_slash	24	main_slash	101	stimuli_distractor_trianglediamonds.svg	stimuli_target_diamondsquares.svg	28	yes	53	1	551	6	6	antiphase_hc_ois.wav	3	6	2	noise_calib_stim_LEFT.wav	1	9	blb_dichoticlistening_da-ga.mp3	da	ga	1	right
6.6.1	mac	2023-06-12	23:38:53	23:49:12	613215	5efa98dd74af25000cdbbf43	1	1	main_slash	24	advance_on_keypress_SLASH	102	stimuli_distractor_trianglediamonds.svg	stimuli_target_diamondsquares.svg	28	yes	57	0	494	6	6	antiphase_hc_ois.wav	3	6	2	noise_calib_stim_LEFT.wav	1	9	blb_dichoticlistening_da-ga.mp3	da	ga	1	right
6.6.1	mac	2023-06-12	23:38:53	23:49:13	614641	5efa98dd74af25000cdbbf43	1	1	main_slash	24	main_slash	103	stimuli_distractor_trianglediamonds.svg	stimuli_target_trianglesquares.svg	26	yes	53	1	304	6	6	antiphase_hc_ois.wav	3	6	2	noise_calib_stim_LEFT.wav	1	9	blb_dichoticlistening_da-ga.mp3	da	ga	1	right
6.6.1	mac	2023-06-12	23:38:53	23:49:13	614641	5efa98dd74af25000cdbbf43	1	1	main_slash	24	advance_on_keypress_SLASH	104	stimuli_distractor_trianglediamonds.svg	stimuli_target_trianglesquares.svg	26	yes	57	0	424	6	6	antiphase_hc_ois.wav	3	6	2	noise_calib_stim_LEFT.wav	1	9	blb_dichoticlistening_da-ga.mp3	da	ga	1	right
6.6.1	mac	2023-06-12	23:38:53	23:49:16	617685	5efa98dd74af25000cdbbf43	1	1	main_slash	24	main_slash	105	stimuli_distractor_diamondtriangles.svg	stimuli_target_diamondsquares.svg	32	yes	0	0	2000	6	6	antiphase_hc_ois.wav	3	6	2	noise_calib_stim_LEFT.wav	1	9	blb_dichoticlistening_da-ga.mp3	da	ga	1	right
6.6.1	mac	2023-06-12	23:38:53	23:49:16	617685	5efa98dd74af25000cdbbf43	1	1	main_slash	24	advance_on_keypress_SLASH	106	stimuli_distractor_diamondtriangles.svg	stimuli_target_diamondsquares.svg	32	yes	57	0	352	6	6	antiphase_hc_ois.wav	3	6	2	noise_calib_stim_LEFT.wav	1	9	blb_dichoticlistening_da-ga.mp3	da	ga	1	right
6.6.1	mac	2023-06-12	23:38:53	23:49:19	620683	5efa98dd74af25000cdbbf43	1	1	main_slash	24	main_slash	107	stimuli_distractor_diamondtriangles.svg	stimuli_target_diamondrectangles.svg	31	yes	0	0	2000	6	6	antiphase_hc_ois.wav	3	6	2	noise_calib_stim_LEFT.wav	1	9	blb_dichoticlistening_da-ga.mp3	da	ga	1	right
6.6.1	mac	2023-06-12	23:38:53	23:49:19	620683	5efa98dd74af25000cdbbf43	1	1	main_slash	24	advance_on_keypress_SLASH	108	stimuli_distractor_diamondtriangles.svg	stimuli_target_diamondrectangles.svg	31	yes	57	0	336	6	6	antiphase_hc_ois.wav	3	6	2	noise_calib_stim_LEFT.wav	1	9	blb_dichoticlistening_da-ga.mp3	da	ga	1	right
6.6.1	mac	2023-06-12	23:38:53	23:49:21	622226	5efa98dd74af25000cdbbf43	1	1	main_slash	24	main_slash	109	stimuli_distractor_diamondtriangles.svg	stimuli_target_rectangletriangles.svg	13	yes	53	1	544	6	6	antiphase_hc_ois.wav	3	6	2	noise_calib_stim_LEFT.wav	1	9	blb_dichoticlistening_da-ga.mp3	da	ga	1	right
6.6.1	mac	2023-06-12	23:38:53	23:49:21	622226	5efa98dd74af25000cdbbf43	1	1	main_slash	24	advance_on_keypress_SLASH	110	stimuli_distractor_diamondtriangles.svg	stimuli_target_rectangletriangles.svg	13	yes	57	0	567	6	6	antiphase_hc_ois.wav	3	6	2	noise_calib_stim_LEFT.wav	1	9	blb_dichoticlistening_da-ga.mp3	da	ga	1	right
6.6.1	mac	2023-06-12	23:38:53	23:49:22	623684	5efa98dd74af25000cdbbf43	1	1	main_slash	24	main_slash	111	stimuli_distractor_diamondtriangles.svg	stimuli_target_squaretriangles.svg	15	yes	53	1	268	6	6	antiphase_hc_ois.wav	3	6	2	noise_calib_stim_LEFT.wav	1	9	blb_dichoticlistening_da-ga.mp3	da	ga	1	right
6.6.1	mac	2023-06-12	23:38:53	23:49:22	623684	5efa98dd74af25000cdbbf43	1	1	main_slash	24	advance_on_keypress_SLASH	112	stimuli_distractor_diamondtriangles.svg	stimuli_target_squaretriangles.svg	15	yes	57	0	557	6	6	antiphase_hc_ois.wav	3	6	2	noise_calib_stim_LEFT.wav	1	9	blb_dichoticlistening_da-ga.mp3	da	ga	1	right
6.6.1	mac	2023-06-12	23:38:53	23:49:23	625189	5efa98dd74af25000cdbbf43	1	1	main_slash	24	main_slash	113	stimuli_distractor_diamondtriangles.svg	stimuli_target_trianglerectangles.svg	29	yes	53	1	321	6	6	antiphase_hc_ois.wav	3	6	2	noise_calib_stim_LEFT.wav	1	9	blb_dichoticlistening_da-ga.mp3	da	ga	1	right
6.6.1	mac	2023-06-12	23:38:53	23:49:23	625189	5efa98dd74af25000cdbbf43	1	1	main_slash	24	advance_on_keypress_SLASH	114	stimuli_distractor_diamondtriangles.svg	stimuli_target_trianglerectangles.svg	29	yes	57	0	544	6	6	antiphase_hc_ois.wav	3	6	2	noise_calib_stim_LEFT.wav	1	9	blb_dichoticlistening_da-ga.mp3	da	ga	1	right
6.6.1	mac	2023-06-12	23:38:53	23:49:25	626425	5efa98dd74af25000cdbbf43	1	1	main_slash	24	main_slash	115	stimuli_target_diamondrectangles.svg	stimuli_distractor_diamondtriangles.svg	23	yes	53	1	36	6	6	antiphase_hc_ois.wav	3	6	2	noise_calib_stim_LEFT.wav	1	9	blb_dichoticlistening_da-ga.mp3	da	ga	1	right
6.6.1	mac	2023-06-12	23:38:53	23:49:25	626425	5efa98dd74af25000cdbbf43	1	1	main_slash	24	advance_on_keypress_SLASH	116	stimuli_target_diamondrectangles.svg	stimuli_distractor_diamondtriangles.svg	23	yes	57	0	540	6	6	antiphase_hc_ois.wav	3	6	2	noise_calib_stim_LEFT.wav	1	9	blb_dichoticlistening_da-ga.mp3	da	ga	1	right
6.6.1	mac	2023-06-12	23:38:53	23:49:26	627688	5efa98dd74af25000cdbbf43	1	1	main_slash	24	main_slash	117	stimuli_distractor_trianglediamonds.svg	stimuli_distractor_diamondtriangles.svg	35	no	53	0	92	6	6	antiphase_hc_ois.wav	3	6	2	noise_calib_stim_LEFT.wav	1	9	blb_dichoticlistening_da-ga.mp3	da	ga	1	right
6.6.1	mac	2023-06-12	23:38:53	23:49:26	627688	5efa98dd74af25000cdbbf43	1	1	main_slash	24	advance_on_keypress_SLASH	118	stimuli_distractor_trianglediamonds.svg	stimuli_distractor_diamondtriangles.svg	35	no	57	0	842	6	6	antiphase_hc_ois.wav	3	6	2	noise_calib_stim_LEFT.wav	1	9	blb_dichoticlistening_da-ga.mp3	da	ga	1	right
6.6.1	mac	2023-06-12	23:38:53	23:49:28	629215	5efa98dd74af25000cdbbf43	1	1	main_slash	24	main_slash	119	stimuli_distractor_trianglediamonds.svg	stimuli_target_trianglerectangles.svg	25	yes	53	1	54	6	6	antiphase_hc_ois.wav	3	6	2	noise_calib_stim_LEFT.wav	1	9	blb_dichoticlistening_da-ga.mp3	da	ga	1	right
6.6.1	mac	2023-06-12	23:38:53	23:49:28	629215	5efa98dd74af25000cdbbf43	1	1	main_slash	24	advance_on_keypress_SLASH	120	stimuli_distractor_trianglediamonds.svg	stimuli_target_trianglerectangles.svg	25	yes	57	0	787	6	6	antiphase_hc_ois.wav	3	6	2	noise_calib_stim_LEFT.wav	1	9	blb_dichoticlistening_da-ga.mp3	da	ga	1	right
6.6.1	mac	2023-06-12	23:38:53	23:49:31	632691	5efa98dd74af25000cdbbf43	1	1	main_slash	24	main_slash	121	stimuli_distractor_trianglediamonds.svg	stimuli_distractor_diamondtriangles.svg	36	no	0	1	2000	6	6	antiphase_hc_ois.wav	3	6	2	noise_calib_stim_LEFT.wav	1	9	blb_dichoticlistening_da-ga.mp3	da	ga	1	right
6.6.1	mac	2023-06-12	23:38:53	23:49:31	632691	5efa98dd74af25000cdbbf43	1	1	main_slash	24	advance_on_keypress_SLASH	122	stimuli_distractor_trianglediamonds.svg	stimuli_distractor_diamondtriangles.svg	36	no	57	0	834	6	6	antiphase_hc_ois.wav	3	6	2	noise_calib_stim_LEFT.wav	1	9	blb_dichoticlistening_da-ga.mp3	da	ga	1	right
6.6.1	mac	2023-06-12	23:38:53	23:49:33	634512	5efa98dd74af25000cdbbf43	1	1	main_slash	24	main_slash	123	stimuli_target_trianglesquares.svg	stimuli_distractor_diamondtriangles.svg	22	yes	53	1	291	6	6	antiphase_hc_ois.wav	3	6	2	noise_calib_stim_LEFT.wav	1	9	blb_dichoticlistening_da-ga.mp3	da	ga	1	right
6.6.1	mac	2023-06-12	23:38:53	23:49:33	634512	5efa98dd74af25000cdbbf43	1	1	main_slash	24	advance_on_keypress_SLASH	124	stimuli_target_trianglesquares.svg	stimuli_distractor_diamondtriangles.svg	22	yes	57	0	748	6	6	antiphase_hc_ois.wav	3	6	2	noise_calib_stim_LEFT.wav	1	9	blb_dichoticlistening_da-ga.mp3	da	ga	1	right
6.6.1	mac	2023-06-12	23:38:53	23:49:35	636245	5efa98dd74af25000cdbbf43	1	1	main_slash	24	main_slash	125	stimuli_distractor_trianglediamonds.svg	stimuli_target_rectangletriangles.svg	9	yes	53	1	352	6	6	antiphase_hc_ois.wav	3	6	2	noise_calib_stim_LEFT.wav	1	9	blb_dichoticlistening_da-ga.mp3	da	ga	1	right
6.6.1	mac	2023-06-12	23:38:53	23:49:35	636245	5efa98dd74af25000cdbbf43	1	1	main_slash	24	advance_on_keypress_SLASH	126	stimuli_distractor_trianglediamonds.svg	stimuli_target_rectangletriangles.svg	9	yes	57	0	656	6	6	antiphase_hc_ois.wav	3	6	2	noise_calib_stim_LEFT.wav	1	9	blb_dichoticlistening_da-ga.mp3	da	ga	1	right
6.6.1	mac	2023-06-12	23:38:53	23:49:36	637864	5efa98dd74af25000cdbbf43	1	1	main_slash	24	main_slash	127	stimuli_target_trianglerectangles.svg	stimuli_distractor_trianglediamonds.svg	17	yes	53	1	334	6	6	antiphase_hc_ois.wav	3	6	2	noise_calib_stim_LEFT.wav	1	9	blb_dichoticlistening_da-ga.mp3	da	ga	1	right
6.6.1	mac	2023-06-12	23:38:53	23:49:36	637864	5efa98dd74af25000cdbbf43	1	1	main_slash	24	advance_on_keypress_SLASH	128	stimuli_target_trianglerectangles.svg	stimuli_distractor_trianglediamonds.svg	17	yes	57	0	499	6	6	antiphase_hc_ois.wav	3	6	2	noise_calib_stim_LEFT.wav	1	9	blb_dichoticlistening_da-ga.mp3	da	ga	1	right
6.6.1	mac	2023-06-12	23:38:53	23:49:39	641003	5efa98dd74af25000cdbbf43	1	1	main_slash	24	main_slash	129	stimuli_distractor_diamondtriangles.svg	stimuli_distractor_diamondtriangles.svg	39	no	0	1	2000	6	6	antiphase_hc_ois.wav	3	6	2	noise_calib_stim_LEFT.wav	1	9	blb_dichoticlistening_da-ga.mp3	da	ga	1	right
6.6.1	mac	2023-06-12	23:38:53	23:49:39	641003	5efa98dd74af25000cdbbf43	1	1	main_slash	24	advance_on_keypress_SLASH	130	stimuli_distractor_diamondtriangles.svg	stimuli_distractor_diamondtriangles.svg	39	no	57	0	323	6	6	antiphase_hc_ois.wav	3	6	2	noise_calib_stim_LEFT.wav	1	9	blb_dichoticlistening_da-ga.mp3	da	ga	1	right
6.6.1	mac	2023-06-12	23:38:53	23:49:42	644012	5efa98dd74af25000cdbbf43	1	1	main_slash	24	main_slash	131	stimuli_target_trianglerectangles.svg	stimuli_distractor_diamondtriangles.svg	21	yes	0	0	2000	6	6	antiphase_hc_ois.wav	3	6	2	noise_calib_stim_LEFT.wav	1	9	blb_dichoticlistening_da-ga.mp3	da	ga	1	right
6.6.1	mac	2023-06-12	23:38:53	23:49:42	644012	5efa98dd74af25000cdbbf43	1	1	main_slash	24	advance_on_keypress_SLASH	132	stimuli_target_trianglerectangles.svg	stimuli_distractor_diamondtriangles.svg	21	yes	57	0	338	6	6	antiphase_hc_ois.wav	3	6	2	noise_calib_stim_LEFT.wav	1	9	blb_dichoticlistening_da-ga.mp3	da	ga	1	right
6.6.1	mac	2023-06-12	23:38:53	23:49:45	646431	5efa98dd74af25000cdbbf43	1	1	main_slash	24	main_slash	133	stimuli_target_squaretriangles.svg	stimuli_distractor_diamondtriangles.svg	7	yes	53	1	1355	6	6	antiphase_hc_ois.wav	3	6	2	noise_calib_stim_LEFT.wav	1	9	blb_dichoticlistening_da-ga.mp3	da	ga	1	right
6.6.1	mac	2023-06-12	23:38:53	23:49:45	646431	5efa98dd74af25000cdbbf43	1	1	main_slash	24	advance_on_keypress_SLASH	134	stimuli_target_squaretriangles.svg	stimuli_distractor_diamondtriangles.svg	7	yes	57	0	527	6	6	antiphase_hc_ois.wav	3	6	2	noise_calib_stim_LEFT.wav	1	9	blb_dichoticlistening_da-ga.mp3	da	ga	1	right
6.6.1	mac	2023-06-12	23:38:53	23:49:46	648041	5efa98dd74af25000cdbbf43	1	1	main_slash	24	main_slash	135	stimuli_distractor_trianglediamonds.svg	stimuli_target_diamondrectangles.svg	27	yes	53	1	439	6	6	antiphase_hc_ois.wav	3	6	2	noise_calib_stim_LEFT.wav	1	9	blb_dichoticlistening_da-ga.mp3	da	ga	1	right
6.6.1	mac	2023-06-12	23:38:53	23:49:46	648041	5efa98dd74af25000cdbbf43	1	1	main_slash	24	advance_on_keypress_SLASH	136	stimuli_distractor_trianglediamonds.svg	stimuli_target_diamondrectangles.svg	27	yes	57	0	643	6	6	antiphase_hc_ois.wav	3	6	2	noise_calib_stim_LEFT.wav	1	9	blb_dichoticlistening_da-ga.mp3	da	ga	1	right
6.6.1	mac	2023-06-12	23:38:53	23:49:48	649904	5efa98dd74af25000cdbbf43	1	1	main_slash	24	main_slash	137	stimuli_target_squaretriangles.svg	stimuli_distractor_trianglediamonds.svg	3	yes	53	1	594	6	6	antiphase_hc_ois.wav	3	6	2	noise_calib_stim_LEFT.wav	1	9	blb_dichoticlistening_da-ga.mp3	da	ga	1	right
6.6.1	mac	2023-06-12	23:38:53	23:49:48	649904	5efa98dd74af25000cdbbf43	1	1	main_slash	24	advance_on_keypress_SLASH	138	stimuli_target_squaretriangles.svg	stimuli_distractor_trianglediamonds.svg	3	yes	57	0	525	6	6	antiphase_hc_ois.wav	3	6	2	noise_calib_stim_LEFT.wav	1	9	blb_dichoticlistening_da-ga.mp3	da	ga	1	right
6.6.1	mac	2023-06-12	23:38:53	23:49:50	651717	5efa98dd74af25000cdbbf43	1	1	main_slash	24	main_slash	139	stimuli_target_diamondsquares.svg	stimuli_distractor_diamondtriangles.svg	24	yes	53	1	660	6	6	antiphase_hc_ois.wav	3	6	2	noise_calib_stim_LEFT.wav	1	9	blb_dichoticlistening_da-ga.mp3	da	ga	1	right
6.6.1	mac	2023-06-12	23:38:53	23:49:50	651717	5efa98dd74af25000cdbbf43	1	1	main_slash	24	advance_on_keypress_SLASH	140	stimuli_target_diamondsquares.svg	stimuli_distractor_diamondtriangles.svg	24	yes	57	0	465	6	6	antiphase_hc_ois.wav	3	6	2	noise_calib_stim_LEFT.wav	1	9	blb_dichoticlistening_da-ga.mp3	da	ga	1	right
6.6.1	mac	2023-06-12	23:38:53	23:49:51	653161	5efa98dd74af25000cdbbf43	1	1	main_slash	24	main_slash	141	stimuli_target_rectanglediamonds.svg	stimuli_distractor_trianglediamonds.svg	2	yes	53	1	349	6	6	antiphase_hc_ois.wav	3	6	2	noise_calib_stim_LEFT.wav	1	9	blb_dichoticlistening_da-ga.mp3	da	ga	1	right
6.6.1	mac	2023-06-12	23:38:53	23:49:51	653161	5efa98dd74af25000cdbbf43	1	1	main_slash	24	advance_on_keypress_SLASH	142	stimuli_target_rectanglediamonds.svg	stimuli_distractor_trianglediamonds.svg	2	yes	57	0	540	6	6	antiphase_hc_ois.wav	3	6	2	noise_calib_stim_LEFT.wav	1	9	blb_dichoticlistening_da-ga.mp3	da	ga	1	right
6.6.1	mac	2023-06-12	23:38:53	23:49:53	654638	5efa98dd74af25000cdbbf43	1	1	main_slash	24	main_slash	143	stimuli_distractor_diamondtriangles.svg	stimuli_target_rectanglediamonds.svg	14	yes	53	1	305	6	6	antiphase_hc_ois.wav	3	6	2	noise_calib_stim_LEFT.wav	1	9	blb_dichoticlistening_da-ga.mp3	da	ga	1	right
6.6.1	mac	2023-06-12	23:38:53	23:49:53	654638	5efa98dd74af25000cdbbf43	1	1	main_slash	24	advance_on_keypress_SLASH	144	stimuli_distractor_diamondtriangles.svg	stimuli_target_rectanglediamonds.svg	14	yes	57	0	494	6	6	antiphase_hc_ois.wav	3	6	2	noise_calib_stim_LEFT.wav	1	9	blb_dichoticlistening_da-ga.mp3	da	ga	1	right
6.6.1	mac	2023-06-12	23:38:53	23:49:54	655893	5efa98dd74af25000cdbbf43	1	1	main_slash	24	main_slash	145	stimuli_distractor_diamondtriangles.svg	stimuli_target_squarediamonds.svg	16	yes	53	1	142	6	6	antiphase_hc_ois.wav	3	6	2	noise_calib_stim_LEFT.wav	1	9	blb_dichoticlistening_da-ga.mp3	da	ga	1	right
6.6.1	mac	2023-06-12	23:38:53	23:49:54	655893	5efa98dd74af25000cdbbf43	1	1	main_slash	24	advance_on_keypress_SLASH	146	stimuli_distractor_diamondtriangles.svg	stimuli_target_squarediamonds.svg	16	yes	57	0	447	6	6	antiphase_hc_ois.wav	3	6	2	noise_calib_stim_LEFT.wav	1	9	blb_dichoticlistening_da-ga.mp3	da	ga	1	right
6.6.1	mac	2023-06-12	23:38:53	23:49:55	657170	5efa98dd74af25000cdbbf43	1	1	main_slash	24	main_slash	147	stimuli_distractor_trianglediamonds.svg	stimuli_target_squaretriangles.svg	11	yes	53	1	201	6	6	antiphase_hc_ois.wav	3	6	2	noise_calib_stim_LEFT.wav	1	9	blb_dichoticlistening_da-ga.mp3	da	ga	1	right
6.6.1	mac	2023-06-12	23:38:53	23:49:55	657170	5efa98dd74af25000cdbbf43	1	1	main_slash	24	advance_on_keypress_SLASH	148	stimuli_distractor_trianglediamonds.svg	stimuli_target_squaretriangles.svg	11	yes	57	0	556	6	6	antiphase_hc_ois.wav	3	6	2	noise_calib_stim_LEFT.wav	1	9	blb_dichoticlistening_da-ga.mp3	da	ga	1	right
6.6.1	mac	2023-06-12	23:38:53	23:49:57	658865	5efa98dd74af25000cdbbf43	1	1	main_slash	24	main_slash	149	stimuli_target_squarediamonds.svg	stimuli_distractor_trianglediamonds.svg	4	yes	53	1	508	6	6	antiphase_hc_ois.wav	3	6	2	noise_calib_stim_LEFT.wav	1	9	blb_dichoticlistening_da-ga.mp3	da	ga	1	right
6.6.1	mac	2023-06-12	23:38:53	23:49:57	658865	5efa98dd74af25000cdbbf43	1	1	main_slash	24	advance_on_keypress_SLASH	150	stimuli_target_squarediamonds.svg	stimuli_distractor_trianglediamonds.svg	4	yes	57	0	421	6	6	antiphase_hc_ois.wav	3	6	2	noise_calib_stim_LEFT.wav	1	9	blb_dichoticlistening_da-ga.mp3	da	ga	1	right
6.6.1	mac	2023-06-12	23:38:53	23:49:59	660273	5efa98dd74af25000cdbbf43	1	1	main_slash	24	main_slash	151	stimuli_target_rectanglediamonds.svg	stimuli_distractor_diamondtriangles.svg	6	yes	53	1	348	6	6	antiphase_hc_ois.wav	3	6	2	noise_calib_stim_LEFT.wav	1	9	blb_dichoticlistening_da-ga.mp3	da	ga	1	right
6.6.1	mac	2023-06-12	23:38:53	23:49:59	660273	5efa98dd74af25000cdbbf43	1	1	main_slash	24	advance_on_keypress_SLASH	152	stimuli_target_rectanglediamonds.svg	stimuli_distractor_diamondtriangles.svg	6	yes	57	0	560	6	6	antiphase_hc_ois.wav	3	6	2	noise_calib_stim_LEFT.wav	1	9	blb_dichoticlistening_da-ga.mp3	da	ga	1	right
6.6.1	mac	2023-06-12	23:38:53	23:50:00	661819	5efa98dd74af25000cdbbf43	1	1	main_slash	24	main_slash	153	stimuli_distractor_trianglediamonds.svg	stimuli_distractor_trianglediamonds.svg	34	no	53	0	354	6	6	antiphase_hc_ois.wav	3	6	2	noise_calib_stim_LEFT.wav	1	9	blb_dichoticlistening_da-ga.mp3	da	ga	1	right
6.6.1	mac	2023-06-12	23:38:53	23:50:00	661819	5efa98dd74af25000cdbbf43	1	1	main_slash	24	advance_on_keypress_SLASH	154	stimuli_distractor_trianglediamonds.svg	stimuli_distractor_trianglediamonds.svg	34	no	57	0	785	6	6	antiphase_hc_ois.wav	3	6	2	noise_calib_stim_LEFT.wav	1	9	blb_dichoticlistening_da-ga.mp3	da	ga	1	right
6.6.1	mac	2023-06-12	23:38:53	23:50:04	665223	5efa98dd74af25000cdbbf43	1	1	main_slash	24	main_slash	155	stimuli_target_diamondsquares.svg	stimuli_distractor_trianglediamonds.svg	20	yes	0	0	2000	6	6	antiphase_hc_ois.wav	3	6	2	noise_calib_stim_LEFT.wav	1	9	blb_dichoticlistening_da-ga.mp3	da	ga	1	right
6.6.1	mac	2023-06-12	23:38:53	23:50:04	665223	5efa98dd74af25000cdbbf43	1	1	main_slash	24	advance_on_keypress_SLASH	156	stimuli_target_diamondsquares.svg	stimuli_distractor_trianglediamonds.svg	20	yes	57	0	349	6	6	antiphase_hc_ois.wav	3	6	2	noise_calib_stim_LEFT.wav	1	9	blb_dichoticlistening_da-ga.mp3	da	ga	1	right
6.6.1	mac	2023-06-12	23:38:53	23:50:05	666726	5efa98dd74af25000cdbbf43	1	1	main_slash	24	main_slash	157	stimuli_target_squarediamonds.svg	stimuli_distractor_diamondtriangles.svg	8	yes	53	1	455	6	6	antiphase_hc_ois.wav	3	6	2	noise_calib_stim_LEFT.wav	1	9	blb_dichoticlistening_da-ga.mp3	da	ga	1	right
6.6.1	mac	2023-06-12	23:38:53	23:50:05	666726	5efa98dd74af25000cdbbf43	1	1	main_slash	24	advance_on_keypress_SLASH	158	stimuli_target_squarediamonds.svg	stimuli_distractor_diamondtriangles.svg	8	yes	57	0	465	6	6	antiphase_hc_ois.wav	3	6	2	noise_calib_stim_LEFT.wav	1	9	blb_dichoticlistening_da-ga.mp3	da	ga	1	right
6.6.1	mac	2023-06-12	23:38:53	23:50:06	668186	5efa98dd74af25000cdbbf43	1	1	main_slash	24	main_slash	159	stimuli_distractor_trianglediamonds.svg	stimuli_target_rectanglediamonds.svg	10	yes	53	1	373	6	6	antiphase_hc_ois.wav	3	6	2	noise_calib_stim_LEFT.wav	1	9	blb_dichoticlistening_da-ga.mp3	da	ga	1	right
6.6.1	mac	2023-06-12	23:38:53	23:50:06	668186	5efa98dd74af25000cdbbf43	1	1	main_slash	24	advance_on_keypress_SLASH	160	stimuli_distractor_trianglediamonds.svg	stimuli_target_rectanglediamonds.svg	10	yes	57	0	419	6	6	antiphase_hc_ois.wav	3	6	2	noise_calib_stim_LEFT.wav	1	9	blb_dichoticlistening_da-ga.mp3	da	ga	1	right
6.6.1	mac	2023-06-12	23:38:53	23:50:17	678998	5efa98dd74af25000cdbbf43	1	1	practice_z	26	practice_z	1	stimuli_target_diamondsquares.svg	stimuli_distractor_diamondtriangles.svg	3	yes	0	0	2000	6	6	antiphase_hc_ois.wav	3	6	2	noise_calib_stim_LEFT.wav	1	9	blb_dichoticlistening_da-ga.mp3	da	ga	1	right
6.6.1	mac	2023-06-12	23:38:53	23:50:17	678998	5efa98dd74af25000cdbbf43	1	1	practice_z	26	advance_on_keypress_ZEE	2	stimuli_target_diamondsquares.svg	stimuli_distractor_diamondtriangles.svg	3	yes	57	0	1567	6	6	antiphase_hc_ois.wav	3	6	2	noise_calib_stim_LEFT.wav	1	9	blb_dichoticlistening_da-ga.mp3	da	ga	1	right
6.6.1	mac	2023-06-12	23:38:53	23:50:21	682338	5efa98dd74af25000cdbbf43	1	1	practice_z	26	practice_z	3	stimuli_distractor_trianglediamonds.svg	stimuli_target_rectanglediamonds.svg	10	yes	44	1	142	6	6	antiphase_hc_ois.wav	3	6	2	noise_calib_stim_LEFT.wav	1	9	blb_dichoticlistening_da-ga.mp3	da	ga	1	right
6.6.1	mac	2023-06-12	23:38:53	23:50:21	682338	5efa98dd74af25000cdbbf43	1	1	practice_z	26	advance_on_keypress_ZEE	4	stimuli_distractor_trianglediamonds.svg	stimuli_target_rectanglediamonds.svg	10	yes	57	0	100	6	6	antiphase_hc_ois.wav	3	6	2	noise_calib_stim_LEFT.wav	1	9	blb_dichoticlistening_da-ga.mp3	da	ga	1	right
6.6.1	mac	2023-06-12	23:38:53	23:50:22	684160	5efa98dd74af25000cdbbf43	1	1	practice_z	26	practice_z	5	stimuli_distractor_diamondtriangles.svg	stimuli_distractor_diamondtriangles.svg	13	no	44	0	82	6	6	antiphase_hc_ois.wav	3	6	2	noise_calib_stim_LEFT.wav	1	9	blb_dichoticlistening_da-ga.mp3	da	ga	1	right
6.6.1	mac	2023-06-12	23:38:53	23:50:22	684160	5efa98dd74af25000cdbbf43	1	1	practice_z	26	advance_on_keypress_ZEE	6	stimuli_distractor_diamondtriangles.svg	stimuli_distractor_diamondtriangles.svg	13	no	57	0	137	6	6	antiphase_hc_ois.wav	3	6	2	noise_calib_stim_LEFT.wav	1	9	blb_dichoticlistening_da-ga.mp3	da	ga	1	right
6.6.1	mac	2023-06-12	23:38:53	23:50:25	686304	5efa98dd74af25000cdbbf43	1	1	practice_z	26	practice_z	7	stimuli_distractor_diamondtriangles.svg	stimuli_target_rectangletriangles.svg	7	yes	44	1	368	6	6	antiphase_hc_ois.wav	3	6	2	noise_calib_stim_LEFT.wav	1	9	blb_dichoticlistening_da-ga.mp3	da	ga	1	right
6.6.1	mac	2023-06-12	23:38:53	23:50:25	686304	5efa98dd74af25000cdbbf43	1	1	practice_z	26	advance_on_keypress_ZEE	8	stimuli_distractor_diamondtriangles.svg	stimuli_target_rectangletriangles.svg	7	yes	57	0	160	6	6	antiphase_hc_ois.wav	3	6	2	noise_calib_stim_LEFT.wav	1	9	blb_dichoticlistening_da-ga.mp3	da	ga	1	right
6.6.1	mac	2023-06-12	23:38:53	23:50:27	688432	5efa98dd74af25000cdbbf43	1	1	practice_z	26	practice_z	9	stimuli_distractor_trianglediamonds.svg	stimuli_distractor_trianglediamonds.svg	15	no	44	0	287	6	6	antiphase_hc_ois.wav	3	6	2	noise_calib_stim_LEFT.wav	1	9	blb_dichoticlistening_da-ga.mp3	da	ga	1	right
6.6.1	mac	2023-06-12	23:38:53	23:50:27	688432	5efa98dd74af25000cdbbf43	1	1	practice_z	26	advance_on_keypress_ZEE	10	stimuli_distractor_trianglediamonds.svg	stimuli_distractor_trianglediamonds.svg	15	no	57	0	353	6	6	antiphase_hc_ois.wav	3	6	2	noise_calib_stim_LEFT.wav	1	9	blb_dichoticlistening_da-ga.mp3	da	ga	1	right
6.6.1	mac	2023-06-12	23:38:53	23:50:29	690898	5efa98dd74af25000cdbbf43	1	1	practice_z	26	practice_z	11	stimuli_distractor_trianglediamonds.svg	stimuli_distractor_diamondtriangles.svg	16	no	44	0	401	6	6	antiphase_hc_ois.wav	3	6	2	noise_calib_stim_LEFT.wav	1	9	blb_dichoticlistening_da-ga.mp3	da	ga	1	right
6.6.1	mac	2023-06-12	23:38:53	23:50:29	690898	5efa98dd74af25000cdbbf43	1	1	practice_z	26	advance_on_keypress_ZEE	12	stimuli_distractor_trianglediamonds.svg	stimuli_distractor_diamondtriangles.svg	16	no	57	0	290	6	6	antiphase_hc_ois.wav	3	6	2	noise_calib_stim_LEFT.wav	1	9	blb_dichoticlistening_da-ga.mp3	da	ga	1	right
6.6.1	mac	2023-06-12	23:38:53	23:50:32	693402	5efa98dd74af25000cdbbf43	1	1	practice_z	26	practice_z	13	stimuli_target_squarediamonds.svg	stimuli_distractor_diamondtriangles.svg	2	yes	44	1	577	6	6	antiphase_hc_ois.wav	3	6	2	noise_calib_stim_LEFT.wav	1	9	blb_dichoticlistening_da-ga.mp3	da	ga	1	right
6.6.1	mac	2023-06-12	23:38:53	23:50:32	693402	5efa98dd74af25000cdbbf43	1	1	practice_z	26	advance_on_keypress_ZEE	14	stimuli_target_squarediamonds.svg	stimuli_distractor_diamondtriangles.svg	2	yes	57	0	314	6	6	antiphase_hc_ois.wav	3	6	2	noise_calib_stim_LEFT.wav	1	9	blb_dichoticlistening_da-ga.mp3	da	ga	1	right
6.6.1	mac	2023-06-12	23:38:53	23:50:34	695724	5efa98dd74af25000cdbbf43	1	1	practice_z	26	practice_z	15	stimuli_distractor_diamondtriangles.svg	stimuli_target_trianglerectangles.svg	9	yes	44	1	362	6	6	antiphase_hc_ois.wav	3	6	2	noise_calib_stim_LEFT.wav	1	9	blb_dichoticlistening_da-ga.mp3	da	ga	1	right
6.6.1	mac	2023-06-12	23:38:53	23:50:34	695724	5efa98dd74af25000cdbbf43	1	1	practice_z	26	advance_on_keypress_ZEE	16	stimuli_distractor_diamondtriangles.svg	stimuli_target_trianglerectangles.svg	9	yes	57	0	258	6	6	antiphase_hc_ois.wav	3	6	2	noise_calib_stim_LEFT.wav	1	9	blb_dichoticlistening_da-ga.mp3	da	ga	1	right
