build	computer.platform	date	time	timestamp	time_elapsed_ms	subject	group	session	blockcode	blocknum	trialcode	trialnum	stimulus_left	stimulus_right	stim_index	target_present	response	correct	latency	headphonecheck_countTestTrials	headphonecheck_index	headphonecheck_testSound	headphonecheck_correctResponse	stereocheck_countTestTrials	stereocheck_index	stereocheck_testSound	stereocheck_correctResponse	DL_index	DL_soundfile	DL_leftSound	DL_rightSound	DL_dualSound	DL_choice
6.6.1	win	2023-06-02	01:40:44	0	0	59d9d9cd8fd07a0001842484	1	1	headphonecheck_calibration	4	headphonecheck_calibrationIntro	1			0		calibrationButton	0	1204	0	0			0	0			1				0	
6.6.1	win	2023-06-02	01:40:44	0	0	59d9d9cd8fd07a0001842484	1	1	headphonecheck_testphase	5	test_collectResponse	3			0		third	1	2769	1	2	antiphase_hc_ios.wav	3	0	0			1				0	
6.6.1	win	2023-06-02	01:40:44	0	0	59d9d9cd8fd07a0001842484	1	1	headphonecheck_testphase	5	test_collectResponse	6			0		first	1	415	2	4	antiphase_hc_sio.wav	1	0	0			1				0	
6.6.1	win	2023-06-02	01:40:44	0	0	59d9d9cd8fd07a0001842484	1	1	headphonecheck_testphase	5	test_collectResponse	9			0		second	1	1113	3	5	antiphase_hc_osi.wav	2	0	0			1				0	
6.6.1	win	2023-06-02	01:40:44	0	0	59d9d9cd8fd07a0001842484	1	1	headphonecheck_testphase	5	test_collectResponse	12			0		second	1	400	4	1	antiphase_hc_iso.wav	2	0	0			1				0	
6.6.1	win	2023-06-02	01:40:44	0	0	59d9d9cd8fd07a0001842484	1	1	headphonecheck_testphase	5	test_collectResponse	15			0		first	1	251	5	3	antiphase_hc_soi.wav	1	0	0			1				0	
6.6.1	win	2023-06-02	01:40:44	0	0	59d9d9cd8fd07a0001842484	1	1	headphonecheck_testphase	5	test_collectResponse	18			0		third	1	441	6	6	antiphase_hc_ois.wav	3	0	0			1				0	
6.6.1	win	2023-06-02	01:40:44	0	0	59d9d9cd8fd07a0001842484	1	1	stereocheck_calibration	7	stereocheck_calibrationIntro	1			0		stereocheck_calibrationButton	0	23284	6	6	antiphase_hc_ois.wav	3	0	0			1				0	
6.6.1	win	2023-06-02	01:40:44	0	0	59d9d9cd8fd07a0001842484	1	1	stereocheck_testphase	8	stereocheck_test_collectResponse	3			0		stereocheck_left	1	692	6	6	antiphase_hc_ois.wav	3	1	2	noise_calib_stim_LEFT.wav	1	1				0	
6.6.1	win	2023-06-02	01:40:44	0	0	59d9d9cd8fd07a0001842484	1	1	stereocheck_testphase	8	stereocheck_test_collectResponse	6			0		stereocheck_right	1	316	6	6	antiphase_hc_ois.wav	3	2	4	noise_calib_stim_RIGHT.wav	2	1				0	
6.6.1	win	2023-06-02	01:40:44	0	0	59d9d9cd8fd07a0001842484	1	1	stereocheck_testphase	8	stereocheck_test_collectResponse	9			0		stereocheck_left	1	340	6	6	antiphase_hc_ois.wav	3	3	3	noise_calib_stim_LEFT.wav	1	1				0	
6.6.1	win	2023-06-02	01:40:44	0	0	59d9d9cd8fd07a0001842484	1	1	stereocheck_testphase	8	stereocheck_test_collectResponse	12			0		stereocheck_left	1	667	6	6	antiphase_hc_ois.wav	3	4	1	noise_calib_stim_LEFT.wav	1	1				0	
6.6.1	win	2023-06-02	01:40:44	0	0	59d9d9cd8fd07a0001842484	1	1	stereocheck_testphase	8	stereocheck_test_collectResponse	15			0		stereocheck_right	1	330	6	6	antiphase_hc_ois.wav	3	5	5	noise_calib_stim_RIGHT.wav	2	1				0	
6.6.1	win	2023-06-02	01:40:44	0	0	59d9d9cd8fd07a0001842484	1	1	stereocheck_testphase	8	stereocheck_test_collectResponse	18			0		stereocheck_right	1	1512	6	6	antiphase_hc_ois.wav	3	6	6	noise_calib_stim_RIGHT.wav	2	1				0	
6.6.1	win	2023-06-02	01:40:44	0	0	59d9d9cd8fd07a0001842484	1	1	DL_practice	11	DL_practice	2			0		ga	1	828	6	6	antiphase_hc_ois.wav	3	6	6	noise_calib_stim_RIGHT.wav	2	15	blb_dichoticlistening_ga-ga.mp3	ga	ga	0	left
6.6.1	win	2023-06-02	01:40:44	0	0	59d9d9cd8fd07a0001842484	1	1	DL_practice	11	DL_practice	3			0		ka	1	1063	6	6	antiphase_hc_ois.wav	3	6	6	noise_calib_stim_RIGHT.wav	2	22	blb_dichoticlistening_ka-ka.mp3	ka	ka	0	left
6.6.1	win	2023-06-02	01:40:44	0	0	59d9d9cd8fd07a0001842484	1	1	DL_practice	11	DL_practice	4			0		ta	1	836	6	6	antiphase_hc_ois.wav	3	6	6	noise_calib_stim_RIGHT.wav	2	36	blb_dichoticlistening_ta-ta.mp3	ta	ta	0	left
6.6.1	win	2023-06-02	01:40:44	0	0	59d9d9cd8fd07a0001842484	1	1	DL_practice	11	DL_practice	5			0		da	1	919	6	6	antiphase_hc_ois.wav	3	6	6	noise_calib_stim_RIGHT.wav	2	8	blb_dichoticlistening_da-da.mp3	da	da	0	left
6.6.1	win	2023-06-02	01:40:44	0	0	59d9d9cd8fd07a0001842484	1	1	DL_practice	11	DL_practice	6			0		ba	1	934	6	6	antiphase_hc_ois.wav	3	6	6	noise_calib_stim_RIGHT.wav	2	1	blb_dichoticlistening_ba-ba.mp3	ba	ba	0	left
6.6.1	win	2023-06-02	01:40:44	0	0	59d9d9cd8fd07a0001842484	1	1	DL_practice	11	DL_practice	7			0		pa	1	1011	6	6	antiphase_hc_ois.wav	3	6	6	noise_calib_stim_RIGHT.wav	2	29	blb_dichoticlistening_pa-pa.mp3	pa	pa	0	left
6.6.1	win	2023-06-02	01:40:44	0	0	59d9d9cd8fd07a0001842484	1	1	DL_practice	11	DL_practice	8			0		ka	1	1024	6	6	antiphase_hc_ois.wav	3	6	6	noise_calib_stim_RIGHT.wav	2	23	blb_dichoticlistening_ka-pa.mp3	ka	pa	1	left
6.6.1	win	2023-06-02	01:40:44	0	0	59d9d9cd8fd07a0001842484	1	1	DL_practice	11	DL_practice	9			0		da	1	1129	6	6	antiphase_hc_ois.wav	3	6	6	noise_calib_stim_RIGHT.wav	2	7	blb_dichoticlistening_da-ba.mp3	da	ba	1	left
6.6.1	win	2023-06-02	01:40:44	0	0	59d9d9cd8fd07a0001842484	1	1	DL_practice	11	DL_practice	10			0		ka	0	1150	6	6	antiphase_hc_ois.wav	3	6	6	noise_calib_stim_RIGHT.wav	2	18	blb_dichoticlistening_ga-ta.mp3	ga	ta	1	other
6.6.1	win	2023-06-02	01:40:44	0	0	59d9d9cd8fd07a0001842484	1	1	DL_test	13	DL_test	1			0		ka	1	952	6	6	antiphase_hc_ois.wav	3	6	6	noise_calib_stim_RIGHT.wav	2	19	blb_dichoticlistening_ka-ba.mp3	ka	ba	1	left
6.6.1	win	2023-06-02	01:40:44	0	0	59d9d9cd8fd07a0001842484	1	1	DL_test	13	DL_test	2			0		ka	1	755	6	6	antiphase_hc_ois.wav	3	6	6	noise_calib_stim_RIGHT.wav	2	23	blb_dichoticlistening_ka-pa.mp3	ka	pa	1	left
6.6.1	win	2023-06-02	01:40:44	0	0	59d9d9cd8fd07a0001842484	1	1	DL_test	13	DL_test	3			0		pa	1	808	6	6	antiphase_hc_ois.wav	3	6	6	noise_calib_stim_RIGHT.wav	2	29	blb_dichoticlistening_pa-pa.mp3	pa	pa	0	left
6.6.1	win	2023-06-02	01:40:44	0	0	59d9d9cd8fd07a0001842484	1	1	DL_test	13	DL_test	4			0		ta	1	540	6	6	antiphase_hc_ois.wav	3	6	6	noise_calib_stim_RIGHT.wav	2	36	blb_dichoticlistening_ta-ta.mp3	ta	ta	0	left
6.6.1	win	2023-06-02	01:40:44	0	0	59d9d9cd8fd07a0001842484	1	1	DL_test	13	DL_test	5			0		ka	1	948	6	6	antiphase_hc_ois.wav	3	6	6	noise_calib_stim_RIGHT.wav	2	21	blb_dichoticlistening_ka-ga.mp3	ka	ga	1	left
6.6.1	win	2023-06-02	01:40:44	0	0	59d9d9cd8fd07a0001842484	1	1	DL_test	13	DL_test	6			0		da	0	1059	6	6	antiphase_hc_ois.wav	3	6	6	noise_calib_stim_RIGHT.wav	2	31	blb_dichoticlistening_ta-ba.mp3	ta	ba	1	other
6.6.1	win	2023-06-02	01:40:44	0	0	59d9d9cd8fd07a0001842484	1	1	DL_test	13	DL_test	7			0		ta	1	1071	6	6	antiphase_hc_ois.wav	3	6	6	noise_calib_stim_RIGHT.wav	2	30	blb_dichoticlistening_pa-ta.mp3	pa	ta	1	right
6.6.1	win	2023-06-02	01:40:44	0	0	59d9d9cd8fd07a0001842484	1	1	DL_test	13	DL_test	8			0		ta	1	705	6	6	antiphase_hc_ois.wav	3	6	6	noise_calib_stim_RIGHT.wav	2	35	blb_dichoticlistening_ta-pa.mp3	ta	pa	1	left
6.6.1	win	2023-06-02	01:40:44	0	0	59d9d9cd8fd07a0001842484	1	1	DL_test	13	DL_test	9			0		da	1	1659	6	6	antiphase_hc_ois.wav	3	6	6	noise_calib_stim_RIGHT.wav	2	11	blb_dichoticlistening_da-pa.mp3	da	pa	1	left
6.6.1	win	2023-06-02	01:40:44	0	0	59d9d9cd8fd07a0001842484	1	1	DL_test	13	DL_test	10			0		ba	1	1493	6	6	antiphase_hc_ois.wav	3	6	6	noise_calib_stim_RIGHT.wav	2	1	blb_dichoticlistening_ba-ba.mp3	ba	ba	0	left
6.6.1	win	2023-06-02	01:40:44	0	0	59d9d9cd8fd07a0001842484	1	1	DL_test	13	DL_test	11			0		ka	1	1020	6	6	antiphase_hc_ois.wav	3	6	6	noise_calib_stim_RIGHT.wav	2	16	blb_dichoticlistening_ga-ka.mp3	ga	ka	1	right
6.6.1	win	2023-06-02	01:40:44	0	0	59d9d9cd8fd07a0001842484	1	1	DL_test	13	DL_test	12			0		ka	0	925	6	6	antiphase_hc_ois.wav	3	6	6	noise_calib_stim_RIGHT.wav	2	17	blb_dichoticlistening_ga-pa.mp3	ga	pa	1	other
6.6.1	win	2023-06-02	01:40:44	0	0	59d9d9cd8fd07a0001842484	1	1	DL_test	13	DL_test	13			0		da	0	2033	6	6	antiphase_hc_ois.wav	3	6	6	noise_calib_stim_RIGHT.wav	2	3	blb_dichoticlistening_ba-ga.mp3	ba	ga	1	other
6.6.1	win	2023-06-02	01:40:44	0	0	59d9d9cd8fd07a0001842484	1	1	DL_test	13	DL_test	14			0		ta	0	1405	6	6	antiphase_hc_ois.wav	3	6	6	noise_calib_stim_RIGHT.wav	2	26	blb_dichoticlistening_pa-da.mp3	pa	da	1	other
6.6.1	win	2023-06-02	01:40:44	0	0	59d9d9cd8fd07a0001842484	1	1	DL_test	13	DL_test	15			0		ka	0	1023	6	6	antiphase_hc_ois.wav	3	6	6	noise_calib_stim_RIGHT.wav	2	27	blb_dichoticlistening_pa-ga.mp3	pa	ga	1	other
6.6.1	win	2023-06-02	01:40:44	0	0	59d9d9cd8fd07a0001842484	1	1	DL_test	13	DL_test	16			0		da	1	1169	6	6	antiphase_hc_ois.wav	3	6	6	noise_calib_stim_RIGHT.wav	2	7	blb_dichoticlistening_da-ba.mp3	da	ba	1	left
6.6.1	win	2023-06-02	01:40:44	0	0	59d9d9cd8fd07a0001842484	1	1	DL_test	13	DL_test	17			0		pa	1	1019	6	6	antiphase_hc_ois.wav	3	6	6	noise_calib_stim_RIGHT.wav	2	25	blb_dichoticlistening_pa-ba.mp3	pa	ba	1	left
6.6.1	win	2023-06-02	01:40:44	0	0	59d9d9cd8fd07a0001842484	1	1	DL_test	13	DL_test	18			0		ga	1	1055	6	6	antiphase_hc_ois.wav	3	6	6	noise_calib_stim_RIGHT.wav	2	13	blb_dichoticlistening_ga-ba.mp3	ga	ba	1	left
6.6.1	win	2023-06-02	01:40:44	0	0	59d9d9cd8fd07a0001842484	1	1	DL_test	13	DL_test	19			0		ta	1	1337	6	6	antiphase_hc_ois.wav	3	6	6	noise_calib_stim_RIGHT.wav	2	6	blb_dichoticlistening_ba-ta.mp3	ba	ta	1	right
6.6.1	win	2023-06-02	01:40:44	0	0	59d9d9cd8fd07a0001842484	1	1	DL_test	13	DL_test	20			0		ga	1	1234	6	6	antiphase_hc_ois.wav	3	6	6	noise_calib_stim_RIGHT.wav	2	15	blb_dichoticlistening_ga-ga.mp3	ga	ga	0	left
6.6.1	win	2023-06-02	01:40:44	0	0	59d9d9cd8fd07a0001842484	1	1	DL_test	13	DL_test	21			0		ka	1	1361	6	6	antiphase_hc_ois.wav	3	6	6	noise_calib_stim_RIGHT.wav	2	20	blb_dichoticlistening_ka-da.mp3	ka	da	1	left
6.6.1	win	2023-06-02	01:40:44	0	0	59d9d9cd8fd07a0001842484	1	1	DL_test	13	DL_test	22			0		ga	1	732	6	6	antiphase_hc_ois.wav	3	6	6	noise_calib_stim_RIGHT.wav	2	9	blb_dichoticlistening_da-ga.mp3	da	ga	1	right
6.6.1	win	2023-06-02	01:40:44	0	0	59d9d9cd8fd07a0001842484	1	1	DL_test	13	DL_test	23			0		ka	1	912	6	6	antiphase_hc_ois.wav	3	6	6	noise_calib_stim_RIGHT.wav	2	24	blb_dichoticlistening_ka-ta.mp3	ka	ta	1	left
6.6.1	win	2023-06-02	01:40:44	0	0	59d9d9cd8fd07a0001842484	1	1	DL_test	13	DL_test	24			0		ka	1	920	6	6	antiphase_hc_ois.wav	3	6	6	noise_calib_stim_RIGHT.wav	2	28	blb_dichoticlistening_pa-ka.mp3	pa	ka	1	right
6.6.1	win	2023-06-02	01:40:44	0	0	59d9d9cd8fd07a0001842484	1	1	DL_test	13	DL_test	25			0		pa	1	943	6	6	antiphase_hc_ois.wav	3	6	6	noise_calib_stim_RIGHT.wav	2	5	blb_dichoticlistening_ba-pa.mp3	ba	pa	1	right
6.6.1	win	2023-06-02	01:40:44	0	0	59d9d9cd8fd07a0001842484	1	1	DL_test	13	DL_test	26			0		ka	0	825	6	6	antiphase_hc_ois.wav	3	6	6	noise_calib_stim_RIGHT.wav	2	18	blb_dichoticlistening_ga-ta.mp3	ga	ta	1	other
6.6.1	win	2023-06-02	01:40:44	0	0	59d9d9cd8fd07a0001842484	1	1	DL_test	13	DL_test	27			0		da	1	1009	6	6	antiphase_hc_ois.wav	3	6	6	noise_calib_stim_RIGHT.wav	2	8	blb_dichoticlistening_da-da.mp3	da	da	0	left
6.6.1	win	2023-06-02	01:40:44	0	0	59d9d9cd8fd07a0001842484	1	1	DL_test	13	DL_test	28			0		ka	1	842	6	6	antiphase_hc_ois.wav	3	6	6	noise_calib_stim_RIGHT.wav	2	34	blb_dichoticlistening_ta-ka.mp3	ta	ka	1	right
6.6.1	win	2023-06-02	01:40:44	0	0	59d9d9cd8fd07a0001842484	1	1	DL_test	13	DL_test	29			0		ka	0	1160	6	6	antiphase_hc_ois.wav	3	6	6	noise_calib_stim_RIGHT.wav	2	12	blb_dichoticlistening_da-ta.mp3	da	ta	1	other
6.6.1	win	2023-06-02	01:40:44	0	0	59d9d9cd8fd07a0001842484	1	1	DL_test	13	DL_test	30			0		ka	0	1123	6	6	antiphase_hc_ois.wav	3	6	6	noise_calib_stim_RIGHT.wav	2	33	blb_dichoticlistening_ta-ga.mp3	ta	ga	1	other
6.6.1	win	2023-06-02	01:40:44	0	0	59d9d9cd8fd07a0001842484	1	1	DL_test	13	DL_test	31			0		ka	1	928	6	6	antiphase_hc_ois.wav	3	6	6	noise_calib_stim_RIGHT.wav	2	22	blb_dichoticlistening_ka-ka.mp3	ka	ka	0	left
6.6.1	win	2023-06-02	01:40:44	0	0	59d9d9cd8fd07a0001842484	1	1	DL_test	13	DL_test	32			0		ka	1	1117	6	6	antiphase_hc_ois.wav	3	6	6	noise_calib_stim_RIGHT.wav	2	4	blb_dichoticlistening_ba-ka.mp3	ba	ka	1	right
6.6.1	win	2023-06-02	01:40:44	0	0	59d9d9cd8fd07a0001842484	1	1	DL_test	13	DL_test	33			0		da	1	1174	6	6	antiphase_hc_ois.wav	3	6	6	noise_calib_stim_RIGHT.wav	2	14	blb_dichoticlistening_ga-da.mp3	ga	da	1	right
6.6.1	win	2023-06-02	01:40:44	0	0	59d9d9cd8fd07a0001842484	1	1	DL_test	13	DL_test	34			0		pa	0	1792	6	6	antiphase_hc_ois.wav	3	6	6	noise_calib_stim_RIGHT.wav	2	10	blb_dichoticlistening_da-ka.mp3	da	ka	1	other
6.6.1	win	2023-06-02	01:40:44	0	0	59d9d9cd8fd07a0001842484	1	1	DL_test	13	DL_test	35			0		da	1	781	6	6	antiphase_hc_ois.wav	3	6	6	noise_calib_stim_RIGHT.wav	2	2	blb_dichoticlistening_ba-da.mp3	ba	da	1	right
6.6.1	win	2023-06-02	01:40:44	0	0	59d9d9cd8fd07a0001842484	1	1	DL_test	13	DL_test	36			0		ta	1	1192	6	6	antiphase_hc_ois.wav	3	6	6	noise_calib_stim_RIGHT.wav	2	32	blb_dichoticlistening_ta-da.mp3	ta	da	1	left
6.6.1	win	2023-06-02	01:40:44	0	0	59d9d9cd8fd07a0001842484	1	1	DL_test	14	DL_test	1			0		ba	1	1812	6	6	antiphase_hc_ois.wav	3	6	6	noise_calib_stim_RIGHT.wav	2	1	blb_dichoticlistening_ba-ba.mp3	ba	ba	0	left
6.6.1	win	2023-06-02	01:40:44	0	0	59d9d9cd8fd07a0001842484	1	1	DL_test	14	DL_test	2			0		ka	1	849	6	6	antiphase_hc_ois.wav	3	6	6	noise_calib_stim_RIGHT.wav	2	4	blb_dichoticlistening_ba-ka.mp3	ba	ka	1	right
6.6.1	win	2023-06-02	01:40:44	0	0	59d9d9cd8fd07a0001842484	1	1	DL_test	14	DL_test	3			0		ta	0	1158	6	6	antiphase_hc_ois.wav	3	6	6	noise_calib_stim_RIGHT.wav	2	25	blb_dichoticlistening_pa-ba.mp3	pa	ba	1	other
6.6.1	win	2023-06-02	01:40:44	0	0	59d9d9cd8fd07a0001842484	1	1	DL_test	14	DL_test	4			0		ga	1	805	6	6	antiphase_hc_ois.wav	3	6	6	noise_calib_stim_RIGHT.wav	2	3	blb_dichoticlistening_ba-ga.mp3	ba	ga	1	right
6.6.1	win	2023-06-02	01:40:44	0	0	59d9d9cd8fd07a0001842484	1	1	DL_test	14	DL_test	5			0		ta	1	1201	6	6	antiphase_hc_ois.wav	3	6	6	noise_calib_stim_RIGHT.wav	2	35	blb_dichoticlistening_ta-pa.mp3	ta	pa	1	left
6.6.1	win	2023-06-02	01:40:44	0	0	59d9d9cd8fd07a0001842484	1	1	DL_test	14	DL_test	6			0		ga	1	883	6	6	antiphase_hc_ois.wav	3	6	6	noise_calib_stim_RIGHT.wav	2	15	blb_dichoticlistening_ga-ga.mp3	ga	ga	0	left
6.6.1	win	2023-06-02	01:40:44	0	0	59d9d9cd8fd07a0001842484	1	1	DL_test	14	DL_test	7			0		da	1	471	6	6	antiphase_hc_ois.wav	3	6	6	noise_calib_stim_RIGHT.wav	2	8	blb_dichoticlistening_da-da.mp3	da	da	0	left
6.6.1	win	2023-06-02	01:40:44	0	0	59d9d9cd8fd07a0001842484	1	1	DL_test	14	DL_test	8			0		pa	0	1269	6	6	antiphase_hc_ois.wav	3	6	6	noise_calib_stim_RIGHT.wav	2	10	blb_dichoticlistening_da-ka.mp3	da	ka	1	other
6.6.1	win	2023-06-02	01:40:44	0	0	59d9d9cd8fd07a0001842484	1	1	DL_test	14	DL_test	9			0		pa	1	769	6	6	antiphase_hc_ois.wav	3	6	6	noise_calib_stim_RIGHT.wav	2	29	blb_dichoticlistening_pa-pa.mp3	pa	pa	0	left
6.6.1	win	2023-06-02	01:40:44	0	0	59d9d9cd8fd07a0001842484	1	1	DL_test	14	DL_test	10			0		da	1	1075	6	6	antiphase_hc_ois.wav	3	6	6	noise_calib_stim_RIGHT.wav	2	7	blb_dichoticlistening_da-ba.mp3	da	ba	1	left
6.6.1	win	2023-06-02	01:40:44	0	0	59d9d9cd8fd07a0001842484	1	1	DL_test	14	DL_test	11			0		ga	1	853	6	6	antiphase_hc_ois.wav	3	6	6	noise_calib_stim_RIGHT.wav	2	9	blb_dichoticlistening_da-ga.mp3	da	ga	1	right
6.6.1	win	2023-06-02	01:40:44	0	0	59d9d9cd8fd07a0001842484	1	1	DL_test	14	DL_test	12			0		ka	0	1389	6	6	antiphase_hc_ois.wav	3	6	6	noise_calib_stim_RIGHT.wav	2	17	blb_dichoticlistening_ga-pa.mp3	ga	pa	1	other
6.6.1	win	2023-06-02	01:40:44	0	0	59d9d9cd8fd07a0001842484	1	1	DL_test	14	DL_test	13			0		ta	1	1244	6	6	antiphase_hc_ois.wav	3	6	6	noise_calib_stim_RIGHT.wav	2	6	blb_dichoticlistening_ba-ta.mp3	ba	ta	1	right
6.6.1	win	2023-06-02	01:40:44	0	0	59d9d9cd8fd07a0001842484	1	1	DL_test	14	DL_test	14			0		pa	1	1673	6	6	antiphase_hc_ois.wav	3	6	6	noise_calib_stim_RIGHT.wav	2	5	blb_dichoticlistening_ba-pa.mp3	ba	pa	1	right
6.6.1	win	2023-06-02	01:40:44	0	0	59d9d9cd8fd07a0001842484	1	1	DL_test	14	DL_test	15			0		ka	1	962	6	6	antiphase_hc_ois.wav	3	6	6	noise_calib_stim_RIGHT.wav	2	24	blb_dichoticlistening_ka-ta.mp3	ka	ta	1	left
6.6.1	win	2023-06-02	01:40:44	0	0	59d9d9cd8fd07a0001842484	1	1	DL_test	14	DL_test	16			0		pa	1	1257	6	6	antiphase_hc_ois.wav	3	6	6	noise_calib_stim_RIGHT.wav	2	27	blb_dichoticlistening_pa-ga.mp3	pa	ga	1	left
6.6.1	win	2023-06-02	01:40:44	0	0	59d9d9cd8fd07a0001842484	1	1	DL_test	14	DL_test	17			0		ka	0	1079	6	6	antiphase_hc_ois.wav	3	6	6	noise_calib_stim_RIGHT.wav	2	33	blb_dichoticlistening_ta-ga.mp3	ta	ga	1	other
6.6.1	win	2023-06-02	01:40:44	0	0	59d9d9cd8fd07a0001842484	1	1	DL_test	14	DL_test	18			0		ta	1	1405	6	6	antiphase_hc_ois.wav	3	6	6	noise_calib_stim_RIGHT.wav	2	30	blb_dichoticlistening_pa-ta.mp3	pa	ta	1	right
6.6.1	win	2023-06-02	01:40:44	0	0	59d9d9cd8fd07a0001842484	1	1	DL_test	14	DL_test	19			0		ka	0	1166	6	6	antiphase_hc_ois.wav	3	6	6	noise_calib_stim_RIGHT.wav	2	31	blb_dichoticlistening_ta-ba.mp3	ta	ba	1	other
6.6.1	win	2023-06-02	01:40:44	0	0	59d9d9cd8fd07a0001842484	1	1	DL_test	14	DL_test	20			0		ta	0	1182	6	6	antiphase_hc_ois.wav	3	6	6	noise_calib_stim_RIGHT.wav	2	26	blb_dichoticlistening_pa-da.mp3	pa	da	1	other
6.6.1	win	2023-06-02	01:40:44	0	0	59d9d9cd8fd07a0001842484	1	1	DL_test	14	DL_test	21			0		ta	1	1126	6	6	antiphase_hc_ois.wav	3	6	6	noise_calib_stim_RIGHT.wav	2	36	blb_dichoticlistening_ta-ta.mp3	ta	ta	0	left
6.6.1	win	2023-06-02	01:40:44	0	0	59d9d9cd8fd07a0001842484	1	1	DL_test	14	DL_test	22			0		ba	0	2683	6	6	antiphase_hc_ois.wav	3	6	6	noise_calib_stim_RIGHT.wav	2	11	blb_dichoticlistening_da-pa.mp3	da	pa	1	other
6.6.1	win	2023-06-02	01:40:44	0	0	59d9d9cd8fd07a0001842484	1	1	DL_test	14	DL_test	23			0		ka	1	1455	6	6	antiphase_hc_ois.wav	3	6	6	noise_calib_stim_RIGHT.wav	2	23	blb_dichoticlistening_ka-pa.mp3	ka	pa	1	left
6.6.1	win	2023-06-02	01:40:44	0	0	59d9d9cd8fd07a0001842484	1	1	DL_test	14	DL_test	24			0		ka	1	745	6	6	antiphase_hc_ois.wav	3	6	6	noise_calib_stim_RIGHT.wav	2	22	blb_dichoticlistening_ka-ka.mp3	ka	ka	0	left
6.6.1	win	2023-06-02	01:40:44	0	0	59d9d9cd8fd07a0001842484	1	1	DL_test	14	DL_test	25			0		ka	1	1529	6	6	antiphase_hc_ois.wav	3	6	6	noise_calib_stim_RIGHT.wav	2	19	blb_dichoticlistening_ka-ba.mp3	ka	ba	1	left
6.6.1	win	2023-06-02	01:40:44	0	0	59d9d9cd8fd07a0001842484	1	1	DL_test	14	DL_test	26			0		da	1	2113	6	6	antiphase_hc_ois.wav	3	6	6	noise_calib_stim_RIGHT.wav	2	20	blb_dichoticlistening_ka-da.mp3	ka	da	1	right
6.6.1	win	2023-06-02	01:40:44	0	0	59d9d9cd8fd07a0001842484	1	1	DL_test	14	DL_test	27			0		ka	1	2082	6	6	antiphase_hc_ois.wav	3	6	6	noise_calib_stim_RIGHT.wav	2	16	blb_dichoticlistening_ga-ka.mp3	ga	ka	1	right
6.6.1	win	2023-06-02	01:40:44	0	0	59d9d9cd8fd07a0001842484	1	1	DL_test	14	DL_test	28			0		ga	1	1317	6	6	antiphase_hc_ois.wav	3	6	6	noise_calib_stim_RIGHT.wav	2	18	blb_dichoticlistening_ga-ta.mp3	ga	ta	1	left
6.6.1	win	2023-06-02	01:40:44	0	0	59d9d9cd8fd07a0001842484	1	1	DL_test	14	DL_test	29			0		da	0	1601	6	6	antiphase_hc_ois.wav	3	6	6	noise_calib_stim_RIGHT.wav	2	13	blb_dichoticlistening_ga-ba.mp3	ga	ba	1	other
6.6.1	win	2023-06-02	01:40:44	0	0	59d9d9cd8fd07a0001842484	1	1	DL_test	14	DL_test	30			0		ta	1	1543	6	6	antiphase_hc_ois.wav	3	6	6	noise_calib_stim_RIGHT.wav	2	12	blb_dichoticlistening_da-ta.mp3	da	ta	1	right
6.6.1	win	2023-06-02	01:40:44	0	0	59d9d9cd8fd07a0001842484	1	1	DL_test	14	DL_test	31			0		ka	1	1131	6	6	antiphase_hc_ois.wav	3	6	6	noise_calib_stim_RIGHT.wav	2	21	blb_dichoticlistening_ka-ga.mp3	ka	ga	1	left
6.6.1	win	2023-06-02	01:40:44	0	0	59d9d9cd8fd07a0001842484	1	1	DL_test	14	DL_test	32			0		ka	1	3504	6	6	antiphase_hc_ois.wav	3	6	6	noise_calib_stim_RIGHT.wav	2	34	blb_dichoticlistening_ta-ka.mp3	ta	ka	1	right
6.6.1	win	2023-06-02	01:40:44	0	0	59d9d9cd8fd07a0001842484	1	1	DL_test	14	DL_test	33			0		da	1	1097	6	6	antiphase_hc_ois.wav	3	6	6	noise_calib_stim_RIGHT.wav	2	32	blb_dichoticlistening_ta-da.mp3	ta	da	1	right
6.6.1	win	2023-06-02	01:40:44	0	0	59d9d9cd8fd07a0001842484	1	1	DL_test	14	DL_test	34			0		ga	1	966	6	6	antiphase_hc_ois.wav	3	6	6	noise_calib_stim_RIGHT.wav	2	14	blb_dichoticlistening_ga-da.mp3	ga	da	1	left
6.6.1	win	2023-06-02	01:40:44	0	0	59d9d9cd8fd07a0001842484	1	1	DL_test	14	DL_test	35			0		ka	1	1009	6	6	antiphase_hc_ois.wav	3	6	6	noise_calib_stim_RIGHT.wav	2	28	blb_dichoticlistening_pa-ka.mp3	pa	ka	1	right
6.6.1	win	2023-06-02	01:40:44	0	0	59d9d9cd8fd07a0001842484	1	1	DL_test	14	DL_test	36			0		da	1	1021	6	6	antiphase_hc_ois.wav	3	6	6	noise_calib_stim_RIGHT.wav	2	2	blb_dichoticlistening_ba-da.mp3	ba	da	1	right
6.6.1	win	2023-06-02	01:40:44	0	0	59d9d9cd8fd07a0001842484	1	1	DL_test	15	DL_test	1			0		ga	1	1213	6	6	antiphase_hc_ois.wav	3	6	6	noise_calib_stim_RIGHT.wav	2	9	blb_dichoticlistening_da-ga.mp3	da	ga	1	right
6.6.1	win	2023-06-02	01:40:44	0	0	59d9d9cd8fd07a0001842484	1	1	DL_test	15	DL_test	2			0		ta	1	983	6	6	antiphase_hc_ois.wav	3	6	6	noise_calib_stim_RIGHT.wav	2	31	blb_dichoticlistening_ta-ba.mp3	ta	ba	1	left
6.6.1	win	2023-06-02	01:40:44	0	0	59d9d9cd8fd07a0001842484	1	1	DL_test	15	DL_test	3			0		da	1	894	6	6	antiphase_hc_ois.wav	3	6	6	noise_calib_stim_RIGHT.wav	2	7	blb_dichoticlistening_da-ba.mp3	da	ba	1	left
6.6.1	win	2023-06-02	01:40:44	0	0	59d9d9cd8fd07a0001842484	1	1	DL_test	15	DL_test	4			0		ta	1	1638	6	6	antiphase_hc_ois.wav	3	6	6	noise_calib_stim_RIGHT.wav	2	35	blb_dichoticlistening_ta-pa.mp3	ta	pa	1	left
6.6.1	win	2023-06-02	01:40:44	0	0	59d9d9cd8fd07a0001842484	1	1	DL_test	15	DL_test	5			0		ba	0	1978	6	6	antiphase_hc_ois.wav	3	6	6	noise_calib_stim_RIGHT.wav	2	32	blb_dichoticlistening_ta-da.mp3	ta	da	1	other
6.6.1	win	2023-06-02	01:40:44	0	0	59d9d9cd8fd07a0001842484	1	1	DL_test	15	DL_test	6			0		ga	1	846	6	6	antiphase_hc_ois.wav	3	6	6	noise_calib_stim_RIGHT.wav	2	3	blb_dichoticlistening_ba-ga.mp3	ba	ga	1	right
6.6.1	win	2023-06-02	01:40:44	0	0	59d9d9cd8fd07a0001842484	1	1	DL_test	15	DL_test	7			0		ka	1	1024	6	6	antiphase_hc_ois.wav	3	6	6	noise_calib_stim_RIGHT.wav	2	34	blb_dichoticlistening_ta-ka.mp3	ta	ka	1	right
6.6.1	win	2023-06-02	01:40:44	0	0	59d9d9cd8fd07a0001842484	1	1	DL_test	15	DL_test	8			0		ba	1	2225	6	6	antiphase_hc_ois.wav	3	6	6	noise_calib_stim_RIGHT.wav	2	13	blb_dichoticlistening_ga-ba.mp3	ga	ba	1	right
6.6.1	win	2023-06-02	01:40:44	0	0	59d9d9cd8fd07a0001842484	1	1	DL_test	15	DL_test	9			0		pa	1	1418	6	6	antiphase_hc_ois.wav	3	6	6	noise_calib_stim_RIGHT.wav	2	17	blb_dichoticlistening_ga-pa.mp3	ga	pa	1	right
6.6.1	win	2023-06-02	01:40:44	0	0	59d9d9cd8fd07a0001842484	1	1	DL_test	15	DL_test	10			0		ka	1	1103	6	6	antiphase_hc_ois.wav	3	6	6	noise_calib_stim_RIGHT.wav	2	21	blb_dichoticlistening_ka-ga.mp3	ka	ga	1	left
6.6.1	win	2023-06-02	01:40:44	0	0	59d9d9cd8fd07a0001842484	1	1	DL_test	15	DL_test	11			0		pa	1	1326	6	6	antiphase_hc_ois.wav	3	6	6	noise_calib_stim_RIGHT.wav	2	5	blb_dichoticlistening_ba-pa.mp3	ba	pa	1	right
6.6.1	win	2023-06-02	01:40:44	0	0	59d9d9cd8fd07a0001842484	1	1	DL_test	15	DL_test	12			0		ka	0	1468	6	6	antiphase_hc_ois.wav	3	6	6	noise_calib_stim_RIGHT.wav	2	6	blb_dichoticlistening_ba-ta.mp3	ba	ta	1	other
6.6.1	win	2023-06-02	01:40:44	0	0	59d9d9cd8fd07a0001842484	1	1	DL_test	15	DL_test	13			0		ga	1	872	6	6	antiphase_hc_ois.wav	3	6	6	noise_calib_stim_RIGHT.wav	2	15	blb_dichoticlistening_ga-ga.mp3	ga	ga	0	left
6.6.1	win	2023-06-02	01:40:44	0	0	59d9d9cd8fd07a0001842484	1	1	DL_test	15	DL_test	14			0		pa	0	1370	6	6	antiphase_hc_ois.wav	3	6	6	noise_calib_stim_RIGHT.wav	2	10	blb_dichoticlistening_da-ka.mp3	da	ka	1	other
6.6.1	win	2023-06-02	01:40:44	0	0	59d9d9cd8fd07a0001842484	1	1	DL_test	15	DL_test	15			0		ta	1	1303	6	6	antiphase_hc_ois.wav	3	6	6	noise_calib_stim_RIGHT.wav	2	36	blb_dichoticlistening_ta-ta.mp3	ta	ta	0	left
6.6.1	win	2023-06-02	01:40:44	0	0	59d9d9cd8fd07a0001842484	1	1	DL_test	15	DL_test	16			0		ba	1	1409	6	6	antiphase_hc_ois.wav	3	6	6	noise_calib_stim_RIGHT.wav	2	25	blb_dichoticlistening_pa-ba.mp3	pa	ba	1	right
6.6.1	win	2023-06-02	01:40:44	0	0	59d9d9cd8fd07a0001842484	1	1	DL_test	15	DL_test	17			0		ka	1	1150	6	6	antiphase_hc_ois.wav	3	6	6	noise_calib_stim_RIGHT.wav	2	20	blb_dichoticlistening_ka-da.mp3	ka	da	1	left
6.6.1	win	2023-06-02	01:40:44	0	0	59d9d9cd8fd07a0001842484	1	1	DL_test	15	DL_test	18			0		ba	1	1278	6	6	antiphase_hc_ois.wav	3	6	6	noise_calib_stim_RIGHT.wav	2	1	blb_dichoticlistening_ba-ba.mp3	ba	ba	0	left
6.6.1	win	2023-06-02	01:40:44	0	0	59d9d9cd8fd07a0001842484	1	1	DL_test	15	DL_test	19			0		ka	1	1342	6	6	antiphase_hc_ois.wav	3	6	6	noise_calib_stim_RIGHT.wav	2	28	blb_dichoticlistening_pa-ka.mp3	pa	ka	1	right
6.6.1	win	2023-06-02	01:40:44	0	0	59d9d9cd8fd07a0001842484	1	1	DL_test	15	DL_test	20			0		ka	1	1051	6	6	antiphase_hc_ois.wav	3	6	6	noise_calib_stim_RIGHT.wav	2	23	blb_dichoticlistening_ka-pa.mp3	ka	pa	1	left
6.6.1	win	2023-06-02	01:40:44	0	0	59d9d9cd8fd07a0001842484	1	1	DL_test	15	DL_test	21			0		ta	1	1613	6	6	antiphase_hc_ois.wav	3	6	6	noise_calib_stim_RIGHT.wav	2	12	blb_dichoticlistening_da-ta.mp3	da	ta	1	right
6.6.1	win	2023-06-02	01:40:44	0	0	59d9d9cd8fd07a0001842484	1	1	DL_test	15	DL_test	22			0		da	1	1314	6	6	antiphase_hc_ois.wav	3	6	6	noise_calib_stim_RIGHT.wav	2	2	blb_dichoticlistening_ba-da.mp3	ba	da	1	right
6.6.1	win	2023-06-02	01:40:44	0	0	59d9d9cd8fd07a0001842484	1	1	DL_test	15	DL_test	23			0		ka	1	1045	6	6	antiphase_hc_ois.wav	3	6	6	noise_calib_stim_RIGHT.wav	2	16	blb_dichoticlistening_ga-ka.mp3	ga	ka	1	right
6.6.1	win	2023-06-02	01:40:44	0	0	59d9d9cd8fd07a0001842484	1	1	DL_test	15	DL_test	24			0		ka	1	984	6	6	antiphase_hc_ois.wav	3	6	6	noise_calib_stim_RIGHT.wav	2	4	blb_dichoticlistening_ba-ka.mp3	ba	ka	1	right
6.6.1	win	2023-06-02	01:40:44	0	0	59d9d9cd8fd07a0001842484	1	1	DL_test	15	DL_test	25			0		ga	1	989	6	6	antiphase_hc_ois.wav	3	6	6	noise_calib_stim_RIGHT.wav	2	33	blb_dichoticlistening_ta-ga.mp3	ta	ga	1	right
6.6.1	win	2023-06-02	01:40:44	0	0	59d9d9cd8fd07a0001842484	1	1	DL_test	15	DL_test	26			0		ta	0	1467	6	6	antiphase_hc_ois.wav	3	6	6	noise_calib_stim_RIGHT.wav	2	26	blb_dichoticlistening_pa-da.mp3	pa	da	1	other
6.6.1	win	2023-06-02	01:40:44	0	0	59d9d9cd8fd07a0001842484	1	1	DL_test	15	DL_test	27			0		ka	0	1602	6	6	antiphase_hc_ois.wav	3	6	6	noise_calib_stim_RIGHT.wav	2	18	blb_dichoticlistening_ga-ta.mp3	ga	ta	1	other
6.6.1	win	2023-06-02	01:40:44	0	0	59d9d9cd8fd07a0001842484	1	1	DL_test	15	DL_test	28			0		da	1	1013	6	6	antiphase_hc_ois.wav	3	6	6	noise_calib_stim_RIGHT.wav	2	8	blb_dichoticlistening_da-da.mp3	da	da	0	left
6.6.1	win	2023-06-02	01:40:44	0	0	59d9d9cd8fd07a0001842484	1	1	DL_test	15	DL_test	29			0		ga	1	889	6	6	antiphase_hc_ois.wav	3	6	6	noise_calib_stim_RIGHT.wav	2	14	blb_dichoticlistening_ga-da.mp3	ga	da	1	left
6.6.1	win	2023-06-02	01:40:44	0	0	59d9d9cd8fd07a0001842484	1	1	DL_test	15	DL_test	30			0		ka	1	2285	6	6	antiphase_hc_ois.wav	3	6	6	noise_calib_stim_RIGHT.wav	2	19	blb_dichoticlistening_ka-ba.mp3	ka	ba	1	left
6.6.1	win	2023-06-02	01:40:44	0	0	59d9d9cd8fd07a0001842484	1	1	DL_test	15	DL_test	31			0		pa	1	1183	6	6	antiphase_hc_ois.wav	3	6	6	noise_calib_stim_RIGHT.wav	2	29	blb_dichoticlistening_pa-pa.mp3	pa	pa	0	left
6.6.1	win	2023-06-02	01:40:44	0	0	59d9d9cd8fd07a0001842484	1	1	DL_test	15	DL_test	32			0		ka	1	1094	6	6	antiphase_hc_ois.wav	3	6	6	noise_calib_stim_RIGHT.wav	2	22	blb_dichoticlistening_ka-ka.mp3	ka	ka	0	left
6.6.1	win	2023-06-02	01:40:44	0	0	59d9d9cd8fd07a0001842484	1	1	DL_test	15	DL_test	33			0		ta	0	1532	6	6	antiphase_hc_ois.wav	3	6	6	noise_calib_stim_RIGHT.wav	2	11	blb_dichoticlistening_da-pa.mp3	da	pa	1	other
6.6.1	win	2023-06-02	01:40:44	0	0	59d9d9cd8fd07a0001842484	1	1	DL_test	15	DL_test	34			0		ta	1	1251	6	6	antiphase_hc_ois.wav	3	6	6	noise_calib_stim_RIGHT.wav	2	30	blb_dichoticlistening_pa-ta.mp3	pa	ta	1	right
6.6.1	win	2023-06-02	01:40:44	0	0	59d9d9cd8fd07a0001842484	1	1	DL_test	15	DL_test	35			0		ka	0	1213	6	6	antiphase_hc_ois.wav	3	6	6	noise_calib_stim_RIGHT.wav	2	27	blb_dichoticlistening_pa-ga.mp3	pa	ga	1	other
6.6.1	win	2023-06-02	01:40:44	0	0	59d9d9cd8fd07a0001842484	1	1	DL_test	15	DL_test	36			0		ka	1	787	6	6	antiphase_hc_ois.wav	3	6	6	noise_calib_stim_RIGHT.wav	2	24	blb_dichoticlistening_ka-ta.mp3	ka	ta	1	left
6.6.1	win	2023-06-02	01:40:44	0	0	59d9d9cd8fd07a0001842484	1	1	DL_test	16	DL_test	1			0		ka	1	1297	6	6	antiphase_hc_ois.wav	3	6	6	noise_calib_stim_RIGHT.wav	2	16	blb_dichoticlistening_ga-ka.mp3	ga	ka	1	right
6.6.1	win	2023-06-02	01:40:44	0	0	59d9d9cd8fd07a0001842484	1	1	DL_test	16	DL_test	2			0		ta	0	1360	6	6	antiphase_hc_ois.wav	3	6	6	noise_calib_stim_RIGHT.wav	2	26	blb_dichoticlistening_pa-da.mp3	pa	da	1	other
6.6.1	win	2023-06-02	01:40:44	0	0	59d9d9cd8fd07a0001842484	1	1	DL_test	16	DL_test	3			0		ta	1	1324	6	6	antiphase_hc_ois.wav	3	6	6	noise_calib_stim_RIGHT.wav	2	31	blb_dichoticlistening_ta-ba.mp3	ta	ba	1	left
6.6.1	win	2023-06-02	01:40:44	0	0	59d9d9cd8fd07a0001842484	1	1	DL_test	16	DL_test	4			0		ka	1	1314	6	6	antiphase_hc_ois.wav	3	6	6	noise_calib_stim_RIGHT.wav	2	20	blb_dichoticlistening_ka-da.mp3	ka	da	1	left
6.6.1	win	2023-06-02	01:40:44	0	0	59d9d9cd8fd07a0001842484	1	1	DL_test	16	DL_test	5			0		ta	1	1085	6	6	antiphase_hc_ois.wav	3	6	6	noise_calib_stim_RIGHT.wav	2	12	blb_dichoticlistening_da-ta.mp3	da	ta	1	right
6.6.1	win	2023-06-02	01:40:44	0	0	59d9d9cd8fd07a0001842484	1	1	DL_test	16	DL_test	6			0		ta	1	2466	6	6	antiphase_hc_ois.wav	3	6	6	noise_calib_stim_RIGHT.wav	2	30	blb_dichoticlistening_pa-ta.mp3	pa	ta	1	right
6.6.1	win	2023-06-02	01:40:44	0	0	59d9d9cd8fd07a0001842484	1	1	DL_test	16	DL_test	7			0		ka	1	1980	6	6	antiphase_hc_ois.wav	3	6	6	noise_calib_stim_RIGHT.wav	2	24	blb_dichoticlistening_ka-ta.mp3	ka	ta	1	left
6.6.1	win	2023-06-02	01:40:44	0	0	59d9d9cd8fd07a0001842484	1	1	DL_test	16	DL_test	8			0		ga	1	857	6	6	antiphase_hc_ois.wav	3	6	6	noise_calib_stim_RIGHT.wav	2	3	blb_dichoticlistening_ba-ga.mp3	ba	ga	1	right
6.6.1	win	2023-06-02	01:40:44	0	0	59d9d9cd8fd07a0001842484	1	1	DL_test	16	DL_test	9			0		ka	1	996	6	6	antiphase_hc_ois.wav	3	6	6	noise_calib_stim_RIGHT.wav	2	23	blb_dichoticlistening_ka-pa.mp3	ka	pa	1	left
6.6.1	win	2023-06-02	01:40:44	0	0	59d9d9cd8fd07a0001842484	1	1	DL_test	16	DL_test	10			0		pa	1	1822	6	6	antiphase_hc_ois.wav	3	6	6	noise_calib_stim_RIGHT.wav	2	5	blb_dichoticlistening_ba-pa.mp3	ba	pa	1	right
6.6.1	win	2023-06-02	01:40:44	0	0	59d9d9cd8fd07a0001842484	1	1	DL_test	16	DL_test	11			0		ta	1	1368	6	6	antiphase_hc_ois.wav	3	6	6	noise_calib_stim_RIGHT.wav	2	6	blb_dichoticlistening_ba-ta.mp3	ba	ta	1	right
6.6.1	win	2023-06-02	01:40:44	0	0	59d9d9cd8fd07a0001842484	1	1	DL_test	16	DL_test	12			0		ga	1	977	6	6	antiphase_hc_ois.wav	3	6	6	noise_calib_stim_RIGHT.wav	2	13	blb_dichoticlistening_ga-ba.mp3	ga	ba	1	left
6.6.1	win	2023-06-02	01:40:44	0	0	59d9d9cd8fd07a0001842484	1	1	DL_test	16	DL_test	13			0		pa	1	1003	6	6	antiphase_hc_ois.wav	3	6	6	noise_calib_stim_RIGHT.wav	2	25	blb_dichoticlistening_pa-ba.mp3	pa	ba	1	left
6.6.1	win	2023-06-02	01:40:44	0	0	59d9d9cd8fd07a0001842484	1	1	DL_test	16	DL_test	14			0		ga	1	1143	6	6	antiphase_hc_ois.wav	3	6	6	noise_calib_stim_RIGHT.wav	2	9	blb_dichoticlistening_da-ga.mp3	da	ga	1	right
6.6.1	win	2023-06-02	01:40:44	0	0	59d9d9cd8fd07a0001842484	1	1	DL_test	16	DL_test	15			0		ga	1	759	6	6	antiphase_hc_ois.wav	3	6	6	noise_calib_stim_RIGHT.wav	2	14	blb_dichoticlistening_ga-da.mp3	ga	da	1	left
6.6.1	win	2023-06-02	01:40:44	0	0	59d9d9cd8fd07a0001842484	1	1	DL_test	16	DL_test	16			0		ka	0	999	6	6	antiphase_hc_ois.wav	3	6	6	noise_calib_stim_RIGHT.wav	2	33	blb_dichoticlistening_ta-ga.mp3	ta	ga	1	other
6.6.1	win	2023-06-02	01:40:44	0	0	59d9d9cd8fd07a0001842484	1	1	DL_test	16	DL_test	17			0		ka	1	1325	6	6	antiphase_hc_ois.wav	3	6	6	noise_calib_stim_RIGHT.wav	2	28	blb_dichoticlistening_pa-ka.mp3	pa	ka	1	right
6.6.1	win	2023-06-02	01:40:44	0	0	59d9d9cd8fd07a0001842484	1	1	DL_test	16	DL_test	18			0		ba	1	1352	6	6	antiphase_hc_ois.wav	3	6	6	noise_calib_stim_RIGHT.wav	2	1	blb_dichoticlistening_ba-ba.mp3	ba	ba	0	left
6.6.1	win	2023-06-02	01:40:44	0	0	59d9d9cd8fd07a0001842484	1	1	DL_test	16	DL_test	19			0		ba	0	1060	6	6	antiphase_hc_ois.wav	3	6	6	noise_calib_stim_RIGHT.wav	2	10	blb_dichoticlistening_da-ka.mp3	da	ka	1	other
6.6.1	win	2023-06-02	01:40:44	0	0	59d9d9cd8fd07a0001842484	1	1	DL_test	16	DL_test	20			0		ta	0	1850	6	6	antiphase_hc_ois.wav	3	6	6	noise_calib_stim_RIGHT.wav	2	11	blb_dichoticlistening_da-pa.mp3	da	pa	1	other
6.6.1	win	2023-06-02	01:40:44	0	0	59d9d9cd8fd07a0001842484	1	1	DL_test	16	DL_test	21			0		ka	1	1218	6	6	antiphase_hc_ois.wav	3	6	6	noise_calib_stim_RIGHT.wav	2	34	blb_dichoticlistening_ta-ka.mp3	ta	ka	1	right
6.6.1	win	2023-06-02	01:40:44	0	0	59d9d9cd8fd07a0001842484	1	1	DL_test	16	DL_test	22			0		pa	1	1111	6	6	antiphase_hc_ois.wav	3	6	6	noise_calib_stim_RIGHT.wav	2	29	blb_dichoticlistening_pa-pa.mp3	pa	pa	0	left
6.6.1	win	2023-06-02	01:40:44	0	0	59d9d9cd8fd07a0001842484	1	1	DL_test	16	DL_test	23			0		ka	1	995	6	6	antiphase_hc_ois.wav	3	6	6	noise_calib_stim_RIGHT.wav	2	4	blb_dichoticlistening_ba-ka.mp3	ba	ka	1	right
6.6.1	win	2023-06-02	01:40:44	0	0	59d9d9cd8fd07a0001842484	1	1	DL_test	16	DL_test	24			0		da	1	1098	6	6	antiphase_hc_ois.wav	3	6	6	noise_calib_stim_RIGHT.wav	2	2	blb_dichoticlistening_ba-da.mp3	ba	da	1	right
6.6.1	win	2023-06-02	01:40:44	0	0	59d9d9cd8fd07a0001842484	1	1	DL_test	16	DL_test	25			0		ta	1	1295	6	6	antiphase_hc_ois.wav	3	6	6	noise_calib_stim_RIGHT.wav	2	36	blb_dichoticlistening_ta-ta.mp3	ta	ta	0	left
6.6.1	win	2023-06-02	01:40:44	0	0	59d9d9cd8fd07a0001842484	1	1	DL_test	16	DL_test	26			0		ka	1	1020	6	6	antiphase_hc_ois.wav	3	6	6	noise_calib_stim_RIGHT.wav	2	19	blb_dichoticlistening_ka-ba.mp3	ka	ba	1	left
6.6.1	win	2023-06-02	01:40:44	0	0	59d9d9cd8fd07a0001842484	1	1	DL_test	16	DL_test	27			0		ka	1	693	6	6	antiphase_hc_ois.wav	3	6	6	noise_calib_stim_RIGHT.wav	2	22	blb_dichoticlistening_ka-ka.mp3	ka	ka	0	left
6.6.1	win	2023-06-02	01:40:44	0	0	59d9d9cd8fd07a0001842484	1	1	DL_test	16	DL_test	28			0		ga	1	804	6	6	antiphase_hc_ois.wav	3	6	6	noise_calib_stim_RIGHT.wav	2	17	blb_dichoticlistening_ga-pa.mp3	ga	pa	1	left
6.6.1	win	2023-06-02	01:40:44	0	0	59d9d9cd8fd07a0001842484	1	1	DL_test	16	DL_test	29			0		ka	1	1125	6	6	antiphase_hc_ois.wav	3	6	6	noise_calib_stim_RIGHT.wav	2	21	blb_dichoticlistening_ka-ga.mp3	ka	ga	1	left
6.6.1	win	2023-06-02	01:40:44	0	0	59d9d9cd8fd07a0001842484	1	1	DL_test	16	DL_test	30			0		pa	1	1474	6	6	antiphase_hc_ois.wav	3	6	6	noise_calib_stim_RIGHT.wav	2	27	blb_dichoticlistening_pa-ga.mp3	pa	ga	1	left
6.6.1	win	2023-06-02	01:40:44	0	0	59d9d9cd8fd07a0001842484	1	1	DL_test	16	DL_test	31			0		ga	1	729	6	6	antiphase_hc_ois.wav	3	6	6	noise_calib_stim_RIGHT.wav	2	15	blb_dichoticlistening_ga-ga.mp3	ga	ga	0	left
6.6.1	win	2023-06-02	01:40:44	0	0	59d9d9cd8fd07a0001842484	1	1	DL_test	16	DL_test	32			0		ka	0	1046	6	6	antiphase_hc_ois.wav	3	6	6	noise_calib_stim_RIGHT.wav	2	18	blb_dichoticlistening_ga-ta.mp3	ga	ta	1	other
6.6.1	win	2023-06-02	01:40:44	0	0	59d9d9cd8fd07a0001842484	1	1	DL_test	16	DL_test	33			0		da	1	1026	6	6	antiphase_hc_ois.wav	3	6	6	noise_calib_stim_RIGHT.wav	2	8	blb_dichoticlistening_da-da.mp3	da	da	0	left
6.6.1	win	2023-06-02	01:40:44	0	0	59d9d9cd8fd07a0001842484	1	1	DL_test	16	DL_test	34			0		ta	1	1354	6	6	antiphase_hc_ois.wav	3	6	6	noise_calib_stim_RIGHT.wav	2	35	blb_dichoticlistening_ta-pa.mp3	ta	pa	1	left
6.6.1	win	2023-06-02	01:40:44	0	0	59d9d9cd8fd07a0001842484	1	1	DL_test	16	DL_test	35			0		ka	0	1148	6	6	antiphase_hc_ois.wav	3	6	6	noise_calib_stim_RIGHT.wav	2	32	blb_dichoticlistening_ta-da.mp3	ta	da	1	other
6.6.1	win	2023-06-02	01:40:44	0	0	59d9d9cd8fd07a0001842484	1	1	DL_test	16	DL_test	36			0		ga	0	1031	6	6	antiphase_hc_ois.wav	3	6	6	noise_calib_stim_RIGHT.wav	2	7	blb_dichoticlistening_da-ba.mp3	da	ba	1	other
6.6.1	win	2023-06-02	01:40:44	01:53:13	746274	59d9d9cd8fd07a0001842484	1	1	practice_slash	22	practice_slash	1	stimuli_distractor_trianglediamonds.svg	stimuli_distractor_trianglediamonds.svg	15	no	53	0	784	6	6	antiphase_hc_ois.wav	3	6	6	noise_calib_stim_RIGHT.wav	2	7	blb_dichoticlistening_da-ba.mp3	da	ba	1	other
6.6.1	win	2023-06-02	01:40:44	01:53:13	746274	59d9d9cd8fd07a0001842484	1	1	practice_slash	22	advance_on_keypress_SLASH	2	stimuli_distractor_trianglediamonds.svg	stimuli_distractor_trianglediamonds.svg	15	no	57	0	1940	6	6	antiphase_hc_ois.wav	3	6	6	noise_calib_stim_RIGHT.wav	2	7	blb_dichoticlistening_da-ba.mp3	da	ba	1	other
6.6.1	win	2023-06-02	01:40:44	01:53:18	750635	59d9d9cd8fd07a0001842484	1	1	practice_slash	22	practice_slash	3	stimuli_distractor_diamondtriangles.svg	stimuli_target_diamondrectangles.svg	8	yes	53	1	796	6	6	antiphase_hc_ois.wav	3	6	6	noise_calib_stim_RIGHT.wav	2	7	blb_dichoticlistening_da-ba.mp3	da	ba	1	other
6.6.1	win	2023-06-02	01:40:44	01:53:18	750635	59d9d9cd8fd07a0001842484	1	1	practice_slash	22	advance_on_keypress_SLASH	4	stimuli_distractor_diamondtriangles.svg	stimuli_target_diamondrectangles.svg	8	yes	57	0	939	6	6	antiphase_hc_ois.wav	3	6	6	noise_calib_stim_RIGHT.wav	2	7	blb_dichoticlistening_da-ba.mp3	da	ba	1	other
6.6.1	win	2023-06-02	01:40:44	01:53:21	753767	59d9d9cd8fd07a0001842484	1	1	practice_slash	22	practice_slash	5	stimuli_distractor_trianglediamonds.svg	stimuli_target_diamondrectangles.svg	12	yes	53	1	567	6	6	antiphase_hc_ois.wav	3	6	6	noise_calib_stim_RIGHT.wav	2	7	blb_dichoticlistening_da-ba.mp3	da	ba	1	other
6.6.1	win	2023-06-02	01:40:44	01:53:21	753767	59d9d9cd8fd07a0001842484	1	1	practice_slash	22	advance_on_keypress_SLASH	6	stimuli_distractor_trianglediamonds.svg	stimuli_target_diamondrectangles.svg	12	yes	57	0	1683	6	6	antiphase_hc_ois.wav	3	6	6	noise_calib_stim_RIGHT.wav	2	7	blb_dichoticlistening_da-ba.mp3	da	ba	1	other
6.6.1	win	2023-06-02	01:40:44	01:53:25	757861	59d9d9cd8fd07a0001842484	1	1	practice_slash	22	practice_slash	7	stimuli_distractor_trianglediamonds.svg	stimuli_target_rectanglediamonds.svg	10	yes	53	1	788	6	6	antiphase_hc_ois.wav	3	6	6	noise_calib_stim_RIGHT.wav	2	7	blb_dichoticlistening_da-ba.mp3	da	ba	1	other
6.6.1	win	2023-06-02	01:40:44	01:53:25	757861	59d9d9cd8fd07a0001842484	1	1	practice_slash	22	advance_on_keypress_SLASH	8	stimuli_distractor_trianglediamonds.svg	stimuli_target_rectanglediamonds.svg	10	yes	57	0	493	6	6	antiphase_hc_ois.wav	3	6	6	noise_calib_stim_RIGHT.wav	2	7	blb_dichoticlistening_da-ba.mp3	da	ba	1	other
6.6.1	win	2023-06-02	01:40:44	01:53:29	761980	59d9d9cd8fd07a0001842484	1	1	practice_slash	22	practice_slash	9	stimuli_distractor_diamondtriangles.svg	stimuli_distractor_trianglediamonds.svg	14	no	0	1	2003	6	6	antiphase_hc_ois.wav	3	6	6	noise_calib_stim_RIGHT.wav	2	7	blb_dichoticlistening_da-ba.mp3	da	ba	1	other
6.6.1	win	2023-06-02	01:40:44	01:53:29	761980	59d9d9cd8fd07a0001842484	1	1	practice_slash	22	advance_on_keypress_SLASH	10	stimuli_distractor_diamondtriangles.svg	stimuli_distractor_trianglediamonds.svg	14	no	57	0	519	6	6	antiphase_hc_ois.wav	3	6	6	noise_calib_stim_RIGHT.wav	2	7	blb_dichoticlistening_da-ba.mp3	da	ba	1	other
6.6.1	win	2023-06-02	01:40:44	01:53:32	764717	59d9d9cd8fd07a0001842484	1	1	practice_slash	22	practice_slash	11	stimuli_distractor_diamondtriangles.svg	stimuli_target_trianglerectangles.svg	9	yes	53	1	591	6	6	antiphase_hc_ois.wav	3	6	6	noise_calib_stim_RIGHT.wav	2	7	blb_dichoticlistening_da-ba.mp3	da	ba	1	other
6.6.1	win	2023-06-02	01:40:44	01:53:32	764717	59d9d9cd8fd07a0001842484	1	1	practice_slash	22	advance_on_keypress_SLASH	12	stimuli_distractor_diamondtriangles.svg	stimuli_target_trianglerectangles.svg	9	yes	57	0	771	6	6	antiphase_hc_ois.wav	3	6	6	noise_calib_stim_RIGHT.wav	2	7	blb_dichoticlistening_da-ba.mp3	da	ba	1	other
6.6.1	win	2023-06-02	01:40:44	01:53:35	768020	59d9d9cd8fd07a0001842484	1	1	practice_slash	22	practice_slash	13	stimuli_distractor_diamondtriangles.svg	stimuli_distractor_diamondtriangles.svg	13	no	53	0	913	6	6	antiphase_hc_ois.wav	3	6	6	noise_calib_stim_RIGHT.wav	2	7	blb_dichoticlistening_da-ba.mp3	da	ba	1	other
6.6.1	win	2023-06-02	01:40:44	01:53:35	768020	59d9d9cd8fd07a0001842484	1	1	practice_slash	22	advance_on_keypress_SLASH	14	stimuli_distractor_diamondtriangles.svg	stimuli_distractor_diamondtriangles.svg	13	no	57	0	1340	6	6	antiphase_hc_ois.wav	3	6	6	noise_calib_stim_RIGHT.wav	2	7	blb_dichoticlistening_da-ba.mp3	da	ba	1	other
6.6.1	win	2023-06-02	01:40:44	01:53:39	771999	59d9d9cd8fd07a0001842484	1	1	practice_slash	22	practice_slash	15	stimuli_target_rectanglediamonds.svg	stimuli_distractor_diamondtriangles.svg	1	yes	53	1	1021	6	6	antiphase_hc_ois.wav	3	6	6	noise_calib_stim_RIGHT.wav	2	7	blb_dichoticlistening_da-ba.mp3	da	ba	1	other
6.6.1	win	2023-06-02	01:40:44	01:53:39	771999	59d9d9cd8fd07a0001842484	1	1	practice_slash	22	advance_on_keypress_SLASH	16	stimuli_target_rectanglediamonds.svg	stimuli_distractor_diamondtriangles.svg	1	yes	57	0	497	6	6	antiphase_hc_ois.wav	3	6	6	noise_calib_stim_RIGHT.wav	2	7	blb_dichoticlistening_da-ba.mp3	da	ba	1	other
6.6.1	win	2023-06-02	01:40:44	01:53:42	775141	59d9d9cd8fd07a0001842484	1	1	practice_slash	22	practice_slash	17	stimuli_target_rectanglediamonds.svg	stimuli_distractor_trianglediamonds.svg	4	yes	53	1	1026	6	6	antiphase_hc_ois.wav	3	6	6	noise_calib_stim_RIGHT.wav	2	7	blb_dichoticlistening_da-ba.mp3	da	ba	1	other
6.6.1	win	2023-06-02	01:40:44	01:53:42	775141	59d9d9cd8fd07a0001842484	1	1	practice_slash	22	advance_on_keypress_SLASH	18	stimuli_target_rectanglediamonds.svg	stimuli_distractor_trianglediamonds.svg	4	yes	57	0	503	6	6	antiphase_hc_ois.wav	3	6	6	noise_calib_stim_RIGHT.wav	2	7	blb_dichoticlistening_da-ba.mp3	da	ba	1	other
6.6.1	win	2023-06-02	01:40:44	01:53:45	778346	59d9d9cd8fd07a0001842484	1	1	practice_slash	22	practice_slash	19	stimuli_distractor_trianglediamonds.svg	stimuli_target_squarediamonds.svg	11	yes	53	1	1076	6	6	antiphase_hc_ois.wav	3	6	6	noise_calib_stim_RIGHT.wav	2	7	blb_dichoticlistening_da-ba.mp3	da	ba	1	other
6.6.1	win	2023-06-02	01:40:44	01:53:45	778346	59d9d9cd8fd07a0001842484	1	1	practice_slash	22	advance_on_keypress_SLASH	20	stimuli_distractor_trianglediamonds.svg	stimuli_target_squarediamonds.svg	11	yes	57	0	869	6	6	antiphase_hc_ois.wav	3	6	6	noise_calib_stim_RIGHT.wav	2	7	blb_dichoticlistening_da-ba.mp3	da	ba	1	other
6.6.1	win	2023-06-02	01:40:44	01:53:49	781856	59d9d9cd8fd07a0001842484	1	1	practice_slash	22	practice_slash	21	stimuli_target_diamondsquares.svg	stimuli_distractor_diamondtriangles.svg	3	yes	53	1	1019	6	6	antiphase_hc_ois.wav	3	6	6	noise_calib_stim_RIGHT.wav	2	7	blb_dichoticlistening_da-ba.mp3	da	ba	1	other
6.6.1	win	2023-06-02	01:40:44	01:53:49	781856	59d9d9cd8fd07a0001842484	1	1	practice_slash	22	advance_on_keypress_SLASH	22	stimuli_target_diamondsquares.svg	stimuli_distractor_diamondtriangles.svg	3	yes	57	0	715	6	6	antiphase_hc_ois.wav	3	6	6	noise_calib_stim_RIGHT.wav	2	7	blb_dichoticlistening_da-ba.mp3	da	ba	1	other
6.6.1	win	2023-06-02	01:40:44	01:53:52	785001	59d9d9cd8fd07a0001842484	1	1	practice_slash	22	practice_slash	23	stimuli_distractor_diamondtriangles.svg	stimuli_target_rectangletriangles.svg	7	yes	53	1	802	6	6	antiphase_hc_ois.wav	3	6	6	noise_calib_stim_RIGHT.wav	2	7	blb_dichoticlistening_da-ba.mp3	da	ba	1	other
6.6.1	win	2023-06-02	01:40:44	01:53:52	785001	59d9d9cd8fd07a0001842484	1	1	practice_slash	22	advance_on_keypress_SLASH	24	stimuli_distractor_diamondtriangles.svg	stimuli_target_rectangletriangles.svg	7	yes	57	0	606	6	6	antiphase_hc_ois.wav	3	6	6	noise_calib_stim_RIGHT.wav	2	7	blb_dichoticlistening_da-ba.mp3	da	ba	1	other
6.6.1	win	2023-06-02	01:40:44	01:53:55	788055	59d9d9cd8fd07a0001842484	1	1	practice_slash	22	practice_slash	25	stimuli_target_squarediamonds.svg	stimuli_distractor_trianglediamonds.svg	5	yes	53	1	823	6	6	antiphase_hc_ois.wav	3	6	6	noise_calib_stim_RIGHT.wav	2	7	blb_dichoticlistening_da-ba.mp3	da	ba	1	other
6.6.1	win	2023-06-02	01:40:44	01:53:55	788055	59d9d9cd8fd07a0001842484	1	1	practice_slash	22	advance_on_keypress_SLASH	26	stimuli_target_squarediamonds.svg	stimuli_distractor_trianglediamonds.svg	5	yes	57	0	1201	6	6	antiphase_hc_ois.wav	3	6	6	noise_calib_stim_RIGHT.wav	2	7	blb_dichoticlistening_da-ba.mp3	da	ba	1	other
6.6.1	win	2023-06-02	01:40:44	01:53:59	791797	59d9d9cd8fd07a0001842484	1	1	practice_slash	22	practice_slash	27	stimuli_target_diamondsquares.svg	stimuli_distractor_trianglediamonds.svg	6	yes	53	1	924	6	6	antiphase_hc_ois.wav	3	6	6	noise_calib_stim_RIGHT.wav	2	7	blb_dichoticlistening_da-ba.mp3	da	ba	1	other
6.6.1	win	2023-06-02	01:40:44	01:53:59	791797	59d9d9cd8fd07a0001842484	1	1	practice_slash	22	advance_on_keypress_SLASH	28	stimuli_target_diamondsquares.svg	stimuli_distractor_trianglediamonds.svg	6	yes	57	0	774	6	6	antiphase_hc_ois.wav	3	6	6	noise_calib_stim_RIGHT.wav	2	7	blb_dichoticlistening_da-ba.mp3	da	ba	1	other
6.6.1	win	2023-06-02	01:40:44	01:54:03	796187	59d9d9cd8fd07a0001842484	1	1	practice_slash	22	practice_slash	29	stimuli_distractor_trianglediamonds.svg	stimuli_distractor_diamondtriangles.svg	16	no	0	1	2003	6	6	antiphase_hc_ois.wav	3	6	6	noise_calib_stim_RIGHT.wav	2	7	blb_dichoticlistening_da-ba.mp3	da	ba	1	other
6.6.1	win	2023-06-02	01:40:44	01:54:03	796187	59d9d9cd8fd07a0001842484	1	1	practice_slash	22	advance_on_keypress_SLASH	30	stimuli_distractor_trianglediamonds.svg	stimuli_distractor_diamondtriangles.svg	16	no	57	0	345	6	6	antiphase_hc_ois.wav	3	6	6	noise_calib_stim_RIGHT.wav	2	7	blb_dichoticlistening_da-ba.mp3	da	ba	1	other
6.6.1	win	2023-06-02	01:40:44	01:54:06	798875	59d9d9cd8fd07a0001842484	1	1	practice_slash	22	practice_slash	31	stimuli_target_squarediamonds.svg	stimuli_distractor_diamondtriangles.svg	2	yes	53	1	726	6	6	antiphase_hc_ois.wav	3	6	6	noise_calib_stim_RIGHT.wav	2	7	blb_dichoticlistening_da-ba.mp3	da	ba	1	other
6.6.1	win	2023-06-02	01:40:44	01:54:06	798875	59d9d9cd8fd07a0001842484	1	1	practice_slash	22	advance_on_keypress_SLASH	32	stimuli_target_squarediamonds.svg	stimuli_distractor_diamondtriangles.svg	2	yes	57	0	422	6	6	antiphase_hc_ois.wav	3	6	6	noise_calib_stim_RIGHT.wav	2	7	blb_dichoticlistening_da-ba.mp3	da	ba	1	other
6.6.1	win	2023-06-02	01:40:44	01:54:13	806210	59d9d9cd8fd07a0001842484	1	1	main_slash	24	main_slash	1	stimuli_target_rectangletriangles.svg	stimuli_distractor_trianglediamonds.svg	1	yes	53	1	590	6	6	antiphase_hc_ois.wav	3	6	6	noise_calib_stim_RIGHT.wav	2	7	blb_dichoticlistening_da-ba.mp3	da	ba	1	other
6.6.1	win	2023-06-02	01:40:44	01:54:13	806210	59d9d9cd8fd07a0001842484	1	1	main_slash	24	advance_on_keypress_SLASH	2	stimuli_target_rectangletriangles.svg	stimuli_distractor_trianglediamonds.svg	1	yes	57	0	1893	6	6	antiphase_hc_ois.wav	3	6	6	noise_calib_stim_RIGHT.wav	2	7	blb_dichoticlistening_da-ba.mp3	da	ba	1	other
6.6.1	win	2023-06-02	01:40:44	01:54:18	810722	59d9d9cd8fd07a0001842484	1	1	main_slash	24	main_slash	3	stimuli_distractor_trianglediamonds.svg	stimuli_distractor_diamondtriangles.svg	36	no	0	1	2003	6	6	antiphase_hc_ois.wav	3	6	6	noise_calib_stim_RIGHT.wav	2	7	blb_dichoticlistening_da-ba.mp3	da	ba	1	other
6.6.1	win	2023-06-02	01:40:44	01:54:18	810722	59d9d9cd8fd07a0001842484	1	1	main_slash	24	advance_on_keypress_SLASH	4	stimuli_distractor_trianglediamonds.svg	stimuli_distractor_diamondtriangles.svg	36	no	57	0	846	6	6	antiphase_hc_ois.wav	3	6	6	noise_calib_stim_RIGHT.wav	2	7	blb_dichoticlistening_da-ba.mp3	da	ba	1	other
6.6.1	win	2023-06-02	01:40:44	01:54:20	812938	59d9d9cd8fd07a0001842484	1	1	main_slash	24	main_slash	5	stimuli_distractor_diamondtriangles.svg	stimuli_target_rectangletriangles.svg	13	yes	53	1	755	6	6	antiphase_hc_ois.wav	3	6	6	noise_calib_stim_RIGHT.wav	2	7	blb_dichoticlistening_da-ba.mp3	da	ba	1	other
6.6.1	win	2023-06-02	01:40:44	01:54:20	812938	59d9d9cd8fd07a0001842484	1	1	main_slash	24	advance_on_keypress_SLASH	6	stimuli_distractor_diamondtriangles.svg	stimuli_target_rectangletriangles.svg	13	yes	57	0	588	6	6	antiphase_hc_ois.wav	3	6	6	noise_calib_stim_RIGHT.wav	2	7	blb_dichoticlistening_da-ba.mp3	da	ba	1	other
6.6.1	win	2023-06-02	01:40:44	01:54:22	814978	59d9d9cd8fd07a0001842484	1	1	main_slash	24	main_slash	7	stimuli_distractor_diamondtriangles.svg	stimuli_distractor_diamondtriangles.svg	40	no	53	0	830	6	6	antiphase_hc_ois.wav	3	6	6	noise_calib_stim_RIGHT.wav	2	7	blb_dichoticlistening_da-ba.mp3	da	ba	1	other
6.6.1	win	2023-06-02	01:40:44	01:54:22	814978	59d9d9cd8fd07a0001842484	1	1	main_slash	24	advance_on_keypress_SLASH	8	stimuli_distractor_diamondtriangles.svg	stimuli_distractor_diamondtriangles.svg	40	no	57	0	545	6	6	antiphase_hc_ois.wav	3	6	6	noise_calib_stim_RIGHT.wav	2	7	blb_dichoticlistening_da-ba.mp3	da	ba	1	other
6.6.1	win	2023-06-02	01:40:44	01:54:24	816965	59d9d9cd8fd07a0001842484	1	1	main_slash	24	main_slash	9	stimuli_distractor_trianglediamonds.svg	stimuli_target_trianglerectangles.svg	25	yes	53	1	831	6	6	antiphase_hc_ois.wav	3	6	6	noise_calib_stim_RIGHT.wav	2	7	blb_dichoticlistening_da-ba.mp3	da	ba	1	other
6.6.1	win	2023-06-02	01:40:44	01:54:24	816965	59d9d9cd8fd07a0001842484	1	1	main_slash	24	advance_on_keypress_SLASH	10	stimuli_distractor_trianglediamonds.svg	stimuli_target_trianglerectangles.svg	25	yes	57	0	1031	6	6	antiphase_hc_ois.wav	3	6	6	noise_calib_stim_RIGHT.wav	2	7	blb_dichoticlistening_da-ba.mp3	da	ba	1	other
6.6.1	win	2023-06-02	01:40:44	01:54:27	819483	59d9d9cd8fd07a0001842484	1	1	main_slash	24	main_slash	11	stimuli_distractor_trianglediamonds.svg	stimuli_target_diamondsquares.svg	28	yes	53	1	868	6	6	antiphase_hc_ois.wav	3	6	6	noise_calib_stim_RIGHT.wav	2	7	blb_dichoticlistening_da-ba.mp3	da	ba	1	other
6.6.1	win	2023-06-02	01:40:44	01:54:27	819483	59d9d9cd8fd07a0001842484	1	1	main_slash	24	advance_on_keypress_SLASH	12	stimuli_distractor_trianglediamonds.svg	stimuli_target_diamondsquares.svg	28	yes	57	0	689	6	6	antiphase_hc_ois.wav	3	6	6	noise_calib_stim_RIGHT.wav	2	7	blb_dichoticlistening_da-ba.mp3	da	ba	1	other
6.6.1	win	2023-06-02	01:40:44	01:54:29	821519	59d9d9cd8fd07a0001842484	1	1	main_slash	24	main_slash	13	stimuli_distractor_diamondtriangles.svg	stimuli_target_trianglerectangles.svg	29	yes	53	1	731	6	6	antiphase_hc_ois.wav	3	6	6	noise_calib_stim_RIGHT.wav	2	7	blb_dichoticlistening_da-ba.mp3	da	ba	1	other
6.6.1	win	2023-06-02	01:40:44	01:54:29	821519	59d9d9cd8fd07a0001842484	1	1	main_slash	24	advance_on_keypress_SLASH	14	stimuli_distractor_diamondtriangles.svg	stimuli_target_trianglerectangles.svg	29	yes	57	0	1179	6	6	antiphase_hc_ois.wav	3	6	6	noise_calib_stim_RIGHT.wav	2	7	blb_dichoticlistening_da-ba.mp3	da	ba	1	other
6.6.1	win	2023-06-02	01:40:44	01:54:32	825325	59d9d9cd8fd07a0001842484	1	1	main_slash	24	main_slash	15	stimuli_target_trianglerectangles.svg	stimuli_distractor_diamondtriangles.svg	21	yes	0	0	2003	6	6	antiphase_hc_ois.wav	3	6	6	noise_calib_stim_RIGHT.wav	2	7	blb_dichoticlistening_da-ba.mp3	da	ba	1	other
6.6.1	win	2023-06-02	01:40:44	01:54:32	825325	59d9d9cd8fd07a0001842484	1	1	main_slash	24	advance_on_keypress_SLASH	16	stimuli_target_trianglerectangles.svg	stimuli_distractor_diamondtriangles.svg	21	yes	57	0	345	6	6	antiphase_hc_ois.wav	3	6	6	noise_calib_stim_RIGHT.wav	2	7	blb_dichoticlistening_da-ba.mp3	da	ba	1	other
6.6.1	win	2023-06-02	01:40:44	01:54:34	827153	59d9d9cd8fd07a0001842484	1	1	main_slash	24	main_slash	17	stimuli_distractor_diamondtriangles.svg	stimuli_target_diamondrectangles.svg	31	yes	53	1	866	6	6	antiphase_hc_ois.wav	3	6	6	noise_calib_stim_RIGHT.wav	2	7	blb_dichoticlistening_da-ba.mp3	da	ba	1	other
6.6.1	win	2023-06-02	01:40:44	01:54:34	827153	59d9d9cd8fd07a0001842484	1	1	main_slash	24	advance_on_keypress_SLASH	18	stimuli_distractor_diamondtriangles.svg	stimuli_target_diamondrectangles.svg	31	yes	57	0	647	6	6	antiphase_hc_ois.wav	3	6	6	noise_calib_stim_RIGHT.wav	2	7	blb_dichoticlistening_da-ba.mp3	da	ba	1	other
6.6.1	win	2023-06-02	01:40:44	01:54:38	830422	59d9d9cd8fd07a0001842484	1	1	main_slash	24	main_slash	19	stimuli_distractor_diamondtriangles.svg	stimuli_distractor_trianglediamonds.svg	38	no	0	1	2003	6	6	antiphase_hc_ois.wav	3	6	6	noise_calib_stim_RIGHT.wav	2	7	blb_dichoticlistening_da-ba.mp3	da	ba	1	other
6.6.1	win	2023-06-02	01:40:44	01:54:38	830422	59d9d9cd8fd07a0001842484	1	1	main_slash	24	advance_on_keypress_SLASH	20	stimuli_distractor_diamondtriangles.svg	stimuli_distractor_trianglediamonds.svg	38	no	57	0	480	6	6	antiphase_hc_ois.wav	3	6	6	noise_calib_stim_RIGHT.wav	2	7	blb_dichoticlistening_da-ba.mp3	da	ba	1	other
6.6.1	win	2023-06-02	01:40:44	01:54:39	832109	59d9d9cd8fd07a0001842484	1	1	main_slash	24	main_slash	21	stimuli_target_rectanglediamonds.svg	stimuli_distractor_trianglediamonds.svg	2	yes	53	1	593	6	6	antiphase_hc_ois.wav	3	6	6	noise_calib_stim_RIGHT.wav	2	7	blb_dichoticlistening_da-ba.mp3	da	ba	1	other
6.6.1	win	2023-06-02	01:40:44	01:54:39	832109	59d9d9cd8fd07a0001842484	1	1	main_slash	24	advance_on_keypress_SLASH	22	stimuli_target_rectanglediamonds.svg	stimuli_distractor_trianglediamonds.svg	2	yes	57	0	696	6	6	antiphase_hc_ois.wav	3	6	6	noise_calib_stim_RIGHT.wav	2	7	blb_dichoticlistening_da-ba.mp3	da	ba	1	other
6.6.1	win	2023-06-02	01:40:44	01:54:42	834429	59d9d9cd8fd07a0001842484	1	1	main_slash	24	main_slash	23	stimuli_distractor_diamondtriangles.svg	stimuli_distractor_trianglediamonds.svg	37	no	53	0	1011	6	6	antiphase_hc_ois.wav	3	6	6	noise_calib_stim_RIGHT.wav	2	7	blb_dichoticlistening_da-ba.mp3	da	ba	1	other
6.6.1	win	2023-06-02	01:40:44	01:54:42	834429	59d9d9cd8fd07a0001842484	1	1	main_slash	24	advance_on_keypress_SLASH	24	stimuli_distractor_diamondtriangles.svg	stimuli_distractor_trianglediamonds.svg	37	no	57	0	613	6	6	antiphase_hc_ois.wav	3	6	6	noise_calib_stim_RIGHT.wav	2	7	blb_dichoticlistening_da-ba.mp3	da	ba	1	other
6.6.1	win	2023-06-02	01:40:44	01:54:44	836506	59d9d9cd8fd07a0001842484	1	1	main_slash	24	main_slash	25	stimuli_distractor_trianglediamonds.svg	stimuli_target_squaretriangles.svg	11	yes	53	1	849	6	6	antiphase_hc_ois.wav	3	6	6	noise_calib_stim_RIGHT.wav	2	7	blb_dichoticlistening_da-ba.mp3	da	ba	1	other
6.6.1	win	2023-06-02	01:40:44	01:54:44	836506	59d9d9cd8fd07a0001842484	1	1	main_slash	24	advance_on_keypress_SLASH	26	stimuli_distractor_trianglediamonds.svg	stimuli_target_squaretriangles.svg	11	yes	57	0	1499	6	6	antiphase_hc_ois.wav	3	6	6	noise_calib_stim_RIGHT.wav	2	7	blb_dichoticlistening_da-ba.mp3	da	ba	1	other
6.6.1	win	2023-06-02	01:40:44	01:54:48	840623	59d9d9cd8fd07a0001842484	1	1	main_slash	24	main_slash	27	stimuli_distractor_diamondtriangles.svg	stimuli_distractor_diamondtriangles.svg	39	no	0	1	2003	6	6	antiphase_hc_ois.wav	3	6	6	noise_calib_stim_RIGHT.wav	2	7	blb_dichoticlistening_da-ba.mp3	da	ba	1	other
6.6.1	win	2023-06-02	01:40:44	01:54:48	840623	59d9d9cd8fd07a0001842484	1	1	main_slash	24	advance_on_keypress_SLASH	28	stimuli_distractor_diamondtriangles.svg	stimuli_distractor_diamondtriangles.svg	39	no	57	0	349	6	6	antiphase_hc_ois.wav	3	6	6	noise_calib_stim_RIGHT.wav	2	7	blb_dichoticlistening_da-ba.mp3	da	ba	1	other
6.6.1	win	2023-06-02	01:40:44	01:54:50	842481	59d9d9cd8fd07a0001842484	1	1	main_slash	24	main_slash	29	stimuli_target_diamondsquares.svg	stimuli_distractor_diamondtriangles.svg	24	yes	53	1	888	6	6	antiphase_hc_ois.wav	3	6	6	noise_calib_stim_RIGHT.wav	2	7	blb_dichoticlistening_da-ba.mp3	da	ba	1	other
6.6.1	win	2023-06-02	01:40:44	01:54:50	842481	59d9d9cd8fd07a0001842484	1	1	main_slash	24	advance_on_keypress_SLASH	30	stimuli_target_diamondsquares.svg	stimuli_distractor_diamondtriangles.svg	24	yes	57	0	684	6	6	antiphase_hc_ois.wav	3	6	6	noise_calib_stim_RIGHT.wav	2	7	blb_dichoticlistening_da-ba.mp3	da	ba	1	other
6.6.1	win	2023-06-02	01:40:44	01:54:52	844797	59d9d9cd8fd07a0001842484	1	1	main_slash	24	main_slash	31	stimuli_target_diamondsquares.svg	stimuli_distractor_trianglediamonds.svg	20	yes	53	1	1017	6	6	antiphase_hc_ois.wav	3	6	6	noise_calib_stim_RIGHT.wav	2	7	blb_dichoticlistening_da-ba.mp3	da	ba	1	other
6.6.1	win	2023-06-02	01:40:44	01:54:52	844797	59d9d9cd8fd07a0001842484	1	1	main_slash	24	advance_on_keypress_SLASH	32	stimuli_target_diamondsquares.svg	stimuli_distractor_trianglediamonds.svg	20	yes	57	0	1652	6	6	antiphase_hc_ois.wav	3	6	6	noise_calib_stim_RIGHT.wav	2	7	blb_dichoticlistening_da-ba.mp3	da	ba	1	other
6.6.1	win	2023-06-02	01:40:44	01:54:55	847822	59d9d9cd8fd07a0001842484	1	1	main_slash	24	main_slash	33	stimuli_target_rectangletriangles.svg	stimuli_distractor_diamondtriangles.svg	5	yes	53	1	756	6	6	antiphase_hc_ois.wav	3	6	6	noise_calib_stim_RIGHT.wav	2	7	blb_dichoticlistening_da-ba.mp3	da	ba	1	other
6.6.1	win	2023-06-02	01:40:44	01:54:55	847822	59d9d9cd8fd07a0001842484	1	1	main_slash	24	advance_on_keypress_SLASH	34	stimuli_target_rectangletriangles.svg	stimuli_distractor_diamondtriangles.svg	5	yes	57	0	2020	6	6	antiphase_hc_ois.wav	3	6	6	noise_calib_stim_RIGHT.wav	2	7	blb_dichoticlistening_da-ba.mp3	da	ba	1	other
6.6.1	win	2023-06-02	01:40:44	01:54:59	851453	59d9d9cd8fd07a0001842484	1	1	main_slash	24	main_slash	35	stimuli_target_diamondrectangles.svg	stimuli_distractor_trianglediamonds.svg	19	yes	53	1	992	6	6	antiphase_hc_ois.wav	3	6	6	noise_calib_stim_RIGHT.wav	2	7	blb_dichoticlistening_da-ba.mp3	da	ba	1	other
6.6.1	win	2023-06-02	01:40:44	01:54:59	851453	59d9d9cd8fd07a0001842484	1	1	main_slash	24	advance_on_keypress_SLASH	36	stimuli_target_diamondrectangles.svg	stimuli_distractor_trianglediamonds.svg	19	yes	57	0	748	6	6	antiphase_hc_ois.wav	3	6	6	noise_calib_stim_RIGHT.wav	2	7	blb_dichoticlistening_da-ba.mp3	da	ba	1	other
6.6.1	win	2023-06-02	01:40:44	01:55:01	853702	59d9d9cd8fd07a0001842484	1	1	main_slash	24	main_slash	37	stimuli_target_trianglesquares.svg	stimuli_distractor_diamondtriangles.svg	22	yes	53	1	879	6	6	antiphase_hc_ois.wav	3	6	6	noise_calib_stim_RIGHT.wav	2	7	blb_dichoticlistening_da-ba.mp3	da	ba	1	other
6.6.1	win	2023-06-02	01:40:44	01:55:01	853702	59d9d9cd8fd07a0001842484	1	1	main_slash	24	advance_on_keypress_SLASH	38	stimuli_target_trianglesquares.svg	stimuli_distractor_diamondtriangles.svg	22	yes	57	0	695	6	6	antiphase_hc_ois.wav	3	6	6	noise_calib_stim_RIGHT.wav	2	7	blb_dichoticlistening_da-ba.mp3	da	ba	1	other
6.6.1	win	2023-06-02	01:40:44	01:55:04	856380	59d9d9cd8fd07a0001842484	1	1	main_slash	24	main_slash	39	stimuli_distractor_trianglediamonds.svg	stimuli_distractor_trianglediamonds.svg	34	no	53	0	1364	6	6	antiphase_hc_ois.wav	3	6	6	noise_calib_stim_RIGHT.wav	2	7	blb_dichoticlistening_da-ba.mp3	da	ba	1	other
6.6.1	win	2023-06-02	01:40:44	01:55:04	856380	59d9d9cd8fd07a0001842484	1	1	main_slash	24	advance_on_keypress_SLASH	40	stimuli_distractor_trianglediamonds.svg	stimuli_distractor_trianglediamonds.svg	34	no	57	0	620	6	6	antiphase_hc_ois.wav	3	6	6	noise_calib_stim_RIGHT.wav	2	7	blb_dichoticlistening_da-ba.mp3	da	ba	1	other
6.6.1	win	2023-06-02	01:40:44	01:55:06	858487	59d9d9cd8fd07a0001842484	1	1	main_slash	24	main_slash	41	stimuli_distractor_trianglediamonds.svg	stimuli_target_squarediamonds.svg	12	yes	53	1	875	6	6	antiphase_hc_ois.wav	3	6	6	noise_calib_stim_RIGHT.wav	2	7	blb_dichoticlistening_da-ba.mp3	da	ba	1	other
6.6.1	win	2023-06-02	01:40:44	01:55:06	858487	59d9d9cd8fd07a0001842484	1	1	main_slash	24	advance_on_keypress_SLASH	42	stimuli_distractor_trianglediamonds.svg	stimuli_target_squarediamonds.svg	12	yes	57	0	409	6	6	antiphase_hc_ois.wav	3	6	6	noise_calib_stim_RIGHT.wav	2	7	blb_dichoticlistening_da-ba.mp3	da	ba	1	other
6.6.1	win	2023-06-02	01:40:44	01:55:08	860359	59d9d9cd8fd07a0001842484	1	1	main_slash	24	main_slash	43	stimuli_target_squarediamonds.svg	stimuli_distractor_diamondtriangles.svg	8	yes	53	1	844	6	6	antiphase_hc_ois.wav	3	6	6	noise_calib_stim_RIGHT.wav	2	7	blb_dichoticlistening_da-ba.mp3	da	ba	1	other
6.6.1	win	2023-06-02	01:40:44	01:55:08	860359	59d9d9cd8fd07a0001842484	1	1	main_slash	24	advance_on_keypress_SLASH	44	stimuli_target_squarediamonds.svg	stimuli_distractor_diamondtriangles.svg	8	yes	57	0	433	6	6	antiphase_hc_ois.wav	3	6	6	noise_calib_stim_RIGHT.wav	2	7	blb_dichoticlistening_da-ba.mp3	da	ba	1	other
6.6.1	win	2023-06-02	01:40:44	01:55:09	862179	59d9d9cd8fd07a0001842484	1	1	main_slash	24	main_slash	45	stimuli_target_squaretriangles.svg	stimuli_distractor_trianglediamonds.svg	3	yes	53	1	768	6	6	antiphase_hc_ois.wav	3	6	6	noise_calib_stim_RIGHT.wav	2	7	blb_dichoticlistening_da-ba.mp3	da	ba	1	other
6.6.1	win	2023-06-02	01:40:44	01:55:09	862179	59d9d9cd8fd07a0001842484	1	1	main_slash	24	advance_on_keypress_SLASH	46	stimuli_target_squaretriangles.svg	stimuli_distractor_trianglediamonds.svg	3	yes	57	0	369	6	6	antiphase_hc_ois.wav	3	6	6	noise_calib_stim_RIGHT.wav	2	7	blb_dichoticlistening_da-ba.mp3	da	ba	1	other
6.6.1	win	2023-06-02	01:40:44	01:55:11	864079	59d9d9cd8fd07a0001842484	1	1	main_slash	24	main_slash	47	stimuli_distractor_trianglediamonds.svg	stimuli_target_rectangletriangles.svg	9	yes	53	1	918	6	6	antiphase_hc_ois.wav	3	6	6	noise_calib_stim_RIGHT.wav	2	7	blb_dichoticlistening_da-ba.mp3	da	ba	1	other
6.6.1	win	2023-06-02	01:40:44	01:55:11	864079	59d9d9cd8fd07a0001842484	1	1	main_slash	24	advance_on_keypress_SLASH	48	stimuli_distractor_trianglediamonds.svg	stimuli_target_rectangletriangles.svg	9	yes	57	0	375	6	6	antiphase_hc_ois.wav	3	6	6	noise_calib_stim_RIGHT.wav	2	7	blb_dichoticlistening_da-ba.mp3	da	ba	1	other
6.6.1	win	2023-06-02	01:40:44	01:55:13	865683	59d9d9cd8fd07a0001842484	1	1	main_slash	24	main_slash	49	stimuli_target_squaretriangles.svg	stimuli_distractor_diamondtriangles.svg	7	yes	53	1	612	6	6	antiphase_hc_ois.wav	3	6	6	noise_calib_stim_RIGHT.wav	2	7	blb_dichoticlistening_da-ba.mp3	da	ba	1	other
6.6.1	win	2023-06-02	01:40:44	01:55:13	865683	59d9d9cd8fd07a0001842484	1	1	main_slash	24	advance_on_keypress_SLASH	50	stimuli_target_squaretriangles.svg	stimuli_distractor_diamondtriangles.svg	7	yes	57	0	1526	6	6	antiphase_hc_ois.wav	3	6	6	noise_calib_stim_RIGHT.wav	2	7	blb_dichoticlistening_da-ba.mp3	da	ba	1	other
6.6.1	win	2023-06-02	01:40:44	01:55:16	868519	59d9d9cd8fd07a0001842484	1	1	main_slash	24	main_slash	51	stimuli_target_diamondrectangles.svg	stimuli_distractor_diamondtriangles.svg	23	yes	53	1	691	6	6	antiphase_hc_ois.wav	3	6	6	noise_calib_stim_RIGHT.wav	2	7	blb_dichoticlistening_da-ba.mp3	da	ba	1	other
6.6.1	win	2023-06-02	01:40:44	01:55:16	868519	59d9d9cd8fd07a0001842484	1	1	main_slash	24	advance_on_keypress_SLASH	52	stimuli_target_diamondrectangles.svg	stimuli_distractor_diamondtriangles.svg	23	yes	57	0	517	6	6	antiphase_hc_ois.wav	3	6	6	noise_calib_stim_RIGHT.wav	2	7	blb_dichoticlistening_da-ba.mp3	da	ba	1	other
6.6.1	win	2023-06-02	01:40:44	01:55:18	870939	59d9d9cd8fd07a0001842484	1	1	main_slash	24	main_slash	53	stimuli_distractor_diamondtriangles.svg	stimuli_target_trianglesquares.svg	30	yes	53	1	1292	6	6	antiphase_hc_ois.wav	3	6	6	noise_calib_stim_RIGHT.wav	2	7	blb_dichoticlistening_da-ba.mp3	da	ba	1	other
6.6.1	win	2023-06-02	01:40:44	01:55:18	870939	59d9d9cd8fd07a0001842484	1	1	main_slash	24	advance_on_keypress_SLASH	54	stimuli_distractor_diamondtriangles.svg	stimuli_target_trianglesquares.svg	30	yes	57	0	538	6	6	antiphase_hc_ois.wav	3	6	6	noise_calib_stim_RIGHT.wav	2	7	blb_dichoticlistening_da-ba.mp3	da	ba	1	other
6.6.1	win	2023-06-02	01:40:44	01:55:20	872976	59d9d9cd8fd07a0001842484	1	1	main_slash	24	main_slash	55	stimuli_target_rectanglediamonds.svg	stimuli_distractor_diamondtriangles.svg	6	yes	53	1	877	6	6	antiphase_hc_ois.wav	3	6	6	noise_calib_stim_RIGHT.wav	2	7	blb_dichoticlistening_da-ba.mp3	da	ba	1	other
6.6.1	win	2023-06-02	01:40:44	01:55:20	872976	59d9d9cd8fd07a0001842484	1	1	main_slash	24	advance_on_keypress_SLASH	56	stimuli_target_rectanglediamonds.svg	stimuli_distractor_diamondtriangles.svg	6	yes	57	0	543	6	6	antiphase_hc_ois.wav	3	6	6	noise_calib_stim_RIGHT.wav	2	7	blb_dichoticlistening_da-ba.mp3	da	ba	1	other
6.6.1	win	2023-06-02	01:40:44	01:55:22	874952	59d9d9cd8fd07a0001842484	1	1	main_slash	24	main_slash	57	stimuli_distractor_trianglediamonds.svg	stimuli_target_rectanglediamonds.svg	10	yes	53	1	817	6	6	antiphase_hc_ois.wav	3	6	6	noise_calib_stim_RIGHT.wav	2	7	blb_dichoticlistening_da-ba.mp3	da	ba	1	other
6.6.1	win	2023-06-02	01:40:44	01:55:22	874952	59d9d9cd8fd07a0001842484	1	1	main_slash	24	advance_on_keypress_SLASH	58	stimuli_distractor_trianglediamonds.svg	stimuli_target_rectanglediamonds.svg	10	yes	57	0	427	6	6	antiphase_hc_ois.wav	3	6	6	noise_calib_stim_RIGHT.wav	2	7	blb_dichoticlistening_da-ba.mp3	da	ba	1	other
6.6.1	win	2023-06-02	01:40:44	01:55:25	878004	59d9d9cd8fd07a0001842484	1	1	main_slash	24	main_slash	59	stimuli_distractor_trianglediamonds.svg	stimuli_distractor_trianglediamonds.svg	33	no	0	1	2003	6	6	antiphase_hc_ois.wav	3	6	6	noise_calib_stim_RIGHT.wav	2	7	blb_dichoticlistening_da-ba.mp3	da	ba	1	other
6.6.1	win	2023-06-02	01:40:44	01:55:25	878004	59d9d9cd8fd07a0001842484	1	1	main_slash	24	advance_on_keypress_SLASH	60	stimuli_distractor_trianglediamonds.svg	stimuli_distractor_trianglediamonds.svg	33	no	57	0	426	6	6	antiphase_hc_ois.wav	3	6	6	noise_calib_stim_RIGHT.wav	2	7	blb_dichoticlistening_da-ba.mp3	da	ba	1	other
6.6.1	win	2023-06-02	01:40:44	01:55:27	879866	59d9d9cd8fd07a0001842484	1	1	main_slash	24	main_slash	61	stimuli_distractor_trianglediamonds.svg	stimuli_target_trianglesquares.svg	26	yes	53	1	823	6	6	antiphase_hc_ois.wav	3	6	6	noise_calib_stim_RIGHT.wav	2	7	blb_dichoticlistening_da-ba.mp3	da	ba	1	other
6.6.1	win	2023-06-02	01:40:44	01:55:27	879866	59d9d9cd8fd07a0001842484	1	1	main_slash	24	advance_on_keypress_SLASH	62	stimuli_distractor_trianglediamonds.svg	stimuli_target_trianglesquares.svg	26	yes	57	0	517	6	6	antiphase_hc_ois.wav	3	6	6	noise_calib_stim_RIGHT.wav	2	7	blb_dichoticlistening_da-ba.mp3	da	ba	1	other
6.6.1	win	2023-06-02	01:40:44	01:55:29	881754	59d9d9cd8fd07a0001842484	1	1	main_slash	24	main_slash	63	stimuli_distractor_diamondtriangles.svg	stimuli_target_diamondsquares.svg	32	yes	53	1	753	6	6	antiphase_hc_ois.wav	3	6	6	noise_calib_stim_RIGHT.wav	2	7	blb_dichoticlistening_da-ba.mp3	da	ba	1	other
6.6.1	win	2023-06-02	01:40:44	01:55:29	881754	59d9d9cd8fd07a0001842484	1	1	main_slash	24	advance_on_keypress_SLASH	64	stimuli_distractor_diamondtriangles.svg	stimuli_target_diamondsquares.svg	32	yes	57	0	533	6	6	antiphase_hc_ois.wav	3	6	6	noise_calib_stim_RIGHT.wav	2	7	blb_dichoticlistening_da-ba.mp3	da	ba	1	other
6.6.1	win	2023-06-02	01:40:44	01:55:31	883846	59d9d9cd8fd07a0001842484	1	1	main_slash	24	main_slash	65	stimuli_target_squarediamonds.svg	stimuli_distractor_trianglediamonds.svg	4	yes	53	1	942	6	6	antiphase_hc_ois.wav	3	6	6	noise_calib_stim_RIGHT.wav	2	7	blb_dichoticlistening_da-ba.mp3	da	ba	1	other
6.6.1	win	2023-06-02	01:40:44	01:55:31	883846	59d9d9cd8fd07a0001842484	1	1	main_slash	24	advance_on_keypress_SLASH	66	stimuli_target_squarediamonds.svg	stimuli_distractor_trianglediamonds.svg	4	yes	57	0	1175	6	6	antiphase_hc_ois.wav	3	6	6	noise_calib_stim_RIGHT.wav	2	7	blb_dichoticlistening_da-ba.mp3	da	ba	1	other
6.6.1	win	2023-06-02	01:40:44	01:55:34	886723	59d9d9cd8fd07a0001842484	1	1	main_slash	24	main_slash	67	stimuli_distractor_diamondtriangles.svg	stimuli_target_rectanglediamonds.svg	14	yes	53	1	1082	6	6	antiphase_hc_ois.wav	3	6	6	noise_calib_stim_RIGHT.wav	2	7	blb_dichoticlistening_da-ba.mp3	da	ba	1	other
6.6.1	win	2023-06-02	01:40:44	01:55:34	886723	59d9d9cd8fd07a0001842484	1	1	main_slash	24	advance_on_keypress_SLASH	68	stimuli_distractor_diamondtriangles.svg	stimuli_target_rectanglediamonds.svg	14	yes	57	0	372	6	6	antiphase_hc_ois.wav	3	6	6	noise_calib_stim_RIGHT.wav	2	7	blb_dichoticlistening_da-ba.mp3	da	ba	1	other
6.6.1	win	2023-06-02	01:40:44	01:55:36	888670	59d9d9cd8fd07a0001842484	1	1	main_slash	24	main_slash	69	stimuli_distractor_trianglediamonds.svg	stimuli_target_diamondrectangles.svg	27	yes	53	1	961	6	6	antiphase_hc_ois.wav	3	6	6	noise_calib_stim_RIGHT.wav	2	7	blb_dichoticlistening_da-ba.mp3	da	ba	1	other
6.6.1	win	2023-06-02	01:40:44	01:55:36	888670	59d9d9cd8fd07a0001842484	1	1	main_slash	24	advance_on_keypress_SLASH	70	stimuli_distractor_trianglediamonds.svg	stimuli_target_diamondrectangles.svg	27	yes	57	0	436	6	6	antiphase_hc_ois.wav	3	6	6	noise_calib_stim_RIGHT.wav	2	7	blb_dichoticlistening_da-ba.mp3	da	ba	1	other
6.6.1	win	2023-06-02	01:40:44	01:55:39	891727	59d9d9cd8fd07a0001842484	1	1	main_slash	24	main_slash	71	stimuli_target_trianglesquares.svg	stimuli_distractor_trianglediamonds.svg	18	yes	0	0	2003	6	6	antiphase_hc_ois.wav	3	6	6	noise_calib_stim_RIGHT.wav	2	7	blb_dichoticlistening_da-ba.mp3	da	ba	1	other
6.6.1	win	2023-06-02	01:40:44	01:55:39	891727	59d9d9cd8fd07a0001842484	1	1	main_slash	24	advance_on_keypress_SLASH	72	stimuli_target_trianglesquares.svg	stimuli_distractor_trianglediamonds.svg	18	yes	57	0	745	6	6	antiphase_hc_ois.wav	3	6	6	noise_calib_stim_RIGHT.wav	2	7	blb_dichoticlistening_da-ba.mp3	da	ba	1	other
6.6.1	win	2023-06-02	01:40:44	01:55:41	894079	59d9d9cd8fd07a0001842484	1	1	main_slash	24	main_slash	73	stimuli_distractor_diamondtriangles.svg	stimuli_target_squaretriangles.svg	15	yes	53	1	994	6	6	antiphase_hc_ois.wav	3	6	6	noise_calib_stim_RIGHT.wav	2	7	blb_dichoticlistening_da-ba.mp3	da	ba	1	other
6.6.1	win	2023-06-02	01:40:44	01:55:41	894079	59d9d9cd8fd07a0001842484	1	1	main_slash	24	advance_on_keypress_SLASH	74	stimuli_distractor_diamondtriangles.svg	stimuli_target_squaretriangles.svg	15	yes	57	0	414	6	6	antiphase_hc_ois.wav	3	6	6	noise_calib_stim_RIGHT.wav	2	7	blb_dichoticlistening_da-ba.mp3	da	ba	1	other
6.6.1	win	2023-06-02	01:40:44	01:55:43	895798	59d9d9cd8fd07a0001842484	1	1	main_slash	24	main_slash	75	stimuli_distractor_diamondtriangles.svg	stimuli_target_squarediamonds.svg	16	yes	53	1	692	6	6	antiphase_hc_ois.wav	3	6	6	noise_calib_stim_RIGHT.wav	2	7	blb_dichoticlistening_da-ba.mp3	da	ba	1	other
6.6.1	win	2023-06-02	01:40:44	01:55:43	895798	59d9d9cd8fd07a0001842484	1	1	main_slash	24	advance_on_keypress_SLASH	76	stimuli_distractor_diamondtriangles.svg	stimuli_target_squarediamonds.svg	16	yes	57	0	596	6	6	antiphase_hc_ois.wav	3	6	6	noise_calib_stim_RIGHT.wav	2	7	blb_dichoticlistening_da-ba.mp3	da	ba	1	other
6.6.1	win	2023-06-02	01:40:44	01:55:45	898189	59d9d9cd8fd07a0001842484	1	1	main_slash	24	main_slash	77	stimuli_target_trianglerectangles.svg	stimuli_distractor_trianglediamonds.svg	17	yes	53	1	1175	6	6	antiphase_hc_ois.wav	3	6	6	noise_calib_stim_RIGHT.wav	2	7	blb_dichoticlistening_da-ba.mp3	da	ba	1	other
6.6.1	win	2023-06-02	01:40:44	01:55:45	898189	59d9d9cd8fd07a0001842484	1	1	main_slash	24	advance_on_keypress_SLASH	78	stimuli_target_trianglerectangles.svg	stimuli_distractor_trianglediamonds.svg	17	yes	57	0	626	6	6	antiphase_hc_ois.wav	3	6	6	noise_calib_stim_RIGHT.wav	2	7	blb_dichoticlistening_da-ba.mp3	da	ba	1	other
6.6.1	win	2023-06-02	01:40:44	01:55:49	901434	59d9d9cd8fd07a0001842484	1	1	main_slash	24	main_slash	79	stimuli_distractor_trianglediamonds.svg	stimuli_distractor_diamondtriangles.svg	35	no	0	1	2003	6	6	antiphase_hc_ois.wav	3	6	6	noise_calib_stim_RIGHT.wav	2	7	blb_dichoticlistening_da-ba.mp3	da	ba	1	other
6.6.1	win	2023-06-02	01:40:44	01:55:49	901434	59d9d9cd8fd07a0001842484	1	1	main_slash	24	advance_on_keypress_SLASH	80	stimuli_distractor_trianglediamonds.svg	stimuli_distractor_diamondtriangles.svg	35	no	57	0	1111	6	6	antiphase_hc_ois.wav	3	6	6	noise_calib_stim_RIGHT.wav	2	7	blb_dichoticlistening_da-ba.mp3	da	ba	1	other
6.6.1	win	2023-06-02	01:40:44	01:55:52	905164	59d9d9cd8fd07a0001842484	1	1	main_slash	24	main_slash	81	stimuli_distractor_trianglediamonds.svg	stimuli_distractor_diamondtriangles.svg	36	no	0	1	2003	6	6	antiphase_hc_ois.wav	3	6	6	noise_calib_stim_RIGHT.wav	2	7	blb_dichoticlistening_da-ba.mp3	da	ba	1	other
6.6.1	win	2023-06-02	01:40:44	01:55:52	905164	59d9d9cd8fd07a0001842484	1	1	main_slash	24	advance_on_keypress_SLASH	82	stimuli_distractor_trianglediamonds.svg	stimuli_distractor_diamondtriangles.svg	36	no	57	0	467	6	6	antiphase_hc_ois.wav	3	6	6	noise_calib_stim_RIGHT.wav	2	7	blb_dichoticlistening_da-ba.mp3	da	ba	1	other
6.6.1	win	2023-06-02	01:40:44	01:55:54	907073	59d9d9cd8fd07a0001842484	1	1	main_slash	24	main_slash	83	stimuli_target_rectangletriangles.svg	stimuli_distractor_trianglediamonds.svg	1	yes	53	1	823	6	6	antiphase_hc_ois.wav	3	6	6	noise_calib_stim_RIGHT.wav	2	7	blb_dichoticlistening_da-ba.mp3	da	ba	1	other
6.6.1	win	2023-06-02	01:40:44	01:55:54	907073	59d9d9cd8fd07a0001842484	1	1	main_slash	24	advance_on_keypress_SLASH	84	stimuli_target_rectangletriangles.svg	stimuli_distractor_trianglediamonds.svg	1	yes	57	0	516	6	6	antiphase_hc_ois.wav	3	6	6	noise_calib_stim_RIGHT.wav	2	7	blb_dichoticlistening_da-ba.mp3	da	ba	1	other
6.6.1	win	2023-06-02	01:40:44	01:55:57	909402	59d9d9cd8fd07a0001842484	1	1	main_slash	24	main_slash	85	stimuli_target_diamondsquares.svg	stimuli_distractor_trianglediamonds.svg	20	yes	53	1	1199	6	6	antiphase_hc_ois.wav	3	6	6	noise_calib_stim_RIGHT.wav	2	7	blb_dichoticlistening_da-ba.mp3	da	ba	1	other
6.6.1	win	2023-06-02	01:40:44	01:55:57	909402	59d9d9cd8fd07a0001842484	1	1	main_slash	24	advance_on_keypress_SLASH	86	stimuli_target_diamondsquares.svg	stimuli_distractor_trianglediamonds.svg	20	yes	57	0	1139	6	6	antiphase_hc_ois.wav	3	6	6	noise_calib_stim_RIGHT.wav	2	7	blb_dichoticlistening_da-ba.mp3	da	ba	1	other
6.6.1	win	2023-06-02	01:40:44	01:55:59	912289	59d9d9cd8fd07a0001842484	1	1	main_slash	24	main_slash	87	stimuli_target_rectangletriangles.svg	stimuli_distractor_diamondtriangles.svg	5	yes	53	1	1129	6	6	antiphase_hc_ois.wav	3	6	6	noise_calib_stim_RIGHT.wav	2	7	blb_dichoticlistening_da-ba.mp3	da	ba	1	other
6.6.1	win	2023-06-02	01:40:44	01:55:59	912289	59d9d9cd8fd07a0001842484	1	1	main_slash	24	advance_on_keypress_SLASH	88	stimuli_target_rectangletriangles.svg	stimuli_distractor_diamondtriangles.svg	5	yes	57	0	349	6	6	antiphase_hc_ois.wav	3	6	6	noise_calib_stim_RIGHT.wav	2	7	blb_dichoticlistening_da-ba.mp3	da	ba	1	other
6.6.1	win	2023-06-02	01:40:44	01:56:01	914241	59d9d9cd8fd07a0001842484	1	1	main_slash	24	main_slash	89	stimuli_distractor_diamondtriangles.svg	stimuli_target_squarediamonds.svg	16	yes	53	1	991	6	6	antiphase_hc_ois.wav	3	6	6	noise_calib_stim_RIGHT.wav	2	7	blb_dichoticlistening_da-ba.mp3	da	ba	1	other
6.6.1	win	2023-06-02	01:40:44	01:56:01	914241	59d9d9cd8fd07a0001842484	1	1	main_slash	24	advance_on_keypress_SLASH	90	stimuli_distractor_diamondtriangles.svg	stimuli_target_squarediamonds.svg	16	yes	57	0	446	6	6	antiphase_hc_ois.wav	3	6	6	noise_calib_stim_RIGHT.wav	2	7	blb_dichoticlistening_da-ba.mp3	da	ba	1	other
6.6.1	win	2023-06-02	01:40:44	01:56:04	916441	59d9d9cd8fd07a0001842484	1	1	main_slash	24	main_slash	91	stimuli_target_trianglesquares.svg	stimuli_distractor_trianglediamonds.svg	18	yes	53	1	1141	6	6	antiphase_hc_ois.wav	3	6	6	noise_calib_stim_RIGHT.wav	2	7	blb_dichoticlistening_da-ba.mp3	da	ba	1	other
6.6.1	win	2023-06-02	01:40:44	01:56:04	916441	59d9d9cd8fd07a0001842484	1	1	main_slash	24	advance_on_keypress_SLASH	92	stimuli_target_trianglesquares.svg	stimuli_distractor_trianglediamonds.svg	18	yes	57	0	1111	6	6	antiphase_hc_ois.wav	3	6	6	noise_calib_stim_RIGHT.wav	2	7	blb_dichoticlistening_da-ba.mp3	da	ba	1	other
6.6.1	win	2023-06-02	01:40:44	01:56:07	920169	59d9d9cd8fd07a0001842484	1	1	main_slash	24	main_slash	93	stimuli_distractor_trianglediamonds.svg	stimuli_distractor_trianglediamonds.svg	34	no	0	1	2003	6	6	antiphase_hc_ois.wav	3	6	6	noise_calib_stim_RIGHT.wav	2	7	blb_dichoticlistening_da-ba.mp3	da	ba	1	other
6.6.1	win	2023-06-02	01:40:44	01:56:07	920169	59d9d9cd8fd07a0001842484	1	1	main_slash	24	advance_on_keypress_SLASH	94	stimuli_distractor_trianglediamonds.svg	stimuli_distractor_trianglediamonds.svg	34	no	57	0	518	6	6	antiphase_hc_ois.wav	3	6	6	noise_calib_stim_RIGHT.wav	2	7	blb_dichoticlistening_da-ba.mp3	da	ba	1	other
6.6.1	win	2023-06-02	01:40:44	01:56:09	922212	59d9d9cd8fd07a0001842484	1	1	main_slash	24	main_slash	95	stimuli_distractor_diamondtriangles.svg	stimuli_target_rectangletriangles.svg	13	yes	53	1	913	6	6	antiphase_hc_ois.wav	3	6	6	noise_calib_stim_RIGHT.wav	2	7	blb_dichoticlistening_da-ba.mp3	da	ba	1	other
6.6.1	win	2023-06-02	01:40:44	01:56:09	922212	59d9d9cd8fd07a0001842484	1	1	main_slash	24	advance_on_keypress_SLASH	96	stimuli_distractor_diamondtriangles.svg	stimuli_target_rectangletriangles.svg	13	yes	57	0	429	6	6	antiphase_hc_ois.wav	3	6	6	noise_calib_stim_RIGHT.wav	2	7	blb_dichoticlistening_da-ba.mp3	da	ba	1	other
6.6.1	win	2023-06-02	01:40:44	01:56:11	924300	59d9d9cd8fd07a0001842484	1	1	main_slash	24	main_slash	97	stimuli_target_squaretriangles.svg	stimuli_distractor_trianglediamonds.svg	3	yes	53	1	1043	6	6	antiphase_hc_ois.wav	3	6	6	noise_calib_stim_RIGHT.wav	2	7	blb_dichoticlistening_da-ba.mp3	da	ba	1	other
6.6.1	win	2023-06-02	01:40:44	01:56:11	924300	59d9d9cd8fd07a0001842484	1	1	main_slash	24	advance_on_keypress_SLASH	98	stimuli_target_squaretriangles.svg	stimuli_distractor_trianglediamonds.svg	3	yes	57	0	482	6	6	antiphase_hc_ois.wav	3	6	6	noise_calib_stim_RIGHT.wav	2	7	blb_dichoticlistening_da-ba.mp3	da	ba	1	other
6.6.1	win	2023-06-02	01:40:44	01:56:14	926961	59d9d9cd8fd07a0001842484	1	1	main_slash	24	main_slash	99	stimuli_distractor_diamondtriangles.svg	stimuli_target_trianglesquares.svg	30	yes	53	1	1564	6	6	antiphase_hc_ois.wav	3	6	6	noise_calib_stim_RIGHT.wav	2	7	blb_dichoticlistening_da-ba.mp3	da	ba	1	other
6.6.1	win	2023-06-02	01:40:44	01:56:14	926961	59d9d9cd8fd07a0001842484	1	1	main_slash	24	advance_on_keypress_SLASH	100	stimuli_distractor_diamondtriangles.svg	stimuli_target_trianglesquares.svg	30	yes	57	0	603	6	6	antiphase_hc_ois.wav	3	6	6	noise_calib_stim_RIGHT.wav	2	7	blb_dichoticlistening_da-ba.mp3	da	ba	1	other
6.6.1	win	2023-06-02	01:40:44	01:56:17	929413	59d9d9cd8fd07a0001842484	1	1	main_slash	24	main_slash	101	stimuli_distractor_trianglediamonds.svg	stimuli_target_squaretriangles.svg	11	yes	53	1	1231	6	6	antiphase_hc_ois.wav	3	6	6	noise_calib_stim_RIGHT.wav	2	7	blb_dichoticlistening_da-ba.mp3	da	ba	1	other
6.6.1	win	2023-06-02	01:40:44	01:56:17	929413	59d9d9cd8fd07a0001842484	1	1	main_slash	24	advance_on_keypress_SLASH	102	stimuli_distractor_trianglediamonds.svg	stimuli_target_squaretriangles.svg	11	yes	57	0	1647	6	6	antiphase_hc_ois.wav	3	6	6	noise_calib_stim_RIGHT.wav	2	7	blb_dichoticlistening_da-ba.mp3	da	ba	1	other
6.6.1	win	2023-06-02	01:40:44	01:56:20	932638	59d9d9cd8fd07a0001842484	1	1	main_slash	24	main_slash	103	stimuli_distractor_trianglediamonds.svg	stimuli_distractor_trianglediamonds.svg	33	no	53	0	962	6	6	antiphase_hc_ois.wav	3	6	6	noise_calib_stim_RIGHT.wav	2	7	blb_dichoticlistening_da-ba.mp3	da	ba	1	other
6.6.1	win	2023-06-02	01:40:44	01:56:20	932638	59d9d9cd8fd07a0001842484	1	1	main_slash	24	advance_on_keypress_SLASH	104	stimuli_distractor_trianglediamonds.svg	stimuli_distractor_trianglediamonds.svg	33	no	57	0	794	6	6	antiphase_hc_ois.wav	3	6	6	noise_calib_stim_RIGHT.wav	2	7	blb_dichoticlistening_da-ba.mp3	da	ba	1	other
6.6.1	win	2023-06-02	01:40:44	01:56:22	935163	59d9d9cd8fd07a0001842484	1	1	main_slash	24	main_slash	105	stimuli_target_squaretriangles.svg	stimuli_distractor_diamondtriangles.svg	7	yes	53	1	1104	6	6	antiphase_hc_ois.wav	3	6	6	noise_calib_stim_RIGHT.wav	2	7	blb_dichoticlistening_da-ba.mp3	da	ba	1	other
6.6.1	win	2023-06-02	01:40:44	01:56:22	935163	59d9d9cd8fd07a0001842484	1	1	main_slash	24	advance_on_keypress_SLASH	106	stimuli_target_squaretriangles.svg	stimuli_distractor_diamondtriangles.svg	7	yes	57	0	716	6	6	antiphase_hc_ois.wav	3	6	6	noise_calib_stim_RIGHT.wav	2	7	blb_dichoticlistening_da-ba.mp3	da	ba	1	other
6.6.1	win	2023-06-02	01:40:44	01:56:25	938003	59d9d9cd8fd07a0001842484	1	1	main_slash	24	main_slash	107	stimuli_distractor_diamondtriangles.svg	stimuli_target_rectanglediamonds.svg	14	yes	53	1	1510	6	6	antiphase_hc_ois.wav	3	6	6	noise_calib_stim_RIGHT.wav	2	7	blb_dichoticlistening_da-ba.mp3	da	ba	1	other
6.6.1	win	2023-06-02	01:40:44	01:56:25	938003	59d9d9cd8fd07a0001842484	1	1	main_slash	24	advance_on_keypress_SLASH	108	stimuli_distractor_diamondtriangles.svg	stimuli_target_rectanglediamonds.svg	14	yes	57	0	576	6	6	antiphase_hc_ois.wav	3	6	6	noise_calib_stim_RIGHT.wav	2	7	blb_dichoticlistening_da-ba.mp3	da	ba	1	other
6.6.1	win	2023-06-02	01:40:44	01:56:27	940132	59d9d9cd8fd07a0001842484	1	1	main_slash	24	main_slash	109	stimuli_distractor_trianglediamonds.svg	stimuli_target_diamondrectangles.svg	27	yes	53	1	937	6	6	antiphase_hc_ois.wav	3	6	6	noise_calib_stim_RIGHT.wav	2	7	blb_dichoticlistening_da-ba.mp3	da	ba	1	other
6.6.1	win	2023-06-02	01:40:44	01:56:27	940132	59d9d9cd8fd07a0001842484	1	1	main_slash	24	advance_on_keypress_SLASH	110	stimuli_distractor_trianglediamonds.svg	stimuli_target_diamondrectangles.svg	27	yes	57	0	644	6	6	antiphase_hc_ois.wav	3	6	6	noise_calib_stim_RIGHT.wav	2	7	blb_dichoticlistening_da-ba.mp3	da	ba	1	other
6.6.1	win	2023-06-02	01:40:44	01:56:29	942264	59d9d9cd8fd07a0001842484	1	1	main_slash	24	main_slash	111	stimuli_distractor_trianglediamonds.svg	stimuli_target_squarediamonds.svg	12	yes	53	1	867	6	6	antiphase_hc_ois.wav	3	6	6	noise_calib_stim_RIGHT.wav	2	7	blb_dichoticlistening_da-ba.mp3	da	ba	1	other
6.6.1	win	2023-06-02	01:40:44	01:56:29	942264	59d9d9cd8fd07a0001842484	1	1	main_slash	24	advance_on_keypress_SLASH	112	stimuli_distractor_trianglediamonds.svg	stimuli_target_squarediamonds.svg	12	yes	57	0	372	6	6	antiphase_hc_ois.wav	3	6	6	noise_calib_stim_RIGHT.wav	2	7	blb_dichoticlistening_da-ba.mp3	da	ba	1	other
6.6.1	win	2023-06-02	01:40:44	01:56:31	944236	59d9d9cd8fd07a0001842484	1	1	main_slash	24	main_slash	113	stimuli_distractor_diamondtriangles.svg	stimuli_distractor_trianglediamonds.svg	37	no	53	0	978	6	6	antiphase_hc_ois.wav	3	6	6	noise_calib_stim_RIGHT.wav	2	7	blb_dichoticlistening_da-ba.mp3	da	ba	1	other
6.6.1	win	2023-06-02	01:40:44	01:56:31	944236	59d9d9cd8fd07a0001842484	1	1	main_slash	24	advance_on_keypress_SLASH	114	stimuli_distractor_diamondtriangles.svg	stimuli_distractor_trianglediamonds.svg	37	no	57	0	448	6	6	antiphase_hc_ois.wav	3	6	6	noise_calib_stim_RIGHT.wav	2	7	blb_dichoticlistening_da-ba.mp3	da	ba	1	other
6.6.1	win	2023-06-02	01:40:44	01:56:34	947301	59d9d9cd8fd07a0001842484	1	1	main_slash	24	main_slash	115	stimuli_target_diamondrectangles.svg	stimuli_distractor_diamondtriangles.svg	23	yes	0	0	2003	6	6	antiphase_hc_ois.wav	3	6	6	noise_calib_stim_RIGHT.wav	2	7	blb_dichoticlistening_da-ba.mp3	da	ba	1	other
6.6.1	win	2023-06-02	01:40:44	01:56:34	947301	59d9d9cd8fd07a0001842484	1	1	main_slash	24	advance_on_keypress_SLASH	116	stimuli_target_diamondrectangles.svg	stimuli_distractor_diamondtriangles.svg	23	yes	57	0	438	6	6	antiphase_hc_ois.wav	3	6	6	noise_calib_stim_RIGHT.wav	2	7	blb_dichoticlistening_da-ba.mp3	da	ba	1	other
6.6.1	win	2023-06-02	01:40:44	01:56:36	949264	59d9d9cd8fd07a0001842484	1	1	main_slash	24	main_slash	117	stimuli_target_squarediamonds.svg	stimuli_distractor_trianglediamonds.svg	4	yes	53	1	909	6	6	antiphase_hc_ois.wav	3	6	6	noise_calib_stim_RIGHT.wav	2	7	blb_dichoticlistening_da-ba.mp3	da	ba	1	other
6.6.1	win	2023-06-02	01:40:44	01:56:36	949264	59d9d9cd8fd07a0001842484	1	1	main_slash	24	advance_on_keypress_SLASH	118	stimuli_target_squarediamonds.svg	stimuli_distractor_trianglediamonds.svg	4	yes	57	0	1952	6	6	antiphase_hc_ois.wav	3	6	6	noise_calib_stim_RIGHT.wav	2	7	blb_dichoticlistening_da-ba.mp3	da	ba	1	other
6.6.1	win	2023-06-02	01:40:44	01:56:41	953835	59d9d9cd8fd07a0001842484	1	1	main_slash	24	main_slash	119	stimuli_distractor_diamondtriangles.svg	stimuli_distractor_diamondtriangles.svg	40	no	0	1	2003	6	6	antiphase_hc_ois.wav	3	6	6	noise_calib_stim_RIGHT.wav	2	7	blb_dichoticlistening_da-ba.mp3	da	ba	1	other
6.6.1	win	2023-06-02	01:40:44	01:56:41	953835	59d9d9cd8fd07a0001842484	1	1	main_slash	24	advance_on_keypress_SLASH	120	stimuli_distractor_diamondtriangles.svg	stimuli_distractor_diamondtriangles.svg	40	no	57	0	404	6	6	antiphase_hc_ois.wav	3	6	6	noise_calib_stim_RIGHT.wav	2	7	blb_dichoticlistening_da-ba.mp3	da	ba	1	other
6.6.1	win	2023-06-02	01:40:44	01:56:43	955798	59d9d9cd8fd07a0001842484	1	1	main_slash	24	main_slash	121	stimuli_target_diamondsquares.svg	stimuli_distractor_diamondtriangles.svg	24	yes	53	1	944	6	6	antiphase_hc_ois.wav	3	6	6	noise_calib_stim_RIGHT.wav	2	7	blb_dichoticlistening_da-ba.mp3	da	ba	1	other
6.6.1	win	2023-06-02	01:40:44	01:56:43	955798	59d9d9cd8fd07a0001842484	1	1	main_slash	24	advance_on_keypress_SLASH	122	stimuli_target_diamondsquares.svg	stimuli_distractor_diamondtriangles.svg	24	yes	57	0	281	6	6	antiphase_hc_ois.wav	3	6	6	noise_calib_stim_RIGHT.wav	2	7	blb_dichoticlistening_da-ba.mp3	da	ba	1	other
6.6.1	win	2023-06-02	01:40:44	01:56:45	957606	59d9d9cd8fd07a0001842484	1	1	main_slash	24	main_slash	123	stimuli_distractor_trianglediamonds.svg	stimuli_target_trianglerectangles.svg	25	yes	53	1	912	6	6	antiphase_hc_ois.wav	3	6	6	noise_calib_stim_RIGHT.wav	2	7	blb_dichoticlistening_da-ba.mp3	da	ba	1	other
6.6.1	win	2023-06-02	01:40:44	01:56:45	957606	59d9d9cd8fd07a0001842484	1	1	main_slash	24	advance_on_keypress_SLASH	124	stimuli_distractor_trianglediamonds.svg	stimuli_target_trianglerectangles.svg	25	yes	57	0	536	6	6	antiphase_hc_ois.wav	3	6	6	noise_calib_stim_RIGHT.wav	2	7	blb_dichoticlistening_da-ba.mp3	da	ba	1	other
6.6.1	win	2023-06-02	01:40:44	01:56:47	959627	59d9d9cd8fd07a0001842484	1	1	main_slash	24	main_slash	125	stimuli_target_trianglerectangles.svg	stimuli_distractor_diamondtriangles.svg	21	yes	53	1	869	6	6	antiphase_hc_ois.wav	3	6	6	noise_calib_stim_RIGHT.wav	2	7	blb_dichoticlistening_da-ba.mp3	da	ba	1	other
6.6.1	win	2023-06-02	01:40:44	01:56:47	959627	59d9d9cd8fd07a0001842484	1	1	main_slash	24	advance_on_keypress_SLASH	126	stimuli_target_trianglerectangles.svg	stimuli_distractor_diamondtriangles.svg	21	yes	57	0	618	6	6	antiphase_hc_ois.wav	3	6	6	noise_calib_stim_RIGHT.wav	2	7	blb_dichoticlistening_da-ba.mp3	da	ba	1	other
6.6.1	win	2023-06-02	01:40:44	01:56:49	961579	59d9d9cd8fd07a0001842484	1	1	main_slash	24	main_slash	127	stimuli_target_rectanglediamonds.svg	stimuli_distractor_diamondtriangles.svg	6	yes	53	1	717	6	6	antiphase_hc_ois.wav	3	6	6	noise_calib_stim_RIGHT.wav	2	7	blb_dichoticlistening_da-ba.mp3	da	ba	1	other
6.6.1	win	2023-06-02	01:40:44	01:56:49	961579	59d9d9cd8fd07a0001842484	1	1	main_slash	24	advance_on_keypress_SLASH	128	stimuli_target_rectanglediamonds.svg	stimuli_distractor_diamondtriangles.svg	6	yes	57	0	399	6	6	antiphase_hc_ois.wav	3	6	6	noise_calib_stim_RIGHT.wav	2	7	blb_dichoticlistening_da-ba.mp3	da	ba	1	other
6.6.1	win	2023-06-02	01:40:44	01:56:50	963355	59d9d9cd8fd07a0001842484	1	1	main_slash	24	main_slash	129	stimuli_target_trianglesquares.svg	stimuli_distractor_diamondtriangles.svg	22	yes	53	1	764	6	6	antiphase_hc_ois.wav	3	6	6	noise_calib_stim_RIGHT.wav	2	7	blb_dichoticlistening_da-ba.mp3	da	ba	1	other
6.6.1	win	2023-06-02	01:40:44	01:56:50	963355	59d9d9cd8fd07a0001842484	1	1	main_slash	24	advance_on_keypress_SLASH	130	stimuli_target_trianglesquares.svg	stimuli_distractor_diamondtriangles.svg	22	yes	57	0	1041	6	6	antiphase_hc_ois.wav	3	6	6	noise_calib_stim_RIGHT.wav	2	7	blb_dichoticlistening_da-ba.mp3	da	ba	1	other
6.6.1	win	2023-06-02	01:40:44	01:56:53	965662	59d9d9cd8fd07a0001842484	1	1	main_slash	24	main_slash	131	stimuli_distractor_trianglediamonds.svg	stimuli_target_rectangletriangles.svg	9	yes	53	1	649	6	6	antiphase_hc_ois.wav	3	6	6	noise_calib_stim_RIGHT.wav	2	7	blb_dichoticlistening_da-ba.mp3	da	ba	1	other
6.6.1	win	2023-06-02	01:40:44	01:56:53	965662	59d9d9cd8fd07a0001842484	1	1	main_slash	24	advance_on_keypress_SLASH	132	stimuli_distractor_trianglediamonds.svg	stimuli_target_rectangletriangles.svg	9	yes	57	0	416	6	6	antiphase_hc_ois.wav	3	6	6	noise_calib_stim_RIGHT.wav	2	7	blb_dichoticlistening_da-ba.mp3	da	ba	1	other
6.6.1	win	2023-06-02	01:40:44	01:56:54	967294	59d9d9cd8fd07a0001842484	1	1	main_slash	24	main_slash	133	stimuli_distractor_trianglediamonds.svg	stimuli_target_rectanglediamonds.svg	10	yes	53	1	600	6	6	antiphase_hc_ois.wav	3	6	6	noise_calib_stim_RIGHT.wav	2	7	blb_dichoticlistening_da-ba.mp3	da	ba	1	other
6.6.1	win	2023-06-02	01:40:44	01:56:54	967294	59d9d9cd8fd07a0001842484	1	1	main_slash	24	advance_on_keypress_SLASH	134	stimuli_distractor_trianglediamonds.svg	stimuli_target_rectanglediamonds.svg	10	yes	57	0	557	6	6	antiphase_hc_ois.wav	3	6	6	noise_calib_stim_RIGHT.wav	2	7	blb_dichoticlistening_da-ba.mp3	da	ba	1	other
6.6.1	win	2023-06-02	01:40:44	01:56:56	969280	59d9d9cd8fd07a0001842484	1	1	main_slash	24	main_slash	135	stimuli_target_diamondrectangles.svg	stimuli_distractor_trianglediamonds.svg	19	yes	53	1	813	6	6	antiphase_hc_ois.wav	3	6	6	noise_calib_stim_RIGHT.wav	2	7	blb_dichoticlistening_da-ba.mp3	da	ba	1	other
6.6.1	win	2023-06-02	01:40:44	01:56:56	969280	59d9d9cd8fd07a0001842484	1	1	main_slash	24	advance_on_keypress_SLASH	136	stimuli_target_diamondrectangles.svg	stimuli_distractor_trianglediamonds.svg	19	yes	57	0	374	6	6	antiphase_hc_ois.wav	3	6	6	noise_calib_stim_RIGHT.wav	2	7	blb_dichoticlistening_da-ba.mp3	da	ba	1	other
6.6.1	win	2023-06-02	01:40:44	01:56:58	971238	59d9d9cd8fd07a0001842484	1	1	main_slash	24	main_slash	137	stimuli_target_trianglerectangles.svg	stimuli_distractor_trianglediamonds.svg	17	yes	53	1	968	6	6	antiphase_hc_ois.wav	3	6	6	noise_calib_stim_RIGHT.wav	2	7	blb_dichoticlistening_da-ba.mp3	da	ba	1	other
6.6.1	win	2023-06-02	01:40:44	01:56:58	971238	59d9d9cd8fd07a0001842484	1	1	main_slash	24	advance_on_keypress_SLASH	138	stimuli_target_trianglerectangles.svg	stimuli_distractor_trianglediamonds.svg	17	yes	57	0	385	6	6	antiphase_hc_ois.wav	3	6	6	noise_calib_stim_RIGHT.wav	2	7	blb_dichoticlistening_da-ba.mp3	da	ba	1	other
6.6.1	win	2023-06-02	01:40:44	01:57:01	974245	59d9d9cd8fd07a0001842484	1	1	main_slash	24	main_slash	139	stimuli_distractor_diamondtriangles.svg	stimuli_distractor_diamondtriangles.svg	39	no	0	1	2003	6	6	antiphase_hc_ois.wav	3	6	6	noise_calib_stim_RIGHT.wav	2	7	blb_dichoticlistening_da-ba.mp3	da	ba	1	other
6.6.1	win	2023-06-02	01:40:44	01:57:01	974245	59d9d9cd8fd07a0001842484	1	1	main_slash	24	advance_on_keypress_SLASH	140	stimuli_distractor_diamondtriangles.svg	stimuli_distractor_diamondtriangles.svg	39	no	57	0	380	6	6	antiphase_hc_ois.wav	3	6	6	noise_calib_stim_RIGHT.wav	2	7	blb_dichoticlistening_da-ba.mp3	da	ba	1	other
6.6.1	win	2023-06-02	01:40:44	01:57:03	975882	59d9d9cd8fd07a0001842484	1	1	main_slash	24	main_slash	141	stimuli_distractor_trianglediamonds.svg	stimuli_target_diamondsquares.svg	28	yes	53	1	639	6	6	antiphase_hc_ois.wav	3	6	6	noise_calib_stim_RIGHT.wav	2	7	blb_dichoticlistening_da-ba.mp3	da	ba	1	other
6.6.1	win	2023-06-02	01:40:44	01:57:03	975882	59d9d9cd8fd07a0001842484	1	1	main_slash	24	advance_on_keypress_SLASH	142	stimuli_distractor_trianglediamonds.svg	stimuli_target_diamondsquares.svg	28	yes	57	0	454	6	6	antiphase_hc_ois.wav	3	6	6	noise_calib_stim_RIGHT.wav	2	7	blb_dichoticlistening_da-ba.mp3	da	ba	1	other
6.6.1	win	2023-06-02	01:40:44	01:57:05	977731	59d9d9cd8fd07a0001842484	1	1	main_slash	24	main_slash	143	stimuli_distractor_diamondtriangles.svg	stimuli_target_trianglerectangles.svg	29	yes	53	1	778	6	6	antiphase_hc_ois.wav	3	6	6	noise_calib_stim_RIGHT.wav	2	7	blb_dichoticlistening_da-ba.mp3	da	ba	1	other
6.6.1	win	2023-06-02	01:40:44	01:57:05	977731	59d9d9cd8fd07a0001842484	1	1	main_slash	24	advance_on_keypress_SLASH	144	stimuli_distractor_diamondtriangles.svg	stimuli_target_trianglerectangles.svg	29	yes	57	0	1662	6	6	antiphase_hc_ois.wav	3	6	6	noise_calib_stim_RIGHT.wav	2	7	blb_dichoticlistening_da-ba.mp3	da	ba	1	other
6.6.1	win	2023-06-02	01:40:44	01:57:08	980846	59d9d9cd8fd07a0001842484	1	1	main_slash	24	main_slash	145	stimuli_target_rectanglediamonds.svg	stimuli_distractor_trianglediamonds.svg	2	yes	53	1	839	6	6	antiphase_hc_ois.wav	3	6	6	noise_calib_stim_RIGHT.wav	2	7	blb_dichoticlistening_da-ba.mp3	da	ba	1	other
6.6.1	win	2023-06-02	01:40:44	01:57:08	980846	59d9d9cd8fd07a0001842484	1	1	main_slash	24	advance_on_keypress_SLASH	146	stimuli_target_rectanglediamonds.svg	stimuli_distractor_trianglediamonds.svg	2	yes	57	0	520	6	6	antiphase_hc_ois.wav	3	6	6	noise_calib_stim_RIGHT.wav	2	7	blb_dichoticlistening_da-ba.mp3	da	ba	1	other
6.6.1	win	2023-06-02	01:40:44	01:57:11	983989	59d9d9cd8fd07a0001842484	1	1	main_slash	24	main_slash	147	stimuli_distractor_diamondtriangles.svg	stimuli_distractor_trianglediamonds.svg	38	no	0	1	2003	6	6	antiphase_hc_ois.wav	3	6	6	noise_calib_stim_RIGHT.wav	2	7	blb_dichoticlistening_da-ba.mp3	da	ba	1	other
6.6.1	win	2023-06-02	01:40:44	01:57:11	983989	59d9d9cd8fd07a0001842484	1	1	main_slash	24	advance_on_keypress_SLASH	148	stimuli_distractor_diamondtriangles.svg	stimuli_distractor_trianglediamonds.svg	38	no	57	0	673	6	6	antiphase_hc_ois.wav	3	6	6	noise_calib_stim_RIGHT.wav	2	7	blb_dichoticlistening_da-ba.mp3	da	ba	1	other
6.6.1	win	2023-06-02	01:40:44	01:57:13	986025	59d9d9cd8fd07a0001842484	1	1	main_slash	24	main_slash	149	stimuli_distractor_trianglediamonds.svg	stimuli_target_trianglesquares.svg	26	yes	53	1	748	6	6	antiphase_hc_ois.wav	3	6	6	noise_calib_stim_RIGHT.wav	2	7	blb_dichoticlistening_da-ba.mp3	da	ba	1	other
6.6.1	win	2023-06-02	01:40:44	01:57:13	986025	59d9d9cd8fd07a0001842484	1	1	main_slash	24	advance_on_keypress_SLASH	150	stimuli_distractor_trianglediamonds.svg	stimuli_target_trianglesquares.svg	26	yes	57	0	427	6	6	antiphase_hc_ois.wav	3	6	6	noise_calib_stim_RIGHT.wav	2	7	blb_dichoticlistening_da-ba.mp3	da	ba	1	other
6.6.1	win	2023-06-02	01:40:44	01:57:15	988006	59d9d9cd8fd07a0001842484	1	1	main_slash	24	main_slash	151	stimuli_distractor_trianglediamonds.svg	stimuli_distractor_diamondtriangles.svg	35	no	53	0	936	6	6	antiphase_hc_ois.wav	3	6	6	noise_calib_stim_RIGHT.wav	2	7	blb_dichoticlistening_da-ba.mp3	da	ba	1	other
6.6.1	win	2023-06-02	01:40:44	01:57:15	988006	59d9d9cd8fd07a0001842484	1	1	main_slash	24	advance_on_keypress_SLASH	152	stimuli_distractor_trianglediamonds.svg	stimuli_distractor_diamondtriangles.svg	35	no	57	0	276	6	6	antiphase_hc_ois.wav	3	6	6	noise_calib_stim_RIGHT.wav	2	7	blb_dichoticlistening_da-ba.mp3	da	ba	1	other
6.6.1	win	2023-06-02	01:40:44	01:57:17	989882	59d9d9cd8fd07a0001842484	1	1	main_slash	24	main_slash	153	stimuli_distractor_diamondtriangles.svg	stimuli_target_diamondrectangles.svg	31	yes	53	1	979	6	6	antiphase_hc_ois.wav	3	6	6	noise_calib_stim_RIGHT.wav	2	7	blb_dichoticlistening_da-ba.mp3	da	ba	1	other
6.6.1	win	2023-06-02	01:40:44	01:57:17	989882	59d9d9cd8fd07a0001842484	1	1	main_slash	24	advance_on_keypress_SLASH	154	stimuli_distractor_diamondtriangles.svg	stimuli_target_diamondrectangles.svg	31	yes	57	0	749	6	6	antiphase_hc_ois.wav	3	6	6	noise_calib_stim_RIGHT.wav	2	7	blb_dichoticlistening_da-ba.mp3	da	ba	1	other
6.6.1	win	2023-06-02	01:40:44	01:57:20	993252	59d9d9cd8fd07a0001842484	1	1	main_slash	24	main_slash	155	stimuli_distractor_diamondtriangles.svg	stimuli_target_squaretriangles.svg	15	yes	0	0	2003	6	6	antiphase_hc_ois.wav	3	6	6	noise_calib_stim_RIGHT.wav	2	7	blb_dichoticlistening_da-ba.mp3	da	ba	1	other
6.6.1	win	2023-06-02	01:40:44	01:57:20	993252	59d9d9cd8fd07a0001842484	1	1	main_slash	24	advance_on_keypress_SLASH	156	stimuli_distractor_diamondtriangles.svg	stimuli_target_squaretriangles.svg	15	yes	57	0	473	6	6	antiphase_hc_ois.wav	3	6	6	noise_calib_stim_RIGHT.wav	2	7	blb_dichoticlistening_da-ba.mp3	da	ba	1	other
6.6.1	win	2023-06-02	01:40:44	01:57:22	995237	59d9d9cd8fd07a0001842484	1	1	main_slash	24	main_slash	157	stimuli_distractor_diamondtriangles.svg	stimuli_target_diamondsquares.svg	32	yes	53	1	897	6	6	antiphase_hc_ois.wav	3	6	6	noise_calib_stim_RIGHT.wav	2	7	blb_dichoticlistening_da-ba.mp3	da	ba	1	other
6.6.1	win	2023-06-02	01:40:44	01:57:22	995237	59d9d9cd8fd07a0001842484	1	1	main_slash	24	advance_on_keypress_SLASH	158	stimuli_distractor_diamondtriangles.svg	stimuli_target_diamondsquares.svg	32	yes	57	0	290	6	6	antiphase_hc_ois.wav	3	6	6	noise_calib_stim_RIGHT.wav	2	7	blb_dichoticlistening_da-ba.mp3	da	ba	1	other
6.6.1	win	2023-06-02	01:40:44	01:57:24	997354	59d9d9cd8fd07a0001842484	1	1	main_slash	24	main_slash	159	stimuli_target_squarediamonds.svg	stimuli_distractor_diamondtriangles.svg	8	yes	53	1	1207	6	6	antiphase_hc_ois.wav	3	6	6	noise_calib_stim_RIGHT.wav	2	7	blb_dichoticlistening_da-ba.mp3	da	ba	1	other
6.6.1	win	2023-06-02	01:40:44	01:57:24	997354	59d9d9cd8fd07a0001842484	1	1	main_slash	24	advance_on_keypress_SLASH	160	stimuli_target_squarediamonds.svg	stimuli_distractor_diamondtriangles.svg	8	yes	57	0	432	6	6	antiphase_hc_ois.wav	3	6	6	noise_calib_stim_RIGHT.wav	2	7	blb_dichoticlistening_da-ba.mp3	da	ba	1	other
6.6.1	win	2023-06-02	01:40:44	01:57:52	1024564	59d9d9cd8fd07a0001842484	1	1	practice_z	26	practice_z	1	stimuli_distractor_diamondtriangles.svg	stimuli_target_diamondrectangles.svg	8	yes	44	1	456	6	6	antiphase_hc_ois.wav	3	6	6	noise_calib_stim_RIGHT.wav	2	7	blb_dichoticlistening_da-ba.mp3	da	ba	1	other
6.6.1	win	2023-06-02	01:40:44	01:57:52	1024564	59d9d9cd8fd07a0001842484	1	1	practice_z	26	advance_on_keypress_ZEE	2	stimuli_distractor_diamondtriangles.svg	stimuli_target_diamondrectangles.svg	8	yes	57	0	684	6	6	antiphase_hc_ois.wav	3	6	6	noise_calib_stim_RIGHT.wav	2	7	blb_dichoticlistening_da-ba.mp3	da	ba	1	other
6.6.1	win	2023-06-02	01:40:44	01:57:56	1028870	59d9d9cd8fd07a0001842484	1	1	practice_z	26	practice_z	3	stimuli_distractor_diamondtriangles.svg	stimuli_distractor_trianglediamonds.svg	14	no	0	1	2003	6	6	antiphase_hc_ois.wav	3	6	6	noise_calib_stim_RIGHT.wav	2	7	blb_dichoticlistening_da-ba.mp3	da	ba	1	other
6.6.1	win	2023-06-02	01:40:44	01:57:56	1028870	59d9d9cd8fd07a0001842484	1	1	practice_z	26	advance_on_keypress_ZEE	4	stimuli_distractor_diamondtriangles.svg	stimuli_distractor_trianglediamonds.svg	14	no	57	0	731	6	6	antiphase_hc_ois.wav	3	6	6	noise_calib_stim_RIGHT.wav	2	7	blb_dichoticlistening_da-ba.mp3	da	ba	1	other
6.6.1	win	2023-06-02	01:40:44	01:57:59	1031899	59d9d9cd8fd07a0001842484	1	1	practice_z	26	practice_z	5	stimuli_distractor_trianglediamonds.svg	stimuli_target_rectanglediamonds.svg	10	yes	44	1	682	6	6	antiphase_hc_ois.wav	3	6	6	noise_calib_stim_RIGHT.wav	2	7	blb_dichoticlistening_da-ba.mp3	da	ba	1	other
6.6.1	win	2023-06-02	01:40:44	01:57:59	1031899	59d9d9cd8fd07a0001842484	1	1	practice_z	26	advance_on_keypress_ZEE	6	stimuli_distractor_trianglediamonds.svg	stimuli_target_rectanglediamonds.svg	10	yes	57	0	446	6	6	antiphase_hc_ois.wav	3	6	6	noise_calib_stim_RIGHT.wav	2	7	blb_dichoticlistening_da-ba.mp3	da	ba	1	other
6.6.1	win	2023-06-02	01:40:44	01:58:02	1034612	59d9d9cd8fd07a0001842484	1	1	practice_z	26	practice_z	7	stimuli_target_diamondsquares.svg	stimuli_distractor_trianglediamonds.svg	6	yes	44	1	654	6	6	antiphase_hc_ois.wav	3	6	6	noise_calib_stim_RIGHT.wav	2	7	blb_dichoticlistening_da-ba.mp3	da	ba	1	other
6.6.1	win	2023-06-02	01:40:44	01:58:02	1034612	59d9d9cd8fd07a0001842484	1	1	practice_z	26	advance_on_keypress_ZEE	8	stimuli_target_diamondsquares.svg	stimuli_distractor_trianglediamonds.svg	6	yes	57	0	475	6	6	antiphase_hc_ois.wav	3	6	6	noise_calib_stim_RIGHT.wav	2	7	blb_dichoticlistening_da-ba.mp3	da	ba	1	other
6.6.1	win	2023-06-02	01:40:44	01:58:06	1038702	59d9d9cd8fd07a0001842484	1	1	practice_z	26	practice_z	9	stimuli_distractor_trianglediamonds.svg	stimuli_distractor_diamondtriangles.svg	16	no	0	1	2003	6	6	antiphase_hc_ois.wav	3	6	6	noise_calib_stim_RIGHT.wav	2	7	blb_dichoticlistening_da-ba.mp3	da	ba	1	other
6.6.1	win	2023-06-02	01:40:44	01:58:06	1038702	59d9d9cd8fd07a0001842484	1	1	practice_z	26	advance_on_keypress_ZEE	10	stimuli_distractor_trianglediamonds.svg	stimuli_distractor_diamondtriangles.svg	16	no	57	0	288	6	6	antiphase_hc_ois.wav	3	6	6	noise_calib_stim_RIGHT.wav	2	7	blb_dichoticlistening_da-ba.mp3	da	ba	1	other
6.6.1	win	2023-06-02	01:40:44	01:58:09	1041651	59d9d9cd8fd07a0001842484	1	1	practice_z	26	practice_z	11	stimuli_target_diamondsquares.svg	stimuli_distractor_diamondtriangles.svg	3	yes	44	1	1048	6	6	antiphase_hc_ois.wav	3	6	6	noise_calib_stim_RIGHT.wav	2	7	blb_dichoticlistening_da-ba.mp3	da	ba	1	other
6.6.1	win	2023-06-02	01:40:44	01:58:09	1041651	59d9d9cd8fd07a0001842484	1	1	practice_z	26	advance_on_keypress_ZEE	12	stimuli_target_diamondsquares.svg	stimuli_distractor_diamondtriangles.svg	3	yes	57	0	564	6	6	antiphase_hc_ois.wav	3	6	6	noise_calib_stim_RIGHT.wav	2	7	blb_dichoticlistening_da-ba.mp3	da	ba	1	other
6.6.1	win	2023-06-02	01:40:44	01:58:12	1044780	59d9d9cd8fd07a0001842484	1	1	practice_z	26	practice_z	13	stimuli_target_squarediamonds.svg	stimuli_distractor_diamondtriangles.svg	2	yes	44	1	947	6	6	antiphase_hc_ois.wav	3	6	6	noise_calib_stim_RIGHT.wav	2	7	blb_dichoticlistening_da-ba.mp3	da	ba	1	other
6.6.1	win	2023-06-02	01:40:44	01:58:12	1044780	59d9d9cd8fd07a0001842484	1	1	practice_z	26	advance_on_keypress_ZEE	14	stimuli_target_squarediamonds.svg	stimuli_distractor_diamondtriangles.svg	2	yes	57	0	635	6	6	antiphase_hc_ois.wav	3	6	6	noise_calib_stim_RIGHT.wav	2	7	blb_dichoticlistening_da-ba.mp3	da	ba	1	other
