build	computer.platform	date	time	timestamp	time_elapsed_ms	subject	group	session	blockcode	blocknum	trialcode	trialnum	stimulus_left	stimulus_right	stim_index	target_present	response	correct	latency	headphonecheck_countTestTrials	headphonecheck_index	headphonecheck_testSound	headphonecheck_correctResponse	stereocheck_countTestTrials	stereocheck_index	stereocheck_testSound	stereocheck_correctResponse	DL_index	DL_soundfile	DL_leftSound	DL_rightSound	DL_dualSound	DL_choice
6.6.1	win	2023-06-24	23:35:43	0	0	6132cc58d1dcc24bcdb61606	1	1	headphonecheck_calibration	4	headphonecheck_calibrationIntro	1			0		calibrationButton	0	2635	0	0			0	0			1				0	
6.6.1	win	2023-06-24	23:35:43	0	0	6132cc58d1dcc24bcdb61606	1	1	headphonecheck_testphase	5	test_collectResponse	3			0		third	1	479	1	6	antiphase_hc_ois.wav	3	0	0			1				0	
6.6.1	win	2023-06-24	23:35:43	0	0	6132cc58d1dcc24bcdb61606	1	1	headphonecheck_testphase	5	test_collectResponse	6			0		first	1	538	2	4	antiphase_hc_sio.wav	1	0	0			1				0	
6.6.1	win	2023-06-24	23:35:43	0	0	6132cc58d1dcc24bcdb61606	1	1	headphonecheck_testphase	5	test_collectResponse	9			0		second	1	292	3	5	antiphase_hc_osi.wav	2	0	0			1				0	
6.6.1	win	2023-06-24	23:35:43	0	0	6132cc58d1dcc24bcdb61606	1	1	headphonecheck_testphase	5	test_collectResponse	12			0		second	1	328	4	1	antiphase_hc_iso.wav	2	0	0			1				0	
6.6.1	win	2023-06-24	23:35:43	0	0	6132cc58d1dcc24bcdb61606	1	1	headphonecheck_testphase	5	test_collectResponse	15			0		first	1	271	5	3	antiphase_hc_soi.wav	1	0	0			1				0	
6.6.1	win	2023-06-24	23:35:43	0	0	6132cc58d1dcc24bcdb61606	1	1	headphonecheck_testphase	5	test_collectResponse	18			0		third	1	343	6	2	antiphase_hc_ios.wav	3	0	0			1				0	
6.6.1	win	2023-06-24	23:35:43	0	0	6132cc58d1dcc24bcdb61606	1	1	stereocheck_calibration	7	stereocheck_calibrationIntro	1			0		stereocheck_calibrationButton	0	1885	6	2	antiphase_hc_ios.wav	3	0	0			1				0	
6.6.1	win	2023-06-24	23:35:43	0	0	6132cc58d1dcc24bcdb61606	1	1	stereocheck_testphase	8	stereocheck_test_collectResponse	3			0		stereocheck_right	1	457	6	2	antiphase_hc_ios.wav	3	1	5	noise_calib_stim_RIGHT.wav	2	1				0	
6.6.1	win	2023-06-24	23:35:43	0	0	6132cc58d1dcc24bcdb61606	1	1	stereocheck_testphase	8	stereocheck_test_collectResponse	6			0		stereocheck_left	1	316	6	2	antiphase_hc_ios.wav	3	2	1	noise_calib_stim_LEFT.wav	1	1				0	
6.6.1	win	2023-06-24	23:35:43	0	0	6132cc58d1dcc24bcdb61606	1	1	stereocheck_testphase	8	stereocheck_test_collectResponse	9			0		stereocheck_left	1	436	6	2	antiphase_hc_ios.wav	3	3	3	noise_calib_stim_LEFT.wav	1	1				0	
6.6.1	win	2023-06-24	23:35:43	0	0	6132cc58d1dcc24bcdb61606	1	1	stereocheck_testphase	8	stereocheck_test_collectResponse	12			0		stereocheck_left	1	285	6	2	antiphase_hc_ios.wav	3	4	2	noise_calib_stim_LEFT.wav	1	1				0	
6.6.1	win	2023-06-24	23:35:43	0	0	6132cc58d1dcc24bcdb61606	1	1	stereocheck_testphase	8	stereocheck_test_collectResponse	15			0		stereocheck_right	1	276	6	2	antiphase_hc_ios.wav	3	5	6	noise_calib_stim_RIGHT.wav	2	1				0	
6.6.1	win	2023-06-24	23:35:43	0	0	6132cc58d1dcc24bcdb61606	1	1	stereocheck_testphase	8	stereocheck_test_collectResponse	18			0		stereocheck_right	1	275	6	2	antiphase_hc_ios.wav	3	6	4	noise_calib_stim_RIGHT.wav	2	1				0	
6.6.1	win	2023-06-24	23:35:43	0	0	6132cc58d1dcc24bcdb61606	1	1	DL_practice	11	DL_practice	2			0		pa	1	1556	6	2	antiphase_hc_ios.wav	3	6	4	noise_calib_stim_RIGHT.wav	2	29	blb_dichoticlistening_pa-pa.mp3	pa	pa	0	left
6.6.1	win	2023-06-24	23:35:43	0	0	6132cc58d1dcc24bcdb61606	1	1	DL_practice	11	DL_practice	3			0		ka	1	1164	6	2	antiphase_hc_ios.wav	3	6	4	noise_calib_stim_RIGHT.wav	2	23	blb_dichoticlistening_ka-pa.mp3	ka	pa	1	left
6.6.1	win	2023-06-24	23:35:43	0	0	6132cc58d1dcc24bcdb61606	1	1	DL_practice	11	DL_practice	4			0		ga	1	1048	6	2	antiphase_hc_ios.wav	3	6	4	noise_calib_stim_RIGHT.wav	2	18	blb_dichoticlistening_ga-ta.mp3	ga	ta	1	left
6.6.1	win	2023-06-24	23:35:43	0	0	6132cc58d1dcc24bcdb61606	1	1	DL_practice	11	DL_practice	5			0		ta	1	2217	6	2	antiphase_hc_ios.wav	3	6	4	noise_calib_stim_RIGHT.wav	2	36	blb_dichoticlistening_ta-ta.mp3	ta	ta	0	left
6.6.1	win	2023-06-24	23:35:43	0	0	6132cc58d1dcc24bcdb61606	1	1	DL_practice	11	DL_practice	6			0		ba	1	1708	6	2	antiphase_hc_ios.wav	3	6	4	noise_calib_stim_RIGHT.wav	2	1	blb_dichoticlistening_ba-ba.mp3	ba	ba	0	left
6.6.1	win	2023-06-24	23:35:43	0	0	6132cc58d1dcc24bcdb61606	1	1	DL_practice	11	DL_practice	7			0		ka	1	1418	6	2	antiphase_hc_ios.wav	3	6	4	noise_calib_stim_RIGHT.wav	2	22	blb_dichoticlistening_ka-ka.mp3	ka	ka	0	left
6.6.1	win	2023-06-24	23:35:43	0	0	6132cc58d1dcc24bcdb61606	1	1	DL_practice	11	DL_practice	8			0		ga	1	829	6	2	antiphase_hc_ios.wav	3	6	4	noise_calib_stim_RIGHT.wav	2	15	blb_dichoticlistening_ga-ga.mp3	ga	ga	0	left
6.6.1	win	2023-06-24	23:35:43	0	0	6132cc58d1dcc24bcdb61606	1	1	DL_practice	11	DL_practice	9			0		da	1	775	6	2	antiphase_hc_ios.wav	3	6	4	noise_calib_stim_RIGHT.wav	2	8	blb_dichoticlistening_da-da.mp3	da	da	0	left
6.6.1	win	2023-06-24	23:35:43	0	0	6132cc58d1dcc24bcdb61606	1	1	DL_practice	11	DL_practice	10			0		da	1	879	6	2	antiphase_hc_ios.wav	3	6	4	noise_calib_stim_RIGHT.wav	2	7	blb_dichoticlistening_da-ba.mp3	da	ba	1	left
6.6.1	win	2023-06-24	23:35:43	0	0	6132cc58d1dcc24bcdb61606	1	1	DL_test	13	DL_test	1			0		pa	0	1836	6	2	antiphase_hc_ios.wav	3	6	4	noise_calib_stim_RIGHT.wav	2	4	blb_dichoticlistening_ba-ka.mp3	ba	ka	1	other
6.6.1	win	2023-06-24	23:35:43	0	0	6132cc58d1dcc24bcdb61606	1	1	DL_test	13	DL_test	2			0		pa	0	1851	6	2	antiphase_hc_ios.wav	3	6	4	noise_calib_stim_RIGHT.wav	2	10	blb_dichoticlistening_da-ka.mp3	da	ka	1	other
6.6.1	win	2023-06-24	23:35:43	0	0	6132cc58d1dcc24bcdb61606	1	1	DL_test	13	DL_test	3			0		ba	1	1285	6	2	antiphase_hc_ios.wav	3	6	4	noise_calib_stim_RIGHT.wav	2	3	blb_dichoticlistening_ba-ga.mp3	ba	ga	1	left
6.6.1	win	2023-06-24	23:35:43	0	0	6132cc58d1dcc24bcdb61606	1	1	DL_test	13	DL_test	4			0		ga	1	1145	6	2	antiphase_hc_ios.wav	3	6	4	noise_calib_stim_RIGHT.wav	2	21	blb_dichoticlistening_ka-ga.mp3	ka	ga	1	right
6.6.1	win	2023-06-24	23:35:43	0	0	6132cc58d1dcc24bcdb61606	1	1	DL_test	13	DL_test	5			0		ga	0	863	6	2	antiphase_hc_ios.wav	3	6	4	noise_calib_stim_RIGHT.wav	2	8	blb_dichoticlistening_da-da.mp3	da	da	0	other
6.6.1	win	2023-06-24	23:35:43	0	0	6132cc58d1dcc24bcdb61606	1	1	DL_test	13	DL_test	6			0		ta	1	2023	6	2	antiphase_hc_ios.wav	3	6	4	noise_calib_stim_RIGHT.wav	2	30	blb_dichoticlistening_pa-ta.mp3	pa	ta	1	right
6.6.1	win	2023-06-24	23:35:43	0	0	6132cc58d1dcc24bcdb61606	1	1	DL_test	13	DL_test	7			0		pa	1	1863	6	2	antiphase_hc_ios.wav	3	6	4	noise_calib_stim_RIGHT.wav	2	25	blb_dichoticlistening_pa-ba.mp3	pa	ba	1	left
6.6.1	win	2023-06-24	23:35:43	0	0	6132cc58d1dcc24bcdb61606	1	1	DL_test	13	DL_test	8			0		ba	1	1526	6	2	antiphase_hc_ios.wav	3	6	4	noise_calib_stim_RIGHT.wav	2	7	blb_dichoticlistening_da-ba.mp3	da	ba	1	right
6.6.1	win	2023-06-24	23:35:43	0	0	6132cc58d1dcc24bcdb61606	1	1	DL_test	13	DL_test	9			0		ta	1	1391	6	2	antiphase_hc_ios.wav	3	6	4	noise_calib_stim_RIGHT.wav	2	35	blb_dichoticlistening_ta-pa.mp3	ta	pa	1	left
6.6.1	win	2023-06-24	23:35:43	0	0	6132cc58d1dcc24bcdb61606	1	1	DL_test	13	DL_test	10			0		da	1	1493	6	2	antiphase_hc_ios.wav	3	6	4	noise_calib_stim_RIGHT.wav	2	32	blb_dichoticlistening_ta-da.mp3	ta	da	1	right
6.6.1	win	2023-06-24	23:35:43	0	0	6132cc58d1dcc24bcdb61606	1	1	DL_test	13	DL_test	11			0		ka	1	1453	6	2	antiphase_hc_ios.wav	3	6	4	noise_calib_stim_RIGHT.wav	2	24	blb_dichoticlistening_ka-ta.mp3	ka	ta	1	left
6.6.1	win	2023-06-24	23:35:43	0	0	6132cc58d1dcc24bcdb61606	1	1	DL_test	13	DL_test	12			0		ba	1	1480	6	2	antiphase_hc_ios.wav	3	6	4	noise_calib_stim_RIGHT.wav	2	2	blb_dichoticlistening_ba-da.mp3	ba	da	1	left
6.6.1	win	2023-06-24	23:35:43	0	0	6132cc58d1dcc24bcdb61606	1	1	DL_test	13	DL_test	13			0		ba	1	851	6	2	antiphase_hc_ios.wav	3	6	4	noise_calib_stim_RIGHT.wav	2	6	blb_dichoticlistening_ba-ta.mp3	ba	ta	1	left
6.6.1	win	2023-06-24	23:35:43	0	0	6132cc58d1dcc24bcdb61606	1	1	DL_test	13	DL_test	14			0		ga	1	1023	6	2	antiphase_hc_ios.wav	3	6	4	noise_calib_stim_RIGHT.wav	2	17	blb_dichoticlistening_ga-pa.mp3	ga	pa	1	left
6.6.1	win	2023-06-24	23:35:43	0	0	6132cc58d1dcc24bcdb61606	1	1	DL_test	13	DL_test	15			0		ga	1	645	6	2	antiphase_hc_ios.wav	3	6	4	noise_calib_stim_RIGHT.wav	2	27	blb_dichoticlistening_pa-ga.mp3	pa	ga	1	right
6.6.1	win	2023-06-24	23:35:43	0	0	6132cc58d1dcc24bcdb61606	1	1	DL_test	13	DL_test	16			0		ga	0	693	6	2	antiphase_hc_ios.wav	3	6	4	noise_calib_stim_RIGHT.wav	2	26	blb_dichoticlistening_pa-da.mp3	pa	da	1	other
6.6.1	win	2023-06-24	23:35:43	0	0	6132cc58d1dcc24bcdb61606	1	1	DL_test	13	DL_test	17			0		pa	1	2078	6	2	antiphase_hc_ios.wav	3	6	4	noise_calib_stim_RIGHT.wav	2	5	blb_dichoticlistening_ba-pa.mp3	ba	pa	1	right
6.6.1	win	2023-06-24	23:35:43	0	0	6132cc58d1dcc24bcdb61606	1	1	DL_test	13	DL_test	18			0		ka	0	1233	6	2	antiphase_hc_ios.wav	3	6	4	noise_calib_stim_RIGHT.wav	2	11	blb_dichoticlistening_da-pa.mp3	da	pa	1	other
6.6.1	win	2023-06-24	23:35:43	0	0	6132cc58d1dcc24bcdb61606	1	1	DL_test	13	DL_test	19			0		ka	1	707	6	2	antiphase_hc_ios.wav	3	6	4	noise_calib_stim_RIGHT.wav	2	22	blb_dichoticlistening_ka-ka.mp3	ka	ka	0	left
6.6.1	win	2023-06-24	23:35:43	0	0	6132cc58d1dcc24bcdb61606	1	1	DL_test	13	DL_test	20			0		ga	0	1213	6	2	antiphase_hc_ios.wav	3	6	4	noise_calib_stim_RIGHT.wav	2	20	blb_dichoticlistening_ka-da.mp3	ka	da	1	other
6.6.1	win	2023-06-24	23:35:43	0	0	6132cc58d1dcc24bcdb61606	1	1	DL_test	13	DL_test	21			0		ga	0	950	6	2	antiphase_hc_ios.wav	3	6	4	noise_calib_stim_RIGHT.wav	2	19	blb_dichoticlistening_ka-ba.mp3	ka	ba	1	other
6.6.1	win	2023-06-24	23:35:43	0	0	6132cc58d1dcc24bcdb61606	1	1	DL_test	13	DL_test	22			0		ga	1	666	6	2	antiphase_hc_ios.wav	3	6	4	noise_calib_stim_RIGHT.wav	2	16	blb_dichoticlistening_ga-ka.mp3	ga	ka	1	left
6.6.1	win	2023-06-24	23:35:43	0	0	6132cc58d1dcc24bcdb61606	1	1	DL_test	13	DL_test	23			0		ta	1	2540	6	2	antiphase_hc_ios.wav	3	6	4	noise_calib_stim_RIGHT.wav	2	36	blb_dichoticlistening_ta-ta.mp3	ta	ta	0	left
6.6.1	win	2023-06-24	23:35:43	0	0	6132cc58d1dcc24bcdb61606	1	1	DL_test	13	DL_test	24			0		ga	1	1221	6	2	antiphase_hc_ios.wav	3	6	4	noise_calib_stim_RIGHT.wav	2	33	blb_dichoticlistening_ta-ga.mp3	ta	ga	1	right
6.6.1	win	2023-06-24	23:35:43	0	0	6132cc58d1dcc24bcdb61606	1	1	DL_test	13	DL_test	25			0		ka	1	981	6	2	antiphase_hc_ios.wav	3	6	4	noise_calib_stim_RIGHT.wav	2	23	blb_dichoticlistening_ka-pa.mp3	ka	pa	1	left
6.6.1	win	2023-06-24	23:35:43	0	0	6132cc58d1dcc24bcdb61606	1	1	DL_test	13	DL_test	26			0		ga	1	1039	6	2	antiphase_hc_ios.wav	3	6	4	noise_calib_stim_RIGHT.wav	2	14	blb_dichoticlistening_ga-da.mp3	ga	da	1	left
6.6.1	win	2023-06-24	23:35:43	0	0	6132cc58d1dcc24bcdb61606	1	1	DL_test	13	DL_test	27			0		ga	0	647	6	2	antiphase_hc_ios.wav	3	6	4	noise_calib_stim_RIGHT.wav	2	12	blb_dichoticlistening_da-ta.mp3	da	ta	1	other
6.6.1	win	2023-06-24	23:35:43	0	0	6132cc58d1dcc24bcdb61606	1	1	DL_test	13	DL_test	28			0		ba	1	1340	6	2	antiphase_hc_ios.wav	3	6	4	noise_calib_stim_RIGHT.wav	2	1	blb_dichoticlistening_ba-ba.mp3	ba	ba	0	left
6.6.1	win	2023-06-24	23:35:43	0	0	6132cc58d1dcc24bcdb61606	1	1	DL_test	13	DL_test	29			0		ga	1	1079	6	2	antiphase_hc_ios.wav	3	6	4	noise_calib_stim_RIGHT.wav	2	18	blb_dichoticlistening_ga-ta.mp3	ga	ta	1	left
6.6.1	win	2023-06-24	23:35:43	0	0	6132cc58d1dcc24bcdb61606	1	1	DL_test	13	DL_test	30			0		ka	1	1033	6	2	antiphase_hc_ios.wav	3	6	4	noise_calib_stim_RIGHT.wav	2	34	blb_dichoticlistening_ta-ka.mp3	ta	ka	1	right
6.6.1	win	2023-06-24	23:35:43	0	0	6132cc58d1dcc24bcdb61606	1	1	DL_test	13	DL_test	31			0		ba	1	2228	6	2	antiphase_hc_ios.wav	3	6	4	noise_calib_stim_RIGHT.wav	2	13	blb_dichoticlistening_ga-ba.mp3	ga	ba	1	right
6.6.1	win	2023-06-24	23:35:43	0	0	6132cc58d1dcc24bcdb61606	1	1	DL_test	13	DL_test	32			0		pa	1	1101	6	2	antiphase_hc_ios.wav	3	6	4	noise_calib_stim_RIGHT.wav	2	28	blb_dichoticlistening_pa-ka.mp3	pa	ka	1	left
6.6.1	win	2023-06-24	23:35:43	0	0	6132cc58d1dcc24bcdb61606	1	1	DL_test	13	DL_test	33			0		ba	1	1632	6	2	antiphase_hc_ios.wav	3	6	4	noise_calib_stim_RIGHT.wav	2	31	blb_dichoticlistening_ta-ba.mp3	ta	ba	1	right
6.6.1	win	2023-06-24	23:35:43	0	0	6132cc58d1dcc24bcdb61606	1	1	DL_test	13	DL_test	34			0		ga	1	964	6	2	antiphase_hc_ios.wav	3	6	4	noise_calib_stim_RIGHT.wav	2	15	blb_dichoticlistening_ga-ga.mp3	ga	ga	0	left
6.6.1	win	2023-06-24	23:35:43	0	0	6132cc58d1dcc24bcdb61606	1	1	DL_test	13	DL_test	35			0		ga	1	1299	6	2	antiphase_hc_ios.wav	3	6	4	noise_calib_stim_RIGHT.wav	2	9	blb_dichoticlistening_da-ga.mp3	da	ga	1	right
6.6.1	win	2023-06-24	23:35:43	0	0	6132cc58d1dcc24bcdb61606	1	1	DL_test	13	DL_test	36			0		pa	1	1359	6	2	antiphase_hc_ios.wav	3	6	4	noise_calib_stim_RIGHT.wav	2	29	blb_dichoticlistening_pa-pa.mp3	pa	pa	0	left
6.6.1	win	2023-06-24	23:35:43	0	0	6132cc58d1dcc24bcdb61606	1	1	DL_test	14	DL_test	1			0		ka	1	1079	6	2	antiphase_hc_ios.wav	3	6	4	noise_calib_stim_RIGHT.wav	2	22	blb_dichoticlistening_ka-ka.mp3	ka	ka	0	left
6.6.1	win	2023-06-24	23:35:43	0	0	6132cc58d1dcc24bcdb61606	1	1	DL_test	14	DL_test	2			0		pa	0	1677	6	2	antiphase_hc_ios.wav	3	6	4	noise_calib_stim_RIGHT.wav	2	4	blb_dichoticlistening_ba-ka.mp3	ba	ka	1	other
6.6.1	win	2023-06-24	23:35:43	0	0	6132cc58d1dcc24bcdb61606	1	1	DL_test	14	DL_test	3			0		ga	1	2662	6	2	antiphase_hc_ios.wav	3	6	4	noise_calib_stim_RIGHT.wav	2	16	blb_dichoticlistening_ga-ka.mp3	ga	ka	1	left
6.6.1	win	2023-06-24	23:35:43	0	0	6132cc58d1dcc24bcdb61606	1	1	DL_test	14	DL_test	4			0		ga	1	581	6	2	antiphase_hc_ios.wav	3	6	4	noise_calib_stim_RIGHT.wav	2	15	blb_dichoticlistening_ga-ga.mp3	ga	ga	0	left
6.6.1	win	2023-06-24	23:35:43	0	0	6132cc58d1dcc24bcdb61606	1	1	DL_test	14	DL_test	5			0		ka	1	1731	6	2	antiphase_hc_ios.wav	3	6	4	noise_calib_stim_RIGHT.wav	2	10	blb_dichoticlistening_da-ka.mp3	da	ka	1	right
6.6.1	win	2023-06-24	23:35:43	0	0	6132cc58d1dcc24bcdb61606	1	1	DL_test	14	DL_test	6			0		ba	1	1511	6	2	antiphase_hc_ios.wav	3	6	4	noise_calib_stim_RIGHT.wav	2	7	blb_dichoticlistening_da-ba.mp3	da	ba	1	right
6.6.1	win	2023-06-24	23:35:43	0	0	6132cc58d1dcc24bcdb61606	1	1	DL_test	14	DL_test	7			0		da	0	1335	6	2	antiphase_hc_ios.wav	3	6	4	noise_calib_stim_RIGHT.wav	2	18	blb_dichoticlistening_ga-ta.mp3	ga	ta	1	other
6.6.1	win	2023-06-24	23:35:43	0	0	6132cc58d1dcc24bcdb61606	1	1	DL_test	14	DL_test	8			0		da	1	1054	6	2	antiphase_hc_ios.wav	3	6	4	noise_calib_stim_RIGHT.wav	2	8	blb_dichoticlistening_da-da.mp3	da	da	0	left
6.6.1	win	2023-06-24	23:35:43	0	0	6132cc58d1dcc24bcdb61606	1	1	DL_test	14	DL_test	9			0		ka	1	945	6	2	antiphase_hc_ios.wav	3	6	4	noise_calib_stim_RIGHT.wav	2	28	blb_dichoticlistening_pa-ka.mp3	pa	ka	1	right
6.6.1	win	2023-06-24	23:35:43	0	0	6132cc58d1dcc24bcdb61606	1	1	DL_test	14	DL_test	10			0		ga	1	1631	6	2	antiphase_hc_ios.wav	3	6	4	noise_calib_stim_RIGHT.wav	2	33	blb_dichoticlistening_ta-ga.mp3	ta	ga	1	right
6.6.1	win	2023-06-24	23:35:43	0	0	6132cc58d1dcc24bcdb61606	1	1	DL_test	14	DL_test	11			0		ba	1	1552	6	2	antiphase_hc_ios.wav	3	6	4	noise_calib_stim_RIGHT.wav	2	3	blb_dichoticlistening_ba-ga.mp3	ba	ga	1	left
6.6.1	win	2023-06-24	23:35:43	0	0	6132cc58d1dcc24bcdb61606	1	1	DL_test	14	DL_test	12			0		ka	0	1268	6	2	antiphase_hc_ios.wav	3	6	4	noise_calib_stim_RIGHT.wav	2	26	blb_dichoticlistening_pa-da.mp3	pa	da	1	other
6.6.1	win	2023-06-24	23:35:43	0	0	6132cc58d1dcc24bcdb61606	1	1	DL_test	14	DL_test	13			0		ba	1	1403	6	2	antiphase_hc_ios.wav	3	6	4	noise_calib_stim_RIGHT.wav	2	1	blb_dichoticlistening_ba-ba.mp3	ba	ba	0	left
6.6.1	win	2023-06-24	23:35:43	0	0	6132cc58d1dcc24bcdb61606	1	1	DL_test	14	DL_test	14			0		ba	1	917	6	2	antiphase_hc_ios.wav	3	6	4	noise_calib_stim_RIGHT.wav	2	19	blb_dichoticlistening_ka-ba.mp3	ka	ba	1	right
6.6.1	win	2023-06-24	23:35:43	0	0	6132cc58d1dcc24bcdb61606	1	1	DL_test	14	DL_test	15			0		ka	1	1281	6	2	antiphase_hc_ios.wav	3	6	4	noise_calib_stim_RIGHT.wav	2	24	blb_dichoticlistening_ka-ta.mp3	ka	ta	1	left
6.6.1	win	2023-06-24	23:35:43	0	0	6132cc58d1dcc24bcdb61606	1	1	DL_test	14	DL_test	16			0		ga	1	987	6	2	antiphase_hc_ios.wav	3	6	4	noise_calib_stim_RIGHT.wav	2	17	blb_dichoticlistening_ga-pa.mp3	ga	pa	1	left
6.6.1	win	2023-06-24	23:35:43	0	0	6132cc58d1dcc24bcdb61606	1	1	DL_test	14	DL_test	17			0		ta	1	1326	6	2	antiphase_hc_ios.wav	3	6	4	noise_calib_stim_RIGHT.wav	2	36	blb_dichoticlistening_ta-ta.mp3	ta	ta	0	left
6.6.1	win	2023-06-24	23:35:43	0	0	6132cc58d1dcc24bcdb61606	1	1	DL_test	14	DL_test	18			0		ga	1	1172	6	2	antiphase_hc_ios.wav	3	6	4	noise_calib_stim_RIGHT.wav	2	9	blb_dichoticlistening_da-ga.mp3	da	ga	1	right
6.6.1	win	2023-06-24	23:35:43	0	0	6132cc58d1dcc24bcdb61606	1	1	DL_test	14	DL_test	19			0		ka	0	1300	6	2	antiphase_hc_ios.wav	3	6	4	noise_calib_stim_RIGHT.wav	2	35	blb_dichoticlistening_ta-pa.mp3	ta	pa	1	other
6.6.1	win	2023-06-24	23:35:43	0	0	6132cc58d1dcc24bcdb61606	1	1	DL_test	14	DL_test	20			0		pa	0	1837	6	2	antiphase_hc_ios.wav	3	6	4	noise_calib_stim_RIGHT.wav	2	6	blb_dichoticlistening_ba-ta.mp3	ba	ta	1	other
6.6.1	win	2023-06-24	23:35:43	0	0	6132cc58d1dcc24bcdb61606	1	1	DL_test	14	DL_test	21			0		ta	1	1517	6	2	antiphase_hc_ios.wav	3	6	4	noise_calib_stim_RIGHT.wav	2	30	blb_dichoticlistening_pa-ta.mp3	pa	ta	1	right
6.6.1	win	2023-06-24	23:35:43	0	0	6132cc58d1dcc24bcdb61606	1	1	DL_test	14	DL_test	22			0		ba	1	3530	6	2	antiphase_hc_ios.wav	3	6	4	noise_calib_stim_RIGHT.wav	2	31	blb_dichoticlistening_ta-ba.mp3	ta	ba	1	right
6.6.1	win	2023-06-24	23:35:43	0	0	6132cc58d1dcc24bcdb61606	1	1	DL_test	14	DL_test	23			0		ba	1	3435	6	2	antiphase_hc_ios.wav	3	6	4	noise_calib_stim_RIGHT.wav	2	2	blb_dichoticlistening_ba-da.mp3	ba	da	1	left
6.6.1	win	2023-06-24	23:35:43	0	0	6132cc58d1dcc24bcdb61606	1	1	DL_test	14	DL_test	24			0		ga	1	1754	6	2	antiphase_hc_ios.wav	3	6	4	noise_calib_stim_RIGHT.wav	2	14	blb_dichoticlistening_ga-da.mp3	ga	da	1	left
6.6.1	win	2023-06-24	23:35:43	0	0	6132cc58d1dcc24bcdb61606	1	1	DL_test	14	DL_test	25			0		ba	1	1821	6	2	antiphase_hc_ios.wav	3	6	4	noise_calib_stim_RIGHT.wav	2	13	blb_dichoticlistening_ga-ba.mp3	ga	ba	1	right
6.6.1	win	2023-06-24	23:35:43	0	0	6132cc58d1dcc24bcdb61606	1	1	DL_test	14	DL_test	26			0		ka	1	1635	6	2	antiphase_hc_ios.wav	3	6	4	noise_calib_stim_RIGHT.wav	2	34	blb_dichoticlistening_ta-ka.mp3	ta	ka	1	right
6.6.1	win	2023-06-24	23:35:43	0	0	6132cc58d1dcc24bcdb61606	1	1	DL_test	14	DL_test	27			0		ta	1	1565	6	2	antiphase_hc_ios.wav	3	6	4	noise_calib_stim_RIGHT.wav	2	32	blb_dichoticlistening_ta-da.mp3	ta	da	1	left
6.6.1	win	2023-06-24	23:35:43	0	0	6132cc58d1dcc24bcdb61606	1	1	DL_test	14	DL_test	28			0		ka	1	1405	6	2	antiphase_hc_ios.wav	3	6	4	noise_calib_stim_RIGHT.wav	2	23	blb_dichoticlistening_ka-pa.mp3	ka	pa	1	left
6.6.1	win	2023-06-24	23:35:43	0	0	6132cc58d1dcc24bcdb61606	1	1	DL_test	14	DL_test	29			0		da	1	1294	6	2	antiphase_hc_ios.wav	3	6	4	noise_calib_stim_RIGHT.wav	2	12	blb_dichoticlistening_da-ta.mp3	da	ta	1	left
6.6.1	win	2023-06-24	23:35:43	0	0	6132cc58d1dcc24bcdb61606	1	1	DL_test	14	DL_test	30			0		pa	1	1471	6	2	antiphase_hc_ios.wav	3	6	4	noise_calib_stim_RIGHT.wav	2	29	blb_dichoticlistening_pa-pa.mp3	pa	pa	0	left
6.6.1	win	2023-06-24	23:35:43	0	0	6132cc58d1dcc24bcdb61606	1	1	DL_test	14	DL_test	31			0		da	1	1133	6	2	antiphase_hc_ios.wav	3	6	4	noise_calib_stim_RIGHT.wav	2	11	blb_dichoticlistening_da-pa.mp3	da	pa	1	left
6.6.1	win	2023-06-24	23:35:43	0	0	6132cc58d1dcc24bcdb61606	1	1	DL_test	14	DL_test	32			0		pa	1	1610	6	2	antiphase_hc_ios.wav	3	6	4	noise_calib_stim_RIGHT.wav	2	27	blb_dichoticlistening_pa-ga.mp3	pa	ga	1	left
6.6.1	win	2023-06-24	23:35:43	0	0	6132cc58d1dcc24bcdb61606	1	1	DL_test	14	DL_test	33			0		pa	1	769	6	2	antiphase_hc_ios.wav	3	6	4	noise_calib_stim_RIGHT.wav	2	25	blb_dichoticlistening_pa-ba.mp3	pa	ba	1	left
6.6.1	win	2023-06-24	23:35:43	0	0	6132cc58d1dcc24bcdb61606	1	1	DL_test	14	DL_test	34			0		ka	1	1105	6	2	antiphase_hc_ios.wav	3	6	4	noise_calib_stim_RIGHT.wav	2	20	blb_dichoticlistening_ka-da.mp3	ka	da	1	left
6.6.1	win	2023-06-24	23:35:43	0	0	6132cc58d1dcc24bcdb61606	1	1	DL_test	14	DL_test	35			0		ka	1	847	6	2	antiphase_hc_ios.wav	3	6	4	noise_calib_stim_RIGHT.wav	2	21	blb_dichoticlistening_ka-ga.mp3	ka	ga	1	left
6.6.1	win	2023-06-24	23:35:43	0	0	6132cc58d1dcc24bcdb61606	1	1	DL_test	14	DL_test	36			0		ba	1	1248	6	2	antiphase_hc_ios.wav	3	6	4	noise_calib_stim_RIGHT.wav	2	5	blb_dichoticlistening_ba-pa.mp3	ba	pa	1	left
6.6.1	win	2023-06-24	23:35:43	0	0	6132cc58d1dcc24bcdb61606	1	1	DL_test	15	DL_test	1			0		ka	0	2493	6	2	antiphase_hc_ios.wav	3	6	4	noise_calib_stim_RIGHT.wav	2	12	blb_dichoticlistening_da-ta.mp3	da	ta	1	other
6.6.1	win	2023-06-24	23:35:43	0	0	6132cc58d1dcc24bcdb61606	1	1	DL_test	15	DL_test	2			0		ka	1	803	6	2	antiphase_hc_ios.wav	3	6	4	noise_calib_stim_RIGHT.wav	2	16	blb_dichoticlistening_ga-ka.mp3	ga	ka	1	right
6.6.1	win	2023-06-24	23:35:43	0	0	6132cc58d1dcc24bcdb61606	1	1	DL_test	15	DL_test	3			0		ka	0	711	6	2	antiphase_hc_ios.wav	3	6	4	noise_calib_stim_RIGHT.wav	2	6	blb_dichoticlistening_ba-ta.mp3	ba	ta	1	other
6.6.1	win	2023-06-24	23:35:43	0	0	6132cc58d1dcc24bcdb61606	1	1	DL_test	15	DL_test	4			0		ba	1	1588	6	2	antiphase_hc_ios.wav	3	6	4	noise_calib_stim_RIGHT.wav	2	3	blb_dichoticlistening_ba-ga.mp3	ba	ga	1	left
6.6.1	win	2023-06-24	23:35:43	0	0	6132cc58d1dcc24bcdb61606	1	1	DL_test	15	DL_test	5			0		pa	1	1772	6	2	antiphase_hc_ios.wav	3	6	4	noise_calib_stim_RIGHT.wav	2	23	blb_dichoticlistening_ka-pa.mp3	ka	pa	1	right
6.6.1	win	2023-06-24	23:35:43	0	0	6132cc58d1dcc24bcdb61606	1	1	DL_test	15	DL_test	6			0		ga	1	1522	6	2	antiphase_hc_ios.wav	3	6	4	noise_calib_stim_RIGHT.wav	2	21	blb_dichoticlistening_ka-ga.mp3	ka	ga	1	right
6.6.1	win	2023-06-24	23:35:43	0	0	6132cc58d1dcc24bcdb61606	1	1	DL_test	15	DL_test	7			0		ta	1	1717	6	2	antiphase_hc_ios.wav	3	6	4	noise_calib_stim_RIGHT.wav	2	36	blb_dichoticlistening_ta-ta.mp3	ta	ta	0	left
6.6.1	win	2023-06-24	23:35:43	0	0	6132cc58d1dcc24bcdb61606	1	1	DL_test	15	DL_test	8			0		ka	1	1448	6	2	antiphase_hc_ios.wav	3	6	4	noise_calib_stim_RIGHT.wav	2	28	blb_dichoticlistening_pa-ka.mp3	pa	ka	1	right
6.6.1	win	2023-06-24	23:35:43	0	0	6132cc58d1dcc24bcdb61606	1	1	DL_test	15	DL_test	9			0		ka	1	607	6	2	antiphase_hc_ios.wav	3	6	4	noise_calib_stim_RIGHT.wav	2	22	blb_dichoticlistening_ka-ka.mp3	ka	ka	0	left
6.6.1	win	2023-06-24	23:35:43	0	0	6132cc58d1dcc24bcdb61606	1	1	DL_test	15	DL_test	10			0		ba	1	2773	6	2	antiphase_hc_ios.wav	3	6	4	noise_calib_stim_RIGHT.wav	2	7	blb_dichoticlistening_da-ba.mp3	da	ba	1	right
6.6.1	win	2023-06-24	23:35:43	0	0	6132cc58d1dcc24bcdb61606	1	1	DL_test	15	DL_test	11			0		da	1	1215	6	2	antiphase_hc_ios.wav	3	6	4	noise_calib_stim_RIGHT.wav	2	32	blb_dichoticlistening_ta-da.mp3	ta	da	1	right
6.6.1	win	2023-06-24	23:35:43	0	0	6132cc58d1dcc24bcdb61606	1	1	DL_test	15	DL_test	12			0		ba	1	1393	6	2	antiphase_hc_ios.wav	3	6	4	noise_calib_stim_RIGHT.wav	2	1	blb_dichoticlistening_ba-ba.mp3	ba	ba	0	left
6.6.1	win	2023-06-24	23:35:43	0	0	6132cc58d1dcc24bcdb61606	1	1	DL_test	15	DL_test	13			0		da	1	1150	6	2	antiphase_hc_ios.wav	3	6	4	noise_calib_stim_RIGHT.wav	2	14	blb_dichoticlistening_ga-da.mp3	ga	da	1	right
6.6.1	win	2023-06-24	23:35:43	0	0	6132cc58d1dcc24bcdb61606	1	1	DL_test	15	DL_test	14			0		pa	1	1289	6	2	antiphase_hc_ios.wav	3	6	4	noise_calib_stim_RIGHT.wav	2	29	blb_dichoticlistening_pa-pa.mp3	pa	pa	0	left
6.6.1	win	2023-06-24	23:35:43	0	0	6132cc58d1dcc24bcdb61606	1	1	DL_test	15	DL_test	15			0		ta	1	1023	6	2	antiphase_hc_ios.wav	3	6	4	noise_calib_stim_RIGHT.wav	2	30	blb_dichoticlistening_pa-ta.mp3	pa	ta	1	right
6.6.1	win	2023-06-24	23:35:43	0	0	6132cc58d1dcc24bcdb61606	1	1	DL_test	15	DL_test	16			0		da	1	1473	6	2	antiphase_hc_ios.wav	3	6	4	noise_calib_stim_RIGHT.wav	2	20	blb_dichoticlistening_ka-da.mp3	ka	da	1	right
6.6.1	win	2023-06-24	23:35:43	0	0	6132cc58d1dcc24bcdb61606	1	1	DL_test	15	DL_test	17			0		ga	1	1392	6	2	antiphase_hc_ios.wav	3	6	4	noise_calib_stim_RIGHT.wav	2	9	blb_dichoticlistening_da-ga.mp3	da	ga	1	right
6.6.1	win	2023-06-24	23:35:43	0	0	6132cc58d1dcc24bcdb61606	1	1	DL_test	15	DL_test	18			0		pa	1	1544	6	2	antiphase_hc_ios.wav	3	6	4	noise_calib_stim_RIGHT.wav	2	11	blb_dichoticlistening_da-pa.mp3	da	pa	1	right
6.6.1	win	2023-06-24	23:35:43	0	0	6132cc58d1dcc24bcdb61606	1	1	DL_test	15	DL_test	19			0		pa	1	642	6	2	antiphase_hc_ios.wav	3	6	4	noise_calib_stim_RIGHT.wav	2	17	blb_dichoticlistening_ga-pa.mp3	ga	pa	1	right
6.6.1	win	2023-06-24	23:35:43	0	0	6132cc58d1dcc24bcdb61606	1	1	DL_test	15	DL_test	20			0		pa	1	563	6	2	antiphase_hc_ios.wav	3	6	4	noise_calib_stim_RIGHT.wav	2	35	blb_dichoticlistening_ta-pa.mp3	ta	pa	1	right
6.6.1	win	2023-06-24	23:35:43	0	0	6132cc58d1dcc24bcdb61606	1	1	DL_test	15	DL_test	21			0		ba	1	1434	6	2	antiphase_hc_ios.wav	3	6	4	noise_calib_stim_RIGHT.wav	2	31	blb_dichoticlistening_ta-ba.mp3	ta	ba	1	right
6.6.1	win	2023-06-24	23:35:43	0	0	6132cc58d1dcc24bcdb61606	1	1	DL_test	15	DL_test	22			0		ga	1	1628	6	2	antiphase_hc_ios.wav	3	6	4	noise_calib_stim_RIGHT.wav	2	33	blb_dichoticlistening_ta-ga.mp3	ta	ga	1	right
6.6.1	win	2023-06-24	23:35:43	0	0	6132cc58d1dcc24bcdb61606	1	1	DL_test	15	DL_test	23			0		ga	1	690	6	2	antiphase_hc_ios.wav	3	6	4	noise_calib_stim_RIGHT.wav	2	27	blb_dichoticlistening_pa-ga.mp3	pa	ga	1	right
6.6.1	win	2023-06-24	23:35:43	0	0	6132cc58d1dcc24bcdb61606	1	1	DL_test	15	DL_test	24			0		ba	1	2074	6	2	antiphase_hc_ios.wav	3	6	4	noise_calib_stim_RIGHT.wav	2	19	blb_dichoticlistening_ka-ba.mp3	ka	ba	1	right
6.6.1	win	2023-06-24	23:35:43	0	0	6132cc58d1dcc24bcdb61606	1	1	DL_test	15	DL_test	25			0		ba	1	764	6	2	antiphase_hc_ios.wav	3	6	4	noise_calib_stim_RIGHT.wav	2	25	blb_dichoticlistening_pa-ba.mp3	pa	ba	1	right
6.6.1	win	2023-06-24	23:35:43	0	0	6132cc58d1dcc24bcdb61606	1	1	DL_test	15	DL_test	26			0		da	1	980	6	2	antiphase_hc_ios.wav	3	6	4	noise_calib_stim_RIGHT.wav	2	8	blb_dichoticlistening_da-da.mp3	da	da	0	left
6.6.1	win	2023-06-24	23:35:43	0	0	6132cc58d1dcc24bcdb61606	1	1	DL_test	15	DL_test	27			0		ba	1	1563	6	2	antiphase_hc_ios.wav	3	6	4	noise_calib_stim_RIGHT.wav	2	2	blb_dichoticlistening_ba-da.mp3	ba	da	1	left
6.6.1	win	2023-06-24	23:35:43	0	0	6132cc58d1dcc24bcdb61606	1	1	DL_test	15	DL_test	28			0		pa	1	1571	6	2	antiphase_hc_ios.wav	3	6	4	noise_calib_stim_RIGHT.wav	2	5	blb_dichoticlistening_ba-pa.mp3	ba	pa	1	right
6.6.1	win	2023-06-24	23:35:43	0	0	6132cc58d1dcc24bcdb61606	1	1	DL_test	15	DL_test	29			0		pa	0	774	6	2	antiphase_hc_ios.wav	3	6	4	noise_calib_stim_RIGHT.wav	2	10	blb_dichoticlistening_da-ka.mp3	da	ka	1	other
6.6.1	win	2023-06-24	23:35:43	0	0	6132cc58d1dcc24bcdb61606	1	1	DL_test	15	DL_test	30			0		ba	1	1689	6	2	antiphase_hc_ios.wav	3	6	4	noise_calib_stim_RIGHT.wav	2	13	blb_dichoticlistening_ga-ba.mp3	ga	ba	1	right
6.6.1	win	2023-06-24	23:35:43	0	0	6132cc58d1dcc24bcdb61606	1	1	DL_test	15	DL_test	31			0		da	1	1280	6	2	antiphase_hc_ios.wav	3	6	4	noise_calib_stim_RIGHT.wav	2	26	blb_dichoticlistening_pa-da.mp3	pa	da	1	right
6.6.1	win	2023-06-24	23:35:43	0	0	6132cc58d1dcc24bcdb61606	1	1	DL_test	15	DL_test	32			0		ka	1	1483	6	2	antiphase_hc_ios.wav	3	6	4	noise_calib_stim_RIGHT.wav	2	34	blb_dichoticlistening_ta-ka.mp3	ta	ka	1	right
6.6.1	win	2023-06-24	23:35:43	0	0	6132cc58d1dcc24bcdb61606	1	1	DL_test	15	DL_test	33			0		ka	1	707	6	2	antiphase_hc_ios.wav	3	6	4	noise_calib_stim_RIGHT.wav	2	4	blb_dichoticlistening_ba-ka.mp3	ba	ka	1	right
6.6.1	win	2023-06-24	23:35:43	0	0	6132cc58d1dcc24bcdb61606	1	1	DL_test	15	DL_test	34			0		ta	1	1263	6	2	antiphase_hc_ios.wav	3	6	4	noise_calib_stim_RIGHT.wav	2	24	blb_dichoticlistening_ka-ta.mp3	ka	ta	1	right
6.6.1	win	2023-06-24	23:35:43	0	0	6132cc58d1dcc24bcdb61606	1	1	DL_test	15	DL_test	35			0		ga	1	1240	6	2	antiphase_hc_ios.wav	3	6	4	noise_calib_stim_RIGHT.wav	2	15	blb_dichoticlistening_ga-ga.mp3	ga	ga	0	left
6.6.1	win	2023-06-24	23:35:43	0	0	6132cc58d1dcc24bcdb61606	1	1	DL_test	15	DL_test	36			0		ga	1	539	6	2	antiphase_hc_ios.wav	3	6	4	noise_calib_stim_RIGHT.wav	2	18	blb_dichoticlistening_ga-ta.mp3	ga	ta	1	left
6.6.1	win	2023-06-24	23:35:43	0	0	6132cc58d1dcc24bcdb61606	1	1	DL_test	16	DL_test	1			0		ga	1	1675	6	2	antiphase_hc_ios.wav	3	6	4	noise_calib_stim_RIGHT.wav	2	18	blb_dichoticlistening_ga-ta.mp3	ga	ta	1	left
6.6.1	win	2023-06-24	23:35:43	0	0	6132cc58d1dcc24bcdb61606	1	1	DL_test	16	DL_test	2			0		da	1	1168	6	2	antiphase_hc_ios.wav	3	6	4	noise_calib_stim_RIGHT.wav	2	14	blb_dichoticlistening_ga-da.mp3	ga	da	1	right
6.6.1	win	2023-06-24	23:35:43	0	0	6132cc58d1dcc24bcdb61606	1	1	DL_test	16	DL_test	3			0		ka	1	1895	6	2	antiphase_hc_ios.wav	3	6	4	noise_calib_stim_RIGHT.wav	2	16	blb_dichoticlistening_ga-ka.mp3	ga	ka	1	right
6.6.1	win	2023-06-24	23:35:43	0	0	6132cc58d1dcc24bcdb61606	1	1	DL_test	16	DL_test	4			0		ka	1	667	6	2	antiphase_hc_ios.wav	3	6	4	noise_calib_stim_RIGHT.wav	2	34	blb_dichoticlistening_ta-ka.mp3	ta	ka	1	right
6.6.1	win	2023-06-24	23:35:43	0	0	6132cc58d1dcc24bcdb61606	1	1	DL_test	16	DL_test	5			0		ba	1	1708	6	2	antiphase_hc_ios.wav	3	6	4	noise_calib_stim_RIGHT.wav	2	1	blb_dichoticlistening_ba-ba.mp3	ba	ba	0	left
6.6.1	win	2023-06-24	23:35:43	0	0	6132cc58d1dcc24bcdb61606	1	1	DL_test	16	DL_test	6			0		ba	1	817	6	2	antiphase_hc_ios.wav	3	6	4	noise_calib_stim_RIGHT.wav	2	7	blb_dichoticlistening_da-ba.mp3	da	ba	1	right
6.6.1	win	2023-06-24	23:35:43	0	0	6132cc58d1dcc24bcdb61606	1	1	DL_test	16	DL_test	7			0		da	1	1423	6	2	antiphase_hc_ios.wav	3	6	4	noise_calib_stim_RIGHT.wav	2	32	blb_dichoticlistening_ta-da.mp3	ta	da	1	right
6.6.1	win	2023-06-24	23:35:43	0	0	6132cc58d1dcc24bcdb61606	1	1	DL_test	16	DL_test	8			0		ba	1	1552	6	2	antiphase_hc_ios.wav	3	6	4	noise_calib_stim_RIGHT.wav	2	3	blb_dichoticlistening_ba-ga.mp3	ba	ga	1	left
6.6.1	win	2023-06-24	23:35:43	0	0	6132cc58d1dcc24bcdb61606	1	1	DL_test	16	DL_test	9			0		ka	1	1394	6	2	antiphase_hc_ios.wav	3	6	4	noise_calib_stim_RIGHT.wav	2	28	blb_dichoticlistening_pa-ka.mp3	pa	ka	1	right
6.6.1	win	2023-06-24	23:35:43	0	0	6132cc58d1dcc24bcdb61606	1	1	DL_test	16	DL_test	10			0		ga	1	1344	6	2	antiphase_hc_ios.wav	3	6	4	noise_calib_stim_RIGHT.wav	2	9	blb_dichoticlistening_da-ga.mp3	da	ga	1	right
6.6.1	win	2023-06-24	23:35:43	0	0	6132cc58d1dcc24bcdb61606	1	1	DL_test	16	DL_test	11			0		ka	1	1446	6	2	antiphase_hc_ios.wav	3	6	4	noise_calib_stim_RIGHT.wav	2	22	blb_dichoticlistening_ka-ka.mp3	ka	ka	0	left
6.6.1	win	2023-06-24	23:35:43	0	0	6132cc58d1dcc24bcdb61606	1	1	DL_test	16	DL_test	12			0		ka	0	825	6	2	antiphase_hc_ios.wav	3	6	4	noise_calib_stim_RIGHT.wav	2	11	blb_dichoticlistening_da-pa.mp3	da	pa	1	other
6.6.1	win	2023-06-24	23:35:43	0	0	6132cc58d1dcc24bcdb61606	1	1	DL_test	16	DL_test	13			0		ba	1	1750	6	2	antiphase_hc_ios.wav	3	6	4	noise_calib_stim_RIGHT.wav	2	2	blb_dichoticlistening_ba-da.mp3	ba	da	1	left
6.6.1	win	2023-06-24	23:35:43	0	0	6132cc58d1dcc24bcdb61606	1	1	DL_test	16	DL_test	14			0		ga	1	1373	6	2	antiphase_hc_ios.wav	3	6	4	noise_calib_stim_RIGHT.wav	2	15	blb_dichoticlistening_ga-ga.mp3	ga	ga	0	left
6.6.1	win	2023-06-24	23:35:43	0	0	6132cc58d1dcc24bcdb61606	1	1	DL_test	16	DL_test	15			0		ga	1	968	6	2	antiphase_hc_ios.wav	3	6	4	noise_calib_stim_RIGHT.wav	2	33	blb_dichoticlistening_ta-ga.mp3	ta	ga	1	right
6.6.1	win	2023-06-24	23:35:43	0	0	6132cc58d1dcc24bcdb61606	1	1	DL_test	16	DL_test	16			0		da	1	1353	6	2	antiphase_hc_ios.wav	3	6	4	noise_calib_stim_RIGHT.wav	2	12	blb_dichoticlistening_da-ta.mp3	da	ta	1	left
6.6.1	win	2023-06-24	23:35:43	0	0	6132cc58d1dcc24bcdb61606	1	1	DL_test	16	DL_test	17			0		da	1	703	6	2	antiphase_hc_ios.wav	3	6	4	noise_calib_stim_RIGHT.wav	2	20	blb_dichoticlistening_ka-da.mp3	ka	da	1	right
6.6.1	win	2023-06-24	23:35:43	0	0	6132cc58d1dcc24bcdb61606	1	1	DL_test	16	DL_test	18			0		ga	1	1266	6	2	antiphase_hc_ios.wav	3	6	4	noise_calib_stim_RIGHT.wav	2	27	blb_dichoticlistening_pa-ga.mp3	pa	ga	1	right
6.6.1	win	2023-06-24	23:35:43	0	0	6132cc58d1dcc24bcdb61606	1	1	DL_test	16	DL_test	19			0		pa	1	1252	6	2	antiphase_hc_ios.wav	3	6	4	noise_calib_stim_RIGHT.wav	2	5	blb_dichoticlistening_ba-pa.mp3	ba	pa	1	right
6.6.1	win	2023-06-24	23:35:43	0	0	6132cc58d1dcc24bcdb61606	1	1	DL_test	16	DL_test	20			0		da	1	1645	6	2	antiphase_hc_ios.wav	3	6	4	noise_calib_stim_RIGHT.wav	2	8	blb_dichoticlistening_da-da.mp3	da	da	0	left
6.6.1	win	2023-06-24	23:35:43	0	0	6132cc58d1dcc24bcdb61606	1	1	DL_test	16	DL_test	21			0		ba	1	1472	6	2	antiphase_hc_ios.wav	3	6	4	noise_calib_stim_RIGHT.wav	2	19	blb_dichoticlistening_ka-ba.mp3	ka	ba	1	right
6.6.1	win	2023-06-24	23:35:43	0	0	6132cc58d1dcc24bcdb61606	1	1	DL_test	16	DL_test	22			0		pa	1	917	6	2	antiphase_hc_ios.wav	3	6	4	noise_calib_stim_RIGHT.wav	2	29	blb_dichoticlistening_pa-pa.mp3	pa	pa	0	left
6.6.1	win	2023-06-24	23:35:43	0	0	6132cc58d1dcc24bcdb61606	1	1	DL_test	16	DL_test	23			0		ga	0	1463	6	2	antiphase_hc_ios.wav	3	6	4	noise_calib_stim_RIGHT.wav	2	26	blb_dichoticlistening_pa-da.mp3	pa	da	1	other
6.6.1	win	2023-06-24	23:35:43	0	0	6132cc58d1dcc24bcdb61606	1	1	DL_test	16	DL_test	24			0		ka	1	1244	6	2	antiphase_hc_ios.wav	3	6	4	noise_calib_stim_RIGHT.wav	2	10	blb_dichoticlistening_da-ka.mp3	da	ka	1	right
6.6.1	win	2023-06-24	23:35:43	0	0	6132cc58d1dcc24bcdb61606	1	1	DL_test	16	DL_test	25			0		ba	1	1624	6	2	antiphase_hc_ios.wav	3	6	4	noise_calib_stim_RIGHT.wav	2	25	blb_dichoticlistening_pa-ba.mp3	pa	ba	1	right
6.6.1	win	2023-06-24	23:35:43	0	0	6132cc58d1dcc24bcdb61606	1	1	DL_test	16	DL_test	26			0		ta	1	1842	6	2	antiphase_hc_ios.wav	3	6	4	noise_calib_stim_RIGHT.wav	2	30	blb_dichoticlistening_pa-ta.mp3	pa	ta	1	right
6.6.1	win	2023-06-24	23:35:43	0	0	6132cc58d1dcc24bcdb61606	1	1	DL_test	16	DL_test	27			0		ga	1	1506	6	2	antiphase_hc_ios.wav	3	6	4	noise_calib_stim_RIGHT.wav	2	21	blb_dichoticlistening_ka-ga.mp3	ka	ga	1	right
6.6.1	win	2023-06-24	23:35:43	0	0	6132cc58d1dcc24bcdb61606	1	1	DL_test	16	DL_test	28			0		pa	0	1209	6	2	antiphase_hc_ios.wav	3	6	4	noise_calib_stim_RIGHT.wav	2	6	blb_dichoticlistening_ba-ta.mp3	ba	ta	1	other
6.6.1	win	2023-06-24	23:35:43	0	0	6132cc58d1dcc24bcdb61606	1	1	DL_test	16	DL_test	29			0		ta	1	1452	6	2	antiphase_hc_ios.wav	3	6	4	noise_calib_stim_RIGHT.wav	2	36	blb_dichoticlistening_ta-ta.mp3	ta	ta	0	left
6.6.1	win	2023-06-24	23:35:43	0	0	6132cc58d1dcc24bcdb61606	1	1	DL_test	16	DL_test	30			0		ba	1	1841	6	2	antiphase_hc_ios.wav	3	6	4	noise_calib_stim_RIGHT.wav	2	13	blb_dichoticlistening_ga-ba.mp3	ga	ba	1	right
6.6.1	win	2023-06-24	23:35:43	0	0	6132cc58d1dcc24bcdb61606	1	1	DL_test	16	DL_test	31			0		ka	1	1315	6	2	antiphase_hc_ios.wav	3	6	4	noise_calib_stim_RIGHT.wav	2	24	blb_dichoticlistening_ka-ta.mp3	ka	ta	1	left
6.6.1	win	2023-06-24	23:35:43	0	0	6132cc58d1dcc24bcdb61606	1	1	DL_test	16	DL_test	32			0		ba	1	1755	6	2	antiphase_hc_ios.wav	3	6	4	noise_calib_stim_RIGHT.wav	2	31	blb_dichoticlistening_ta-ba.mp3	ta	ba	1	right
6.6.1	win	2023-06-24	23:35:43	0	0	6132cc58d1dcc24bcdb61606	1	1	DL_test	16	DL_test	33			0		pa	1	1844	6	2	antiphase_hc_ios.wav	3	6	4	noise_calib_stim_RIGHT.wav	2	23	blb_dichoticlistening_ka-pa.mp3	ka	pa	1	right
6.6.1	win	2023-06-24	23:35:43	0	0	6132cc58d1dcc24bcdb61606	1	1	DL_test	16	DL_test	34			0		ka	0	1180	6	2	antiphase_hc_ios.wav	3	6	4	noise_calib_stim_RIGHT.wav	2	17	blb_dichoticlistening_ga-pa.mp3	ga	pa	1	other
6.6.1	win	2023-06-24	23:35:43	0	0	6132cc58d1dcc24bcdb61606	1	1	DL_test	16	DL_test	35			0		ka	1	812	6	2	antiphase_hc_ios.wav	3	6	4	noise_calib_stim_RIGHT.wav	2	4	blb_dichoticlistening_ba-ka.mp3	ba	ka	1	right
6.6.1	win	2023-06-24	23:35:43	0	0	6132cc58d1dcc24bcdb61606	1	1	DL_test	16	DL_test	36			0		pa	1	1377	6	2	antiphase_hc_ios.wav	3	6	4	noise_calib_stim_RIGHT.wav	2	35	blb_dichoticlistening_ta-pa.mp3	ta	pa	1	right
6.6.1	win	2023-06-24	23:35:43	23:52:39	1012696	6132cc58d1dcc24bcdb61606	1	1	practice_slash	22	practice_slash	1	stimuli_target_rectanglediamonds.svg	stimuli_distractor_trianglediamonds.svg	4	yes	53	1	513	6	2	antiphase_hc_ios.wav	3	6	4	noise_calib_stim_RIGHT.wav	2	35	blb_dichoticlistening_ta-pa.mp3	ta	pa	1	right
6.6.1	win	2023-06-24	23:35:43	23:52:39	1012696	6132cc58d1dcc24bcdb61606	1	1	practice_slash	22	advance_on_keypress_SLASH	2	stimuli_target_rectanglediamonds.svg	stimuli_distractor_trianglediamonds.svg	4	yes	57	0	1625	6	2	antiphase_hc_ios.wav	3	6	4	noise_calib_stim_RIGHT.wav	2	35	blb_dichoticlistening_ta-pa.mp3	ta	pa	1	right
6.6.1	win	2023-06-24	23:35:43	23:52:43	1016346	6132cc58d1dcc24bcdb61606	1	1	practice_slash	22	practice_slash	3	stimuli_distractor_diamondtriangles.svg	stimuli_target_rectangletriangles.svg	7	yes	53	1	365	6	2	antiphase_hc_ios.wav	3	6	4	noise_calib_stim_RIGHT.wav	2	35	blb_dichoticlistening_ta-pa.mp3	ta	pa	1	right
6.6.1	win	2023-06-24	23:35:43	23:52:43	1016346	6132cc58d1dcc24bcdb61606	1	1	practice_slash	22	advance_on_keypress_SLASH	4	stimuli_distractor_diamondtriangles.svg	stimuli_target_rectangletriangles.svg	7	yes	57	0	632	6	2	antiphase_hc_ios.wav	3	6	4	noise_calib_stim_RIGHT.wav	2	35	blb_dichoticlistening_ta-pa.mp3	ta	pa	1	right
6.6.1	win	2023-06-24	23:35:43	23:52:46	1018954	6132cc58d1dcc24bcdb61606	1	1	practice_slash	22	practice_slash	5	stimuli_target_squarediamonds.svg	stimuli_distractor_trianglediamonds.svg	5	yes	53	1	323	6	2	antiphase_hc_ios.wav	3	6	4	noise_calib_stim_RIGHT.wav	2	35	blb_dichoticlistening_ta-pa.mp3	ta	pa	1	right
6.6.1	win	2023-06-24	23:35:43	23:52:46	1018954	6132cc58d1dcc24bcdb61606	1	1	practice_slash	22	advance_on_keypress_SLASH	6	stimuli_target_squarediamonds.svg	stimuli_distractor_trianglediamonds.svg	5	yes	57	0	537	6	2	antiphase_hc_ios.wav	3	6	4	noise_calib_stim_RIGHT.wav	2	35	blb_dichoticlistening_ta-pa.mp3	ta	pa	1	right
6.6.1	win	2023-06-24	23:35:43	23:52:48	1021675	6132cc58d1dcc24bcdb61606	1	1	practice_slash	22	practice_slash	7	stimuli_target_diamondsquares.svg	stimuli_distractor_diamondtriangles.svg	3	yes	53	1	544	6	2	antiphase_hc_ios.wav	3	6	4	noise_calib_stim_RIGHT.wav	2	35	blb_dichoticlistening_ta-pa.mp3	ta	pa	1	right
6.6.1	win	2023-06-24	23:35:43	23:52:48	1021675	6132cc58d1dcc24bcdb61606	1	1	practice_slash	22	advance_on_keypress_SLASH	8	stimuli_target_diamondsquares.svg	stimuli_distractor_diamondtriangles.svg	3	yes	57	0	542	6	2	antiphase_hc_ios.wav	3	6	4	noise_calib_stim_RIGHT.wav	2	35	blb_dichoticlistening_ta-pa.mp3	ta	pa	1	right
6.6.1	win	2023-06-24	23:35:43	23:52:51	1024353	6132cc58d1dcc24bcdb61606	1	1	practice_slash	22	practice_slash	9	stimuli_distractor_diamondtriangles.svg	stimuli_target_diamondrectangles.svg	8	yes	53	1	389	6	2	antiphase_hc_ios.wav	3	6	4	noise_calib_stim_RIGHT.wav	2	35	blb_dichoticlistening_ta-pa.mp3	ta	pa	1	right
6.6.1	win	2023-06-24	23:35:43	23:52:51	1024353	6132cc58d1dcc24bcdb61606	1	1	practice_slash	22	advance_on_keypress_SLASH	10	stimuli_distractor_diamondtriangles.svg	stimuli_target_diamondrectangles.svg	8	yes	57	0	73	6	2	antiphase_hc_ios.wav	3	6	4	noise_calib_stim_RIGHT.wav	2	35	blb_dichoticlistening_ta-pa.mp3	ta	pa	1	right
6.6.1	win	2023-06-24	23:35:43	23:52:55	1028117	6132cc58d1dcc24bcdb61606	1	1	practice_slash	22	practice_slash	11	stimuli_distractor_trianglediamonds.svg	stimuli_target_squarediamonds.svg	11	yes	0	0	2000	6	2	antiphase_hc_ios.wav	3	6	4	noise_calib_stim_RIGHT.wav	2	35	blb_dichoticlistening_ta-pa.mp3	ta	pa	1	right
6.6.1	win	2023-06-24	23:35:43	23:52:55	1028117	6132cc58d1dcc24bcdb61606	1	1	practice_slash	22	advance_on_keypress_SLASH	12	stimuli_distractor_trianglediamonds.svg	stimuli_target_squarediamonds.svg	11	yes	57	0	555	6	2	antiphase_hc_ios.wav	3	6	4	noise_calib_stim_RIGHT.wav	2	35	blb_dichoticlistening_ta-pa.mp3	ta	pa	1	right
6.6.1	win	2023-06-24	23:35:43	23:52:57	1030770	6132cc58d1dcc24bcdb61606	1	1	practice_slash	22	practice_slash	13	stimuli_distractor_diamondtriangles.svg	stimuli_target_trianglerectangles.svg	9	yes	53	1	353	6	2	antiphase_hc_ios.wav	3	6	4	noise_calib_stim_RIGHT.wav	2	35	blb_dichoticlistening_ta-pa.mp3	ta	pa	1	right
6.6.1	win	2023-06-24	23:35:43	23:52:57	1030770	6132cc58d1dcc24bcdb61606	1	1	practice_slash	22	advance_on_keypress_SLASH	14	stimuli_distractor_diamondtriangles.svg	stimuli_target_trianglerectangles.svg	9	yes	57	0	397	6	2	antiphase_hc_ios.wav	3	6	4	noise_calib_stim_RIGHT.wav	2	35	blb_dichoticlistening_ta-pa.mp3	ta	pa	1	right
6.6.1	win	2023-06-24	23:35:43	23:53:00	1033268	6132cc58d1dcc24bcdb61606	1	1	practice_slash	22	practice_slash	15	stimuli_distractor_trianglediamonds.svg	stimuli_target_diamondrectangles.svg	12	yes	53	1	359	6	2	antiphase_hc_ios.wav	3	6	4	noise_calib_stim_RIGHT.wav	2	35	blb_dichoticlistening_ta-pa.mp3	ta	pa	1	right
6.6.1	win	2023-06-24	23:35:43	23:53:00	1033268	6132cc58d1dcc24bcdb61606	1	1	practice_slash	22	advance_on_keypress_SLASH	16	stimuli_distractor_trianglediamonds.svg	stimuli_target_diamondrectangles.svg	12	yes	57	0	332	6	2	antiphase_hc_ios.wav	3	6	4	noise_calib_stim_RIGHT.wav	2	35	blb_dichoticlistening_ta-pa.mp3	ta	pa	1	right
6.6.1	win	2023-06-24	23:35:43	23:53:04	1037250	6132cc58d1dcc24bcdb61606	1	1	practice_slash	22	practice_slash	17	stimuli_distractor_diamondtriangles.svg	stimuli_distractor_diamondtriangles.svg	13	no	0	1	2000	6	2	antiphase_hc_ios.wav	3	6	4	noise_calib_stim_RIGHT.wav	2	35	blb_dichoticlistening_ta-pa.mp3	ta	pa	1	right
6.6.1	win	2023-06-24	23:35:43	23:53:04	1037250	6132cc58d1dcc24bcdb61606	1	1	practice_slash	22	advance_on_keypress_SLASH	18	stimuli_distractor_diamondtriangles.svg	stimuli_distractor_diamondtriangles.svg	13	no	57	0	384	6	2	antiphase_hc_ios.wav	3	6	4	noise_calib_stim_RIGHT.wav	2	35	blb_dichoticlistening_ta-pa.mp3	ta	pa	1	right
6.6.1	win	2023-06-24	23:35:43	23:53:08	1041391	6132cc58d1dcc24bcdb61606	1	1	practice_slash	22	practice_slash	19	stimuli_distractor_diamondtriangles.svg	stimuli_distractor_trianglediamonds.svg	14	no	0	1	2000	6	2	antiphase_hc_ios.wav	3	6	4	noise_calib_stim_RIGHT.wav	2	35	blb_dichoticlistening_ta-pa.mp3	ta	pa	1	right
6.6.1	win	2023-06-24	23:35:43	23:53:08	1041391	6132cc58d1dcc24bcdb61606	1	1	practice_slash	22	advance_on_keypress_SLASH	20	stimuli_distractor_diamondtriangles.svg	stimuli_distractor_trianglediamonds.svg	14	no	57	0	372	6	2	antiphase_hc_ios.wav	3	6	4	noise_calib_stim_RIGHT.wav	2	35	blb_dichoticlistening_ta-pa.mp3	ta	pa	1	right
6.6.1	win	2023-06-24	23:35:43	23:53:11	1044312	6132cc58d1dcc24bcdb61606	1	1	practice_slash	22	practice_slash	21	stimuli_distractor_trianglediamonds.svg	stimuli_target_rectanglediamonds.svg	10	yes	53	1	806	6	2	antiphase_hc_ios.wav	3	6	4	noise_calib_stim_RIGHT.wav	2	35	blb_dichoticlistening_ta-pa.mp3	ta	pa	1	right
6.6.1	win	2023-06-24	23:35:43	23:53:11	1044312	6132cc58d1dcc24bcdb61606	1	1	practice_slash	22	advance_on_keypress_SLASH	22	stimuli_distractor_trianglediamonds.svg	stimuli_target_rectanglediamonds.svg	10	yes	57	0	449	6	2	antiphase_hc_ios.wav	3	6	4	noise_calib_stim_RIGHT.wav	2	35	blb_dichoticlistening_ta-pa.mp3	ta	pa	1	right
6.6.1	win	2023-06-24	23:35:43	23:53:15	1048506	6132cc58d1dcc24bcdb61606	1	1	practice_slash	22	practice_slash	23	stimuli_distractor_trianglediamonds.svg	stimuli_distractor_diamondtriangles.svg	16	no	0	1	2000	6	2	antiphase_hc_ios.wav	3	6	4	noise_calib_stim_RIGHT.wav	2	35	blb_dichoticlistening_ta-pa.mp3	ta	pa	1	right
6.6.1	win	2023-06-24	23:35:43	23:53:15	1048506	6132cc58d1dcc24bcdb61606	1	1	practice_slash	22	advance_on_keypress_SLASH	24	stimuli_distractor_trianglediamonds.svg	stimuli_distractor_diamondtriangles.svg	16	no	57	0	402	6	2	antiphase_hc_ios.wav	3	6	4	noise_calib_stim_RIGHT.wav	2	35	blb_dichoticlistening_ta-pa.mp3	ta	pa	1	right
6.6.1	win	2023-06-24	23:35:43	23:53:19	1052652	6132cc58d1dcc24bcdb61606	1	1	practice_slash	22	practice_slash	25	stimuli_distractor_trianglediamonds.svg	stimuli_distractor_trianglediamonds.svg	15	no	0	1	2000	6	2	antiphase_hc_ios.wav	3	6	4	noise_calib_stim_RIGHT.wav	2	35	blb_dichoticlistening_ta-pa.mp3	ta	pa	1	right
6.6.1	win	2023-06-24	23:35:43	23:53:19	1052652	6132cc58d1dcc24bcdb61606	1	1	practice_slash	22	advance_on_keypress_SLASH	26	stimuli_distractor_trianglediamonds.svg	stimuli_distractor_trianglediamonds.svg	15	no	57	0	380	6	2	antiphase_hc_ios.wav	3	6	4	noise_calib_stim_RIGHT.wav	2	35	blb_dichoticlistening_ta-pa.mp3	ta	pa	1	right
6.6.1	win	2023-06-24	23:35:43	23:53:22	1055541	6132cc58d1dcc24bcdb61606	1	1	practice_slash	22	practice_slash	27	stimuli_target_squarediamonds.svg	stimuli_distractor_diamondtriangles.svg	2	yes	53	1	757	6	2	antiphase_hc_ios.wav	3	6	4	noise_calib_stim_RIGHT.wav	2	35	blb_dichoticlistening_ta-pa.mp3	ta	pa	1	right
6.6.1	win	2023-06-24	23:35:43	23:53:22	1055541	6132cc58d1dcc24bcdb61606	1	1	practice_slash	22	advance_on_keypress_SLASH	28	stimuli_target_squarediamonds.svg	stimuli_distractor_diamondtriangles.svg	2	yes	57	0	426	6	2	antiphase_hc_ios.wav	3	6	4	noise_calib_stim_RIGHT.wav	2	35	blb_dichoticlistening_ta-pa.mp3	ta	pa	1	right
6.6.1	win	2023-06-24	23:35:43	23:53:25	1058394	6132cc58d1dcc24bcdb61606	1	1	practice_slash	22	practice_slash	29	stimuli_target_diamondsquares.svg	stimuli_distractor_trianglediamonds.svg	6	yes	53	1	684	6	2	antiphase_hc_ios.wav	3	6	4	noise_calib_stim_RIGHT.wav	2	35	blb_dichoticlistening_ta-pa.mp3	ta	pa	1	right
6.6.1	win	2023-06-24	23:35:43	23:53:25	1058394	6132cc58d1dcc24bcdb61606	1	1	practice_slash	22	advance_on_keypress_SLASH	30	stimuli_target_diamondsquares.svg	stimuli_distractor_trianglediamonds.svg	6	yes	57	0	411	6	2	antiphase_hc_ios.wav	3	6	4	noise_calib_stim_RIGHT.wav	2	35	blb_dichoticlistening_ta-pa.mp3	ta	pa	1	right
6.6.1	win	2023-06-24	23:35:43	23:53:28	1061227	6132cc58d1dcc24bcdb61606	1	1	practice_slash	22	practice_slash	31	stimuli_target_rectanglediamonds.svg	stimuli_distractor_diamondtriangles.svg	1	yes	53	1	678	6	2	antiphase_hc_ios.wav	3	6	4	noise_calib_stim_RIGHT.wav	2	35	blb_dichoticlistening_ta-pa.mp3	ta	pa	1	right
6.6.1	win	2023-06-24	23:35:43	23:53:28	1061227	6132cc58d1dcc24bcdb61606	1	1	practice_slash	22	advance_on_keypress_SLASH	32	stimuli_target_rectanglediamonds.svg	stimuli_distractor_diamondtriangles.svg	1	yes	57	0	494	6	2	antiphase_hc_ios.wav	3	6	4	noise_calib_stim_RIGHT.wav	2	35	blb_dichoticlistening_ta-pa.mp3	ta	pa	1	right
6.6.1	win	2023-06-24	23:35:43	23:54:27	1120545	6132cc58d1dcc24bcdb61606	1	1	main_slash	24	main_slash	1	stimuli_distractor_trianglediamonds.svg	stimuli_target_squarediamonds.svg	12	yes	53	1	478	6	2	antiphase_hc_ios.wav	3	6	4	noise_calib_stim_RIGHT.wav	2	35	blb_dichoticlistening_ta-pa.mp3	ta	pa	1	right
6.6.1	win	2023-06-24	23:35:43	23:54:27	1120545	6132cc58d1dcc24bcdb61606	1	1	main_slash	24	advance_on_keypress_SLASH	2	stimuli_distractor_trianglediamonds.svg	stimuli_target_squarediamonds.svg	12	yes	57	0	2788	6	2	antiphase_hc_ios.wav	3	6	4	noise_calib_stim_RIGHT.wav	2	35	blb_dichoticlistening_ta-pa.mp3	ta	pa	1	right
6.6.1	win	2023-06-24	23:35:43	23:54:33	1125982	6132cc58d1dcc24bcdb61606	1	1	main_slash	24	main_slash	3	stimuli_target_diamondsquares.svg	stimuli_distractor_diamondtriangles.svg	24	yes	0	0	2000	6	2	antiphase_hc_ios.wav	3	6	4	noise_calib_stim_RIGHT.wav	2	35	blb_dichoticlistening_ta-pa.mp3	ta	pa	1	right
6.6.1	win	2023-06-24	23:35:43	23:54:33	1125982	6132cc58d1dcc24bcdb61606	1	1	main_slash	24	advance_on_keypress_SLASH	4	stimuli_target_diamondsquares.svg	stimuli_distractor_diamondtriangles.svg	24	yes	57	0	1081	6	2	antiphase_hc_ios.wav	3	6	4	noise_calib_stim_RIGHT.wav	2	35	blb_dichoticlistening_ta-pa.mp3	ta	pa	1	right
6.6.1	win	2023-06-24	23:35:43	23:54:35	1128067	6132cc58d1dcc24bcdb61606	1	1	main_slash	24	main_slash	5	stimuli_target_rectangletriangles.svg	stimuli_distractor_trianglediamonds.svg	1	yes	53	1	352	6	2	antiphase_hc_ios.wav	3	6	4	noise_calib_stim_RIGHT.wav	2	35	blb_dichoticlistening_ta-pa.mp3	ta	pa	1	right
6.6.1	win	2023-06-24	23:35:43	23:54:35	1128067	6132cc58d1dcc24bcdb61606	1	1	main_slash	24	advance_on_keypress_SLASH	6	stimuli_target_rectangletriangles.svg	stimuli_distractor_trianglediamonds.svg	1	yes	57	0	655	6	2	antiphase_hc_ios.wav	3	6	4	noise_calib_stim_RIGHT.wav	2	35	blb_dichoticlistening_ta-pa.mp3	ta	pa	1	right
6.6.1	win	2023-06-24	23:35:43	23:54:36	1129711	6132cc58d1dcc24bcdb61606	1	1	main_slash	24	main_slash	7	stimuli_distractor_diamondtriangles.svg	stimuli_target_squaretriangles.svg	15	yes	53	1	347	6	2	antiphase_hc_ios.wav	3	6	4	noise_calib_stim_RIGHT.wav	2	35	blb_dichoticlistening_ta-pa.mp3	ta	pa	1	right
6.6.1	win	2023-06-24	23:35:43	23:54:36	1129711	6132cc58d1dcc24bcdb61606	1	1	main_slash	24	advance_on_keypress_SLASH	8	stimuli_distractor_diamondtriangles.svg	stimuli_target_squaretriangles.svg	15	yes	57	0	497	6	2	antiphase_hc_ios.wav	3	6	4	noise_calib_stim_RIGHT.wav	2	35	blb_dichoticlistening_ta-pa.mp3	ta	pa	1	right
6.6.1	win	2023-06-24	23:35:43	23:54:38	1131201	6132cc58d1dcc24bcdb61606	1	1	main_slash	24	main_slash	9	stimuli_target_rectangletriangles.svg	stimuli_distractor_diamondtriangles.svg	5	yes	53	1	338	6	2	antiphase_hc_ios.wav	3	6	4	noise_calib_stim_RIGHT.wav	2	35	blb_dichoticlistening_ta-pa.mp3	ta	pa	1	right
6.6.1	win	2023-06-24	23:35:43	23:54:38	1131201	6132cc58d1dcc24bcdb61606	1	1	main_slash	24	advance_on_keypress_SLASH	10	stimuli_target_rectangletriangles.svg	stimuli_distractor_diamondtriangles.svg	5	yes	57	0	574	6	2	antiphase_hc_ios.wav	3	6	4	noise_calib_stim_RIGHT.wav	2	35	blb_dichoticlistening_ta-pa.mp3	ta	pa	1	right
6.6.1	win	2023-06-24	23:35:43	23:54:39	1132795	6132cc58d1dcc24bcdb61606	1	1	main_slash	24	main_slash	11	stimuli_target_rectanglediamonds.svg	stimuli_distractor_trianglediamonds.svg	2	yes	53	1	332	6	2	antiphase_hc_ios.wav	3	6	4	noise_calib_stim_RIGHT.wav	2	35	blb_dichoticlistening_ta-pa.mp3	ta	pa	1	right
6.6.1	win	2023-06-24	23:35:43	23:54:39	1132795	6132cc58d1dcc24bcdb61606	1	1	main_slash	24	advance_on_keypress_SLASH	12	stimuli_target_rectanglediamonds.svg	stimuli_distractor_trianglediamonds.svg	2	yes	57	0	584	6	2	antiphase_hc_ios.wav	3	6	4	noise_calib_stim_RIGHT.wav	2	35	blb_dichoticlistening_ta-pa.mp3	ta	pa	1	right
6.6.1	win	2023-06-24	23:35:43	23:54:41	1134609	6132cc58d1dcc24bcdb61606	1	1	main_slash	24	main_slash	13	stimuli_distractor_diamondtriangles.svg	stimuli_target_diamondrectangles.svg	31	yes	53	1	536	6	2	antiphase_hc_ios.wav	3	6	4	noise_calib_stim_RIGHT.wav	2	35	blb_dichoticlistening_ta-pa.mp3	ta	pa	1	right
6.6.1	win	2023-06-24	23:35:43	23:54:41	1134609	6132cc58d1dcc24bcdb61606	1	1	main_slash	24	advance_on_keypress_SLASH	14	stimuli_distractor_diamondtriangles.svg	stimuli_target_diamondrectangles.svg	31	yes	57	0	622	6	2	antiphase_hc_ios.wav	3	6	4	noise_calib_stim_RIGHT.wav	2	35	blb_dichoticlistening_ta-pa.mp3	ta	pa	1	right
6.6.1	win	2023-06-24	23:35:43	23:54:43	1136549	6132cc58d1dcc24bcdb61606	1	1	main_slash	24	main_slash	15	stimuli_distractor_trianglediamonds.svg	stimuli_target_diamondsquares.svg	28	yes	53	1	628	6	2	antiphase_hc_ios.wav	3	6	4	noise_calib_stim_RIGHT.wav	2	35	blb_dichoticlistening_ta-pa.mp3	ta	pa	1	right
6.6.1	win	2023-06-24	23:35:43	23:54:43	1136549	6132cc58d1dcc24bcdb61606	1	1	main_slash	24	advance_on_keypress_SLASH	16	stimuli_distractor_trianglediamonds.svg	stimuli_target_diamondsquares.svg	28	yes	57	0	571	6	2	antiphase_hc_ios.wav	3	6	4	noise_calib_stim_RIGHT.wav	2	35	blb_dichoticlistening_ta-pa.mp3	ta	pa	1	right
6.6.1	win	2023-06-24	23:35:43	23:54:45	1138198	6132cc58d1dcc24bcdb61606	1	1	main_slash	24	main_slash	17	stimuli_target_squarediamonds.svg	stimuli_distractor_diamondtriangles.svg	8	yes	53	1	381	6	2	antiphase_hc_ios.wav	3	6	4	noise_calib_stim_RIGHT.wav	2	35	blb_dichoticlistening_ta-pa.mp3	ta	pa	1	right
6.6.1	win	2023-06-24	23:35:43	23:54:45	1138198	6132cc58d1dcc24bcdb61606	1	1	main_slash	24	advance_on_keypress_SLASH	18	stimuli_target_squarediamonds.svg	stimuli_distractor_diamondtriangles.svg	8	yes	57	0	517	6	2	antiphase_hc_ios.wav	3	6	4	noise_calib_stim_RIGHT.wav	2	35	blb_dichoticlistening_ta-pa.mp3	ta	pa	1	right
6.6.1	win	2023-06-24	23:35:43	23:54:46	1139687	6132cc58d1dcc24bcdb61606	1	1	main_slash	24	main_slash	19	stimuli_distractor_diamondtriangles.svg	stimuli_target_trianglerectangles.svg	29	yes	53	1	276	6	2	antiphase_hc_ios.wav	3	6	4	noise_calib_stim_RIGHT.wav	2	35	blb_dichoticlistening_ta-pa.mp3	ta	pa	1	right
6.6.1	win	2023-06-24	23:35:43	23:54:46	1139687	6132cc58d1dcc24bcdb61606	1	1	main_slash	24	advance_on_keypress_SLASH	20	stimuli_distractor_diamondtriangles.svg	stimuli_target_trianglerectangles.svg	29	yes	57	0	547	6	2	antiphase_hc_ios.wav	3	6	4	noise_calib_stim_RIGHT.wav	2	35	blb_dichoticlistening_ta-pa.mp3	ta	pa	1	right
6.6.1	win	2023-06-24	23:35:43	23:54:50	1142932	6132cc58d1dcc24bcdb61606	1	1	main_slash	24	main_slash	21	stimuli_target_diamondrectangles.svg	stimuli_distractor_diamondtriangles.svg	23	yes	0	0	2000	6	2	antiphase_hc_ios.wav	3	6	4	noise_calib_stim_RIGHT.wav	2	35	blb_dichoticlistening_ta-pa.mp3	ta	pa	1	right
6.6.1	win	2023-06-24	23:35:43	23:54:50	1142932	6132cc58d1dcc24bcdb61606	1	1	main_slash	24	advance_on_keypress_SLASH	22	stimuli_target_diamondrectangles.svg	stimuli_distractor_diamondtriangles.svg	23	yes	57	0	611	6	2	antiphase_hc_ios.wav	3	6	4	noise_calib_stim_RIGHT.wav	2	35	blb_dichoticlistening_ta-pa.mp3	ta	pa	1	right
6.6.1	win	2023-06-24	23:35:43	23:54:51	1144647	6132cc58d1dcc24bcdb61606	1	1	main_slash	24	main_slash	23	stimuli_distractor_diamondtriangles.svg	stimuli_target_squarediamonds.svg	16	yes	53	1	421	6	2	antiphase_hc_ios.wav	3	6	4	noise_calib_stim_RIGHT.wav	2	35	blb_dichoticlistening_ta-pa.mp3	ta	pa	1	right
6.6.1	win	2023-06-24	23:35:43	23:54:51	1144647	6132cc58d1dcc24bcdb61606	1	1	main_slash	24	advance_on_keypress_SLASH	24	stimuli_distractor_diamondtriangles.svg	stimuli_target_squarediamonds.svg	16	yes	57	0	518	6	2	antiphase_hc_ios.wav	3	6	4	noise_calib_stim_RIGHT.wav	2	35	blb_dichoticlistening_ta-pa.mp3	ta	pa	1	right
6.6.1	win	2023-06-24	23:35:43	23:54:54	1147853	6132cc58d1dcc24bcdb61606	1	1	main_slash	24	main_slash	25	stimuli_distractor_diamondtriangles.svg	stimuli_distractor_trianglediamonds.svg	37	no	0	1	2000	6	2	antiphase_hc_ios.wav	3	6	4	noise_calib_stim_RIGHT.wav	2	35	blb_dichoticlistening_ta-pa.mp3	ta	pa	1	right
6.6.1	win	2023-06-24	23:35:43	23:54:54	1147853	6132cc58d1dcc24bcdb61606	1	1	main_slash	24	advance_on_keypress_SLASH	26	stimuli_distractor_diamondtriangles.svg	stimuli_distractor_trianglediamonds.svg	37	no	57	0	370	6	2	antiphase_hc_ios.wav	3	6	4	noise_calib_stim_RIGHT.wav	2	35	blb_dichoticlistening_ta-pa.mp3	ta	pa	1	right
6.6.1	win	2023-06-24	23:35:43	23:54:58	1150932	6132cc58d1dcc24bcdb61606	1	1	main_slash	24	main_slash	27	stimuli_target_trianglerectangles.svg	stimuli_distractor_diamondtriangles.svg	21	yes	0	0	2000	6	2	antiphase_hc_ios.wav	3	6	4	noise_calib_stim_RIGHT.wav	2	35	blb_dichoticlistening_ta-pa.mp3	ta	pa	1	right
6.6.1	win	2023-06-24	23:35:43	23:54:58	1150932	6132cc58d1dcc24bcdb61606	1	1	main_slash	24	advance_on_keypress_SLASH	28	stimuli_target_trianglerectangles.svg	stimuli_distractor_diamondtriangles.svg	21	yes	57	0	470	6	2	antiphase_hc_ios.wav	3	6	4	noise_calib_stim_RIGHT.wav	2	35	blb_dichoticlistening_ta-pa.mp3	ta	pa	1	right
6.6.1	win	2023-06-24	23:35:43	23:54:59	1152610	6132cc58d1dcc24bcdb61606	1	1	main_slash	24	main_slash	29	stimuli_distractor_diamondtriangles.svg	stimuli_target_trianglesquares.svg	30	yes	53	1	510	6	2	antiphase_hc_ios.wav	3	6	4	noise_calib_stim_RIGHT.wav	2	35	blb_dichoticlistening_ta-pa.mp3	ta	pa	1	right
6.6.1	win	2023-06-24	23:35:43	23:54:59	1152610	6132cc58d1dcc24bcdb61606	1	1	main_slash	24	advance_on_keypress_SLASH	30	stimuli_distractor_diamondtriangles.svg	stimuli_target_trianglesquares.svg	30	yes	57	0	643	6	2	antiphase_hc_ios.wav	3	6	4	noise_calib_stim_RIGHT.wav	2	35	blb_dichoticlistening_ta-pa.mp3	ta	pa	1	right
6.6.1	win	2023-06-24	23:35:43	23:55:02	1155906	6132cc58d1dcc24bcdb61606	1	1	main_slash	24	main_slash	31	stimuli_distractor_diamondtriangles.svg	stimuli_distractor_trianglediamonds.svg	38	no	0	1	2000	6	2	antiphase_hc_ios.wav	3	6	4	noise_calib_stim_RIGHT.wav	2	35	blb_dichoticlistening_ta-pa.mp3	ta	pa	1	right
6.6.1	win	2023-06-24	23:35:43	23:55:02	1155906	6132cc58d1dcc24bcdb61606	1	1	main_slash	24	advance_on_keypress_SLASH	32	stimuli_distractor_diamondtriangles.svg	stimuli_distractor_trianglediamonds.svg	38	no	57	0	308	6	2	antiphase_hc_ios.wav	3	6	4	noise_calib_stim_RIGHT.wav	2	35	blb_dichoticlistening_ta-pa.mp3	ta	pa	1	right
6.6.1	win	2023-06-24	23:35:43	23:55:04	1157581	6132cc58d1dcc24bcdb61606	1	1	main_slash	24	main_slash	33	stimuli_target_trianglerectangles.svg	stimuli_distractor_trianglediamonds.svg	17	yes	53	1	724	6	2	antiphase_hc_ios.wav	3	6	4	noise_calib_stim_RIGHT.wav	2	35	blb_dichoticlistening_ta-pa.mp3	ta	pa	1	right
6.6.1	win	2023-06-24	23:35:43	23:55:04	1157581	6132cc58d1dcc24bcdb61606	1	1	main_slash	24	advance_on_keypress_SLASH	34	stimuli_target_trianglerectangles.svg	stimuli_distractor_trianglediamonds.svg	17	yes	57	0	470	6	2	antiphase_hc_ios.wav	3	6	4	noise_calib_stim_RIGHT.wav	2	35	blb_dichoticlistening_ta-pa.mp3	ta	pa	1	right
6.6.1	win	2023-06-24	23:35:43	23:55:06	1159289	6132cc58d1dcc24bcdb61606	1	1	main_slash	24	main_slash	35	stimuli_target_diamondrectangles.svg	stimuli_distractor_trianglediamonds.svg	19	yes	53	1	470	6	2	antiphase_hc_ios.wav	3	6	4	noise_calib_stim_RIGHT.wav	2	35	blb_dichoticlistening_ta-pa.mp3	ta	pa	1	right
6.6.1	win	2023-06-24	23:35:43	23:55:06	1159289	6132cc58d1dcc24bcdb61606	1	1	main_slash	24	advance_on_keypress_SLASH	36	stimuli_target_diamondrectangles.svg	stimuli_distractor_trianglediamonds.svg	19	yes	57	0	511	6	2	antiphase_hc_ios.wav	3	6	4	noise_calib_stim_RIGHT.wav	2	35	blb_dichoticlistening_ta-pa.mp3	ta	pa	1	right
6.6.1	win	2023-06-24	23:35:43	23:55:07	1160866	6132cc58d1dcc24bcdb61606	1	1	main_slash	24	main_slash	37	stimuli_target_squaretriangles.svg	stimuli_distractor_diamondtriangles.svg	7	yes	53	1	378	6	2	antiphase_hc_ios.wav	3	6	4	noise_calib_stim_RIGHT.wav	2	35	blb_dichoticlistening_ta-pa.mp3	ta	pa	1	right
6.6.1	win	2023-06-24	23:35:43	23:55:07	1160866	6132cc58d1dcc24bcdb61606	1	1	main_slash	24	advance_on_keypress_SLASH	38	stimuli_target_squaretriangles.svg	stimuli_distractor_diamondtriangles.svg	7	yes	57	0	502	6	2	antiphase_hc_ios.wav	3	6	4	noise_calib_stim_RIGHT.wav	2	35	blb_dichoticlistening_ta-pa.mp3	ta	pa	1	right
6.6.1	win	2023-06-24	23:35:43	23:55:09	1162407	6132cc58d1dcc24bcdb61606	1	1	main_slash	24	main_slash	39	stimuli_target_squarediamonds.svg	stimuli_distractor_trianglediamonds.svg	4	yes	53	1	341	6	2	antiphase_hc_ios.wav	3	6	4	noise_calib_stim_RIGHT.wav	2	35	blb_dichoticlistening_ta-pa.mp3	ta	pa	1	right
6.6.1	win	2023-06-24	23:35:43	23:55:09	1162407	6132cc58d1dcc24bcdb61606	1	1	main_slash	24	advance_on_keypress_SLASH	40	stimuli_target_squarediamonds.svg	stimuli_distractor_trianglediamonds.svg	4	yes	57	0	443	6	2	antiphase_hc_ios.wav	3	6	4	noise_calib_stim_RIGHT.wav	2	35	blb_dichoticlistening_ta-pa.mp3	ta	pa	1	right
6.6.1	win	2023-06-24	23:35:43	23:55:11	1163933	6132cc58d1dcc24bcdb61606	1	1	main_slash	24	main_slash	41	stimuli_distractor_trianglediamonds.svg	stimuli_distractor_diamondtriangles.svg	35	no	53	0	399	6	2	antiphase_hc_ios.wav	3	6	4	noise_calib_stim_RIGHT.wav	2	35	blb_dichoticlistening_ta-pa.mp3	ta	pa	1	right
6.6.1	win	2023-06-24	23:35:43	23:55:11	1163933	6132cc58d1dcc24bcdb61606	1	1	main_slash	24	advance_on_keypress_SLASH	42	stimuli_distractor_trianglediamonds.svg	stimuli_distractor_diamondtriangles.svg	35	no	57	0	495	6	2	antiphase_hc_ios.wav	3	6	4	noise_calib_stim_RIGHT.wav	2	35	blb_dichoticlistening_ta-pa.mp3	ta	pa	1	right
6.6.1	win	2023-06-24	23:35:43	23:55:13	1165909	6132cc58d1dcc24bcdb61606	1	1	main_slash	24	main_slash	43	stimuli_distractor_diamondtriangles.svg	stimuli_target_diamondsquares.svg	32	yes	53	1	789	6	2	antiphase_hc_ios.wav	3	6	4	noise_calib_stim_RIGHT.wav	2	35	blb_dichoticlistening_ta-pa.mp3	ta	pa	1	right
6.6.1	win	2023-06-24	23:35:43	23:55:13	1165909	6132cc58d1dcc24bcdb61606	1	1	main_slash	24	advance_on_keypress_SLASH	44	stimuli_distractor_diamondtriangles.svg	stimuli_target_diamondsquares.svg	32	yes	57	0	463	6	2	antiphase_hc_ios.wav	3	6	4	noise_calib_stim_RIGHT.wav	2	35	blb_dichoticlistening_ta-pa.mp3	ta	pa	1	right
6.6.1	win	2023-06-24	23:35:43	23:55:14	1167514	6132cc58d1dcc24bcdb61606	1	1	main_slash	24	main_slash	45	stimuli_distractor_diamondtriangles.svg	stimuli_target_rectanglediamonds.svg	14	yes	53	1	399	6	2	antiphase_hc_ios.wav	3	6	4	noise_calib_stim_RIGHT.wav	2	35	blb_dichoticlistening_ta-pa.mp3	ta	pa	1	right
6.6.1	win	2023-06-24	23:35:43	23:55:14	1167514	6132cc58d1dcc24bcdb61606	1	1	main_slash	24	advance_on_keypress_SLASH	46	stimuli_distractor_diamondtriangles.svg	stimuli_target_rectanglediamonds.svg	14	yes	57	0	548	6	2	antiphase_hc_ios.wav	3	6	4	noise_calib_stim_RIGHT.wav	2	35	blb_dichoticlistening_ta-pa.mp3	ta	pa	1	right
6.6.1	win	2023-06-24	23:35:43	23:55:16	1169115	6132cc58d1dcc24bcdb61606	1	1	main_slash	24	main_slash	47	stimuli_distractor_trianglediamonds.svg	stimuli_target_rectangletriangles.svg	9	yes	53	1	359	6	2	antiphase_hc_ios.wav	3	6	4	noise_calib_stim_RIGHT.wav	2	35	blb_dichoticlistening_ta-pa.mp3	ta	pa	1	right
6.6.1	win	2023-06-24	23:35:43	23:55:16	1169115	6132cc58d1dcc24bcdb61606	1	1	main_slash	24	advance_on_keypress_SLASH	48	stimuli_distractor_trianglediamonds.svg	stimuli_target_rectangletriangles.svg	9	yes	57	0	437	6	2	antiphase_hc_ios.wav	3	6	4	noise_calib_stim_RIGHT.wav	2	35	blb_dichoticlistening_ta-pa.mp3	ta	pa	1	right
6.6.1	win	2023-06-24	23:35:43	23:55:17	1170727	6132cc58d1dcc24bcdb61606	1	1	main_slash	24	main_slash	49	stimuli_distractor_trianglediamonds.svg	stimuli_target_diamondrectangles.svg	27	yes	53	1	425	6	2	antiphase_hc_ios.wav	3	6	4	noise_calib_stim_RIGHT.wav	2	35	blb_dichoticlistening_ta-pa.mp3	ta	pa	1	right
6.6.1	win	2023-06-24	23:35:43	23:55:17	1170727	6132cc58d1dcc24bcdb61606	1	1	main_slash	24	advance_on_keypress_SLASH	50	stimuli_distractor_trianglediamonds.svg	stimuli_target_diamondrectangles.svg	27	yes	57	0	497	6	2	antiphase_hc_ios.wav	3	6	4	noise_calib_stim_RIGHT.wav	2	35	blb_dichoticlistening_ta-pa.mp3	ta	pa	1	right
6.6.1	win	2023-06-24	23:35:43	23:55:19	1172615	6132cc58d1dcc24bcdb61606	1	1	main_slash	24	main_slash	51	stimuli_distractor_diamondtriangles.svg	stimuli_distractor_diamondtriangles.svg	40	no	53	0	691	6	2	antiphase_hc_ios.wav	3	6	4	noise_calib_stim_RIGHT.wav	2	35	blb_dichoticlistening_ta-pa.mp3	ta	pa	1	right
6.6.1	win	2023-06-24	23:35:43	23:55:19	1172615	6132cc58d1dcc24bcdb61606	1	1	main_slash	24	advance_on_keypress_SLASH	52	stimuli_distractor_diamondtriangles.svg	stimuli_distractor_diamondtriangles.svg	40	no	57	0	499	6	2	antiphase_hc_ios.wav	3	6	4	noise_calib_stim_RIGHT.wav	2	35	blb_dichoticlistening_ta-pa.mp3	ta	pa	1	right
6.6.1	win	2023-06-24	23:35:43	23:55:21	1174361	6132cc58d1dcc24bcdb61606	1	1	main_slash	24	main_slash	53	stimuli_target_squaretriangles.svg	stimuli_distractor_trianglediamonds.svg	3	yes	53	1	563	6	2	antiphase_hc_ios.wav	3	6	4	noise_calib_stim_RIGHT.wav	2	35	blb_dichoticlistening_ta-pa.mp3	ta	pa	1	right
6.6.1	win	2023-06-24	23:35:43	23:55:21	1174361	6132cc58d1dcc24bcdb61606	1	1	main_slash	24	advance_on_keypress_SLASH	54	stimuli_target_squaretriangles.svg	stimuli_distractor_trianglediamonds.svg	3	yes	57	0	493	6	2	antiphase_hc_ios.wav	3	6	4	noise_calib_stim_RIGHT.wav	2	35	blb_dichoticlistening_ta-pa.mp3	ta	pa	1	right
6.6.1	win	2023-06-24	23:35:43	23:55:23	1176108	6132cc58d1dcc24bcdb61606	1	1	main_slash	24	main_slash	55	stimuli_distractor_trianglediamonds.svg	stimuli_distractor_diamondtriangles.svg	36	no	53	0	558	6	2	antiphase_hc_ios.wav	3	6	4	noise_calib_stim_RIGHT.wav	2	35	blb_dichoticlistening_ta-pa.mp3	ta	pa	1	right
6.6.1	win	2023-06-24	23:35:43	23:55:23	1176108	6132cc58d1dcc24bcdb61606	1	1	main_slash	24	advance_on_keypress_SLASH	56	stimuli_distractor_trianglediamonds.svg	stimuli_distractor_diamondtriangles.svg	36	no	57	0	498	6	2	antiphase_hc_ios.wav	3	6	4	noise_calib_stim_RIGHT.wav	2	35	blb_dichoticlistening_ta-pa.mp3	ta	pa	1	right
6.6.1	win	2023-06-24	23:35:43	23:55:24	1177764	6132cc58d1dcc24bcdb61606	1	1	main_slash	24	main_slash	57	stimuli_target_diamondsquares.svg	stimuli_distractor_trianglediamonds.svg	20	yes	53	1	472	6	2	antiphase_hc_ios.wav	3	6	4	noise_calib_stim_RIGHT.wav	2	35	blb_dichoticlistening_ta-pa.mp3	ta	pa	1	right
6.6.1	win	2023-06-24	23:35:43	23:55:24	1177764	6132cc58d1dcc24bcdb61606	1	1	main_slash	24	advance_on_keypress_SLASH	58	stimuli_target_diamondsquares.svg	stimuli_distractor_trianglediamonds.svg	20	yes	57	0	512	6	2	antiphase_hc_ios.wav	3	6	4	noise_calib_stim_RIGHT.wav	2	35	blb_dichoticlistening_ta-pa.mp3	ta	pa	1	right
6.6.1	win	2023-06-24	23:35:43	23:55:28	1180963	6132cc58d1dcc24bcdb61606	1	1	main_slash	24	main_slash	59	stimuli_distractor_trianglediamonds.svg	stimuli_distractor_trianglediamonds.svg	34	no	0	1	2000	6	2	antiphase_hc_ios.wav	3	6	4	noise_calib_stim_RIGHT.wav	2	35	blb_dichoticlistening_ta-pa.mp3	ta	pa	1	right
6.6.1	win	2023-06-24	23:35:43	23:55:28	1180963	6132cc58d1dcc24bcdb61606	1	1	main_slash	24	advance_on_keypress_SLASH	60	stimuli_distractor_trianglediamonds.svg	stimuli_distractor_trianglediamonds.svg	34	no	57	0	320	6	2	antiphase_hc_ios.wav	3	6	4	noise_calib_stim_RIGHT.wav	2	35	blb_dichoticlistening_ta-pa.mp3	ta	pa	1	right
6.6.1	win	2023-06-24	23:35:43	23:55:29	1182476	6132cc58d1dcc24bcdb61606	1	1	main_slash	24	main_slash	61	stimuli_target_trianglesquares.svg	stimuli_distractor_trianglediamonds.svg	18	yes	53	1	554	6	2	antiphase_hc_ios.wav	3	6	4	noise_calib_stim_RIGHT.wav	2	35	blb_dichoticlistening_ta-pa.mp3	ta	pa	1	right
6.6.1	win	2023-06-24	23:35:43	23:55:29	1182476	6132cc58d1dcc24bcdb61606	1	1	main_slash	24	advance_on_keypress_SLASH	62	stimuli_target_trianglesquares.svg	stimuli_distractor_trianglediamonds.svg	18	yes	57	0	444	6	2	antiphase_hc_ios.wav	3	6	4	noise_calib_stim_RIGHT.wav	2	35	blb_dichoticlistening_ta-pa.mp3	ta	pa	1	right
6.6.1	win	2023-06-24	23:35:43	23:55:31	1184163	6132cc58d1dcc24bcdb61606	1	1	main_slash	24	main_slash	63	stimuli_distractor_trianglediamonds.svg	stimuli_distractor_trianglediamonds.svg	33	no	53	0	554	6	2	antiphase_hc_ios.wav	3	6	4	noise_calib_stim_RIGHT.wav	2	35	blb_dichoticlistening_ta-pa.mp3	ta	pa	1	right
6.6.1	win	2023-06-24	23:35:43	23:55:31	1184163	6132cc58d1dcc24bcdb61606	1	1	main_slash	24	advance_on_keypress_SLASH	64	stimuli_distractor_trianglediamonds.svg	stimuli_distractor_trianglediamonds.svg	33	no	57	0	435	6	2	antiphase_hc_ios.wav	3	6	4	noise_calib_stim_RIGHT.wav	2	35	blb_dichoticlistening_ta-pa.mp3	ta	pa	1	right
6.6.1	win	2023-06-24	23:35:43	23:55:32	1185746	6132cc58d1dcc24bcdb61606	1	1	main_slash	24	main_slash	65	stimuli_target_rectanglediamonds.svg	stimuli_distractor_diamondtriangles.svg	6	yes	53	1	460	6	2	antiphase_hc_ios.wav	3	6	4	noise_calib_stim_RIGHT.wav	2	35	blb_dichoticlistening_ta-pa.mp3	ta	pa	1	right
6.6.1	win	2023-06-24	23:35:43	23:55:32	1185746	6132cc58d1dcc24bcdb61606	1	1	main_slash	24	advance_on_keypress_SLASH	66	stimuli_target_rectanglediamonds.svg	stimuli_distractor_diamondtriangles.svg	6	yes	57	0	510	6	2	antiphase_hc_ios.wav	3	6	4	noise_calib_stim_RIGHT.wav	2	35	blb_dichoticlistening_ta-pa.mp3	ta	pa	1	right
6.6.1	win	2023-06-24	23:35:43	23:55:34	1187341	6132cc58d1dcc24bcdb61606	1	1	main_slash	24	main_slash	67	stimuli_distractor_trianglediamonds.svg	stimuli_target_squaretriangles.svg	11	yes	53	1	385	6	2	antiphase_hc_ios.wav	3	6	4	noise_calib_stim_RIGHT.wav	2	35	blb_dichoticlistening_ta-pa.mp3	ta	pa	1	right
6.6.1	win	2023-06-24	23:35:43	23:55:34	1187341	6132cc58d1dcc24bcdb61606	1	1	main_slash	24	advance_on_keypress_SLASH	68	stimuli_distractor_trianglediamonds.svg	stimuli_target_squaretriangles.svg	11	yes	57	0	529	6	2	antiphase_hc_ios.wav	3	6	4	noise_calib_stim_RIGHT.wav	2	35	blb_dichoticlistening_ta-pa.mp3	ta	pa	1	right
6.6.1	win	2023-06-24	23:35:43	23:55:36	1189379	6132cc58d1dcc24bcdb61606	1	1	main_slash	24	main_slash	69	stimuli_distractor_trianglediamonds.svg	stimuli_target_trianglerectangles.svg	25	yes	53	1	819	6	2	antiphase_hc_ios.wav	3	6	4	noise_calib_stim_RIGHT.wav	2	35	blb_dichoticlistening_ta-pa.mp3	ta	pa	1	right
6.6.1	win	2023-06-24	23:35:43	23:55:36	1189379	6132cc58d1dcc24bcdb61606	1	1	main_slash	24	advance_on_keypress_SLASH	70	stimuli_distractor_trianglediamonds.svg	stimuli_target_trianglerectangles.svg	25	yes	57	0	393	6	2	antiphase_hc_ios.wav	3	6	4	noise_calib_stim_RIGHT.wav	2	35	blb_dichoticlistening_ta-pa.mp3	ta	pa	1	right
6.6.1	win	2023-06-24	23:35:43	23:55:39	1192519	6132cc58d1dcc24bcdb61606	1	1	main_slash	24	main_slash	71	stimuli_distractor_diamondtriangles.svg	stimuli_target_rectangletriangles.svg	13	yes	0	0	2000	6	2	antiphase_hc_ios.wav	3	6	4	noise_calib_stim_RIGHT.wav	2	35	blb_dichoticlistening_ta-pa.mp3	ta	pa	1	right
6.6.1	win	2023-06-24	23:35:43	23:55:39	1192519	6132cc58d1dcc24bcdb61606	1	1	main_slash	24	advance_on_keypress_SLASH	72	stimuli_distractor_diamondtriangles.svg	stimuli_target_rectangletriangles.svg	13	yes	57	0	276	6	2	antiphase_hc_ios.wav	3	6	4	noise_calib_stim_RIGHT.wav	2	35	blb_dichoticlistening_ta-pa.mp3	ta	pa	1	right
6.6.1	win	2023-06-24	23:35:43	23:55:40	1193899	6132cc58d1dcc24bcdb61606	1	1	main_slash	24	main_slash	73	stimuli_distractor_trianglediamonds.svg	stimuli_target_trianglesquares.svg	26	yes	53	1	472	6	2	antiphase_hc_ios.wav	3	6	4	noise_calib_stim_RIGHT.wav	2	35	blb_dichoticlistening_ta-pa.mp3	ta	pa	1	right
6.6.1	win	2023-06-24	23:35:43	23:55:40	1193899	6132cc58d1dcc24bcdb61606	1	1	main_slash	24	advance_on_keypress_SLASH	74	stimuli_distractor_trianglediamonds.svg	stimuli_target_trianglesquares.svg	26	yes	57	0	431	6	2	antiphase_hc_ios.wav	3	6	4	noise_calib_stim_RIGHT.wav	2	35	blb_dichoticlistening_ta-pa.mp3	ta	pa	1	right
6.6.1	win	2023-06-24	23:35:43	23:55:44	1197017	6132cc58d1dcc24bcdb61606	1	1	main_slash	24	main_slash	75	stimuli_target_trianglesquares.svg	stimuli_distractor_diamondtriangles.svg	22	yes	0	0	2000	6	2	antiphase_hc_ios.wav	3	6	4	noise_calib_stim_RIGHT.wav	2	35	blb_dichoticlistening_ta-pa.mp3	ta	pa	1	right
6.6.1	win	2023-06-24	23:35:43	23:55:44	1197017	6132cc58d1dcc24bcdb61606	1	1	main_slash	24	advance_on_keypress_SLASH	76	stimuli_target_trianglesquares.svg	stimuli_distractor_diamondtriangles.svg	22	yes	57	0	300	6	2	antiphase_hc_ios.wav	3	6	4	noise_calib_stim_RIGHT.wav	2	35	blb_dichoticlistening_ta-pa.mp3	ta	pa	1	right
6.6.1	win	2023-06-24	23:35:43	23:55:45	1198391	6132cc58d1dcc24bcdb61606	1	1	main_slash	24	main_slash	77	stimuli_distractor_trianglediamonds.svg	stimuli_target_rectanglediamonds.svg	10	yes	53	1	423	6	2	antiphase_hc_ios.wav	3	6	4	noise_calib_stim_RIGHT.wav	2	35	blb_dichoticlistening_ta-pa.mp3	ta	pa	1	right
6.6.1	win	2023-06-24	23:35:43	23:55:45	1198391	6132cc58d1dcc24bcdb61606	1	1	main_slash	24	advance_on_keypress_SLASH	78	stimuli_distractor_trianglediamonds.svg	stimuli_target_rectanglediamonds.svg	10	yes	57	0	515	6	2	antiphase_hc_ios.wav	3	6	4	noise_calib_stim_RIGHT.wav	2	35	blb_dichoticlistening_ta-pa.mp3	ta	pa	1	right
6.6.1	win	2023-06-24	23:35:43	23:55:48	1201593	6132cc58d1dcc24bcdb61606	1	1	main_slash	24	main_slash	79	stimuli_distractor_diamondtriangles.svg	stimuli_distractor_diamondtriangles.svg	39	no	0	1	2000	6	2	antiphase_hc_ios.wav	3	6	4	noise_calib_stim_RIGHT.wav	2	35	blb_dichoticlistening_ta-pa.mp3	ta	pa	1	right
6.6.1	win	2023-06-24	23:35:43	23:55:48	1201593	6132cc58d1dcc24bcdb61606	1	1	main_slash	24	advance_on_keypress_SLASH	80	stimuli_distractor_diamondtriangles.svg	stimuli_distractor_diamondtriangles.svg	39	no	57	0	335	6	2	antiphase_hc_ios.wav	3	6	4	noise_calib_stim_RIGHT.wav	2	35	blb_dichoticlistening_ta-pa.mp3	ta	pa	1	right
6.6.1	win	2023-06-24	23:35:43	23:55:50	1203026	6132cc58d1dcc24bcdb61606	1	1	main_slash	24	main_slash	81	stimuli_distractor_trianglediamonds.svg	stimuli_target_diamondrectangles.svg	27	yes	53	1	458	6	2	antiphase_hc_ios.wav	3	6	4	noise_calib_stim_RIGHT.wav	2	35	blb_dichoticlistening_ta-pa.mp3	ta	pa	1	right
6.6.1	win	2023-06-24	23:35:43	23:55:50	1203026	6132cc58d1dcc24bcdb61606	1	1	main_slash	24	advance_on_keypress_SLASH	82	stimuli_distractor_trianglediamonds.svg	stimuli_target_diamondrectangles.svg	27	yes	57	0	528	6	2	antiphase_hc_ios.wav	3	6	4	noise_calib_stim_RIGHT.wav	2	35	blb_dichoticlistening_ta-pa.mp3	ta	pa	1	right
6.6.1	win	2023-06-24	23:35:43	23:55:51	1204653	6132cc58d1dcc24bcdb61606	1	1	main_slash	24	main_slash	83	stimuli_distractor_diamondtriangles.svg	stimuli_target_diamondsquares.svg	32	yes	53	1	414	6	2	antiphase_hc_ios.wav	3	6	4	noise_calib_stim_RIGHT.wav	2	35	blb_dichoticlistening_ta-pa.mp3	ta	pa	1	right
6.6.1	win	2023-06-24	23:35:43	23:55:51	1204653	6132cc58d1dcc24bcdb61606	1	1	main_slash	24	advance_on_keypress_SLASH	84	stimuli_distractor_diamondtriangles.svg	stimuli_target_diamondsquares.svg	32	yes	57	0	450	6	2	antiphase_hc_ios.wav	3	6	4	noise_calib_stim_RIGHT.wav	2	35	blb_dichoticlistening_ta-pa.mp3	ta	pa	1	right
6.6.1	win	2023-06-24	23:35:43	23:55:53	1206299	6132cc58d1dcc24bcdb61606	1	1	main_slash	24	main_slash	85	stimuli_target_rectangletriangles.svg	stimuli_distractor_trianglediamonds.svg	1	yes	53	1	503	6	2	antiphase_hc_ios.wav	3	6	4	noise_calib_stim_RIGHT.wav	2	35	blb_dichoticlistening_ta-pa.mp3	ta	pa	1	right
6.6.1	win	2023-06-24	23:35:43	23:55:53	1206299	6132cc58d1dcc24bcdb61606	1	1	main_slash	24	advance_on_keypress_SLASH	86	stimuli_target_rectangletriangles.svg	stimuli_distractor_trianglediamonds.svg	1	yes	57	0	392	6	2	antiphase_hc_ios.wav	3	6	4	noise_calib_stim_RIGHT.wav	2	35	blb_dichoticlistening_ta-pa.mp3	ta	pa	1	right
6.6.1	win	2023-06-24	23:35:43	23:55:56	1209381	6132cc58d1dcc24bcdb61606	1	1	main_slash	24	main_slash	87	stimuli_target_trianglerectangles.svg	stimuli_distractor_diamondtriangles.svg	21	yes	0	0	2000	6	2	antiphase_hc_ios.wav	3	6	4	noise_calib_stim_RIGHT.wav	2	35	blb_dichoticlistening_ta-pa.mp3	ta	pa	1	right
6.6.1	win	2023-06-24	23:35:43	23:55:56	1209381	6132cc58d1dcc24bcdb61606	1	1	main_slash	24	advance_on_keypress_SLASH	88	stimuli_target_trianglerectangles.svg	stimuli_distractor_diamondtriangles.svg	21	yes	57	0	404	6	2	antiphase_hc_ios.wav	3	6	4	noise_calib_stim_RIGHT.wav	2	35	blb_dichoticlistening_ta-pa.mp3	ta	pa	1	right
6.6.1	win	2023-06-24	23:35:43	23:55:58	1210961	6132cc58d1dcc24bcdb61606	1	1	main_slash	24	main_slash	89	stimuli_target_squarediamonds.svg	stimuli_distractor_diamondtriangles.svg	8	yes	53	1	469	6	2	antiphase_hc_ios.wav	3	6	4	noise_calib_stim_RIGHT.wav	2	35	blb_dichoticlistening_ta-pa.mp3	ta	pa	1	right
6.6.1	win	2023-06-24	23:35:43	23:55:58	1210961	6132cc58d1dcc24bcdb61606	1	1	main_slash	24	advance_on_keypress_SLASH	90	stimuli_target_squarediamonds.svg	stimuli_distractor_diamondtriangles.svg	8	yes	57	0	452	6	2	antiphase_hc_ios.wav	3	6	4	noise_calib_stim_RIGHT.wav	2	35	blb_dichoticlistening_ta-pa.mp3	ta	pa	1	right
6.6.1	win	2023-06-24	23:35:43	23:55:59	1212581	6132cc58d1dcc24bcdb61606	1	1	main_slash	24	main_slash	91	stimuli_distractor_trianglediamonds.svg	stimuli_target_squaretriangles.svg	11	yes	53	1	479	6	2	antiphase_hc_ios.wav	3	6	4	noise_calib_stim_RIGHT.wav	2	35	blb_dichoticlistening_ta-pa.mp3	ta	pa	1	right
6.6.1	win	2023-06-24	23:35:43	23:55:59	1212581	6132cc58d1dcc24bcdb61606	1	1	main_slash	24	advance_on_keypress_SLASH	92	stimuli_distractor_trianglediamonds.svg	stimuli_target_squaretriangles.svg	11	yes	57	0	419	6	2	antiphase_hc_ios.wav	3	6	4	noise_calib_stim_RIGHT.wav	2	35	blb_dichoticlistening_ta-pa.mp3	ta	pa	1	right
6.6.1	win	2023-06-24	23:35:43	23:56:01	1214327	6132cc58d1dcc24bcdb61606	1	1	main_slash	24	main_slash	93	stimuli_distractor_trianglediamonds.svg	stimuli_target_trianglesquares.svg	26	yes	53	1	630	6	2	antiphase_hc_ios.wav	3	6	4	noise_calib_stim_RIGHT.wav	2	35	blb_dichoticlistening_ta-pa.mp3	ta	pa	1	right
6.6.1	win	2023-06-24	23:35:43	23:56:01	1214327	6132cc58d1dcc24bcdb61606	1	1	main_slash	24	advance_on_keypress_SLASH	94	stimuli_distractor_trianglediamonds.svg	stimuli_target_trianglesquares.svg	26	yes	57	0	444	6	2	antiphase_hc_ios.wav	3	6	4	noise_calib_stim_RIGHT.wav	2	35	blb_dichoticlistening_ta-pa.mp3	ta	pa	1	right
6.6.1	win	2023-06-24	23:35:43	23:56:02	1215889	6132cc58d1dcc24bcdb61606	1	1	main_slash	24	main_slash	95	stimuli_distractor_diamondtriangles.svg	stimuli_target_trianglesquares.svg	30	yes	53	1	422	6	2	antiphase_hc_ios.wav	3	6	4	noise_calib_stim_RIGHT.wav	2	35	blb_dichoticlistening_ta-pa.mp3	ta	pa	1	right
6.6.1	win	2023-06-24	23:35:43	23:56:02	1215889	6132cc58d1dcc24bcdb61606	1	1	main_slash	24	advance_on_keypress_SLASH	96	stimuli_distractor_diamondtriangles.svg	stimuli_target_trianglesquares.svg	30	yes	57	0	471	6	2	antiphase_hc_ios.wav	3	6	4	noise_calib_stim_RIGHT.wav	2	35	blb_dichoticlistening_ta-pa.mp3	ta	pa	1	right
6.6.1	win	2023-06-24	23:35:43	23:56:06	1219047	6132cc58d1dcc24bcdb61606	1	1	main_slash	24	main_slash	97	stimuli_distractor_trianglediamonds.svg	stimuli_distractor_diamondtriangles.svg	36	no	0	1	2000	6	2	antiphase_hc_ios.wav	3	6	4	noise_calib_stim_RIGHT.wav	2	35	blb_dichoticlistening_ta-pa.mp3	ta	pa	1	right
6.6.1	win	2023-06-24	23:35:43	23:56:06	1219047	6132cc58d1dcc24bcdb61606	1	1	main_slash	24	advance_on_keypress_SLASH	98	stimuli_distractor_trianglediamonds.svg	stimuli_distractor_diamondtriangles.svg	36	no	57	0	317	6	2	antiphase_hc_ios.wav	3	6	4	noise_calib_stim_RIGHT.wav	2	35	blb_dichoticlistening_ta-pa.mp3	ta	pa	1	right
6.6.1	win	2023-06-24	23:35:43	23:56:07	1220385	6132cc58d1dcc24bcdb61606	1	1	main_slash	24	main_slash	99	stimuli_distractor_diamondtriangles.svg	stimuli_target_rectangletriangles.svg	13	yes	53	1	369	6	2	antiphase_hc_ios.wav	3	6	4	noise_calib_stim_RIGHT.wav	2	35	blb_dichoticlistening_ta-pa.mp3	ta	pa	1	right
6.6.1	win	2023-06-24	23:35:43	23:56:07	1220385	6132cc58d1dcc24bcdb61606	1	1	main_slash	24	advance_on_keypress_SLASH	100	stimuli_distractor_diamondtriangles.svg	stimuli_target_rectangletriangles.svg	13	yes	57	0	400	6	2	antiphase_hc_ios.wav	3	6	4	noise_calib_stim_RIGHT.wav	2	35	blb_dichoticlistening_ta-pa.mp3	ta	pa	1	right
6.6.1	win	2023-06-24	23:35:43	23:56:09	1222179	6132cc58d1dcc24bcdb61606	1	1	main_slash	24	main_slash	101	stimuli_target_diamondrectangles.svg	stimuli_distractor_diamondtriangles.svg	23	yes	53	1	701	6	2	antiphase_hc_ios.wav	3	6	4	noise_calib_stim_RIGHT.wav	2	35	blb_dichoticlistening_ta-pa.mp3	ta	pa	1	right
6.6.1	win	2023-06-24	23:35:43	23:56:09	1222179	6132cc58d1dcc24bcdb61606	1	1	main_slash	24	advance_on_keypress_SLASH	102	stimuli_target_diamondrectangles.svg	stimuli_distractor_diamondtriangles.svg	23	yes	57	0	403	6	2	antiphase_hc_ios.wav	3	6	4	noise_calib_stim_RIGHT.wav	2	35	blb_dichoticlistening_ta-pa.mp3	ta	pa	1	right
6.6.1	win	2023-06-24	23:35:43	23:56:10	1223662	6132cc58d1dcc24bcdb61606	1	1	main_slash	24	main_slash	103	stimuli_target_rectangletriangles.svg	stimuli_distractor_diamondtriangles.svg	5	yes	53	1	390	6	2	antiphase_hc_ios.wav	3	6	4	noise_calib_stim_RIGHT.wav	2	35	blb_dichoticlistening_ta-pa.mp3	ta	pa	1	right
6.6.1	win	2023-06-24	23:35:43	23:56:10	1223662	6132cc58d1dcc24bcdb61606	1	1	main_slash	24	advance_on_keypress_SLASH	104	stimuli_target_rectangletriangles.svg	stimuli_distractor_diamondtriangles.svg	5	yes	57	0	400	6	2	antiphase_hc_ios.wav	3	6	4	noise_calib_stim_RIGHT.wav	2	35	blb_dichoticlistening_ta-pa.mp3	ta	pa	1	right
6.6.1	win	2023-06-24	23:35:43	23:56:12	1225244	6132cc58d1dcc24bcdb61606	1	1	main_slash	24	main_slash	105	stimuli_target_diamondrectangles.svg	stimuli_distractor_trianglediamonds.svg	19	yes	53	1	462	6	2	antiphase_hc_ios.wav	3	6	4	noise_calib_stim_RIGHT.wav	2	35	blb_dichoticlistening_ta-pa.mp3	ta	pa	1	right
6.6.1	win	2023-06-24	23:35:43	23:56:12	1225244	6132cc58d1dcc24bcdb61606	1	1	main_slash	24	advance_on_keypress_SLASH	106	stimuli_target_diamondrectangles.svg	stimuli_distractor_trianglediamonds.svg	19	yes	57	0	516	6	2	antiphase_hc_ios.wav	3	6	4	noise_calib_stim_RIGHT.wav	2	35	blb_dichoticlistening_ta-pa.mp3	ta	pa	1	right
6.6.1	win	2023-06-24	23:35:43	23:56:14	1226994	6132cc58d1dcc24bcdb61606	1	1	main_slash	24	main_slash	107	stimuli_distractor_diamondtriangles.svg	stimuli_target_diamondrectangles.svg	31	yes	53	1	537	6	2	antiphase_hc_ios.wav	3	6	4	noise_calib_stim_RIGHT.wav	2	35	blb_dichoticlistening_ta-pa.mp3	ta	pa	1	right
6.6.1	win	2023-06-24	23:35:43	23:56:14	1226994	6132cc58d1dcc24bcdb61606	1	1	main_slash	24	advance_on_keypress_SLASH	108	stimuli_distractor_diamondtriangles.svg	stimuli_target_diamondrectangles.svg	31	yes	57	0	453	6	2	antiphase_hc_ios.wav	3	6	4	noise_calib_stim_RIGHT.wav	2	35	blb_dichoticlistening_ta-pa.mp3	ta	pa	1	right
6.6.1	win	2023-06-24	23:35:43	23:56:15	1228525	6132cc58d1dcc24bcdb61606	1	1	main_slash	24	main_slash	109	stimuli_distractor_trianglediamonds.svg	stimuli_target_squarediamonds.svg	12	yes	53	1	388	6	2	antiphase_hc_ios.wav	3	6	4	noise_calib_stim_RIGHT.wav	2	35	blb_dichoticlistening_ta-pa.mp3	ta	pa	1	right
6.6.1	win	2023-06-24	23:35:43	23:56:15	1228525	6132cc58d1dcc24bcdb61606	1	1	main_slash	24	advance_on_keypress_SLASH	110	stimuli_distractor_trianglediamonds.svg	stimuli_target_squarediamonds.svg	12	yes	57	0	532	6	2	antiphase_hc_ios.wav	3	6	4	noise_calib_stim_RIGHT.wav	2	35	blb_dichoticlistening_ta-pa.mp3	ta	pa	1	right
6.6.1	win	2023-06-24	23:35:43	23:56:17	1230491	6132cc58d1dcc24bcdb61606	1	1	main_slash	24	main_slash	111	stimuli_target_trianglesquares.svg	stimuli_distractor_trianglediamonds.svg	18	yes	53	1	746	6	2	antiphase_hc_ios.wav	3	6	4	noise_calib_stim_RIGHT.wav	2	35	blb_dichoticlistening_ta-pa.mp3	ta	pa	1	right
6.6.1	win	2023-06-24	23:35:43	23:56:17	1230491	6132cc58d1dcc24bcdb61606	1	1	main_slash	24	advance_on_keypress_SLASH	112	stimuli_target_trianglesquares.svg	stimuli_distractor_trianglediamonds.svg	18	yes	57	0	335	6	2	antiphase_hc_ios.wav	3	6	4	noise_calib_stim_RIGHT.wav	2	35	blb_dichoticlistening_ta-pa.mp3	ta	pa	1	right
6.6.1	win	2023-06-24	23:35:43	23:56:19	1231937	6132cc58d1dcc24bcdb61606	1	1	main_slash	24	main_slash	113	stimuli_target_rectanglediamonds.svg	stimuli_distractor_trianglediamonds.svg	2	yes	53	1	413	6	2	antiphase_hc_ios.wav	3	6	4	noise_calib_stim_RIGHT.wav	2	35	blb_dichoticlistening_ta-pa.mp3	ta	pa	1	right
6.6.1	win	2023-06-24	23:35:43	23:56:19	1231937	6132cc58d1dcc24bcdb61606	1	1	main_slash	24	advance_on_keypress_SLASH	114	stimuli_target_rectanglediamonds.svg	stimuli_distractor_trianglediamonds.svg	2	yes	57	0	327	6	2	antiphase_hc_ios.wav	3	6	4	noise_calib_stim_RIGHT.wav	2	35	blb_dichoticlistening_ta-pa.mp3	ta	pa	1	right
6.6.1	win	2023-06-24	23:35:43	23:56:20	1233349	6132cc58d1dcc24bcdb61606	1	1	main_slash	24	main_slash	115	stimuli_target_squaretriangles.svg	stimuli_distractor_trianglediamonds.svg	3	yes	53	1	390	6	2	antiphase_hc_ios.wav	3	6	4	noise_calib_stim_RIGHT.wav	2	35	blb_dichoticlistening_ta-pa.mp3	ta	pa	1	right
6.6.1	win	2023-06-24	23:35:43	23:56:20	1233349	6132cc58d1dcc24bcdb61606	1	1	main_slash	24	advance_on_keypress_SLASH	116	stimuli_target_squaretriangles.svg	stimuli_distractor_trianglediamonds.svg	3	yes	57	0	374	6	2	antiphase_hc_ios.wav	3	6	4	noise_calib_stim_RIGHT.wav	2	35	blb_dichoticlistening_ta-pa.mp3	ta	pa	1	right
6.6.1	win	2023-06-24	23:35:43	23:56:23	1236411	6132cc58d1dcc24bcdb61606	1	1	main_slash	24	main_slash	117	stimuli_target_diamondsquares.svg	stimuli_distractor_diamondtriangles.svg	24	yes	0	0	2000	6	2	antiphase_hc_ios.wav	3	6	4	noise_calib_stim_RIGHT.wav	2	35	blb_dichoticlistening_ta-pa.mp3	ta	pa	1	right
6.6.1	win	2023-06-24	23:35:43	23:56:23	1236411	6132cc58d1dcc24bcdb61606	1	1	main_slash	24	advance_on_keypress_SLASH	118	stimuli_target_diamondsquares.svg	stimuli_distractor_diamondtriangles.svg	24	yes	57	0	327	6	2	antiphase_hc_ios.wav	3	6	4	noise_calib_stim_RIGHT.wav	2	35	blb_dichoticlistening_ta-pa.mp3	ta	pa	1	right
6.6.1	win	2023-06-24	23:35:43	23:56:26	1239370	6132cc58d1dcc24bcdb61606	1	1	main_slash	24	main_slash	119	stimuli_distractor_diamondtriangles.svg	stimuli_distractor_diamondtriangles.svg	40	no	0	1	2000	6	2	antiphase_hc_ios.wav	3	6	4	noise_calib_stim_RIGHT.wav	2	35	blb_dichoticlistening_ta-pa.mp3	ta	pa	1	right
6.6.1	win	2023-06-24	23:35:43	23:56:26	1239370	6132cc58d1dcc24bcdb61606	1	1	main_slash	24	advance_on_keypress_SLASH	120	stimuli_distractor_diamondtriangles.svg	stimuli_distractor_diamondtriangles.svg	40	no	57	0	384	6	2	antiphase_hc_ios.wav	3	6	4	noise_calib_stim_RIGHT.wav	2	35	blb_dichoticlistening_ta-pa.mp3	ta	pa	1	right
6.6.1	win	2023-06-24	23:35:43	23:56:29	1242447	6132cc58d1dcc24bcdb61606	1	1	main_slash	24	main_slash	121	stimuli_target_trianglesquares.svg	stimuli_distractor_diamondtriangles.svg	22	yes	0	0	2000	6	2	antiphase_hc_ios.wav	3	6	4	noise_calib_stim_RIGHT.wav	2	35	blb_dichoticlistening_ta-pa.mp3	ta	pa	1	right
6.6.1	win	2023-06-24	23:35:43	23:56:29	1242447	6132cc58d1dcc24bcdb61606	1	1	main_slash	24	advance_on_keypress_SLASH	122	stimuli_target_trianglesquares.svg	stimuli_distractor_diamondtriangles.svg	22	yes	57	0	280	6	2	antiphase_hc_ios.wav	3	6	4	noise_calib_stim_RIGHT.wav	2	35	blb_dichoticlistening_ta-pa.mp3	ta	pa	1	right
6.6.1	win	2023-06-24	23:35:43	23:56:30	1243798	6132cc58d1dcc24bcdb61606	1	1	main_slash	24	main_slash	123	stimuli_distractor_diamondtriangles.svg	stimuli_target_squarediamonds.svg	16	yes	53	1	391	6	2	antiphase_hc_ios.wav	3	6	4	noise_calib_stim_RIGHT.wav	2	35	blb_dichoticlistening_ta-pa.mp3	ta	pa	1	right
6.6.1	win	2023-06-24	23:35:43	23:56:30	1243798	6132cc58d1dcc24bcdb61606	1	1	main_slash	24	advance_on_keypress_SLASH	124	stimuli_distractor_diamondtriangles.svg	stimuli_target_squarediamonds.svg	16	yes	57	0	411	6	2	antiphase_hc_ios.wav	3	6	4	noise_calib_stim_RIGHT.wav	2	35	blb_dichoticlistening_ta-pa.mp3	ta	pa	1	right
6.6.1	win	2023-06-24	23:35:43	23:56:32	1245587	6132cc58d1dcc24bcdb61606	1	1	main_slash	24	main_slash	125	stimuli_distractor_trianglediamonds.svg	stimuli_target_trianglerectangles.svg	25	yes	53	1	693	6	2	antiphase_hc_ios.wav	3	6	4	noise_calib_stim_RIGHT.wav	2	35	blb_dichoticlistening_ta-pa.mp3	ta	pa	1	right
6.6.1	win	2023-06-24	23:35:43	23:56:32	1245587	6132cc58d1dcc24bcdb61606	1	1	main_slash	24	advance_on_keypress_SLASH	126	stimuli_distractor_trianglediamonds.svg	stimuli_target_trianglerectangles.svg	25	yes	57	0	398	6	2	antiphase_hc_ios.wav	3	6	4	noise_calib_stim_RIGHT.wav	2	35	blb_dichoticlistening_ta-pa.mp3	ta	pa	1	right
6.6.1	win	2023-06-24	23:35:43	23:56:34	1247213	6132cc58d1dcc24bcdb61606	1	1	main_slash	24	main_slash	127	stimuli_distractor_trianglediamonds.svg	stimuli_target_diamondsquares.svg	28	yes	53	1	529	6	2	antiphase_hc_ios.wav	3	6	4	noise_calib_stim_RIGHT.wav	2	35	blb_dichoticlistening_ta-pa.mp3	ta	pa	1	right
6.6.1	win	2023-06-24	23:35:43	23:56:34	1247213	6132cc58d1dcc24bcdb61606	1	1	main_slash	24	advance_on_keypress_SLASH	128	stimuli_distractor_trianglediamonds.svg	stimuli_target_diamondsquares.svg	28	yes	57	0	404	6	2	antiphase_hc_ios.wav	3	6	4	noise_calib_stim_RIGHT.wav	2	35	blb_dichoticlistening_ta-pa.mp3	ta	pa	1	right
6.6.1	win	2023-06-24	23:35:43	23:56:36	1248978	6132cc58d1dcc24bcdb61606	1	1	main_slash	24	main_slash	129	stimuli_distractor_diamondtriangles.svg	stimuli_distractor_diamondtriangles.svg	39	no	53	0	663	6	2	antiphase_hc_ios.wav	3	6	4	noise_calib_stim_RIGHT.wav	2	35	blb_dichoticlistening_ta-pa.mp3	ta	pa	1	right
6.6.1	win	2023-06-24	23:35:43	23:56:36	1248978	6132cc58d1dcc24bcdb61606	1	1	main_slash	24	advance_on_keypress_SLASH	130	stimuli_distractor_diamondtriangles.svg	stimuli_distractor_diamondtriangles.svg	39	no	57	0	460	6	2	antiphase_hc_ios.wav	3	6	4	noise_calib_stim_RIGHT.wav	2	35	blb_dichoticlistening_ta-pa.mp3	ta	pa	1	right
6.6.1	win	2023-06-24	23:35:43	23:56:37	1250559	6132cc58d1dcc24bcdb61606	1	1	main_slash	24	main_slash	131	stimuli_target_squarediamonds.svg	stimuli_distractor_trianglediamonds.svg	4	yes	53	1	427	6	2	antiphase_hc_ios.wav	3	6	4	noise_calib_stim_RIGHT.wav	2	35	blb_dichoticlistening_ta-pa.mp3	ta	pa	1	right
6.6.1	win	2023-06-24	23:35:43	23:56:37	1250559	6132cc58d1dcc24bcdb61606	1	1	main_slash	24	advance_on_keypress_SLASH	132	stimuli_target_squarediamonds.svg	stimuli_distractor_trianglediamonds.svg	4	yes	57	0	354	6	2	antiphase_hc_ios.wav	3	6	4	noise_calib_stim_RIGHT.wav	2	35	blb_dichoticlistening_ta-pa.mp3	ta	pa	1	right
6.6.1	win	2023-06-24	23:35:43	23:56:40	1253612	6132cc58d1dcc24bcdb61606	1	1	main_slash	24	main_slash	133	stimuli_distractor_trianglediamonds.svg	stimuli_distractor_trianglediamonds.svg	34	no	0	1	2000	6	2	antiphase_hc_ios.wav	3	6	4	noise_calib_stim_RIGHT.wav	2	35	blb_dichoticlistening_ta-pa.mp3	ta	pa	1	right
6.6.1	win	2023-06-24	23:35:43	23:56:40	1253612	6132cc58d1dcc24bcdb61606	1	1	main_slash	24	advance_on_keypress_SLASH	134	stimuli_distractor_trianglediamonds.svg	stimuli_distractor_trianglediamonds.svg	34	no	57	0	352	6	2	antiphase_hc_ios.wav	3	6	4	noise_calib_stim_RIGHT.wav	2	35	blb_dichoticlistening_ta-pa.mp3	ta	pa	1	right
6.6.1	win	2023-06-24	23:35:43	23:56:42	1255083	6132cc58d1dcc24bcdb61606	1	1	main_slash	24	main_slash	135	stimuli_distractor_diamondtriangles.svg	stimuli_distractor_trianglediamonds.svg	37	no	53	0	470	6	2	antiphase_hc_ios.wav	3	6	4	noise_calib_stim_RIGHT.wav	2	35	blb_dichoticlistening_ta-pa.mp3	ta	pa	1	right
6.6.1	win	2023-06-24	23:35:43	23:56:42	1255083	6132cc58d1dcc24bcdb61606	1	1	main_slash	24	advance_on_keypress_SLASH	136	stimuli_distractor_diamondtriangles.svg	stimuli_distractor_trianglediamonds.svg	37	no	57	0	493	6	2	antiphase_hc_ios.wav	3	6	4	noise_calib_stim_RIGHT.wav	2	35	blb_dichoticlistening_ta-pa.mp3	ta	pa	1	right
6.6.1	win	2023-06-24	23:35:43	23:56:43	1256887	6132cc58d1dcc24bcdb61606	1	1	main_slash	24	main_slash	137	stimuli_target_diamondsquares.svg	stimuli_distractor_trianglediamonds.svg	20	yes	53	1	619	6	2	antiphase_hc_ios.wav	3	6	4	noise_calib_stim_RIGHT.wav	2	35	blb_dichoticlistening_ta-pa.mp3	ta	pa	1	right
6.6.1	win	2023-06-24	23:35:43	23:56:43	1256887	6132cc58d1dcc24bcdb61606	1	1	main_slash	24	advance_on_keypress_SLASH	138	stimuli_target_diamondsquares.svg	stimuli_distractor_trianglediamonds.svg	20	yes	57	0	415	6	2	antiphase_hc_ios.wav	3	6	4	noise_calib_stim_RIGHT.wav	2	35	blb_dichoticlistening_ta-pa.mp3	ta	pa	1	right
6.6.1	win	2023-06-24	23:35:43	23:56:45	1258418	6132cc58d1dcc24bcdb61606	1	1	main_slash	24	main_slash	139	stimuli_distractor_trianglediamonds.svg	stimuli_target_rectanglediamonds.svg	10	yes	53	1	427	6	2	antiphase_hc_ios.wav	3	6	4	noise_calib_stim_RIGHT.wav	2	35	blb_dichoticlistening_ta-pa.mp3	ta	pa	1	right
6.6.1	win	2023-06-24	23:35:43	23:56:45	1258418	6132cc58d1dcc24bcdb61606	1	1	main_slash	24	advance_on_keypress_SLASH	140	stimuli_distractor_trianglediamonds.svg	stimuli_target_rectanglediamonds.svg	10	yes	57	0	405	6	2	antiphase_hc_ios.wav	3	6	4	noise_calib_stim_RIGHT.wav	2	35	blb_dichoticlistening_ta-pa.mp3	ta	pa	1	right
6.6.1	win	2023-06-24	23:35:43	23:56:48	1261522	6132cc58d1dcc24bcdb61606	1	1	main_slash	24	main_slash	141	stimuli_distractor_trianglediamonds.svg	stimuli_distractor_diamondtriangles.svg	35	no	0	1	2000	6	2	antiphase_hc_ios.wav	3	6	4	noise_calib_stim_RIGHT.wav	2	35	blb_dichoticlistening_ta-pa.mp3	ta	pa	1	right
6.6.1	win	2023-06-24	23:35:43	23:56:48	1261522	6132cc58d1dcc24bcdb61606	1	1	main_slash	24	advance_on_keypress_SLASH	142	stimuli_distractor_trianglediamonds.svg	stimuli_distractor_diamondtriangles.svg	35	no	57	0	413	6	2	antiphase_hc_ios.wav	3	6	4	noise_calib_stim_RIGHT.wav	2	35	blb_dichoticlistening_ta-pa.mp3	ta	pa	1	right
6.6.1	win	2023-06-24	23:35:43	23:56:50	1262981	6132cc58d1dcc24bcdb61606	1	1	main_slash	24	main_slash	143	stimuli_distractor_diamondtriangles.svg	stimuli_target_rectanglediamonds.svg	14	yes	53	1	353	6	2	antiphase_hc_ios.wav	3	6	4	noise_calib_stim_RIGHT.wav	2	35	blb_dichoticlistening_ta-pa.mp3	ta	pa	1	right
6.6.1	win	2023-06-24	23:35:43	23:56:50	1262981	6132cc58d1dcc24bcdb61606	1	1	main_slash	24	advance_on_keypress_SLASH	144	stimuli_distractor_diamondtriangles.svg	stimuli_target_rectanglediamonds.svg	14	yes	57	0	389	6	2	antiphase_hc_ios.wav	3	6	4	noise_calib_stim_RIGHT.wav	2	35	blb_dichoticlistening_ta-pa.mp3	ta	pa	1	right
6.6.1	win	2023-06-24	23:35:43	23:56:51	1264446	6132cc58d1dcc24bcdb61606	1	1	main_slash	24	main_slash	145	stimuli_target_rectanglediamonds.svg	stimuli_distractor_diamondtriangles.svg	6	yes	53	1	378	6	2	antiphase_hc_ios.wav	3	6	4	noise_calib_stim_RIGHT.wav	2	35	blb_dichoticlistening_ta-pa.mp3	ta	pa	1	right
6.6.1	win	2023-06-24	23:35:43	23:56:51	1264446	6132cc58d1dcc24bcdb61606	1	1	main_slash	24	advance_on_keypress_SLASH	146	stimuli_target_rectanglediamonds.svg	stimuli_distractor_diamondtriangles.svg	6	yes	57	0	337	6	2	antiphase_hc_ios.wav	3	6	4	noise_calib_stim_RIGHT.wav	2	35	blb_dichoticlistening_ta-pa.mp3	ta	pa	1	right
6.6.1	win	2023-06-24	23:35:43	23:56:53	1266091	6132cc58d1dcc24bcdb61606	1	1	main_slash	24	main_slash	147	stimuli_target_trianglerectangles.svg	stimuli_distractor_trianglediamonds.svg	17	yes	53	1	623	6	2	antiphase_hc_ios.wav	3	6	4	noise_calib_stim_RIGHT.wav	2	35	blb_dichoticlistening_ta-pa.mp3	ta	pa	1	right
6.6.1	win	2023-06-24	23:35:43	23:56:53	1266091	6132cc58d1dcc24bcdb61606	1	1	main_slash	24	advance_on_keypress_SLASH	148	stimuli_target_trianglerectangles.svg	stimuli_distractor_trianglediamonds.svg	17	yes	57	0	388	6	2	antiphase_hc_ios.wav	3	6	4	noise_calib_stim_RIGHT.wav	2	35	blb_dichoticlistening_ta-pa.mp3	ta	pa	1	right
6.6.1	win	2023-06-24	23:35:43	23:56:54	1267569	6132cc58d1dcc24bcdb61606	1	1	main_slash	24	main_slash	149	stimuli_target_squaretriangles.svg	stimuli_distractor_diamondtriangles.svg	7	yes	53	1	405	6	2	antiphase_hc_ios.wav	3	6	4	noise_calib_stim_RIGHT.wav	2	35	blb_dichoticlistening_ta-pa.mp3	ta	pa	1	right
6.6.1	win	2023-06-24	23:35:43	23:56:54	1267569	6132cc58d1dcc24bcdb61606	1	1	main_slash	24	advance_on_keypress_SLASH	150	stimuli_target_squaretriangles.svg	stimuli_distractor_diamondtriangles.svg	7	yes	57	0	357	6	2	antiphase_hc_ios.wav	3	6	4	noise_calib_stim_RIGHT.wav	2	35	blb_dichoticlistening_ta-pa.mp3	ta	pa	1	right
6.6.1	win	2023-06-24	23:35:43	23:56:56	1269044	6132cc58d1dcc24bcdb61606	1	1	main_slash	24	main_slash	151	stimuli_distractor_trianglediamonds.svg	stimuli_target_rectangletriangles.svg	9	yes	53	1	429	6	2	antiphase_hc_ios.wav	3	6	4	noise_calib_stim_RIGHT.wav	2	35	blb_dichoticlistening_ta-pa.mp3	ta	pa	1	right
6.6.1	win	2023-06-24	23:35:43	23:56:56	1269044	6132cc58d1dcc24bcdb61606	1	1	main_slash	24	advance_on_keypress_SLASH	152	stimuli_distractor_trianglediamonds.svg	stimuli_target_rectangletriangles.svg	9	yes	57	0	371	6	2	antiphase_hc_ios.wav	3	6	4	noise_calib_stim_RIGHT.wav	2	35	blb_dichoticlistening_ta-pa.mp3	ta	pa	1	right
6.6.1	win	2023-06-24	23:35:43	23:56:59	1272111	6132cc58d1dcc24bcdb61606	1	1	main_slash	24	main_slash	153	stimuli_distractor_diamondtriangles.svg	stimuli_distractor_trianglediamonds.svg	38	no	0	1	2000	6	2	antiphase_hc_ios.wav	3	6	4	noise_calib_stim_RIGHT.wav	2	35	blb_dichoticlistening_ta-pa.mp3	ta	pa	1	right
6.6.1	win	2023-06-24	23:35:43	23:56:59	1272111	6132cc58d1dcc24bcdb61606	1	1	main_slash	24	advance_on_keypress_SLASH	154	stimuli_distractor_diamondtriangles.svg	stimuli_distractor_trianglediamonds.svg	38	no	57	0	244	6	2	antiphase_hc_ios.wav	3	6	4	noise_calib_stim_RIGHT.wav	2	35	blb_dichoticlistening_ta-pa.mp3	ta	pa	1	right
6.6.1	win	2023-06-24	23:35:43	23:57:00	1273435	6132cc58d1dcc24bcdb61606	1	1	main_slash	24	main_slash	155	stimuli_distractor_diamondtriangles.svg	stimuli_target_squaretriangles.svg	15	yes	53	1	436	6	2	antiphase_hc_ios.wav	3	6	4	noise_calib_stim_RIGHT.wav	2	35	blb_dichoticlistening_ta-pa.mp3	ta	pa	1	right
6.6.1	win	2023-06-24	23:35:43	23:57:00	1273435	6132cc58d1dcc24bcdb61606	1	1	main_slash	24	advance_on_keypress_SLASH	156	stimuli_distractor_diamondtriangles.svg	stimuli_target_squaretriangles.svg	15	yes	57	0	355	6	2	antiphase_hc_ios.wav	3	6	4	noise_calib_stim_RIGHT.wav	2	35	blb_dichoticlistening_ta-pa.mp3	ta	pa	1	right
6.6.1	win	2023-06-24	23:35:43	23:57:03	1276428	6132cc58d1dcc24bcdb61606	1	1	main_slash	24	main_slash	157	stimuli_distractor_diamondtriangles.svg	stimuli_target_trianglerectangles.svg	29	yes	0	0	2000	6	2	antiphase_hc_ios.wav	3	6	4	noise_calib_stim_RIGHT.wav	2	35	blb_dichoticlistening_ta-pa.mp3	ta	pa	1	right
6.6.1	win	2023-06-24	23:35:43	23:57:03	1276428	6132cc58d1dcc24bcdb61606	1	1	main_slash	24	advance_on_keypress_SLASH	158	stimuli_distractor_diamondtriangles.svg	stimuli_target_trianglerectangles.svg	29	yes	57	0	252	6	2	antiphase_hc_ios.wav	3	6	4	noise_calib_stim_RIGHT.wav	2	35	blb_dichoticlistening_ta-pa.mp3	ta	pa	1	right
6.6.1	win	2023-06-24	23:35:43	23:57:06	1279332	6132cc58d1dcc24bcdb61606	1	1	main_slash	24	main_slash	159	stimuli_distractor_trianglediamonds.svg	stimuli_distractor_trianglediamonds.svg	33	no	0	1	2000	6	2	antiphase_hc_ios.wav	3	6	4	noise_calib_stim_RIGHT.wav	2	35	blb_dichoticlistening_ta-pa.mp3	ta	pa	1	right
6.6.1	win	2023-06-24	23:35:43	23:57:06	1279332	6132cc58d1dcc24bcdb61606	1	1	main_slash	24	advance_on_keypress_SLASH	160	stimuli_distractor_trianglediamonds.svg	stimuli_distractor_trianglediamonds.svg	33	no	57	0	320	6	2	antiphase_hc_ios.wav	3	6	4	noise_calib_stim_RIGHT.wav	2	35	blb_dichoticlistening_ta-pa.mp3	ta	pa	1	right
6.6.1	win	2023-06-24	23:35:43	23:57:21	1294359	6132cc58d1dcc24bcdb61606	1	1	practice_z	26	practice_z	1	stimuli_target_diamondsquares.svg	stimuli_distractor_trianglediamonds.svg	6	yes	44	1	573	6	2	antiphase_hc_ios.wav	3	6	4	noise_calib_stim_RIGHT.wav	2	35	blb_dichoticlistening_ta-pa.mp3	ta	pa	1	right
6.6.1	win	2023-06-24	23:35:43	23:57:21	1294359	6132cc58d1dcc24bcdb61606	1	1	practice_z	26	advance_on_keypress_ZEE	2	stimuli_target_diamondsquares.svg	stimuli_distractor_trianglediamonds.svg	6	yes	57	0	594	6	2	antiphase_hc_ios.wav	3	6	4	noise_calib_stim_RIGHT.wav	2	35	blb_dichoticlistening_ta-pa.mp3	ta	pa	1	right
6.6.1	win	2023-06-24	23:35:43	23:57:25	1298603	6132cc58d1dcc24bcdb61606	1	1	practice_z	26	practice_z	3	stimuli_distractor_trianglediamonds.svg	stimuli_distractor_trianglediamonds.svg	15	no	0	1	2000	6	2	antiphase_hc_ios.wav	3	6	4	noise_calib_stim_RIGHT.wav	2	35	blb_dichoticlistening_ta-pa.mp3	ta	pa	1	right
6.6.1	win	2023-06-24	23:35:43	23:57:25	1298603	6132cc58d1dcc24bcdb61606	1	1	practice_z	26	advance_on_keypress_ZEE	4	stimuli_distractor_trianglediamonds.svg	stimuli_distractor_trianglediamonds.svg	15	no	57	0	409	6	2	antiphase_hc_ios.wav	3	6	4	noise_calib_stim_RIGHT.wav	2	35	blb_dichoticlistening_ta-pa.mp3	ta	pa	1	right
6.6.1	win	2023-06-24	23:35:43	23:57:28	1301326	6132cc58d1dcc24bcdb61606	1	1	practice_z	26	practice_z	5	stimuli_distractor_trianglediamonds.svg	stimuli_distractor_diamondtriangles.svg	16	no	44	0	674	6	2	antiphase_hc_ios.wav	3	6	4	noise_calib_stim_RIGHT.wav	2	35	blb_dichoticlistening_ta-pa.mp3	ta	pa	1	right
6.6.1	win	2023-06-24	23:35:43	23:57:28	1301326	6132cc58d1dcc24bcdb61606	1	1	practice_z	26	advance_on_keypress_ZEE	6	stimuli_distractor_trianglediamonds.svg	stimuli_distractor_diamondtriangles.svg	16	no	57	0	344	6	2	antiphase_hc_ios.wav	3	6	4	noise_calib_stim_RIGHT.wav	2	35	blb_dichoticlistening_ta-pa.mp3	ta	pa	1	right
6.6.1	win	2023-06-24	23:35:43	23:57:30	1303780	6132cc58d1dcc24bcdb61606	1	1	practice_z	26	practice_z	7	stimuli_target_squarediamonds.svg	stimuli_distractor_diamondtriangles.svg	2	yes	44	1	482	6	2	antiphase_hc_ios.wav	3	6	4	noise_calib_stim_RIGHT.wav	2	35	blb_dichoticlistening_ta-pa.mp3	ta	pa	1	right
6.6.1	win	2023-06-24	23:35:43	23:57:30	1303780	6132cc58d1dcc24bcdb61606	1	1	practice_z	26	advance_on_keypress_ZEE	8	stimuli_target_squarediamonds.svg	stimuli_distractor_diamondtriangles.svg	2	yes	57	0	356	6	2	antiphase_hc_ios.wav	3	6	4	noise_calib_stim_RIGHT.wav	2	35	blb_dichoticlistening_ta-pa.mp3	ta	pa	1	right
6.6.1	win	2023-06-24	23:35:43	23:57:33	1306343	6132cc58d1dcc24bcdb61606	1	1	practice_z	26	practice_z	9	stimuli_distractor_trianglediamonds.svg	stimuli_target_squarediamonds.svg	11	yes	44	1	448	6	2	antiphase_hc_ios.wav	3	6	4	noise_calib_stim_RIGHT.wav	2	35	blb_dichoticlistening_ta-pa.mp3	ta	pa	1	right
6.6.1	win	2023-06-24	23:35:43	23:57:33	1306343	6132cc58d1dcc24bcdb61606	1	1	practice_z	26	advance_on_keypress_ZEE	10	stimuli_distractor_trianglediamonds.svg	stimuli_target_squarediamonds.svg	11	yes	57	0	334	6	2	antiphase_hc_ios.wav	3	6	4	noise_calib_stim_RIGHT.wav	2	35	blb_dichoticlistening_ta-pa.mp3	ta	pa	1	right
6.6.1	win	2023-06-24	23:35:43	23:57:36	1309136	6132cc58d1dcc24bcdb61606	1	1	practice_z	26	practice_z	11	stimuli_distractor_diamondtriangles.svg	stimuli_distractor_diamondtriangles.svg	13	no	44	0	762	6	2	antiphase_hc_ios.wav	3	6	4	noise_calib_stim_RIGHT.wav	2	35	blb_dichoticlistening_ta-pa.mp3	ta	pa	1	right
6.6.1	win	2023-06-24	23:35:43	23:57:36	1309136	6132cc58d1dcc24bcdb61606	1	1	practice_z	26	advance_on_keypress_ZEE	12	stimuli_distractor_diamondtriangles.svg	stimuli_distractor_diamondtriangles.svg	13	no	57	0	312	6	2	antiphase_hc_ios.wav	3	6	4	noise_calib_stim_RIGHT.wav	2	35	blb_dichoticlistening_ta-pa.mp3	ta	pa	1	right
6.6.1	win	2023-06-24	23:35:43	23:57:38	1311599	6132cc58d1dcc24bcdb61606	1	1	practice_z	26	practice_z	13	stimuli_target_squarediamonds.svg	stimuli_distractor_trianglediamonds.svg	5	yes	44	1	450	6	2	antiphase_hc_ios.wav	3	6	4	noise_calib_stim_RIGHT.wav	2	35	blb_dichoticlistening_ta-pa.mp3	ta	pa	1	right
