build	computer.platform	date	time	timestamp	time_elapsed_ms	subject	group	session	blockcode	blocknum	trialcode	trialnum	stimulus_left	stimulus_right	stim_index	target_present	response	correct	latency	headphonecheck_countTestTrials	headphonecheck_index	headphonecheck_testSound	headphonecheck_correctResponse	stereocheck_countTestTrials	stereocheck_index	stereocheck_testSound	stereocheck_correctResponse	DL_index	DL_soundfile	DL_leftSound	DL_rightSound	DL_dualSound	DL_choice
6.6.1	win	2023-06-01	22:49:51	22:54:36	282574	60ff0ff28636a214aed9a72e	3	1	practice_slash	5	practice_slash	1	stimuli_distractor_diamondtriangles.svg	stimuli_distractor_trianglediamonds.svg	14	no	0	1	2000	0	0			0	0			1				0	
6.6.1	win	2023-06-01	22:49:51	22:54:36	282574	60ff0ff28636a214aed9a72e	3	1	practice_slash	5	advance_on_keypress_SLASH	2	stimuli_distractor_diamondtriangles.svg	stimuli_distractor_trianglediamonds.svg	14	no	57	0	8510	0	0			0	0			1				0	
6.6.1	win	2023-06-01	22:49:51	22:54:48	294763	60ff0ff28636a214aed9a72e	3	1	practice_slash	5	practice_slash	3	stimuli_distractor_diamondtriangles.svg	stimuli_target_trianglerectangles.svg	9	yes	0	0	2000	0	0			0	0			1				0	
6.6.1	win	2023-06-01	22:49:51	22:54:48	294763	60ff0ff28636a214aed9a72e	3	1	practice_slash	5	advance_on_keypress_SLASH	4	stimuli_distractor_diamondtriangles.svg	stimuli_target_trianglerectangles.svg	9	yes	57	0	5559	0	0			0	0			1				0	
6.6.1	win	2023-06-01	22:49:51	22:54:57	303340	60ff0ff28636a214aed9a72e	3	1	practice_slash	5	practice_slash	5	stimuli_target_squarediamonds.svg	stimuli_distractor_trianglediamonds.svg	5	yes	53	1	1343	0	0			0	0			1				0	
6.6.1	win	2023-06-01	22:49:51	22:54:57	303340	60ff0ff28636a214aed9a72e	3	1	practice_slash	5	advance_on_keypress_SLASH	6	stimuli_target_squarediamonds.svg	stimuli_distractor_trianglediamonds.svg	5	yes	57	0	912	0	0			0	0			1				0	
6.6.1	win	2023-06-01	22:49:51	22:55:01	307920	60ff0ff28636a214aed9a72e	3	1	practice_slash	5	practice_slash	7	stimuli_distractor_diamondtriangles.svg	stimuli_target_diamondrectangles.svg	8	yes	0	0	2000	0	0			0	0			1				0	
6.6.1	win	2023-06-01	22:49:51	22:55:01	307920	60ff0ff28636a214aed9a72e	3	1	practice_slash	5	advance_on_keypress_SLASH	8	stimuli_distractor_diamondtriangles.svg	stimuli_target_diamondrectangles.svg	8	yes	57	0	736	0	0			0	0			1				0	
6.6.1	win	2023-06-01	22:49:51	22:55:06	312352	60ff0ff28636a214aed9a72e	3	1	practice_slash	5	practice_slash	9	stimuli_distractor_trianglediamonds.svg	stimuli_distractor_trianglediamonds.svg	15	no	0	1	2000	0	0			0	0			1				0	
6.6.1	win	2023-06-01	22:49:51	22:55:06	312352	60ff0ff28636a214aed9a72e	3	1	practice_slash	5	advance_on_keypress_SLASH	10	stimuli_distractor_trianglediamonds.svg	stimuli_distractor_trianglediamonds.svg	15	no	57	0	615	0	0			0	0			1				0	
6.6.1	win	2023-06-01	22:49:51	22:55:09	315726	60ff0ff28636a214aed9a72e	3	1	practice_slash	5	practice_slash	11	stimuli_target_diamondsquares.svg	stimuli_distractor_trianglediamonds.svg	6	yes	53	1	1085	0	0			0	0			1				0	
6.6.1	win	2023-06-01	22:49:51	22:55:09	315726	60ff0ff28636a214aed9a72e	3	1	practice_slash	5	advance_on_keypress_SLASH	12	stimuli_target_diamondsquares.svg	stimuli_distractor_trianglediamonds.svg	6	yes	57	0	897	0	0			0	0			1				0	
6.6.1	win	2023-06-01	22:49:51	22:55:13	319545	60ff0ff28636a214aed9a72e	3	1	practice_slash	5	practice_slash	13	stimuli_distractor_trianglediamonds.svg	stimuli_target_rectanglediamonds.svg	10	yes	53	1	1249	0	0			0	0			1				0	
6.6.1	win	2023-06-01	22:49:51	22:55:13	319545	60ff0ff28636a214aed9a72e	3	1	practice_slash	5	advance_on_keypress_SLASH	14	stimuli_distractor_trianglediamonds.svg	stimuli_target_rectanglediamonds.svg	10	yes	57	0	712	0	0			0	0			1				0	
6.6.1	win	2023-06-01	22:49:51	22:55:16	322741	60ff0ff28636a214aed9a72e	3	1	practice_slash	5	practice_slash	15	stimuli_distractor_diamondtriangles.svg	stimuli_target_rectangletriangles.svg	7	yes	53	1	810	0	0			0	0			1				0	
6.6.1	win	2023-06-01	22:49:51	22:55:16	322741	60ff0ff28636a214aed9a72e	3	1	practice_slash	5	advance_on_keypress_SLASH	16	stimuli_distractor_diamondtriangles.svg	stimuli_target_rectangletriangles.svg	7	yes	57	0	536	0	0			0	0			1				0	
6.6.1	win	2023-06-01	22:49:51	22:55:20	325981	60ff0ff28636a214aed9a72e	3	1	practice_slash	5	practice_slash	17	stimuli_distractor_trianglediamonds.svg	stimuli_target_diamondrectangles.svg	12	yes	53	1	1017	0	0			0	0			1				0	
6.6.1	win	2023-06-01	22:49:51	22:55:20	325981	60ff0ff28636a214aed9a72e	3	1	practice_slash	5	advance_on_keypress_SLASH	18	stimuli_distractor_trianglediamonds.svg	stimuli_target_diamondrectangles.svg	12	yes	57	0	551	0	0			0	0			1				0	
6.6.1	win	2023-06-01	22:49:51	22:55:24	330184	60ff0ff28636a214aed9a72e	3	1	practice_slash	5	practice_slash	19	stimuli_target_diamondsquares.svg	stimuli_distractor_diamondtriangles.svg	3	yes	0	0	2000	0	0			0	0			1				0	
6.6.1	win	2023-06-01	22:49:51	22:55:24	330184	60ff0ff28636a214aed9a72e	3	1	practice_slash	5	advance_on_keypress_SLASH	20	stimuli_target_diamondsquares.svg	stimuli_distractor_diamondtriangles.svg	3	yes	57	0	454	0	0			0	0			1				0	
6.6.1	win	2023-06-01	22:49:51	22:55:27	333048	60ff0ff28636a214aed9a72e	3	1	practice_slash	5	practice_slash	21	stimuli_target_rectanglediamonds.svg	stimuli_distractor_diamondtriangles.svg	1	yes	53	1	738	0	0			0	0			1				0	
6.6.1	win	2023-06-01	22:49:51	22:55:27	333048	60ff0ff28636a214aed9a72e	3	1	practice_slash	5	advance_on_keypress_SLASH	22	stimuli_target_rectanglediamonds.svg	stimuli_distractor_diamondtriangles.svg	1	yes	57	0	676	0	0			0	0			1				0	
6.6.1	win	2023-06-01	22:49:51	22:55:30	336076	60ff0ff28636a214aed9a72e	3	1	practice_slash	5	practice_slash	23	stimuli_target_squarediamonds.svg	stimuli_distractor_diamondtriangles.svg	2	yes	53	1	688	0	0			0	0			1				0	
6.6.1	win	2023-06-01	22:49:51	22:55:30	336076	60ff0ff28636a214aed9a72e	3	1	practice_slash	5	advance_on_keypress_SLASH	24	stimuli_target_squarediamonds.svg	stimuli_distractor_diamondtriangles.svg	2	yes	57	0	587	0	0			0	0			1				0	
6.6.1	win	2023-06-01	22:49:51	22:55:33	339263	60ff0ff28636a214aed9a72e	3	1	practice_slash	5	practice_slash	25	stimuli_distractor_diamondtriangles.svg	stimuli_distractor_diamondtriangles.svg	13	no	53	0	930	0	0			0	0			1				0	
6.6.1	win	2023-06-01	22:49:51	22:55:33	339263	60ff0ff28636a214aed9a72e	3	1	practice_slash	5	advance_on_keypress_SLASH	26	stimuli_distractor_diamondtriangles.svg	stimuli_distractor_diamondtriangles.svg	13	no	57	0	508	0	0			0	0			1				0	
6.6.1	win	2023-06-01	22:49:51	22:55:36	342138	60ff0ff28636a214aed9a72e	3	1	practice_slash	5	practice_slash	27	stimuli_target_rectanglediamonds.svg	stimuli_distractor_trianglediamonds.svg	4	yes	53	1	710	0	0			0	0			1				0	
6.6.1	win	2023-06-01	22:49:51	22:55:36	342138	60ff0ff28636a214aed9a72e	3	1	practice_slash	5	advance_on_keypress_SLASH	28	stimuli_target_rectanglediamonds.svg	stimuli_distractor_trianglediamonds.svg	4	yes	57	0	544	0	0			0	0			1				0	
6.6.1	win	2023-06-01	22:49:51	22:55:39	345137	60ff0ff28636a214aed9a72e	3	1	practice_slash	5	practice_slash	29	stimuli_distractor_trianglediamonds.svg	stimuli_target_squarediamonds.svg	11	yes	53	1	767	0	0			0	0			1				0	
6.6.1	win	2023-06-01	22:49:51	22:55:39	345137	60ff0ff28636a214aed9a72e	3	1	practice_slash	5	advance_on_keypress_SLASH	30	stimuli_distractor_trianglediamonds.svg	stimuli_target_squarediamonds.svg	11	yes	57	0	513	0	0			0	0			1				0	
6.6.1	win	2023-06-01	22:49:51	22:55:43	349325	60ff0ff28636a214aed9a72e	3	1	practice_slash	5	practice_slash	31	stimuli_distractor_trianglediamonds.svg	stimuli_distractor_diamondtriangles.svg	16	no	0	1	2000	0	0			0	0			1				0	
6.6.1	win	2023-06-01	22:49:51	22:55:43	349325	60ff0ff28636a214aed9a72e	3	1	practice_slash	5	advance_on_keypress_SLASH	32	stimuli_distractor_trianglediamonds.svg	stimuli_distractor_diamondtriangles.svg	16	no	57	0	673	0	0			0	0			1				0	
6.6.1	win	2023-06-01	22:49:51	22:55:53	359388	60ff0ff28636a214aed9a72e	3	1	main_slash	7	main_slash	1	stimuli_distractor_diamondtriangles.svg	stimuli_distractor_trianglediamonds.svg	38	no	53	0	1133	0	0			0	0			1				0	
6.6.1	win	2023-06-01	22:49:51	22:55:53	359388	60ff0ff28636a214aed9a72e	3	1	main_slash	7	advance_on_keypress_SLASH	2	stimuli_distractor_diamondtriangles.svg	stimuli_distractor_trianglediamonds.svg	38	no	57	0	935	0	0			0	0			1				0	
6.6.1	win	2023-06-01	22:49:51	22:55:55	361634	60ff0ff28636a214aed9a72e	3	1	main_slash	7	main_slash	3	stimuli_distractor_trianglediamonds.svg	stimuli_target_rectangletriangles.svg	9	yes	53	1	656	0	0			0	0			1				0	
6.6.1	win	2023-06-01	22:49:51	22:55:55	361634	60ff0ff28636a214aed9a72e	3	1	main_slash	7	advance_on_keypress_SLASH	4	stimuli_distractor_trianglediamonds.svg	stimuli_target_rectangletriangles.svg	9	yes	57	0	941	0	0			0	0			1				0	
6.6.1	win	2023-06-01	22:49:51	22:55:58	364357	60ff0ff28636a214aed9a72e	3	1	main_slash	7	main_slash	5	stimuli_target_diamondsquares.svg	stimuli_distractor_diamondtriangles.svg	24	yes	53	1	1110	0	0			0	0			1				0	
6.6.1	win	2023-06-01	22:49:51	22:55:58	364357	60ff0ff28636a214aed9a72e	3	1	main_slash	7	advance_on_keypress_SLASH	6	stimuli_target_diamondsquares.svg	stimuli_distractor_diamondtriangles.svg	24	yes	57	0	704	0	0			0	0			1				0	
6.6.1	win	2023-06-01	22:49:51	22:56:00	366743	60ff0ff28636a214aed9a72e	3	1	main_slash	7	main_slash	7	stimuli_target_rectangletriangles.svg	stimuli_distractor_trianglediamonds.svg	1	yes	53	1	1010	0	0			0	0			1				0	
6.6.1	win	2023-06-01	22:49:51	22:56:00	366743	60ff0ff28636a214aed9a72e	3	1	main_slash	7	advance_on_keypress_SLASH	8	stimuli_target_rectangletriangles.svg	stimuli_distractor_trianglediamonds.svg	1	yes	57	0	569	0	0			0	0			1				0	
6.6.1	win	2023-06-01	22:49:51	22:56:04	369981	60ff0ff28636a214aed9a72e	3	1	main_slash	7	main_slash	9	stimuli_distractor_diamondtriangles.svg	stimuli_distractor_diamondtriangles.svg	39	no	0	1	2000	0	0			0	0			1				0	
6.6.1	win	2023-06-01	22:49:51	22:56:04	369981	60ff0ff28636a214aed9a72e	3	1	main_slash	7	advance_on_keypress_SLASH	10	stimuli_distractor_diamondtriangles.svg	stimuli_distractor_diamondtriangles.svg	39	no	57	0	456	0	0			0	0			1				0	
6.6.1	win	2023-06-01	22:49:51	22:56:06	372717	60ff0ff28636a214aed9a72e	3	1	main_slash	7	main_slash	11	stimuli_target_trianglerectangles.svg	stimuli_distractor_trianglediamonds.svg	17	yes	53	1	1637	0	0			0	0			1				0	
6.6.1	win	2023-06-01	22:49:51	22:56:06	372717	60ff0ff28636a214aed9a72e	3	1	main_slash	7	advance_on_keypress_SLASH	12	stimuli_target_trianglerectangles.svg	stimuli_distractor_trianglediamonds.svg	17	yes	57	0	666	0	0			0	0			1				0	
6.6.1	win	2023-06-01	22:49:51	22:56:09	375305	60ff0ff28636a214aed9a72e	3	1	main_slash	7	main_slash	13	stimuli_distractor_trianglediamonds.svg	stimuli_target_diamondrectangles.svg	27	yes	53	1	1254	0	0			0	0			1				0	
6.6.1	win	2023-06-01	22:49:51	22:56:09	375305	60ff0ff28636a214aed9a72e	3	1	main_slash	7	advance_on_keypress_SLASH	14	stimuli_distractor_trianglediamonds.svg	stimuli_target_diamondrectangles.svg	27	yes	57	0	571	0	0			0	0			1				0	
6.6.1	win	2023-06-01	22:49:51	22:56:11	377556	60ff0ff28636a214aed9a72e	3	1	main_slash	7	main_slash	15	stimuli_distractor_trianglediamonds.svg	stimuli_target_rectanglediamonds.svg	10	yes	53	1	1019	0	0			0	0			1				0	
6.6.1	win	2023-06-01	22:49:51	22:56:11	377556	60ff0ff28636a214aed9a72e	3	1	main_slash	7	advance_on_keypress_SLASH	16	stimuli_distractor_trianglediamonds.svg	stimuli_target_rectanglediamonds.svg	10	yes	57	0	545	0	0			0	0			1				0	
6.6.1	win	2023-06-01	22:49:51	22:56:14	380764	60ff0ff28636a214aed9a72e	3	1	main_slash	7	main_slash	17	stimuli_distractor_diamondtriangles.svg	stimuli_distractor_diamondtriangles.svg	40	no	0	1	2000	0	0			0	0			1				0	
6.6.1	win	2023-06-01	22:49:51	22:56:14	380764	60ff0ff28636a214aed9a72e	3	1	main_slash	7	advance_on_keypress_SLASH	18	stimuli_distractor_diamondtriangles.svg	stimuli_distractor_diamondtriangles.svg	40	no	57	0	384	0	0			0	0			1				0	
6.6.1	win	2023-06-01	22:49:51	22:56:16	382836	60ff0ff28636a214aed9a72e	3	1	main_slash	7	main_slash	19	stimuli_target_diamondrectangles.svg	stimuli_distractor_diamondtriangles.svg	23	yes	53	1	1023	0	0			0	0			1				0	
6.6.1	win	2023-06-01	22:49:51	22:56:16	382836	60ff0ff28636a214aed9a72e	3	1	main_slash	7	advance_on_keypress_SLASH	20	stimuli_target_diamondrectangles.svg	stimuli_distractor_diamondtriangles.svg	23	yes	57	0	501	0	0			0	0			1				0	
6.6.1	win	2023-06-01	22:49:51	22:56:18	384793	60ff0ff28636a214aed9a72e	3	1	main_slash	7	main_slash	21	stimuli_target_diamondsquares.svg	stimuli_distractor_trianglediamonds.svg	20	yes	53	1	792	0	0			0	0			1				0	
6.6.1	win	2023-06-01	22:49:51	22:56:18	384793	60ff0ff28636a214aed9a72e	3	1	main_slash	7	advance_on_keypress_SLASH	22	stimuli_target_diamondsquares.svg	stimuli_distractor_trianglediamonds.svg	20	yes	57	0	591	0	0			0	0			1				0	
6.6.1	win	2023-06-01	22:49:51	22:56:21	387012	60ff0ff28636a214aed9a72e	3	1	main_slash	7	main_slash	23	stimuli_distractor_diamondtriangles.svg	stimuli_target_trianglerectangles.svg	29	yes	53	1	966	0	0			0	0			1				0	
6.6.1	win	2023-06-01	22:49:51	22:56:21	387012	60ff0ff28636a214aed9a72e	3	1	main_slash	7	advance_on_keypress_SLASH	24	stimuli_distractor_diamondtriangles.svg	stimuli_target_trianglerectangles.svg	29	yes	57	0	511	0	0			0	0			1				0	
6.6.1	win	2023-06-01	22:49:51	22:56:23	389168	60ff0ff28636a214aed9a72e	3	1	main_slash	7	main_slash	25	stimuli_target_trianglesquares.svg	stimuli_distractor_diamondtriangles.svg	22	yes	53	1	993	0	0			0	0			1				0	
6.6.1	win	2023-06-01	22:49:51	22:56:23	389168	60ff0ff28636a214aed9a72e	3	1	main_slash	7	advance_on_keypress_SLASH	26	stimuli_target_trianglesquares.svg	stimuli_distractor_diamondtriangles.svg	22	yes	57	0	672	0	0			0	0			1				0	
6.6.1	win	2023-06-01	22:49:51	22:56:25	391389	60ff0ff28636a214aed9a72e	3	1	main_slash	7	main_slash	27	stimuli_distractor_trianglediamonds.svg	stimuli_target_diamondsquares.svg	28	yes	53	1	868	0	0			0	0			1				0	
6.6.1	win	2023-06-01	22:49:51	22:56:25	391389	60ff0ff28636a214aed9a72e	3	1	main_slash	7	advance_on_keypress_SLASH	28	stimuli_distractor_trianglediamonds.svg	stimuli_target_diamondsquares.svg	28	yes	57	0	488	0	0			0	0			1				0	
6.6.1	win	2023-06-01	22:49:51	22:56:28	394557	60ff0ff28636a214aed9a72e	3	1	main_slash	7	main_slash	29	stimuli_distractor_diamondtriangles.svg	stimuli_target_squaretriangles.svg	15	yes	0	0	2000	0	0			0	0			1				0	
6.6.1	win	2023-06-01	22:49:51	22:56:28	394557	60ff0ff28636a214aed9a72e	3	1	main_slash	7	advance_on_keypress_SLASH	30	stimuli_distractor_diamondtriangles.svg	stimuli_target_squaretriangles.svg	15	yes	57	0	337	0	0			0	0			1				0	
6.6.1	win	2023-06-01	22:49:51	22:56:30	396449	60ff0ff28636a214aed9a72e	3	1	main_slash	7	main_slash	31	stimuli_target_trianglesquares.svg	stimuli_distractor_trianglediamonds.svg	18	yes	53	1	898	0	0			0	0			1				0	
6.6.1	win	2023-06-01	22:49:51	22:56:30	396449	60ff0ff28636a214aed9a72e	3	1	main_slash	7	advance_on_keypress_SLASH	32	stimuli_target_trianglesquares.svg	stimuli_distractor_trianglediamonds.svg	18	yes	57	0	493	0	0			0	0			1				0	
6.6.1	win	2023-06-01	22:49:51	22:56:32	398791	60ff0ff28636a214aed9a72e	3	1	main_slash	7	main_slash	33	stimuli_distractor_diamondtriangles.svg	stimuli_target_squarediamonds.svg	16	yes	53	1	1176	0	0			0	0			1				0	
6.6.1	win	2023-06-01	22:49:51	22:56:32	398791	60ff0ff28636a214aed9a72e	3	1	main_slash	7	advance_on_keypress_SLASH	34	stimuli_distractor_diamondtriangles.svg	stimuli_target_squarediamonds.svg	16	yes	57	0	384	0	0			0	0			1				0	
6.6.1	win	2023-06-01	22:49:51	22:56:34	400760	60ff0ff28636a214aed9a72e	3	1	main_slash	7	main_slash	35	stimuli_distractor_trianglediamonds.svg	stimuli_target_trianglesquares.svg	26	yes	53	1	910	0	0			0	0			1				0	
6.6.1	win	2023-06-01	22:49:51	22:56:34	400760	60ff0ff28636a214aed9a72e	3	1	main_slash	7	advance_on_keypress_SLASH	36	stimuli_distractor_trianglediamonds.svg	stimuli_target_trianglesquares.svg	26	yes	57	0	441	0	0			0	0			1				0	
6.6.1	win	2023-06-01	22:49:51	22:56:36	402652	60ff0ff28636a214aed9a72e	3	1	main_slash	7	main_slash	37	stimuli_distractor_diamondtriangles.svg	stimuli_target_rectangletriangles.svg	13	yes	53	1	797	0	0			0	0			1				0	
6.6.1	win	2023-06-01	22:49:51	22:56:36	402652	60ff0ff28636a214aed9a72e	3	1	main_slash	7	advance_on_keypress_SLASH	38	stimuli_distractor_diamondtriangles.svg	stimuli_target_rectangletriangles.svg	13	yes	57	0	581	0	0			0	0			1				0	
6.6.1	win	2023-06-01	22:49:51	22:56:38	404760	60ff0ff28636a214aed9a72e	3	1	main_slash	7	main_slash	39	stimuli_distractor_diamondtriangles.svg	stimuli_target_rectanglediamonds.svg	14	yes	53	1	869	0	0			0	0			1				0	
6.6.1	win	2023-06-01	22:49:51	22:56:38	404760	60ff0ff28636a214aed9a72e	3	1	main_slash	7	advance_on_keypress_SLASH	40	stimuli_distractor_diamondtriangles.svg	stimuli_target_rectanglediamonds.svg	14	yes	57	0	385	0	0			0	0			1				0	
6.6.1	win	2023-06-01	22:49:51	22:56:41	407805	60ff0ff28636a214aed9a72e	3	1	main_slash	7	main_slash	41	stimuli_distractor_trianglediamonds.svg	stimuli_distractor_diamondtriangles.svg	35	no	0	1	2000	0	0			0	0			1				0	
6.6.1	win	2023-06-01	22:49:51	22:56:41	407805	60ff0ff28636a214aed9a72e	3	1	main_slash	7	advance_on_keypress_SLASH	42	stimuli_distractor_trianglediamonds.svg	stimuli_distractor_diamondtriangles.svg	35	no	57	0	447	0	0			0	0			1				0	
6.6.1	win	2023-06-01	22:49:51	22:56:43	409807	60ff0ff28636a214aed9a72e	3	1	main_slash	7	main_slash	43	stimuli_target_diamondrectangles.svg	stimuli_distractor_trianglediamonds.svg	19	yes	53	1	892	0	0			0	0			1				0	
6.6.1	win	2023-06-01	22:49:51	22:56:43	409807	60ff0ff28636a214aed9a72e	3	1	main_slash	7	advance_on_keypress_SLASH	44	stimuli_target_diamondrectangles.svg	stimuli_distractor_trianglediamonds.svg	19	yes	57	0	391	0	0			0	0			1				0	
6.6.1	win	2023-06-01	22:49:51	22:56:45	411497	60ff0ff28636a214aed9a72e	3	1	main_slash	7	main_slash	45	stimuli_distractor_diamondtriangles.svg	stimuli_target_trianglesquares.svg	30	yes	53	1	635	0	0			0	0			1				0	
6.6.1	win	2023-06-01	22:49:51	22:56:45	411497	60ff0ff28636a214aed9a72e	3	1	main_slash	7	advance_on_keypress_SLASH	46	stimuli_distractor_diamondtriangles.svg	stimuli_target_trianglesquares.svg	30	yes	57	0	532	0	0			0	0			1				0	
6.6.1	win	2023-06-01	22:49:51	22:56:47	413402	60ff0ff28636a214aed9a72e	3	1	main_slash	7	main_slash	47	stimuli_target_squaretriangles.svg	stimuli_distractor_diamondtriangles.svg	7	yes	53	1	709	0	0			0	0			1				0	
6.6.1	win	2023-06-01	22:49:51	22:56:47	413402	60ff0ff28636a214aed9a72e	3	1	main_slash	7	advance_on_keypress_SLASH	48	stimuli_target_squaretriangles.svg	stimuli_distractor_diamondtriangles.svg	7	yes	57	0	271	0	0			0	0			1				0	
6.6.1	win	2023-06-01	22:49:51	22:56:49	415089	60ff0ff28636a214aed9a72e	3	1	main_slash	7	main_slash	49	stimuli_target_squarediamonds.svg	stimuli_distractor_trianglediamonds.svg	4	yes	53	1	756	0	0			0	0			1				0	
6.6.1	win	2023-06-01	22:49:51	22:56:49	415089	60ff0ff28636a214aed9a72e	3	1	main_slash	7	advance_on_keypress_SLASH	50	stimuli_target_squarediamonds.svg	stimuli_distractor_trianglediamonds.svg	4	yes	57	0	332	0	0			0	0			1				0	
6.6.1	win	2023-06-01	22:49:51	22:56:50	416836	60ff0ff28636a214aed9a72e	3	1	main_slash	7	main_slash	51	stimuli_target_rectanglediamonds.svg	stimuli_distractor_diamondtriangles.svg	6	yes	53	1	748	0	0			0	0			1				0	
6.6.1	win	2023-06-01	22:49:51	22:56:50	416836	60ff0ff28636a214aed9a72e	3	1	main_slash	7	advance_on_keypress_SLASH	52	stimuli_target_rectanglediamonds.svg	stimuli_distractor_diamondtriangles.svg	6	yes	57	0	302	0	0			0	0			1				0	
6.6.1	win	2023-06-01	22:49:51	22:56:52	418619	60ff0ff28636a214aed9a72e	3	1	main_slash	7	main_slash	53	stimuli_distractor_diamondtriangles.svg	stimuli_target_diamondrectangles.svg	31	yes	53	1	825	0	0			0	0			1				0	
6.6.1	win	2023-06-01	22:49:51	22:56:52	418619	60ff0ff28636a214aed9a72e	3	1	main_slash	7	advance_on_keypress_SLASH	54	stimuli_distractor_diamondtriangles.svg	stimuli_target_diamondrectangles.svg	31	yes	57	0	367	0	0			0	0			1				0	
6.6.1	win	2023-06-01	22:49:51	22:56:55	421654	60ff0ff28636a214aed9a72e	3	1	main_slash	7	main_slash	55	stimuli_distractor_trianglediamonds.svg	stimuli_distractor_diamondtriangles.svg	36	no	0	1	2000	0	0			0	0			1				0	
6.6.1	win	2023-06-01	22:49:51	22:56:55	421654	60ff0ff28636a214aed9a72e	3	1	main_slash	7	advance_on_keypress_SLASH	56	stimuli_distractor_trianglediamonds.svg	stimuli_distractor_diamondtriangles.svg	36	no	57	0	606	0	0			0	0			1				0	
6.6.1	win	2023-06-01	22:49:51	22:56:58	424760	60ff0ff28636a214aed9a72e	3	1	main_slash	7	main_slash	57	stimuli_distractor_diamondtriangles.svg	stimuli_distractor_trianglediamonds.svg	37	no	53	0	1828	0	0			0	0			1				0	
6.6.1	win	2023-06-01	22:49:51	22:56:58	424760	60ff0ff28636a214aed9a72e	3	1	main_slash	7	advance_on_keypress_SLASH	58	stimuli_distractor_diamondtriangles.svg	stimuli_distractor_trianglediamonds.svg	37	no	57	0	690	0	0			0	0			1				0	
6.6.1	win	2023-06-01	22:49:51	22:57:00	426759	60ff0ff28636a214aed9a72e	3	1	main_slash	7	main_slash	59	stimuli_target_squarediamonds.svg	stimuli_distractor_diamondtriangles.svg	8	yes	53	1	661	0	0			0	0			1				0	
6.6.1	win	2023-06-01	22:49:51	22:57:00	426759	60ff0ff28636a214aed9a72e	3	1	main_slash	7	advance_on_keypress_SLASH	60	stimuli_target_squarediamonds.svg	stimuli_distractor_diamondtriangles.svg	8	yes	57	0	394	0	0			0	0			1				0	
6.6.1	win	2023-06-01	22:49:51	22:57:02	428564	60ff0ff28636a214aed9a72e	3	1	main_slash	7	main_slash	61	stimuli_target_squaretriangles.svg	stimuli_distractor_trianglediamonds.svg	3	yes	53	1	745	0	0			0	0			1				0	
6.6.1	win	2023-06-01	22:49:51	22:57:02	428564	60ff0ff28636a214aed9a72e	3	1	main_slash	7	advance_on_keypress_SLASH	62	stimuli_target_squaretriangles.svg	stimuli_distractor_trianglediamonds.svg	3	yes	57	0	1585	0	0			0	0			1				0	
6.6.1	win	2023-06-01	22:49:51	22:57:06	432826	60ff0ff28636a214aed9a72e	3	1	main_slash	7	main_slash	63	stimuli_target_trianglerectangles.svg	stimuli_distractor_diamondtriangles.svg	21	yes	0	0	2000	0	0			0	0			1				0	
6.6.1	win	2023-06-01	22:49:51	22:57:06	432826	60ff0ff28636a214aed9a72e	3	1	main_slash	7	advance_on_keypress_SLASH	64	stimuli_target_trianglerectangles.svg	stimuli_distractor_diamondtriangles.svg	21	yes	57	0	303	0	0			0	0			1				0	
6.6.1	win	2023-06-01	22:49:51	22:57:08	434481	60ff0ff28636a214aed9a72e	3	1	main_slash	7	main_slash	65	stimuli_target_rectanglediamonds.svg	stimuli_distractor_trianglediamonds.svg	2	yes	53	1	681	0	0			0	0			1				0	
6.6.1	win	2023-06-01	22:49:51	22:57:08	434481	60ff0ff28636a214aed9a72e	3	1	main_slash	7	advance_on_keypress_SLASH	66	stimuli_target_rectanglediamonds.svg	stimuli_distractor_trianglediamonds.svg	2	yes	57	0	373	0	0			0	0			1				0	
6.6.1	win	2023-06-01	22:49:51	22:57:10	436215	60ff0ff28636a214aed9a72e	3	1	main_slash	7	main_slash	67	stimuli_target_rectangletriangles.svg	stimuli_distractor_diamondtriangles.svg	5	yes	53	1	684	0	0			0	0			1				0	
6.6.1	win	2023-06-01	22:49:51	22:57:10	436215	60ff0ff28636a214aed9a72e	3	1	main_slash	7	advance_on_keypress_SLASH	68	stimuli_target_rectangletriangles.svg	stimuli_distractor_diamondtriangles.svg	5	yes	57	0	287	0	0			0	0			1				0	
6.6.1	win	2023-06-01	22:49:51	22:57:12	438140	60ff0ff28636a214aed9a72e	3	1	main_slash	7	main_slash	69	stimuli_distractor_trianglediamonds.svg	stimuli_target_trianglerectangles.svg	25	yes	53	1	979	0	0			0	0			1				0	
6.6.1	win	2023-06-01	22:49:51	22:57:12	438140	60ff0ff28636a214aed9a72e	3	1	main_slash	7	advance_on_keypress_SLASH	70	stimuli_distractor_trianglediamonds.svg	stimuli_target_trianglerectangles.svg	25	yes	57	0	315	0	0			0	0			1				0	
6.6.1	win	2023-06-01	22:49:51	22:57:13	439856	60ff0ff28636a214aed9a72e	3	1	main_slash	7	main_slash	71	stimuli_distractor_diamondtriangles.svg	stimuli_target_diamondsquares.svg	32	yes	53	1	737	0	0			0	0			1				0	
6.6.1	win	2023-06-01	22:49:51	22:57:13	439856	60ff0ff28636a214aed9a72e	3	1	main_slash	7	advance_on_keypress_SLASH	72	stimuli_distractor_diamondtriangles.svg	stimuli_target_diamondsquares.svg	32	yes	57	0	230	0	0			0	0			1				0	
6.6.1	win	2023-06-01	22:49:51	22:57:15	441311	60ff0ff28636a214aed9a72e	3	1	main_slash	7	main_slash	73	stimuli_distractor_trianglediamonds.svg	stimuli_target_squarediamonds.svg	12	yes	53	1	563	0	0			0	0			1				0	
6.6.1	win	2023-06-01	22:49:51	22:57:15	441311	60ff0ff28636a214aed9a72e	3	1	main_slash	7	advance_on_keypress_SLASH	74	stimuli_distractor_trianglediamonds.svg	stimuli_target_squarediamonds.svg	12	yes	57	0	260	0	0			0	0			1				0	
6.6.1	win	2023-06-01	22:49:51	22:57:18	444232	60ff0ff28636a214aed9a72e	3	1	main_slash	7	main_slash	75	stimuli_distractor_trianglediamonds.svg	stimuli_distractor_trianglediamonds.svg	33	no	0	1	2000	0	0			0	0			1				0	
6.6.1	win	2023-06-01	22:49:51	22:57:18	444232	60ff0ff28636a214aed9a72e	3	1	main_slash	7	advance_on_keypress_SLASH	76	stimuli_distractor_trianglediamonds.svg	stimuli_distractor_trianglediamonds.svg	33	no	57	0	455	0	0			0	0			1				0	
6.6.1	win	2023-06-01	22:49:51	22:57:20	445997	60ff0ff28636a214aed9a72e	3	1	main_slash	7	main_slash	77	stimuli_distractor_trianglediamonds.svg	stimuli_target_squaretriangles.svg	11	yes	53	1	652	0	0			0	0			1				0	
6.6.1	win	2023-06-01	22:49:51	22:57:20	445997	60ff0ff28636a214aed9a72e	3	1	main_slash	7	advance_on_keypress_SLASH	78	stimuli_distractor_trianglediamonds.svg	stimuli_target_squaretriangles.svg	11	yes	57	0	200	0	0			0	0			1				0	
6.6.1	win	2023-06-01	22:49:51	22:57:22	448857	60ff0ff28636a214aed9a72e	3	1	main_slash	7	main_slash	79	stimuli_distractor_trianglediamonds.svg	stimuli_distractor_trianglediamonds.svg	34	no	0	1	2000	0	0			0	0			1				0	
6.6.1	win	2023-06-01	22:49:51	22:57:22	448857	60ff0ff28636a214aed9a72e	3	1	main_slash	7	advance_on_keypress_SLASH	80	stimuli_distractor_trianglediamonds.svg	stimuli_distractor_trianglediamonds.svg	34	no	57	0	502	0	0			0	0			1				0	
6.6.1	win	2023-06-01	22:49:51	22:57:25	451028	60ff0ff28636a214aed9a72e	3	1	main_slash	7	main_slash	81	stimuli_distractor_diamondtriangles.svg	stimuli_distractor_diamondtriangles.svg	40	no	53	0	992	0	0			0	0			1				0	
6.6.1	win	2023-06-01	22:49:51	22:57:25	451028	60ff0ff28636a214aed9a72e	3	1	main_slash	7	advance_on_keypress_SLASH	82	stimuli_distractor_diamondtriangles.svg	stimuli_distractor_diamondtriangles.svg	40	no	57	0	272	0	0			0	0			1				0	
6.6.1	win	2023-06-01	22:49:51	22:57:26	452639	60ff0ff28636a214aed9a72e	3	1	main_slash	7	main_slash	83	stimuli_distractor_trianglediamonds.svg	stimuli_target_squarediamonds.svg	12	yes	53	1	675	0	0			0	0			1				0	
6.6.1	win	2023-06-01	22:49:51	22:57:26	452639	60ff0ff28636a214aed9a72e	3	1	main_slash	7	advance_on_keypress_SLASH	84	stimuli_distractor_trianglediamonds.svg	stimuli_target_squarediamonds.svg	12	yes	57	0	215	0	0			0	0			1				0	
6.6.1	win	2023-06-01	22:49:51	22:57:28	454451	60ff0ff28636a214aed9a72e	3	1	main_slash	7	main_slash	85	stimuli_target_trianglerectangles.svg	stimuli_distractor_diamondtriangles.svg	21	yes	53	1	933	0	0			0	0			1				0	
6.6.1	win	2023-06-01	22:49:51	22:57:28	454451	60ff0ff28636a214aed9a72e	3	1	main_slash	7	advance_on_keypress_SLASH	86	stimuli_target_trianglerectangles.svg	stimuli_distractor_diamondtriangles.svg	21	yes	57	0	254	0	0			0	0			1				0	
6.6.1	win	2023-06-01	22:49:51	22:57:31	457358	60ff0ff28636a214aed9a72e	3	1	main_slash	7	main_slash	87	stimuli_distractor_trianglediamonds.svg	stimuli_distractor_diamondtriangles.svg	36	no	0	1	2000	0	0			0	0			1				0	
6.6.1	win	2023-06-01	22:49:51	22:57:31	457358	60ff0ff28636a214aed9a72e	3	1	main_slash	7	advance_on_keypress_SLASH	88	stimuli_distractor_trianglediamonds.svg	stimuli_distractor_diamondtriangles.svg	36	no	57	0	570	0	0			0	0			1				0	
6.6.1	win	2023-06-01	22:49:51	22:57:33	459308	60ff0ff28636a214aed9a72e	3	1	main_slash	7	main_slash	89	stimuli_distractor_trianglediamonds.svg	stimuli_distractor_diamondtriangles.svg	35	no	53	0	727	0	0			0	0			1				0	
6.6.1	win	2023-06-01	22:49:51	22:57:33	459308	60ff0ff28636a214aed9a72e	3	1	main_slash	7	advance_on_keypress_SLASH	90	stimuli_distractor_trianglediamonds.svg	stimuli_distractor_diamondtriangles.svg	35	no	57	0	301	0	0			0	0			1				0	
6.6.1	win	2023-06-01	22:49:51	22:57:35	461185	60ff0ff28636a214aed9a72e	3	1	main_slash	7	main_slash	91	stimuli_target_diamondsquares.svg	stimuli_distractor_diamondtriangles.svg	24	yes	53	1	903	0	0			0	0			1				0	
6.6.1	win	2023-06-01	22:49:51	22:57:35	461185	60ff0ff28636a214aed9a72e	3	1	main_slash	7	advance_on_keypress_SLASH	92	stimuli_target_diamondsquares.svg	stimuli_distractor_diamondtriangles.svg	24	yes	57	0	713	0	0			0	0			1				0	
6.6.1	win	2023-06-01	22:49:51	22:57:37	463280	60ff0ff28636a214aed9a72e	3	1	main_slash	7	main_slash	93	stimuli_target_trianglesquares.svg	stimuli_distractor_trianglediamonds.svg	18	yes	53	1	715	0	0			0	0			1				0	
6.6.1	win	2023-06-01	22:49:51	22:57:37	463280	60ff0ff28636a214aed9a72e	3	1	main_slash	7	advance_on_keypress_SLASH	94	stimuli_target_trianglesquares.svg	stimuli_distractor_trianglediamonds.svg	18	yes	57	0	389	0	0			0	0			1				0	
6.6.1	win	2023-06-01	22:49:51	22:57:38	464933	60ff0ff28636a214aed9a72e	3	1	main_slash	7	main_slash	95	stimuli_distractor_trianglediamonds.svg	stimuli_target_diamondsquares.svg	28	yes	53	1	605	0	0			0	0			1				0	
6.6.1	win	2023-06-01	22:49:51	22:57:38	464933	60ff0ff28636a214aed9a72e	3	1	main_slash	7	advance_on_keypress_SLASH	96	stimuli_distractor_trianglediamonds.svg	stimuli_target_diamondsquares.svg	28	yes	57	0	211	0	0			0	0			1				0	
6.6.1	win	2023-06-01	22:49:51	22:57:41	467808	60ff0ff28636a214aed9a72e	3	1	main_slash	7	main_slash	97	stimuli_target_trianglerectangles.svg	stimuli_distractor_trianglediamonds.svg	17	yes	0	0	2000	0	0			0	0			1				0	
6.6.1	win	2023-06-01	22:49:51	22:57:41	467808	60ff0ff28636a214aed9a72e	3	1	main_slash	7	advance_on_keypress_SLASH	98	stimuli_target_trianglerectangles.svg	stimuli_distractor_trianglediamonds.svg	17	yes	57	0	481	0	0			0	0			1				0	
6.6.1	win	2023-06-01	22:49:51	22:57:44	470951	60ff0ff28636a214aed9a72e	3	1	main_slash	7	main_slash	99	stimuli_distractor_trianglediamonds.svg	stimuli_distractor_trianglediamonds.svg	34	no	0	1	2000	0	0			0	0			1				0	
6.6.1	win	2023-06-01	22:49:51	22:57:44	470951	60ff0ff28636a214aed9a72e	3	1	main_slash	7	advance_on_keypress_SLASH	100	stimuli_distractor_trianglediamonds.svg	stimuli_distractor_trianglediamonds.svg	34	no	57	0	467	0	0			0	0			1				0	
6.6.1	win	2023-06-01	22:49:51	22:57:46	472527	60ff0ff28636a214aed9a72e	3	1	main_slash	7	main_slash	101	stimuli_distractor_diamondtriangles.svg	stimuli_target_trianglesquares.svg	30	yes	53	1	447	0	0			0	0			1				0	
6.6.1	win	2023-06-01	22:49:51	22:57:46	472527	60ff0ff28636a214aed9a72e	3	1	main_slash	7	advance_on_keypress_SLASH	102	stimuli_distractor_diamondtriangles.svg	stimuli_target_trianglesquares.svg	30	yes	57	0	540	0	0			0	0			1				0	
6.6.1	win	2023-06-01	22:49:51	22:57:49	474995	60ff0ff28636a214aed9a72e	3	1	main_slash	7	main_slash	103	stimuli_distractor_diamondtriangles.svg	stimuli_distractor_trianglediamonds.svg	38	no	53	0	1261	0	0			0	0			1				0	
6.6.1	win	2023-06-01	22:49:51	22:57:49	474995	60ff0ff28636a214aed9a72e	3	1	main_slash	7	advance_on_keypress_SLASH	104	stimuli_distractor_diamondtriangles.svg	stimuli_distractor_trianglediamonds.svg	38	no	57	0	530	0	0			0	0			1				0	
6.6.1	win	2023-06-01	22:49:51	22:57:51	477620	60ff0ff28636a214aed9a72e	3	1	main_slash	7	main_slash	105	stimuli_target_squaretriangles.svg	stimuli_distractor_diamondtriangles.svg	7	yes	53	1	1443	0	0			0	0			1				0	
6.6.1	win	2023-06-01	22:49:51	22:57:51	477620	60ff0ff28636a214aed9a72e	3	1	main_slash	7	advance_on_keypress_SLASH	106	stimuli_target_squaretriangles.svg	stimuli_distractor_diamondtriangles.svg	7	yes	57	0	384	0	0			0	0			1				0	
6.6.1	win	2023-06-01	22:49:51	22:57:53	479466	60ff0ff28636a214aed9a72e	3	1	main_slash	7	main_slash	107	stimuli_target_trianglesquares.svg	stimuli_distractor_diamondtriangles.svg	22	yes	53	1	797	0	0			0	0			1				0	
6.6.1	win	2023-06-01	22:49:51	22:57:53	479466	60ff0ff28636a214aed9a72e	3	1	main_slash	7	advance_on_keypress_SLASH	108	stimuli_target_trianglesquares.svg	stimuli_distractor_diamondtriangles.svg	22	yes	57	0	278	0	0			0	0			1				0	
6.6.1	win	2023-06-01	22:49:51	22:57:55	481213	60ff0ff28636a214aed9a72e	3	1	main_slash	7	main_slash	109	stimuli_distractor_diamondtriangles.svg	stimuli_target_squarediamonds.svg	16	yes	53	1	801	0	0			0	0			1				0	
6.6.1	win	2023-06-01	22:49:51	22:57:55	481213	60ff0ff28636a214aed9a72e	3	1	main_slash	7	advance_on_keypress_SLASH	110	stimuli_distractor_diamondtriangles.svg	stimuli_target_squarediamonds.svg	16	yes	57	0	288	0	0			0	0			1				0	
6.6.1	win	2023-06-01	22:49:51	22:57:56	482872	60ff0ff28636a214aed9a72e	3	1	main_slash	7	main_slash	111	stimuli_target_squaretriangles.svg	stimuli_distractor_trianglediamonds.svg	3	yes	53	1	704	0	0			0	0			1				0	
6.6.1	win	2023-06-01	22:49:51	22:57:56	482872	60ff0ff28636a214aed9a72e	3	1	main_slash	7	advance_on_keypress_SLASH	112	stimuli_target_squaretriangles.svg	stimuli_distractor_trianglediamonds.svg	3	yes	57	0	158	0	0			0	0			1				0	
6.6.1	win	2023-06-01	22:49:51	22:57:58	484495	60ff0ff28636a214aed9a72e	3	1	main_slash	7	main_slash	113	stimuli_distractor_diamondtriangles.svg	stimuli_target_diamondrectangles.svg	31	yes	53	1	798	0	0			0	0			1				0	
6.6.1	win	2023-06-01	22:49:51	22:57:58	484495	60ff0ff28636a214aed9a72e	3	1	main_slash	7	advance_on_keypress_SLASH	114	stimuli_distractor_diamondtriangles.svg	stimuli_target_diamondrectangles.svg	31	yes	57	0	246	0	0			0	0			1				0	
6.6.1	win	2023-06-01	22:49:51	22:58:01	487402	60ff0ff28636a214aed9a72e	3	1	main_slash	7	main_slash	115	stimuli_distractor_trianglediamonds.svg	stimuli_distractor_trianglediamonds.svg	33	no	0	1	2000	0	0			0	0			1				0	
6.6.1	win	2023-06-01	22:49:51	22:58:01	487402	60ff0ff28636a214aed9a72e	3	1	main_slash	7	advance_on_keypress_SLASH	116	stimuli_distractor_trianglediamonds.svg	stimuli_distractor_trianglediamonds.svg	33	no	57	0	409	0	0			0	0			1				0	
6.6.1	win	2023-06-01	22:49:51	22:58:03	489296	60ff0ff28636a214aed9a72e	3	1	main_slash	7	main_slash	117	stimuli_target_rectangletriangles.svg	stimuli_distractor_diamondtriangles.svg	5	yes	53	1	815	0	0			0	0			1				0	
6.6.1	win	2023-06-01	22:49:51	22:58:03	489296	60ff0ff28636a214aed9a72e	3	1	main_slash	7	advance_on_keypress_SLASH	118	stimuli_target_rectangletriangles.svg	stimuli_distractor_diamondtriangles.svg	5	yes	57	0	373	0	0			0	0			1				0	
6.6.1	win	2023-06-01	22:49:51	22:58:05	491039	60ff0ff28636a214aed9a72e	3	1	main_slash	7	main_slash	119	stimuli_target_diamondrectangles.svg	stimuli_distractor_diamondtriangles.svg	23	yes	53	1	717	0	0			0	0			1				0	
6.6.1	win	2023-06-01	22:49:51	22:58:05	491039	60ff0ff28636a214aed9a72e	3	1	main_slash	7	advance_on_keypress_SLASH	120	stimuli_target_diamondrectangles.svg	stimuli_distractor_diamondtriangles.svg	23	yes	57	0	280	0	0			0	0			1				0	
6.6.1	win	2023-06-01	22:49:51	22:58:06	492732	60ff0ff28636a214aed9a72e	3	1	main_slash	7	main_slash	121	stimuli_distractor_diamondtriangles.svg	stimuli_target_trianglerectangles.svg	29	yes	53	1	747	0	0			0	0			1				0	
6.6.1	win	2023-06-01	22:49:51	22:58:06	492732	60ff0ff28636a214aed9a72e	3	1	main_slash	7	advance_on_keypress_SLASH	122	stimuli_distractor_diamondtriangles.svg	stimuli_target_trianglerectangles.svg	29	yes	57	0	628	0	0			0	0			1				0	
6.6.1	win	2023-06-01	22:49:51	22:58:10	496026	60ff0ff28636a214aed9a72e	3	1	main_slash	7	main_slash	123	stimuli_target_rectangletriangles.svg	stimuli_distractor_trianglediamonds.svg	1	yes	0	0	2000	0	0			0	0			1				0	
6.6.1	win	2023-06-01	22:49:51	22:58:10	496026	60ff0ff28636a214aed9a72e	3	1	main_slash	7	advance_on_keypress_SLASH	124	stimuli_target_rectangletriangles.svg	stimuli_distractor_trianglediamonds.svg	1	yes	57	0	417	0	0			0	0			1				0	
6.6.1	win	2023-06-01	22:49:51	22:58:11	497728	60ff0ff28636a214aed9a72e	3	1	main_slash	7	main_slash	125	stimuli_distractor_trianglediamonds.svg	stimuli_target_diamondrectangles.svg	27	yes	53	1	639	0	0			0	0			1				0	
6.6.1	win	2023-06-01	22:49:51	22:58:11	497728	60ff0ff28636a214aed9a72e	3	1	main_slash	7	advance_on_keypress_SLASH	126	stimuli_distractor_trianglediamonds.svg	stimuli_target_diamondrectangles.svg	27	yes	57	0	332	0	0			0	0			1				0	
6.6.1	win	2023-06-01	22:49:51	22:58:13	499402	60ff0ff28636a214aed9a72e	3	1	main_slash	7	main_slash	127	stimuli_distractor_trianglediamonds.svg	stimuli_target_trianglerectangles.svg	25	yes	53	1	661	0	0			0	0			1				0	
6.6.1	win	2023-06-01	22:49:51	22:58:13	499402	60ff0ff28636a214aed9a72e	3	1	main_slash	7	advance_on_keypress_SLASH	128	stimuli_distractor_trianglediamonds.svg	stimuli_target_trianglerectangles.svg	25	yes	57	0	154	0	0			0	0			1				0	
6.6.1	win	2023-06-01	22:49:51	22:58:16	502228	60ff0ff28636a214aed9a72e	3	1	main_slash	7	main_slash	129	stimuli_target_squarediamonds.svg	stimuli_distractor_diamondtriangles.svg	8	yes	0	0	2000	0	0			0	0			1				0	
6.6.1	win	2023-06-01	22:49:51	22:58:16	502228	60ff0ff28636a214aed9a72e	3	1	main_slash	7	advance_on_keypress_SLASH	130	stimuli_target_squarediamonds.svg	stimuli_distractor_diamondtriangles.svg	8	yes	57	0	288	0	0			0	0			1				0	
6.6.1	win	2023-06-01	22:49:51	22:58:17	503947	60ff0ff28636a214aed9a72e	3	1	main_slash	7	main_slash	131	stimuli_distractor_diamondtriangles.svg	stimuli_target_rectanglediamonds.svg	14	yes	53	1	755	0	0			0	0			1				0	
6.6.1	win	2023-06-01	22:49:51	22:58:17	503947	60ff0ff28636a214aed9a72e	3	1	main_slash	7	advance_on_keypress_SLASH	132	stimuli_distractor_diamondtriangles.svg	stimuli_target_rectanglediamonds.svg	14	yes	57	0	372	0	0			0	0			1				0	
6.6.1	win	2023-06-01	22:49:51	22:58:19	505545	60ff0ff28636a214aed9a72e	3	1	main_slash	7	main_slash	133	stimuli_distractor_diamondtriangles.svg	stimuli_target_squaretriangles.svg	15	yes	53	1	538	0	0			0	0			1				0	
6.6.1	win	2023-06-01	22:49:51	22:58:19	505545	60ff0ff28636a214aed9a72e	3	1	main_slash	7	advance_on_keypress_SLASH	134	stimuli_distractor_diamondtriangles.svg	stimuli_target_squaretriangles.svg	15	yes	57	0	180	0	0			0	0			1				0	
6.6.1	win	2023-06-01	22:49:51	22:58:21	507086	60ff0ff28636a214aed9a72e	3	1	main_slash	7	main_slash	135	stimuli_target_rectanglediamonds.svg	stimuli_distractor_trianglediamonds.svg	2	yes	53	1	690	0	0			0	0			1				0	
6.6.1	win	2023-06-01	22:49:51	22:58:21	507086	60ff0ff28636a214aed9a72e	3	1	main_slash	7	advance_on_keypress_SLASH	136	stimuli_target_rectanglediamonds.svg	stimuli_distractor_trianglediamonds.svg	2	yes	57	0	150	0	0			0	0			1				0	
6.6.1	win	2023-06-01	22:49:51	22:58:22	508726	60ff0ff28636a214aed9a72e	3	1	main_slash	7	main_slash	137	stimuli_target_diamondsquares.svg	stimuli_distractor_trianglediamonds.svg	20	yes	53	1	831	0	0			0	0			1				0	
6.6.1	win	2023-06-01	22:49:51	22:58:22	508726	60ff0ff28636a214aed9a72e	3	1	main_slash	7	advance_on_keypress_SLASH	138	stimuli_target_diamondsquares.svg	stimuli_distractor_trianglediamonds.svg	20	yes	57	0	205	0	0			0	0			1				0	
6.6.1	win	2023-06-01	22:49:51	22:58:24	510460	60ff0ff28636a214aed9a72e	3	1	main_slash	7	main_slash	139	stimuli_distractor_trianglediamonds.svg	stimuli_target_rectangletriangles.svg	9	yes	53	1	873	0	0			0	0			1				0	
6.6.1	win	2023-06-01	22:49:51	22:58:24	510460	60ff0ff28636a214aed9a72e	3	1	main_slash	7	advance_on_keypress_SLASH	140	stimuli_distractor_trianglediamonds.svg	stimuli_target_rectangletriangles.svg	9	yes	57	0	272	0	0			0	0			1				0	
6.6.1	win	2023-06-01	22:49:51	22:58:26	512130	60ff0ff28636a214aed9a72e	3	1	main_slash	7	main_slash	141	stimuli_distractor_trianglediamonds.svg	stimuli_target_squaretriangles.svg	11	yes	53	1	739	0	0			0	0			1				0	
6.6.1	win	2023-06-01	22:49:51	22:58:26	512130	60ff0ff28636a214aed9a72e	3	1	main_slash	7	advance_on_keypress_SLASH	142	stimuli_distractor_trianglediamonds.svg	stimuli_target_squaretriangles.svg	11	yes	57	0	116	0	0			0	0			1				0	
6.6.1	win	2023-06-01	22:49:51	22:58:27	513680	60ff0ff28636a214aed9a72e	3	1	main_slash	7	main_slash	143	stimuli_target_rectanglediamonds.svg	stimuli_distractor_diamondtriangles.svg	6	yes	53	1	758	0	0			0	0			1				0	
6.6.1	win	2023-06-01	22:49:51	22:58:27	513680	60ff0ff28636a214aed9a72e	3	1	main_slash	7	advance_on_keypress_SLASH	144	stimuli_target_rectanglediamonds.svg	stimuli_distractor_diamondtriangles.svg	6	yes	57	0	142	0	0			0	0			1				0	
6.6.1	win	2023-06-01	22:49:51	22:58:29	515116	60ff0ff28636a214aed9a72e	3	1	main_slash	7	main_slash	145	stimuli_distractor_trianglediamonds.svg	stimuli_target_rectanglediamonds.svg	10	yes	53	1	615	0	0			0	0			1				0	
6.6.1	win	2023-06-01	22:49:51	22:58:29	515116	60ff0ff28636a214aed9a72e	3	1	main_slash	7	advance_on_keypress_SLASH	146	stimuli_distractor_trianglediamonds.svg	stimuli_target_rectanglediamonds.svg	10	yes	57	0	157	0	0			0	0			1				0	
6.6.1	win	2023-06-01	22:49:51	22:58:30	516700	60ff0ff28636a214aed9a72e	3	1	main_slash	7	main_slash	147	stimuli_distractor_trianglediamonds.svg	stimuli_target_trianglesquares.svg	26	yes	53	1	757	0	0			0	0			1				0	
6.6.1	win	2023-06-01	22:49:51	22:58:30	516700	60ff0ff28636a214aed9a72e	3	1	main_slash	7	advance_on_keypress_SLASH	148	stimuli_distractor_trianglediamonds.svg	stimuli_target_trianglesquares.svg	26	yes	57	0	110	0	0			0	0			1				0	
6.6.1	win	2023-06-01	22:49:51	22:58:32	518074	60ff0ff28636a214aed9a72e	3	1	main_slash	7	main_slash	149	stimuli_distractor_diamondtriangles.svg	stimuli_target_diamondsquares.svg	32	yes	53	1	592	0	0			0	0			1				0	
6.6.1	win	2023-06-01	22:49:51	22:58:32	518074	60ff0ff28636a214aed9a72e	3	1	main_slash	7	advance_on_keypress_SLASH	150	stimuli_distractor_diamondtriangles.svg	stimuli_target_diamondsquares.svg	32	yes	57	0	175	0	0			0	0			1				0	
6.6.1	win	2023-06-01	22:49:51	22:58:33	519496	60ff0ff28636a214aed9a72e	3	1	main_slash	7	main_slash	151	stimuli_target_diamondrectangles.svg	stimuli_distractor_trianglediamonds.svg	19	yes	53	1	580	0	0			0	0			1				0	
6.6.1	win	2023-06-01	22:49:51	22:58:33	519496	60ff0ff28636a214aed9a72e	3	1	main_slash	7	advance_on_keypress_SLASH	152	stimuli_target_diamondrectangles.svg	stimuli_distractor_trianglediamonds.svg	19	yes	57	0	214	0	0			0	0			1				0	
6.6.1	win	2023-06-01	22:49:51	22:58:36	522384	60ff0ff28636a214aed9a72e	3	1	main_slash	7	main_slash	153	stimuli_distractor_diamondtriangles.svg	stimuli_distractor_trianglediamonds.svg	37	no	0	1	2000	0	0			0	0			1				0	
6.6.1	win	2023-06-01	22:49:51	22:58:36	522384	60ff0ff28636a214aed9a72e	3	1	main_slash	7	advance_on_keypress_SLASH	154	stimuli_distractor_diamondtriangles.svg	stimuli_distractor_trianglediamonds.svg	37	no	57	0	323	0	0			0	0			1				0	
6.6.1	win	2023-06-01	22:49:51	22:58:37	523912	60ff0ff28636a214aed9a72e	3	1	main_slash	7	main_slash	155	stimuli_target_squarediamonds.svg	stimuli_distractor_trianglediamonds.svg	4	yes	53	1	557	0	0			0	0			1				0	
6.6.1	win	2023-06-01	22:49:51	22:58:37	523912	60ff0ff28636a214aed9a72e	3	1	main_slash	7	advance_on_keypress_SLASH	156	stimuli_target_squarediamonds.svg	stimuli_distractor_trianglediamonds.svg	4	yes	57	0	149	0	0			0	0			1				0	
6.6.1	win	2023-06-01	22:49:51	22:58:40	526730	60ff0ff28636a214aed9a72e	3	1	main_slash	7	main_slash	157	stimuli_distractor_diamondtriangles.svg	stimuli_distractor_diamondtriangles.svg	39	no	0	1	2000	0	0			0	0			1				0	
6.6.1	win	2023-06-01	22:49:51	22:58:40	526730	60ff0ff28636a214aed9a72e	3	1	main_slash	7	advance_on_keypress_SLASH	158	stimuli_distractor_diamondtriangles.svg	stimuli_distractor_diamondtriangles.svg	39	no	57	0	277	0	0			0	0			1				0	
6.6.1	win	2023-06-01	22:49:51	22:58:42	528248	60ff0ff28636a214aed9a72e	3	1	main_slash	7	main_slash	159	stimuli_distractor_diamondtriangles.svg	stimuli_target_rectangletriangles.svg	13	yes	53	1	566	0	0			0	0			1				0	
6.6.1	win	2023-06-01	22:49:51	22:58:42	528248	60ff0ff28636a214aed9a72e	3	1	main_slash	7	advance_on_keypress_SLASH	160	stimuli_distractor_diamondtriangles.svg	stimuli_target_rectangletriangles.svg	13	yes	57	0	144	0	0			0	0			1				0	
6.6.1	win	2023-06-01	22:49:51	22:59:05	551008	60ff0ff28636a214aed9a72e	3	1	practice_z	9	practice_z	1	stimuli_distractor_trianglediamonds.svg	stimuli_distractor_diamondtriangles.svg	16	no	44	0	1385	0	0			0	0			1				0	
6.6.1	win	2023-06-01	22:49:51	22:59:05	551008	60ff0ff28636a214aed9a72e	3	1	practice_z	9	advance_on_keypress_ZEE	2	stimuli_distractor_trianglediamonds.svg	stimuli_distractor_diamondtriangles.svg	16	no	57	0	555	0	0			0	0			1				0	
6.6.1	win	2023-06-01	22:49:51	22:59:08	554321	60ff0ff28636a214aed9a72e	3	1	practice_z	9	practice_z	3	stimuli_target_rectanglediamonds.svg	stimuli_distractor_diamondtriangles.svg	1	yes	44	1	1075	0	0			0	0			1				0	
6.6.1	win	2023-06-01	22:49:51	22:59:08	554321	60ff0ff28636a214aed9a72e	3	1	practice_z	9	advance_on_keypress_ZEE	4	stimuli_target_rectanglediamonds.svg	stimuli_distractor_diamondtriangles.svg	1	yes	57	0	526	0	0			0	0			1				0	
6.6.1	win	2023-06-01	22:49:51	22:59:11	557073	60ff0ff28636a214aed9a72e	3	1	practice_z	9	practice_z	5	stimuli_distractor_trianglediamonds.svg	stimuli_target_rectanglediamonds.svg	10	yes	44	1	552	0	0			0	0			1				0	
6.6.1	win	2023-06-01	22:49:51	22:59:11	557073	60ff0ff28636a214aed9a72e	3	1	practice_z	9	advance_on_keypress_ZEE	6	stimuli_distractor_trianglediamonds.svg	stimuli_target_rectanglediamonds.svg	10	yes	57	0	608	0	0			0	0			1				0	
6.6.1	win	2023-06-01	22:49:51	22:59:13	559887	60ff0ff28636a214aed9a72e	3	1	practice_z	9	practice_z	7	stimuli_distractor_diamondtriangles.svg	stimuli_target_rectangletriangles.svg	7	yes	44	1	526	0	0			0	0			1				0	
6.6.1	win	2023-06-01	22:49:51	22:59:13	559887	60ff0ff28636a214aed9a72e	3	1	practice_z	9	advance_on_keypress_ZEE	8	stimuli_distractor_diamondtriangles.svg	stimuli_target_rectangletriangles.svg	7	yes	57	0	536	0	0			0	0			1				0	
6.6.1	win	2023-06-01	22:49:51	22:59:16	562775	60ff0ff28636a214aed9a72e	3	1	practice_z	9	practice_z	9	stimuli_distractor_diamondtriangles.svg	stimuli_target_trianglerectangles.svg	9	yes	44	1	664	0	0			0	0			1				0	
6.6.1	win	2023-06-01	22:49:51	22:59:16	562775	60ff0ff28636a214aed9a72e	3	1	practice_z	9	advance_on_keypress_ZEE	10	stimuli_distractor_diamondtriangles.svg	stimuli_target_trianglerectangles.svg	9	yes	57	0	500	0	0			0	0			1				0	
6.6.1	win	2023-06-01	22:49:51	22:59:19	565508	60ff0ff28636a214aed9a72e	3	1	practice_z	9	practice_z	11	stimuli_target_rectanglediamonds.svg	stimuli_distractor_trianglediamonds.svg	4	yes	44	1	572	0	0			0	0			1				0	
6.6.1	win	2023-06-01	22:49:51	22:59:19	565508	60ff0ff28636a214aed9a72e	3	1	practice_z	9	advance_on_keypress_ZEE	12	stimuli_target_rectanglediamonds.svg	stimuli_distractor_trianglediamonds.svg	4	yes	57	0	575	0	0			0	0			1				0	
6.6.1	win	2023-06-01	22:49:51	22:59:22	568635	60ff0ff28636a214aed9a72e	3	1	practice_z	9	practice_z	13	stimuli_target_diamondsquares.svg	stimuli_distractor_trianglediamonds.svg	6	yes	44	1	878	0	0			0	0			1				0	
6.6.1	win	2023-06-01	22:49:51	22:59:22	568635	60ff0ff28636a214aed9a72e	3	1	practice_z	9	advance_on_keypress_ZEE	14	stimuli_target_diamondsquares.svg	stimuli_distractor_trianglediamonds.svg	6	yes	57	0	498	0	0			0	0			1				0	
6.6.1	win	2023-06-01	22:49:51	22:59:26	572806	60ff0ff28636a214aed9a72e	3	1	practice_z	9	practice_z	15	stimuli_distractor_diamondtriangles.svg	stimuli_distractor_trianglediamonds.svg	14	no	0	1	2000	0	0			0	0			1				0	
6.6.1	win	2023-06-01	22:49:51	22:59:26	572806	60ff0ff28636a214aed9a72e	3	1	practice_z	9	advance_on_keypress_ZEE	16	stimuli_distractor_diamondtriangles.svg	stimuli_distractor_trianglediamonds.svg	14	no	57	0	515	0	0			0	0			1				0	
6.6.1	win	2023-06-01	22:49:51	22:59:31	576995	60ff0ff28636a214aed9a72e	3	1	practice_z	9	practice_z	17	stimuli_distractor_trianglediamonds.svg	stimuli_distractor_trianglediamonds.svg	15	no	0	1	2000	0	0			0	0			1				0	
6.6.1	win	2023-06-01	22:49:51	22:59:31	576995	60ff0ff28636a214aed9a72e	3	1	practice_z	9	advance_on_keypress_ZEE	18	stimuli_distractor_trianglediamonds.svg	stimuli_distractor_trianglediamonds.svg	15	no	57	0	507	0	0			0	0			1				0	
6.6.1	win	2023-06-01	22:49:51	22:59:33	579888	60ff0ff28636a214aed9a72e	3	1	practice_z	9	practice_z	19	stimuli_target_squarediamonds.svg	stimuli_distractor_diamondtriangles.svg	2	yes	44	1	717	0	0			0	0			1				0	
6.6.1	win	2023-06-01	22:49:51	22:59:33	579888	60ff0ff28636a214aed9a72e	3	1	practice_z	9	advance_on_keypress_ZEE	20	stimuli_target_squarediamonds.svg	stimuli_distractor_diamondtriangles.svg	2	yes	57	0	392	0	0			0	0			1				0	
6.6.1	win	2023-06-01	22:49:51	22:59:36	582590	60ff0ff28636a214aed9a72e	3	1	practice_z	9	practice_z	21	stimuli_distractor_trianglediamonds.svg	stimuli_target_squarediamonds.svg	11	yes	44	1	631	0	0			0	0			1				0	
6.6.1	win	2023-06-01	22:49:51	22:59:36	582590	60ff0ff28636a214aed9a72e	3	1	practice_z	9	advance_on_keypress_ZEE	22	stimuli_distractor_trianglediamonds.svg	stimuli_target_squarediamonds.svg	11	yes	57	0	500	0	0			0	0			1				0	
6.6.1	win	2023-06-01	22:49:51	22:59:39	585372	60ff0ff28636a214aed9a72e	3	1	practice_z	9	practice_z	23	stimuli_target_squarediamonds.svg	stimuli_distractor_trianglediamonds.svg	5	yes	44	1	606	0	0			0	0			1				0	
6.6.1	win	2023-06-01	22:49:51	22:59:39	585372	60ff0ff28636a214aed9a72e	3	1	practice_z	9	advance_on_keypress_ZEE	24	stimuli_target_squarediamonds.svg	stimuli_distractor_trianglediamonds.svg	5	yes	57	0	957	0	0			0	0			1				0	
6.6.1	win	2023-06-01	22:49:51	22:59:42	588698	60ff0ff28636a214aed9a72e	3	1	practice_z	9	practice_z	25	stimuli_distractor_diamondtriangles.svg	stimuli_target_diamondrectangles.svg	8	yes	44	1	690	0	0			0	0			1				0	
6.6.1	win	2023-06-01	22:49:51	22:59:42	588698	60ff0ff28636a214aed9a72e	3	1	practice_z	9	advance_on_keypress_ZEE	26	stimuli_distractor_diamondtriangles.svg	stimuli_target_diamondrectangles.svg	8	yes	57	0	464	0	0			0	0			1				0	
6.6.1	win	2023-06-01	22:49:51	22:59:46	592838	60ff0ff28636a214aed9a72e	3	1	practice_z	9	practice_z	27	stimuli_distractor_diamondtriangles.svg	stimuli_distractor_diamondtriangles.svg	13	no	0	1	2000	0	0			0	0			1				0	
6.6.1	win	2023-06-01	22:49:51	22:59:46	592838	60ff0ff28636a214aed9a72e	3	1	practice_z	9	advance_on_keypress_ZEE	28	stimuli_distractor_diamondtriangles.svg	stimuli_distractor_diamondtriangles.svg	13	no	57	0	554	0	0			0	0			1				0	
6.6.1	win	2023-06-01	22:49:51	22:59:49	595654	60ff0ff28636a214aed9a72e	3	1	practice_z	9	practice_z	29	stimuli_distractor_trianglediamonds.svg	stimuli_target_diamondrectangles.svg	12	yes	44	1	586	0	0			0	0			1				0	
6.6.1	win	2023-06-01	22:49:51	22:59:49	595654	60ff0ff28636a214aed9a72e	3	1	practice_z	9	advance_on_keypress_ZEE	30	stimuli_distractor_trianglediamonds.svg	stimuli_target_diamondrectangles.svg	12	yes	57	0	546	0	0			0	0			1				0	
6.6.1	win	2023-06-01	22:49:51	22:59:53	599872	60ff0ff28636a214aed9a72e	3	1	practice_z	9	practice_z	31	stimuli_target_diamondsquares.svg	stimuli_distractor_diamondtriangles.svg	3	yes	0	0	2000	0	0			0	0			1				0	
6.6.1	win	2023-06-01	22:49:51	22:59:53	599872	60ff0ff28636a214aed9a72e	3	1	practice_z	9	advance_on_keypress_ZEE	32	stimuli_target_diamondsquares.svg	stimuli_distractor_diamondtriangles.svg	3	yes	57	0	529	0	0			0	0			1				0	
6.6.1	win	2023-06-01	22:49:51	22:59:58	604973	60ff0ff28636a214aed9a72e	3	1	main_z	11	main_z	1	stimuli_distractor_diamondtriangles.svg	stimuli_target_trianglesquares.svg	30	yes	44	1	473	0	0			0	0			1				0	
6.6.1	win	2023-06-01	22:49:51	22:59:58	604973	60ff0ff28636a214aed9a72e	3	1	main_z	11	advance_on_keypress_ZEE	2	stimuli_distractor_diamondtriangles.svg	stimuli_target_trianglesquares.svg	30	yes	57	0	557	0	0			0	0			1				0	
6.6.1	win	2023-06-01	22:49:51	23:00:01	607046	60ff0ff28636a214aed9a72e	3	1	main_z	11	main_z	3	stimuli_target_diamondsquares.svg	stimuli_distractor_diamondtriangles.svg	24	yes	44	1	878	0	0			0	0			1				0	
6.6.1	win	2023-06-01	22:49:51	23:00:01	607046	60ff0ff28636a214aed9a72e	3	1	main_z	11	advance_on_keypress_ZEE	4	stimuli_target_diamondsquares.svg	stimuli_distractor_diamondtriangles.svg	24	yes	57	0	290	0	0			0	0			1				0	
6.6.1	win	2023-06-01	22:49:51	23:00:04	610013	60ff0ff28636a214aed9a72e	3	1	main_z	11	main_z	5	stimuli_target_trianglerectangles.svg	stimuli_distractor_trianglediamonds.svg	17	yes	0	0	2000	0	0			0	0			1				0	
6.6.1	win	2023-06-01	22:49:51	23:00:04	610013	60ff0ff28636a214aed9a72e	3	1	main_z	11	advance_on_keypress_ZEE	6	stimuli_target_trianglerectangles.svg	stimuli_distractor_trianglediamonds.svg	17	yes	57	0	451	0	0			0	0			1				0	
6.6.1	win	2023-06-01	22:49:51	23:00:05	611932	60ff0ff28636a214aed9a72e	3	1	main_z	11	main_z	7	stimuli_distractor_diamondtriangles.svg	stimuli_target_squarediamonds.svg	16	yes	44	1	799	0	0			0	0			1				0	
6.6.1	win	2023-06-01	22:49:51	23:00:05	611932	60ff0ff28636a214aed9a72e	3	1	main_z	11	advance_on_keypress_ZEE	8	stimuli_distractor_diamondtriangles.svg	stimuli_target_squarediamonds.svg	16	yes	57	0	335	0	0			0	0			1				0	
6.6.1	win	2023-06-01	22:49:51	23:00:07	613618	60ff0ff28636a214aed9a72e	3	1	main_z	11	main_z	9	stimuli_distractor_diamondtriangles.svg	stimuli_target_rectangletriangles.svg	13	yes	44	1	695	0	0			0	0			1				0	
6.6.1	win	2023-06-01	22:49:51	23:00:07	613618	60ff0ff28636a214aed9a72e	3	1	main_z	11	advance_on_keypress_ZEE	10	stimuli_distractor_diamondtriangles.svg	stimuli_target_rectangletriangles.svg	13	yes	57	0	244	0	0			0	0			1				0	
6.6.1	win	2023-06-01	22:49:51	23:00:09	615002	60ff0ff28636a214aed9a72e	3	1	main_z	11	main_z	11	stimuli_target_squarediamonds.svg	stimuli_distractor_trianglediamonds.svg	4	yes	44	1	480	0	0			0	0			1				0	
6.6.1	win	2023-06-01	22:49:51	23:00:09	615002	60ff0ff28636a214aed9a72e	3	1	main_z	11	advance_on_keypress_ZEE	12	stimuli_target_squarediamonds.svg	stimuli_distractor_trianglediamonds.svg	4	yes	57	0	252	0	0			0	0			1				0	
6.6.1	win	2023-06-01	22:49:51	23:00:11	617932	60ff0ff28636a214aed9a72e	3	1	main_z	11	main_z	13	stimuli_distractor_diamondtriangles.svg	stimuli_distractor_diamondtriangles.svg	39	no	0	1	2000	0	0			0	0			1				0	
6.6.1	win	2023-06-01	22:49:51	23:00:11	617932	60ff0ff28636a214aed9a72e	3	1	main_z	11	advance_on_keypress_ZEE	14	stimuli_distractor_diamondtriangles.svg	stimuli_distractor_diamondtriangles.svg	39	no	57	0	375	0	0			0	0			1				0	
6.6.1	win	2023-06-01	22:49:51	23:00:13	619498	60ff0ff28636a214aed9a72e	3	1	main_z	11	main_z	15	stimuli_distractor_diamondtriangles.svg	stimuli_target_rectanglediamonds.svg	14	yes	44	1	526	0	0			0	0			1				0	
6.6.1	win	2023-06-01	22:49:51	23:00:13	619498	60ff0ff28636a214aed9a72e	3	1	main_z	11	advance_on_keypress_ZEE	16	stimuli_distractor_diamondtriangles.svg	stimuli_target_rectanglediamonds.svg	14	yes	57	0	224	0	0			0	0			1				0	
6.6.1	win	2023-06-01	22:49:51	23:00:16	622045	60ff0ff28636a214aed9a72e	3	1	main_z	11	main_z	17	stimuli_target_diamondrectangles.svg	stimuli_distractor_diamondtriangles.svg	23	yes	44	1	1662	0	0			0	0			1				0	
6.6.1	win	2023-06-01	22:49:51	23:00:16	622045	60ff0ff28636a214aed9a72e	3	1	main_z	11	advance_on_keypress_ZEE	18	stimuli_target_diamondrectangles.svg	stimuli_distractor_diamondtriangles.svg	23	yes	57	0	442	0	0			0	0			1				0	
6.6.1	win	2023-06-01	22:49:51	23:00:17	623867	60ff0ff28636a214aed9a72e	3	1	main_z	11	main_z	19	stimuli_target_diamondrectangles.svg	stimuli_distractor_trianglediamonds.svg	19	yes	44	1	718	0	0			0	0			1				0	
6.6.1	win	2023-06-01	22:49:51	23:00:17	623867	60ff0ff28636a214aed9a72e	3	1	main_z	11	advance_on_keypress_ZEE	20	stimuli_target_diamondrectangles.svg	stimuli_distractor_trianglediamonds.svg	19	yes	57	0	162	0	0			0	0			1				0	
6.6.1	win	2023-06-01	22:49:51	23:00:19	625277	60ff0ff28636a214aed9a72e	3	1	main_z	11	main_z	21	stimuli_target_squaretriangles.svg	stimuli_distractor_diamondtriangles.svg	7	yes	44	1	578	0	0			0	0			1				0	
6.6.1	win	2023-06-01	22:49:51	23:00:19	625277	60ff0ff28636a214aed9a72e	3	1	main_z	11	advance_on_keypress_ZEE	22	stimuli_target_squaretriangles.svg	stimuli_distractor_diamondtriangles.svg	7	yes	57	0	225	0	0			0	0			1				0	
6.6.1	win	2023-06-01	22:49:51	23:00:22	628168	60ff0ff28636a214aed9a72e	3	1	main_z	11	main_z	23	stimuli_distractor_trianglediamonds.svg	stimuli_distractor_trianglediamonds.svg	33	no	0	1	2000	0	0			0	0			1				0	
6.6.1	win	2023-06-01	22:49:51	23:00:22	628168	60ff0ff28636a214aed9a72e	3	1	main_z	11	advance_on_keypress_ZEE	24	stimuli_distractor_trianglediamonds.svg	stimuli_distractor_trianglediamonds.svg	33	no	57	0	342	0	0			0	0			1				0	
6.6.1	win	2023-06-01	22:49:51	23:00:23	629608	60ff0ff28636a214aed9a72e	3	1	main_z	11	main_z	25	stimuli_distractor_trianglediamonds.svg	stimuli_target_squarediamonds.svg	12	yes	44	1	447	0	0			0	0			1				0	
6.6.1	win	2023-06-01	22:49:51	23:00:23	629608	60ff0ff28636a214aed9a72e	3	1	main_z	11	advance_on_keypress_ZEE	26	stimuli_distractor_trianglediamonds.svg	stimuli_target_squarediamonds.svg	12	yes	57	0	173	0	0			0	0			1				0	
6.6.1	win	2023-06-01	22:49:51	23:00:24	630889	60ff0ff28636a214aed9a72e	3	1	main_z	11	main_z	27	stimuli_distractor_trianglediamonds.svg	stimuli_target_diamondsquares.svg	28	yes	44	1	469	0	0			0	0			1				0	
6.6.1	win	2023-06-01	22:49:51	23:00:24	630889	60ff0ff28636a214aed9a72e	3	1	main_z	11	advance_on_keypress_ZEE	28	stimuli_distractor_trianglediamonds.svg	stimuli_target_diamondsquares.svg	28	yes	57	0	137	0	0			0	0			1				0	
6.6.1	win	2023-06-01	22:49:51	23:00:26	632200	60ff0ff28636a214aed9a72e	3	1	main_z	11	main_z	29	stimuli_distractor_diamondtriangles.svg	stimuli_target_diamondsquares.svg	32	yes	44	1	527	0	0			0	0			1				0	
6.6.1	win	2023-06-01	22:49:51	23:00:26	632200	60ff0ff28636a214aed9a72e	3	1	main_z	11	advance_on_keypress_ZEE	30	stimuli_distractor_diamondtriangles.svg	stimuli_target_diamondsquares.svg	32	yes	57	0	173	0	0			0	0			1				0	
6.6.1	win	2023-06-01	22:49:51	23:00:28	634137	60ff0ff28636a214aed9a72e	3	1	main_z	11	main_z	31	stimuli_distractor_trianglediamonds.svg	stimuli_target_diamondrectangles.svg	27	yes	44	1	1100	0	0			0	0			1				0	
6.6.1	win	2023-06-01	22:49:51	23:00:28	634137	60ff0ff28636a214aed9a72e	3	1	main_z	11	advance_on_keypress_ZEE	32	stimuli_distractor_trianglediamonds.svg	stimuli_target_diamondrectangles.svg	27	yes	57	0	191	0	0			0	0			1				0	
6.6.1	win	2023-06-01	22:49:51	23:00:31	636997	60ff0ff28636a214aed9a72e	3	1	main_z	11	main_z	33	stimuli_distractor_trianglediamonds.svg	stimuli_distractor_diamondtriangles.svg	36	no	0	1	2000	0	0			0	0			1				0	
6.6.1	win	2023-06-01	22:49:51	23:00:31	636997	60ff0ff28636a214aed9a72e	3	1	main_z	11	advance_on_keypress_ZEE	34	stimuli_distractor_trianglediamonds.svg	stimuli_distractor_diamondtriangles.svg	36	no	57	0	637	0	0			0	0			1				0	
6.6.1	win	2023-06-01	22:49:51	23:00:32	638778	60ff0ff28636a214aed9a72e	3	1	main_z	11	main_z	35	stimuli_target_squaretriangles.svg	stimuli_distractor_trianglediamonds.svg	3	yes	44	1	473	0	0			0	0			1				0	
6.6.1	win	2023-06-01	22:49:51	23:00:32	638778	60ff0ff28636a214aed9a72e	3	1	main_z	11	advance_on_keypress_ZEE	36	stimuli_target_squaretriangles.svg	stimuli_distractor_trianglediamonds.svg	3	yes	57	0	189	0	0			0	0			1				0	
6.6.1	win	2023-06-01	22:49:51	23:00:35	641637	60ff0ff28636a214aed9a72e	3	1	main_z	11	main_z	37	stimuli_distractor_trianglediamonds.svg	stimuli_distractor_trianglediamonds.svg	34	no	0	1	2000	0	0			0	0			1				0	
6.6.1	win	2023-06-01	22:49:51	23:00:35	641637	60ff0ff28636a214aed9a72e	3	1	main_z	11	advance_on_keypress_ZEE	38	stimuli_distractor_trianglediamonds.svg	stimuli_distractor_trianglediamonds.svg	34	no	57	0	556	0	0			0	0			1				0	
6.6.1	win	2023-06-01	22:49:51	23:00:37	643335	60ff0ff28636a214aed9a72e	3	1	main_z	11	main_z	39	stimuli_distractor_trianglediamonds.svg	stimuli_target_rectangletriangles.svg	9	yes	44	1	475	0	0			0	0			1				0	
6.6.1	win	2023-06-01	22:49:51	23:00:37	643335	60ff0ff28636a214aed9a72e	3	1	main_z	11	advance_on_keypress_ZEE	40	stimuli_distractor_trianglediamonds.svg	stimuli_target_rectangletriangles.svg	9	yes	57	0	256	0	0			0	0			1				0	
6.6.1	win	2023-06-01	22:49:51	23:00:39	645557	60ff0ff28636a214aed9a72e	3	1	main_z	11	main_z	41	stimuli_target_trianglerectangles.svg	stimuli_distractor_diamondtriangles.svg	21	yes	44	1	1316	0	0			0	0			1				0	
6.6.1	win	2023-06-01	22:49:51	23:00:39	645557	60ff0ff28636a214aed9a72e	3	1	main_z	11	advance_on_keypress_ZEE	42	stimuli_target_trianglerectangles.svg	stimuli_distractor_diamondtriangles.svg	21	yes	57	0	199	0	0			0	0			1				0	
6.6.1	win	2023-06-01	22:49:51	23:00:41	647125	60ff0ff28636a214aed9a72e	3	1	main_z	11	main_z	43	stimuli_distractor_trianglediamonds.svg	stimuli_target_squaretriangles.svg	11	yes	44	1	718	0	0			0	0			1				0	
6.6.1	win	2023-06-01	22:49:51	23:00:41	647125	60ff0ff28636a214aed9a72e	3	1	main_z	11	advance_on_keypress_ZEE	44	stimuli_distractor_trianglediamonds.svg	stimuli_target_squaretriangles.svg	11	yes	57	0	128	0	0			0	0			1				0	
6.6.1	win	2023-06-01	22:49:51	23:00:42	648652	60ff0ff28636a214aed9a72e	3	1	main_z	11	main_z	45	stimuli_distractor_diamondtriangles.svg	stimuli_target_trianglerectangles.svg	29	yes	44	1	738	0	0			0	0			1				0	
6.6.1	win	2023-06-01	22:49:51	23:00:42	648652	60ff0ff28636a214aed9a72e	3	1	main_z	11	advance_on_keypress_ZEE	46	stimuli_distractor_diamondtriangles.svg	stimuli_target_trianglerectangles.svg	29	yes	57	0	131	0	0			0	0			1				0	
6.6.1	win	2023-06-01	22:49:51	23:00:44	650014	60ff0ff28636a214aed9a72e	3	1	main_z	11	main_z	47	stimuli_distractor_trianglediamonds.svg	stimuli_target_trianglesquares.svg	26	yes	44	1	572	0	0			0	0			1				0	
6.6.1	win	2023-06-01	22:49:51	23:00:44	650014	60ff0ff28636a214aed9a72e	3	1	main_z	11	advance_on_keypress_ZEE	48	stimuli_distractor_trianglediamonds.svg	stimuli_target_trianglesquares.svg	26	yes	57	0	196	0	0			0	0			1				0	
6.6.1	win	2023-06-01	22:49:51	23:00:45	651450	60ff0ff28636a214aed9a72e	3	1	main_z	11	main_z	49	stimuli_target_rectanglediamonds.svg	stimuli_distractor_diamondtriangles.svg	6	yes	44	1	571	0	0			0	0			1				0	
6.6.1	win	2023-06-01	22:49:51	23:00:45	651450	60ff0ff28636a214aed9a72e	3	1	main_z	11	advance_on_keypress_ZEE	50	stimuli_target_rectanglediamonds.svg	stimuli_distractor_diamondtriangles.svg	6	yes	57	0	219	0	0			0	0			1				0	
6.6.1	win	2023-06-01	22:49:51	23:00:46	652793	60ff0ff28636a214aed9a72e	3	1	main_z	11	main_z	51	stimuli_distractor_trianglediamonds.svg	stimuli_target_rectanglediamonds.svg	10	yes	44	1	448	0	0			0	0			1				0	
6.6.1	win	2023-06-01	22:49:51	23:00:46	652793	60ff0ff28636a214aed9a72e	3	1	main_z	11	advance_on_keypress_ZEE	52	stimuli_distractor_trianglediamonds.svg	stimuli_target_rectanglediamonds.svg	10	yes	57	0	165	0	0			0	0			1				0	
6.6.1	win	2023-06-01	22:49:51	23:00:48	654118	60ff0ff28636a214aed9a72e	3	1	main_z	11	main_z	53	stimuli_target_rectangletriangles.svg	stimuli_distractor_diamondtriangles.svg	5	yes	44	1	493	0	0			0	0			1				0	
6.6.1	win	2023-06-01	22:49:51	23:00:48	654118	60ff0ff28636a214aed9a72e	3	1	main_z	11	advance_on_keypress_ZEE	54	stimuli_target_rectangletriangles.svg	stimuli_distractor_diamondtriangles.svg	5	yes	57	0	160	0	0			0	0			1				0	
6.6.1	win	2023-06-01	22:49:51	23:00:50	656947	60ff0ff28636a214aed9a72e	3	1	main_z	11	main_z	55	stimuli_distractor_diamondtriangles.svg	stimuli_distractor_trianglediamonds.svg	37	no	0	1	2000	0	0			0	0			1				0	
6.6.1	win	2023-06-01	22:49:51	23:00:50	656947	60ff0ff28636a214aed9a72e	3	1	main_z	11	advance_on_keypress_ZEE	56	stimuli_distractor_diamondtriangles.svg	stimuli_distractor_trianglediamonds.svg	37	no	57	0	631	0	0			0	0			1				0	
6.6.1	win	2023-06-01	22:49:51	23:00:53	659031	60ff0ff28636a214aed9a72e	3	1	main_z	11	main_z	57	stimuli_target_trianglesquares.svg	stimuli_distractor_diamondtriangles.svg	22	yes	44	1	786	0	0			0	0			1				0	
6.6.1	win	2023-06-01	22:49:51	23:00:53	659031	60ff0ff28636a214aed9a72e	3	1	main_z	11	advance_on_keypress_ZEE	58	stimuli_target_trianglesquares.svg	stimuli_distractor_diamondtriangles.svg	22	yes	57	0	164	0	0			0	0			1				0	
6.6.1	win	2023-06-01	22:49:51	23:00:54	660512	60ff0ff28636a214aed9a72e	3	1	main_z	11	main_z	59	stimuli_distractor_trianglediamonds.svg	stimuli_distractor_diamondtriangles.svg	35	no	44	0	652	0	0			0	0			1				0	
6.6.1	win	2023-06-01	22:49:51	23:00:54	660512	60ff0ff28636a214aed9a72e	3	1	main_z	11	advance_on_keypress_ZEE	60	stimuli_distractor_trianglediamonds.svg	stimuli_distractor_diamondtriangles.svg	35	no	57	0	801	0	0			0	0			1				0	
6.6.1	win	2023-06-01	22:49:51	23:00:56	662597	60ff0ff28636a214aed9a72e	3	1	main_z	11	main_z	61	stimuli_distractor_diamondtriangles.svg	stimuli_target_diamondrectangles.svg	31	yes	44	1	615	0	0			0	0			1				0	
6.6.1	win	2023-06-01	22:49:51	23:00:56	662597	60ff0ff28636a214aed9a72e	3	1	main_z	11	advance_on_keypress_ZEE	62	stimuli_distractor_diamondtriangles.svg	stimuli_target_diamondrectangles.svg	31	yes	57	0	134	0	0			0	0			1				0	
6.6.1	win	2023-06-01	22:49:51	23:00:58	663992	60ff0ff28636a214aed9a72e	3	1	main_z	11	main_z	63	stimuli_target_trianglesquares.svg	stimuli_distractor_trianglediamonds.svg	18	yes	44	1	598	0	0			0	0			1				0	
6.6.1	win	2023-06-01	22:49:51	23:00:58	663992	60ff0ff28636a214aed9a72e	3	1	main_z	11	advance_on_keypress_ZEE	64	stimuli_target_trianglesquares.svg	stimuli_distractor_trianglediamonds.svg	18	yes	57	0	509	0	0			0	0			1				0	
6.6.1	win	2023-06-01	22:49:51	23:01:00	665995	60ff0ff28636a214aed9a72e	3	1	main_z	11	main_z	65	stimuli_target_diamondsquares.svg	stimuli_distractor_trianglediamonds.svg	20	yes	44	1	815	0	0			0	0			1				0	
6.6.1	win	2023-06-01	22:49:51	23:01:00	665995	60ff0ff28636a214aed9a72e	3	1	main_z	11	advance_on_keypress_ZEE	66	stimuli_target_diamondsquares.svg	stimuli_distractor_trianglediamonds.svg	20	yes	57	0	133	0	0			0	0			1				0	
6.6.1	win	2023-06-01	22:49:51	23:01:01	667951	60ff0ff28636a214aed9a72e	3	1	main_z	11	main_z	67	stimuli_distractor_trianglediamonds.svg	stimuli_target_trianglerectangles.svg	25	yes	44	1	1151	0	0			0	0			1				0	
6.6.1	win	2023-06-01	22:49:51	23:01:01	667951	60ff0ff28636a214aed9a72e	3	1	main_z	11	advance_on_keypress_ZEE	68	stimuli_distractor_trianglediamonds.svg	stimuli_target_trianglerectangles.svg	25	yes	57	0	159	0	0			0	0			1				0	
6.6.1	win	2023-06-01	22:49:51	23:01:03	669402	60ff0ff28636a214aed9a72e	3	1	main_z	11	main_z	69	stimuli_target_rectangletriangles.svg	stimuli_distractor_trianglediamonds.svg	1	yes	44	1	623	0	0			0	0			1				0	
6.6.1	win	2023-06-01	22:49:51	23:01:03	669402	60ff0ff28636a214aed9a72e	3	1	main_z	11	advance_on_keypress_ZEE	70	stimuli_target_rectangletriangles.svg	stimuli_distractor_trianglediamonds.svg	1	yes	57	0	133	0	0			0	0			1				0	
6.6.1	win	2023-06-01	22:49:51	23:01:04	670644	60ff0ff28636a214aed9a72e	3	1	main_z	11	main_z	71	stimuli_target_squarediamonds.svg	stimuli_distractor_diamondtriangles.svg	8	yes	44	1	455	0	0			0	0			1				0	
6.6.1	win	2023-06-01	22:49:51	23:01:04	670644	60ff0ff28636a214aed9a72e	3	1	main_z	11	advance_on_keypress_ZEE	72	stimuli_target_squarediamonds.svg	stimuli_distractor_diamondtriangles.svg	8	yes	57	0	172	0	0			0	0			1				0	
6.6.1	win	2023-06-01	22:49:51	23:01:07	673495	60ff0ff28636a214aed9a72e	3	1	main_z	11	main_z	73	stimuli_distractor_diamondtriangles.svg	stimuli_distractor_diamondtriangles.svg	40	no	0	1	2000	0	0			0	0			1				0	
6.6.1	win	2023-06-01	22:49:51	23:01:07	673495	60ff0ff28636a214aed9a72e	3	1	main_z	11	advance_on_keypress_ZEE	74	stimuli_distractor_diamondtriangles.svg	stimuli_distractor_diamondtriangles.svg	40	no	57	0	666	0	0			0	0			1				0	
6.6.1	win	2023-06-01	22:49:51	23:01:10	676841	60ff0ff28636a214aed9a72e	3	1	main_z	11	main_z	75	stimuli_distractor_diamondtriangles.svg	stimuli_distractor_trianglediamonds.svg	38	no	0	1	2000	0	0			0	0			1				0	
6.6.1	win	2023-06-01	22:49:51	23:01:10	676841	60ff0ff28636a214aed9a72e	3	1	main_z	11	advance_on_keypress_ZEE	76	stimuli_distractor_diamondtriangles.svg	stimuli_distractor_trianglediamonds.svg	38	no	57	0	444	0	0			0	0			1				0	
6.6.1	win	2023-06-01	22:49:51	23:01:12	678353	60ff0ff28636a214aed9a72e	3	1	main_z	11	main_z	77	stimuli_distractor_diamondtriangles.svg	stimuli_target_squaretriangles.svg	15	yes	44	1	416	0	0			0	0			1				0	
6.6.1	win	2023-06-01	22:49:51	23:01:12	678353	60ff0ff28636a214aed9a72e	3	1	main_z	11	advance_on_keypress_ZEE	78	stimuli_distractor_diamondtriangles.svg	stimuli_target_squaretriangles.svg	15	yes	57	0	153	0	0			0	0			1				0	
6.6.1	win	2023-06-01	22:49:51	23:01:13	679619	60ff0ff28636a214aed9a72e	3	1	main_z	11	main_z	79	stimuli_target_rectanglediamonds.svg	stimuli_distractor_trianglediamonds.svg	2	yes	44	1	464	0	0			0	0			1				0	
6.6.1	win	2023-06-01	22:49:51	23:01:13	679619	60ff0ff28636a214aed9a72e	3	1	main_z	11	advance_on_keypress_ZEE	80	stimuli_target_rectanglediamonds.svg	stimuli_distractor_trianglediamonds.svg	2	yes	57	0	141	0	0			0	0			1				0	
6.6.1	win	2023-06-01	22:49:51	23:01:14	680876	60ff0ff28636a214aed9a72e	3	1	main_z	11	main_z	81	stimuli_distractor_trianglediamonds.svg	stimuli_target_squarediamonds.svg	12	yes	44	1	462	0	0			0	0			1				0	
6.6.1	win	2023-06-01	22:49:51	23:01:14	680876	60ff0ff28636a214aed9a72e	3	1	main_z	11	advance_on_keypress_ZEE	82	stimuli_distractor_trianglediamonds.svg	stimuli_target_squarediamonds.svg	12	yes	57	0	202	0	0			0	0			1				0	
6.6.1	win	2023-06-01	22:49:51	23:01:16	682152	60ff0ff28636a214aed9a72e	3	1	main_z	11	main_z	83	stimuli_distractor_trianglediamonds.svg	stimuli_target_rectangletriangles.svg	9	yes	44	1	409	0	0			0	0			1				0	
6.6.1	win	2023-06-01	22:49:51	23:01:16	682152	60ff0ff28636a214aed9a72e	3	1	main_z	11	advance_on_keypress_ZEE	84	stimuli_distractor_trianglediamonds.svg	stimuli_target_rectangletriangles.svg	9	yes	57	0	160	0	0			0	0			1				0	
6.6.1	win	2023-06-01	22:49:51	23:01:17	683418	60ff0ff28636a214aed9a72e	3	1	main_z	11	main_z	85	stimuli_target_rectangletriangles.svg	stimuli_distractor_diamondtriangles.svg	5	yes	44	1	448	0	0			0	0			1				0	
6.6.1	win	2023-06-01	22:49:51	23:01:17	683418	60ff0ff28636a214aed9a72e	3	1	main_z	11	advance_on_keypress_ZEE	86	stimuli_target_rectangletriangles.svg	stimuli_distractor_diamondtriangles.svg	5	yes	57	0	141	0	0			0	0			1				0	
6.6.1	win	2023-06-01	22:49:51	23:01:18	684670	60ff0ff28636a214aed9a72e	3	1	main_z	11	main_z	87	stimuli_distractor_trianglediamonds.svg	stimuli_target_diamondsquares.svg	28	yes	44	1	463	0	0			0	0			1				0	
6.6.1	win	2023-06-01	22:49:51	23:01:18	684670	60ff0ff28636a214aed9a72e	3	1	main_z	11	advance_on_keypress_ZEE	88	stimuli_distractor_trianglediamonds.svg	stimuli_target_diamondsquares.svg	28	yes	57	0	131	0	0			0	0			1				0	
6.6.1	win	2023-06-01	22:49:51	23:01:20	685981	60ff0ff28636a214aed9a72e	3	1	main_z	11	main_z	89	stimuli_target_squaretriangles.svg	stimuli_distractor_trianglediamonds.svg	3	yes	44	1	525	0	0			0	0			1				0	
6.6.1	win	2023-06-01	22:49:51	23:01:20	685981	60ff0ff28636a214aed9a72e	3	1	main_z	11	advance_on_keypress_ZEE	90	stimuli_target_squaretriangles.svg	stimuli_distractor_trianglediamonds.svg	3	yes	57	0	127	0	0			0	0			1				0	
6.6.1	win	2023-06-01	22:49:51	23:01:21	687183	60ff0ff28636a214aed9a72e	3	1	main_z	11	main_z	91	stimuli_target_rectangletriangles.svg	stimuli_distractor_trianglediamonds.svg	1	yes	44	1	416	0	0			0	0			1				0	
6.6.1	win	2023-06-01	22:49:51	23:01:21	687183	60ff0ff28636a214aed9a72e	3	1	main_z	11	advance_on_keypress_ZEE	92	stimuli_target_rectangletriangles.svg	stimuli_distractor_trianglediamonds.svg	1	yes	57	0	168	0	0			0	0			1				0	
6.6.1	win	2023-06-01	22:49:51	23:01:22	688429	60ff0ff28636a214aed9a72e	3	1	main_z	11	main_z	93	stimuli_distractor_trianglediamonds.svg	stimuli_target_diamondrectangles.svg	27	yes	44	1	406	0	0			0	0			1				0	
6.6.1	win	2023-06-01	22:49:51	23:01:22	688429	60ff0ff28636a214aed9a72e	3	1	main_z	11	advance_on_keypress_ZEE	94	stimuli_distractor_trianglediamonds.svg	stimuli_target_diamondrectangles.svg	27	yes	57	0	157	0	0			0	0			1				0	
6.6.1	win	2023-06-01	22:49:51	23:01:24	690027	60ff0ff28636a214aed9a72e	3	1	main_z	11	main_z	95	stimuli_distractor_trianglediamonds.svg	stimuli_target_trianglerectangles.svg	25	yes	44	1	765	0	0			0	0			1				0	
6.6.1	win	2023-06-01	22:49:51	23:01:24	690027	60ff0ff28636a214aed9a72e	3	1	main_z	11	advance_on_keypress_ZEE	96	stimuli_distractor_trianglediamonds.svg	stimuli_target_trianglerectangles.svg	25	yes	57	0	133	0	0			0	0			1				0	
6.6.1	win	2023-06-01	22:49:51	23:01:26	692823	60ff0ff28636a214aed9a72e	3	1	main_z	11	main_z	97	stimuli_distractor_trianglediamonds.svg	stimuli_distractor_diamondtriangles.svg	36	no	0	1	2000	0	0			0	0			1				0	
6.6.1	win	2023-06-01	22:49:51	23:01:26	692823	60ff0ff28636a214aed9a72e	3	1	main_z	11	advance_on_keypress_ZEE	98	stimuli_distractor_trianglediamonds.svg	stimuli_distractor_diamondtriangles.svg	36	no	57	0	645	0	0			0	0			1				0	
6.6.1	win	2023-06-01	22:49:51	23:01:28	694653	60ff0ff28636a214aed9a72e	3	1	main_z	11	main_z	99	stimuli_distractor_diamondtriangles.svg	stimuli_target_rectanglediamonds.svg	14	yes	44	1	530	0	0			0	0			1				0	
6.6.1	win	2023-06-01	22:49:51	23:01:28	694653	60ff0ff28636a214aed9a72e	3	1	main_z	11	advance_on_keypress_ZEE	100	stimuli_distractor_diamondtriangles.svg	stimuli_target_rectanglediamonds.svg	14	yes	57	0	140	0	0			0	0			1				0	
6.6.1	win	2023-06-01	22:49:51	23:01:31	697449	60ff0ff28636a214aed9a72e	3	1	main_z	11	main_z	101	stimuli_target_trianglerectangles.svg	stimuli_distractor_diamondtriangles.svg	21	yes	0	0	2000	0	0			0	0			1				0	
6.6.1	win	2023-06-01	22:49:51	23:01:31	697449	60ff0ff28636a214aed9a72e	3	1	main_z	11	advance_on_keypress_ZEE	102	stimuli_target_trianglerectangles.svg	stimuli_distractor_diamondtriangles.svg	21	yes	57	0	1012	0	0			0	0			1				0	
6.6.1	win	2023-06-01	22:49:51	23:01:33	699557	60ff0ff28636a214aed9a72e	3	1	main_z	11	main_z	103	stimuli_distractor_diamondtriangles.svg	stimuli_target_trianglesquares.svg	30	yes	44	1	434	0	0			0	0			1				0	
6.6.1	win	2023-06-01	22:49:51	23:01:33	699557	60ff0ff28636a214aed9a72e	3	1	main_z	11	advance_on_keypress_ZEE	104	stimuli_distractor_diamondtriangles.svg	stimuli_target_trianglesquares.svg	30	yes	57	0	144	0	0			0	0			1				0	
6.6.1	win	2023-06-01	22:49:51	23:01:34	700932	60ff0ff28636a214aed9a72e	3	1	main_z	11	main_z	105	stimuli_target_diamondrectangles.svg	stimuli_distractor_trianglediamonds.svg	19	yes	44	1	569	0	0			0	0			1				0	
6.6.1	win	2023-06-01	22:49:51	23:01:34	700932	60ff0ff28636a214aed9a72e	3	1	main_z	11	advance_on_keypress_ZEE	106	stimuli_target_diamondrectangles.svg	stimuli_distractor_trianglediamonds.svg	19	yes	57	0	153	0	0			0	0			1				0	
6.6.1	win	2023-06-01	22:49:51	23:01:36	702170	60ff0ff28636a214aed9a72e	3	1	main_z	11	main_z	107	stimuli_distractor_diamondtriangles.svg	stimuli_target_diamondsquares.svg	32	yes	44	1	433	0	0			0	0			1				0	
6.6.1	win	2023-06-01	22:49:51	23:01:36	702170	60ff0ff28636a214aed9a72e	3	1	main_z	11	advance_on_keypress_ZEE	108	stimuli_distractor_diamondtriangles.svg	stimuli_target_diamondsquares.svg	32	yes	57	0	160	0	0			0	0			1				0	
6.6.1	win	2023-06-01	22:49:51	23:01:37	703435	60ff0ff28636a214aed9a72e	3	1	main_z	11	main_z	109	stimuli_distractor_trianglediamonds.svg	stimuli_target_trianglesquares.svg	26	yes	44	1	462	0	0			0	0			1				0	
6.6.1	win	2023-06-01	22:49:51	23:01:37	703435	60ff0ff28636a214aed9a72e	3	1	main_z	11	advance_on_keypress_ZEE	110	stimuli_distractor_trianglediamonds.svg	stimuli_target_trianglesquares.svg	26	yes	57	0	149	0	0			0	0			1				0	
6.6.1	win	2023-06-01	22:49:51	23:01:39	705839	60ff0ff28636a214aed9a72e	3	1	main_z	11	main_z	111	stimuli_distractor_diamondtriangles.svg	stimuli_target_rectangletriangles.svg	13	yes	44	1	1604	0	0			0	0			1				0	
6.6.1	win	2023-06-01	22:49:51	23:01:39	705839	60ff0ff28636a214aed9a72e	3	1	main_z	11	advance_on_keypress_ZEE	112	stimuli_distractor_diamondtriangles.svg	stimuli_target_rectangletriangles.svg	13	yes	57	0	181	0	0			0	0			1				0	
6.6.1	win	2023-06-01	22:49:51	23:01:42	708667	60ff0ff28636a214aed9a72e	3	1	main_z	11	main_z	113	stimuli_distractor_diamondtriangles.svg	stimuli_distractor_diamondtriangles.svg	39	no	0	1	2000	0	0			0	0			1				0	
6.6.1	win	2023-06-01	22:49:51	23:01:42	708667	60ff0ff28636a214aed9a72e	3	1	main_z	11	advance_on_keypress_ZEE	114	stimuli_distractor_diamondtriangles.svg	stimuli_distractor_diamondtriangles.svg	39	no	57	0	444	0	0			0	0			1				0	
6.6.1	win	2023-06-01	22:49:51	23:01:44	710237	60ff0ff28636a214aed9a72e	3	1	main_z	11	main_z	115	stimuli_target_squaretriangles.svg	stimuli_distractor_diamondtriangles.svg	7	yes	44	1	457	0	0			0	0			1				0	
6.6.1	win	2023-06-01	22:49:51	23:01:44	710237	60ff0ff28636a214aed9a72e	3	1	main_z	11	advance_on_keypress_ZEE	116	stimuli_target_squaretriangles.svg	stimuli_distractor_diamondtriangles.svg	7	yes	57	0	133	0	0			0	0			1				0	
6.6.1	win	2023-06-01	22:49:51	23:01:46	712338	60ff0ff28636a214aed9a72e	3	1	main_z	11	main_z	117	stimuli_distractor_trianglediamonds.svg	stimuli_distractor_diamondtriangles.svg	35	no	44	0	1311	0	0			0	0			1				0	
6.6.1	win	2023-06-01	22:49:51	23:01:46	712338	60ff0ff28636a214aed9a72e	3	1	main_z	11	advance_on_keypress_ZEE	118	stimuli_distractor_trianglediamonds.svg	stimuli_distractor_diamondtriangles.svg	35	no	57	0	137	0	0			0	0			1				0	
6.6.1	win	2023-06-01	22:49:51	23:01:47	713758	60ff0ff28636a214aed9a72e	3	1	main_z	11	main_z	119	stimuli_distractor_diamondtriangles.svg	stimuli_target_squaretriangles.svg	15	yes	44	1	635	0	0			0	0			1				0	
6.6.1	win	2023-06-01	22:49:51	23:01:47	713758	60ff0ff28636a214aed9a72e	3	1	main_z	11	advance_on_keypress_ZEE	120	stimuli_distractor_diamondtriangles.svg	stimuli_target_squaretriangles.svg	15	yes	57	0	136	0	0			0	0			1				0	
6.6.1	win	2023-06-01	22:49:51	23:01:49	715029	60ff0ff28636a214aed9a72e	3	1	main_z	11	main_z	121	stimuli_target_rectanglediamonds.svg	stimuli_distractor_trianglediamonds.svg	2	yes	44	1	456	0	0			0	0			1				0	
6.6.1	win	2023-06-01	22:49:51	23:01:49	715029	60ff0ff28636a214aed9a72e	3	1	main_z	11	advance_on_keypress_ZEE	122	stimuli_target_rectanglediamonds.svg	stimuli_distractor_trianglediamonds.svg	2	yes	57	0	173	0	0			0	0			1				0	
6.6.1	win	2023-06-01	22:49:51	23:01:50	716434	60ff0ff28636a214aed9a72e	3	1	main_z	11	main_z	123	stimuli_target_squarediamonds.svg	stimuli_distractor_diamondtriangles.svg	8	yes	44	1	557	0	0			0	0			1				0	
6.6.1	win	2023-06-01	22:49:51	23:01:50	716434	60ff0ff28636a214aed9a72e	3	1	main_z	11	advance_on_keypress_ZEE	124	stimuli_target_squarediamonds.svg	stimuli_distractor_diamondtriangles.svg	8	yes	57	0	133	0	0			0	0			1				0	
6.6.1	win	2023-06-01	22:49:51	23:01:52	718433	60ff0ff28636a214aed9a72e	3	1	main_z	11	main_z	125	stimuli_target_trianglesquares.svg	stimuli_distractor_trianglediamonds.svg	18	yes	44	1	1212	0	0			0	0			1				0	
6.6.1	win	2023-06-01	22:49:51	23:01:52	718433	60ff0ff28636a214aed9a72e	3	1	main_z	11	advance_on_keypress_ZEE	126	stimuli_target_trianglesquares.svg	stimuli_distractor_trianglediamonds.svg	18	yes	57	0	141	0	0			0	0			1				0	
6.6.1	win	2023-06-01	22:49:51	23:01:53	719763	60ff0ff28636a214aed9a72e	3	1	main_z	11	main_z	127	stimuli_target_diamondsquares.svg	stimuli_distractor_trianglediamonds.svg	20	yes	44	1	517	0	0			0	0			1				0	
6.6.1	win	2023-06-01	22:49:51	23:01:53	719763	60ff0ff28636a214aed9a72e	3	1	main_z	11	advance_on_keypress_ZEE	128	stimuli_target_diamondsquares.svg	stimuli_distractor_trianglediamonds.svg	20	yes	57	0	104	0	0			0	0			1				0	
6.6.1	win	2023-06-01	22:49:51	23:01:55	721227	60ff0ff28636a214aed9a72e	3	1	main_z	11	main_z	129	stimuli_distractor_diamondtriangles.svg	stimuli_target_squarediamonds.svg	16	yes	44	1	682	0	0			0	0			1				0	
6.6.1	win	2023-06-01	22:49:51	23:01:55	721227	60ff0ff28636a214aed9a72e	3	1	main_z	11	advance_on_keypress_ZEE	130	stimuli_distractor_diamondtriangles.svg	stimuli_target_squarediamonds.svg	16	yes	57	0	101	0	0			0	0			1				0	
6.6.1	win	2023-06-01	22:49:51	23:01:58	723997	60ff0ff28636a214aed9a72e	3	1	main_z	11	main_z	131	stimuli_distractor_diamondtriangles.svg	stimuli_distractor_diamondtriangles.svg	40	no	0	1	2000	0	0			0	0			1				0	
6.6.1	win	2023-06-01	22:49:51	23:01:58	723997	60ff0ff28636a214aed9a72e	3	1	main_z	11	advance_on_keypress_ZEE	132	stimuli_distractor_diamondtriangles.svg	stimuli_distractor_diamondtriangles.svg	40	no	57	0	455	0	0			0	0			1				0	
6.6.1	win	2023-06-01	22:49:51	23:01:59	725671	60ff0ff28636a214aed9a72e	3	1	main_z	11	main_z	133	stimuli_target_rectanglediamonds.svg	stimuli_distractor_diamondtriangles.svg	6	yes	44	1	547	0	0			0	0			1				0	
6.6.1	win	2023-06-01	22:49:51	23:01:59	725671	60ff0ff28636a214aed9a72e	3	1	main_z	11	advance_on_keypress_ZEE	134	stimuli_target_rectanglediamonds.svg	stimuli_distractor_diamondtriangles.svg	6	yes	57	0	164	0	0			0	0			1				0	
6.6.1	win	2023-06-01	22:49:51	23:02:02	728494	60ff0ff28636a214aed9a72e	3	1	main_z	11	main_z	135	stimuli_distractor_diamondtriangles.svg	stimuli_distractor_trianglediamonds.svg	37	no	0	1	2000	0	0			0	0			1				0	
6.6.1	win	2023-06-01	22:49:51	23:02:02	728494	60ff0ff28636a214aed9a72e	3	1	main_z	11	advance_on_keypress_ZEE	136	stimuli_distractor_diamondtriangles.svg	stimuli_distractor_trianglediamonds.svg	37	no	57	0	1859	0	0			0	0			1				0	
6.6.1	win	2023-06-01	22:49:51	23:02:05	731546	60ff0ff28636a214aed9a72e	3	1	main_z	11	main_z	137	stimuli_target_diamondsquares.svg	stimuli_distractor_diamondtriangles.svg	24	yes	44	1	514	0	0			0	0			1				0	
6.6.1	win	2023-06-01	22:49:51	23:02:05	731546	60ff0ff28636a214aed9a72e	3	1	main_z	11	advance_on_keypress_ZEE	138	stimuli_target_diamondsquares.svg	stimuli_distractor_diamondtriangles.svg	24	yes	57	0	129	0	0			0	0			1				0	
6.6.1	win	2023-06-01	22:49:51	23:02:08	734340	60ff0ff28636a214aed9a72e	3	1	main_z	11	main_z	139	stimuli_distractor_trianglediamonds.svg	stimuli_distractor_trianglediamonds.svg	33	no	0	1	2000	0	0			0	0			1				0	
6.6.1	win	2023-06-01	22:49:51	23:02:08	734340	60ff0ff28636a214aed9a72e	3	1	main_z	11	advance_on_keypress_ZEE	140	stimuli_distractor_trianglediamonds.svg	stimuli_distractor_trianglediamonds.svg	33	no	57	0	441	0	0			0	0			1				0	
6.6.1	win	2023-06-01	22:49:51	23:02:09	735856	60ff0ff28636a214aed9a72e	3	1	main_z	11	main_z	141	stimuli_target_trianglesquares.svg	stimuli_distractor_diamondtriangles.svg	22	yes	44	1	422	0	0			0	0			1				0	
6.6.1	win	2023-06-01	22:49:51	23:02:09	735856	60ff0ff28636a214aed9a72e	3	1	main_z	11	advance_on_keypress_ZEE	142	stimuli_target_trianglesquares.svg	stimuli_distractor_diamondtriangles.svg	22	yes	57	0	181	0	0			0	0			1				0	
6.6.1	win	2023-06-01	22:49:51	23:02:12	738686	60ff0ff28636a214aed9a72e	3	1	main_z	11	main_z	143	stimuli_distractor_diamondtriangles.svg	stimuli_distractor_trianglediamonds.svg	38	no	0	1	2000	0	0			0	0			1				0	
6.6.1	win	2023-06-01	22:49:51	23:02:12	738686	60ff0ff28636a214aed9a72e	3	1	main_z	11	advance_on_keypress_ZEE	144	stimuli_distractor_diamondtriangles.svg	stimuli_distractor_trianglediamonds.svg	38	no	57	0	1444	0	0			0	0			1				0	
6.6.1	win	2023-06-01	22:49:51	23:02:15	741356	60ff0ff28636a214aed9a72e	3	1	main_z	11	main_z	145	stimuli_target_diamondrectangles.svg	stimuli_distractor_diamondtriangles.svg	23	yes	44	1	566	0	0			0	0			1				0	
6.6.1	win	2023-06-01	22:49:51	23:02:15	741356	60ff0ff28636a214aed9a72e	3	1	main_z	11	advance_on_keypress_ZEE	146	stimuli_target_diamondrectangles.svg	stimuli_distractor_diamondtriangles.svg	23	yes	57	0	201	0	0			0	0			1				0	
6.6.1	win	2023-06-01	22:49:51	23:02:16	742624	60ff0ff28636a214aed9a72e	3	1	main_z	11	main_z	147	stimuli_target_squarediamonds.svg	stimuli_distractor_trianglediamonds.svg	4	yes	44	1	408	0	0			0	0			1				0	
6.6.1	win	2023-06-01	22:49:51	23:02:16	742624	60ff0ff28636a214aed9a72e	3	1	main_z	11	advance_on_keypress_ZEE	148	stimuli_target_squarediamonds.svg	stimuli_distractor_trianglediamonds.svg	4	yes	57	0	182	0	0			0	0			1				0	
6.6.1	win	2023-06-01	22:49:51	23:02:18	744043	60ff0ff28636a214aed9a72e	3	1	main_z	11	main_z	149	stimuli_distractor_diamondtriangles.svg	stimuli_target_trianglerectangles.svg	29	yes	44	1	570	0	0			0	0			1				0	
6.6.1	win	2023-06-01	22:49:51	23:02:18	744043	60ff0ff28636a214aed9a72e	3	1	main_z	11	advance_on_keypress_ZEE	150	stimuli_distractor_diamondtriangles.svg	stimuli_target_trianglerectangles.svg	29	yes	57	0	149	0	0			0	0			1				0	
6.6.1	win	2023-06-01	22:49:51	23:02:19	745347	60ff0ff28636a214aed9a72e	3	1	main_z	11	main_z	151	stimuli_distractor_trianglediamonds.svg	stimuli_target_squaretriangles.svg	11	yes	44	1	477	0	0			0	0			1				0	
6.6.1	win	2023-06-01	22:49:51	23:02:19	745347	60ff0ff28636a214aed9a72e	3	1	main_z	11	advance_on_keypress_ZEE	152	stimuli_distractor_trianglediamonds.svg	stimuli_target_squaretriangles.svg	11	yes	57	0	153	0	0			0	0			1				0	
6.6.1	win	2023-06-01	22:49:51	23:02:20	746744	60ff0ff28636a214aed9a72e	3	1	main_z	11	main_z	153	stimuli_distractor_diamondtriangles.svg	stimuli_target_diamondrectangles.svg	31	yes	44	1	569	0	0			0	0			1				0	
6.6.1	win	2023-06-01	22:49:51	23:02:20	746744	60ff0ff28636a214aed9a72e	3	1	main_z	11	advance_on_keypress_ZEE	154	stimuli_distractor_diamondtriangles.svg	stimuli_target_diamondrectangles.svg	31	yes	57	0	169	0	0			0	0			1				0	
6.6.1	win	2023-06-01	22:49:51	23:02:22	747993	60ff0ff28636a214aed9a72e	3	1	main_z	11	main_z	155	stimuli_distractor_trianglediamonds.svg	stimuli_target_rectanglediamonds.svg	10	yes	44	1	409	0	0			0	0			1				0	
6.6.1	win	2023-06-01	22:49:51	23:02:22	747993	60ff0ff28636a214aed9a72e	3	1	main_z	11	advance_on_keypress_ZEE	156	stimuli_distractor_trianglediamonds.svg	stimuli_target_rectanglediamonds.svg	10	yes	57	0	207	0	0			0	0			1				0	
6.6.1	win	2023-06-01	22:49:51	23:02:24	750858	60ff0ff28636a214aed9a72e	3	1	main_z	11	main_z	157	stimuli_target_trianglerectangles.svg	stimuli_distractor_trianglediamonds.svg	17	yes	0	0	2000	0	0			0	0			1				0	
6.6.1	win	2023-06-01	22:49:51	23:02:24	750858	60ff0ff28636a214aed9a72e	3	1	main_z	11	advance_on_keypress_ZEE	158	stimuli_target_trianglerectangles.svg	stimuli_distractor_trianglediamonds.svg	17	yes	57	0	838	0	0			0	0			1				0	
6.6.1	win	2023-06-01	22:49:51	23:02:28	754372	60ff0ff28636a214aed9a72e	3	1	main_z	11	main_z	159	stimuli_distractor_trianglediamonds.svg	stimuli_distractor_trianglediamonds.svg	34	no	0	1	2000	0	0			0	0			1				0	
6.6.1	win	2023-06-01	22:49:51	23:02:28	754372	60ff0ff28636a214aed9a72e	3	1	main_z	11	advance_on_keypress_ZEE	160	stimuli_distractor_trianglediamonds.svg	stimuli_distractor_trianglediamonds.svg	34	no	57	0	1465	0	0			0	0			1				0	
6.6.1	win	2023-06-01	22:49:51	23:02:28	754372	60ff0ff28636a214aed9a72e	3	1	headphonecheck_calibration	14	headphonecheck_calibrationIntro	1	stimuli_distractor_trianglediamonds.svg	stimuli_distractor_trianglediamonds.svg	34	no	calibrationButton	0	5297	0	0			0	0			1				0	
6.6.1	win	2023-06-01	22:49:51	23:02:28	754372	60ff0ff28636a214aed9a72e	3	1	headphonecheck_testphase	15	test_collectResponse	3	stimuli_distractor_trianglediamonds.svg	stimuli_distractor_trianglediamonds.svg	34	no	first	0	25803	1	1	antiphase_hc_iso.wav	2	0	0			1				0	
6.6.1	win	2023-06-01	22:49:51	23:02:28	754372	60ff0ff28636a214aed9a72e	3	1	headphonecheck_testphase	15	test_collectResponse	6	stimuli_distractor_trianglediamonds.svg	stimuli_distractor_trianglediamonds.svg	34	no	third	0	1162	2	4	antiphase_hc_sio.wav	1	0	0			1				0	
6.6.1	win	2023-06-01	22:49:51	23:02:28	754372	60ff0ff28636a214aed9a72e	3	1	headphonecheck_testphase	15	test_collectResponse	9	stimuli_distractor_trianglediamonds.svg	stimuli_distractor_trianglediamonds.svg	34	no	second	0	1429	3	3	antiphase_hc_soi.wav	1	0	0			1				0	
6.6.1	win	2023-06-01	22:49:51	23:02:28	754372	60ff0ff28636a214aed9a72e	3	1	headphonecheck_testphase	15	test_collectResponse	12	stimuli_distractor_trianglediamonds.svg	stimuli_distractor_trianglediamonds.svg	34	no	first	0	327	4	5	antiphase_hc_osi.wav	2	0	0			1				0	
6.6.1	win	2023-06-01	22:49:51	23:02:28	754372	60ff0ff28636a214aed9a72e	3	1	headphonecheck_testphase	15	test_collectResponse	15	stimuli_distractor_trianglediamonds.svg	stimuli_distractor_trianglediamonds.svg	34	no	second	0	1444	5	2	antiphase_hc_ios.wav	3	0	0			1				0	
6.6.1	win	2023-06-01	22:49:51	23:02:28	754372	60ff0ff28636a214aed9a72e	3	1	headphonecheck_testphase	15	test_collectResponse	18	stimuli_distractor_trianglediamonds.svg	stimuli_distractor_trianglediamonds.svg	34	no	first	0	632	6	6	antiphase_hc_ois.wav	3	0	0			1				0	
6.6.1	win	2023-06-01	22:49:51	23:02:28	754372	60ff0ff28636a214aed9a72e	3	1	stereocheck_calibration	17	stereocheck_calibrationIntro	1	stimuli_distractor_trianglediamonds.svg	stimuli_distractor_trianglediamonds.svg	34	no	stereocheck_calibrationButton	0	14947	6	6	antiphase_hc_ois.wav	3	0	0			1				0	
6.6.1	win	2023-06-01	22:49:51	23:02:28	754372	60ff0ff28636a214aed9a72e	3	1	stereocheck_testphase	18	stereocheck_test_collectResponse	3	stimuli_distractor_trianglediamonds.svg	stimuli_distractor_trianglediamonds.svg	34	no	stereocheck_left	1	1079	6	6	antiphase_hc_ois.wav	3	1	2	noise_calib_stim_LEFT.wav	1	1				0	
6.6.1	win	2023-06-01	22:49:51	23:02:28	754372	60ff0ff28636a214aed9a72e	3	1	stereocheck_testphase	18	stereocheck_test_collectResponse	6	stimuli_distractor_trianglediamonds.svg	stimuli_distractor_trianglediamonds.svg	34	no	stereocheck_left	1	1335	6	6	antiphase_hc_ois.wav	3	2	3	noise_calib_stim_LEFT.wav	1	1				0	
6.6.1	win	2023-06-01	22:49:51	23:02:28	754372	60ff0ff28636a214aed9a72e	3	1	stereocheck_testphase	18	stereocheck_test_collectResponse	9	stimuli_distractor_trianglediamonds.svg	stimuli_distractor_trianglediamonds.svg	34	no	stereocheck_right	1	1009	6	6	antiphase_hc_ois.wav	3	3	6	noise_calib_stim_RIGHT.wav	2	1				0	
6.6.1	win	2023-06-01	22:49:51	23:02:28	754372	60ff0ff28636a214aed9a72e	3	1	stereocheck_testphase	18	stereocheck_test_collectResponse	12	stimuli_distractor_trianglediamonds.svg	stimuli_distractor_trianglediamonds.svg	34	no	stereocheck_right	1	754	6	6	antiphase_hc_ois.wav	3	4	5	noise_calib_stim_RIGHT.wav	2	1				0	
6.6.1	win	2023-06-01	22:49:51	23:02:28	754372	60ff0ff28636a214aed9a72e	3	1	stereocheck_testphase	18	stereocheck_test_collectResponse	15	stimuli_distractor_trianglediamonds.svg	stimuli_distractor_trianglediamonds.svg	34	no	stereocheck_right	1	619	6	6	antiphase_hc_ois.wav	3	5	4	noise_calib_stim_RIGHT.wav	2	1				0	
6.6.1	win	2023-06-01	22:49:51	23:02:28	754372	60ff0ff28636a214aed9a72e	3	1	stereocheck_testphase	18	stereocheck_test_collectResponse	18	stimuli_distractor_trianglediamonds.svg	stimuli_distractor_trianglediamonds.svg	34	no	stereocheck_left	1	612	6	6	antiphase_hc_ois.wav	3	6	1	noise_calib_stim_LEFT.wav	1	1				0	
6.6.1	win	2023-06-01	22:49:51	23:02:28	754372	60ff0ff28636a214aed9a72e	3	1	DL_practice	21	DL_practice	2	stimuli_distractor_trianglediamonds.svg	stimuli_distractor_trianglediamonds.svg	34	no	ba	1	2499	6	6	antiphase_hc_ois.wav	3	6	1	noise_calib_stim_LEFT.wav	1	1	blb_dichoticlistening_ba-ba.mp3	ba	ba	0	left
6.6.1	win	2023-06-01	22:49:51	23:02:28	754372	60ff0ff28636a214aed9a72e	3	1	DL_practice	21	DL_practice	3	stimuli_distractor_trianglediamonds.svg	stimuli_distractor_trianglediamonds.svg	34	no	ka	1	2592	6	6	antiphase_hc_ois.wav	3	6	1	noise_calib_stim_LEFT.wav	1	23	blb_dichoticlistening_ka-pa.mp3	ka	pa	1	left
6.6.1	win	2023-06-01	22:49:51	23:02:28	754372	60ff0ff28636a214aed9a72e	3	1	DL_practice	21	DL_practice	4	stimuli_distractor_trianglediamonds.svg	stimuli_distractor_trianglediamonds.svg	34	no	da	1	2130	6	6	antiphase_hc_ois.wav	3	6	1	noise_calib_stim_LEFT.wav	1	7	blb_dichoticlistening_da-ba.mp3	da	ba	1	left
6.6.1	win	2023-06-01	22:49:51	23:02:28	754372	60ff0ff28636a214aed9a72e	3	1	DL_practice	21	DL_practice	5	stimuli_distractor_trianglediamonds.svg	stimuli_distractor_trianglediamonds.svg	34	no	ka	1	1671	6	6	antiphase_hc_ois.wav	3	6	1	noise_calib_stim_LEFT.wav	1	22	blb_dichoticlistening_ka-ka.mp3	ka	ka	0	left
6.6.1	win	2023-06-01	22:49:51	23:02:28	754372	60ff0ff28636a214aed9a72e	3	1	DL_practice	21	DL_practice	6	stimuli_distractor_trianglediamonds.svg	stimuli_distractor_trianglediamonds.svg	34	no	ga	1	1415	6	6	antiphase_hc_ois.wav	3	6	1	noise_calib_stim_LEFT.wav	1	15	blb_dichoticlistening_ga-ga.mp3	ga	ga	0	left
6.6.1	win	2023-06-01	22:49:51	23:02:28	754372	60ff0ff28636a214aed9a72e	3	1	DL_practice	21	DL_practice	7	stimuli_distractor_trianglediamonds.svg	stimuli_distractor_trianglediamonds.svg	34	no	ga	1	1036	6	6	antiphase_hc_ois.wav	3	6	1	noise_calib_stim_LEFT.wav	1	18	blb_dichoticlistening_ga-ta.mp3	ga	ta	1	left
6.6.1	win	2023-06-01	22:49:51	23:02:28	754372	60ff0ff28636a214aed9a72e	3	1	DL_practice	21	DL_practice	8	stimuli_distractor_trianglediamonds.svg	stimuli_distractor_trianglediamonds.svg	34	no	da	1	1159	6	6	antiphase_hc_ois.wav	3	6	1	noise_calib_stim_LEFT.wav	1	8	blb_dichoticlistening_da-da.mp3	da	da	0	left
6.6.1	win	2023-06-01	22:49:51	23:02:28	754372	60ff0ff28636a214aed9a72e	3	1	DL_practice	21	DL_practice	9	stimuli_distractor_trianglediamonds.svg	stimuli_distractor_trianglediamonds.svg	34	no	pa	1	1061	6	6	antiphase_hc_ois.wav	3	6	1	noise_calib_stim_LEFT.wav	1	29	blb_dichoticlistening_pa-pa.mp3	pa	pa	0	left
6.6.1	win	2023-06-01	22:49:51	23:02:28	754372	60ff0ff28636a214aed9a72e	3	1	DL_practice	21	DL_practice	10	stimuli_distractor_trianglediamonds.svg	stimuli_distractor_trianglediamonds.svg	34	no	ta	1	2249	6	6	antiphase_hc_ois.wav	3	6	1	noise_calib_stim_LEFT.wav	1	36	blb_dichoticlistening_ta-ta.mp3	ta	ta	0	left
6.6.1	win	2023-06-01	22:49:51	23:02:28	754372	60ff0ff28636a214aed9a72e	3	1	DL_test	23	DL_test	1	stimuli_distractor_trianglediamonds.svg	stimuli_distractor_trianglediamonds.svg	34	no	ga	1	1528	6	6	antiphase_hc_ois.wav	3	6	1	noise_calib_stim_LEFT.wav	1	16	blb_dichoticlistening_ga-ka.mp3	ga	ka	1	left
6.6.1	win	2023-06-01	22:49:51	23:02:28	754372	60ff0ff28636a214aed9a72e	3	1	DL_test	23	DL_test	2	stimuli_distractor_trianglediamonds.svg	stimuli_distractor_trianglediamonds.svg	34	no	ka	1	1291	6	6	antiphase_hc_ois.wav	3	6	1	noise_calib_stim_LEFT.wav	1	22	blb_dichoticlistening_ka-ka.mp3	ka	ka	0	left
6.6.1	win	2023-06-01	22:49:51	23:02:28	754372	60ff0ff28636a214aed9a72e	3	1	DL_test	23	DL_test	3	stimuli_distractor_trianglediamonds.svg	stimuli_distractor_trianglediamonds.svg	34	no	ta	1	1344	6	6	antiphase_hc_ois.wav	3	6	1	noise_calib_stim_LEFT.wav	1	36	blb_dichoticlistening_ta-ta.mp3	ta	ta	0	left
6.6.1	win	2023-06-01	22:49:51	23:02:28	754372	60ff0ff28636a214aed9a72e	3	1	DL_test	23	DL_test	4	stimuli_distractor_trianglediamonds.svg	stimuli_distractor_trianglediamonds.svg	34	no	ta	1	1316	6	6	antiphase_hc_ois.wav	3	6	1	noise_calib_stim_LEFT.wav	1	35	blb_dichoticlistening_ta-pa.mp3	ta	pa	1	left
6.6.1	win	2023-06-01	22:49:51	23:02:28	754372	60ff0ff28636a214aed9a72e	3	1	DL_test	23	DL_test	5	stimuli_distractor_trianglediamonds.svg	stimuli_distractor_trianglediamonds.svg	34	no	da	1	1408	6	6	antiphase_hc_ois.wav	3	6	1	noise_calib_stim_LEFT.wav	1	32	blb_dichoticlistening_ta-da.mp3	ta	da	1	right
6.6.1	win	2023-06-01	22:49:51	23:02:28	754372	60ff0ff28636a214aed9a72e	3	1	DL_test	23	DL_test	6	stimuli_distractor_trianglediamonds.svg	stimuli_distractor_trianglediamonds.svg	34	no	ka	1	1436	6	6	antiphase_hc_ois.wav	3	6	1	noise_calib_stim_LEFT.wav	1	28	blb_dichoticlistening_pa-ka.mp3	pa	ka	1	right
6.6.1	win	2023-06-01	22:49:51	23:02:28	754372	60ff0ff28636a214aed9a72e	3	1	DL_test	23	DL_test	7	stimuli_distractor_trianglediamonds.svg	stimuli_distractor_trianglediamonds.svg	34	no	ba	1	3051	6	6	antiphase_hc_ois.wav	3	6	1	noise_calib_stim_LEFT.wav	1	4	blb_dichoticlistening_ba-ka.mp3	ba	ka	1	left
6.6.1	win	2023-06-01	22:49:51	23:02:28	754372	60ff0ff28636a214aed9a72e	3	1	DL_test	23	DL_test	8	stimuli_distractor_trianglediamonds.svg	stimuli_distractor_trianglediamonds.svg	34	no	da	1	1458	6	6	antiphase_hc_ois.wav	3	6	1	noise_calib_stim_LEFT.wav	1	26	blb_dichoticlistening_pa-da.mp3	pa	da	1	right
6.6.1	win	2023-06-01	22:49:51	23:02:28	754372	60ff0ff28636a214aed9a72e	3	1	DL_test	23	DL_test	9	stimuli_distractor_trianglediamonds.svg	stimuli_distractor_trianglediamonds.svg	34	no	ka	1	2156	6	6	antiphase_hc_ois.wav	3	6	1	noise_calib_stim_LEFT.wav	1	19	blb_dichoticlistening_ka-ba.mp3	ka	ba	1	left
6.6.1	win	2023-06-01	22:49:51	23:02:28	754372	60ff0ff28636a214aed9a72e	3	1	DL_test	23	DL_test	10	stimuli_distractor_trianglediamonds.svg	stimuli_distractor_trianglediamonds.svg	34	no	pa	0	2734	6	6	antiphase_hc_ois.wav	3	6	1	noise_calib_stim_LEFT.wav	1	31	blb_dichoticlistening_ta-ba.mp3	ta	ba	1	other
6.6.1	win	2023-06-01	22:49:51	23:02:28	754372	60ff0ff28636a214aed9a72e	3	1	DL_test	23	DL_test	11	stimuli_distractor_trianglediamonds.svg	stimuli_distractor_trianglediamonds.svg	34	no	ga	1	1154	6	6	antiphase_hc_ois.wav	3	6	1	noise_calib_stim_LEFT.wav	1	17	blb_dichoticlistening_ga-pa.mp3	ga	pa	1	left
6.6.1	win	2023-06-01	22:49:51	23:02:28	754372	60ff0ff28636a214aed9a72e	3	1	DL_test	23	DL_test	12	stimuli_distractor_trianglediamonds.svg	stimuli_distractor_trianglediamonds.svg	34	no	pa	1	1248	6	6	antiphase_hc_ois.wav	3	6	1	noise_calib_stim_LEFT.wav	1	29	blb_dichoticlistening_pa-pa.mp3	pa	pa	0	left
6.6.1	win	2023-06-01	22:49:51	23:02:28	754372	60ff0ff28636a214aed9a72e	3	1	DL_test	23	DL_test	13	stimuli_distractor_trianglediamonds.svg	stimuli_distractor_trianglediamonds.svg	34	no	ka	1	1201	6	6	antiphase_hc_ois.wav	3	6	1	noise_calib_stim_LEFT.wav	1	23	blb_dichoticlistening_ka-pa.mp3	ka	pa	1	left
6.6.1	win	2023-06-01	22:49:51	23:02:28	754372	60ff0ff28636a214aed9a72e	3	1	DL_test	23	DL_test	14	stimuli_distractor_trianglediamonds.svg	stimuli_distractor_trianglediamonds.svg	34	no	ka	1	1065	6	6	antiphase_hc_ois.wav	3	6	1	noise_calib_stim_LEFT.wav	1	24	blb_dichoticlistening_ka-ta.mp3	ka	ta	1	left
6.6.1	win	2023-06-01	22:49:51	23:02:28	754372	60ff0ff28636a214aed9a72e	3	1	DL_test	23	DL_test	15	stimuli_distractor_trianglediamonds.svg	stimuli_distractor_trianglediamonds.svg	34	no	ga	1	1029	6	6	antiphase_hc_ois.wav	3	6	1	noise_calib_stim_LEFT.wav	1	15	blb_dichoticlistening_ga-ga.mp3	ga	ga	0	left
6.6.1	win	2023-06-01	22:49:51	23:02:28	754372	60ff0ff28636a214aed9a72e	3	1	DL_test	23	DL_test	16	stimuli_distractor_trianglediamonds.svg	stimuli_distractor_trianglediamonds.svg	34	no	da	1	2542	6	6	antiphase_hc_ois.wav	3	6	1	noise_calib_stim_LEFT.wav	1	20	blb_dichoticlistening_ka-da.mp3	ka	da	1	right
6.6.1	win	2023-06-01	22:49:51	23:02:28	754372	60ff0ff28636a214aed9a72e	3	1	DL_test	23	DL_test	17	stimuli_distractor_trianglediamonds.svg	stimuli_distractor_trianglediamonds.svg	34	no	da	1	981	6	6	antiphase_hc_ois.wav	3	6	1	noise_calib_stim_LEFT.wav	1	8	blb_dichoticlistening_da-da.mp3	da	da	0	left
6.6.1	win	2023-06-01	22:49:51	23:02:28	754372	60ff0ff28636a214aed9a72e	3	1	DL_test	23	DL_test	18	stimuli_distractor_trianglediamonds.svg	stimuli_distractor_trianglediamonds.svg	34	no	ba	1	1724	6	6	antiphase_hc_ois.wav	3	6	1	noise_calib_stim_LEFT.wav	1	7	blb_dichoticlistening_da-ba.mp3	da	ba	1	right
6.6.1	win	2023-06-01	22:49:51	23:02:28	754372	60ff0ff28636a214aed9a72e	3	1	DL_test	23	DL_test	19	stimuli_distractor_trianglediamonds.svg	stimuli_distractor_trianglediamonds.svg	34	no	ga	1	1670	6	6	antiphase_hc_ois.wav	3	6	1	noise_calib_stim_LEFT.wav	1	21	blb_dichoticlistening_ka-ga.mp3	ka	ga	1	right
6.6.1	win	2023-06-01	22:49:51	23:02:28	754372	60ff0ff28636a214aed9a72e	3	1	DL_test	23	DL_test	20	stimuli_distractor_trianglediamonds.svg	stimuli_distractor_trianglediamonds.svg	34	no	ba	1	3822	6	6	antiphase_hc_ois.wav	3	6	1	noise_calib_stim_LEFT.wav	1	3	blb_dichoticlistening_ba-ga.mp3	ba	ga	1	left
6.6.1	win	2023-06-01	22:49:51	23:02:28	754372	60ff0ff28636a214aed9a72e	3	1	DL_test	23	DL_test	21	stimuli_distractor_trianglediamonds.svg	stimuli_distractor_trianglediamonds.svg	34	no	ba	1	1824	6	6	antiphase_hc_ois.wav	3	6	1	noise_calib_stim_LEFT.wav	1	2	blb_dichoticlistening_ba-da.mp3	ba	da	1	left
6.6.1	win	2023-06-01	22:49:51	23:02:28	754372	60ff0ff28636a214aed9a72e	3	1	DL_test	23	DL_test	22	stimuli_distractor_trianglediamonds.svg	stimuli_distractor_trianglediamonds.svg	34	no	ga	1	1421	6	6	antiphase_hc_ois.wav	3	6	1	noise_calib_stim_LEFT.wav	1	27	blb_dichoticlistening_pa-ga.mp3	pa	ga	1	right
6.6.1	win	2023-06-01	22:49:51	23:02:28	754372	60ff0ff28636a214aed9a72e	3	1	DL_test	23	DL_test	23	stimuli_distractor_trianglediamonds.svg	stimuli_distractor_trianglediamonds.svg	34	no	ka	1	1068	6	6	antiphase_hc_ois.wav	3	6	1	noise_calib_stim_LEFT.wav	1	34	blb_dichoticlistening_ta-ka.mp3	ta	ka	1	right
6.6.1	win	2023-06-01	22:49:51	23:02:28	754372	60ff0ff28636a214aed9a72e	3	1	DL_test	23	DL_test	24	stimuli_distractor_trianglediamonds.svg	stimuli_distractor_trianglediamonds.svg	34	no	ba	1	1640	6	6	antiphase_hc_ois.wav	3	6	1	noise_calib_stim_LEFT.wav	1	13	blb_dichoticlistening_ga-ba.mp3	ga	ba	1	right
6.6.1	win	2023-06-01	22:49:51	23:02:28	754372	60ff0ff28636a214aed9a72e	3	1	DL_test	23	DL_test	25	stimuli_distractor_trianglediamonds.svg	stimuli_distractor_trianglediamonds.svg	34	no	ba	1	2544	6	6	antiphase_hc_ois.wav	3	6	1	noise_calib_stim_LEFT.wav	1	6	blb_dichoticlistening_ba-ta.mp3	ba	ta	1	left
