build	computer.platform	date	time	timestamp	time_elapsed_ms	subject	group	session	blockcode	blocknum	trialcode	trialnum	stimulus_left	stimulus_right	stim_index	target_present	response	correct	latency	headphonecheck_countTestTrials	headphonecheck_index	headphonecheck_testSound	headphonecheck_correctResponse	stereocheck_countTestTrials	stereocheck_index	stereocheck_testSound	stereocheck_correctResponse	DL_index	DL_soundfile	DL_leftSound	DL_rightSound	DL_dualSound	DL_choice
6.6.1	and	2023-06-02	06:36:16	0	0	63483c4522d65d46028da7a7	2	1	headphonecheck_calibration	4	headphonecheck_calibrationIntro	1			0		calibrationButton	0	3075	0	0			0	0			1				0	
6.6.1	and	2023-06-02	06:36:16	0	0	63483c4522d65d46028da7a7	2	1	headphonecheck_testphase	5	test_collectResponse	3			0		second	1	98725	1	1	antiphase_hc_iso.wav	2	0	0			1				0	
6.6.1	and	2023-06-02	06:36:16	0	0	63483c4522d65d46028da7a7	2	1	headphonecheck_testphase	5	test_collectResponse	6			0		third	1	1233	2	6	antiphase_hc_ois.wav	3	0	0			1				0	
6.6.1	and	2023-06-02	06:36:16	0	0	63483c4522d65d46028da7a7	2	1	headphonecheck_testphase	5	test_collectResponse	9			0		first	1	664	3	3	antiphase_hc_soi.wav	1	0	0			1				0	
6.6.1	and	2023-06-02	06:36:16	0	0	63483c4522d65d46028da7a7	2	1	headphonecheck_testphase	5	test_collectResponse	12			0		second	1	395	4	5	antiphase_hc_osi.wav	2	0	0			1				0	
6.6.1	and	2023-06-02	06:36:16	0	0	63483c4522d65d46028da7a7	2	1	headphonecheck_testphase	5	test_collectResponse	15			0		third	1	573	5	2	antiphase_hc_ios.wav	3	0	0			1				0	
6.6.1	and	2023-06-02	06:36:16	0	0	63483c4522d65d46028da7a7	2	1	headphonecheck_testphase	5	test_collectResponse	18			0		first	1	152	6	4	antiphase_hc_sio.wav	1	0	0			1				0	
6.6.1	and	2023-06-02	06:36:16	0	0	63483c4522d65d46028da7a7	2	1	stereocheck_calibration	7	stereocheck_calibrationIntro	1			0		stereocheck_calibrationButton	0	5045	6	4	antiphase_hc_sio.wav	1	0	0			1				0	
6.6.1	and	2023-06-02	06:36:16	0	0	63483c4522d65d46028da7a7	2	1	stereocheck_testphase	8	stereocheck_test_collectResponse	3			0		stereocheck_right	1	1102	6	4	antiphase_hc_sio.wav	1	1	5	noise_calib_stim_RIGHT.wav	2	1				0	
6.6.1	and	2023-06-02	06:36:16	0	0	63483c4522d65d46028da7a7	2	1	stereocheck_testphase	8	stereocheck_test_collectResponse	6			0		stereocheck_left	1	906	6	4	antiphase_hc_sio.wav	1	2	3	noise_calib_stim_LEFT.wav	1	1				0	
6.6.1	and	2023-06-02	06:36:16	0	0	63483c4522d65d46028da7a7	2	1	stereocheck_testphase	8	stereocheck_test_collectResponse	9			0		stereocheck_left	1	427	6	4	antiphase_hc_sio.wav	1	3	1	noise_calib_stim_LEFT.wav	1	1				0	
6.6.1	and	2023-06-02	06:36:16	0	0	63483c4522d65d46028da7a7	2	1	stereocheck_testphase	8	stereocheck_test_collectResponse	12			0		stereocheck_right	1	402	6	4	antiphase_hc_sio.wav	1	4	4	noise_calib_stim_RIGHT.wav	2	1				0	
6.6.1	and	2023-06-02	06:36:16	0	0	63483c4522d65d46028da7a7	2	1	stereocheck_testphase	8	stereocheck_test_collectResponse	15			0		stereocheck_left	1	530	6	4	antiphase_hc_sio.wav	1	5	2	noise_calib_stim_LEFT.wav	1	1				0	
6.6.1	and	2023-06-02	06:36:16	0	0	63483c4522d65d46028da7a7	2	1	stereocheck_testphase	8	stereocheck_test_collectResponse	18			0		stereocheck_right	1	348	6	4	antiphase_hc_sio.wav	1	6	6	noise_calib_stim_RIGHT.wav	2	1				0	
6.6.1	and	2023-06-02	06:36:16	0	0	63483c4522d65d46028da7a7	2	1	DL_practice	11	DL_practice	2			0		ta	1	1759	6	4	antiphase_hc_sio.wav	1	6	6	noise_calib_stim_RIGHT.wav	2	36	blb_dichoticlistening_ta-ta.mp3	ta	ta	0	left
6.6.1	and	2023-06-02	06:36:16	0	0	63483c4522d65d46028da7a7	2	1	DL_practice	11	DL_practice	3			0		ba	1	2601	6	4	antiphase_hc_sio.wav	1	6	6	noise_calib_stim_RIGHT.wav	2	1	blb_dichoticlistening_ba-ba.mp3	ba	ba	0	left
6.6.1	and	2023-06-02	06:36:16	0	0	63483c4522d65d46028da7a7	2	1	DL_practice	11	DL_practice	4			0		da	1	1188	6	4	antiphase_hc_sio.wav	1	6	6	noise_calib_stim_RIGHT.wav	2	7	blb_dichoticlistening_da-ba.mp3	da	ba	1	left
6.6.1	and	2023-06-02	06:36:16	0	0	63483c4522d65d46028da7a7	2	1	DL_practice	11	DL_practice	5			0		ka	1	1152	6	4	antiphase_hc_sio.wav	1	6	6	noise_calib_stim_RIGHT.wav	2	23	blb_dichoticlistening_ka-pa.mp3	ka	pa	1	left
6.6.1	and	2023-06-02	06:36:16	0	0	63483c4522d65d46028da7a7	2	1	DL_practice	11	DL_practice	6			0		da	1	1069	6	4	antiphase_hc_sio.wav	1	6	6	noise_calib_stim_RIGHT.wav	2	8	blb_dichoticlistening_da-da.mp3	da	da	0	left
6.6.1	and	2023-06-02	06:36:16	0	0	63483c4522d65d46028da7a7	2	1	DL_practice	11	DL_practice	7			0		ka	0	1499	6	4	antiphase_hc_sio.wav	1	6	6	noise_calib_stim_RIGHT.wav	2	18	blb_dichoticlistening_ga-ta.mp3	ga	ta	1	other
6.6.1	and	2023-06-02	06:36:16	0	0	63483c4522d65d46028da7a7	2	1	DL_practice	11	DL_practice	8			0		pa	1	1172	6	4	antiphase_hc_sio.wav	1	6	6	noise_calib_stim_RIGHT.wav	2	29	blb_dichoticlistening_pa-pa.mp3	pa	pa	0	left
6.6.1	and	2023-06-02	06:36:16	0	0	63483c4522d65d46028da7a7	2	1	DL_practice	11	DL_practice	9			0		ka	1	843	6	4	antiphase_hc_sio.wav	1	6	6	noise_calib_stim_RIGHT.wav	2	22	blb_dichoticlistening_ka-ka.mp3	ka	ka	0	left
6.6.1	and	2023-06-02	06:36:16	0	0	63483c4522d65d46028da7a7	2	1	DL_practice	11	DL_practice	10			0		ga	1	885	6	4	antiphase_hc_sio.wav	1	6	6	noise_calib_stim_RIGHT.wav	2	15	blb_dichoticlistening_ga-ga.mp3	ga	ga	0	left
6.6.1	and	2023-06-02	06:36:16	0	0	63483c4522d65d46028da7a7	2	1	DL_test	13	DL_test	1			0		ta	1	1493	6	4	antiphase_hc_sio.wav	1	6	6	noise_calib_stim_RIGHT.wav	2	12	blb_dichoticlistening_da-ta.mp3	da	ta	1	right
6.6.1	and	2023-06-02	06:36:16	0	0	63483c4522d65d46028da7a7	2	1	DL_test	13	DL_test	2			0		ka	1	1780	6	4	antiphase_hc_sio.wav	1	6	6	noise_calib_stim_RIGHT.wav	2	34	blb_dichoticlistening_ta-ka.mp3	ta	ka	1	right
6.6.1	and	2023-06-02	06:36:16	0	0	63483c4522d65d46028da7a7	2	1	DL_test	13	DL_test	3			0		pa	0	1688	6	4	antiphase_hc_sio.wav	1	6	6	noise_calib_stim_RIGHT.wav	2	10	blb_dichoticlistening_da-ka.mp3	da	ka	1	other
6.6.1	and	2023-06-02	06:36:16	0	0	63483c4522d65d46028da7a7	2	1	DL_test	13	DL_test	4			0		da	1	965	6	4	antiphase_hc_sio.wav	1	6	6	noise_calib_stim_RIGHT.wav	2	14	blb_dichoticlistening_ga-da.mp3	ga	da	1	right
6.6.1	and	2023-06-02	06:36:16	0	0	63483c4522d65d46028da7a7	2	1	DL_test	13	DL_test	5			0		ka	1	1125	6	4	antiphase_hc_sio.wav	1	6	6	noise_calib_stim_RIGHT.wav	2	22	blb_dichoticlistening_ka-ka.mp3	ka	ka	0	left
6.6.1	and	2023-06-02	06:36:16	0	0	63483c4522d65d46028da7a7	2	1	DL_test	13	DL_test	6			0		da	1	1471	6	4	antiphase_hc_sio.wav	1	6	6	noise_calib_stim_RIGHT.wav	2	8	blb_dichoticlistening_da-da.mp3	da	da	0	left
6.6.1	and	2023-06-02	06:36:16	0	0	63483c4522d65d46028da7a7	2	1	DL_test	13	DL_test	7			0		pa	1	2057	6	4	antiphase_hc_sio.wav	1	6	6	noise_calib_stim_RIGHT.wav	2	35	blb_dichoticlistening_ta-pa.mp3	ta	pa	1	right
6.6.1	and	2023-06-02	06:36:16	0	0	63483c4522d65d46028da7a7	2	1	DL_test	13	DL_test	8			0		pa	1	1882	6	4	antiphase_hc_sio.wav	1	6	6	noise_calib_stim_RIGHT.wav	2	30	blb_dichoticlistening_pa-ta.mp3	pa	ta	1	left
6.6.1	and	2023-06-02	06:36:16	0	0	63483c4522d65d46028da7a7	2	1	DL_test	13	DL_test	9			0		ka	1	1052	6	4	antiphase_hc_sio.wav	1	6	6	noise_calib_stim_RIGHT.wav	2	21	blb_dichoticlistening_ka-ga.mp3	ka	ga	1	left
6.6.1	and	2023-06-02	06:36:16	0	0	63483c4522d65d46028da7a7	2	1	DL_test	13	DL_test	10			0		ga	1	1002	6	4	antiphase_hc_sio.wav	1	6	6	noise_calib_stim_RIGHT.wav	2	15	blb_dichoticlistening_ga-ga.mp3	ga	ga	0	left
6.6.1	and	2023-06-02	06:36:16	0	0	63483c4522d65d46028da7a7	2	1	DL_test	13	DL_test	11			0		ka	1	1495	6	4	antiphase_hc_sio.wav	1	6	6	noise_calib_stim_RIGHT.wav	2	19	blb_dichoticlistening_ka-ba.mp3	ka	ba	1	left
6.6.1	and	2023-06-02	06:36:16	0	0	63483c4522d65d46028da7a7	2	1	DL_test	13	DL_test	12			0		pa	1	1361	6	4	antiphase_hc_sio.wav	1	6	6	noise_calib_stim_RIGHT.wav	2	29	blb_dichoticlistening_pa-pa.mp3	pa	pa	0	left
6.6.1	and	2023-06-02	06:36:16	0	0	63483c4522d65d46028da7a7	2	1	DL_test	13	DL_test	13			0		da	1	1096	6	4	antiphase_hc_sio.wav	1	6	6	noise_calib_stim_RIGHT.wav	2	9	blb_dichoticlistening_da-ga.mp3	da	ga	1	left
6.6.1	and	2023-06-02	06:36:16	0	0	63483c4522d65d46028da7a7	2	1	DL_test	13	DL_test	14			0		pa	1	1504	6	4	antiphase_hc_sio.wav	1	6	6	noise_calib_stim_RIGHT.wav	2	26	blb_dichoticlistening_pa-da.mp3	pa	da	1	left
6.6.1	and	2023-06-02	06:36:16	0	0	63483c4522d65d46028da7a7	2	1	DL_test	13	DL_test	15			0		pa	1	1155	6	4	antiphase_hc_sio.wav	1	6	6	noise_calib_stim_RIGHT.wav	2	5	blb_dichoticlistening_ba-pa.mp3	ba	pa	1	right
6.6.1	and	2023-06-02	06:36:16	0	0	63483c4522d65d46028da7a7	2	1	DL_test	13	DL_test	16			0		ta	1	1195	6	4	antiphase_hc_sio.wav	1	6	6	noise_calib_stim_RIGHT.wav	2	32	blb_dichoticlistening_ta-da.mp3	ta	da	1	left
6.6.1	and	2023-06-02	06:36:16	0	0	63483c4522d65d46028da7a7	2	1	DL_test	13	DL_test	17			0		da	0	2684	6	4	antiphase_hc_sio.wav	1	6	6	noise_calib_stim_RIGHT.wav	2	13	blb_dichoticlistening_ga-ba.mp3	ga	ba	1	other
6.6.1	and	2023-06-02	06:36:16	0	0	63483c4522d65d46028da7a7	2	1	DL_test	13	DL_test	18			0		pa	1	1462	6	4	antiphase_hc_sio.wav	1	6	6	noise_calib_stim_RIGHT.wav	2	25	blb_dichoticlistening_pa-ba.mp3	pa	ba	1	left
6.6.1	and	2023-06-02	06:36:16	0	0	63483c4522d65d46028da7a7	2	1	DL_test	13	DL_test	19			0		ka	1	1275	6	4	antiphase_hc_sio.wav	1	6	6	noise_calib_stim_RIGHT.wav	2	16	blb_dichoticlistening_ga-ka.mp3	ga	ka	1	right
6.6.1	and	2023-06-02	06:36:16	0	0	63483c4522d65d46028da7a7	2	1	DL_test	13	DL_test	20			0		ba	1	1815	6	4	antiphase_hc_sio.wav	1	6	6	noise_calib_stim_RIGHT.wav	2	3	blb_dichoticlistening_ba-ga.mp3	ba	ga	1	left
6.6.1	and	2023-06-02	06:36:16	0	0	63483c4522d65d46028da7a7	2	1	DL_test	13	DL_test	21			0		ba	1	1237	6	4	antiphase_hc_sio.wav	1	6	6	noise_calib_stim_RIGHT.wav	2	1	blb_dichoticlistening_ba-ba.mp3	ba	ba	0	left
6.6.1	and	2023-06-02	06:36:16	0	0	63483c4522d65d46028da7a7	2	1	DL_test	13	DL_test	22			0		da	1	1161	6	4	antiphase_hc_sio.wav	1	6	6	noise_calib_stim_RIGHT.wav	2	7	blb_dichoticlistening_da-ba.mp3	da	ba	1	left
6.6.1	and	2023-06-02	06:36:16	0	0	63483c4522d65d46028da7a7	2	1	DL_test	13	DL_test	23			0		pa	1	1572	6	4	antiphase_hc_sio.wav	1	6	6	noise_calib_stim_RIGHT.wav	2	17	blb_dichoticlistening_ga-pa.mp3	ga	pa	1	right
6.6.1	and	2023-06-02	06:36:16	0	0	63483c4522d65d46028da7a7	2	1	DL_test	13	DL_test	24			0		pa	0	1273	6	4	antiphase_hc_sio.wav	1	6	6	noise_calib_stim_RIGHT.wav	2	6	blb_dichoticlistening_ba-ta.mp3	ba	ta	1	other
6.6.1	and	2023-06-02	06:36:16	0	0	63483c4522d65d46028da7a7	2	1	DL_test	13	DL_test	25			0		ka	0	1115	6	4	antiphase_hc_sio.wav	1	6	6	noise_calib_stim_RIGHT.wav	2	33	blb_dichoticlistening_ta-ga.mp3	ta	ga	1	other
6.6.1	and	2023-06-02	06:36:16	0	0	63483c4522d65d46028da7a7	2	1	DL_test	13	DL_test	26			0		pa	1	1081	6	4	antiphase_hc_sio.wav	1	6	6	noise_calib_stim_RIGHT.wav	2	27	blb_dichoticlistening_pa-ga.mp3	pa	ga	1	left
6.6.1	and	2023-06-02	06:36:16	0	0	63483c4522d65d46028da7a7	2	1	DL_test	13	DL_test	27			0		pa	0	1738	6	4	antiphase_hc_sio.wav	1	6	6	noise_calib_stim_RIGHT.wav	2	4	blb_dichoticlistening_ba-ka.mp3	ba	ka	1	other
6.6.1	and	2023-06-02	06:36:16	0	0	63483c4522d65d46028da7a7	2	1	DL_test	13	DL_test	28			0		pa	1	1246	6	4	antiphase_hc_sio.wav	1	6	6	noise_calib_stim_RIGHT.wav	2	23	blb_dichoticlistening_ka-pa.mp3	ka	pa	1	right
6.6.1	and	2023-06-02	06:36:16	0	0	63483c4522d65d46028da7a7	2	1	DL_test	13	DL_test	29			0		pa	1	1108	6	4	antiphase_hc_sio.wav	1	6	6	noise_calib_stim_RIGHT.wav	2	28	blb_dichoticlistening_pa-ka.mp3	pa	ka	1	left
6.6.1	and	2023-06-02	06:36:16	0	0	63483c4522d65d46028da7a7	2	1	DL_test	13	DL_test	30			0		ta	1	1186	6	4	antiphase_hc_sio.wav	1	6	6	noise_calib_stim_RIGHT.wav	2	36	blb_dichoticlistening_ta-ta.mp3	ta	ta	0	left
6.6.1	and	2023-06-02	06:36:16	0	0	63483c4522d65d46028da7a7	2	1	DL_test	13	DL_test	31			0		ba	1	1727	6	4	antiphase_hc_sio.wav	1	6	6	noise_calib_stim_RIGHT.wav	2	2	blb_dichoticlistening_ba-da.mp3	ba	da	1	left
6.6.1	and	2023-06-02	06:36:16	0	0	63483c4522d65d46028da7a7	2	1	DL_test	13	DL_test	32			0		pa	0	2374	6	4	antiphase_hc_sio.wav	1	6	6	noise_calib_stim_RIGHT.wav	2	31	blb_dichoticlistening_ta-ba.mp3	ta	ba	1	other
6.6.1	and	2023-06-02	06:36:16	0	0	63483c4522d65d46028da7a7	2	1	DL_test	13	DL_test	33			0		pa	1	887	6	4	antiphase_hc_sio.wav	1	6	6	noise_calib_stim_RIGHT.wav	2	11	blb_dichoticlistening_da-pa.mp3	da	pa	1	right
6.6.1	and	2023-06-02	06:36:16	0	0	63483c4522d65d46028da7a7	2	1	DL_test	13	DL_test	34			0		ka	1	1022	6	4	antiphase_hc_sio.wav	1	6	6	noise_calib_stim_RIGHT.wav	2	20	blb_dichoticlistening_ka-da.mp3	ka	da	1	left
6.6.1	and	2023-06-02	06:36:16	0	0	63483c4522d65d46028da7a7	2	1	DL_test	13	DL_test	35			0		ta	1	1673	6	4	antiphase_hc_sio.wav	1	6	6	noise_calib_stim_RIGHT.wav	2	18	blb_dichoticlistening_ga-ta.mp3	ga	ta	1	right
6.6.1	and	2023-06-02	06:36:16	0	0	63483c4522d65d46028da7a7	2	1	DL_test	13	DL_test	36			0		ka	1	1400	6	4	antiphase_hc_sio.wav	1	6	6	noise_calib_stim_RIGHT.wav	2	24	blb_dichoticlistening_ka-ta.mp3	ka	ta	1	left
6.6.1	and	2023-06-02	06:36:16	0	0	63483c4522d65d46028da7a7	2	1	DL_test	14	DL_test	1			0		pa	1	1561	6	4	antiphase_hc_sio.wav	1	6	6	noise_calib_stim_RIGHT.wav	2	23	blb_dichoticlistening_ka-pa.mp3	ka	pa	1	right
6.6.1	and	2023-06-02	06:36:16	0	0	63483c4522d65d46028da7a7	2	1	DL_test	14	DL_test	2			0		ta	1	1185	6	4	antiphase_hc_sio.wav	1	6	6	noise_calib_stim_RIGHT.wav	2	32	blb_dichoticlistening_ta-da.mp3	ta	da	1	left
6.6.1	and	2023-06-02	06:36:16	0	0	63483c4522d65d46028da7a7	2	1	DL_test	14	DL_test	3			0		ta	1	1913	6	4	antiphase_hc_sio.wav	1	6	6	noise_calib_stim_RIGHT.wav	2	18	blb_dichoticlistening_ga-ta.mp3	ga	ta	1	right
6.6.1	and	2023-06-02	06:36:16	0	0	63483c4522d65d46028da7a7	2	1	DL_test	14	DL_test	4			0		pa	1	1752	6	4	antiphase_hc_sio.wav	1	6	6	noise_calib_stim_RIGHT.wav	2	26	blb_dichoticlistening_pa-da.mp3	pa	da	1	left
6.6.1	and	2023-06-02	06:36:16	0	0	63483c4522d65d46028da7a7	2	1	DL_test	14	DL_test	5			0		ba	1	1757	6	4	antiphase_hc_sio.wav	1	6	6	noise_calib_stim_RIGHT.wav	2	1	blb_dichoticlistening_ba-ba.mp3	ba	ba	0	left
6.6.1	and	2023-06-02	06:36:16	0	0	63483c4522d65d46028da7a7	2	1	DL_test	14	DL_test	6			0		ka	1	1267	6	4	antiphase_hc_sio.wav	1	6	6	noise_calib_stim_RIGHT.wav	2	22	blb_dichoticlistening_ka-ka.mp3	ka	ka	0	left
6.6.1	and	2023-06-02	06:36:16	0	0	63483c4522d65d46028da7a7	2	1	DL_test	14	DL_test	7			0		pa	0	2752	6	4	antiphase_hc_sio.wav	1	6	6	noise_calib_stim_RIGHT.wav	2	6	blb_dichoticlistening_ba-ta.mp3	ba	ta	1	other
6.6.1	and	2023-06-02	06:36:16	0	0	63483c4522d65d46028da7a7	2	1	DL_test	14	DL_test	8			0		da	1	861	6	4	antiphase_hc_sio.wav	1	6	6	noise_calib_stim_RIGHT.wav	2	8	blb_dichoticlistening_da-da.mp3	da	da	0	left
6.6.1	and	2023-06-02	06:36:16	0	0	63483c4522d65d46028da7a7	2	1	DL_test	14	DL_test	9			0		ga	1	1130	6	4	antiphase_hc_sio.wav	1	6	6	noise_calib_stim_RIGHT.wav	2	14	blb_dichoticlistening_ga-da.mp3	ga	da	1	left
6.6.1	and	2023-06-02	06:36:16	0	0	63483c4522d65d46028da7a7	2	1	DL_test	14	DL_test	10			0		ka	0	1069	6	4	antiphase_hc_sio.wav	1	6	6	noise_calib_stim_RIGHT.wav	2	33	blb_dichoticlistening_ta-ga.mp3	ta	ga	1	other
6.6.1	and	2023-06-02	06:36:16	0	0	63483c4522d65d46028da7a7	2	1	DL_test	14	DL_test	11			0		ta	1	1725	6	4	antiphase_hc_sio.wav	1	6	6	noise_calib_stim_RIGHT.wav	2	34	blb_dichoticlistening_ta-ka.mp3	ta	ka	1	left
6.6.1	and	2023-06-02	06:36:16	0	0	63483c4522d65d46028da7a7	2	1	DL_test	14	DL_test	12			0		ka	1	1088	6	4	antiphase_hc_sio.wav	1	6	6	noise_calib_stim_RIGHT.wav	2	21	blb_dichoticlistening_ka-ga.mp3	ka	ga	1	left
6.6.1	and	2023-06-02	06:36:16	0	0	63483c4522d65d46028da7a7	2	1	DL_test	14	DL_test	13			0		pa	1	1603	6	4	antiphase_hc_sio.wav	1	6	6	noise_calib_stim_RIGHT.wav	2	35	blb_dichoticlistening_ta-pa.mp3	ta	pa	1	right
6.6.1	and	2023-06-02	06:36:16	0	0	63483c4522d65d46028da7a7	2	1	DL_test	14	DL_test	14			0		pa	1	1417	6	4	antiphase_hc_sio.wav	1	6	6	noise_calib_stim_RIGHT.wav	2	27	blb_dichoticlistening_pa-ga.mp3	pa	ga	1	left
6.6.1	and	2023-06-02	06:36:16	0	0	63483c4522d65d46028da7a7	2	1	DL_test	14	DL_test	15			0		ka	1	1882	6	4	antiphase_hc_sio.wav	1	6	6	noise_calib_stim_RIGHT.wav	2	16	blb_dichoticlistening_ga-ka.mp3	ga	ka	1	right
6.6.1	and	2023-06-02	06:36:16	0	0	63483c4522d65d46028da7a7	2	1	DL_test	14	DL_test	16			0		ka	1	2887	6	4	antiphase_hc_sio.wav	1	6	6	noise_calib_stim_RIGHT.wav	2	19	blb_dichoticlistening_ka-ba.mp3	ka	ba	1	left
6.6.1	and	2023-06-02	06:36:16	0	0	63483c4522d65d46028da7a7	2	1	DL_test	14	DL_test	17			0		ka	1	659	6	4	antiphase_hc_sio.wav	1	6	6	noise_calib_stim_RIGHT.wav	2	20	blb_dichoticlistening_ka-da.mp3	ka	da	1	left
6.6.1	and	2023-06-02	06:36:16	0	0	63483c4522d65d46028da7a7	2	1	DL_test	14	DL_test	18			0		ta	1	1369	6	4	antiphase_hc_sio.wav	1	6	6	noise_calib_stim_RIGHT.wav	2	12	blb_dichoticlistening_da-ta.mp3	da	ta	1	right
6.6.1	and	2023-06-02	06:36:16	0	0	63483c4522d65d46028da7a7	2	1	DL_test	14	DL_test	19			0		pa	1	1190	6	4	antiphase_hc_sio.wav	1	6	6	noise_calib_stim_RIGHT.wav	2	29	blb_dichoticlistening_pa-pa.mp3	pa	pa	0	left
6.6.1	and	2023-06-02	06:36:16	0	0	63483c4522d65d46028da7a7	2	1	DL_test	14	DL_test	20			0		pa	1	1157	6	4	antiphase_hc_sio.wav	1	6	6	noise_calib_stim_RIGHT.wav	2	11	blb_dichoticlistening_da-pa.mp3	da	pa	1	right
6.6.1	and	2023-06-02	06:36:16	0	0	63483c4522d65d46028da7a7	2	1	DL_test	14	DL_test	21			0		ba	1	1344	6	4	antiphase_hc_sio.wav	1	6	6	noise_calib_stim_RIGHT.wav	2	7	blb_dichoticlistening_da-ba.mp3	da	ba	1	right
6.6.1	and	2023-06-02	06:36:16	0	0	63483c4522d65d46028da7a7	2	1	DL_test	14	DL_test	22			0		pa	1	1554	6	4	antiphase_hc_sio.wav	1	6	6	noise_calib_stim_RIGHT.wav	2	5	blb_dichoticlistening_ba-pa.mp3	ba	pa	1	right
6.6.1	and	2023-06-02	06:36:16	0	0	63483c4522d65d46028da7a7	2	1	DL_test	14	DL_test	23			0		ga	1	1341	6	4	antiphase_hc_sio.wav	1	6	6	noise_calib_stim_RIGHT.wav	2	9	blb_dichoticlistening_da-ga.mp3	da	ga	1	right
6.6.1	and	2023-06-02	06:36:16	0	0	63483c4522d65d46028da7a7	2	1	DL_test	14	DL_test	24			0		pa	0	1199	6	4	antiphase_hc_sio.wav	1	6	6	noise_calib_stim_RIGHT.wav	2	10	blb_dichoticlistening_da-ka.mp3	da	ka	1	other
6.6.1	and	2023-06-02	06:36:16	0	0	63483c4522d65d46028da7a7	2	1	DL_test	14	DL_test	25			0		pa	1	756	6	4	antiphase_hc_sio.wav	1	6	6	noise_calib_stim_RIGHT.wav	2	28	blb_dichoticlistening_pa-ka.mp3	pa	ka	1	left
6.6.1	and	2023-06-02	06:36:16	0	0	63483c4522d65d46028da7a7	2	1	DL_test	14	DL_test	26			0		ba	1	1234	6	4	antiphase_hc_sio.wav	1	6	6	noise_calib_stim_RIGHT.wav	2	2	blb_dichoticlistening_ba-da.mp3	ba	da	1	left
6.6.1	and	2023-06-02	06:36:16	0	0	63483c4522d65d46028da7a7	2	1	DL_test	14	DL_test	27			0		ta	1	1258	6	4	antiphase_hc_sio.wav	1	6	6	noise_calib_stim_RIGHT.wav	2	36	blb_dichoticlistening_ta-ta.mp3	ta	ta	0	left
6.6.1	and	2023-06-02	06:36:16	0	0	63483c4522d65d46028da7a7	2	1	DL_test	14	DL_test	28			0		ka	1	1257	6	4	antiphase_hc_sio.wav	1	6	6	noise_calib_stim_RIGHT.wav	2	24	blb_dichoticlistening_ka-ta.mp3	ka	ta	1	left
6.6.1	and	2023-06-02	06:36:16	0	0	63483c4522d65d46028da7a7	2	1	DL_test	14	DL_test	29			0		pa	1	1113	6	4	antiphase_hc_sio.wav	1	6	6	noise_calib_stim_RIGHT.wav	2	25	blb_dichoticlistening_pa-ba.mp3	pa	ba	1	left
6.6.1	and	2023-06-02	06:36:16	0	0	63483c4522d65d46028da7a7	2	1	DL_test	14	DL_test	30			0		pa	1	1148	6	4	antiphase_hc_sio.wav	1	6	6	noise_calib_stim_RIGHT.wav	2	30	blb_dichoticlistening_pa-ta.mp3	pa	ta	1	left
6.6.1	and	2023-06-02	06:36:16	0	0	63483c4522d65d46028da7a7	2	1	DL_test	14	DL_test	31			0		ka	1	1440	6	4	antiphase_hc_sio.wav	1	6	6	noise_calib_stim_RIGHT.wav	2	4	blb_dichoticlistening_ba-ka.mp3	ba	ka	1	right
6.6.1	and	2023-06-02	06:36:16	0	0	63483c4522d65d46028da7a7	2	1	DL_test	14	DL_test	32			0		ga	1	937	6	4	antiphase_hc_sio.wav	1	6	6	noise_calib_stim_RIGHT.wav	2	15	blb_dichoticlistening_ga-ga.mp3	ga	ga	0	left
6.6.1	and	2023-06-02	06:36:16	0	0	63483c4522d65d46028da7a7	2	1	DL_test	14	DL_test	33			0		pa	1	1328	6	4	antiphase_hc_sio.wav	1	6	6	noise_calib_stim_RIGHT.wav	2	17	blb_dichoticlistening_ga-pa.mp3	ga	pa	1	right
6.6.1	and	2023-06-02	06:36:16	0	0	63483c4522d65d46028da7a7	2	1	DL_test	14	DL_test	34			0		ga	1	1152	6	4	antiphase_hc_sio.wav	1	6	6	noise_calib_stim_RIGHT.wav	2	13	blb_dichoticlistening_ga-ba.mp3	ga	ba	1	left
6.6.1	and	2023-06-02	06:36:16	0	0	63483c4522d65d46028da7a7	2	1	DL_test	14	DL_test	35			0		ba	1	1541	6	4	antiphase_hc_sio.wav	1	6	6	noise_calib_stim_RIGHT.wav	2	3	blb_dichoticlistening_ba-ga.mp3	ba	ga	1	left
6.6.1	and	2023-06-02	06:36:16	0	0	63483c4522d65d46028da7a7	2	1	DL_test	14	DL_test	36			0		pa	0	1224	6	4	antiphase_hc_sio.wav	1	6	6	noise_calib_stim_RIGHT.wav	2	31	blb_dichoticlistening_ta-ba.mp3	ta	ba	1	other
6.6.1	and	2023-06-02	06:36:16	0	0	63483c4522d65d46028da7a7	2	1	DL_test	15	DL_test	1			0		ka	1	1192	6	4	antiphase_hc_sio.wav	1	6	6	noise_calib_stim_RIGHT.wav	2	24	blb_dichoticlistening_ka-ta.mp3	ka	ta	1	left
6.6.1	and	2023-06-02	06:36:16	0	0	63483c4522d65d46028da7a7	2	1	DL_test	15	DL_test	2			0		ba	1	1257	6	4	antiphase_hc_sio.wav	1	6	6	noise_calib_stim_RIGHT.wav	2	2	blb_dichoticlistening_ba-da.mp3	ba	da	1	left
6.6.1	and	2023-06-02	06:36:16	0	0	63483c4522d65d46028da7a7	2	1	DL_test	15	DL_test	3			0		ga	1	1132	6	4	antiphase_hc_sio.wav	1	6	6	noise_calib_stim_RIGHT.wav	2	14	blb_dichoticlistening_ga-da.mp3	ga	da	1	left
6.6.1	and	2023-06-02	06:36:16	0	0	63483c4522d65d46028da7a7	2	1	DL_test	15	DL_test	4			0		pa	1	1491	6	4	antiphase_hc_sio.wav	1	6	6	noise_calib_stim_RIGHT.wav	2	25	blb_dichoticlistening_pa-ba.mp3	pa	ba	1	left
6.6.1	and	2023-06-02	06:36:16	0	0	63483c4522d65d46028da7a7	2	1	DL_test	15	DL_test	5			0		pa	1	1857	6	4	antiphase_hc_sio.wav	1	6	6	noise_calib_stim_RIGHT.wav	2	17	blb_dichoticlistening_ga-pa.mp3	ga	pa	1	right
6.6.1	and	2023-06-02	06:36:16	0	0	63483c4522d65d46028da7a7	2	1	DL_test	15	DL_test	6			0		pa	1	1496	6	4	antiphase_hc_sio.wav	1	6	6	noise_calib_stim_RIGHT.wav	2	27	blb_dichoticlistening_pa-ga.mp3	pa	ga	1	left
6.6.1	and	2023-06-02	06:36:16	0	0	63483c4522d65d46028da7a7	2	1	DL_test	15	DL_test	7			0		ba	1	1372	6	4	antiphase_hc_sio.wav	1	6	6	noise_calib_stim_RIGHT.wav	2	7	blb_dichoticlistening_da-ba.mp3	da	ba	1	right
6.6.1	and	2023-06-02	06:36:16	0	0	63483c4522d65d46028da7a7	2	1	DL_test	15	DL_test	8			0		pa	1	1266	6	4	antiphase_hc_sio.wav	1	6	6	noise_calib_stim_RIGHT.wav	2	29	blb_dichoticlistening_pa-pa.mp3	pa	pa	0	left
6.6.1	and	2023-06-02	06:36:16	0	0	63483c4522d65d46028da7a7	2	1	DL_test	15	DL_test	9			0		ka	1	1123	6	4	antiphase_hc_sio.wav	1	6	6	noise_calib_stim_RIGHT.wav	2	20	blb_dichoticlistening_ka-da.mp3	ka	da	1	left
6.6.1	and	2023-06-02	06:36:16	0	0	63483c4522d65d46028da7a7	2	1	DL_test	15	DL_test	10			0		ka	1	842	6	4	antiphase_hc_sio.wav	1	6	6	noise_calib_stim_RIGHT.wav	2	22	blb_dichoticlistening_ka-ka.mp3	ka	ka	0	left
6.6.1	and	2023-06-02	06:36:16	0	0	63483c4522d65d46028da7a7	2	1	DL_test	15	DL_test	11			0		pa	1	1074	6	4	antiphase_hc_sio.wav	1	6	6	noise_calib_stim_RIGHT.wav	2	23	blb_dichoticlistening_ka-pa.mp3	ka	pa	1	right
6.6.1	and	2023-06-02	06:36:16	0	0	63483c4522d65d46028da7a7	2	1	DL_test	15	DL_test	12			0		ka	1	1719	6	4	antiphase_hc_sio.wav	1	6	6	noise_calib_stim_RIGHT.wav	2	4	blb_dichoticlistening_ba-ka.mp3	ba	ka	1	right
6.6.1	and	2023-06-02	06:36:16	0	0	63483c4522d65d46028da7a7	2	1	DL_test	15	DL_test	13			0		pa	0	1116	6	4	antiphase_hc_sio.wav	1	6	6	noise_calib_stim_RIGHT.wav	2	31	blb_dichoticlistening_ta-ba.mp3	ta	ba	1	other
6.6.1	and	2023-06-02	06:36:16	0	0	63483c4522d65d46028da7a7	2	1	DL_test	15	DL_test	14			0		pa	1	976	6	4	antiphase_hc_sio.wav	1	6	6	noise_calib_stim_RIGHT.wav	2	35	blb_dichoticlistening_ta-pa.mp3	ta	pa	1	right
6.6.1	and	2023-06-02	06:36:16	0	0	63483c4522d65d46028da7a7	2	1	DL_test	15	DL_test	15			0		ta	1	1161	6	4	antiphase_hc_sio.wav	1	6	6	noise_calib_stim_RIGHT.wav	2	36	blb_dichoticlistening_ta-ta.mp3	ta	ta	0	left
6.6.1	and	2023-06-02	06:36:16	0	0	63483c4522d65d46028da7a7	2	1	DL_test	15	DL_test	16			0		ba	1	2012	6	4	antiphase_hc_sio.wav	1	6	6	noise_calib_stim_RIGHT.wav	2	13	blb_dichoticlistening_ga-ba.mp3	ga	ba	1	right
6.6.1	and	2023-06-02	06:36:16	0	0	63483c4522d65d46028da7a7	2	1	DL_test	15	DL_test	17			0		pa	1	1709	6	4	antiphase_hc_sio.wav	1	6	6	noise_calib_stim_RIGHT.wav	2	11	blb_dichoticlistening_da-pa.mp3	da	pa	1	right
6.6.1	and	2023-06-02	06:36:16	0	0	63483c4522d65d46028da7a7	2	1	DL_test	15	DL_test	18			0		ba	1	1573	6	4	antiphase_hc_sio.wav	1	6	6	noise_calib_stim_RIGHT.wav	2	3	blb_dichoticlistening_ba-ga.mp3	ba	ga	1	left
6.6.1	and	2023-06-02	06:36:16	0	0	63483c4522d65d46028da7a7	2	1	DL_test	15	DL_test	19			0		ba	1	872	6	4	antiphase_hc_sio.wav	1	6	6	noise_calib_stim_RIGHT.wav	2	1	blb_dichoticlistening_ba-ba.mp3	ba	ba	0	left
6.6.1	and	2023-06-02	06:36:16	0	0	63483c4522d65d46028da7a7	2	1	DL_test	15	DL_test	20			0		pa	1	1776	6	4	antiphase_hc_sio.wav	1	6	6	noise_calib_stim_RIGHT.wav	2	26	blb_dichoticlistening_pa-da.mp3	pa	da	1	left
6.6.1	and	2023-06-02	06:36:16	0	0	63483c4522d65d46028da7a7	2	1	DL_test	15	DL_test	21			0		pa	0	765	6	4	antiphase_hc_sio.wav	1	6	6	noise_calib_stim_RIGHT.wav	2	10	blb_dichoticlistening_da-ka.mp3	da	ka	1	other
6.6.1	and	2023-06-02	06:36:16	0	0	63483c4522d65d46028da7a7	2	1	DL_test	15	DL_test	22			0		ta	1	1178	6	4	antiphase_hc_sio.wav	1	6	6	noise_calib_stim_RIGHT.wav	2	6	blb_dichoticlistening_ba-ta.mp3	ba	ta	1	right
6.6.1	and	2023-06-02	06:36:16	0	0	63483c4522d65d46028da7a7	2	1	DL_test	15	DL_test	23			0		ta	1	1701	6	4	antiphase_hc_sio.wav	1	6	6	noise_calib_stim_RIGHT.wav	2	32	blb_dichoticlistening_ta-da.mp3	ta	da	1	left
6.6.1	and	2023-06-02	06:36:16	0	0	63483c4522d65d46028da7a7	2	1	DL_test	15	DL_test	24			0		ka	1	1100	6	4	antiphase_hc_sio.wav	1	6	6	noise_calib_stim_RIGHT.wav	2	16	blb_dichoticlistening_ga-ka.mp3	ga	ka	1	right
6.6.1	and	2023-06-02	06:36:16	0	0	63483c4522d65d46028da7a7	2	1	DL_test	15	DL_test	25			0		pa	1	1978	6	4	antiphase_hc_sio.wav	1	6	6	noise_calib_stim_RIGHT.wav	2	30	blb_dichoticlistening_pa-ta.mp3	pa	ta	1	left
6.6.1	and	2023-06-02	06:36:16	0	0	63483c4522d65d46028da7a7	2	1	DL_test	15	DL_test	26			0		ka	1	1131	6	4	antiphase_hc_sio.wav	1	6	6	noise_calib_stim_RIGHT.wav	2	34	blb_dichoticlistening_ta-ka.mp3	ta	ka	1	right
6.6.1	and	2023-06-02	06:36:16	0	0	63483c4522d65d46028da7a7	2	1	DL_test	15	DL_test	27			0		ga	1	965	6	4	antiphase_hc_sio.wav	1	6	6	noise_calib_stim_RIGHT.wav	2	15	blb_dichoticlistening_ga-ga.mp3	ga	ga	0	left
6.6.1	and	2023-06-02	06:36:16	0	0	63483c4522d65d46028da7a7	2	1	DL_test	15	DL_test	28			0		da	1	932	6	4	antiphase_hc_sio.wav	1	6	6	noise_calib_stim_RIGHT.wav	2	8	blb_dichoticlistening_da-da.mp3	da	da	0	left
6.6.1	and	2023-06-02	06:36:16	0	0	63483c4522d65d46028da7a7	2	1	DL_test	15	DL_test	29			0		ga	1	1216	6	4	antiphase_hc_sio.wav	1	6	6	noise_calib_stim_RIGHT.wav	2	9	blb_dichoticlistening_da-ga.mp3	da	ga	1	right
6.6.1	and	2023-06-02	06:36:16	0	0	63483c4522d65d46028da7a7	2	1	DL_test	15	DL_test	30			0		pa	1	1300	6	4	antiphase_hc_sio.wav	1	6	6	noise_calib_stim_RIGHT.wav	2	28	blb_dichoticlistening_pa-ka.mp3	pa	ka	1	left
6.6.1	and	2023-06-02	06:36:16	0	0	63483c4522d65d46028da7a7	2	1	DL_test	15	DL_test	31			0		ta	1	1016	6	4	antiphase_hc_sio.wav	1	6	6	noise_calib_stim_RIGHT.wav	2	18	blb_dichoticlistening_ga-ta.mp3	ga	ta	1	right
6.6.1	and	2023-06-02	06:36:16	0	0	63483c4522d65d46028da7a7	2	1	DL_test	15	DL_test	32			0		pa	1	1053	6	4	antiphase_hc_sio.wav	1	6	6	noise_calib_stim_RIGHT.wav	2	5	blb_dichoticlistening_ba-pa.mp3	ba	pa	1	right
6.6.1	and	2023-06-02	06:36:16	0	0	63483c4522d65d46028da7a7	2	1	DL_test	15	DL_test	33			0		ka	1	909	6	4	antiphase_hc_sio.wav	1	6	6	noise_calib_stim_RIGHT.wav	2	21	blb_dichoticlistening_ka-ga.mp3	ka	ga	1	left
6.6.1	and	2023-06-02	06:36:16	0	0	63483c4522d65d46028da7a7	2	1	DL_test	15	DL_test	34			0		ta	1	1701	6	4	antiphase_hc_sio.wav	1	6	6	noise_calib_stim_RIGHT.wav	2	12	blb_dichoticlistening_da-ta.mp3	da	ta	1	right
6.6.1	and	2023-06-02	06:36:16	0	0	63483c4522d65d46028da7a7	2	1	DL_test	15	DL_test	35			0		ka	0	1266	6	4	antiphase_hc_sio.wav	1	6	6	noise_calib_stim_RIGHT.wav	2	33	blb_dichoticlistening_ta-ga.mp3	ta	ga	1	other
6.6.1	and	2023-06-02	06:36:16	0	0	63483c4522d65d46028da7a7	2	1	DL_test	15	DL_test	36			0		pa	0	1377	6	4	antiphase_hc_sio.wav	1	6	6	noise_calib_stim_RIGHT.wav	2	19	blb_dichoticlistening_ka-ba.mp3	ka	ba	1	other
6.6.1	and	2023-06-02	06:36:16	0	0	63483c4522d65d46028da7a7	2	1	DL_test	16	DL_test	1			0		da	1	1407	6	4	antiphase_hc_sio.wav	1	6	6	noise_calib_stim_RIGHT.wav	2	8	blb_dichoticlistening_da-da.mp3	da	da	0	left
6.6.1	and	2023-06-02	06:36:16	0	0	63483c4522d65d46028da7a7	2	1	DL_test	16	DL_test	2			0		ka	1	924	6	4	antiphase_hc_sio.wav	1	6	6	noise_calib_stim_RIGHT.wav	2	21	blb_dichoticlistening_ka-ga.mp3	ka	ga	1	left
6.6.1	and	2023-06-02	06:36:16	0	0	63483c4522d65d46028da7a7	2	1	DL_test	16	DL_test	3			0		pa	1	739	6	4	antiphase_hc_sio.wav	1	6	6	noise_calib_stim_RIGHT.wav	2	27	blb_dichoticlistening_pa-ga.mp3	pa	ga	1	left
6.6.1	and	2023-06-02	06:36:16	0	0	63483c4522d65d46028da7a7	2	1	DL_test	16	DL_test	4			0		ba	1	1163	6	4	antiphase_hc_sio.wav	1	6	6	noise_calib_stim_RIGHT.wav	2	2	blb_dichoticlistening_ba-da.mp3	ba	da	1	left
6.6.1	and	2023-06-02	06:36:16	0	0	63483c4522d65d46028da7a7	2	1	DL_test	16	DL_test	5			0		pa	1	973	6	4	antiphase_hc_sio.wav	1	6	6	noise_calib_stim_RIGHT.wav	2	29	blb_dichoticlistening_pa-pa.mp3	pa	pa	0	left
6.6.1	and	2023-06-02	06:36:16	0	0	63483c4522d65d46028da7a7	2	1	DL_test	16	DL_test	6			0		ga	1	936	6	4	antiphase_hc_sio.wav	1	6	6	noise_calib_stim_RIGHT.wav	2	13	blb_dichoticlistening_ga-ba.mp3	ga	ba	1	left
6.6.1	and	2023-06-02	06:36:16	0	0	63483c4522d65d46028da7a7	2	1	DL_test	16	DL_test	7			0		pa	0	1016	6	4	antiphase_hc_sio.wav	1	6	6	noise_calib_stim_RIGHT.wav	2	6	blb_dichoticlistening_ba-ta.mp3	ba	ta	1	other
6.6.1	and	2023-06-02	06:36:16	0	0	63483c4522d65d46028da7a7	2	1	DL_test	16	DL_test	8			0		ka	1	861	6	4	antiphase_hc_sio.wav	1	6	6	noise_calib_stim_RIGHT.wav	2	24	blb_dichoticlistening_ka-ta.mp3	ka	ta	1	left
6.6.1	and	2023-06-02	06:36:16	0	0	63483c4522d65d46028da7a7	2	1	DL_test	16	DL_test	9			0		ba	1	1192	6	4	antiphase_hc_sio.wav	1	6	6	noise_calib_stim_RIGHT.wav	2	1	blb_dichoticlistening_ba-ba.mp3	ba	ba	0	left
6.6.1	and	2023-06-02	06:36:16	0	0	63483c4522d65d46028da7a7	2	1	DL_test	16	DL_test	10			0		pa	1	1461	6	4	antiphase_hc_sio.wav	1	6	6	noise_calib_stim_RIGHT.wav	2	35	blb_dichoticlistening_ta-pa.mp3	ta	pa	1	right
6.6.1	and	2023-06-02	06:36:16	0	0	63483c4522d65d46028da7a7	2	1	DL_test	16	DL_test	11			0		ga	1	1103	6	4	antiphase_hc_sio.wav	1	6	6	noise_calib_stim_RIGHT.wav	2	15	blb_dichoticlistening_ga-ga.mp3	ga	ga	0	left
6.6.1	and	2023-06-02	06:36:16	0	0	63483c4522d65d46028da7a7	2	1	DL_test	16	DL_test	12			0		ka	1	583	6	4	antiphase_hc_sio.wav	1	6	6	noise_calib_stim_RIGHT.wav	2	22	blb_dichoticlistening_ka-ka.mp3	ka	ka	0	left
6.6.1	and	2023-06-02	06:36:16	0	0	63483c4522d65d46028da7a7	2	1	DL_test	16	DL_test	13			0		ka	1	855	6	4	antiphase_hc_sio.wav	1	6	6	noise_calib_stim_RIGHT.wav	2	16	blb_dichoticlistening_ga-ka.mp3	ga	ka	1	right
6.6.1	and	2023-06-02	06:36:16	0	0	63483c4522d65d46028da7a7	2	1	DL_test	16	DL_test	14			0		pa	1	889	6	4	antiphase_hc_sio.wav	1	6	6	noise_calib_stim_RIGHT.wav	2	23	blb_dichoticlistening_ka-pa.mp3	ka	pa	1	right
6.6.1	and	2023-06-02	06:36:16	0	0	63483c4522d65d46028da7a7	2	1	DL_test	16	DL_test	15			0		ta	1	1048	6	4	antiphase_hc_sio.wav	1	6	6	noise_calib_stim_RIGHT.wav	2	36	blb_dichoticlistening_ta-ta.mp3	ta	ta	0	left
6.6.1	and	2023-06-02	06:36:16	0	0	63483c4522d65d46028da7a7	2	1	DL_test	16	DL_test	16			0		pa	1	1094	6	4	antiphase_hc_sio.wav	1	6	6	noise_calib_stim_RIGHT.wav	2	28	blb_dichoticlistening_pa-ka.mp3	pa	ka	1	left
6.6.1	and	2023-06-02	06:36:16	0	0	63483c4522d65d46028da7a7	2	1	DL_test	16	DL_test	17			0		ta	1	1124	6	4	antiphase_hc_sio.wav	1	6	6	noise_calib_stim_RIGHT.wav	2	32	blb_dichoticlistening_ta-da.mp3	ta	da	1	left
6.6.1	and	2023-06-02	06:36:16	0	0	63483c4522d65d46028da7a7	2	1	DL_test	16	DL_test	18			0		pa	0	1075	6	4	antiphase_hc_sio.wav	1	6	6	noise_calib_stim_RIGHT.wav	2	31	blb_dichoticlistening_ta-ba.mp3	ta	ba	1	other
6.6.1	and	2023-06-02	06:36:16	0	0	63483c4522d65d46028da7a7	2	1	DL_test	16	DL_test	19			0		ta	1	1170	6	4	antiphase_hc_sio.wav	1	6	6	noise_calib_stim_RIGHT.wav	2	12	blb_dichoticlistening_da-ta.mp3	da	ta	1	right
6.6.1	and	2023-06-02	06:36:16	0	0	63483c4522d65d46028da7a7	2	1	DL_test	16	DL_test	20			0		pa	1	1003	6	4	antiphase_hc_sio.wav	1	6	6	noise_calib_stim_RIGHT.wav	2	30	blb_dichoticlistening_pa-ta.mp3	pa	ta	1	left
6.6.1	and	2023-06-02	06:36:16	0	0	63483c4522d65d46028da7a7	2	1	DL_test	16	DL_test	21			0		ka	1	923	6	4	antiphase_hc_sio.wav	1	6	6	noise_calib_stim_RIGHT.wav	2	19	blb_dichoticlistening_ka-ba.mp3	ka	ba	1	left
6.6.1	and	2023-06-02	06:36:16	0	0	63483c4522d65d46028da7a7	2	1	DL_test	16	DL_test	22			0		da	1	1477	6	4	antiphase_hc_sio.wav	1	6	6	noise_calib_stim_RIGHT.wav	2	9	blb_dichoticlistening_da-ga.mp3	da	ga	1	left
6.6.1	and	2023-06-02	06:36:16	0	0	63483c4522d65d46028da7a7	2	1	DL_test	16	DL_test	23			0		pa	1	1134	6	4	antiphase_hc_sio.wav	1	6	6	noise_calib_stim_RIGHT.wav	2	5	blb_dichoticlistening_ba-pa.mp3	ba	pa	1	right
6.6.1	and	2023-06-02	06:36:16	0	0	63483c4522d65d46028da7a7	2	1	DL_test	16	DL_test	24			0		ka	0	805	6	4	antiphase_hc_sio.wav	1	6	6	noise_calib_stim_RIGHT.wav	2	33	blb_dichoticlistening_ta-ga.mp3	ta	ga	1	other
6.6.1	and	2023-06-02	06:36:16	0	0	63483c4522d65d46028da7a7	2	1	DL_test	16	DL_test	25			0		ka	0	1452	6	4	antiphase_hc_sio.wav	1	6	6	noise_calib_stim_RIGHT.wav	2	18	blb_dichoticlistening_ga-ta.mp3	ga	ta	1	other
6.6.1	and	2023-06-02	06:36:16	0	0	63483c4522d65d46028da7a7	2	1	DL_test	16	DL_test	26			0		pa	1	1027	6	4	antiphase_hc_sio.wav	1	6	6	noise_calib_stim_RIGHT.wav	2	25	blb_dichoticlistening_pa-ba.mp3	pa	ba	1	left
6.6.1	and	2023-06-02	06:36:16	0	0	63483c4522d65d46028da7a7	2	1	DL_test	16	DL_test	27			0		ba	1	1155	6	4	antiphase_hc_sio.wav	1	6	6	noise_calib_stim_RIGHT.wav	2	7	blb_dichoticlistening_da-ba.mp3	da	ba	1	right
6.6.1	and	2023-06-02	06:36:16	0	0	63483c4522d65d46028da7a7	2	1	DL_test	16	DL_test	28			0		ta	1	1289	6	4	antiphase_hc_sio.wav	1	6	6	noise_calib_stim_RIGHT.wav	2	34	blb_dichoticlistening_ta-ka.mp3	ta	ka	1	left
6.6.1	and	2023-06-02	06:36:16	0	0	63483c4522d65d46028da7a7	2	1	DL_test	16	DL_test	29			0		pa	1	1274	6	4	antiphase_hc_sio.wav	1	6	6	noise_calib_stim_RIGHT.wav	2	11	blb_dichoticlistening_da-pa.mp3	da	pa	1	right
6.6.1	and	2023-06-02	06:36:16	0	0	63483c4522d65d46028da7a7	2	1	DL_test	16	DL_test	30			0		pa	0	876	6	4	antiphase_hc_sio.wav	1	6	6	noise_calib_stim_RIGHT.wav	2	10	blb_dichoticlistening_da-ka.mp3	da	ka	1	other
6.6.1	and	2023-06-02	06:36:16	0	0	63483c4522d65d46028da7a7	2	1	DL_test	16	DL_test	31			0		ka	1	986	6	4	antiphase_hc_sio.wav	1	6	6	noise_calib_stim_RIGHT.wav	2	20	blb_dichoticlistening_ka-da.mp3	ka	da	1	left
6.6.1	and	2023-06-02	06:36:16	0	0	63483c4522d65d46028da7a7	2	1	DL_test	16	DL_test	32			0		da	1	1021	6	4	antiphase_hc_sio.wav	1	6	6	noise_calib_stim_RIGHT.wav	2	14	blb_dichoticlistening_ga-da.mp3	ga	da	1	right
6.6.1	and	2023-06-02	06:36:16	0	0	63483c4522d65d46028da7a7	2	1	DL_test	16	DL_test	33			0		ba	1	1420	6	4	antiphase_hc_sio.wav	1	6	6	noise_calib_stim_RIGHT.wav	2	3	blb_dichoticlistening_ba-ga.mp3	ba	ga	1	left
6.6.1	and	2023-06-02	06:36:16	0	0	63483c4522d65d46028da7a7	2	1	DL_test	16	DL_test	34			0		ka	1	1330	6	4	antiphase_hc_sio.wav	1	6	6	noise_calib_stim_RIGHT.wav	2	4	blb_dichoticlistening_ba-ka.mp3	ba	ka	1	right
6.6.1	and	2023-06-02	06:36:16	0	0	63483c4522d65d46028da7a7	2	1	DL_test	16	DL_test	35			0		pa	1	1343	6	4	antiphase_hc_sio.wav	1	6	6	noise_calib_stim_RIGHT.wav	2	17	blb_dichoticlistening_ga-pa.mp3	ga	pa	1	right
6.6.1	and	2023-06-02	06:36:16	0	0	63483c4522d65d46028da7a7	2	1	DL_test	16	DL_test	36			0		pa	1	769	6	4	antiphase_hc_sio.wav	1	6	6	noise_calib_stim_RIGHT.wav	2	26	blb_dichoticlistening_pa-da.mp3	pa	da	1	left
6.6.1	and	2023-06-02	06:36:16	06:50:24	805353	63483c4522d65d46028da7a7	2	1	practice_z	22	practice_z	1	stimuli_target_squarediamonds.svg	stimuli_distractor_diamondtriangles.svg	2	yes	0	0	2000	6	4	antiphase_hc_sio.wav	1	6	6	noise_calib_stim_RIGHT.wav	2	26	blb_dichoticlistening_pa-da.mp3	pa	da	1	left
6.6.1	and	2023-06-02	06:36:16	06:50:24	805353	63483c4522d65d46028da7a7	2	1	practice_z	22	advance_on_keypress_ZEE	2	stimuli_target_squarediamonds.svg	stimuli_distractor_diamondtriangles.svg	2	yes	57	0	2521	6	4	antiphase_hc_sio.wav	1	6	6	noise_calib_stim_RIGHT.wav	2	26	blb_dichoticlistening_pa-da.mp3	pa	da	1	left
6.6.1	and	2023-06-02	06:36:16	06:50:28	809974	63483c4522d65d46028da7a7	2	1	practice_z	22	practice_z	3	stimuli_distractor_diamondtriangles.svg	stimuli_target_trianglerectangles.svg	9	yes	44	1	446	6	4	antiphase_hc_sio.wav	1	6	6	noise_calib_stim_RIGHT.wav	2	26	blb_dichoticlistening_pa-da.mp3	pa	da	1	left
6.6.1	and	2023-06-02	06:36:16	06:50:28	809974	63483c4522d65d46028da7a7	2	1	practice_z	22	advance_on_keypress_ZEE	4	stimuli_distractor_diamondtriangles.svg	stimuli_target_trianglerectangles.svg	9	yes	57	0	1241	6	4	antiphase_hc_sio.wav	1	6	6	noise_calib_stim_RIGHT.wav	2	26	blb_dichoticlistening_pa-da.mp3	pa	da	1	left
6.6.1	and	2023-06-02	06:36:16	06:50:31	813120	63483c4522d65d46028da7a7	2	1	practice_z	22	practice_z	5	stimuli_distractor_diamondtriangles.svg	stimuli_target_diamondrectangles.svg	8	yes	44	1	250	6	4	antiphase_hc_sio.wav	1	6	6	noise_calib_stim_RIGHT.wav	2	26	blb_dichoticlistening_pa-da.mp3	pa	da	1	left
6.6.1	and	2023-06-02	06:36:16	06:50:31	813120	63483c4522d65d46028da7a7	2	1	practice_z	22	advance_on_keypress_ZEE	6	stimuli_distractor_diamondtriangles.svg	stimuli_target_diamondrectangles.svg	8	yes	57	0	940	6	4	antiphase_hc_sio.wav	1	6	6	noise_calib_stim_RIGHT.wav	2	26	blb_dichoticlistening_pa-da.mp3	pa	da	1	left
6.6.1	and	2023-06-02	06:36:16	06:50:35	816388	63483c4522d65d46028da7a7	2	1	practice_z	22	practice_z	7	stimuli_distractor_trianglediamonds.svg	stimuli_target_rectanglediamonds.svg	10	yes	44	1	652	6	4	antiphase_hc_sio.wav	1	6	6	noise_calib_stim_RIGHT.wav	2	26	blb_dichoticlistening_pa-da.mp3	pa	da	1	left
6.6.1	and	2023-06-02	06:36:16	06:50:35	816388	63483c4522d65d46028da7a7	2	1	practice_z	22	advance_on_keypress_ZEE	8	stimuli_distractor_trianglediamonds.svg	stimuli_target_rectanglediamonds.svg	10	yes	57	0	841	6	4	antiphase_hc_sio.wav	1	6	6	noise_calib_stim_RIGHT.wav	2	26	blb_dichoticlistening_pa-da.mp3	pa	da	1	left
6.6.1	and	2023-06-02	06:36:16	06:50:38	819748	63483c4522d65d46028da7a7	2	1	practice_z	22	practice_z	9	stimuli_distractor_trianglediamonds.svg	stimuli_distractor_diamondtriangles.svg	16	no	44	0	853	6	4	antiphase_hc_sio.wav	1	6	6	noise_calib_stim_RIGHT.wav	2	26	blb_dichoticlistening_pa-da.mp3	pa	da	1	left
6.6.1	and	2023-06-02	06:36:16	06:50:38	819748	63483c4522d65d46028da7a7	2	1	practice_z	22	advance_on_keypress_ZEE	10	stimuli_distractor_trianglediamonds.svg	stimuli_distractor_diamondtriangles.svg	16	no	57	0	533	6	4	antiphase_hc_sio.wav	1	6	6	noise_calib_stim_RIGHT.wav	2	26	blb_dichoticlistening_pa-da.mp3	pa	da	1	left
6.6.1	and	2023-06-02	06:36:16	06:50:41	822212	63483c4522d65d46028da7a7	2	1	practice_z	22	practice_z	11	stimuli_target_diamondsquares.svg	stimuli_distractor_diamondtriangles.svg	3	yes	44	1	279	6	4	antiphase_hc_sio.wav	1	6	6	noise_calib_stim_RIGHT.wav	2	26	blb_dichoticlistening_pa-da.mp3	pa	da	1	left
6.6.1	and	2023-06-02	06:36:16	06:50:41	822212	63483c4522d65d46028da7a7	2	1	practice_z	22	advance_on_keypress_ZEE	12	stimuli_target_diamondsquares.svg	stimuli_distractor_diamondtriangles.svg	3	yes	57	0	455	6	4	antiphase_hc_sio.wav	1	6	6	noise_calib_stim_RIGHT.wav	2	26	blb_dichoticlistening_pa-da.mp3	pa	da	1	left
6.6.1	and	2023-06-02	06:36:16	06:50:45	826312	63483c4522d65d46028da7a7	2	1	practice_z	22	practice_z	13	stimuli_distractor_trianglediamonds.svg	stimuli_distractor_trianglediamonds.svg	15	no	0	1	2000	6	4	antiphase_hc_sio.wav	1	6	6	noise_calib_stim_RIGHT.wav	2	26	blb_dichoticlistening_pa-da.mp3	pa	da	1	left
6.6.1	and	2023-06-02	06:36:16	06:50:45	826312	63483c4522d65d46028da7a7	2	1	practice_z	22	advance_on_keypress_ZEE	14	stimuli_distractor_trianglediamonds.svg	stimuli_distractor_trianglediamonds.svg	15	no	57	0	1511	6	4	antiphase_hc_sio.wav	1	6	6	noise_calib_stim_RIGHT.wav	2	26	blb_dichoticlistening_pa-da.mp3	pa	da	1	left
6.6.1	and	2023-06-02	06:36:16	06:50:48	830089	63483c4522d65d46028da7a7	2	1	practice_z	22	practice_z	15	stimuli_distractor_diamondtriangles.svg	stimuli_distractor_diamondtriangles.svg	13	no	44	0	613	6	4	antiphase_hc_sio.wav	1	6	6	noise_calib_stim_RIGHT.wav	2	26	blb_dichoticlistening_pa-da.mp3	pa	da	1	left
6.6.1	and	2023-06-02	06:36:16	06:50:48	830089	63483c4522d65d46028da7a7	2	1	practice_z	22	advance_on_keypress_ZEE	16	stimuli_distractor_diamondtriangles.svg	stimuli_distractor_diamondtriangles.svg	13	no	57	0	534	6	4	antiphase_hc_sio.wav	1	6	6	noise_calib_stim_RIGHT.wav	2	26	blb_dichoticlistening_pa-da.mp3	pa	da	1	left
6.6.1	and	2023-06-02	06:36:16	06:50:51	832809	63483c4522d65d46028da7a7	2	1	practice_z	22	practice_z	17	stimuli_target_diamondsquares.svg	stimuli_distractor_trianglediamonds.svg	6	yes	44	1	558	6	4	antiphase_hc_sio.wav	1	6	6	noise_calib_stim_RIGHT.wav	2	26	blb_dichoticlistening_pa-da.mp3	pa	da	1	left
6.6.1	and	2023-06-02	06:36:16	06:50:51	832809	63483c4522d65d46028da7a7	2	1	practice_z	22	advance_on_keypress_ZEE	18	stimuli_target_diamondsquares.svg	stimuli_distractor_trianglediamonds.svg	6	yes	57	0	371	6	4	antiphase_hc_sio.wav	1	6	6	noise_calib_stim_RIGHT.wav	2	26	blb_dichoticlistening_pa-da.mp3	pa	da	1	left
6.6.1	and	2023-06-02	06:36:16	06:50:54	835749	63483c4522d65d46028da7a7	2	1	practice_z	22	practice_z	19	stimuli_distractor_trianglediamonds.svg	stimuli_target_diamondrectangles.svg	12	yes	44	1	916	6	4	antiphase_hc_sio.wav	1	6	6	noise_calib_stim_RIGHT.wav	2	26	blb_dichoticlistening_pa-da.mp3	pa	da	1	left
6.6.1	and	2023-06-02	06:36:16	06:50:54	835749	63483c4522d65d46028da7a7	2	1	practice_z	22	advance_on_keypress_ZEE	20	stimuli_distractor_trianglediamonds.svg	stimuli_target_diamondrectangles.svg	12	yes	57	0	453	6	4	antiphase_hc_sio.wav	1	6	6	noise_calib_stim_RIGHT.wav	2	26	blb_dichoticlistening_pa-da.mp3	pa	da	1	left
6.6.1	and	2023-06-02	06:36:16	06:50:57	838936	63483c4522d65d46028da7a7	2	1	practice_z	22	practice_z	21	stimuli_distractor_diamondtriangles.svg	stimuli_distractor_trianglediamonds.svg	14	no	44	0	1106	6	4	antiphase_hc_sio.wav	1	6	6	noise_calib_stim_RIGHT.wav	2	26	blb_dichoticlistening_pa-da.mp3	pa	da	1	left
6.6.1	and	2023-06-02	06:36:16	06:50:57	838936	63483c4522d65d46028da7a7	2	1	practice_z	22	advance_on_keypress_ZEE	22	stimuli_distractor_diamondtriangles.svg	stimuli_distractor_trianglediamonds.svg	14	no	57	0	450	6	4	antiphase_hc_sio.wav	1	6	6	noise_calib_stim_RIGHT.wav	2	26	blb_dichoticlistening_pa-da.mp3	pa	da	1	left
6.6.1	and	2023-06-02	06:36:16	06:51:00	841495	63483c4522d65d46028da7a7	2	1	practice_z	22	practice_z	23	stimuli_target_rectanglediamonds.svg	stimuli_distractor_trianglediamonds.svg	4	yes	44	1	461	6	4	antiphase_hc_sio.wav	1	6	6	noise_calib_stim_RIGHT.wav	2	26	blb_dichoticlistening_pa-da.mp3	pa	da	1	left
6.6.1	and	2023-06-02	06:36:16	06:51:00	841495	63483c4522d65d46028da7a7	2	1	practice_z	22	advance_on_keypress_ZEE	24	stimuli_target_rectanglediamonds.svg	stimuli_distractor_trianglediamonds.svg	4	yes	57	0	700	6	4	antiphase_hc_sio.wav	1	6	6	noise_calib_stim_RIGHT.wav	2	26	blb_dichoticlistening_pa-da.mp3	pa	da	1	left
6.6.1	and	2023-06-02	06:36:16	06:51:03	844661	63483c4522d65d46028da7a7	2	1	practice_z	22	practice_z	25	stimuli_target_rectanglediamonds.svg	stimuli_distractor_diamondtriangles.svg	1	yes	44	1	836	6	4	antiphase_hc_sio.wav	1	6	6	noise_calib_stim_RIGHT.wav	2	26	blb_dichoticlistening_pa-da.mp3	pa	da	1	left
6.6.1	and	2023-06-02	06:36:16	06:51:03	844661	63483c4522d65d46028da7a7	2	1	practice_z	22	advance_on_keypress_ZEE	26	stimuli_target_rectanglediamonds.svg	stimuli_distractor_diamondtriangles.svg	1	yes	57	0	359	6	4	antiphase_hc_sio.wav	1	6	6	noise_calib_stim_RIGHT.wav	2	26	blb_dichoticlistening_pa-da.mp3	pa	da	1	left
6.6.1	and	2023-06-02	06:36:16	06:51:06	847685	63483c4522d65d46028da7a7	2	1	practice_z	22	practice_z	27	stimuli_distractor_trianglediamonds.svg	stimuli_target_squarediamonds.svg	11	yes	44	1	1026	6	4	antiphase_hc_sio.wav	1	6	6	noise_calib_stim_RIGHT.wav	2	26	blb_dichoticlistening_pa-da.mp3	pa	da	1	left
6.6.1	and	2023-06-02	06:36:16	06:51:06	847685	63483c4522d65d46028da7a7	2	1	practice_z	22	advance_on_keypress_ZEE	28	stimuli_distractor_trianglediamonds.svg	stimuli_target_squarediamonds.svg	11	yes	57	0	403	6	4	antiphase_hc_sio.wav	1	6	6	noise_calib_stim_RIGHT.wav	2	26	blb_dichoticlistening_pa-da.mp3	pa	da	1	left
6.6.1	and	2023-06-02	06:36:16	06:51:09	850674	63483c4522d65d46028da7a7	2	1	practice_z	22	practice_z	29	stimuli_distractor_diamondtriangles.svg	stimuli_target_rectangletriangles.svg	7	yes	44	1	936	6	4	antiphase_hc_sio.wav	1	6	6	noise_calib_stim_RIGHT.wav	2	26	blb_dichoticlistening_pa-da.mp3	pa	da	1	left
6.6.1	and	2023-06-02	06:36:16	06:51:09	850674	63483c4522d65d46028da7a7	2	1	practice_z	22	advance_on_keypress_ZEE	30	stimuli_distractor_diamondtriangles.svg	stimuli_target_rectangletriangles.svg	7	yes	57	0	322	6	4	antiphase_hc_sio.wav	1	6	6	noise_calib_stim_RIGHT.wav	2	26	blb_dichoticlistening_pa-da.mp3	pa	da	1	left
6.6.1	and	2023-06-02	06:36:16	06:51:11	853113	63483c4522d65d46028da7a7	2	1	practice_z	22	practice_z	31	stimuli_target_squarediamonds.svg	stimuli_distractor_trianglediamonds.svg	5	yes	44	1	481	6	4	antiphase_hc_sio.wav	1	6	6	noise_calib_stim_RIGHT.wav	2	26	blb_dichoticlistening_pa-da.mp3	pa	da	1	left
6.6.1	and	2023-06-02	06:36:16	06:51:11	853113	63483c4522d65d46028da7a7	2	1	practice_z	22	advance_on_keypress_ZEE	32	stimuli_target_squarediamonds.svg	stimuli_distractor_trianglediamonds.svg	5	yes	57	0	471	6	4	antiphase_hc_sio.wav	1	6	6	noise_calib_stim_RIGHT.wav	2	26	blb_dichoticlistening_pa-da.mp3	pa	da	1	left
6.6.1	and	2023-06-02	06:36:16	06:51:17	858495	63483c4522d65d46028da7a7	2	1	main_z	24	main_z	1	stimuli_distractor_trianglediamonds.svg	stimuli_target_squarediamonds.svg	12	yes	44	1	552	6	4	antiphase_hc_sio.wav	1	6	6	noise_calib_stim_RIGHT.wav	2	26	blb_dichoticlistening_pa-da.mp3	pa	da	1	left
6.6.1	and	2023-06-02	06:36:16	06:51:17	858495	63483c4522d65d46028da7a7	2	1	main_z	24	advance_on_keypress_ZEE	2	stimuli_distractor_trianglediamonds.svg	stimuli_target_squarediamonds.svg	12	yes	57	0	1370	6	4	antiphase_hc_sio.wav	1	6	6	noise_calib_stim_RIGHT.wav	2	26	blb_dichoticlistening_pa-da.mp3	pa	da	1	left
6.6.1	and	2023-06-02	06:36:16	06:51:21	862520	63483c4522d65d46028da7a7	2	1	main_z	24	main_z	3	stimuli_distractor_trianglediamonds.svg	stimuli_distractor_diamondtriangles.svg	36	no	0	1	2000	6	4	antiphase_hc_sio.wav	1	6	6	noise_calib_stim_RIGHT.wav	2	26	blb_dichoticlistening_pa-da.mp3	pa	da	1	left
6.6.1	and	2023-06-02	06:36:16	06:51:21	862520	63483c4522d65d46028da7a7	2	1	main_z	24	advance_on_keypress_ZEE	4	stimuli_distractor_trianglediamonds.svg	stimuli_distractor_diamondtriangles.svg	36	no	57	0	649	6	4	antiphase_hc_sio.wav	1	6	6	noise_calib_stim_RIGHT.wav	2	26	blb_dichoticlistening_pa-da.mp3	pa	da	1	left
6.6.1	and	2023-06-02	06:36:16	06:51:23	864222	63483c4522d65d46028da7a7	2	1	main_z	24	main_z	5	stimuli_distractor_trianglediamonds.svg	stimuli_target_trianglesquares.svg	26	yes	44	1	415	6	4	antiphase_hc_sio.wav	1	6	6	noise_calib_stim_RIGHT.wav	2	26	blb_dichoticlistening_pa-da.mp3	pa	da	1	left
6.6.1	and	2023-06-02	06:36:16	06:51:23	864222	63483c4522d65d46028da7a7	2	1	main_z	24	advance_on_keypress_ZEE	6	stimuli_distractor_trianglediamonds.svg	stimuli_target_trianglesquares.svg	26	yes	57	0	1036	6	4	antiphase_hc_sio.wav	1	6	6	noise_calib_stim_RIGHT.wav	2	26	blb_dichoticlistening_pa-da.mp3	pa	da	1	left
6.6.1	and	2023-06-02	06:36:16	06:51:25	866448	63483c4522d65d46028da7a7	2	1	main_z	24	main_z	7	stimuli_distractor_diamondtriangles.svg	stimuli_target_rectangletriangles.svg	13	yes	44	1	563	6	4	antiphase_hc_sio.wav	1	6	6	noise_calib_stim_RIGHT.wav	2	26	blb_dichoticlistening_pa-da.mp3	pa	da	1	left
6.6.1	and	2023-06-02	06:36:16	06:51:25	866448	63483c4522d65d46028da7a7	2	1	main_z	24	advance_on_keypress_ZEE	8	stimuli_distractor_diamondtriangles.svg	stimuli_target_rectangletriangles.svg	13	yes	57	0	707	6	4	antiphase_hc_sio.wav	1	6	6	noise_calib_stim_RIGHT.wav	2	26	blb_dichoticlistening_pa-da.mp3	pa	da	1	left
6.6.1	and	2023-06-02	06:36:16	06:51:27	868219	63483c4522d65d46028da7a7	2	1	main_z	24	main_z	9	stimuli_target_squarediamonds.svg	stimuli_distractor_diamondtriangles.svg	8	yes	44	1	437	6	4	antiphase_hc_sio.wav	1	6	6	noise_calib_stim_RIGHT.wav	2	26	blb_dichoticlistening_pa-da.mp3	pa	da	1	left
6.6.1	and	2023-06-02	06:36:16	06:51:27	868219	63483c4522d65d46028da7a7	2	1	main_z	24	advance_on_keypress_ZEE	10	stimuli_target_squarediamonds.svg	stimuli_distractor_diamondtriangles.svg	8	yes	57	0	743	6	4	antiphase_hc_sio.wav	1	6	6	noise_calib_stim_RIGHT.wav	2	26	blb_dichoticlistening_pa-da.mp3	pa	da	1	left
6.6.1	and	2023-06-02	06:36:16	06:51:29	870537	63483c4522d65d46028da7a7	2	1	main_z	24	main_z	11	stimuli_distractor_diamondtriangles.svg	stimuli_target_diamondrectangles.svg	31	yes	44	1	935	6	4	antiphase_hc_sio.wav	1	6	6	noise_calib_stim_RIGHT.wav	2	26	blb_dichoticlistening_pa-da.mp3	pa	da	1	left
6.6.1	and	2023-06-02	06:36:16	06:51:29	870537	63483c4522d65d46028da7a7	2	1	main_z	24	advance_on_keypress_ZEE	12	stimuli_distractor_diamondtriangles.svg	stimuli_target_diamondrectangles.svg	31	yes	57	0	645	6	4	antiphase_hc_sio.wav	1	6	6	noise_calib_stim_RIGHT.wav	2	26	blb_dichoticlistening_pa-da.mp3	pa	da	1	left
6.6.1	and	2023-06-02	06:36:16	06:51:31	872559	63483c4522d65d46028da7a7	2	1	main_z	24	main_z	13	stimuli_target_trianglesquares.svg	stimuli_distractor_trianglediamonds.svg	18	yes	44	1	730	6	4	antiphase_hc_sio.wav	1	6	6	noise_calib_stim_RIGHT.wav	2	26	blb_dichoticlistening_pa-da.mp3	pa	da	1	left
6.6.1	and	2023-06-02	06:36:16	06:51:31	872559	63483c4522d65d46028da7a7	2	1	main_z	24	advance_on_keypress_ZEE	14	stimuli_target_trianglesquares.svg	stimuli_distractor_trianglediamonds.svg	18	yes	57	0	763	6	4	antiphase_hc_sio.wav	1	6	6	noise_calib_stim_RIGHT.wav	2	26	blb_dichoticlistening_pa-da.mp3	pa	da	1	left
6.6.1	and	2023-06-02	06:36:16	06:51:33	874798	63483c4522d65d46028da7a7	2	1	main_z	24	main_z	15	stimuli_distractor_trianglediamonds.svg	stimuli_target_rectangletriangles.svg	9	yes	44	1	836	6	4	antiphase_hc_sio.wav	1	6	6	noise_calib_stim_RIGHT.wav	2	26	blb_dichoticlistening_pa-da.mp3	pa	da	1	left
6.6.1	and	2023-06-02	06:36:16	06:51:33	874798	63483c4522d65d46028da7a7	2	1	main_z	24	advance_on_keypress_ZEE	16	stimuli_distractor_trianglediamonds.svg	stimuli_target_rectangletriangles.svg	9	yes	57	0	639	6	4	antiphase_hc_sio.wav	1	6	6	noise_calib_stim_RIGHT.wav	2	26	blb_dichoticlistening_pa-da.mp3	pa	da	1	left
6.6.1	and	2023-06-02	06:36:16	06:51:35	876622	63483c4522d65d46028da7a7	2	1	main_z	24	main_z	17	stimuli_target_rectanglediamonds.svg	stimuli_distractor_diamondtriangles.svg	6	yes	44	1	532	6	4	antiphase_hc_sio.wav	1	6	6	noise_calib_stim_RIGHT.wav	2	26	blb_dichoticlistening_pa-da.mp3	pa	da	1	left
6.6.1	and	2023-06-02	06:36:16	06:51:35	876622	63483c4522d65d46028da7a7	2	1	main_z	24	advance_on_keypress_ZEE	18	stimuli_target_rectanglediamonds.svg	stimuli_distractor_diamondtriangles.svg	6	yes	57	0	694	6	4	antiphase_hc_sio.wav	1	6	6	noise_calib_stim_RIGHT.wav	2	26	blb_dichoticlistening_pa-da.mp3	pa	da	1	left
6.6.1	and	2023-06-02	06:36:16	06:51:38	879955	63483c4522d65d46028da7a7	2	1	main_z	24	main_z	19	stimuli_target_diamondrectangles.svg	stimuli_distractor_diamondtriangles.svg	23	yes	0	0	2000	6	4	antiphase_hc_sio.wav	1	6	6	noise_calib_stim_RIGHT.wav	2	26	blb_dichoticlistening_pa-da.mp3	pa	da	1	left
6.6.1	and	2023-06-02	06:36:16	06:51:38	879955	63483c4522d65d46028da7a7	2	1	main_z	24	advance_on_keypress_ZEE	20	stimuli_target_diamondrectangles.svg	stimuli_distractor_diamondtriangles.svg	23	yes	57	0	675	6	4	antiphase_hc_sio.wav	1	6	6	noise_calib_stim_RIGHT.wav	2	26	blb_dichoticlistening_pa-da.mp3	pa	da	1	left
6.6.1	and	2023-06-02	06:36:16	06:51:40	882021	63483c4522d65d46028da7a7	2	1	main_z	24	main_z	21	stimuli_distractor_trianglediamonds.svg	stimuli_target_diamondsquares.svg	28	yes	44	1	752	6	4	antiphase_hc_sio.wav	1	6	6	noise_calib_stim_RIGHT.wav	2	26	blb_dichoticlistening_pa-da.mp3	pa	da	1	left
6.6.1	and	2023-06-02	06:36:16	06:51:40	882021	63483c4522d65d46028da7a7	2	1	main_z	24	advance_on_keypress_ZEE	22	stimuli_distractor_trianglediamonds.svg	stimuli_target_diamondsquares.svg	28	yes	57	0	668	6	4	antiphase_hc_sio.wav	1	6	6	noise_calib_stim_RIGHT.wav	2	26	blb_dichoticlistening_pa-da.mp3	pa	da	1	left
6.6.1	and	2023-06-02	06:36:16	06:51:44	885325	63483c4522d65d46028da7a7	2	1	main_z	24	main_z	23	stimuli_distractor_diamondtriangles.svg	stimuli_distractor_diamondtriangles.svg	40	no	0	1	2000	6	4	antiphase_hc_sio.wav	1	6	6	noise_calib_stim_RIGHT.wav	2	26	blb_dichoticlistening_pa-da.mp3	pa	da	1	left
6.6.1	and	2023-06-02	06:36:16	06:51:44	885325	63483c4522d65d46028da7a7	2	1	main_z	24	advance_on_keypress_ZEE	24	stimuli_distractor_diamondtriangles.svg	stimuli_distractor_diamondtriangles.svg	40	no	57	0	483	6	4	antiphase_hc_sio.wav	1	6	6	noise_calib_stim_RIGHT.wav	2	26	blb_dichoticlistening_pa-da.mp3	pa	da	1	left
6.6.1	and	2023-06-02	06:36:16	06:51:46	887253	63483c4522d65d46028da7a7	2	1	main_z	24	main_z	25	stimuli_distractor_diamondtriangles.svg	stimuli_distractor_trianglediamonds.svg	37	no	44	0	801	6	4	antiphase_hc_sio.wav	1	6	6	noise_calib_stim_RIGHT.wav	2	26	blb_dichoticlistening_pa-da.mp3	pa	da	1	left
6.6.1	and	2023-06-02	06:36:16	06:51:46	887253	63483c4522d65d46028da7a7	2	1	main_z	24	advance_on_keypress_ZEE	26	stimuli_distractor_diamondtriangles.svg	stimuli_distractor_trianglediamonds.svg	37	no	57	0	556	6	4	antiphase_hc_sio.wav	1	6	6	noise_calib_stim_RIGHT.wav	2	26	blb_dichoticlistening_pa-da.mp3	pa	da	1	left
6.6.1	and	2023-06-02	06:36:16	06:51:48	889295	63483c4522d65d46028da7a7	2	1	main_z	24	main_z	27	stimuli_distractor_diamondtriangles.svg	stimuli_target_trianglesquares.svg	30	yes	44	1	834	6	4	antiphase_hc_sio.wav	1	6	6	noise_calib_stim_RIGHT.wav	2	26	blb_dichoticlistening_pa-da.mp3	pa	da	1	left
6.6.1	and	2023-06-02	06:36:16	06:51:48	889295	63483c4522d65d46028da7a7	2	1	main_z	24	advance_on_keypress_ZEE	28	stimuli_distractor_diamondtriangles.svg	stimuli_target_trianglesquares.svg	30	yes	57	0	722	6	4	antiphase_hc_sio.wav	1	6	6	noise_calib_stim_RIGHT.wav	2	26	blb_dichoticlistening_pa-da.mp3	pa	da	1	left
6.6.1	and	2023-06-02	06:36:16	06:51:51	892643	63483c4522d65d46028da7a7	2	1	main_z	24	main_z	29	stimuli_distractor_diamondtriangles.svg	stimuli_distractor_diamondtriangles.svg	39	no	0	1	2000	6	4	antiphase_hc_sio.wav	1	6	6	noise_calib_stim_RIGHT.wav	2	26	blb_dichoticlistening_pa-da.mp3	pa	da	1	left
6.6.1	and	2023-06-02	06:36:16	06:51:51	892643	63483c4522d65d46028da7a7	2	1	main_z	24	advance_on_keypress_ZEE	30	stimuli_distractor_diamondtriangles.svg	stimuli_distractor_diamondtriangles.svg	39	no	57	0	470	6	4	antiphase_hc_sio.wav	1	6	6	noise_calib_stim_RIGHT.wav	2	26	blb_dichoticlistening_pa-da.mp3	pa	da	1	left
6.6.1	and	2023-06-02	06:36:16	06:51:53	894219	63483c4522d65d46028da7a7	2	1	main_z	24	main_z	31	stimuli_distractor_diamondtriangles.svg	stimuli_target_rectanglediamonds.svg	14	yes	44	1	480	6	4	antiphase_hc_sio.wav	1	6	6	noise_calib_stim_RIGHT.wav	2	26	blb_dichoticlistening_pa-da.mp3	pa	da	1	left
6.6.1	and	2023-06-02	06:36:16	06:51:53	894219	63483c4522d65d46028da7a7	2	1	main_z	24	advance_on_keypress_ZEE	32	stimuli_distractor_diamondtriangles.svg	stimuli_target_rectanglediamonds.svg	14	yes	57	0	642	6	4	antiphase_hc_sio.wav	1	6	6	noise_calib_stim_RIGHT.wav	2	26	blb_dichoticlistening_pa-da.mp3	pa	da	1	left
6.6.1	and	2023-06-02	06:36:16	06:51:55	896309	63483c4522d65d46028da7a7	2	1	main_z	24	main_z	33	stimuli_distractor_trianglediamonds.svg	stimuli_target_squaretriangles.svg	11	yes	44	1	786	6	4	antiphase_hc_sio.wav	1	6	6	noise_calib_stim_RIGHT.wav	2	26	blb_dichoticlistening_pa-da.mp3	pa	da	1	left
6.6.1	and	2023-06-02	06:36:16	06:51:55	896309	63483c4522d65d46028da7a7	2	1	main_z	24	advance_on_keypress_ZEE	34	stimuli_distractor_trianglediamonds.svg	stimuli_target_squaretriangles.svg	11	yes	57	0	651	6	4	antiphase_hc_sio.wav	1	6	6	noise_calib_stim_RIGHT.wav	2	26	blb_dichoticlistening_pa-da.mp3	pa	da	1	left
6.6.1	and	2023-06-02	06:36:16	06:51:58	899585	63483c4522d65d46028da7a7	2	1	main_z	24	main_z	35	stimuli_distractor_trianglediamonds.svg	stimuli_distractor_diamondtriangles.svg	35	no	0	1	2000	6	4	antiphase_hc_sio.wav	1	6	6	noise_calib_stim_RIGHT.wav	2	26	blb_dichoticlistening_pa-da.mp3	pa	da	1	left
6.6.1	and	2023-06-02	06:36:16	06:51:58	899585	63483c4522d65d46028da7a7	2	1	main_z	24	advance_on_keypress_ZEE	36	stimuli_distractor_trianglediamonds.svg	stimuli_distractor_diamondtriangles.svg	35	no	57	0	340	6	4	antiphase_hc_sio.wav	1	6	6	noise_calib_stim_RIGHT.wav	2	26	blb_dichoticlistening_pa-da.mp3	pa	da	1	left
6.6.1	and	2023-06-02	06:36:16	06:51:59	901038	63483c4522d65d46028da7a7	2	1	main_z	24	main_z	37	stimuli_distractor_diamondtriangles.svg	stimuli_target_squarediamonds.svg	16	yes	44	1	466	6	4	antiphase_hc_sio.wav	1	6	6	noise_calib_stim_RIGHT.wav	2	26	blb_dichoticlistening_pa-da.mp3	pa	da	1	left
6.6.1	and	2023-06-02	06:36:16	06:51:59	901038	63483c4522d65d46028da7a7	2	1	main_z	24	advance_on_keypress_ZEE	38	stimuli_distractor_diamondtriangles.svg	stimuli_target_squarediamonds.svg	16	yes	57	0	768	6	4	antiphase_hc_sio.wav	1	6	6	noise_calib_stim_RIGHT.wav	2	26	blb_dichoticlistening_pa-da.mp3	pa	da	1	left
6.6.1	and	2023-06-02	06:36:16	06:52:01	902971	63483c4522d65d46028da7a7	2	1	main_z	24	main_z	39	stimuli_target_squaretriangles.svg	stimuli_distractor_trianglediamonds.svg	3	yes	44	1	537	6	4	antiphase_hc_sio.wav	1	6	6	noise_calib_stim_RIGHT.wav	2	26	blb_dichoticlistening_pa-da.mp3	pa	da	1	left
6.6.1	and	2023-06-02	06:36:16	06:52:01	902971	63483c4522d65d46028da7a7	2	1	main_z	24	advance_on_keypress_ZEE	40	stimuli_target_squaretriangles.svg	stimuli_distractor_trianglediamonds.svg	3	yes	57	0	599	6	4	antiphase_hc_sio.wav	1	6	6	noise_calib_stim_RIGHT.wav	2	26	blb_dichoticlistening_pa-da.mp3	pa	da	1	left
6.6.1	and	2023-06-02	06:36:16	06:52:04	905506	63483c4522d65d46028da7a7	2	1	main_z	24	main_z	41	stimuli_distractor_trianglediamonds.svg	stimuli_distractor_trianglediamonds.svg	34	no	44	0	1290	6	4	antiphase_hc_sio.wav	1	6	6	noise_calib_stim_RIGHT.wav	2	26	blb_dichoticlistening_pa-da.mp3	pa	da	1	left
6.6.1	and	2023-06-02	06:36:16	06:52:04	905506	63483c4522d65d46028da7a7	2	1	main_z	24	advance_on_keypress_ZEE	42	stimuli_distractor_trianglediamonds.svg	stimuli_distractor_trianglediamonds.svg	34	no	57	0	446	6	4	antiphase_hc_sio.wav	1	6	6	noise_calib_stim_RIGHT.wav	2	26	blb_dichoticlistening_pa-da.mp3	pa	da	1	left
6.6.1	and	2023-06-02	06:36:16	06:52:05	907100	63483c4522d65d46028da7a7	2	1	main_z	24	main_z	43	stimuli_target_diamondrectangles.svg	stimuli_distractor_trianglediamonds.svg	19	yes	44	1	506	6	4	antiphase_hc_sio.wav	1	6	6	noise_calib_stim_RIGHT.wav	2	26	blb_dichoticlistening_pa-da.mp3	pa	da	1	left
6.6.1	and	2023-06-02	06:36:16	06:52:05	907100	63483c4522d65d46028da7a7	2	1	main_z	24	advance_on_keypress_ZEE	44	stimuli_target_diamondrectangles.svg	stimuli_distractor_trianglediamonds.svg	19	yes	57	0	810	6	4	antiphase_hc_sio.wav	1	6	6	noise_calib_stim_RIGHT.wav	2	26	blb_dichoticlistening_pa-da.mp3	pa	da	1	left
6.6.1	and	2023-06-02	06:36:16	06:52:08	909213	63483c4522d65d46028da7a7	2	1	main_z	24	main_z	45	stimuli_distractor_trianglediamonds.svg	stimuli_target_diamondrectangles.svg	27	yes	44	1	637	6	4	antiphase_hc_sio.wav	1	6	6	noise_calib_stim_RIGHT.wav	2	26	blb_dichoticlistening_pa-da.mp3	pa	da	1	left
6.6.1	and	2023-06-02	06:36:16	06:52:08	909213	63483c4522d65d46028da7a7	2	1	main_z	24	advance_on_keypress_ZEE	46	stimuli_distractor_trianglediamonds.svg	stimuli_target_diamondrectangles.svg	27	yes	57	0	544	6	4	antiphase_hc_sio.wav	1	6	6	noise_calib_stim_RIGHT.wav	2	26	blb_dichoticlistening_pa-da.mp3	pa	da	1	left
6.6.1	and	2023-06-02	06:36:16	06:52:09	910865	63483c4522d65d46028da7a7	2	1	main_z	24	main_z	47	stimuli_target_rectangletriangles.svg	stimuli_distractor_trianglediamonds.svg	1	yes	44	1	474	6	4	antiphase_hc_sio.wav	1	6	6	noise_calib_stim_RIGHT.wav	2	26	blb_dichoticlistening_pa-da.mp3	pa	da	1	left
6.6.1	and	2023-06-02	06:36:16	06:52:09	910865	63483c4522d65d46028da7a7	2	1	main_z	24	advance_on_keypress_ZEE	48	stimuli_target_rectangletriangles.svg	stimuli_distractor_trianglediamonds.svg	1	yes	57	0	528	6	4	antiphase_hc_sio.wav	1	6	6	noise_calib_stim_RIGHT.wav	2	26	blb_dichoticlistening_pa-da.mp3	pa	da	1	left
6.6.1	and	2023-06-02	06:36:16	06:52:11	912686	63483c4522d65d46028da7a7	2	1	main_z	24	main_z	49	stimuli_distractor_trianglediamonds.svg	stimuli_target_trianglerectangles.svg	25	yes	44	1	649	6	4	antiphase_hc_sio.wav	1	6	6	noise_calib_stim_RIGHT.wav	2	26	blb_dichoticlistening_pa-da.mp3	pa	da	1	left
6.6.1	and	2023-06-02	06:36:16	06:52:11	912686	63483c4522d65d46028da7a7	2	1	main_z	24	advance_on_keypress_ZEE	50	stimuli_distractor_trianglediamonds.svg	stimuli_target_trianglerectangles.svg	25	yes	57	0	455	6	4	antiphase_hc_sio.wav	1	6	6	noise_calib_stim_RIGHT.wav	2	26	blb_dichoticlistening_pa-da.mp3	pa	da	1	left
6.6.1	and	2023-06-02	06:36:16	06:52:13	914255	63483c4522d65d46028da7a7	2	1	main_z	24	main_z	51	stimuli_target_squarediamonds.svg	stimuli_distractor_trianglediamonds.svg	4	yes	44	1	465	6	4	antiphase_hc_sio.wav	1	6	6	noise_calib_stim_RIGHT.wav	2	26	blb_dichoticlistening_pa-da.mp3	pa	da	1	left
6.6.1	and	2023-06-02	06:36:16	06:52:13	914255	63483c4522d65d46028da7a7	2	1	main_z	24	advance_on_keypress_ZEE	52	stimuli_target_squarediamonds.svg	stimuli_distractor_trianglediamonds.svg	4	yes	57	0	480	6	4	antiphase_hc_sio.wav	1	6	6	noise_calib_stim_RIGHT.wav	2	26	blb_dichoticlistening_pa-da.mp3	pa	da	1	left
6.6.1	and	2023-06-02	06:36:16	06:52:14	916024	63483c4522d65d46028da7a7	2	1	main_z	24	main_z	53	stimuli_distractor_diamondtriangles.svg	stimuli_target_diamondsquares.svg	32	yes	44	1	653	6	4	antiphase_hc_sio.wav	1	6	6	noise_calib_stim_RIGHT.wav	2	26	blb_dichoticlistening_pa-da.mp3	pa	da	1	left
6.6.1	and	2023-06-02	06:36:16	06:52:14	916024	63483c4522d65d46028da7a7	2	1	main_z	24	advance_on_keypress_ZEE	54	stimuli_distractor_diamondtriangles.svg	stimuli_target_diamondsquares.svg	32	yes	57	0	481	6	4	antiphase_hc_sio.wav	1	6	6	noise_calib_stim_RIGHT.wav	2	26	blb_dichoticlistening_pa-da.mp3	pa	da	1	left
6.6.1	and	2023-06-02	06:36:16	06:52:16	917570	63483c4522d65d46028da7a7	2	1	main_z	24	main_z	55	stimuli_target_rectangletriangles.svg	stimuli_distractor_diamondtriangles.svg	5	yes	44	1	431	6	4	antiphase_hc_sio.wav	1	6	6	noise_calib_stim_RIGHT.wav	2	26	blb_dichoticlistening_pa-da.mp3	pa	da	1	left
6.6.1	and	2023-06-02	06:36:16	06:52:16	917570	63483c4522d65d46028da7a7	2	1	main_z	24	advance_on_keypress_ZEE	56	stimuli_target_rectangletriangles.svg	stimuli_distractor_diamondtriangles.svg	5	yes	57	0	431	6	4	antiphase_hc_sio.wav	1	6	6	noise_calib_stim_RIGHT.wav	2	26	blb_dichoticlistening_pa-da.mp3	pa	da	1	left
6.6.1	and	2023-06-02	06:36:16	06:52:17	919050	63483c4522d65d46028da7a7	2	1	main_z	24	main_z	57	stimuli_distractor_diamondtriangles.svg	stimuli_target_trianglerectangles.svg	29	yes	44	1	418	6	4	antiphase_hc_sio.wav	1	6	6	noise_calib_stim_RIGHT.wav	2	26	blb_dichoticlistening_pa-da.mp3	pa	da	1	left
6.6.1	and	2023-06-02	06:36:16	06:52:17	919050	63483c4522d65d46028da7a7	2	1	main_z	24	advance_on_keypress_ZEE	58	stimuli_distractor_diamondtriangles.svg	stimuli_target_trianglerectangles.svg	29	yes	57	0	505	6	4	antiphase_hc_sio.wav	1	6	6	noise_calib_stim_RIGHT.wav	2	26	blb_dichoticlistening_pa-da.mp3	pa	da	1	left
6.6.1	and	2023-06-02	06:36:16	06:52:19	920765	63483c4522d65d46028da7a7	2	1	main_z	24	main_z	59	stimuli_distractor_trianglediamonds.svg	stimuli_distractor_trianglediamonds.svg	33	no	44	0	578	6	4	antiphase_hc_sio.wav	1	6	6	noise_calib_stim_RIGHT.wav	2	26	blb_dichoticlistening_pa-da.mp3	pa	da	1	left
6.6.1	and	2023-06-02	06:36:16	06:52:19	920765	63483c4522d65d46028da7a7	2	1	main_z	24	advance_on_keypress_ZEE	60	stimuli_distractor_trianglediamonds.svg	stimuli_distractor_trianglediamonds.svg	33	no	57	0	1211	6	4	antiphase_hc_sio.wav	1	6	6	noise_calib_stim_RIGHT.wav	2	26	blb_dichoticlistening_pa-da.mp3	pa	da	1	left
6.6.1	and	2023-06-02	06:36:16	06:52:22	923126	63483c4522d65d46028da7a7	2	1	main_z	24	main_z	61	stimuli_distractor_trianglediamonds.svg	stimuli_target_rectanglediamonds.svg	10	yes	44	1	515	6	4	antiphase_hc_sio.wav	1	6	6	noise_calib_stim_RIGHT.wav	2	26	blb_dichoticlistening_pa-da.mp3	pa	da	1	left
6.6.1	and	2023-06-02	06:36:16	06:52:22	923126	63483c4522d65d46028da7a7	2	1	main_z	24	advance_on_keypress_ZEE	62	stimuli_distractor_trianglediamonds.svg	stimuli_target_rectanglediamonds.svg	10	yes	57	0	1353	6	4	antiphase_hc_sio.wav	1	6	6	noise_calib_stim_RIGHT.wav	2	26	blb_dichoticlistening_pa-da.mp3	pa	da	1	left
6.6.1	and	2023-06-02	06:36:16	06:52:24	925719	63483c4522d65d46028da7a7	2	1	main_z	24	main_z	63	stimuli_target_trianglesquares.svg	stimuli_distractor_diamondtriangles.svg	22	yes	44	1	591	6	4	antiphase_hc_sio.wav	1	6	6	noise_calib_stim_RIGHT.wav	2	26	blb_dichoticlistening_pa-da.mp3	pa	da	1	left
6.6.1	and	2023-06-02	06:36:16	06:52:24	925719	63483c4522d65d46028da7a7	2	1	main_z	24	advance_on_keypress_ZEE	64	stimuli_target_trianglesquares.svg	stimuli_distractor_diamondtriangles.svg	22	yes	57	0	540	6	4	antiphase_hc_sio.wav	1	6	6	noise_calib_stim_RIGHT.wav	2	26	blb_dichoticlistening_pa-da.mp3	pa	da	1	left
6.6.1	and	2023-06-02	06:36:16	06:52:26	927394	63483c4522d65d46028da7a7	2	1	main_z	24	main_z	65	stimuli_target_squaretriangles.svg	stimuli_distractor_diamondtriangles.svg	7	yes	44	1	487	6	4	antiphase_hc_sio.wav	1	6	6	noise_calib_stim_RIGHT.wav	2	26	blb_dichoticlistening_pa-da.mp3	pa	da	1	left
6.6.1	and	2023-06-02	06:36:16	06:52:26	927394	63483c4522d65d46028da7a7	2	1	main_z	24	advance_on_keypress_ZEE	66	stimuli_target_squaretriangles.svg	stimuli_distractor_diamondtriangles.svg	7	yes	57	0	524	6	4	antiphase_hc_sio.wav	1	6	6	noise_calib_stim_RIGHT.wav	2	26	blb_dichoticlistening_pa-da.mp3	pa	da	1	left
6.6.1	and	2023-06-02	06:36:16	06:52:29	930539	63483c4522d65d46028da7a7	2	1	main_z	24	main_z	67	stimuli_distractor_diamondtriangles.svg	stimuli_distractor_trianglediamonds.svg	38	no	0	1	2000	6	4	antiphase_hc_sio.wav	1	6	6	noise_calib_stim_RIGHT.wav	2	26	blb_dichoticlistening_pa-da.mp3	pa	da	1	left
6.6.1	and	2023-06-02	06:36:16	06:52:29	930539	63483c4522d65d46028da7a7	2	1	main_z	24	advance_on_keypress_ZEE	68	stimuli_distractor_diamondtriangles.svg	stimuli_distractor_trianglediamonds.svg	38	no	57	0	311	6	4	antiphase_hc_sio.wav	1	6	6	noise_calib_stim_RIGHT.wav	2	26	blb_dichoticlistening_pa-da.mp3	pa	da	1	left
6.6.1	and	2023-06-02	06:36:16	06:52:30	931834	63483c4522d65d46028da7a7	2	1	main_z	24	main_z	69	stimuli_target_rectanglediamonds.svg	stimuli_distractor_trianglediamonds.svg	2	yes	44	1	343	6	4	antiphase_hc_sio.wav	1	6	6	noise_calib_stim_RIGHT.wav	2	26	blb_dichoticlistening_pa-da.mp3	pa	da	1	left
6.6.1	and	2023-06-02	06:36:16	06:52:30	931834	63483c4522d65d46028da7a7	2	1	main_z	24	advance_on_keypress_ZEE	70	stimuli_target_rectanglediamonds.svg	stimuli_distractor_trianglediamonds.svg	2	yes	57	0	581	6	4	antiphase_hc_sio.wav	1	6	6	noise_calib_stim_RIGHT.wav	2	26	blb_dichoticlistening_pa-da.mp3	pa	da	1	left
6.6.1	and	2023-06-02	06:36:16	06:52:32	933650	63483c4522d65d46028da7a7	2	1	main_z	24	main_z	71	stimuli_target_trianglerectangles.svg	stimuli_distractor_diamondtriangles.svg	21	yes	44	1	596	6	4	antiphase_hc_sio.wav	1	6	6	noise_calib_stim_RIGHT.wav	2	26	blb_dichoticlistening_pa-da.mp3	pa	da	1	left
6.6.1	and	2023-06-02	06:36:16	06:52:32	933650	63483c4522d65d46028da7a7	2	1	main_z	24	advance_on_keypress_ZEE	72	stimuli_target_trianglerectangles.svg	stimuli_distractor_diamondtriangles.svg	21	yes	57	0	1523	6	4	antiphase_hc_sio.wav	1	6	6	noise_calib_stim_RIGHT.wav	2	26	blb_dichoticlistening_pa-da.mp3	pa	da	1	left
6.6.1	and	2023-06-02	06:36:16	06:52:35	936253	63483c4522d65d46028da7a7	2	1	main_z	24	main_z	73	stimuli_distractor_diamondtriangles.svg	stimuli_target_squaretriangles.svg	15	yes	44	1	435	6	4	antiphase_hc_sio.wav	1	6	6	noise_calib_stim_RIGHT.wav	2	26	blb_dichoticlistening_pa-da.mp3	pa	da	1	left
6.6.1	and	2023-06-02	06:36:16	06:52:35	936253	63483c4522d65d46028da7a7	2	1	main_z	24	advance_on_keypress_ZEE	74	stimuli_distractor_diamondtriangles.svg	stimuli_target_squaretriangles.svg	15	yes	57	0	551	6	4	antiphase_hc_sio.wav	1	6	6	noise_calib_stim_RIGHT.wav	2	26	blb_dichoticlistening_pa-da.mp3	pa	da	1	left
6.6.1	and	2023-06-02	06:36:16	06:52:36	938011	63483c4522d65d46028da7a7	2	1	main_z	24	main_z	75	stimuli_target_diamondsquares.svg	stimuli_distractor_diamondtriangles.svg	24	yes	44	1	580	6	4	antiphase_hc_sio.wav	1	6	6	noise_calib_stim_RIGHT.wav	2	26	blb_dichoticlistening_pa-da.mp3	pa	da	1	left
6.6.1	and	2023-06-02	06:36:16	06:52:36	938011	63483c4522d65d46028da7a7	2	1	main_z	24	advance_on_keypress_ZEE	76	stimuli_target_diamondsquares.svg	stimuli_distractor_diamondtriangles.svg	24	yes	57	0	550	6	4	antiphase_hc_sio.wav	1	6	6	noise_calib_stim_RIGHT.wav	2	26	blb_dichoticlistening_pa-da.mp3	pa	da	1	left
6.6.1	and	2023-06-02	06:36:16	06:52:38	939595	63483c4522d65d46028da7a7	2	1	main_z	24	main_z	77	stimuli_target_diamondsquares.svg	stimuli_distractor_trianglediamonds.svg	20	yes	44	1	390	6	4	antiphase_hc_sio.wav	1	6	6	noise_calib_stim_RIGHT.wav	2	26	blb_dichoticlistening_pa-da.mp3	pa	da	1	left
6.6.1	and	2023-06-02	06:36:16	06:52:38	939595	63483c4522d65d46028da7a7	2	1	main_z	24	advance_on_keypress_ZEE	78	stimuli_target_diamondsquares.svg	stimuli_distractor_trianglediamonds.svg	20	yes	57	0	1134	6	4	antiphase_hc_sio.wav	1	6	6	noise_calib_stim_RIGHT.wav	2	26	blb_dichoticlistening_pa-da.mp3	pa	da	1	left
6.6.1	and	2023-06-02	06:36:16	06:52:41	942281	63483c4522d65d46028da7a7	2	1	main_z	24	main_z	79	stimuli_target_trianglerectangles.svg	stimuli_distractor_trianglediamonds.svg	17	yes	44	1	900	6	4	antiphase_hc_sio.wav	1	6	6	noise_calib_stim_RIGHT.wav	2	26	blb_dichoticlistening_pa-da.mp3	pa	da	1	left
6.6.1	and	2023-06-02	06:36:16	06:52:41	942281	63483c4522d65d46028da7a7	2	1	main_z	24	advance_on_keypress_ZEE	80	stimuli_target_trianglerectangles.svg	stimuli_distractor_trianglediamonds.svg	17	yes	57	0	616	6	4	antiphase_hc_sio.wav	1	6	6	noise_calib_stim_RIGHT.wav	2	26	blb_dichoticlistening_pa-da.mp3	pa	da	1	left
6.6.1	and	2023-06-02	06:36:16	06:52:44	945238	63483c4522d65d46028da7a7	2	1	main_z	24	main_z	81	stimuli_distractor_trianglediamonds.svg	stimuli_distractor_trianglediamonds.svg	33	no	44	0	1710	6	4	antiphase_hc_sio.wav	1	6	6	noise_calib_stim_RIGHT.wav	2	26	blb_dichoticlistening_pa-da.mp3	pa	da	1	left
6.6.1	and	2023-06-02	06:36:16	06:52:44	945238	63483c4522d65d46028da7a7	2	1	main_z	24	advance_on_keypress_ZEE	82	stimuli_distractor_trianglediamonds.svg	stimuli_distractor_trianglediamonds.svg	33	no	57	0	572	6	4	antiphase_hc_sio.wav	1	6	6	noise_calib_stim_RIGHT.wav	2	26	blb_dichoticlistening_pa-da.mp3	pa	da	1	left
6.6.1	and	2023-06-02	06:36:16	06:52:45	946802	63483c4522d65d46028da7a7	2	1	main_z	24	main_z	83	stimuli_target_squarediamonds.svg	stimuli_distractor_diamondtriangles.svg	8	yes	44	1	344	6	4	antiphase_hc_sio.wav	1	6	6	noise_calib_stim_RIGHT.wav	2	26	blb_dichoticlistening_pa-da.mp3	pa	da	1	left
6.6.1	and	2023-06-02	06:36:16	06:52:45	946802	63483c4522d65d46028da7a7	2	1	main_z	24	advance_on_keypress_ZEE	84	stimuli_target_squarediamonds.svg	stimuli_distractor_diamondtriangles.svg	8	yes	57	0	611	6	4	antiphase_hc_sio.wav	1	6	6	noise_calib_stim_RIGHT.wav	2	26	blb_dichoticlistening_pa-da.mp3	pa	da	1	left
6.6.1	and	2023-06-02	06:36:16	06:52:47	948637	63483c4522d65d46028da7a7	2	1	main_z	24	main_z	85	stimuli_target_diamondrectangles.svg	stimuli_distractor_diamondtriangles.svg	23	yes	44	1	578	6	4	antiphase_hc_sio.wav	1	6	6	noise_calib_stim_RIGHT.wav	2	26	blb_dichoticlistening_pa-da.mp3	pa	da	1	left
6.6.1	and	2023-06-02	06:36:16	06:52:47	948637	63483c4522d65d46028da7a7	2	1	main_z	24	advance_on_keypress_ZEE	86	stimuli_target_diamondrectangles.svg	stimuli_distractor_diamondtriangles.svg	23	yes	57	0	653	6	4	antiphase_hc_sio.wav	1	6	6	noise_calib_stim_RIGHT.wav	2	26	blb_dichoticlistening_pa-da.mp3	pa	da	1	left
6.6.1	and	2023-06-02	06:36:16	06:52:49	950653	63483c4522d65d46028da7a7	2	1	main_z	24	main_z	87	stimuli_target_trianglesquares.svg	stimuli_distractor_diamondtriangles.svg	22	yes	44	1	728	6	4	antiphase_hc_sio.wav	1	6	6	noise_calib_stim_RIGHT.wav	2	26	blb_dichoticlistening_pa-da.mp3	pa	da	1	left
6.6.1	and	2023-06-02	06:36:16	06:52:49	950653	63483c4522d65d46028da7a7	2	1	main_z	24	advance_on_keypress_ZEE	88	stimuli_target_trianglesquares.svg	stimuli_distractor_diamondtriangles.svg	22	yes	57	0	552	6	4	antiphase_hc_sio.wav	1	6	6	noise_calib_stim_RIGHT.wav	2	26	blb_dichoticlistening_pa-da.mp3	pa	da	1	left
6.6.1	and	2023-06-02	06:36:16	06:52:51	952332	63483c4522d65d46028da7a7	2	1	main_z	24	main_z	89	stimuli_target_rectangletriangles.svg	stimuli_distractor_trianglediamonds.svg	1	yes	44	1	494	6	4	antiphase_hc_sio.wav	1	6	6	noise_calib_stim_RIGHT.wav	2	26	blb_dichoticlistening_pa-da.mp3	pa	da	1	left
6.6.1	and	2023-06-02	06:36:16	06:52:51	952332	63483c4522d65d46028da7a7	2	1	main_z	24	advance_on_keypress_ZEE	90	stimuli_target_rectangletriangles.svg	stimuli_distractor_trianglediamonds.svg	1	yes	57	0	605	6	4	antiphase_hc_sio.wav	1	6	6	noise_calib_stim_RIGHT.wav	2	26	blb_dichoticlistening_pa-da.mp3	pa	da	1	left
6.6.1	and	2023-06-02	06:36:16	06:52:53	954161	63483c4522d65d46028da7a7	2	1	main_z	24	main_z	91	stimuli_distractor_diamondtriangles.svg	stimuli_distractor_diamondtriangles.svg	39	no	44	0	593	6	4	antiphase_hc_sio.wav	1	6	6	noise_calib_stim_RIGHT.wav	2	26	blb_dichoticlistening_pa-da.mp3	pa	da	1	left
6.6.1	and	2023-06-02	06:36:16	06:52:53	954161	63483c4522d65d46028da7a7	2	1	main_z	24	advance_on_keypress_ZEE	92	stimuli_distractor_diamondtriangles.svg	stimuli_distractor_diamondtriangles.svg	39	no	57	0	819	6	4	antiphase_hc_sio.wav	1	6	6	noise_calib_stim_RIGHT.wav	2	26	blb_dichoticlistening_pa-da.mp3	pa	da	1	left
6.6.1	and	2023-06-02	06:36:16	06:52:55	956172	63483c4522d65d46028da7a7	2	1	main_z	24	main_z	93	stimuli_distractor_diamondtriangles.svg	stimuli_distractor_trianglediamonds.svg	37	no	44	0	553	6	4	antiphase_hc_sio.wav	1	6	6	noise_calib_stim_RIGHT.wav	2	26	blb_dichoticlistening_pa-da.mp3	pa	da	1	left
6.6.1	and	2023-06-02	06:36:16	06:52:55	956172	63483c4522d65d46028da7a7	2	1	main_z	24	advance_on_keypress_ZEE	94	stimuli_distractor_diamondtriangles.svg	stimuli_distractor_trianglediamonds.svg	37	no	57	0	523	6	4	antiphase_hc_sio.wav	1	6	6	noise_calib_stim_RIGHT.wav	2	26	blb_dichoticlistening_pa-da.mp3	pa	da	1	left
6.6.1	and	2023-06-02	06:36:16	06:52:56	957760	63483c4522d65d46028da7a7	2	1	main_z	24	main_z	95	stimuli_distractor_trianglediamonds.svg	stimuli_target_rectangletriangles.svg	9	yes	44	1	412	6	4	antiphase_hc_sio.wav	1	6	6	noise_calib_stim_RIGHT.wav	2	26	blb_dichoticlistening_pa-da.mp3	pa	da	1	left
6.6.1	and	2023-06-02	06:36:16	06:52:56	957760	63483c4522d65d46028da7a7	2	1	main_z	24	advance_on_keypress_ZEE	96	stimuli_distractor_trianglediamonds.svg	stimuli_target_rectangletriangles.svg	9	yes	57	0	1303	6	4	antiphase_hc_sio.wav	1	6	6	noise_calib_stim_RIGHT.wav	2	26	blb_dichoticlistening_pa-da.mp3	pa	da	1	left
6.6.1	and	2023-06-02	06:36:16	06:52:58	959965	63483c4522d65d46028da7a7	2	1	main_z	24	main_z	97	stimuli_distractor_trianglediamonds.svg	stimuli_target_diamondrectangles.svg	27	yes	44	1	275	6	4	antiphase_hc_sio.wav	1	6	6	noise_calib_stim_RIGHT.wav	2	26	blb_dichoticlistening_pa-da.mp3	pa	da	1	left
6.6.1	and	2023-06-02	06:36:16	06:52:58	959965	63483c4522d65d46028da7a7	2	1	main_z	24	advance_on_keypress_ZEE	98	stimuli_distractor_trianglediamonds.svg	stimuli_target_diamondrectangles.svg	27	yes	57	0	561	6	4	antiphase_hc_sio.wav	1	6	6	noise_calib_stim_RIGHT.wav	2	26	blb_dichoticlistening_pa-da.mp3	pa	da	1	left
6.6.1	and	2023-06-02	06:36:16	06:53:00	961653	63483c4522d65d46028da7a7	2	1	main_z	24	main_z	99	stimuli_target_diamondrectangles.svg	stimuli_distractor_trianglediamonds.svg	19	yes	44	1	480	6	4	antiphase_hc_sio.wav	1	6	6	noise_calib_stim_RIGHT.wav	2	26	blb_dichoticlistening_pa-da.mp3	pa	da	1	left
6.6.1	and	2023-06-02	06:36:16	06:53:00	961653	63483c4522d65d46028da7a7	2	1	main_z	24	advance_on_keypress_ZEE	100	stimuli_target_diamondrectangles.svg	stimuli_distractor_trianglediamonds.svg	19	yes	57	0	748	6	4	antiphase_hc_sio.wav	1	6	6	noise_calib_stim_RIGHT.wav	2	26	blb_dichoticlistening_pa-da.mp3	pa	da	1	left
6.6.1	and	2023-06-02	06:36:16	06:53:02	963394	63483c4522d65d46028da7a7	2	1	main_z	24	main_z	101	stimuli_target_squarediamonds.svg	stimuli_distractor_trianglediamonds.svg	4	yes	44	1	357	6	4	antiphase_hc_sio.wav	1	6	6	noise_calib_stim_RIGHT.wav	2	26	blb_dichoticlistening_pa-da.mp3	pa	da	1	left
6.6.1	and	2023-06-02	06:36:16	06:53:02	963394	63483c4522d65d46028da7a7	2	1	main_z	24	advance_on_keypress_ZEE	102	stimuli_target_squarediamonds.svg	stimuli_distractor_trianglediamonds.svg	4	yes	57	0	890	6	4	antiphase_hc_sio.wav	1	6	6	noise_calib_stim_RIGHT.wav	2	26	blb_dichoticlistening_pa-da.mp3	pa	da	1	left
6.6.1	and	2023-06-02	06:36:16	06:53:04	965499	63483c4522d65d46028da7a7	2	1	main_z	24	main_z	103	stimuli_distractor_trianglediamonds.svg	stimuli_target_diamondsquares.svg	28	yes	44	1	576	6	4	antiphase_hc_sio.wav	1	6	6	noise_calib_stim_RIGHT.wav	2	26	blb_dichoticlistening_pa-da.mp3	pa	da	1	left
6.6.1	and	2023-06-02	06:36:16	06:53:04	965499	63483c4522d65d46028da7a7	2	1	main_z	24	advance_on_keypress_ZEE	104	stimuli_distractor_trianglediamonds.svg	stimuli_target_diamondsquares.svg	28	yes	57	0	594	6	4	antiphase_hc_sio.wav	1	6	6	noise_calib_stim_RIGHT.wav	2	26	blb_dichoticlistening_pa-da.mp3	pa	da	1	left
6.6.1	and	2023-06-02	06:36:16	06:53:06	967173	63483c4522d65d46028da7a7	2	1	main_z	24	main_z	105	stimuli_distractor_diamondtriangles.svg	stimuli_target_diamondrectangles.svg	31	yes	44	1	434	6	4	antiphase_hc_sio.wav	1	6	6	noise_calib_stim_RIGHT.wav	2	26	blb_dichoticlistening_pa-da.mp3	pa	da	1	left
6.6.1	and	2023-06-02	06:36:16	06:53:06	967173	63483c4522d65d46028da7a7	2	1	main_z	24	advance_on_keypress_ZEE	106	stimuli_distractor_diamondtriangles.svg	stimuli_target_diamondrectangles.svg	31	yes	57	0	546	6	4	antiphase_hc_sio.wav	1	6	6	noise_calib_stim_RIGHT.wav	2	26	blb_dichoticlistening_pa-da.mp3	pa	da	1	left
6.6.1	and	2023-06-02	06:36:16	06:53:07	968687	63483c4522d65d46028da7a7	2	1	main_z	24	main_z	107	stimuli_distractor_trianglediamonds.svg	stimuli_distractor_diamondtriangles.svg	35	no	44	0	334	6	4	antiphase_hc_sio.wav	1	6	6	noise_calib_stim_RIGHT.wav	2	26	blb_dichoticlistening_pa-da.mp3	pa	da	1	left
6.6.1	and	2023-06-02	06:36:16	06:53:07	968687	63483c4522d65d46028da7a7	2	1	main_z	24	advance_on_keypress_ZEE	108	stimuli_distractor_trianglediamonds.svg	stimuli_distractor_diamondtriangles.svg	35	no	57	0	705	6	4	antiphase_hc_sio.wav	1	6	6	noise_calib_stim_RIGHT.wav	2	26	blb_dichoticlistening_pa-da.mp3	pa	da	1	left
6.6.1	and	2023-06-02	06:36:16	06:53:09	970659	63483c4522d65d46028da7a7	2	1	main_z	24	main_z	109	stimuli_distractor_diamondtriangles.svg	stimuli_target_diamondsquares.svg	32	yes	44	1	618	6	4	antiphase_hc_sio.wav	1	6	6	noise_calib_stim_RIGHT.wav	2	26	blb_dichoticlistening_pa-da.mp3	pa	da	1	left
6.6.1	and	2023-06-02	06:36:16	06:53:09	970659	63483c4522d65d46028da7a7	2	1	main_z	24	advance_on_keypress_ZEE	110	stimuli_distractor_diamondtriangles.svg	stimuli_target_diamondsquares.svg	32	yes	57	0	890	6	4	antiphase_hc_sio.wav	1	6	6	noise_calib_stim_RIGHT.wav	2	26	blb_dichoticlistening_pa-da.mp3	pa	da	1	left
6.6.1	and	2023-06-02	06:36:16	06:53:11	972661	63483c4522d65d46028da7a7	2	1	main_z	24	main_z	111	stimuli_target_rectanglediamonds.svg	stimuli_distractor_diamondtriangles.svg	6	yes	44	1	482	6	4	antiphase_hc_sio.wav	1	6	6	noise_calib_stim_RIGHT.wav	2	26	blb_dichoticlistening_pa-da.mp3	pa	da	1	left
6.6.1	and	2023-06-02	06:36:16	06:53:11	972661	63483c4522d65d46028da7a7	2	1	main_z	24	advance_on_keypress_ZEE	112	stimuli_target_rectanglediamonds.svg	stimuli_distractor_diamondtriangles.svg	6	yes	57	0	583	6	4	antiphase_hc_sio.wav	1	6	6	noise_calib_stim_RIGHT.wav	2	26	blb_dichoticlistening_pa-da.mp3	pa	da	1	left
6.6.1	and	2023-06-02	06:36:16	06:53:13	974242	63483c4522d65d46028da7a7	2	1	main_z	24	main_z	113	stimuli_distractor_diamondtriangles.svg	stimuli_target_trianglesquares.svg	30	yes	44	1	364	6	4	antiphase_hc_sio.wav	1	6	6	noise_calib_stim_RIGHT.wav	2	26	blb_dichoticlistening_pa-da.mp3	pa	da	1	left
6.6.1	and	2023-06-02	06:36:16	06:53:13	974242	63483c4522d65d46028da7a7	2	1	main_z	24	advance_on_keypress_ZEE	114	stimuli_distractor_diamondtriangles.svg	stimuli_target_trianglesquares.svg	30	yes	57	0	588	6	4	antiphase_hc_sio.wav	1	6	6	noise_calib_stim_RIGHT.wav	2	26	blb_dichoticlistening_pa-da.mp3	pa	da	1	left
6.6.1	and	2023-06-02	06:36:16	06:53:14	975834	63483c4522d65d46028da7a7	2	1	main_z	24	main_z	115	stimuli_distractor_trianglediamonds.svg	stimuli_distractor_trianglediamonds.svg	34	no	44	0	356	6	4	antiphase_hc_sio.wav	1	6	6	noise_calib_stim_RIGHT.wav	2	26	blb_dichoticlistening_pa-da.mp3	pa	da	1	left
6.6.1	and	2023-06-02	06:36:16	06:53:14	975834	63483c4522d65d46028da7a7	2	1	main_z	24	advance_on_keypress_ZEE	116	stimuli_distractor_trianglediamonds.svg	stimuli_distractor_trianglediamonds.svg	34	no	57	0	1034	6	4	antiphase_hc_sio.wav	1	6	6	noise_calib_stim_RIGHT.wav	2	26	blb_dichoticlistening_pa-da.mp3	pa	da	1	left
6.6.1	and	2023-06-02	06:36:16	06:53:16	978032	63483c4522d65d46028da7a7	2	1	main_z	24	main_z	117	stimuli_target_diamondsquares.svg	stimuli_distractor_diamondtriangles.svg	24	yes	44	1	523	6	4	antiphase_hc_sio.wav	1	6	6	noise_calib_stim_RIGHT.wav	2	26	blb_dichoticlistening_pa-da.mp3	pa	da	1	left
6.6.1	and	2023-06-02	06:36:16	06:53:16	978032	63483c4522d65d46028da7a7	2	1	main_z	24	advance_on_keypress_ZEE	118	stimuli_target_diamondsquares.svg	stimuli_distractor_diamondtriangles.svg	24	yes	57	0	879	6	4	antiphase_hc_sio.wav	1	6	6	noise_calib_stim_RIGHT.wav	2	26	blb_dichoticlistening_pa-da.mp3	pa	da	1	left
6.6.1	and	2023-06-02	06:36:16	06:53:18	979897	63483c4522d65d46028da7a7	2	1	main_z	24	main_z	119	stimuli_target_rectanglediamonds.svg	stimuli_distractor_trianglediamonds.svg	2	yes	44	1	340	6	4	antiphase_hc_sio.wav	1	6	6	noise_calib_stim_RIGHT.wav	2	26	blb_dichoticlistening_pa-da.mp3	pa	da	1	left
6.6.1	and	2023-06-02	06:36:16	06:53:18	979897	63483c4522d65d46028da7a7	2	1	main_z	24	advance_on_keypress_ZEE	120	stimuli_target_rectanglediamonds.svg	stimuli_distractor_trianglediamonds.svg	2	yes	57	0	812	6	4	antiphase_hc_sio.wav	1	6	6	noise_calib_stim_RIGHT.wav	2	26	blb_dichoticlistening_pa-da.mp3	pa	da	1	left
6.6.1	and	2023-06-02	06:36:16	06:53:21	982135	63483c4522d65d46028da7a7	2	1	main_z	24	main_z	121	stimuli_distractor_trianglediamonds.svg	stimuli_target_trianglerectangles.svg	25	yes	44	1	779	6	4	antiphase_hc_sio.wav	1	6	6	noise_calib_stim_RIGHT.wav	2	26	blb_dichoticlistening_pa-da.mp3	pa	da	1	left
6.6.1	and	2023-06-02	06:36:16	06:53:21	982135	63483c4522d65d46028da7a7	2	1	main_z	24	advance_on_keypress_ZEE	122	stimuli_distractor_trianglediamonds.svg	stimuli_target_trianglerectangles.svg	25	yes	57	0	1451	6	4	antiphase_hc_sio.wav	1	6	6	noise_calib_stim_RIGHT.wav	2	26	blb_dichoticlistening_pa-da.mp3	pa	da	1	left
6.6.1	and	2023-06-02	06:36:16	06:53:23	984771	63483c4522d65d46028da7a7	2	1	main_z	24	main_z	123	stimuli_target_trianglesquares.svg	stimuli_distractor_trianglediamonds.svg	18	yes	44	1	554	6	4	antiphase_hc_sio.wav	1	6	6	noise_calib_stim_RIGHT.wav	2	26	blb_dichoticlistening_pa-da.mp3	pa	da	1	left
6.6.1	and	2023-06-02	06:36:16	06:53:23	984771	63483c4522d65d46028da7a7	2	1	main_z	24	advance_on_keypress_ZEE	124	stimuli_target_trianglesquares.svg	stimuli_distractor_trianglediamonds.svg	18	yes	57	0	1692	6	4	antiphase_hc_sio.wav	1	6	6	noise_calib_stim_RIGHT.wav	2	26	blb_dichoticlistening_pa-da.mp3	pa	da	1	left
6.6.1	and	2023-06-02	06:36:16	06:53:27	989100	63483c4522d65d46028da7a7	2	1	main_z	24	main_z	125	stimuli_distractor_trianglediamonds.svg	stimuli_distractor_diamondtriangles.svg	36	no	0	1	2000	6	4	antiphase_hc_sio.wav	1	6	6	noise_calib_stim_RIGHT.wav	2	26	blb_dichoticlistening_pa-da.mp3	pa	da	1	left
6.6.1	and	2023-06-02	06:36:16	06:53:27	989100	63483c4522d65d46028da7a7	2	1	main_z	24	advance_on_keypress_ZEE	126	stimuli_distractor_trianglediamonds.svg	stimuli_distractor_diamondtriangles.svg	36	no	57	0	551	6	4	antiphase_hc_sio.wav	1	6	6	noise_calib_stim_RIGHT.wav	2	26	blb_dichoticlistening_pa-da.mp3	pa	da	1	left
6.6.1	and	2023-06-02	06:36:16	06:53:29	990634	63483c4522d65d46028da7a7	2	1	main_z	24	main_z	127	stimuli_distractor_diamondtriangles.svg	stimuli_target_rectangletriangles.svg	13	yes	44	1	351	6	4	antiphase_hc_sio.wav	1	6	6	noise_calib_stim_RIGHT.wav	2	26	blb_dichoticlistening_pa-da.mp3	pa	da	1	left
6.6.1	and	2023-06-02	06:36:16	06:53:29	990634	63483c4522d65d46028da7a7	2	1	main_z	24	advance_on_keypress_ZEE	128	stimuli_distractor_diamondtriangles.svg	stimuli_target_rectangletriangles.svg	13	yes	57	0	1208	6	4	antiphase_hc_sio.wav	1	6	6	noise_calib_stim_RIGHT.wav	2	26	blb_dichoticlistening_pa-da.mp3	pa	da	1	left
6.6.1	and	2023-06-02	06:36:16	06:53:32	993260	63483c4522d65d46028da7a7	2	1	main_z	24	main_z	129	stimuli_distractor_diamondtriangles.svg	stimuli_distractor_trianglediamonds.svg	38	no	44	0	781	6	4	antiphase_hc_sio.wav	1	6	6	noise_calib_stim_RIGHT.wav	2	26	blb_dichoticlistening_pa-da.mp3	pa	da	1	left
6.6.1	and	2023-06-02	06:36:16	06:53:32	993260	63483c4522d65d46028da7a7	2	1	main_z	24	advance_on_keypress_ZEE	130	stimuli_distractor_diamondtriangles.svg	stimuli_distractor_trianglediamonds.svg	38	no	57	0	2544	6	4	antiphase_hc_sio.wav	1	6	6	noise_calib_stim_RIGHT.wav	2	26	blb_dichoticlistening_pa-da.mp3	pa	da	1	left
6.6.1	and	2023-06-02	06:36:16	06:53:35	996940	63483c4522d65d46028da7a7	2	1	main_z	24	main_z	131	stimuli_target_trianglerectangles.svg	stimuli_distractor_diamondtriangles.svg	21	yes	44	1	501	6	4	antiphase_hc_sio.wav	1	6	6	noise_calib_stim_RIGHT.wav	2	26	blb_dichoticlistening_pa-da.mp3	pa	da	1	left
6.6.1	and	2023-06-02	06:36:16	06:53:35	996940	63483c4522d65d46028da7a7	2	1	main_z	24	advance_on_keypress_ZEE	132	stimuli_target_trianglerectangles.svg	stimuli_distractor_diamondtriangles.svg	21	yes	57	0	784	6	4	antiphase_hc_sio.wav	1	6	6	noise_calib_stim_RIGHT.wav	2	26	blb_dichoticlistening_pa-da.mp3	pa	da	1	left
6.6.1	and	2023-06-02	06:36:16	06:53:38	999459	63483c4522d65d46028da7a7	2	1	main_z	24	main_z	133	stimuli_distractor_diamondtriangles.svg	stimuli_target_rectanglediamonds.svg	14	yes	44	1	1089	6	4	antiphase_hc_sio.wav	1	6	6	noise_calib_stim_RIGHT.wav	2	26	blb_dichoticlistening_pa-da.mp3	pa	da	1	left
6.6.1	and	2023-06-02	06:36:16	06:53:38	999459	63483c4522d65d46028da7a7	2	1	main_z	24	advance_on_keypress_ZEE	134	stimuli_distractor_diamondtriangles.svg	stimuli_target_rectanglediamonds.svg	14	yes	57	0	1292	6	4	antiphase_hc_sio.wav	1	6	6	noise_calib_stim_RIGHT.wav	2	26	blb_dichoticlistening_pa-da.mp3	pa	da	1	left
6.6.1	and	2023-06-02	06:36:16	06:53:41	1002140	63483c4522d65d46028da7a7	2	1	main_z	24	main_z	135	stimuli_distractor_trianglediamonds.svg	stimuli_target_rectanglediamonds.svg	10	yes	44	1	756	6	4	antiphase_hc_sio.wav	1	6	6	noise_calib_stim_RIGHT.wav	2	26	blb_dichoticlistening_pa-da.mp3	pa	da	1	left
6.6.1	and	2023-06-02	06:36:16	06:53:41	1002140	63483c4522d65d46028da7a7	2	1	main_z	24	advance_on_keypress_ZEE	136	stimuli_distractor_trianglediamonds.svg	stimuli_target_rectanglediamonds.svg	10	yes	57	0	866	6	4	antiphase_hc_sio.wav	1	6	6	noise_calib_stim_RIGHT.wav	2	26	blb_dichoticlistening_pa-da.mp3	pa	da	1	left
6.6.1	and	2023-06-02	06:36:16	06:53:43	1004403	63483c4522d65d46028da7a7	2	1	main_z	24	main_z	137	stimuli_distractor_diamondtriangles.svg	stimuli_target_squarediamonds.svg	16	yes	44	1	748	6	4	antiphase_hc_sio.wav	1	6	6	noise_calib_stim_RIGHT.wav	2	26	blb_dichoticlistening_pa-da.mp3	pa	da	1	left
6.6.1	and	2023-06-02	06:36:16	06:53:43	1004403	63483c4522d65d46028da7a7	2	1	main_z	24	advance_on_keypress_ZEE	138	stimuli_distractor_diamondtriangles.svg	stimuli_target_squarediamonds.svg	16	yes	57	0	911	6	4	antiphase_hc_sio.wav	1	6	6	noise_calib_stim_RIGHT.wav	2	26	blb_dichoticlistening_pa-da.mp3	pa	da	1	left
6.6.1	and	2023-06-02	06:36:16	06:53:45	1006537	63483c4522d65d46028da7a7	2	1	main_z	24	main_z	139	stimuli_distractor_diamondtriangles.svg	stimuli_distractor_diamondtriangles.svg	40	no	44	0	586	6	4	antiphase_hc_sio.wav	1	6	6	noise_calib_stim_RIGHT.wav	2	26	blb_dichoticlistening_pa-da.mp3	pa	da	1	left
6.6.1	and	2023-06-02	06:36:16	06:53:45	1006537	63483c4522d65d46028da7a7	2	1	main_z	24	advance_on_keypress_ZEE	140	stimuli_distractor_diamondtriangles.svg	stimuli_distractor_diamondtriangles.svg	40	no	57	0	1154	6	4	antiphase_hc_sio.wav	1	6	6	noise_calib_stim_RIGHT.wav	2	26	blb_dichoticlistening_pa-da.mp3	pa	da	1	left
6.6.1	and	2023-06-02	06:36:16	06:53:48	1009353	63483c4522d65d46028da7a7	2	1	main_z	24	main_z	141	stimuli_target_trianglerectangles.svg	stimuli_distractor_trianglediamonds.svg	17	yes	44	1	1007	6	4	antiphase_hc_sio.wav	1	6	6	noise_calib_stim_RIGHT.wav	2	26	blb_dichoticlistening_pa-da.mp3	pa	da	1	left
6.6.1	and	2023-06-02	06:36:16	06:53:48	1009353	63483c4522d65d46028da7a7	2	1	main_z	24	advance_on_keypress_ZEE	142	stimuli_target_trianglerectangles.svg	stimuli_distractor_trianglediamonds.svg	17	yes	57	0	847	6	4	antiphase_hc_sio.wav	1	6	6	noise_calib_stim_RIGHT.wav	2	26	blb_dichoticlistening_pa-da.mp3	pa	da	1	left
6.6.1	and	2023-06-02	06:36:16	06:53:50	1011580	63483c4522d65d46028da7a7	2	1	main_z	24	main_z	143	stimuli_distractor_diamondtriangles.svg	stimuli_target_trianglerectangles.svg	29	yes	44	1	739	6	4	antiphase_hc_sio.wav	1	6	6	noise_calib_stim_RIGHT.wav	2	26	blb_dichoticlistening_pa-da.mp3	pa	da	1	left
6.6.1	and	2023-06-02	06:36:16	06:53:50	1011580	63483c4522d65d46028da7a7	2	1	main_z	24	advance_on_keypress_ZEE	144	stimuli_distractor_diamondtriangles.svg	stimuli_target_trianglerectangles.svg	29	yes	57	0	833	6	4	antiphase_hc_sio.wav	1	6	6	noise_calib_stim_RIGHT.wav	2	26	blb_dichoticlistening_pa-da.mp3	pa	da	1	left
6.6.1	and	2023-06-02	06:36:16	06:53:52	1013626	63483c4522d65d46028da7a7	2	1	main_z	24	main_z	145	stimuli_target_squaretriangles.svg	stimuli_distractor_trianglediamonds.svg	3	yes	44	1	581	6	4	antiphase_hc_sio.wav	1	6	6	noise_calib_stim_RIGHT.wav	2	26	blb_dichoticlistening_pa-da.mp3	pa	da	1	left
6.6.1	and	2023-06-02	06:36:16	06:53:52	1013626	63483c4522d65d46028da7a7	2	1	main_z	24	advance_on_keypress_ZEE	146	stimuli_target_squaretriangles.svg	stimuli_distractor_trianglediamonds.svg	3	yes	57	0	916	6	4	antiphase_hc_sio.wav	1	6	6	noise_calib_stim_RIGHT.wav	2	26	blb_dichoticlistening_pa-da.mp3	pa	da	1	left
6.6.1	and	2023-06-02	06:36:16	06:53:54	1015987	63483c4522d65d46028da7a7	2	1	main_z	24	main_z	147	stimuli_target_rectangletriangles.svg	stimuli_distractor_diamondtriangles.svg	5	yes	44	1	818	6	4	antiphase_hc_sio.wav	1	6	6	noise_calib_stim_RIGHT.wav	2	26	blb_dichoticlistening_pa-da.mp3	pa	da	1	left
6.6.1	and	2023-06-02	06:36:16	06:53:54	1015987	63483c4522d65d46028da7a7	2	1	main_z	24	advance_on_keypress_ZEE	148	stimuli_target_rectangletriangles.svg	stimuli_distractor_diamondtriangles.svg	5	yes	57	0	688	6	4	antiphase_hc_sio.wav	1	6	6	noise_calib_stim_RIGHT.wav	2	26	blb_dichoticlistening_pa-da.mp3	pa	da	1	left
6.6.1	and	2023-06-02	06:36:16	06:53:56	1018067	63483c4522d65d46028da7a7	2	1	main_z	24	main_z	149	stimuli_distractor_trianglediamonds.svg	stimuli_target_squarediamonds.svg	12	yes	44	1	766	6	4	antiphase_hc_sio.wav	1	6	6	noise_calib_stim_RIGHT.wav	2	26	blb_dichoticlistening_pa-da.mp3	pa	da	1	left
6.6.1	and	2023-06-02	06:36:16	06:53:56	1018067	63483c4522d65d46028da7a7	2	1	main_z	24	advance_on_keypress_ZEE	150	stimuli_distractor_trianglediamonds.svg	stimuli_target_squarediamonds.svg	12	yes	57	0	701	6	4	antiphase_hc_sio.wav	1	6	6	noise_calib_stim_RIGHT.wav	2	26	blb_dichoticlistening_pa-da.mp3	pa	da	1	left
6.6.1	and	2023-06-02	06:36:16	06:53:59	1020492	63483c4522d65d46028da7a7	2	1	main_z	24	main_z	151	stimuli_distractor_trianglediamonds.svg	stimuli_target_trianglesquares.svg	26	yes	44	1	1092	6	4	antiphase_hc_sio.wav	1	6	6	noise_calib_stim_RIGHT.wav	2	26	blb_dichoticlistening_pa-da.mp3	pa	da	1	left
6.6.1	and	2023-06-02	06:36:16	06:53:59	1020492	63483c4522d65d46028da7a7	2	1	main_z	24	advance_on_keypress_ZEE	152	stimuli_distractor_trianglediamonds.svg	stimuli_target_trianglesquares.svg	26	yes	57	0	862	6	4	antiphase_hc_sio.wav	1	6	6	noise_calib_stim_RIGHT.wav	2	26	blb_dichoticlistening_pa-da.mp3	pa	da	1	left
6.6.1	and	2023-06-02	06:36:16	06:54:01	1023033	63483c4522d65d46028da7a7	2	1	main_z	24	main_z	153	stimuli_target_squaretriangles.svg	stimuli_distractor_diamondtriangles.svg	7	yes	44	1	1034	6	4	antiphase_hc_sio.wav	1	6	6	noise_calib_stim_RIGHT.wav	2	26	blb_dichoticlistening_pa-da.mp3	pa	da	1	left
6.6.1	and	2023-06-02	06:36:16	06:54:01	1023033	63483c4522d65d46028da7a7	2	1	main_z	24	advance_on_keypress_ZEE	154	stimuli_target_squaretriangles.svg	stimuli_distractor_diamondtriangles.svg	7	yes	57	0	2381	6	4	antiphase_hc_sio.wav	1	6	6	noise_calib_stim_RIGHT.wav	2	26	blb_dichoticlistening_pa-da.mp3	pa	da	1	left
6.6.1	and	2023-06-02	06:36:16	06:54:06	1028045	63483c4522d65d46028da7a7	2	1	main_z	24	main_z	155	stimuli_target_diamondsquares.svg	stimuli_distractor_trianglediamonds.svg	20	yes	0	0	2000	6	4	antiphase_hc_sio.wav	1	6	6	noise_calib_stim_RIGHT.wav	2	26	blb_dichoticlistening_pa-da.mp3	pa	da	1	left
6.6.1	and	2023-06-02	06:36:16	06:54:06	1028045	63483c4522d65d46028da7a7	2	1	main_z	24	advance_on_keypress_ZEE	156	stimuli_target_diamondsquares.svg	stimuli_distractor_trianglediamonds.svg	20	yes	57	0	460	6	4	antiphase_hc_sio.wav	1	6	6	noise_calib_stim_RIGHT.wav	2	26	blb_dichoticlistening_pa-da.mp3	pa	da	1	left
6.6.1	and	2023-06-02	06:36:16	06:54:08	1029637	63483c4522d65d46028da7a7	2	1	main_z	24	main_z	157	stimuli_distractor_diamondtriangles.svg	stimuli_target_squaretriangles.svg	15	yes	44	1	496	6	4	antiphase_hc_sio.wav	1	6	6	noise_calib_stim_RIGHT.wav	2	26	blb_dichoticlistening_pa-da.mp3	pa	da	1	left
6.6.1	and	2023-06-02	06:36:16	06:54:08	1029637	63483c4522d65d46028da7a7	2	1	main_z	24	advance_on_keypress_ZEE	158	stimuli_distractor_diamondtriangles.svg	stimuli_target_squaretriangles.svg	15	yes	57	0	1241	6	4	antiphase_hc_sio.wav	1	6	6	noise_calib_stim_RIGHT.wav	2	26	blb_dichoticlistening_pa-da.mp3	pa	da	1	left
6.6.1	and	2023-06-02	06:36:16	06:54:10	1032098	63483c4522d65d46028da7a7	2	1	main_z	24	main_z	159	stimuli_distractor_trianglediamonds.svg	stimuli_target_squaretriangles.svg	11	yes	44	1	573	6	4	antiphase_hc_sio.wav	1	6	6	noise_calib_stim_RIGHT.wav	2	26	blb_dichoticlistening_pa-da.mp3	pa	da	1	left
6.6.1	and	2023-06-02	06:36:16	06:54:10	1032098	63483c4522d65d46028da7a7	2	1	main_z	24	advance_on_keypress_ZEE	160	stimuli_distractor_trianglediamonds.svg	stimuli_target_squaretriangles.svg	11	yes	57	0	790	6	4	antiphase_hc_sio.wav	1	6	6	noise_calib_stim_RIGHT.wav	2	26	blb_dichoticlistening_pa-da.mp3	pa	da	1	left
6.6.1	and	2023-06-02	06:36:16	06:58:21	1282245	63483c4522d65d46028da7a7	2	1	practice_slash	26	practice_slash	1	stimuli_target_squarediamonds.svg	stimuli_distractor_diamondtriangles.svg	2	yes	53	1	359	6	4	antiphase_hc_sio.wav	1	6	6	noise_calib_stim_RIGHT.wav	2	26	blb_dichoticlistening_pa-da.mp3	pa	da	1	left
6.6.1	and	2023-06-02	06:36:16	06:58:21	1282245	63483c4522d65d46028da7a7	2	1	practice_slash	26	advance_on_keypress_SLASH	2	stimuli_target_squarediamonds.svg	stimuli_distractor_diamondtriangles.svg	2	yes	57	0	436	6	4	antiphase_hc_sio.wav	1	6	6	noise_calib_stim_RIGHT.wav	2	26	blb_dichoticlistening_pa-da.mp3	pa	da	1	left
6.6.1	and	2023-06-02	06:36:16	06:58:23	1284796	63483c4522d65d46028da7a7	2	1	practice_slash	26	practice_slash	3	stimuli_target_rectanglediamonds.svg	stimuli_distractor_diamondtriangles.svg	1	yes	53	1	446	6	4	antiphase_hc_sio.wav	1	6	6	noise_calib_stim_RIGHT.wav	2	26	blb_dichoticlistening_pa-da.mp3	pa	da	1	left
6.6.1	and	2023-06-02	06:36:16	06:58:23	1284796	63483c4522d65d46028da7a7	2	1	practice_slash	26	advance_on_keypress_SLASH	4	stimuli_target_rectanglediamonds.svg	stimuli_distractor_diamondtriangles.svg	1	yes	57	0	426	6	4	antiphase_hc_sio.wav	1	6	6	noise_calib_stim_RIGHT.wav	2	26	blb_dichoticlistening_pa-da.mp3	pa	da	1	left
6.6.1	and	2023-06-02	06:36:16	06:58:27	1288858	63483c4522d65d46028da7a7	2	1	practice_slash	26	practice_slash	5	stimuli_distractor_diamondtriangles.svg	stimuli_distractor_trianglediamonds.svg	14	no	0	1	2000	6	4	antiphase_hc_sio.wav	1	6	6	noise_calib_stim_RIGHT.wav	2	26	blb_dichoticlistening_pa-da.mp3	pa	da	1	left
6.6.1	and	2023-06-02	06:36:16	06:58:27	1288858	63483c4522d65d46028da7a7	2	1	practice_slash	26	advance_on_keypress_SLASH	6	stimuli_distractor_diamondtriangles.svg	stimuli_distractor_trianglediamonds.svg	14	no	57	0	491	6	4	antiphase_hc_sio.wav	1	6	6	noise_calib_stim_RIGHT.wav	2	26	blb_dichoticlistening_pa-da.mp3	pa	da	1	left
6.6.1	and	2023-06-02	06:36:16	06:58:30	1291500	63483c4522d65d46028da7a7	2	1	practice_slash	26	practice_slash	7	stimuli_distractor_trianglediamonds.svg	stimuli_target_squarediamonds.svg	11	yes	53	1	517	6	4	antiphase_hc_sio.wav	1	6	6	noise_calib_stim_RIGHT.wav	2	26	blb_dichoticlistening_pa-da.mp3	pa	da	1	left
6.6.1	and	2023-06-02	06:36:16	06:58:30	1291500	63483c4522d65d46028da7a7	2	1	practice_slash	26	advance_on_keypress_SLASH	8	stimuli_distractor_trianglediamonds.svg	stimuli_target_squarediamonds.svg	11	yes	57	0	442	6	4	antiphase_hc_sio.wav	1	6	6	noise_calib_stim_RIGHT.wav	2	26	blb_dichoticlistening_pa-da.mp3	pa	da	1	left
6.6.1	and	2023-06-02	06:36:16	06:58:32	1293987	63483c4522d65d46028da7a7	2	1	practice_slash	26	practice_slash	9	stimuli_distractor_trianglediamonds.svg	stimuli_target_rectanglediamonds.svg	10	yes	53	1	403	6	4	antiphase_hc_sio.wav	1	6	6	noise_calib_stim_RIGHT.wav	2	26	blb_dichoticlistening_pa-da.mp3	pa	da	1	left
6.6.1	and	2023-06-02	06:36:16	06:58:32	1293987	63483c4522d65d46028da7a7	2	1	practice_slash	26	advance_on_keypress_SLASH	10	stimuli_distractor_trianglediamonds.svg	stimuli_target_rectanglediamonds.svg	10	yes	57	0	471	6	4	antiphase_hc_sio.wav	1	6	6	noise_calib_stim_RIGHT.wav	2	26	blb_dichoticlistening_pa-da.mp3	pa	da	1	left
6.6.1	and	2023-06-02	06:36:16	06:58:35	1296854	63483c4522d65d46028da7a7	2	1	practice_slash	26	practice_slash	11	stimuli_distractor_diamondtriangles.svg	stimuli_target_diamondrectangles.svg	8	yes	53	1	747	6	4	antiphase_hc_sio.wav	1	6	6	noise_calib_stim_RIGHT.wav	2	26	blb_dichoticlistening_pa-da.mp3	pa	da	1	left
6.6.1	and	2023-06-02	06:36:16	06:58:35	1296854	63483c4522d65d46028da7a7	2	1	practice_slash	26	advance_on_keypress_SLASH	12	stimuli_distractor_diamondtriangles.svg	stimuli_target_diamondrectangles.svg	8	yes	57	0	388	6	4	antiphase_hc_sio.wav	1	6	6	noise_calib_stim_RIGHT.wav	2	26	blb_dichoticlistening_pa-da.mp3	pa	da	1	left
6.6.1	and	2023-06-02	06:36:16	06:58:38	1299362	63483c4522d65d46028da7a7	2	1	practice_slash	26	practice_slash	13	stimuli_distractor_trianglediamonds.svg	stimuli_target_diamondrectangles.svg	12	yes	53	1	477	6	4	antiphase_hc_sio.wav	1	6	6	noise_calib_stim_RIGHT.wav	2	26	blb_dichoticlistening_pa-da.mp3	pa	da	1	left
6.6.1	and	2023-06-02	06:36:16	06:58:38	1299362	63483c4522d65d46028da7a7	2	1	practice_slash	26	advance_on_keypress_SLASH	14	stimuli_distractor_trianglediamonds.svg	stimuli_target_diamondrectangles.svg	12	yes	57	0	494	6	4	antiphase_hc_sio.wav	1	6	6	noise_calib_stim_RIGHT.wav	2	26	blb_dichoticlistening_pa-da.mp3	pa	da	1	left
6.6.1	and	2023-06-02	06:36:16	06:58:40	1301905	63483c4522d65d46028da7a7	2	1	practice_slash	26	practice_slash	15	stimuli_target_rectanglediamonds.svg	stimuli_distractor_trianglediamonds.svg	4	yes	53	1	406	6	4	antiphase_hc_sio.wav	1	6	6	noise_calib_stim_RIGHT.wav	2	26	blb_dichoticlistening_pa-da.mp3	pa	da	1	left
6.6.1	and	2023-06-02	06:36:16	06:58:40	1301905	63483c4522d65d46028da7a7	2	1	practice_slash	26	advance_on_keypress_SLASH	16	stimuli_target_rectanglediamonds.svg	stimuli_distractor_trianglediamonds.svg	4	yes	57	0	417	6	4	antiphase_hc_sio.wav	1	6	6	noise_calib_stim_RIGHT.wav	2	26	blb_dichoticlistening_pa-da.mp3	pa	da	1	left
6.6.1	and	2023-06-02	06:36:16	06:58:43	1304521	63483c4522d65d46028da7a7	2	1	practice_slash	26	practice_slash	17	stimuli_distractor_diamondtriangles.svg	stimuli_target_trianglerectangles.svg	9	yes	53	1	536	6	4	antiphase_hc_sio.wav	1	6	6	noise_calib_stim_RIGHT.wav	2	26	blb_dichoticlistening_pa-da.mp3	pa	da	1	left
6.6.1	and	2023-06-02	06:36:16	06:58:43	1304521	63483c4522d65d46028da7a7	2	1	practice_slash	26	advance_on_keypress_SLASH	18	stimuli_distractor_diamondtriangles.svg	stimuli_target_trianglerectangles.svg	9	yes	57	0	456	6	4	antiphase_hc_sio.wav	1	6	6	noise_calib_stim_RIGHT.wav	2	26	blb_dichoticlistening_pa-da.mp3	pa	da	1	left
