build	computer.platform	date	time	timestamp	time_elapsed_ms	subject	group	session	blockcode	blocknum	trialcode	trialnum	stimulus_left	stimulus_right	stim_index	target_present	response	correct	latency	headphonecheck_countTestTrials	headphonecheck_index	headphonecheck_testSound	headphonecheck_correctResponse	stereocheck_countTestTrials	stereocheck_index	stereocheck_testSound	stereocheck_correctResponse	DL_index	DL_soundfile	DL_leftSound	DL_rightSound	DL_dualSound	DL_choice
6.6.1	win	2023-07-13	15:57:26	15:59:59	148545	617172d3e4d3b6d6ab6a705c	4	1	practice_z	5	practice_z	1	stimuli_distractor_diamondtriangles.svg	stimuli_target_trianglerectangles.svg	9	yes	0	0	2000	0	0			0	0			1				0	
6.6.1	win	2023-07-13	15:57:26	15:59:59	148545	617172d3e4d3b6d6ab6a705c	4	1	practice_z	5	advance_on_keypress_ZEE	2	stimuli_distractor_diamondtriangles.svg	stimuli_target_trianglerectangles.svg	9	yes	57	0	1192	0	0			0	0			1				0	
6.6.1	win	2023-07-13	15:57:26	16:00:02	152425	617172d3e4d3b6d6ab6a705c	4	1	practice_z	5	practice_z	3	stimuli_target_rectanglediamonds.svg	stimuli_distractor_trianglediamonds.svg	4	yes	44	1	1048	0	0			0	0			1				0	
6.6.1	win	2023-07-13	15:57:26	16:00:02	152425	617172d3e4d3b6d6ab6a705c	4	1	practice_z	5	advance_on_keypress_ZEE	4	stimuli_target_rectanglediamonds.svg	stimuli_distractor_trianglediamonds.svg	4	yes	57	0	668	0	0			0	0			1				0	
6.6.1	win	2023-07-13	15:57:26	16:00:06	155669	617172d3e4d3b6d6ab6a705c	4	1	practice_z	5	practice_z	5	stimuli_target_diamondsquares.svg	stimuli_distractor_diamondtriangles.svg	3	yes	44	1	925	0	0			0	0			1				0	
6.6.1	win	2023-07-13	15:57:26	16:00:06	155669	617172d3e4d3b6d6ab6a705c	4	1	practice_z	5	advance_on_keypress_ZEE	6	stimuli_target_diamondsquares.svg	stimuli_distractor_diamondtriangles.svg	3	yes	57	0	637	0	0			0	0			1				0	
6.6.1	win	2023-07-13	15:57:26	16:00:10	159945	617172d3e4d3b6d6ab6a705c	4	1	practice_z	5	practice_z	7	stimuli_target_rectanglediamonds.svg	stimuli_distractor_diamondtriangles.svg	1	yes	0	0	2000	0	0			0	0			1				0	
6.6.1	win	2023-07-13	15:57:26	16:00:10	159945	617172d3e4d3b6d6ab6a705c	4	1	practice_z	5	advance_on_keypress_ZEE	8	stimuli_target_rectanglediamonds.svg	stimuli_distractor_diamondtriangles.svg	1	yes	57	0	461	0	0			0	0			1				0	
6.6.1	win	2023-07-13	15:57:26	16:00:13	163121	617172d3e4d3b6d6ab6a705c	4	1	practice_z	5	practice_z	9	stimuli_target_diamondsquares.svg	stimuli_distractor_trianglediamonds.svg	6	yes	44	1	1076	0	0			0	0			1				0	
6.6.1	win	2023-07-13	15:57:26	16:00:13	163121	617172d3e4d3b6d6ab6a705c	4	1	practice_z	5	advance_on_keypress_ZEE	10	stimuli_target_diamondsquares.svg	stimuli_distractor_trianglediamonds.svg	6	yes	57	0	564	0	0			0	0			1				0	
6.6.1	win	2023-07-13	15:57:26	16:00:17	167345	617172d3e4d3b6d6ab6a705c	4	1	practice_z	5	practice_z	11	stimuli_distractor_trianglediamonds.svg	stimuli_distractor_trianglediamonds.svg	15	no	0	1	2000	0	0			0	0			1				0	
6.6.1	win	2023-07-13	15:57:26	16:00:17	167345	617172d3e4d3b6d6ab6a705c	4	1	practice_z	5	advance_on_keypress_ZEE	12	stimuli_distractor_trianglediamonds.svg	stimuli_distractor_trianglediamonds.svg	15	no	57	0	540	0	0			0	0			1				0	
6.6.1	win	2023-07-13	15:57:26	16:00:21	171529	617172d3e4d3b6d6ab6a705c	4	1	practice_z	5	practice_z	13	stimuli_distractor_diamondtriangles.svg	stimuli_distractor_diamondtriangles.svg	13	no	0	1	2000	0	0			0	0			1				0	
6.6.1	win	2023-07-13	15:57:26	16:00:21	171529	617172d3e4d3b6d6ab6a705c	4	1	practice_z	5	advance_on_keypress_ZEE	14	stimuli_distractor_diamondtriangles.svg	stimuli_distractor_diamondtriangles.svg	13	no	57	0	472	0	0			0	0			1				0	
6.6.1	win	2023-07-13	15:57:26	16:00:25	174635	617172d3e4d3b6d6ab6a705c	4	1	practice_z	5	practice_z	15	stimuli_distractor_trianglediamonds.svg	stimuli_target_diamondrectangles.svg	12	yes	44	1	991	0	0			0	0			1				0	
6.6.1	win	2023-07-13	15:57:26	16:00:25	174635	617172d3e4d3b6d6ab6a705c	4	1	practice_z	5	advance_on_keypress_ZEE	16	stimuli_distractor_trianglediamonds.svg	stimuli_target_diamondrectangles.svg	12	yes	57	0	728	0	0			0	0			1				0	
6.6.1	win	2023-07-13	15:57:26	16:00:28	177918	617172d3e4d3b6d6ab6a705c	4	1	practice_z	5	practice_z	17	stimuli_distractor_diamondtriangles.svg	stimuli_target_diamondrectangles.svg	8	yes	44	1	923	0	0			0	0			1				0	
6.6.1	win	2023-07-13	15:57:26	16:00:28	177918	617172d3e4d3b6d6ab6a705c	4	1	practice_z	5	advance_on_keypress_ZEE	18	stimuli_distractor_diamondtriangles.svg	stimuli_target_diamondrectangles.svg	8	yes	57	0	535	0	0			0	0			1				0	
6.6.1	win	2023-07-13	15:57:26	16:00:31	181317	617172d3e4d3b6d6ab6a705c	4	1	practice_z	5	practice_z	19	stimuli_distractor_trianglediamonds.svg	stimuli_target_rectanglediamonds.svg	10	yes	44	1	1221	0	0			0	0			1				0	
6.6.1	win	2023-07-13	15:57:26	16:00:31	181317	617172d3e4d3b6d6ab6a705c	4	1	practice_z	5	advance_on_keypress_ZEE	20	stimuli_distractor_trianglediamonds.svg	stimuli_target_rectanglediamonds.svg	10	yes	57	0	703	0	0			0	0			1				0	
6.6.1	win	2023-07-13	15:57:26	16:00:35	184912	617172d3e4d3b6d6ab6a705c	4	1	practice_z	5	practice_z	21	stimuli_distractor_diamondtriangles.svg	stimuli_distractor_trianglediamonds.svg	14	no	44	0	1250	0	0			0	0			1				0	
6.6.1	win	2023-07-13	15:57:26	16:00:35	184912	617172d3e4d3b6d6ab6a705c	4	1	practice_z	5	advance_on_keypress_ZEE	22	stimuli_distractor_diamondtriangles.svg	stimuli_distractor_trianglediamonds.svg	14	no	57	0	445	0	0			0	0			1				0	
6.6.1	win	2023-07-13	15:57:26	16:00:38	188215	617172d3e4d3b6d6ab6a705c	4	1	practice_z	5	practice_z	23	stimuli_distractor_trianglediamonds.svg	stimuli_distractor_diamondtriangles.svg	16	no	44	0	1219	0	0			0	0			1				0	
6.6.1	win	2023-07-13	15:57:26	16:00:38	188215	617172d3e4d3b6d6ab6a705c	4	1	practice_z	5	advance_on_keypress_ZEE	24	stimuli_distractor_trianglediamonds.svg	stimuli_distractor_diamondtriangles.svg	16	no	57	0	445	0	0			0	0			1				0	
6.6.1	win	2023-07-13	15:57:26	16:00:42	191906	617172d3e4d3b6d6ab6a705c	4	1	practice_z	5	practice_z	25	stimuli_target_squarediamonds.svg	stimuli_distractor_diamondtriangles.svg	2	yes	44	1	1593	0	0			0	0			1				0	
6.6.1	win	2023-07-13	15:57:26	16:00:42	191906	617172d3e4d3b6d6ab6a705c	4	1	practice_z	5	advance_on_keypress_ZEE	26	stimuli_target_squarediamonds.svg	stimuli_distractor_diamondtriangles.svg	2	yes	57	0	383	0	0			0	0			1				0	
6.6.1	win	2023-07-13	15:57:26	16:00:45	195391	617172d3e4d3b6d6ab6a705c	4	1	practice_z	5	practice_z	27	stimuli_target_squarediamonds.svg	stimuli_distractor_trianglediamonds.svg	5	yes	44	1	1426	0	0			0	0			1				0	
6.6.1	win	2023-07-13	15:57:26	16:00:45	195391	617172d3e4d3b6d6ab6a705c	4	1	practice_z	5	advance_on_keypress_ZEE	28	stimuli_target_squarediamonds.svg	stimuli_distractor_trianglediamonds.svg	5	yes	57	0	604	0	0			0	0			1				0	
6.6.1	win	2023-07-13	15:57:26	16:00:50	199663	617172d3e4d3b6d6ab6a705c	4	1	practice_z	5	practice_z	29	stimuli_distractor_diamondtriangles.svg	stimuli_target_rectangletriangles.svg	7	yes	0	0	2000	0	0			0	0			1				0	
6.6.1	win	2023-07-13	15:57:26	16:00:50	199663	617172d3e4d3b6d6ab6a705c	4	1	practice_z	5	advance_on_keypress_ZEE	30	stimuli_distractor_diamondtriangles.svg	stimuli_target_rectangletriangles.svg	7	yes	57	0	547	0	0			0	0			1				0	
6.6.1	win	2023-07-13	15:57:26	16:00:53	203463	617172d3e4d3b6d6ab6a705c	4	1	practice_z	5	practice_z	31	stimuli_distractor_trianglediamonds.svg	stimuli_target_squarediamonds.svg	11	yes	44	1	1600	0	0			0	0			1				0	
6.6.1	win	2023-07-13	15:57:26	16:00:53	203463	617172d3e4d3b6d6ab6a705c	4	1	practice_z	5	advance_on_keypress_ZEE	32	stimuli_distractor_trianglediamonds.svg	stimuli_target_squarediamonds.svg	11	yes	57	0	420	0	0			0	0			1				0	
6.6.1	win	2023-07-13	15:57:26	16:01:02	212540	617172d3e4d3b6d6ab6a705c	4	1	main_z	7	main_z	1	stimuli_distractor_trianglediamonds.svg	stimuli_distractor_trianglediamonds.svg	33	no	44	0	1411	0	0			0	0			1				0	
6.6.1	win	2023-07-13	15:57:26	16:01:02	212540	617172d3e4d3b6d6ab6a705c	4	1	main_z	7	advance_on_keypress_ZEE	2	stimuli_distractor_trianglediamonds.svg	stimuli_distractor_trianglediamonds.svg	33	no	57	0	747	0	0			0	0			1				0	
6.6.1	win	2023-07-13	15:57:26	16:01:05	214886	617172d3e4d3b6d6ab6a705c	4	1	main_z	7	main_z	3	stimuli_target_squarediamonds.svg	stimuli_distractor_trianglediamonds.svg	4	yes	44	1	957	0	0			0	0			1				0	
6.6.1	win	2023-07-13	15:57:26	16:01:05	214886	617172d3e4d3b6d6ab6a705c	4	1	main_z	7	advance_on_keypress_ZEE	4	stimuli_target_squarediamonds.svg	stimuli_distractor_trianglediamonds.svg	4	yes	57	0	884	0	0			0	0			1				0	
6.6.1	win	2023-07-13	15:57:26	16:01:08	218413	617172d3e4d3b6d6ab6a705c	4	1	main_z	7	main_z	5	stimuli_distractor_trianglediamonds.svg	stimuli_distractor_trianglediamonds.svg	34	no	0	1	2000	0	0			0	0			1				0	
6.6.1	win	2023-07-13	15:57:26	16:01:08	218413	617172d3e4d3b6d6ab6a705c	4	1	main_z	7	advance_on_keypress_ZEE	6	stimuli_distractor_trianglediamonds.svg	stimuli_distractor_trianglediamonds.svg	34	no	57	0	523	0	0			0	0			1				0	
6.6.1	win	2023-07-13	15:57:26	16:01:11	220676	617172d3e4d3b6d6ab6a705c	4	1	main_z	7	main_z	7	stimuli_distractor_trianglediamonds.svg	stimuli_target_rectanglediamonds.svg	10	yes	44	1	1096	0	0			0	0			1				0	
6.6.1	win	2023-07-13	15:57:26	16:01:11	220676	617172d3e4d3b6d6ab6a705c	4	1	main_z	7	advance_on_keypress_ZEE	8	stimuli_distractor_trianglediamonds.svg	stimuli_target_rectanglediamonds.svg	10	yes	57	0	1356	0	0			0	0			1				0	
6.6.1	win	2023-07-13	15:57:26	16:01:14	223909	617172d3e4d3b6d6ab6a705c	4	1	main_z	7	main_z	9	stimuli_distractor_diamondtriangles.svg	stimuli_target_rectanglediamonds.svg	14	yes	44	1	1229	0	0			0	0			1				0	
6.6.1	win	2023-07-13	15:57:26	16:01:14	223909	617172d3e4d3b6d6ab6a705c	4	1	main_z	7	advance_on_keypress_ZEE	10	stimuli_distractor_diamondtriangles.svg	stimuli_target_rectanglediamonds.svg	14	yes	57	0	623	0	0			0	0			1				0	
6.6.1	win	2023-07-13	15:57:26	16:01:16	226072	617172d3e4d3b6d6ab6a705c	4	1	main_z	7	main_z	11	stimuli_target_squaretriangles.svg	stimuli_distractor_trianglediamonds.svg	3	yes	44	1	888	0	0			0	0			1				0	
6.6.1	win	2023-07-13	15:57:26	16:01:16	226072	617172d3e4d3b6d6ab6a705c	4	1	main_z	7	advance_on_keypress_ZEE	12	stimuli_target_squaretriangles.svg	stimuli_distractor_trianglediamonds.svg	3	yes	57	0	744	0	0			0	0			1				0	
6.6.1	win	2023-07-13	15:57:26	16:01:19	229473	617172d3e4d3b6d6ab6a705c	4	1	main_z	7	main_z	13	stimuli_distractor_diamondtriangles.svg	stimuli_distractor_trianglediamonds.svg	37	no	0	1	2000	0	0			0	0			1				0	
6.6.1	win	2023-07-13	15:57:26	16:01:19	229473	617172d3e4d3b6d6ab6a705c	4	1	main_z	7	advance_on_keypress_ZEE	14	stimuli_distractor_diamondtriangles.svg	stimuli_distractor_trianglediamonds.svg	37	no	57	0	826	0	0			0	0			1				0	
6.6.1	win	2023-07-13	15:57:26	16:01:22	232139	617172d3e4d3b6d6ab6a705c	4	1	main_z	7	main_z	15	stimuli_target_rectanglediamonds.svg	stimuli_distractor_diamondtriangles.svg	6	yes	44	1	1179	0	0			0	0			1				0	
6.6.1	win	2023-07-13	15:57:26	16:01:22	232139	617172d3e4d3b6d6ab6a705c	4	1	main_z	7	advance_on_keypress_ZEE	16	stimuli_target_rectanglediamonds.svg	stimuli_distractor_diamondtriangles.svg	6	yes	57	0	661	0	0			0	0			1				0	
6.6.1	win	2023-07-13	15:57:26	16:01:24	234464	617172d3e4d3b6d6ab6a705c	4	1	main_z	7	main_z	17	stimuli_distractor_diamondtriangles.svg	stimuli_target_squarediamonds.svg	16	yes	44	1	1017	0	0			0	0			1				0	
6.6.1	win	2023-07-13	15:57:26	16:01:24	234464	617172d3e4d3b6d6ab6a705c	4	1	main_z	7	advance_on_keypress_ZEE	18	stimuli_distractor_diamondtriangles.svg	stimuli_target_squarediamonds.svg	16	yes	57	0	1732	0	0			0	0			1				0	
6.6.1	win	2023-07-13	15:57:26	16:01:28	238013	617172d3e4d3b6d6ab6a705c	4	1	main_z	7	main_z	19	stimuli_distractor_diamondtriangles.svg	stimuli_target_trianglesquares.svg	30	yes	44	1	1166	0	0			0	0			1				0	
6.6.1	win	2023-07-13	15:57:26	16:01:28	238013	617172d3e4d3b6d6ab6a705c	4	1	main_z	7	advance_on_keypress_ZEE	20	stimuli_distractor_diamondtriangles.svg	stimuli_target_trianglesquares.svg	30	yes	57	0	681	0	0			0	0			1				0	
6.6.1	win	2023-07-13	15:57:26	16:01:30	240467	617172d3e4d3b6d6ab6a705c	4	1	main_z	7	main_z	21	stimuli_target_trianglesquares.svg	stimuli_distractor_diamondtriangles.svg	22	yes	44	1	1120	0	0			0	0			1				0	
6.6.1	win	2023-07-13	15:57:26	16:01:30	240467	617172d3e4d3b6d6ab6a705c	4	1	main_z	7	advance_on_keypress_ZEE	22	stimuli_target_trianglesquares.svg	stimuli_distractor_diamondtriangles.svg	22	yes	57	0	854	0	0			0	0			1				0	
6.6.1	win	2023-07-13	15:57:26	16:01:33	243057	617172d3e4d3b6d6ab6a705c	4	1	main_z	7	main_z	23	stimuli_distractor_trianglediamonds.svg	stimuli_target_diamondsquares.svg	28	yes	44	1	1093	0	0			0	0			1				0	
6.6.1	win	2023-07-13	15:57:26	16:01:33	243057	617172d3e4d3b6d6ab6a705c	4	1	main_z	7	advance_on_keypress_ZEE	24	stimuli_distractor_trianglediamonds.svg	stimuli_target_diamondsquares.svg	28	yes	57	0	1002	0	0			0	0			1				0	
6.6.1	win	2023-07-13	15:57:26	16:01:36	245814	617172d3e4d3b6d6ab6a705c	4	1	main_z	7	main_z	25	stimuli_target_rectangletriangles.svg	stimuli_distractor_trianglediamonds.svg	1	yes	44	1	1107	0	0			0	0			1				0	
6.6.1	win	2023-07-13	15:57:26	16:01:36	245814	617172d3e4d3b6d6ab6a705c	4	1	main_z	7	advance_on_keypress_ZEE	26	stimuli_target_rectangletriangles.svg	stimuli_distractor_trianglediamonds.svg	1	yes	57	0	730	0	0			0	0			1				0	
6.6.1	win	2023-07-13	15:57:26	16:01:39	248782	617172d3e4d3b6d6ab6a705c	4	1	main_z	7	main_z	27	stimuli_distractor_diamondtriangles.svg	stimuli_target_trianglerectangles.svg	29	yes	44	1	1601	0	0			0	0			1				0	
6.6.1	win	2023-07-13	15:57:26	16:01:39	248782	617172d3e4d3b6d6ab6a705c	4	1	main_z	7	advance_on_keypress_ZEE	28	stimuli_distractor_diamondtriangles.svg	stimuli_target_trianglerectangles.svg	29	yes	57	0	463	0	0			0	0			1				0	
6.6.1	win	2023-07-13	15:57:26	16:01:41	250993	617172d3e4d3b6d6ab6a705c	4	1	main_z	7	main_z	29	stimuli_distractor_trianglediamonds.svg	stimuli_distractor_diamondtriangles.svg	35	no	44	0	1112	0	0			0	0			1				0	
6.6.1	win	2023-07-13	15:57:26	16:01:41	250993	617172d3e4d3b6d6ab6a705c	4	1	main_z	7	advance_on_keypress_ZEE	30	stimuli_distractor_trianglediamonds.svg	stimuli_distractor_diamondtriangles.svg	35	no	57	0	571	0	0			0	0			1				0	
6.6.1	win	2023-07-13	15:57:26	16:01:44	254215	617172d3e4d3b6d6ab6a705c	4	1	main_z	7	main_z	31	stimuli_distractor_trianglediamonds.svg	stimuli_distractor_diamondtriangles.svg	36	no	0	1	2000	0	0			0	0			1				0	
6.6.1	win	2023-07-13	15:57:26	16:01:44	254215	617172d3e4d3b6d6ab6a705c	4	1	main_z	7	advance_on_keypress_ZEE	32	stimuli_distractor_trianglediamonds.svg	stimuli_distractor_diamondtriangles.svg	36	no	57	0	355	0	0			0	0			1				0	
6.6.1	win	2023-07-13	15:57:26	16:01:46	256220	617172d3e4d3b6d6ab6a705c	4	1	main_z	7	main_z	33	stimuli_target_trianglerectangles.svg	stimuli_distractor_diamondtriangles.svg	21	yes	44	1	1006	0	0			0	0			1				0	
6.6.1	win	2023-07-13	15:57:26	16:01:46	256220	617172d3e4d3b6d6ab6a705c	4	1	main_z	7	advance_on_keypress_ZEE	34	stimuli_target_trianglerectangles.svg	stimuli_distractor_diamondtriangles.svg	21	yes	57	0	948	0	0			0	0			1				0	
6.6.1	win	2023-07-13	15:57:26	16:01:50	259798	617172d3e4d3b6d6ab6a705c	4	1	main_z	7	main_z	35	stimuli_distractor_diamondtriangles.svg	stimuli_distractor_trianglediamonds.svg	38	no	0	1	2000	0	0			0	0			1				0	
6.6.1	win	2023-07-13	15:57:26	16:01:50	259798	617172d3e4d3b6d6ab6a705c	4	1	main_z	7	advance_on_keypress_ZEE	36	stimuli_distractor_diamondtriangles.svg	stimuli_distractor_trianglediamonds.svg	38	no	57	0	726	0	0			0	0			1				0	
6.6.1	win	2023-07-13	15:57:26	16:01:52	262284	617172d3e4d3b6d6ab6a705c	4	1	main_z	7	main_z	37	stimuli_target_trianglerectangles.svg	stimuli_distractor_trianglediamonds.svg	17	yes	44	1	1119	0	0			0	0			1				0	
6.6.1	win	2023-07-13	15:57:26	16:01:52	262284	617172d3e4d3b6d6ab6a705c	4	1	main_z	7	advance_on_keypress_ZEE	38	stimuli_target_trianglerectangles.svg	stimuli_distractor_trianglediamonds.svg	17	yes	57	0	939	0	0			0	0			1				0	
6.6.1	win	2023-07-13	15:57:26	16:01:55	265313	617172d3e4d3b6d6ab6a705c	4	1	main_z	7	main_z	39	stimuli_distractor_diamondtriangles.svg	stimuli_target_diamondrectangles.svg	31	yes	44	1	1448	0	0			0	0			1				0	
6.6.1	win	2023-07-13	15:57:26	16:01:55	265313	617172d3e4d3b6d6ab6a705c	4	1	main_z	7	advance_on_keypress_ZEE	40	stimuli_distractor_diamondtriangles.svg	stimuli_target_diamondrectangles.svg	31	yes	57	0	1042	0	0			0	0			1				0	
6.6.1	win	2023-07-13	15:57:26	16:01:58	267818	617172d3e4d3b6d6ab6a705c	4	1	main_z	7	main_z	41	stimuli_target_trianglesquares.svg	stimuli_distractor_trianglediamonds.svg	18	yes	44	1	819	0	0			0	0			1				0	
6.6.1	win	2023-07-13	15:57:26	16:01:58	267818	617172d3e4d3b6d6ab6a705c	4	1	main_z	7	advance_on_keypress_ZEE	42	stimuli_target_trianglesquares.svg	stimuli_distractor_trianglediamonds.svg	18	yes	57	0	959	0	0			0	0			1				0	
6.6.1	win	2023-07-13	15:57:26	16:02:00	270246	617172d3e4d3b6d6ab6a705c	4	1	main_z	7	main_z	43	stimuli_distractor_trianglediamonds.svg	stimuli_target_trianglesquares.svg	26	yes	44	1	831	0	0			0	0			1				0	
6.6.1	win	2023-07-13	15:57:26	16:02:00	270246	617172d3e4d3b6d6ab6a705c	4	1	main_z	7	advance_on_keypress_ZEE	44	stimuli_distractor_trianglediamonds.svg	stimuli_target_trianglesquares.svg	26	yes	57	0	683	0	0			0	0			1				0	
6.6.1	win	2023-07-13	15:57:26	16:02:02	272415	617172d3e4d3b6d6ab6a705c	4	1	main_z	7	main_z	45	stimuli_target_diamondsquares.svg	stimuli_distractor_diamondtriangles.svg	24	yes	44	1	833	0	0			0	0			1				0	
6.6.1	win	2023-07-13	15:57:26	16:02:02	272415	617172d3e4d3b6d6ab6a705c	4	1	main_z	7	advance_on_keypress_ZEE	46	stimuli_target_diamondsquares.svg	stimuli_distractor_diamondtriangles.svg	24	yes	57	0	610	0	0			0	0			1				0	
6.6.1	win	2023-07-13	15:57:26	16:02:06	275676	617172d3e4d3b6d6ab6a705c	4	1	main_z	7	main_z	47	stimuli_distractor_diamondtriangles.svg	stimuli_distractor_diamondtriangles.svg	40	no	0	1	2000	0	0			0	0			1				0	
6.6.1	win	2023-07-13	15:57:26	16:02:06	275676	617172d3e4d3b6d6ab6a705c	4	1	main_z	7	advance_on_keypress_ZEE	48	stimuli_distractor_diamondtriangles.svg	stimuli_distractor_diamondtriangles.svg	40	no	57	0	411	0	0			0	0			1				0	
6.6.1	win	2023-07-13	15:57:26	16:02:08	277622	617172d3e4d3b6d6ab6a705c	4	1	main_z	7	main_z	49	stimuli_target_squarediamonds.svg	stimuli_distractor_diamondtriangles.svg	8	yes	44	1	880	0	0			0	0			1				0	
6.6.1	win	2023-07-13	15:57:26	16:02:08	277622	617172d3e4d3b6d6ab6a705c	4	1	main_z	7	advance_on_keypress_ZEE	50	stimuli_target_squarediamonds.svg	stimuli_distractor_diamondtriangles.svg	8	yes	57	0	898	0	0			0	0			1				0	
6.6.1	win	2023-07-13	15:57:26	16:02:10	280203	617172d3e4d3b6d6ab6a705c	4	1	main_z	7	main_z	51	stimuli_distractor_diamondtriangles.svg	stimuli_target_squaretriangles.svg	15	yes	44	1	1031	0	0			0	0			1				0	
6.6.1	win	2023-07-13	15:57:26	16:02:10	280203	617172d3e4d3b6d6ab6a705c	4	1	main_z	7	advance_on_keypress_ZEE	52	stimuli_distractor_diamondtriangles.svg	stimuli_target_squaretriangles.svg	15	yes	57	0	562	0	0			0	0			1				0	
6.6.1	win	2023-07-13	15:57:26	16:02:12	282382	617172d3e4d3b6d6ab6a705c	4	1	main_z	7	main_z	53	stimuli_target_diamondrectangles.svg	stimuli_distractor_trianglediamonds.svg	19	yes	44	1	983	0	0			0	0			1				0	
6.6.1	win	2023-07-13	15:57:26	16:02:12	282382	617172d3e4d3b6d6ab6a705c	4	1	main_z	7	advance_on_keypress_ZEE	54	stimuli_target_diamondrectangles.svg	stimuli_distractor_trianglediamonds.svg	19	yes	57	0	583	0	0			0	0			1				0	
6.6.1	win	2023-07-13	15:57:26	16:02:15	284972	617172d3e4d3b6d6ab6a705c	4	1	main_z	7	main_z	55	stimuli_target_squaretriangles.svg	stimuli_distractor_diamondtriangles.svg	7	yes	44	1	1356	0	0			0	0			1				0	
6.6.1	win	2023-07-13	15:57:26	16:02:15	284972	617172d3e4d3b6d6ab6a705c	4	1	main_z	7	advance_on_keypress_ZEE	56	stimuli_target_squaretriangles.svg	stimuli_distractor_diamondtriangles.svg	7	yes	57	0	722	0	0			0	0			1				0	
6.6.1	win	2023-07-13	15:57:26	16:02:17	287267	617172d3e4d3b6d6ab6a705c	4	1	main_z	7	main_z	57	stimuli_distractor_diamondtriangles.svg	stimuli_target_diamondsquares.svg	32	yes	44	1	934	0	0			0	0			1				0	
6.6.1	win	2023-07-13	15:57:26	16:02:17	287267	617172d3e4d3b6d6ab6a705c	4	1	main_z	7	advance_on_keypress_ZEE	58	stimuli_distractor_diamondtriangles.svg	stimuli_target_diamondsquares.svg	32	yes	57	0	586	0	0			0	0			1				0	
6.6.1	win	2023-07-13	15:57:26	16:02:20	290500	617172d3e4d3b6d6ab6a705c	4	1	main_z	7	main_z	59	stimuli_distractor_diamondtriangles.svg	stimuli_target_rectangletriangles.svg	13	yes	0	0	2000	0	0			0	0			1				0	
6.6.1	win	2023-07-13	15:57:26	16:02:20	290500	617172d3e4d3b6d6ab6a705c	4	1	main_z	7	advance_on_keypress_ZEE	60	stimuli_distractor_diamondtriangles.svg	stimuli_target_rectangletriangles.svg	13	yes	57	0	676	0	0			0	0			1				0	
6.6.1	win	2023-07-13	15:57:26	16:02:23	292683	617172d3e4d3b6d6ab6a705c	4	1	main_z	7	main_z	61	stimuli_distractor_trianglediamonds.svg	stimuli_target_squarediamonds.svg	12	yes	44	1	866	0	0			0	0			1				0	
6.6.1	win	2023-07-13	15:57:26	16:02:23	292683	617172d3e4d3b6d6ab6a705c	4	1	main_z	7	advance_on_keypress_ZEE	62	stimuli_distractor_trianglediamonds.svg	stimuli_target_squarediamonds.svg	12	yes	57	0	636	0	0			0	0			1				0	
6.6.1	win	2023-07-13	15:57:26	16:02:25	294910	617172d3e4d3b6d6ab6a705c	4	1	main_z	7	main_z	63	stimuli_target_diamondsquares.svg	stimuli_distractor_trianglediamonds.svg	20	yes	44	1	944	0	0			0	0			1				0	
6.6.1	win	2023-07-13	15:57:26	16:02:25	294910	617172d3e4d3b6d6ab6a705c	4	1	main_z	7	advance_on_keypress_ZEE	64	stimuli_target_diamondsquares.svg	stimuli_distractor_trianglediamonds.svg	20	yes	57	0	521	0	0			0	0			1				0	
6.6.1	win	2023-07-13	15:57:26	16:02:27	296908	617172d3e4d3b6d6ab6a705c	4	1	main_z	7	main_z	65	stimuli_distractor_trianglediamonds.svg	stimuli_target_diamondrectangles.svg	27	yes	44	1	825	0	0			0	0			1				0	
6.6.1	win	2023-07-13	15:57:26	16:02:27	296908	617172d3e4d3b6d6ab6a705c	4	1	main_z	7	advance_on_keypress_ZEE	66	stimuli_distractor_trianglediamonds.svg	stimuli_target_diamondrectangles.svg	27	yes	57	0	320	0	0			0	0			1				0	
6.6.1	win	2023-07-13	15:57:26	16:02:30	299867	617172d3e4d3b6d6ab6a705c	4	1	main_z	7	main_z	67	stimuli_target_diamondrectangles.svg	stimuli_distractor_diamondtriangles.svg	23	yes	0	0	2000	0	0			0	0			1				0	
6.6.1	win	2023-07-13	15:57:26	16:02:30	299867	617172d3e4d3b6d6ab6a705c	4	1	main_z	7	advance_on_keypress_ZEE	68	stimuli_target_diamondrectangles.svg	stimuli_distractor_diamondtriangles.svg	23	yes	57	0	483	0	0			0	0			1				0	
6.6.1	win	2023-07-13	15:57:26	16:02:32	302205	617172d3e4d3b6d6ab6a705c	4	1	main_z	7	main_z	69	stimuli_distractor_trianglediamonds.svg	stimuli_target_rectangletriangles.svg	9	yes	44	1	1205	0	0			0	0			1				0	
6.6.1	win	2023-07-13	15:57:26	16:02:32	302205	617172d3e4d3b6d6ab6a705c	4	1	main_z	7	advance_on_keypress_ZEE	70	stimuli_distractor_trianglediamonds.svg	stimuli_target_rectangletriangles.svg	9	yes	57	0	496	0	0			0	0			1				0	
6.6.1	win	2023-07-13	15:57:26	16:02:34	304303	617172d3e4d3b6d6ab6a705c	4	1	main_z	7	main_z	71	stimuli_target_rectangletriangles.svg	stimuli_distractor_diamondtriangles.svg	5	yes	44	1	970	0	0			0	0			1				0	
6.6.1	win	2023-07-13	15:57:26	16:02:34	304303	617172d3e4d3b6d6ab6a705c	4	1	main_z	7	advance_on_keypress_ZEE	72	stimuli_target_rectangletriangles.svg	stimuli_distractor_diamondtriangles.svg	5	yes	57	0	446	0	0			0	0			1				0	
6.6.1	win	2023-07-13	15:57:26	16:02:37	307384	617172d3e4d3b6d6ab6a705c	4	1	main_z	7	main_z	73	stimuli_distractor_trianglediamonds.svg	stimuli_target_squaretriangles.svg	11	yes	0	0	2000	0	0			0	0			1				0	
6.6.1	win	2023-07-13	15:57:26	16:02:37	307384	617172d3e4d3b6d6ab6a705c	4	1	main_z	7	advance_on_keypress_ZEE	74	stimuli_distractor_trianglediamonds.svg	stimuli_target_squaretriangles.svg	11	yes	57	0	530	0	0			0	0			1				0	
6.6.1	win	2023-07-13	15:57:26	16:02:39	309445	617172d3e4d3b6d6ab6a705c	4	1	main_z	7	main_z	75	stimuli_distractor_trianglediamonds.svg	stimuli_target_trianglerectangles.svg	25	yes	44	1	895	0	0			0	0			1				0	
6.6.1	win	2023-07-13	15:57:26	16:02:39	309445	617172d3e4d3b6d6ab6a705c	4	1	main_z	7	advance_on_keypress_ZEE	76	stimuli_distractor_trianglediamonds.svg	stimuli_target_trianglerectangles.svg	25	yes	57	0	444	0	0			0	0			1				0	
6.6.1	win	2023-07-13	15:57:26	16:02:41	311472	617172d3e4d3b6d6ab6a705c	4	1	main_z	7	main_z	77	stimuli_target_rectanglediamonds.svg	stimuli_distractor_trianglediamonds.svg	2	yes	44	1	938	0	0			0	0			1				0	
6.6.1	win	2023-07-13	15:57:26	16:02:41	311472	617172d3e4d3b6d6ab6a705c	4	1	main_z	7	advance_on_keypress_ZEE	78	stimuli_target_rectanglediamonds.svg	stimuli_distractor_trianglediamonds.svg	2	yes	57	0	400	0	0			0	0			1				0	
6.6.1	win	2023-07-13	15:57:26	16:02:44	314518	617172d3e4d3b6d6ab6a705c	4	1	main_z	7	main_z	79	stimuli_distractor_diamondtriangles.svg	stimuli_distractor_diamondtriangles.svg	39	no	0	1	2000	0	0			0	0			1				0	
6.6.1	win	2023-07-13	15:57:26	16:02:44	314518	617172d3e4d3b6d6ab6a705c	4	1	main_z	7	advance_on_keypress_ZEE	80	stimuli_distractor_diamondtriangles.svg	stimuli_distractor_diamondtriangles.svg	39	no	57	0	448	0	0			0	0			1				0	
6.6.1	win	2023-07-13	15:57:26	16:02:46	316378	617172d3e4d3b6d6ab6a705c	4	1	main_z	7	main_z	81	stimuli_distractor_diamondtriangles.svg	stimuli_target_diamondrectangles.svg	31	yes	44	1	761	0	0			0	0			1				0	
6.6.1	win	2023-07-13	15:57:26	16:02:46	316378	617172d3e4d3b6d6ab6a705c	4	1	main_z	7	advance_on_keypress_ZEE	82	stimuli_distractor_diamondtriangles.svg	stimuli_target_diamondrectangles.svg	31	yes	57	0	507	0	0			0	0			1				0	
6.6.1	win	2023-07-13	15:57:26	16:02:49	318724	617172d3e4d3b6d6ab6a705c	4	1	main_z	7	main_z	83	stimuli_distractor_diamondtriangles.svg	stimuli_target_squaretriangles.svg	15	yes	44	1	1190	0	0			0	0			1				0	
6.6.1	win	2023-07-13	15:57:26	16:02:49	318724	617172d3e4d3b6d6ab6a705c	4	1	main_z	7	advance_on_keypress_ZEE	84	stimuli_distractor_diamondtriangles.svg	stimuli_target_squaretriangles.svg	15	yes	57	0	488	0	0			0	0			1				0	
6.6.1	win	2023-07-13	15:57:26	16:02:51	320743	617172d3e4d3b6d6ab6a705c	4	1	main_z	7	main_z	85	stimuli_target_squaretriangles.svg	stimuli_distractor_diamondtriangles.svg	7	yes	44	1	892	0	0			0	0			1				0	
6.6.1	win	2023-07-13	15:57:26	16:02:51	320743	617172d3e4d3b6d6ab6a705c	4	1	main_z	7	advance_on_keypress_ZEE	86	stimuli_target_squaretriangles.svg	stimuli_distractor_diamondtriangles.svg	7	yes	57	0	604	0	0			0	0			1				0	
6.6.1	win	2023-07-13	15:57:26	16:02:53	322922	617172d3e4d3b6d6ab6a705c	4	1	main_z	7	main_z	87	stimuli_distractor_diamondtriangles.svg	stimuli_target_rectangletriangles.svg	13	yes	44	1	938	0	0			0	0			1				0	
6.6.1	win	2023-07-13	15:57:26	16:02:53	322922	617172d3e4d3b6d6ab6a705c	4	1	main_z	7	advance_on_keypress_ZEE	88	stimuli_distractor_diamondtriangles.svg	stimuli_target_rectangletriangles.svg	13	yes	57	0	387	0	0			0	0			1				0	
6.6.1	win	2023-07-13	15:57:26	16:02:56	325951	617172d3e4d3b6d6ab6a705c	4	1	main_z	7	main_z	89	stimuli_distractor_trianglediamonds.svg	stimuli_distractor_trianglediamonds.svg	34	no	0	1	2000	0	0			0	0			1				0	
6.6.1	win	2023-07-13	15:57:26	16:02:56	325951	617172d3e4d3b6d6ab6a705c	4	1	main_z	7	advance_on_keypress_ZEE	90	stimuli_distractor_trianglediamonds.svg	stimuli_distractor_trianglediamonds.svg	34	no	57	0	378	0	0			0	0			1				0	
6.6.1	win	2023-07-13	15:57:26	16:02:58	327837	617172d3e4d3b6d6ab6a705c	4	1	main_z	7	main_z	91	stimuli_distractor_diamondtriangles.svg	stimuli_target_squarediamonds.svg	16	yes	44	1	869	0	0			0	0			1				0	
6.6.1	win	2023-07-13	15:57:26	16:02:58	327837	617172d3e4d3b6d6ab6a705c	4	1	main_z	7	advance_on_keypress_ZEE	92	stimuli_distractor_diamondtriangles.svg	stimuli_target_squarediamonds.svg	16	yes	57	0	510	0	0			0	0			1				0	
6.6.1	win	2023-07-13	15:57:26	16:03:00	329892	617172d3e4d3b6d6ab6a705c	4	1	main_z	7	main_z	93	stimuli_distractor_diamondtriangles.svg	stimuli_target_diamondsquares.svg	32	yes	44	1	907	0	0			0	0			1				0	
6.6.1	win	2023-07-13	15:57:26	16:03:00	329892	617172d3e4d3b6d6ab6a705c	4	1	main_z	7	advance_on_keypress_ZEE	94	stimuli_distractor_diamondtriangles.svg	stimuli_target_diamondsquares.svg	32	yes	57	0	435	0	0			0	0			1				0	
6.6.1	win	2023-07-13	15:57:26	16:03:02	331895	617172d3e4d3b6d6ab6a705c	4	1	main_z	7	main_z	95	stimuli_distractor_diamondtriangles.svg	stimuli_target_rectanglediamonds.svg	14	yes	44	1	927	0	0			0	0			1				0	
6.6.1	win	2023-07-13	15:57:26	16:03:02	331895	617172d3e4d3b6d6ab6a705c	4	1	main_z	7	advance_on_keypress_ZEE	96	stimuli_distractor_diamondtriangles.svg	stimuli_target_rectanglediamonds.svg	14	yes	57	0	376	0	0			0	0			1				0	
6.6.1	win	2023-07-13	15:57:26	16:03:04	333742	617172d3e4d3b6d6ab6a705c	4	1	main_z	7	main_z	97	stimuli_target_rectanglediamonds.svg	stimuli_distractor_diamondtriangles.svg	6	yes	44	1	841	0	0			0	0			1				0	
6.6.1	win	2023-07-13	15:57:26	16:03:04	333742	617172d3e4d3b6d6ab6a705c	4	1	main_z	7	advance_on_keypress_ZEE	98	stimuli_target_rectanglediamonds.svg	stimuli_distractor_diamondtriangles.svg	6	yes	57	0	388	0	0			0	0			1				0	
6.6.1	win	2023-07-13	15:57:26	16:03:06	335573	617172d3e4d3b6d6ab6a705c	4	1	main_z	7	main_z	99	stimuli_distractor_diamondtriangles.svg	stimuli_target_trianglerectangles.svg	29	yes	44	1	805	0	0			0	0			1				0	
6.6.1	win	2023-07-13	15:57:26	16:03:06	335573	617172d3e4d3b6d6ab6a705c	4	1	main_z	7	advance_on_keypress_ZEE	100	stimuli_distractor_diamondtriangles.svg	stimuli_target_trianglerectangles.svg	29	yes	57	0	303	0	0			0	0			1				0	
6.6.1	win	2023-07-13	15:57:26	16:03:08	338518	617172d3e4d3b6d6ab6a705c	4	1	main_z	7	main_z	101	stimuli_distractor_trianglediamonds.svg	stimuli_target_trianglerectangles.svg	25	yes	0	0	2000	0	0			0	0			1				0	
6.6.1	win	2023-07-13	15:57:26	16:03:08	338518	617172d3e4d3b6d6ab6a705c	4	1	main_z	7	advance_on_keypress_ZEE	102	stimuli_distractor_trianglediamonds.svg	stimuli_target_trianglerectangles.svg	25	yes	57	0	320	0	0			0	0			1				0	
6.6.1	win	2023-07-13	15:57:26	16:03:10	340395	617172d3e4d3b6d6ab6a705c	4	1	main_z	7	main_z	103	stimuli_target_diamondsquares.svg	stimuli_distractor_trianglediamonds.svg	20	yes	44	1	910	0	0			0	0			1				0	
6.6.1	win	2023-07-13	15:57:26	16:03:10	340395	617172d3e4d3b6d6ab6a705c	4	1	main_z	7	advance_on_keypress_ZEE	104	stimuli_target_diamondsquares.svg	stimuli_distractor_trianglediamonds.svg	20	yes	57	0	425	0	0			0	0			1				0	
6.6.1	win	2023-07-13	15:57:26	16:03:13	343469	617172d3e4d3b6d6ab6a705c	4	1	main_z	7	main_z	105	stimuli_distractor_trianglediamonds.svg	stimuli_target_squaretriangles.svg	11	yes	0	0	2000	0	0			0	0			1				0	
6.6.1	win	2023-07-13	15:57:26	16:03:13	343469	617172d3e4d3b6d6ab6a705c	4	1	main_z	7	advance_on_keypress_ZEE	106	stimuli_distractor_trianglediamonds.svg	stimuli_target_squaretriangles.svg	11	yes	57	0	276	0	0			0	0			1				0	
6.6.1	win	2023-07-13	15:57:26	16:03:16	346394	617172d3e4d3b6d6ab6a705c	4	1	main_z	7	main_z	107	stimuli_distractor_diamondtriangles.svg	stimuli_distractor_trianglediamonds.svg	37	no	0	1	2000	0	0			0	0			1				0	
6.6.1	win	2023-07-13	15:57:26	16:03:16	346394	617172d3e4d3b6d6ab6a705c	4	1	main_z	7	advance_on_keypress_ZEE	108	stimuli_distractor_diamondtriangles.svg	stimuli_distractor_trianglediamonds.svg	37	no	57	0	267	0	0			0	0			1				0	
6.6.1	win	2023-07-13	15:57:26	16:03:18	348141	617172d3e4d3b6d6ab6a705c	4	1	main_z	7	main_z	109	stimuli_distractor_diamondtriangles.svg	stimuli_target_trianglesquares.svg	30	yes	44	1	840	0	0			0	0			1				0	
6.6.1	win	2023-07-13	15:57:26	16:03:18	348141	617172d3e4d3b6d6ab6a705c	4	1	main_z	7	advance_on_keypress_ZEE	110	stimuli_distractor_diamondtriangles.svg	stimuli_target_trianglesquares.svg	30	yes	57	0	515	0	0			0	0			1				0	
6.6.1	win	2023-07-13	15:57:26	16:03:20	350113	617172d3e4d3b6d6ab6a705c	4	1	main_z	7	main_z	111	stimuli_distractor_trianglediamonds.svg	stimuli_target_diamondsquares.svg	28	yes	44	1	811	0	0			0	0			1				0	
6.6.1	win	2023-07-13	15:57:26	16:03:20	350113	617172d3e4d3b6d6ab6a705c	4	1	main_z	7	advance_on_keypress_ZEE	112	stimuli_distractor_trianglediamonds.svg	stimuli_target_diamondsquares.svg	28	yes	57	0	412	0	0			0	0			1				0	
6.6.1	win	2023-07-13	15:57:26	16:03:22	352102	617172d3e4d3b6d6ab6a705c	4	1	main_z	7	main_z	113	stimuli_target_trianglerectangles.svg	stimuli_distractor_trianglediamonds.svg	17	yes	44	1	933	0	0			0	0			1				0	
6.6.1	win	2023-07-13	15:57:26	16:03:22	352102	617172d3e4d3b6d6ab6a705c	4	1	main_z	7	advance_on_keypress_ZEE	114	stimuli_target_trianglerectangles.svg	stimuli_distractor_trianglediamonds.svg	17	yes	57	0	463	0	0			0	0			1				0	
6.6.1	win	2023-07-13	15:57:26	16:03:24	354108	617172d3e4d3b6d6ab6a705c	4	1	main_z	7	main_z	115	stimuli_distractor_trianglediamonds.svg	stimuli_target_trianglesquares.svg	26	yes	44	1	899	0	0			0	0			1				0	
6.6.1	win	2023-07-13	15:57:26	16:03:24	354108	617172d3e4d3b6d6ab6a705c	4	1	main_z	7	advance_on_keypress_ZEE	116	stimuli_distractor_trianglediamonds.svg	stimuli_target_trianglesquares.svg	26	yes	57	0	515	0	0			0	0			1				0	
6.6.1	win	2023-07-13	15:57:26	16:03:26	356194	617172d3e4d3b6d6ab6a705c	4	1	main_z	7	main_z	117	stimuli_target_diamondrectangles.svg	stimuli_distractor_diamondtriangles.svg	23	yes	44	1	925	0	0			0	0			1				0	
6.6.1	win	2023-07-13	15:57:26	16:03:26	356194	617172d3e4d3b6d6ab6a705c	4	1	main_z	7	advance_on_keypress_ZEE	118	stimuli_target_diamondrectangles.svg	stimuli_distractor_diamondtriangles.svg	23	yes	57	0	566	0	0			0	0			1				0	
6.6.1	win	2023-07-13	15:57:26	16:03:28	358362	617172d3e4d3b6d6ab6a705c	4	1	main_z	7	main_z	119	stimuli_target_rectangletriangles.svg	stimuli_distractor_diamondtriangles.svg	5	yes	44	1	960	0	0			0	0			1				0	
6.6.1	win	2023-07-13	15:57:26	16:03:28	358362	617172d3e4d3b6d6ab6a705c	4	1	main_z	7	advance_on_keypress_ZEE	120	stimuli_target_rectangletriangles.svg	stimuli_distractor_diamondtriangles.svg	5	yes	57	0	484	0	0			0	0			1				0	
6.6.1	win	2023-07-13	15:57:26	16:03:31	360765	617172d3e4d3b6d6ab6a705c	4	1	main_z	7	main_z	121	stimuli_distractor_trianglediamonds.svg	stimuli_target_rectanglediamonds.svg	10	yes	44	1	1279	0	0			0	0			1				0	
6.6.1	win	2023-07-13	15:57:26	16:03:31	360765	617172d3e4d3b6d6ab6a705c	4	1	main_z	7	advance_on_keypress_ZEE	122	stimuli_distractor_trianglediamonds.svg	stimuli_target_rectanglediamonds.svg	10	yes	57	0	414	0	0			0	0			1				0	
6.6.1	win	2023-07-13	15:57:26	16:03:33	362924	617172d3e4d3b6d6ab6a705c	4	1	main_z	7	main_z	123	stimuli_distractor_trianglediamonds.svg	stimuli_target_rectangletriangles.svg	9	yes	44	1	1105	0	0			0	0			1				0	
6.6.1	win	2023-07-13	15:57:26	16:03:33	362924	617172d3e4d3b6d6ab6a705c	4	1	main_z	7	advance_on_keypress_ZEE	124	stimuli_distractor_trianglediamonds.svg	stimuli_target_rectangletriangles.svg	9	yes	57	0	1115	0	0			0	0			1				0	
6.6.1	win	2023-07-13	15:57:26	16:03:37	366686	617172d3e4d3b6d6ab6a705c	4	1	main_z	7	main_z	125	stimuli_distractor_diamondtriangles.svg	stimuli_distractor_diamondtriangles.svg	39	no	0	1	2000	0	0			0	0			1				0	
6.6.1	win	2023-07-13	15:57:26	16:03:37	366686	617172d3e4d3b6d6ab6a705c	4	1	main_z	7	advance_on_keypress_ZEE	126	stimuli_distractor_diamondtriangles.svg	stimuli_distractor_diamondtriangles.svg	39	no	57	0	463	0	0			0	0			1				0	
6.6.1	win	2023-07-13	15:57:26	16:03:39	368811	617172d3e4d3b6d6ab6a705c	4	1	main_z	7	main_z	127	stimuli_target_diamondrectangles.svg	stimuli_distractor_trianglediamonds.svg	19	yes	44	1	1025	0	0			0	0			1				0	
6.6.1	win	2023-07-13	15:57:26	16:03:39	368811	617172d3e4d3b6d6ab6a705c	4	1	main_z	7	advance_on_keypress_ZEE	128	stimuli_target_diamondrectangles.svg	stimuli_distractor_trianglediamonds.svg	19	yes	57	0	416	0	0			0	0			1				0	
6.6.1	win	2023-07-13	15:57:26	16:03:42	371657	617172d3e4d3b6d6ab6a705c	4	1	main_z	7	main_z	129	stimuli_distractor_trianglediamonds.svg	stimuli_target_squarediamonds.svg	12	yes	44	1	1787	0	0			0	0			1				0	
6.6.1	win	2023-07-13	15:57:26	16:03:42	371657	617172d3e4d3b6d6ab6a705c	4	1	main_z	7	advance_on_keypress_ZEE	130	stimuli_distractor_trianglediamonds.svg	stimuli_target_squarediamonds.svg	12	yes	57	0	595	0	0			0	0			1				0	
6.6.1	win	2023-07-13	15:57:26	16:03:44	373736	617172d3e4d3b6d6ab6a705c	4	1	main_z	7	main_z	131	stimuli_target_squarediamonds.svg	stimuli_distractor_diamondtriangles.svg	8	yes	44	1	850	0	0			0	0			1				0	
6.6.1	win	2023-07-13	15:57:26	16:03:44	373736	617172d3e4d3b6d6ab6a705c	4	1	main_z	7	advance_on_keypress_ZEE	132	stimuli_target_squarediamonds.svg	stimuli_distractor_diamondtriangles.svg	8	yes	57	0	441	0	0			0	0			1				0	
6.6.1	win	2023-07-13	15:57:26	16:03:47	376820	617172d3e4d3b6d6ab6a705c	4	1	main_z	7	main_z	133	stimuli_distractor_trianglediamonds.svg	stimuli_distractor_diamondtriangles.svg	35	no	0	1	2000	0	0			0	0			1				0	
6.6.1	win	2023-07-13	15:57:26	16:03:47	376820	617172d3e4d3b6d6ab6a705c	4	1	main_z	7	advance_on_keypress_ZEE	134	stimuli_distractor_trianglediamonds.svg	stimuli_distractor_diamondtriangles.svg	35	no	57	0	448	0	0			0	0			1				0	
6.6.1	win	2023-07-13	15:57:26	16:03:50	379920	617172d3e4d3b6d6ab6a705c	4	1	main_z	7	main_z	135	stimuli_distractor_diamondtriangles.svg	stimuli_distractor_diamondtriangles.svg	40	no	0	1	2000	0	0			0	0			1				0	
6.6.1	win	2023-07-13	15:57:26	16:03:50	379920	617172d3e4d3b6d6ab6a705c	4	1	main_z	7	advance_on_keypress_ZEE	136	stimuli_distractor_diamondtriangles.svg	stimuli_distractor_diamondtriangles.svg	40	no	57	0	261	0	0			0	0			1				0	
6.6.1	win	2023-07-13	15:57:26	16:03:52	381747	617172d3e4d3b6d6ab6a705c	4	1	main_z	7	main_z	137	stimuli_target_squarediamonds.svg	stimuli_distractor_trianglediamonds.svg	4	yes	44	1	918	0	0			0	0			1				0	
6.6.1	win	2023-07-13	15:57:26	16:03:52	381747	617172d3e4d3b6d6ab6a705c	4	1	main_z	7	advance_on_keypress_ZEE	138	stimuli_target_squarediamonds.svg	stimuli_distractor_trianglediamonds.svg	4	yes	57	0	368	0	0			0	0			1				0	
6.6.1	win	2023-07-13	15:57:26	16:03:55	384779	617172d3e4d3b6d6ab6a705c	4	1	main_z	7	main_z	139	stimuli_distractor_trianglediamonds.svg	stimuli_distractor_trianglediamonds.svg	33	no	0	1	2000	0	0			0	0			1				0	
6.6.1	win	2023-07-13	15:57:26	16:03:55	384779	617172d3e4d3b6d6ab6a705c	4	1	main_z	7	advance_on_keypress_ZEE	140	stimuli_distractor_trianglediamonds.svg	stimuli_distractor_trianglediamonds.svg	33	no	57	0	247	0	0			0	0			1				0	
6.6.1	win	2023-07-13	15:57:26	16:03:56	386501	617172d3e4d3b6d6ab6a705c	4	1	main_z	7	main_z	141	stimuli_distractor_trianglediamonds.svg	stimuli_target_diamondrectangles.svg	27	yes	44	1	821	0	0			0	0			1				0	
6.6.1	win	2023-07-13	15:57:26	16:03:56	386501	617172d3e4d3b6d6ab6a705c	4	1	main_z	7	advance_on_keypress_ZEE	142	stimuli_distractor_trianglediamonds.svg	stimuli_target_diamondrectangles.svg	27	yes	57	0	457	0	0			0	0			1				0	
6.6.1	win	2023-07-13	15:57:26	16:03:58	388484	617172d3e4d3b6d6ab6a705c	4	1	main_z	7	main_z	143	stimuli_target_squaretriangles.svg	stimuli_distractor_trianglediamonds.svg	3	yes	44	1	880	0	0			0	0			1				0	
6.6.1	win	2023-07-13	15:57:26	16:03:58	388484	617172d3e4d3b6d6ab6a705c	4	1	main_z	7	advance_on_keypress_ZEE	144	stimuli_target_squaretriangles.svg	stimuli_distractor_trianglediamonds.svg	3	yes	57	0	433	0	0			0	0			1				0	
6.6.1	win	2023-07-13	15:57:26	16:04:00	390400	617172d3e4d3b6d6ab6a705c	4	1	main_z	7	main_z	145	stimuli_target_trianglesquares.svg	stimuli_distractor_diamondtriangles.svg	22	yes	44	1	829	0	0			0	0			1				0	
6.6.1	win	2023-07-13	15:57:26	16:04:00	390400	617172d3e4d3b6d6ab6a705c	4	1	main_z	7	advance_on_keypress_ZEE	146	stimuli_target_trianglesquares.svg	stimuli_distractor_diamondtriangles.svg	22	yes	57	0	315	0	0			0	0			1				0	
6.6.1	win	2023-07-13	15:57:26	16:04:02	392202	617172d3e4d3b6d6ab6a705c	4	1	main_z	7	main_z	147	stimuli_target_rectanglediamonds.svg	stimuli_distractor_trianglediamonds.svg	2	yes	44	1	831	0	0			0	0			1				0	
6.6.1	win	2023-07-13	15:57:26	16:04:02	392202	617172d3e4d3b6d6ab6a705c	4	1	main_z	7	advance_on_keypress_ZEE	148	stimuli_target_rectanglediamonds.svg	stimuli_distractor_trianglediamonds.svg	2	yes	57	0	398	0	0			0	0			1				0	
6.6.1	win	2023-07-13	15:57:26	16:04:04	394155	617172d3e4d3b6d6ab6a705c	4	1	main_z	7	main_z	149	stimuli_target_diamondsquares.svg	stimuli_distractor_diamondtriangles.svg	24	yes	44	1	901	0	0			0	0			1				0	
6.6.1	win	2023-07-13	15:57:26	16:04:04	394155	617172d3e4d3b6d6ab6a705c	4	1	main_z	7	advance_on_keypress_ZEE	150	stimuli_target_diamondsquares.svg	stimuli_distractor_diamondtriangles.svg	24	yes	57	0	413	0	0			0	0			1				0	
6.6.1	win	2023-07-13	15:57:26	16:04:06	396128	617172d3e4d3b6d6ab6a705c	4	1	main_z	7	main_z	151	stimuli_target_trianglerectangles.svg	stimuli_distractor_diamondtriangles.svg	21	yes	44	1	924	0	0			0	0			1				0	
6.6.1	win	2023-07-13	15:57:26	16:04:06	396128	617172d3e4d3b6d6ab6a705c	4	1	main_z	7	advance_on_keypress_ZEE	152	stimuli_target_trianglerectangles.svg	stimuli_distractor_diamondtriangles.svg	21	yes	57	0	322	0	0			0	0			1				0	
6.6.1	win	2023-07-13	15:57:26	16:04:08	398532	617172d3e4d3b6d6ab6a705c	4	1	main_z	7	main_z	153	stimuli_target_rectangletriangles.svg	stimuli_distractor_trianglediamonds.svg	1	yes	44	1	1444	0	0			0	0			1				0	
6.6.1	win	2023-07-13	15:57:26	16:04:08	398532	617172d3e4d3b6d6ab6a705c	4	1	main_z	7	advance_on_keypress_ZEE	154	stimuli_target_rectangletriangles.svg	stimuli_distractor_trianglediamonds.svg	1	yes	57	0	360	0	0			0	0			1				0	
6.6.1	win	2023-07-13	15:57:26	16:04:11	400634	617172d3e4d3b6d6ab6a705c	4	1	main_z	7	main_z	155	stimuli_target_trianglesquares.svg	stimuli_distractor_trianglediamonds.svg	18	yes	44	1	1096	0	0			0	0			1				0	
6.6.1	win	2023-07-13	15:57:26	16:04:11	400634	617172d3e4d3b6d6ab6a705c	4	1	main_z	7	advance_on_keypress_ZEE	156	stimuli_target_trianglesquares.svg	stimuli_distractor_trianglediamonds.svg	18	yes	57	0	318	0	0			0	0			1				0	
6.6.1	win	2023-07-13	15:57:26	16:04:13	402568	617172d3e4d3b6d6ab6a705c	4	1	main_z	7	main_z	157	stimuli_distractor_diamondtriangles.svg	stimuli_distractor_trianglediamonds.svg	38	no	44	0	964	0	0			0	0			1				0	
6.6.1	win	2023-07-13	15:57:26	16:04:13	402568	617172d3e4d3b6d6ab6a705c	4	1	main_z	7	advance_on_keypress_ZEE	158	stimuli_distractor_diamondtriangles.svg	stimuli_distractor_trianglediamonds.svg	38	no	57	0	323	0	0			0	0			1				0	
6.6.1	win	2023-07-13	15:57:26	16:04:15	405538	617172d3e4d3b6d6ab6a705c	4	1	main_z	7	main_z	159	stimuli_distractor_trianglediamonds.svg	stimuli_distractor_diamondtriangles.svg	36	no	0	1	2000	0	0			0	0			1				0	
6.6.1	win	2023-07-13	15:57:26	16:04:15	405538	617172d3e4d3b6d6ab6a705c	4	1	main_z	7	advance_on_keypress_ZEE	160	stimuli_distractor_trianglediamonds.svg	stimuli_distractor_diamondtriangles.svg	36	no	57	0	572	0	0			0	0			1				0	
6.6.1	win	2023-07-13	15:57:26	16:04:44	434405	617172d3e4d3b6d6ab6a705c	4	1	practice_slash	9	practice_slash	1	stimuli_distractor_trianglediamonds.svg	stimuli_target_squarediamonds.svg	11	yes	53	1	808	0	0			0	0			1				0	
6.6.1	win	2023-07-13	15:57:26	16:04:44	434405	617172d3e4d3b6d6ab6a705c	4	1	practice_slash	9	advance_on_keypress_SLASH	2	stimuli_distractor_trianglediamonds.svg	stimuli_target_squarediamonds.svg	11	yes	57	0	1574	0	0			0	0			1				0	
6.6.1	win	2023-07-13	15:57:26	16:04:48	438417	617172d3e4d3b6d6ab6a705c	4	1	practice_slash	9	practice_slash	3	stimuli_distractor_diamondtriangles.svg	stimuli_target_trianglerectangles.svg	9	yes	53	1	778	0	0			0	0			1				0	
6.6.1	win	2023-07-13	15:57:26	16:04:48	438417	617172d3e4d3b6d6ab6a705c	4	1	practice_slash	9	advance_on_keypress_SLASH	4	stimuli_distractor_diamondtriangles.svg	stimuli_target_trianglerectangles.svg	9	yes	57	0	385	0	0			0	0			1				0	
6.6.1	win	2023-07-13	15:57:26	16:04:51	441296	617172d3e4d3b6d6ab6a705c	4	1	practice_slash	9	practice_slash	5	stimuli_target_squarediamonds.svg	stimuli_distractor_trianglediamonds.svg	5	yes	53	1	840	0	0			0	0			1				0	
6.6.1	win	2023-07-13	15:57:26	16:04:51	441296	617172d3e4d3b6d6ab6a705c	4	1	practice_slash	9	advance_on_keypress_SLASH	6	stimuli_target_squarediamonds.svg	stimuli_distractor_trianglediamonds.svg	5	yes	57	0	511	0	0			0	0			1				0	
6.6.1	win	2023-07-13	15:57:26	16:04:54	444315	617172d3e4d3b6d6ab6a705c	4	1	practice_slash	9	practice_slash	7	stimuli_target_diamondsquares.svg	stimuli_distractor_trianglediamonds.svg	6	yes	53	1	862	0	0			0	0			1				0	
6.6.1	win	2023-07-13	15:57:26	16:04:54	444315	617172d3e4d3b6d6ab6a705c	4	1	practice_slash	9	advance_on_keypress_SLASH	8	stimuli_target_diamondsquares.svg	stimuli_distractor_trianglediamonds.svg	6	yes	57	0	519	0	0			0	0			1				0	
6.6.1	win	2023-07-13	15:57:26	16:04:57	447372	617172d3e4d3b6d6ab6a705c	4	1	practice_slash	9	practice_slash	9	stimuli_target_rectanglediamonds.svg	stimuli_distractor_trianglediamonds.svg	4	yes	53	1	881	0	0			0	0			1				0	
6.6.1	win	2023-07-13	15:57:26	16:04:57	447372	617172d3e4d3b6d6ab6a705c	4	1	practice_slash	9	advance_on_keypress_SLASH	10	stimuli_target_rectanglediamonds.svg	stimuli_distractor_trianglediamonds.svg	4	yes	57	0	517	0	0			0	0			1				0	
6.6.1	win	2023-07-13	15:57:26	16:05:00	450421	617172d3e4d3b6d6ab6a705c	4	1	practice_slash	9	practice_slash	11	stimuli_distractor_trianglediamonds.svg	stimuli_target_rectanglediamonds.svg	10	yes	53	1	863	0	0			0	0			1				0	
6.6.1	win	2023-07-13	15:57:26	16:05:00	450421	617172d3e4d3b6d6ab6a705c	4	1	practice_slash	9	advance_on_keypress_SLASH	12	stimuli_distractor_trianglediamonds.svg	stimuli_target_rectanglediamonds.svg	10	yes	57	0	519	0	0			0	0			1				0	
6.6.1	win	2023-07-13	15:57:26	16:05:03	453441	617172d3e4d3b6d6ab6a705c	4	1	practice_slash	9	practice_slash	13	stimuli_target_diamondsquares.svg	stimuli_distractor_diamondtriangles.svg	3	yes	53	1	850	0	0			0	0			1				0	
6.6.1	win	2023-07-13	15:57:26	16:05:03	453441	617172d3e4d3b6d6ab6a705c	4	1	practice_slash	9	advance_on_keypress_SLASH	14	stimuli_target_diamondsquares.svg	stimuli_distractor_diamondtriangles.svg	3	yes	57	0	341	0	0			0	0			1				0	
6.6.1	win	2023-07-13	15:57:26	16:05:06	456415	617172d3e4d3b6d6ab6a705c	4	1	practice_slash	9	practice_slash	15	stimuli_distractor_diamondtriangles.svg	stimuli_target_diamondrectangles.svg	8	yes	53	1	991	0	0			0	0			1				0	
6.6.1	win	2023-07-13	15:57:26	16:05:06	456415	617172d3e4d3b6d6ab6a705c	4	1	practice_slash	9	advance_on_keypress_SLASH	16	stimuli_distractor_diamondtriangles.svg	stimuli_target_diamondrectangles.svg	8	yes	57	0	456	0	0			0	0			1				0	
6.6.1	win	2023-07-13	15:57:26	16:05:10	460508	617172d3e4d3b6d6ab6a705c	4	1	practice_slash	9	practice_slash	17	stimuli_distractor_diamondtriangles.svg	stimuli_distractor_trianglediamonds.svg	14	no	0	1	2000	0	0			0	0			1				0	
6.6.1	win	2023-07-13	15:57:26	16:05:10	460508	617172d3e4d3b6d6ab6a705c	4	1	practice_slash	9	advance_on_keypress_SLASH	18	stimuli_distractor_diamondtriangles.svg	stimuli_distractor_trianglediamonds.svg	14	no	57	0	340	0	0			0	0			1				0	
6.6.1	win	2023-07-13	15:57:26	16:05:13	463321	617172d3e4d3b6d6ab6a705c	4	1	practice_slash	9	practice_slash	19	stimuli_target_squarediamonds.svg	stimuli_distractor_diamondtriangles.svg	2	yes	53	1	830	0	0			0	0			1				0	
6.6.1	win	2023-07-13	15:57:26	16:05:13	463321	617172d3e4d3b6d6ab6a705c	4	1	practice_slash	9	advance_on_keypress_SLASH	20	stimuli_target_squarediamonds.svg	stimuli_distractor_diamondtriangles.svg	2	yes	57	0	355	0	0			0	0			1				0	
6.6.1	win	2023-07-13	15:57:26	16:05:17	467325	617172d3e4d3b6d6ab6a705c	4	1	practice_slash	9	practice_slash	21	stimuli_distractor_trianglediamonds.svg	stimuli_distractor_diamondtriangles.svg	16	no	0	1	2000	0	0			0	0			1				0	
6.6.1	win	2023-07-13	15:57:26	16:05:17	467325	617172d3e4d3b6d6ab6a705c	4	1	practice_slash	9	advance_on_keypress_SLASH	22	stimuli_distractor_trianglediamonds.svg	stimuli_distractor_diamondtriangles.svg	16	no	57	0	427	0	0			0	0			1				0	
6.6.1	win	2023-07-13	15:57:26	16:05:20	470266	617172d3e4d3b6d6ab6a705c	4	1	practice_slash	9	practice_slash	23	stimuli_target_rectanglediamonds.svg	stimuli_distractor_diamondtriangles.svg	1	yes	53	1	872	0	0			0	0			1				0	
6.6.1	win	2023-07-13	15:57:26	16:05:20	470266	617172d3e4d3b6d6ab6a705c	4	1	practice_slash	9	advance_on_keypress_SLASH	24	stimuli_target_rectanglediamonds.svg	stimuli_distractor_diamondtriangles.svg	1	yes	57	0	417	0	0			0	0			1				0	
6.6.1	win	2023-07-13	15:57:26	16:05:23	473108	617172d3e4d3b6d6ab6a705c	4	1	practice_slash	9	practice_slash	25	stimuli_distractor_trianglediamonds.svg	stimuli_target_diamondrectangles.svg	12	yes	53	1	777	0	0			0	0			1				0	
6.6.1	win	2023-07-13	15:57:26	16:05:23	473108	617172d3e4d3b6d6ab6a705c	4	1	practice_slash	9	advance_on_keypress_SLASH	26	stimuli_distractor_trianglediamonds.svg	stimuli_target_diamondrectangles.svg	12	yes	57	0	515	0	0			0	0			1				0	
6.6.1	win	2023-07-13	15:57:26	16:05:26	476229	617172d3e4d3b6d6ab6a705c	4	1	practice_slash	9	practice_slash	27	stimuli_distractor_trianglediamonds.svg	stimuli_distractor_trianglediamonds.svg	15	no	53	0	955	0	0			0	0			1				0	
6.6.1	win	2023-07-13	15:57:26	16:05:26	476229	617172d3e4d3b6d6ab6a705c	4	1	practice_slash	9	advance_on_keypress_SLASH	28	stimuli_distractor_trianglediamonds.svg	stimuli_distractor_trianglediamonds.svg	15	no	57	0	433	0	0			0	0			1				0	
6.6.1	win	2023-07-13	15:57:26	16:05:30	480309	617172d3e4d3b6d6ab6a705c	4	1	practice_slash	9	practice_slash	29	stimuli_distractor_diamondtriangles.svg	stimuli_distractor_diamondtriangles.svg	13	no	0	1	2000	0	0			0	0			1				0	
6.6.1	win	2023-07-13	15:57:26	16:05:30	480309	617172d3e4d3b6d6ab6a705c	4	1	practice_slash	9	advance_on_keypress_SLASH	30	stimuli_distractor_diamondtriangles.svg	stimuli_distractor_diamondtriangles.svg	13	no	57	0	382	0	0			0	0			1				0	
6.6.1	win	2023-07-13	15:57:26	16:05:33	483271	617172d3e4d3b6d6ab6a705c	4	1	practice_slash	9	practice_slash	31	stimuli_distractor_diamondtriangles.svg	stimuli_target_rectangletriangles.svg	7	yes	53	1	930	0	0			0	0			1				0	
6.6.1	win	2023-07-13	15:57:26	16:05:33	483271	617172d3e4d3b6d6ab6a705c	4	1	practice_slash	9	advance_on_keypress_SLASH	32	stimuli_distractor_diamondtriangles.svg	stimuli_target_rectangletriangles.svg	7	yes	57	0	620	0	0			0	0			1				0	
6.6.1	win	2023-07-13	15:57:26	16:05:39	488703	617172d3e4d3b6d6ab6a705c	4	1	main_slash	11	main_slash	1	stimuli_target_squaretriangles.svg	stimuli_distractor_diamondtriangles.svg	7	yes	53	1	834	0	0			0	0			1				0	
6.6.1	win	2023-07-13	15:57:26	16:05:39	488703	617172d3e4d3b6d6ab6a705c	4	1	main_slash	11	advance_on_keypress_SLASH	2	stimuli_target_squaretriangles.svg	stimuli_distractor_diamondtriangles.svg	7	yes	57	0	789	0	0			0	0			1				0	
6.6.1	win	2023-07-13	15:57:26	16:05:41	491269	617172d3e4d3b6d6ab6a705c	4	1	main_slash	11	main_slash	3	stimuli_distractor_trianglediamonds.svg	stimuli_distractor_diamondtriangles.svg	35	no	53	0	1113	0	0			0	0			1				0	
6.6.1	win	2023-07-13	15:57:26	16:05:41	491269	617172d3e4d3b6d6ab6a705c	4	1	main_slash	11	advance_on_keypress_SLASH	4	stimuli_distractor_trianglediamonds.svg	stimuli_distractor_diamondtriangles.svg	35	no	57	0	393	0	0			0	0			1				0	
6.6.1	win	2023-07-13	15:57:26	16:05:43	493121	617172d3e4d3b6d6ab6a705c	4	1	main_slash	11	main_slash	5	stimuli_distractor_diamondtriangles.svg	stimuli_target_rectangletriangles.svg	13	yes	53	1	796	0	0			0	0			1				0	
6.6.1	win	2023-07-13	15:57:26	16:05:43	493121	617172d3e4d3b6d6ab6a705c	4	1	main_slash	11	advance_on_keypress_SLASH	6	stimuli_distractor_diamondtriangles.svg	stimuli_target_rectangletriangles.svg	13	yes	57	0	390	0	0			0	0			1				0	
6.6.1	win	2023-07-13	15:57:26	16:05:45	495071	617172d3e4d3b6d6ab6a705c	4	1	main_slash	11	main_slash	7	stimuli_distractor_trianglediamonds.svg	stimuli_target_diamondrectangles.svg	27	yes	53	1	913	0	0			0	0			1				0	
6.6.1	win	2023-07-13	15:57:26	16:05:45	495071	617172d3e4d3b6d6ab6a705c	4	1	main_slash	11	advance_on_keypress_SLASH	8	stimuli_distractor_trianglediamonds.svg	stimuli_target_diamondrectangles.svg	27	yes	57	0	392	0	0			0	0			1				0	
6.6.1	win	2023-07-13	15:57:26	16:05:47	497025	617172d3e4d3b6d6ab6a705c	4	1	main_slash	11	main_slash	9	stimuli_target_rectangletriangles.svg	stimuli_distractor_diamondtriangles.svg	5	yes	53	1	904	0	0			0	0			1				0	
6.6.1	win	2023-07-13	15:57:26	16:05:47	497025	617172d3e4d3b6d6ab6a705c	4	1	main_slash	11	advance_on_keypress_SLASH	10	stimuli_target_rectangletriangles.svg	stimuli_distractor_diamondtriangles.svg	5	yes	57	0	425	0	0			0	0			1				0	
6.6.1	win	2023-07-13	15:57:26	16:05:49	498991	617172d3e4d3b6d6ab6a705c	4	1	main_slash	11	main_slash	11	stimuli_target_trianglesquares.svg	stimuli_distractor_diamondtriangles.svg	22	yes	53	1	882	0	0			0	0			1				0	
6.6.1	win	2023-07-13	15:57:26	16:05:49	498991	617172d3e4d3b6d6ab6a705c	4	1	main_slash	11	advance_on_keypress_SLASH	12	stimuli_target_trianglesquares.svg	stimuli_distractor_diamondtriangles.svg	22	yes	57	0	377	0	0			0	0			1				0	
6.6.1	win	2023-07-13	15:57:26	16:05:51	501029	617172d3e4d3b6d6ab6a705c	4	1	main_slash	11	main_slash	13	stimuli_target_diamondrectangles.svg	stimuli_distractor_trianglediamonds.svg	19	yes	53	1	1006	0	0			0	0			1				0	
6.6.1	win	2023-07-13	15:57:26	16:05:51	501029	617172d3e4d3b6d6ab6a705c	4	1	main_slash	11	advance_on_keypress_SLASH	14	stimuli_target_diamondrectangles.svg	stimuli_distractor_trianglediamonds.svg	19	yes	57	0	362	0	0			0	0			1				0	
6.6.1	win	2023-07-13	15:57:26	16:05:53	502778	617172d3e4d3b6d6ab6a705c	4	1	main_slash	11	main_slash	15	stimuli_target_rectanglediamonds.svg	stimuli_distractor_diamondtriangles.svg	6	yes	53	1	736	0	0			0	0			1				0	
6.6.1	win	2023-07-13	15:57:26	16:05:53	502778	617172d3e4d3b6d6ab6a705c	4	1	main_slash	11	advance_on_keypress_SLASH	16	stimuli_target_rectanglediamonds.svg	stimuli_distractor_diamondtriangles.svg	6	yes	57	0	365	0	0			0	0			1				0	
6.6.1	win	2023-07-13	15:57:26	16:05:55	504642	617172d3e4d3b6d6ab6a705c	4	1	main_slash	11	main_slash	17	stimuli_distractor_diamondtriangles.svg	stimuli_target_squaretriangles.svg	15	yes	53	1	850	0	0			0	0			1				0	
6.6.1	win	2023-07-13	15:57:26	16:05:55	504642	617172d3e4d3b6d6ab6a705c	4	1	main_slash	11	advance_on_keypress_SLASH	18	stimuli_distractor_diamondtriangles.svg	stimuli_target_squaretriangles.svg	15	yes	57	0	398	0	0			0	0			1				0	
6.6.1	win	2023-07-13	15:57:26	16:05:58	507692	617172d3e4d3b6d6ab6a705c	4	1	main_slash	11	main_slash	19	stimuli_distractor_diamondtriangles.svg	stimuli_distractor_diamondtriangles.svg	40	no	0	1	2000	0	0			0	0			1				0	
6.6.1	win	2023-07-13	15:57:26	16:05:58	507692	617172d3e4d3b6d6ab6a705c	4	1	main_slash	11	advance_on_keypress_SLASH	20	stimuli_distractor_diamondtriangles.svg	stimuli_distractor_diamondtriangles.svg	40	no	57	0	263	0	0			0	0			1				0	
6.6.1	win	2023-07-13	15:57:26	16:05:59	509329	617172d3e4d3b6d6ab6a705c	4	1	main_slash	11	main_slash	21	stimuli_distractor_trianglediamonds.svg	stimuli_target_trianglesquares.svg	26	yes	53	1	736	0	0			0	0			1				0	
6.6.1	win	2023-07-13	15:57:26	16:05:59	509329	617172d3e4d3b6d6ab6a705c	4	1	main_slash	11	advance_on_keypress_SLASH	22	stimuli_distractor_trianglediamonds.svg	stimuli_target_trianglesquares.svg	26	yes	57	0	465	0	0			0	0			1				0	
6.6.1	win	2023-07-13	15:57:26	16:06:01	511300	617172d3e4d3b6d6ab6a705c	4	1	main_slash	11	main_slash	23	stimuli_target_squaretriangles.svg	stimuli_distractor_trianglediamonds.svg	3	yes	53	1	865	0	0			0	0			1				0	
6.6.1	win	2023-07-13	15:57:26	16:06:01	511300	617172d3e4d3b6d6ab6a705c	4	1	main_slash	11	advance_on_keypress_SLASH	24	stimuli_target_squaretriangles.svg	stimuli_distractor_trianglediamonds.svg	3	yes	57	0	433	0	0			0	0			1				0	
6.6.1	win	2023-07-13	15:57:26	16:06:03	513234	617172d3e4d3b6d6ab6a705c	4	1	main_slash	11	main_slash	25	stimuli_target_rectanglediamonds.svg	stimuli_distractor_trianglediamonds.svg	2	yes	53	1	850	0	0			0	0			1				0	
6.6.1	win	2023-07-13	15:57:26	16:06:03	513234	617172d3e4d3b6d6ab6a705c	4	1	main_slash	11	advance_on_keypress_SLASH	26	stimuli_target_rectanglediamonds.svg	stimuli_distractor_trianglediamonds.svg	2	yes	57	0	306	0	0			0	0			1				0	
6.6.1	win	2023-07-13	15:57:26	16:06:05	515104	617172d3e4d3b6d6ab6a705c	4	1	main_slash	11	main_slash	27	stimuli_distractor_diamondtriangles.svg	stimuli_target_trianglerectangles.svg	29	yes	53	1	911	0	0			0	0			1				0	
6.6.1	win	2023-07-13	15:57:26	16:06:05	515104	617172d3e4d3b6d6ab6a705c	4	1	main_slash	11	advance_on_keypress_SLASH	28	stimuli_distractor_diamondtriangles.svg	stimuli_target_trianglerectangles.svg	29	yes	57	0	382	0	0			0	0			1				0	
6.6.1	win	2023-07-13	15:57:26	16:06:07	517027	617172d3e4d3b6d6ab6a705c	4	1	main_slash	11	main_slash	29	stimuli_distractor_diamondtriangles.svg	stimuli_target_diamondrectangles.svg	31	yes	53	1	884	0	0			0	0			1				0	
6.6.1	win	2023-07-13	15:57:26	16:06:07	517027	617172d3e4d3b6d6ab6a705c	4	1	main_slash	11	advance_on_keypress_SLASH	30	stimuli_distractor_diamondtriangles.svg	stimuli_target_diamondrectangles.svg	31	yes	57	0	340	0	0			0	0			1				0	
6.6.1	win	2023-07-13	15:57:26	16:06:09	518910	617172d3e4d3b6d6ab6a705c	4	1	main_slash	11	main_slash	31	stimuli_target_diamondrectangles.svg	stimuli_distractor_diamondtriangles.svg	23	yes	53	1	900	0	0			0	0			1				0	
6.6.1	win	2023-07-13	15:57:26	16:06:09	518910	617172d3e4d3b6d6ab6a705c	4	1	main_slash	11	advance_on_keypress_SLASH	32	stimuli_target_diamondrectangles.svg	stimuli_distractor_diamondtriangles.svg	23	yes	57	0	336	0	0			0	0			1				0	
6.6.1	win	2023-07-13	15:57:26	16:06:12	521893	617172d3e4d3b6d6ab6a705c	4	1	main_slash	11	main_slash	33	stimuli_distractor_diamondtriangles.svg	stimuli_distractor_trianglediamonds.svg	37	no	0	1	2000	0	0			0	0			1				0	
6.6.1	win	2023-07-13	15:57:26	16:06:12	521893	617172d3e4d3b6d6ab6a705c	4	1	main_slash	11	advance_on_keypress_SLASH	34	stimuli_distractor_diamondtriangles.svg	stimuli_distractor_trianglediamonds.svg	37	no	57	0	382	0	0			0	0			1				0	
6.6.1	win	2023-07-13	15:57:26	16:06:15	524926	617172d3e4d3b6d6ab6a705c	4	1	main_slash	11	main_slash	35	stimuli_target_squarediamonds.svg	stimuli_distractor_trianglediamonds.svg	4	yes	0	0	2000	0	0			0	0			1				0	
6.6.1	win	2023-07-13	15:57:26	16:06:15	524926	617172d3e4d3b6d6ab6a705c	4	1	main_slash	11	advance_on_keypress_SLASH	36	stimuli_target_squarediamonds.svg	stimuli_distractor_trianglediamonds.svg	4	yes	57	0	267	0	0			0	0			1				0	
6.6.1	win	2023-07-13	15:57:26	16:06:17	526649	617172d3e4d3b6d6ab6a705c	4	1	main_slash	11	main_slash	37	stimuli_distractor_trianglediamonds.svg	stimuli_target_trianglerectangles.svg	25	yes	53	1	806	0	0			0	0			1				0	
6.6.1	win	2023-07-13	15:57:26	16:06:17	526649	617172d3e4d3b6d6ab6a705c	4	1	main_slash	11	advance_on_keypress_SLASH	38	stimuli_distractor_trianglediamonds.svg	stimuli_target_trianglerectangles.svg	25	yes	57	0	890	0	0			0	0			1				0	
6.6.1	win	2023-07-13	15:57:26	16:06:19	529013	617172d3e4d3b6d6ab6a705c	4	1	main_slash	11	main_slash	39	stimuli_distractor_diamondtriangles.svg	stimuli_target_squarediamonds.svg	16	yes	53	1	836	0	0			0	0			1				0	
6.6.1	win	2023-07-13	15:57:26	16:06:19	529013	617172d3e4d3b6d6ab6a705c	4	1	main_slash	11	advance_on_keypress_SLASH	40	stimuli_distractor_diamondtriangles.svg	stimuli_target_squarediamonds.svg	16	yes	57	0	515	0	0			0	0			1				0	
6.6.1	win	2023-07-13	15:57:26	16:06:21	530858	617172d3e4d3b6d6ab6a705c	4	1	main_slash	11	main_slash	41	stimuli_distractor_trianglediamonds.svg	stimuli_target_squarediamonds.svg	12	yes	53	1	682	0	0			0	0			1				0	
6.6.1	win	2023-07-13	15:57:26	16:06:21	530858	617172d3e4d3b6d6ab6a705c	4	1	main_slash	11	advance_on_keypress_SLASH	42	stimuli_distractor_trianglediamonds.svg	stimuli_target_squarediamonds.svg	12	yes	57	0	646	0	0			0	0			1				0	
6.6.1	win	2023-07-13	15:57:26	16:06:23	532882	617172d3e4d3b6d6ab6a705c	4	1	main_slash	11	main_slash	43	stimuli_distractor_trianglediamonds.svg	stimuli_target_diamondsquares.svg	28	yes	53	1	739	0	0			0	0			1				0	
6.6.1	win	2023-07-13	15:57:26	16:06:23	532882	617172d3e4d3b6d6ab6a705c	4	1	main_slash	11	advance_on_keypress_SLASH	44	stimuli_distractor_trianglediamonds.svg	stimuli_target_diamondsquares.svg	28	yes	57	0	473	0	0			0	0			1				0	
6.6.1	win	2023-07-13	15:57:26	16:06:26	535994	617172d3e4d3b6d6ab6a705c	4	1	main_slash	11	main_slash	45	stimuli_distractor_diamondtriangles.svg	stimuli_distractor_trianglediamonds.svg	38	no	0	1	2000	0	0			0	0			1				0	
6.6.1	win	2023-07-13	15:57:26	16:06:26	535994	617172d3e4d3b6d6ab6a705c	4	1	main_slash	11	advance_on_keypress_SLASH	46	stimuli_distractor_diamondtriangles.svg	stimuli_distractor_trianglediamonds.svg	38	no	57	0	491	0	0			0	0			1				0	
6.6.1	win	2023-07-13	15:57:26	16:06:28	537806	617172d3e4d3b6d6ab6a705c	4	1	main_slash	11	main_slash	47	stimuli_distractor_diamondtriangles.svg	stimuli_target_trianglesquares.svg	30	yes	53	1	679	0	0			0	0			1				0	
6.6.1	win	2023-07-13	15:57:26	16:06:28	537806	617172d3e4d3b6d6ab6a705c	4	1	main_slash	11	advance_on_keypress_SLASH	48	stimuli_distractor_diamondtriangles.svg	stimuli_target_trianglesquares.svg	30	yes	57	0	410	0	0			0	0			1				0	
6.6.1	win	2023-07-13	15:57:26	16:06:30	539580	617172d3e4d3b6d6ab6a705c	4	1	main_slash	11	main_slash	49	stimuli_target_diamondsquares.svg	stimuli_distractor_diamondtriangles.svg	24	yes	53	1	720	0	0			0	0			1				0	
6.6.1	win	2023-07-13	15:57:26	16:06:30	539580	617172d3e4d3b6d6ab6a705c	4	1	main_slash	11	advance_on_keypress_SLASH	50	stimuli_target_diamondsquares.svg	stimuli_distractor_diamondtriangles.svg	24	yes	57	0	331	0	0			0	0			1				0	
6.6.1	win	2023-07-13	15:57:26	16:06:31	541248	617172d3e4d3b6d6ab6a705c	4	1	main_slash	11	main_slash	51	stimuli_distractor_diamondtriangles.svg	stimuli_target_rectanglediamonds.svg	14	yes	53	1	691	0	0			0	0			1				0	
6.6.1	win	2023-07-13	15:57:26	16:06:31	541248	617172d3e4d3b6d6ab6a705c	4	1	main_slash	11	advance_on_keypress_SLASH	52	stimuli_distractor_diamondtriangles.svg	stimuli_target_rectanglediamonds.svg	14	yes	57	0	307	0	0			0	0			1				0	
6.6.1	win	2023-07-13	15:57:26	16:06:33	543303	617172d3e4d3b6d6ab6a705c	4	1	main_slash	11	main_slash	53	stimuli_target_trianglerectangles.svg	stimuli_distractor_diamondtriangles.svg	21	yes	53	1	1083	0	0			0	0			1				0	
6.6.1	win	2023-07-13	15:57:26	16:06:33	543303	617172d3e4d3b6d6ab6a705c	4	1	main_slash	11	advance_on_keypress_SLASH	54	stimuli_target_trianglerectangles.svg	stimuli_distractor_diamondtriangles.svg	21	yes	57	0	327	0	0			0	0			1				0	
6.6.1	win	2023-07-13	15:57:26	16:06:35	545131	617172d3e4d3b6d6ab6a705c	4	1	main_slash	11	main_slash	55	stimuli_distractor_trianglediamonds.svg	stimuli_target_squaretriangles.svg	11	yes	53	1	840	0	0			0	0			1				0	
6.6.1	win	2023-07-13	15:57:26	16:06:35	545131	617172d3e4d3b6d6ab6a705c	4	1	main_slash	11	advance_on_keypress_SLASH	56	stimuli_distractor_trianglediamonds.svg	stimuli_target_squaretriangles.svg	11	yes	57	0	331	0	0			0	0			1				0	
6.6.1	win	2023-07-13	15:57:26	16:06:38	548100	617172d3e4d3b6d6ab6a705c	4	1	main_slash	11	main_slash	57	stimuli_distractor_trianglediamonds.svg	stimuli_target_rectangletriangles.svg	9	yes	0	0	2000	0	0			0	0			1				0	
6.6.1	win	2023-07-13	15:57:26	16:06:38	548100	617172d3e4d3b6d6ab6a705c	4	1	main_slash	11	advance_on_keypress_SLASH	58	stimuli_distractor_trianglediamonds.svg	stimuli_target_rectangletriangles.svg	9	yes	57	0	1367	0	0			0	0			1				0	
6.6.1	win	2023-07-13	15:57:26	16:06:41	550932	617172d3e4d3b6d6ab6a705c	4	1	main_slash	11	main_slash	59	stimuli_target_diamondsquares.svg	stimuli_distractor_trianglediamonds.svg	20	yes	53	1	816	0	0			0	0			1				0	
6.6.1	win	2023-07-13	15:57:26	16:06:41	550932	617172d3e4d3b6d6ab6a705c	4	1	main_slash	11	advance_on_keypress_SLASH	60	stimuli_target_diamondsquares.svg	stimuli_distractor_trianglediamonds.svg	20	yes	57	0	438	0	0			0	0			1				0	
6.6.1	win	2023-07-13	15:57:26	16:06:44	554014	617172d3e4d3b6d6ab6a705c	4	1	main_slash	11	main_slash	61	stimuli_distractor_trianglediamonds.svg	stimuli_distractor_trianglediamonds.svg	34	no	0	1	2000	0	0			0	0			1				0	
6.6.1	win	2023-07-13	15:57:26	16:06:44	554014	617172d3e4d3b6d6ab6a705c	4	1	main_slash	11	advance_on_keypress_SLASH	62	stimuli_distractor_trianglediamonds.svg	stimuli_distractor_trianglediamonds.svg	34	no	57	0	255	0	0			0	0			1				0	
6.6.1	win	2023-07-13	15:57:26	16:06:46	555646	617172d3e4d3b6d6ab6a705c	4	1	main_slash	11	main_slash	63	stimuli_distractor_trianglediamonds.svg	stimuli_target_rectanglediamonds.svg	10	yes	53	1	735	0	0			0	0			1				0	
6.6.1	win	2023-07-13	15:57:26	16:06:46	555646	617172d3e4d3b6d6ab6a705c	4	1	main_slash	11	advance_on_keypress_SLASH	64	stimuli_distractor_trianglediamonds.svg	stimuli_target_rectanglediamonds.svg	10	yes	57	0	404	0	0			0	0			1				0	
6.6.1	win	2023-07-13	15:57:26	16:06:49	558695	617172d3e4d3b6d6ab6a705c	4	1	main_slash	11	main_slash	65	stimuli_distractor_diamondtriangles.svg	stimuli_distractor_diamondtriangles.svg	39	no	0	1	2000	0	0			0	0			1				0	
6.6.1	win	2023-07-13	15:57:26	16:06:49	558695	617172d3e4d3b6d6ab6a705c	4	1	main_slash	11	advance_on_keypress_SLASH	66	stimuli_distractor_diamondtriangles.svg	stimuli_distractor_diamondtriangles.svg	39	no	57	0	245	0	0			0	0			1				0	
6.6.1	win	2023-07-13	15:57:26	16:06:51	560564	617172d3e4d3b6d6ab6a705c	4	1	main_slash	11	main_slash	67	stimuli_distractor_trianglediamonds.svg	stimuli_distractor_diamondtriangles.svg	36	no	53	0	973	0	0			0	0			1				0	
6.6.1	win	2023-07-13	15:57:26	16:06:51	560564	617172d3e4d3b6d6ab6a705c	4	1	main_slash	11	advance_on_keypress_SLASH	68	stimuli_distractor_trianglediamonds.svg	stimuli_distractor_diamondtriangles.svg	36	no	57	0	328	0	0			0	0			1				0	
6.6.1	win	2023-07-13	15:57:26	16:06:53	563528	617172d3e4d3b6d6ab6a705c	4	1	main_slash	11	main_slash	69	stimuli_distractor_trianglediamonds.svg	stimuli_distractor_trianglediamonds.svg	33	no	0	1	2000	0	0			0	0			1				0	
6.6.1	win	2023-07-13	15:57:26	16:06:53	563528	617172d3e4d3b6d6ab6a705c	4	1	main_slash	11	advance_on_keypress_SLASH	70	stimuli_distractor_trianglediamonds.svg	stimuli_distractor_trianglediamonds.svg	33	no	57	0	249	0	0			0	0			1				0	
6.6.1	win	2023-07-13	15:57:26	16:06:55	565270	617172d3e4d3b6d6ab6a705c	4	1	main_slash	11	main_slash	71	stimuli_target_rectangletriangles.svg	stimuli_distractor_trianglediamonds.svg	1	yes	53	1	842	0	0			0	0			1				0	
6.6.1	win	2023-07-13	15:57:26	16:06:55	565270	617172d3e4d3b6d6ab6a705c	4	1	main_slash	11	advance_on_keypress_SLASH	72	stimuli_target_rectangletriangles.svg	stimuli_distractor_trianglediamonds.svg	1	yes	57	0	411	0	0			0	0			1				0	
6.6.1	win	2023-07-13	15:57:26	16:06:57	567359	617172d3e4d3b6d6ab6a705c	4	1	main_slash	11	main_slash	73	stimuli_target_trianglesquares.svg	stimuli_distractor_trianglediamonds.svg	18	yes	53	1	1037	0	0			0	0			1				0	
6.6.1	win	2023-07-13	15:57:26	16:06:57	567359	617172d3e4d3b6d6ab6a705c	4	1	main_slash	11	advance_on_keypress_SLASH	74	stimuli_target_trianglesquares.svg	stimuli_distractor_trianglediamonds.svg	18	yes	57	0	361	0	0			0	0			1				0	
6.6.1	win	2023-07-13	15:57:26	16:06:59	569227	617172d3e4d3b6d6ab6a705c	4	1	main_slash	11	main_slash	75	stimuli_distractor_diamondtriangles.svg	stimuli_target_diamondsquares.svg	32	yes	53	1	849	0	0			0	0			1				0	
6.6.1	win	2023-07-13	15:57:26	16:06:59	569227	617172d3e4d3b6d6ab6a705c	4	1	main_slash	11	advance_on_keypress_SLASH	76	stimuli_distractor_diamondtriangles.svg	stimuli_target_diamondsquares.svg	32	yes	57	0	383	0	0			0	0			1				0	
6.6.1	win	2023-07-13	15:57:26	16:07:01	571104	617172d3e4d3b6d6ab6a705c	4	1	main_slash	11	main_slash	77	stimuli_target_trianglerectangles.svg	stimuli_distractor_trianglediamonds.svg	17	yes	53	1	842	0	0			0	0			1				0	
6.6.1	win	2023-07-13	15:57:26	16:07:01	571104	617172d3e4d3b6d6ab6a705c	4	1	main_slash	11	advance_on_keypress_SLASH	78	stimuli_target_trianglerectangles.svg	stimuli_distractor_trianglediamonds.svg	17	yes	57	0	391	0	0			0	0			1				0	
6.6.1	win	2023-07-13	15:57:26	16:07:03	572855	617172d3e4d3b6d6ab6a705c	4	1	main_slash	11	main_slash	79	stimuli_target_squarediamonds.svg	stimuli_distractor_diamondtriangles.svg	8	yes	53	1	710	0	0			0	0			1				0	
6.6.1	win	2023-07-13	15:57:26	16:07:03	572855	617172d3e4d3b6d6ab6a705c	4	1	main_slash	11	advance_on_keypress_SLASH	80	stimuli_target_squarediamonds.svg	stimuli_distractor_diamondtriangles.svg	8	yes	57	0	311	0	0			0	0			1				0	
6.6.1	win	2023-07-13	15:57:26	16:07:05	574926	617172d3e4d3b6d6ab6a705c	4	1	main_slash	11	main_slash	81	stimuli_distractor_diamondtriangles.svg	stimuli_target_rectanglediamonds.svg	14	yes	53	1	1114	0	0			0	0			1				0	
6.6.1	win	2023-07-13	15:57:26	16:07:05	574926	617172d3e4d3b6d6ab6a705c	4	1	main_slash	11	advance_on_keypress_SLASH	82	stimuli_distractor_diamondtriangles.svg	stimuli_target_rectanglediamonds.svg	14	yes	57	0	320	0	0			0	0			1				0	
6.6.1	win	2023-07-13	15:57:26	16:07:07	576752	617172d3e4d3b6d6ab6a705c	4	1	main_slash	11	main_slash	83	stimuli_target_diamondrectangles.svg	stimuli_distractor_diamondtriangles.svg	23	yes	53	1	857	0	0			0	0			1				0	
6.6.1	win	2023-07-13	15:57:26	16:07:07	576752	617172d3e4d3b6d6ab6a705c	4	1	main_slash	11	advance_on_keypress_SLASH	84	stimuli_target_diamondrectangles.svg	stimuli_distractor_diamondtriangles.svg	23	yes	57	0	368	0	0			0	0			1				0	
6.6.1	win	2023-07-13	15:57:26	16:07:10	579763	617172d3e4d3b6d6ab6a705c	4	1	main_slash	11	main_slash	85	stimuli_distractor_trianglediamonds.svg	stimuli_distractor_trianglediamonds.svg	33	no	0	1	2000	0	0			0	0			1				0	
6.6.1	win	2023-07-13	15:57:26	16:07:10	579763	617172d3e4d3b6d6ab6a705c	4	1	main_slash	11	advance_on_keypress_SLASH	86	stimuli_distractor_trianglediamonds.svg	stimuli_distractor_trianglediamonds.svg	33	no	57	0	262	0	0			0	0			1				0	
6.6.1	win	2023-07-13	15:57:26	16:07:12	581544	617172d3e4d3b6d6ab6a705c	4	1	main_slash	11	main_slash	87	stimuli_target_rectangletriangles.svg	stimuli_distractor_diamondtriangles.svg	5	yes	53	1	882	0	0			0	0			1				0	
6.6.1	win	2023-07-13	15:57:26	16:07:12	581544	617172d3e4d3b6d6ab6a705c	4	1	main_slash	11	advance_on_keypress_SLASH	88	stimuli_target_rectangletriangles.svg	stimuli_distractor_diamondtriangles.svg	5	yes	57	0	349	0	0			0	0			1				0	
6.6.1	win	2023-07-13	15:57:26	16:07:13	583385	617172d3e4d3b6d6ab6a705c	4	1	main_slash	11	main_slash	89	stimuli_target_diamondrectangles.svg	stimuli_distractor_trianglediamonds.svg	19	yes	53	1	839	0	0			0	0			1				0	
6.6.1	win	2023-07-13	15:57:26	16:07:13	583385	617172d3e4d3b6d6ab6a705c	4	1	main_slash	11	advance_on_keypress_SLASH	90	stimuli_target_diamondrectangles.svg	stimuli_distractor_trianglediamonds.svg	19	yes	57	0	354	0	0			0	0			1				0	
6.6.1	win	2023-07-13	15:57:26	16:07:15	585447	617172d3e4d3b6d6ab6a705c	4	1	main_slash	11	main_slash	91	stimuli_distractor_diamondtriangles.svg	stimuli_distractor_trianglediamonds.svg	37	no	53	0	1068	0	0			0	0			1				0	
6.6.1	win	2023-07-13	15:57:26	16:07:15	585447	617172d3e4d3b6d6ab6a705c	4	1	main_slash	11	advance_on_keypress_SLASH	92	stimuli_distractor_diamondtriangles.svg	stimuli_distractor_trianglediamonds.svg	37	no	57	0	662	0	0			0	0			1				0	
6.6.1	win	2023-07-13	15:57:26	16:07:18	587591	617172d3e4d3b6d6ab6a705c	4	1	main_slash	11	main_slash	93	stimuli_distractor_diamondtriangles.svg	stimuli_target_diamondsquares.svg	32	yes	53	1	845	0	0			0	0			1				0	
6.6.1	win	2023-07-13	15:57:26	16:07:18	587591	617172d3e4d3b6d6ab6a705c	4	1	main_slash	11	advance_on_keypress_SLASH	94	stimuli_distractor_diamondtriangles.svg	stimuli_target_diamondsquares.svg	32	yes	57	0	316	0	0			0	0			1				0	
6.6.1	win	2023-07-13	15:57:26	16:07:21	590574	617172d3e4d3b6d6ab6a705c	4	1	main_slash	11	main_slash	95	stimuli_distractor_trianglediamonds.svg	stimuli_distractor_diamondtriangles.svg	36	no	0	1	2000	0	0			0	0			1				0	
6.6.1	win	2023-07-13	15:57:26	16:07:21	590574	617172d3e4d3b6d6ab6a705c	4	1	main_slash	11	advance_on_keypress_SLASH	96	stimuli_distractor_trianglediamonds.svg	stimuli_distractor_diamondtriangles.svg	36	no	57	0	379	0	0			0	0			1				0	
6.6.1	win	2023-07-13	15:57:26	16:07:22	592405	617172d3e4d3b6d6ab6a705c	4	1	main_slash	11	main_slash	97	stimuli_distractor_trianglediamonds.svg	stimuli_target_rectanglediamonds.svg	10	yes	53	1	782	0	0			0	0			1				0	
6.6.1	win	2023-07-13	15:57:26	16:07:22	592405	617172d3e4d3b6d6ab6a705c	4	1	main_slash	11	advance_on_keypress_SLASH	98	stimuli_distractor_trianglediamonds.svg	stimuli_target_rectanglediamonds.svg	10	yes	57	0	341	0	0			0	0			1				0	
6.6.1	win	2023-07-13	15:57:26	16:07:24	594342	617172d3e4d3b6d6ab6a705c	4	1	main_slash	11	main_slash	99	stimuli_target_trianglesquares.svg	stimuli_distractor_diamondtriangles.svg	22	yes	53	1	946	0	0			0	0			1				0	
6.6.1	win	2023-07-13	15:57:26	16:07:24	594342	617172d3e4d3b6d6ab6a705c	4	1	main_slash	11	advance_on_keypress_SLASH	100	stimuli_target_trianglesquares.svg	stimuli_distractor_diamondtriangles.svg	22	yes	57	0	375	0	0			0	0			1				0	
6.6.1	win	2023-07-13	15:57:26	16:07:26	596215	617172d3e4d3b6d6ab6a705c	4	1	main_slash	11	main_slash	101	stimuli_target_squaretriangles.svg	stimuli_distractor_diamondtriangles.svg	7	yes	53	1	852	0	0			0	0			1				0	
6.6.1	win	2023-07-13	15:57:26	16:07:26	596215	617172d3e4d3b6d6ab6a705c	4	1	main_slash	11	advance_on_keypress_SLASH	102	stimuli_target_squaretriangles.svg	stimuli_distractor_diamondtriangles.svg	7	yes	57	0	349	0	0			0	0			1				0	
6.6.1	win	2023-07-13	15:57:26	16:07:28	598118	617172d3e4d3b6d6ab6a705c	4	1	main_slash	11	main_slash	103	stimuli_distractor_diamondtriangles.svg	stimuli_target_rectangletriangles.svg	13	yes	53	1	905	0	0			0	0			1				0	
6.6.1	win	2023-07-13	15:57:26	16:07:28	598118	617172d3e4d3b6d6ab6a705c	4	1	main_slash	11	advance_on_keypress_SLASH	104	stimuli_distractor_diamondtriangles.svg	stimuli_target_rectangletriangles.svg	13	yes	57	0	389	0	0			0	0			1				0	
6.6.1	win	2023-07-13	15:57:26	16:07:30	600013	617172d3e4d3b6d6ab6a705c	4	1	main_slash	11	main_slash	105	stimuli_distractor_diamondtriangles.svg	stimuli_target_diamondrectangles.svg	31	yes	53	1	867	0	0			0	0			1				0	
6.6.1	win	2023-07-13	15:57:26	16:07:30	600013	617172d3e4d3b6d6ab6a705c	4	1	main_slash	11	advance_on_keypress_SLASH	106	stimuli_distractor_diamondtriangles.svg	stimuli_target_diamondrectangles.svg	31	yes	57	0	301	0	0			0	0			1				0	
6.6.1	win	2023-07-13	15:57:26	16:07:32	602327	617172d3e4d3b6d6ab6a705c	4	1	main_slash	11	main_slash	107	stimuli_distractor_trianglediamonds.svg	stimuli_target_diamondrectangles.svg	27	yes	53	1	1362	0	0			0	0			1				0	
6.6.1	win	2023-07-13	15:57:26	16:07:32	602327	617172d3e4d3b6d6ab6a705c	4	1	main_slash	11	advance_on_keypress_SLASH	108	stimuli_distractor_trianglediamonds.svg	stimuli_target_diamondrectangles.svg	27	yes	57	0	356	0	0			0	0			1				0	
6.6.1	win	2023-07-13	15:57:26	16:07:34	604318	617172d3e4d3b6d6ab6a705c	4	1	main_slash	11	main_slash	109	stimuli_target_rectangletriangles.svg	stimuli_distractor_trianglediamonds.svg	1	yes	53	1	971	0	0			0	0			1				0	
6.6.1	win	2023-07-13	15:57:26	16:07:34	604318	617172d3e4d3b6d6ab6a705c	4	1	main_slash	11	advance_on_keypress_SLASH	110	stimuli_target_rectangletriangles.svg	stimuli_distractor_trianglediamonds.svg	1	yes	57	0	389	0	0			0	0			1				0	
6.6.1	win	2023-07-13	15:57:26	16:07:36	606241	617172d3e4d3b6d6ab6a705c	4	1	main_slash	11	main_slash	111	stimuli_target_diamondsquares.svg	stimuli_distractor_diamondtriangles.svg	24	yes	53	1	894	0	0			0	0			1				0	
6.6.1	win	2023-07-13	15:57:26	16:07:36	606241	617172d3e4d3b6d6ab6a705c	4	1	main_slash	11	advance_on_keypress_SLASH	112	stimuli_target_diamondsquares.svg	stimuli_distractor_diamondtriangles.svg	24	yes	57	0	358	0	0			0	0			1				0	
6.6.1	win	2023-07-13	15:57:26	16:07:38	608005	617172d3e4d3b6d6ab6a705c	4	1	main_slash	11	main_slash	113	stimuli_distractor_trianglediamonds.svg	stimuli_target_squaretriangles.svg	11	yes	53	1	758	0	0			0	0			1				0	
6.6.1	win	2023-07-13	15:57:26	16:07:38	608005	617172d3e4d3b6d6ab6a705c	4	1	main_slash	11	advance_on_keypress_SLASH	114	stimuli_distractor_trianglediamonds.svg	stimuli_target_squaretriangles.svg	11	yes	57	0	291	0	0			0	0			1				0	
6.6.1	win	2023-07-13	15:57:26	16:07:41	610931	617172d3e4d3b6d6ab6a705c	4	1	main_slash	11	main_slash	115	stimuli_distractor_trianglediamonds.svg	stimuli_distractor_trianglediamonds.svg	34	no	0	1	2000	0	0			0	0			1				0	
6.6.1	win	2023-07-13	15:57:26	16:07:41	610931	617172d3e4d3b6d6ab6a705c	4	1	main_slash	11	advance_on_keypress_SLASH	116	stimuli_distractor_trianglediamonds.svg	stimuli_distractor_trianglediamonds.svg	34	no	57	0	263	0	0			0	0			1				0	
6.6.1	win	2023-07-13	15:57:26	16:07:42	612530	617172d3e4d3b6d6ab6a705c	4	1	main_slash	11	main_slash	117	stimuli_distractor_diamondtriangles.svg	stimuli_target_squaretriangles.svg	15	yes	53	1	688	0	0			0	0			1				0	
6.6.1	win	2023-07-13	15:57:26	16:07:42	612530	617172d3e4d3b6d6ab6a705c	4	1	main_slash	11	advance_on_keypress_SLASH	118	stimuli_distractor_diamondtriangles.svg	stimuli_target_squaretriangles.svg	15	yes	57	0	341	0	0			0	0			1				0	
6.6.1	win	2023-07-13	15:57:26	16:07:44	614512	617172d3e4d3b6d6ab6a705c	4	1	main_slash	11	main_slash	119	stimuli_distractor_trianglediamonds.svg	stimuli_target_trianglesquares.svg	26	yes	53	1	998	0	0			0	0			1				0	
6.6.1	win	2023-07-13	15:57:26	16:07:44	614512	617172d3e4d3b6d6ab6a705c	4	1	main_slash	11	advance_on_keypress_SLASH	120	stimuli_distractor_trianglediamonds.svg	stimuli_target_trianglesquares.svg	26	yes	57	0	427	0	0			0	0			1				0	
6.6.1	win	2023-07-13	15:57:26	16:07:46	616519	617172d3e4d3b6d6ab6a705c	4	1	main_slash	11	main_slash	121	stimuli_target_squarediamonds.svg	stimuli_distractor_trianglediamonds.svg	4	yes	53	1	938	0	0			0	0			1				0	
6.6.1	win	2023-07-13	15:57:26	16:07:46	616519	617172d3e4d3b6d6ab6a705c	4	1	main_slash	11	advance_on_keypress_SLASH	122	stimuli_target_squarediamonds.svg	stimuli_distractor_trianglediamonds.svg	4	yes	57	0	408	0	0			0	0			1				0	
6.6.1	win	2023-07-13	15:57:26	16:07:48	618427	617172d3e4d3b6d6ab6a705c	4	1	main_slash	11	main_slash	123	stimuli_target_diamondsquares.svg	stimuli_distractor_trianglediamonds.svg	20	yes	53	1	863	0	0			0	0			1				0	
6.6.1	win	2023-07-13	15:57:26	16:07:48	618427	617172d3e4d3b6d6ab6a705c	4	1	main_slash	11	advance_on_keypress_SLASH	124	stimuli_target_diamondsquares.svg	stimuli_distractor_trianglediamonds.svg	20	yes	57	0	333	0	0			0	0			1				0	
6.6.1	win	2023-07-13	15:57:26	16:07:50	620301	617172d3e4d3b6d6ab6a705c	4	1	main_slash	11	main_slash	125	stimuli_distractor_diamondtriangles.svg	stimuli_target_trianglerectangles.svg	29	yes	53	1	887	0	0			0	0			1				0	
6.6.1	win	2023-07-13	15:57:26	16:07:50	620301	617172d3e4d3b6d6ab6a705c	4	1	main_slash	11	advance_on_keypress_SLASH	126	stimuli_distractor_diamondtriangles.svg	stimuli_target_trianglerectangles.svg	29	yes	57	0	327	0	0			0	0			1				0	
6.6.1	win	2023-07-13	15:57:26	16:07:53	623264	617172d3e4d3b6d6ab6a705c	4	1	main_slash	11	main_slash	127	stimuli_distractor_diamondtriangles.svg	stimuli_distractor_diamondtriangles.svg	39	no	0	1	2000	0	0			0	0			1				0	
6.6.1	win	2023-07-13	15:57:26	16:07:53	623264	617172d3e4d3b6d6ab6a705c	4	1	main_slash	11	advance_on_keypress_SLASH	128	stimuli_distractor_diamondtriangles.svg	stimuli_distractor_diamondtriangles.svg	39	no	57	0	324	0	0			0	0			1				0	
6.6.1	win	2023-07-13	15:57:26	16:07:55	625112	617172d3e4d3b6d6ab6a705c	4	1	main_slash	11	main_slash	129	stimuli_distractor_trianglediamonds.svg	stimuli_target_diamondsquares.svg	28	yes	53	1	881	0	0			0	0			1				0	
6.6.1	win	2023-07-13	15:57:26	16:07:55	625112	617172d3e4d3b6d6ab6a705c	4	1	main_slash	11	advance_on_keypress_SLASH	130	stimuli_distractor_trianglediamonds.svg	stimuli_target_diamondsquares.svg	28	yes	57	0	313	0	0			0	0			1				0	
6.6.1	win	2023-07-13	15:57:26	16:07:58	628064	617172d3e4d3b6d6ab6a705c	4	1	main_slash	11	main_slash	131	stimuli_distractor_diamondtriangles.svg	stimuli_distractor_trianglediamonds.svg	38	no	0	1	2000	0	0			0	0			1				0	
6.6.1	win	2023-07-13	15:57:26	16:07:58	628064	617172d3e4d3b6d6ab6a705c	4	1	main_slash	11	advance_on_keypress_SLASH	132	stimuli_distractor_diamondtriangles.svg	stimuli_distractor_trianglediamonds.svg	38	no	57	0	226	0	0			0	0			1				0	
6.6.1	win	2023-07-13	15:57:26	16:08:00	629744	617172d3e4d3b6d6ab6a705c	4	1	main_slash	11	main_slash	133	stimuli_target_trianglerectangles.svg	stimuli_distractor_diamondtriangles.svg	21	yes	53	1	799	0	0			0	0			1				0	
6.6.1	win	2023-07-13	15:57:26	16:08:00	629744	617172d3e4d3b6d6ab6a705c	4	1	main_slash	11	advance_on_keypress_SLASH	134	stimuli_target_trianglerectangles.svg	stimuli_distractor_diamondtriangles.svg	21	yes	57	0	323	0	0			0	0			1				0	
6.6.1	win	2023-07-13	15:57:26	16:08:02	631577	617172d3e4d3b6d6ab6a705c	4	1	main_slash	11	main_slash	135	stimuli_distractor_diamondtriangles.svg	stimuli_target_squarediamonds.svg	16	yes	53	1	846	0	0			0	0			1				0	
6.6.1	win	2023-07-13	15:57:26	16:08:02	631577	617172d3e4d3b6d6ab6a705c	4	1	main_slash	11	advance_on_keypress_SLASH	136	stimuli_distractor_diamondtriangles.svg	stimuli_target_squarediamonds.svg	16	yes	57	0	300	0	0			0	0			1				0	
6.6.1	win	2023-07-13	15:57:26	16:08:04	633743	617172d3e4d3b6d6ab6a705c	4	1	main_slash	11	main_slash	137	stimuli_distractor_diamondtriangles.svg	stimuli_target_trianglesquares.svg	30	yes	53	1	1212	0	0			0	0			1				0	
6.6.1	win	2023-07-13	15:57:26	16:08:04	633743	617172d3e4d3b6d6ab6a705c	4	1	main_slash	11	advance_on_keypress_SLASH	138	stimuli_distractor_diamondtriangles.svg	stimuli_target_trianglesquares.svg	30	yes	57	0	845	0	0			0	0			1				0	
6.6.1	win	2023-07-13	15:57:26	16:08:06	636027	617172d3e4d3b6d6ab6a705c	4	1	main_slash	11	main_slash	139	stimuli_target_squaretriangles.svg	stimuli_distractor_trianglediamonds.svg	3	yes	53	1	796	0	0			0	0			1				0	
6.6.1	win	2023-07-13	15:57:26	16:08:06	636027	617172d3e4d3b6d6ab6a705c	4	1	main_slash	11	advance_on_keypress_SLASH	140	stimuli_target_squaretriangles.svg	stimuli_distractor_trianglediamonds.svg	3	yes	57	0	711	0	0			0	0			1				0	
6.6.1	win	2023-07-13	15:57:26	16:08:09	639389	617172d3e4d3b6d6ab6a705c	4	1	main_slash	11	main_slash	141	stimuli_distractor_trianglediamonds.svg	stimuli_distractor_diamondtriangles.svg	35	no	0	1	2000	0	0			0	0			1				0	
6.6.1	win	2023-07-13	15:57:26	16:08:09	639389	617172d3e4d3b6d6ab6a705c	4	1	main_slash	11	advance_on_keypress_SLASH	142	stimuli_distractor_trianglediamonds.svg	stimuli_distractor_diamondtriangles.svg	35	no	57	0	259	0	0			0	0			1				0	
6.6.1	win	2023-07-13	15:57:26	16:08:11	641216	617172d3e4d3b6d6ab6a705c	4	1	main_slash	11	main_slash	143	stimuli_distractor_trianglediamonds.svg	stimuli_target_rectangletriangles.svg	9	yes	53	1	918	0	0			0	0			1				0	
6.6.1	win	2023-07-13	15:57:26	16:08:11	641216	617172d3e4d3b6d6ab6a705c	4	1	main_slash	11	advance_on_keypress_SLASH	144	stimuli_distractor_trianglediamonds.svg	stimuli_target_rectangletriangles.svg	9	yes	57	0	319	0	0			0	0			1				0	
6.6.1	win	2023-07-13	15:57:26	16:08:13	643161	617172d3e4d3b6d6ab6a705c	4	1	main_slash	11	main_slash	145	stimuli_distractor_trianglediamonds.svg	stimuli_target_squarediamonds.svg	12	yes	53	1	979	0	0			0	0			1				0	
6.6.1	win	2023-07-13	15:57:26	16:08:13	643161	617172d3e4d3b6d6ab6a705c	4	1	main_slash	11	advance_on_keypress_SLASH	146	stimuli_distractor_trianglediamonds.svg	stimuli_target_squarediamonds.svg	12	yes	57	0	315	0	0			0	0			1				0	
6.6.1	win	2023-07-13	15:57:26	16:08:15	644997	617172d3e4d3b6d6ab6a705c	4	1	main_slash	11	main_slash	147	stimuli_target_squarediamonds.svg	stimuli_distractor_diamondtriangles.svg	8	yes	53	1	865	0	0			0	0			1				0	
6.6.1	win	2023-07-13	15:57:26	16:08:15	644997	617172d3e4d3b6d6ab6a705c	4	1	main_slash	11	advance_on_keypress_SLASH	148	stimuli_target_squarediamonds.svg	stimuli_distractor_diamondtriangles.svg	8	yes	57	0	343	0	0			0	0			1				0	
6.6.1	win	2023-07-13	15:57:26	16:08:17	646873	617172d3e4d3b6d6ab6a705c	4	1	main_slash	11	main_slash	149	stimuli_target_rectanglediamonds.svg	stimuli_distractor_trianglediamonds.svg	2	yes	53	1	891	0	0			0	0			1				0	
6.6.1	win	2023-07-13	15:57:26	16:08:17	646873	617172d3e4d3b6d6ab6a705c	4	1	main_slash	11	advance_on_keypress_SLASH	150	stimuli_target_rectanglediamonds.svg	stimuli_distractor_trianglediamonds.svg	2	yes	57	0	448	0	0			0	0			1				0	
6.6.1	win	2023-07-13	15:57:26	16:08:19	648759	617172d3e4d3b6d6ab6a705c	4	1	main_slash	11	main_slash	151	stimuli_target_rectanglediamonds.svg	stimuli_distractor_diamondtriangles.svg	6	yes	53	1	794	0	0			0	0			1				0	
6.6.1	win	2023-07-13	15:57:26	16:08:19	648759	617172d3e4d3b6d6ab6a705c	4	1	main_slash	11	advance_on_keypress_SLASH	152	stimuli_target_rectanglediamonds.svg	stimuli_distractor_diamondtriangles.svg	6	yes	57	0	305	0	0			0	0			1				0	
6.6.1	win	2023-07-13	15:57:26	16:08:21	650907	617172d3e4d3b6d6ab6a705c	4	1	main_slash	11	main_slash	153	stimuli_distractor_trianglediamonds.svg	stimuli_target_trianglerectangles.svg	25	yes	53	1	1192	0	0			0	0			1				0	
6.6.1	win	2023-07-13	15:57:26	16:08:21	650907	617172d3e4d3b6d6ab6a705c	4	1	main_slash	11	advance_on_keypress_SLASH	154	stimuli_distractor_trianglediamonds.svg	stimuli_target_trianglerectangles.svg	25	yes	57	0	279	0	0			0	0			1				0	
6.6.1	win	2023-07-13	15:57:26	16:08:23	652672	617172d3e4d3b6d6ab6a705c	4	1	main_slash	11	main_slash	155	stimuli_target_trianglerectangles.svg	stimuli_distractor_trianglediamonds.svg	17	yes	53	1	840	0	0			0	0			1				0	
6.6.1	win	2023-07-13	15:57:26	16:08:23	652672	617172d3e4d3b6d6ab6a705c	4	1	main_slash	11	advance_on_keypress_SLASH	156	stimuli_target_trianglerectangles.svg	stimuli_distractor_trianglediamonds.svg	17	yes	57	0	311	0	0			0	0			1				0	
6.6.1	win	2023-07-13	15:57:26	16:08:26	655616	617172d3e4d3b6d6ab6a705c	4	1	main_slash	11	main_slash	157	stimuli_distractor_diamondtriangles.svg	stimuli_distractor_diamondtriangles.svg	40	no	0	1	2000	0	0			0	0			1				0	
6.6.1	win	2023-07-13	15:57:26	16:08:26	655616	617172d3e4d3b6d6ab6a705c	4	1	main_slash	11	advance_on_keypress_SLASH	158	stimuli_distractor_diamondtriangles.svg	stimuli_distractor_diamondtriangles.svg	40	no	57	0	324	0	0			0	0			1				0	
6.6.1	win	2023-07-13	15:57:26	16:08:29	658582	617172d3e4d3b6d6ab6a705c	4	1	main_slash	11	main_slash	159	stimuli_target_trianglesquares.svg	stimuli_distractor_trianglediamonds.svg	18	yes	0	0	2000	0	0			0	0			1				0	
6.6.1	win	2023-07-13	15:57:26	16:08:29	658582	617172d3e4d3b6d6ab6a705c	4	1	main_slash	11	advance_on_keypress_SLASH	160	stimuli_target_trianglesquares.svg	stimuli_distractor_trianglediamonds.svg	18	yes	57	0	241	0	0			0	0			1				0	
6.6.1	win	2023-07-13	15:57:26	16:08:29	658582	617172d3e4d3b6d6ab6a705c	4	1	headphonecheck_calibration	14	headphonecheck_calibrationIntro	1	stimuli_target_trianglesquares.svg	stimuli_distractor_trianglediamonds.svg	18	yes	calibrationButton	0	1684	0	0			0	0			1				0	
6.6.1	win	2023-07-13	15:57:26	16:08:29	658582	617172d3e4d3b6d6ab6a705c	4	1	headphonecheck_testphase	15	test_collectResponse	3	stimuli_target_trianglesquares.svg	stimuli_distractor_trianglediamonds.svg	18	yes	second	0	9522	1	2	antiphase_hc_ios.wav	3	0	0			1				0	
6.6.1	win	2023-07-13	15:57:26	16:08:29	658582	617172d3e4d3b6d6ab6a705c	4	1	headphonecheck_testphase	15	test_collectResponse	6	stimuli_target_trianglesquares.svg	stimuli_distractor_trianglediamonds.svg	18	yes	first	1	435	2	4	antiphase_hc_sio.wav	1	0	0			1				0	
6.6.1	win	2023-07-13	15:57:26	16:08:29	658582	617172d3e4d3b6d6ab6a705c	4	1	headphonecheck_testphase	15	test_collectResponse	9	stimuli_target_trianglesquares.svg	stimuli_distractor_trianglediamonds.svg	18	yes	second	1	138	3	1	antiphase_hc_iso.wav	2	0	0			1				0	
6.6.1	win	2023-07-13	15:57:26	16:08:29	658582	617172d3e4d3b6d6ab6a705c	4	1	headphonecheck_testphase	15	test_collectResponse	12	stimuli_target_trianglesquares.svg	stimuli_distractor_trianglediamonds.svg	18	yes	second	1	115	4	5	antiphase_hc_osi.wav	2	0	0			1				0	
6.6.1	win	2023-07-13	15:57:26	16:08:29	658582	617172d3e4d3b6d6ab6a705c	4	1	headphonecheck_testphase	15	test_collectResponse	15	stimuli_target_trianglesquares.svg	stimuli_distractor_trianglediamonds.svg	18	yes	third	1	674	5	6	antiphase_hc_ois.wav	3	0	0			1				0	
6.6.1	win	2023-07-13	15:57:26	16:08:29	658582	617172d3e4d3b6d6ab6a705c	4	1	headphonecheck_testphase	15	test_collectResponse	18	stimuli_target_trianglesquares.svg	stimuli_distractor_trianglediamonds.svg	18	yes	first	1	1938	6	3	antiphase_hc_soi.wav	1	0	0			1				0	
6.6.1	win	2023-07-13	15:57:26	16:08:29	658582	617172d3e4d3b6d6ab6a705c	4	1	stereocheck_calibration	17	stereocheck_calibrationIntro	1	stimuli_target_trianglesquares.svg	stimuli_distractor_trianglediamonds.svg	18	yes	stereocheck_calibrationButton	0	2139	6	3	antiphase_hc_soi.wav	1	0	0			1				0	
6.6.1	win	2023-07-13	15:57:26	16:08:29	658582	617172d3e4d3b6d6ab6a705c	4	1	stereocheck_testphase	18	stereocheck_test_collectResponse	3	stimuli_target_trianglesquares.svg	stimuli_distractor_trianglediamonds.svg	18	yes	stereocheck_right	1	559	6	3	antiphase_hc_soi.wav	1	1	6	noise_calib_stim_RIGHT.wav	2	1				0	
6.6.1	win	2023-07-13	15:57:26	16:08:29	658582	617172d3e4d3b6d6ab6a705c	4	1	stereocheck_testphase	18	stereocheck_test_collectResponse	6	stimuli_target_trianglesquares.svg	stimuli_distractor_trianglediamonds.svg	18	yes	stereocheck_right	1	343	6	3	antiphase_hc_soi.wav	1	2	4	noise_calib_stim_RIGHT.wav	2	1				0	
6.6.1	win	2023-07-13	15:57:26	16:08:29	658582	617172d3e4d3b6d6ab6a705c	4	1	stereocheck_testphase	18	stereocheck_test_collectResponse	9	stimuli_target_trianglesquares.svg	stimuli_distractor_trianglediamonds.svg	18	yes	stereocheck_right	1	401	6	3	antiphase_hc_soi.wav	1	3	5	noise_calib_stim_RIGHT.wav	2	1				0	
6.6.1	win	2023-07-13	15:57:26	16:08:29	658582	617172d3e4d3b6d6ab6a705c	4	1	stereocheck_testphase	18	stereocheck_test_collectResponse	12	stimuli_target_trianglesquares.svg	stimuli_distractor_trianglediamonds.svg	18	yes	stereocheck_left	1	531	6	3	antiphase_hc_soi.wav	1	4	1	noise_calib_stim_LEFT.wav	1	1				0	
6.6.1	win	2023-07-13	15:57:26	16:08:29	658582	617172d3e4d3b6d6ab6a705c	4	1	stereocheck_testphase	18	stereocheck_test_collectResponse	15	stimuli_target_trianglesquares.svg	stimuli_distractor_trianglediamonds.svg	18	yes	stereocheck_left	1	824	6	3	antiphase_hc_soi.wav	1	5	3	noise_calib_stim_LEFT.wav	1	1				0	
6.6.1	win	2023-07-13	15:57:26	16:08:29	658582	617172d3e4d3b6d6ab6a705c	4	1	stereocheck_testphase	18	stereocheck_test_collectResponse	18	stimuli_target_trianglesquares.svg	stimuli_distractor_trianglediamonds.svg	18	yes	stereocheck_left	1	2633	6	3	antiphase_hc_soi.wav	1	6	2	noise_calib_stim_LEFT.wav	1	1				0	
6.6.1	win	2023-07-13	15:57:26	16:08:29	658582	617172d3e4d3b6d6ab6a705c	4	1	DL_practice	21	DL_practice	2	stimuli_target_trianglesquares.svg	stimuli_distractor_trianglediamonds.svg	18	yes	pa	1	1201	6	3	antiphase_hc_soi.wav	1	6	2	noise_calib_stim_LEFT.wav	1	29	blb_dichoticlistening_pa-pa.mp3	pa	pa	0	left
6.6.1	win	2023-07-13	15:57:26	16:08:29	658582	617172d3e4d3b6d6ab6a705c	4	1	DL_practice	21	DL_practice	3	stimuli_target_trianglesquares.svg	stimuli_distractor_trianglediamonds.svg	18	yes	da	1	1623	6	3	antiphase_hc_soi.wav	1	6	2	noise_calib_stim_LEFT.wav	1	7	blb_dichoticlistening_da-ba.mp3	da	ba	1	left
6.6.1	win	2023-07-13	15:57:26	16:08:29	658582	617172d3e4d3b6d6ab6a705c	4	1	DL_practice	21	DL_practice	4	stimuli_target_trianglesquares.svg	stimuli_distractor_trianglediamonds.svg	18	yes	ba	1	2075	6	3	antiphase_hc_soi.wav	1	6	2	noise_calib_stim_LEFT.wav	1	1	blb_dichoticlistening_ba-ba.mp3	ba	ba	0	left
6.6.1	win	2023-07-13	15:57:26	16:08:29	658582	617172d3e4d3b6d6ab6a705c	4	1	DL_practice	21	DL_practice	5	stimuli_target_trianglesquares.svg	stimuli_distractor_trianglediamonds.svg	18	yes	ka	0	2046	6	3	antiphase_hc_soi.wav	1	6	2	noise_calib_stim_LEFT.wav	1	18	blb_dichoticlistening_ga-ta.mp3	ga	ta	1	other
6.6.1	win	2023-07-13	15:57:26	16:08:29	658582	617172d3e4d3b6d6ab6a705c	4	1	DL_practice	21	DL_practice	6	stimuli_target_trianglesquares.svg	stimuli_distractor_trianglediamonds.svg	18	yes	ga	1	978	6	3	antiphase_hc_soi.wav	1	6	2	noise_calib_stim_LEFT.wav	1	15	blb_dichoticlistening_ga-ga.mp3	ga	ga	0	left
6.6.1	win	2023-07-13	15:57:26	16:08:29	658582	617172d3e4d3b6d6ab6a705c	4	1	DL_practice	21	DL_practice	7	stimuli_target_trianglesquares.svg	stimuli_distractor_trianglediamonds.svg	18	yes	ta	1	1422	6	3	antiphase_hc_soi.wav	1	6	2	noise_calib_stim_LEFT.wav	1	36	blb_dichoticlistening_ta-ta.mp3	ta	ta	0	left
6.6.1	win	2023-07-13	15:57:26	16:08:29	658582	617172d3e4d3b6d6ab6a705c	4	1	DL_practice	21	DL_practice	8	stimuli_target_trianglesquares.svg	stimuli_distractor_trianglediamonds.svg	18	yes	ka	1	1133	6	3	antiphase_hc_soi.wav	1	6	2	noise_calib_stim_LEFT.wav	1	22	blb_dichoticlistening_ka-ka.mp3	ka	ka	0	left
6.6.1	win	2023-07-13	15:57:26	16:08:29	658582	617172d3e4d3b6d6ab6a705c	4	1	DL_practice	21	DL_practice	9	stimuli_target_trianglesquares.svg	stimuli_distractor_trianglediamonds.svg	18	yes	ka	1	1225	6	3	antiphase_hc_soi.wav	1	6	2	noise_calib_stim_LEFT.wav	1	23	blb_dichoticlistening_ka-pa.mp3	ka	pa	1	left
6.6.1	win	2023-07-13	15:57:26	16:08:29	658582	617172d3e4d3b6d6ab6a705c	4	1	DL_practice	21	DL_practice	10	stimuli_target_trianglesquares.svg	stimuli_distractor_trianglediamonds.svg	18	yes	da	1	1073	6	3	antiphase_hc_soi.wav	1	6	2	noise_calib_stim_LEFT.wav	1	8	blb_dichoticlistening_da-da.mp3	da	da	0	left
6.6.1	win	2023-07-13	15:57:26	16:08:29	658582	617172d3e4d3b6d6ab6a705c	4	1	DL_test	23	DL_test	1	stimuli_target_trianglesquares.svg	stimuli_distractor_trianglediamonds.svg	18	yes	ta	1	2997	6	3	antiphase_hc_soi.wav	1	6	2	noise_calib_stim_LEFT.wav	1	32	blb_dichoticlistening_ta-da.mp3	ta	da	1	left
6.6.1	win	2023-07-13	15:57:26	16:08:29	658582	617172d3e4d3b6d6ab6a705c	4	1	DL_test	23	DL_test	2	stimuli_target_trianglesquares.svg	stimuli_distractor_trianglediamonds.svg	18	yes	ka	1	1550	6	3	antiphase_hc_soi.wav	1	6	2	noise_calib_stim_LEFT.wav	1	23	blb_dichoticlistening_ka-pa.mp3	ka	pa	1	left
6.6.1	win	2023-07-13	15:57:26	16:08:29	658582	617172d3e4d3b6d6ab6a705c	4	1	DL_test	23	DL_test	3	stimuli_target_trianglesquares.svg	stimuli_distractor_trianglediamonds.svg	18	yes	ga	1	1180	6	3	antiphase_hc_soi.wav	1	6	2	noise_calib_stim_LEFT.wav	1	13	blb_dichoticlistening_ga-ba.mp3	ga	ba	1	left
6.6.1	win	2023-07-13	15:57:26	16:08:29	658582	617172d3e4d3b6d6ab6a705c	4	1	DL_test	23	DL_test	4	stimuli_target_trianglesquares.svg	stimuli_distractor_trianglediamonds.svg	18	yes	ta	1	1338	6	3	antiphase_hc_soi.wav	1	6	2	noise_calib_stim_LEFT.wav	1	12	blb_dichoticlistening_da-ta.mp3	da	ta	1	right
6.6.1	win	2023-07-13	15:57:26	16:08:29	658582	617172d3e4d3b6d6ab6a705c	4	1	DL_test	23	DL_test	5	stimuli_target_trianglesquares.svg	stimuli_distractor_trianglediamonds.svg	18	yes	ka	1	1984	6	3	antiphase_hc_soi.wav	1	6	2	noise_calib_stim_LEFT.wav	1	19	blb_dichoticlistening_ka-ba.mp3	ka	ba	1	left
6.6.1	win	2023-07-13	15:57:26	16:08:29	658582	617172d3e4d3b6d6ab6a705c	4	1	DL_test	23	DL_test	6	stimuli_target_trianglesquares.svg	stimuli_distractor_trianglediamonds.svg	18	yes	ka	1	1285	6	3	antiphase_hc_soi.wav	1	6	2	noise_calib_stim_LEFT.wav	1	34	blb_dichoticlistening_ta-ka.mp3	ta	ka	1	right
6.6.1	win	2023-07-13	15:57:26	16:08:29	658582	617172d3e4d3b6d6ab6a705c	4	1	DL_test	23	DL_test	7	stimuli_target_trianglesquares.svg	stimuli_distractor_trianglediamonds.svg	18	yes	ta	0	2071	6	3	antiphase_hc_soi.wav	1	6	2	noise_calib_stim_LEFT.wav	1	26	blb_dichoticlistening_pa-da.mp3	pa	da	1	other
6.6.1	win	2023-07-13	15:57:26	16:08:29	658582	617172d3e4d3b6d6ab6a705c	4	1	DL_test	23	DL_test	8	stimuli_target_trianglesquares.svg	stimuli_distractor_trianglediamonds.svg	18	yes	ba	1	2685	6	3	antiphase_hc_soi.wav	1	6	2	noise_calib_stim_LEFT.wav	1	1	blb_dichoticlistening_ba-ba.mp3	ba	ba	0	left
6.6.1	win	2023-07-13	15:57:26	16:08:29	658582	617172d3e4d3b6d6ab6a705c	4	1	DL_test	23	DL_test	9	stimuli_target_trianglesquares.svg	stimuli_distractor_trianglediamonds.svg	18	yes	ka	1	3133	6	3	antiphase_hc_soi.wav	1	6	2	noise_calib_stim_LEFT.wav	1	28	blb_dichoticlistening_pa-ka.mp3	pa	ka	1	right
6.6.1	win	2023-07-13	15:57:26	16:08:29	658582	617172d3e4d3b6d6ab6a705c	4	1	DL_test	23	DL_test	10	stimuli_target_trianglesquares.svg	stimuli_distractor_trianglediamonds.svg	18	yes	ga	1	1117	6	3	antiphase_hc_soi.wav	1	6	2	noise_calib_stim_LEFT.wav	1	9	blb_dichoticlistening_da-ga.mp3	da	ga	1	right
6.6.1	win	2023-07-13	15:57:26	16:08:29	658582	617172d3e4d3b6d6ab6a705c	4	1	DL_test	23	DL_test	11	stimuli_target_trianglesquares.svg	stimuli_distractor_trianglediamonds.svg	18	yes	ka	0	3528	6	3	antiphase_hc_soi.wav	1	6	2	noise_calib_stim_LEFT.wav	1	27	blb_dichoticlistening_pa-ga.mp3	pa	ga	1	other
6.6.1	win	2023-07-13	15:57:26	16:08:29	658582	617172d3e4d3b6d6ab6a705c	4	1	DL_test	23	DL_test	12	stimuli_target_trianglesquares.svg	stimuli_distractor_trianglediamonds.svg	18	yes	ka	0	1030	6	3	antiphase_hc_soi.wav	1	6	2	noise_calib_stim_LEFT.wav	1	18	blb_dichoticlistening_ga-ta.mp3	ga	ta	1	other
6.6.1	win	2023-07-13	15:57:26	16:08:29	658582	617172d3e4d3b6d6ab6a705c	4	1	DL_test	23	DL_test	13	stimuli_target_trianglesquares.svg	stimuli_distractor_trianglediamonds.svg	18	yes	da	1	1226	6	3	antiphase_hc_soi.wav	1	6	2	noise_calib_stim_LEFT.wav	1	8	blb_dichoticlistening_da-da.mp3	da	da	0	left
6.6.1	win	2023-07-13	15:57:26	16:08:29	658582	617172d3e4d3b6d6ab6a705c	4	1	DL_test	23	DL_test	14	stimuli_target_trianglesquares.svg	stimuli_distractor_trianglediamonds.svg	18	yes	ka	0	3023	6	3	antiphase_hc_soi.wav	1	6	2	noise_calib_stim_LEFT.wav	1	31	blb_dichoticlistening_ta-ba.mp3	ta	ba	1	other
6.6.1	win	2023-07-13	15:57:26	16:08:29	658582	617172d3e4d3b6d6ab6a705c	4	1	DL_test	23	DL_test	15	stimuli_target_trianglesquares.svg	stimuli_distractor_trianglediamonds.svg	18	yes	ga	1	1052	6	3	antiphase_hc_soi.wav	1	6	2	noise_calib_stim_LEFT.wav	1	15	blb_dichoticlistening_ga-ga.mp3	ga	ga	0	left
6.6.1	win	2023-07-13	15:57:26	16:08:29	658582	617172d3e4d3b6d6ab6a705c	4	1	DL_test	23	DL_test	16	stimuli_target_trianglesquares.svg	stimuli_distractor_trianglediamonds.svg	18	yes	ka	1	1151	6	3	antiphase_hc_soi.wav	1	6	2	noise_calib_stim_LEFT.wav	1	16	blb_dichoticlistening_ga-ka.mp3	ga	ka	1	right
6.6.1	win	2023-07-13	15:57:26	16:08:29	658582	617172d3e4d3b6d6ab6a705c	4	1	DL_test	23	DL_test	17	stimuli_target_trianglesquares.svg	stimuli_distractor_trianglediamonds.svg	18	yes	ka	1	1018	6	3	antiphase_hc_soi.wav	1	6	2	noise_calib_stim_LEFT.wav	1	20	blb_dichoticlistening_ka-da.mp3	ka	da	1	left
6.6.1	win	2023-07-13	15:57:26	16:08:29	658582	617172d3e4d3b6d6ab6a705c	4	1	DL_test	23	DL_test	18	stimuli_target_trianglesquares.svg	stimuli_distractor_trianglediamonds.svg	18	yes	ka	1	921	6	3	antiphase_hc_soi.wav	1	6	2	noise_calib_stim_LEFT.wav	1	22	blb_dichoticlistening_ka-ka.mp3	ka	ka	0	left
6.6.1	win	2023-07-13	15:57:26	16:08:29	658582	617172d3e4d3b6d6ab6a705c	4	1	DL_test	23	DL_test	19	stimuli_target_trianglesquares.svg	stimuli_distractor_trianglediamonds.svg	18	yes	ta	0	1864	6	3	antiphase_hc_soi.wav	1	6	2	noise_calib_stim_LEFT.wav	1	11	blb_dichoticlistening_da-pa.mp3	da	pa	1	other
6.6.1	win	2023-07-13	15:57:26	16:08:29	658582	617172d3e4d3b6d6ab6a705c	4	1	DL_test	23	DL_test	20	stimuli_target_trianglesquares.svg	stimuli_distractor_trianglediamonds.svg	18	yes	da	1	1070	6	3	antiphase_hc_soi.wav	1	6	2	noise_calib_stim_LEFT.wav	1	7	blb_dichoticlistening_da-ba.mp3	da	ba	1	left
6.6.1	win	2023-07-13	15:57:26	16:08:29	658582	617172d3e4d3b6d6ab6a705c	4	1	DL_test	23	DL_test	21	stimuli_target_trianglesquares.svg	stimuli_distractor_trianglediamonds.svg	18	yes	ka	1	993	6	3	antiphase_hc_soi.wav	1	6	2	noise_calib_stim_LEFT.wav	1	4	blb_dichoticlistening_ba-ka.mp3	ba	ka	1	right
6.6.1	win	2023-07-13	15:57:26	16:08:29	658582	617172d3e4d3b6d6ab6a705c	4	1	DL_test	23	DL_test	22	stimuli_target_trianglesquares.svg	stimuli_distractor_trianglediamonds.svg	18	yes	ga	1	1175	6	3	antiphase_hc_soi.wav	1	6	2	noise_calib_stim_LEFT.wav	1	3	blb_dichoticlistening_ba-ga.mp3	ba	ga	1	right
6.6.1	win	2023-07-13	15:57:26	16:08:29	658582	617172d3e4d3b6d6ab6a705c	4	1	DL_test	23	DL_test	23	stimuli_target_trianglesquares.svg	stimuli_distractor_trianglediamonds.svg	18	yes	ta	1	1004	6	3	antiphase_hc_soi.wav	1	6	2	noise_calib_stim_LEFT.wav	1	6	blb_dichoticlistening_ba-ta.mp3	ba	ta	1	right
6.6.1	win	2023-07-13	15:57:26	16:08:29	658582	617172d3e4d3b6d6ab6a705c	4	1	DL_test	23	DL_test	24	stimuli_target_trianglesquares.svg	stimuli_distractor_trianglediamonds.svg	18	yes	da	1	1372	6	3	antiphase_hc_soi.wav	1	6	2	noise_calib_stim_LEFT.wav	1	2	blb_dichoticlistening_ba-da.mp3	ba	da	1	right
6.6.1	win	2023-07-13	15:57:26	16:08:29	658582	617172d3e4d3b6d6ab6a705c	4	1	DL_test	23	DL_test	25	stimuli_target_trianglesquares.svg	stimuli_distractor_trianglediamonds.svg	18	yes	pa	1	1132	6	3	antiphase_hc_soi.wav	1	6	2	noise_calib_stim_LEFT.wav	1	29	blb_dichoticlistening_pa-pa.mp3	pa	pa	0	left
6.6.1	win	2023-07-13	15:57:26	16:08:29	658582	617172d3e4d3b6d6ab6a705c	4	1	DL_test	23	DL_test	26	stimuli_target_trianglesquares.svg	stimuli_distractor_trianglediamonds.svg	18	yes	ka	0	1522	6	3	antiphase_hc_soi.wav	1	6	2	noise_calib_stim_LEFT.wav	1	33	blb_dichoticlistening_ta-ga.mp3	ta	ga	1	other
