build	computer.platform	date	time	timestamp	time_elapsed_ms	subject	group	session	blockcode	blocknum	trialcode	trialnum	stimulus_left	stimulus_right	stim_index	target_present	response	correct	latency	headphonecheck_countTestTrials	headphonecheck_index	headphonecheck_testSound	headphonecheck_correctResponse	stereocheck_countTestTrials	stereocheck_index	stereocheck_testSound	stereocheck_correctResponse	DL_index	DL_soundfile	DL_leftSound	DL_rightSound	DL_dualSound	DL_choice
6.6.1	win	2023-06-27	20:14:02	0	0	5f0fba550d4c1304aa069f1d	1	1	headphonecheck_calibration	4	headphonecheck_calibrationIntro	1			0		calibrationButton	0	5820	0	0			0	0			1				0	
6.6.1	win	2023-06-27	20:14:02	0	0	5f0fba550d4c1304aa069f1d	1	1	headphonecheck_testphase	5	test_collectResponse	3			0		third	1	1533	1	6	antiphase_hc_ois.wav	3	0	0			1				0	
6.6.1	win	2023-06-27	20:14:02	0	0	5f0fba550d4c1304aa069f1d	1	1	headphonecheck_testphase	5	test_collectResponse	6			0		second	1	1038	2	5	antiphase_hc_osi.wav	2	0	0			1				0	
6.6.1	win	2023-06-27	20:14:02	0	0	5f0fba550d4c1304aa069f1d	1	1	headphonecheck_testphase	5	test_collectResponse	9			0		first	1	244	3	4	antiphase_hc_sio.wav	1	0	0			1				0	
6.6.1	win	2023-06-27	20:14:02	0	0	5f0fba550d4c1304aa069f1d	1	1	headphonecheck_testphase	5	test_collectResponse	12			0		third	1	244	4	2	antiphase_hc_ios.wav	3	0	0			1				0	
6.6.1	win	2023-06-27	20:14:02	0	0	5f0fba550d4c1304aa069f1d	1	1	headphonecheck_testphase	5	test_collectResponse	15			0		first	1	227	5	3	antiphase_hc_soi.wav	1	0	0			1				0	
6.6.1	win	2023-06-27	20:14:02	0	0	5f0fba550d4c1304aa069f1d	1	1	headphonecheck_testphase	5	test_collectResponse	18			0		second	1	330	6	1	antiphase_hc_iso.wav	2	0	0			1				0	
6.6.1	win	2023-06-27	20:14:02	0	0	5f0fba550d4c1304aa069f1d	1	1	stereocheck_calibration	7	stereocheck_calibrationIntro	1			0		stereocheck_calibrationButton	0	5102	6	1	antiphase_hc_iso.wav	2	0	0			1				0	
6.6.1	win	2023-06-27	20:14:02	0	0	5f0fba550d4c1304aa069f1d	1	1	stereocheck_testphase	8	stereocheck_test_collectResponse	3			0		stereocheck_left	1	581	6	1	antiphase_hc_iso.wav	2	1	3	noise_calib_stim_LEFT.wav	1	1				0	
6.6.1	win	2023-06-27	20:14:02	0	0	5f0fba550d4c1304aa069f1d	1	1	stereocheck_testphase	8	stereocheck_test_collectResponse	6			0		stereocheck_left	1	371	6	1	antiphase_hc_iso.wav	2	2	1	noise_calib_stim_LEFT.wav	1	1				0	
6.6.1	win	2023-06-27	20:14:02	0	0	5f0fba550d4c1304aa069f1d	1	1	stereocheck_testphase	8	stereocheck_test_collectResponse	9			0		stereocheck_left	1	343	6	1	antiphase_hc_iso.wav	2	3	2	noise_calib_stim_LEFT.wav	1	1				0	
6.6.1	win	2023-06-27	20:14:02	0	0	5f0fba550d4c1304aa069f1d	1	1	stereocheck_testphase	8	stereocheck_test_collectResponse	12			0		stereocheck_right	1	197	6	1	antiphase_hc_iso.wav	2	4	5	noise_calib_stim_RIGHT.wav	2	1				0	
6.6.1	win	2023-06-27	20:14:02	0	0	5f0fba550d4c1304aa069f1d	1	1	stereocheck_testphase	8	stereocheck_test_collectResponse	15			0		stereocheck_right	1	219	6	1	antiphase_hc_iso.wav	2	5	4	noise_calib_stim_RIGHT.wav	2	1				0	
6.6.1	win	2023-06-27	20:14:02	0	0	5f0fba550d4c1304aa069f1d	1	1	stereocheck_testphase	8	stereocheck_test_collectResponse	18			0		stereocheck_right	1	1260	6	1	antiphase_hc_iso.wav	2	6	6	noise_calib_stim_RIGHT.wav	2	1				0	
6.6.1	win	2023-06-27	20:14:02	0	0	5f0fba550d4c1304aa069f1d	1	1	DL_practice	11	DL_practice	2			0		da	1	1600	6	1	antiphase_hc_iso.wav	2	6	6	noise_calib_stim_RIGHT.wav	2	8	blb_dichoticlistening_da-da.mp3	da	da	0	left
6.6.1	win	2023-06-27	20:14:02	0	0	5f0fba550d4c1304aa069f1d	1	1	DL_practice	11	DL_practice	3			0		ta	1	1441	6	1	antiphase_hc_iso.wav	2	6	6	noise_calib_stim_RIGHT.wav	2	36	blb_dichoticlistening_ta-ta.mp3	ta	ta	0	left
6.6.1	win	2023-06-27	20:14:02	0	0	5f0fba550d4c1304aa069f1d	1	1	DL_practice	11	DL_practice	4			0		ka	1	1020	6	1	antiphase_hc_iso.wav	2	6	6	noise_calib_stim_RIGHT.wav	2	22	blb_dichoticlistening_ka-ka.mp3	ka	ka	0	left
6.6.1	win	2023-06-27	20:14:02	0	0	5f0fba550d4c1304aa069f1d	1	1	DL_practice	11	DL_practice	5			0		da	0	3523	6	1	antiphase_hc_iso.wav	2	6	6	noise_calib_stim_RIGHT.wav	2	18	blb_dichoticlistening_ga-ta.mp3	ga	ta	1	other
6.6.1	win	2023-06-27	20:14:02	0	0	5f0fba550d4c1304aa069f1d	1	1	DL_practice	11	DL_practice	6			0		da	1	1027	6	1	antiphase_hc_iso.wav	2	6	6	noise_calib_stim_RIGHT.wav	2	7	blb_dichoticlistening_da-ba.mp3	da	ba	1	left
6.6.1	win	2023-06-27	20:14:02	0	0	5f0fba550d4c1304aa069f1d	1	1	DL_practice	11	DL_practice	7			0		pa	1	1702	6	1	antiphase_hc_iso.wav	2	6	6	noise_calib_stim_RIGHT.wav	2	23	blb_dichoticlistening_ka-pa.mp3	ka	pa	1	right
6.6.1	win	2023-06-27	20:14:02	0	0	5f0fba550d4c1304aa069f1d	1	1	DL_practice	11	DL_practice	8			0		ga	1	881	6	1	antiphase_hc_iso.wav	2	6	6	noise_calib_stim_RIGHT.wav	2	15	blb_dichoticlistening_ga-ga.mp3	ga	ga	0	left
6.6.1	win	2023-06-27	20:14:02	0	0	5f0fba550d4c1304aa069f1d	1	1	DL_practice	11	DL_practice	9			0		pa	1	1407	6	1	antiphase_hc_iso.wav	2	6	6	noise_calib_stim_RIGHT.wav	2	29	blb_dichoticlistening_pa-pa.mp3	pa	pa	0	left
6.6.1	win	2023-06-27	20:14:02	0	0	5f0fba550d4c1304aa069f1d	1	1	DL_practice	11	DL_practice	10			0		ba	1	1691	6	1	antiphase_hc_iso.wav	2	6	6	noise_calib_stim_RIGHT.wav	2	1	blb_dichoticlistening_ba-ba.mp3	ba	ba	0	left
6.6.1	win	2023-06-27	20:14:02	0	0	5f0fba550d4c1304aa069f1d	1	1	DL_test	13	DL_test	1			0		pa	1	1738	6	1	antiphase_hc_iso.wav	2	6	6	noise_calib_stim_RIGHT.wav	2	25	blb_dichoticlistening_pa-ba.mp3	pa	ba	1	left
6.6.1	win	2023-06-27	20:14:02	0	0	5f0fba550d4c1304aa069f1d	1	1	DL_test	13	DL_test	2			0		ka	1	1304	6	1	antiphase_hc_iso.wav	2	6	6	noise_calib_stim_RIGHT.wav	2	19	blb_dichoticlistening_ka-ba.mp3	ka	ba	1	left
6.6.1	win	2023-06-27	20:14:02	0	0	5f0fba550d4c1304aa069f1d	1	1	DL_test	13	DL_test	3			0		ga	1	992	6	1	antiphase_hc_iso.wav	2	6	6	noise_calib_stim_RIGHT.wav	2	15	blb_dichoticlistening_ga-ga.mp3	ga	ga	0	left
6.6.1	win	2023-06-27	20:14:02	0	0	5f0fba550d4c1304aa069f1d	1	1	DL_test	13	DL_test	4			0		ka	1	1153	6	1	antiphase_hc_iso.wav	2	6	6	noise_calib_stim_RIGHT.wav	2	34	blb_dichoticlistening_ta-ka.mp3	ta	ka	1	right
6.6.1	win	2023-06-27	20:14:02	0	0	5f0fba550d4c1304aa069f1d	1	1	DL_test	13	DL_test	5			0		pa	1	1871	6	1	antiphase_hc_iso.wav	2	6	6	noise_calib_stim_RIGHT.wav	2	26	blb_dichoticlistening_pa-da.mp3	pa	da	1	left
6.6.1	win	2023-06-27	20:14:02	0	0	5f0fba550d4c1304aa069f1d	1	1	DL_test	13	DL_test	6			0		ka	1	1703	6	1	antiphase_hc_iso.wav	2	6	6	noise_calib_stim_RIGHT.wav	2	21	blb_dichoticlistening_ka-ga.mp3	ka	ga	1	left
6.6.1	win	2023-06-27	20:14:02	0	0	5f0fba550d4c1304aa069f1d	1	1	DL_test	13	DL_test	7			0		da	0	1242	6	1	antiphase_hc_iso.wav	2	6	6	noise_calib_stim_RIGHT.wav	2	13	blb_dichoticlistening_ga-ba.mp3	ga	ba	1	other
6.6.1	win	2023-06-27	20:14:02	0	0	5f0fba550d4c1304aa069f1d	1	1	DL_test	13	DL_test	8			0		pa	1	1253	6	1	antiphase_hc_iso.wav	2	6	6	noise_calib_stim_RIGHT.wav	2	5	blb_dichoticlistening_ba-pa.mp3	ba	pa	1	right
6.6.1	win	2023-06-27	20:14:02	0	0	5f0fba550d4c1304aa069f1d	1	1	DL_test	13	DL_test	9			0		ka	1	1256	6	1	antiphase_hc_iso.wav	2	6	6	noise_calib_stim_RIGHT.wav	2	23	blb_dichoticlistening_ka-pa.mp3	ka	pa	1	left
6.6.1	win	2023-06-27	20:14:02	0	0	5f0fba550d4c1304aa069f1d	1	1	DL_test	13	DL_test	10			0		ta	1	1454	6	1	antiphase_hc_iso.wav	2	6	6	noise_calib_stim_RIGHT.wav	2	35	blb_dichoticlistening_ta-pa.mp3	ta	pa	1	left
6.6.1	win	2023-06-27	20:14:02	0	0	5f0fba550d4c1304aa069f1d	1	1	DL_test	13	DL_test	11			0		ga	1	1185	6	1	antiphase_hc_iso.wav	2	6	6	noise_calib_stim_RIGHT.wav	2	16	blb_dichoticlistening_ga-ka.mp3	ga	ka	1	left
6.6.1	win	2023-06-27	20:14:02	0	0	5f0fba550d4c1304aa069f1d	1	1	DL_test	13	DL_test	12			0		da	0	1521	6	1	antiphase_hc_iso.wav	2	6	6	noise_calib_stim_RIGHT.wav	2	18	blb_dichoticlistening_ga-ta.mp3	ga	ta	1	other
6.6.1	win	2023-06-27	20:14:02	0	0	5f0fba550d4c1304aa069f1d	1	1	DL_test	13	DL_test	13			0		da	1	1307	6	1	antiphase_hc_iso.wav	2	6	6	noise_calib_stim_RIGHT.wav	2	8	blb_dichoticlistening_da-da.mp3	da	da	0	left
6.6.1	win	2023-06-27	20:14:02	0	0	5f0fba550d4c1304aa069f1d	1	1	DL_test	13	DL_test	14			0		da	1	4011	6	1	antiphase_hc_iso.wav	2	6	6	noise_calib_stim_RIGHT.wav	2	10	blb_dichoticlistening_da-ka.mp3	da	ka	1	left
6.6.1	win	2023-06-27	20:14:02	0	0	5f0fba550d4c1304aa069f1d	1	1	DL_test	13	DL_test	15			0		pa	1	2617	6	1	antiphase_hc_iso.wav	2	6	6	noise_calib_stim_RIGHT.wav	2	11	blb_dichoticlistening_da-pa.mp3	da	pa	1	right
6.6.1	win	2023-06-27	20:14:02	0	0	5f0fba550d4c1304aa069f1d	1	1	DL_test	13	DL_test	16			0		ka	1	972	6	1	antiphase_hc_iso.wav	2	6	6	noise_calib_stim_RIGHT.wav	2	22	blb_dichoticlistening_ka-ka.mp3	ka	ka	0	left
6.6.1	win	2023-06-27	20:14:02	0	0	5f0fba550d4c1304aa069f1d	1	1	DL_test	13	DL_test	17			0		da	1	1391	6	1	antiphase_hc_iso.wav	2	6	6	noise_calib_stim_RIGHT.wav	2	9	blb_dichoticlistening_da-ga.mp3	da	ga	1	left
6.6.1	win	2023-06-27	20:14:02	0	0	5f0fba550d4c1304aa069f1d	1	1	DL_test	13	DL_test	18			0		pa	1	1591	6	1	antiphase_hc_iso.wav	2	6	6	noise_calib_stim_RIGHT.wav	2	28	blb_dichoticlistening_pa-ka.mp3	pa	ka	1	left
6.6.1	win	2023-06-27	20:14:02	0	0	5f0fba550d4c1304aa069f1d	1	1	DL_test	13	DL_test	19			0		pa	1	1318	6	1	antiphase_hc_iso.wav	2	6	6	noise_calib_stim_RIGHT.wav	2	30	blb_dichoticlistening_pa-ta.mp3	pa	ta	1	left
6.6.1	win	2023-06-27	20:14:02	0	0	5f0fba550d4c1304aa069f1d	1	1	DL_test	13	DL_test	20			0		ta	1	2308	6	1	antiphase_hc_iso.wav	2	6	6	noise_calib_stim_RIGHT.wav	2	31	blb_dichoticlistening_ta-ba.mp3	ta	ba	1	left
6.6.1	win	2023-06-27	20:14:02	0	0	5f0fba550d4c1304aa069f1d	1	1	DL_test	13	DL_test	21			0		ta	1	1910	6	1	antiphase_hc_iso.wav	2	6	6	noise_calib_stim_RIGHT.wav	2	33	blb_dichoticlistening_ta-ga.mp3	ta	ga	1	left
6.6.1	win	2023-06-27	20:14:02	0	0	5f0fba550d4c1304aa069f1d	1	1	DL_test	13	DL_test	22			0		ka	1	1161	6	1	antiphase_hc_iso.wav	2	6	6	noise_calib_stim_RIGHT.wav	2	20	blb_dichoticlistening_ka-da.mp3	ka	da	1	left
6.6.1	win	2023-06-27	20:14:02	0	0	5f0fba550d4c1304aa069f1d	1	1	DL_test	13	DL_test	23			0		ta	1	3268	6	1	antiphase_hc_iso.wav	2	6	6	noise_calib_stim_RIGHT.wav	2	32	blb_dichoticlistening_ta-da.mp3	ta	da	1	left
6.6.1	win	2023-06-27	20:14:02	0	0	5f0fba550d4c1304aa069f1d	1	1	DL_test	13	DL_test	24			0		ga	0	4916	6	1	antiphase_hc_iso.wav	2	6	6	noise_calib_stim_RIGHT.wav	2	6	blb_dichoticlistening_ba-ta.mp3	ba	ta	1	other
6.6.1	win	2023-06-27	20:14:02	0	0	5f0fba550d4c1304aa069f1d	1	1	DL_test	13	DL_test	25			0		ba	1	2042	6	1	antiphase_hc_iso.wav	2	6	6	noise_calib_stim_RIGHT.wav	2	1	blb_dichoticlistening_ba-ba.mp3	ba	ba	0	left
6.6.1	win	2023-06-27	20:14:02	0	0	5f0fba550d4c1304aa069f1d	1	1	DL_test	13	DL_test	26			0		pa	1	1658	6	1	antiphase_hc_iso.wav	2	6	6	noise_calib_stim_RIGHT.wav	2	27	blb_dichoticlistening_pa-ga.mp3	pa	ga	1	left
6.6.1	win	2023-06-27	20:14:02	0	0	5f0fba550d4c1304aa069f1d	1	1	DL_test	13	DL_test	27			0		ga	1	1166	6	1	antiphase_hc_iso.wav	2	6	6	noise_calib_stim_RIGHT.wav	2	3	blb_dichoticlistening_ba-ga.mp3	ba	ga	1	right
6.6.1	win	2023-06-27	20:14:02	0	0	5f0fba550d4c1304aa069f1d	1	1	DL_test	13	DL_test	28			0		ta	1	1657	6	1	antiphase_hc_iso.wav	2	6	6	noise_calib_stim_RIGHT.wav	2	12	blb_dichoticlistening_da-ta.mp3	da	ta	1	right
6.6.1	win	2023-06-27	20:14:02	0	0	5f0fba550d4c1304aa069f1d	1	1	DL_test	13	DL_test	29			0		pa	1	1681	6	1	antiphase_hc_iso.wav	2	6	6	noise_calib_stim_RIGHT.wav	2	29	blb_dichoticlistening_pa-pa.mp3	pa	pa	0	left
6.6.1	win	2023-06-27	20:14:02	0	0	5f0fba550d4c1304aa069f1d	1	1	DL_test	13	DL_test	30			0		ga	1	1359	6	1	antiphase_hc_iso.wav	2	6	6	noise_calib_stim_RIGHT.wav	2	17	blb_dichoticlistening_ga-pa.mp3	ga	pa	1	left
6.6.1	win	2023-06-27	20:14:02	0	0	5f0fba550d4c1304aa069f1d	1	1	DL_test	13	DL_test	31			0		da	1	1322	6	1	antiphase_hc_iso.wav	2	6	6	noise_calib_stim_RIGHT.wav	2	14	blb_dichoticlistening_ga-da.mp3	ga	da	1	right
6.6.1	win	2023-06-27	20:14:02	0	0	5f0fba550d4c1304aa069f1d	1	1	DL_test	13	DL_test	32			0		da	1	935	6	1	antiphase_hc_iso.wav	2	6	6	noise_calib_stim_RIGHT.wav	2	7	blb_dichoticlistening_da-ba.mp3	da	ba	1	left
6.6.1	win	2023-06-27	20:14:02	0	0	5f0fba550d4c1304aa069f1d	1	1	DL_test	13	DL_test	33			0		ta	1	1297	6	1	antiphase_hc_iso.wav	2	6	6	noise_calib_stim_RIGHT.wav	2	36	blb_dichoticlistening_ta-ta.mp3	ta	ta	0	left
6.6.1	win	2023-06-27	20:14:02	0	0	5f0fba550d4c1304aa069f1d	1	1	DL_test	13	DL_test	34			0		ka	1	1250	6	1	antiphase_hc_iso.wav	2	6	6	noise_calib_stim_RIGHT.wav	2	24	blb_dichoticlistening_ka-ta.mp3	ka	ta	1	left
6.6.1	win	2023-06-27	20:14:02	0	0	5f0fba550d4c1304aa069f1d	1	1	DL_test	13	DL_test	35			0		da	1	1148	6	1	antiphase_hc_iso.wav	2	6	6	noise_calib_stim_RIGHT.wav	2	2	blb_dichoticlistening_ba-da.mp3	ba	da	1	right
6.6.1	win	2023-06-27	20:14:02	0	0	5f0fba550d4c1304aa069f1d	1	1	DL_test	13	DL_test	36			0		ka	1	1115	6	1	antiphase_hc_iso.wav	2	6	6	noise_calib_stim_RIGHT.wav	2	4	blb_dichoticlistening_ba-ka.mp3	ba	ka	1	right
6.6.1	win	2023-06-27	20:14:02	0	0	5f0fba550d4c1304aa069f1d	1	1	DL_test	14	DL_test	1			0		ka	0	1369	6	1	antiphase_hc_iso.wav	2	6	6	noise_calib_stim_RIGHT.wav	2	18	blb_dichoticlistening_ga-ta.mp3	ga	ta	1	other
6.6.1	win	2023-06-27	20:14:02	0	0	5f0fba550d4c1304aa069f1d	1	1	DL_test	14	DL_test	2			0		ga	0	1027	6	1	antiphase_hc_iso.wav	2	6	6	noise_calib_stim_RIGHT.wav	2	10	blb_dichoticlistening_da-ka.mp3	da	ka	1	other
6.6.1	win	2023-06-27	20:14:02	0	0	5f0fba550d4c1304aa069f1d	1	1	DL_test	14	DL_test	3			0		da	1	680	6	1	antiphase_hc_iso.wav	2	6	6	noise_calib_stim_RIGHT.wav	2	9	blb_dichoticlistening_da-ga.mp3	da	ga	1	left
6.6.1	win	2023-06-27	20:14:02	0	0	5f0fba550d4c1304aa069f1d	1	1	DL_test	14	DL_test	4			0		ka	1	1077	6	1	antiphase_hc_iso.wav	2	6	6	noise_calib_stim_RIGHT.wav	2	20	blb_dichoticlistening_ka-da.mp3	ka	da	1	left
6.6.1	win	2023-06-27	20:14:02	0	0	5f0fba550d4c1304aa069f1d	1	1	DL_test	14	DL_test	5			0		da	1	1100	6	1	antiphase_hc_iso.wav	2	6	6	noise_calib_stim_RIGHT.wav	2	7	blb_dichoticlistening_da-ba.mp3	da	ba	1	left
6.6.1	win	2023-06-27	20:14:02	0	0	5f0fba550d4c1304aa069f1d	1	1	DL_test	14	DL_test	6			0		ka	0	893	6	1	antiphase_hc_iso.wav	2	6	6	noise_calib_stim_RIGHT.wav	2	33	blb_dichoticlistening_ta-ga.mp3	ta	ga	1	other
6.6.1	win	2023-06-27	20:14:02	0	0	5f0fba550d4c1304aa069f1d	1	1	DL_test	14	DL_test	7			0		ka	1	1088	6	1	antiphase_hc_iso.wav	2	6	6	noise_calib_stim_RIGHT.wav	2	16	blb_dichoticlistening_ga-ka.mp3	ga	ka	1	right
6.6.1	win	2023-06-27	20:14:02	0	0	5f0fba550d4c1304aa069f1d	1	1	DL_test	14	DL_test	8			0		ka	1	922	6	1	antiphase_hc_iso.wav	2	6	6	noise_calib_stim_RIGHT.wav	2	24	blb_dichoticlistening_ka-ta.mp3	ka	ta	1	left
6.6.1	win	2023-06-27	20:14:02	0	0	5f0fba550d4c1304aa069f1d	1	1	DL_test	14	DL_test	9			0		da	1	1022	6	1	antiphase_hc_iso.wav	2	6	6	noise_calib_stim_RIGHT.wav	2	14	blb_dichoticlistening_ga-da.mp3	ga	da	1	right
6.6.1	win	2023-06-27	20:14:02	0	0	5f0fba550d4c1304aa069f1d	1	1	DL_test	14	DL_test	10			0		pa	1	1531	6	1	antiphase_hc_iso.wav	2	6	6	noise_calib_stim_RIGHT.wav	2	26	blb_dichoticlistening_pa-da.mp3	pa	da	1	left
6.6.1	win	2023-06-27	20:14:02	0	0	5f0fba550d4c1304aa069f1d	1	1	DL_test	14	DL_test	11			0		pa	1	1228	6	1	antiphase_hc_iso.wav	2	6	6	noise_calib_stim_RIGHT.wav	2	11	blb_dichoticlistening_da-pa.mp3	da	pa	1	right
6.6.1	win	2023-06-27	20:14:02	0	0	5f0fba550d4c1304aa069f1d	1	1	DL_test	14	DL_test	12			0		pa	1	1650	6	1	antiphase_hc_iso.wav	2	6	6	noise_calib_stim_RIGHT.wav	2	27	blb_dichoticlistening_pa-ga.mp3	pa	ga	1	left
6.6.1	win	2023-06-27	20:14:02	0	0	5f0fba550d4c1304aa069f1d	1	1	DL_test	14	DL_test	13			0		pa	0	2578	6	1	antiphase_hc_iso.wav	2	6	6	noise_calib_stim_RIGHT.wav	2	12	blb_dichoticlistening_da-ta.mp3	da	ta	1	other
6.6.1	win	2023-06-27	20:14:02	0	0	5f0fba550d4c1304aa069f1d	1	1	DL_test	14	DL_test	14			0		ka	1	1550	6	1	antiphase_hc_iso.wav	2	6	6	noise_calib_stim_RIGHT.wav	2	21	blb_dichoticlistening_ka-ga.mp3	ka	ga	1	left
6.6.1	win	2023-06-27	20:14:02	0	0	5f0fba550d4c1304aa069f1d	1	1	DL_test	14	DL_test	15			0		pa	1	2164	6	1	antiphase_hc_iso.wav	2	6	6	noise_calib_stim_RIGHT.wav	2	25	blb_dichoticlistening_pa-ba.mp3	pa	ba	1	left
6.6.1	win	2023-06-27	20:14:02	0	0	5f0fba550d4c1304aa069f1d	1	1	DL_test	14	DL_test	16			0		ta	1	1555	6	1	antiphase_hc_iso.wav	2	6	6	noise_calib_stim_RIGHT.wav	2	35	blb_dichoticlistening_ta-pa.mp3	ta	pa	1	left
6.6.1	win	2023-06-27	20:14:02	0	0	5f0fba550d4c1304aa069f1d	1	1	DL_test	14	DL_test	17			0		ka	0	2573	6	1	antiphase_hc_iso.wav	2	6	6	noise_calib_stim_RIGHT.wav	2	32	blb_dichoticlistening_ta-da.mp3	ta	da	1	other
6.6.1	win	2023-06-27	20:14:02	0	0	5f0fba550d4c1304aa069f1d	1	1	DL_test	14	DL_test	18			0		ba	1	4216	6	1	antiphase_hc_iso.wav	2	6	6	noise_calib_stim_RIGHT.wav	2	5	blb_dichoticlistening_ba-pa.mp3	ba	pa	1	left
6.6.1	win	2023-06-27	20:14:02	0	0	5f0fba550d4c1304aa069f1d	1	1	DL_test	14	DL_test	19			0		ka	1	1668	6	1	antiphase_hc_iso.wav	2	6	6	noise_calib_stim_RIGHT.wav	2	19	blb_dichoticlistening_ka-ba.mp3	ka	ba	1	left
6.6.1	win	2023-06-27	20:14:02	0	0	5f0fba550d4c1304aa069f1d	1	1	DL_test	14	DL_test	20			0		ka	0	1307	6	1	antiphase_hc_iso.wav	2	6	6	noise_calib_stim_RIGHT.wav	2	31	blb_dichoticlistening_ta-ba.mp3	ta	ba	1	other
6.6.1	win	2023-06-27	20:14:02	0	0	5f0fba550d4c1304aa069f1d	1	1	DL_test	14	DL_test	21			0		da	1	1047	6	1	antiphase_hc_iso.wav	2	6	6	noise_calib_stim_RIGHT.wav	2	2	blb_dichoticlistening_ba-da.mp3	ba	da	1	right
6.6.1	win	2023-06-27	20:14:02	0	0	5f0fba550d4c1304aa069f1d	1	1	DL_test	14	DL_test	22			0		ga	1	953	6	1	antiphase_hc_iso.wav	2	6	6	noise_calib_stim_RIGHT.wav	2	15	blb_dichoticlistening_ga-ga.mp3	ga	ga	0	left
6.6.1	win	2023-06-27	20:14:02	0	0	5f0fba550d4c1304aa069f1d	1	1	DL_test	14	DL_test	23			0		ta	1	1500	6	1	antiphase_hc_iso.wav	2	6	6	noise_calib_stim_RIGHT.wav	2	36	blb_dichoticlistening_ta-ta.mp3	ta	ta	0	left
6.6.1	win	2023-06-27	20:14:02	0	0	5f0fba550d4c1304aa069f1d	1	1	DL_test	14	DL_test	24			0		pa	1	1028	6	1	antiphase_hc_iso.wav	2	6	6	noise_calib_stim_RIGHT.wav	2	29	blb_dichoticlistening_pa-pa.mp3	pa	pa	0	left
6.6.1	win	2023-06-27	20:14:02	0	0	5f0fba550d4c1304aa069f1d	1	1	DL_test	14	DL_test	25			0		ga	1	894	6	1	antiphase_hc_iso.wav	2	6	6	noise_calib_stim_RIGHT.wav	2	3	blb_dichoticlistening_ba-ga.mp3	ba	ga	1	right
6.6.1	win	2023-06-27	20:14:02	0	0	5f0fba550d4c1304aa069f1d	1	1	DL_test	14	DL_test	26			0		da	1	900	6	1	antiphase_hc_iso.wav	2	6	6	noise_calib_stim_RIGHT.wav	2	8	blb_dichoticlistening_da-da.mp3	da	da	0	left
6.6.1	win	2023-06-27	20:14:02	0	0	5f0fba550d4c1304aa069f1d	1	1	DL_test	14	DL_test	27			0		ga	1	861	6	1	antiphase_hc_iso.wav	2	6	6	noise_calib_stim_RIGHT.wav	2	13	blb_dichoticlistening_ga-ba.mp3	ga	ba	1	left
6.6.1	win	2023-06-27	20:14:02	0	0	5f0fba550d4c1304aa069f1d	1	1	DL_test	14	DL_test	28			0		ka	1	1026	6	1	antiphase_hc_iso.wav	2	6	6	noise_calib_stim_RIGHT.wav	2	23	blb_dichoticlistening_ka-pa.mp3	ka	pa	1	left
6.6.1	win	2023-06-27	20:14:02	0	0	5f0fba550d4c1304aa069f1d	1	1	DL_test	14	DL_test	29			0		pa	0	1982	6	1	antiphase_hc_iso.wav	2	6	6	noise_calib_stim_RIGHT.wav	2	6	blb_dichoticlistening_ba-ta.mp3	ba	ta	1	other
6.6.1	win	2023-06-27	20:14:02	0	0	5f0fba550d4c1304aa069f1d	1	1	DL_test	14	DL_test	30			0		pa	1	924	6	1	antiphase_hc_iso.wav	2	6	6	noise_calib_stim_RIGHT.wav	2	30	blb_dichoticlistening_pa-ta.mp3	pa	ta	1	left
6.6.1	win	2023-06-27	20:14:02	0	0	5f0fba550d4c1304aa069f1d	1	1	DL_test	14	DL_test	31			0		ga	0	2579	6	1	antiphase_hc_iso.wav	2	6	6	noise_calib_stim_RIGHT.wav	2	4	blb_dichoticlistening_ba-ka.mp3	ba	ka	1	other
6.6.1	win	2023-06-27	20:14:02	0	0	5f0fba550d4c1304aa069f1d	1	1	DL_test	14	DL_test	32			0		ba	1	1696	6	1	antiphase_hc_iso.wav	2	6	6	noise_calib_stim_RIGHT.wav	2	1	blb_dichoticlistening_ba-ba.mp3	ba	ba	0	left
6.6.1	win	2023-06-27	20:14:02	0	0	5f0fba550d4c1304aa069f1d	1	1	DL_test	14	DL_test	33			0		ba	0	1494	6	1	antiphase_hc_iso.wav	2	6	6	noise_calib_stim_RIGHT.wav	2	17	blb_dichoticlistening_ga-pa.mp3	ga	pa	1	other
6.6.1	win	2023-06-27	20:14:02	0	0	5f0fba550d4c1304aa069f1d	1	1	DL_test	14	DL_test	34			0		ka	1	1779	6	1	antiphase_hc_iso.wav	2	6	6	noise_calib_stim_RIGHT.wav	2	28	blb_dichoticlistening_pa-ka.mp3	pa	ka	1	right
6.6.1	win	2023-06-27	20:14:02	0	0	5f0fba550d4c1304aa069f1d	1	1	DL_test	14	DL_test	35			0		ka	1	1141	6	1	antiphase_hc_iso.wav	2	6	6	noise_calib_stim_RIGHT.wav	2	34	blb_dichoticlistening_ta-ka.mp3	ta	ka	1	right
6.6.1	win	2023-06-27	20:14:02	0	0	5f0fba550d4c1304aa069f1d	1	1	DL_test	14	DL_test	36			0		ka	1	1118	6	1	antiphase_hc_iso.wav	2	6	6	noise_calib_stim_RIGHT.wav	2	22	blb_dichoticlistening_ka-ka.mp3	ka	ka	0	left
6.6.1	win	2023-06-27	20:14:02	0	0	5f0fba550d4c1304aa069f1d	1	1	DL_test	15	DL_test	1			0		ga	1	789	6	1	antiphase_hc_iso.wav	2	6	6	noise_calib_stim_RIGHT.wav	2	13	blb_dichoticlistening_ga-ba.mp3	ga	ba	1	left
6.6.1	win	2023-06-27	20:14:02	0	0	5f0fba550d4c1304aa069f1d	1	1	DL_test	15	DL_test	2			0		ga	0	850	6	1	antiphase_hc_iso.wav	2	6	6	noise_calib_stim_RIGHT.wav	2	7	blb_dichoticlistening_da-ba.mp3	da	ba	1	other
6.6.1	win	2023-06-27	20:14:02	0	0	5f0fba550d4c1304aa069f1d	1	1	DL_test	15	DL_test	3			0		pa	1	1085	6	1	antiphase_hc_iso.wav	2	6	6	noise_calib_stim_RIGHT.wav	2	26	blb_dichoticlistening_pa-da.mp3	pa	da	1	left
6.6.1	win	2023-06-27	20:14:02	0	0	5f0fba550d4c1304aa069f1d	1	1	DL_test	15	DL_test	4			0		ka	0	1322	6	1	antiphase_hc_iso.wav	2	6	6	noise_calib_stim_RIGHT.wav	2	32	blb_dichoticlistening_ta-da.mp3	ta	da	1	other
6.6.1	win	2023-06-27	20:14:02	0	0	5f0fba550d4c1304aa069f1d	1	1	DL_test	15	DL_test	5			0		ba	1	1590	6	1	antiphase_hc_iso.wav	2	6	6	noise_calib_stim_RIGHT.wav	2	1	blb_dichoticlistening_ba-ba.mp3	ba	ba	0	left
6.6.1	win	2023-06-27	20:14:02	0	0	5f0fba550d4c1304aa069f1d	1	1	DL_test	15	DL_test	6			0		ka	1	1514	6	1	antiphase_hc_iso.wav	2	6	6	noise_calib_stim_RIGHT.wav	2	34	blb_dichoticlistening_ta-ka.mp3	ta	ka	1	right
6.6.1	win	2023-06-27	20:14:02	0	0	5f0fba550d4c1304aa069f1d	1	1	DL_test	15	DL_test	7			0		ta	1	2083	6	1	antiphase_hc_iso.wav	2	6	6	noise_calib_stim_RIGHT.wav	2	35	blb_dichoticlistening_ta-pa.mp3	ta	pa	1	left
6.6.1	win	2023-06-27	20:14:02	0	0	5f0fba550d4c1304aa069f1d	1	1	DL_test	15	DL_test	8			0		ka	0	1924	6	1	antiphase_hc_iso.wav	2	6	6	noise_calib_stim_RIGHT.wav	2	31	blb_dichoticlistening_ta-ba.mp3	ta	ba	1	other
6.6.1	win	2023-06-27	20:14:02	0	0	5f0fba550d4c1304aa069f1d	1	1	DL_test	15	DL_test	9			0		ka	1	1296	6	1	antiphase_hc_iso.wav	2	6	6	noise_calib_stim_RIGHT.wav	2	20	blb_dichoticlistening_ka-da.mp3	ka	da	1	left
6.6.1	win	2023-06-27	20:14:02	0	0	5f0fba550d4c1304aa069f1d	1	1	DL_test	15	DL_test	10			0		da	1	1096	6	1	antiphase_hc_iso.wav	2	6	6	noise_calib_stim_RIGHT.wav	2	8	blb_dichoticlistening_da-da.mp3	da	da	0	left
6.6.1	win	2023-06-27	20:14:02	0	0	5f0fba550d4c1304aa069f1d	1	1	DL_test	15	DL_test	11			0		ga	1	1081	6	1	antiphase_hc_iso.wav	2	6	6	noise_calib_stim_RIGHT.wav	2	14	blb_dichoticlistening_ga-da.mp3	ga	da	1	left
6.6.1	win	2023-06-27	20:14:02	0	0	5f0fba550d4c1304aa069f1d	1	1	DL_test	15	DL_test	12			0		ka	1	923	6	1	antiphase_hc_iso.wav	2	6	6	noise_calib_stim_RIGHT.wav	2	22	blb_dichoticlistening_ka-ka.mp3	ka	ka	0	left
6.6.1	win	2023-06-27	20:14:02	0	0	5f0fba550d4c1304aa069f1d	1	1	DL_test	15	DL_test	13			0		ka	0	2246	6	1	antiphase_hc_iso.wav	2	6	6	noise_calib_stim_RIGHT.wav	2	6	blb_dichoticlistening_ba-ta.mp3	ba	ta	1	other
6.6.1	win	2023-06-27	20:14:02	0	0	5f0fba550d4c1304aa069f1d	1	1	DL_test	15	DL_test	14			0		ga	1	1025	6	1	antiphase_hc_iso.wav	2	6	6	noise_calib_stim_RIGHT.wav	2	3	blb_dichoticlistening_ba-ga.mp3	ba	ga	1	right
6.6.1	win	2023-06-27	20:14:02	0	0	5f0fba550d4c1304aa069f1d	1	1	DL_test	15	DL_test	15			0		ta	1	1603	6	1	antiphase_hc_iso.wav	2	6	6	noise_calib_stim_RIGHT.wav	2	36	blb_dichoticlistening_ta-ta.mp3	ta	ta	0	left
6.6.1	win	2023-06-27	20:14:02	0	0	5f0fba550d4c1304aa069f1d	1	1	DL_test	15	DL_test	16			0		pa	1	1766	6	1	antiphase_hc_iso.wav	2	6	6	noise_calib_stim_RIGHT.wav	2	29	blb_dichoticlistening_pa-pa.mp3	pa	pa	0	left
6.6.1	win	2023-06-27	20:14:02	0	0	5f0fba550d4c1304aa069f1d	1	1	DL_test	15	DL_test	17			0		ga	0	1501	6	1	antiphase_hc_iso.wav	2	6	6	noise_calib_stim_RIGHT.wav	2	2	blb_dichoticlistening_ba-da.mp3	ba	da	1	other
6.6.1	win	2023-06-27	20:14:02	0	0	5f0fba550d4c1304aa069f1d	1	1	DL_test	15	DL_test	18			0		ga	1	2045	6	1	antiphase_hc_iso.wav	2	6	6	noise_calib_stim_RIGHT.wav	2	17	blb_dichoticlistening_ga-pa.mp3	ga	pa	1	left
6.6.1	win	2023-06-27	20:14:02	0	0	5f0fba550d4c1304aa069f1d	1	1	DL_test	15	DL_test	19			0		ta	1	1838	6	1	antiphase_hc_iso.wav	2	6	6	noise_calib_stim_RIGHT.wav	2	33	blb_dichoticlistening_ta-ga.mp3	ta	ga	1	left
6.6.1	win	2023-06-27	20:14:02	0	0	5f0fba550d4c1304aa069f1d	1	1	DL_test	15	DL_test	20			0		ba	0	4457	6	1	antiphase_hc_iso.wav	2	6	6	noise_calib_stim_RIGHT.wav	2	30	blb_dichoticlistening_pa-ta.mp3	pa	ta	1	other
6.6.1	win	2023-06-27	20:14:02	0	0	5f0fba550d4c1304aa069f1d	1	1	DL_test	15	DL_test	21			0		pa	1	1463	6	1	antiphase_hc_iso.wav	2	6	6	noise_calib_stim_RIGHT.wav	2	27	blb_dichoticlistening_pa-ga.mp3	pa	ga	1	left
6.6.1	win	2023-06-27	20:14:02	0	0	5f0fba550d4c1304aa069f1d	1	1	DL_test	15	DL_test	22			0		ga	1	1150	6	1	antiphase_hc_iso.wav	2	6	6	noise_calib_stim_RIGHT.wav	2	18	blb_dichoticlistening_ga-ta.mp3	ga	ta	1	left
6.6.1	win	2023-06-27	20:14:02	0	0	5f0fba550d4c1304aa069f1d	1	1	DL_test	15	DL_test	23			0		ka	1	2941	6	1	antiphase_hc_iso.wav	2	6	6	noise_calib_stim_RIGHT.wav	2	28	blb_dichoticlistening_pa-ka.mp3	pa	ka	1	right
6.6.1	win	2023-06-27	20:14:02	0	0	5f0fba550d4c1304aa069f1d	1	1	DL_test	15	DL_test	24			0		ga	1	1236	6	1	antiphase_hc_iso.wav	2	6	6	noise_calib_stim_RIGHT.wav	2	9	blb_dichoticlistening_da-ga.mp3	da	ga	1	right
6.6.1	win	2023-06-27	20:14:02	0	0	5f0fba550d4c1304aa069f1d	1	1	DL_test	15	DL_test	25			0		da	1	1652	6	1	antiphase_hc_iso.wav	2	6	6	noise_calib_stim_RIGHT.wav	2	12	blb_dichoticlistening_da-ta.mp3	da	ta	1	left
6.6.1	win	2023-06-27	20:14:02	0	0	5f0fba550d4c1304aa069f1d	1	1	DL_test	15	DL_test	26			0		ka	0	2001	6	1	antiphase_hc_iso.wav	2	6	6	noise_calib_stim_RIGHT.wav	2	11	blb_dichoticlistening_da-pa.mp3	da	pa	1	other
6.6.1	win	2023-06-27	20:14:02	0	0	5f0fba550d4c1304aa069f1d	1	1	DL_test	15	DL_test	27			0		ka	1	1561	6	1	antiphase_hc_iso.wav	2	6	6	noise_calib_stim_RIGHT.wav	2	19	blb_dichoticlistening_ka-ba.mp3	ka	ba	1	left
6.6.1	win	2023-06-27	20:14:02	0	0	5f0fba550d4c1304aa069f1d	1	1	DL_test	15	DL_test	28			0		ga	0	2206	6	1	antiphase_hc_iso.wav	2	6	6	noise_calib_stim_RIGHT.wav	2	10	blb_dichoticlistening_da-ka.mp3	da	ka	1	other
6.6.1	win	2023-06-27	20:14:02	0	0	5f0fba550d4c1304aa069f1d	1	1	DL_test	15	DL_test	29			0		ka	1	1151	6	1	antiphase_hc_iso.wav	2	6	6	noise_calib_stim_RIGHT.wav	2	23	blb_dichoticlistening_ka-pa.mp3	ka	pa	1	left
6.6.1	win	2023-06-27	20:14:02	0	0	5f0fba550d4c1304aa069f1d	1	1	DL_test	15	DL_test	30			0		ga	1	1407	6	1	antiphase_hc_iso.wav	2	6	6	noise_calib_stim_RIGHT.wav	2	16	blb_dichoticlistening_ga-ka.mp3	ga	ka	1	left
6.6.1	win	2023-06-27	20:14:02	0	0	5f0fba550d4c1304aa069f1d	1	1	DL_test	15	DL_test	31			0		ga	1	873	6	1	antiphase_hc_iso.wav	2	6	6	noise_calib_stim_RIGHT.wav	2	15	blb_dichoticlistening_ga-ga.mp3	ga	ga	0	left
6.6.1	win	2023-06-27	20:14:02	0	0	5f0fba550d4c1304aa069f1d	1	1	DL_test	15	DL_test	32			0		pa	1	1133	6	1	antiphase_hc_iso.wav	2	6	6	noise_calib_stim_RIGHT.wav	2	25	blb_dichoticlistening_pa-ba.mp3	pa	ba	1	left
6.6.1	win	2023-06-27	20:14:02	0	0	5f0fba550d4c1304aa069f1d	1	1	DL_test	15	DL_test	33			0		ka	1	1014	6	1	antiphase_hc_iso.wav	2	6	6	noise_calib_stim_RIGHT.wav	2	24	blb_dichoticlistening_ka-ta.mp3	ka	ta	1	left
6.6.1	win	2023-06-27	20:14:02	0	0	5f0fba550d4c1304aa069f1d	1	1	DL_test	15	DL_test	34			0		ba	1	1482	6	1	antiphase_hc_iso.wav	2	6	6	noise_calib_stim_RIGHT.wav	2	5	blb_dichoticlistening_ba-pa.mp3	ba	pa	1	left
6.6.1	win	2023-06-27	20:14:02	0	0	5f0fba550d4c1304aa069f1d	1	1	DL_test	15	DL_test	35			0		ka	1	1271	6	1	antiphase_hc_iso.wav	2	6	6	noise_calib_stim_RIGHT.wav	2	21	blb_dichoticlistening_ka-ga.mp3	ka	ga	1	left
6.6.1	win	2023-06-27	20:14:02	0	0	5f0fba550d4c1304aa069f1d	1	1	DL_test	15	DL_test	36			0		ka	1	1171	6	1	antiphase_hc_iso.wav	2	6	6	noise_calib_stim_RIGHT.wav	2	4	blb_dichoticlistening_ba-ka.mp3	ba	ka	1	right
6.6.1	win	2023-06-27	20:14:02	0	0	5f0fba550d4c1304aa069f1d	1	1	DL_test	16	DL_test	1			0		ga	0	882	6	1	antiphase_hc_iso.wav	2	6	6	noise_calib_stim_RIGHT.wav	2	2	blb_dichoticlistening_ba-da.mp3	ba	da	1	other
6.6.1	win	2023-06-27	20:14:02	0	0	5f0fba550d4c1304aa069f1d	1	1	DL_test	16	DL_test	2			0		ba	1	1258	6	1	antiphase_hc_iso.wav	2	6	6	noise_calib_stim_RIGHT.wav	2	1	blb_dichoticlistening_ba-ba.mp3	ba	ba	0	left
6.6.1	win	2023-06-27	20:14:02	0	0	5f0fba550d4c1304aa069f1d	1	1	DL_test	16	DL_test	3			0		ka	0	1358	6	1	antiphase_hc_iso.wav	2	6	6	noise_calib_stim_RIGHT.wav	2	32	blb_dichoticlistening_ta-da.mp3	ta	da	1	other
6.6.1	win	2023-06-27	20:14:02	0	0	5f0fba550d4c1304aa069f1d	1	1	DL_test	16	DL_test	4			0		ka	1	1080	6	1	antiphase_hc_iso.wav	2	6	6	noise_calib_stim_RIGHT.wav	2	20	blb_dichoticlistening_ka-da.mp3	ka	da	1	left
6.6.1	win	2023-06-27	20:14:02	0	0	5f0fba550d4c1304aa069f1d	1	1	DL_test	16	DL_test	5			0		pa	1	1167	6	1	antiphase_hc_iso.wav	2	6	6	noise_calib_stim_RIGHT.wav	2	27	blb_dichoticlistening_pa-ga.mp3	pa	ga	1	left
6.6.1	win	2023-06-27	20:14:02	0	0	5f0fba550d4c1304aa069f1d	1	1	DL_test	16	DL_test	6			0		pa	0	1739	6	1	antiphase_hc_iso.wav	2	6	6	noise_calib_stim_RIGHT.wav	2	6	blb_dichoticlistening_ba-ta.mp3	ba	ta	1	other
6.6.1	win	2023-06-27	20:14:02	0	0	5f0fba550d4c1304aa069f1d	1	1	DL_test	16	DL_test	7			0		ka	1	1284	6	1	antiphase_hc_iso.wav	2	6	6	noise_calib_stim_RIGHT.wav	2	24	blb_dichoticlistening_ka-ta.mp3	ka	ta	1	left
6.6.1	win	2023-06-27	20:14:02	0	0	5f0fba550d4c1304aa069f1d	1	1	DL_test	16	DL_test	8			0		ka	0	985	6	1	antiphase_hc_iso.wav	2	6	6	noise_calib_stim_RIGHT.wav	2	12	blb_dichoticlistening_da-ta.mp3	da	ta	1	other
6.6.1	win	2023-06-27	20:14:02	0	0	5f0fba550d4c1304aa069f1d	1	1	DL_test	16	DL_test	9			0		ka	1	966	6	1	antiphase_hc_iso.wav	2	6	6	noise_calib_stim_RIGHT.wav	2	34	blb_dichoticlistening_ta-ka.mp3	ta	ka	1	right
6.6.1	win	2023-06-27	20:14:02	0	0	5f0fba550d4c1304aa069f1d	1	1	DL_test	16	DL_test	10			0		ga	1	1310	6	1	antiphase_hc_iso.wav	2	6	6	noise_calib_stim_RIGHT.wav	2	3	blb_dichoticlistening_ba-ga.mp3	ba	ga	1	right
6.6.1	win	2023-06-27	20:14:02	0	0	5f0fba550d4c1304aa069f1d	1	1	DL_test	16	DL_test	11			0		ka	0	1731	6	1	antiphase_hc_iso.wav	2	6	6	noise_calib_stim_RIGHT.wav	2	31	blb_dichoticlistening_ta-ba.mp3	ta	ba	1	other
6.6.1	win	2023-06-27	20:14:02	0	0	5f0fba550d4c1304aa069f1d	1	1	DL_test	16	DL_test	12			0		ga	1	1617	6	1	antiphase_hc_iso.wav	2	6	6	noise_calib_stim_RIGHT.wav	2	17	blb_dichoticlistening_ga-pa.mp3	ga	pa	1	left
6.6.1	win	2023-06-27	20:14:02	0	0	5f0fba550d4c1304aa069f1d	1	1	DL_test	16	DL_test	13			0		ga	1	1272	6	1	antiphase_hc_iso.wav	2	6	6	noise_calib_stim_RIGHT.wav	2	13	blb_dichoticlistening_ga-ba.mp3	ga	ba	1	left
6.6.1	win	2023-06-27	20:14:02	0	0	5f0fba550d4c1304aa069f1d	1	1	DL_test	16	DL_test	14			0		ga	1	888	6	1	antiphase_hc_iso.wav	2	6	6	noise_calib_stim_RIGHT.wav	2	33	blb_dichoticlistening_ta-ga.mp3	ta	ga	1	right
6.6.1	win	2023-06-27	20:14:02	0	0	5f0fba550d4c1304aa069f1d	1	1	DL_test	16	DL_test	15			0		ka	1	1044	6	1	antiphase_hc_iso.wav	2	6	6	noise_calib_stim_RIGHT.wav	2	23	blb_dichoticlistening_ka-pa.mp3	ka	pa	1	left
6.6.1	win	2023-06-27	20:14:02	0	0	5f0fba550d4c1304aa069f1d	1	1	DL_test	16	DL_test	16			0		ga	1	1016	6	1	antiphase_hc_iso.wav	2	6	6	noise_calib_stim_RIGHT.wav	2	18	blb_dichoticlistening_ga-ta.mp3	ga	ta	1	left
6.6.1	win	2023-06-27	20:14:02	0	0	5f0fba550d4c1304aa069f1d	1	1	DL_test	16	DL_test	17			0		ka	1	892	6	1	antiphase_hc_iso.wav	2	6	6	noise_calib_stim_RIGHT.wav	2	22	blb_dichoticlistening_ka-ka.mp3	ka	ka	0	left
6.6.1	win	2023-06-27	20:14:02	0	0	5f0fba550d4c1304aa069f1d	1	1	DL_test	16	DL_test	18			0		pa	1	1027	6	1	antiphase_hc_iso.wav	2	6	6	noise_calib_stim_RIGHT.wav	2	28	blb_dichoticlistening_pa-ka.mp3	pa	ka	1	left
6.6.1	win	2023-06-27	20:14:02	0	0	5f0fba550d4c1304aa069f1d	1	1	DL_test	16	DL_test	19			0		pa	1	1764	6	1	antiphase_hc_iso.wav	2	6	6	noise_calib_stim_RIGHT.wav	2	26	blb_dichoticlistening_pa-da.mp3	pa	da	1	left
6.6.1	win	2023-06-27	20:14:02	0	0	5f0fba550d4c1304aa069f1d	1	1	DL_test	16	DL_test	20			0		ga	1	850	6	1	antiphase_hc_iso.wav	2	6	6	noise_calib_stim_RIGHT.wav	2	15	blb_dichoticlistening_ga-ga.mp3	ga	ga	0	left
6.6.1	win	2023-06-27	20:14:02	0	0	5f0fba550d4c1304aa069f1d	1	1	DL_test	16	DL_test	21			0		ga	1	1177	6	1	antiphase_hc_iso.wav	2	6	6	noise_calib_stim_RIGHT.wav	2	16	blb_dichoticlistening_ga-ka.mp3	ga	ka	1	left
6.6.1	win	2023-06-27	20:14:02	0	0	5f0fba550d4c1304aa069f1d	1	1	DL_test	16	DL_test	22			0		da	1	1001	6	1	antiphase_hc_iso.wav	2	6	6	noise_calib_stim_RIGHT.wav	2	9	blb_dichoticlistening_da-ga.mp3	da	ga	1	left
6.6.1	win	2023-06-27	20:14:02	0	0	5f0fba550d4c1304aa069f1d	1	1	DL_test	16	DL_test	23			0		ta	1	1068	6	1	antiphase_hc_iso.wav	2	6	6	noise_calib_stim_RIGHT.wav	2	36	blb_dichoticlistening_ta-ta.mp3	ta	ta	0	left
6.6.1	win	2023-06-27	20:14:02	0	0	5f0fba550d4c1304aa069f1d	1	1	DL_test	16	DL_test	24			0		ba	1	1015	6	1	antiphase_hc_iso.wav	2	6	6	noise_calib_stim_RIGHT.wav	2	5	blb_dichoticlistening_ba-pa.mp3	ba	pa	1	left
6.6.1	win	2023-06-27	20:14:02	0	0	5f0fba550d4c1304aa069f1d	1	1	DL_test	16	DL_test	25			0		da	1	1627	6	1	antiphase_hc_iso.wav	2	6	6	noise_calib_stim_RIGHT.wav	2	10	blb_dichoticlistening_da-ka.mp3	da	ka	1	left
6.6.1	win	2023-06-27	20:14:02	0	0	5f0fba550d4c1304aa069f1d	1	1	DL_test	16	DL_test	26			0		da	1	1071	6	1	antiphase_hc_iso.wav	2	6	6	noise_calib_stim_RIGHT.wav	2	7	blb_dichoticlistening_da-ba.mp3	da	ba	1	left
6.6.1	win	2023-06-27	20:14:02	0	0	5f0fba550d4c1304aa069f1d	1	1	DL_test	16	DL_test	27			0		ta	1	1202	6	1	antiphase_hc_iso.wav	2	6	6	noise_calib_stim_RIGHT.wav	2	35	blb_dichoticlistening_ta-pa.mp3	ta	pa	1	left
6.6.1	win	2023-06-27	20:14:02	0	0	5f0fba550d4c1304aa069f1d	1	1	DL_test	16	DL_test	28			0		pa	1	1046	6	1	antiphase_hc_iso.wav	2	6	6	noise_calib_stim_RIGHT.wav	2	25	blb_dichoticlistening_pa-ba.mp3	pa	ba	1	left
6.6.1	win	2023-06-27	20:14:02	0	0	5f0fba550d4c1304aa069f1d	1	1	DL_test	16	DL_test	29			0		pa	1	1069	6	1	antiphase_hc_iso.wav	2	6	6	noise_calib_stim_RIGHT.wav	2	29	blb_dichoticlistening_pa-pa.mp3	pa	pa	0	left
6.6.1	win	2023-06-27	20:14:02	0	0	5f0fba550d4c1304aa069f1d	1	1	DL_test	16	DL_test	30			0		ka	1	1663	6	1	antiphase_hc_iso.wav	2	6	6	noise_calib_stim_RIGHT.wav	2	19	blb_dichoticlistening_ka-ba.mp3	ka	ba	1	left
6.6.1	win	2023-06-27	20:14:02	0	0	5f0fba550d4c1304aa069f1d	1	1	DL_test	16	DL_test	31			0		da	1	1067	6	1	antiphase_hc_iso.wav	2	6	6	noise_calib_stim_RIGHT.wav	2	14	blb_dichoticlistening_ga-da.mp3	ga	da	1	right
6.6.1	win	2023-06-27	20:14:02	0	0	5f0fba550d4c1304aa069f1d	1	1	DL_test	16	DL_test	32			0		ka	1	1063	6	1	antiphase_hc_iso.wav	2	6	6	noise_calib_stim_RIGHT.wav	2	21	blb_dichoticlistening_ka-ga.mp3	ka	ga	1	left
6.6.1	win	2023-06-27	20:14:02	0	0	5f0fba550d4c1304aa069f1d	1	1	DL_test	16	DL_test	33			0		da	1	1075	6	1	antiphase_hc_iso.wav	2	6	6	noise_calib_stim_RIGHT.wav	2	11	blb_dichoticlistening_da-pa.mp3	da	pa	1	left
6.6.1	win	2023-06-27	20:14:02	0	0	5f0fba550d4c1304aa069f1d	1	1	DL_test	16	DL_test	34			0		da	1	1770	6	1	antiphase_hc_iso.wav	2	6	6	noise_calib_stim_RIGHT.wav	2	8	blb_dichoticlistening_da-da.mp3	da	da	0	left
6.6.1	win	2023-06-27	20:14:02	0	0	5f0fba550d4c1304aa069f1d	1	1	DL_test	16	DL_test	35			0		ka	1	1975	6	1	antiphase_hc_iso.wav	2	6	6	noise_calib_stim_RIGHT.wav	2	4	blb_dichoticlistening_ba-ka.mp3	ba	ka	1	right
6.6.1	win	2023-06-27	20:14:02	0	0	5f0fba550d4c1304aa069f1d	1	1	DL_test	16	DL_test	36			0		pa	1	1042	6	1	antiphase_hc_iso.wav	2	6	6	noise_calib_stim_RIGHT.wav	2	30	blb_dichoticlistening_pa-ta.mp3	pa	ta	1	left
6.6.1	win	2023-06-27	20:14:02	20:25:41	693562	5f0fba550d4c1304aa069f1d	1	1	practice_slash	22	practice_slash	1	stimuli_distractor_diamondtriangles.svg	stimuli_target_diamondrectangles.svg	8	yes	0	0	2003	6	1	antiphase_hc_iso.wav	2	6	6	noise_calib_stim_RIGHT.wav	2	30	blb_dichoticlistening_pa-ta.mp3	pa	ta	1	left
6.6.1	win	2023-06-27	20:14:02	20:25:41	693562	5f0fba550d4c1304aa069f1d	1	1	practice_slash	22	advance_on_keypress_SLASH	2	stimuli_distractor_diamondtriangles.svg	stimuli_target_diamondrectangles.svg	8	yes	57	0	1313	6	1	antiphase_hc_iso.wav	2	6	6	noise_calib_stim_RIGHT.wav	2	30	blb_dichoticlistening_pa-ta.mp3	pa	ta	1	left
6.6.1	win	2023-06-27	20:14:02	20:25:44	697213	5f0fba550d4c1304aa069f1d	1	1	practice_slash	22	practice_slash	3	stimuli_distractor_trianglediamonds.svg	stimuli_target_rectanglediamonds.svg	10	yes	53	1	689	6	1	antiphase_hc_iso.wav	2	6	6	noise_calib_stim_RIGHT.wav	2	30	blb_dichoticlistening_pa-ta.mp3	pa	ta	1	left
6.6.1	win	2023-06-27	20:14:02	20:25:44	697213	5f0fba550d4c1304aa069f1d	1	1	practice_slash	22	advance_on_keypress_SLASH	4	stimuli_distractor_trianglediamonds.svg	stimuli_target_rectanglediamonds.svg	10	yes	57	0	1556	6	1	antiphase_hc_iso.wav	2	6	6	noise_calib_stim_RIGHT.wav	2	30	blb_dichoticlistening_pa-ta.mp3	pa	ta	1	left
6.6.1	win	2023-06-27	20:14:02	20:25:48	700886	5f0fba550d4c1304aa069f1d	1	1	practice_slash	22	practice_slash	5	stimuli_target_squarediamonds.svg	stimuli_distractor_trianglediamonds.svg	5	yes	53	1	473	6	1	antiphase_hc_iso.wav	2	6	6	noise_calib_stim_RIGHT.wav	2	30	blb_dichoticlistening_pa-ta.mp3	pa	ta	1	left
6.6.1	win	2023-06-27	20:14:02	20:25:48	700886	5f0fba550d4c1304aa069f1d	1	1	practice_slash	22	advance_on_keypress_SLASH	6	stimuli_target_squarediamonds.svg	stimuli_distractor_trianglediamonds.svg	5	yes	57	0	814	6	1	antiphase_hc_iso.wav	2	6	6	noise_calib_stim_RIGHT.wav	2	30	blb_dichoticlistening_pa-ta.mp3	pa	ta	1	left
6.6.1	win	2023-06-27	20:14:02	20:25:53	705346	5f0fba550d4c1304aa069f1d	1	1	practice_slash	22	practice_slash	7	stimuli_distractor_trianglediamonds.svg	stimuli_distractor_trianglediamonds.svg	15	no	0	1	2003	6	1	antiphase_hc_iso.wav	2	6	6	noise_calib_stim_RIGHT.wav	2	30	blb_dichoticlistening_pa-ta.mp3	pa	ta	1	left
6.6.1	win	2023-06-27	20:14:02	20:25:53	705346	5f0fba550d4c1304aa069f1d	1	1	practice_slash	22	advance_on_keypress_SLASH	8	stimuli_distractor_trianglediamonds.svg	stimuli_distractor_trianglediamonds.svg	15	no	57	0	639	6	1	antiphase_hc_iso.wav	2	6	6	noise_calib_stim_RIGHT.wav	2	30	blb_dichoticlistening_pa-ta.mp3	pa	ta	1	left
6.6.1	win	2023-06-27	20:14:02	20:25:57	709638	5f0fba550d4c1304aa069f1d	1	1	practice_slash	22	practice_slash	9	stimuli_distractor_trianglediamonds.svg	stimuli_distractor_diamondtriangles.svg	16	no	0	1	2003	6	1	antiphase_hc_iso.wav	2	6	6	noise_calib_stim_RIGHT.wav	2	30	blb_dichoticlistening_pa-ta.mp3	pa	ta	1	left
6.6.1	win	2023-06-27	20:14:02	20:25:57	709638	5f0fba550d4c1304aa069f1d	1	1	practice_slash	22	advance_on_keypress_SLASH	10	stimuli_distractor_trianglediamonds.svg	stimuli_distractor_diamondtriangles.svg	16	no	57	0	638	6	1	antiphase_hc_iso.wav	2	6	6	noise_calib_stim_RIGHT.wav	2	30	blb_dichoticlistening_pa-ta.mp3	pa	ta	1	left
6.6.1	win	2023-06-27	20:14:02	20:26:00	712603	5f0fba550d4c1304aa069f1d	1	1	practice_slash	22	practice_slash	11	stimuli_distractor_trianglediamonds.svg	stimuli_target_squarediamonds.svg	11	yes	53	1	684	6	1	antiphase_hc_iso.wav	2	6	6	noise_calib_stim_RIGHT.wav	2	30	blb_dichoticlistening_pa-ta.mp3	pa	ta	1	left
6.6.1	win	2023-06-27	20:14:02	20:26:00	712603	5f0fba550d4c1304aa069f1d	1	1	practice_slash	22	advance_on_keypress_SLASH	12	stimuli_distractor_trianglediamonds.svg	stimuli_target_squarediamonds.svg	11	yes	57	0	580	6	1	antiphase_hc_iso.wav	2	6	6	noise_calib_stim_RIGHT.wav	2	30	blb_dichoticlistening_pa-ta.mp3	pa	ta	1	left
6.6.1	win	2023-06-27	20:14:02	20:26:03	715703	5f0fba550d4c1304aa069f1d	1	1	practice_slash	22	practice_slash	13	stimuli_target_rectanglediamonds.svg	stimuli_distractor_trianglediamonds.svg	4	yes	53	1	882	6	1	antiphase_hc_iso.wav	2	6	6	noise_calib_stim_RIGHT.wav	2	30	blb_dichoticlistening_pa-ta.mp3	pa	ta	1	left
6.6.1	win	2023-06-27	20:14:02	20:26:03	715703	5f0fba550d4c1304aa069f1d	1	1	practice_slash	22	advance_on_keypress_SLASH	14	stimuli_target_rectanglediamonds.svg	stimuli_distractor_trianglediamonds.svg	4	yes	57	0	717	6	1	antiphase_hc_iso.wav	2	6	6	noise_calib_stim_RIGHT.wav	2	30	blb_dichoticlistening_pa-ta.mp3	pa	ta	1	left
6.6.1	win	2023-06-27	20:14:02	20:26:06	718780	5f0fba550d4c1304aa069f1d	1	1	practice_slash	22	practice_slash	15	stimuli_distractor_diamondtriangles.svg	stimuli_target_rectangletriangles.svg	7	yes	53	1	723	6	1	antiphase_hc_iso.wav	2	6	6	noise_calib_stim_RIGHT.wav	2	30	blb_dichoticlistening_pa-ta.mp3	pa	ta	1	left
6.6.1	win	2023-06-27	20:14:02	20:26:06	718780	5f0fba550d4c1304aa069f1d	1	1	practice_slash	22	advance_on_keypress_SLASH	16	stimuli_distractor_diamondtriangles.svg	stimuli_target_rectangletriangles.svg	7	yes	57	0	664	6	1	antiphase_hc_iso.wav	2	6	6	noise_calib_stim_RIGHT.wav	2	30	blb_dichoticlistening_pa-ta.mp3	pa	ta	1	left
6.6.1	win	2023-06-27	20:14:02	20:26:09	722163	5f0fba550d4c1304aa069f1d	1	1	practice_slash	22	practice_slash	17	stimuli_target_diamondsquares.svg	stimuli_distractor_trianglediamonds.svg	6	yes	53	1	1070	6	1	antiphase_hc_iso.wav	2	6	6	noise_calib_stim_RIGHT.wav	2	30	blb_dichoticlistening_pa-ta.mp3	pa	ta	1	left
6.6.1	win	2023-06-27	20:14:02	20:26:09	722163	5f0fba550d4c1304aa069f1d	1	1	practice_slash	22	advance_on_keypress_SLASH	18	stimuli_target_diamondsquares.svg	stimuli_distractor_trianglediamonds.svg	6	yes	57	0	538	6	1	antiphase_hc_iso.wav	2	6	6	noise_calib_stim_RIGHT.wav	2	30	blb_dichoticlistening_pa-ta.mp3	pa	ta	1	left
6.6.1	win	2023-06-27	20:14:02	20:26:14	726359	5f0fba550d4c1304aa069f1d	1	1	practice_slash	22	practice_slash	19	stimuli_distractor_diamondtriangles.svg	stimuli_distractor_diamondtriangles.svg	13	no	0	1	2003	6	1	antiphase_hc_iso.wav	2	6	6	noise_calib_stim_RIGHT.wav	2	30	blb_dichoticlistening_pa-ta.mp3	pa	ta	1	left
6.6.1	win	2023-06-27	20:14:02	20:26:14	726359	5f0fba550d4c1304aa069f1d	1	1	practice_slash	22	advance_on_keypress_SLASH	20	stimuli_distractor_diamondtriangles.svg	stimuli_distractor_diamondtriangles.svg	13	no	57	0	734	6	1	antiphase_hc_iso.wav	2	6	6	noise_calib_stim_RIGHT.wav	2	30	blb_dichoticlistening_pa-ta.mp3	pa	ta	1	left
6.6.1	win	2023-06-27	20:14:02	20:26:18	730748	5f0fba550d4c1304aa069f1d	1	1	practice_slash	22	practice_slash	21	stimuli_distractor_diamondtriangles.svg	stimuli_distractor_trianglediamonds.svg	14	no	0	1	2003	6	1	antiphase_hc_iso.wav	2	6	6	noise_calib_stim_RIGHT.wav	2	30	blb_dichoticlistening_pa-ta.mp3	pa	ta	1	left
6.6.1	win	2023-06-27	20:14:02	20:26:18	730748	5f0fba550d4c1304aa069f1d	1	1	practice_slash	22	advance_on_keypress_SLASH	22	stimuli_distractor_diamondtriangles.svg	stimuli_distractor_trianglediamonds.svg	14	no	57	0	528	6	1	antiphase_hc_iso.wav	2	6	6	noise_calib_stim_RIGHT.wav	2	30	blb_dichoticlistening_pa-ta.mp3	pa	ta	1	left
6.6.1	win	2023-06-27	20:14:02	20:26:21	733744	5f0fba550d4c1304aa069f1d	1	1	practice_slash	22	practice_slash	23	stimuli_target_diamondsquares.svg	stimuli_distractor_diamondtriangles.svg	3	yes	53	1	819	6	1	antiphase_hc_iso.wav	2	6	6	noise_calib_stim_RIGHT.wav	2	30	blb_dichoticlistening_pa-ta.mp3	pa	ta	1	left
6.6.1	win	2023-06-27	20:14:02	20:26:21	733744	5f0fba550d4c1304aa069f1d	1	1	practice_slash	22	advance_on_keypress_SLASH	24	stimuli_target_diamondsquares.svg	stimuli_distractor_diamondtriangles.svg	3	yes	57	0	569	6	1	antiphase_hc_iso.wav	2	6	6	noise_calib_stim_RIGHT.wav	2	30	blb_dichoticlistening_pa-ta.mp3	pa	ta	1	left
6.6.1	win	2023-06-27	20:14:02	20:26:24	736424	5f0fba550d4c1304aa069f1d	1	1	practice_slash	22	practice_slash	25	stimuli_target_squarediamonds.svg	stimuli_distractor_diamondtriangles.svg	2	yes	53	1	470	6	1	antiphase_hc_iso.wav	2	6	6	noise_calib_stim_RIGHT.wav	2	30	blb_dichoticlistening_pa-ta.mp3	pa	ta	1	left
6.6.1	win	2023-06-27	20:14:02	20:26:24	736424	5f0fba550d4c1304aa069f1d	1	1	practice_slash	22	advance_on_keypress_SLASH	26	stimuli_target_squarediamonds.svg	stimuli_distractor_diamondtriangles.svg	2	yes	57	0	570	6	1	antiphase_hc_iso.wav	2	6	6	noise_calib_stim_RIGHT.wav	2	30	blb_dichoticlistening_pa-ta.mp3	pa	ta	1	left
6.6.1	win	2023-06-27	20:14:02	20:26:28	740644	5f0fba550d4c1304aa069f1d	1	1	practice_slash	22	practice_slash	27	stimuli_target_rectanglediamonds.svg	stimuli_distractor_diamondtriangles.svg	1	yes	0	0	2003	6	1	antiphase_hc_iso.wav	2	6	6	noise_calib_stim_RIGHT.wav	2	30	blb_dichoticlistening_pa-ta.mp3	pa	ta	1	left
6.6.1	win	2023-06-27	20:14:02	20:26:28	740644	5f0fba550d4c1304aa069f1d	1	1	practice_slash	22	advance_on_keypress_SLASH	28	stimuli_target_rectanglediamonds.svg	stimuli_distractor_diamondtriangles.svg	1	yes	57	0	860	6	1	antiphase_hc_iso.wav	2	6	6	noise_calib_stim_RIGHT.wav	2	30	blb_dichoticlistening_pa-ta.mp3	pa	ta	1	left
6.6.1	win	2023-06-27	20:14:02	20:26:31	743831	5f0fba550d4c1304aa069f1d	1	1	practice_slash	22	practice_slash	29	stimuli_distractor_trianglediamonds.svg	stimuli_target_diamondrectangles.svg	12	yes	53	1	677	6	1	antiphase_hc_iso.wav	2	6	6	noise_calib_stim_RIGHT.wav	2	30	blb_dichoticlistening_pa-ta.mp3	pa	ta	1	left
6.6.1	win	2023-06-27	20:14:02	20:26:31	743831	5f0fba550d4c1304aa069f1d	1	1	practice_slash	22	advance_on_keypress_SLASH	30	stimuli_distractor_trianglediamonds.svg	stimuli_target_diamondrectangles.svg	12	yes	57	0	483	6	1	antiphase_hc_iso.wav	2	6	6	noise_calib_stim_RIGHT.wav	2	30	blb_dichoticlistening_pa-ta.mp3	pa	ta	1	left
6.6.1	win	2023-06-27	20:14:02	20:26:34	747160	5f0fba550d4c1304aa069f1d	1	1	practice_slash	22	practice_slash	31	stimuli_distractor_diamondtriangles.svg	stimuli_target_trianglerectangles.svg	9	yes	53	1	1200	6	1	antiphase_hc_iso.wav	2	6	6	noise_calib_stim_RIGHT.wav	2	30	blb_dichoticlistening_pa-ta.mp3	pa	ta	1	left
6.6.1	win	2023-06-27	20:14:02	20:26:34	747160	5f0fba550d4c1304aa069f1d	1	1	practice_slash	22	advance_on_keypress_SLASH	32	stimuli_distractor_diamondtriangles.svg	stimuli_target_trianglerectangles.svg	9	yes	57	0	639	6	1	antiphase_hc_iso.wav	2	6	6	noise_calib_stim_RIGHT.wav	2	30	blb_dichoticlistening_pa-ta.mp3	pa	ta	1	left
6.6.1	win	2023-06-27	20:14:02	20:26:40	752894	5f0fba550d4c1304aa069f1d	1	1	main_slash	24	main_slash	1	stimuli_distractor_trianglediamonds.svg	stimuli_target_trianglesquares.svg	26	yes	53	1	548	6	1	antiphase_hc_iso.wav	2	6	6	noise_calib_stim_RIGHT.wav	2	30	blb_dichoticlistening_pa-ta.mp3	pa	ta	1	left
6.6.1	win	2023-06-27	20:14:02	20:26:40	752894	5f0fba550d4c1304aa069f1d	1	1	main_slash	24	advance_on_keypress_SLASH	2	stimuli_distractor_trianglediamonds.svg	stimuli_target_trianglesquares.svg	26	yes	57	0	2196	6	1	antiphase_hc_iso.wav	2	6	6	noise_calib_stim_RIGHT.wav	2	30	blb_dichoticlistening_pa-ta.mp3	pa	ta	1	left
6.6.1	win	2023-06-27	20:14:02	20:26:45	757582	5f0fba550d4c1304aa069f1d	1	1	main_slash	24	main_slash	3	stimuli_target_rectanglediamonds.svg	stimuli_distractor_trianglediamonds.svg	2	yes	53	1	1853	6	1	antiphase_hc_iso.wav	2	6	6	noise_calib_stim_RIGHT.wav	2	30	blb_dichoticlistening_pa-ta.mp3	pa	ta	1	left
6.6.1	win	2023-06-27	20:14:02	20:26:45	757582	5f0fba550d4c1304aa069f1d	1	1	main_slash	24	advance_on_keypress_SLASH	4	stimuli_target_rectanglediamonds.svg	stimuli_distractor_trianglediamonds.svg	2	yes	57	0	1011	6	1	antiphase_hc_iso.wav	2	6	6	noise_calib_stim_RIGHT.wav	2	30	blb_dichoticlistening_pa-ta.mp3	pa	ta	1	left
6.6.1	win	2023-06-27	20:14:02	20:26:48	761239	5f0fba550d4c1304aa069f1d	1	1	main_slash	24	main_slash	5	stimuli_distractor_diamondtriangles.svg	stimuli_distractor_diamondtriangles.svg	39	no	0	1	2003	6	1	antiphase_hc_iso.wav	2	6	6	noise_calib_stim_RIGHT.wav	2	30	blb_dichoticlistening_pa-ta.mp3	pa	ta	1	left
6.6.1	win	2023-06-27	20:14:02	20:26:48	761239	5f0fba550d4c1304aa069f1d	1	1	main_slash	24	advance_on_keypress_SLASH	6	stimuli_distractor_diamondtriangles.svg	stimuli_distractor_diamondtriangles.svg	39	no	57	0	3787	6	1	antiphase_hc_iso.wav	2	6	6	noise_calib_stim_RIGHT.wav	2	30	blb_dichoticlistening_pa-ta.mp3	pa	ta	1	left
6.6.1	win	2023-06-27	20:14:02	20:26:53	766300	5f0fba550d4c1304aa069f1d	1	1	main_slash	24	main_slash	7	stimuli_distractor_diamondtriangles.svg	stimuli_target_trianglesquares.svg	30	yes	53	1	627	6	1	antiphase_hc_iso.wav	2	6	6	noise_calib_stim_RIGHT.wav	2	30	blb_dichoticlistening_pa-ta.mp3	pa	ta	1	left
6.6.1	win	2023-06-27	20:14:02	20:26:53	766300	5f0fba550d4c1304aa069f1d	1	1	main_slash	24	advance_on_keypress_SLASH	8	stimuli_distractor_diamondtriangles.svg	stimuli_target_trianglesquares.svg	30	yes	57	0	922	6	1	antiphase_hc_iso.wav	2	6	6	noise_calib_stim_RIGHT.wav	2	30	blb_dichoticlistening_pa-ta.mp3	pa	ta	1	left
6.6.1	win	2023-06-27	20:14:02	20:26:57	769884	5f0fba550d4c1304aa069f1d	1	1	main_slash	24	main_slash	9	stimuli_distractor_diamondtriangles.svg	stimuli_distractor_trianglediamonds.svg	37	no	0	1	2003	6	1	antiphase_hc_iso.wav	2	6	6	noise_calib_stim_RIGHT.wav	2	30	blb_dichoticlistening_pa-ta.mp3	pa	ta	1	left
6.6.1	win	2023-06-27	20:14:02	20:26:57	769884	5f0fba550d4c1304aa069f1d	1	1	main_slash	24	advance_on_keypress_SLASH	10	stimuli_distractor_diamondtriangles.svg	stimuli_distractor_trianglediamonds.svg	37	no	57	0	1032	6	1	antiphase_hc_iso.wav	2	6	6	noise_calib_stim_RIGHT.wav	2	30	blb_dichoticlistening_pa-ta.mp3	pa	ta	1	left
6.6.1	win	2023-06-27	20:14:02	20:27:00	772937	5f0fba550d4c1304aa069f1d	1	1	main_slash	24	main_slash	11	stimuli_target_rectanglediamonds.svg	stimuli_distractor_diamondtriangles.svg	6	yes	53	1	1375	6	1	antiphase_hc_iso.wav	2	6	6	noise_calib_stim_RIGHT.wav	2	30	blb_dichoticlistening_pa-ta.mp3	pa	ta	1	left
6.6.1	win	2023-06-27	20:14:02	20:27:00	772937	5f0fba550d4c1304aa069f1d	1	1	main_slash	24	advance_on_keypress_SLASH	12	stimuli_target_rectanglediamonds.svg	stimuli_distractor_diamondtriangles.svg	6	yes	57	0	1923	6	1	antiphase_hc_iso.wav	2	6	6	noise_calib_stim_RIGHT.wav	2	30	blb_dichoticlistening_pa-ta.mp3	pa	ta	1	left
6.6.1	win	2023-06-27	20:14:02	20:27:04	776438	5f0fba550d4c1304aa069f1d	1	1	main_slash	24	main_slash	13	stimuli_distractor_trianglediamonds.svg	stimuli_target_diamondsquares.svg	28	yes	53	1	939	6	1	antiphase_hc_iso.wav	2	6	6	noise_calib_stim_RIGHT.wav	2	30	blb_dichoticlistening_pa-ta.mp3	pa	ta	1	left
6.6.1	win	2023-06-27	20:14:02	20:27:04	776438	5f0fba550d4c1304aa069f1d	1	1	main_slash	24	advance_on_keypress_SLASH	14	stimuli_distractor_trianglediamonds.svg	stimuli_target_diamondsquares.svg	28	yes	57	0	790	6	1	antiphase_hc_iso.wav	2	6	6	noise_calib_stim_RIGHT.wav	2	30	blb_dichoticlistening_pa-ta.mp3	pa	ta	1	left
6.6.1	win	2023-06-27	20:14:02	20:27:06	778815	5f0fba550d4c1304aa069f1d	1	1	main_slash	24	main_slash	15	stimuli_distractor_diamondtriangles.svg	stimuli_target_rectangletriangles.svg	13	yes	53	1	941	6	1	antiphase_hc_iso.wav	2	6	6	noise_calib_stim_RIGHT.wav	2	30	blb_dichoticlistening_pa-ta.mp3	pa	ta	1	left
6.6.1	win	2023-06-27	20:14:02	20:27:06	778815	5f0fba550d4c1304aa069f1d	1	1	main_slash	24	advance_on_keypress_SLASH	16	stimuli_distractor_diamondtriangles.svg	stimuli_target_rectangletriangles.svg	13	yes	57	0	958	6	1	antiphase_hc_iso.wav	2	6	6	noise_calib_stim_RIGHT.wav	2	30	blb_dichoticlistening_pa-ta.mp3	pa	ta	1	left
6.6.1	win	2023-06-27	20:14:02	20:27:08	781174	5f0fba550d4c1304aa069f1d	1	1	main_slash	24	main_slash	17	stimuli_target_diamondrectangles.svg	stimuli_distractor_trianglediamonds.svg	19	yes	53	1	751	6	1	antiphase_hc_iso.wav	2	6	6	noise_calib_stim_RIGHT.wav	2	30	blb_dichoticlistening_pa-ta.mp3	pa	ta	1	left
6.6.1	win	2023-06-27	20:14:02	20:27:08	781174	5f0fba550d4c1304aa069f1d	1	1	main_slash	24	advance_on_keypress_SLASH	18	stimuli_target_diamondrectangles.svg	stimuli_distractor_trianglediamonds.svg	19	yes	57	0	848	6	1	antiphase_hc_iso.wav	2	6	6	noise_calib_stim_RIGHT.wav	2	30	blb_dichoticlistening_pa-ta.mp3	pa	ta	1	left
6.6.1	win	2023-06-27	20:14:02	20:27:11	783463	5f0fba550d4c1304aa069f1d	1	1	main_slash	24	main_slash	19	stimuli_distractor_diamondtriangles.svg	stimuli_target_trianglerectangles.svg	29	yes	53	1	797	6	1	antiphase_hc_iso.wav	2	6	6	noise_calib_stim_RIGHT.wav	2	30	blb_dichoticlistening_pa-ta.mp3	pa	ta	1	left
6.6.1	win	2023-06-27	20:14:02	20:27:11	783463	5f0fba550d4c1304aa069f1d	1	1	main_slash	24	advance_on_keypress_SLASH	20	stimuli_distractor_diamondtriangles.svg	stimuli_target_trianglerectangles.svg	29	yes	57	0	760	6	1	antiphase_hc_iso.wav	2	6	6	noise_calib_stim_RIGHT.wav	2	30	blb_dichoticlistening_pa-ta.mp3	pa	ta	1	left
6.6.1	win	2023-06-27	20:14:02	20:27:14	786560	5f0fba550d4c1304aa069f1d	1	1	main_slash	24	main_slash	21	stimuli_target_squaretriangles.svg	stimuli_distractor_trianglediamonds.svg	3	yes	53	1	1700	6	1	antiphase_hc_iso.wav	2	6	6	noise_calib_stim_RIGHT.wav	2	30	blb_dichoticlistening_pa-ta.mp3	pa	ta	1	left
6.6.1	win	2023-06-27	20:14:02	20:27:14	786560	5f0fba550d4c1304aa069f1d	1	1	main_slash	24	advance_on_keypress_SLASH	22	stimuli_target_squaretriangles.svg	stimuli_distractor_trianglediamonds.svg	3	yes	57	0	847	6	1	antiphase_hc_iso.wav	2	6	6	noise_calib_stim_RIGHT.wav	2	30	blb_dichoticlistening_pa-ta.mp3	pa	ta	1	left
6.6.1	win	2023-06-27	20:14:02	20:27:16	788647	5f0fba550d4c1304aa069f1d	1	1	main_slash	24	main_slash	23	stimuli_target_trianglesquares.svg	stimuli_distractor_diamondtriangles.svg	22	yes	53	1	599	6	1	antiphase_hc_iso.wav	2	6	6	noise_calib_stim_RIGHT.wav	2	30	blb_dichoticlistening_pa-ta.mp3	pa	ta	1	left
6.6.1	win	2023-06-27	20:14:02	20:27:16	788647	5f0fba550d4c1304aa069f1d	1	1	main_slash	24	advance_on_keypress_SLASH	24	stimuli_target_trianglesquares.svg	stimuli_distractor_diamondtriangles.svg	22	yes	57	0	1152	6	1	antiphase_hc_iso.wav	2	6	6	noise_calib_stim_RIGHT.wav	2	30	blb_dichoticlistening_pa-ta.mp3	pa	ta	1	left
6.6.1	win	2023-06-27	20:14:02	20:27:20	792433	5f0fba550d4c1304aa069f1d	1	1	main_slash	24	main_slash	25	stimuli_distractor_diamondtriangles.svg	stimuli_target_squaretriangles.svg	15	yes	0	0	2003	6	1	antiphase_hc_iso.wav	2	6	6	noise_calib_stim_RIGHT.wav	2	30	blb_dichoticlistening_pa-ta.mp3	pa	ta	1	left
6.6.1	win	2023-06-27	20:14:02	20:27:20	792433	5f0fba550d4c1304aa069f1d	1	1	main_slash	24	advance_on_keypress_SLASH	26	stimuli_distractor_diamondtriangles.svg	stimuli_target_squaretriangles.svg	15	yes	57	0	666	6	1	antiphase_hc_iso.wav	2	6	6	noise_calib_stim_RIGHT.wav	2	30	blb_dichoticlistening_pa-ta.mp3	pa	ta	1	left
6.6.1	win	2023-06-27	20:14:02	20:27:22	794641	5f0fba550d4c1304aa069f1d	1	1	main_slash	24	main_slash	27	stimuli_distractor_trianglediamonds.svg	stimuli_target_squarediamonds.svg	12	yes	53	1	899	6	1	antiphase_hc_iso.wav	2	6	6	noise_calib_stim_RIGHT.wav	2	30	blb_dichoticlistening_pa-ta.mp3	pa	ta	1	left
6.6.1	win	2023-06-27	20:14:02	20:27:22	794641	5f0fba550d4c1304aa069f1d	1	1	main_slash	24	advance_on_keypress_SLASH	28	stimuli_distractor_trianglediamonds.svg	stimuli_target_squarediamonds.svg	12	yes	57	0	1407	6	1	antiphase_hc_iso.wav	2	6	6	noise_calib_stim_RIGHT.wav	2	30	blb_dichoticlistening_pa-ta.mp3	pa	ta	1	left
6.6.1	win	2023-06-27	20:14:02	20:27:25	797641	5f0fba550d4c1304aa069f1d	1	1	main_slash	24	main_slash	29	stimuli_target_trianglerectangles.svg	stimuli_distractor_diamondtriangles.svg	21	yes	53	1	948	6	1	antiphase_hc_iso.wav	2	6	6	noise_calib_stim_RIGHT.wav	2	30	blb_dichoticlistening_pa-ta.mp3	pa	ta	1	left
6.6.1	win	2023-06-27	20:14:02	20:27:25	797641	5f0fba550d4c1304aa069f1d	1	1	main_slash	24	advance_on_keypress_SLASH	30	stimuli_target_trianglerectangles.svg	stimuli_distractor_diamondtriangles.svg	21	yes	57	0	1122	6	1	antiphase_hc_iso.wav	2	6	6	noise_calib_stim_RIGHT.wav	2	30	blb_dichoticlistening_pa-ta.mp3	pa	ta	1	left
6.6.1	win	2023-06-27	20:14:02	20:27:27	800182	5f0fba550d4c1304aa069f1d	1	1	main_slash	24	main_slash	31	stimuli_target_diamondsquares.svg	stimuli_distractor_diamondtriangles.svg	24	yes	53	1	774	6	1	antiphase_hc_iso.wav	2	6	6	noise_calib_stim_RIGHT.wav	2	30	blb_dichoticlistening_pa-ta.mp3	pa	ta	1	left
6.6.1	win	2023-06-27	20:14:02	20:27:27	800182	5f0fba550d4c1304aa069f1d	1	1	main_slash	24	advance_on_keypress_SLASH	32	stimuli_target_diamondsquares.svg	stimuli_distractor_diamondtriangles.svg	24	yes	57	0	862	6	1	antiphase_hc_iso.wav	2	6	6	noise_calib_stim_RIGHT.wav	2	30	blb_dichoticlistening_pa-ta.mp3	pa	ta	1	left
6.6.1	win	2023-06-27	20:14:02	20:27:30	802426	5f0fba550d4c1304aa069f1d	1	1	main_slash	24	main_slash	33	stimuli_target_squaretriangles.svg	stimuli_distractor_diamondtriangles.svg	7	yes	53	1	733	6	1	antiphase_hc_iso.wav	2	6	6	noise_calib_stim_RIGHT.wav	2	30	blb_dichoticlistening_pa-ta.mp3	pa	ta	1	left
6.6.1	win	2023-06-27	20:14:02	20:27:30	802426	5f0fba550d4c1304aa069f1d	1	1	main_slash	24	advance_on_keypress_SLASH	34	stimuli_target_squaretriangles.svg	stimuli_distractor_diamondtriangles.svg	7	yes	57	0	834	6	1	antiphase_hc_iso.wav	2	6	6	noise_calib_stim_RIGHT.wav	2	30	blb_dichoticlistening_pa-ta.mp3	pa	ta	1	left
6.6.1	win	2023-06-27	20:14:02	20:27:32	804798	5f0fba550d4c1304aa069f1d	1	1	main_slash	24	main_slash	35	stimuli_target_squarediamonds.svg	stimuli_distractor_trianglediamonds.svg	4	yes	53	1	897	6	1	antiphase_hc_iso.wav	2	6	6	noise_calib_stim_RIGHT.wav	2	30	blb_dichoticlistening_pa-ta.mp3	pa	ta	1	left
6.6.1	win	2023-06-27	20:14:02	20:27:32	804798	5f0fba550d4c1304aa069f1d	1	1	main_slash	24	advance_on_keypress_SLASH	36	stimuli_target_squarediamonds.svg	stimuli_distractor_trianglediamonds.svg	4	yes	57	0	783	6	1	antiphase_hc_iso.wav	2	6	6	noise_calib_stim_RIGHT.wav	2	30	blb_dichoticlistening_pa-ta.mp3	pa	ta	1	left
6.6.1	win	2023-06-27	20:14:02	20:27:34	807056	5f0fba550d4c1304aa069f1d	1	1	main_slash	24	main_slash	37	stimuli_distractor_trianglediamonds.svg	stimuli_distractor_trianglediamonds.svg	33	no	53	0	842	6	1	antiphase_hc_iso.wav	2	6	6	noise_calib_stim_RIGHT.wav	2	30	blb_dichoticlistening_pa-ta.mp3	pa	ta	1	left
6.6.1	win	2023-06-27	20:14:02	20:27:34	807056	5f0fba550d4c1304aa069f1d	1	1	main_slash	24	advance_on_keypress_SLASH	38	stimuli_distractor_trianglediamonds.svg	stimuli_distractor_trianglediamonds.svg	33	no	57	0	604	6	1	antiphase_hc_iso.wav	2	6	6	noise_calib_stim_RIGHT.wav	2	30	blb_dichoticlistening_pa-ta.mp3	pa	ta	1	left
6.6.1	win	2023-06-27	20:14:02	20:27:36	808853	5f0fba550d4c1304aa069f1d	1	1	main_slash	24	main_slash	39	stimuli_target_diamondsquares.svg	stimuli_distractor_trianglediamonds.svg	20	yes	53	1	550	6	1	antiphase_hc_iso.wav	2	6	6	noise_calib_stim_RIGHT.wav	2	30	blb_dichoticlistening_pa-ta.mp3	pa	ta	1	left
6.6.1	win	2023-06-27	20:14:02	20:27:36	808853	5f0fba550d4c1304aa069f1d	1	1	main_slash	24	advance_on_keypress_SLASH	40	stimuli_target_diamondsquares.svg	stimuli_distractor_trianglediamonds.svg	20	yes	57	0	739	6	1	antiphase_hc_iso.wav	2	6	6	noise_calib_stim_RIGHT.wav	2	30	blb_dichoticlistening_pa-ta.mp3	pa	ta	1	left
6.6.1	win	2023-06-27	20:14:02	20:27:38	810829	5f0fba550d4c1304aa069f1d	1	1	main_slash	24	main_slash	41	stimuli_distractor_trianglediamonds.svg	stimuli_target_squaretriangles.svg	11	yes	53	1	601	6	1	antiphase_hc_iso.wav	2	6	6	noise_calib_stim_RIGHT.wav	2	30	blb_dichoticlistening_pa-ta.mp3	pa	ta	1	left
6.6.1	win	2023-06-27	20:14:02	20:27:38	810829	5f0fba550d4c1304aa069f1d	1	1	main_slash	24	advance_on_keypress_SLASH	42	stimuli_distractor_trianglediamonds.svg	stimuli_target_squaretriangles.svg	11	yes	57	0	636	6	1	antiphase_hc_iso.wav	2	6	6	noise_calib_stim_RIGHT.wav	2	30	blb_dichoticlistening_pa-ta.mp3	pa	ta	1	left
6.6.1	win	2023-06-27	20:14:02	20:27:40	812852	5f0fba550d4c1304aa069f1d	1	1	main_slash	24	main_slash	43	stimuli_distractor_diamondtriangles.svg	stimuli_target_diamondsquares.svg	32	yes	53	1	749	6	1	antiphase_hc_iso.wav	2	6	6	noise_calib_stim_RIGHT.wav	2	30	blb_dichoticlistening_pa-ta.mp3	pa	ta	1	left
6.6.1	win	2023-06-27	20:14:02	20:27:40	812852	5f0fba550d4c1304aa069f1d	1	1	main_slash	24	advance_on_keypress_SLASH	44	stimuli_distractor_diamondtriangles.svg	stimuli_target_diamondsquares.svg	32	yes	57	0	655	6	1	antiphase_hc_iso.wav	2	6	6	noise_calib_stim_RIGHT.wav	2	30	blb_dichoticlistening_pa-ta.mp3	pa	ta	1	left
6.6.1	win	2023-06-27	20:14:02	20:27:42	815315	5f0fba550d4c1304aa069f1d	1	1	main_slash	24	main_slash	45	stimuli_target_rectangletriangles.svg	stimuli_distractor_trianglediamonds.svg	1	yes	53	1	1157	6	1	antiphase_hc_iso.wav	2	6	6	noise_calib_stim_RIGHT.wav	2	30	blb_dichoticlistening_pa-ta.mp3	pa	ta	1	left
6.6.1	win	2023-06-27	20:14:02	20:27:42	815315	5f0fba550d4c1304aa069f1d	1	1	main_slash	24	advance_on_keypress_SLASH	46	stimuli_target_rectangletriangles.svg	stimuli_distractor_trianglediamonds.svg	1	yes	57	0	659	6	1	antiphase_hc_iso.wav	2	6	6	noise_calib_stim_RIGHT.wav	2	30	blb_dichoticlistening_pa-ta.mp3	pa	ta	1	left
6.6.1	win	2023-06-27	20:14:02	20:27:45	817618	5f0fba550d4c1304aa069f1d	1	1	main_slash	24	main_slash	47	stimuli_distractor_diamondtriangles.svg	stimuli_target_diamondrectangles.svg	31	yes	53	1	1009	6	1	antiphase_hc_iso.wav	2	6	6	noise_calib_stim_RIGHT.wav	2	30	blb_dichoticlistening_pa-ta.mp3	pa	ta	1	left
6.6.1	win	2023-06-27	20:14:02	20:27:45	817618	5f0fba550d4c1304aa069f1d	1	1	main_slash	24	advance_on_keypress_SLASH	48	stimuli_distractor_diamondtriangles.svg	stimuli_target_diamondrectangles.svg	31	yes	57	0	795	6	1	antiphase_hc_iso.wav	2	6	6	noise_calib_stim_RIGHT.wav	2	30	blb_dichoticlistening_pa-ta.mp3	pa	ta	1	left
6.6.1	win	2023-06-27	20:14:02	20:27:48	821064	5f0fba550d4c1304aa069f1d	1	1	main_slash	24	main_slash	49	stimuli_distractor_diamondtriangles.svg	stimuli_distractor_diamondtriangles.svg	40	no	0	1	2003	6	1	antiphase_hc_iso.wav	2	6	6	noise_calib_stim_RIGHT.wav	2	30	blb_dichoticlistening_pa-ta.mp3	pa	ta	1	left
6.6.1	win	2023-06-27	20:14:02	20:27:48	821064	5f0fba550d4c1304aa069f1d	1	1	main_slash	24	advance_on_keypress_SLASH	50	stimuli_distractor_diamondtriangles.svg	stimuli_distractor_diamondtriangles.svg	40	no	57	0	607	6	1	antiphase_hc_iso.wav	2	6	6	noise_calib_stim_RIGHT.wav	2	30	blb_dichoticlistening_pa-ta.mp3	pa	ta	1	left
6.6.1	win	2023-06-27	20:14:02	20:27:50	822873	5f0fba550d4c1304aa069f1d	1	1	main_slash	24	main_slash	51	stimuli_target_trianglesquares.svg	stimuli_distractor_trianglediamonds.svg	18	yes	53	1	555	6	1	antiphase_hc_iso.wav	2	6	6	noise_calib_stim_RIGHT.wav	2	30	blb_dichoticlistening_pa-ta.mp3	pa	ta	1	left
6.6.1	win	2023-06-27	20:14:02	20:27:50	822873	5f0fba550d4c1304aa069f1d	1	1	main_slash	24	advance_on_keypress_SLASH	52	stimuli_target_trianglesquares.svg	stimuli_distractor_trianglediamonds.svg	18	yes	57	0	776	6	1	antiphase_hc_iso.wav	2	6	6	noise_calib_stim_RIGHT.wav	2	30	blb_dichoticlistening_pa-ta.mp3	pa	ta	1	left
6.6.1	win	2023-06-27	20:14:02	20:27:53	826286	5f0fba550d4c1304aa069f1d	1	1	main_slash	24	main_slash	53	stimuli_distractor_trianglediamonds.svg	stimuli_distractor_diamondtriangles.svg	36	no	0	1	2003	6	1	antiphase_hc_iso.wav	2	6	6	noise_calib_stim_RIGHT.wav	2	30	blb_dichoticlistening_pa-ta.mp3	pa	ta	1	left
6.6.1	win	2023-06-27	20:14:02	20:27:53	826286	5f0fba550d4c1304aa069f1d	1	1	main_slash	24	advance_on_keypress_SLASH	54	stimuli_distractor_trianglediamonds.svg	stimuli_distractor_diamondtriangles.svg	36	no	57	0	678	6	1	antiphase_hc_iso.wav	2	6	6	noise_calib_stim_RIGHT.wav	2	30	blb_dichoticlistening_pa-ta.mp3	pa	ta	1	left
6.6.1	win	2023-06-27	20:14:02	20:27:56	829271	5f0fba550d4c1304aa069f1d	1	1	main_slash	24	main_slash	55	stimuli_distractor_diamondtriangles.svg	stimuli_target_squarediamonds.svg	16	yes	53	1	1669	6	1	antiphase_hc_iso.wav	2	6	6	noise_calib_stim_RIGHT.wav	2	30	blb_dichoticlistening_pa-ta.mp3	pa	ta	1	left
6.6.1	win	2023-06-27	20:14:02	20:27:56	829271	5f0fba550d4c1304aa069f1d	1	1	main_slash	24	advance_on_keypress_SLASH	56	stimuli_distractor_diamondtriangles.svg	stimuli_target_squarediamonds.svg	16	yes	57	0	659	6	1	antiphase_hc_iso.wav	2	6	6	noise_calib_stim_RIGHT.wav	2	30	blb_dichoticlistening_pa-ta.mp3	pa	ta	1	left
6.6.1	win	2023-06-27	20:14:02	20:27:59	831826	5f0fba550d4c1304aa069f1d	1	1	main_slash	24	main_slash	57	stimuli_distractor_diamondtriangles.svg	stimuli_distractor_trianglediamonds.svg	38	no	53	0	1259	6	1	antiphase_hc_iso.wav	2	6	6	noise_calib_stim_RIGHT.wav	2	30	blb_dichoticlistening_pa-ta.mp3	pa	ta	1	left
6.6.1	win	2023-06-27	20:14:02	20:27:59	831826	5f0fba550d4c1304aa069f1d	1	1	main_slash	24	advance_on_keypress_SLASH	58	stimuli_distractor_diamondtriangles.svg	stimuli_distractor_trianglediamonds.svg	38	no	57	0	492	6	1	antiphase_hc_iso.wav	2	6	6	noise_calib_stim_RIGHT.wav	2	30	blb_dichoticlistening_pa-ta.mp3	pa	ta	1	left
6.6.1	win	2023-06-27	20:14:02	20:28:01	833968	5f0fba550d4c1304aa069f1d	1	1	main_slash	24	main_slash	59	stimuli_target_squarediamonds.svg	stimuli_distractor_diamondtriangles.svg	8	yes	53	1	1005	6	1	antiphase_hc_iso.wav	2	6	6	noise_calib_stim_RIGHT.wav	2	30	blb_dichoticlistening_pa-ta.mp3	pa	ta	1	left
6.6.1	win	2023-06-27	20:14:02	20:28:01	833968	5f0fba550d4c1304aa069f1d	1	1	main_slash	24	advance_on_keypress_SLASH	60	stimuli_target_squarediamonds.svg	stimuli_distractor_diamondtriangles.svg	8	yes	57	0	634	6	1	antiphase_hc_iso.wav	2	6	6	noise_calib_stim_RIGHT.wav	2	30	blb_dichoticlistening_pa-ta.mp3	pa	ta	1	left
6.6.1	win	2023-06-27	20:14:02	20:28:04	837258	5f0fba550d4c1304aa069f1d	1	1	main_slash	24	main_slash	61	stimuli_distractor_trianglediamonds.svg	stimuli_target_diamondrectangles.svg	27	yes	0	0	2003	6	1	antiphase_hc_iso.wav	2	6	6	noise_calib_stim_RIGHT.wav	2	30	blb_dichoticlistening_pa-ta.mp3	pa	ta	1	left
6.6.1	win	2023-06-27	20:14:02	20:28:04	837258	5f0fba550d4c1304aa069f1d	1	1	main_slash	24	advance_on_keypress_SLASH	62	stimuli_distractor_trianglediamonds.svg	stimuli_target_diamondrectangles.svg	27	yes	57	0	1142	6	1	antiphase_hc_iso.wav	2	6	6	noise_calib_stim_RIGHT.wav	2	30	blb_dichoticlistening_pa-ta.mp3	pa	ta	1	left
6.6.1	win	2023-06-27	20:14:02	20:28:08	841056	5f0fba550d4c1304aa069f1d	1	1	main_slash	24	main_slash	63	stimuli_distractor_trianglediamonds.svg	stimuli_target_rectanglediamonds.svg	10	yes	0	0	2003	6	1	antiphase_hc_iso.wav	2	6	6	noise_calib_stim_RIGHT.wav	2	30	blb_dichoticlistening_pa-ta.mp3	pa	ta	1	left
6.6.1	win	2023-06-27	20:14:02	20:28:08	841056	5f0fba550d4c1304aa069f1d	1	1	main_slash	24	advance_on_keypress_SLASH	64	stimuli_distractor_trianglediamonds.svg	stimuli_target_rectanglediamonds.svg	10	yes	57	0	761	6	1	antiphase_hc_iso.wav	2	6	6	noise_calib_stim_RIGHT.wav	2	30	blb_dichoticlistening_pa-ta.mp3	pa	ta	1	left
6.6.1	win	2023-06-27	20:14:02	20:28:12	844466	5f0fba550d4c1304aa069f1d	1	1	main_slash	24	main_slash	65	stimuli_distractor_trianglediamonds.svg	stimuli_target_rectangletriangles.svg	9	yes	0	0	2003	6	1	antiphase_hc_iso.wav	2	6	6	noise_calib_stim_RIGHT.wav	2	30	blb_dichoticlistening_pa-ta.mp3	pa	ta	1	left
6.6.1	win	2023-06-27	20:14:02	20:28:12	844466	5f0fba550d4c1304aa069f1d	1	1	main_slash	24	advance_on_keypress_SLASH	66	stimuli_distractor_trianglediamonds.svg	stimuli_target_rectangletriangles.svg	9	yes	57	0	1015	6	1	antiphase_hc_iso.wav	2	6	6	noise_calib_stim_RIGHT.wav	2	30	blb_dichoticlistening_pa-ta.mp3	pa	ta	1	left
6.6.1	win	2023-06-27	20:14:02	20:28:14	846926	5f0fba550d4c1304aa069f1d	1	1	main_slash	24	main_slash	67	stimuli_distractor_diamondtriangles.svg	stimuli_target_rectanglediamonds.svg	14	yes	53	1	796	6	1	antiphase_hc_iso.wav	2	6	6	noise_calib_stim_RIGHT.wav	2	30	blb_dichoticlistening_pa-ta.mp3	pa	ta	1	left
6.6.1	win	2023-06-27	20:14:02	20:28:14	846926	5f0fba550d4c1304aa069f1d	1	1	main_slash	24	advance_on_keypress_SLASH	68	stimuli_distractor_diamondtriangles.svg	stimuli_target_rectanglediamonds.svg	14	yes	57	0	713	6	1	antiphase_hc_iso.wav	2	6	6	noise_calib_stim_RIGHT.wav	2	30	blb_dichoticlistening_pa-ta.mp3	pa	ta	1	left
6.6.1	win	2023-06-27	20:14:02	20:28:16	849170	5f0fba550d4c1304aa069f1d	1	1	main_slash	24	main_slash	69	stimuli_target_diamondrectangles.svg	stimuli_distractor_diamondtriangles.svg	23	yes	53	1	902	6	1	antiphase_hc_iso.wav	2	6	6	noise_calib_stim_RIGHT.wav	2	30	blb_dichoticlistening_pa-ta.mp3	pa	ta	1	left
6.6.1	win	2023-06-27	20:14:02	20:28:16	849170	5f0fba550d4c1304aa069f1d	1	1	main_slash	24	advance_on_keypress_SLASH	70	stimuli_target_diamondrectangles.svg	stimuli_distractor_diamondtriangles.svg	23	yes	57	0	589	6	1	antiphase_hc_iso.wav	2	6	6	noise_calib_stim_RIGHT.wav	2	30	blb_dichoticlistening_pa-ta.mp3	pa	ta	1	left
6.6.1	win	2023-06-27	20:14:02	20:28:19	851882	5f0fba550d4c1304aa069f1d	1	1	main_slash	24	main_slash	71	stimuli_distractor_trianglediamonds.svg	stimuli_distractor_trianglediamonds.svg	34	no	53	0	1489	6	1	antiphase_hc_iso.wav	2	6	6	noise_calib_stim_RIGHT.wav	2	30	blb_dichoticlistening_pa-ta.mp3	pa	ta	1	left
6.6.1	win	2023-06-27	20:14:02	20:28:19	851882	5f0fba550d4c1304aa069f1d	1	1	main_slash	24	advance_on_keypress_SLASH	72	stimuli_distractor_trianglediamonds.svg	stimuli_distractor_trianglediamonds.svg	34	no	57	0	472	6	1	antiphase_hc_iso.wav	2	6	6	noise_calib_stim_RIGHT.wav	2	30	blb_dichoticlistening_pa-ta.mp3	pa	ta	1	left
6.6.1	win	2023-06-27	20:14:02	20:28:22	854359	5f0fba550d4c1304aa069f1d	1	1	main_slash	24	main_slash	73	stimuli_distractor_trianglediamonds.svg	stimuli_distractor_diamondtriangles.svg	35	no	53	0	1362	6	1	antiphase_hc_iso.wav	2	6	6	noise_calib_stim_RIGHT.wav	2	30	blb_dichoticlistening_pa-ta.mp3	pa	ta	1	left
6.6.1	win	2023-06-27	20:14:02	20:28:22	854359	5f0fba550d4c1304aa069f1d	1	1	main_slash	24	advance_on_keypress_SLASH	74	stimuli_distractor_trianglediamonds.svg	stimuli_distractor_diamondtriangles.svg	35	no	57	0	538	6	1	antiphase_hc_iso.wav	2	6	6	noise_calib_stim_RIGHT.wav	2	30	blb_dichoticlistening_pa-ta.mp3	pa	ta	1	left
6.6.1	win	2023-06-27	20:14:02	20:28:24	856335	5f0fba550d4c1304aa069f1d	1	1	main_slash	24	main_slash	75	stimuli_target_trianglerectangles.svg	stimuli_distractor_trianglediamonds.svg	17	yes	53	1	789	6	1	antiphase_hc_iso.wav	2	6	6	noise_calib_stim_RIGHT.wav	2	30	blb_dichoticlistening_pa-ta.mp3	pa	ta	1	left
6.6.1	win	2023-06-27	20:14:02	20:28:24	856335	5f0fba550d4c1304aa069f1d	1	1	main_slash	24	advance_on_keypress_SLASH	76	stimuli_target_trianglerectangles.svg	stimuli_distractor_trianglediamonds.svg	17	yes	57	0	673	6	1	antiphase_hc_iso.wav	2	6	6	noise_calib_stim_RIGHT.wav	2	30	blb_dichoticlistening_pa-ta.mp3	pa	ta	1	left
6.6.1	win	2023-06-27	20:14:02	20:28:26	858482	5f0fba550d4c1304aa069f1d	1	1	main_slash	24	main_slash	77	stimuli_target_rectangletriangles.svg	stimuli_distractor_diamondtriangles.svg	5	yes	53	1	825	6	1	antiphase_hc_iso.wav	2	6	6	noise_calib_stim_RIGHT.wav	2	30	blb_dichoticlistening_pa-ta.mp3	pa	ta	1	left
6.6.1	win	2023-06-27	20:14:02	20:28:26	858482	5f0fba550d4c1304aa069f1d	1	1	main_slash	24	advance_on_keypress_SLASH	78	stimuli_target_rectangletriangles.svg	stimuli_distractor_diamondtriangles.svg	5	yes	57	0	597	6	1	antiphase_hc_iso.wav	2	6	6	noise_calib_stim_RIGHT.wav	2	30	blb_dichoticlistening_pa-ta.mp3	pa	ta	1	left
6.6.1	win	2023-06-27	20:14:02	20:28:28	860844	5f0fba550d4c1304aa069f1d	1	1	main_slash	24	main_slash	79	stimuli_distractor_trianglediamonds.svg	stimuli_target_trianglerectangles.svg	25	yes	53	1	1123	6	1	antiphase_hc_iso.wav	2	6	6	noise_calib_stim_RIGHT.wav	2	30	blb_dichoticlistening_pa-ta.mp3	pa	ta	1	left
6.6.1	win	2023-06-27	20:14:02	20:28:28	860844	5f0fba550d4c1304aa069f1d	1	1	main_slash	24	advance_on_keypress_SLASH	80	stimuli_distractor_trianglediamonds.svg	stimuli_target_trianglerectangles.svg	25	yes	57	0	542	6	1	antiphase_hc_iso.wav	2	6	6	noise_calib_stim_RIGHT.wav	2	30	blb_dichoticlistening_pa-ta.mp3	pa	ta	1	left
6.6.1	win	2023-06-27	20:14:02	20:28:30	863106	5f0fba550d4c1304aa069f1d	1	1	main_slash	24	main_slash	81	stimuli_distractor_diamondtriangles.svg	stimuli_target_trianglerectangles.svg	29	yes	53	1	1081	6	1	antiphase_hc_iso.wav	2	6	6	noise_calib_stim_RIGHT.wav	2	30	blb_dichoticlistening_pa-ta.mp3	pa	ta	1	left
6.6.1	win	2023-06-27	20:14:02	20:28:30	863106	5f0fba550d4c1304aa069f1d	1	1	main_slash	24	advance_on_keypress_SLASH	82	stimuli_distractor_diamondtriangles.svg	stimuli_target_trianglerectangles.svg	29	yes	57	0	559	6	1	antiphase_hc_iso.wav	2	6	6	noise_calib_stim_RIGHT.wav	2	30	blb_dichoticlistening_pa-ta.mp3	pa	ta	1	left
6.6.1	win	2023-06-27	20:14:02	20:28:33	866320	5f0fba550d4c1304aa069f1d	1	1	main_slash	24	main_slash	83	stimuli_distractor_trianglediamonds.svg	stimuli_distractor_diamondtriangles.svg	36	no	0	1	2003	6	1	antiphase_hc_iso.wav	2	6	6	noise_calib_stim_RIGHT.wav	2	30	blb_dichoticlistening_pa-ta.mp3	pa	ta	1	left
6.6.1	win	2023-06-27	20:14:02	20:28:33	866320	5f0fba550d4c1304aa069f1d	1	1	main_slash	24	advance_on_keypress_SLASH	84	stimuli_distractor_trianglediamonds.svg	stimuli_distractor_diamondtriangles.svg	36	no	57	0	694	6	1	antiphase_hc_iso.wav	2	6	6	noise_calib_stim_RIGHT.wav	2	30	blb_dichoticlistening_pa-ta.mp3	pa	ta	1	left
6.6.1	win	2023-06-27	20:14:02	20:28:36	869128	5f0fba550d4c1304aa069f1d	1	1	main_slash	24	main_slash	85	stimuli_distractor_trianglediamonds.svg	stimuli_distractor_diamondtriangles.svg	35	no	53	0	1471	6	1	antiphase_hc_iso.wav	2	6	6	noise_calib_stim_RIGHT.wav	2	30	blb_dichoticlistening_pa-ta.mp3	pa	ta	1	left
6.6.1	win	2023-06-27	20:14:02	20:28:36	869128	5f0fba550d4c1304aa069f1d	1	1	main_slash	24	advance_on_keypress_SLASH	86	stimuli_distractor_trianglediamonds.svg	stimuli_distractor_diamondtriangles.svg	35	no	57	0	507	6	1	antiphase_hc_iso.wav	2	6	6	noise_calib_stim_RIGHT.wav	2	30	blb_dichoticlistening_pa-ta.mp3	pa	ta	1	left
6.6.1	win	2023-06-27	20:14:02	20:28:38	870931	5f0fba550d4c1304aa069f1d	1	1	main_slash	24	main_slash	87	stimuli_distractor_trianglediamonds.svg	stimuli_target_diamondsquares.svg	28	yes	53	1	649	6	1	antiphase_hc_iso.wav	2	6	6	noise_calib_stim_RIGHT.wav	2	30	blb_dichoticlistening_pa-ta.mp3	pa	ta	1	left
6.6.1	win	2023-06-27	20:14:02	20:28:38	870931	5f0fba550d4c1304aa069f1d	1	1	main_slash	24	advance_on_keypress_SLASH	88	stimuli_distractor_trianglediamonds.svg	stimuli_target_diamondsquares.svg	28	yes	57	0	635	6	1	antiphase_hc_iso.wav	2	6	6	noise_calib_stim_RIGHT.wav	2	30	blb_dichoticlistening_pa-ta.mp3	pa	ta	1	left
6.6.1	win	2023-06-27	20:14:02	20:28:40	872631	5f0fba550d4c1304aa069f1d	1	1	main_slash	24	main_slash	89	stimuli_target_rectangletriangles.svg	stimuli_distractor_trianglediamonds.svg	1	yes	53	1	419	6	1	antiphase_hc_iso.wav	2	6	6	noise_calib_stim_RIGHT.wav	2	30	blb_dichoticlistening_pa-ta.mp3	pa	ta	1	left
6.6.1	win	2023-06-27	20:14:02	20:28:40	872631	5f0fba550d4c1304aa069f1d	1	1	main_slash	24	advance_on_keypress_SLASH	90	stimuli_target_rectangletriangles.svg	stimuli_distractor_trianglediamonds.svg	1	yes	57	0	636	6	1	antiphase_hc_iso.wav	2	6	6	noise_calib_stim_RIGHT.wav	2	30	blb_dichoticlistening_pa-ta.mp3	pa	ta	1	left
6.6.1	win	2023-06-27	20:14:02	20:28:42	874361	5f0fba550d4c1304aa069f1d	1	1	main_slash	24	main_slash	91	stimuli_target_rectangletriangles.svg	stimuli_distractor_diamondtriangles.svg	5	yes	53	1	461	6	1	antiphase_hc_iso.wav	2	6	6	noise_calib_stim_RIGHT.wav	2	30	blb_dichoticlistening_pa-ta.mp3	pa	ta	1	left
6.6.1	win	2023-06-27	20:14:02	20:28:42	874361	5f0fba550d4c1304aa069f1d	1	1	main_slash	24	advance_on_keypress_SLASH	92	stimuli_target_rectangletriangles.svg	stimuli_distractor_diamondtriangles.svg	5	yes	57	0	737	6	1	antiphase_hc_iso.wav	2	6	6	noise_calib_stim_RIGHT.wav	2	30	blb_dichoticlistening_pa-ta.mp3	pa	ta	1	left
6.6.1	win	2023-06-27	20:14:02	20:28:43	876277	5f0fba550d4c1304aa069f1d	1	1	main_slash	24	main_slash	93	stimuli_target_diamondrectangles.svg	stimuli_distractor_diamondtriangles.svg	23	yes	53	1	545	6	1	antiphase_hc_iso.wav	2	6	6	noise_calib_stim_RIGHT.wav	2	30	blb_dichoticlistening_pa-ta.mp3	pa	ta	1	left
6.6.1	win	2023-06-27	20:14:02	20:28:43	876277	5f0fba550d4c1304aa069f1d	1	1	main_slash	24	advance_on_keypress_SLASH	94	stimuli_target_diamondrectangles.svg	stimuli_distractor_diamondtriangles.svg	23	yes	57	0	630	6	1	antiphase_hc_iso.wav	2	6	6	noise_calib_stim_RIGHT.wav	2	30	blb_dichoticlistening_pa-ta.mp3	pa	ta	1	left
6.6.1	win	2023-06-27	20:14:02	20:28:45	878155	5f0fba550d4c1304aa069f1d	1	1	main_slash	24	main_slash	95	stimuli_distractor_trianglediamonds.svg	stimuli_target_rectangletriangles.svg	9	yes	53	1	616	6	1	antiphase_hc_iso.wav	2	6	6	noise_calib_stim_RIGHT.wav	2	30	blb_dichoticlistening_pa-ta.mp3	pa	ta	1	left
6.6.1	win	2023-06-27	20:14:02	20:28:45	878155	5f0fba550d4c1304aa069f1d	1	1	main_slash	24	advance_on_keypress_SLASH	96	stimuli_distractor_trianglediamonds.svg	stimuli_target_rectangletriangles.svg	9	yes	57	0	732	6	1	antiphase_hc_iso.wav	2	6	6	noise_calib_stim_RIGHT.wav	2	30	blb_dichoticlistening_pa-ta.mp3	pa	ta	1	left
6.6.1	win	2023-06-27	20:14:02	20:28:49	881541	5f0fba550d4c1304aa069f1d	1	1	main_slash	24	main_slash	97	stimuli_distractor_diamondtriangles.svg	stimuli_distractor_diamondtriangles.svg	40	no	0	1	2003	6	1	antiphase_hc_iso.wav	2	6	6	noise_calib_stim_RIGHT.wav	2	30	blb_dichoticlistening_pa-ta.mp3	pa	ta	1	left
6.6.1	win	2023-06-27	20:14:02	20:28:49	881541	5f0fba550d4c1304aa069f1d	1	1	main_slash	24	advance_on_keypress_SLASH	98	stimuli_distractor_diamondtriangles.svg	stimuli_distractor_diamondtriangles.svg	40	no	57	0	444	6	1	antiphase_hc_iso.wav	2	6	6	noise_calib_stim_RIGHT.wav	2	30	blb_dichoticlistening_pa-ta.mp3	pa	ta	1	left
6.6.1	win	2023-06-27	20:14:02	20:28:50	883231	5f0fba550d4c1304aa069f1d	1	1	main_slash	24	main_slash	99	stimuli_distractor_trianglediamonds.svg	stimuli_target_trianglesquares.svg	26	yes	53	1	602	6	1	antiphase_hc_iso.wav	2	6	6	noise_calib_stim_RIGHT.wav	2	30	blb_dichoticlistening_pa-ta.mp3	pa	ta	1	left
6.6.1	win	2023-06-27	20:14:02	20:28:50	883231	5f0fba550d4c1304aa069f1d	1	1	main_slash	24	advance_on_keypress_SLASH	100	stimuli_distractor_trianglediamonds.svg	stimuli_target_trianglesquares.svg	26	yes	57	0	1565	6	1	antiphase_hc_iso.wav	2	6	6	noise_calib_stim_RIGHT.wav	2	30	blb_dichoticlistening_pa-ta.mp3	pa	ta	1	left
6.6.1	win	2023-06-27	20:14:02	20:28:54	886368	5f0fba550d4c1304aa069f1d	1	1	main_slash	24	main_slash	101	stimuli_distractor_diamondtriangles.svg	stimuli_target_rectanglediamonds.svg	14	yes	53	1	935	6	1	antiphase_hc_iso.wav	2	6	6	noise_calib_stim_RIGHT.wav	2	30	blb_dichoticlistening_pa-ta.mp3	pa	ta	1	left
6.6.1	win	2023-06-27	20:14:02	20:28:54	886368	5f0fba550d4c1304aa069f1d	1	1	main_slash	24	advance_on_keypress_SLASH	102	stimuli_distractor_diamondtriangles.svg	stimuli_target_rectanglediamonds.svg	14	yes	57	0	846	6	1	antiphase_hc_iso.wav	2	6	6	noise_calib_stim_RIGHT.wav	2	30	blb_dichoticlistening_pa-ta.mp3	pa	ta	1	left
6.6.1	win	2023-06-27	20:14:02	20:28:56	888441	5f0fba550d4c1304aa069f1d	1	1	main_slash	24	main_slash	103	stimuli_target_squaretriangles.svg	stimuli_distractor_trianglediamonds.svg	3	yes	53	1	576	6	1	antiphase_hc_iso.wav	2	6	6	noise_calib_stim_RIGHT.wav	2	30	blb_dichoticlistening_pa-ta.mp3	pa	ta	1	left
6.6.1	win	2023-06-27	20:14:02	20:28:56	888441	5f0fba550d4c1304aa069f1d	1	1	main_slash	24	advance_on_keypress_SLASH	104	stimuli_target_squaretriangles.svg	stimuli_distractor_trianglediamonds.svg	3	yes	57	0	414	6	1	antiphase_hc_iso.wav	2	6	6	noise_calib_stim_RIGHT.wav	2	30	blb_dichoticlistening_pa-ta.mp3	pa	ta	1	left
6.6.1	win	2023-06-27	20:14:02	20:28:57	889938	5f0fba550d4c1304aa069f1d	1	1	main_slash	24	main_slash	105	stimuli_target_trianglesquares.svg	stimuli_distractor_trianglediamonds.svg	18	yes	53	1	448	6	1	antiphase_hc_iso.wav	2	6	6	noise_calib_stim_RIGHT.wav	2	30	blb_dichoticlistening_pa-ta.mp3	pa	ta	1	left
6.6.1	win	2023-06-27	20:14:02	20:28:57	889938	5f0fba550d4c1304aa069f1d	1	1	main_slash	24	advance_on_keypress_SLASH	106	stimuli_target_trianglesquares.svg	stimuli_distractor_trianglediamonds.svg	18	yes	57	0	453	6	1	antiphase_hc_iso.wav	2	6	6	noise_calib_stim_RIGHT.wav	2	30	blb_dichoticlistening_pa-ta.mp3	pa	ta	1	left
6.6.1	win	2023-06-27	20:14:02	20:28:59	891541	5f0fba550d4c1304aa069f1d	1	1	main_slash	24	main_slash	107	stimuli_distractor_trianglediamonds.svg	stimuli_target_rectanglediamonds.svg	10	yes	53	1	517	6	1	antiphase_hc_iso.wav	2	6	6	noise_calib_stim_RIGHT.wav	2	30	blb_dichoticlistening_pa-ta.mp3	pa	ta	1	left
6.6.1	win	2023-06-27	20:14:02	20:28:59	891541	5f0fba550d4c1304aa069f1d	1	1	main_slash	24	advance_on_keypress_SLASH	108	stimuli_distractor_trianglediamonds.svg	stimuli_target_rectanglediamonds.svg	10	yes	57	0	438	6	1	antiphase_hc_iso.wav	2	6	6	noise_calib_stim_RIGHT.wav	2	30	blb_dichoticlistening_pa-ta.mp3	pa	ta	1	left
6.6.1	win	2023-06-27	20:14:02	20:29:00	893314	5f0fba550d4c1304aa069f1d	1	1	main_slash	24	main_slash	109	stimuli_distractor_trianglediamonds.svg	stimuli_target_trianglerectangles.svg	25	yes	53	1	686	6	1	antiphase_hc_iso.wav	2	6	6	noise_calib_stim_RIGHT.wav	2	30	blb_dichoticlistening_pa-ta.mp3	pa	ta	1	left
6.6.1	win	2023-06-27	20:14:02	20:29:00	893314	5f0fba550d4c1304aa069f1d	1	1	main_slash	24	advance_on_keypress_SLASH	110	stimuli_distractor_trianglediamonds.svg	stimuli_target_trianglerectangles.svg	25	yes	57	0	328	6	1	antiphase_hc_iso.wav	2	6	6	noise_calib_stim_RIGHT.wav	2	30	blb_dichoticlistening_pa-ta.mp3	pa	ta	1	left
6.6.1	win	2023-06-27	20:14:02	20:29:02	894806	5f0fba550d4c1304aa069f1d	1	1	main_slash	24	main_slash	111	stimuli_target_diamondsquares.svg	stimuli_distractor_diamondtriangles.svg	24	yes	53	1	518	6	1	antiphase_hc_iso.wav	2	6	6	noise_calib_stim_RIGHT.wav	2	30	blb_dichoticlistening_pa-ta.mp3	pa	ta	1	left
6.6.1	win	2023-06-27	20:14:02	20:29:02	894806	5f0fba550d4c1304aa069f1d	1	1	main_slash	24	advance_on_keypress_SLASH	112	stimuli_target_diamondsquares.svg	stimuli_distractor_diamondtriangles.svg	24	yes	57	0	452	6	1	antiphase_hc_iso.wav	2	6	6	noise_calib_stim_RIGHT.wav	2	30	blb_dichoticlistening_pa-ta.mp3	pa	ta	1	left
6.6.1	win	2023-06-27	20:14:02	20:29:03	896313	5f0fba550d4c1304aa069f1d	1	1	main_slash	24	main_slash	113	stimuli_target_diamondsquares.svg	stimuli_distractor_trianglediamonds.svg	20	yes	53	1	413	6	1	antiphase_hc_iso.wav	2	6	6	noise_calib_stim_RIGHT.wav	2	30	blb_dichoticlistening_pa-ta.mp3	pa	ta	1	left
6.6.1	win	2023-06-27	20:14:02	20:29:03	896313	5f0fba550d4c1304aa069f1d	1	1	main_slash	24	advance_on_keypress_SLASH	114	stimuli_target_diamondsquares.svg	stimuli_distractor_trianglediamonds.svg	20	yes	57	0	449	6	1	antiphase_hc_iso.wav	2	6	6	noise_calib_stim_RIGHT.wav	2	30	blb_dichoticlistening_pa-ta.mp3	pa	ta	1	left
6.6.1	win	2023-06-27	20:14:02	20:29:05	897875	5f0fba550d4c1304aa069f1d	1	1	main_slash	24	main_slash	115	stimuli_target_diamondrectangles.svg	stimuli_distractor_trianglediamonds.svg	19	yes	53	1	476	6	1	antiphase_hc_iso.wav	2	6	6	noise_calib_stim_RIGHT.wav	2	30	blb_dichoticlistening_pa-ta.mp3	pa	ta	1	left
6.6.1	win	2023-06-27	20:14:02	20:29:05	897875	5f0fba550d4c1304aa069f1d	1	1	main_slash	24	advance_on_keypress_SLASH	116	stimuli_target_diamondrectangles.svg	stimuli_distractor_trianglediamonds.svg	19	yes	57	0	398	6	1	antiphase_hc_iso.wav	2	6	6	noise_calib_stim_RIGHT.wav	2	30	blb_dichoticlistening_pa-ta.mp3	pa	ta	1	left
6.6.1	win	2023-06-27	20:14:02	20:29:07	899336	5f0fba550d4c1304aa069f1d	1	1	main_slash	24	main_slash	117	stimuli_target_squarediamonds.svg	stimuli_distractor_diamondtriangles.svg	8	yes	53	1	430	6	1	antiphase_hc_iso.wav	2	6	6	noise_calib_stim_RIGHT.wav	2	30	blb_dichoticlistening_pa-ta.mp3	pa	ta	1	left
6.6.1	win	2023-06-27	20:14:02	20:29:07	899336	5f0fba550d4c1304aa069f1d	1	1	main_slash	24	advance_on_keypress_SLASH	118	stimuli_target_squarediamonds.svg	stimuli_distractor_diamondtriangles.svg	8	yes	57	0	402	6	1	antiphase_hc_iso.wav	2	6	6	noise_calib_stim_RIGHT.wav	2	30	blb_dichoticlistening_pa-ta.mp3	pa	ta	1	left
6.6.1	win	2023-06-27	20:14:02	20:29:08	901051	5f0fba550d4c1304aa069f1d	1	1	main_slash	24	main_slash	119	stimuli_distractor_trianglediamonds.svg	stimuli_distractor_trianglediamonds.svg	33	no	53	0	686	6	1	antiphase_hc_iso.wav	2	6	6	noise_calib_stim_RIGHT.wav	2	30	blb_dichoticlistening_pa-ta.mp3	pa	ta	1	left
6.6.1	win	2023-06-27	20:14:02	20:29:08	901051	5f0fba550d4c1304aa069f1d	1	1	main_slash	24	advance_on_keypress_SLASH	120	stimuli_distractor_trianglediamonds.svg	stimuli_distractor_trianglediamonds.svg	33	no	57	0	463	6	1	antiphase_hc_iso.wav	2	6	6	noise_calib_stim_RIGHT.wav	2	30	blb_dichoticlistening_pa-ta.mp3	pa	ta	1	left
6.6.1	win	2023-06-27	20:14:02	20:29:10	902768	5f0fba550d4c1304aa069f1d	1	1	main_slash	24	main_slash	121	stimuli_distractor_diamondtriangles.svg	stimuli_target_trianglesquares.svg	30	yes	53	1	612	6	1	antiphase_hc_iso.wav	2	6	6	noise_calib_stim_RIGHT.wav	2	30	blb_dichoticlistening_pa-ta.mp3	pa	ta	1	left
6.6.1	win	2023-06-27	20:14:02	20:29:10	902768	5f0fba550d4c1304aa069f1d	1	1	main_slash	24	advance_on_keypress_SLASH	122	stimuli_distractor_diamondtriangles.svg	stimuli_target_trianglesquares.svg	30	yes	57	0	395	6	1	antiphase_hc_iso.wav	2	6	6	noise_calib_stim_RIGHT.wav	2	30	blb_dichoticlistening_pa-ta.mp3	pa	ta	1	left
6.6.1	win	2023-06-27	20:14:02	20:29:12	904596	5f0fba550d4c1304aa069f1d	1	1	main_slash	24	main_slash	123	stimuli_target_trianglerectangles.svg	stimuli_distractor_trianglediamonds.svg	17	yes	53	1	802	6	1	antiphase_hc_iso.wav	2	6	6	noise_calib_stim_RIGHT.wav	2	30	blb_dichoticlistening_pa-ta.mp3	pa	ta	1	left
6.6.1	win	2023-06-27	20:14:02	20:29:12	904596	5f0fba550d4c1304aa069f1d	1	1	main_slash	24	advance_on_keypress_SLASH	124	stimuli_target_trianglerectangles.svg	stimuli_distractor_trianglediamonds.svg	17	yes	57	0	365	6	1	antiphase_hc_iso.wav	2	6	6	noise_calib_stim_RIGHT.wav	2	30	blb_dichoticlistening_pa-ta.mp3	pa	ta	1	left
6.6.1	win	2023-06-27	20:14:02	20:29:13	906115	5f0fba550d4c1304aa069f1d	1	1	main_slash	24	main_slash	125	stimuli_target_squaretriangles.svg	stimuli_distractor_diamondtriangles.svg	7	yes	53	1	509	6	1	antiphase_hc_iso.wav	2	6	6	noise_calib_stim_RIGHT.wav	2	30	blb_dichoticlistening_pa-ta.mp3	pa	ta	1	left
6.6.1	win	2023-06-27	20:14:02	20:29:13	906115	5f0fba550d4c1304aa069f1d	1	1	main_slash	24	advance_on_keypress_SLASH	126	stimuli_target_squaretriangles.svg	stimuli_distractor_diamondtriangles.svg	7	yes	57	0	442	6	1	antiphase_hc_iso.wav	2	6	6	noise_calib_stim_RIGHT.wav	2	30	blb_dichoticlistening_pa-ta.mp3	pa	ta	1	left
6.6.1	win	2023-06-27	20:14:02	20:29:16	909214	5f0fba550d4c1304aa069f1d	1	1	main_slash	24	main_slash	127	stimuli_distractor_diamondtriangles.svg	stimuli_distractor_trianglediamonds.svg	38	no	0	1	2003	6	1	antiphase_hc_iso.wav	2	6	6	noise_calib_stim_RIGHT.wav	2	30	blb_dichoticlistening_pa-ta.mp3	pa	ta	1	left
6.6.1	win	2023-06-27	20:14:02	20:29:16	909214	5f0fba550d4c1304aa069f1d	1	1	main_slash	24	advance_on_keypress_SLASH	128	stimuli_distractor_diamondtriangles.svg	stimuli_distractor_trianglediamonds.svg	38	no	57	0	522	6	1	antiphase_hc_iso.wav	2	6	6	noise_calib_stim_RIGHT.wav	2	30	blb_dichoticlistening_pa-ta.mp3	pa	ta	1	left
6.6.1	win	2023-06-27	20:14:02	20:29:18	910879	5f0fba550d4c1304aa069f1d	1	1	main_slash	24	main_slash	129	stimuli_target_trianglesquares.svg	stimuli_distractor_diamondtriangles.svg	22	yes	53	1	494	6	1	antiphase_hc_iso.wav	2	6	6	noise_calib_stim_RIGHT.wav	2	30	blb_dichoticlistening_pa-ta.mp3	pa	ta	1	left
6.6.1	win	2023-06-27	20:14:02	20:29:18	910879	5f0fba550d4c1304aa069f1d	1	1	main_slash	24	advance_on_keypress_SLASH	130	stimuli_target_trianglesquares.svg	stimuli_distractor_diamondtriangles.svg	22	yes	57	0	368	6	1	antiphase_hc_iso.wav	2	6	6	noise_calib_stim_RIGHT.wav	2	30	blb_dichoticlistening_pa-ta.mp3	pa	ta	1	left
6.6.1	win	2023-06-27	20:14:02	20:29:20	912666	5f0fba550d4c1304aa069f1d	1	1	main_slash	24	main_slash	131	stimuli_distractor_diamondtriangles.svg	stimuli_target_squarediamonds.svg	16	yes	53	1	774	6	1	antiphase_hc_iso.wav	2	6	6	noise_calib_stim_RIGHT.wav	2	30	blb_dichoticlistening_pa-ta.mp3	pa	ta	1	left
6.6.1	win	2023-06-27	20:14:02	20:29:20	912666	5f0fba550d4c1304aa069f1d	1	1	main_slash	24	advance_on_keypress_SLASH	132	stimuli_distractor_diamondtriangles.svg	stimuli_target_squarediamonds.svg	16	yes	57	0	364	6	1	antiphase_hc_iso.wav	2	6	6	noise_calib_stim_RIGHT.wav	2	30	blb_dichoticlistening_pa-ta.mp3	pa	ta	1	left
6.6.1	win	2023-06-27	20:14:02	20:29:23	915687	5f0fba550d4c1304aa069f1d	1	1	main_slash	24	main_slash	133	stimuli_distractor_diamondtriangles.svg	stimuli_distractor_trianglediamonds.svg	37	no	0	1	2003	6	1	antiphase_hc_iso.wav	2	6	6	noise_calib_stim_RIGHT.wav	2	30	blb_dichoticlistening_pa-ta.mp3	pa	ta	1	left
6.6.1	win	2023-06-27	20:14:02	20:29:23	915687	5f0fba550d4c1304aa069f1d	1	1	main_slash	24	advance_on_keypress_SLASH	134	stimuli_distractor_diamondtriangles.svg	stimuli_distractor_trianglediamonds.svg	37	no	57	0	483	6	1	antiphase_hc_iso.wav	2	6	6	noise_calib_stim_RIGHT.wav	2	30	blb_dichoticlistening_pa-ta.mp3	pa	ta	1	left
6.6.1	win	2023-06-27	20:14:02	20:29:25	917727	5f0fba550d4c1304aa069f1d	1	1	main_slash	24	main_slash	135	stimuli_target_squarediamonds.svg	stimuli_distractor_trianglediamonds.svg	4	yes	53	1	905	6	1	antiphase_hc_iso.wav	2	6	6	noise_calib_stim_RIGHT.wav	2	30	blb_dichoticlistening_pa-ta.mp3	pa	ta	1	left
6.6.1	win	2023-06-27	20:14:02	20:29:25	917727	5f0fba550d4c1304aa069f1d	1	1	main_slash	24	advance_on_keypress_SLASH	136	stimuli_target_squarediamonds.svg	stimuli_distractor_trianglediamonds.svg	4	yes	57	0	351	6	1	antiphase_hc_iso.wav	2	6	6	noise_calib_stim_RIGHT.wav	2	30	blb_dichoticlistening_pa-ta.mp3	pa	ta	1	left
6.6.1	win	2023-06-27	20:14:02	20:29:27	919571	5f0fba550d4c1304aa069f1d	1	1	main_slash	24	main_slash	137	stimuli_distractor_diamondtriangles.svg	stimuli_target_diamondrectangles.svg	31	yes	53	1	846	6	1	antiphase_hc_iso.wav	2	6	6	noise_calib_stim_RIGHT.wav	2	30	blb_dichoticlistening_pa-ta.mp3	pa	ta	1	left
6.6.1	win	2023-06-27	20:14:02	20:29:27	919571	5f0fba550d4c1304aa069f1d	1	1	main_slash	24	advance_on_keypress_SLASH	138	stimuli_distractor_diamondtriangles.svg	stimuli_target_diamondrectangles.svg	31	yes	57	0	375	6	1	antiphase_hc_iso.wav	2	6	6	noise_calib_stim_RIGHT.wav	2	30	blb_dichoticlistening_pa-ta.mp3	pa	ta	1	left
6.6.1	win	2023-06-27	20:14:02	20:29:28	921144	5f0fba550d4c1304aa069f1d	1	1	main_slash	24	main_slash	139	stimuli_distractor_trianglediamonds.svg	stimuli_target_diamondrectangles.svg	27	yes	53	1	552	6	1	antiphase_hc_iso.wav	2	6	6	noise_calib_stim_RIGHT.wav	2	30	blb_dichoticlistening_pa-ta.mp3	pa	ta	1	left
6.6.1	win	2023-06-27	20:14:02	20:29:28	921144	5f0fba550d4c1304aa069f1d	1	1	main_slash	24	advance_on_keypress_SLASH	140	stimuli_distractor_trianglediamonds.svg	stimuli_target_diamondrectangles.svg	27	yes	57	0	313	6	1	antiphase_hc_iso.wav	2	6	6	noise_calib_stim_RIGHT.wav	2	30	blb_dichoticlistening_pa-ta.mp3	pa	ta	1	left
6.6.1	win	2023-06-27	20:14:02	20:29:31	924089	5f0fba550d4c1304aa069f1d	1	1	main_slash	24	main_slash	141	stimuli_distractor_diamondtriangles.svg	stimuli_distractor_diamondtriangles.svg	39	no	0	1	2003	6	1	antiphase_hc_iso.wav	2	6	6	noise_calib_stim_RIGHT.wav	2	30	blb_dichoticlistening_pa-ta.mp3	pa	ta	1	left
6.6.1	win	2023-06-27	20:14:02	20:29:31	924089	5f0fba550d4c1304aa069f1d	1	1	main_slash	24	advance_on_keypress_SLASH	142	stimuli_distractor_diamondtriangles.svg	stimuli_distractor_diamondtriangles.svg	39	no	57	0	503	6	1	antiphase_hc_iso.wav	2	6	6	noise_calib_stim_RIGHT.wav	2	30	blb_dichoticlistening_pa-ta.mp3	pa	ta	1	left
6.6.1	win	2023-06-27	20:14:02	20:29:34	926442	5f0fba550d4c1304aa069f1d	1	1	main_slash	24	main_slash	143	stimuli_distractor_diamondtriangles.svg	stimuli_target_squaretriangles.svg	15	yes	53	1	1210	6	1	antiphase_hc_iso.wav	2	6	6	noise_calib_stim_RIGHT.wav	2	30	blb_dichoticlistening_pa-ta.mp3	pa	ta	1	left
6.6.1	win	2023-06-27	20:14:02	20:29:34	926442	5f0fba550d4c1304aa069f1d	1	1	main_slash	24	advance_on_keypress_SLASH	144	stimuli_distractor_diamondtriangles.svg	stimuli_target_squaretriangles.svg	15	yes	57	0	336	6	1	antiphase_hc_iso.wav	2	6	6	noise_calib_stim_RIGHT.wav	2	30	blb_dichoticlistening_pa-ta.mp3	pa	ta	1	left
6.6.1	win	2023-06-27	20:14:02	20:29:37	929436	5f0fba550d4c1304aa069f1d	1	1	main_slash	24	main_slash	145	stimuli_distractor_trianglediamonds.svg	stimuli_distractor_trianglediamonds.svg	34	no	0	1	2003	6	1	antiphase_hc_iso.wav	2	6	6	noise_calib_stim_RIGHT.wav	2	30	blb_dichoticlistening_pa-ta.mp3	pa	ta	1	left
6.6.1	win	2023-06-27	20:14:02	20:29:37	929436	5f0fba550d4c1304aa069f1d	1	1	main_slash	24	advance_on_keypress_SLASH	146	stimuli_distractor_trianglediamonds.svg	stimuli_distractor_trianglediamonds.svg	34	no	57	0	605	6	1	antiphase_hc_iso.wav	2	6	6	noise_calib_stim_RIGHT.wav	2	30	blb_dichoticlistening_pa-ta.mp3	pa	ta	1	left
6.6.1	win	2023-06-27	20:14:02	20:29:38	931255	5f0fba550d4c1304aa069f1d	1	1	main_slash	24	main_slash	147	stimuli_distractor_trianglediamonds.svg	stimuli_target_squaretriangles.svg	11	yes	53	1	586	6	1	antiphase_hc_iso.wav	2	6	6	noise_calib_stim_RIGHT.wav	2	30	blb_dichoticlistening_pa-ta.mp3	pa	ta	1	left
6.6.1	win	2023-06-27	20:14:02	20:29:38	931255	5f0fba550d4c1304aa069f1d	1	1	main_slash	24	advance_on_keypress_SLASH	148	stimuli_distractor_trianglediamonds.svg	stimuli_target_squaretriangles.svg	11	yes	57	0	432	6	1	antiphase_hc_iso.wav	2	6	6	noise_calib_stim_RIGHT.wav	2	30	blb_dichoticlistening_pa-ta.mp3	pa	ta	1	left
6.6.1	win	2023-06-27	20:14:02	20:29:40	932856	5f0fba550d4c1304aa069f1d	1	1	main_slash	24	main_slash	149	stimuli_distractor_trianglediamonds.svg	stimuli_target_squarediamonds.svg	12	yes	53	1	549	6	1	antiphase_hc_iso.wav	2	6	6	noise_calib_stim_RIGHT.wav	2	30	blb_dichoticlistening_pa-ta.mp3	pa	ta	1	left
6.6.1	win	2023-06-27	20:14:02	20:29:40	932856	5f0fba550d4c1304aa069f1d	1	1	main_slash	24	advance_on_keypress_SLASH	150	stimuli_distractor_trianglediamonds.svg	stimuli_target_squarediamonds.svg	12	yes	57	0	381	6	1	antiphase_hc_iso.wav	2	6	6	noise_calib_stim_RIGHT.wav	2	30	blb_dichoticlistening_pa-ta.mp3	pa	ta	1	left
6.6.1	win	2023-06-27	20:14:02	20:29:42	934452	5f0fba550d4c1304aa069f1d	1	1	main_slash	24	main_slash	151	stimuli_target_rectanglediamonds.svg	stimuli_distractor_diamondtriangles.svg	6	yes	53	1	582	6	1	antiphase_hc_iso.wav	2	6	6	noise_calib_stim_RIGHT.wav	2	30	blb_dichoticlistening_pa-ta.mp3	pa	ta	1	left
6.6.1	win	2023-06-27	20:14:02	20:29:42	934452	5f0fba550d4c1304aa069f1d	1	1	main_slash	24	advance_on_keypress_SLASH	152	stimuli_target_rectanglediamonds.svg	stimuli_distractor_diamondtriangles.svg	6	yes	57	0	336	6	1	antiphase_hc_iso.wav	2	6	6	noise_calib_stim_RIGHT.wav	2	30	blb_dichoticlistening_pa-ta.mp3	pa	ta	1	left
6.6.1	win	2023-06-27	20:14:02	20:29:43	936302	5f0fba550d4c1304aa069f1d	1	1	main_slash	24	main_slash	153	stimuli_distractor_diamondtriangles.svg	stimuli_target_diamondsquares.svg	32	yes	53	1	883	6	1	antiphase_hc_iso.wav	2	6	6	noise_calib_stim_RIGHT.wav	2	30	blb_dichoticlistening_pa-ta.mp3	pa	ta	1	left
6.6.1	win	2023-06-27	20:14:02	20:29:43	936302	5f0fba550d4c1304aa069f1d	1	1	main_slash	24	advance_on_keypress_SLASH	154	stimuli_distractor_diamondtriangles.svg	stimuli_target_diamondsquares.svg	32	yes	57	0	306	6	1	antiphase_hc_iso.wav	2	6	6	noise_calib_stim_RIGHT.wav	2	30	blb_dichoticlistening_pa-ta.mp3	pa	ta	1	left
6.6.1	win	2023-06-27	20:14:02	20:29:46	938951	5f0fba550d4c1304aa069f1d	1	1	main_slash	24	main_slash	155	stimuli_target_trianglerectangles.svg	stimuli_distractor_diamondtriangles.svg	21	yes	53	1	1692	6	1	antiphase_hc_iso.wav	2	6	6	noise_calib_stim_RIGHT.wav	2	30	blb_dichoticlistening_pa-ta.mp3	pa	ta	1	left
6.6.1	win	2023-06-27	20:14:02	20:29:46	938951	5f0fba550d4c1304aa069f1d	1	1	main_slash	24	advance_on_keypress_SLASH	156	stimuli_target_trianglerectangles.svg	stimuli_distractor_diamondtriangles.svg	21	yes	57	0	282	6	1	antiphase_hc_iso.wav	2	6	6	noise_calib_stim_RIGHT.wav	2	30	blb_dichoticlistening_pa-ta.mp3	pa	ta	1	left
6.6.1	win	2023-06-27	20:14:02	20:29:48	940915	5f0fba550d4c1304aa069f1d	1	1	main_slash	24	main_slash	157	stimuli_target_rectanglediamonds.svg	stimuli_distractor_trianglediamonds.svg	2	yes	53	1	1031	6	1	antiphase_hc_iso.wav	2	6	6	noise_calib_stim_RIGHT.wav	2	30	blb_dichoticlistening_pa-ta.mp3	pa	ta	1	left
6.6.1	win	2023-06-27	20:14:02	20:29:48	940915	5f0fba550d4c1304aa069f1d	1	1	main_slash	24	advance_on_keypress_SLASH	158	stimuli_target_rectanglediamonds.svg	stimuli_distractor_trianglediamonds.svg	2	yes	57	0	303	6	1	antiphase_hc_iso.wav	2	6	6	noise_calib_stim_RIGHT.wav	2	30	blb_dichoticlistening_pa-ta.mp3	pa	ta	1	left
6.6.1	win	2023-06-27	20:14:02	20:29:49	942331	5f0fba550d4c1304aa069f1d	1	1	main_slash	24	main_slash	159	stimuli_distractor_diamondtriangles.svg	stimuli_target_rectangletriangles.svg	13	yes	53	1	468	6	1	antiphase_hc_iso.wav	2	6	6	noise_calib_stim_RIGHT.wav	2	30	blb_dichoticlistening_pa-ta.mp3	pa	ta	1	left
6.6.1	win	2023-06-27	20:14:02	20:29:49	942331	5f0fba550d4c1304aa069f1d	1	1	main_slash	24	advance_on_keypress_SLASH	160	stimuli_distractor_diamondtriangles.svg	stimuli_target_rectangletriangles.svg	13	yes	57	0	361	6	1	antiphase_hc_iso.wav	2	6	6	noise_calib_stim_RIGHT.wav	2	30	blb_dichoticlistening_pa-ta.mp3	pa	ta	1	left
6.6.1	win	2023-06-27	20:14:02	20:30:24	976598	5f0fba550d4c1304aa069f1d	1	1	practice_z	26	practice_z	1	stimuli_target_diamondsquares.svg	stimuli_distractor_diamondtriangles.svg	3	yes	44	1	554	6	1	antiphase_hc_iso.wav	2	6	6	noise_calib_stim_RIGHT.wav	2	30	blb_dichoticlistening_pa-ta.mp3	pa	ta	1	left
6.6.1	win	2023-06-27	20:14:02	20:30:24	976598	5f0fba550d4c1304aa069f1d	1	1	practice_z	26	advance_on_keypress_ZEE	2	stimuli_target_diamondsquares.svg	stimuli_distractor_diamondtriangles.svg	3	yes	57	0	1578	6	1	antiphase_hc_iso.wav	2	6	6	noise_calib_stim_RIGHT.wav	2	30	blb_dichoticlistening_pa-ta.mp3	pa	ta	1	left
6.6.1	win	2023-06-27	20:14:02	20:30:28	980377	5f0fba550d4c1304aa069f1d	1	1	practice_z	26	practice_z	3	stimuli_distractor_diamondtriangles.svg	stimuli_target_rectangletriangles.svg	7	yes	44	1	549	6	1	antiphase_hc_iso.wav	2	6	6	noise_calib_stim_RIGHT.wav	2	30	blb_dichoticlistening_pa-ta.mp3	pa	ta	1	left
6.6.1	win	2023-06-27	20:14:02	20:30:28	980377	5f0fba550d4c1304aa069f1d	1	1	practice_z	26	advance_on_keypress_ZEE	4	stimuli_distractor_diamondtriangles.svg	stimuli_target_rectangletriangles.svg	7	yes	57	0	373	6	1	antiphase_hc_iso.wav	2	6	6	noise_calib_stim_RIGHT.wav	2	30	blb_dichoticlistening_pa-ta.mp3	pa	ta	1	left
6.6.1	win	2023-06-27	20:14:02	20:30:30	982925	5f0fba550d4c1304aa069f1d	1	1	practice_z	26	practice_z	5	stimuli_distractor_trianglediamonds.svg	stimuli_target_squarediamonds.svg	11	yes	44	1	539	6	1	antiphase_hc_iso.wav	2	6	6	noise_calib_stim_RIGHT.wav	2	30	blb_dichoticlistening_pa-ta.mp3	pa	ta	1	left
6.6.1	win	2023-06-27	20:14:02	20:30:30	982925	5f0fba550d4c1304aa069f1d	1	1	practice_z	26	advance_on_keypress_ZEE	6	stimuli_distractor_trianglediamonds.svg	stimuli_target_squarediamonds.svg	11	yes	57	0	632	6	1	antiphase_hc_iso.wav	2	6	6	noise_calib_stim_RIGHT.wav	2	30	blb_dichoticlistening_pa-ta.mp3	pa	ta	1	left
6.6.1	win	2023-06-27	20:14:02	20:30:33	985746	5f0fba550d4c1304aa069f1d	1	1	practice_z	26	practice_z	7	stimuli_distractor_diamondtriangles.svg	stimuli_target_trianglerectangles.svg	9	yes	44	1	549	6	1	antiphase_hc_iso.wav	2	6	6	noise_calib_stim_RIGHT.wav	2	30	blb_dichoticlistening_pa-ta.mp3	pa	ta	1	left
6.6.1	win	2023-06-27	20:14:02	20:30:33	985746	5f0fba550d4c1304aa069f1d	1	1	practice_z	26	advance_on_keypress_ZEE	8	stimuli_distractor_diamondtriangles.svg	stimuli_target_trianglerectangles.svg	9	yes	57	0	557	6	1	antiphase_hc_iso.wav	2	6	6	noise_calib_stim_RIGHT.wav	2	30	blb_dichoticlistening_pa-ta.mp3	pa	ta	1	left
6.6.1	win	2023-06-27	20:14:02	20:30:36	988393	5f0fba550d4c1304aa069f1d	1	1	practice_z	26	practice_z	9	stimuli_target_squarediamonds.svg	stimuli_distractor_trianglediamonds.svg	5	yes	44	1	440	6	1	antiphase_hc_iso.wav	2	6	6	noise_calib_stim_RIGHT.wav	2	30	blb_dichoticlistening_pa-ta.mp3	pa	ta	1	left
6.6.1	win	2023-06-27	20:14:02	20:30:36	988393	5f0fba550d4c1304aa069f1d	1	1	practice_z	26	advance_on_keypress_ZEE	10	stimuli_target_squarediamonds.svg	stimuli_distractor_trianglediamonds.svg	5	yes	57	0	628	6	1	antiphase_hc_iso.wav	2	6	6	noise_calib_stim_RIGHT.wav	2	30	blb_dichoticlistening_pa-ta.mp3	pa	ta	1	left
6.6.1	win	2023-06-27	20:14:02	20:30:38	991112	5f0fba550d4c1304aa069f1d	1	1	practice_z	26	practice_z	11	stimuli_target_diamondsquares.svg	stimuli_distractor_trianglediamonds.svg	6	yes	44	1	436	6	1	antiphase_hc_iso.wav	2	6	6	noise_calib_stim_RIGHT.wav	2	30	blb_dichoticlistening_pa-ta.mp3	pa	ta	1	left
6.6.1	win	2023-06-27	20:14:02	20:30:38	991112	5f0fba550d4c1304aa069f1d	1	1	practice_z	26	advance_on_keypress_ZEE	12	stimuli_target_diamondsquares.svg	stimuli_distractor_trianglediamonds.svg	6	yes	57	0	490	6	1	antiphase_hc_iso.wav	2	6	6	noise_calib_stim_RIGHT.wav	2	30	blb_dichoticlistening_pa-ta.mp3	pa	ta	1	left
6.6.1	win	2023-06-27	20:14:02	20:30:41	993692	5f0fba550d4c1304aa069f1d	1	1	practice_z	26	practice_z	13	stimuli_target_squarediamonds.svg	stimuli_distractor_diamondtriangles.svg	2	yes	44	1	440	6	1	antiphase_hc_iso.wav	2	6	6	noise_calib_stim_RIGHT.wav	2	30	blb_dichoticlistening_pa-ta.mp3	pa	ta	1	left
6.6.1	win	2023-06-27	20:14:02	20:30:41	993692	5f0fba550d4c1304aa069f1d	1	1	practice_z	26	advance_on_keypress_ZEE	14	stimuli_target_squarediamonds.svg	stimuli_distractor_diamondtriangles.svg	2	yes	57	0	483	6	1	antiphase_hc_iso.wav	2	6	6	noise_calib_stim_RIGHT.wav	2	30	blb_dichoticlistening_pa-ta.mp3	pa	ta	1	left
6.6.1	win	2023-06-27	20:14:02	20:30:44	996536	5f0fba550d4c1304aa069f1d	1	1	practice_z	26	practice_z	15	stimuli_target_rectanglediamonds.svg	stimuli_distractor_trianglediamonds.svg	4	yes	44	1	715	6	1	antiphase_hc_iso.wav	2	6	6	noise_calib_stim_RIGHT.wav	2	30	blb_dichoticlistening_pa-ta.mp3	pa	ta	1	left
