build	computer.platform	date	time	timestamp	time_elapsed_ms	subject	group	session	blockcode	blocknum	trialcode	trialnum	stimulus_left	stimulus_right	stim_index	target_present	response	correct	latency	headphonecheck_countTestTrials	headphonecheck_index	headphonecheck_testSound	headphonecheck_correctResponse	stereocheck_countTestTrials	stereocheck_index	stereocheck_testSound	stereocheck_correctResponse	DL_index	DL_soundfile	DL_leftSound	DL_rightSound	DL_dualSound	DL_choice
6.6.1	win	2023-06-28	08:08:07	08:10:55	164600	5d8125f63d05eb0001731115	4	1	practice_z	5	practice_z	1	stimuli_distractor_trianglediamonds.svg	stimuli_target_rectanglediamonds.svg	10	yes	0	0	2000	0	0			0	0			1				0	
6.6.1	win	2023-06-28	08:08:07	08:10:55	164600	5d8125f63d05eb0001731115	4	1	practice_z	5	advance_on_keypress_ZEE	2	stimuli_distractor_trianglediamonds.svg	stimuli_target_rectanglediamonds.svg	10	yes	57	0	2157	0	0			0	0			1				0	
6.6.1	win	2023-06-28	08:08:07	08:10:59	169006	5d8125f63d05eb0001731115	4	1	practice_z	5	practice_z	3	stimuli_target_rectanglediamonds.svg	stimuli_distractor_trianglediamonds.svg	4	yes	44	1	580	0	0			0	0			1				0	
6.6.1	win	2023-06-28	08:08:07	08:10:59	169006	5d8125f63d05eb0001731115	4	1	practice_z	5	advance_on_keypress_ZEE	4	stimuli_target_rectanglediamonds.svg	stimuli_distractor_trianglediamonds.svg	4	yes	57	0	1405	0	0			0	0			1				0	
6.6.1	win	2023-06-28	08:08:07	08:11:03	172674	5d8125f63d05eb0001731115	4	1	practice_z	5	practice_z	5	stimuli_distractor_trianglediamonds.svg	stimuli_target_squarediamonds.svg	11	yes	44	1	593	0	0			0	0			1				0	
6.6.1	win	2023-06-28	08:08:07	08:11:03	172674	5d8125f63d05eb0001731115	4	1	practice_z	5	advance_on_keypress_ZEE	6	stimuli_distractor_trianglediamonds.svg	stimuli_target_squarediamonds.svg	11	yes	57	0	659	0	0			0	0			1				0	
6.6.1	win	2023-06-28	08:08:07	08:11:06	176070	5d8125f63d05eb0001731115	4	1	practice_z	5	practice_z	7	stimuli_distractor_diamondtriangles.svg	stimuli_target_rectangletriangles.svg	7	yes	44	1	1085	0	0			0	0			1				0	
6.6.1	win	2023-06-28	08:08:07	08:11:06	176070	5d8125f63d05eb0001731115	4	1	practice_z	5	advance_on_keypress_ZEE	8	stimuli_distractor_diamondtriangles.svg	stimuli_target_rectangletriangles.svg	7	yes	57	0	945	0	0			0	0			1				0	
6.6.1	win	2023-06-28	08:08:07	08:11:10	180047	5d8125f63d05eb0001731115	4	1	practice_z	5	practice_z	9	stimuli_target_diamondsquares.svg	stimuli_distractor_trianglediamonds.svg	6	yes	44	1	1378	0	0			0	0			1				0	
6.6.1	win	2023-06-28	08:08:07	08:11:10	180047	5d8125f63d05eb0001731115	4	1	practice_z	5	advance_on_keypress_ZEE	10	stimuli_target_diamondsquares.svg	stimuli_distractor_trianglediamonds.svg	6	yes	57	0	538	0	0			0	0			1				0	
6.6.1	win	2023-06-28	08:08:07	08:11:13	183261	5d8125f63d05eb0001731115	4	1	practice_z	5	practice_z	11	stimuli_target_diamondsquares.svg	stimuli_distractor_diamondtriangles.svg	3	yes	44	1	979	0	0			0	0			1				0	
6.6.1	win	2023-06-28	08:08:07	08:11:13	183261	5d8125f63d05eb0001731115	4	1	practice_z	5	advance_on_keypress_ZEE	12	stimuli_target_diamondsquares.svg	stimuli_distractor_diamondtriangles.svg	3	yes	57	0	867	0	0			0	0			1				0	
6.6.1	win	2023-06-28	08:08:07	08:11:17	186642	5d8125f63d05eb0001731115	4	1	practice_z	5	practice_z	13	stimuli_target_squarediamonds.svg	stimuli_distractor_trianglediamonds.svg	5	yes	44	1	847	0	0			0	0			1				0	
6.6.1	win	2023-06-28	08:08:07	08:11:17	186642	5d8125f63d05eb0001731115	4	1	practice_z	5	advance_on_keypress_ZEE	14	stimuli_target_squarediamonds.svg	stimuli_distractor_trianglediamonds.svg	5	yes	57	0	827	0	0			0	0			1				0	
6.6.1	win	2023-06-28	08:08:07	08:11:20	189967	5d8125f63d05eb0001731115	4	1	practice_z	5	practice_z	15	stimuli_distractor_diamondtriangles.svg	stimuli_target_trianglerectangles.svg	9	yes	44	1	849	0	0			0	0			1				0	
6.6.1	win	2023-06-28	08:08:07	08:11:20	189967	5d8125f63d05eb0001731115	4	1	practice_z	5	advance_on_keypress_ZEE	16	stimuli_distractor_diamondtriangles.svg	stimuli_target_trianglerectangles.svg	9	yes	57	0	670	0	0			0	0			1				0	
6.6.1	win	2023-06-28	08:08:07	08:11:23	193237	5d8125f63d05eb0001731115	4	1	practice_z	5	practice_z	17	stimuli_distractor_diamondtriangles.svg	stimuli_target_diamondrectangles.svg	8	yes	44	1	937	0	0			0	0			1				0	
6.6.1	win	2023-06-28	08:08:07	08:11:23	193237	5d8125f63d05eb0001731115	4	1	practice_z	5	advance_on_keypress_ZEE	18	stimuli_distractor_diamondtriangles.svg	stimuli_target_diamondrectangles.svg	8	yes	57	0	667	0	0			0	0			1				0	
6.6.1	win	2023-06-28	08:08:07	08:11:28	197563	5d8125f63d05eb0001731115	4	1	practice_z	5	practice_z	19	stimuli_distractor_diamondtriangles.svg	stimuli_distractor_diamondtriangles.svg	13	no	0	1	2000	0	0			0	0			1				0	
6.6.1	win	2023-06-28	08:08:07	08:11:28	197563	5d8125f63d05eb0001731115	4	1	practice_z	5	advance_on_keypress_ZEE	20	stimuli_distractor_diamondtriangles.svg	stimuli_distractor_diamondtriangles.svg	13	no	57	0	581	0	0			0	0			1				0	
6.6.1	win	2023-06-28	08:08:07	08:11:32	201801	5d8125f63d05eb0001731115	4	1	practice_z	5	practice_z	21	stimuli_distractor_diamondtriangles.svg	stimuli_distractor_trianglediamonds.svg	14	no	0	1	2000	0	0			0	0			1				0	
6.6.1	win	2023-06-28	08:08:07	08:11:32	201801	5d8125f63d05eb0001731115	4	1	practice_z	5	advance_on_keypress_ZEE	22	stimuli_distractor_diamondtriangles.svg	stimuli_distractor_trianglediamonds.svg	14	no	57	0	596	0	0			0	0			1				0	
6.6.1	win	2023-06-28	08:08:07	08:11:36	206051	5d8125f63d05eb0001731115	4	1	practice_z	5	practice_z	23	stimuli_distractor_trianglediamonds.svg	stimuli_distractor_trianglediamonds.svg	15	no	0	1	2000	0	0			0	0			1				0	
6.6.1	win	2023-06-28	08:08:07	08:11:36	206051	5d8125f63d05eb0001731115	4	1	practice_z	5	advance_on_keypress_ZEE	24	stimuli_distractor_trianglediamonds.svg	stimuli_distractor_trianglediamonds.svg	15	no	57	0	594	0	0			0	0			1				0	
6.6.1	win	2023-06-28	08:08:07	08:11:39	209189	5d8125f63d05eb0001731115	4	1	practice_z	5	practice_z	25	stimuli_distractor_trianglediamonds.svg	stimuli_target_diamondrectangles.svg	12	yes	44	1	906	0	0			0	0			1				0	
6.6.1	win	2023-06-28	08:08:07	08:11:39	209189	5d8125f63d05eb0001731115	4	1	practice_z	5	advance_on_keypress_ZEE	26	stimuli_distractor_trianglediamonds.svg	stimuli_target_diamondrectangles.svg	12	yes	57	0	829	0	0			0	0			1				0	
6.6.1	win	2023-06-28	08:08:07	08:11:43	212692	5d8125f63d05eb0001731115	4	1	practice_z	5	practice_z	27	stimuli_target_rectanglediamonds.svg	stimuli_distractor_diamondtriangles.svg	1	yes	44	1	1025	0	0			0	0			1				0	
6.6.1	win	2023-06-28	08:08:07	08:11:43	212692	5d8125f63d05eb0001731115	4	1	practice_z	5	advance_on_keypress_ZEE	28	stimuli_target_rectanglediamonds.svg	stimuli_distractor_diamondtriangles.svg	1	yes	57	0	712	0	0			0	0			1				0	
6.6.1	win	2023-06-28	08:08:07	08:11:47	217066	5d8125f63d05eb0001731115	4	1	practice_z	5	practice_z	29	stimuli_distractor_trianglediamonds.svg	stimuli_distractor_diamondtriangles.svg	16	no	0	1	2000	0	0			0	0			1				0	
6.6.1	win	2023-06-28	08:08:07	08:11:47	217066	5d8125f63d05eb0001731115	4	1	practice_z	5	advance_on_keypress_ZEE	30	stimuli_distractor_trianglediamonds.svg	stimuli_distractor_diamondtriangles.svg	16	no	57	0	537	0	0			0	0			1				0	
6.6.1	win	2023-06-28	08:08:07	08:11:50	220364	5d8125f63d05eb0001731115	4	1	practice_z	5	practice_z	31	stimuli_target_squarediamonds.svg	stimuli_distractor_diamondtriangles.svg	2	yes	44	1	1098	0	0			0	0			1				0	
6.6.1	win	2023-06-28	08:08:07	08:11:50	220364	5d8125f63d05eb0001731115	4	1	practice_z	5	advance_on_keypress_ZEE	32	stimuli_target_squarediamonds.svg	stimuli_distractor_diamondtriangles.svg	2	yes	57	0	861	0	0			0	0			1				0	
6.6.1	win	2023-06-28	08:08:07	08:11:58	228109	5d8125f63d05eb0001731115	4	1	main_z	7	main_z	1	stimuli_distractor_trianglediamonds.svg	stimuli_distractor_trianglediamonds.svg	33	no	0	1	2000	0	0			0	0			1				0	
6.6.1	win	2023-06-28	08:08:07	08:11:58	228109	5d8125f63d05eb0001731115	4	1	main_z	7	advance_on_keypress_ZEE	2	stimuli_distractor_trianglediamonds.svg	stimuli_distractor_trianglediamonds.svg	33	no	57	0	864	0	0			0	0			1				0	
6.6.1	win	2023-06-28	08:08:07	08:12:00	230391	5d8125f63d05eb0001731115	4	1	main_z	7	main_z	3	stimuli_distractor_diamondtriangles.svg	stimuli_target_diamondrectangles.svg	31	yes	44	1	762	0	0			0	0			1				0	
6.6.1	win	2023-06-28	08:08:07	08:12:00	230391	5d8125f63d05eb0001731115	4	1	main_z	7	advance_on_keypress_ZEE	4	stimuli_distractor_diamondtriangles.svg	stimuli_target_diamondrectangles.svg	31	yes	57	0	1261	0	0			0	0			1				0	
6.6.1	win	2023-06-28	08:08:07	08:12:03	233385	5d8125f63d05eb0001731115	4	1	main_z	7	main_z	5	stimuli_target_trianglesquares.svg	stimuli_distractor_diamondtriangles.svg	22	yes	44	1	1081	0	0			0	0			1				0	
6.6.1	win	2023-06-28	08:08:07	08:12:03	233385	5d8125f63d05eb0001731115	4	1	main_z	7	advance_on_keypress_ZEE	6	stimuli_target_trianglesquares.svg	stimuli_distractor_diamondtriangles.svg	22	yes	57	0	971	0	0			0	0			1				0	
6.6.1	win	2023-06-28	08:08:07	08:12:06	236064	5d8125f63d05eb0001731115	4	1	main_z	7	main_z	7	stimuli_distractor_diamondtriangles.svg	stimuli_distractor_trianglediamonds.svg	38	no	44	0	1043	0	0			0	0			1				0	
6.6.1	win	2023-06-28	08:08:07	08:12:06	236064	5d8125f63d05eb0001731115	4	1	main_z	7	advance_on_keypress_ZEE	8	stimuli_distractor_diamondtriangles.svg	stimuli_distractor_trianglediamonds.svg	38	no	57	0	1592	0	0			0	0			1				0	
6.6.1	win	2023-06-28	08:08:07	08:12:09	238965	5d8125f63d05eb0001731115	4	1	main_z	7	main_z	9	stimuli_target_squarediamonds.svg	stimuli_distractor_diamondtriangles.svg	8	yes	44	1	639	0	0			0	0			1				0	
6.6.1	win	2023-06-28	08:08:07	08:12:09	238965	5d8125f63d05eb0001731115	4	1	main_z	7	advance_on_keypress_ZEE	10	stimuli_target_squarediamonds.svg	stimuli_distractor_diamondtriangles.svg	8	yes	57	0	1388	0	0			0	0			1				0	
6.6.1	win	2023-06-28	08:08:07	08:12:12	241720	5d8125f63d05eb0001731115	4	1	main_z	7	main_z	11	stimuli_target_diamondrectangles.svg	stimuli_distractor_diamondtriangles.svg	23	yes	44	1	716	0	0			0	0			1				0	
6.6.1	win	2023-06-28	08:08:07	08:12:12	241720	5d8125f63d05eb0001731115	4	1	main_z	7	advance_on_keypress_ZEE	12	stimuli_target_diamondrectangles.svg	stimuli_distractor_diamondtriangles.svg	23	yes	57	0	910	0	0			0	0			1				0	
6.6.1	win	2023-06-28	08:08:07	08:12:14	244006	5d8125f63d05eb0001731115	4	1	main_z	7	main_z	13	stimuli_target_trianglesquares.svg	stimuli_distractor_trianglediamonds.svg	18	yes	44	1	720	0	0			0	0			1				0	
6.6.1	win	2023-06-28	08:08:07	08:12:14	244006	5d8125f63d05eb0001731115	4	1	main_z	7	advance_on_keypress_ZEE	14	stimuli_target_trianglesquares.svg	stimuli_distractor_trianglediamonds.svg	18	yes	57	0	1043	0	0			0	0			1				0	
6.6.1	win	2023-06-28	08:08:07	08:12:17	246492	5d8125f63d05eb0001731115	4	1	main_z	7	main_z	15	stimuli_target_rectanglediamonds.svg	stimuli_distractor_trianglediamonds.svg	2	yes	44	1	792	0	0			0	0			1				0	
6.6.1	win	2023-06-28	08:08:07	08:12:17	246492	5d8125f63d05eb0001731115	4	1	main_z	7	advance_on_keypress_ZEE	16	stimuli_target_rectanglediamonds.svg	stimuli_distractor_trianglediamonds.svg	2	yes	57	0	840	0	0			0	0			1				0	
6.6.1	win	2023-06-28	08:08:07	08:12:20	249991	5d8125f63d05eb0001731115	4	1	main_z	7	main_z	17	stimuli_distractor_trianglediamonds.svg	stimuli_distractor_trianglediamonds.svg	34	no	0	1	2000	0	0			0	0			1				0	
6.6.1	win	2023-06-28	08:08:07	08:12:20	249991	5d8125f63d05eb0001731115	4	1	main_z	7	advance_on_keypress_ZEE	18	stimuli_distractor_trianglediamonds.svg	stimuli_distractor_trianglediamonds.svg	34	no	57	0	571	0	0			0	0			1				0	
6.6.1	win	2023-06-28	08:08:07	08:12:22	252104	5d8125f63d05eb0001731115	4	1	main_z	7	main_z	19	stimuli_target_rectangletriangles.svg	stimuli_distractor_trianglediamonds.svg	1	yes	44	1	907	0	0			0	0			1				0	
6.6.1	win	2023-06-28	08:08:07	08:12:22	252104	5d8125f63d05eb0001731115	4	1	main_z	7	advance_on_keypress_ZEE	20	stimuli_target_rectangletriangles.svg	stimuli_distractor_trianglediamonds.svg	1	yes	57	0	1030	0	0			0	0			1				0	
6.6.1	win	2023-06-28	08:08:07	08:12:26	255781	5d8125f63d05eb0001731115	4	1	main_z	7	main_z	21	stimuli_distractor_diamondtriangles.svg	stimuli_distractor_trianglediamonds.svg	37	no	0	1	2000	0	0			0	0			1				0	
6.6.1	win	2023-06-28	08:08:07	08:12:26	255781	5d8125f63d05eb0001731115	4	1	main_z	7	advance_on_keypress_ZEE	22	stimuli_distractor_diamondtriangles.svg	stimuli_distractor_trianglediamonds.svg	37	no	57	0	971	0	0			0	0			1				0	
6.6.1	win	2023-06-28	08:08:07	08:12:28	258144	5d8125f63d05eb0001731115	4	1	main_z	7	main_z	23	stimuli_distractor_trianglediamonds.svg	stimuli_target_squaretriangles.svg	11	yes	44	1	747	0	0			0	0			1				0	
6.6.1	win	2023-06-28	08:08:07	08:12:28	258144	5d8125f63d05eb0001731115	4	1	main_z	7	advance_on_keypress_ZEE	24	stimuli_distractor_trianglediamonds.svg	stimuli_target_squaretriangles.svg	11	yes	57	0	1428	0	0			0	0			1				0	
6.6.1	win	2023-06-28	08:08:07	08:12:31	261323	5d8125f63d05eb0001731115	4	1	main_z	7	main_z	25	stimuli_distractor_diamondtriangles.svg	stimuli_target_trianglesquares.svg	30	yes	44	1	1082	0	0			0	0			1				0	
6.6.1	win	2023-06-28	08:08:07	08:12:31	261323	5d8125f63d05eb0001731115	4	1	main_z	7	advance_on_keypress_ZEE	26	stimuli_distractor_diamondtriangles.svg	stimuli_target_trianglesquares.svg	30	yes	57	0	1110	0	0			0	0			1				0	
6.6.1	win	2023-06-28	08:08:07	08:12:34	263848	5d8125f63d05eb0001731115	4	1	main_z	7	main_z	27	stimuli_target_rectangletriangles.svg	stimuli_distractor_diamondtriangles.svg	5	yes	44	1	768	0	0			0	0			1				0	
6.6.1	win	2023-06-28	08:08:07	08:12:34	263848	5d8125f63d05eb0001731115	4	1	main_z	7	advance_on_keypress_ZEE	28	stimuli_target_rectangletriangles.svg	stimuli_distractor_diamondtriangles.svg	5	yes	57	0	1089	0	0			0	0			1				0	
6.6.1	win	2023-06-28	08:08:07	08:12:36	266424	5d8125f63d05eb0001731115	4	1	main_z	7	main_z	29	stimuli_distractor_diamondtriangles.svg	stimuli_target_squaretriangles.svg	15	yes	44	1	826	0	0			0	0			1				0	
6.6.1	win	2023-06-28	08:08:07	08:12:36	266424	5d8125f63d05eb0001731115	4	1	main_z	7	advance_on_keypress_ZEE	30	stimuli_distractor_diamondtriangles.svg	stimuli_target_squaretriangles.svg	15	yes	57	0	1073	0	0			0	0			1				0	
6.6.1	win	2023-06-28	08:08:07	08:12:39	268967	5d8125f63d05eb0001731115	4	1	main_z	7	main_z	31	stimuli_target_squarediamonds.svg	stimuli_distractor_trianglediamonds.svg	4	yes	44	1	820	0	0			0	0			1				0	
6.6.1	win	2023-06-28	08:08:07	08:12:39	268967	5d8125f63d05eb0001731115	4	1	main_z	7	advance_on_keypress_ZEE	32	stimuli_target_squarediamonds.svg	stimuli_distractor_trianglediamonds.svg	4	yes	57	0	787	0	0			0	0			1				0	
6.6.1	win	2023-06-28	08:08:07	08:12:42	272427	5d8125f63d05eb0001731115	4	1	main_z	7	main_z	33	stimuli_target_squaretriangles.svg	stimuli_distractor_trianglediamonds.svg	3	yes	0	0	2000	0	0			0	0			1				0	
6.6.1	win	2023-06-28	08:08:07	08:12:42	272427	5d8125f63d05eb0001731115	4	1	main_z	7	advance_on_keypress_ZEE	34	stimuli_target_squaretriangles.svg	stimuli_distractor_trianglediamonds.svg	3	yes	57	0	593	0	0			0	0			1				0	
6.6.1	win	2023-06-28	08:08:07	08:12:46	275677	5d8125f63d05eb0001731115	4	1	main_z	7	main_z	35	stimuli_distractor_diamondtriangles.svg	stimuli_distractor_diamondtriangles.svg	39	no	0	1	2000	0	0			0	0			1				0	
6.6.1	win	2023-06-28	08:08:07	08:12:46	275677	5d8125f63d05eb0001731115	4	1	main_z	7	advance_on_keypress_ZEE	36	stimuli_distractor_diamondtriangles.svg	stimuli_distractor_diamondtriangles.svg	39	no	57	0	503	0	0			0	0			1				0	
6.6.1	win	2023-06-28	08:08:07	08:12:48	277833	5d8125f63d05eb0001731115	4	1	main_z	7	main_z	37	stimuli_target_trianglerectangles.svg	stimuli_distractor_trianglediamonds.svg	17	yes	44	1	993	0	0			0	0			1				0	
6.6.1	win	2023-06-28	08:08:07	08:12:48	277833	5d8125f63d05eb0001731115	4	1	main_z	7	advance_on_keypress_ZEE	38	stimuli_target_trianglerectangles.svg	stimuli_distractor_trianglediamonds.svg	17	yes	57	0	1441	0	0			0	0			1				0	
6.6.1	win	2023-06-28	08:08:07	08:12:52	281914	5d8125f63d05eb0001731115	4	1	main_z	7	main_z	39	stimuli_distractor_trianglediamonds.svg	stimuli_distractor_diamondtriangles.svg	36	no	0	1	2000	0	0			0	0			1				0	
6.6.1	win	2023-06-28	08:08:07	08:12:52	281914	5d8125f63d05eb0001731115	4	1	main_z	7	advance_on_keypress_ZEE	40	stimuli_distractor_trianglediamonds.svg	stimuli_distractor_diamondtriangles.svg	36	no	57	0	453	0	0			0	0			1				0	
6.6.1	win	2023-06-28	08:08:07	08:12:54	284002	5d8125f63d05eb0001731115	4	1	main_z	7	main_z	41	stimuli_distractor_diamondtriangles.svg	stimuli_target_diamondsquares.svg	32	yes	44	1	986	0	0			0	0			1				0	
6.6.1	win	2023-06-28	08:08:07	08:12:54	284002	5d8125f63d05eb0001731115	4	1	main_z	7	advance_on_keypress_ZEE	42	stimuli_distractor_diamondtriangles.svg	stimuli_target_diamondsquares.svg	32	yes	57	0	1266	0	0			0	0			1				0	
6.6.1	win	2023-06-28	08:08:07	08:12:57	286990	5d8125f63d05eb0001731115	4	1	main_z	7	main_z	43	stimuli_distractor_trianglediamonds.svg	stimuli_target_rectangletriangles.svg	9	yes	44	1	1077	0	0			0	0			1				0	
6.6.1	win	2023-06-28	08:08:07	08:12:57	286990	5d8125f63d05eb0001731115	4	1	main_z	7	advance_on_keypress_ZEE	44	stimuli_distractor_trianglediamonds.svg	stimuli_target_rectangletriangles.svg	9	yes	57	0	922	0	0			0	0			1				0	
6.6.1	win	2023-06-28	08:08:07	08:13:00	289974	5d8125f63d05eb0001731115	4	1	main_z	7	main_z	45	stimuli_target_diamondsquares.svg	stimuli_distractor_diamondtriangles.svg	24	yes	44	1	1411	0	0			0	0			1				0	
6.6.1	win	2023-06-28	08:08:07	08:13:00	289974	5d8125f63d05eb0001731115	4	1	main_z	7	advance_on_keypress_ZEE	46	stimuli_target_diamondsquares.svg	stimuli_distractor_diamondtriangles.svg	24	yes	57	0	868	0	0			0	0			1				0	
6.6.1	win	2023-06-28	08:08:07	08:13:02	292430	5d8125f63d05eb0001731115	4	1	main_z	7	main_z	47	stimuli_target_diamondsquares.svg	stimuli_distractor_trianglediamonds.svg	20	yes	44	1	950	0	0			0	0			1				0	
6.6.1	win	2023-06-28	08:08:07	08:13:02	292430	5d8125f63d05eb0001731115	4	1	main_z	7	advance_on_keypress_ZEE	48	stimuli_target_diamondsquares.svg	stimuli_distractor_trianglediamonds.svg	20	yes	57	0	1048	0	0			0	0			1				0	
6.6.1	win	2023-06-28	08:08:07	08:13:05	294946	5d8125f63d05eb0001731115	4	1	main_z	7	main_z	49	stimuli_distractor_diamondtriangles.svg	stimuli_target_squarediamonds.svg	16	yes	44	1	805	0	0			0	0			1				0	
6.6.1	win	2023-06-28	08:08:07	08:13:05	294946	5d8125f63d05eb0001731115	4	1	main_z	7	advance_on_keypress_ZEE	50	stimuli_distractor_diamondtriangles.svg	stimuli_target_squarediamonds.svg	16	yes	57	0	859	0	0			0	0			1				0	
6.6.1	win	2023-06-28	08:08:07	08:13:07	297215	5d8125f63d05eb0001731115	4	1	main_z	7	main_z	51	stimuli_distractor_trianglediamonds.svg	stimuli_target_squarediamonds.svg	12	yes	44	1	743	0	0			0	0			1				0	
6.6.1	win	2023-06-28	08:08:07	08:13:07	297215	5d8125f63d05eb0001731115	4	1	main_z	7	advance_on_keypress_ZEE	52	stimuli_distractor_trianglediamonds.svg	stimuli_target_squarediamonds.svg	12	yes	57	0	681	0	0			0	0			1				0	
6.6.1	win	2023-06-28	08:08:07	08:13:09	299262	5d8125f63d05eb0001731115	4	1	main_z	7	main_z	53	stimuli_distractor_diamondtriangles.svg	stimuli_target_rectangletriangles.svg	13	yes	44	1	716	0	0			0	0			1				0	
6.6.1	win	2023-06-28	08:08:07	08:13:09	299262	5d8125f63d05eb0001731115	4	1	main_z	7	advance_on_keypress_ZEE	54	stimuli_distractor_diamondtriangles.svg	stimuli_target_rectangletriangles.svg	13	yes	57	0	703	0	0			0	0			1				0	
6.6.1	win	2023-06-28	08:08:07	08:13:11	301402	5d8125f63d05eb0001731115	4	1	main_z	7	main_z	55	stimuli_distractor_trianglediamonds.svg	stimuli_target_trianglesquares.svg	26	yes	44	1	778	0	0			0	0			1				0	
6.6.1	win	2023-06-28	08:08:07	08:13:11	301402	5d8125f63d05eb0001731115	4	1	main_z	7	advance_on_keypress_ZEE	56	stimuli_distractor_trianglediamonds.svg	stimuli_target_trianglesquares.svg	26	yes	57	0	689	0	0			0	0			1				0	
6.6.1	win	2023-06-28	08:08:07	08:13:14	303678	5d8125f63d05eb0001731115	4	1	main_z	7	main_z	57	stimuli_target_diamondrectangles.svg	stimuli_distractor_trianglediamonds.svg	19	yes	44	1	932	0	0			0	0			1				0	
6.6.1	win	2023-06-28	08:08:07	08:13:14	303678	5d8125f63d05eb0001731115	4	1	main_z	7	advance_on_keypress_ZEE	58	stimuli_target_diamondrectangles.svg	stimuli_distractor_trianglediamonds.svg	19	yes	57	0	805	0	0			0	0			1				0	
6.6.1	win	2023-06-28	08:08:07	08:13:16	305829	5d8125f63d05eb0001731115	4	1	main_z	7	main_z	59	stimuli_target_rectanglediamonds.svg	stimuli_distractor_diamondtriangles.svg	6	yes	44	1	700	0	0			0	0			1				0	
6.6.1	win	2023-06-28	08:08:07	08:13:16	305829	5d8125f63d05eb0001731115	4	1	main_z	7	advance_on_keypress_ZEE	60	stimuli_target_rectanglediamonds.svg	stimuli_distractor_diamondtriangles.svg	6	yes	57	0	871	0	0			0	0			1				0	
6.6.1	win	2023-06-28	08:08:07	08:13:18	308069	5d8125f63d05eb0001731115	4	1	main_z	7	main_z	61	stimuli_target_squaretriangles.svg	stimuli_distractor_diamondtriangles.svg	7	yes	44	1	723	0	0			0	0			1				0	
6.6.1	win	2023-06-28	08:08:07	08:13:18	308069	5d8125f63d05eb0001731115	4	1	main_z	7	advance_on_keypress_ZEE	62	stimuli_target_squaretriangles.svg	stimuli_distractor_diamondtriangles.svg	7	yes	57	0	702	0	0			0	0			1				0	
6.6.1	win	2023-06-28	08:08:07	08:13:20	310437	5d8125f63d05eb0001731115	4	1	main_z	7	main_z	63	stimuli_distractor_trianglediamonds.svg	stimuli_target_diamondsquares.svg	28	yes	44	1	1008	0	0			0	0			1				0	
6.6.1	win	2023-06-28	08:08:07	08:13:20	310437	5d8125f63d05eb0001731115	4	1	main_z	7	advance_on_keypress_ZEE	64	stimuli_distractor_trianglediamonds.svg	stimuli_target_diamondsquares.svg	28	yes	57	0	904	0	0			0	0			1				0	
6.6.1	win	2023-06-28	08:08:07	08:13:24	313996	5d8125f63d05eb0001731115	4	1	main_z	7	main_z	65	stimuli_distractor_trianglediamonds.svg	stimuli_distractor_diamondtriangles.svg	35	no	0	1	2000	0	0			0	0			1				0	
6.6.1	win	2023-06-28	08:08:07	08:13:24	313996	5d8125f63d05eb0001731115	4	1	main_z	7	advance_on_keypress_ZEE	66	stimuli_distractor_trianglediamonds.svg	stimuli_distractor_diamondtriangles.svg	35	no	57	0	545	0	0			0	0			1				0	
6.6.1	win	2023-06-28	08:08:07	08:13:26	315785	5d8125f63d05eb0001731115	4	1	main_z	7	main_z	67	stimuli_distractor_trianglediamonds.svg	stimuli_target_rectanglediamonds.svg	10	yes	44	1	578	0	0			0	0			1				0	
6.6.1	win	2023-06-28	08:08:07	08:13:26	315785	5d8125f63d05eb0001731115	4	1	main_z	7	advance_on_keypress_ZEE	68	stimuli_distractor_trianglediamonds.svg	stimuli_target_rectanglediamonds.svg	10	yes	57	0	1018	0	0			0	0			1				0	
6.6.1	win	2023-06-28	08:08:07	08:13:28	318367	5d8125f63d05eb0001731115	4	1	main_z	7	main_z	69	stimuli_distractor_diamondtriangles.svg	stimuli_target_trianglerectangles.svg	29	yes	44	1	895	0	0			0	0			1				0	
6.6.1	win	2023-06-28	08:08:07	08:13:28	318367	5d8125f63d05eb0001731115	4	1	main_z	7	advance_on_keypress_ZEE	70	stimuli_distractor_diamondtriangles.svg	stimuli_target_trianglerectangles.svg	29	yes	57	0	746	0	0			0	0			1				0	
6.6.1	win	2023-06-28	08:08:07	08:13:31	320610	5d8125f63d05eb0001731115	4	1	main_z	7	main_z	71	stimuli_distractor_diamondtriangles.svg	stimuli_target_rectanglediamonds.svg	14	yes	44	1	835	0	0			0	0			1				0	
6.6.1	win	2023-06-28	08:08:07	08:13:31	320610	5d8125f63d05eb0001731115	4	1	main_z	7	advance_on_keypress_ZEE	72	stimuli_distractor_diamondtriangles.svg	stimuli_target_rectanglediamonds.svg	14	yes	57	0	992	0	0			0	0			1				0	
6.6.1	win	2023-06-28	08:08:07	08:13:33	323138	5d8125f63d05eb0001731115	4	1	main_z	7	main_z	73	stimuli_distractor_trianglediamonds.svg	stimuli_target_trianglerectangles.svg	25	yes	44	1	862	0	0			0	0			1				0	
6.6.1	win	2023-06-28	08:08:07	08:13:33	323138	5d8125f63d05eb0001731115	4	1	main_z	7	advance_on_keypress_ZEE	74	stimuli_distractor_trianglediamonds.svg	stimuli_target_trianglerectangles.svg	25	yes	57	0	859	0	0			0	0			1				0	
6.6.1	win	2023-06-28	08:08:07	08:13:36	325620	5d8125f63d05eb0001731115	4	1	main_z	7	main_z	75	stimuli_distractor_trianglediamonds.svg	stimuli_target_diamondrectangles.svg	27	yes	44	1	975	0	0			0	0			1				0	
6.6.1	win	2023-06-28	08:08:07	08:13:36	325620	5d8125f63d05eb0001731115	4	1	main_z	7	advance_on_keypress_ZEE	76	stimuli_distractor_trianglediamonds.svg	stimuli_target_diamondrectangles.svg	27	yes	57	0	800	0	0			0	0			1				0	
6.6.1	win	2023-06-28	08:08:07	08:13:39	329068	5d8125f63d05eb0001731115	4	1	main_z	7	main_z	77	stimuli_target_trianglerectangles.svg	stimuli_distractor_diamondtriangles.svg	21	yes	0	0	2000	0	0			0	0			1				0	
6.6.1	win	2023-06-28	08:08:07	08:13:39	329068	5d8125f63d05eb0001731115	4	1	main_z	7	advance_on_keypress_ZEE	78	stimuli_target_trianglerectangles.svg	stimuli_distractor_diamondtriangles.svg	21	yes	57	0	638	0	0			0	0			1				0	
6.6.1	win	2023-06-28	08:08:07	08:13:42	332345	5d8125f63d05eb0001731115	4	1	main_z	7	main_z	79	stimuli_distractor_diamondtriangles.svg	stimuli_distractor_diamondtriangles.svg	40	no	0	1	2000	0	0			0	0			1				0	
6.6.1	win	2023-06-28	08:08:07	08:13:42	332345	5d8125f63d05eb0001731115	4	1	main_z	7	advance_on_keypress_ZEE	80	stimuli_distractor_diamondtriangles.svg	stimuli_distractor_diamondtriangles.svg	40	no	57	0	346	0	0			0	0			1				0	
6.6.1	win	2023-06-28	08:08:07	08:13:45	335352	5d8125f63d05eb0001731115	4	1	main_z	7	main_z	81	stimuli_distractor_trianglediamonds.svg	stimuli_distractor_diamondtriangles.svg	35	no	0	1	2000	0	0			0	0			1				0	
6.6.1	win	2023-06-28	08:08:07	08:13:45	335352	5d8125f63d05eb0001731115	4	1	main_z	7	advance_on_keypress_ZEE	82	stimuli_distractor_trianglediamonds.svg	stimuli_distractor_diamondtriangles.svg	35	no	57	0	570	0	0			0	0			1				0	
6.6.1	win	2023-06-28	08:08:07	08:13:47	337332	5d8125f63d05eb0001731115	4	1	main_z	7	main_z	83	stimuli_distractor_trianglediamonds.svg	stimuli_target_rectanglediamonds.svg	10	yes	44	1	771	0	0			0	0			1				0	
6.6.1	win	2023-06-28	08:08:07	08:13:47	337332	5d8125f63d05eb0001731115	4	1	main_z	7	advance_on_keypress_ZEE	84	stimuli_distractor_trianglediamonds.svg	stimuli_target_rectanglediamonds.svg	10	yes	57	0	1155	0	0			0	0			1				0	
6.6.1	win	2023-06-28	08:08:07	08:13:50	340092	5d8125f63d05eb0001731115	4	1	main_z	7	main_z	85	stimuli_distractor_diamondtriangles.svg	stimuli_target_squaretriangles.svg	15	yes	44	1	964	0	0			0	0			1				0	
6.6.1	win	2023-06-28	08:08:07	08:13:50	340092	5d8125f63d05eb0001731115	4	1	main_z	7	advance_on_keypress_ZEE	86	stimuli_distractor_diamondtriangles.svg	stimuli_target_squaretriangles.svg	15	yes	57	0	972	0	0			0	0			1				0	
6.6.1	win	2023-06-28	08:08:07	08:13:53	342635	5d8125f63d05eb0001731115	4	1	main_z	7	main_z	87	stimuli_target_squaretriangles.svg	stimuli_distractor_trianglediamonds.svg	3	yes	44	1	907	0	0			0	0			1				0	
6.6.1	win	2023-06-28	08:08:07	08:13:53	342635	5d8125f63d05eb0001731115	4	1	main_z	7	advance_on_keypress_ZEE	88	stimuli_target_squaretriangles.svg	stimuli_distractor_trianglediamonds.svg	3	yes	57	0	1191	0	0			0	0			1				0	
6.6.1	win	2023-06-28	08:08:07	08:13:56	345474	5d8125f63d05eb0001731115	4	1	main_z	7	main_z	89	stimuli_distractor_diamondtriangles.svg	stimuli_target_rectanglediamonds.svg	14	yes	44	1	989	0	0			0	0			1				0	
6.6.1	win	2023-06-28	08:08:07	08:13:56	345474	5d8125f63d05eb0001731115	4	1	main_z	7	advance_on_keypress_ZEE	90	stimuli_distractor_diamondtriangles.svg	stimuli_target_rectanglediamonds.svg	14	yes	57	0	1053	0	0			0	0			1				0	
6.6.1	win	2023-06-28	08:08:07	08:13:58	347962	5d8125f63d05eb0001731115	4	1	main_z	7	main_z	91	stimuli_distractor_diamondtriangles.svg	stimuli_target_squarediamonds.svg	16	yes	44	1	786	0	0			0	0			1				0	
6.6.1	win	2023-06-28	08:08:07	08:13:58	347962	5d8125f63d05eb0001731115	4	1	main_z	7	advance_on_keypress_ZEE	92	stimuli_distractor_diamondtriangles.svg	stimuli_target_squarediamonds.svg	16	yes	57	0	1097	0	0			0	0			1				0	
6.6.1	win	2023-06-28	08:08:07	08:14:02	351726	5d8125f63d05eb0001731115	4	1	main_z	7	main_z	93	stimuli_distractor_trianglediamonds.svg	stimuli_distractor_trianglediamonds.svg	34	no	0	1	2000	0	0			0	0			1				0	
6.6.1	win	2023-06-28	08:08:07	08:14:02	351726	5d8125f63d05eb0001731115	4	1	main_z	7	advance_on_keypress_ZEE	94	stimuli_distractor_trianglediamonds.svg	stimuli_distractor_trianglediamonds.svg	34	no	57	0	482	0	0			0	0			1				0	
6.6.1	win	2023-06-28	08:08:07	08:14:04	353683	5d8125f63d05eb0001731115	4	1	main_z	7	main_z	95	stimuli_distractor_trianglediamonds.svg	stimuli_target_diamondrectangles.svg	27	yes	44	1	822	0	0			0	0			1				0	
6.6.1	win	2023-06-28	08:08:07	08:14:04	353683	5d8125f63d05eb0001731115	4	1	main_z	7	advance_on_keypress_ZEE	96	stimuli_distractor_trianglediamonds.svg	stimuli_target_diamondrectangles.svg	27	yes	57	0	1053	0	0			0	0			1				0	
6.6.1	win	2023-06-28	08:08:07	08:14:06	356323	5d8125f63d05eb0001731115	4	1	main_z	7	main_z	97	stimuli_target_squarediamonds.svg	stimuli_distractor_trianglediamonds.svg	4	yes	44	1	945	0	0			0	0			1				0	
6.6.1	win	2023-06-28	08:08:07	08:14:06	356323	5d8125f63d05eb0001731115	4	1	main_z	7	advance_on_keypress_ZEE	98	stimuli_target_squarediamonds.svg	stimuli_distractor_trianglediamonds.svg	4	yes	57	0	1179	0	0			0	0			1				0	
6.6.1	win	2023-06-28	08:08:07	08:14:09	359075	5d8125f63d05eb0001731115	4	1	main_z	7	main_z	99	stimuli_distractor_trianglediamonds.svg	stimuli_target_trianglerectangles.svg	25	yes	44	1	947	0	0			0	0			1				0	
6.6.1	win	2023-06-28	08:08:07	08:14:09	359075	5d8125f63d05eb0001731115	4	1	main_z	7	advance_on_keypress_ZEE	100	stimuli_distractor_trianglediamonds.svg	stimuli_target_trianglerectangles.svg	25	yes	57	0	796	0	0			0	0			1				0	
6.6.1	win	2023-06-28	08:08:07	08:14:13	362519	5d8125f63d05eb0001731115	4	1	main_z	7	main_z	101	stimuli_distractor_trianglediamonds.svg	stimuli_distractor_trianglediamonds.svg	33	no	0	1	2000	0	0			0	0			1				0	
6.6.1	win	2023-06-28	08:08:07	08:14:13	362519	5d8125f63d05eb0001731115	4	1	main_z	7	advance_on_keypress_ZEE	102	stimuli_distractor_trianglediamonds.svg	stimuli_distractor_trianglediamonds.svg	33	no	57	0	474	0	0			0	0			1				0	
6.6.1	win	2023-06-28	08:08:07	08:14:14	364418	5d8125f63d05eb0001731115	4	1	main_z	7	main_z	103	stimuli_target_rectanglediamonds.svg	stimuli_distractor_diamondtriangles.svg	6	yes	44	1	774	0	0			0	0			1				0	
6.6.1	win	2023-06-28	08:08:07	08:14:14	364418	5d8125f63d05eb0001731115	4	1	main_z	7	advance_on_keypress_ZEE	104	stimuli_target_rectanglediamonds.svg	stimuli_distractor_diamondtriangles.svg	6	yes	57	0	1079	0	0			0	0			1				0	
6.6.1	win	2023-06-28	08:08:07	08:14:17	367082	5d8125f63d05eb0001731115	4	1	main_z	7	main_z	105	stimuli_distractor_trianglediamonds.svg	stimuli_target_diamondsquares.svg	28	yes	44	1	938	0	0			0	0			1				0	
6.6.1	win	2023-06-28	08:08:07	08:14:17	367082	5d8125f63d05eb0001731115	4	1	main_z	7	advance_on_keypress_ZEE	106	stimuli_distractor_trianglediamonds.svg	stimuli_target_diamondsquares.svg	28	yes	57	0	1060	0	0			0	0			1				0	
6.6.1	win	2023-06-28	08:08:07	08:14:20	369735	5d8125f63d05eb0001731115	4	1	main_z	7	main_z	107	stimuli_target_squaretriangles.svg	stimuli_distractor_diamondtriangles.svg	7	yes	44	1	928	0	0			0	0			1				0	
6.6.1	win	2023-06-28	08:08:07	08:14:20	369735	5d8125f63d05eb0001731115	4	1	main_z	7	advance_on_keypress_ZEE	108	stimuli_target_squaretriangles.svg	stimuli_distractor_diamondtriangles.svg	7	yes	57	0	818	0	0			0	0			1				0	
6.6.1	win	2023-06-28	08:08:07	08:14:22	372127	5d8125f63d05eb0001731115	4	1	main_z	7	main_z	109	stimuli_distractor_diamondtriangles.svg	stimuli_target_rectangletriangles.svg	13	yes	44	1	928	0	0			0	0			1				0	
6.6.1	win	2023-06-28	08:08:07	08:14:22	372127	5d8125f63d05eb0001731115	4	1	main_z	7	advance_on_keypress_ZEE	110	stimuli_distractor_diamondtriangles.svg	stimuli_target_rectangletriangles.svg	13	yes	57	0	770	0	0			0	0			1				0	
6.6.1	win	2023-06-28	08:08:07	08:14:26	375544	5d8125f63d05eb0001731115	4	1	main_z	7	main_z	111	stimuli_distractor_diamondtriangles.svg	stimuli_distractor_diamondtriangles.svg	40	no	0	1	2000	0	0			0	0			1				0	
6.6.1	win	2023-06-28	08:08:07	08:14:26	375544	5d8125f63d05eb0001731115	4	1	main_z	7	advance_on_keypress_ZEE	112	stimuli_distractor_diamondtriangles.svg	stimuli_distractor_diamondtriangles.svg	40	no	57	0	281	0	0			0	0			1				0	
6.6.1	win	2023-06-28	08:08:07	08:14:27	377202	5d8125f63d05eb0001731115	4	1	main_z	7	main_z	113	stimuli_target_diamondsquares.svg	stimuli_distractor_trianglediamonds.svg	20	yes	44	1	725	0	0			0	0			1				0	
6.6.1	win	2023-06-28	08:08:07	08:14:27	377202	5d8125f63d05eb0001731115	4	1	main_z	7	advance_on_keypress_ZEE	114	stimuli_target_diamondsquares.svg	stimuli_distractor_trianglediamonds.svg	20	yes	57	0	887	0	0			0	0			1				0	
6.6.1	win	2023-06-28	08:08:07	08:14:30	379643	5d8125f63d05eb0001731115	4	1	main_z	7	main_z	115	stimuli_target_trianglesquares.svg	stimuli_distractor_trianglediamonds.svg	18	yes	44	1	897	0	0			0	0			1				0	
6.6.1	win	2023-06-28	08:08:07	08:14:30	379643	5d8125f63d05eb0001731115	4	1	main_z	7	advance_on_keypress_ZEE	116	stimuli_target_trianglesquares.svg	stimuli_distractor_trianglediamonds.svg	18	yes	57	0	676	0	0			0	0			1				0	
6.6.1	win	2023-06-28	08:08:07	08:14:32	381957	5d8125f63d05eb0001731115	4	1	main_z	7	main_z	117	stimuli_target_diamondrectangles.svg	stimuli_distractor_diamondtriangles.svg	23	yes	44	1	968	0	0			0	0			1				0	
6.6.1	win	2023-06-28	08:08:07	08:14:32	381957	5d8125f63d05eb0001731115	4	1	main_z	7	advance_on_keypress_ZEE	118	stimuli_target_diamondrectangles.svg	stimuli_distractor_diamondtriangles.svg	23	yes	57	0	785	0	0			0	0			1				0	
6.6.1	win	2023-06-28	08:08:07	08:14:35	384512	5d8125f63d05eb0001731115	4	1	main_z	7	main_z	119	stimuli_target_rectangletriangles.svg	stimuli_distractor_diamondtriangles.svg	5	yes	44	1	1136	0	0			0	0			1				0	
6.6.1	win	2023-06-28	08:08:07	08:14:35	384512	5d8125f63d05eb0001731115	4	1	main_z	7	advance_on_keypress_ZEE	120	stimuli_target_rectangletriangles.svg	stimuli_distractor_diamondtriangles.svg	5	yes	57	0	754	0	0			0	0			1				0	
6.6.1	win	2023-06-28	08:08:07	08:14:38	387911	5d8125f63d05eb0001731115	4	1	main_z	7	main_z	121	stimuli_distractor_trianglediamonds.svg	stimuli_distractor_diamondtriangles.svg	36	no	0	1	2000	0	0			0	0			1				0	
6.6.1	win	2023-06-28	08:08:07	08:14:38	387911	5d8125f63d05eb0001731115	4	1	main_z	7	advance_on_keypress_ZEE	122	stimuli_distractor_trianglediamonds.svg	stimuli_distractor_diamondtriangles.svg	36	no	57	0	306	0	0			0	0			1				0	
6.6.1	win	2023-06-28	08:08:07	08:14:40	389681	5d8125f63d05eb0001731115	4	1	main_z	7	main_z	123	stimuli_target_squarediamonds.svg	stimuli_distractor_diamondtriangles.svg	8	yes	44	1	821	0	0			0	0			1				0	
6.6.1	win	2023-06-28	08:08:07	08:14:40	389681	5d8125f63d05eb0001731115	4	1	main_z	7	advance_on_keypress_ZEE	124	stimuli_target_squarediamonds.svg	stimuli_distractor_diamondtriangles.svg	8	yes	57	0	795	0	0			0	0			1				0	
6.6.1	win	2023-06-28	08:08:07	08:14:43	393130	5d8125f63d05eb0001731115	4	1	main_z	7	main_z	125	stimuli_distractor_diamondtriangles.svg	stimuli_distractor_trianglediamonds.svg	38	no	0	1	2000	0	0			0	0			1				0	
6.6.1	win	2023-06-28	08:08:07	08:14:43	393130	5d8125f63d05eb0001731115	4	1	main_z	7	advance_on_keypress_ZEE	126	stimuli_distractor_diamondtriangles.svg	stimuli_distractor_trianglediamonds.svg	38	no	57	0	466	0	0			0	0			1				0	
6.6.1	win	2023-06-28	08:08:07	08:14:45	395175	5d8125f63d05eb0001731115	4	1	main_z	7	main_z	127	stimuli_distractor_diamondtriangles.svg	stimuli_target_trianglesquares.svg	30	yes	44	1	918	0	0			0	0			1				0	
6.6.1	win	2023-06-28	08:08:07	08:14:45	395175	5d8125f63d05eb0001731115	4	1	main_z	7	advance_on_keypress_ZEE	128	stimuli_distractor_diamondtriangles.svg	stimuli_target_trianglesquares.svg	30	yes	57	0	928	0	0			0	0			1				0	
6.6.1	win	2023-06-28	08:08:07	08:14:49	398758	5d8125f63d05eb0001731115	4	1	main_z	7	main_z	129	stimuli_distractor_diamondtriangles.svg	stimuli_distractor_diamondtriangles.svg	39	no	0	1	2000	0	0			0	0			1				0	
6.6.1	win	2023-06-28	08:08:07	08:14:49	398758	5d8125f63d05eb0001731115	4	1	main_z	7	advance_on_keypress_ZEE	130	stimuli_distractor_diamondtriangles.svg	stimuli_distractor_diamondtriangles.svg	39	no	57	0	384	0	0			0	0			1				0	
6.6.1	win	2023-06-28	08:08:07	08:14:51	400664	5d8125f63d05eb0001731115	4	1	main_z	7	main_z	131	stimuli_distractor_trianglediamonds.svg	stimuli_target_rectangletriangles.svg	9	yes	44	1	871	0	0			0	0			1				0	
6.6.1	win	2023-06-28	08:08:07	08:14:51	400664	5d8125f63d05eb0001731115	4	1	main_z	7	advance_on_keypress_ZEE	132	stimuli_distractor_trianglediamonds.svg	stimuli_target_rectangletriangles.svg	9	yes	57	0	683	0	0			0	0			1				0	
6.6.1	win	2023-06-28	08:08:07	08:14:53	402968	5d8125f63d05eb0001731115	4	1	main_z	7	main_z	133	stimuli_target_diamondrectangles.svg	stimuli_distractor_trianglediamonds.svg	19	yes	44	1	975	0	0			0	0			1				0	
6.6.1	win	2023-06-28	08:08:07	08:14:53	402968	5d8125f63d05eb0001731115	4	1	main_z	7	advance_on_keypress_ZEE	134	stimuli_target_diamondrectangles.svg	stimuli_distractor_trianglediamonds.svg	19	yes	57	0	664	0	0			0	0			1				0	
6.6.1	win	2023-06-28	08:08:07	08:14:55	405374	5d8125f63d05eb0001731115	4	1	main_z	7	main_z	135	stimuli_distractor_trianglediamonds.svg	stimuli_target_trianglesquares.svg	26	yes	44	1	1083	0	0			0	0			1				0	
6.6.1	win	2023-06-28	08:08:07	08:14:55	405374	5d8125f63d05eb0001731115	4	1	main_z	7	advance_on_keypress_ZEE	136	stimuli_distractor_trianglediamonds.svg	stimuli_target_trianglesquares.svg	26	yes	57	0	575	0	0			0	0			1				0	
6.6.1	win	2023-06-28	08:08:07	08:14:58	407576	5d8125f63d05eb0001731115	4	1	main_z	7	main_z	137	stimuli_target_diamondsquares.svg	stimuli_distractor_diamondtriangles.svg	24	yes	44	1	966	0	0			0	0			1				0	
6.6.1	win	2023-06-28	08:08:07	08:14:58	407576	5d8125f63d05eb0001731115	4	1	main_z	7	advance_on_keypress_ZEE	138	stimuli_target_diamondsquares.svg	stimuli_distractor_diamondtriangles.svg	24	yes	57	0	735	0	0			0	0			1				0	
6.6.1	win	2023-06-28	08:08:07	08:15:00	409993	5d8125f63d05eb0001731115	4	1	main_z	7	main_z	139	stimuli_distractor_trianglediamonds.svg	stimuli_target_squarediamonds.svg	12	yes	44	1	1032	0	0			0	0			1				0	
6.6.1	win	2023-06-28	08:08:07	08:15:00	409993	5d8125f63d05eb0001731115	4	1	main_z	7	advance_on_keypress_ZEE	140	stimuli_distractor_trianglediamonds.svg	stimuli_target_squarediamonds.svg	12	yes	57	0	574	0	0			0	0			1				0	
6.6.1	win	2023-06-28	08:08:07	08:15:02	412315	5d8125f63d05eb0001731115	4	1	main_z	7	main_z	141	stimuli_target_trianglerectangles.svg	stimuli_distractor_trianglediamonds.svg	17	yes	44	1	1102	0	0			0	0			1				0	
6.6.1	win	2023-06-28	08:08:07	08:15:02	412315	5d8125f63d05eb0001731115	4	1	main_z	7	advance_on_keypress_ZEE	142	stimuli_target_trianglerectangles.svg	stimuli_distractor_trianglediamonds.svg	17	yes	57	0	769	0	0			0	0			1				0	
6.6.1	win	2023-06-28	08:08:07	08:15:05	414740	5d8125f63d05eb0001731115	4	1	main_z	7	main_z	143	stimuli_target_rectanglediamonds.svg	stimuli_distractor_trianglediamonds.svg	2	yes	44	1	985	0	0			0	0			1				0	
6.6.1	win	2023-06-28	08:08:07	08:15:05	414740	5d8125f63d05eb0001731115	4	1	main_z	7	advance_on_keypress_ZEE	144	stimuli_target_rectanglediamonds.svg	stimuli_distractor_trianglediamonds.svg	2	yes	57	0	608	0	0			0	0			1				0	
6.6.1	win	2023-06-28	08:08:07	08:15:08	417994	5d8125f63d05eb0001731115	4	1	main_z	7	main_z	145	stimuli_distractor_diamondtriangles.svg	stimuli_distractor_trianglediamonds.svg	37	no	0	1	2000	0	0			0	0			1				0	
6.6.1	win	2023-06-28	08:08:07	08:15:08	417994	5d8125f63d05eb0001731115	4	1	main_z	7	advance_on_keypress_ZEE	146	stimuli_distractor_diamondtriangles.svg	stimuli_distractor_trianglediamonds.svg	37	no	57	0	662	0	0			0	0			1				0	
6.6.1	win	2023-06-28	08:08:07	08:15:10	420285	5d8125f63d05eb0001731115	4	1	main_z	7	main_z	147	stimuli_distractor_diamondtriangles.svg	stimuli_target_diamondrectangles.svg	31	yes	44	1	961	0	0			0	0			1				0	
6.6.1	win	2023-06-28	08:08:07	08:15:10	420285	5d8125f63d05eb0001731115	4	1	main_z	7	advance_on_keypress_ZEE	148	stimuli_distractor_diamondtriangles.svg	stimuli_target_diamondrectangles.svg	31	yes	57	0	594	0	0			0	0			1				0	
6.6.1	win	2023-06-28	08:08:07	08:15:13	422727	5d8125f63d05eb0001731115	4	1	main_z	7	main_z	149	stimuli_distractor_diamondtriangles.svg	stimuli_target_trianglerectangles.svg	29	yes	44	1	1210	0	0			0	0			1				0	
6.6.1	win	2023-06-28	08:08:07	08:15:13	422727	5d8125f63d05eb0001731115	4	1	main_z	7	advance_on_keypress_ZEE	150	stimuli_distractor_diamondtriangles.svg	stimuli_target_trianglerectangles.svg	29	yes	57	0	824	0	0			0	0			1				0	
6.6.1	win	2023-06-28	08:08:07	08:15:15	425375	5d8125f63d05eb0001731115	4	1	main_z	7	main_z	151	stimuli_distractor_diamondtriangles.svg	stimuli_target_diamondsquares.svg	32	yes	44	1	1166	0	0			0	0			1				0	
6.6.1	win	2023-06-28	08:08:07	08:15:15	425375	5d8125f63d05eb0001731115	4	1	main_z	7	advance_on_keypress_ZEE	152	stimuli_distractor_diamondtriangles.svg	stimuli_target_diamondsquares.svg	32	yes	57	0	694	0	0			0	0			1				0	
6.6.1	win	2023-06-28	08:08:07	08:15:18	427868	5d8125f63d05eb0001731115	4	1	main_z	7	main_z	153	stimuli_target_rectangletriangles.svg	stimuli_distractor_trianglediamonds.svg	1	yes	44	1	1129	0	0			0	0			1				0	
6.6.1	win	2023-06-28	08:08:07	08:15:18	427868	5d8125f63d05eb0001731115	4	1	main_z	7	advance_on_keypress_ZEE	154	stimuli_target_rectangletriangles.svg	stimuli_distractor_trianglediamonds.svg	1	yes	57	0	875	0	0			0	0			1				0	
6.6.1	win	2023-06-28	08:08:07	08:15:21	430563	5d8125f63d05eb0001731115	4	1	main_z	7	main_z	155	stimuli_target_trianglesquares.svg	stimuli_distractor_diamondtriangles.svg	22	yes	44	1	1175	0	0			0	0			1				0	
6.6.1	win	2023-06-28	08:08:07	08:15:21	430563	5d8125f63d05eb0001731115	4	1	main_z	7	advance_on_keypress_ZEE	156	stimuli_target_trianglesquares.svg	stimuli_distractor_diamondtriangles.svg	22	yes	57	0	759	0	0			0	0			1				0	
6.6.1	win	2023-06-28	08:08:07	08:15:23	433047	5d8125f63d05eb0001731115	4	1	main_z	7	main_z	157	stimuli_target_trianglerectangles.svg	stimuli_distractor_diamondtriangles.svg	21	yes	44	1	1071	0	0			0	0			1				0	
6.6.1	win	2023-06-28	08:08:07	08:15:23	433047	5d8125f63d05eb0001731115	4	1	main_z	7	advance_on_keypress_ZEE	158	stimuli_target_trianglerectangles.svg	stimuli_distractor_diamondtriangles.svg	21	yes	57	0	907	0	0			0	0			1				0	
6.6.1	win	2023-06-28	08:08:07	08:15:27	436592	5d8125f63d05eb0001731115	4	1	main_z	7	main_z	159	stimuli_distractor_trianglediamonds.svg	stimuli_target_squaretriangles.svg	11	yes	0	0	2000	0	0			0	0			1				0	
6.6.1	win	2023-06-28	08:08:07	08:15:27	436592	5d8125f63d05eb0001731115	4	1	main_z	7	advance_on_keypress_ZEE	160	stimuli_distractor_trianglediamonds.svg	stimuli_target_squaretriangles.svg	11	yes	57	0	693	0	0			0	0			1				0	
6.6.1	win	2023-06-28	08:08:07	08:15:58	467825	5d8125f63d05eb0001731115	4	1	practice_slash	9	practice_slash	1	stimuli_distractor_trianglediamonds.svg	stimuli_target_diamondrectangles.svg	12	yes	53	1	780	0	0			0	0			1				0	
6.6.1	win	2023-06-28	08:08:07	08:15:58	467825	5d8125f63d05eb0001731115	4	1	practice_slash	9	advance_on_keypress_SLASH	2	stimuli_distractor_trianglediamonds.svg	stimuli_target_diamondrectangles.svg	12	yes	57	0	1227	0	0			0	0			1				0	
6.6.1	win	2023-06-28	08:08:07	08:16:01	471452	5d8125f63d05eb0001731115	4	1	practice_slash	9	practice_slash	3	stimuli_distractor_trianglediamonds.svg	stimuli_target_rectanglediamonds.svg	10	yes	53	1	718	0	0			0	0			1				0	
6.6.1	win	2023-06-28	08:08:07	08:16:01	471452	5d8125f63d05eb0001731115	4	1	practice_slash	9	advance_on_keypress_SLASH	4	stimuli_distractor_trianglediamonds.svg	stimuli_target_rectanglediamonds.svg	10	yes	57	0	738	0	0			0	0			1				0	
6.6.1	win	2023-06-28	08:08:07	08:16:05	474486	5d8125f63d05eb0001731115	4	1	practice_slash	9	practice_slash	5	stimuli_distractor_diamondtriangles.svg	stimuli_target_trianglerectangles.svg	9	yes	53	1	642	0	0			0	0			1				0	
6.6.1	win	2023-06-28	08:08:07	08:16:05	474486	5d8125f63d05eb0001731115	4	1	practice_slash	9	advance_on_keypress_SLASH	6	stimuli_distractor_diamondtriangles.svg	stimuli_target_trianglerectangles.svg	9	yes	57	0	569	0	0			0	0			1				0	
6.6.1	win	2023-06-28	08:08:07	08:16:09	478711	5d8125f63d05eb0001731115	4	1	practice_slash	9	practice_slash	7	stimuli_distractor_trianglediamonds.svg	stimuli_distractor_diamondtriangles.svg	16	no	0	1	2000	0	0			0	0			1				0	
6.6.1	win	2023-06-28	08:08:07	08:16:09	478711	5d8125f63d05eb0001731115	4	1	practice_slash	9	advance_on_keypress_SLASH	8	stimuli_distractor_trianglediamonds.svg	stimuli_distractor_diamondtriangles.svg	16	no	57	0	527	0	0			0	0			1				0	
6.6.1	win	2023-06-28	08:08:07	08:16:12	481582	5d8125f63d05eb0001731115	4	1	practice_slash	9	practice_slash	9	stimuli_distractor_diamondtriangles.svg	stimuli_target_diamondrectangles.svg	8	yes	53	1	689	0	0			0	0			1				0	
6.6.1	win	2023-06-28	08:08:07	08:16:12	481582	5d8125f63d05eb0001731115	4	1	practice_slash	9	advance_on_keypress_SLASH	10	stimuli_distractor_diamondtriangles.svg	stimuli_target_diamondrectangles.svg	8	yes	57	0	997	0	0			0	0			1				0	
6.6.1	win	2023-06-28	08:08:07	08:16:15	484994	5d8125f63d05eb0001731115	4	1	practice_slash	9	practice_slash	11	stimuli_target_squarediamonds.svg	stimuli_distractor_trianglediamonds.svg	5	yes	53	1	748	0	0			0	0			1				0	
6.6.1	win	2023-06-28	08:08:07	08:16:15	484994	5d8125f63d05eb0001731115	4	1	practice_slash	9	advance_on_keypress_SLASH	12	stimuli_target_squarediamonds.svg	stimuli_distractor_trianglediamonds.svg	5	yes	57	0	532	0	0			0	0			1				0	
6.6.1	win	2023-06-28	08:08:07	08:16:18	487822	5d8125f63d05eb0001731115	4	1	practice_slash	9	practice_slash	13	stimuli_target_squarediamonds.svg	stimuli_distractor_diamondtriangles.svg	2	yes	53	1	646	0	0			0	0			1				0	
6.6.1	win	2023-06-28	08:08:07	08:16:18	487822	5d8125f63d05eb0001731115	4	1	practice_slash	9	advance_on_keypress_SLASH	14	stimuli_target_squarediamonds.svg	stimuli_distractor_diamondtriangles.svg	2	yes	57	0	579	0	0			0	0			1				0	
6.6.1	win	2023-06-28	08:08:07	08:16:21	490789	5d8125f63d05eb0001731115	4	1	practice_slash	9	practice_slash	15	stimuli_target_rectanglediamonds.svg	stimuli_distractor_diamondtriangles.svg	1	yes	53	1	729	0	0			0	0			1				0	
6.6.1	win	2023-06-28	08:08:07	08:16:21	490789	5d8125f63d05eb0001731115	4	1	practice_slash	9	advance_on_keypress_SLASH	16	stimuli_target_rectanglediamonds.svg	stimuli_distractor_diamondtriangles.svg	1	yes	57	0	492	0	0			0	0			1				0	
6.6.1	win	2023-06-28	08:08:07	08:16:24	493777	5d8125f63d05eb0001731115	4	1	practice_slash	9	practice_slash	17	stimuli_target_diamondsquares.svg	stimuli_distractor_diamondtriangles.svg	3	yes	53	1	832	0	0			0	0			1				0	
6.6.1	win	2023-06-28	08:08:07	08:16:24	493777	5d8125f63d05eb0001731115	4	1	practice_slash	9	advance_on_keypress_SLASH	18	stimuli_target_diamondsquares.svg	stimuli_distractor_diamondtriangles.svg	3	yes	57	0	524	0	0			0	0			1				0	
6.6.1	win	2023-06-28	08:08:07	08:16:27	496637	5d8125f63d05eb0001731115	4	1	practice_slash	9	practice_slash	19	stimuli_target_diamondsquares.svg	stimuli_distractor_trianglediamonds.svg	6	yes	53	1	677	0	0			0	0			1				0	
6.6.1	win	2023-06-28	08:08:07	08:16:27	496637	5d8125f63d05eb0001731115	4	1	practice_slash	9	advance_on_keypress_SLASH	20	stimuli_target_diamondsquares.svg	stimuli_distractor_trianglediamonds.svg	6	yes	57	0	354	0	0			0	0			1				0	
6.6.1	win	2023-06-28	08:08:07	08:16:30	499559	5d8125f63d05eb0001731115	4	1	practice_slash	9	practice_slash	21	stimuli_distractor_diamondtriangles.svg	stimuli_target_rectangletriangles.svg	7	yes	53	1	890	0	0			0	0			1				0	
6.6.1	win	2023-06-28	08:08:07	08:16:30	499559	5d8125f63d05eb0001731115	4	1	practice_slash	9	advance_on_keypress_SLASH	22	stimuli_distractor_diamondtriangles.svg	stimuli_target_rectangletriangles.svg	7	yes	57	0	477	0	0			0	0			1				0	
6.6.1	win	2023-06-28	08:08:07	08:16:34	503693	5d8125f63d05eb0001731115	4	1	practice_slash	9	practice_slash	23	stimuli_distractor_diamondtriangles.svg	stimuli_distractor_trianglediamonds.svg	14	no	0	1	2000	0	0			0	0			1				0	
6.6.1	win	2023-06-28	08:08:07	08:16:34	503693	5d8125f63d05eb0001731115	4	1	practice_slash	9	advance_on_keypress_SLASH	24	stimuli_distractor_diamondtriangles.svg	stimuli_distractor_trianglediamonds.svg	14	no	57	0	352	0	0			0	0			1				0	
6.6.1	win	2023-06-28	08:08:07	08:16:38	507727	5d8125f63d05eb0001731115	4	1	practice_slash	9	practice_slash	25	stimuli_distractor_diamondtriangles.svg	stimuli_distractor_diamondtriangles.svg	13	no	0	1	2000	0	0			0	0			1				0	
6.6.1	win	2023-06-28	08:08:07	08:16:38	507727	5d8125f63d05eb0001731115	4	1	practice_slash	9	advance_on_keypress_SLASH	26	stimuli_distractor_diamondtriangles.svg	stimuli_distractor_diamondtriangles.svg	13	no	57	0	733	0	0			0	0			1				0	
6.6.1	win	2023-06-28	08:08:07	08:16:42	512135	5d8125f63d05eb0001731115	4	1	practice_slash	9	practice_slash	27	stimuli_distractor_trianglediamonds.svg	stimuli_distractor_trianglediamonds.svg	15	no	0	1	2000	0	0			0	0			1				0	
6.6.1	win	2023-06-28	08:08:07	08:16:42	512135	5d8125f63d05eb0001731115	4	1	practice_slash	9	advance_on_keypress_SLASH	28	stimuli_distractor_trianglediamonds.svg	stimuli_distractor_trianglediamonds.svg	15	no	57	0	358	0	0			0	0			1				0	
6.6.1	win	2023-06-28	08:08:07	08:16:45	514724	5d8125f63d05eb0001731115	4	1	practice_slash	9	practice_slash	29	stimuli_target_rectanglediamonds.svg	stimuli_distractor_trianglediamonds.svg	4	yes	53	1	598	0	0			0	0			1				0	
6.6.1	win	2023-06-28	08:08:07	08:16:45	514724	5d8125f63d05eb0001731115	4	1	practice_slash	9	advance_on_keypress_SLASH	30	stimuli_target_rectanglediamonds.svg	stimuli_distractor_trianglediamonds.svg	4	yes	57	0	478	0	0			0	0			1				0	
6.6.1	win	2023-06-28	08:08:07	08:16:48	517515	5d8125f63d05eb0001731115	4	1	practice_slash	9	practice_slash	31	stimuli_distractor_trianglediamonds.svg	stimuli_target_squarediamonds.svg	11	yes	53	1	657	0	0			0	0			1				0	
6.6.1	win	2023-06-28	08:08:07	08:16:48	517515	5d8125f63d05eb0001731115	4	1	practice_slash	9	advance_on_keypress_SLASH	32	stimuli_distractor_trianglediamonds.svg	stimuli_target_squarediamonds.svg	11	yes	57	0	590	0	0			0	0			1				0	
6.6.1	win	2023-06-28	08:08:07	08:16:56	526338	5d8125f63d05eb0001731115	4	1	main_slash	11	main_slash	1	stimuli_distractor_trianglediamonds.svg	stimuli_target_squarediamonds.svg	12	yes	53	1	748	0	0			0	0			1				0	
6.6.1	win	2023-06-28	08:08:07	08:16:56	526338	5d8125f63d05eb0001731115	4	1	main_slash	11	advance_on_keypress_SLASH	2	stimuli_distractor_trianglediamonds.svg	stimuli_target_squarediamonds.svg	12	yes	57	0	957	0	0			0	0			1				0	
6.6.1	win	2023-06-28	08:08:07	08:16:59	528620	5d8125f63d05eb0001731115	4	1	main_slash	11	main_slash	3	stimuli_distractor_diamondtriangles.svg	stimuli_target_diamondrectangles.svg	31	yes	53	1	660	0	0			0	0			1				0	
6.6.1	win	2023-06-28	08:08:07	08:16:59	528620	5d8125f63d05eb0001731115	4	1	main_slash	11	advance_on_keypress_SLASH	4	stimuli_distractor_diamondtriangles.svg	stimuli_target_diamondrectangles.svg	31	yes	57	0	746	0	0			0	0			1				0	
6.6.1	win	2023-06-28	08:08:07	08:17:02	532007	5d8125f63d05eb0001731115	4	1	main_slash	11	main_slash	5	stimuli_distractor_diamondtriangles.svg	stimuli_distractor_trianglediamonds.svg	38	no	0	1	2000	0	0			0	0			1				0	
6.6.1	win	2023-06-28	08:08:07	08:17:02	532007	5d8125f63d05eb0001731115	4	1	main_slash	11	advance_on_keypress_SLASH	6	stimuli_distractor_diamondtriangles.svg	stimuli_distractor_trianglediamonds.svg	38	no	57	0	338	0	0			0	0			1				0	
6.6.1	win	2023-06-28	08:08:07	08:17:05	535007	5d8125f63d05eb0001731115	4	1	main_slash	11	main_slash	7	stimuli_distractor_trianglediamonds.svg	stimuli_distractor_trianglediamonds.svg	33	no	0	1	2000	0	0			0	0			1				0	
6.6.1	win	2023-06-28	08:08:07	08:17:05	535007	5d8125f63d05eb0001731115	4	1	main_slash	11	advance_on_keypress_SLASH	8	stimuli_distractor_trianglediamonds.svg	stimuli_distractor_trianglediamonds.svg	33	no	57	0	306	0	0			0	0			1				0	
6.6.1	win	2023-06-28	08:08:07	08:17:07	536721	5d8125f63d05eb0001731115	4	1	main_slash	11	main_slash	9	stimuli_target_trianglerectangles.svg	stimuli_distractor_trianglediamonds.svg	17	yes	53	1	748	0	0			0	0			1				0	
6.6.1	win	2023-06-28	08:08:07	08:17:07	536721	5d8125f63d05eb0001731115	4	1	main_slash	11	advance_on_keypress_SLASH	10	stimuli_target_trianglerectangles.svg	stimuli_distractor_trianglediamonds.svg	17	yes	57	0	757	0	0			0	0			1				0	
6.6.1	win	2023-06-28	08:08:07	08:17:09	538793	5d8125f63d05eb0001731115	4	1	main_slash	11	main_slash	11	stimuli_target_trianglesquares.svg	stimuli_distractor_diamondtriangles.svg	22	yes	53	1	670	0	0			0	0			1				0	
6.6.1	win	2023-06-28	08:08:07	08:17:09	538793	5d8125f63d05eb0001731115	4	1	main_slash	11	advance_on_keypress_SLASH	12	stimuli_target_trianglesquares.svg	stimuli_distractor_diamondtriangles.svg	22	yes	57	0	731	0	0			0	0			1				0	
6.6.1	win	2023-06-28	08:08:07	08:17:12	542184	5d8125f63d05eb0001731115	4	1	main_slash	11	main_slash	13	stimuli_distractor_trianglediamonds.svg	stimuli_distractor_trianglediamonds.svg	34	no	0	1	2000	0	0			0	0			1				0	
6.6.1	win	2023-06-28	08:08:07	08:17:12	542184	5d8125f63d05eb0001731115	4	1	main_slash	11	advance_on_keypress_SLASH	14	stimuli_distractor_trianglediamonds.svg	stimuli_distractor_trianglediamonds.svg	34	no	57	0	355	0	0			0	0			1				0	
6.6.1	win	2023-06-28	08:08:07	08:17:14	543825	5d8125f63d05eb0001731115	4	1	main_slash	11	main_slash	15	stimuli_distractor_diamondtriangles.svg	stimuli_target_diamondsquares.svg	32	yes	53	1	651	0	0			0	0			1				0	
6.6.1	win	2023-06-28	08:08:07	08:17:14	543825	5d8125f63d05eb0001731115	4	1	main_slash	11	advance_on_keypress_SLASH	16	stimuli_distractor_diamondtriangles.svg	stimuli_target_diamondsquares.svg	32	yes	57	0	809	0	0			0	0			1				0	
6.6.1	win	2023-06-28	08:08:07	08:17:16	545928	5d8125f63d05eb0001731115	4	1	main_slash	11	main_slash	17	stimuli_target_rectanglediamonds.svg	stimuli_distractor_diamondtriangles.svg	6	yes	53	1	638	0	0			0	0			1				0	
6.6.1	win	2023-06-28	08:08:07	08:17:16	545928	5d8125f63d05eb0001731115	4	1	main_slash	11	advance_on_keypress_SLASH	18	stimuli_target_rectanglediamonds.svg	stimuli_distractor_diamondtriangles.svg	6	yes	57	0	708	0	0			0	0			1				0	
6.6.1	win	2023-06-28	08:08:07	08:17:19	549291	5d8125f63d05eb0001731115	4	1	main_slash	11	main_slash	19	stimuli_distractor_trianglediamonds.svg	stimuli_distractor_diamondtriangles.svg	36	no	0	1	2000	0	0			0	0			1				0	
6.6.1	win	2023-06-28	08:08:07	08:17:19	549291	5d8125f63d05eb0001731115	4	1	main_slash	11	advance_on_keypress_SLASH	20	stimuli_distractor_trianglediamonds.svg	stimuli_distractor_diamondtriangles.svg	36	no	57	0	318	0	0			0	0			1				0	
6.6.1	win	2023-06-28	08:08:07	08:17:21	550871	5d8125f63d05eb0001731115	4	1	main_slash	11	main_slash	21	stimuli_target_squaretriangles.svg	stimuli_distractor_trianglediamonds.svg	3	yes	53	1	607	0	0			0	0			1				0	
6.6.1	win	2023-06-28	08:08:07	08:17:21	550871	5d8125f63d05eb0001731115	4	1	main_slash	11	advance_on_keypress_SLASH	22	stimuli_target_squaretriangles.svg	stimuli_distractor_trianglediamonds.svg	3	yes	57	0	751	0	0			0	0			1				0	
6.6.1	win	2023-06-28	08:08:07	08:17:24	554273	5d8125f63d05eb0001731115	4	1	main_slash	11	main_slash	23	stimuli_distractor_diamondtriangles.svg	stimuli_distractor_trianglediamonds.svg	37	no	0	1	2000	0	0			0	0			1				0	
6.6.1	win	2023-06-28	08:08:07	08:17:24	554273	5d8125f63d05eb0001731115	4	1	main_slash	11	advance_on_keypress_SLASH	24	stimuli_distractor_diamondtriangles.svg	stimuli_distractor_trianglediamonds.svg	37	no	57	0	286	0	0			0	0			1				0	
6.6.1	win	2023-06-28	08:08:07	08:17:26	555897	5d8125f63d05eb0001731115	4	1	main_slash	11	main_slash	25	stimuli_target_diamondrectangles.svg	stimuli_distractor_trianglediamonds.svg	19	yes	53	1	690	0	0			0	0			1				0	
6.6.1	win	2023-06-28	08:08:07	08:17:26	555897	5d8125f63d05eb0001731115	4	1	main_slash	11	advance_on_keypress_SLASH	26	stimuli_target_diamondrectangles.svg	stimuli_distractor_trianglediamonds.svg	19	yes	57	0	678	0	0			0	0			1				0	
6.6.1	win	2023-06-28	08:08:07	08:17:29	559235	5d8125f63d05eb0001731115	4	1	main_slash	11	main_slash	27	stimuli_distractor_diamondtriangles.svg	stimuli_distractor_diamondtriangles.svg	39	no	0	1	2000	0	0			0	0			1				0	
6.6.1	win	2023-06-28	08:08:07	08:17:29	559235	5d8125f63d05eb0001731115	4	1	main_slash	11	advance_on_keypress_SLASH	28	stimuli_distractor_diamondtriangles.svg	stimuli_distractor_diamondtriangles.svg	39	no	57	0	281	0	0			0	0			1				0	
6.6.1	win	2023-06-28	08:08:07	08:17:31	560861	5d8125f63d05eb0001731115	4	1	main_slash	11	main_slash	29	stimuli_distractor_trianglediamonds.svg	stimuli_target_rectanglediamonds.svg	10	yes	53	1	692	0	0			0	0			1				0	
6.6.1	win	2023-06-28	08:08:07	08:17:31	560861	5d8125f63d05eb0001731115	4	1	main_slash	11	advance_on_keypress_SLASH	30	stimuli_distractor_trianglediamonds.svg	stimuli_target_rectanglediamonds.svg	10	yes	57	0	687	0	0			0	0			1				0	
6.6.1	win	2023-06-28	08:08:07	08:17:33	563071	5d8125f63d05eb0001731115	4	1	main_slash	11	main_slash	31	stimuli_target_trianglesquares.svg	stimuli_distractor_trianglediamonds.svg	18	yes	53	1	882	0	0			0	0			1				0	
6.6.1	win	2023-06-28	08:08:07	08:17:33	563071	5d8125f63d05eb0001731115	4	1	main_slash	11	advance_on_keypress_SLASH	32	stimuli_target_trianglesquares.svg	stimuli_distractor_trianglediamonds.svg	18	yes	57	0	638	0	0			0	0			1				0	
6.6.1	win	2023-06-28	08:08:07	08:17:35	565397	5d8125f63d05eb0001731115	4	1	main_slash	11	main_slash	33	stimuli_distractor_diamondtriangles.svg	stimuli_target_squaretriangles.svg	15	yes	53	1	1028	0	0			0	0			1				0	
6.6.1	win	2023-06-28	08:08:07	08:17:35	565397	5d8125f63d05eb0001731115	4	1	main_slash	11	advance_on_keypress_SLASH	34	stimuli_distractor_diamondtriangles.svg	stimuli_target_squaretriangles.svg	15	yes	57	0	722	0	0			0	0			1				0	
6.6.1	win	2023-06-28	08:08:07	08:17:38	567755	5d8125f63d05eb0001731115	4	1	main_slash	11	main_slash	35	stimuli_distractor_trianglediamonds.svg	stimuli_target_diamondsquares.svg	28	yes	53	1	979	0	0			0	0			1				0	
6.6.1	win	2023-06-28	08:08:07	08:17:38	567755	5d8125f63d05eb0001731115	4	1	main_slash	11	advance_on_keypress_SLASH	36	stimuli_distractor_trianglediamonds.svg	stimuli_target_diamondsquares.svg	28	yes	57	0	667	0	0			0	0			1				0	
6.6.1	win	2023-06-28	08:08:07	08:17:41	571098	5d8125f63d05eb0001731115	4	1	main_slash	11	main_slash	37	stimuli_distractor_diamondtriangles.svg	stimuli_distractor_diamondtriangles.svg	40	no	0	1	2000	0	0			0	0			1				0	
6.6.1	win	2023-06-28	08:08:07	08:17:41	571098	5d8125f63d05eb0001731115	4	1	main_slash	11	advance_on_keypress_SLASH	38	stimuli_distractor_diamondtriangles.svg	stimuli_distractor_diamondtriangles.svg	40	no	57	0	405	0	0			0	0			1				0	
6.6.1	win	2023-06-28	08:08:07	08:17:43	573093	5d8125f63d05eb0001731115	4	1	main_slash	11	main_slash	39	stimuli_target_trianglerectangles.svg	stimuli_distractor_diamondtriangles.svg	21	yes	53	1	931	0	0			0	0			1				0	
6.6.1	win	2023-06-28	08:08:07	08:17:43	573093	5d8125f63d05eb0001731115	4	1	main_slash	11	advance_on_keypress_SLASH	40	stimuli_target_trianglerectangles.svg	stimuli_distractor_diamondtriangles.svg	21	yes	57	0	717	0	0			0	0			1				0	
6.6.1	win	2023-06-28	08:08:07	08:17:45	575387	5d8125f63d05eb0001731115	4	1	main_slash	11	main_slash	41	stimuli_distractor_diamondtriangles.svg	stimuli_target_trianglerectangles.svg	29	yes	53	1	919	0	0			0	0			1				0	
6.6.1	win	2023-06-28	08:08:07	08:17:45	575387	5d8125f63d05eb0001731115	4	1	main_slash	11	advance_on_keypress_SLASH	42	stimuli_distractor_diamondtriangles.svg	stimuli_target_trianglerectangles.svg	29	yes	57	0	665	0	0			0	0			1				0	
6.6.1	win	2023-06-28	08:08:07	08:17:47	577449	5d8125f63d05eb0001731115	4	1	main_slash	11	main_slash	43	stimuli_target_rectanglediamonds.svg	stimuli_distractor_trianglediamonds.svg	2	yes	53	1	733	0	0			0	0			1				0	
6.6.1	win	2023-06-28	08:08:07	08:17:47	577449	5d8125f63d05eb0001731115	4	1	main_slash	11	advance_on_keypress_SLASH	44	stimuli_target_rectanglediamonds.svg	stimuli_distractor_trianglediamonds.svg	2	yes	57	0	576	0	0			0	0			1				0	
6.6.1	win	2023-06-28	08:08:07	08:17:50	579459	5d8125f63d05eb0001731115	4	1	main_slash	11	main_slash	45	stimuli_target_squarediamonds.svg	stimuli_distractor_diamondtriangles.svg	8	yes	53	1	783	0	0			0	0			1				0	
6.6.1	win	2023-06-28	08:08:07	08:17:50	579459	5d8125f63d05eb0001731115	4	1	main_slash	11	advance_on_keypress_SLASH	46	stimuli_target_squarediamonds.svg	stimuli_distractor_diamondtriangles.svg	8	yes	57	0	447	0	0			0	0			1				0	
6.6.1	win	2023-06-28	08:08:07	08:17:51	581294	5d8125f63d05eb0001731115	4	1	main_slash	11	main_slash	47	stimuli_distractor_trianglediamonds.svg	stimuli_target_rectangletriangles.svg	9	yes	53	1	732	0	0			0	0			1				0	
6.6.1	win	2023-06-28	08:08:07	08:17:51	581294	5d8125f63d05eb0001731115	4	1	main_slash	11	advance_on_keypress_SLASH	48	stimuli_distractor_trianglediamonds.svg	stimuli_target_rectangletriangles.svg	9	yes	57	0	509	0	0			0	0			1				0	
6.6.1	win	2023-06-28	08:08:07	08:17:53	583270	5d8125f63d05eb0001731115	4	1	main_slash	11	main_slash	49	stimuli_distractor_diamondtriangles.svg	stimuli_target_trianglesquares.svg	30	yes	53	1	823	0	0			0	0			1				0	
6.6.1	win	2023-06-28	08:08:07	08:17:53	583270	5d8125f63d05eb0001731115	4	1	main_slash	11	advance_on_keypress_SLASH	50	stimuli_distractor_diamondtriangles.svg	stimuli_target_trianglesquares.svg	30	yes	57	0	565	0	0			0	0			1				0	
6.6.1	win	2023-06-28	08:08:07	08:17:55	585248	5d8125f63d05eb0001731115	4	1	main_slash	11	main_slash	51	stimuli_distractor_trianglediamonds.svg	stimuli_target_trianglesquares.svg	26	yes	53	1	750	0	0			0	0			1				0	
6.6.1	win	2023-06-28	08:08:07	08:17:55	585248	5d8125f63d05eb0001731115	4	1	main_slash	11	advance_on_keypress_SLASH	52	stimuli_distractor_trianglediamonds.svg	stimuli_target_trianglesquares.svg	26	yes	57	0	495	0	0			0	0			1				0	
6.6.1	win	2023-06-28	08:08:07	08:17:57	587149	5d8125f63d05eb0001731115	4	1	main_slash	11	main_slash	53	stimuli_distractor_diamondtriangles.svg	stimuli_target_squarediamonds.svg	16	yes	53	1	753	0	0			0	0			1				0	
6.6.1	win	2023-06-28	08:08:07	08:17:57	587149	5d8125f63d05eb0001731115	4	1	main_slash	11	advance_on_keypress_SLASH	54	stimuli_distractor_diamondtriangles.svg	stimuli_target_squarediamonds.svg	16	yes	57	0	459	0	0			0	0			1				0	
6.6.1	win	2023-06-28	08:08:07	08:17:59	589054	5d8125f63d05eb0001731115	4	1	main_slash	11	main_slash	55	stimuli_target_squaretriangles.svg	stimuli_distractor_diamondtriangles.svg	7	yes	53	1	799	0	0			0	0			1				0	
6.6.1	win	2023-06-28	08:08:07	08:17:59	589054	5d8125f63d05eb0001731115	4	1	main_slash	11	advance_on_keypress_SLASH	56	stimuli_target_squaretriangles.svg	stimuli_distractor_diamondtriangles.svg	7	yes	57	0	382	0	0			0	0			1				0	
6.6.1	win	2023-06-28	08:08:07	08:18:01	590744	5d8125f63d05eb0001731115	4	1	main_slash	11	main_slash	57	stimuli_target_rectangletriangles.svg	stimuli_distractor_diamondtriangles.svg	5	yes	53	1	645	0	0			0	0			1				0	
6.6.1	win	2023-06-28	08:08:07	08:18:01	590744	5d8125f63d05eb0001731115	4	1	main_slash	11	advance_on_keypress_SLASH	58	stimuli_target_rectangletriangles.svg	stimuli_distractor_diamondtriangles.svg	5	yes	57	0	475	0	0			0	0			1				0	
6.6.1	win	2023-06-28	08:08:07	08:18:03	592549	5d8125f63d05eb0001731115	4	1	main_slash	11	main_slash	59	stimuli_distractor_trianglediamonds.svg	stimuli_target_squaretriangles.svg	11	yes	53	1	679	0	0			0	0			1				0	
6.6.1	win	2023-06-28	08:08:07	08:18:03	592549	5d8125f63d05eb0001731115	4	1	main_slash	11	advance_on_keypress_SLASH	60	stimuli_distractor_trianglediamonds.svg	stimuli_target_squaretriangles.svg	11	yes	57	0	499	0	0			0	0			1				0	
6.6.1	win	2023-06-28	08:08:07	08:18:04	594210	5d8125f63d05eb0001731115	4	1	main_slash	11	main_slash	61	stimuli_distractor_trianglediamonds.svg	stimuli_target_diamondrectangles.svg	27	yes	53	1	509	0	0			0	0			1				0	
6.6.1	win	2023-06-28	08:08:07	08:18:04	594210	5d8125f63d05eb0001731115	4	1	main_slash	11	advance_on_keypress_SLASH	62	stimuli_distractor_trianglediamonds.svg	stimuli_target_diamondrectangles.svg	27	yes	57	0	632	0	0			0	0			1				0	
6.6.1	win	2023-06-28	08:08:07	08:18:06	596198	5d8125f63d05eb0001731115	4	1	main_slash	11	main_slash	63	stimuli_target_diamondsquares.svg	stimuli_distractor_diamondtriangles.svg	24	yes	53	1	710	0	0			0	0			1				0	
6.6.1	win	2023-06-28	08:08:07	08:18:06	596198	5d8125f63d05eb0001731115	4	1	main_slash	11	advance_on_keypress_SLASH	64	stimuli_target_diamondsquares.svg	stimuli_distractor_diamondtriangles.svg	24	yes	57	0	497	0	0			0	0			1				0	
6.6.1	win	2023-06-28	08:08:07	08:18:08	598118	5d8125f63d05eb0001731115	4	1	main_slash	11	main_slash	65	stimuli_distractor_trianglediamonds.svg	stimuli_distractor_diamondtriangles.svg	35	no	53	0	780	0	0			0	0			1				0	
6.6.1	win	2023-06-28	08:08:07	08:18:08	598118	5d8125f63d05eb0001731115	4	1	main_slash	11	advance_on_keypress_SLASH	66	stimuli_distractor_trianglediamonds.svg	stimuli_distractor_diamondtriangles.svg	35	no	57	0	805	0	0			0	0			1				0	
6.6.1	win	2023-06-28	08:08:07	08:18:10	600295	5d8125f63d05eb0001731115	4	1	main_slash	11	main_slash	67	stimuli_distractor_diamondtriangles.svg	stimuli_target_rectanglediamonds.svg	14	yes	53	1	722	0	0			0	0			1				0	
6.6.1	win	2023-06-28	08:08:07	08:18:10	600295	5d8125f63d05eb0001731115	4	1	main_slash	11	advance_on_keypress_SLASH	68	stimuli_distractor_diamondtriangles.svg	stimuli_target_rectanglediamonds.svg	14	yes	57	0	509	0	0			0	0			1				0	
6.6.1	win	2023-06-28	08:08:07	08:18:12	602270	5d8125f63d05eb0001731115	4	1	main_slash	11	main_slash	69	stimuli_distractor_trianglediamonds.svg	stimuli_target_trianglerectangles.svg	25	yes	53	1	831	0	0			0	0			1				0	
6.6.1	win	2023-06-28	08:08:07	08:18:12	602270	5d8125f63d05eb0001731115	4	1	main_slash	11	advance_on_keypress_SLASH	70	stimuli_distractor_trianglediamonds.svg	stimuli_target_trianglerectangles.svg	25	yes	57	0	453	0	0			0	0			1				0	
6.6.1	win	2023-06-28	08:08:07	08:18:14	604191	5d8125f63d05eb0001731115	4	1	main_slash	11	main_slash	71	stimuli_distractor_diamondtriangles.svg	stimuli_target_rectangletriangles.svg	13	yes	53	1	810	0	0			0	0			1				0	
6.6.1	win	2023-06-28	08:08:07	08:18:14	604191	5d8125f63d05eb0001731115	4	1	main_slash	11	advance_on_keypress_SLASH	72	stimuli_distractor_diamondtriangles.svg	stimuli_target_rectangletriangles.svg	13	yes	57	0	464	0	0			0	0			1				0	
6.6.1	win	2023-06-28	08:08:07	08:18:16	606253	5d8125f63d05eb0001731115	4	1	main_slash	11	main_slash	73	stimuli_target_rectangletriangles.svg	stimuli_distractor_trianglediamonds.svg	1	yes	53	1	948	0	0			0	0			1				0	
6.6.1	win	2023-06-28	08:08:07	08:18:16	606253	5d8125f63d05eb0001731115	4	1	main_slash	11	advance_on_keypress_SLASH	74	stimuli_target_rectangletriangles.svg	stimuli_distractor_trianglediamonds.svg	1	yes	57	0	494	0	0			0	0			1				0	
6.6.1	win	2023-06-28	08:08:07	08:18:18	608317	5d8125f63d05eb0001731115	4	1	main_slash	11	main_slash	75	stimuli_target_squarediamonds.svg	stimuli_distractor_trianglediamonds.svg	4	yes	53	1	912	0	0			0	0			1				0	
6.6.1	win	2023-06-28	08:08:07	08:18:18	608317	5d8125f63d05eb0001731115	4	1	main_slash	11	advance_on_keypress_SLASH	76	stimuli_target_squarediamonds.svg	stimuli_distractor_trianglediamonds.svg	4	yes	57	0	564	0	0			0	0			1				0	
6.6.1	win	2023-06-28	08:08:07	08:18:21	610501	5d8125f63d05eb0001731115	4	1	main_slash	11	main_slash	77	stimuli_target_diamondsquares.svg	stimuli_distractor_trianglediamonds.svg	20	yes	53	1	979	0	0			0	0			1				0	
6.6.1	win	2023-06-28	08:08:07	08:18:21	610501	5d8125f63d05eb0001731115	4	1	main_slash	11	advance_on_keypress_SLASH	78	stimuli_target_diamondsquares.svg	stimuli_distractor_trianglediamonds.svg	20	yes	57	0	484	0	0			0	0			1				0	
6.6.1	win	2023-06-28	08:08:07	08:18:23	612605	5d8125f63d05eb0001731115	4	1	main_slash	11	main_slash	79	stimuli_target_diamondrectangles.svg	stimuli_distractor_diamondtriangles.svg	23	yes	53	1	984	0	0			0	0			1				0	
6.6.1	win	2023-06-28	08:08:07	08:18:23	612605	5d8125f63d05eb0001731115	4	1	main_slash	11	advance_on_keypress_SLASH	80	stimuli_target_diamondrectangles.svg	stimuli_distractor_diamondtriangles.svg	23	yes	57	0	464	0	0			0	0			1				0	
6.6.1	win	2023-06-28	08:08:07	08:18:25	614781	5d8125f63d05eb0001731115	4	1	main_slash	11	main_slash	81	stimuli_target_trianglesquares.svg	stimuli_distractor_trianglediamonds.svg	18	yes	53	1	1060	0	0			0	0			1				0	
6.6.1	win	2023-06-28	08:08:07	08:18:25	614781	5d8125f63d05eb0001731115	4	1	main_slash	11	advance_on_keypress_SLASH	82	stimuli_target_trianglesquares.svg	stimuli_distractor_trianglediamonds.svg	18	yes	57	0	721	0	0			0	0			1				0	
6.6.1	win	2023-06-28	08:08:07	08:18:27	617336	5d8125f63d05eb0001731115	4	1	main_slash	11	main_slash	83	stimuli_target_squarediamonds.svg	stimuli_distractor_diamondtriangles.svg	8	yes	53	1	1195	0	0			0	0			1				0	
6.6.1	win	2023-06-28	08:08:07	08:18:27	617336	5d8125f63d05eb0001731115	4	1	main_slash	11	advance_on_keypress_SLASH	84	stimuli_target_squarediamonds.svg	stimuli_distractor_diamondtriangles.svg	8	yes	57	0	635	0	0			0	0			1				0	
6.6.1	win	2023-06-28	08:08:07	08:18:30	619630	5d8125f63d05eb0001731115	4	1	main_slash	11	main_slash	85	stimuli_distractor_diamondtriangles.svg	stimuli_target_diamondsquares.svg	32	yes	53	1	1007	0	0			0	0			1				0	
6.6.1	win	2023-06-28	08:08:07	08:18:30	619630	5d8125f63d05eb0001731115	4	1	main_slash	11	advance_on_keypress_SLASH	86	stimuli_distractor_diamondtriangles.svg	stimuli_target_diamondsquares.svg	32	yes	57	0	598	0	0			0	0			1				0	
6.6.1	win	2023-06-28	08:08:07	08:18:32	621856	5d8125f63d05eb0001731115	4	1	main_slash	11	main_slash	87	stimuli_distractor_diamondtriangles.svg	stimuli_target_squaretriangles.svg	15	yes	53	1	981	0	0			0	0			1				0	
6.6.1	win	2023-06-28	08:08:07	08:18:32	621856	5d8125f63d05eb0001731115	4	1	main_slash	11	advance_on_keypress_SLASH	88	stimuli_distractor_diamondtriangles.svg	stimuli_target_squaretriangles.svg	15	yes	57	0	413	0	0			0	0			1				0	
6.6.1	win	2023-06-28	08:08:07	08:18:34	623861	5d8125f63d05eb0001731115	4	1	main_slash	11	main_slash	89	stimuli_distractor_diamondtriangles.svg	stimuli_target_diamondrectangles.svg	31	yes	53	1	939	0	0			0	0			1				0	
6.6.1	win	2023-06-28	08:08:07	08:18:34	623861	5d8125f63d05eb0001731115	4	1	main_slash	11	advance_on_keypress_SLASH	90	stimuli_distractor_diamondtriangles.svg	stimuli_target_diamondrectangles.svg	31	yes	57	0	517	0	0			0	0			1				0	
6.6.1	win	2023-06-28	08:08:07	08:18:37	627033	5d8125f63d05eb0001731115	4	1	main_slash	11	main_slash	91	stimuli_distractor_trianglediamonds.svg	stimuli_distractor_trianglediamonds.svg	34	no	0	1	2000	0	0			0	0			1				0	
6.6.1	win	2023-06-28	08:08:07	08:18:37	627033	5d8125f63d05eb0001731115	4	1	main_slash	11	advance_on_keypress_SLASH	92	stimuli_distractor_trianglediamonds.svg	stimuli_distractor_trianglediamonds.svg	34	no	57	0	407	0	0			0	0			1				0	
6.6.1	win	2023-06-28	08:08:07	08:18:39	628956	5d8125f63d05eb0001731115	4	1	main_slash	11	main_slash	93	stimuli_distractor_trianglediamonds.svg	stimuli_target_squarediamonds.svg	12	yes	53	1	868	0	0			0	0			1				0	
6.6.1	win	2023-06-28	08:08:07	08:18:39	628956	5d8125f63d05eb0001731115	4	1	main_slash	11	advance_on_keypress_SLASH	94	stimuli_distractor_trianglediamonds.svg	stimuli_target_squarediamonds.svg	12	yes	57	0	1585	0	0			0	0			1				0	
6.6.1	win	2023-06-28	08:08:07	08:18:42	632025	5d8125f63d05eb0001731115	4	1	main_slash	11	main_slash	95	stimuli_target_rectangletriangles.svg	stimuli_distractor_diamondtriangles.svg	5	yes	53	1	825	0	0			0	0			1				0	
6.6.1	win	2023-06-28	08:08:07	08:18:42	632025	5d8125f63d05eb0001731115	4	1	main_slash	11	advance_on_keypress_SLASH	96	stimuli_target_rectangletriangles.svg	stimuli_distractor_diamondtriangles.svg	5	yes	57	0	438	0	0			0	0			1				0	
6.6.1	win	2023-06-28	08:08:07	08:18:44	634084	5d8125f63d05eb0001731115	4	1	main_slash	11	main_slash	97	stimuli_target_trianglerectangles.svg	stimuli_distractor_trianglediamonds.svg	17	yes	53	1	980	0	0			0	0			1				0	
6.6.1	win	2023-06-28	08:08:07	08:18:44	634084	5d8125f63d05eb0001731115	4	1	main_slash	11	advance_on_keypress_SLASH	98	stimuli_target_trianglerectangles.svg	stimuli_distractor_trianglediamonds.svg	17	yes	57	0	621	0	0			0	0			1				0	
6.6.1	win	2023-06-28	08:08:07	08:18:46	636268	5d8125f63d05eb0001731115	4	1	main_slash	11	main_slash	99	stimuli_distractor_diamondtriangles.svg	stimuli_target_rectangletriangles.svg	13	yes	53	1	931	0	0			0	0			1				0	
6.6.1	win	2023-06-28	08:08:07	08:18:46	636268	5d8125f63d05eb0001731115	4	1	main_slash	11	advance_on_keypress_SLASH	100	stimuli_distractor_diamondtriangles.svg	stimuli_target_rectangletriangles.svg	13	yes	57	0	548	0	0			0	0			1				0	
6.6.1	win	2023-06-28	08:08:07	08:18:48	638416	5d8125f63d05eb0001731115	4	1	main_slash	11	main_slash	101	stimuli_target_trianglesquares.svg	stimuli_distractor_diamondtriangles.svg	22	yes	53	1	932	0	0			0	0			1				0	
6.6.1	win	2023-06-28	08:08:07	08:18:48	638416	5d8125f63d05eb0001731115	4	1	main_slash	11	advance_on_keypress_SLASH	102	stimuli_target_trianglesquares.svg	stimuli_distractor_diamondtriangles.svg	22	yes	57	0	535	0	0			0	0			1				0	
6.6.1	win	2023-06-28	08:08:07	08:18:51	640505	5d8125f63d05eb0001731115	4	1	main_slash	11	main_slash	103	stimuli_distractor_trianglediamonds.svg	stimuli_target_diamondsquares.svg	28	yes	53	1	895	0	0			0	0			1				0	
6.6.1	win	2023-06-28	08:08:07	08:18:51	640505	5d8125f63d05eb0001731115	4	1	main_slash	11	advance_on_keypress_SLASH	104	stimuli_distractor_trianglediamonds.svg	stimuli_target_diamondsquares.svg	28	yes	57	0	666	0	0			0	0			1				0	
6.6.1	win	2023-06-28	08:08:07	08:18:53	642604	5d8125f63d05eb0001731115	4	1	main_slash	11	main_slash	105	stimuli_target_trianglerectangles.svg	stimuli_distractor_diamondtriangles.svg	21	yes	53	1	775	0	0			0	0			1				0	
6.6.1	win	2023-06-28	08:08:07	08:18:53	642604	5d8125f63d05eb0001731115	4	1	main_slash	11	advance_on_keypress_SLASH	106	stimuli_target_trianglerectangles.svg	stimuli_distractor_diamondtriangles.svg	21	yes	57	0	718	0	0			0	0			1				0	
6.6.1	win	2023-06-28	08:08:07	08:18:55	644683	5d8125f63d05eb0001731115	4	1	main_slash	11	main_slash	107	stimuli_target_squarediamonds.svg	stimuli_distractor_trianglediamonds.svg	4	yes	53	1	713	0	0			0	0			1				0	
6.6.1	win	2023-06-28	08:08:07	08:18:55	644683	5d8125f63d05eb0001731115	4	1	main_slash	11	advance_on_keypress_SLASH	108	stimuli_target_squarediamonds.svg	stimuli_distractor_trianglediamonds.svg	4	yes	57	0	668	0	0			0	0			1				0	
6.6.1	win	2023-06-28	08:08:07	08:18:57	646797	5d8125f63d05eb0001731115	4	1	main_slash	11	main_slash	109	stimuli_distractor_diamondtriangles.svg	stimuli_target_squarediamonds.svg	16	yes	53	1	799	0	0			0	0			1				0	
6.6.1	win	2023-06-28	08:08:07	08:18:57	646797	5d8125f63d05eb0001731115	4	1	main_slash	11	advance_on_keypress_SLASH	110	stimuli_distractor_diamondtriangles.svg	stimuli_target_squarediamonds.svg	16	yes	57	0	519	0	0			0	0			1				0	
6.6.1	win	2023-06-28	08:08:07	08:18:59	648770	5d8125f63d05eb0001731115	4	1	main_slash	11	main_slash	111	stimuli_distractor_diamondtriangles.svg	stimuli_target_rectanglediamonds.svg	14	yes	53	1	792	0	0			0	0			1				0	
6.6.1	win	2023-06-28	08:08:07	08:18:59	648770	5d8125f63d05eb0001731115	4	1	main_slash	11	advance_on_keypress_SLASH	112	stimuli_distractor_diamondtriangles.svg	stimuli_target_rectanglediamonds.svg	14	yes	57	0	504	0	0			0	0			1				0	
6.6.1	win	2023-06-28	08:08:07	08:19:01	650682	5d8125f63d05eb0001731115	4	1	main_slash	11	main_slash	113	stimuli_distractor_trianglediamonds.svg	stimuli_target_trianglesquares.svg	26	yes	53	1	755	0	0			0	0			1				0	
6.6.1	win	2023-06-28	08:08:07	08:19:01	650682	5d8125f63d05eb0001731115	4	1	main_slash	11	advance_on_keypress_SLASH	114	stimuli_distractor_trianglediamonds.svg	stimuli_target_trianglesquares.svg	26	yes	57	0	524	0	0			0	0			1				0	
6.6.1	win	2023-06-28	08:08:07	08:19:04	653861	5d8125f63d05eb0001731115	4	1	main_slash	11	main_slash	115	stimuli_distractor_trianglediamonds.svg	stimuli_distractor_diamondtriangles.svg	35	no	0	1	2000	0	0			0	0			1				0	
6.6.1	win	2023-06-28	08:08:07	08:19:04	653861	5d8125f63d05eb0001731115	4	1	main_slash	11	advance_on_keypress_SLASH	116	stimuli_distractor_trianglediamonds.svg	stimuli_distractor_diamondtriangles.svg	35	no	57	0	341	0	0			0	0			1				0	
6.6.1	win	2023-06-28	08:08:07	08:19:07	656854	5d8125f63d05eb0001731115	4	1	main_slash	11	main_slash	117	stimuli_distractor_trianglediamonds.svg	stimuli_distractor_diamondtriangles.svg	36	no	0	1	2000	0	0			0	0			1				0	
6.6.1	win	2023-06-28	08:08:07	08:19:07	656854	5d8125f63d05eb0001731115	4	1	main_slash	11	advance_on_keypress_SLASH	118	stimuli_distractor_trianglediamonds.svg	stimuli_distractor_diamondtriangles.svg	36	no	57	0	333	0	0			0	0			1				0	
6.6.1	win	2023-06-28	08:08:07	08:19:09	658708	5d8125f63d05eb0001731115	4	1	main_slash	11	main_slash	119	stimuli_distractor_trianglediamonds.svg	stimuli_target_trianglerectangles.svg	25	yes	53	1	868	0	0			0	0			1				0	
6.6.1	win	2023-06-28	08:08:07	08:19:09	658708	5d8125f63d05eb0001731115	4	1	main_slash	11	advance_on_keypress_SLASH	120	stimuli_distractor_trianglediamonds.svg	stimuli_target_trianglerectangles.svg	25	yes	57	0	522	0	0			0	0			1				0	
6.6.1	win	2023-06-28	08:08:07	08:19:11	660753	5d8125f63d05eb0001731115	4	1	main_slash	11	main_slash	121	stimuli_target_squaretriangles.svg	stimuli_distractor_diamondtriangles.svg	7	yes	53	1	868	0	0			0	0			1				0	
6.6.1	win	2023-06-28	08:08:07	08:19:11	660753	5d8125f63d05eb0001731115	4	1	main_slash	11	advance_on_keypress_SLASH	122	stimuli_target_squaretriangles.svg	stimuli_distractor_diamondtriangles.svg	7	yes	57	0	472	0	0			0	0			1				0	
6.6.1	win	2023-06-28	08:08:07	08:19:13	662753	5d8125f63d05eb0001731115	4	1	main_slash	11	main_slash	123	stimuli_distractor_trianglediamonds.svg	stimuli_target_rectangletriangles.svg	9	yes	53	1	868	0	0			0	0			1				0	
6.6.1	win	2023-06-28	08:08:07	08:19:13	662753	5d8125f63d05eb0001731115	4	1	main_slash	11	advance_on_keypress_SLASH	124	stimuli_distractor_trianglediamonds.svg	stimuli_target_rectangletriangles.svg	9	yes	57	0	432	0	0			0	0			1				0	
6.6.1	win	2023-06-28	08:08:07	08:19:15	664714	5d8125f63d05eb0001731115	4	1	main_slash	11	main_slash	125	stimuli_target_squaretriangles.svg	stimuli_distractor_trianglediamonds.svg	3	yes	53	1	877	0	0			0	0			1				0	
6.6.1	win	2023-06-28	08:08:07	08:19:15	664714	5d8125f63d05eb0001731115	4	1	main_slash	11	advance_on_keypress_SLASH	126	stimuli_target_squaretriangles.svg	stimuli_distractor_trianglediamonds.svg	3	yes	57	0	674	0	0			0	0			1				0	
6.6.1	win	2023-06-28	08:08:07	08:19:17	666823	5d8125f63d05eb0001731115	4	1	main_slash	11	main_slash	127	stimuli_distractor_trianglediamonds.svg	stimuli_target_diamondrectangles.svg	27	yes	53	1	798	0	0			0	0			1				0	
6.6.1	win	2023-06-28	08:08:07	08:19:17	666823	5d8125f63d05eb0001731115	4	1	main_slash	11	advance_on_keypress_SLASH	128	stimuli_distractor_trianglediamonds.svg	stimuli_target_diamondrectangles.svg	27	yes	57	0	1021	0	0			0	0			1				0	
6.6.1	win	2023-06-28	08:08:07	08:19:21	670515	5d8125f63d05eb0001731115	4	1	main_slash	11	main_slash	129	stimuli_distractor_diamondtriangles.svg	stimuli_distractor_trianglediamonds.svg	38	no	0	1	2000	0	0			0	0			1				0	
6.6.1	win	2023-06-28	08:08:07	08:19:21	670515	5d8125f63d05eb0001731115	4	1	main_slash	11	advance_on_keypress_SLASH	130	stimuli_distractor_diamondtriangles.svg	stimuli_distractor_trianglediamonds.svg	38	no	57	0	394	0	0			0	0			1				0	
6.6.1	win	2023-06-28	08:08:07	08:19:22	672386	5d8125f63d05eb0001731115	4	1	main_slash	11	main_slash	131	stimuli_target_diamondrectangles.svg	stimuli_distractor_trianglediamonds.svg	19	yes	53	1	833	0	0			0	0			1				0	
6.6.1	win	2023-06-28	08:08:07	08:19:22	672386	5d8125f63d05eb0001731115	4	1	main_slash	11	advance_on_keypress_SLASH	132	stimuli_target_diamondrectangles.svg	stimuli_distractor_trianglediamonds.svg	19	yes	57	0	631	0	0			0	0			1				0	
6.6.1	win	2023-06-28	08:08:07	08:19:25	674508	5d8125f63d05eb0001731115	4	1	main_slash	11	main_slash	133	stimuli_distractor_trianglediamonds.svg	stimuli_target_rectanglediamonds.svg	10	yes	53	1	827	0	0			0	0			1				0	
6.6.1	win	2023-06-28	08:08:07	08:19:25	674508	5d8125f63d05eb0001731115	4	1	main_slash	11	advance_on_keypress_SLASH	134	stimuli_distractor_trianglediamonds.svg	stimuli_target_rectanglediamonds.svg	10	yes	57	0	449	0	0			0	0			1				0	
6.6.1	win	2023-06-28	08:08:07	08:19:26	676424	5d8125f63d05eb0001731115	4	1	main_slash	11	main_slash	135	stimuli_distractor_diamondtriangles.svg	stimuli_target_trianglerectangles.svg	29	yes	53	1	807	0	0			0	0			1				0	
6.6.1	win	2023-06-28	08:08:07	08:19:26	676424	5d8125f63d05eb0001731115	4	1	main_slash	11	advance_on_keypress_SLASH	136	stimuli_distractor_diamondtriangles.svg	stimuli_target_trianglerectangles.svg	29	yes	57	0	662	0	0			0	0			1				0	
6.6.1	win	2023-06-28	08:08:07	08:19:29	678468	5d8125f63d05eb0001731115	4	1	main_slash	11	main_slash	137	stimuli_target_rectanglediamonds.svg	stimuli_distractor_diamondtriangles.svg	6	yes	53	1	730	0	0			0	0			1				0	
6.6.1	win	2023-06-28	08:08:07	08:19:29	678468	5d8125f63d05eb0001731115	4	1	main_slash	11	advance_on_keypress_SLASH	138	stimuli_target_rectanglediamonds.svg	stimuli_distractor_diamondtriangles.svg	6	yes	57	0	683	0	0			0	0			1				0	
6.6.1	win	2023-06-28	08:08:07	08:19:32	681804	5d8125f63d05eb0001731115	4	1	main_slash	11	main_slash	139	stimuli_distractor_trianglediamonds.svg	stimuli_distractor_trianglediamonds.svg	33	no	0	1	2000	0	0			0	0			1				0	
6.6.1	win	2023-06-28	08:08:07	08:19:32	681804	5d8125f63d05eb0001731115	4	1	main_slash	11	advance_on_keypress_SLASH	140	stimuli_distractor_trianglediamonds.svg	stimuli_distractor_trianglediamonds.svg	33	no	57	0	333	0	0			0	0			1				0	
6.6.1	win	2023-06-28	08:08:07	08:19:34	683498	5d8125f63d05eb0001731115	4	1	main_slash	11	main_slash	141	stimuli_distractor_diamondtriangles.svg	stimuli_target_trianglesquares.svg	30	yes	53	1	711	0	0			0	0			1				0	
6.6.1	win	2023-06-28	08:08:07	08:19:34	683498	5d8125f63d05eb0001731115	4	1	main_slash	11	advance_on_keypress_SLASH	142	stimuli_distractor_diamondtriangles.svg	stimuli_target_trianglesquares.svg	30	yes	57	0	810	0	0			0	0			1				0	
6.6.1	win	2023-06-28	08:08:07	08:19:37	686953	5d8125f63d05eb0001731115	4	1	main_slash	11	main_slash	143	stimuli_distractor_diamondtriangles.svg	stimuli_distractor_trianglediamonds.svg	37	no	0	1	2000	0	0			0	0			1				0	
6.6.1	win	2023-06-28	08:08:07	08:19:37	686953	5d8125f63d05eb0001731115	4	1	main_slash	11	advance_on_keypress_SLASH	144	stimuli_distractor_diamondtriangles.svg	stimuli_distractor_trianglediamonds.svg	37	no	57	0	280	0	0			0	0			1				0	
6.6.1	win	2023-06-28	08:08:07	08:19:39	688611	5d8125f63d05eb0001731115	4	1	main_slash	11	main_slash	145	stimuli_target_diamondsquares.svg	stimuli_distractor_diamondtriangles.svg	24	yes	53	1	723	0	0			0	0			1				0	
6.6.1	win	2023-06-28	08:08:07	08:19:39	688611	5d8125f63d05eb0001731115	4	1	main_slash	11	advance_on_keypress_SLASH	146	stimuli_target_diamondsquares.svg	stimuli_distractor_diamondtriangles.svg	24	yes	57	0	2397	0	0			0	0			1				0	
6.6.1	win	2023-06-28	08:08:07	08:19:44	693666	5d8125f63d05eb0001731115	4	1	main_slash	11	main_slash	147	stimuli_distractor_diamondtriangles.svg	stimuli_distractor_diamondtriangles.svg	40	no	0	1	2000	0	0			0	0			1				0	
6.6.1	win	2023-06-28	08:08:07	08:19:44	693666	5d8125f63d05eb0001731115	4	1	main_slash	11	advance_on_keypress_SLASH	148	stimuli_distractor_diamondtriangles.svg	stimuli_distractor_diamondtriangles.svg	40	no	57	0	306	0	0			0	0			1				0	
6.6.1	win	2023-06-28	08:08:07	08:19:45	695363	5d8125f63d05eb0001731115	4	1	main_slash	11	main_slash	149	stimuli_distractor_trianglediamonds.svg	stimuli_target_squaretriangles.svg	11	yes	53	1	717	0	0			0	0			1				0	
6.6.1	win	2023-06-28	08:08:07	08:19:45	695363	5d8125f63d05eb0001731115	4	1	main_slash	11	advance_on_keypress_SLASH	150	stimuli_distractor_trianglediamonds.svg	stimuli_target_squaretriangles.svg	11	yes	57	0	2327	0	0			0	0			1				0	
6.6.1	win	2023-06-28	08:08:07	08:19:49	698872	5d8125f63d05eb0001731115	4	1	main_slash	11	main_slash	151	stimuli_target_rectangletriangles.svg	stimuli_distractor_trianglediamonds.svg	1	yes	53	1	536	0	0			0	0			1				0	
6.6.1	win	2023-06-28	08:08:07	08:19:49	698872	5d8125f63d05eb0001731115	4	1	main_slash	11	advance_on_keypress_SLASH	152	stimuli_target_rectangletriangles.svg	stimuli_distractor_trianglediamonds.svg	1	yes	57	0	2202	0	0			0	0			1				0	
6.6.1	win	2023-06-28	08:08:07	08:19:53	702469	5d8125f63d05eb0001731115	4	1	main_slash	11	main_slash	153	stimuli_target_diamondrectangles.svg	stimuli_distractor_diamondtriangles.svg	23	yes	53	1	745	0	0			0	0			1				0	
6.6.1	win	2023-06-28	08:08:07	08:19:53	702469	5d8125f63d05eb0001731115	4	1	main_slash	11	advance_on_keypress_SLASH	154	stimuli_target_diamondrectangles.svg	stimuli_distractor_diamondtriangles.svg	23	yes	57	0	698	0	0			0	0			1				0	
6.6.1	win	2023-06-28	08:08:07	08:19:55	704833	5d8125f63d05eb0001731115	4	1	main_slash	11	main_slash	155	stimuli_target_rectanglediamonds.svg	stimuli_distractor_trianglediamonds.svg	2	yes	53	1	1005	0	0			0	0			1				0	
6.6.1	win	2023-06-28	08:08:07	08:19:55	704833	5d8125f63d05eb0001731115	4	1	main_slash	11	advance_on_keypress_SLASH	156	stimuli_target_rectanglediamonds.svg	stimuli_distractor_trianglediamonds.svg	2	yes	57	0	2436	0	0			0	0			1				0	
6.6.1	win	2023-06-28	08:08:07	08:19:59	708650	5d8125f63d05eb0001731115	4	1	main_slash	11	main_slash	157	stimuli_target_diamondsquares.svg	stimuli_distractor_trianglediamonds.svg	20	yes	53	1	729	0	0			0	0			1				0	
6.6.1	win	2023-06-28	08:08:07	08:19:59	708650	5d8125f63d05eb0001731115	4	1	main_slash	11	advance_on_keypress_SLASH	158	stimuli_target_diamondsquares.svg	stimuli_distractor_trianglediamonds.svg	20	yes	57	0	1003	0	0			0	0			1				0	
6.6.1	win	2023-06-28	08:08:07	08:20:02	712311	5d8125f63d05eb0001731115	4	1	main_slash	11	main_slash	159	stimuli_distractor_diamondtriangles.svg	stimuli_distractor_diamondtriangles.svg	39	no	0	1	2000	0	0			0	0			1				0	
6.6.1	win	2023-06-28	08:08:07	08:20:02	712311	5d8125f63d05eb0001731115	4	1	main_slash	11	advance_on_keypress_SLASH	160	stimuli_distractor_diamondtriangles.svg	stimuli_distractor_diamondtriangles.svg	39	no	57	0	536	0	0			0	0			1				0	
6.6.1	win	2023-06-28	08:08:07	08:20:02	712311	5d8125f63d05eb0001731115	4	1	headphonecheck_calibration	14	headphonecheck_calibrationIntro	1	stimuli_distractor_diamondtriangles.svg	stimuli_distractor_diamondtriangles.svg	39	no	calibrationButton	0	4930	0	0			0	0			1				0	
6.6.1	win	2023-06-28	08:08:07	08:20:02	712311	5d8125f63d05eb0001731115	4	1	headphonecheck_testphase	15	test_collectResponse	3	stimuli_distractor_diamondtriangles.svg	stimuli_distractor_diamondtriangles.svg	39	no	third	1	356	1	6	antiphase_hc_ois.wav	3	0	0			1				0	
6.6.1	win	2023-06-28	08:08:07	08:20:02	712311	5d8125f63d05eb0001731115	4	1	headphonecheck_testphase	15	test_collectResponse	6	stimuli_distractor_diamondtriangles.svg	stimuli_distractor_diamondtriangles.svg	39	no	second	0	7761	2	3	antiphase_hc_soi.wav	1	0	0			1				0	
6.6.1	win	2023-06-28	08:08:07	08:20:02	712311	5d8125f63d05eb0001731115	4	1	headphonecheck_testphase	15	test_collectResponse	9	stimuli_distractor_diamondtriangles.svg	stimuli_distractor_diamondtriangles.svg	39	no	second	1	301	3	5	antiphase_hc_osi.wav	2	0	0			1				0	
6.6.1	win	2023-06-28	08:08:07	08:20:02	712311	5d8125f63d05eb0001731115	4	1	headphonecheck_testphase	15	test_collectResponse	12	stimuli_distractor_diamondtriangles.svg	stimuli_distractor_diamondtriangles.svg	39	no	first	1	106	4	4	antiphase_hc_sio.wav	1	0	0			1				0	
6.6.1	win	2023-06-28	08:08:07	08:20:02	712311	5d8125f63d05eb0001731115	4	1	headphonecheck_testphase	15	test_collectResponse	15	stimuli_distractor_diamondtriangles.svg	stimuli_distractor_diamondtriangles.svg	39	no	second	1	983	5	1	antiphase_hc_iso.wav	2	0	0			1				0	
6.6.1	win	2023-06-28	08:08:07	08:20:02	712311	5d8125f63d05eb0001731115	4	1	headphonecheck_testphase	15	test_collectResponse	18	stimuli_distractor_diamondtriangles.svg	stimuli_distractor_diamondtriangles.svg	39	no	third	1	125	6	2	antiphase_hc_ios.wav	3	0	0			1				0	
6.6.1	win	2023-06-28	08:08:07	08:20:02	712311	5d8125f63d05eb0001731115	4	1	stereocheck_calibration	17	stereocheck_calibrationIntro	1	stimuli_distractor_diamondtriangles.svg	stimuli_distractor_diamondtriangles.svg	39	no	stereocheck_calibrationButton	0	2138	6	2	antiphase_hc_ios.wav	3	0	0			1				0	
6.6.1	win	2023-06-28	08:08:07	08:20:02	712311	5d8125f63d05eb0001731115	4	1	stereocheck_testphase	18	stereocheck_test_collectResponse	3	stimuli_distractor_diamondtriangles.svg	stimuli_distractor_diamondtriangles.svg	39	no	stereocheck_right	1	79	6	2	antiphase_hc_ios.wav	3	1	6	noise_calib_stim_RIGHT.wav	2	1				0	
6.6.1	win	2023-06-28	08:08:07	08:20:02	712311	5d8125f63d05eb0001731115	4	1	stereocheck_testphase	18	stereocheck_test_collectResponse	6	stimuli_distractor_diamondtriangles.svg	stimuli_distractor_diamondtriangles.svg	39	no	stereocheck_left	1	535	6	2	antiphase_hc_ios.wav	3	2	3	noise_calib_stim_LEFT.wav	1	1				0	
6.6.1	win	2023-06-28	08:08:07	08:20:02	712311	5d8125f63d05eb0001731115	4	1	stereocheck_testphase	18	stereocheck_test_collectResponse	9	stimuli_distractor_diamondtriangles.svg	stimuli_distractor_diamondtriangles.svg	39	no	stereocheck_right	1	295	6	2	antiphase_hc_ios.wav	3	3	4	noise_calib_stim_RIGHT.wav	2	1				0	
6.6.1	win	2023-06-28	08:08:07	08:20:02	712311	5d8125f63d05eb0001731115	4	1	stereocheck_testphase	18	stereocheck_test_collectResponse	12	stimuli_distractor_diamondtriangles.svg	stimuli_distractor_diamondtriangles.svg	39	no	stereocheck_left	1	447	6	2	antiphase_hc_ios.wav	3	4	2	noise_calib_stim_LEFT.wav	1	1				0	
6.6.1	win	2023-06-28	08:08:07	08:20:02	712311	5d8125f63d05eb0001731115	4	1	stereocheck_testphase	18	stereocheck_test_collectResponse	15	stimuli_distractor_diamondtriangles.svg	stimuli_distractor_diamondtriangles.svg	39	no	stereocheck_right	1	323	6	2	antiphase_hc_ios.wav	3	5	5	noise_calib_stim_RIGHT.wav	2	1				0	
6.6.1	win	2023-06-28	08:08:07	08:20:02	712311	5d8125f63d05eb0001731115	4	1	stereocheck_testphase	18	stereocheck_test_collectResponse	18	stimuli_distractor_diamondtriangles.svg	stimuli_distractor_diamondtriangles.svg	39	no	stereocheck_left	1	383	6	2	antiphase_hc_ios.wav	3	6	1	noise_calib_stim_LEFT.wav	1	1				0	
6.6.1	win	2023-06-28	08:08:07	08:20:02	712311	5d8125f63d05eb0001731115	4	1	DL_practice	21	DL_practice	2	stimuli_distractor_diamondtriangles.svg	stimuli_distractor_diamondtriangles.svg	39	no	ta	1	1438	6	2	antiphase_hc_ios.wav	3	6	1	noise_calib_stim_LEFT.wav	1	36	blb_dichoticlistening_ta-ta.mp3	ta	ta	0	left
6.6.1	win	2023-06-28	08:08:07	08:20:02	712311	5d8125f63d05eb0001731115	4	1	DL_practice	21	DL_practice	3	stimuli_distractor_diamondtriangles.svg	stimuli_distractor_diamondtriangles.svg	39	no	da	1	5106	6	2	antiphase_hc_ios.wav	3	6	1	noise_calib_stim_LEFT.wav	1	7	blb_dichoticlistening_da-ba.mp3	da	ba	1	left
6.6.1	win	2023-06-28	08:08:07	08:20:02	712311	5d8125f63d05eb0001731115	4	1	DL_practice	21	DL_practice	4	stimuli_distractor_diamondtriangles.svg	stimuli_distractor_diamondtriangles.svg	39	no	ba	1	2303	6	2	antiphase_hc_ios.wav	3	6	1	noise_calib_stim_LEFT.wav	1	1	blb_dichoticlistening_ba-ba.mp3	ba	ba	0	left
6.6.1	win	2023-06-28	08:08:07	08:20:02	712311	5d8125f63d05eb0001731115	4	1	DL_practice	21	DL_practice	5	stimuli_distractor_diamondtriangles.svg	stimuli_distractor_diamondtriangles.svg	39	no	pa	1	1061	6	2	antiphase_hc_ios.wav	3	6	1	noise_calib_stim_LEFT.wav	1	29	blb_dichoticlistening_pa-pa.mp3	pa	pa	0	left
6.6.1	win	2023-06-28	08:08:07	08:20:02	712311	5d8125f63d05eb0001731115	4	1	DL_practice	21	DL_practice	6	stimuli_distractor_diamondtriangles.svg	stimuli_distractor_diamondtriangles.svg	39	no	da	1	1009	6	2	antiphase_hc_ios.wav	3	6	1	noise_calib_stim_LEFT.wav	1	8	blb_dichoticlistening_da-da.mp3	da	da	0	left
6.6.1	win	2023-06-28	08:08:07	08:20:02	712311	5d8125f63d05eb0001731115	4	1	DL_practice	21	DL_practice	7	stimuli_distractor_diamondtriangles.svg	stimuli_distractor_diamondtriangles.svg	39	no	ka	1	895	6	2	antiphase_hc_ios.wav	3	6	1	noise_calib_stim_LEFT.wav	1	22	blb_dichoticlistening_ka-ka.mp3	ka	ka	0	left
6.6.1	win	2023-06-28	08:08:07	08:20:02	712311	5d8125f63d05eb0001731115	4	1	DL_practice	21	DL_practice	8	stimuli_distractor_diamondtriangles.svg	stimuli_distractor_diamondtriangles.svg	39	no	ga	0	2712	6	2	antiphase_hc_ios.wav	3	6	1	noise_calib_stim_LEFT.wav	1	23	blb_dichoticlistening_ka-pa.mp3	ka	pa	1	other
6.6.1	win	2023-06-28	08:08:07	08:20:02	712311	5d8125f63d05eb0001731115	4	1	DL_practice	21	DL_practice	9	stimuli_distractor_diamondtriangles.svg	stimuli_distractor_diamondtriangles.svg	39	no	ga	1	954	6	2	antiphase_hc_ios.wav	3	6	1	noise_calib_stim_LEFT.wav	1	18	blb_dichoticlistening_ga-ta.mp3	ga	ta	1	left
6.6.1	win	2023-06-28	08:08:07	08:20:02	712311	5d8125f63d05eb0001731115	4	1	DL_practice	21	DL_practice	10	stimuli_distractor_diamondtriangles.svg	stimuli_distractor_diamondtriangles.svg	39	no	ga	1	881	6	2	antiphase_hc_ios.wav	3	6	1	noise_calib_stim_LEFT.wav	1	15	blb_dichoticlistening_ga-ga.mp3	ga	ga	0	left
6.6.1	win	2023-06-28	08:08:07	08:20:02	712311	5d8125f63d05eb0001731115	4	1	DL_test	23	DL_test	1	stimuli_distractor_diamondtriangles.svg	stimuli_distractor_diamondtriangles.svg	39	no	ga	1	1162	6	2	antiphase_hc_ios.wav	3	6	1	noise_calib_stim_LEFT.wav	1	21	blb_dichoticlistening_ka-ga.mp3	ka	ga	1	right
6.6.1	win	2023-06-28	08:08:07	08:20:02	712311	5d8125f63d05eb0001731115	4	1	DL_test	23	DL_test	2	stimuli_distractor_diamondtriangles.svg	stimuli_distractor_diamondtriangles.svg	39	no	ta	1	1321	6	2	antiphase_hc_ios.wav	3	6	1	noise_calib_stim_LEFT.wav	1	6	blb_dichoticlistening_ba-ta.mp3	ba	ta	1	right
6.6.1	win	2023-06-28	08:08:07	08:20:02	712311	5d8125f63d05eb0001731115	4	1	DL_test	23	DL_test	3	stimuli_distractor_diamondtriangles.svg	stimuli_distractor_diamondtriangles.svg	39	no	da	1	1219	6	2	antiphase_hc_ios.wav	3	6	1	noise_calib_stim_LEFT.wav	1	8	blb_dichoticlistening_da-da.mp3	da	da	0	left
6.6.1	win	2023-06-28	08:08:07	08:20:02	712311	5d8125f63d05eb0001731115	4	1	DL_test	23	DL_test	4	stimuli_distractor_diamondtriangles.svg	stimuli_distractor_diamondtriangles.svg	39	no	ta	0	1160	6	2	antiphase_hc_ios.wav	3	6	1	noise_calib_stim_LEFT.wav	1	7	blb_dichoticlistening_da-ba.mp3	da	ba	1	other
6.6.1	win	2023-06-28	08:08:07	08:20:02	712311	5d8125f63d05eb0001731115	4	1	DL_test	23	DL_test	5	stimuli_distractor_diamondtriangles.svg	stimuli_distractor_diamondtriangles.svg	39	no	ka	1	1086	6	2	antiphase_hc_ios.wav	3	6	1	noise_calib_stim_LEFT.wav	1	28	blb_dichoticlistening_pa-ka.mp3	pa	ka	1	right
6.6.1	win	2023-06-28	08:08:07	08:20:02	712311	5d8125f63d05eb0001731115	4	1	DL_test	23	DL_test	6	stimuli_distractor_diamondtriangles.svg	stimuli_distractor_diamondtriangles.svg	39	no	ka	1	921	6	2	antiphase_hc_ios.wav	3	6	1	noise_calib_stim_LEFT.wav	1	16	blb_dichoticlistening_ga-ka.mp3	ga	ka	1	right
6.6.1	win	2023-06-28	08:08:07	08:20:02	712311	5d8125f63d05eb0001731115	4	1	DL_test	23	DL_test	7	stimuli_distractor_diamondtriangles.svg	stimuli_distractor_diamondtriangles.svg	39	no	ka	1	866	6	2	antiphase_hc_ios.wav	3	6	1	noise_calib_stim_LEFT.wav	1	4	blb_dichoticlistening_ba-ka.mp3	ba	ka	1	right
6.6.1	win	2023-06-28	08:08:07	08:20:02	712311	5d8125f63d05eb0001731115	4	1	DL_test	23	DL_test	8	stimuli_distractor_diamondtriangles.svg	stimuli_distractor_diamondtriangles.svg	39	no	ka	1	868	6	2	antiphase_hc_ios.wav	3	6	1	noise_calib_stim_LEFT.wav	1	24	blb_dichoticlistening_ka-ta.mp3	ka	ta	1	left
6.6.1	win	2023-06-28	08:08:07	08:20:02	712311	5d8125f63d05eb0001731115	4	1	DL_test	23	DL_test	9	stimuli_distractor_diamondtriangles.svg	stimuli_distractor_diamondtriangles.svg	39	no	ta	1	1040	6	2	antiphase_hc_ios.wav	3	6	1	noise_calib_stim_LEFT.wav	1	12	blb_dichoticlistening_da-ta.mp3	da	ta	1	right
6.6.1	win	2023-06-28	08:08:07	08:20:02	712311	5d8125f63d05eb0001731115	4	1	DL_test	23	DL_test	10	stimuli_distractor_diamondtriangles.svg	stimuli_distractor_diamondtriangles.svg	39	no	pa	1	964	6	2	antiphase_hc_ios.wav	3	6	1	noise_calib_stim_LEFT.wav	1	5	blb_dichoticlistening_ba-pa.mp3	ba	pa	1	right
6.6.1	win	2023-06-28	08:08:07	08:20:02	712311	5d8125f63d05eb0001731115	4	1	DL_test	23	DL_test	11	stimuli_distractor_diamondtriangles.svg	stimuli_distractor_diamondtriangles.svg	39	no	ba	0	1171	6	2	antiphase_hc_ios.wav	3	6	1	noise_calib_stim_LEFT.wav	1	35	blb_dichoticlistening_ta-pa.mp3	ta	pa	1	other
6.6.1	win	2023-06-28	08:08:07	08:20:02	712311	5d8125f63d05eb0001731115	4	1	DL_test	23	DL_test	12	stimuli_distractor_diamondtriangles.svg	stimuli_distractor_diamondtriangles.svg	39	no	ga	1	930	6	2	antiphase_hc_ios.wav	3	6	1	noise_calib_stim_LEFT.wav	1	27	blb_dichoticlistening_pa-ga.mp3	pa	ga	1	right
6.6.1	win	2023-06-28	08:08:07	08:20:02	712311	5d8125f63d05eb0001731115	4	1	DL_test	23	DL_test	13	stimuli_distractor_diamondtriangles.svg	stimuli_distractor_diamondtriangles.svg	39	no	ka	1	923	6	2	antiphase_hc_ios.wav	3	6	1	noise_calib_stim_LEFT.wav	1	22	blb_dichoticlistening_ka-ka.mp3	ka	ka	0	left
6.6.1	win	2023-06-28	08:08:07	08:20:02	712311	5d8125f63d05eb0001731115	4	1	DL_test	23	DL_test	14	stimuli_distractor_diamondtriangles.svg	stimuli_distractor_diamondtriangles.svg	39	no	da	0	1844	6	2	antiphase_hc_ios.wav	3	6	1	noise_calib_stim_LEFT.wav	1	17	blb_dichoticlistening_ga-pa.mp3	ga	pa	1	other
6.6.1	win	2023-06-28	08:08:07	08:20:02	712311	5d8125f63d05eb0001731115	4	1	DL_test	23	DL_test	15	stimuli_distractor_diamondtriangles.svg	stimuli_distractor_diamondtriangles.svg	39	no	ta	0	1120	6	2	antiphase_hc_ios.wav	3	6	1	noise_calib_stim_LEFT.wav	1	26	blb_dichoticlistening_pa-da.mp3	pa	da	1	other
6.6.1	win	2023-06-28	08:08:07	08:20:02	712311	5d8125f63d05eb0001731115	4	1	DL_test	23	DL_test	16	stimuli_distractor_diamondtriangles.svg	stimuli_distractor_diamondtriangles.svg	39	no	da	1	2305	6	2	antiphase_hc_ios.wav	3	6	1	noise_calib_stim_LEFT.wav	1	11	blb_dichoticlistening_da-pa.mp3	da	pa	1	left
6.6.1	win	2023-06-28	08:08:07	08:20:02	712311	5d8125f63d05eb0001731115	4	1	DL_test	23	DL_test	17	stimuli_distractor_diamondtriangles.svg	stimuli_distractor_diamondtriangles.svg	39	no	ga	0	2011	6	2	antiphase_hc_ios.wav	3	6	1	noise_calib_stim_LEFT.wav	1	19	blb_dichoticlistening_ka-ba.mp3	ka	ba	1	other
6.6.1	win	2023-06-28	08:08:07	08:20:02	712311	5d8125f63d05eb0001731115	4	1	DL_test	23	DL_test	18	stimuli_distractor_diamondtriangles.svg	stimuli_distractor_diamondtriangles.svg	39	no	pa	1	1055	6	2	antiphase_hc_ios.wav	3	6	1	noise_calib_stim_LEFT.wav	1	29	blb_dichoticlistening_pa-pa.mp3	pa	pa	0	left
6.6.1	win	2023-06-28	08:08:07	08:20:02	712311	5d8125f63d05eb0001731115	4	1	DL_test	23	DL_test	19	stimuli_distractor_diamondtriangles.svg	stimuli_distractor_diamondtriangles.svg	39	no	pa	1	1011	6	2	antiphase_hc_ios.wav	3	6	1	noise_calib_stim_LEFT.wav	1	25	blb_dichoticlistening_pa-ba.mp3	pa	ba	1	left
6.6.1	win	2023-06-28	08:08:07	08:20:02	712311	5d8125f63d05eb0001731115	4	1	DL_test	23	DL_test	20	stimuli_distractor_diamondtriangles.svg	stimuli_distractor_diamondtriangles.svg	39	no	ga	1	1113	6	2	antiphase_hc_ios.wav	3	6	1	noise_calib_stim_LEFT.wav	1	9	blb_dichoticlistening_da-ga.mp3	da	ga	1	right
6.6.1	win	2023-06-28	08:08:07	08:20:02	712311	5d8125f63d05eb0001731115	4	1	DL_test	23	DL_test	21	stimuli_distractor_diamondtriangles.svg	stimuli_distractor_diamondtriangles.svg	39	no	ta	1	842	6	2	antiphase_hc_ios.wav	3	6	1	noise_calib_stim_LEFT.wav	1	30	blb_dichoticlistening_pa-ta.mp3	pa	ta	1	right
6.6.1	win	2023-06-28	08:08:07	08:20:02	712311	5d8125f63d05eb0001731115	4	1	DL_test	23	DL_test	22	stimuli_distractor_diamondtriangles.svg	stimuli_distractor_diamondtriangles.svg	39	no	ka	1	1022	6	2	antiphase_hc_ios.wav	3	6	1	noise_calib_stim_LEFT.wav	1	34	blb_dichoticlistening_ta-ka.mp3	ta	ka	1	right
6.6.1	win	2023-06-28	08:08:07	08:20:02	712311	5d8125f63d05eb0001731115	4	1	DL_test	23	DL_test	23	stimuli_distractor_diamondtriangles.svg	stimuli_distractor_diamondtriangles.svg	39	no	ga	1	867	6	2	antiphase_hc_ios.wav	3	6	1	noise_calib_stim_LEFT.wav	1	15	blb_dichoticlistening_ga-ga.mp3	ga	ga	0	left
6.6.1	win	2023-06-28	08:08:07	08:20:02	712311	5d8125f63d05eb0001731115	4	1	DL_test	23	DL_test	24	stimuli_distractor_diamondtriangles.svg	stimuli_distractor_diamondtriangles.svg	39	no	da	0	1239	6	2	antiphase_hc_ios.wav	3	6	1	noise_calib_stim_LEFT.wav	1	3	blb_dichoticlistening_ba-ga.mp3	ba	ga	1	other
6.6.1	win	2023-06-28	08:08:07	08:20:02	712311	5d8125f63d05eb0001731115	4	1	DL_test	23	DL_test	25	stimuli_distractor_diamondtriangles.svg	stimuli_distractor_diamondtriangles.svg	39	no	da	0	1354	6	2	antiphase_hc_ios.wav	3	6	1	noise_calib_stim_LEFT.wav	1	13	blb_dichoticlistening_ga-ba.mp3	ga	ba	1	other
