build	computer.platform	date	time	timestamp	time_elapsed_ms	subject	group	session	blockcode	blocknum	trialcode	trialnum	stimulus_left	stimulus_right	stim_index	target_present	response	correct	latency	headphonecheck_countTestTrials	headphonecheck_index	headphonecheck_testSound	headphonecheck_correctResponse	stereocheck_countTestTrials	stereocheck_index	stereocheck_testSound	stereocheck_correctResponse	DL_index	DL_soundfile	DL_leftSound	DL_rightSound	DL_dualSound	DL_choice
6.6.1	win	2023-06-02	03:48:02	0	0	5b8e11444cd6dd0001bf07d9	1	1	headphonecheck_calibration	4	headphonecheck_calibrationIntro	1			0		calibrationButton	0	4613	0	0			0	0			1				0	
6.6.1	win	2023-06-02	03:48:02	0	0	5b8e11444cd6dd0001bf07d9	1	1	headphonecheck_testphase	5	test_collectResponse	3			0		first	1	1313	1	4	antiphase_hc_sio.wav	1	0	0			1				0	
6.6.1	win	2023-06-02	03:48:02	0	0	5b8e11444cd6dd0001bf07d9	1	1	headphonecheck_testphase	5	test_collectResponse	6			0		second	1	618	2	5	antiphase_hc_osi.wav	2	0	0			1				0	
6.6.1	win	2023-06-02	03:48:02	0	0	5b8e11444cd6dd0001bf07d9	1	1	headphonecheck_testphase	5	test_collectResponse	9			0		first	1	591	3	3	antiphase_hc_soi.wav	1	0	0			1				0	
6.6.1	win	2023-06-02	03:48:02	0	0	5b8e11444cd6dd0001bf07d9	1	1	headphonecheck_testphase	5	test_collectResponse	12			0		third	1	1886	4	6	antiphase_hc_ois.wav	3	0	0			1				0	
6.6.1	win	2023-06-02	03:48:02	0	0	5b8e11444cd6dd0001bf07d9	1	1	headphonecheck_testphase	5	test_collectResponse	15			0		second	1	344	5	1	antiphase_hc_iso.wav	2	0	0			1				0	
6.6.1	win	2023-06-02	03:48:02	0	0	5b8e11444cd6dd0001bf07d9	1	1	headphonecheck_testphase	5	test_collectResponse	18			0		third	1	827	6	2	antiphase_hc_ios.wav	3	0	0			1				0	
6.6.1	win	2023-06-02	03:48:02	0	0	5b8e11444cd6dd0001bf07d9	1	1	stereocheck_calibration	7	stereocheck_calibrationIntro	1			0		stereocheck_calibrationButton	0	19787	6	2	antiphase_hc_ios.wav	3	0	0			1				0	
6.6.1	win	2023-06-02	03:48:02	0	0	5b8e11444cd6dd0001bf07d9	1	1	stereocheck_testphase	8	stereocheck_test_collectResponse	3			0		stereocheck_right	1	800	6	2	antiphase_hc_ios.wav	3	1	6	noise_calib_stim_RIGHT.wav	2	1				0	
6.6.1	win	2023-06-02	03:48:02	0	0	5b8e11444cd6dd0001bf07d9	1	1	stereocheck_testphase	8	stereocheck_test_collectResponse	6			0		stereocheck_right	1	666	6	2	antiphase_hc_ios.wav	3	2	5	noise_calib_stim_RIGHT.wav	2	1				0	
6.6.1	win	2023-06-02	03:48:02	0	0	5b8e11444cd6dd0001bf07d9	1	1	stereocheck_testphase	8	stereocheck_test_collectResponse	9			0		stereocheck_left	1	568	6	2	antiphase_hc_ios.wav	3	3	2	noise_calib_stim_LEFT.wav	1	1				0	
6.6.1	win	2023-06-02	03:48:02	0	0	5b8e11444cd6dd0001bf07d9	1	1	stereocheck_testphase	8	stereocheck_test_collectResponse	12			0		stereocheck_right	1	741	6	2	antiphase_hc_ios.wav	3	4	4	noise_calib_stim_RIGHT.wav	2	1				0	
6.6.1	win	2023-06-02	03:48:02	0	0	5b8e11444cd6dd0001bf07d9	1	1	stereocheck_testphase	8	stereocheck_test_collectResponse	15			0		stereocheck_left	1	947	6	2	antiphase_hc_ios.wav	3	5	1	noise_calib_stim_LEFT.wav	1	1				0	
6.6.1	win	2023-06-02	03:48:02	0	0	5b8e11444cd6dd0001bf07d9	1	1	stereocheck_testphase	8	stereocheck_test_collectResponse	18			0		stereocheck_left	1	490	6	2	antiphase_hc_ios.wav	3	6	3	noise_calib_stim_LEFT.wav	1	1				0	
6.6.1	win	2023-06-02	03:48:02	0	0	5b8e11444cd6dd0001bf07d9	1	1	DL_practice	11	DL_practice	2			0		ka	0	3134	6	2	antiphase_hc_ios.wav	3	6	3	noise_calib_stim_LEFT.wav	1	18	blb_dichoticlistening_ga-ta.mp3	ga	ta	1	other
6.6.1	win	2023-06-02	03:48:02	0	0	5b8e11444cd6dd0001bf07d9	1	1	DL_practice	11	DL_practice	3			0		pa	1	2099	6	2	antiphase_hc_ios.wav	3	6	3	noise_calib_stim_LEFT.wav	1	23	blb_dichoticlistening_ka-pa.mp3	ka	pa	1	right
6.6.1	win	2023-06-02	03:48:02	0	0	5b8e11444cd6dd0001bf07d9	1	1	DL_practice	11	DL_practice	4			0		da	0	1509	6	2	antiphase_hc_ios.wav	3	6	3	noise_calib_stim_LEFT.wav	1	15	blb_dichoticlistening_ga-ga.mp3	ga	ga	0	other
6.6.1	win	2023-06-02	03:48:02	0	0	5b8e11444cd6dd0001bf07d9	1	1	DL_practice	11	DL_practice	5			0		da	1	1175	6	2	antiphase_hc_ios.wav	3	6	3	noise_calib_stim_LEFT.wav	1	8	blb_dichoticlistening_da-da.mp3	da	da	0	left
6.6.1	win	2023-06-02	03:48:02	0	0	5b8e11444cd6dd0001bf07d9	1	1	DL_practice	11	DL_practice	6			0		pa	1	1466	6	2	antiphase_hc_ios.wav	3	6	3	noise_calib_stim_LEFT.wav	1	29	blb_dichoticlistening_pa-pa.mp3	pa	pa	0	left
6.6.1	win	2023-06-02	03:48:02	0	0	5b8e11444cd6dd0001bf07d9	1	1	DL_practice	11	DL_practice	7			0		ba	1	1774	6	2	antiphase_hc_ios.wav	3	6	3	noise_calib_stim_LEFT.wav	1	1	blb_dichoticlistening_ba-ba.mp3	ba	ba	0	left
6.6.1	win	2023-06-02	03:48:02	0	0	5b8e11444cd6dd0001bf07d9	1	1	DL_practice	11	DL_practice	8			0		ta	1	1562	6	2	antiphase_hc_ios.wav	3	6	3	noise_calib_stim_LEFT.wav	1	36	blb_dichoticlistening_ta-ta.mp3	ta	ta	0	left
6.6.1	win	2023-06-02	03:48:02	0	0	5b8e11444cd6dd0001bf07d9	1	1	DL_practice	11	DL_practice	9			0		ba	1	2176	6	2	antiphase_hc_ios.wav	3	6	3	noise_calib_stim_LEFT.wav	1	7	blb_dichoticlistening_da-ba.mp3	da	ba	1	right
6.6.1	win	2023-06-02	03:48:02	0	0	5b8e11444cd6dd0001bf07d9	1	1	DL_practice	11	DL_practice	10			0		ka	1	1367	6	2	antiphase_hc_ios.wav	3	6	3	noise_calib_stim_LEFT.wav	1	22	blb_dichoticlistening_ka-ka.mp3	ka	ka	0	left
6.6.1	win	2023-06-02	03:48:02	0	0	5b8e11444cd6dd0001bf07d9	1	1	DL_test	13	DL_test	1			0		ka	1	1599	6	2	antiphase_hc_ios.wav	3	6	3	noise_calib_stim_LEFT.wav	1	16	blb_dichoticlistening_ga-ka.mp3	ga	ka	1	right
6.6.1	win	2023-06-02	03:48:02	0	0	5b8e11444cd6dd0001bf07d9	1	1	DL_test	13	DL_test	2			0		da	0	1449	6	2	antiphase_hc_ios.wav	3	6	3	noise_calib_stim_LEFT.wav	1	15	blb_dichoticlistening_ga-ga.mp3	ga	ga	0	other
6.6.1	win	2023-06-02	03:48:02	0	0	5b8e11444cd6dd0001bf07d9	1	1	DL_test	13	DL_test	3			0		ta	1	1375	6	2	antiphase_hc_ios.wav	3	6	3	noise_calib_stim_LEFT.wav	1	24	blb_dichoticlistening_ka-ta.mp3	ka	ta	1	right
6.6.1	win	2023-06-02	03:48:02	0	0	5b8e11444cd6dd0001bf07d9	1	1	DL_test	13	DL_test	4			0		da	1	1308	6	2	antiphase_hc_ios.wav	3	6	3	noise_calib_stim_LEFT.wav	1	8	blb_dichoticlistening_da-da.mp3	da	da	0	left
6.6.1	win	2023-06-02	03:48:02	0	0	5b8e11444cd6dd0001bf07d9	1	1	DL_test	13	DL_test	5			0		pa	1	1320	6	2	antiphase_hc_ios.wav	3	6	3	noise_calib_stim_LEFT.wav	1	25	blb_dichoticlistening_pa-ba.mp3	pa	ba	1	left
6.6.1	win	2023-06-02	03:48:02	0	0	5b8e11444cd6dd0001bf07d9	1	1	DL_test	13	DL_test	6			0		ta	1	2237	6	2	antiphase_hc_ios.wav	3	6	3	noise_calib_stim_LEFT.wav	1	18	blb_dichoticlistening_ga-ta.mp3	ga	ta	1	right
6.6.1	win	2023-06-02	03:48:02	0	0	5b8e11444cd6dd0001bf07d9	1	1	DL_test	13	DL_test	7			0		ta	0	1644	6	2	antiphase_hc_ios.wav	3	6	3	noise_calib_stim_LEFT.wav	1	20	blb_dichoticlistening_ka-da.mp3	ka	da	1	other
6.6.1	win	2023-06-02	03:48:02	0	0	5b8e11444cd6dd0001bf07d9	1	1	DL_test	13	DL_test	8			0		pa	1	1085	6	2	antiphase_hc_ios.wav	3	6	3	noise_calib_stim_LEFT.wav	1	5	blb_dichoticlistening_ba-pa.mp3	ba	pa	1	right
6.6.1	win	2023-06-02	03:48:02	0	0	5b8e11444cd6dd0001bf07d9	1	1	DL_test	13	DL_test	9			0		da	0	2455	6	2	antiphase_hc_ios.wav	3	6	3	noise_calib_stim_LEFT.wav	1	33	blb_dichoticlistening_ta-ga.mp3	ta	ga	1	other
6.6.1	win	2023-06-02	03:48:02	0	0	5b8e11444cd6dd0001bf07d9	1	1	DL_test	13	DL_test	10			0		ka	1	2782	6	2	antiphase_hc_ios.wav	3	6	3	noise_calib_stim_LEFT.wav	1	4	blb_dichoticlistening_ba-ka.mp3	ba	ka	1	right
6.6.1	win	2023-06-02	03:48:02	0	0	5b8e11444cd6dd0001bf07d9	1	1	DL_test	13	DL_test	11			0		pa	1	2080	6	2	antiphase_hc_ios.wav	3	6	3	noise_calib_stim_LEFT.wav	1	35	blb_dichoticlistening_ta-pa.mp3	ta	pa	1	right
6.6.1	win	2023-06-02	03:48:02	0	0	5b8e11444cd6dd0001bf07d9	1	1	DL_test	13	DL_test	12			0		ta	1	1367	6	2	antiphase_hc_ios.wav	3	6	3	noise_calib_stim_LEFT.wav	1	12	blb_dichoticlistening_da-ta.mp3	da	ta	1	right
6.6.1	win	2023-06-02	03:48:02	0	0	5b8e11444cd6dd0001bf07d9	1	1	DL_test	13	DL_test	13			0		ba	1	3135	6	2	antiphase_hc_ios.wav	3	6	3	noise_calib_stim_LEFT.wav	1	1	blb_dichoticlistening_ba-ba.mp3	ba	ba	0	left
6.6.1	win	2023-06-02	03:48:02	0	0	5b8e11444cd6dd0001bf07d9	1	1	DL_test	13	DL_test	14			0		ta	1	1581	6	2	antiphase_hc_ios.wav	3	6	3	noise_calib_stim_LEFT.wav	1	34	blb_dichoticlistening_ta-ka.mp3	ta	ka	1	left
6.6.1	win	2023-06-02	03:48:02	0	0	5b8e11444cd6dd0001bf07d9	1	1	DL_test	13	DL_test	15			0		ta	0	3209	6	2	antiphase_hc_ios.wav	3	6	3	noise_calib_stim_LEFT.wav	1	21	blb_dichoticlistening_ka-ga.mp3	ka	ga	1	other
6.6.1	win	2023-06-02	03:48:02	0	0	5b8e11444cd6dd0001bf07d9	1	1	DL_test	13	DL_test	16			0		ba	1	2408	6	2	antiphase_hc_ios.wav	3	6	3	noise_calib_stim_LEFT.wav	1	13	blb_dichoticlistening_ga-ba.mp3	ga	ba	1	right
6.6.1	win	2023-06-02	03:48:02	0	0	5b8e11444cd6dd0001bf07d9	1	1	DL_test	13	DL_test	17			0		ka	1	1337	6	2	antiphase_hc_ios.wav	3	6	3	noise_calib_stim_LEFT.wav	1	22	blb_dichoticlistening_ka-ka.mp3	ka	ka	0	left
6.6.1	win	2023-06-02	03:48:02	0	0	5b8e11444cd6dd0001bf07d9	1	1	DL_test	13	DL_test	18			0		pa	0	2001	6	2	antiphase_hc_ios.wav	3	6	3	noise_calib_stim_LEFT.wav	1	19	blb_dichoticlistening_ka-ba.mp3	ka	ba	1	other
6.6.1	win	2023-06-02	03:48:02	0	0	5b8e11444cd6dd0001bf07d9	1	1	DL_test	13	DL_test	19			0		da	1	1473	6	2	antiphase_hc_ios.wav	3	6	3	noise_calib_stim_LEFT.wav	1	14	blb_dichoticlistening_ga-da.mp3	ga	da	1	right
6.6.1	win	2023-06-02	03:48:02	0	0	5b8e11444cd6dd0001bf07d9	1	1	DL_test	13	DL_test	20			0		pa	1	2244	6	2	antiphase_hc_ios.wav	3	6	3	noise_calib_stim_LEFT.wav	1	27	blb_dichoticlistening_pa-ga.mp3	pa	ga	1	left
6.6.1	win	2023-06-02	03:48:02	0	0	5b8e11444cd6dd0001bf07d9	1	1	DL_test	13	DL_test	21			0		da	1	1294	6	2	antiphase_hc_ios.wav	3	6	3	noise_calib_stim_LEFT.wav	1	2	blb_dichoticlistening_ba-da.mp3	ba	da	1	right
6.6.1	win	2023-06-02	03:48:02	0	0	5b8e11444cd6dd0001bf07d9	1	1	DL_test	13	DL_test	22			0		pa	1	2859	6	2	antiphase_hc_ios.wav	3	6	3	noise_calib_stim_LEFT.wav	1	17	blb_dichoticlistening_ga-pa.mp3	ga	pa	1	right
6.6.1	win	2023-06-02	03:48:02	0	0	5b8e11444cd6dd0001bf07d9	1	1	DL_test	13	DL_test	23			0		da	1	1573	6	2	antiphase_hc_ios.wav	3	6	3	noise_calib_stim_LEFT.wav	1	9	blb_dichoticlistening_da-ga.mp3	da	ga	1	left
6.6.1	win	2023-06-02	03:48:02	0	0	5b8e11444cd6dd0001bf07d9	1	1	DL_test	13	DL_test	24			0		pa	0	2440	6	2	antiphase_hc_ios.wav	3	6	3	noise_calib_stim_LEFT.wav	1	31	blb_dichoticlistening_ta-ba.mp3	ta	ba	1	other
6.6.1	win	2023-06-02	03:48:02	0	0	5b8e11444cd6dd0001bf07d9	1	1	DL_test	13	DL_test	25			0		ta	0	4214	6	2	antiphase_hc_ios.wav	3	6	3	noise_calib_stim_LEFT.wav	1	26	blb_dichoticlistening_pa-da.mp3	pa	da	1	other
6.6.1	win	2023-06-02	03:48:02	0	0	5b8e11444cd6dd0001bf07d9	1	1	DL_test	13	DL_test	26			0		pa	0	1532	6	2	antiphase_hc_ios.wav	3	6	3	noise_calib_stim_LEFT.wav	1	10	blb_dichoticlistening_da-ka.mp3	da	ka	1	other
6.6.1	win	2023-06-02	03:48:02	0	0	5b8e11444cd6dd0001bf07d9	1	1	DL_test	13	DL_test	27			0		ta	1	2179	6	2	antiphase_hc_ios.wav	3	6	3	noise_calib_stim_LEFT.wav	1	6	blb_dichoticlistening_ba-ta.mp3	ba	ta	1	right
6.6.1	win	2023-06-02	03:48:02	0	0	5b8e11444cd6dd0001bf07d9	1	1	DL_test	13	DL_test	28			0		ta	1	1699	6	2	antiphase_hc_ios.wav	3	6	3	noise_calib_stim_LEFT.wav	1	32	blb_dichoticlistening_ta-da.mp3	ta	da	1	left
6.6.1	win	2023-06-02	03:48:02	0	0	5b8e11444cd6dd0001bf07d9	1	1	DL_test	13	DL_test	29			0		pa	1	1210	6	2	antiphase_hc_ios.wav	3	6	3	noise_calib_stim_LEFT.wav	1	29	blb_dichoticlistening_pa-pa.mp3	pa	pa	0	left
6.6.1	win	2023-06-02	03:48:02	0	0	5b8e11444cd6dd0001bf07d9	1	1	DL_test	13	DL_test	30			0		ta	1	1174	6	2	antiphase_hc_ios.wav	3	6	3	noise_calib_stim_LEFT.wav	1	36	blb_dichoticlistening_ta-ta.mp3	ta	ta	0	left
6.6.1	win	2023-06-02	03:48:02	0	0	5b8e11444cd6dd0001bf07d9	1	1	DL_test	13	DL_test	31			0		pa	1	3082	6	2	antiphase_hc_ios.wav	3	6	3	noise_calib_stim_LEFT.wav	1	28	blb_dichoticlistening_pa-ka.mp3	pa	ka	1	left
6.6.1	win	2023-06-02	03:48:02	0	0	5b8e11444cd6dd0001bf07d9	1	1	DL_test	13	DL_test	32			0		ba	1	3694	6	2	antiphase_hc_ios.wav	3	6	3	noise_calib_stim_LEFT.wav	1	7	blb_dichoticlistening_da-ba.mp3	da	ba	1	right
6.6.1	win	2023-06-02	03:48:02	0	0	5b8e11444cd6dd0001bf07d9	1	1	DL_test	13	DL_test	33			0		da	0	938	6	2	antiphase_hc_ios.wav	3	6	3	noise_calib_stim_LEFT.wav	1	3	blb_dichoticlistening_ba-ga.mp3	ba	ga	1	other
6.6.1	win	2023-06-02	03:48:02	0	0	5b8e11444cd6dd0001bf07d9	1	1	DL_test	13	DL_test	34			0		pa	1	1246	6	2	antiphase_hc_ios.wav	3	6	3	noise_calib_stim_LEFT.wav	1	11	blb_dichoticlistening_da-pa.mp3	da	pa	1	right
6.6.1	win	2023-06-02	03:48:02	0	0	5b8e11444cd6dd0001bf07d9	1	1	DL_test	13	DL_test	35			0		pa	1	1115	6	2	antiphase_hc_ios.wav	3	6	3	noise_calib_stim_LEFT.wav	1	23	blb_dichoticlistening_ka-pa.mp3	ka	pa	1	right
6.6.1	win	2023-06-02	03:48:02	0	0	5b8e11444cd6dd0001bf07d9	1	1	DL_test	13	DL_test	36			0		ta	1	1652	6	2	antiphase_hc_ios.wav	3	6	3	noise_calib_stim_LEFT.wav	1	30	blb_dichoticlistening_pa-ta.mp3	pa	ta	1	right
6.6.1	win	2023-06-02	03:48:02	0	0	5b8e11444cd6dd0001bf07d9	1	1	DL_test	14	DL_test	1			0		pa	1	3229	6	2	antiphase_hc_ios.wav	3	6	3	noise_calib_stim_LEFT.wav	1	11	blb_dichoticlistening_da-pa.mp3	da	pa	1	right
6.6.1	win	2023-06-02	03:48:02	0	0	5b8e11444cd6dd0001bf07d9	1	1	DL_test	14	DL_test	2			0		ka	1	1552	6	2	antiphase_hc_ios.wav	3	6	3	noise_calib_stim_LEFT.wav	1	4	blb_dichoticlistening_ba-ka.mp3	ba	ka	1	right
6.6.1	win	2023-06-02	03:48:02	0	0	5b8e11444cd6dd0001bf07d9	1	1	DL_test	14	DL_test	3			0		ta	1	1504	6	2	antiphase_hc_ios.wav	3	6	3	noise_calib_stim_LEFT.wav	1	18	blb_dichoticlistening_ga-ta.mp3	ga	ta	1	right
6.6.1	win	2023-06-02	03:48:02	0	0	5b8e11444cd6dd0001bf07d9	1	1	DL_test	14	DL_test	4			0		da	1	1282	6	2	antiphase_hc_ios.wav	3	6	3	noise_calib_stim_LEFT.wav	1	9	blb_dichoticlistening_da-ga.mp3	da	ga	1	left
6.6.1	win	2023-06-02	03:48:02	0	0	5b8e11444cd6dd0001bf07d9	1	1	DL_test	14	DL_test	5			0		ka	1	1980	6	2	antiphase_hc_ios.wav	3	6	3	noise_calib_stim_LEFT.wav	1	34	blb_dichoticlistening_ta-ka.mp3	ta	ka	1	right
6.6.1	win	2023-06-02	03:48:02	0	0	5b8e11444cd6dd0001bf07d9	1	1	DL_test	14	DL_test	6			0		ka	1	1241	6	2	antiphase_hc_ios.wav	3	6	3	noise_calib_stim_LEFT.wav	1	21	blb_dichoticlistening_ka-ga.mp3	ka	ga	1	left
6.6.1	win	2023-06-02	03:48:02	0	0	5b8e11444cd6dd0001bf07d9	1	1	DL_test	14	DL_test	7			0		ba	1	1483	6	2	antiphase_hc_ios.wav	3	6	3	noise_calib_stim_LEFT.wav	1	7	blb_dichoticlistening_da-ba.mp3	da	ba	1	right
6.6.1	win	2023-06-02	03:48:02	0	0	5b8e11444cd6dd0001bf07d9	1	1	DL_test	14	DL_test	8			0		ta	1	1274	6	2	antiphase_hc_ios.wav	3	6	3	noise_calib_stim_LEFT.wav	1	24	blb_dichoticlistening_ka-ta.mp3	ka	ta	1	right
6.6.1	win	2023-06-02	03:48:02	0	0	5b8e11444cd6dd0001bf07d9	1	1	DL_test	14	DL_test	9			0		ka	1	1062	6	2	antiphase_hc_ios.wav	3	6	3	noise_calib_stim_LEFT.wav	1	16	blb_dichoticlistening_ga-ka.mp3	ga	ka	1	right
6.6.1	win	2023-06-02	03:48:02	0	0	5b8e11444cd6dd0001bf07d9	1	1	DL_test	14	DL_test	10			0		ga	1	1117	6	2	antiphase_hc_ios.wav	3	6	3	noise_calib_stim_LEFT.wav	1	3	blb_dichoticlistening_ba-ga.mp3	ba	ga	1	right
6.6.1	win	2023-06-02	03:48:02	0	0	5b8e11444cd6dd0001bf07d9	1	1	DL_test	14	DL_test	11			0		pa	1	1172	6	2	antiphase_hc_ios.wav	3	6	3	noise_calib_stim_LEFT.wav	1	25	blb_dichoticlistening_pa-ba.mp3	pa	ba	1	left
6.6.1	win	2023-06-02	03:48:02	0	0	5b8e11444cd6dd0001bf07d9	1	1	DL_test	14	DL_test	12			0		ta	1	1806	6	2	antiphase_hc_ios.wav	3	6	3	noise_calib_stim_LEFT.wav	1	33	blb_dichoticlistening_ta-ga.mp3	ta	ga	1	left
6.6.1	win	2023-06-02	03:48:02	0	0	5b8e11444cd6dd0001bf07d9	1	1	DL_test	14	DL_test	13			0		pa	1	1996	6	2	antiphase_hc_ios.wav	3	6	3	noise_calib_stim_LEFT.wav	1	23	blb_dichoticlistening_ka-pa.mp3	ka	pa	1	right
6.6.1	win	2023-06-02	03:48:02	0	0	5b8e11444cd6dd0001bf07d9	1	1	DL_test	14	DL_test	14			0		ta	1	1260	6	2	antiphase_hc_ios.wav	3	6	3	noise_calib_stim_LEFT.wav	1	36	blb_dichoticlistening_ta-ta.mp3	ta	ta	0	left
6.6.1	win	2023-06-02	03:48:02	0	0	5b8e11444cd6dd0001bf07d9	1	1	DL_test	14	DL_test	15			0		ka	1	1061	6	2	antiphase_hc_ios.wav	3	6	3	noise_calib_stim_LEFT.wav	1	22	blb_dichoticlistening_ka-ka.mp3	ka	ka	0	left
6.6.1	win	2023-06-02	03:48:02	0	0	5b8e11444cd6dd0001bf07d9	1	1	DL_test	14	DL_test	16			0		pa	0	2116	6	2	antiphase_hc_ios.wav	3	6	3	noise_calib_stim_LEFT.wav	1	31	blb_dichoticlistening_ta-ba.mp3	ta	ba	1	other
6.6.1	win	2023-06-02	03:48:02	0	0	5b8e11444cd6dd0001bf07d9	1	1	DL_test	14	DL_test	17			0		pa	1	1194	6	2	antiphase_hc_ios.wav	3	6	3	noise_calib_stim_LEFT.wav	1	5	blb_dichoticlistening_ba-pa.mp3	ba	pa	1	right
6.6.1	win	2023-06-02	03:48:02	0	0	5b8e11444cd6dd0001bf07d9	1	1	DL_test	14	DL_test	18			0		ta	1	1159	6	2	antiphase_hc_ios.wav	3	6	3	noise_calib_stim_LEFT.wav	1	12	blb_dichoticlistening_da-ta.mp3	da	ta	1	right
6.6.1	win	2023-06-02	03:48:02	0	0	5b8e11444cd6dd0001bf07d9	1	1	DL_test	14	DL_test	19			0		da	1	1275	6	2	antiphase_hc_ios.wav	3	6	3	noise_calib_stim_LEFT.wav	1	8	blb_dichoticlistening_da-da.mp3	da	da	0	left
6.6.1	win	2023-06-02	03:48:02	0	0	5b8e11444cd6dd0001bf07d9	1	1	DL_test	14	DL_test	20			0		da	1	1064	6	2	antiphase_hc_ios.wav	3	6	3	noise_calib_stim_LEFT.wav	1	2	blb_dichoticlistening_ba-da.mp3	ba	da	1	right
6.6.1	win	2023-06-02	03:48:02	0	0	5b8e11444cd6dd0001bf07d9	1	1	DL_test	14	DL_test	21			0		ka	1	1493	6	2	antiphase_hc_ios.wav	3	6	3	noise_calib_stim_LEFT.wav	1	20	blb_dichoticlistening_ka-da.mp3	ka	da	1	left
6.6.1	win	2023-06-02	03:48:02	0	0	5b8e11444cd6dd0001bf07d9	1	1	DL_test	14	DL_test	22			0		ga	1	977	6	2	antiphase_hc_ios.wav	3	6	3	noise_calib_stim_LEFT.wav	1	15	blb_dichoticlistening_ga-ga.mp3	ga	ga	0	left
6.6.1	win	2023-06-02	03:48:02	0	0	5b8e11444cd6dd0001bf07d9	1	1	DL_test	14	DL_test	23			0		ta	1	2883	6	2	antiphase_hc_ios.wav	3	6	3	noise_calib_stim_LEFT.wav	1	30	blb_dichoticlistening_pa-ta.mp3	pa	ta	1	right
6.6.1	win	2023-06-02	03:48:02	0	0	5b8e11444cd6dd0001bf07d9	1	1	DL_test	14	DL_test	24			0		ba	1	1842	6	2	antiphase_hc_ios.wav	3	6	3	noise_calib_stim_LEFT.wav	1	1	blb_dichoticlistening_ba-ba.mp3	ba	ba	0	left
6.6.1	win	2023-06-02	03:48:02	0	0	5b8e11444cd6dd0001bf07d9	1	1	DL_test	14	DL_test	25			0		pa	0	1309	6	2	antiphase_hc_ios.wav	3	6	3	noise_calib_stim_LEFT.wav	1	10	blb_dichoticlistening_da-ka.mp3	da	ka	1	other
6.6.1	win	2023-06-02	03:48:02	0	0	5b8e11444cd6dd0001bf07d9	1	1	DL_test	14	DL_test	26			0		ta	1	1456	6	2	antiphase_hc_ios.wav	3	6	3	noise_calib_stim_LEFT.wav	1	6	blb_dichoticlistening_ba-ta.mp3	ba	ta	1	right
6.6.1	win	2023-06-02	03:48:02	0	0	5b8e11444cd6dd0001bf07d9	1	1	DL_test	14	DL_test	27			0		pa	1	1340	6	2	antiphase_hc_ios.wav	3	6	3	noise_calib_stim_LEFT.wav	1	35	blb_dichoticlistening_ta-pa.mp3	ta	pa	1	right
6.6.1	win	2023-06-02	03:48:02	0	0	5b8e11444cd6dd0001bf07d9	1	1	DL_test	14	DL_test	28			0		pa	0	14739	6	2	antiphase_hc_ios.wav	3	6	3	noise_calib_stim_LEFT.wav	1	13	blb_dichoticlistening_ga-ba.mp3	ga	ba	1	other
6.6.1	win	2023-06-02	03:48:02	0	0	5b8e11444cd6dd0001bf07d9	1	1	DL_test	14	DL_test	29			0		ka	1	1301	6	2	antiphase_hc_ios.wav	3	6	3	noise_calib_stim_LEFT.wav	1	19	blb_dichoticlistening_ka-ba.mp3	ka	ba	1	left
6.6.1	win	2023-06-02	03:48:02	0	0	5b8e11444cd6dd0001bf07d9	1	1	DL_test	14	DL_test	30			0		ta	1	1226	6	2	antiphase_hc_ios.wav	3	6	3	noise_calib_stim_LEFT.wav	1	32	blb_dichoticlistening_ta-da.mp3	ta	da	1	left
6.6.1	win	2023-06-02	03:48:02	0	0	5b8e11444cd6dd0001bf07d9	1	1	DL_test	14	DL_test	31			0		pa	1	1214	6	2	antiphase_hc_ios.wav	3	6	3	noise_calib_stim_LEFT.wav	1	17	blb_dichoticlistening_ga-pa.mp3	ga	pa	1	right
6.6.1	win	2023-06-02	03:48:02	0	0	5b8e11444cd6dd0001bf07d9	1	1	DL_test	14	DL_test	32			0		da	1	1312	6	2	antiphase_hc_ios.wav	3	6	3	noise_calib_stim_LEFT.wav	1	14	blb_dichoticlistening_ga-da.mp3	ga	da	1	right
6.6.1	win	2023-06-02	03:48:02	0	0	5b8e11444cd6dd0001bf07d9	1	1	DL_test	14	DL_test	33			0		pa	1	3228	6	2	antiphase_hc_ios.wav	3	6	3	noise_calib_stim_LEFT.wav	1	28	blb_dichoticlistening_pa-ka.mp3	pa	ka	1	left
6.6.1	win	2023-06-02	03:48:02	0	0	5b8e11444cd6dd0001bf07d9	1	1	DL_test	14	DL_test	34			0		ga	1	3102	6	2	antiphase_hc_ios.wav	3	6	3	noise_calib_stim_LEFT.wav	1	27	blb_dichoticlistening_pa-ga.mp3	pa	ga	1	right
6.6.1	win	2023-06-02	03:48:02	0	0	5b8e11444cd6dd0001bf07d9	1	1	DL_test	14	DL_test	35			0		pa	1	2458	6	2	antiphase_hc_ios.wav	3	6	3	noise_calib_stim_LEFT.wav	1	26	blb_dichoticlistening_pa-da.mp3	pa	da	1	left
6.6.1	win	2023-06-02	03:48:02	0	0	5b8e11444cd6dd0001bf07d9	1	1	DL_test	14	DL_test	36			0		pa	1	1061	6	2	antiphase_hc_ios.wav	3	6	3	noise_calib_stim_LEFT.wav	1	29	blb_dichoticlistening_pa-pa.mp3	pa	pa	0	left
6.6.1	win	2023-06-02	03:48:02	0	0	5b8e11444cd6dd0001bf07d9	1	1	DL_test	15	DL_test	1			0		ba	1	3888	6	2	antiphase_hc_ios.wav	3	6	3	noise_calib_stim_LEFT.wav	1	19	blb_dichoticlistening_ka-ba.mp3	ka	ba	1	right
6.6.1	win	2023-06-02	03:48:02	0	0	5b8e11444cd6dd0001bf07d9	1	1	DL_test	15	DL_test	2			0		pa	1	1520	6	2	antiphase_hc_ios.wav	3	6	3	noise_calib_stim_LEFT.wav	1	23	blb_dichoticlistening_ka-pa.mp3	ka	pa	1	right
6.6.1	win	2023-06-02	03:48:02	0	0	5b8e11444cd6dd0001bf07d9	1	1	DL_test	15	DL_test	3			0		ga	1	1318	6	2	antiphase_hc_ios.wav	3	6	3	noise_calib_stim_LEFT.wav	1	15	blb_dichoticlistening_ga-ga.mp3	ga	ga	0	left
6.6.1	win	2023-06-02	03:48:02	0	0	5b8e11444cd6dd0001bf07d9	1	1	DL_test	15	DL_test	4			0		ta	1	1184	6	2	antiphase_hc_ios.wav	3	6	3	noise_calib_stim_LEFT.wav	1	36	blb_dichoticlistening_ta-ta.mp3	ta	ta	0	left
6.6.1	win	2023-06-02	03:48:02	0	0	5b8e11444cd6dd0001bf07d9	1	1	DL_test	15	DL_test	5			0		pa	1	1694	6	2	antiphase_hc_ios.wav	3	6	3	noise_calib_stim_LEFT.wav	1	11	blb_dichoticlistening_da-pa.mp3	da	pa	1	right
6.6.1	win	2023-06-02	03:48:02	0	0	5b8e11444cd6dd0001bf07d9	1	1	DL_test	15	DL_test	6			0		ga	1	1628	6	2	antiphase_hc_ios.wav	3	6	3	noise_calib_stim_LEFT.wav	1	27	blb_dichoticlistening_pa-ga.mp3	pa	ga	1	right
6.6.1	win	2023-06-02	03:48:02	0	0	5b8e11444cd6dd0001bf07d9	1	1	DL_test	15	DL_test	7			0		ka	1	2292	6	2	antiphase_hc_ios.wav	3	6	3	noise_calib_stim_LEFT.wav	1	21	blb_dichoticlistening_ka-ga.mp3	ka	ga	1	left
6.6.1	win	2023-06-02	03:48:02	0	0	5b8e11444cd6dd0001bf07d9	1	1	DL_test	15	DL_test	8			0		ba	1	2058	6	2	antiphase_hc_ios.wav	3	6	3	noise_calib_stim_LEFT.wav	1	31	blb_dichoticlistening_ta-ba.mp3	ta	ba	1	right
6.6.1	win	2023-06-02	03:48:02	0	0	5b8e11444cd6dd0001bf07d9	1	1	DL_test	15	DL_test	9			0		ka	1	1264	6	2	antiphase_hc_ios.wav	3	6	3	noise_calib_stim_LEFT.wav	1	16	blb_dichoticlistening_ga-ka.mp3	ga	ka	1	right
6.6.1	win	2023-06-02	03:48:02	0	0	5b8e11444cd6dd0001bf07d9	1	1	DL_test	15	DL_test	10			0		ba	1	2129	6	2	antiphase_hc_ios.wav	3	6	3	noise_calib_stim_LEFT.wav	1	7	blb_dichoticlistening_da-ba.mp3	da	ba	1	right
6.6.1	win	2023-06-02	03:48:02	0	0	5b8e11444cd6dd0001bf07d9	1	1	DL_test	15	DL_test	11			0		pa	1	1175	6	2	antiphase_hc_ios.wav	3	6	3	noise_calib_stim_LEFT.wav	1	25	blb_dichoticlistening_pa-ba.mp3	pa	ba	1	left
6.6.1	win	2023-06-02	03:48:02	0	0	5b8e11444cd6dd0001bf07d9	1	1	DL_test	15	DL_test	12			0		da	1	1806	6	2	antiphase_hc_ios.wav	3	6	3	noise_calib_stim_LEFT.wav	1	8	blb_dichoticlistening_da-da.mp3	da	da	0	left
6.6.1	win	2023-06-02	03:48:02	0	0	5b8e11444cd6dd0001bf07d9	1	1	DL_test	15	DL_test	13			0		ta	1	1319	6	2	antiphase_hc_ios.wav	3	6	3	noise_calib_stim_LEFT.wav	1	30	blb_dichoticlistening_pa-ta.mp3	pa	ta	1	right
6.6.1	win	2023-06-02	03:48:02	0	0	5b8e11444cd6dd0001bf07d9	1	1	DL_test	15	DL_test	14			0		da	1	2050	6	2	antiphase_hc_ios.wav	3	6	3	noise_calib_stim_LEFT.wav	1	26	blb_dichoticlistening_pa-da.mp3	pa	da	1	right
6.6.1	win	2023-06-02	03:48:02	0	0	5b8e11444cd6dd0001bf07d9	1	1	DL_test	15	DL_test	15			0		da	1	1098	6	2	antiphase_hc_ios.wav	3	6	3	noise_calib_stim_LEFT.wav	1	9	blb_dichoticlistening_da-ga.mp3	da	ga	1	left
6.6.1	win	2023-06-02	03:48:02	0	0	5b8e11444cd6dd0001bf07d9	1	1	DL_test	15	DL_test	16			0		ka	0	2341	6	2	antiphase_hc_ios.wav	3	6	3	noise_calib_stim_LEFT.wav	1	6	blb_dichoticlistening_ba-ta.mp3	ba	ta	1	other
6.6.1	win	2023-06-02	03:48:02	0	0	5b8e11444cd6dd0001bf07d9	1	1	DL_test	15	DL_test	17			0		pa	1	1314	6	2	antiphase_hc_ios.wav	3	6	3	noise_calib_stim_LEFT.wav	1	17	blb_dichoticlistening_ga-pa.mp3	ga	pa	1	right
6.6.1	win	2023-06-02	03:48:02	0	0	5b8e11444cd6dd0001bf07d9	1	1	DL_test	15	DL_test	18			0		ta	1	1242	6	2	antiphase_hc_ios.wav	3	6	3	noise_calib_stim_LEFT.wav	1	12	blb_dichoticlistening_da-ta.mp3	da	ta	1	right
6.6.1	win	2023-06-02	03:48:02	0	0	5b8e11444cd6dd0001bf07d9	1	1	DL_test	15	DL_test	19			0		ga	1	1202	6	2	antiphase_hc_ios.wav	3	6	3	noise_calib_stim_LEFT.wav	1	3	blb_dichoticlistening_ba-ga.mp3	ba	ga	1	right
6.6.1	win	2023-06-02	03:48:02	0	0	5b8e11444cd6dd0001bf07d9	1	1	DL_test	15	DL_test	20			0		ka	1	1329	6	2	antiphase_hc_ios.wav	3	6	3	noise_calib_stim_LEFT.wav	1	34	blb_dichoticlistening_ta-ka.mp3	ta	ka	1	right
6.6.1	win	2023-06-02	03:48:02	0	0	5b8e11444cd6dd0001bf07d9	1	1	DL_test	15	DL_test	21			0		ba	1	2316	6	2	antiphase_hc_ios.wav	3	6	3	noise_calib_stim_LEFT.wav	1	1	blb_dichoticlistening_ba-ba.mp3	ba	ba	0	left
6.6.1	win	2023-06-02	03:48:02	0	0	5b8e11444cd6dd0001bf07d9	1	1	DL_test	15	DL_test	22			0		ka	1	1979	6	2	antiphase_hc_ios.wav	3	6	3	noise_calib_stim_LEFT.wav	1	28	blb_dichoticlistening_pa-ka.mp3	pa	ka	1	right
6.6.1	win	2023-06-02	03:48:02	0	0	5b8e11444cd6dd0001bf07d9	1	1	DL_test	15	DL_test	23			0		da	1	1238	6	2	antiphase_hc_ios.wav	3	6	3	noise_calib_stim_LEFT.wav	1	2	blb_dichoticlistening_ba-da.mp3	ba	da	1	right
6.6.1	win	2023-06-02	03:48:02	0	0	5b8e11444cd6dd0001bf07d9	1	1	DL_test	15	DL_test	24			0		da	1	1111	6	2	antiphase_hc_ios.wav	3	6	3	noise_calib_stim_LEFT.wav	1	14	blb_dichoticlistening_ga-da.mp3	ga	da	1	right
6.6.1	win	2023-06-02	03:48:02	0	0	5b8e11444cd6dd0001bf07d9	1	1	DL_test	15	DL_test	25			0		pa	1	1248	6	2	antiphase_hc_ios.wav	3	6	3	noise_calib_stim_LEFT.wav	1	5	blb_dichoticlistening_ba-pa.mp3	ba	pa	1	right
6.6.1	win	2023-06-02	03:48:02	0	0	5b8e11444cd6dd0001bf07d9	1	1	DL_test	15	DL_test	26			0		ka	1	2578	6	2	antiphase_hc_ios.wav	3	6	3	noise_calib_stim_LEFT.wav	1	20	blb_dichoticlistening_ka-da.mp3	ka	da	1	left
6.6.1	win	2023-06-02	03:48:02	0	0	5b8e11444cd6dd0001bf07d9	1	1	DL_test	15	DL_test	27			0		ta	1	1708	6	2	antiphase_hc_ios.wav	3	6	3	noise_calib_stim_LEFT.wav	1	24	blb_dichoticlistening_ka-ta.mp3	ka	ta	1	right
6.6.1	win	2023-06-02	03:48:02	0	0	5b8e11444cd6dd0001bf07d9	1	1	DL_test	15	DL_test	28			0		pa	1	1200	6	2	antiphase_hc_ios.wav	3	6	3	noise_calib_stim_LEFT.wav	1	29	blb_dichoticlistening_pa-pa.mp3	pa	pa	0	left
6.6.1	win	2023-06-02	03:48:02	0	0	5b8e11444cd6dd0001bf07d9	1	1	DL_test	15	DL_test	29			0		pa	0	1662	6	2	antiphase_hc_ios.wav	3	6	3	noise_calib_stim_LEFT.wav	1	10	blb_dichoticlistening_da-ka.mp3	da	ka	1	other
6.6.1	win	2023-06-02	03:48:02	0	0	5b8e11444cd6dd0001bf07d9	1	1	DL_test	15	DL_test	30			0		ka	1	1034	6	2	antiphase_hc_ios.wav	3	6	3	noise_calib_stim_LEFT.wav	1	22	blb_dichoticlistening_ka-ka.mp3	ka	ka	0	left
6.6.1	win	2023-06-02	03:48:02	0	0	5b8e11444cd6dd0001bf07d9	1	1	DL_test	15	DL_test	31			0		ba	1	1602	6	2	antiphase_hc_ios.wav	3	6	3	noise_calib_stim_LEFT.wav	1	13	blb_dichoticlistening_ga-ba.mp3	ga	ba	1	right
6.6.1	win	2023-06-02	03:48:02	0	0	5b8e11444cd6dd0001bf07d9	1	1	DL_test	15	DL_test	32			0		pa	1	1515	6	2	antiphase_hc_ios.wav	3	6	3	noise_calib_stim_LEFT.wav	1	35	blb_dichoticlistening_ta-pa.mp3	ta	pa	1	right
6.6.1	win	2023-06-02	03:48:02	0	0	5b8e11444cd6dd0001bf07d9	1	1	DL_test	15	DL_test	33			0		ka	1	1196	6	2	antiphase_hc_ios.wav	3	6	3	noise_calib_stim_LEFT.wav	1	4	blb_dichoticlistening_ba-ka.mp3	ba	ka	1	right
6.6.1	win	2023-06-02	03:48:02	0	0	5b8e11444cd6dd0001bf07d9	1	1	DL_test	15	DL_test	34			0		ta	1	1705	6	2	antiphase_hc_ios.wav	3	6	3	noise_calib_stim_LEFT.wav	1	18	blb_dichoticlistening_ga-ta.mp3	ga	ta	1	right
6.6.1	win	2023-06-02	03:48:02	0	0	5b8e11444cd6dd0001bf07d9	1	1	DL_test	15	DL_test	35			0		da	0	1586	6	2	antiphase_hc_ios.wav	3	6	3	noise_calib_stim_LEFT.wav	1	33	blb_dichoticlistening_ta-ga.mp3	ta	ga	1	other
6.6.1	win	2023-06-02	03:48:02	0	0	5b8e11444cd6dd0001bf07d9	1	1	DL_test	15	DL_test	36			0		da	1	1068	6	2	antiphase_hc_ios.wav	3	6	3	noise_calib_stim_LEFT.wav	1	32	blb_dichoticlistening_ta-da.mp3	ta	da	1	right
6.6.1	win	2023-06-02	03:48:02	0	0	5b8e11444cd6dd0001bf07d9	1	1	DL_test	16	DL_test	1			0		ta	1	2786	6	2	antiphase_hc_ios.wav	3	6	3	noise_calib_stim_LEFT.wav	1	31	blb_dichoticlistening_ta-ba.mp3	ta	ba	1	left
6.6.1	win	2023-06-02	03:48:02	0	0	5b8e11444cd6dd0001bf07d9	1	1	DL_test	16	DL_test	2			0		da	1	1392	6	2	antiphase_hc_ios.wav	3	6	3	noise_calib_stim_LEFT.wav	1	2	blb_dichoticlistening_ba-da.mp3	ba	da	1	right
6.6.1	win	2023-06-02	03:48:02	0	0	5b8e11444cd6dd0001bf07d9	1	1	DL_test	16	DL_test	3			0		ba	1	1835	6	2	antiphase_hc_ios.wav	3	6	3	noise_calib_stim_LEFT.wav	1	7	blb_dichoticlistening_da-ba.mp3	da	ba	1	right
6.6.1	win	2023-06-02	03:48:02	0	0	5b8e11444cd6dd0001bf07d9	1	1	DL_test	16	DL_test	4			0		ka	1	3232	6	2	antiphase_hc_ios.wav	3	6	3	noise_calib_stim_LEFT.wav	1	19	blb_dichoticlistening_ka-ba.mp3	ka	ba	1	left
6.6.1	win	2023-06-02	03:48:02	0	0	5b8e11444cd6dd0001bf07d9	1	1	DL_test	16	DL_test	5			0		ga	1	1135	6	2	antiphase_hc_ios.wav	3	6	3	noise_calib_stim_LEFT.wav	1	33	blb_dichoticlistening_ta-ga.mp3	ta	ga	1	right
6.6.1	win	2023-06-02	03:48:02	0	0	5b8e11444cd6dd0001bf07d9	1	1	DL_test	16	DL_test	6			0		ta	1	1237	6	2	antiphase_hc_ios.wav	3	6	3	noise_calib_stim_LEFT.wav	1	18	blb_dichoticlistening_ga-ta.mp3	ga	ta	1	right
6.6.1	win	2023-06-02	03:48:02	0	0	5b8e11444cd6dd0001bf07d9	1	1	DL_test	16	DL_test	7			0		ga	1	1287	6	2	antiphase_hc_ios.wav	3	6	3	noise_calib_stim_LEFT.wav	1	15	blb_dichoticlistening_ga-ga.mp3	ga	ga	0	left
6.6.1	win	2023-06-02	03:48:02	0	0	5b8e11444cd6dd0001bf07d9	1	1	DL_test	16	DL_test	8			0		ga	1	1064	6	2	antiphase_hc_ios.wav	3	6	3	noise_calib_stim_LEFT.wav	1	3	blb_dichoticlistening_ba-ga.mp3	ba	ga	1	right
6.6.1	win	2023-06-02	03:48:02	0	0	5b8e11444cd6dd0001bf07d9	1	1	DL_test	16	DL_test	9			0		pa	1	1317	6	2	antiphase_hc_ios.wav	3	6	3	noise_calib_stim_LEFT.wav	1	35	blb_dichoticlistening_ta-pa.mp3	ta	pa	1	right
6.6.1	win	2023-06-02	03:48:02	0	0	5b8e11444cd6dd0001bf07d9	1	1	DL_test	16	DL_test	10			0		ta	1	1933	6	2	antiphase_hc_ios.wav	3	6	3	noise_calib_stim_LEFT.wav	1	32	blb_dichoticlistening_ta-da.mp3	ta	da	1	left
6.6.1	win	2023-06-02	03:48:02	0	0	5b8e11444cd6dd0001bf07d9	1	1	DL_test	16	DL_test	11			0		ba	1	1870	6	2	antiphase_hc_ios.wav	3	6	3	noise_calib_stim_LEFT.wav	1	13	blb_dichoticlistening_ga-ba.mp3	ga	ba	1	right
6.6.1	win	2023-06-02	03:48:02	0	0	5b8e11444cd6dd0001bf07d9	1	1	DL_test	16	DL_test	12			0		ka	1	1141	6	2	antiphase_hc_ios.wav	3	6	3	noise_calib_stim_LEFT.wav	1	16	blb_dichoticlistening_ga-ka.mp3	ga	ka	1	right
6.6.1	win	2023-06-02	03:48:02	0	0	5b8e11444cd6dd0001bf07d9	1	1	DL_test	16	DL_test	13			0		ta	1	1669	6	2	antiphase_hc_ios.wav	3	6	3	noise_calib_stim_LEFT.wav	1	6	blb_dichoticlistening_ba-ta.mp3	ba	ta	1	right
6.6.1	win	2023-06-02	03:48:02	0	0	5b8e11444cd6dd0001bf07d9	1	1	DL_test	16	DL_test	14			0		pa	1	1816	6	2	antiphase_hc_ios.wav	3	6	3	noise_calib_stim_LEFT.wav	1	28	blb_dichoticlistening_pa-ka.mp3	pa	ka	1	left
6.6.1	win	2023-06-02	03:48:02	0	0	5b8e11444cd6dd0001bf07d9	1	1	DL_test	16	DL_test	15			0		da	1	1110	6	2	antiphase_hc_ios.wav	3	6	3	noise_calib_stim_LEFT.wav	1	8	blb_dichoticlistening_da-da.mp3	da	da	0	left
6.6.1	win	2023-06-02	03:48:02	0	0	5b8e11444cd6dd0001bf07d9	1	1	DL_test	16	DL_test	16			0		pa	1	1336	6	2	antiphase_hc_ios.wav	3	6	3	noise_calib_stim_LEFT.wav	1	29	blb_dichoticlistening_pa-pa.mp3	pa	pa	0	left
6.6.1	win	2023-06-02	03:48:02	0	0	5b8e11444cd6dd0001bf07d9	1	1	DL_test	16	DL_test	17			0		ka	1	1052	6	2	antiphase_hc_ios.wav	3	6	3	noise_calib_stim_LEFT.wav	1	4	blb_dichoticlistening_ba-ka.mp3	ba	ka	1	right
6.6.1	win	2023-06-02	03:48:02	0	0	5b8e11444cd6dd0001bf07d9	1	1	DL_test	16	DL_test	18			0		ta	1	1418	6	2	antiphase_hc_ios.wav	3	6	3	noise_calib_stim_LEFT.wav	1	34	blb_dichoticlistening_ta-ka.mp3	ta	ka	1	left
6.6.1	win	2023-06-02	03:48:02	0	0	5b8e11444cd6dd0001bf07d9	1	1	DL_test	16	DL_test	19			0		da	1	2042	6	2	antiphase_hc_ios.wav	3	6	3	noise_calib_stim_LEFT.wav	1	20	blb_dichoticlistening_ka-da.mp3	ka	da	1	right
6.6.1	win	2023-06-02	03:48:02	0	0	5b8e11444cd6dd0001bf07d9	1	1	DL_test	16	DL_test	20			0		pa	1	1620	6	2	antiphase_hc_ios.wav	3	6	3	noise_calib_stim_LEFT.wav	1	11	blb_dichoticlistening_da-pa.mp3	da	pa	1	right
6.6.1	win	2023-06-02	03:48:02	0	0	5b8e11444cd6dd0001bf07d9	1	1	DL_test	16	DL_test	21			0		ta	1	1184	6	2	antiphase_hc_ios.wav	3	6	3	noise_calib_stim_LEFT.wav	1	36	blb_dichoticlistening_ta-ta.mp3	ta	ta	0	left
6.6.1	win	2023-06-02	03:48:02	0	0	5b8e11444cd6dd0001bf07d9	1	1	DL_test	16	DL_test	22			0		da	1	1334	6	2	antiphase_hc_ios.wav	3	6	3	noise_calib_stim_LEFT.wav	1	14	blb_dichoticlistening_ga-da.mp3	ga	da	1	right
6.6.1	win	2023-06-02	03:48:02	0	0	5b8e11444cd6dd0001bf07d9	1	1	DL_test	16	DL_test	23			0		ka	1	1478	6	2	antiphase_hc_ios.wav	3	6	3	noise_calib_stim_LEFT.wav	1	22	blb_dichoticlistening_ka-ka.mp3	ka	ka	0	left
6.6.1	win	2023-06-02	03:48:02	0	0	5b8e11444cd6dd0001bf07d9	1	1	DL_test	16	DL_test	24			0		ta	1	2517	6	2	antiphase_hc_ios.wav	3	6	3	noise_calib_stim_LEFT.wav	1	24	blb_dichoticlistening_ka-ta.mp3	ka	ta	1	right
6.6.1	win	2023-06-02	03:48:02	0	0	5b8e11444cd6dd0001bf07d9	1	1	DL_test	16	DL_test	25			0		ga	1	1274	6	2	antiphase_hc_ios.wav	3	6	3	noise_calib_stim_LEFT.wav	1	27	blb_dichoticlistening_pa-ga.mp3	pa	ga	1	right
6.6.1	win	2023-06-02	03:48:02	0	0	5b8e11444cd6dd0001bf07d9	1	1	DL_test	16	DL_test	26			0		ta	1	1219	6	2	antiphase_hc_ios.wav	3	6	3	noise_calib_stim_LEFT.wav	1	12	blb_dichoticlistening_da-ta.mp3	da	ta	1	right
6.6.1	win	2023-06-02	03:48:02	0	0	5b8e11444cd6dd0001bf07d9	1	1	DL_test	16	DL_test	27			0		ta	1	1434	6	2	antiphase_hc_ios.wav	3	6	3	noise_calib_stim_LEFT.wav	1	30	blb_dichoticlistening_pa-ta.mp3	pa	ta	1	right
6.6.1	win	2023-06-02	03:48:02	0	0	5b8e11444cd6dd0001bf07d9	1	1	DL_test	16	DL_test	28			0		ba	1	1527	6	2	antiphase_hc_ios.wav	3	6	3	noise_calib_stim_LEFT.wav	1	1	blb_dichoticlistening_ba-ba.mp3	ba	ba	0	left
6.6.1	win	2023-06-02	03:48:02	0	0	5b8e11444cd6dd0001bf07d9	1	1	DL_test	16	DL_test	29			0		pa	1	1634	6	2	antiphase_hc_ios.wav	3	6	3	noise_calib_stim_LEFT.wav	1	23	blb_dichoticlistening_ka-pa.mp3	ka	pa	1	right
6.6.1	win	2023-06-02	03:48:02	0	0	5b8e11444cd6dd0001bf07d9	1	1	DL_test	16	DL_test	30			0		pa	1	1178	6	2	antiphase_hc_ios.wav	3	6	3	noise_calib_stim_LEFT.wav	1	17	blb_dichoticlistening_ga-pa.mp3	ga	pa	1	right
6.6.1	win	2023-06-02	03:48:02	0	0	5b8e11444cd6dd0001bf07d9	1	1	DL_test	16	DL_test	31			0		da	1	1525	6	2	antiphase_hc_ios.wav	3	6	3	noise_calib_stim_LEFT.wav	1	26	blb_dichoticlistening_pa-da.mp3	pa	da	1	right
6.6.1	win	2023-06-02	03:48:02	0	0	5b8e11444cd6dd0001bf07d9	1	1	DL_test	16	DL_test	32			0		pa	0	1127	6	2	antiphase_hc_ios.wav	3	6	3	noise_calib_stim_LEFT.wav	1	10	blb_dichoticlistening_da-ka.mp3	da	ka	1	other
6.6.1	win	2023-06-02	03:48:02	0	0	5b8e11444cd6dd0001bf07d9	1	1	DL_test	16	DL_test	33			0		ga	1	926	6	2	antiphase_hc_ios.wav	3	6	3	noise_calib_stim_LEFT.wav	1	21	blb_dichoticlistening_ka-ga.mp3	ka	ga	1	right
6.6.1	win	2023-06-02	03:48:02	0	0	5b8e11444cd6dd0001bf07d9	1	1	DL_test	16	DL_test	34			0		pa	1	1132	6	2	antiphase_hc_ios.wav	3	6	3	noise_calib_stim_LEFT.wav	1	5	blb_dichoticlistening_ba-pa.mp3	ba	pa	1	right
6.6.1	win	2023-06-02	03:48:02	0	0	5b8e11444cd6dd0001bf07d9	1	1	DL_test	16	DL_test	35			0		pa	1	1735	6	2	antiphase_hc_ios.wav	3	6	3	noise_calib_stim_LEFT.wav	1	25	blb_dichoticlistening_pa-ba.mp3	pa	ba	1	left
6.6.1	win	2023-06-02	03:48:02	0	0	5b8e11444cd6dd0001bf07d9	1	1	DL_test	16	DL_test	36			0		da	1	947	6	2	antiphase_hc_ios.wav	3	6	3	noise_calib_stim_LEFT.wav	1	9	blb_dichoticlistening_da-ga.mp3	da	ga	1	left
6.6.1	win	2023-06-02	03:48:02	04:10:00	1314729	5b8e11444cd6dd0001bf07d9	1	1	practice_slash	22	practice_slash	1	stimuli_distractor_trianglediamonds.svg	stimuli_distractor_trianglediamonds.svg	15	no	53	0	729	6	2	antiphase_hc_ios.wav	3	6	3	noise_calib_stim_LEFT.wav	1	9	blb_dichoticlistening_da-ga.mp3	da	ga	1	left
6.6.1	win	2023-06-02	03:48:02	04:10:00	1314729	5b8e11444cd6dd0001bf07d9	1	1	practice_slash	22	advance_on_keypress_SLASH	2	stimuli_distractor_trianglediamonds.svg	stimuli_distractor_trianglediamonds.svg	15	no	57	0	3899	6	2	antiphase_hc_ios.wav	3	6	3	noise_calib_stim_LEFT.wav	1	9	blb_dichoticlistening_da-ga.mp3	da	ga	1	left
6.6.1	win	2023-06-02	03:48:02	04:10:05	1320509	5b8e11444cd6dd0001bf07d9	1	1	practice_slash	22	practice_slash	3	stimuli_target_rectanglediamonds.svg	stimuli_distractor_diamondtriangles.svg	1	yes	53	1	228	6	2	antiphase_hc_ios.wav	3	6	3	noise_calib_stim_LEFT.wav	1	9	blb_dichoticlistening_da-ga.mp3	da	ga	1	left
6.6.1	win	2023-06-02	03:48:02	04:10:05	1320509	5b8e11444cd6dd0001bf07d9	1	1	practice_slash	22	advance_on_keypress_SLASH	4	stimuli_target_rectanglediamonds.svg	stimuli_distractor_diamondtriangles.svg	1	yes	57	0	1058	6	2	antiphase_hc_ios.wav	3	6	3	noise_calib_stim_LEFT.wav	1	9	blb_dichoticlistening_da-ga.mp3	da	ga	1	left
6.6.1	win	2023-06-02	03:48:02	04:10:08	1323428	5b8e11444cd6dd0001bf07d9	1	1	practice_slash	22	practice_slash	5	stimuli_distractor_diamondtriangles.svg	stimuli_target_trianglerectangles.svg	9	yes	53	1	229	6	2	antiphase_hc_ios.wav	3	6	3	noise_calib_stim_LEFT.wav	1	9	blb_dichoticlistening_da-ga.mp3	da	ga	1	left
6.6.1	win	2023-06-02	03:48:02	04:10:08	1323428	5b8e11444cd6dd0001bf07d9	1	1	practice_slash	22	advance_on_keypress_SLASH	6	stimuli_distractor_diamondtriangles.svg	stimuli_target_trianglerectangles.svg	9	yes	57	0	1055	6	2	antiphase_hc_ios.wav	3	6	3	noise_calib_stim_LEFT.wav	1	9	blb_dichoticlistening_da-ga.mp3	da	ga	1	left
6.6.1	win	2023-06-02	03:48:02	04:10:11	1326343	5b8e11444cd6dd0001bf07d9	1	1	practice_slash	22	practice_slash	7	stimuli_distractor_trianglediamonds.svg	stimuli_target_rectanglediamonds.svg	10	yes	53	1	213	6	2	antiphase_hc_ios.wav	3	6	3	noise_calib_stim_LEFT.wav	1	9	blb_dichoticlistening_da-ga.mp3	da	ga	1	left
6.6.1	win	2023-06-02	03:48:02	04:10:11	1326343	5b8e11444cd6dd0001bf07d9	1	1	practice_slash	22	advance_on_keypress_SLASH	8	stimuli_distractor_trianglediamonds.svg	stimuli_target_rectanglediamonds.svg	10	yes	57	0	900	6	2	antiphase_hc_ios.wav	3	6	3	noise_calib_stim_LEFT.wav	1	9	blb_dichoticlistening_da-ga.mp3	da	ga	1	left
6.6.1	win	2023-06-02	03:48:02	04:10:14	1329077	5b8e11444cd6dd0001bf07d9	1	1	practice_slash	22	practice_slash	9	stimuli_target_squarediamonds.svg	stimuli_distractor_diamondtriangles.svg	2	yes	53	1	197	6	2	antiphase_hc_ios.wav	3	6	3	noise_calib_stim_LEFT.wav	1	9	blb_dichoticlistening_da-ga.mp3	da	ga	1	left
6.6.1	win	2023-06-02	03:48:02	04:10:14	1329077	5b8e11444cd6dd0001bf07d9	1	1	practice_slash	22	advance_on_keypress_SLASH	10	stimuli_target_squarediamonds.svg	stimuli_distractor_diamondtriangles.svg	2	yes	57	0	5442	6	2	antiphase_hc_ios.wav	3	6	3	noise_calib_stim_LEFT.wav	1	9	blb_dichoticlistening_da-ga.mp3	da	ga	1	left
6.6.1	win	2023-06-02	03:48:02	04:10:21	1336395	5b8e11444cd6dd0001bf07d9	1	1	practice_slash	22	practice_slash	11	stimuli_target_squarediamonds.svg	stimuli_distractor_trianglediamonds.svg	5	yes	53	1	233	6	2	antiphase_hc_ios.wav	3	6	3	noise_calib_stim_LEFT.wav	1	9	blb_dichoticlistening_da-ga.mp3	da	ga	1	left
6.6.1	win	2023-06-02	03:48:02	04:10:21	1336395	5b8e11444cd6dd0001bf07d9	1	1	practice_slash	22	advance_on_keypress_SLASH	12	stimuli_target_squarediamonds.svg	stimuli_distractor_trianglediamonds.svg	5	yes	57	0	820	6	2	antiphase_hc_ios.wav	3	6	3	noise_calib_stim_LEFT.wav	1	9	blb_dichoticlistening_da-ga.mp3	da	ga	1	left
6.6.1	win	2023-06-02	03:48:02	04:10:24	1339110	5b8e11444cd6dd0001bf07d9	1	1	practice_slash	22	practice_slash	13	stimuli_distractor_trianglediamonds.svg	stimuli_target_diamondrectangles.svg	12	yes	53	1	248	6	2	antiphase_hc_ios.wav	3	6	3	noise_calib_stim_LEFT.wav	1	9	blb_dichoticlistening_da-ga.mp3	da	ga	1	left
6.6.1	win	2023-06-02	03:48:02	04:10:24	1339110	5b8e11444cd6dd0001bf07d9	1	1	practice_slash	22	advance_on_keypress_SLASH	14	stimuli_distractor_trianglediamonds.svg	stimuli_target_diamondrectangles.svg	12	yes	57	0	1220	6	2	antiphase_hc_ios.wav	3	6	3	noise_calib_stim_LEFT.wav	1	9	blb_dichoticlistening_da-ga.mp3	da	ga	1	left
6.6.1	win	2023-06-02	03:48:02	04:10:27	1342181	5b8e11444cd6dd0001bf07d9	1	1	practice_slash	22	practice_slash	15	stimuli_distractor_diamondtriangles.svg	stimuli_distractor_trianglediamonds.svg	14	no	53	0	202	6	2	antiphase_hc_ios.wav	3	6	3	noise_calib_stim_LEFT.wav	1	9	blb_dichoticlistening_da-ga.mp3	da	ga	1	left
6.6.1	win	2023-06-02	03:48:02	04:10:27	1342181	5b8e11444cd6dd0001bf07d9	1	1	practice_slash	22	advance_on_keypress_SLASH	16	stimuli_distractor_diamondtriangles.svg	stimuli_distractor_trianglediamonds.svg	14	no	57	0	637	6	2	antiphase_hc_ios.wav	3	6	3	noise_calib_stim_LEFT.wav	1	9	blb_dichoticlistening_da-ga.mp3	da	ga	1	left
6.6.1	win	2023-06-02	03:48:02	04:10:30	1344700	5b8e11444cd6dd0001bf07d9	1	1	practice_slash	22	practice_slash	17	stimuli_distractor_diamondtriangles.svg	stimuli_target_rectangletriangles.svg	7	yes	53	1	239	6	2	antiphase_hc_ios.wav	3	6	3	noise_calib_stim_LEFT.wav	1	9	blb_dichoticlistening_da-ga.mp3	da	ga	1	left
6.6.1	win	2023-06-02	03:48:02	04:10:30	1344700	5b8e11444cd6dd0001bf07d9	1	1	practice_slash	22	advance_on_keypress_SLASH	18	stimuli_distractor_diamondtriangles.svg	stimuli_target_rectangletriangles.svg	7	yes	57	0	538	6	2	antiphase_hc_ios.wav	3	6	3	noise_calib_stim_LEFT.wav	1	9	blb_dichoticlistening_da-ga.mp3	da	ga	1	left
6.6.1	win	2023-06-02	03:48:02	04:10:32	1347108	5b8e11444cd6dd0001bf07d9	1	1	practice_slash	22	practice_slash	19	stimuli_distractor_diamondtriangles.svg	stimuli_distractor_diamondtriangles.svg	13	no	53	0	229	6	2	antiphase_hc_ios.wav	3	6	3	noise_calib_stim_LEFT.wav	1	9	blb_dichoticlistening_da-ga.mp3	da	ga	1	left
6.6.1	win	2023-06-02	03:48:02	04:10:32	1347108	5b8e11444cd6dd0001bf07d9	1	1	practice_slash	22	advance_on_keypress_SLASH	20	stimuli_distractor_diamondtriangles.svg	stimuli_distractor_diamondtriangles.svg	13	no	57	0	779	6	2	antiphase_hc_ios.wav	3	6	3	noise_calib_stim_LEFT.wav	1	9	blb_dichoticlistening_da-ga.mp3	da	ga	1	left
6.6.1	win	2023-06-02	03:48:02	04:10:35	1349694	5b8e11444cd6dd0001bf07d9	1	1	practice_slash	22	practice_slash	21	stimuli_distractor_diamondtriangles.svg	stimuli_target_diamondrectangles.svg	8	yes	53	1	183	6	2	antiphase_hc_ios.wav	3	6	3	noise_calib_stim_LEFT.wav	1	9	blb_dichoticlistening_da-ga.mp3	da	ga	1	left
6.6.1	win	2023-06-02	03:48:02	04:10:35	1349694	5b8e11444cd6dd0001bf07d9	1	1	practice_slash	22	advance_on_keypress_SLASH	22	stimuli_distractor_diamondtriangles.svg	stimuli_target_diamondrectangles.svg	8	yes	57	0	70741	6	2	antiphase_hc_ios.wav	3	6	3	noise_calib_stim_LEFT.wav	1	9	blb_dichoticlistening_da-ga.mp3	da	ga	1	left
6.6.1	win	2023-06-02	03:48:02	04:11:47	1422201	5b8e11444cd6dd0001bf07d9	1	1	practice_slash	22	practice_slash	23	stimuli_distractor_trianglediamonds.svg	stimuli_target_squarediamonds.svg	11	yes	53	1	117	6	2	antiphase_hc_ios.wav	3	6	3	noise_calib_stim_LEFT.wav	1	9	blb_dichoticlistening_da-ga.mp3	da	ga	1	left
6.6.1	win	2023-06-02	03:48:02	04:11:47	1422201	5b8e11444cd6dd0001bf07d9	1	1	practice_slash	22	advance_on_keypress_SLASH	24	stimuli_distractor_trianglediamonds.svg	stimuli_target_squarediamonds.svg	11	yes	57	0	1118	6	2	antiphase_hc_ios.wav	3	6	3	noise_calib_stim_LEFT.wav	1	9	blb_dichoticlistening_da-ga.mp3	da	ga	1	left
6.6.1	win	2023-06-02	03:48:02	04:11:50	1425161	5b8e11444cd6dd0001bf07d9	1	1	practice_slash	22	practice_slash	25	stimuli_target_diamondsquares.svg	stimuli_distractor_trianglediamonds.svg	6	yes	53	1	194	6	2	antiphase_hc_ios.wav	3	6	3	noise_calib_stim_LEFT.wav	1	9	blb_dichoticlistening_da-ga.mp3	da	ga	1	left
6.6.1	win	2023-06-02	03:48:02	04:11:50	1425161	5b8e11444cd6dd0001bf07d9	1	1	practice_slash	22	advance_on_keypress_SLASH	26	stimuli_target_diamondsquares.svg	stimuli_distractor_trianglediamonds.svg	6	yes	57	0	1779	6	2	antiphase_hc_ios.wav	3	6	3	noise_calib_stim_LEFT.wav	1	9	blb_dichoticlistening_da-ga.mp3	da	ga	1	left
6.6.1	win	2023-06-02	03:48:02	04:11:55	1430568	5b8e11444cd6dd0001bf07d9	1	1	practice_slash	22	practice_slash	27	stimuli_target_rectanglediamonds.svg	stimuli_distractor_trianglediamonds.svg	4	yes	0	0	2000	6	2	antiphase_hc_ios.wav	3	6	3	noise_calib_stim_LEFT.wav	1	9	blb_dichoticlistening_da-ga.mp3	da	ga	1	left
6.6.1	win	2023-06-02	03:48:02	04:11:55	1430568	5b8e11444cd6dd0001bf07d9	1	1	practice_slash	22	advance_on_keypress_SLASH	28	stimuli_target_rectanglediamonds.svg	stimuli_distractor_trianglediamonds.svg	4	yes	57	0	2063	6	2	antiphase_hc_ios.wav	3	6	3	noise_calib_stim_LEFT.wav	1	9	blb_dichoticlistening_da-ga.mp3	da	ga	1	left
6.6.1	win	2023-06-02	03:48:02	04:11:59	1434561	5b8e11444cd6dd0001bf07d9	1	1	practice_slash	22	practice_slash	29	stimuli_distractor_trianglediamonds.svg	stimuli_distractor_diamondtriangles.svg	16	no	53	0	276	6	2	antiphase_hc_ios.wav	3	6	3	noise_calib_stim_LEFT.wav	1	9	blb_dichoticlistening_da-ga.mp3	da	ga	1	left
6.6.1	win	2023-06-02	03:48:02	04:11:59	1434561	5b8e11444cd6dd0001bf07d9	1	1	practice_slash	22	advance_on_keypress_SLASH	30	stimuli_distractor_trianglediamonds.svg	stimuli_distractor_diamondtriangles.svg	16	no	57	0	277	6	2	antiphase_hc_ios.wav	3	6	3	noise_calib_stim_LEFT.wav	1	9	blb_dichoticlistening_da-ga.mp3	da	ga	1	left
6.6.1	win	2023-06-02	03:48:02	04:12:02	1436703	5b8e11444cd6dd0001bf07d9	1	1	practice_slash	22	practice_slash	31	stimuli_target_diamondsquares.svg	stimuli_distractor_diamondtriangles.svg	3	yes	53	1	236	6	2	antiphase_hc_ios.wav	3	6	3	noise_calib_stim_LEFT.wav	1	9	blb_dichoticlistening_da-ga.mp3	da	ga	1	left
6.6.1	win	2023-06-02	03:48:02	04:12:02	1436703	5b8e11444cd6dd0001bf07d9	1	1	practice_slash	22	advance_on_keypress_SLASH	32	stimuli_target_diamondsquares.svg	stimuli_distractor_diamondtriangles.svg	3	yes	57	0	477	6	2	antiphase_hc_ios.wav	3	6	3	noise_calib_stim_LEFT.wav	1	9	blb_dichoticlistening_da-ga.mp3	da	ga	1	left
6.6.1	win	2023-06-02	03:48:02	04:12:08	1443086	5b8e11444cd6dd0001bf07d9	1	1	main_slash	24	main_slash	1	stimuli_distractor_trianglediamonds.svg	stimuli_distractor_diamondtriangles.svg	36	no	53	0	255	6	2	antiphase_hc_ios.wav	3	6	3	noise_calib_stim_LEFT.wav	1	9	blb_dichoticlistening_da-ga.mp3	da	ga	1	left
6.6.1	win	2023-06-02	03:48:02	04:12:08	1443086	5b8e11444cd6dd0001bf07d9	1	1	main_slash	24	advance_on_keypress_SLASH	2	stimuli_distractor_trianglediamonds.svg	stimuli_distractor_diamondtriangles.svg	36	no	57	0	3226	6	2	antiphase_hc_ios.wav	3	6	3	noise_calib_stim_LEFT.wav	1	9	blb_dichoticlistening_da-ga.mp3	da	ga	1	left
6.6.1	win	2023-06-02	03:48:02	04:12:12	1447242	5b8e11444cd6dd0001bf07d9	1	1	main_slash	24	main_slash	3	stimuli_distractor_trianglediamonds.svg	stimuli_target_trianglesquares.svg	26	yes	53	1	295	6	2	antiphase_hc_ios.wav	3	6	3	noise_calib_stim_LEFT.wav	1	9	blb_dichoticlistening_da-ga.mp3	da	ga	1	left
6.6.1	win	2023-06-02	03:48:02	04:12:12	1447242	5b8e11444cd6dd0001bf07d9	1	1	main_slash	24	advance_on_keypress_SLASH	4	stimuli_distractor_trianglediamonds.svg	stimuli_target_trianglesquares.svg	26	yes	57	0	1772	6	2	antiphase_hc_ios.wav	3	6	3	noise_calib_stim_LEFT.wav	1	9	blb_dichoticlistening_da-ga.mp3	da	ga	1	left
6.6.1	win	2023-06-02	03:48:02	04:12:15	1450054	5b8e11444cd6dd0001bf07d9	1	1	main_slash	24	main_slash	5	stimuli_distractor_diamondtriangles.svg	stimuli_distractor_trianglediamonds.svg	38	no	53	0	408	6	2	antiphase_hc_ios.wav	3	6	3	noise_calib_stim_LEFT.wav	1	9	blb_dichoticlistening_da-ga.mp3	da	ga	1	left
6.6.1	win	2023-06-02	03:48:02	04:12:15	1450054	5b8e11444cd6dd0001bf07d9	1	1	main_slash	24	advance_on_keypress_SLASH	6	stimuli_distractor_diamondtriangles.svg	stimuli_distractor_trianglediamonds.svg	38	no	57	0	4866	6	2	antiphase_hc_ios.wav	3	6	3	noise_calib_stim_LEFT.wav	1	9	blb_dichoticlistening_da-ga.mp3	da	ga	1	left
6.6.1	win	2023-06-02	03:48:02	04:12:21	1455818	5b8e11444cd6dd0001bf07d9	1	1	main_slash	24	main_slash	7	stimuli_distractor_trianglediamonds.svg	stimuli_distractor_diamondtriangles.svg	35	no	53	0	255	6	2	antiphase_hc_ios.wav	3	6	3	noise_calib_stim_LEFT.wav	1	9	blb_dichoticlistening_da-ga.mp3	da	ga	1	left
6.6.1	win	2023-06-02	03:48:02	04:12:21	1455818	5b8e11444cd6dd0001bf07d9	1	1	main_slash	24	advance_on_keypress_SLASH	8	stimuli_distractor_trianglediamonds.svg	stimuli_distractor_diamondtriangles.svg	35	no	57	0	2687	6	2	antiphase_hc_ios.wav	3	6	3	noise_calib_stim_LEFT.wav	1	9	blb_dichoticlistening_da-ga.mp3	da	ga	1	left
6.6.1	win	2023-06-02	03:48:02	04:12:26	1461146	5b8e11444cd6dd0001bf07d9	1	1	main_slash	24	main_slash	9	stimuli_target_trianglesquares.svg	stimuli_distractor_diamondtriangles.svg	22	yes	0	0	2000	6	2	antiphase_hc_ios.wav	3	6	3	noise_calib_stim_LEFT.wav	1	9	blb_dichoticlistening_da-ga.mp3	da	ga	1	left
6.6.1	win	2023-06-02	03:48:02	04:12:26	1461146	5b8e11444cd6dd0001bf07d9	1	1	main_slash	24	advance_on_keypress_SLASH	10	stimuli_target_trianglesquares.svg	stimuli_distractor_diamondtriangles.svg	22	yes	57	0	3344	6	2	antiphase_hc_ios.wav	3	6	3	noise_calib_stim_LEFT.wav	1	9	blb_dichoticlistening_da-ga.mp3	da	ga	1	left
6.6.1	win	2023-06-02	03:48:02	04:12:30	1465300	5b8e11444cd6dd0001bf07d9	1	1	main_slash	24	main_slash	11	stimuli_target_trianglerectangles.svg	stimuli_distractor_diamondtriangles.svg	21	yes	53	1	172	6	2	antiphase_hc_ios.wav	3	6	3	noise_calib_stim_LEFT.wav	1	9	blb_dichoticlistening_da-ga.mp3	da	ga	1	left
6.6.1	win	2023-06-02	03:48:02	04:12:30	1465300	5b8e11444cd6dd0001bf07d9	1	1	main_slash	24	advance_on_keypress_SLASH	12	stimuli_target_trianglerectangles.svg	stimuli_distractor_diamondtriangles.svg	21	yes	57	0	1401	6	2	antiphase_hc_ios.wav	3	6	3	noise_calib_stim_LEFT.wav	1	9	blb_dichoticlistening_da-ga.mp3	da	ga	1	left
6.6.1	win	2023-06-02	03:48:02	04:12:32	1467524	5b8e11444cd6dd0001bf07d9	1	1	main_slash	24	main_slash	13	stimuli_distractor_diamondtriangles.svg	stimuli_distractor_diamondtriangles.svg	40	no	53	0	180	6	2	antiphase_hc_ios.wav	3	6	3	noise_calib_stim_LEFT.wav	1	9	blb_dichoticlistening_da-ga.mp3	da	ga	1	left
6.6.1	win	2023-06-02	03:48:02	04:12:32	1467524	5b8e11444cd6dd0001bf07d9	1	1	main_slash	24	advance_on_keypress_SLASH	14	stimuli_distractor_diamondtriangles.svg	stimuli_distractor_diamondtriangles.svg	40	no	57	0	1128	6	2	antiphase_hc_ios.wav	3	6	3	noise_calib_stim_LEFT.wav	1	9	blb_dichoticlistening_da-ga.mp3	da	ga	1	left
6.6.1	win	2023-06-02	03:48:02	04:12:34	1469454	5b8e11444cd6dd0001bf07d9	1	1	main_slash	24	main_slash	15	stimuli_distractor_trianglediamonds.svg	stimuli_target_squarediamonds.svg	12	yes	53	1	176	6	2	antiphase_hc_ios.wav	3	6	3	noise_calib_stim_LEFT.wav	1	9	blb_dichoticlistening_da-ga.mp3	da	ga	1	left
6.6.1	win	2023-06-02	03:48:02	04:12:34	1469454	5b8e11444cd6dd0001bf07d9	1	1	main_slash	24	advance_on_keypress_SLASH	16	stimuli_distractor_trianglediamonds.svg	stimuli_target_squarediamonds.svg	12	yes	57	0	1259	6	2	antiphase_hc_ios.wav	3	6	3	noise_calib_stim_LEFT.wav	1	9	blb_dichoticlistening_da-ga.mp3	da	ga	1	left
6.6.1	win	2023-06-02	03:48:02	04:12:36	1471529	5b8e11444cd6dd0001bf07d9	1	1	main_slash	24	main_slash	17	stimuli_distractor_diamondtriangles.svg	stimuli_target_diamondrectangles.svg	31	yes	53	1	184	6	2	antiphase_hc_ios.wav	3	6	3	noise_calib_stim_LEFT.wav	1	9	blb_dichoticlistening_da-ga.mp3	da	ga	1	left
6.6.1	win	2023-06-02	03:48:02	04:12:36	1471529	5b8e11444cd6dd0001bf07d9	1	1	main_slash	24	advance_on_keypress_SLASH	18	stimuli_distractor_diamondtriangles.svg	stimuli_target_diamondrectangles.svg	31	yes	57	0	960	6	2	antiphase_hc_ios.wav	3	6	3	noise_calib_stim_LEFT.wav	1	9	blb_dichoticlistening_da-ga.mp3	da	ga	1	left
6.6.1	win	2023-06-02	03:48:02	04:12:38	1473357	5b8e11444cd6dd0001bf07d9	1	1	main_slash	24	main_slash	19	stimuli_target_squarediamonds.svg	stimuli_distractor_trianglediamonds.svg	4	yes	53	1	229	6	2	antiphase_hc_ios.wav	3	6	3	noise_calib_stim_LEFT.wav	1	9	blb_dichoticlistening_da-ga.mp3	da	ga	1	left
6.6.1	win	2023-06-02	03:48:02	04:12:38	1473357	5b8e11444cd6dd0001bf07d9	1	1	main_slash	24	advance_on_keypress_SLASH	20	stimuli_target_squarediamonds.svg	stimuli_distractor_trianglediamonds.svg	4	yes	57	0	1767	6	2	antiphase_hc_ios.wav	3	6	3	noise_calib_stim_LEFT.wav	1	9	blb_dichoticlistening_da-ga.mp3	da	ga	1	left
6.6.1	win	2023-06-02	03:48:02	04:12:41	1475772	5b8e11444cd6dd0001bf07d9	1	1	main_slash	24	main_slash	21	stimuli_target_diamondrectangles.svg	stimuli_distractor_trianglediamonds.svg	19	yes	53	1	12	6	2	antiphase_hc_ios.wav	3	6	3	noise_calib_stim_LEFT.wav	1	9	blb_dichoticlistening_da-ga.mp3	da	ga	1	left
6.6.1	win	2023-06-02	03:48:02	04:12:41	1475772	5b8e11444cd6dd0001bf07d9	1	1	main_slash	24	advance_on_keypress_SLASH	22	stimuli_target_diamondrectangles.svg	stimuli_distractor_trianglediamonds.svg	19	yes	57	0	1525	6	2	antiphase_hc_ios.wav	3	6	3	noise_calib_stim_LEFT.wav	1	9	blb_dichoticlistening_da-ga.mp3	da	ga	1	left
6.6.1	win	2023-06-02	03:48:02	04:12:43	1478108	5b8e11444cd6dd0001bf07d9	1	1	main_slash	24	main_slash	23	stimuli_distractor_trianglediamonds.svg	stimuli_distractor_trianglediamonds.svg	34	no	53	0	181	6	2	antiphase_hc_ios.wav	3	6	3	noise_calib_stim_LEFT.wav	1	9	blb_dichoticlistening_da-ga.mp3	da	ga	1	left
6.6.1	win	2023-06-02	03:48:02	04:12:43	1478108	5b8e11444cd6dd0001bf07d9	1	1	main_slash	24	advance_on_keypress_SLASH	24	stimuli_distractor_trianglediamonds.svg	stimuli_distractor_trianglediamonds.svg	34	no	57	0	834	6	2	antiphase_hc_ios.wav	3	6	3	noise_calib_stim_LEFT.wav	1	9	blb_dichoticlistening_da-ga.mp3	da	ga	1	left
6.6.1	win	2023-06-02	03:48:02	04:12:45	1479823	5b8e11444cd6dd0001bf07d9	1	1	main_slash	24	main_slash	25	stimuli_target_rectangletriangles.svg	stimuli_distractor_diamondtriangles.svg	5	yes	53	1	231	6	2	antiphase_hc_ios.wav	3	6	3	noise_calib_stim_LEFT.wav	1	9	blb_dichoticlistening_da-ga.mp3	da	ga	1	left
6.6.1	win	2023-06-02	03:48:02	04:12:45	1479823	5b8e11444cd6dd0001bf07d9	1	1	main_slash	24	advance_on_keypress_SLASH	26	stimuli_target_rectangletriangles.svg	stimuli_distractor_diamondtriangles.svg	5	yes	57	0	3063	6	2	antiphase_hc_ios.wav	3	6	3	noise_calib_stim_LEFT.wav	1	9	blb_dichoticlistening_da-ga.mp3	da	ga	1	left
6.6.1	win	2023-06-02	03:48:02	04:12:50	1485509	5b8e11444cd6dd0001bf07d9	1	1	main_slash	24	main_slash	27	stimuli_target_rectangletriangles.svg	stimuli_distractor_trianglediamonds.svg	1	yes	0	0	2000	6	2	antiphase_hc_ios.wav	3	6	3	noise_calib_stim_LEFT.wav	1	9	blb_dichoticlistening_da-ga.mp3	da	ga	1	left
6.6.1	win	2023-06-02	03:48:02	04:12:50	1485509	5b8e11444cd6dd0001bf07d9	1	1	main_slash	24	advance_on_keypress_SLASH	28	stimuli_target_rectangletriangles.svg	stimuli_distractor_trianglediamonds.svg	1	yes	57	0	9307	6	2	antiphase_hc_ios.wav	3	6	3	noise_calib_stim_LEFT.wav	1	9	blb_dichoticlistening_da-ga.mp3	da	ga	1	left
6.6.1	win	2023-06-02	03:48:02	04:13:02	1497458	5b8e11444cd6dd0001bf07d9	1	1	main_slash	24	main_slash	29	stimuli_target_diamondsquares.svg	stimuli_distractor_diamondtriangles.svg	24	yes	0	0	2000	6	2	antiphase_hc_ios.wav	3	6	3	noise_calib_stim_LEFT.wav	1	9	blb_dichoticlistening_da-ga.mp3	da	ga	1	left
6.6.1	win	2023-06-02	03:48:02	04:13:02	1497458	5b8e11444cd6dd0001bf07d9	1	1	main_slash	24	advance_on_keypress_SLASH	30	stimuli_target_diamondsquares.svg	stimuli_distractor_diamondtriangles.svg	24	yes	57	0	920	6	2	antiphase_hc_ios.wav	3	6	3	noise_calib_stim_LEFT.wav	1	9	blb_dichoticlistening_da-ga.mp3	da	ga	1	left
6.6.1	win	2023-06-02	03:48:02	04:13:04	1499245	5b8e11444cd6dd0001bf07d9	1	1	main_slash	24	main_slash	31	stimuli_distractor_diamondtriangles.svg	stimuli_distractor_diamondtriangles.svg	39	no	53	0	222	6	2	antiphase_hc_ios.wav	3	6	3	noise_calib_stim_LEFT.wav	1	9	blb_dichoticlistening_da-ga.mp3	da	ga	1	left
6.6.1	win	2023-06-02	03:48:02	04:13:04	1499245	5b8e11444cd6dd0001bf07d9	1	1	main_slash	24	advance_on_keypress_SLASH	32	stimuli_distractor_diamondtriangles.svg	stimuli_distractor_diamondtriangles.svg	39	no	57	0	835	6	2	antiphase_hc_ios.wav	3	6	3	noise_calib_stim_LEFT.wav	1	9	blb_dichoticlistening_da-ga.mp3	da	ga	1	left
6.6.1	win	2023-06-02	03:48:02	04:13:06	1500930	5b8e11444cd6dd0001bf07d9	1	1	main_slash	24	main_slash	33	stimuli_distractor_trianglediamonds.svg	stimuli_target_squaretriangles.svg	11	yes	53	1	206	6	2	antiphase_hc_ios.wav	3	6	3	noise_calib_stim_LEFT.wav	1	9	blb_dichoticlistening_da-ga.mp3	da	ga	1	left
6.6.1	win	2023-06-02	03:48:02	04:13:06	1500930	5b8e11444cd6dd0001bf07d9	1	1	main_slash	24	advance_on_keypress_SLASH	34	stimuli_distractor_trianglediamonds.svg	stimuli_target_squaretriangles.svg	11	yes	57	0	921	6	2	antiphase_hc_ios.wav	3	6	3	noise_calib_stim_LEFT.wav	1	9	blb_dichoticlistening_da-ga.mp3	da	ga	1	left
6.6.1	win	2023-06-02	03:48:02	04:13:09	1504491	5b8e11444cd6dd0001bf07d9	1	1	main_slash	24	main_slash	35	stimuli_distractor_diamondtriangles.svg	stimuli_target_trianglesquares.svg	30	yes	0	0	2000	6	2	antiphase_hc_ios.wav	3	6	3	noise_calib_stim_LEFT.wav	1	9	blb_dichoticlistening_da-ga.mp3	da	ga	1	left
6.6.1	win	2023-06-02	03:48:02	04:13:09	1504491	5b8e11444cd6dd0001bf07d9	1	1	main_slash	24	advance_on_keypress_SLASH	36	stimuli_distractor_diamondtriangles.svg	stimuli_target_trianglesquares.svg	30	yes	57	0	764	6	2	antiphase_hc_ios.wav	3	6	3	noise_calib_stim_LEFT.wav	1	9	blb_dichoticlistening_da-ga.mp3	da	ga	1	left
6.6.1	win	2023-06-02	03:48:02	04:13:11	1505937	5b8e11444cd6dd0001bf07d9	1	1	main_slash	24	main_slash	37	stimuli_distractor_diamondtriangles.svg	stimuli_distractor_trianglediamonds.svg	37	no	53	0	47	6	2	antiphase_hc_ios.wav	3	6	3	noise_calib_stim_LEFT.wav	1	9	blb_dichoticlistening_da-ga.mp3	da	ga	1	left
6.6.1	win	2023-06-02	03:48:02	04:13:11	1505937	5b8e11444cd6dd0001bf07d9	1	1	main_slash	24	advance_on_keypress_SLASH	38	stimuli_distractor_diamondtriangles.svg	stimuli_distractor_trianglediamonds.svg	37	no	57	0	1126	6	2	antiphase_hc_ios.wav	3	6	3	noise_calib_stim_LEFT.wav	1	9	blb_dichoticlistening_da-ga.mp3	da	ga	1	left
6.6.1	win	2023-06-02	03:48:02	04:13:13	1507766	5b8e11444cd6dd0001bf07d9	1	1	main_slash	24	main_slash	39	stimuli_target_squaretriangles.svg	stimuli_distractor_diamondtriangles.svg	7	yes	53	1	77	6	2	antiphase_hc_ios.wav	3	6	3	noise_calib_stim_LEFT.wav	1	9	blb_dichoticlistening_da-ga.mp3	da	ga	1	left
6.6.1	win	2023-06-02	03:48:02	04:13:13	1507766	5b8e11444cd6dd0001bf07d9	1	1	main_slash	24	advance_on_keypress_SLASH	40	stimuli_target_squaretriangles.svg	stimuli_distractor_diamondtriangles.svg	7	yes	57	0	1007	6	2	antiphase_hc_ios.wav	3	6	3	noise_calib_stim_LEFT.wav	1	9	blb_dichoticlistening_da-ga.mp3	da	ga	1	left
6.6.1	win	2023-06-02	03:48:02	04:13:16	1511406	5b8e11444cd6dd0001bf07d9	1	1	main_slash	24	main_slash	41	stimuli_target_trianglesquares.svg	stimuli_distractor_trianglediamonds.svg	18	yes	0	0	2000	6	2	antiphase_hc_ios.wav	3	6	3	noise_calib_stim_LEFT.wav	1	9	blb_dichoticlistening_da-ga.mp3	da	ga	1	left
6.6.1	win	2023-06-02	03:48:02	04:13:16	1511406	5b8e11444cd6dd0001bf07d9	1	1	main_slash	24	advance_on_keypress_SLASH	42	stimuli_target_trianglesquares.svg	stimuli_distractor_trianglediamonds.svg	18	yes	57	0	341	6	2	antiphase_hc_ios.wav	3	6	3	noise_calib_stim_LEFT.wav	1	9	blb_dichoticlistening_da-ga.mp3	da	ga	1	left
6.6.1	win	2023-06-02	03:48:02	04:13:17	1512391	5b8e11444cd6dd0001bf07d9	1	1	main_slash	24	main_slash	43	stimuli_distractor_diamondtriangles.svg	stimuli_target_squaretriangles.svg	15	yes	53	1	3	6	2	antiphase_hc_ios.wav	3	6	3	noise_calib_stim_LEFT.wav	1	9	blb_dichoticlistening_da-ga.mp3	da	ga	1	left
6.6.1	win	2023-06-02	03:48:02	04:13:17	1512391	5b8e11444cd6dd0001bf07d9	1	1	main_slash	24	advance_on_keypress_SLASH	44	stimuli_distractor_diamondtriangles.svg	stimuli_target_squaretriangles.svg	15	yes	57	0	947	6	2	antiphase_hc_ios.wav	3	6	3	noise_calib_stim_LEFT.wav	1	9	blb_dichoticlistening_da-ga.mp3	da	ga	1	left
6.6.1	win	2023-06-02	03:48:02	04:13:19	1514179	5b8e11444cd6dd0001bf07d9	1	1	main_slash	24	main_slash	45	stimuli_target_squaretriangles.svg	stimuli_distractor_trianglediamonds.svg	3	yes	53	1	207	6	2	antiphase_hc_ios.wav	3	6	3	noise_calib_stim_LEFT.wav	1	9	blb_dichoticlistening_da-ga.mp3	da	ga	1	left
6.6.1	win	2023-06-02	03:48:02	04:13:19	1514179	5b8e11444cd6dd0001bf07d9	1	1	main_slash	24	advance_on_keypress_SLASH	46	stimuli_target_squaretriangles.svg	stimuli_distractor_trianglediamonds.svg	3	yes	57	0	861	6	2	antiphase_hc_ios.wav	3	6	3	noise_calib_stim_LEFT.wav	1	9	blb_dichoticlistening_da-ga.mp3	da	ga	1	left
6.6.1	win	2023-06-02	03:48:02	04:13:22	1517672	5b8e11444cd6dd0001bf07d9	1	1	main_slash	24	main_slash	47	stimuli_distractor_trianglediamonds.svg	stimuli_target_rectanglediamonds.svg	10	yes	0	0	2000	6	2	antiphase_hc_ios.wav	3	6	3	noise_calib_stim_LEFT.wav	1	9	blb_dichoticlistening_da-ga.mp3	da	ga	1	left
6.6.1	win	2023-06-02	03:48:02	04:13:22	1517672	5b8e11444cd6dd0001bf07d9	1	1	main_slash	24	advance_on_keypress_SLASH	48	stimuli_distractor_trianglediamonds.svg	stimuli_target_rectanglediamonds.svg	10	yes	57	0	744	6	2	antiphase_hc_ios.wav	3	6	3	noise_calib_stim_LEFT.wav	1	9	blb_dichoticlistening_da-ga.mp3	da	ga	1	left
6.6.1	win	2023-06-02	03:48:02	04:13:24	1519145	5b8e11444cd6dd0001bf07d9	1	1	main_slash	24	main_slash	49	stimuli_distractor_diamondtriangles.svg	stimuli_target_squarediamonds.svg	16	yes	53	1	90	6	2	antiphase_hc_ios.wav	3	6	3	noise_calib_stim_LEFT.wav	1	9	blb_dichoticlistening_da-ga.mp3	da	ga	1	left
6.6.1	win	2023-06-02	03:48:02	04:13:24	1519145	5b8e11444cd6dd0001bf07d9	1	1	main_slash	24	advance_on_keypress_SLASH	50	stimuli_distractor_diamondtriangles.svg	stimuli_target_squarediamonds.svg	16	yes	57	0	920	6	2	antiphase_hc_ios.wav	3	6	3	noise_calib_stim_LEFT.wav	1	9	blb_dichoticlistening_da-ga.mp3	da	ga	1	left
6.6.1	win	2023-06-02	03:48:02	04:13:26	1520769	5b8e11444cd6dd0001bf07d9	1	1	main_slash	24	main_slash	51	stimuli_distractor_trianglediamonds.svg	stimuli_target_rectangletriangles.svg	9	yes	53	1	65	6	2	antiphase_hc_ios.wav	3	6	3	noise_calib_stim_LEFT.wav	1	9	blb_dichoticlistening_da-ga.mp3	da	ga	1	left
6.6.1	win	2023-06-02	03:48:02	04:13:26	1520769	5b8e11444cd6dd0001bf07d9	1	1	main_slash	24	advance_on_keypress_SLASH	52	stimuli_distractor_trianglediamonds.svg	stimuli_target_rectangletriangles.svg	9	yes	57	0	932	6	2	antiphase_hc_ios.wav	3	6	3	noise_calib_stim_LEFT.wav	1	9	blb_dichoticlistening_da-ga.mp3	da	ga	1	left
6.6.1	win	2023-06-02	03:48:02	04:13:29	1524355	5b8e11444cd6dd0001bf07d9	1	1	main_slash	24	main_slash	53	stimuli_distractor_trianglediamonds.svg	stimuli_target_diamondsquares.svg	28	yes	0	0	2000	6	2	antiphase_hc_ios.wav	3	6	3	noise_calib_stim_LEFT.wav	1	9	blb_dichoticlistening_da-ga.mp3	da	ga	1	left
6.6.1	win	2023-06-02	03:48:02	04:13:29	1524355	5b8e11444cd6dd0001bf07d9	1	1	main_slash	24	advance_on_keypress_SLASH	54	stimuli_distractor_trianglediamonds.svg	stimuli_target_diamondsquares.svg	28	yes	57	0	352	6	2	antiphase_hc_ios.wav	3	6	3	noise_calib_stim_LEFT.wav	1	9	blb_dichoticlistening_da-ga.mp3	da	ga	1	left
6.6.1	win	2023-06-02	03:48:02	04:13:30	1525370	5b8e11444cd6dd0001bf07d9	1	1	main_slash	24	main_slash	55	stimuli_target_diamondrectangles.svg	stimuli_distractor_diamondtriangles.svg	23	yes	53	1	17	6	2	antiphase_hc_ios.wav	3	6	3	noise_calib_stim_LEFT.wav	1	9	blb_dichoticlistening_da-ga.mp3	da	ga	1	left
6.6.1	win	2023-06-02	03:48:02	04:13:30	1525370	5b8e11444cd6dd0001bf07d9	1	1	main_slash	24	advance_on_keypress_SLASH	56	stimuli_target_diamondrectangles.svg	stimuli_distractor_diamondtriangles.svg	23	yes	57	0	1086	6	2	antiphase_hc_ios.wav	3	6	3	noise_calib_stim_LEFT.wav	1	9	blb_dichoticlistening_da-ga.mp3	da	ga	1	left
6.6.1	win	2023-06-02	03:48:02	04:13:34	1529104	5b8e11444cd6dd0001bf07d9	1	1	main_slash	24	main_slash	57	stimuli_target_diamondsquares.svg	stimuli_distractor_trianglediamonds.svg	20	yes	0	0	2000	6	2	antiphase_hc_ios.wav	3	6	3	noise_calib_stim_LEFT.wav	1	9	blb_dichoticlistening_da-ga.mp3	da	ga	1	left
6.6.1	win	2023-06-02	03:48:02	04:13:34	1529104	5b8e11444cd6dd0001bf07d9	1	1	main_slash	24	advance_on_keypress_SLASH	58	stimuli_target_diamondsquares.svg	stimuli_distractor_trianglediamonds.svg	20	yes	57	0	997	6	2	antiphase_hc_ios.wav	3	6	3	noise_calib_stim_LEFT.wav	1	9	blb_dichoticlistening_da-ga.mp3	da	ga	1	left
6.6.1	win	2023-06-02	03:48:02	04:13:38	1532753	5b8e11444cd6dd0001bf07d9	1	1	main_slash	24	main_slash	59	stimuli_target_rectanglediamonds.svg	stimuli_distractor_trianglediamonds.svg	2	yes	0	0	2000	6	2	antiphase_hc_ios.wav	3	6	3	noise_calib_stim_LEFT.wav	1	9	blb_dichoticlistening_da-ga.mp3	da	ga	1	left
6.6.1	win	2023-06-02	03:48:02	04:13:38	1532753	5b8e11444cd6dd0001bf07d9	1	1	main_slash	24	advance_on_keypress_SLASH	60	stimuli_target_rectanglediamonds.svg	stimuli_distractor_trianglediamonds.svg	2	yes	57	0	492	6	2	antiphase_hc_ios.wav	3	6	3	noise_calib_stim_LEFT.wav	1	9	blb_dichoticlistening_da-ga.mp3	da	ga	1	left
6.6.1	win	2023-06-02	03:48:02	04:13:39	1533931	5b8e11444cd6dd0001bf07d9	1	1	main_slash	24	main_slash	61	stimuli_distractor_diamondtriangles.svg	stimuli_target_trianglerectangles.svg	29	yes	53	1	46	6	2	antiphase_hc_ios.wav	3	6	3	noise_calib_stim_LEFT.wav	1	9	blb_dichoticlistening_da-ga.mp3	da	ga	1	left
6.6.1	win	2023-06-02	03:48:02	04:13:39	1533931	5b8e11444cd6dd0001bf07d9	1	1	main_slash	24	advance_on_keypress_SLASH	62	stimuli_distractor_diamondtriangles.svg	stimuli_target_trianglerectangles.svg	29	yes	57	0	1060	6	2	antiphase_hc_ios.wav	3	6	3	noise_calib_stim_LEFT.wav	1	9	blb_dichoticlistening_da-ga.mp3	da	ga	1	left
6.6.1	win	2023-06-02	03:48:02	04:13:42	1537619	5b8e11444cd6dd0001bf07d9	1	1	main_slash	24	main_slash	63	stimuli_target_squarediamonds.svg	stimuli_distractor_diamondtriangles.svg	8	yes	0	0	2000	6	2	antiphase_hc_ios.wav	3	6	3	noise_calib_stim_LEFT.wav	1	9	blb_dichoticlistening_da-ga.mp3	da	ga	1	left
6.6.1	win	2023-06-02	03:48:02	04:13:42	1537619	5b8e11444cd6dd0001bf07d9	1	1	main_slash	24	advance_on_keypress_SLASH	64	stimuli_target_squarediamonds.svg	stimuli_distractor_diamondtriangles.svg	8	yes	57	0	519	6	2	antiphase_hc_ios.wav	3	6	3	noise_calib_stim_LEFT.wav	1	9	blb_dichoticlistening_da-ga.mp3	da	ga	1	left
6.6.1	win	2023-06-02	03:48:02	04:13:46	1540786	5b8e11444cd6dd0001bf07d9	1	1	main_slash	24	main_slash	65	stimuli_distractor_diamondtriangles.svg	stimuli_target_rectangletriangles.svg	13	yes	0	0	2000	6	2	antiphase_hc_ios.wav	3	6	3	noise_calib_stim_LEFT.wav	1	9	blb_dichoticlistening_da-ga.mp3	da	ga	1	left
6.6.1	win	2023-06-02	03:48:02	04:13:46	1540786	5b8e11444cd6dd0001bf07d9	1	1	main_slash	24	advance_on_keypress_SLASH	66	stimuli_distractor_diamondtriangles.svg	stimuli_target_rectangletriangles.svg	13	yes	57	0	622	6	2	antiphase_hc_ios.wav	3	6	3	noise_calib_stim_LEFT.wav	1	9	blb_dichoticlistening_da-ga.mp3	da	ga	1	left
6.6.1	win	2023-06-02	03:48:02	04:13:47	1542208	5b8e11444cd6dd0001bf07d9	1	1	main_slash	24	main_slash	67	stimuli_distractor_diamondtriangles.svg	stimuli_target_rectanglediamonds.svg	14	yes	53	1	157	6	2	antiphase_hc_ios.wav	3	6	3	noise_calib_stim_LEFT.wav	1	9	blb_dichoticlistening_da-ga.mp3	da	ga	1	left
6.6.1	win	2023-06-02	03:48:02	04:13:47	1542208	5b8e11444cd6dd0001bf07d9	1	1	main_slash	24	advance_on_keypress_SLASH	68	stimuli_distractor_diamondtriangles.svg	stimuli_target_rectanglediamonds.svg	14	yes	57	0	855	6	2	antiphase_hc_ios.wav	3	6	3	noise_calib_stim_LEFT.wav	1	9	blb_dichoticlistening_da-ga.mp3	da	ga	1	left
6.6.1	win	2023-06-02	03:48:02	04:13:49	1543858	5b8e11444cd6dd0001bf07d9	1	1	main_slash	24	main_slash	69	stimuli_target_rectanglediamonds.svg	stimuli_distractor_diamondtriangles.svg	6	yes	53	1	157	6	2	antiphase_hc_ios.wav	3	6	3	noise_calib_stim_LEFT.wav	1	9	blb_dichoticlistening_da-ga.mp3	da	ga	1	left
6.6.1	win	2023-06-02	03:48:02	04:13:49	1543858	5b8e11444cd6dd0001bf07d9	1	1	main_slash	24	advance_on_keypress_SLASH	70	stimuli_target_rectanglediamonds.svg	stimuli_distractor_diamondtriangles.svg	6	yes	57	0	977	6	2	antiphase_hc_ios.wav	3	6	3	noise_calib_stim_LEFT.wav	1	9	blb_dichoticlistening_da-ga.mp3	da	ga	1	left
6.6.1	win	2023-06-02	03:48:02	04:13:52	1547468	5b8e11444cd6dd0001bf07d9	1	1	main_slash	24	main_slash	71	stimuli_distractor_trianglediamonds.svg	stimuli_target_trianglerectangles.svg	25	yes	0	0	2000	6	2	antiphase_hc_ios.wav	3	6	3	noise_calib_stim_LEFT.wav	1	9	blb_dichoticlistening_da-ga.mp3	da	ga	1	left
6.6.1	win	2023-06-02	03:48:02	04:13:52	1547468	5b8e11444cd6dd0001bf07d9	1	1	main_slash	24	advance_on_keypress_SLASH	72	stimuli_distractor_trianglediamonds.svg	stimuli_target_trianglerectangles.svg	25	yes	57	0	3052	6	2	antiphase_hc_ios.wav	3	6	3	noise_calib_stim_LEFT.wav	1	9	blb_dichoticlistening_da-ga.mp3	da	ga	1	left
6.6.1	win	2023-06-02	03:48:02	04:13:58	1553168	5b8e11444cd6dd0001bf07d9	1	1	main_slash	24	main_slash	73	stimuli_distractor_trianglediamonds.svg	stimuli_target_diamondrectangles.svg	27	yes	0	0	2000	6	2	antiphase_hc_ios.wav	3	6	3	noise_calib_stim_LEFT.wav	1	9	blb_dichoticlistening_da-ga.mp3	da	ga	1	left
6.6.1	win	2023-06-02	03:48:02	04:13:58	1553168	5b8e11444cd6dd0001bf07d9	1	1	main_slash	24	advance_on_keypress_SLASH	74	stimuli_distractor_trianglediamonds.svg	stimuli_target_diamondrectangles.svg	27	yes	57	0	449	6	2	antiphase_hc_ios.wav	3	6	3	noise_calib_stim_LEFT.wav	1	9	blb_dichoticlistening_da-ga.mp3	da	ga	1	left
6.6.1	win	2023-06-02	03:48:02	04:14:01	1556267	5b8e11444cd6dd0001bf07d9	1	1	main_slash	24	main_slash	75	stimuli_distractor_trianglediamonds.svg	stimuli_distractor_trianglediamonds.svg	33	no	0	1	2000	6	2	antiphase_hc_ios.wav	3	6	3	noise_calib_stim_LEFT.wav	1	9	blb_dichoticlistening_da-ga.mp3	da	ga	1	left
6.6.1	win	2023-06-02	03:48:02	04:14:01	1556267	5b8e11444cd6dd0001bf07d9	1	1	main_slash	24	advance_on_keypress_SLASH	76	stimuli_distractor_trianglediamonds.svg	stimuli_distractor_trianglediamonds.svg	33	no	57	0	386	6	2	antiphase_hc_ios.wav	3	6	3	noise_calib_stim_LEFT.wav	1	9	blb_dichoticlistening_da-ga.mp3	da	ga	1	left
6.6.1	win	2023-06-02	03:48:02	04:14:02	1557319	5b8e11444cd6dd0001bf07d9	1	1	main_slash	24	main_slash	77	stimuli_target_trianglerectangles.svg	stimuli_distractor_trianglediamonds.svg	17	yes	53	1	20	6	2	antiphase_hc_ios.wav	3	6	3	noise_calib_stim_LEFT.wav	1	9	blb_dichoticlistening_da-ga.mp3	da	ga	1	left
6.6.1	win	2023-06-02	03:48:02	04:14:02	1557319	5b8e11444cd6dd0001bf07d9	1	1	main_slash	24	advance_on_keypress_SLASH	78	stimuli_target_trianglerectangles.svg	stimuli_distractor_trianglediamonds.svg	17	yes	57	0	42566	6	2	antiphase_hc_ios.wav	3	6	3	noise_calib_stim_LEFT.wav	1	9	blb_dichoticlistening_da-ga.mp3	da	ga	1	left
6.6.1	win	2023-06-02	03:48:02	04:14:47	1602528	5b8e11444cd6dd0001bf07d9	1	1	main_slash	24	main_slash	79	stimuli_distractor_diamondtriangles.svg	stimuli_target_diamondsquares.svg	32	yes	0	0	2000	6	2	antiphase_hc_ios.wav	3	6	3	noise_calib_stim_LEFT.wav	1	9	blb_dichoticlistening_da-ga.mp3	da	ga	1	left
6.6.1	win	2023-06-02	03:48:02	04:14:47	1602528	5b8e11444cd6dd0001bf07d9	1	1	main_slash	24	advance_on_keypress_SLASH	80	stimuli_distractor_diamondtriangles.svg	stimuli_target_diamondsquares.svg	32	yes	57	0	641	6	2	antiphase_hc_ios.wav	3	6	3	noise_calib_stim_LEFT.wav	1	9	blb_dichoticlistening_da-ga.mp3	da	ga	1	left
6.6.1	win	2023-06-02	03:48:02	04:14:51	1605811	5b8e11444cd6dd0001bf07d9	1	1	main_slash	24	main_slash	81	stimuli_target_rectanglediamonds.svg	stimuli_distractor_diamondtriangles.svg	6	yes	0	0	2000	6	2	antiphase_hc_ios.wav	3	6	3	noise_calib_stim_LEFT.wav	1	9	blb_dichoticlistening_da-ga.mp3	da	ga	1	left
6.6.1	win	2023-06-02	03:48:02	04:14:51	1605811	5b8e11444cd6dd0001bf07d9	1	1	main_slash	24	advance_on_keypress_SLASH	82	stimuli_target_rectanglediamonds.svg	stimuli_distractor_diamondtriangles.svg	6	yes	57	0	559	6	2	antiphase_hc_ios.wav	3	6	3	noise_calib_stim_LEFT.wav	1	9	blb_dichoticlistening_da-ga.mp3	da	ga	1	left
6.6.1	win	2023-06-02	03:48:02	04:14:54	1609010	5b8e11444cd6dd0001bf07d9	1	1	main_slash	24	main_slash	83	stimuli_distractor_diamondtriangles.svg	stimuli_distractor_diamondtriangles.svg	39	no	0	1	2000	6	2	antiphase_hc_ios.wav	3	6	3	noise_calib_stim_LEFT.wav	1	9	blb_dichoticlistening_da-ga.mp3	da	ga	1	left
6.6.1	win	2023-06-02	03:48:02	04:14:54	1609010	5b8e11444cd6dd0001bf07d9	1	1	main_slash	24	advance_on_keypress_SLASH	84	stimuli_distractor_diamondtriangles.svg	stimuli_distractor_diamondtriangles.svg	39	no	57	0	122	6	2	antiphase_hc_ios.wav	3	6	3	noise_calib_stim_LEFT.wav	1	9	blb_dichoticlistening_da-ga.mp3	da	ga	1	left
6.6.1	win	2023-06-02	03:48:02	04:14:55	1610028	5b8e11444cd6dd0001bf07d9	1	1	main_slash	24	main_slash	85	stimuli_distractor_diamondtriangles.svg	stimuli_target_rectanglediamonds.svg	14	yes	53	1	252	6	2	antiphase_hc_ios.wav	3	6	3	noise_calib_stim_LEFT.wav	1	9	blb_dichoticlistening_da-ga.mp3	da	ga	1	left
6.6.1	win	2023-06-02	03:48:02	04:14:55	1610028	5b8e11444cd6dd0001bf07d9	1	1	main_slash	24	advance_on_keypress_SLASH	86	stimuli_distractor_diamondtriangles.svg	stimuli_target_rectanglediamonds.svg	14	yes	57	0	881	6	2	antiphase_hc_ios.wav	3	6	3	noise_calib_stim_LEFT.wav	1	9	blb_dichoticlistening_da-ga.mp3	da	ga	1	left
6.6.1	win	2023-06-02	03:48:02	04:14:58	1613559	5b8e11444cd6dd0001bf07d9	1	1	main_slash	24	main_slash	87	stimuli_target_diamondrectangles.svg	stimuli_distractor_trianglediamonds.svg	19	yes	0	0	2000	6	2	antiphase_hc_ios.wav	3	6	3	noise_calib_stim_LEFT.wav	1	9	blb_dichoticlistening_da-ga.mp3	da	ga	1	left
6.6.1	win	2023-06-02	03:48:02	04:14:58	1613559	5b8e11444cd6dd0001bf07d9	1	1	main_slash	24	advance_on_keypress_SLASH	88	stimuli_target_diamondrectangles.svg	stimuli_distractor_trianglediamonds.svg	19	yes	57	0	556	6	2	antiphase_hc_ios.wav	3	6	3	noise_calib_stim_LEFT.wav	1	9	blb_dichoticlistening_da-ga.mp3	da	ga	1	left
6.6.1	win	2023-06-02	03:48:02	04:15:00	1614891	5b8e11444cd6dd0001bf07d9	1	1	main_slash	24	main_slash	89	stimuli_target_squarediamonds.svg	stimuli_distractor_diamondtriangles.svg	8	yes	53	1	133	6	2	antiphase_hc_ios.wav	3	6	3	noise_calib_stim_LEFT.wav	1	9	blb_dichoticlistening_da-ga.mp3	da	ga	1	left
6.6.1	win	2023-06-02	03:48:02	04:15:00	1614891	5b8e11444cd6dd0001bf07d9	1	1	main_slash	24	advance_on_keypress_SLASH	90	stimuli_target_squarediamonds.svg	stimuli_distractor_diamondtriangles.svg	8	yes	57	0	3776	6	2	antiphase_hc_ios.wav	3	6	3	noise_calib_stim_LEFT.wav	1	9	blb_dichoticlistening_da-ga.mp3	da	ga	1	left
6.6.1	win	2023-06-02	03:48:02	04:15:06	1621308	5b8e11444cd6dd0001bf07d9	1	1	main_slash	24	main_slash	91	stimuli_distractor_trianglediamonds.svg	stimuli_target_rectangletriangles.svg	9	yes	0	0	2000	6	2	antiphase_hc_ios.wav	3	6	3	noise_calib_stim_LEFT.wav	1	9	blb_dichoticlistening_da-ga.mp3	da	ga	1	left
6.6.1	win	2023-06-02	03:48:02	04:15:06	1621308	5b8e11444cd6dd0001bf07d9	1	1	main_slash	24	advance_on_keypress_SLASH	92	stimuli_distractor_trianglediamonds.svg	stimuli_target_rectangletriangles.svg	9	yes	57	0	2480	6	2	antiphase_hc_ios.wav	3	6	3	noise_calib_stim_LEFT.wav	1	9	blb_dichoticlistening_da-ga.mp3	da	ga	1	left
6.6.1	win	2023-06-02	03:48:02	04:15:11	1626441	5b8e11444cd6dd0001bf07d9	1	1	main_slash	24	main_slash	93	stimuli_distractor_diamondtriangles.svg	stimuli_target_diamondrectangles.svg	31	yes	0	0	2000	6	2	antiphase_hc_ios.wav	3	6	3	noise_calib_stim_LEFT.wav	1	9	blb_dichoticlistening_da-ga.mp3	da	ga	1	left
6.6.1	win	2023-06-02	03:48:02	04:15:11	1626441	5b8e11444cd6dd0001bf07d9	1	1	main_slash	24	advance_on_keypress_SLASH	94	stimuli_distractor_diamondtriangles.svg	stimuli_target_diamondrectangles.svg	31	yes	57	0	467	6	2	antiphase_hc_ios.wav	3	6	3	noise_calib_stim_LEFT.wav	1	9	blb_dichoticlistening_da-ga.mp3	da	ga	1	left
6.6.1	win	2023-06-02	03:48:02	04:15:13	1627707	5b8e11444cd6dd0001bf07d9	1	1	main_slash	24	main_slash	95	stimuli_target_diamondrectangles.svg	stimuli_distractor_diamondtriangles.svg	23	yes	53	1	151	6	2	antiphase_hc_ios.wav	3	6	3	noise_calib_stim_LEFT.wav	1	9	blb_dichoticlistening_da-ga.mp3	da	ga	1	left
6.6.1	win	2023-06-02	03:48:02	04:15:13	1627707	5b8e11444cd6dd0001bf07d9	1	1	main_slash	24	advance_on_keypress_SLASH	96	stimuli_target_diamondrectangles.svg	stimuli_distractor_diamondtriangles.svg	23	yes	57	0	849	6	2	antiphase_hc_ios.wav	3	6	3	noise_calib_stim_LEFT.wav	1	9	blb_dichoticlistening_da-ga.mp3	da	ga	1	left
6.6.1	win	2023-06-02	03:48:02	04:15:14	1629226	5b8e11444cd6dd0001bf07d9	1	1	main_slash	24	main_slash	97	stimuli_distractor_trianglediamonds.svg	stimuli_distractor_diamondtriangles.svg	35	no	53	0	20	6	2	antiphase_hc_ios.wav	3	6	3	noise_calib_stim_LEFT.wav	1	9	blb_dichoticlistening_da-ga.mp3	da	ga	1	left
6.6.1	win	2023-06-02	03:48:02	04:15:14	1629226	5b8e11444cd6dd0001bf07d9	1	1	main_slash	24	advance_on_keypress_SLASH	98	stimuli_distractor_trianglediamonds.svg	stimuli_distractor_diamondtriangles.svg	35	no	57	0	934	6	2	antiphase_hc_ios.wav	3	6	3	noise_calib_stim_LEFT.wav	1	9	blb_dichoticlistening_da-ga.mp3	da	ga	1	left
6.6.1	win	2023-06-02	03:48:02	04:15:18	1632807	5b8e11444cd6dd0001bf07d9	1	1	main_slash	24	main_slash	99	stimuli_distractor_trianglediamonds.svg	stimuli_target_squaretriangles.svg	11	yes	0	0	2000	6	2	antiphase_hc_ios.wav	3	6	3	noise_calib_stim_LEFT.wav	1	9	blb_dichoticlistening_da-ga.mp3	da	ga	1	left
6.6.1	win	2023-06-02	03:48:02	04:15:18	1632807	5b8e11444cd6dd0001bf07d9	1	1	main_slash	24	advance_on_keypress_SLASH	100	stimuli_distractor_trianglediamonds.svg	stimuli_target_squaretriangles.svg	11	yes	57	0	3025	6	2	antiphase_hc_ios.wav	3	6	3	noise_calib_stim_LEFT.wav	1	9	blb_dichoticlistening_da-ga.mp3	da	ga	1	left
6.6.1	win	2023-06-02	03:48:02	04:15:23	1638473	5b8e11444cd6dd0001bf07d9	1	1	main_slash	24	main_slash	101	stimuli_target_trianglesquares.svg	stimuli_distractor_diamondtriangles.svg	22	yes	0	0	2000	6	2	antiphase_hc_ios.wav	3	6	3	noise_calib_stim_LEFT.wav	1	9	blb_dichoticlistening_da-ga.mp3	da	ga	1	left
6.6.1	win	2023-06-02	03:48:02	04:15:23	1638473	5b8e11444cd6dd0001bf07d9	1	1	main_slash	24	advance_on_keypress_SLASH	102	stimuli_target_trianglesquares.svg	stimuli_distractor_diamondtriangles.svg	22	yes	57	0	535	6	2	antiphase_hc_ios.wav	3	6	3	noise_calib_stim_LEFT.wav	1	9	blb_dichoticlistening_da-ga.mp3	da	ga	1	left
6.6.1	win	2023-06-02	03:48:02	04:15:26	1641656	5b8e11444cd6dd0001bf07d9	1	1	main_slash	24	main_slash	103	stimuli_target_trianglesquares.svg	stimuli_distractor_trianglediamonds.svg	18	yes	0	0	2000	6	2	antiphase_hc_ios.wav	3	6	3	noise_calib_stim_LEFT.wav	1	9	blb_dichoticlistening_da-ga.mp3	da	ga	1	left
6.6.1	win	2023-06-02	03:48:02	04:15:26	1641656	5b8e11444cd6dd0001bf07d9	1	1	main_slash	24	advance_on_keypress_SLASH	104	stimuli_target_trianglesquares.svg	stimuli_distractor_trianglediamonds.svg	18	yes	57	0	368	6	2	antiphase_hc_ios.wav	3	6	3	noise_calib_stim_LEFT.wav	1	9	blb_dichoticlistening_da-ga.mp3	da	ga	1	left
6.6.1	win	2023-06-02	03:48:02	04:15:29	1644672	5b8e11444cd6dd0001bf07d9	1	1	main_slash	24	main_slash	105	stimuli_distractor_diamondtriangles.svg	stimuli_target_trianglesquares.svg	30	yes	0	0	2000	6	2	antiphase_hc_ios.wav	3	6	3	noise_calib_stim_LEFT.wav	1	9	blb_dichoticlistening_da-ga.mp3	da	ga	1	left
6.6.1	win	2023-06-02	03:48:02	04:15:29	1644672	5b8e11444cd6dd0001bf07d9	1	1	main_slash	24	advance_on_keypress_SLASH	106	stimuli_distractor_diamondtriangles.svg	stimuli_target_trianglesquares.svg	30	yes	57	0	406	6	2	antiphase_hc_ios.wav	3	6	3	noise_calib_stim_LEFT.wav	1	9	blb_dichoticlistening_da-ga.mp3	da	ga	1	left
6.6.1	win	2023-06-02	03:48:02	04:15:33	1647722	5b8e11444cd6dd0001bf07d9	1	1	main_slash	24	main_slash	107	stimuli_distractor_trianglediamonds.svg	stimuli_distractor_trianglediamonds.svg	33	no	0	1	2000	6	2	antiphase_hc_ios.wav	3	6	3	noise_calib_stim_LEFT.wav	1	9	blb_dichoticlistening_da-ga.mp3	da	ga	1	left
6.6.1	win	2023-06-02	03:48:02	04:15:33	1647722	5b8e11444cd6dd0001bf07d9	1	1	main_slash	24	advance_on_keypress_SLASH	108	stimuli_distractor_trianglediamonds.svg	stimuli_distractor_trianglediamonds.svg	33	no	57	0	372	6	2	antiphase_hc_ios.wav	3	6	3	noise_calib_stim_LEFT.wav	1	9	blb_dichoticlistening_da-ga.mp3	da	ga	1	left
6.6.1	win	2023-06-02	03:48:02	04:15:36	1650738	5b8e11444cd6dd0001bf07d9	1	1	main_slash	24	main_slash	109	stimuli_target_squaretriangles.svg	stimuli_distractor_trianglediamonds.svg	3	yes	0	0	2000	6	2	antiphase_hc_ios.wav	3	6	3	noise_calib_stim_LEFT.wav	1	9	blb_dichoticlistening_da-ga.mp3	da	ga	1	left
6.6.1	win	2023-06-02	03:48:02	04:15:36	1650738	5b8e11444cd6dd0001bf07d9	1	1	main_slash	24	advance_on_keypress_SLASH	110	stimuli_target_squaretriangles.svg	stimuli_distractor_trianglediamonds.svg	3	yes	57	0	635	6	2	antiphase_hc_ios.wav	3	6	3	noise_calib_stim_LEFT.wav	1	9	blb_dichoticlistening_da-ga.mp3	da	ga	1	left
6.6.1	win	2023-06-02	03:48:02	04:15:39	1654021	5b8e11444cd6dd0001bf07d9	1	1	main_slash	24	main_slash	111	stimuli_distractor_diamondtriangles.svg	stimuli_distractor_diamondtriangles.svg	40	no	0	1	2000	6	2	antiphase_hc_ios.wav	3	6	3	noise_calib_stim_LEFT.wav	1	9	blb_dichoticlistening_da-ga.mp3	da	ga	1	left
6.6.1	win	2023-06-02	03:48:02	04:15:39	1654021	5b8e11444cd6dd0001bf07d9	1	1	main_slash	24	advance_on_keypress_SLASH	112	stimuli_distractor_diamondtriangles.svg	stimuli_distractor_diamondtriangles.svg	40	no	57	0	442	6	2	antiphase_hc_ios.wav	3	6	3	noise_calib_stim_LEFT.wav	1	9	blb_dichoticlistening_da-ga.mp3	da	ga	1	left
6.6.1	win	2023-06-02	03:48:02	04:15:42	1657104	5b8e11444cd6dd0001bf07d9	1	1	main_slash	24	main_slash	113	stimuli_target_trianglerectangles.svg	stimuli_distractor_trianglediamonds.svg	17	yes	0	0	2000	6	2	antiphase_hc_ios.wav	3	6	3	noise_calib_stim_LEFT.wav	1	9	blb_dichoticlistening_da-ga.mp3	da	ga	1	left
6.6.1	win	2023-06-02	03:48:02	04:15:42	1657104	5b8e11444cd6dd0001bf07d9	1	1	main_slash	24	advance_on_keypress_SLASH	114	stimuli_target_trianglerectangles.svg	stimuli_distractor_trianglediamonds.svg	17	yes	57	0	1223	6	2	antiphase_hc_ios.wav	3	6	3	noise_calib_stim_LEFT.wav	1	9	blb_dichoticlistening_da-ga.mp3	da	ga	1	left
6.6.1	win	2023-06-02	03:48:02	04:15:44	1659223	5b8e11444cd6dd0001bf07d9	1	1	main_slash	24	main_slash	115	stimuli_distractor_diamondtriangles.svg	stimuli_distractor_trianglediamonds.svg	38	no	53	0	254	6	2	antiphase_hc_ios.wav	3	6	3	noise_calib_stim_LEFT.wav	1	9	blb_dichoticlistening_da-ga.mp3	da	ga	1	left
6.6.1	win	2023-06-02	03:48:02	04:15:44	1659223	5b8e11444cd6dd0001bf07d9	1	1	main_slash	24	advance_on_keypress_SLASH	116	stimuli_distractor_diamondtriangles.svg	stimuli_distractor_trianglediamonds.svg	38	no	57	0	1009	6	2	antiphase_hc_ios.wav	3	6	3	noise_calib_stim_LEFT.wav	1	9	blb_dichoticlistening_da-ga.mp3	da	ga	1	left
6.6.1	win	2023-06-02	03:48:02	04:15:46	1660970	5b8e11444cd6dd0001bf07d9	1	1	main_slash	24	main_slash	117	stimuli_distractor_diamondtriangles.svg	stimuli_distractor_trianglediamonds.svg	37	no	53	0	100	6	2	antiphase_hc_ios.wav	3	6	3	noise_calib_stim_LEFT.wav	1	9	blb_dichoticlistening_da-ga.mp3	da	ga	1	left
6.6.1	win	2023-06-02	03:48:02	04:15:46	1660970	5b8e11444cd6dd0001bf07d9	1	1	main_slash	24	advance_on_keypress_SLASH	118	stimuli_distractor_diamondtriangles.svg	stimuli_distractor_trianglediamonds.svg	37	no	57	0	1064	6	2	antiphase_hc_ios.wav	3	6	3	noise_calib_stim_LEFT.wav	1	9	blb_dichoticlistening_da-ga.mp3	da	ga	1	left
6.6.1	win	2023-06-02	03:48:02	04:15:50	1664686	5b8e11444cd6dd0001bf07d9	1	1	main_slash	24	main_slash	119	stimuli_distractor_diamondtriangles.svg	stimuli_target_squaretriangles.svg	15	yes	0	0	2000	6	2	antiphase_hc_ios.wav	3	6	3	noise_calib_stim_LEFT.wav	1	9	blb_dichoticlistening_da-ga.mp3	da	ga	1	left
6.6.1	win	2023-06-02	03:48:02	04:15:50	1664686	5b8e11444cd6dd0001bf07d9	1	1	main_slash	24	advance_on_keypress_SLASH	120	stimuli_distractor_diamondtriangles.svg	stimuli_target_squaretriangles.svg	15	yes	57	0	432	6	2	antiphase_hc_ios.wav	3	6	3	noise_calib_stim_LEFT.wav	1	9	blb_dichoticlistening_da-ga.mp3	da	ga	1	left
6.6.1	win	2023-06-02	03:48:02	04:15:53	1667769	5b8e11444cd6dd0001bf07d9	1	1	main_slash	24	main_slash	121	stimuli_distractor_trianglediamonds.svg	stimuli_target_trianglesquares.svg	26	yes	0	0	2000	6	2	antiphase_hc_ios.wav	3	6	3	noise_calib_stim_LEFT.wav	1	9	blb_dichoticlistening_da-ga.mp3	da	ga	1	left
6.6.1	win	2023-06-02	03:48:02	04:15:53	1667769	5b8e11444cd6dd0001bf07d9	1	1	main_slash	24	advance_on_keypress_SLASH	122	stimuli_distractor_trianglediamonds.svg	stimuli_target_trianglesquares.svg	26	yes	57	0	18006	6	2	antiphase_hc_ios.wav	3	6	3	noise_calib_stim_LEFT.wav	1	9	blb_dichoticlistening_da-ga.mp3	da	ga	1	left
6.6.1	win	2023-06-02	03:48:02	04:16:13	1688416	5b8e11444cd6dd0001bf07d9	1	1	main_slash	24	main_slash	123	stimuli_distractor_trianglediamonds.svg	stimuli_target_rectanglediamonds.svg	10	yes	0	0	2000	6	2	antiphase_hc_ios.wav	3	6	3	noise_calib_stim_LEFT.wav	1	9	blb_dichoticlistening_da-ga.mp3	da	ga	1	left
6.6.1	win	2023-06-02	03:48:02	04:16:13	1688416	5b8e11444cd6dd0001bf07d9	1	1	main_slash	24	advance_on_keypress_SLASH	124	stimuli_distractor_trianglediamonds.svg	stimuli_target_rectanglediamonds.svg	10	yes	57	0	352	6	2	antiphase_hc_ios.wav	3	6	3	noise_calib_stim_LEFT.wav	1	9	blb_dichoticlistening_da-ga.mp3	da	ga	1	left
6.6.1	win	2023-06-02	03:48:02	04:16:14	1689444	5b8e11444cd6dd0001bf07d9	1	1	main_slash	24	main_slash	125	stimuli_distractor_trianglediamonds.svg	stimuli_target_squarediamonds.svg	12	yes	53	1	29	6	2	antiphase_hc_ios.wav	3	6	3	noise_calib_stim_LEFT.wav	1	9	blb_dichoticlistening_da-ga.mp3	da	ga	1	left
6.6.1	win	2023-06-02	03:48:02	04:16:14	1689444	5b8e11444cd6dd0001bf07d9	1	1	main_slash	24	advance_on_keypress_SLASH	126	stimuli_distractor_trianglediamonds.svg	stimuli_target_squarediamonds.svg	12	yes	57	0	1170	6	2	antiphase_hc_ios.wav	3	6	3	noise_calib_stim_LEFT.wav	1	9	blb_dichoticlistening_da-ga.mp3	da	ga	1	left
6.6.1	win	2023-06-02	03:48:02	04:16:18	1693249	5b8e11444cd6dd0001bf07d9	1	1	main_slash	24	main_slash	127	stimuli_distractor_trianglediamonds.svg	stimuli_distractor_trianglediamonds.svg	34	no	0	1	2000	6	2	antiphase_hc_ios.wav	3	6	3	noise_calib_stim_LEFT.wav	1	9	blb_dichoticlistening_da-ga.mp3	da	ga	1	left
6.6.1	win	2023-06-02	03:48:02	04:16:18	1693249	5b8e11444cd6dd0001bf07d9	1	1	main_slash	24	advance_on_keypress_SLASH	128	stimuli_distractor_trianglediamonds.svg	stimuli_distractor_trianglediamonds.svg	34	no	57	0	297	6	2	antiphase_hc_ios.wav	3	6	3	noise_calib_stim_LEFT.wav	1	9	blb_dichoticlistening_da-ga.mp3	da	ga	1	left
6.6.1	win	2023-06-02	03:48:02	04:16:21	1696182	5b8e11444cd6dd0001bf07d9	1	1	main_slash	24	main_slash	129	stimuli_distractor_diamondtriangles.svg	stimuli_target_rectangletriangles.svg	13	yes	0	0	2000	6	2	antiphase_hc_ios.wav	3	6	3	noise_calib_stim_LEFT.wav	1	9	blb_dichoticlistening_da-ga.mp3	da	ga	1	left
6.6.1	win	2023-06-02	03:48:02	04:16:21	1696182	5b8e11444cd6dd0001bf07d9	1	1	main_slash	24	advance_on_keypress_SLASH	130	stimuli_distractor_diamondtriangles.svg	stimuli_target_rectangletriangles.svg	13	yes	57	0	543	6	2	antiphase_hc_ios.wav	3	6	3	noise_calib_stim_LEFT.wav	1	9	blb_dichoticlistening_da-ga.mp3	da	ga	1	left
6.6.1	win	2023-06-02	03:48:02	04:16:24	1699365	5b8e11444cd6dd0001bf07d9	1	1	main_slash	24	main_slash	131	stimuli_target_diamondsquares.svg	stimuli_distractor_trianglediamonds.svg	20	yes	0	0	2000	6	2	antiphase_hc_ios.wav	3	6	3	noise_calib_stim_LEFT.wav	1	9	blb_dichoticlistening_da-ga.mp3	da	ga	1	left
6.6.1	win	2023-06-02	03:48:02	04:16:24	1699365	5b8e11444cd6dd0001bf07d9	1	1	main_slash	24	advance_on_keypress_SLASH	132	stimuli_target_diamondsquares.svg	stimuli_distractor_trianglediamonds.svg	20	yes	57	0	498	6	2	antiphase_hc_ios.wav	3	6	3	noise_calib_stim_LEFT.wav	1	9	blb_dichoticlistening_da-ga.mp3	da	ga	1	left
6.6.1	win	2023-06-02	03:48:02	04:16:27	1702514	5b8e11444cd6dd0001bf07d9	1	1	main_slash	24	main_slash	133	stimuli_target_rectangletriangles.svg	stimuli_distractor_diamondtriangles.svg	5	yes	0	0	2000	6	2	antiphase_hc_ios.wav	3	6	3	noise_calib_stim_LEFT.wav	1	9	blb_dichoticlistening_da-ga.mp3	da	ga	1	left
6.6.1	win	2023-06-02	03:48:02	04:16:27	1702514	5b8e11444cd6dd0001bf07d9	1	1	main_slash	24	advance_on_keypress_SLASH	134	stimuli_target_rectangletriangles.svg	stimuli_distractor_diamondtriangles.svg	5	yes	57	0	574	6	2	antiphase_hc_ios.wav	3	6	3	noise_calib_stim_LEFT.wav	1	9	blb_dichoticlistening_da-ga.mp3	da	ga	1	left
6.6.1	win	2023-06-02	03:48:02	04:16:31	1705731	5b8e11444cd6dd0001bf07d9	1	1	main_slash	24	main_slash	135	stimuli_target_diamondsquares.svg	stimuli_distractor_diamondtriangles.svg	24	yes	0	0	2000	6	2	antiphase_hc_ios.wav	3	6	3	noise_calib_stim_LEFT.wav	1	9	blb_dichoticlistening_da-ga.mp3	da	ga	1	left
6.6.1	win	2023-06-02	03:48:02	04:16:31	1705731	5b8e11444cd6dd0001bf07d9	1	1	main_slash	24	advance_on_keypress_SLASH	136	stimuli_target_diamondsquares.svg	stimuli_distractor_diamondtriangles.svg	24	yes	57	0	2512	6	2	antiphase_hc_ios.wav	3	6	3	noise_calib_stim_LEFT.wav	1	9	blb_dichoticlistening_da-ga.mp3	da	ga	1	left
6.6.1	win	2023-06-02	03:48:02	04:16:34	1708937	5b8e11444cd6dd0001bf07d9	1	1	main_slash	24	main_slash	137	stimuli_target_squarediamonds.svg	stimuli_distractor_trianglediamonds.svg	4	yes	53	1	57	6	2	antiphase_hc_ios.wav	3	6	3	noise_calib_stim_LEFT.wav	1	9	blb_dichoticlistening_da-ga.mp3	da	ga	1	left
6.6.1	win	2023-06-02	03:48:02	04:16:34	1708937	5b8e11444cd6dd0001bf07d9	1	1	main_slash	24	advance_on_keypress_SLASH	138	stimuli_target_squarediamonds.svg	stimuli_distractor_trianglediamonds.svg	4	yes	57	0	944	6	2	antiphase_hc_ios.wav	3	6	3	noise_calib_stim_LEFT.wav	1	9	blb_dichoticlistening_da-ga.mp3	da	ga	1	left
6.6.1	win	2023-06-02	03:48:02	04:16:37	1712513	5b8e11444cd6dd0001bf07d9	1	1	main_slash	24	main_slash	139	stimuli_target_squaretriangles.svg	stimuli_distractor_diamondtriangles.svg	7	yes	0	0	2000	6	2	antiphase_hc_ios.wav	3	6	3	noise_calib_stim_LEFT.wav	1	9	blb_dichoticlistening_da-ga.mp3	da	ga	1	left
6.6.1	win	2023-06-02	03:48:02	04:16:37	1712513	5b8e11444cd6dd0001bf07d9	1	1	main_slash	24	advance_on_keypress_SLASH	140	stimuli_target_squaretriangles.svg	stimuli_distractor_diamondtriangles.svg	7	yes	57	0	632	6	2	antiphase_hc_ios.wav	3	6	3	noise_calib_stim_LEFT.wav	1	9	blb_dichoticlistening_da-ga.mp3	da	ga	1	left
6.6.1	win	2023-06-02	03:48:02	04:16:41	1715796	5b8e11444cd6dd0001bf07d9	1	1	main_slash	24	main_slash	141	stimuli_distractor_trianglediamonds.svg	stimuli_distractor_diamondtriangles.svg	36	no	0	1	2000	6	2	antiphase_hc_ios.wav	3	6	3	noise_calib_stim_LEFT.wav	1	9	blb_dichoticlistening_da-ga.mp3	da	ga	1	left
6.6.1	win	2023-06-02	03:48:02	04:16:41	1715796	5b8e11444cd6dd0001bf07d9	1	1	main_slash	24	advance_on_keypress_SLASH	142	stimuli_distractor_trianglediamonds.svg	stimuli_distractor_diamondtriangles.svg	36	no	57	0	619	6	2	antiphase_hc_ios.wav	3	6	3	noise_calib_stim_LEFT.wav	1	9	blb_dichoticlistening_da-ga.mp3	da	ga	1	left
6.6.1	win	2023-06-02	03:48:02	04:16:44	1719062	5b8e11444cd6dd0001bf07d9	1	1	main_slash	24	main_slash	143	stimuli_distractor_diamondtriangles.svg	stimuli_target_squarediamonds.svg	16	yes	0	0	2000	6	2	antiphase_hc_ios.wav	3	6	3	noise_calib_stim_LEFT.wav	1	9	blb_dichoticlistening_da-ga.mp3	da	ga	1	left
6.6.1	win	2023-06-02	03:48:02	04:16:44	1719062	5b8e11444cd6dd0001bf07d9	1	1	main_slash	24	advance_on_keypress_SLASH	144	stimuli_distractor_diamondtriangles.svg	stimuli_target_squarediamonds.svg	16	yes	57	0	484	6	2	antiphase_hc_ios.wav	3	6	3	noise_calib_stim_LEFT.wav	1	9	blb_dichoticlistening_da-ga.mp3	da	ga	1	left
6.6.1	win	2023-06-02	03:48:02	04:16:45	1720266	5b8e11444cd6dd0001bf07d9	1	1	main_slash	24	main_slash	145	stimuli_distractor_diamondtriangles.svg	stimuli_target_trianglerectangles.svg	29	yes	53	1	71	6	2	antiphase_hc_ios.wav	3	6	3	noise_calib_stim_LEFT.wav	1	9	blb_dichoticlistening_da-ga.mp3	da	ga	1	left
6.6.1	win	2023-06-02	03:48:02	04:16:45	1720266	5b8e11444cd6dd0001bf07d9	1	1	main_slash	24	advance_on_keypress_SLASH	146	stimuli_distractor_diamondtriangles.svg	stimuli_target_trianglerectangles.svg	29	yes	57	0	1009	6	2	antiphase_hc_ios.wav	3	6	3	noise_calib_stim_LEFT.wav	1	9	blb_dichoticlistening_da-ga.mp3	da	ga	1	left
6.6.1	win	2023-06-02	03:48:02	04:16:47	1721968	5b8e11444cd6dd0001bf07d9	1	1	main_slash	24	main_slash	147	stimuli_target_rectanglediamonds.svg	stimuli_distractor_trianglediamonds.svg	2	yes	53	1	56	6	2	antiphase_hc_ios.wav	3	6	3	noise_calib_stim_LEFT.wav	1	9	blb_dichoticlistening_da-ga.mp3	da	ga	1	left
6.6.1	win	2023-06-02	03:48:02	04:16:47	1721968	5b8e11444cd6dd0001bf07d9	1	1	main_slash	24	advance_on_keypress_SLASH	148	stimuli_target_rectanglediamonds.svg	stimuli_distractor_trianglediamonds.svg	2	yes	57	0	873	6	2	antiphase_hc_ios.wav	3	6	3	noise_calib_stim_LEFT.wav	1	9	blb_dichoticlistening_da-ga.mp3	da	ga	1	left
6.6.1	win	2023-06-02	03:48:02	04:16:50	1725478	5b8e11444cd6dd0001bf07d9	1	1	main_slash	24	main_slash	149	stimuli_target_rectangletriangles.svg	stimuli_distractor_trianglediamonds.svg	1	yes	0	0	2000	6	2	antiphase_hc_ios.wav	3	6	3	noise_calib_stim_LEFT.wav	1	9	blb_dichoticlistening_da-ga.mp3	da	ga	1	left
6.6.1	win	2023-06-02	03:48:02	04:16:50	1725478	5b8e11444cd6dd0001bf07d9	1	1	main_slash	24	advance_on_keypress_SLASH	150	stimuli_target_rectangletriangles.svg	stimuli_distractor_trianglediamonds.svg	1	yes	57	0	316	6	2	antiphase_hc_ios.wav	3	6	3	noise_calib_stim_LEFT.wav	1	9	blb_dichoticlistening_da-ga.mp3	da	ga	1	left
6.6.1	win	2023-06-02	03:48:02	04:16:53	1728445	5b8e11444cd6dd0001bf07d9	1	1	main_slash	24	main_slash	151	stimuli_distractor_trianglediamonds.svg	stimuli_target_diamondsquares.svg	28	yes	0	0	2000	6	2	antiphase_hc_ios.wav	3	6	3	noise_calib_stim_LEFT.wav	1	9	blb_dichoticlistening_da-ga.mp3	da	ga	1	left
6.6.1	win	2023-06-02	03:48:02	04:16:53	1728445	5b8e11444cd6dd0001bf07d9	1	1	main_slash	24	advance_on_keypress_SLASH	152	stimuli_distractor_trianglediamonds.svg	stimuli_target_diamondsquares.svg	28	yes	57	0	317	6	2	antiphase_hc_ios.wav	3	6	3	noise_calib_stim_LEFT.wav	1	9	blb_dichoticlistening_da-ga.mp3	da	ga	1	left
6.6.1	win	2023-06-02	03:48:02	04:16:56	1731411	5b8e11444cd6dd0001bf07d9	1	1	main_slash	24	main_slash	153	stimuli_target_trianglerectangles.svg	stimuli_distractor_diamondtriangles.svg	21	yes	0	0	2000	6	2	antiphase_hc_ios.wav	3	6	3	noise_calib_stim_LEFT.wav	1	9	blb_dichoticlistening_da-ga.mp3	da	ga	1	left
6.6.1	win	2023-06-02	03:48:02	04:16:56	1731411	5b8e11444cd6dd0001bf07d9	1	1	main_slash	24	advance_on_keypress_SLASH	154	stimuli_target_trianglerectangles.svg	stimuli_distractor_diamondtriangles.svg	21	yes	57	0	344	6	2	antiphase_hc_ios.wav	3	6	3	noise_calib_stim_LEFT.wav	1	9	blb_dichoticlistening_da-ga.mp3	da	ga	1	left
6.6.1	win	2023-06-02	03:48:02	04:16:59	1734394	5b8e11444cd6dd0001bf07d9	1	1	main_slash	24	main_slash	155	stimuli_distractor_trianglediamonds.svg	stimuli_target_trianglerectangles.svg	25	yes	0	0	2000	6	2	antiphase_hc_ios.wav	3	6	3	noise_calib_stim_LEFT.wav	1	9	blb_dichoticlistening_da-ga.mp3	da	ga	1	left
6.6.1	win	2023-06-02	03:48:02	04:16:59	1734394	5b8e11444cd6dd0001bf07d9	1	1	main_slash	24	advance_on_keypress_SLASH	156	stimuli_distractor_trianglediamonds.svg	stimuli_target_trianglerectangles.svg	25	yes	57	0	423	6	2	antiphase_hc_ios.wav	3	6	3	noise_calib_stim_LEFT.wav	1	9	blb_dichoticlistening_da-ga.mp3	da	ga	1	left
6.6.1	win	2023-06-02	03:48:02	04:17:02	1737460	5b8e11444cd6dd0001bf07d9	1	1	main_slash	24	main_slash	157	stimuli_distractor_diamondtriangles.svg	stimuli_target_diamondsquares.svg	32	yes	0	0	2000	6	2	antiphase_hc_ios.wav	3	6	3	noise_calib_stim_LEFT.wav	1	9	blb_dichoticlistening_da-ga.mp3	da	ga	1	left
6.6.1	win	2023-06-02	03:48:02	04:17:02	1737460	5b8e11444cd6dd0001bf07d9	1	1	main_slash	24	advance_on_keypress_SLASH	158	stimuli_distractor_diamondtriangles.svg	stimuli_target_diamondsquares.svg	32	yes	57	0	1177	6	2	antiphase_hc_ios.wav	3	6	3	noise_calib_stim_LEFT.wav	1	9	blb_dichoticlistening_da-ga.mp3	da	ga	1	left
6.6.1	win	2023-06-02	03:48:02	04:17:06	1741276	5b8e11444cd6dd0001bf07d9	1	1	main_slash	24	main_slash	159	stimuli_distractor_trianglediamonds.svg	stimuli_target_diamondrectangles.svg	27	yes	0	0	2000	6	2	antiphase_hc_ios.wav	3	6	3	noise_calib_stim_LEFT.wav	1	9	blb_dichoticlistening_da-ga.mp3	da	ga	1	left
6.6.1	win	2023-06-02	03:48:02	04:17:06	1741276	5b8e11444cd6dd0001bf07d9	1	1	main_slash	24	advance_on_keypress_SLASH	160	stimuli_distractor_trianglediamonds.svg	stimuli_target_diamondrectangles.svg	27	yes	57	0	496	6	2	antiphase_hc_ios.wav	3	6	3	noise_calib_stim_LEFT.wav	1	9	blb_dichoticlistening_da-ga.mp3	da	ga	1	left
6.6.1	win	2023-06-02	03:48:02	04:17:21	1756332	5b8e11444cd6dd0001bf07d9	1	1	practice_z	26	practice_z	1	stimuli_distractor_diamondtriangles.svg	stimuli_distractor_diamondtriangles.svg	13	no	44	0	223	6	2	antiphase_hc_ios.wav	3	6	3	noise_calib_stim_LEFT.wav	1	9	blb_dichoticlistening_da-ga.mp3	da	ga	1	left
6.6.1	win	2023-06-02	03:48:02	04:17:21	1756332	5b8e11444cd6dd0001bf07d9	1	1	practice_z	26	advance_on_keypress_ZEE	2	stimuli_distractor_diamondtriangles.svg	stimuli_distractor_diamondtriangles.svg	13	no	57	0	1100	6	2	antiphase_hc_ios.wav	3	6	3	noise_calib_stim_LEFT.wav	1	9	blb_dichoticlistening_da-ga.mp3	da	ga	1	left
6.6.1	win	2023-06-02	03:48:02	04:17:26	1761075	5b8e11444cd6dd0001bf07d9	1	1	practice_z	26	practice_z	3	stimuli_distractor_diamondtriangles.svg	stimuli_target_rectangletriangles.svg	7	yes	0	0	2000	6	2	antiphase_hc_ios.wav	3	6	3	noise_calib_stim_LEFT.wav	1	9	blb_dichoticlistening_da-ga.mp3	da	ga	1	left
6.6.1	win	2023-06-02	03:48:02	04:17:26	1761075	5b8e11444cd6dd0001bf07d9	1	1	practice_z	26	advance_on_keypress_ZEE	4	stimuli_distractor_diamondtriangles.svg	stimuli_target_rectangletriangles.svg	7	yes	57	0	736	6	2	antiphase_hc_ios.wav	3	6	3	noise_calib_stim_LEFT.wav	1	9	blb_dichoticlistening_da-ga.mp3	da	ga	1	left
6.6.1	win	2023-06-02	03:48:02	04:17:30	1765457	5b8e11444cd6dd0001bf07d9	1	1	practice_z	26	practice_z	5	stimuli_target_squarediamonds.svg	stimuli_distractor_diamondtriangles.svg	2	yes	0	0	2000	6	2	antiphase_hc_ios.wav	3	6	3	noise_calib_stim_LEFT.wav	1	9	blb_dichoticlistening_da-ga.mp3	da	ga	1	left
6.6.1	win	2023-06-02	03:48:02	04:17:30	1765457	5b8e11444cd6dd0001bf07d9	1	1	practice_z	26	advance_on_keypress_ZEE	6	stimuli_target_squarediamonds.svg	stimuli_distractor_diamondtriangles.svg	2	yes	57	0	659	6	2	antiphase_hc_ios.wav	3	6	3	noise_calib_stim_LEFT.wav	1	9	blb_dichoticlistening_da-ga.mp3	da	ga	1	left
6.6.1	win	2023-06-02	03:48:02	04:17:33	1767936	5b8e11444cd6dd0001bf07d9	1	1	practice_z	26	practice_z	7	stimuli_distractor_diamondtriangles.svg	stimuli_distractor_trianglediamonds.svg	14	no	44	0	179	6	2	antiphase_hc_ios.wav	3	6	3	noise_calib_stim_LEFT.wav	1	9	blb_dichoticlistening_da-ga.mp3	da	ga	1	left
6.6.1	win	2023-06-02	03:48:02	04:17:33	1767936	5b8e11444cd6dd0001bf07d9	1	1	practice_z	26	advance_on_keypress_ZEE	8	stimuli_distractor_diamondtriangles.svg	stimuli_distractor_trianglediamonds.svg	14	no	57	0	13	6	2	antiphase_hc_ios.wav	3	6	3	noise_calib_stim_LEFT.wav	1	9	blb_dichoticlistening_da-ga.mp3	da	ga	1	left
6.6.1	win	2023-06-02	03:48:02	04:17:35	1769825	5b8e11444cd6dd0001bf07d9	1	1	practice_z	26	practice_z	9	stimuli_distractor_diamondtriangles.svg	stimuli_target_trianglerectangles.svg	9	yes	44	1	217	6	2	antiphase_hc_ios.wav	3	6	3	noise_calib_stim_LEFT.wav	1	9	blb_dichoticlistening_da-ga.mp3	da	ga	1	left
6.6.1	win	2023-06-02	03:48:02	04:17:35	1769825	5b8e11444cd6dd0001bf07d9	1	1	practice_z	26	advance_on_keypress_ZEE	10	stimuli_distractor_diamondtriangles.svg	stimuli_target_trianglerectangles.svg	9	yes	57	0	603	6	2	antiphase_hc_ios.wav	3	6	3	noise_calib_stim_LEFT.wav	1	9	blb_dichoticlistening_da-ga.mp3	da	ga	1	left
6.6.1	win	2023-06-02	03:48:02	04:17:37	1772277	5b8e11444cd6dd0001bf07d9	1	1	practice_z	26	practice_z	11	stimuli_target_rectanglediamonds.svg	stimuli_distractor_diamondtriangles.svg	1	yes	44	1	203	6	2	antiphase_hc_ios.wav	3	6	3	noise_calib_stim_LEFT.wav	1	9	blb_dichoticlistening_da-ga.mp3	da	ga	1	left
6.6.1	win	2023-06-02	03:48:02	04:17:37	1772277	5b8e11444cd6dd0001bf07d9	1	1	practice_z	26	advance_on_keypress_ZEE	12	stimuli_target_rectanglediamonds.svg	stimuli_distractor_diamondtriangles.svg	1	yes	57	0	422	6	2	antiphase_hc_ios.wav	3	6	3	noise_calib_stim_LEFT.wav	1	9	blb_dichoticlistening_da-ga.mp3	da	ga	1	left
6.6.1	win	2023-06-02	03:48:02	04:17:41	1776339	5b8e11444cd6dd0001bf07d9	1	1	practice_z	26	practice_z	13	stimuli_distractor_trianglediamonds.svg	stimuli_distractor_diamondtriangles.svg	16	no	0	1	2000	6	2	antiphase_hc_ios.wav	3	6	3	noise_calib_stim_LEFT.wav	1	9	blb_dichoticlistening_da-ga.mp3	da	ga	1	left
6.6.1	win	2023-06-02	03:48:02	04:17:41	1776339	5b8e11444cd6dd0001bf07d9	1	1	practice_z	26	advance_on_keypress_ZEE	14	stimuli_distractor_trianglediamonds.svg	stimuli_distractor_diamondtriangles.svg	16	no	57	0	706	6	2	antiphase_hc_ios.wav	3	6	3	noise_calib_stim_LEFT.wav	1	9	blb_dichoticlistening_da-ga.mp3	da	ga	1	left
6.6.1	win	2023-06-02	03:48:02	04:17:44	1778899	5b8e11444cd6dd0001bf07d9	1	1	practice_z	26	practice_z	15	stimuli_target_diamondsquares.svg	stimuli_distractor_diamondtriangles.svg	3	yes	44	1	210	6	2	antiphase_hc_ios.wav	3	6	3	noise_calib_stim_LEFT.wav	1	9	blb_dichoticlistening_da-ga.mp3	da	ga	1	left
