build	computer.platform	date	time	timestamp	time_elapsed_ms	subject	group	session	blockcode	blocknum	trialcode	trialnum	stimulus_left	stimulus_right	stim_index	target_present	response	correct	latency	headphonecheck_countTestTrials	headphonecheck_index	headphonecheck_testSound	headphonecheck_correctResponse	stereocheck_countTestTrials	stereocheck_index	stereocheck_testSound	stereocheck_correctResponse	DL_index	DL_soundfile	DL_leftSound	DL_rightSound	DL_dualSound	DL_choice
6.6.1	win	2023-06-23	14:02:38	14:06:43	237672	6061fff2c21e787791b1d052	3	1	practice_slash	5	practice_slash	1	stimuli_distractor_trianglediamonds.svg	stimuli_target_squarediamonds.svg	11	yes	53	1	583	0	0			0	0			1				0	
6.6.1	win	2023-06-23	14:02:38	14:06:43	237672	6061fff2c21e787791b1d052	3	1	practice_slash	5	advance_on_keypress_SLASH	2	stimuli_distractor_trianglediamonds.svg	stimuli_target_squarediamonds.svg	11	yes	57	0	2627	0	0			0	0			1				0	
6.6.1	win	2023-06-23	14:02:38	14:06:49	243567	6061fff2c21e787791b1d052	3	1	practice_slash	5	practice_slash	3	stimuli_target_diamondsquares.svg	stimuli_distractor_diamondtriangles.svg	3	yes	53	1	1595	0	0			0	0			1				0	
6.6.1	win	2023-06-23	14:02:38	14:06:49	243567	6061fff2c21e787791b1d052	3	1	practice_slash	5	advance_on_keypress_SLASH	4	stimuli_target_diamondsquares.svg	stimuli_distractor_diamondtriangles.svg	3	yes	57	0	2405	0	0			0	0			1				0	
6.6.1	win	2023-06-23	14:02:38	14:06:54	249405	6061fff2c21e787791b1d052	3	1	practice_slash	5	practice_slash	5	stimuli_target_diamondsquares.svg	stimuli_distractor_trianglediamonds.svg	6	yes	53	1	1784	0	0			0	0			1				0	
6.6.1	win	2023-06-23	14:02:38	14:06:54	249405	6061fff2c21e787791b1d052	3	1	practice_slash	5	advance_on_keypress_SLASH	6	stimuli_target_diamondsquares.svg	stimuli_distractor_trianglediamonds.svg	6	yes	57	0	1934	0	0			0	0			1				0	
6.6.1	win	2023-06-23	14:02:38	14:06:59	253934	6061fff2c21e787791b1d052	3	1	practice_slash	5	practice_slash	7	stimuli_target_squarediamonds.svg	stimuli_distractor_diamondtriangles.svg	2	yes	53	1	947	0	0			0	0			1				0	
6.6.1	win	2023-06-23	14:02:38	14:06:59	253934	6061fff2c21e787791b1d052	3	1	practice_slash	5	advance_on_keypress_SLASH	8	stimuli_target_squarediamonds.svg	stimuli_distractor_diamondtriangles.svg	2	yes	57	0	993	0	0			0	0			1				0	
6.6.1	win	2023-06-23	14:02:38	14:07:02	257516	6061fff2c21e787791b1d052	3	1	practice_slash	5	practice_slash	9	stimuli_distractor_diamondtriangles.svg	stimuli_target_trianglerectangles.svg	9	yes	53	1	930	0	0			0	0			1				0	
6.6.1	win	2023-06-23	14:02:38	14:07:02	257516	6061fff2c21e787791b1d052	3	1	practice_slash	5	advance_on_keypress_SLASH	10	stimuli_distractor_diamondtriangles.svg	stimuli_target_trianglerectangles.svg	9	yes	57	0	938	0	0			0	0			1				0	
6.6.1	win	2023-06-23	14:02:38	14:07:07	262103	6061fff2c21e787791b1d052	3	1	practice_slash	5	practice_slash	11	stimuli_distractor_diamondtriangles.svg	stimuli_distractor_diamondtriangles.svg	13	no	0	1	2000	0	0			0	0			1				0	
6.6.1	win	2023-06-23	14:02:38	14:07:07	262103	6061fff2c21e787791b1d052	3	1	practice_slash	5	advance_on_keypress_SLASH	12	stimuli_distractor_diamondtriangles.svg	stimuli_distractor_diamondtriangles.svg	13	no	57	0	930	0	0			0	0			1				0	
6.6.1	win	2023-06-23	14:02:38	14:07:11	265777	6061fff2c21e787791b1d052	3	1	practice_slash	5	practice_slash	13	stimuli_distractor_diamondtriangles.svg	stimuli_target_diamondrectangles.svg	8	yes	53	1	1091	0	0			0	0			1				0	
6.6.1	win	2023-06-23	14:02:38	14:07:11	265777	6061fff2c21e787791b1d052	3	1	practice_slash	5	advance_on_keypress_SLASH	14	stimuli_distractor_diamondtriangles.svg	stimuli_target_diamondrectangles.svg	8	yes	57	0	752	0	0			0	0			1				0	
6.6.1	win	2023-06-23	14:02:38	14:07:14	269100	6061fff2c21e787791b1d052	3	1	practice_slash	5	practice_slash	15	stimuli_distractor_trianglediamonds.svg	stimuli_target_diamondrectangles.svg	12	yes	53	1	932	0	0			0	0			1				0	
6.6.1	win	2023-06-23	14:02:38	14:07:14	269100	6061fff2c21e787791b1d052	3	1	practice_slash	5	advance_on_keypress_SLASH	16	stimuli_distractor_trianglediamonds.svg	stimuli_target_diamondrectangles.svg	12	yes	57	0	1977	0	0			0	0			1				0	
6.6.1	win	2023-06-23	14:02:38	14:07:20	274735	6061fff2c21e787791b1d052	3	1	practice_slash	5	practice_slash	17	stimuli_distractor_trianglediamonds.svg	stimuli_distractor_diamondtriangles.svg	16	no	0	1	2000	0	0			0	0			1				0	
6.6.1	win	2023-06-23	14:02:38	14:07:20	274735	6061fff2c21e787791b1d052	3	1	practice_slash	5	advance_on_keypress_SLASH	18	stimuli_distractor_trianglediamonds.svg	stimuli_distractor_diamondtriangles.svg	16	no	57	0	709	0	0			0	0			1				0	
6.6.1	win	2023-06-23	14:02:38	14:07:24	279084	6061fff2c21e787791b1d052	3	1	practice_slash	5	practice_slash	19	stimuli_distractor_trianglediamonds.svg	stimuli_distractor_trianglediamonds.svg	15	no	0	1	2000	0	0			0	0			1				0	
6.6.1	win	2023-06-23	14:02:38	14:07:24	279084	6061fff2c21e787791b1d052	3	1	practice_slash	5	advance_on_keypress_SLASH	20	stimuli_distractor_trianglediamonds.svg	stimuli_distractor_trianglediamonds.svg	15	no	57	0	1143	0	0			0	0			1				0	
6.6.1	win	2023-06-23	14:02:38	14:07:28	282543	6061fff2c21e787791b1d052	3	1	practice_slash	5	practice_slash	21	stimuli_target_squarediamonds.svg	stimuli_distractor_trianglediamonds.svg	5	yes	53	1	677	0	0			0	0			1				0	
6.6.1	win	2023-06-23	14:02:38	14:07:28	282543	6061fff2c21e787791b1d052	3	1	practice_slash	5	advance_on_keypress_SLASH	22	stimuli_target_squarediamonds.svg	stimuli_distractor_trianglediamonds.svg	5	yes	57	0	611	0	0			0	0			1				0	
6.6.1	win	2023-06-23	14:02:38	14:07:31	285837	6061fff2c21e787791b1d052	3	1	practice_slash	5	practice_slash	23	stimuli_target_rectanglediamonds.svg	stimuli_distractor_diamondtriangles.svg	1	yes	53	1	1022	0	0			0	0			1				0	
6.6.1	win	2023-06-23	14:02:38	14:07:31	285837	6061fff2c21e787791b1d052	3	1	practice_slash	5	advance_on_keypress_SLASH	24	stimuli_target_rectanglediamonds.svg	stimuli_distractor_diamondtriangles.svg	1	yes	57	0	647	0	0			0	0			1				0	
6.6.1	win	2023-06-23	14:02:38	14:07:34	289020	6061fff2c21e787791b1d052	3	1	practice_slash	5	practice_slash	25	stimuli_distractor_diamondtriangles.svg	stimuli_target_rectangletriangles.svg	7	yes	53	1	888	0	0			0	0			1				0	
6.6.1	win	2023-06-23	14:02:38	14:07:34	289020	6061fff2c21e787791b1d052	3	1	practice_slash	5	advance_on_keypress_SLASH	26	stimuli_distractor_diamondtriangles.svg	stimuli_target_rectangletriangles.svg	7	yes	57	0	819	0	0			0	0			1				0	
6.6.1	win	2023-06-23	14:02:38	14:07:37	292294	6061fff2c21e787791b1d052	3	1	practice_slash	5	practice_slash	27	stimuli_distractor_trianglediamonds.svg	stimuli_target_rectanglediamonds.svg	10	yes	53	1	813	0	0			0	0			1				0	
6.6.1	win	2023-06-23	14:02:38	14:07:37	292294	6061fff2c21e787791b1d052	3	1	practice_slash	5	advance_on_keypress_SLASH	28	stimuli_distractor_trianglediamonds.svg	stimuli_target_rectanglediamonds.svg	10	yes	57	0	525	0	0			0	0			1				0	
6.6.1	win	2023-06-23	14:02:38	14:07:41	296464	6061fff2c21e787791b1d052	3	1	practice_slash	5	practice_slash	29	stimuli_distractor_diamondtriangles.svg	stimuli_distractor_trianglediamonds.svg	14	no	0	1	2000	0	0			0	0			1				0	
6.6.1	win	2023-06-23	14:02:38	14:07:41	296464	6061fff2c21e787791b1d052	3	1	practice_slash	5	advance_on_keypress_SLASH	30	stimuli_distractor_diamondtriangles.svg	stimuli_distractor_trianglediamonds.svg	14	no	57	0	540	0	0			0	0			1				0	
6.6.1	win	2023-06-23	14:02:38	14:07:44	299344	6061fff2c21e787791b1d052	3	1	practice_slash	5	practice_slash	31	stimuli_target_rectanglediamonds.svg	stimuli_distractor_trianglediamonds.svg	4	yes	53	1	694	0	0			0	0			1				0	
6.6.1	win	2023-06-23	14:02:38	14:07:44	299344	6061fff2c21e787791b1d052	3	1	practice_slash	5	advance_on_keypress_SLASH	32	stimuli_target_rectanglediamonds.svg	stimuli_distractor_trianglediamonds.svg	4	yes	57	0	690	0	0			0	0			1				0	
6.6.1	win	2023-06-23	14:02:38	14:07:52	307392	6061fff2c21e787791b1d052	3	1	main_slash	7	main_slash	1	stimuli_distractor_trianglediamonds.svg	stimuli_target_diamondsquares.svg	28	yes	53	1	1398	0	0			0	0			1				0	
6.6.1	win	2023-06-23	14:02:38	14:07:52	307392	6061fff2c21e787791b1d052	3	1	main_slash	7	advance_on_keypress_SLASH	2	stimuli_distractor_trianglediamonds.svg	stimuli_target_diamondsquares.svg	28	yes	57	0	1272	0	0			0	0			1				0	
6.6.1	win	2023-06-23	14:02:38	14:07:56	310804	6061fff2c21e787791b1d052	3	1	main_slash	7	main_slash	3	stimuli_target_trianglerectangles.svg	stimuli_distractor_trianglediamonds.svg	17	yes	53	1	1494	0	0			0	0			1				0	
6.6.1	win	2023-06-23	14:02:38	14:07:56	310804	6061fff2c21e787791b1d052	3	1	main_slash	7	advance_on_keypress_SLASH	4	stimuli_target_trianglerectangles.svg	stimuli_distractor_trianglediamonds.svg	17	yes	57	0	1200	0	0			0	0			1				0	
6.6.1	win	2023-06-23	14:02:38	14:07:59	313645	6061fff2c21e787791b1d052	3	1	main_slash	7	main_slash	5	stimuli_target_squaretriangles.svg	stimuli_distractor_trianglediamonds.svg	3	yes	53	1	1002	0	0			0	0			1				0	
6.6.1	win	2023-06-23	14:02:38	14:07:59	313645	6061fff2c21e787791b1d052	3	1	main_slash	7	advance_on_keypress_SLASH	6	stimuli_target_squaretriangles.svg	stimuli_distractor_trianglediamonds.svg	3	yes	57	0	1302	0	0			0	0			1				0	
6.6.1	win	2023-06-23	14:02:38	14:08:01	316301	6061fff2c21e787791b1d052	3	1	main_slash	7	main_slash	7	stimuli_distractor_trianglediamonds.svg	stimuli_target_squarediamonds.svg	12	yes	53	1	708	0	0			0	0			1				0	
6.6.1	win	2023-06-23	14:02:38	14:08:01	316301	6061fff2c21e787791b1d052	3	1	main_slash	7	advance_on_keypress_SLASH	8	stimuli_distractor_trianglediamonds.svg	stimuli_target_squarediamonds.svg	12	yes	57	0	978	0	0			0	0			1				0	
6.6.1	win	2023-06-23	14:02:38	14:08:04	319130	6061fff2c21e787791b1d052	3	1	main_slash	7	main_slash	9	stimuli_distractor_diamondtriangles.svg	stimuli_target_trianglerectangles.svg	29	yes	53	1	1205	0	0			0	0			1				0	
6.6.1	win	2023-06-23	14:02:38	14:08:04	319130	6061fff2c21e787791b1d052	3	1	main_slash	7	advance_on_keypress_SLASH	10	stimuli_distractor_diamondtriangles.svg	stimuli_target_trianglerectangles.svg	29	yes	57	0	1704	0	0			0	0			1				0	
6.6.1	win	2023-06-23	14:02:38	14:08:08	322803	6061fff2c21e787791b1d052	3	1	main_slash	7	main_slash	11	stimuli_target_squaretriangles.svg	stimuli_distractor_diamondtriangles.svg	7	yes	53	1	1328	0	0			0	0			1				0	
6.6.1	win	2023-06-23	14:02:38	14:08:08	322803	6061fff2c21e787791b1d052	3	1	main_slash	7	advance_on_keypress_SLASH	12	stimuli_target_squaretriangles.svg	stimuli_distractor_diamondtriangles.svg	7	yes	57	0	1310	0	0			0	0			1				0	
6.6.1	win	2023-06-23	14:02:38	14:08:11	325938	6061fff2c21e787791b1d052	3	1	main_slash	7	main_slash	13	stimuli_target_diamondrectangles.svg	stimuli_distractor_diamondtriangles.svg	23	yes	53	1	1196	0	0			0	0			1				0	
6.6.1	win	2023-06-23	14:02:38	14:08:11	325938	6061fff2c21e787791b1d052	3	1	main_slash	7	advance_on_keypress_SLASH	14	stimuli_target_diamondrectangles.svg	stimuli_distractor_diamondtriangles.svg	23	yes	57	0	1397	0	0			0	0			1				0	
6.6.1	win	2023-06-23	14:02:38	14:08:14	329043	6061fff2c21e787791b1d052	3	1	main_slash	7	main_slash	15	stimuli_distractor_diamondtriangles.svg	stimuli_target_diamondrectangles.svg	31	yes	53	1	1052	0	0			0	0			1				0	
6.6.1	win	2023-06-23	14:02:38	14:08:14	329043	6061fff2c21e787791b1d052	3	1	main_slash	7	advance_on_keypress_SLASH	16	stimuli_distractor_diamondtriangles.svg	stimuli_target_diamondrectangles.svg	31	yes	57	0	1075	0	0			0	0			1				0	
6.6.1	win	2023-06-23	14:02:38	14:08:17	332185	6061fff2c21e787791b1d052	3	1	main_slash	7	main_slash	17	stimuli_distractor_trianglediamonds.svg	stimuli_target_rectanglediamonds.svg	10	yes	53	1	1428	0	0			0	0			1				0	
6.6.1	win	2023-06-23	14:02:38	14:08:17	332185	6061fff2c21e787791b1d052	3	1	main_slash	7	advance_on_keypress_SLASH	18	stimuli_distractor_trianglediamonds.svg	stimuli_target_rectanglediamonds.svg	10	yes	57	0	12462	0	0			0	0			1				0	
6.6.1	win	2023-06-23	14:02:38	14:08:31	345964	6061fff2c21e787791b1d052	3	1	main_slash	7	main_slash	19	stimuli_target_rectangletriangles.svg	stimuli_distractor_trianglediamonds.svg	1	yes	53	1	659	0	0			0	0			1				0	
6.6.1	win	2023-06-23	14:02:38	14:08:31	345964	6061fff2c21e787791b1d052	3	1	main_slash	7	advance_on_keypress_SLASH	20	stimuli_target_rectangletriangles.svg	stimuli_distractor_trianglediamonds.svg	1	yes	57	0	835	0	0			0	0			1				0	
6.6.1	win	2023-06-23	14:02:38	14:08:33	348421	6061fff2c21e787791b1d052	3	1	main_slash	7	main_slash	21	stimuli_distractor_diamondtriangles.svg	stimuli_distractor_trianglediamonds.svg	37	no	53	0	982	0	0			0	0			1				0	
6.6.1	win	2023-06-23	14:02:38	14:08:33	348421	6061fff2c21e787791b1d052	3	1	main_slash	7	advance_on_keypress_SLASH	22	stimuli_distractor_diamondtriangles.svg	stimuli_distractor_trianglediamonds.svg	37	no	57	0	983	0	0			0	0			1				0	
6.6.1	win	2023-06-23	14:02:38	14:08:36	350826	6061fff2c21e787791b1d052	3	1	main_slash	7	main_slash	23	stimuli_target_rectangletriangles.svg	stimuli_distractor_diamondtriangles.svg	5	yes	53	1	772	0	0			0	0			1				0	
6.6.1	win	2023-06-23	14:02:38	14:08:36	350826	6061fff2c21e787791b1d052	3	1	main_slash	7	advance_on_keypress_SLASH	24	stimuli_target_rectangletriangles.svg	stimuli_distractor_diamondtriangles.svg	5	yes	57	0	731	0	0			0	0			1				0	
6.6.1	win	2023-06-23	14:02:38	14:08:38	353471	6061fff2c21e787791b1d052	3	1	main_slash	7	main_slash	25	stimuli_target_diamondsquares.svg	stimuli_distractor_diamondtriangles.svg	24	yes	53	1	1267	0	0			0	0			1				0	
6.6.1	win	2023-06-23	14:02:38	14:08:38	353471	6061fff2c21e787791b1d052	3	1	main_slash	7	advance_on_keypress_SLASH	26	stimuli_target_diamondsquares.svg	stimuli_distractor_diamondtriangles.svg	24	yes	57	0	1194	0	0			0	0			1				0	
6.6.1	win	2023-06-23	14:02:38	14:08:41	356182	6061fff2c21e787791b1d052	3	1	main_slash	7	main_slash	27	stimuli_distractor_diamondtriangles.svg	stimuli_target_squarediamonds.svg	16	yes	53	1	879	0	0			0	0			1				0	
6.6.1	win	2023-06-23	14:02:38	14:08:41	356182	6061fff2c21e787791b1d052	3	1	main_slash	7	advance_on_keypress_SLASH	28	stimuli_distractor_diamondtriangles.svg	stimuli_target_squarediamonds.svg	16	yes	57	0	521	0	0			0	0			1				0	
6.6.1	win	2023-06-23	14:02:38	14:08:43	358206	6061fff2c21e787791b1d052	3	1	main_slash	7	main_slash	29	stimuli_target_rectanglediamonds.svg	stimuli_distractor_trianglediamonds.svg	2	yes	53	1	852	0	0			0	0			1				0	
6.6.1	win	2023-06-23	14:02:38	14:08:43	358206	6061fff2c21e787791b1d052	3	1	main_slash	7	advance_on_keypress_SLASH	30	stimuli_target_rectanglediamonds.svg	stimuli_distractor_trianglediamonds.svg	2	yes	57	0	566	0	0			0	0			1				0	
6.6.1	win	2023-06-23	14:02:38	14:08:46	361420	6061fff2c21e787791b1d052	3	1	main_slash	7	main_slash	31	stimuli_distractor_diamondtriangles.svg	stimuli_distractor_diamondtriangles.svg	40	no	0	1	2000	0	0			0	0			1				0	
6.6.1	win	2023-06-23	14:02:38	14:08:46	361420	6061fff2c21e787791b1d052	3	1	main_slash	7	advance_on_keypress_SLASH	32	stimuli_distractor_diamondtriangles.svg	stimuli_distractor_diamondtriangles.svg	40	no	57	0	584	0	0			0	0			1				0	
6.6.1	win	2023-06-23	14:02:38	14:08:48	363471	6061fff2c21e787791b1d052	3	1	main_slash	7	main_slash	33	stimuli_distractor_trianglediamonds.svg	stimuli_target_squaretriangles.svg	11	yes	53	1	817	0	0			0	0			1				0	
6.6.1	win	2023-06-23	14:02:38	14:08:48	363471	6061fff2c21e787791b1d052	3	1	main_slash	7	advance_on_keypress_SLASH	34	stimuli_distractor_trianglediamonds.svg	stimuli_target_squaretriangles.svg	11	yes	57	0	1589	0	0			0	0			1				0	
6.6.1	win	2023-06-23	14:02:38	14:08:52	366554	6061fff2c21e787791b1d052	3	1	main_slash	7	main_slash	35	stimuli_distractor_trianglediamonds.svg	stimuli_target_trianglerectangles.svg	25	yes	53	1	852	0	0			0	0			1				0	
6.6.1	win	2023-06-23	14:02:38	14:08:52	366554	6061fff2c21e787791b1d052	3	1	main_slash	7	advance_on_keypress_SLASH	36	stimuli_distractor_trianglediamonds.svg	stimuli_target_trianglerectangles.svg	25	yes	57	0	1090	0	0			0	0			1				0	
6.6.1	win	2023-06-23	14:02:38	14:08:54	368979	6061fff2c21e787791b1d052	3	1	main_slash	7	main_slash	37	stimuli_distractor_trianglediamonds.svg	stimuli_target_diamondrectangles.svg	27	yes	53	1	694	0	0			0	0			1				0	
6.6.1	win	2023-06-23	14:02:38	14:08:54	368979	6061fff2c21e787791b1d052	3	1	main_slash	7	advance_on_keypress_SLASH	38	stimuli_distractor_trianglediamonds.svg	stimuli_target_diamondrectangles.svg	27	yes	57	0	757	0	0			0	0			1				0	
6.6.1	win	2023-06-23	14:02:38	14:08:56	371241	6061fff2c21e787791b1d052	3	1	main_slash	7	main_slash	39	stimuli_distractor_diamondtriangles.svg	stimuli_target_trianglesquares.svg	30	yes	53	1	873	0	0			0	0			1				0	
6.6.1	win	2023-06-23	14:02:38	14:08:56	371241	6061fff2c21e787791b1d052	3	1	main_slash	7	advance_on_keypress_SLASH	40	stimuli_distractor_diamondtriangles.svg	stimuli_target_trianglesquares.svg	30	yes	57	0	877	0	0			0	0			1				0	
6.6.1	win	2023-06-23	14:02:38	14:08:59	373669	6061fff2c21e787791b1d052	3	1	main_slash	7	main_slash	41	stimuli_target_squarediamonds.svg	stimuli_distractor_diamondtriangles.svg	8	yes	53	1	918	0	0			0	0			1				0	
6.6.1	win	2023-06-23	14:02:38	14:08:59	373669	6061fff2c21e787791b1d052	3	1	main_slash	7	advance_on_keypress_SLASH	42	stimuli_target_squarediamonds.svg	stimuli_distractor_diamondtriangles.svg	8	yes	57	0	617	0	0			0	0			1				0	
6.6.1	win	2023-06-23	14:02:38	14:09:01	375752	6061fff2c21e787791b1d052	3	1	main_slash	7	main_slash	43	stimuli_distractor_trianglediamonds.svg	stimuli_target_rectangletriangles.svg	9	yes	53	1	817	0	0			0	0			1				0	
6.6.1	win	2023-06-23	14:02:38	14:09:01	375752	6061fff2c21e787791b1d052	3	1	main_slash	7	advance_on_keypress_SLASH	44	stimuli_distractor_trianglediamonds.svg	stimuli_target_rectangletriangles.svg	9	yes	57	0	542	0	0			0	0			1				0	
6.6.1	win	2023-06-23	14:02:38	14:09:03	377946	6061fff2c21e787791b1d052	3	1	main_slash	7	main_slash	45	stimuli_target_diamondrectangles.svg	stimuli_distractor_trianglediamonds.svg	19	yes	53	1	1011	0	0			0	0			1				0	
6.6.1	win	2023-06-23	14:02:38	14:09:03	377946	6061fff2c21e787791b1d052	3	1	main_slash	7	advance_on_keypress_SLASH	46	stimuli_target_diamondrectangles.svg	stimuli_distractor_trianglediamonds.svg	19	yes	57	0	419	0	0			0	0			1				0	
6.6.1	win	2023-06-23	14:02:38	14:09:05	379887	6061fff2c21e787791b1d052	3	1	main_slash	7	main_slash	47	stimuli_target_squarediamonds.svg	stimuli_distractor_trianglediamonds.svg	4	yes	53	1	869	0	0			0	0			1				0	
6.6.1	win	2023-06-23	14:02:38	14:09:05	379887	6061fff2c21e787791b1d052	3	1	main_slash	7	advance_on_keypress_SLASH	48	stimuli_target_squarediamonds.svg	stimuli_distractor_trianglediamonds.svg	4	yes	57	0	404	0	0			0	0			1				0	
6.6.1	win	2023-06-23	14:02:38	14:09:08	382933	6061fff2c21e787791b1d052	3	1	main_slash	7	main_slash	49	stimuli_distractor_trianglediamonds.svg	stimuli_distractor_trianglediamonds.svg	34	no	0	1	2000	0	0			0	0			1				0	
6.6.1	win	2023-06-23	14:02:38	14:09:08	382933	6061fff2c21e787791b1d052	3	1	main_slash	7	advance_on_keypress_SLASH	50	stimuli_distractor_trianglediamonds.svg	stimuli_distractor_trianglediamonds.svg	34	no	57	0	495	0	0			0	0			1				0	
6.6.1	win	2023-06-23	14:02:38	14:09:10	384758	6061fff2c21e787791b1d052	3	1	main_slash	7	main_slash	51	stimuli_distractor_trianglediamonds.svg	stimuli_target_trianglesquares.svg	26	yes	53	1	692	0	0			0	0			1				0	
6.6.1	win	2023-06-23	14:02:38	14:09:10	384758	6061fff2c21e787791b1d052	3	1	main_slash	7	advance_on_keypress_SLASH	52	stimuli_distractor_trianglediamonds.svg	stimuli_target_trianglesquares.svg	26	yes	57	0	1114	0	0			0	0			1				0	
6.6.1	win	2023-06-23	14:02:38	14:09:12	387155	6061fff2c21e787791b1d052	3	1	main_slash	7	main_slash	53	stimuli_distractor_diamondtriangles.svg	stimuli_target_rectangletriangles.svg	13	yes	53	1	639	0	0			0	0			1				0	
6.6.1	win	2023-06-23	14:02:38	14:09:12	387155	6061fff2c21e787791b1d052	3	1	main_slash	7	advance_on_keypress_SLASH	54	stimuli_distractor_diamondtriangles.svg	stimuli_target_rectangletriangles.svg	13	yes	57	0	621	0	0			0	0			1				0	
6.6.1	win	2023-06-23	14:02:38	14:09:14	389293	6061fff2c21e787791b1d052	3	1	main_slash	7	main_slash	55	stimuli_target_trianglesquares.svg	stimuli_distractor_trianglediamonds.svg	18	yes	53	1	878	0	0			0	0			1				0	
6.6.1	win	2023-06-23	14:02:38	14:09:14	389293	6061fff2c21e787791b1d052	3	1	main_slash	7	advance_on_keypress_SLASH	56	stimuli_target_trianglesquares.svg	stimuli_distractor_trianglediamonds.svg	18	yes	57	0	446	0	0			0	0			1				0	
6.6.1	win	2023-06-23	14:02:38	14:09:16	391256	6061fff2c21e787791b1d052	3	1	main_slash	7	main_slash	57	stimuli_target_trianglesquares.svg	stimuli_distractor_diamondtriangles.svg	22	yes	53	1	874	0	0			0	0			1				0	
6.6.1	win	2023-06-23	14:02:38	14:09:16	391256	6061fff2c21e787791b1d052	3	1	main_slash	7	advance_on_keypress_SLASH	58	stimuli_target_trianglesquares.svg	stimuli_distractor_diamondtriangles.svg	22	yes	57	0	464	0	0			0	0			1				0	
6.6.1	win	2023-06-23	14:02:38	14:09:18	393478	6061fff2c21e787791b1d052	3	1	main_slash	7	main_slash	59	stimuli_distractor_diamondtriangles.svg	stimuli_target_rectanglediamonds.svg	14	yes	53	1	1113	0	0			0	0			1				0	
6.6.1	win	2023-06-23	14:02:38	14:09:18	393478	6061fff2c21e787791b1d052	3	1	main_slash	7	advance_on_keypress_SLASH	60	stimuli_distractor_diamondtriangles.svg	stimuli_target_rectanglediamonds.svg	14	yes	57	0	452	0	0			0	0			1				0	
6.6.1	win	2023-06-23	14:02:38	14:09:21	395731	6061fff2c21e787791b1d052	3	1	main_slash	7	main_slash	61	stimuli_target_diamondsquares.svg	stimuli_distractor_trianglediamonds.svg	20	yes	53	1	1149	0	0			0	0			1				0	
6.6.1	win	2023-06-23	14:02:38	14:09:21	395731	6061fff2c21e787791b1d052	3	1	main_slash	7	advance_on_keypress_SLASH	62	stimuli_target_diamondsquares.svg	stimuli_distractor_trianglediamonds.svg	20	yes	57	0	564	0	0			0	0			1				0	
6.6.1	win	2023-06-23	14:02:38	14:09:24	398949	6061fff2c21e787791b1d052	3	1	main_slash	7	main_slash	63	stimuli_distractor_trianglediamonds.svg	stimuli_distractor_diamondtriangles.svg	36	no	0	1	2000	0	0			0	0			1				0	
6.6.1	win	2023-06-23	14:02:38	14:09:24	398949	6061fff2c21e787791b1d052	3	1	main_slash	7	advance_on_keypress_SLASH	64	stimuli_distractor_trianglediamonds.svg	stimuli_distractor_diamondtriangles.svg	36	no	57	0	791	0	0			0	0			1				0	
6.6.1	win	2023-06-23	14:02:38	14:09:26	401110	6061fff2c21e787791b1d052	3	1	main_slash	7	main_slash	65	stimuli_distractor_diamondtriangles.svg	stimuli_target_squaretriangles.svg	15	yes	53	1	730	0	0			0	0			1				0	
6.6.1	win	2023-06-23	14:02:38	14:09:26	401110	6061fff2c21e787791b1d052	3	1	main_slash	7	advance_on_keypress_SLASH	66	stimuli_distractor_diamondtriangles.svg	stimuli_target_squaretriangles.svg	15	yes	57	0	1041	0	0			0	0			1				0	
6.6.1	win	2023-06-23	14:02:38	14:09:29	403870	6061fff2c21e787791b1d052	3	1	main_slash	7	main_slash	67	stimuli_target_trianglerectangles.svg	stimuli_distractor_diamondtriangles.svg	21	yes	53	1	1073	0	0			0	0			1				0	
6.6.1	win	2023-06-23	14:02:38	14:09:29	403870	6061fff2c21e787791b1d052	3	1	main_slash	7	advance_on_keypress_SLASH	68	stimuli_target_trianglerectangles.svg	stimuli_distractor_diamondtriangles.svg	21	yes	57	0	632	0	0			0	0			1				0	
6.6.1	win	2023-06-23	14:02:38	14:09:32	407147	6061fff2c21e787791b1d052	3	1	main_slash	7	main_slash	69	stimuli_distractor_diamondtriangles.svg	stimuli_distractor_diamondtriangles.svg	39	no	0	1	2000	0	0			0	0			1				0	
6.6.1	win	2023-06-23	14:02:38	14:09:32	407147	6061fff2c21e787791b1d052	3	1	main_slash	7	advance_on_keypress_SLASH	70	stimuli_distractor_diamondtriangles.svg	stimuli_distractor_diamondtriangles.svg	39	no	57	0	523	0	0			0	0			1				0	
6.6.1	win	2023-06-23	14:02:38	14:09:35	410313	6061fff2c21e787791b1d052	3	1	main_slash	7	main_slash	71	stimuli_distractor_trianglediamonds.svg	stimuli_distractor_trianglediamonds.svg	33	no	0	1	2000	0	0			0	0			1				0	
6.6.1	win	2023-06-23	14:02:38	14:09:35	410313	6061fff2c21e787791b1d052	3	1	main_slash	7	advance_on_keypress_SLASH	72	stimuli_distractor_trianglediamonds.svg	stimuli_distractor_trianglediamonds.svg	33	no	57	0	546	0	0			0	0			1				0	
6.6.1	win	2023-06-23	14:02:38	14:09:38	413512	6061fff2c21e787791b1d052	3	1	main_slash	7	main_slash	73	stimuli_distractor_trianglediamonds.svg	stimuli_distractor_diamondtriangles.svg	35	no	0	1	2000	0	0			0	0			1				0	
6.6.1	win	2023-06-23	14:02:38	14:09:38	413512	6061fff2c21e787791b1d052	3	1	main_slash	7	advance_on_keypress_SLASH	74	stimuli_distractor_trianglediamonds.svg	stimuli_distractor_diamondtriangles.svg	35	no	57	0	479	0	0			0	0			1				0	
6.6.1	win	2023-06-23	14:02:38	14:09:40	415503	6061fff2c21e787791b1d052	3	1	main_slash	7	main_slash	75	stimuli_distractor_diamondtriangles.svg	stimuli_target_diamondsquares.svg	32	yes	53	1	857	0	0			0	0			1				0	
6.6.1	win	2023-06-23	14:02:38	14:09:40	415503	6061fff2c21e787791b1d052	3	1	main_slash	7	advance_on_keypress_SLASH	76	stimuli_distractor_diamondtriangles.svg	stimuli_target_diamondsquares.svg	32	yes	57	0	1640	0	0			0	0			1				0	
6.6.1	win	2023-06-23	14:02:38	14:09:45	419779	6061fff2c21e787791b1d052	3	1	main_slash	7	main_slash	77	stimuli_distractor_diamondtriangles.svg	stimuli_distractor_trianglediamonds.svg	38	no	0	1	2000	0	0			0	0			1				0	
6.6.1	win	2023-06-23	14:02:38	14:09:45	419779	6061fff2c21e787791b1d052	3	1	main_slash	7	advance_on_keypress_SLASH	78	stimuli_distractor_diamondtriangles.svg	stimuli_distractor_trianglediamonds.svg	38	no	57	0	387	0	0			0	0			1				0	
6.6.1	win	2023-06-23	14:02:38	14:09:46	421406	6061fff2c21e787791b1d052	3	1	main_slash	7	main_slash	79	stimuli_target_rectanglediamonds.svg	stimuli_distractor_diamondtriangles.svg	6	yes	53	1	596	0	0			0	0			1				0	
6.6.1	win	2023-06-23	14:02:38	14:09:46	421406	6061fff2c21e787791b1d052	3	1	main_slash	7	advance_on_keypress_SLASH	80	stimuli_target_rectanglediamonds.svg	stimuli_distractor_diamondtriangles.svg	6	yes	57	0	763	0	0			0	0			1				0	
6.6.1	win	2023-06-23	14:02:38	14:09:49	423645	6061fff2c21e787791b1d052	3	1	main_slash	7	main_slash	81	stimuli_target_rectangletriangles.svg	stimuli_distractor_trianglediamonds.svg	1	yes	53	1	834	0	0			0	0			1				0	
6.6.1	win	2023-06-23	14:02:38	14:09:49	423645	6061fff2c21e787791b1d052	3	1	main_slash	7	advance_on_keypress_SLASH	82	stimuli_target_rectangletriangles.svg	stimuli_distractor_trianglediamonds.svg	1	yes	57	0	361	0	0			0	0			1				0	
6.6.1	win	2023-06-23	14:02:38	14:09:52	426644	6061fff2c21e787791b1d052	3	1	main_slash	7	main_slash	83	stimuli_distractor_diamondtriangles.svg	stimuli_target_diamondsquares.svg	32	yes	0	0	2000	0	0			0	0			1				0	
6.6.1	win	2023-06-23	14:02:38	14:09:52	426644	6061fff2c21e787791b1d052	3	1	main_slash	7	advance_on_keypress_SLASH	84	stimuli_distractor_diamondtriangles.svg	stimuli_target_diamondsquares.svg	32	yes	57	0	586	0	0			0	0			1				0	
6.6.1	win	2023-06-23	14:02:38	14:09:54	428730	6061fff2c21e787791b1d052	3	1	main_slash	7	main_slash	85	stimuli_target_diamondsquares.svg	stimuli_distractor_diamondtriangles.svg	24	yes	53	1	853	0	0			0	0			1				0	
6.6.1	win	2023-06-23	14:02:38	14:09:54	428730	6061fff2c21e787791b1d052	3	1	main_slash	7	advance_on_keypress_SLASH	86	stimuli_target_diamondsquares.svg	stimuli_distractor_diamondtriangles.svg	24	yes	57	0	1038	0	0			0	0			1				0	
6.6.1	win	2023-06-23	14:02:38	14:09:57	432409	6061fff2c21e787791b1d052	3	1	main_slash	7	main_slash	87	stimuli_distractor_trianglediamonds.svg	stimuli_distractor_diamondtriangles.svg	36	no	0	1	2000	0	0			0	0			1				0	
6.6.1	win	2023-06-23	14:02:38	14:09:57	432409	6061fff2c21e787791b1d052	3	1	main_slash	7	advance_on_keypress_SLASH	88	stimuli_distractor_trianglediamonds.svg	stimuli_distractor_diamondtriangles.svg	36	no	57	0	479	0	0			0	0			1				0	
6.6.1	win	2023-06-23	14:02:38	14:09:59	434464	6061fff2c21e787791b1d052	3	1	main_slash	7	main_slash	89	stimuli_target_diamondrectangles.svg	stimuli_distractor_diamondtriangles.svg	23	yes	53	1	938	0	0			0	0			1				0	
6.6.1	win	2023-06-23	14:02:38	14:09:59	434464	6061fff2c21e787791b1d052	3	1	main_slash	7	advance_on_keypress_SLASH	90	stimuli_target_diamondrectangles.svg	stimuli_distractor_diamondtriangles.svg	23	yes	57	0	1648	0	0			0	0			1				0	
6.6.1	win	2023-06-23	14:02:38	14:10:03	437823	6061fff2c21e787791b1d052	3	1	main_slash	7	main_slash	91	stimuli_distractor_trianglediamonds.svg	stimuli_target_rectangletriangles.svg	9	yes	53	1	1064	0	0			0	0			1				0	
6.6.1	win	2023-06-23	14:02:38	14:10:03	437823	6061fff2c21e787791b1d052	3	1	main_slash	7	advance_on_keypress_SLASH	92	stimuli_distractor_trianglediamonds.svg	stimuli_target_rectangletriangles.svg	9	yes	57	0	694	0	0			0	0			1				0	
6.6.1	win	2023-06-23	14:02:38	14:10:05	440244	6061fff2c21e787791b1d052	3	1	main_slash	7	main_slash	93	stimuli_target_trianglesquares.svg	stimuli_distractor_diamondtriangles.svg	22	yes	53	1	1086	0	0			0	0			1				0	
6.6.1	win	2023-06-23	14:02:38	14:10:05	440244	6061fff2c21e787791b1d052	3	1	main_slash	7	advance_on_keypress_SLASH	94	stimuli_target_trianglesquares.svg	stimuli_distractor_diamondtriangles.svg	22	yes	57	0	449	0	0			0	0			1				0	
6.6.1	win	2023-06-23	14:02:38	14:10:08	443343	6061fff2c21e787791b1d052	3	1	main_slash	7	main_slash	95	stimuli_distractor_diamondtriangles.svg	stimuli_distractor_diamondtriangles.svg	40	no	0	1	2000	0	0			0	0			1				0	
6.6.1	win	2023-06-23	14:02:38	14:10:08	443343	6061fff2c21e787791b1d052	3	1	main_slash	7	advance_on_keypress_SLASH	96	stimuli_distractor_diamondtriangles.svg	stimuli_distractor_diamondtriangles.svg	40	no	57	0	408	0	0			0	0			1				0	
6.6.1	win	2023-06-23	14:02:38	14:10:11	446391	6061fff2c21e787791b1d052	3	1	main_slash	7	main_slash	97	stimuli_distractor_diamondtriangles.svg	stimuli_distractor_diamondtriangles.svg	39	no	0	1	2000	0	0			0	0			1				0	
6.6.1	win	2023-06-23	14:02:38	14:10:11	446391	6061fff2c21e787791b1d052	3	1	main_slash	7	advance_on_keypress_SLASH	98	stimuli_distractor_diamondtriangles.svg	stimuli_distractor_diamondtriangles.svg	39	no	57	0	688	0	0			0	0			1				0	
6.6.1	win	2023-06-23	14:02:38	14:10:13	448386	6061fff2c21e787791b1d052	3	1	main_slash	7	main_slash	99	stimuli_distractor_trianglediamonds.svg	stimuli_target_squaretriangles.svg	11	yes	53	1	661	0	0			0	0			1				0	
6.6.1	win	2023-06-23	14:02:38	14:10:13	448386	6061fff2c21e787791b1d052	3	1	main_slash	7	advance_on_keypress_SLASH	100	stimuli_distractor_trianglediamonds.svg	stimuli_target_squaretriangles.svg	11	yes	57	0	755	0	0			0	0			1				0	
6.6.1	win	2023-06-23	14:02:38	14:10:17	451791	6061fff2c21e787791b1d052	3	1	main_slash	7	main_slash	101	stimuli_distractor_trianglediamonds.svg	stimuli_distractor_trianglediamonds.svg	34	no	0	1	2000	0	0			0	0			1				0	
6.6.1	win	2023-06-23	14:02:38	14:10:17	451791	6061fff2c21e787791b1d052	3	1	main_slash	7	advance_on_keypress_SLASH	102	stimuli_distractor_trianglediamonds.svg	stimuli_distractor_trianglediamonds.svg	34	no	57	0	440	0	0			0	0			1				0	
6.6.1	win	2023-06-23	14:02:38	14:10:19	453959	6061fff2c21e787791b1d052	3	1	main_slash	7	main_slash	103	stimuli_target_squaretriangles.svg	stimuli_distractor_trianglediamonds.svg	3	yes	53	1	1087	0	0			0	0			1				0	
6.6.1	win	2023-06-23	14:02:38	14:10:19	453959	6061fff2c21e787791b1d052	3	1	main_slash	7	advance_on_keypress_SLASH	104	stimuli_target_squaretriangles.svg	stimuli_distractor_trianglediamonds.svg	3	yes	57	0	609	0	0			0	0			1				0	
6.6.1	win	2023-06-23	14:02:38	14:10:22	457207	6061fff2c21e787791b1d052	3	1	main_slash	7	main_slash	105	stimuli_distractor_trianglediamonds.svg	stimuli_distractor_trianglediamonds.svg	33	no	0	1	2000	0	0			0	0			1				0	
6.6.1	win	2023-06-23	14:02:38	14:10:22	457207	6061fff2c21e787791b1d052	3	1	main_slash	7	advance_on_keypress_SLASH	106	stimuli_distractor_trianglediamonds.svg	stimuli_distractor_trianglediamonds.svg	33	no	57	0	430	0	0			0	0			1				0	
6.6.1	win	2023-06-23	14:02:38	14:10:24	459341	6061fff2c21e787791b1d052	3	1	main_slash	7	main_slash	107	stimuli_distractor_diamondtriangles.svg	stimuli_target_rectangletriangles.svg	13	yes	53	1	1052	0	0			0	0			1				0	
6.6.1	win	2023-06-23	14:02:38	14:10:24	459341	6061fff2c21e787791b1d052	3	1	main_slash	7	advance_on_keypress_SLASH	108	stimuli_distractor_diamondtriangles.svg	stimuli_target_rectangletriangles.svg	13	yes	57	0	502	0	0			0	0			1				0	
6.6.1	win	2023-06-23	14:02:38	14:10:27	462489	6061fff2c21e787791b1d052	3	1	main_slash	7	main_slash	109	stimuli_distractor_trianglediamonds.svg	stimuli_distractor_diamondtriangles.svg	35	no	0	1	2000	0	0			0	0			1				0	
6.6.1	win	2023-06-23	14:02:38	14:10:27	462489	6061fff2c21e787791b1d052	3	1	main_slash	7	advance_on_keypress_SLASH	110	stimuli_distractor_trianglediamonds.svg	stimuli_distractor_diamondtriangles.svg	35	no	57	0	374	0	0			0	0			1				0	
6.6.1	win	2023-06-23	14:02:38	14:10:29	464278	6061fff2c21e787791b1d052	3	1	main_slash	7	main_slash	111	stimuli_distractor_trianglediamonds.svg	stimuli_target_diamondsquares.svg	28	yes	53	1	773	0	0			0	0			1				0	
6.6.1	win	2023-06-23	14:02:38	14:10:29	464278	6061fff2c21e787791b1d052	3	1	main_slash	7	advance_on_keypress_SLASH	112	stimuli_distractor_trianglediamonds.svg	stimuli_target_diamondsquares.svg	28	yes	57	0	488	0	0			0	0			1				0	
6.6.1	win	2023-06-23	14:02:38	14:10:31	466257	6061fff2c21e787791b1d052	3	1	main_slash	7	main_slash	113	stimuli_distractor_trianglediamonds.svg	stimuli_target_trianglerectangles.svg	25	yes	53	1	852	0	0			0	0			1				0	
6.6.1	win	2023-06-23	14:02:38	14:10:31	466257	6061fff2c21e787791b1d052	3	1	main_slash	7	advance_on_keypress_SLASH	114	stimuli_distractor_trianglediamonds.svg	stimuli_target_trianglerectangles.svg	25	yes	57	0	323	0	0			0	0			1				0	
6.6.1	win	2023-06-23	14:02:38	14:10:33	468353	6061fff2c21e787791b1d052	3	1	main_slash	7	main_slash	115	stimuli_target_trianglesquares.svg	stimuli_distractor_trianglediamonds.svg	18	yes	53	1	1132	0	0			0	0			1				0	
6.6.1	win	2023-06-23	14:02:38	14:10:33	468353	6061fff2c21e787791b1d052	3	1	main_slash	7	advance_on_keypress_SLASH	116	stimuli_target_trianglesquares.svg	stimuli_distractor_trianglediamonds.svg	18	yes	57	0	267	0	0			0	0			1				0	
6.6.1	win	2023-06-23	14:02:38	14:10:36	470889	6061fff2c21e787791b1d052	3	1	main_slash	7	main_slash	117	stimuli_distractor_diamondtriangles.svg	stimuli_target_squaretriangles.svg	15	yes	53	1	1618	0	0			0	0			1				0	
6.6.1	win	2023-06-23	14:02:38	14:10:36	470889	6061fff2c21e787791b1d052	3	1	main_slash	7	advance_on_keypress_SLASH	118	stimuli_distractor_diamondtriangles.svg	stimuli_target_squaretriangles.svg	15	yes	57	0	239	0	0			0	0			1				0	
6.6.1	win	2023-06-23	14:02:38	14:10:38	472994	6061fff2c21e787791b1d052	3	1	main_slash	7	main_slash	119	stimuli_target_trianglerectangles.svg	stimuli_distractor_diamondtriangles.svg	21	yes	53	1	1221	0	0			0	0			1				0	
6.6.1	win	2023-06-23	14:02:38	14:10:38	472994	6061fff2c21e787791b1d052	3	1	main_slash	7	advance_on_keypress_SLASH	120	stimuli_target_trianglerectangles.svg	stimuli_distractor_diamondtriangles.svg	21	yes	57	0	237	0	0			0	0			1				0	
6.6.1	win	2023-06-23	14:02:38	14:10:40	474802	6061fff2c21e787791b1d052	3	1	main_slash	7	main_slash	121	stimuli_distractor_trianglediamonds.svg	stimuli_target_rectanglediamonds.svg	10	yes	53	1	932	0	0			0	0			1				0	
6.6.1	win	2023-06-23	14:02:38	14:10:40	474802	6061fff2c21e787791b1d052	3	1	main_slash	7	advance_on_keypress_SLASH	122	stimuli_distractor_trianglediamonds.svg	stimuli_target_rectanglediamonds.svg	10	yes	57	0	239	0	0			0	0			1				0	
6.6.1	win	2023-06-23	14:02:38	14:10:42	476769	6061fff2c21e787791b1d052	3	1	main_slash	7	main_slash	123	stimuli_target_diamondsquares.svg	stimuli_distractor_trianglediamonds.svg	20	yes	53	1	1081	0	0			0	0			1				0	
6.6.1	win	2023-06-23	14:02:38	14:10:42	476769	6061fff2c21e787791b1d052	3	1	main_slash	7	advance_on_keypress_SLASH	124	stimuli_target_diamondsquares.svg	stimuli_distractor_trianglediamonds.svg	20	yes	57	0	277	0	0			0	0			1				0	
6.6.1	win	2023-06-23	14:02:38	14:10:44	478807	6061fff2c21e787791b1d052	3	1	main_slash	7	main_slash	125	stimuli_target_squarediamonds.svg	stimuli_distractor_diamondtriangles.svg	8	yes	53	1	1120	0	0			0	0			1				0	
6.6.1	win	2023-06-23	14:02:38	14:10:44	478807	6061fff2c21e787791b1d052	3	1	main_slash	7	advance_on_keypress_SLASH	126	stimuli_target_squarediamonds.svg	stimuli_distractor_diamondtriangles.svg	8	yes	57	0	201	0	0			0	0			1				0	
6.6.1	win	2023-06-23	14:02:38	14:10:47	481653	6061fff2c21e787791b1d052	3	1	main_slash	7	main_slash	127	stimuli_distractor_diamondtriangles.svg	stimuli_target_trianglerectangles.svg	29	yes	0	0	2000	0	0			0	0			1				0	
6.6.1	win	2023-06-23	14:02:38	14:10:47	481653	6061fff2c21e787791b1d052	3	1	main_slash	7	advance_on_keypress_SLASH	128	stimuli_distractor_diamondtriangles.svg	stimuli_target_trianglerectangles.svg	29	yes	57	0	823	0	0			0	0			1				0	
6.6.1	win	2023-06-23	14:02:38	14:10:49	483724	6061fff2c21e787791b1d052	3	1	main_slash	7	main_slash	129	stimuli_target_squaretriangles.svg	stimuli_distractor_diamondtriangles.svg	7	yes	53	1	604	0	0			0	0			1				0	
6.6.1	win	2023-06-23	14:02:38	14:10:49	483724	6061fff2c21e787791b1d052	3	1	main_slash	7	advance_on_keypress_SLASH	130	stimuli_target_squaretriangles.svg	stimuli_distractor_diamondtriangles.svg	7	yes	57	0	383	0	0			0	0			1				0	
6.6.1	win	2023-06-23	14:02:38	14:10:52	486753	6061fff2c21e787791b1d052	3	1	main_slash	7	main_slash	131	stimuli_distractor_diamondtriangles.svg	stimuli_distractor_trianglediamonds.svg	38	no	0	1	2000	0	0			0	0			1				0	
6.6.1	win	2023-06-23	14:02:38	14:10:52	486753	6061fff2c21e787791b1d052	3	1	main_slash	7	advance_on_keypress_SLASH	132	stimuli_distractor_diamondtriangles.svg	stimuli_distractor_trianglediamonds.svg	38	no	57	0	353	0	0			0	0			1				0	
6.6.1	win	2023-06-23	14:02:38	14:10:53	488301	6061fff2c21e787791b1d052	3	1	main_slash	7	main_slash	133	stimuli_target_rectanglediamonds.svg	stimuli_distractor_trianglediamonds.svg	2	yes	53	1	549	0	0			0	0			1				0	
6.6.1	win	2023-06-23	14:02:38	14:10:53	488301	6061fff2c21e787791b1d052	3	1	main_slash	7	advance_on_keypress_SLASH	134	stimuli_target_rectanglediamonds.svg	stimuli_distractor_trianglediamonds.svg	2	yes	57	0	357	0	0			0	0			1				0	
6.6.1	win	2023-06-23	14:02:38	14:10:56	491301	6061fff2c21e787791b1d052	3	1	main_slash	7	main_slash	135	stimuli_distractor_diamondtriangles.svg	stimuli_distractor_trianglediamonds.svg	37	no	0	1	2000	0	0			0	0			1				0	
6.6.1	win	2023-06-23	14:02:38	14:10:56	491301	6061fff2c21e787791b1d052	3	1	main_slash	7	advance_on_keypress_SLASH	136	stimuli_distractor_diamondtriangles.svg	stimuli_distractor_trianglediamonds.svg	37	no	57	0	511	0	0			0	0			1				0	
6.6.1	win	2023-06-23	14:02:38	14:10:58	493179	6061fff2c21e787791b1d052	3	1	main_slash	7	main_slash	137	stimuli_distractor_trianglediamonds.svg	stimuli_target_squarediamonds.svg	12	yes	53	1	728	0	0			0	0			1				0	
6.6.1	win	2023-06-23	14:02:38	14:10:58	493179	6061fff2c21e787791b1d052	3	1	main_slash	7	advance_on_keypress_SLASH	138	stimuli_distractor_trianglediamonds.svg	stimuli_target_squarediamonds.svg	12	yes	57	0	380	0	0			0	0			1				0	
6.6.1	win	2023-06-23	14:02:38	14:11:00	494869	6061fff2c21e787791b1d052	3	1	main_slash	7	main_slash	139	stimuli_target_squarediamonds.svg	stimuli_distractor_trianglediamonds.svg	4	yes	53	1	667	0	0			0	0			1				0	
6.6.1	win	2023-06-23	14:02:38	14:11:00	494869	6061fff2c21e787791b1d052	3	1	main_slash	7	advance_on_keypress_SLASH	140	stimuli_target_squarediamonds.svg	stimuli_distractor_trianglediamonds.svg	4	yes	57	0	298	0	0			0	0			1				0	
6.6.1	win	2023-06-23	14:02:38	14:11:02	497410	6061fff2c21e787791b1d052	3	1	main_slash	7	main_slash	141	stimuli_distractor_diamondtriangles.svg	stimuli_target_trianglesquares.svg	30	yes	53	1	1592	0	0			0	0			1				0	
6.6.1	win	2023-06-23	14:02:38	14:11:02	497410	6061fff2c21e787791b1d052	3	1	main_slash	7	advance_on_keypress_SLASH	142	stimuli_distractor_diamondtriangles.svg	stimuli_target_trianglesquares.svg	30	yes	57	0	276	0	0			0	0			1				0	
6.6.1	win	2023-06-23	14:02:38	14:11:04	499522	6061fff2c21e787791b1d052	3	1	main_slash	7	main_slash	143	stimuli_target_trianglerectangles.svg	stimuli_distractor_trianglediamonds.svg	17	yes	53	1	1205	0	0			0	0			1				0	
6.6.1	win	2023-06-23	14:02:38	14:11:04	499522	6061fff2c21e787791b1d052	3	1	main_slash	7	advance_on_keypress_SLASH	144	stimuli_target_trianglerectangles.svg	stimuli_distractor_trianglediamonds.svg	17	yes	57	0	288	0	0			0	0			1				0	
6.6.1	win	2023-06-23	14:02:38	14:11:07	502170	6061fff2c21e787791b1d052	3	1	main_slash	7	main_slash	145	stimuli_distractor_diamondtriangles.svg	stimuli_target_diamondrectangles.svg	31	yes	53	1	1719	0	0			0	0			1				0	
6.6.1	win	2023-06-23	14:02:38	14:11:07	502170	6061fff2c21e787791b1d052	3	1	main_slash	7	advance_on_keypress_SLASH	146	stimuli_distractor_diamondtriangles.svg	stimuli_target_diamondrectangles.svg	31	yes	57	0	288	0	0			0	0			1				0	
6.6.1	win	2023-06-23	14:02:38	14:11:09	504080	6061fff2c21e787791b1d052	3	1	main_slash	7	main_slash	147	stimuli_target_diamondrectangles.svg	stimuli_distractor_trianglediamonds.svg	19	yes	53	1	981	0	0			0	0			1				0	
6.6.1	win	2023-06-23	14:02:38	14:11:09	504080	6061fff2c21e787791b1d052	3	1	main_slash	7	advance_on_keypress_SLASH	148	stimuli_target_diamondrectangles.svg	stimuli_distractor_trianglediamonds.svg	19	yes	57	0	230	0	0			0	0			1				0	
6.6.1	win	2023-06-23	14:02:38	14:11:12	506966	6061fff2c21e787791b1d052	3	1	main_slash	7	main_slash	149	stimuli_target_rectangletriangles.svg	stimuli_distractor_diamondtriangles.svg	5	yes	0	0	2000	0	0			0	0			1				0	
6.6.1	win	2023-06-23	14:02:38	14:11:12	506966	6061fff2c21e787791b1d052	3	1	main_slash	7	advance_on_keypress_SLASH	150	stimuli_target_rectangletriangles.svg	stimuli_distractor_diamondtriangles.svg	5	yes	57	0	570	0	0			0	0			1				0	
6.6.1	win	2023-06-23	14:02:38	14:11:14	508794	6061fff2c21e787791b1d052	3	1	main_slash	7	main_slash	151	stimuli_distractor_diamondtriangles.svg	stimuli_target_rectanglediamonds.svg	14	yes	53	1	612	0	0			0	0			1				0	
6.6.1	win	2023-06-23	14:02:38	14:11:14	508794	6061fff2c21e787791b1d052	3	1	main_slash	7	advance_on_keypress_SLASH	152	stimuli_distractor_diamondtriangles.svg	stimuli_target_rectanglediamonds.svg	14	yes	57	0	265	0	0			0	0			1				0	
6.6.1	win	2023-06-23	14:02:38	14:11:17	511700	6061fff2c21e787791b1d052	3	1	main_slash	7	main_slash	153	stimuli_distractor_trianglediamonds.svg	stimuli_target_diamondrectangles.svg	27	yes	0	0	2000	0	0			0	0			1				0	
6.6.1	win	2023-06-23	14:02:38	14:11:17	511700	6061fff2c21e787791b1d052	3	1	main_slash	7	advance_on_keypress_SLASH	154	stimuli_distractor_trianglediamonds.svg	stimuli_target_diamondrectangles.svg	27	yes	57	0	716	0	0			0	0			1				0	
6.6.1	win	2023-06-23	14:02:38	14:11:19	513815	6061fff2c21e787791b1d052	3	1	main_slash	7	main_slash	155	stimuli_distractor_trianglediamonds.svg	stimuli_target_trianglesquares.svg	26	yes	53	1	750	0	0			0	0			1				0	
6.6.1	win	2023-06-23	14:02:38	14:11:19	513815	6061fff2c21e787791b1d052	3	1	main_slash	7	advance_on_keypress_SLASH	156	stimuli_distractor_trianglediamonds.svg	stimuli_target_trianglesquares.svg	26	yes	57	0	432	0	0			0	0			1				0	
6.6.1	win	2023-06-23	14:02:38	14:11:20	515480	6061fff2c21e787791b1d052	3	1	main_slash	7	main_slash	157	stimuli_distractor_diamondtriangles.svg	stimuli_target_squarediamonds.svg	16	yes	53	1	582	0	0			0	0			1				0	
6.6.1	win	2023-06-23	14:02:38	14:11:20	515480	6061fff2c21e787791b1d052	3	1	main_slash	7	advance_on_keypress_SLASH	158	stimuli_distractor_diamondtriangles.svg	stimuli_target_squarediamonds.svg	16	yes	57	0	295	0	0			0	0			1				0	
6.6.1	win	2023-06-23	14:02:38	14:11:22	517130	6061fff2c21e787791b1d052	3	1	main_slash	7	main_slash	159	stimuli_target_rectanglediamonds.svg	stimuli_distractor_diamondtriangles.svg	6	yes	53	1	715	0	0			0	0			1				0	
6.6.1	win	2023-06-23	14:02:38	14:11:22	517130	6061fff2c21e787791b1d052	3	1	main_slash	7	advance_on_keypress_SLASH	160	stimuli_target_rectanglediamonds.svg	stimuli_distractor_diamondtriangles.svg	6	yes	57	0	418	0	0			0	0			1				0	
6.6.1	win	2023-06-23	14:02:38	14:11:58	553363	6061fff2c21e787791b1d052	3	1	practice_z	9	practice_z	1	stimuli_target_diamondsquares.svg	stimuli_distractor_diamondtriangles.svg	3	yes	44	1	1335	0	0			0	0			1				0	
6.6.1	win	2023-06-23	14:02:38	14:11:58	553363	6061fff2c21e787791b1d052	3	1	practice_z	9	advance_on_keypress_ZEE	2	stimuli_target_diamondsquares.svg	stimuli_distractor_diamondtriangles.svg	3	yes	57	0	730	0	0			0	0			1				0	
6.6.1	win	2023-06-23	14:02:38	14:12:02	556774	6061fff2c21e787791b1d052	3	1	practice_z	9	practice_z	3	stimuli_distractor_trianglediamonds.svg	stimuli_distractor_diamondtriangles.svg	16	no	44	0	1031	0	0			0	0			1				0	
6.6.1	win	2023-06-23	14:02:38	14:12:02	556774	6061fff2c21e787791b1d052	3	1	practice_z	9	advance_on_keypress_ZEE	4	stimuli_distractor_trianglediamonds.svg	stimuli_distractor_diamondtriangles.svg	16	no	57	0	1682	0	0			0	0			1				0	
6.6.1	win	2023-06-23	14:02:38	14:12:06	560766	6061fff2c21e787791b1d052	3	1	practice_z	9	practice_z	5	stimuli_distractor_trianglediamonds.svg	stimuli_target_rectanglediamonds.svg	10	yes	44	1	656	0	0			0	0			1				0	
6.6.1	win	2023-06-23	14:02:38	14:12:06	560766	6061fff2c21e787791b1d052	3	1	practice_z	9	advance_on_keypress_ZEE	6	stimuli_distractor_trianglediamonds.svg	stimuli_target_rectanglediamonds.svg	10	yes	57	0	721	0	0			0	0			1				0	
6.6.1	win	2023-06-23	14:02:38	14:12:09	563739	6061fff2c21e787791b1d052	3	1	practice_z	9	practice_z	7	stimuli_distractor_diamondtriangles.svg	stimuli_target_rectangletriangles.svg	7	yes	44	1	611	0	0			0	0			1				0	
6.6.1	win	2023-06-23	14:02:38	14:12:09	563739	6061fff2c21e787791b1d052	3	1	practice_z	9	advance_on_keypress_ZEE	8	stimuli_distractor_diamondtriangles.svg	stimuli_target_rectangletriangles.svg	7	yes	57	0	294	0	0			0	0			1				0	
6.6.1	win	2023-06-23	14:02:38	14:12:13	567693	6061fff2c21e787791b1d052	3	1	practice_z	9	practice_z	9	stimuli_distractor_diamondtriangles.svg	stimuli_distractor_diamondtriangles.svg	13	no	0	1	2000	0	0			0	0			1				0	
6.6.1	win	2023-06-23	14:02:38	14:12:13	567693	6061fff2c21e787791b1d052	3	1	practice_z	9	advance_on_keypress_ZEE	10	stimuli_distractor_diamondtriangles.svg	stimuli_distractor_diamondtriangles.svg	13	no	57	0	469	0	0			0	0			1				0	
6.6.1	win	2023-06-23	14:02:38	14:12:17	571809	6061fff2c21e787791b1d052	3	1	practice_z	9	practice_z	11	stimuli_distractor_trianglediamonds.svg	stimuli_distractor_trianglediamonds.svg	15	no	0	1	2000	0	0			0	0			1				0	
6.6.1	win	2023-06-23	14:02:38	14:12:17	571809	6061fff2c21e787791b1d052	3	1	practice_z	9	advance_on_keypress_ZEE	12	stimuli_distractor_trianglediamonds.svg	stimuli_distractor_trianglediamonds.svg	15	no	57	0	507	0	0			0	0			1				0	
6.6.1	win	2023-06-23	14:02:38	14:12:20	575035	6061fff2c21e787791b1d052	3	1	practice_z	9	practice_z	13	stimuli_distractor_diamondtriangles.svg	stimuli_target_diamondrectangles.svg	8	yes	44	1	1077	0	0			0	0			1				0	
6.6.1	win	2023-06-23	14:02:38	14:12:20	575035	6061fff2c21e787791b1d052	3	1	practice_z	9	advance_on_keypress_ZEE	14	stimuli_distractor_diamondtriangles.svg	stimuli_target_diamondrectangles.svg	8	yes	57	0	461	0	0			0	0			1				0	
6.6.1	win	2023-06-23	14:02:38	14:12:23	578094	6061fff2c21e787791b1d052	3	1	practice_z	9	practice_z	15	stimuli_target_squarediamonds.svg	stimuli_distractor_diamondtriangles.svg	2	yes	44	1	953	0	0			0	0			1				0	
6.6.1	win	2023-06-23	14:02:38	14:12:23	578094	6061fff2c21e787791b1d052	3	1	practice_z	9	advance_on_keypress_ZEE	16	stimuli_target_squarediamonds.svg	stimuli_distractor_diamondtriangles.svg	2	yes	57	0	461	0	0			0	0			1				0	
6.6.1	win	2023-06-23	14:02:38	14:12:26	580923	6061fff2c21e787791b1d052	3	1	practice_z	9	practice_z	17	stimuli_distractor_trianglediamonds.svg	stimuli_target_squarediamonds.svg	11	yes	44	1	731	0	0			0	0			1				0	
6.6.1	win	2023-06-23	14:02:38	14:12:26	580923	6061fff2c21e787791b1d052	3	1	practice_z	9	advance_on_keypress_ZEE	18	stimuli_distractor_trianglediamonds.svg	stimuli_target_squarediamonds.svg	11	yes	57	0	681	0	0			0	0			1				0	
6.6.1	win	2023-06-23	14:02:38	14:12:29	583793	6061fff2c21e787791b1d052	3	1	practice_z	9	practice_z	19	stimuli_target_rectanglediamonds.svg	stimuli_distractor_trianglediamonds.svg	4	yes	44	1	535	0	0			0	0			1				0	
6.6.1	win	2023-06-23	14:02:38	14:12:29	583793	6061fff2c21e787791b1d052	3	1	practice_z	9	advance_on_keypress_ZEE	20	stimuli_target_rectanglediamonds.svg	stimuli_distractor_trianglediamonds.svg	4	yes	57	0	375	0	0			0	0			1				0	
6.6.1	win	2023-06-23	14:02:38	14:12:31	586247	6061fff2c21e787791b1d052	3	1	practice_z	9	practice_z	21	stimuli_target_rectanglediamonds.svg	stimuli_distractor_diamondtriangles.svg	1	yes	44	1	440	0	0			0	0			1				0	
6.6.1	win	2023-06-23	14:02:38	14:12:31	586247	6061fff2c21e787791b1d052	3	1	practice_z	9	advance_on_keypress_ZEE	22	stimuli_target_rectanglediamonds.svg	stimuli_distractor_diamondtriangles.svg	1	yes	57	0	477	0	0			0	0			1				0	
6.6.1	win	2023-06-23	14:02:38	14:12:34	589495	6061fff2c21e787791b1d052	3	1	practice_z	9	practice_z	23	stimuli_distractor_trianglediamonds.svg	stimuli_target_diamondrectangles.svg	12	yes	44	1	1138	0	0			0	0			1				0	
6.6.1	win	2023-06-23	14:02:38	14:12:34	589495	6061fff2c21e787791b1d052	3	1	practice_z	9	advance_on_keypress_ZEE	24	stimuli_distractor_trianglediamonds.svg	stimuli_target_diamondrectangles.svg	12	yes	57	0	383	0	0			0	0			1				0	
6.6.1	win	2023-06-23	14:02:38	14:12:37	592478	6061fff2c21e787791b1d052	3	1	practice_z	9	practice_z	25	stimuli_target_squarediamonds.svg	stimuli_distractor_trianglediamonds.svg	5	yes	44	1	955	0	0			0	0			1				0	
6.6.1	win	2023-06-23	14:02:38	14:12:37	592478	6061fff2c21e787791b1d052	3	1	practice_z	9	advance_on_keypress_ZEE	26	stimuli_target_squarediamonds.svg	stimuli_distractor_trianglediamonds.svg	5	yes	57	0	339	0	0			0	0			1				0	
6.6.1	win	2023-06-23	14:02:38	14:12:41	596456	6061fff2c21e787791b1d052	3	1	practice_z	9	practice_z	27	stimuli_distractor_diamondtriangles.svg	stimuli_distractor_trianglediamonds.svg	14	no	0	1	2000	0	0			0	0			1				0	
6.6.1	win	2023-06-23	14:02:38	14:12:41	596456	6061fff2c21e787791b1d052	3	1	practice_z	9	advance_on_keypress_ZEE	28	stimuli_distractor_diamondtriangles.svg	stimuli_distractor_trianglediamonds.svg	14	no	57	0	415	0	0			0	0			1				0	
6.6.1	win	2023-06-23	14:02:38	14:12:44	599446	6061fff2c21e787791b1d052	3	1	practice_z	9	practice_z	29	stimuli_distractor_diamondtriangles.svg	stimuli_target_trianglerectangles.svg	9	yes	44	1	924	0	0			0	0			1				0	
6.6.1	win	2023-06-23	14:02:38	14:12:44	599446	6061fff2c21e787791b1d052	3	1	practice_z	9	advance_on_keypress_ZEE	30	stimuli_distractor_diamondtriangles.svg	stimuli_target_trianglerectangles.svg	9	yes	57	0	485	0	0			0	0			1				0	
6.6.1	win	2023-06-23	14:02:38	14:12:47	602225	6061fff2c21e787791b1d052	3	1	practice_z	9	practice_z	31	stimuli_target_diamondsquares.svg	stimuli_distractor_trianglediamonds.svg	6	yes	44	1	654	0	0			0	0			1				0	
6.6.1	win	2023-06-23	14:02:38	14:12:47	602225	6061fff2c21e787791b1d052	3	1	practice_z	9	advance_on_keypress_ZEE	32	stimuli_target_diamondsquares.svg	stimuli_distractor_trianglediamonds.svg	6	yes	57	0	423	0	0			0	0			1				0	
6.6.1	win	2023-06-23	14:02:38	14:12:54	608686	6061fff2c21e787791b1d052	3	1	main_z	11	main_z	1	stimuli_target_diamondrectangles.svg	stimuli_distractor_diamondtriangles.svg	23	yes	0	0	2000	0	0			0	0			1				0	
6.6.1	win	2023-06-23	14:02:38	14:12:54	608686	6061fff2c21e787791b1d052	3	1	main_z	11	advance_on_keypress_ZEE	2	stimuli_target_diamondrectangles.svg	stimuli_distractor_diamondtriangles.svg	23	yes	57	0	965	0	0			0	0			1				0	
6.6.1	win	2023-06-23	14:02:38	14:12:56	610858	6061fff2c21e787791b1d052	3	1	main_z	11	main_z	3	stimuli_distractor_trianglediamonds.svg	stimuli_target_trianglesquares.svg	26	yes	44	1	555	0	0			0	0			1				0	
6.6.1	win	2023-06-23	14:02:38	14:12:56	610858	6061fff2c21e787791b1d052	3	1	main_z	11	advance_on_keypress_ZEE	4	stimuli_distractor_trianglediamonds.svg	stimuli_target_trianglesquares.svg	26	yes	57	0	732	0	0			0	0			1				0	
6.6.1	win	2023-06-23	14:02:38	14:12:58	612783	6061fff2c21e787791b1d052	3	1	main_z	11	main_z	5	stimuli_target_rectanglediamonds.svg	stimuli_distractor_diamondtriangles.svg	6	yes	44	1	550	0	0			0	0			1				0	
6.6.1	win	2023-06-23	14:02:38	14:12:58	612783	6061fff2c21e787791b1d052	3	1	main_z	11	advance_on_keypress_ZEE	6	stimuli_target_rectanglediamonds.svg	stimuli_distractor_diamondtriangles.svg	6	yes	57	0	402	0	0			0	0			1				0	
6.6.1	win	2023-06-23	14:02:38	14:12:59	614518	6061fff2c21e787791b1d052	3	1	main_z	11	main_z	7	stimuli_target_diamondrectangles.svg	stimuli_distractor_trianglediamonds.svg	19	yes	44	1	684	0	0			0	0			1				0	
6.6.1	win	2023-06-23	14:02:38	14:12:59	614518	6061fff2c21e787791b1d052	3	1	main_z	11	advance_on_keypress_ZEE	8	stimuli_target_diamondrectangles.svg	stimuli_distractor_trianglediamonds.svg	19	yes	57	0	308	0	0			0	0			1				0	
6.6.1	win	2023-06-23	14:02:38	14:13:01	615997	6061fff2c21e787791b1d052	3	1	main_z	11	main_z	9	stimuli_target_diamondsquares.svg	stimuli_distractor_trianglediamonds.svg	20	yes	44	1	530	0	0			0	0			1				0	
6.6.1	win	2023-06-23	14:02:38	14:13:01	615997	6061fff2c21e787791b1d052	3	1	main_z	11	advance_on_keypress_ZEE	10	stimuli_target_diamondsquares.svg	stimuli_distractor_trianglediamonds.svg	20	yes	57	0	274	0	0			0	0			1				0	
6.6.1	win	2023-06-23	14:02:38	14:13:02	617460	6061fff2c21e787791b1d052	3	1	main_z	11	main_z	11	stimuli_target_rectangletriangles.svg	stimuli_distractor_diamondtriangles.svg	5	yes	44	1	544	0	0			0	0			1				0	
6.6.1	win	2023-06-23	14:02:38	14:13:02	617460	6061fff2c21e787791b1d052	3	1	main_z	11	advance_on_keypress_ZEE	12	stimuli_target_rectangletriangles.svg	stimuli_distractor_diamondtriangles.svg	5	yes	57	0	208	0	0			0	0			1				0	
6.6.1	win	2023-06-23	14:02:38	14:13:04	619349	6061fff2c21e787791b1d052	3	1	main_z	11	main_z	13	stimuli_distractor_diamondtriangles.svg	stimuli_target_trianglesquares.svg	30	yes	44	1	1049	0	0			0	0			1				0	
6.6.1	win	2023-06-23	14:02:38	14:13:04	619349	6061fff2c21e787791b1d052	3	1	main_z	11	advance_on_keypress_ZEE	14	stimuli_distractor_diamondtriangles.svg	stimuli_target_trianglesquares.svg	30	yes	57	0	257	0	0			0	0			1				0	
6.6.1	win	2023-06-23	14:02:38	14:13:06	620944	6061fff2c21e787791b1d052	3	1	main_z	11	main_z	15	stimuli_distractor_trianglediamonds.svg	stimuli_target_diamondsquares.svg	28	yes	44	1	693	0	0			0	0			1				0	
6.6.1	win	2023-06-23	14:02:38	14:13:06	620944	6061fff2c21e787791b1d052	3	1	main_z	11	advance_on_keypress_ZEE	16	stimuli_distractor_trianglediamonds.svg	stimuli_target_diamondsquares.svg	28	yes	57	0	118	0	0			0	0			1				0	
6.6.1	win	2023-06-23	14:02:38	14:13:08	622680	6061fff2c21e787791b1d052	3	1	main_z	11	main_z	17	stimuli_target_squarediamonds.svg	stimuli_distractor_trianglediamonds.svg	4	yes	44	1	981	0	0			0	0			1				0	
6.6.1	win	2023-06-23	14:02:38	14:13:08	622680	6061fff2c21e787791b1d052	3	1	main_z	11	advance_on_keypress_ZEE	18	stimuli_target_squarediamonds.svg	stimuli_distractor_trianglediamonds.svg	4	yes	57	0	236	0	0			0	0			1				0	
6.6.1	win	2023-06-23	14:02:38	14:13:09	624453	6061fff2c21e787791b1d052	3	1	main_z	11	main_z	19	stimuli_distractor_diamondtriangles.svg	stimuli_target_diamondsquares.svg	32	yes	44	1	888	0	0			0	0			1				0	
6.6.1	win	2023-06-23	14:02:38	14:13:09	624453	6061fff2c21e787791b1d052	3	1	main_z	11	advance_on_keypress_ZEE	20	stimuli_distractor_diamondtriangles.svg	stimuli_target_diamondsquares.svg	32	yes	57	0	192	0	0			0	0			1				0	
6.6.1	win	2023-06-23	14:02:38	14:13:12	626770	6061fff2c21e787791b1d052	3	1	main_z	11	main_z	21	stimuli_distractor_diamondtriangles.svg	stimuli_target_squaretriangles.svg	15	yes	44	1	1487	0	0			0	0			1				0	
6.6.1	win	2023-06-23	14:02:38	14:13:12	626770	6061fff2c21e787791b1d052	3	1	main_z	11	advance_on_keypress_ZEE	22	stimuli_distractor_diamondtriangles.svg	stimuli_target_squaretriangles.svg	15	yes	57	0	247	0	0			0	0			1				0	
6.6.1	win	2023-06-23	14:02:38	14:13:14	628928	6061fff2c21e787791b1d052	3	1	main_z	11	main_z	23	stimuli_distractor_trianglediamonds.svg	stimuli_target_trianglerectangles.svg	25	yes	44	1	1262	0	0			0	0			1				0	
6.6.1	win	2023-06-23	14:02:38	14:13:14	628928	6061fff2c21e787791b1d052	3	1	main_z	11	advance_on_keypress_ZEE	24	stimuli_distractor_trianglediamonds.svg	stimuli_target_trianglerectangles.svg	25	yes	57	0	1039	0	0			0	0			1				0	
6.6.1	win	2023-06-23	14:02:38	14:13:16	631409	6061fff2c21e787791b1d052	3	1	main_z	11	main_z	25	stimuli_target_trianglerectangles.svg	stimuli_distractor_trianglediamonds.svg	17	yes	44	1	794	0	0			0	0			1				0	
6.6.1	win	2023-06-23	14:02:38	14:13:16	631409	6061fff2c21e787791b1d052	3	1	main_z	11	advance_on_keypress_ZEE	26	stimuli_target_trianglerectangles.svg	stimuli_distractor_trianglediamonds.svg	17	yes	57	0	301	0	0			0	0			1				0	
6.6.1	win	2023-06-23	14:02:38	14:13:18	633528	6061fff2c21e787791b1d052	3	1	main_z	11	main_z	27	stimuli_target_squaretriangles.svg	stimuli_distractor_diamondtriangles.svg	7	yes	44	1	1180	0	0			0	0			1				0	
6.6.1	win	2023-06-23	14:02:38	14:13:18	633528	6061fff2c21e787791b1d052	3	1	main_z	11	advance_on_keypress_ZEE	28	stimuli_target_squaretriangles.svg	stimuli_distractor_diamondtriangles.svg	7	yes	57	0	247	0	0			0	0			1				0	
6.6.1	win	2023-06-23	14:02:38	14:13:21	636431	6061fff2c21e787791b1d052	3	1	main_z	11	main_z	29	stimuli_target_trianglerectangles.svg	stimuli_distractor_diamondtriangles.svg	21	yes	0	0	2000	0	0			0	0			1				0	
6.6.1	win	2023-06-23	14:02:38	14:13:21	636431	6061fff2c21e787791b1d052	3	1	main_z	11	advance_on_keypress_ZEE	30	stimuli_target_trianglerectangles.svg	stimuli_distractor_diamondtriangles.svg	21	yes	57	0	758	0	0			0	0			1				0	
6.6.1	win	2023-06-23	14:02:38	14:13:25	639831	6061fff2c21e787791b1d052	3	1	main_z	11	main_z	31	stimuli_distractor_trianglediamonds.svg	stimuli_distractor_diamondtriangles.svg	36	no	0	1	2000	0	0			0	0			1				0	
6.6.1	win	2023-06-23	14:02:38	14:13:25	639831	6061fff2c21e787791b1d052	3	1	main_z	11	advance_on_keypress_ZEE	32	stimuli_distractor_trianglediamonds.svg	stimuli_distractor_diamondtriangles.svg	36	no	57	0	391	0	0			0	0			1				0	
6.6.1	win	2023-06-23	14:02:38	14:13:26	641389	6061fff2c21e787791b1d052	3	1	main_z	11	main_z	33	stimuli_target_squarediamonds.svg	stimuli_distractor_diamondtriangles.svg	8	yes	44	1	525	0	0			0	0			1				0	
6.6.1	win	2023-06-23	14:02:38	14:13:26	641389	6061fff2c21e787791b1d052	3	1	main_z	11	advance_on_keypress_ZEE	34	stimuli_target_squarediamonds.svg	stimuli_distractor_diamondtriangles.svg	8	yes	57	0	550	0	0			0	0			1				0	
6.6.1	win	2023-06-23	14:02:38	14:13:30	644580	6061fff2c21e787791b1d052	3	1	main_z	11	main_z	35	stimuli_distractor_trianglediamonds.svg	stimuli_distractor_trianglediamonds.svg	34	no	0	1	2000	0	0			0	0			1				0	
6.6.1	win	2023-06-23	14:02:38	14:13:30	644580	6061fff2c21e787791b1d052	3	1	main_z	11	advance_on_keypress_ZEE	36	stimuli_distractor_trianglediamonds.svg	stimuli_distractor_trianglediamonds.svg	34	no	57	0	613	0	0			0	0			1				0	
6.6.1	win	2023-06-23	14:02:38	14:13:31	646330	6061fff2c21e787791b1d052	3	1	main_z	11	main_z	37	stimuli_distractor_trianglediamonds.svg	stimuli_target_rectangletriangles.svg	9	yes	44	1	484	0	0			0	0			1				0	
6.6.1	win	2023-06-23	14:02:38	14:13:31	646330	6061fff2c21e787791b1d052	3	1	main_z	11	advance_on_keypress_ZEE	38	stimuli_distractor_trianglediamonds.svg	stimuli_target_rectangletriangles.svg	9	yes	57	0	298	0	0			0	0			1				0	
6.6.1	win	2023-06-23	14:02:38	14:13:33	647759	6061fff2c21e787791b1d052	3	1	main_z	11	main_z	39	stimuli_distractor_trianglediamonds.svg	stimuli_target_squarediamonds.svg	12	yes	44	1	480	0	0			0	0			1				0	
6.6.1	win	2023-06-23	14:02:38	14:13:33	647759	6061fff2c21e787791b1d052	3	1	main_z	11	advance_on_keypress_ZEE	40	stimuli_distractor_trianglediamonds.svg	stimuli_target_squarediamonds.svg	12	yes	57	0	230	0	0			0	0			1				0	
6.6.1	win	2023-06-23	14:02:38	14:13:34	649278	6061fff2c21e787791b1d052	3	1	main_z	11	main_z	41	stimuli_target_rectanglediamonds.svg	stimuli_distractor_trianglediamonds.svg	2	yes	44	1	633	0	0			0	0			1				0	
6.6.1	win	2023-06-23	14:02:38	14:13:34	649278	6061fff2c21e787791b1d052	3	1	main_z	11	advance_on_keypress_ZEE	42	stimuli_target_rectanglediamonds.svg	stimuli_distractor_trianglediamonds.svg	2	yes	57	0	203	0	0			0	0			1				0	
6.6.1	win	2023-06-23	14:02:38	14:13:36	650677	6061fff2c21e787791b1d052	3	1	main_z	11	main_z	43	stimuli_target_squaretriangles.svg	stimuli_distractor_trianglediamonds.svg	3	yes	44	1	549	0	0			0	0			1				0	
6.6.1	win	2023-06-23	14:02:38	14:13:36	650677	6061fff2c21e787791b1d052	3	1	main_z	11	advance_on_keypress_ZEE	44	stimuli_target_squaretriangles.svg	stimuli_distractor_trianglediamonds.svg	3	yes	57	0	147	0	0			0	0			1				0	
6.6.1	win	2023-06-23	14:02:38	14:13:38	653479	6061fff2c21e787791b1d052	3	1	main_z	11	main_z	45	stimuli_distractor_diamondtriangles.svg	stimuli_distractor_trianglediamonds.svg	37	no	0	1	2000	0	0			0	0			1				0	
6.6.1	win	2023-06-23	14:02:38	14:13:38	653479	6061fff2c21e787791b1d052	3	1	main_z	11	advance_on_keypress_ZEE	46	stimuli_distractor_diamondtriangles.svg	stimuli_distractor_trianglediamonds.svg	37	no	57	0	436	0	0			0	0			1				0	
6.6.1	win	2023-06-23	14:02:38	14:13:40	655455	6061fff2c21e787791b1d052	3	1	main_z	11	main_z	47	stimuli_target_trianglesquares.svg	stimuli_distractor_trianglediamonds.svg	18	yes	44	1	893	0	0			0	0			1				0	
6.6.1	win	2023-06-23	14:02:38	14:13:40	655455	6061fff2c21e787791b1d052	3	1	main_z	11	advance_on_keypress_ZEE	48	stimuli_target_trianglesquares.svg	stimuli_distractor_trianglediamonds.svg	18	yes	57	0	338	0	0			0	0			1				0	
6.6.1	win	2023-06-23	14:02:38	14:13:42	657009	6061fff2c21e787791b1d052	3	1	main_z	11	main_z	49	stimuli_target_diamondsquares.svg	stimuli_distractor_diamondtriangles.svg	24	yes	44	1	581	0	0			0	0			1				0	
6.6.1	win	2023-06-23	14:02:38	14:13:42	657009	6061fff2c21e787791b1d052	3	1	main_z	11	advance_on_keypress_ZEE	50	stimuli_target_diamondsquares.svg	stimuli_distractor_diamondtriangles.svg	24	yes	57	0	175	0	0			0	0			1				0	
6.6.1	win	2023-06-23	14:02:38	14:13:44	658539	6061fff2c21e787791b1d052	3	1	main_z	11	main_z	51	stimuli_distractor_diamondtriangles.svg	stimuli_target_rectanglediamonds.svg	14	yes	44	1	711	0	0			0	0			1				0	
6.6.1	win	2023-06-23	14:02:38	14:13:44	658539	6061fff2c21e787791b1d052	3	1	main_z	11	advance_on_keypress_ZEE	52	stimuli_distractor_diamondtriangles.svg	stimuli_target_rectanglediamonds.svg	14	yes	57	0	199	0	0			0	0			1				0	
6.6.1	win	2023-06-23	14:02:38	14:13:45	659983	6061fff2c21e787791b1d052	3	1	main_z	11	main_z	53	stimuli_distractor_diamondtriangles.svg	stimuli_target_rectangletriangles.svg	13	yes	44	1	606	0	0			0	0			1				0	
6.6.1	win	2023-06-23	14:02:38	14:13:45	659983	6061fff2c21e787791b1d052	3	1	main_z	11	advance_on_keypress_ZEE	54	stimuli_distractor_diamondtriangles.svg	stimuli_target_rectangletriangles.svg	13	yes	57	0	178	0	0			0	0			1				0	
6.6.1	win	2023-06-23	14:02:38	14:13:48	662795	6061fff2c21e787791b1d052	3	1	main_z	11	main_z	55	stimuli_distractor_diamondtriangles.svg	stimuli_distractor_trianglediamonds.svg	38	no	0	1	2000	0	0			0	0			1				0	
6.6.1	win	2023-06-23	14:02:38	14:13:48	662795	6061fff2c21e787791b1d052	3	1	main_z	11	advance_on_keypress_ZEE	56	stimuli_distractor_diamondtriangles.svg	stimuli_distractor_trianglediamonds.svg	38	no	57	0	638	0	0			0	0			1				0	
6.6.1	win	2023-06-23	14:02:38	14:13:51	666078	6061fff2c21e787791b1d052	3	1	main_z	11	main_z	57	stimuli_distractor_trianglediamonds.svg	stimuli_distractor_diamondtriangles.svg	35	no	0	1	2000	0	0			0	0			1				0	
6.6.1	win	2023-06-23	14:02:38	14:13:51	666078	6061fff2c21e787791b1d052	3	1	main_z	11	advance_on_keypress_ZEE	58	stimuli_distractor_trianglediamonds.svg	stimuli_distractor_diamondtriangles.svg	35	no	57	0	430	0	0			0	0			1				0	
6.6.1	win	2023-06-23	14:02:38	14:13:54	669160	6061fff2c21e787791b1d052	3	1	main_z	11	main_z	59	stimuli_distractor_diamondtriangles.svg	stimuli_distractor_diamondtriangles.svg	40	no	0	1	2000	0	0			0	0			1				0	
6.6.1	win	2023-06-23	14:02:38	14:13:54	669160	6061fff2c21e787791b1d052	3	1	main_z	11	advance_on_keypress_ZEE	60	stimuli_distractor_diamondtriangles.svg	stimuli_distractor_diamondtriangles.svg	40	no	57	0	296	0	0			0	0			1				0	
6.6.1	win	2023-06-23	14:02:38	14:13:56	670748	6061fff2c21e787791b1d052	3	1	main_z	11	main_z	61	stimuli_target_trianglesquares.svg	stimuli_distractor_diamondtriangles.svg	22	yes	44	1	639	0	0			0	0			1				0	
6.6.1	win	2023-06-23	14:02:38	14:13:56	670748	6061fff2c21e787791b1d052	3	1	main_z	11	advance_on_keypress_ZEE	62	stimuli_target_trianglesquares.svg	stimuli_distractor_diamondtriangles.svg	22	yes	57	0	297	0	0			0	0			1				0	
6.6.1	win	2023-06-23	14:02:38	14:13:59	673693	6061fff2c21e787791b1d052	3	1	main_z	11	main_z	63	stimuli_distractor_diamondtriangles.svg	stimuli_distractor_diamondtriangles.svg	39	no	0	1	2000	0	0			0	0			1				0	
6.6.1	win	2023-06-23	14:02:38	14:13:59	673693	6061fff2c21e787791b1d052	3	1	main_z	11	advance_on_keypress_ZEE	64	stimuli_distractor_diamondtriangles.svg	stimuli_distractor_diamondtriangles.svg	39	no	57	0	302	0	0			0	0			1				0	
6.6.1	win	2023-06-23	14:02:38	14:14:00	675316	6061fff2c21e787791b1d052	3	1	main_z	11	main_z	65	stimuli_distractor_trianglediamonds.svg	stimuli_target_squaretriangles.svg	11	yes	44	1	673	0	0			0	0			1				0	
6.6.1	win	2023-06-23	14:02:38	14:14:00	675316	6061fff2c21e787791b1d052	3	1	main_z	11	advance_on_keypress_ZEE	66	stimuli_distractor_trianglediamonds.svg	stimuli_target_squaretriangles.svg	11	yes	57	0	279	0	0			0	0			1				0	
6.6.1	win	2023-06-23	14:02:38	14:14:03	677839	6061fff2c21e787791b1d052	3	1	main_z	11	main_z	67	stimuli_distractor_trianglediamonds.svg	stimuli_target_diamondrectangles.svg	27	yes	44	1	1614	0	0			0	0			1				0	
6.6.1	win	2023-06-23	14:02:38	14:14:03	677839	6061fff2c21e787791b1d052	3	1	main_z	11	advance_on_keypress_ZEE	68	stimuli_distractor_trianglediamonds.svg	stimuli_target_diamondrectangles.svg	27	yes	57	0	242	0	0			0	0			1				0	
6.6.1	win	2023-06-23	14:02:38	14:14:05	679648	6061fff2c21e787791b1d052	3	1	main_z	11	main_z	69	stimuli_distractor_diamondtriangles.svg	stimuli_target_diamondrectangles.svg	31	yes	44	1	923	0	0			0	0			1				0	
6.6.1	win	2023-06-23	14:02:38	14:14:05	679648	6061fff2c21e787791b1d052	3	1	main_z	11	advance_on_keypress_ZEE	70	stimuli_distractor_diamondtriangles.svg	stimuli_target_diamondrectangles.svg	31	yes	57	0	129	0	0			0	0			1				0	
6.6.1	win	2023-06-23	14:02:38	14:14:07	682425	6061fff2c21e787791b1d052	3	1	main_z	11	main_z	71	stimuli_distractor_trianglediamonds.svg	stimuli_distractor_trianglediamonds.svg	33	no	0	1	2000	0	0			0	0			1				0	
6.6.1	win	2023-06-23	14:02:38	14:14:07	682425	6061fff2c21e787791b1d052	3	1	main_z	11	advance_on_keypress_ZEE	72	stimuli_distractor_trianglediamonds.svg	stimuli_distractor_trianglediamonds.svg	33	no	57	0	1550	0	0			0	0			1				0	
6.6.1	win	2023-06-23	14:02:38	14:14:10	685103	6061fff2c21e787791b1d052	3	1	main_z	11	main_z	73	stimuli_distractor_diamondtriangles.svg	stimuli_target_squarediamonds.svg	16	yes	44	1	478	0	0			0	0			1				0	
6.6.1	win	2023-06-23	14:02:38	14:14:10	685103	6061fff2c21e787791b1d052	3	1	main_z	11	advance_on_keypress_ZEE	74	stimuli_distractor_diamondtriangles.svg	stimuli_target_squarediamonds.svg	16	yes	57	0	173	0	0			0	0			1				0	
6.6.1	win	2023-06-23	14:02:38	14:14:11	686393	6061fff2c21e787791b1d052	3	1	main_z	11	main_z	75	stimuli_distractor_trianglediamonds.svg	stimuli_target_rectanglediamonds.svg	10	yes	44	1	469	0	0			0	0			1				0	
6.6.1	win	2023-06-23	14:02:38	14:14:11	686393	6061fff2c21e787791b1d052	3	1	main_z	11	advance_on_keypress_ZEE	76	stimuli_distractor_trianglediamonds.svg	stimuli_target_rectanglediamonds.svg	10	yes	57	0	115	0	0			0	0			1				0	
6.6.1	win	2023-06-23	14:02:38	14:14:13	687623	6061fff2c21e787791b1d052	3	1	main_z	11	main_z	77	stimuli_target_rectangletriangles.svg	stimuli_distractor_trianglediamonds.svg	1	yes	44	1	466	0	0			0	0			1				0	
6.6.1	win	2023-06-23	14:02:38	14:14:13	687623	6061fff2c21e787791b1d052	3	1	main_z	11	advance_on_keypress_ZEE	78	stimuli_target_rectangletriangles.svg	stimuli_distractor_trianglediamonds.svg	1	yes	57	0	87	0	0			0	0			1				0	
6.6.1	win	2023-06-23	14:02:38	14:14:15	689789	6061fff2c21e787791b1d052	3	1	main_z	11	main_z	79	stimuli_distractor_diamondtriangles.svg	stimuli_target_trianglerectangles.svg	29	yes	44	1	1432	0	0			0	0			1				0	
6.6.1	win	2023-06-23	14:02:38	14:14:15	689789	6061fff2c21e787791b1d052	3	1	main_z	11	advance_on_keypress_ZEE	80	stimuli_distractor_diamondtriangles.svg	stimuli_target_trianglerectangles.svg	29	yes	57	0	151	0	0			0	0			1				0	
6.6.1	win	2023-06-23	14:02:38	14:14:18	692590	6061fff2c21e787791b1d052	3	1	main_z	11	main_z	81	stimuli_distractor_diamondtriangles.svg	stimuli_distractor_diamondtriangles.svg	39	no	0	1	2000	0	0			0	0			1				0	
6.6.1	win	2023-06-23	14:02:38	14:14:18	692590	6061fff2c21e787791b1d052	3	1	main_z	11	advance_on_keypress_ZEE	82	stimuli_distractor_diamondtriangles.svg	stimuli_distractor_diamondtriangles.svg	39	no	57	0	603	0	0			0	0			1				0	
6.6.1	win	2023-06-23	14:02:38	14:14:20	694750	6061fff2c21e787791b1d052	3	1	main_z	11	main_z	83	stimuli_distractor_trianglediamonds.svg	stimuli_distractor_trianglediamonds.svg	33	no	44	0	911	0	0			0	0			1				0	
6.6.1	win	2023-06-23	14:02:38	14:14:20	694750	6061fff2c21e787791b1d052	3	1	main_z	11	advance_on_keypress_ZEE	84	stimuli_distractor_trianglediamonds.svg	stimuli_distractor_trianglediamonds.svg	33	no	57	0	173	0	0			0	0			1				0	
6.6.1	win	2023-06-23	14:02:38	14:14:21	696335	6061fff2c21e787791b1d052	3	1	main_z	11	main_z	85	stimuli_target_trianglerectangles.svg	stimuli_distractor_trianglediamonds.svg	17	yes	44	1	778	0	0			0	0			1				0	
6.6.1	win	2023-06-23	14:02:38	14:14:21	696335	6061fff2c21e787791b1d052	3	1	main_z	11	advance_on_keypress_ZEE	86	stimuli_target_trianglerectangles.svg	stimuli_distractor_trianglediamonds.svg	17	yes	57	0	123	0	0			0	0			1				0	
6.6.1	win	2023-06-23	14:02:38	14:14:24	699105	6061fff2c21e787791b1d052	3	1	main_z	11	main_z	87	stimuli_distractor_trianglediamonds.svg	stimuli_distractor_diamondtriangles.svg	36	no	0	1	2000	0	0			0	0			1				0	
6.6.1	win	2023-06-23	14:02:38	14:14:24	699105	6061fff2c21e787791b1d052	3	1	main_z	11	advance_on_keypress_ZEE	88	stimuli_distractor_trianglediamonds.svg	stimuli_distractor_diamondtriangles.svg	36	no	57	0	466	0	0			0	0			1				0	
6.6.1	win	2023-06-23	14:02:38	14:14:26	700747	6061fff2c21e787791b1d052	3	1	main_z	11	main_z	89	stimuli_target_rectanglediamonds.svg	stimuli_distractor_diamondtriangles.svg	6	yes	44	1	526	0	0			0	0			1				0	
6.6.1	win	2023-06-23	14:02:38	14:14:26	700747	6061fff2c21e787791b1d052	3	1	main_z	11	advance_on_keypress_ZEE	90	stimuli_target_rectanglediamonds.svg	stimuli_distractor_diamondtriangles.svg	6	yes	57	0	132	0	0			0	0			1				0	
6.6.1	win	2023-06-23	14:02:38	14:14:27	701937	6061fff2c21e787791b1d052	3	1	main_z	11	main_z	91	stimuli_target_squaretriangles.svg	stimuli_distractor_trianglediamonds.svg	3	yes	44	1	416	0	0			0	0			1				0	
6.6.1	win	2023-06-23	14:02:38	14:14:27	701937	6061fff2c21e787791b1d052	3	1	main_z	11	advance_on_keypress_ZEE	92	stimuli_target_squaretriangles.svg	stimuli_distractor_trianglediamonds.svg	3	yes	57	0	87	0	0			0	0			1				0	
6.6.1	win	2023-06-23	14:02:38	14:14:28	703253	6061fff2c21e787791b1d052	3	1	main_z	11	main_z	93	stimuli_target_diamondrectangles.svg	stimuli_distractor_diamondtriangles.svg	23	yes	44	1	581	0	0			0	0			1				0	
6.6.1	win	2023-06-23	14:02:38	14:14:28	703253	6061fff2c21e787791b1d052	3	1	main_z	11	advance_on_keypress_ZEE	94	stimuli_target_diamondrectangles.svg	stimuli_distractor_diamondtriangles.svg	23	yes	57	0	61	0	0			0	0			1				0	
6.6.1	win	2023-06-23	14:02:38	14:14:31	705972	6061fff2c21e787791b1d052	3	1	main_z	11	main_z	95	stimuli_target_squarediamonds.svg	stimuli_distractor_diamondtriangles.svg	8	yes	0	0	2000	0	0			0	0			1				0	
6.6.1	win	2023-06-23	14:02:38	14:14:31	705972	6061fff2c21e787791b1d052	3	1	main_z	11	advance_on_keypress_ZEE	96	stimuli_target_squarediamonds.svg	stimuli_distractor_diamondtriangles.svg	8	yes	57	0	757	0	0			0	0			1				0	
6.6.1	win	2023-06-23	14:02:38	14:14:33	708115	6061fff2c21e787791b1d052	3	1	main_z	11	main_z	97	stimuli_distractor_trianglediamonds.svg	stimuli_target_trianglesquares.svg	26	yes	44	1	744	0	0			0	0			1				0	
6.6.1	win	2023-06-23	14:02:38	14:14:33	708115	6061fff2c21e787791b1d052	3	1	main_z	11	advance_on_keypress_ZEE	98	stimuli_distractor_trianglediamonds.svg	stimuli_target_trianglesquares.svg	26	yes	57	0	203	0	0			0	0			1				0	
6.6.1	win	2023-06-23	14:02:38	14:14:35	709553	6061fff2c21e787791b1d052	3	1	main_z	11	main_z	99	stimuli_target_trianglesquares.svg	stimuli_distractor_trianglediamonds.svg	18	yes	44	1	600	0	0			0	0			1				0	
6.6.1	win	2023-06-23	14:02:38	14:14:35	709553	6061fff2c21e787791b1d052	3	1	main_z	11	advance_on_keypress_ZEE	100	stimuli_target_trianglesquares.svg	stimuli_distractor_trianglediamonds.svg	18	yes	57	0	117	0	0			0	0			1				0	
6.6.1	win	2023-06-23	14:02:38	14:14:37	712321	6061fff2c21e787791b1d052	3	1	main_z	11	main_z	101	stimuli_distractor_trianglediamonds.svg	stimuli_distractor_trianglediamonds.svg	34	no	0	1	2000	0	0			0	0			1				0	
6.6.1	win	2023-06-23	14:02:38	14:14:37	712321	6061fff2c21e787791b1d052	3	1	main_z	11	advance_on_keypress_ZEE	102	stimuli_distractor_trianglediamonds.svg	stimuli_distractor_trianglediamonds.svg	34	no	57	0	415	0	0			0	0			1				0	
6.6.1	win	2023-06-23	14:02:38	14:14:39	713926	6061fff2c21e787791b1d052	3	1	main_z	11	main_z	103	stimuli_distractor_trianglediamonds.svg	stimuli_target_squarediamonds.svg	12	yes	44	1	540	0	0			0	0			1				0	
6.6.1	win	2023-06-23	14:02:38	14:14:39	713926	6061fff2c21e787791b1d052	3	1	main_z	11	advance_on_keypress_ZEE	104	stimuli_distractor_trianglediamonds.svg	stimuli_target_squarediamonds.svg	12	yes	57	0	129	0	0			0	0			1				0	
6.6.1	win	2023-06-23	14:02:38	14:14:41	716035	6061fff2c21e787791b1d052	3	1	main_z	11	main_z	105	stimuli_target_trianglesquares.svg	stimuli_distractor_diamondtriangles.svg	22	yes	44	1	1332	0	0			0	0			1				0	
6.6.1	win	2023-06-23	14:02:38	14:14:41	716035	6061fff2c21e787791b1d052	3	1	main_z	11	advance_on_keypress_ZEE	106	stimuli_target_trianglesquares.svg	stimuli_distractor_diamondtriangles.svg	22	yes	57	0	191	0	0			0	0			1				0	
6.6.1	win	2023-06-23	14:02:38	14:14:44	718870	6061fff2c21e787791b1d052	3	1	main_z	11	main_z	107	stimuli_target_diamondsquares.svg	stimuli_distractor_trianglediamonds.svg	20	yes	0	0	2000	0	0			0	0			1				0	
6.6.1	win	2023-06-23	14:02:38	14:14:44	718870	6061fff2c21e787791b1d052	3	1	main_z	11	advance_on_keypress_ZEE	108	stimuli_target_diamondsquares.svg	stimuli_distractor_trianglediamonds.svg	20	yes	57	0	446	0	0			0	0			1				0	
6.6.1	win	2023-06-23	14:02:38	14:14:46	720891	6061fff2c21e787791b1d052	3	1	main_z	11	main_z	109	stimuli_distractor_diamondtriangles.svg	stimuli_target_diamondrectangles.svg	31	yes	44	1	922	0	0			0	0			1				0	
6.6.1	win	2023-06-23	14:02:38	14:14:46	720891	6061fff2c21e787791b1d052	3	1	main_z	11	advance_on_keypress_ZEE	110	stimuli_distractor_diamondtriangles.svg	stimuli_target_diamondrectangles.svg	31	yes	57	0	134	0	0			0	0			1				0	
6.6.1	win	2023-06-23	14:02:38	14:14:49	723669	6061fff2c21e787791b1d052	3	1	main_z	11	main_z	111	stimuli_distractor_diamondtriangles.svg	stimuli_distractor_trianglediamonds.svg	38	no	0	1	2000	0	0			0	0			1				0	
6.6.1	win	2023-06-23	14:02:38	14:14:49	723669	6061fff2c21e787791b1d052	3	1	main_z	11	advance_on_keypress_ZEE	112	stimuli_distractor_diamondtriangles.svg	stimuli_distractor_trianglediamonds.svg	38	no	57	0	318	0	0			0	0			1				0	
6.6.1	win	2023-06-23	14:02:38	14:14:50	725518	6061fff2c21e787791b1d052	3	1	main_z	11	main_z	113	stimuli_distractor_trianglediamonds.svg	stimuli_target_rectanglediamonds.svg	10	yes	44	1	883	0	0			0	0			1				0	
6.6.1	win	2023-06-23	14:02:38	14:14:50	725518	6061fff2c21e787791b1d052	3	1	main_z	11	advance_on_keypress_ZEE	114	stimuli_distractor_trianglediamonds.svg	stimuli_target_rectanglediamonds.svg	10	yes	57	0	148	0	0			0	0			1				0	
6.6.1	win	2023-06-23	14:02:38	14:14:53	728318	6061fff2c21e787791b1d052	3	1	main_z	11	main_z	115	stimuli_distractor_diamondtriangles.svg	stimuli_target_trianglesquares.svg	30	yes	0	0	2000	0	0			0	0			1				0	
6.6.1	win	2023-06-23	14:02:38	14:14:53	728318	6061fff2c21e787791b1d052	3	1	main_z	11	advance_on_keypress_ZEE	116	stimuli_distractor_diamondtriangles.svg	stimuli_target_trianglesquares.svg	30	yes	57	0	445	0	0			0	0			1				0	
6.6.1	win	2023-06-23	14:02:38	14:14:56	731418	6061fff2c21e787791b1d052	3	1	main_z	11	main_z	117	stimuli_target_trianglerectangles.svg	stimuli_distractor_diamondtriangles.svg	21	yes	0	0	2000	0	0			0	0			1				0	
6.6.1	win	2023-06-23	14:02:38	14:14:56	731418	6061fff2c21e787791b1d052	3	1	main_z	11	advance_on_keypress_ZEE	118	stimuli_target_trianglerectangles.svg	stimuli_distractor_diamondtriangles.svg	21	yes	57	0	312	0	0			0	0			1				0	
6.6.1	win	2023-06-23	14:02:38	14:14:59	734384	6061fff2c21e787791b1d052	3	1	main_z	11	main_z	119	stimuli_distractor_diamondtriangles.svg	stimuli_distractor_diamondtriangles.svg	40	no	0	1	2000	0	0			0	0			1				0	
6.6.1	win	2023-06-23	14:02:38	14:14:59	734384	6061fff2c21e787791b1d052	3	1	main_z	11	advance_on_keypress_ZEE	120	stimuli_distractor_diamondtriangles.svg	stimuli_distractor_diamondtriangles.svg	40	no	57	0	432	0	0			0	0			1				0	
6.6.1	win	2023-06-23	14:02:38	14:15:02	737468	6061fff2c21e787791b1d052	3	1	main_z	11	main_z	121	stimuli_target_diamondsquares.svg	stimuli_distractor_diamondtriangles.svg	24	yes	0	0	2000	0	0			0	0			1				0	
6.6.1	win	2023-06-23	14:02:38	14:15:02	737468	6061fff2c21e787791b1d052	3	1	main_z	11	advance_on_keypress_ZEE	122	stimuli_target_diamondsquares.svg	stimuli_distractor_diamondtriangles.svg	24	yes	57	0	478	0	0			0	0			1				0	
6.6.1	win	2023-06-23	14:02:38	14:15:04	739113	6061fff2c21e787791b1d052	3	1	main_z	11	main_z	123	stimuli_target_rectanglediamonds.svg	stimuli_distractor_trianglediamonds.svg	2	yes	44	1	513	0	0			0	0			1				0	
6.6.1	win	2023-06-23	14:02:38	14:15:04	739113	6061fff2c21e787791b1d052	3	1	main_z	11	advance_on_keypress_ZEE	124	stimuli_target_rectanglediamonds.svg	stimuli_distractor_trianglediamonds.svg	2	yes	57	0	328	0	0			0	0			1				0	
6.6.1	win	2023-06-23	14:02:38	14:15:06	740745	6061fff2c21e787791b1d052	3	1	main_z	11	main_z	125	stimuli_distractor_trianglediamonds.svg	stimuli_target_diamondrectangles.svg	27	yes	44	1	662	0	0			0	0			1				0	
6.6.1	win	2023-06-23	14:02:38	14:15:06	740745	6061fff2c21e787791b1d052	3	1	main_z	11	advance_on_keypress_ZEE	126	stimuli_distractor_trianglediamonds.svg	stimuli_target_diamondrectangles.svg	27	yes	57	0	136	0	0			0	0			1				0	
6.6.1	win	2023-06-23	14:02:38	14:15:08	743517	6061fff2c21e787791b1d052	3	1	main_z	11	main_z	127	stimuli_distractor_diamondtriangles.svg	stimuli_target_diamondsquares.svg	32	yes	0	0	2000	0	0			0	0			1				0	
6.6.1	win	2023-06-23	14:02:38	14:15:08	743517	6061fff2c21e787791b1d052	3	1	main_z	11	advance_on_keypress_ZEE	128	stimuli_distractor_diamondtriangles.svg	stimuli_target_diamondsquares.svg	32	yes	57	0	489	0	0			0	0			1				0	
6.6.1	win	2023-06-23	14:02:38	14:15:10	745213	6061fff2c21e787791b1d052	3	1	main_z	11	main_z	129	stimuli_distractor_diamondtriangles.svg	stimuli_target_rectangletriangles.svg	13	yes	44	1	564	0	0			0	0			1				0	
6.6.1	win	2023-06-23	14:02:38	14:15:10	745213	6061fff2c21e787791b1d052	3	1	main_z	11	advance_on_keypress_ZEE	130	stimuli_distractor_diamondtriangles.svg	stimuli_target_rectangletriangles.svg	13	yes	57	0	105	0	0			0	0			1				0	
6.6.1	win	2023-06-23	14:02:38	14:15:11	746449	6061fff2c21e787791b1d052	3	1	main_z	11	main_z	131	stimuli_distractor_trianglediamonds.svg	stimuli_target_rectangletriangles.svg	9	yes	44	1	483	0	0			0	0			1				0	
6.6.1	win	2023-06-23	14:02:38	14:15:11	746449	6061fff2c21e787791b1d052	3	1	main_z	11	advance_on_keypress_ZEE	132	stimuli_distractor_trianglediamonds.svg	stimuli_target_rectangletriangles.svg	9	yes	57	0	82	0	0			0	0			1				0	
6.6.1	win	2023-06-23	14:02:38	14:15:14	749182	6061fff2c21e787791b1d052	3	1	main_z	11	main_z	133	stimuli_distractor_diamondtriangles.svg	stimuli_target_trianglerectangles.svg	29	yes	0	0	2000	0	0			0	0			1				0	
6.6.1	win	2023-06-23	14:02:38	14:15:14	749182	6061fff2c21e787791b1d052	3	1	main_z	11	advance_on_keypress_ZEE	134	stimuli_distractor_diamondtriangles.svg	stimuli_target_trianglerectangles.svg	29	yes	57	0	437	0	0			0	0			1				0	
6.6.1	win	2023-06-23	14:02:38	14:15:16	750995	6061fff2c21e787791b1d052	3	1	main_z	11	main_z	135	stimuli_distractor_trianglediamonds.svg	stimuli_target_diamondsquares.svg	28	yes	44	1	730	0	0			0	0			1				0	
6.6.1	win	2023-06-23	14:02:38	14:15:16	750995	6061fff2c21e787791b1d052	3	1	main_z	11	advance_on_keypress_ZEE	136	stimuli_distractor_trianglediamonds.svg	stimuli_target_diamondsquares.svg	28	yes	57	0	135	0	0			0	0			1				0	
6.6.1	win	2023-06-23	14:02:38	14:15:17	752401	6061fff2c21e787791b1d052	3	1	main_z	11	main_z	137	stimuli_distractor_diamondtriangles.svg	stimuli_target_squaretriangles.svg	15	yes	44	1	619	0	0			0	0			1				0	
6.6.1	win	2023-06-23	14:02:38	14:15:17	752401	6061fff2c21e787791b1d052	3	1	main_z	11	advance_on_keypress_ZEE	138	stimuli_distractor_diamondtriangles.svg	stimuli_target_squaretriangles.svg	15	yes	57	0	86	0	0			0	0			1				0	
6.6.1	win	2023-06-23	14:02:38	14:15:19	754067	6061fff2c21e787791b1d052	3	1	main_z	11	main_z	139	stimuli_distractor_diamondtriangles.svg	stimuli_target_squarediamonds.svg	16	yes	44	1	936	0	0			0	0			1				0	
6.6.1	win	2023-06-23	14:02:38	14:15:19	754067	6061fff2c21e787791b1d052	3	1	main_z	11	advance_on_keypress_ZEE	140	stimuli_distractor_diamondtriangles.svg	stimuli_target_squarediamonds.svg	16	yes	57	0	92	0	0			0	0			1				0	
6.6.1	win	2023-06-23	14:02:38	14:15:22	756798	6061fff2c21e787791b1d052	3	1	main_z	11	main_z	141	stimuli_distractor_diamondtriangles.svg	stimuli_distractor_trianglediamonds.svg	37	no	0	1	2000	0	0			0	0			1				0	
6.6.1	win	2023-06-23	14:02:38	14:15:22	756798	6061fff2c21e787791b1d052	3	1	main_z	11	advance_on_keypress_ZEE	142	stimuli_distractor_diamondtriangles.svg	stimuli_distractor_trianglediamonds.svg	37	no	57	0	663	0	0			0	0			1				0	
6.6.1	win	2023-06-23	14:02:38	14:15:24	759160	6061fff2c21e787791b1d052	3	1	main_z	11	main_z	143	stimuli_distractor_diamondtriangles.svg	stimuli_target_rectanglediamonds.svg	14	yes	44	1	1045	0	0			0	0			1				0	
6.6.1	win	2023-06-23	14:02:38	14:15:24	759160	6061fff2c21e787791b1d052	3	1	main_z	11	advance_on_keypress_ZEE	144	stimuli_distractor_diamondtriangles.svg	stimuli_target_rectanglediamonds.svg	14	yes	57	0	109	0	0			0	0			1				0	
6.6.1	win	2023-06-23	14:02:38	14:15:25	760479	6061fff2c21e787791b1d052	3	1	main_z	11	main_z	145	stimuli_target_squaretriangles.svg	stimuli_distractor_diamondtriangles.svg	7	yes	44	1	565	0	0			0	0			1				0	
6.6.1	win	2023-06-23	14:02:38	14:15:25	760479	6061fff2c21e787791b1d052	3	1	main_z	11	advance_on_keypress_ZEE	146	stimuli_target_squaretriangles.svg	stimuli_distractor_diamondtriangles.svg	7	yes	57	0	112	0	0			0	0			1				0	
6.6.1	win	2023-06-23	14:02:38	14:15:27	761764	6061fff2c21e787791b1d052	3	1	main_z	11	main_z	147	stimuli_distractor_trianglediamonds.svg	stimuli_target_squaretriangles.svg	11	yes	44	1	517	0	0			0	0			1				0	
6.6.1	win	2023-06-23	14:02:38	14:15:27	761764	6061fff2c21e787791b1d052	3	1	main_z	11	advance_on_keypress_ZEE	148	stimuli_distractor_trianglediamonds.svg	stimuli_target_squaretriangles.svg	11	yes	57	0	115	0	0			0	0			1				0	
6.6.1	win	2023-06-23	14:02:38	14:15:28	763089	6061fff2c21e787791b1d052	3	1	main_z	11	main_z	149	stimuli_target_rectangletriangles.svg	stimuli_distractor_trianglediamonds.svg	1	yes	44	1	559	0	0			0	0			1				0	
6.6.1	win	2023-06-23	14:02:38	14:15:28	763089	6061fff2c21e787791b1d052	3	1	main_z	11	advance_on_keypress_ZEE	150	stimuli_target_rectangletriangles.svg	stimuli_distractor_trianglediamonds.svg	1	yes	57	0	113	0	0			0	0			1				0	
6.6.1	win	2023-06-23	14:02:38	14:15:31	765565	6061fff2c21e787791b1d052	3	1	main_z	11	main_z	151	stimuli_target_rectangletriangles.svg	stimuli_distractor_diamondtriangles.svg	5	yes	44	1	1719	0	0			0	0			1				0	
6.6.1	win	2023-06-23	14:02:38	14:15:31	765565	6061fff2c21e787791b1d052	3	1	main_z	11	advance_on_keypress_ZEE	152	stimuli_target_rectangletriangles.svg	stimuli_distractor_diamondtriangles.svg	5	yes	57	0	131	0	0			0	0			1				0	
6.6.1	win	2023-06-23	14:02:38	14:15:32	766990	6061fff2c21e787791b1d052	3	1	main_z	11	main_z	153	stimuli_target_squarediamonds.svg	stimuli_distractor_trianglediamonds.svg	4	yes	44	1	644	0	0			0	0			1				0	
6.6.1	win	2023-06-23	14:02:38	14:15:32	766990	6061fff2c21e787791b1d052	3	1	main_z	11	advance_on_keypress_ZEE	154	stimuli_target_squarediamonds.svg	stimuli_distractor_trianglediamonds.svg	4	yes	57	0	93	0	0			0	0			1				0	
6.6.1	win	2023-06-23	14:02:38	14:15:34	768714	6061fff2c21e787791b1d052	3	1	main_z	11	main_z	155	stimuli_target_diamondrectangles.svg	stimuli_distractor_trianglediamonds.svg	19	yes	44	1	1001	0	0			0	0			1				0	
6.6.1	win	2023-06-23	14:02:38	14:15:34	768714	6061fff2c21e787791b1d052	3	1	main_z	11	advance_on_keypress_ZEE	156	stimuli_target_diamondrectangles.svg	stimuli_distractor_trianglediamonds.svg	19	yes	57	0	99	0	0			0	0			1				0	
6.6.1	win	2023-06-23	14:02:38	14:15:36	771462	6061fff2c21e787791b1d052	3	1	main_z	11	main_z	157	stimuli_distractor_trianglediamonds.svg	stimuli_distractor_diamondtriangles.svg	35	no	0	1	2000	0	0			0	0			1				0	
6.6.1	win	2023-06-23	14:02:38	14:15:36	771462	6061fff2c21e787791b1d052	3	1	main_z	11	advance_on_keypress_ZEE	158	stimuli_distractor_trianglediamonds.svg	stimuli_distractor_diamondtriangles.svg	35	no	57	0	289	0	0			0	0			1				0	
6.6.1	win	2023-06-23	14:02:38	14:15:38	773206	6061fff2c21e787791b1d052	3	1	main_z	11	main_z	159	stimuli_distractor_trianglediamonds.svg	stimuli_target_trianglerectangles.svg	25	yes	44	1	811	0	0			0	0			1				0	
6.6.1	win	2023-06-23	14:02:38	14:15:38	773206	6061fff2c21e787791b1d052	3	1	main_z	11	advance_on_keypress_ZEE	160	stimuli_distractor_trianglediamonds.svg	stimuli_target_trianglerectangles.svg	25	yes	57	0	144	0	0			0	0			1				0	
6.6.1	win	2023-06-23	14:02:38	14:15:38	773206	6061fff2c21e787791b1d052	3	1	headphonecheck_calibration	14	headphonecheck_calibrationIntro	1	stimuli_distractor_trianglediamonds.svg	stimuli_target_trianglerectangles.svg	25	yes	calibrationButton	0	6458	0	0			0	0			1				0	
6.6.1	win	2023-06-23	14:02:38	14:15:38	773206	6061fff2c21e787791b1d052	3	1	headphonecheck_testphase	15	test_collectResponse	3	stimuli_distractor_trianglediamonds.svg	stimuli_target_trianglerectangles.svg	25	yes	third	1	4541	1	2	antiphase_hc_ios.wav	3	0	0			1				0	
6.6.1	win	2023-06-23	14:02:38	14:15:38	773206	6061fff2c21e787791b1d052	3	1	headphonecheck_testphase	15	test_collectResponse	6	stimuli_distractor_trianglediamonds.svg	stimuli_target_trianglerectangles.svg	25	yes	second	1	853	2	5	antiphase_hc_osi.wav	2	0	0			1				0	
6.6.1	win	2023-06-23	14:02:38	14:15:38	773206	6061fff2c21e787791b1d052	3	1	headphonecheck_testphase	15	test_collectResponse	9	stimuli_distractor_trianglediamonds.svg	stimuli_target_trianglerectangles.svg	25	yes	first	1	928	3	3	antiphase_hc_soi.wav	1	0	0			1				0	
6.6.1	win	2023-06-23	14:02:38	14:15:38	773206	6061fff2c21e787791b1d052	3	1	headphonecheck_testphase	15	test_collectResponse	12	stimuli_distractor_trianglediamonds.svg	stimuli_target_trianglerectangles.svg	25	yes	second	1	275	4	1	antiphase_hc_iso.wav	2	0	0			1				0	
6.6.1	win	2023-06-23	14:02:38	14:15:38	773206	6061fff2c21e787791b1d052	3	1	headphonecheck_testphase	15	test_collectResponse	15	stimuli_distractor_trianglediamonds.svg	stimuli_target_trianglerectangles.svg	25	yes	first	1	1151	5	4	antiphase_hc_sio.wav	1	0	0			1				0	
6.6.1	win	2023-06-23	14:02:38	14:15:38	773206	6061fff2c21e787791b1d052	3	1	headphonecheck_testphase	15	test_collectResponse	18	stimuli_distractor_trianglediamonds.svg	stimuli_target_trianglerectangles.svg	25	yes	third	1	882	6	6	antiphase_hc_ois.wav	3	0	0			1				0	
6.6.1	win	2023-06-23	14:02:38	14:15:38	773206	6061fff2c21e787791b1d052	3	1	stereocheck_calibration	17	stereocheck_calibrationIntro	1	stimuli_distractor_trianglediamonds.svg	stimuli_target_trianglerectangles.svg	25	yes	stereocheck_calibrationButton	0	5020	6	6	antiphase_hc_ois.wav	3	0	0			1				0	
6.6.1	win	2023-06-23	14:02:38	14:15:38	773206	6061fff2c21e787791b1d052	3	1	stereocheck_testphase	18	stereocheck_test_collectResponse	3	stimuli_distractor_trianglediamonds.svg	stimuli_target_trianglerectangles.svg	25	yes	stereocheck_right	1	13172	6	6	antiphase_hc_ois.wav	3	1	5	noise_calib_stim_RIGHT.wav	2	1				0	
6.6.1	win	2023-06-23	14:02:38	14:15:38	773206	6061fff2c21e787791b1d052	3	1	stereocheck_testphase	18	stereocheck_test_collectResponse	6	stimuli_distractor_trianglediamonds.svg	stimuli_target_trianglerectangles.svg	25	yes	stereocheck_left	1	545	6	6	antiphase_hc_ois.wav	3	2	2	noise_calib_stim_LEFT.wav	1	1				0	
6.6.1	win	2023-06-23	14:02:38	14:15:38	773206	6061fff2c21e787791b1d052	3	1	stereocheck_testphase	18	stereocheck_test_collectResponse	9	stimuli_distractor_trianglediamonds.svg	stimuli_target_trianglerectangles.svg	25	yes	stereocheck_right	1	425	6	6	antiphase_hc_ois.wav	3	3	4	noise_calib_stim_RIGHT.wav	2	1				0	
6.6.1	win	2023-06-23	14:02:38	14:15:38	773206	6061fff2c21e787791b1d052	3	1	stereocheck_testphase	18	stereocheck_test_collectResponse	12	stimuli_distractor_trianglediamonds.svg	stimuli_target_trianglerectangles.svg	25	yes	stereocheck_left	1	348	6	6	antiphase_hc_ois.wav	3	4	3	noise_calib_stim_LEFT.wav	1	1				0	
6.6.1	win	2023-06-23	14:02:38	14:15:38	773206	6061fff2c21e787791b1d052	3	1	stereocheck_testphase	18	stereocheck_test_collectResponse	15	stimuli_distractor_trianglediamonds.svg	stimuli_target_trianglerectangles.svg	25	yes	stereocheck_right	1	378	6	6	antiphase_hc_ois.wav	3	5	6	noise_calib_stim_RIGHT.wav	2	1				0	
6.6.1	win	2023-06-23	14:02:38	14:15:38	773206	6061fff2c21e787791b1d052	3	1	stereocheck_testphase	18	stereocheck_test_collectResponse	18	stimuli_distractor_trianglediamonds.svg	stimuli_target_trianglerectangles.svg	25	yes	stereocheck_left	1	739	6	6	antiphase_hc_ois.wav	3	6	1	noise_calib_stim_LEFT.wav	1	1				0	
6.6.1	win	2023-06-23	14:02:38	14:15:38	773206	6061fff2c21e787791b1d052	3	1	DL_practice	21	DL_practice	2	stimuli_distractor_trianglediamonds.svg	stimuli_target_trianglerectangles.svg	25	yes	ka	0	2053	6	6	antiphase_hc_ois.wav	3	6	1	noise_calib_stim_LEFT.wav	1	18	blb_dichoticlistening_ga-ta.mp3	ga	ta	1	other
6.6.1	win	2023-06-23	14:02:38	14:15:38	773206	6061fff2c21e787791b1d052	3	1	DL_practice	21	DL_practice	3	stimuli_distractor_trianglediamonds.svg	stimuli_target_trianglerectangles.svg	25	yes	ka	1	1229	6	6	antiphase_hc_ois.wav	3	6	1	noise_calib_stim_LEFT.wav	1	22	blb_dichoticlistening_ka-ka.mp3	ka	ka	0	left
6.6.1	win	2023-06-23	14:02:38	14:15:38	773206	6061fff2c21e787791b1d052	3	1	DL_practice	21	DL_practice	4	stimuli_distractor_trianglediamonds.svg	stimuli_target_trianglerectangles.svg	25	yes	pa	1	1071	6	6	antiphase_hc_ois.wav	3	6	1	noise_calib_stim_LEFT.wav	1	29	blb_dichoticlistening_pa-pa.mp3	pa	pa	0	left
6.6.1	win	2023-06-23	14:02:38	14:15:38	773206	6061fff2c21e787791b1d052	3	1	DL_practice	21	DL_practice	5	stimuli_distractor_trianglediamonds.svg	stimuli_target_trianglerectangles.svg	25	yes	ba	1	1549	6	6	antiphase_hc_ois.wav	3	6	1	noise_calib_stim_LEFT.wav	1	7	blb_dichoticlistening_da-ba.mp3	da	ba	1	right
6.6.1	win	2023-06-23	14:02:38	14:15:38	773206	6061fff2c21e787791b1d052	3	1	DL_practice	21	DL_practice	6	stimuli_distractor_trianglediamonds.svg	stimuli_target_trianglerectangles.svg	25	yes	ga	1	1024	6	6	antiphase_hc_ois.wav	3	6	1	noise_calib_stim_LEFT.wav	1	15	blb_dichoticlistening_ga-ga.mp3	ga	ga	0	left
6.6.1	win	2023-06-23	14:02:38	14:15:38	773206	6061fff2c21e787791b1d052	3	1	DL_practice	21	DL_practice	7	stimuli_distractor_trianglediamonds.svg	stimuli_target_trianglerectangles.svg	25	yes	da	1	1045	6	6	antiphase_hc_ois.wav	3	6	1	noise_calib_stim_LEFT.wav	1	8	blb_dichoticlistening_da-da.mp3	da	da	0	left
6.6.1	win	2023-06-23	14:02:38	14:15:38	773206	6061fff2c21e787791b1d052	3	1	DL_practice	21	DL_practice	8	stimuli_distractor_trianglediamonds.svg	stimuli_target_trianglerectangles.svg	25	yes	ta	1	1905	6	6	antiphase_hc_ois.wav	3	6	1	noise_calib_stim_LEFT.wav	1	36	blb_dichoticlistening_ta-ta.mp3	ta	ta	0	left
6.6.1	win	2023-06-23	14:02:38	14:15:38	773206	6061fff2c21e787791b1d052	3	1	DL_practice	21	DL_practice	9	stimuli_distractor_trianglediamonds.svg	stimuli_target_trianglerectangles.svg	25	yes	ka	1	1136	6	6	antiphase_hc_ois.wav	3	6	1	noise_calib_stim_LEFT.wav	1	23	blb_dichoticlistening_ka-pa.mp3	ka	pa	1	left
6.6.1	win	2023-06-23	14:02:38	14:15:38	773206	6061fff2c21e787791b1d052	3	1	DL_practice	21	DL_practice	10	stimuli_distractor_trianglediamonds.svg	stimuli_target_trianglerectangles.svg	25	yes	pa	0	1324	6	6	antiphase_hc_ois.wav	3	6	1	noise_calib_stim_LEFT.wav	1	1	blb_dichoticlistening_ba-ba.mp3	ba	ba	0	other
6.6.1	win	2023-06-23	14:02:38	14:15:38	773206	6061fff2c21e787791b1d052	3	1	DL_test	23	DL_test	1	stimuli_distractor_trianglediamonds.svg	stimuli_target_trianglerectangles.svg	25	yes	da	1	1575	6	6	antiphase_hc_ois.wav	3	6	1	noise_calib_stim_LEFT.wav	1	26	blb_dichoticlistening_pa-da.mp3	pa	da	1	right
6.6.1	win	2023-06-23	14:02:38	14:15:38	773206	6061fff2c21e787791b1d052	3	1	DL_test	23	DL_test	2	stimuli_distractor_trianglediamonds.svg	stimuli_target_trianglerectangles.svg	25	yes	da	1	2183	6	6	antiphase_hc_ois.wav	3	6	1	noise_calib_stim_LEFT.wav	1	7	blb_dichoticlistening_da-ba.mp3	da	ba	1	left
6.6.1	win	2023-06-23	14:02:38	14:15:38	773206	6061fff2c21e787791b1d052	3	1	DL_test	23	DL_test	3	stimuli_distractor_trianglediamonds.svg	stimuli_target_trianglerectangles.svg	25	yes	ka	0	1568	6	6	antiphase_hc_ois.wav	3	6	1	noise_calib_stim_LEFT.wav	1	18	blb_dichoticlistening_ga-ta.mp3	ga	ta	1	other
6.6.1	win	2023-06-23	14:02:38	14:15:38	773206	6061fff2c21e787791b1d052	3	1	DL_test	23	DL_test	4	stimuli_distractor_trianglediamonds.svg	stimuli_target_trianglerectangles.svg	25	yes	ka	1	1110	6	6	antiphase_hc_ois.wav	3	6	1	noise_calib_stim_LEFT.wav	1	23	blb_dichoticlistening_ka-pa.mp3	ka	pa	1	left
6.6.1	win	2023-06-23	14:02:38	14:15:38	773206	6061fff2c21e787791b1d052	3	1	DL_test	23	DL_test	5	stimuli_distractor_trianglediamonds.svg	stimuli_target_trianglerectangles.svg	25	yes	ba	1	2257	6	6	antiphase_hc_ois.wav	3	6	1	noise_calib_stim_LEFT.wav	1	6	blb_dichoticlistening_ba-ta.mp3	ba	ta	1	left
6.6.1	win	2023-06-23	14:02:38	14:15:38	773206	6061fff2c21e787791b1d052	3	1	DL_test	23	DL_test	6	stimuli_distractor_trianglediamonds.svg	stimuli_target_trianglerectangles.svg	25	yes	ga	1	1189	6	6	antiphase_hc_ois.wav	3	6	1	noise_calib_stim_LEFT.wav	1	21	blb_dichoticlistening_ka-ga.mp3	ka	ga	1	right
6.6.1	win	2023-06-23	14:02:38	14:15:38	773206	6061fff2c21e787791b1d052	3	1	DL_test	23	DL_test	7	stimuli_distractor_trianglediamonds.svg	stimuli_target_trianglerectangles.svg	25	yes	pa	1	1302	6	6	antiphase_hc_ois.wav	3	6	1	noise_calib_stim_LEFT.wav	1	5	blb_dichoticlistening_ba-pa.mp3	ba	pa	1	right
6.6.1	win	2023-06-23	14:02:38	14:15:38	773206	6061fff2c21e787791b1d052	3	1	DL_test	23	DL_test	8	stimuli_distractor_trianglediamonds.svg	stimuli_target_trianglerectangles.svg	25	yes	ga	0	1694	6	6	antiphase_hc_ois.wav	3	6	1	noise_calib_stim_LEFT.wav	1	10	blb_dichoticlistening_da-ka.mp3	da	ka	1	other
6.6.1	win	2023-06-23	14:02:38	14:15:38	773206	6061fff2c21e787791b1d052	3	1	DL_test	23	DL_test	9	stimuli_distractor_trianglediamonds.svg	stimuli_target_trianglerectangles.svg	25	yes	ka	0	1890	6	6	antiphase_hc_ois.wav	3	6	1	noise_calib_stim_LEFT.wav	1	31	blb_dichoticlistening_ta-ba.mp3	ta	ba	1	other
6.6.1	win	2023-06-23	14:02:38	14:15:38	773206	6061fff2c21e787791b1d052	3	1	DL_test	23	DL_test	10	stimuli_distractor_trianglediamonds.svg	stimuli_target_trianglerectangles.svg	25	yes	ba	1	1712	6	6	antiphase_hc_ois.wav	3	6	1	noise_calib_stim_LEFT.wav	1	13	blb_dichoticlistening_ga-ba.mp3	ga	ba	1	right
6.6.1	win	2023-06-23	14:02:38	14:15:38	773206	6061fff2c21e787791b1d052	3	1	DL_test	23	DL_test	11	stimuli_distractor_trianglediamonds.svg	stimuli_target_trianglerectangles.svg	25	yes	ga	1	1374	6	6	antiphase_hc_ois.wav	3	6	1	noise_calib_stim_LEFT.wav	1	14	blb_dichoticlistening_ga-da.mp3	ga	da	1	left
6.6.1	win	2023-06-23	14:02:38	14:15:38	773206	6061fff2c21e787791b1d052	3	1	DL_test	23	DL_test	12	stimuli_distractor_trianglediamonds.svg	stimuli_target_trianglerectangles.svg	25	yes	pa	0	1266	6	6	antiphase_hc_ois.wav	3	6	1	noise_calib_stim_LEFT.wav	1	4	blb_dichoticlistening_ba-ka.mp3	ba	ka	1	other
6.6.1	win	2023-06-23	14:02:38	14:15:38	773206	6061fff2c21e787791b1d052	3	1	DL_test	23	DL_test	13	stimuli_distractor_trianglediamonds.svg	stimuli_target_trianglerectangles.svg	25	yes	ga	1	1428	6	6	antiphase_hc_ois.wav	3	6	1	noise_calib_stim_LEFT.wav	1	16	blb_dichoticlistening_ga-ka.mp3	ga	ka	1	left
6.6.1	win	2023-06-23	14:02:38	14:15:38	773206	6061fff2c21e787791b1d052	3	1	DL_test	23	DL_test	14	stimuli_distractor_trianglediamonds.svg	stimuli_target_trianglerectangles.svg	25	yes	ga	0	984	6	6	antiphase_hc_ois.wav	3	6	1	noise_calib_stim_LEFT.wav	1	20	blb_dichoticlistening_ka-da.mp3	ka	da	1	other
6.6.1	win	2023-06-23	14:02:38	14:15:38	773206	6061fff2c21e787791b1d052	3	1	DL_test	23	DL_test	15	stimuli_distractor_trianglediamonds.svg	stimuli_target_trianglerectangles.svg	25	yes	ka	0	1063	6	6	antiphase_hc_ois.wav	3	6	1	noise_calib_stim_LEFT.wav	1	25	blb_dichoticlistening_pa-ba.mp3	pa	ba	1	other
6.6.1	win	2023-06-23	14:02:38	14:15:38	773206	6061fff2c21e787791b1d052	3	1	DL_test	23	DL_test	16	stimuli_distractor_trianglediamonds.svg	stimuli_target_trianglerectangles.svg	25	yes	ka	0	1896	6	6	antiphase_hc_ois.wav	3	6	1	noise_calib_stim_LEFT.wav	1	30	blb_dichoticlistening_pa-ta.mp3	pa	ta	1	other
6.6.1	win	2023-06-23	14:02:38	14:15:38	773206	6061fff2c21e787791b1d052	3	1	DL_test	23	DL_test	17	stimuli_distractor_trianglediamonds.svg	stimuli_target_trianglerectangles.svg	25	yes	ta	1	1505	6	6	antiphase_hc_ois.wav	3	6	1	noise_calib_stim_LEFT.wav	1	35	blb_dichoticlistening_ta-pa.mp3	ta	pa	1	left
6.6.1	win	2023-06-23	14:02:38	14:15:38	773206	6061fff2c21e787791b1d052	3	1	DL_test	23	DL_test	18	stimuli_distractor_trianglediamonds.svg	stimuli_target_trianglerectangles.svg	25	yes	ga	1	1997	6	6	antiphase_hc_ois.wav	3	6	1	noise_calib_stim_LEFT.wav	1	3	blb_dichoticlistening_ba-ga.mp3	ba	ga	1	right
6.6.1	win	2023-06-23	14:02:38	14:15:38	773206	6061fff2c21e787791b1d052	3	1	DL_test	23	DL_test	19	stimuli_distractor_trianglediamonds.svg	stimuli_target_trianglerectangles.svg	25	yes	pa	1	1933	6	6	antiphase_hc_ois.wav	3	6	1	noise_calib_stim_LEFT.wav	1	29	blb_dichoticlistening_pa-pa.mp3	pa	pa	0	left
6.6.1	win	2023-06-23	14:02:38	14:15:38	773206	6061fff2c21e787791b1d052	3	1	DL_test	23	DL_test	20	stimuli_distractor_trianglediamonds.svg	stimuli_target_trianglerectangles.svg	25	yes	da	1	1144	6	6	antiphase_hc_ois.wav	3	6	1	noise_calib_stim_LEFT.wav	1	8	blb_dichoticlistening_da-da.mp3	da	da	0	left
6.6.1	win	2023-06-23	14:02:38	14:15:38	773206	6061fff2c21e787791b1d052	3	1	DL_test	23	DL_test	21	stimuli_distractor_trianglediamonds.svg	stimuli_target_trianglerectangles.svg	25	yes	ka	1	1090	6	6	antiphase_hc_ois.wav	3	6	1	noise_calib_stim_LEFT.wav	1	22	blb_dichoticlistening_ka-ka.mp3	ka	ka	0	left
6.6.1	win	2023-06-23	14:02:38	14:15:38	773206	6061fff2c21e787791b1d052	3	1	DL_test	23	DL_test	22	stimuli_distractor_trianglediamonds.svg	stimuli_target_trianglerectangles.svg	25	yes	ga	0	1106	6	6	antiphase_hc_ois.wav	3	6	1	noise_calib_stim_LEFT.wav	1	12	blb_dichoticlistening_da-ta.mp3	da	ta	1	other
6.6.1	win	2023-06-23	14:02:38	14:15:38	773206	6061fff2c21e787791b1d052	3	1	DL_test	23	DL_test	23	stimuli_distractor_trianglediamonds.svg	stimuli_target_trianglerectangles.svg	25	yes	ka	1	997	6	6	antiphase_hc_ois.wav	3	6	1	noise_calib_stim_LEFT.wav	1	34	blb_dichoticlistening_ta-ka.mp3	ta	ka	1	right
6.6.1	win	2023-06-23	14:02:38	14:15:38	773206	6061fff2c21e787791b1d052	3	1	DL_test	23	DL_test	24	stimuli_distractor_trianglediamonds.svg	stimuli_target_trianglerectangles.svg	25	yes	ba	1	2302	6	6	antiphase_hc_ois.wav	3	6	1	noise_calib_stim_LEFT.wav	1	19	blb_dichoticlistening_ka-ba.mp3	ka	ba	1	right
6.6.1	win	2023-06-23	14:02:38	14:15:38	773206	6061fff2c21e787791b1d052	3	1	DL_test	23	DL_test	25	stimuli_distractor_trianglediamonds.svg	stimuli_target_trianglerectangles.svg	25	yes	ga	1	992	6	6	antiphase_hc_ois.wav	3	6	1	noise_calib_stim_LEFT.wav	1	27	blb_dichoticlistening_pa-ga.mp3	pa	ga	1	right
6.6.1	win	2023-06-23	14:02:38	14:15:38	773206	6061fff2c21e787791b1d052	3	1	DL_test	23	DL_test	26	stimuli_distractor_trianglediamonds.svg	stimuli_target_trianglerectangles.svg	25	yes	pa	1	1889	6	6	antiphase_hc_ois.wav	3	6	1	noise_calib_stim_LEFT.wav	1	28	blb_dichoticlistening_pa-ka.mp3	pa	ka	1	left
