build	computer.platform	date	time	timestamp	time_elapsed_ms	subject	group	session	blockcode	blocknum	trialcode	trialnum	stimulus_left	stimulus_right	stim_index	target_present	response	correct	latency	headphonecheck_countTestTrials	headphonecheck_index	headphonecheck_testSound	headphonecheck_correctResponse	stereocheck_countTestTrials	stereocheck_index	stereocheck_testSound	stereocheck_correctResponse	DL_index	DL_soundfile	DL_leftSound	DL_rightSound	DL_dualSound	DL_choice
6.6.1	mac	2023-06-02	07:03:42	07:08:12	266146	60f4e3ab507bbb123f866e88	4	1	practice_z	5	practice_z	1	stimuli_target_diamondsquares.svg	stimuli_distractor_diamondtriangles.svg	3	yes	44	1	719	0	0			0	0			1				0	
6.6.1	mac	2023-06-02	07:03:42	07:08:12	266146	60f4e3ab507bbb123f866e88	4	1	practice_z	5	advance_on_keypress_ZEE	2	stimuli_target_diamondsquares.svg	stimuli_distractor_diamondtriangles.svg	3	yes	57	0	2612	0	0			0	0			1				0	
6.6.1	mac	2023-06-02	07:03:42	07:08:18	272405	60f4e3ab507bbb123f866e88	4	1	practice_z	5	practice_z	3	stimuli_distractor_trianglediamonds.svg	stimuli_target_diamondrectangles.svg	12	yes	0	0	2000	0	0			0	0			1				0	
6.6.1	mac	2023-06-02	07:03:42	07:08:18	272405	60f4e3ab507bbb123f866e88	4	1	practice_z	5	advance_on_keypress_ZEE	4	stimuli_distractor_trianglediamonds.svg	stimuli_target_diamondrectangles.svg	12	yes	57	0	1218	0	0			0	0			1				0	
6.6.1	mac	2023-06-02	07:03:42	07:08:23	277255	60f4e3ab507bbb123f866e88	4	1	practice_z	5	practice_z	5	stimuli_distractor_trianglediamonds.svg	stimuli_distractor_trianglediamonds.svg	15	no	0	1	2000	0	0			0	0			1				0	
6.6.1	mac	2023-06-02	07:03:42	07:08:23	277255	60f4e3ab507bbb123f866e88	4	1	practice_z	5	advance_on_keypress_ZEE	6	stimuli_distractor_trianglediamonds.svg	stimuli_distractor_trianglediamonds.svg	15	no	57	0	683	0	0			0	0			1				0	
6.6.1	mac	2023-06-02	07:03:42	07:08:27	280532	60f4e3ab507bbb123f866e88	4	1	practice_z	5	practice_z	7	stimuli_target_rectanglediamonds.svg	stimuli_distractor_trianglediamonds.svg	4	yes	44	1	957	0	0			0	0			1				0	
6.6.1	mac	2023-06-02	07:03:42	07:08:27	280532	60f4e3ab507bbb123f866e88	4	1	practice_z	5	advance_on_keypress_ZEE	8	stimuli_target_rectanglediamonds.svg	stimuli_distractor_trianglediamonds.svg	4	yes	57	0	699	0	0			0	0			1				0	
6.6.1	mac	2023-06-02	07:03:42	07:08:30	283681	60f4e3ab507bbb123f866e88	4	1	practice_z	5	practice_z	9	stimuli_distractor_diamondtriangles.svg	stimuli_target_rectangletriangles.svg	7	yes	44	1	788	0	0			0	0			1				0	
6.6.1	mac	2023-06-02	07:03:42	07:08:30	283681	60f4e3ab507bbb123f866e88	4	1	practice_z	5	advance_on_keypress_ZEE	10	stimuli_distractor_diamondtriangles.svg	stimuli_target_rectangletriangles.svg	7	yes	57	0	709	0	0			0	0			1				0	
6.6.1	mac	2023-06-02	07:03:42	07:08:33	286707	60f4e3ab507bbb123f866e88	4	1	practice_z	5	practice_z	11	stimuli_target_rectanglediamonds.svg	stimuli_distractor_diamondtriangles.svg	1	yes	44	1	666	0	0			0	0			1				0	
6.6.1	mac	2023-06-02	07:03:42	07:08:33	286707	60f4e3ab507bbb123f866e88	4	1	practice_z	5	advance_on_keypress_ZEE	12	stimuli_target_rectanglediamonds.svg	stimuli_distractor_diamondtriangles.svg	1	yes	57	0	742	0	0			0	0			1				0	
6.6.1	mac	2023-06-02	07:03:42	07:08:36	290034	60f4e3ab507bbb123f866e88	4	1	practice_z	5	practice_z	13	stimuli_distractor_trianglediamonds.svg	stimuli_target_squarediamonds.svg	11	yes	44	1	942	0	0			0	0			1				0	
6.6.1	mac	2023-06-02	07:03:42	07:08:36	290034	60f4e3ab507bbb123f866e88	4	1	practice_z	5	advance_on_keypress_ZEE	14	stimuli_distractor_trianglediamonds.svg	stimuli_target_squarediamonds.svg	11	yes	57	0	646	0	0			0	0			1				0	
6.6.1	mac	2023-06-02	07:03:42	07:08:39	293161	60f4e3ab507bbb123f866e88	4	1	practice_z	5	practice_z	15	stimuli_distractor_diamondtriangles.svg	stimuli_distractor_trianglediamonds.svg	14	no	44	0	834	0	0			0	0			1				0	
6.6.1	mac	2023-06-02	07:03:42	07:08:39	293161	60f4e3ab507bbb123f866e88	4	1	practice_z	5	advance_on_keypress_ZEE	16	stimuli_distractor_diamondtriangles.svg	stimuli_distractor_trianglediamonds.svg	14	no	57	0	823	0	0			0	0			1				0	
6.6.1	mac	2023-06-02	07:03:42	07:08:43	296579	60f4e3ab507bbb123f866e88	4	1	practice_z	5	practice_z	17	stimuli_distractor_diamondtriangles.svg	stimuli_distractor_diamondtriangles.svg	13	no	44	0	953	0	0			0	0			1				0	
6.6.1	mac	2023-06-02	07:03:42	07:08:43	296579	60f4e3ab507bbb123f866e88	4	1	practice_z	5	advance_on_keypress_ZEE	18	stimuli_distractor_diamondtriangles.svg	stimuli_distractor_diamondtriangles.svg	13	no	57	0	719	0	0			0	0			1				0	
6.6.1	mac	2023-06-02	07:03:42	07:08:46	299667	60f4e3ab507bbb123f866e88	4	1	practice_z	5	practice_z	19	stimuli_distractor_trianglediamonds.svg	stimuli_target_rectanglediamonds.svg	10	yes	44	1	741	0	0			0	0			1				0	
6.6.1	mac	2023-06-02	07:03:42	07:08:46	299667	60f4e3ab507bbb123f866e88	4	1	practice_z	5	advance_on_keypress_ZEE	20	stimuli_distractor_trianglediamonds.svg	stimuli_target_rectanglediamonds.svg	10	yes	57	0	569	0	0			0	0			1				0	
6.6.1	mac	2023-06-02	07:03:42	07:08:49	302788	60f4e3ab507bbb123f866e88	4	1	practice_z	5	practice_z	21	stimuli_target_squarediamonds.svg	stimuli_distractor_diamondtriangles.svg	2	yes	44	1	894	0	0			0	0			1				0	
6.6.1	mac	2023-06-02	07:03:42	07:08:49	302788	60f4e3ab507bbb123f866e88	4	1	practice_z	5	advance_on_keypress_ZEE	22	stimuli_target_squarediamonds.svg	stimuli_distractor_diamondtriangles.svg	2	yes	57	0	540	0	0			0	0			1				0	
6.6.1	mac	2023-06-02	07:03:42	07:08:52	305734	60f4e3ab507bbb123f866e88	4	1	practice_z	5	practice_z	23	stimuli_distractor_diamondtriangles.svg	stimuli_target_trianglerectangles.svg	9	yes	44	1	756	0	0			0	0			1				0	
6.6.1	mac	2023-06-02	07:03:42	07:08:52	305734	60f4e3ab507bbb123f866e88	4	1	practice_z	5	advance_on_keypress_ZEE	24	stimuli_distractor_diamondtriangles.svg	stimuli_target_trianglerectangles.svg	9	yes	57	0	488	0	0			0	0			1				0	
6.6.1	mac	2023-06-02	07:03:42	07:08:55	308918	60f4e3ab507bbb123f866e88	4	1	practice_z	5	practice_z	25	stimuli_target_squarediamonds.svg	stimuli_distractor_trianglediamonds.svg	5	yes	44	1	1041	0	0			0	0			1				0	
6.6.1	mac	2023-06-02	07:03:42	07:08:55	308918	60f4e3ab507bbb123f866e88	4	1	practice_z	5	advance_on_keypress_ZEE	26	stimuli_target_squarediamonds.svg	stimuli_distractor_trianglediamonds.svg	5	yes	57	0	562	0	0			0	0			1				0	
6.6.1	mac	2023-06-02	07:03:42	07:08:58	311877	60f4e3ab507bbb123f866e88	4	1	practice_z	5	practice_z	27	stimuli_distractor_trianglediamonds.svg	stimuli_distractor_diamondtriangles.svg	16	no	44	0	750	0	0			0	0			1				0	
6.6.1	mac	2023-06-02	07:03:42	07:08:58	311877	60f4e3ab507bbb123f866e88	4	1	practice_z	5	advance_on_keypress_ZEE	28	stimuli_distractor_trianglediamonds.svg	stimuli_distractor_diamondtriangles.svg	16	no	57	0	654	0	0			0	0			1				0	
6.6.1	mac	2023-06-02	07:03:42	07:09:01	314673	60f4e3ab507bbb123f866e88	4	1	practice_z	5	practice_z	29	stimuli_distractor_diamondtriangles.svg	stimuli_target_diamondrectangles.svg	8	yes	44	1	494	0	0			0	0			1				0	
6.6.1	mac	2023-06-02	07:03:42	07:09:01	314673	60f4e3ab507bbb123f866e88	4	1	practice_z	5	advance_on_keypress_ZEE	30	stimuli_distractor_diamondtriangles.svg	stimuli_target_diamondrectangles.svg	8	yes	57	0	518	0	0			0	0			1				0	
6.6.1	mac	2023-06-02	07:03:42	07:09:03	317393	60f4e3ab507bbb123f866e88	4	1	practice_z	5	practice_z	31	stimuli_target_diamondsquares.svg	stimuli_distractor_trianglediamonds.svg	6	yes	44	1	549	0	0			0	0			1				0	
6.6.1	mac	2023-06-02	07:03:42	07:09:03	317393	60f4e3ab507bbb123f866e88	4	1	practice_z	5	advance_on_keypress_ZEE	32	stimuli_target_diamondsquares.svg	stimuli_distractor_trianglediamonds.svg	6	yes	57	0	694	0	0			0	0			1				0	
6.6.1	mac	2023-06-02	07:03:42	07:11:24	458339	60f4e3ab507bbb123f866e88	4	1	main_z	7	main_z	1	stimuli_target_diamondrectangles.svg	stimuli_distractor_diamondtriangles.svg	23	yes	44	1	352	0	0			0	0			1				0	
6.6.1	mac	2023-06-02	07:03:42	07:11:24	458339	60f4e3ab507bbb123f866e88	4	1	main_z	7	advance_on_keypress_ZEE	2	stimuli_target_diamondrectangles.svg	stimuli_distractor_diamondtriangles.svg	23	yes	57	0	1008	0	0			0	0			1				0	
6.6.1	mac	2023-06-02	07:03:42	07:11:27	461048	60f4e3ab507bbb123f866e88	4	1	main_z	7	main_z	3	stimuli_distractor_diamondtriangles.svg	stimuli_distractor_trianglediamonds.svg	37	no	44	0	1060	0	0			0	0			1				0	
6.6.1	mac	2023-06-02	07:03:42	07:11:27	461048	60f4e3ab507bbb123f866e88	4	1	main_z	7	advance_on_keypress_ZEE	4	stimuli_distractor_diamondtriangles.svg	stimuli_distractor_trianglediamonds.svg	37	no	57	0	738	0	0			0	0			1				0	
6.6.1	mac	2023-06-02	07:03:42	07:11:30	463632	60f4e3ab507bbb123f866e88	4	1	main_z	7	main_z	5	stimuli_target_trianglesquares.svg	stimuli_distractor_trianglediamonds.svg	18	yes	44	1	1196	0	0			0	0			1				0	
6.6.1	mac	2023-06-02	07:03:42	07:11:30	463632	60f4e3ab507bbb123f866e88	4	1	main_z	7	advance_on_keypress_ZEE	6	stimuli_target_trianglesquares.svg	stimuli_distractor_trianglediamonds.svg	18	yes	57	0	2370	0	0			0	0			1				0	
6.6.1	mac	2023-06-02	07:03:42	07:11:34	467703	60f4e3ab507bbb123f866e88	4	1	main_z	7	main_z	7	stimuli_target_trianglerectangles.svg	stimuli_distractor_diamondtriangles.svg	21	yes	44	1	1067	0	0			0	0			1				0	
6.6.1	mac	2023-06-02	07:03:42	07:11:34	467703	60f4e3ab507bbb123f866e88	4	1	main_z	7	advance_on_keypress_ZEE	8	stimuli_target_trianglerectangles.svg	stimuli_distractor_diamondtriangles.svg	21	yes	57	0	645	0	0			0	0			1				0	
6.6.1	mac	2023-06-02	07:03:42	07:11:37	470985	60f4e3ab507bbb123f866e88	4	1	main_z	7	main_z	9	stimuli_target_rectanglediamonds.svg	stimuli_distractor_diamondtriangles.svg	6	yes	0	0	2000	0	0			0	0			1				0	
6.6.1	mac	2023-06-02	07:03:42	07:11:37	470985	60f4e3ab507bbb123f866e88	4	1	main_z	7	advance_on_keypress_ZEE	10	stimuli_target_rectanglediamonds.svg	stimuli_distractor_diamondtriangles.svg	6	yes	57	0	428	0	0			0	0			1				0	
6.6.1	mac	2023-06-02	07:03:42	07:11:40	474052	60f4e3ab507bbb123f866e88	4	1	main_z	7	main_z	11	stimuli_target_rectanglediamonds.svg	stimuli_distractor_trianglediamonds.svg	2	yes	0	0	2000	0	0			0	0			1				0	
6.6.1	mac	2023-06-02	07:03:42	07:11:40	474052	60f4e3ab507bbb123f866e88	4	1	main_z	7	advance_on_keypress_ZEE	12	stimuli_target_rectanglediamonds.svg	stimuli_distractor_trianglediamonds.svg	2	yes	57	0	496	0	0			0	0			1				0	
6.6.1	mac	2023-06-02	07:03:42	07:11:42	475929	60f4e3ab507bbb123f866e88	4	1	main_z	7	main_z	13	stimuli_distractor_trianglediamonds.svg	stimuli_target_rectangletriangles.svg	9	yes	44	1	741	0	0			0	0			1				0	
6.6.1	mac	2023-06-02	07:03:42	07:11:42	475929	60f4e3ab507bbb123f866e88	4	1	main_z	7	advance_on_keypress_ZEE	14	stimuli_distractor_trianglediamonds.svg	stimuli_target_rectangletriangles.svg	9	yes	57	0	637	0	0			0	0			1				0	
6.6.1	mac	2023-06-02	07:03:42	07:11:44	478393	60f4e3ab507bbb123f866e88	4	1	main_z	7	main_z	15	stimuli_target_squaretriangles.svg	stimuli_distractor_trianglediamonds.svg	3	yes	44	1	1173	0	0			0	0			1				0	
6.6.1	mac	2023-06-02	07:03:42	07:11:44	478393	60f4e3ab507bbb123f866e88	4	1	main_z	7	advance_on_keypress_ZEE	16	stimuli_target_squaretriangles.svg	stimuli_distractor_trianglediamonds.svg	3	yes	57	0	1167	0	0			0	0			1				0	
6.6.1	mac	2023-06-02	07:03:42	07:11:48	482185	60f4e3ab507bbb123f866e88	4	1	main_z	7	main_z	17	stimuli_target_squaretriangles.svg	stimuli_distractor_diamondtriangles.svg	7	yes	0	0	2000	0	0			0	0			1				0	
6.6.1	mac	2023-06-02	07:03:42	07:11:48	482185	60f4e3ab507bbb123f866e88	4	1	main_z	7	advance_on_keypress_ZEE	18	stimuli_target_squaretriangles.svg	stimuli_distractor_diamondtriangles.svg	7	yes	57	0	424	0	0			0	0			1				0	
6.6.1	mac	2023-06-02	07:03:42	07:11:51	484742	60f4e3ab507bbb123f866e88	4	1	main_z	7	main_z	19	stimuli_distractor_trianglediamonds.svg	stimuli_distractor_trianglediamonds.svg	33	no	44	0	1486	0	0			0	0			1				0	
6.6.1	mac	2023-06-02	07:03:42	07:11:51	484742	60f4e3ab507bbb123f866e88	4	1	main_z	7	advance_on_keypress_ZEE	20	stimuli_distractor_trianglediamonds.svg	stimuli_distractor_trianglediamonds.svg	33	no	57	0	567	0	0			0	0			1				0	
6.6.1	mac	2023-06-02	07:03:42	07:11:53	486953	60f4e3ab507bbb123f866e88	4	1	main_z	7	main_z	21	stimuli_distractor_diamondtriangles.svg	stimuli_target_trianglesquares.svg	30	yes	44	1	1014	0	0			0	0			1				0	
6.6.1	mac	2023-06-02	07:03:42	07:11:53	486953	60f4e3ab507bbb123f866e88	4	1	main_z	7	advance_on_keypress_ZEE	22	stimuli_distractor_diamondtriangles.svg	stimuli_target_trianglesquares.svg	30	yes	57	0	762	0	0			0	0			1				0	
6.6.1	mac	2023-06-02	07:03:42	07:11:55	489255	60f4e3ab507bbb123f866e88	4	1	main_z	7	main_z	23	stimuli_target_diamondsquares.svg	stimuli_distractor_diamondtriangles.svg	24	yes	44	1	899	0	0			0	0			1				0	
6.6.1	mac	2023-06-02	07:03:42	07:11:55	489255	60f4e3ab507bbb123f866e88	4	1	main_z	7	advance_on_keypress_ZEE	24	stimuli_target_diamondsquares.svg	stimuli_distractor_diamondtriangles.svg	24	yes	57	0	673	0	0			0	0			1				0	
6.6.1	mac	2023-06-02	07:03:42	07:11:59	492570	60f4e3ab507bbb123f866e88	4	1	main_z	7	main_z	25	stimuli_distractor_trianglediamonds.svg	stimuli_target_trianglerectangles.svg	25	yes	0	0	2000	0	0			0	0			1				0	
6.6.1	mac	2023-06-02	07:03:42	07:11:59	492570	60f4e3ab507bbb123f866e88	4	1	main_z	7	advance_on_keypress_ZEE	26	stimuli_distractor_trianglediamonds.svg	stimuli_target_trianglerectangles.svg	25	yes	57	0	594	0	0			0	0			1				0	
6.6.1	mac	2023-06-02	07:03:42	07:12:01	494691	60f4e3ab507bbb123f866e88	4	1	main_z	7	main_z	27	stimuli_target_squarediamonds.svg	stimuli_distractor_diamondtriangles.svg	8	yes	44	1	885	0	0			0	0			1				0	
6.6.1	mac	2023-06-02	07:03:42	07:12:01	494691	60f4e3ab507bbb123f866e88	4	1	main_z	7	advance_on_keypress_ZEE	28	stimuli_target_squarediamonds.svg	stimuli_distractor_diamondtriangles.svg	8	yes	57	0	748	0	0			0	0			1				0	
6.6.1	mac	2023-06-02	07:03:42	07:12:04	498070	60f4e3ab507bbb123f866e88	4	1	main_z	7	main_z	29	stimuli_target_rectangletriangles.svg	stimuli_distractor_trianglediamonds.svg	1	yes	0	0	2000	0	0			0	0			1				0	
6.6.1	mac	2023-06-02	07:03:42	07:12:04	498070	60f4e3ab507bbb123f866e88	4	1	main_z	7	advance_on_keypress_ZEE	30	stimuli_target_rectangletriangles.svg	stimuli_distractor_trianglediamonds.svg	1	yes	57	0	662	0	0			0	0			1				0	
6.6.1	mac	2023-06-02	07:03:42	07:12:06	500278	60f4e3ab507bbb123f866e88	4	1	main_z	7	main_z	31	stimuli_distractor_trianglediamonds.svg	stimuli_target_diamondrectangles.svg	27	yes	44	1	905	0	0			0	0			1				0	
6.6.1	mac	2023-06-02	07:03:42	07:12:06	500278	60f4e3ab507bbb123f866e88	4	1	main_z	7	advance_on_keypress_ZEE	32	stimuli_distractor_trianglediamonds.svg	stimuli_target_diamondrectangles.svg	27	yes	57	0	801	0	0			0	0			1				0	
6.6.1	mac	2023-06-02	07:03:42	07:12:09	502823	60f4e3ab507bbb123f866e88	4	1	main_z	7	main_z	33	stimuli_distractor_diamondtriangles.svg	stimuli_target_squaretriangles.svg	15	yes	44	1	1117	0	0			0	0			1				0	
6.6.1	mac	2023-06-02	07:03:42	07:12:09	502823	60f4e3ab507bbb123f866e88	4	1	main_z	7	advance_on_keypress_ZEE	34	stimuli_distractor_diamondtriangles.svg	stimuli_target_squaretriangles.svg	15	yes	57	0	1349	0	0			0	0			1				0	
6.6.1	mac	2023-06-02	07:03:42	07:12:12	505681	60f4e3ab507bbb123f866e88	4	1	main_z	7	main_z	35	stimuli_target_trianglerectangles.svg	stimuli_distractor_trianglediamonds.svg	17	yes	44	1	875	0	0			0	0			1				0	
6.6.1	mac	2023-06-02	07:03:42	07:12:12	505681	60f4e3ab507bbb123f866e88	4	1	main_z	7	advance_on_keypress_ZEE	36	stimuli_target_trianglerectangles.svg	stimuli_distractor_trianglediamonds.svg	17	yes	57	0	1019	0	0			0	0			1				0	
6.6.1	mac	2023-06-02	07:03:42	07:12:15	509337	60f4e3ab507bbb123f866e88	4	1	main_z	7	main_z	37	stimuli_target_rectangletriangles.svg	stimuli_distractor_diamondtriangles.svg	5	yes	0	0	2000	0	0			0	0			1				0	
6.6.1	mac	2023-06-02	07:03:42	07:12:15	509337	60f4e3ab507bbb123f866e88	4	1	main_z	7	advance_on_keypress_ZEE	38	stimuli_target_rectangletriangles.svg	stimuli_distractor_diamondtriangles.svg	5	yes	57	0	1664	0	0			0	0			1				0	
6.6.1	mac	2023-06-02	07:03:42	07:12:19	512491	60f4e3ab507bbb123f866e88	4	1	main_z	7	main_z	39	stimuli_distractor_trianglediamonds.svg	stimuli_target_squaretriangles.svg	11	yes	44	1	851	0	0			0	0			1				0	
6.6.1	mac	2023-06-02	07:03:42	07:12:19	512491	60f4e3ab507bbb123f866e88	4	1	main_z	7	advance_on_keypress_ZEE	40	stimuli_distractor_trianglediamonds.svg	stimuli_target_squaretriangles.svg	11	yes	57	0	815	0	0			0	0			1				0	
6.6.1	mac	2023-06-02	07:03:42	07:12:21	514797	60f4e3ab507bbb123f866e88	4	1	main_z	7	main_z	41	stimuli_target_diamondsquares.svg	stimuli_distractor_trianglediamonds.svg	20	yes	44	1	857	0	0			0	0			1				0	
6.6.1	mac	2023-06-02	07:03:42	07:12:21	514797	60f4e3ab507bbb123f866e88	4	1	main_z	7	advance_on_keypress_ZEE	42	stimuli_target_diamondsquares.svg	stimuli_distractor_trianglediamonds.svg	20	yes	57	0	736	0	0			0	0			1				0	
6.6.1	mac	2023-06-02	07:03:42	07:12:23	516964	60f4e3ab507bbb123f866e88	4	1	main_z	7	main_z	43	stimuli_distractor_diamondtriangles.svg	stimuli_target_squarediamonds.svg	16	yes	44	1	790	0	0			0	0			1				0	
6.6.1	mac	2023-06-02	07:03:42	07:12:23	516964	60f4e3ab507bbb123f866e88	4	1	main_z	7	advance_on_keypress_ZEE	44	stimuli_distractor_diamondtriangles.svg	stimuli_target_squarediamonds.svg	16	yes	57	0	741	0	0			0	0			1				0	
6.6.1	mac	2023-06-02	07:03:42	07:12:26	520355	60f4e3ab507bbb123f866e88	4	1	main_z	7	main_z	45	stimuli_distractor_trianglediamonds.svg	stimuli_distractor_diamondtriangles.svg	36	no	0	1	2000	0	0			0	0			1				0	
6.6.1	mac	2023-06-02	07:03:42	07:12:26	520355	60f4e3ab507bbb123f866e88	4	1	main_z	7	advance_on_keypress_ZEE	46	stimuli_distractor_trianglediamonds.svg	stimuli_distractor_diamondtriangles.svg	36	no	57	0	571	0	0			0	0			1				0	
6.6.1	mac	2023-06-02	07:03:42	07:12:29	522557	60f4e3ab507bbb123f866e88	4	1	main_z	7	main_z	47	stimuli_target_diamondrectangles.svg	stimuli_distractor_trianglediamonds.svg	19	yes	44	1	999	0	0			0	0			1				0	
6.6.1	mac	2023-06-02	07:03:42	07:12:29	522557	60f4e3ab507bbb123f866e88	4	1	main_z	7	advance_on_keypress_ZEE	48	stimuli_target_diamondrectangles.svg	stimuli_distractor_trianglediamonds.svg	19	yes	57	0	720	0	0			0	0			1				0	
6.6.1	mac	2023-06-02	07:03:42	07:12:31	524891	60f4e3ab507bbb123f866e88	4	1	main_z	7	main_z	49	stimuli_target_trianglesquares.svg	stimuli_distractor_diamondtriangles.svg	22	yes	44	1	982	0	0			0	0			1				0	
6.6.1	mac	2023-06-02	07:03:42	07:12:31	524891	60f4e3ab507bbb123f866e88	4	1	main_z	7	advance_on_keypress_ZEE	50	stimuli_target_trianglesquares.svg	stimuli_distractor_diamondtriangles.svg	22	yes	57	0	867	0	0			0	0			1				0	
6.6.1	mac	2023-06-02	07:03:42	07:12:33	527381	60f4e3ab507bbb123f866e88	4	1	main_z	7	main_z	51	stimuli_distractor_diamondtriangles.svg	stimuli_target_trianglerectangles.svg	29	yes	44	1	989	0	0			0	0			1				0	
6.6.1	mac	2023-06-02	07:03:42	07:12:33	527381	60f4e3ab507bbb123f866e88	4	1	main_z	7	advance_on_keypress_ZEE	52	stimuli_distractor_diamondtriangles.svg	stimuli_target_trianglerectangles.svg	29	yes	57	0	864	0	0			0	0			1				0	
6.6.1	mac	2023-06-02	07:03:42	07:12:36	530006	60f4e3ab507bbb123f866e88	4	1	main_z	7	main_z	53	stimuli_distractor_diamondtriangles.svg	stimuli_target_diamondrectangles.svg	31	yes	44	1	1114	0	0			0	0			1				0	
6.6.1	mac	2023-06-02	07:03:42	07:12:36	530006	60f4e3ab507bbb123f866e88	4	1	main_z	7	advance_on_keypress_ZEE	54	stimuli_distractor_diamondtriangles.svg	stimuli_target_diamondrectangles.svg	31	yes	57	0	890	0	0			0	0			1				0	
6.6.1	mac	2023-06-02	07:03:42	07:12:39	532632	60f4e3ab507bbb123f866e88	4	1	main_z	7	main_z	55	stimuli_distractor_trianglediamonds.svg	stimuli_target_diamondsquares.svg	28	yes	44	1	1091	0	0			0	0			1				0	
6.6.1	mac	2023-06-02	07:03:42	07:12:39	532632	60f4e3ab507bbb123f866e88	4	1	main_z	7	advance_on_keypress_ZEE	56	stimuli_distractor_trianglediamonds.svg	stimuli_target_diamondsquares.svg	28	yes	57	0	922	0	0			0	0			1				0	
6.6.1	mac	2023-06-02	07:03:42	07:12:42	536188	60f4e3ab507bbb123f866e88	4	1	main_z	7	main_z	57	stimuli_distractor_trianglediamonds.svg	stimuli_target_rectanglediamonds.svg	10	yes	0	0	2000	0	0			0	0			1				0	
6.6.1	mac	2023-06-02	07:03:42	07:12:42	536188	60f4e3ab507bbb123f866e88	4	1	main_z	7	advance_on_keypress_ZEE	58	stimuli_distractor_trianglediamonds.svg	stimuli_target_rectanglediamonds.svg	10	yes	57	0	1064	0	0			0	0			1				0	
6.6.1	mac	2023-06-02	07:03:42	07:12:45	538820	60f4e3ab507bbb123f866e88	4	1	main_z	7	main_z	59	stimuli_distractor_trianglediamonds.svg	stimuli_distractor_diamondtriangles.svg	35	no	44	0	928	0	0			0	0			1				0	
6.6.1	mac	2023-06-02	07:03:42	07:12:45	538820	60f4e3ab507bbb123f866e88	4	1	main_z	7	advance_on_keypress_ZEE	60	stimuli_distractor_trianglediamonds.svg	stimuli_distractor_diamondtriangles.svg	35	no	57	0	670	0	0			0	0			1				0	
6.6.1	mac	2023-06-02	07:03:42	07:12:48	542123	60f4e3ab507bbb123f866e88	4	1	main_z	7	main_z	61	stimuli_distractor_diamondtriangles.svg	stimuli_distractor_diamondtriangles.svg	39	no	0	1	2000	0	0			0	0			1				0	
6.6.1	mac	2023-06-02	07:03:42	07:12:48	542123	60f4e3ab507bbb123f866e88	4	1	main_z	7	advance_on_keypress_ZEE	62	stimuli_distractor_diamondtriangles.svg	stimuli_distractor_diamondtriangles.svg	39	no	57	0	598	0	0			0	0			1				0	
6.6.1	mac	2023-06-02	07:03:42	07:12:50	544163	60f4e3ab507bbb123f866e88	4	1	main_z	7	main_z	63	stimuli_distractor_diamondtriangles.svg	stimuli_target_diamondsquares.svg	32	yes	44	1	803	0	0			0	0			1				0	
6.6.1	mac	2023-06-02	07:03:42	07:12:50	544163	60f4e3ab507bbb123f866e88	4	1	main_z	7	advance_on_keypress_ZEE	64	stimuli_distractor_diamondtriangles.svg	stimuli_target_diamondsquares.svg	32	yes	57	0	734	0	0			0	0			1				0	
6.6.1	mac	2023-06-02	07:03:42	07:12:54	547523	60f4e3ab507bbb123f866e88	4	1	main_z	7	main_z	65	stimuli_distractor_trianglediamonds.svg	stimuli_target_squarediamonds.svg	12	yes	0	0	2000	0	0			0	0			1				0	
6.6.1	mac	2023-06-02	07:03:42	07:12:54	547523	60f4e3ab507bbb123f866e88	4	1	main_z	7	advance_on_keypress_ZEE	66	stimuli_distractor_trianglediamonds.svg	stimuli_target_squarediamonds.svg	12	yes	57	0	1050	0	0			0	0			1				0	
6.6.1	mac	2023-06-02	07:03:42	07:12:56	549785	60f4e3ab507bbb123f866e88	4	1	main_z	7	main_z	67	stimuli_distractor_diamondtriangles.svg	stimuli_target_rectangletriangles.svg	13	yes	44	1	575	0	0			0	0			1				0	
6.6.1	mac	2023-06-02	07:03:42	07:12:56	549785	60f4e3ab507bbb123f866e88	4	1	main_z	7	advance_on_keypress_ZEE	68	stimuli_distractor_diamondtriangles.svg	stimuli_target_rectangletriangles.svg	13	yes	57	0	804	0	0			0	0			1				0	
6.6.1	mac	2023-06-02	07:03:42	07:12:59	552454	60f4e3ab507bbb123f866e88	4	1	main_z	7	main_z	69	stimuli_distractor_diamondtriangles.svg	stimuli_distractor_diamondtriangles.svg	40	no	44	0	1228	0	0			0	0			1				0	
6.6.1	mac	2023-06-02	07:03:42	07:12:59	552454	60f4e3ab507bbb123f866e88	4	1	main_z	7	advance_on_keypress_ZEE	70	stimuli_distractor_diamondtriangles.svg	stimuli_distractor_diamondtriangles.svg	40	no	57	0	1152	0	0			0	0			1				0	
6.6.1	mac	2023-06-02	07:03:42	07:13:02	555432	60f4e3ab507bbb123f866e88	4	1	main_z	7	main_z	71	stimuli_distractor_trianglediamonds.svg	stimuli_target_trianglesquares.svg	26	yes	44	1	1189	0	0			0	0			1				0	
6.6.1	mac	2023-06-02	07:03:42	07:13:02	555432	60f4e3ab507bbb123f866e88	4	1	main_z	7	advance_on_keypress_ZEE	72	stimuli_distractor_trianglediamonds.svg	stimuli_target_trianglesquares.svg	26	yes	57	0	900	0	0			0	0			1				0	
6.6.1	mac	2023-06-02	07:03:42	07:13:05	558958	60f4e3ab507bbb123f866e88	4	1	main_z	7	main_z	73	stimuli_target_squarediamonds.svg	stimuli_distractor_trianglediamonds.svg	4	yes	0	0	2000	0	0			0	0			1				0	
6.6.1	mac	2023-06-02	07:03:42	07:13:05	558958	60f4e3ab507bbb123f866e88	4	1	main_z	7	advance_on_keypress_ZEE	74	stimuli_target_squarediamonds.svg	stimuli_distractor_trianglediamonds.svg	4	yes	57	0	1551	0	0			0	0			1				0	
6.6.1	mac	2023-06-02	07:03:42	07:13:09	563140	60f4e3ab507bbb123f866e88	4	1	main_z	7	main_z	75	stimuli_distractor_diamondtriangles.svg	stimuli_distractor_trianglediamonds.svg	38	no	0	1	2000	0	0			0	0			1				0	
6.6.1	mac	2023-06-02	07:03:42	07:13:09	563140	60f4e3ab507bbb123f866e88	4	1	main_z	7	advance_on_keypress_ZEE	76	stimuli_distractor_diamondtriangles.svg	stimuli_distractor_trianglediamonds.svg	38	no	57	0	746	0	0			0	0			1				0	
6.6.1	mac	2023-06-02	07:03:42	07:13:13	566525	60f4e3ab507bbb123f866e88	4	1	main_z	7	main_z	77	stimuli_distractor_trianglediamonds.svg	stimuli_distractor_trianglediamonds.svg	34	no	0	1	2000	0	0			0	0			1				0	
6.6.1	mac	2023-06-02	07:03:42	07:13:13	566525	60f4e3ab507bbb123f866e88	4	1	main_z	7	advance_on_keypress_ZEE	78	stimuli_distractor_trianglediamonds.svg	stimuli_distractor_trianglediamonds.svg	34	no	57	0	1840	0	0			0	0			1				0	
6.6.1	mac	2023-06-02	07:03:42	07:13:16	570255	60f4e3ab507bbb123f866e88	4	1	main_z	7	main_z	79	stimuli_distractor_diamondtriangles.svg	stimuli_target_rectanglediamonds.svg	14	yes	44	1	1242	0	0			0	0			1				0	
6.6.1	mac	2023-06-02	07:03:42	07:13:16	570255	60f4e3ab507bbb123f866e88	4	1	main_z	7	advance_on_keypress_ZEE	80	stimuli_distractor_diamondtriangles.svg	stimuli_target_rectanglediamonds.svg	14	yes	57	0	527	0	0			0	0			1				0	
6.6.1	mac	2023-06-02	07:03:42	07:13:20	573425	60f4e3ab507bbb123f866e88	4	1	main_z	7	main_z	81	stimuli_distractor_diamondtriangles.svg	stimuli_distractor_diamondtriangles.svg	39	no	0	1	2000	0	0			0	0			1				0	
6.6.1	mac	2023-06-02	07:03:42	07:13:20	573425	60f4e3ab507bbb123f866e88	4	1	main_z	7	advance_on_keypress_ZEE	82	stimuli_distractor_diamondtriangles.svg	stimuli_distractor_diamondtriangles.svg	39	no	57	0	2654	0	0			0	0			1				0	
6.6.1	mac	2023-06-02	07:03:42	07:13:24	577785	60f4e3ab507bbb123f866e88	4	1	main_z	7	main_z	83	stimuli_distractor_diamondtriangles.svg	stimuli_target_diamondrectangles.svg	31	yes	44	1	1073	0	0			0	0			1				0	
6.6.1	mac	2023-06-02	07:03:42	07:13:24	577785	60f4e3ab507bbb123f866e88	4	1	main_z	7	advance_on_keypress_ZEE	84	stimuli_distractor_diamondtriangles.svg	stimuli_target_diamondrectangles.svg	31	yes	57	0	953	0	0			0	0			1				0	
6.6.1	mac	2023-06-02	07:03:42	07:13:27	581376	60f4e3ab507bbb123f866e88	4	1	main_z	7	main_z	85	stimuli_distractor_diamondtriangles.svg	stimuli_target_rectangletriangles.svg	13	yes	0	0	2000	0	0			0	0			1				0	
6.6.1	mac	2023-06-02	07:03:42	07:13:27	581376	60f4e3ab507bbb123f866e88	4	1	main_z	7	advance_on_keypress_ZEE	86	stimuli_distractor_diamondtriangles.svg	stimuli_target_rectangletriangles.svg	13	yes	57	0	963	0	0			0	0			1				0	
6.6.1	mac	2023-06-02	07:03:42	07:13:30	583981	60f4e3ab507bbb123f866e88	4	1	main_z	7	main_z	87	stimuli_distractor_trianglediamonds.svg	stimuli_distractor_diamondtriangles.svg	35	no	44	0	1002	0	0			0	0			1				0	
6.6.1	mac	2023-06-02	07:03:42	07:13:30	583981	60f4e3ab507bbb123f866e88	4	1	main_z	7	advance_on_keypress_ZEE	88	stimuli_distractor_trianglediamonds.svg	stimuli_distractor_diamondtriangles.svg	35	no	57	0	675	0	0			0	0			1				0	
6.6.1	mac	2023-06-02	07:03:42	07:13:33	587293	60f4e3ab507bbb123f866e88	4	1	main_z	7	main_z	89	stimuli_distractor_diamondtriangles.svg	stimuli_target_rectanglediamonds.svg	14	yes	0	0	2000	0	0			0	0			1				0	
6.6.1	mac	2023-06-02	07:03:42	07:13:33	587293	60f4e3ab507bbb123f866e88	4	1	main_z	7	advance_on_keypress_ZEE	90	stimuli_distractor_diamondtriangles.svg	stimuli_target_rectanglediamonds.svg	14	yes	57	0	549	0	0			0	0			1				0	
6.6.1	mac	2023-06-02	07:03:42	07:13:35	589138	60f4e3ab507bbb123f866e88	4	1	main_z	7	main_z	91	stimuli_distractor_trianglediamonds.svg	stimuli_target_diamondrectangles.svg	27	yes	44	1	659	0	0			0	0			1				0	
6.6.1	mac	2023-06-02	07:03:42	07:13:35	589138	60f4e3ab507bbb123f866e88	4	1	main_z	7	advance_on_keypress_ZEE	92	stimuli_distractor_trianglediamonds.svg	stimuli_target_diamondrectangles.svg	27	yes	57	0	1000	0	0			0	0			1				0	
6.6.1	mac	2023-06-02	07:03:42	07:13:38	591688	60f4e3ab507bbb123f866e88	4	1	main_z	7	main_z	93	stimuli_distractor_diamondtriangles.svg	stimuli_target_trianglesquares.svg	30	yes	44	1	908	0	0			0	0			1				0	
6.6.1	mac	2023-06-02	07:03:42	07:13:38	591688	60f4e3ab507bbb123f866e88	4	1	main_z	7	advance_on_keypress_ZEE	94	stimuli_distractor_diamondtriangles.svg	stimuli_target_trianglesquares.svg	30	yes	57	0	1086	0	0			0	0			1				0	
6.6.1	mac	2023-06-02	07:03:42	07:13:42	595410	60f4e3ab507bbb123f866e88	4	1	main_z	7	main_z	95	stimuli_distractor_diamondtriangles.svg	stimuli_distractor_diamondtriangles.svg	40	no	0	1	2000	0	0			0	0			1				0	
6.6.1	mac	2023-06-02	07:03:42	07:13:42	595410	60f4e3ab507bbb123f866e88	4	1	main_z	7	advance_on_keypress_ZEE	96	stimuli_distractor_diamondtriangles.svg	stimuli_distractor_diamondtriangles.svg	40	no	57	0	624	0	0			0	0			1				0	
6.6.1	mac	2023-06-02	07:03:42	07:13:43	597355	60f4e3ab507bbb123f866e88	4	1	main_z	7	main_z	97	stimuli_distractor_diamondtriangles.svg	stimuli_target_trianglerectangles.svg	29	yes	44	1	676	0	0			0	0			1				0	
6.6.1	mac	2023-06-02	07:03:42	07:13:43	597355	60f4e3ab507bbb123f866e88	4	1	main_z	7	advance_on_keypress_ZEE	98	stimuli_distractor_diamondtriangles.svg	stimuli_target_trianglerectangles.svg	29	yes	57	0	1443	0	0			0	0			1				0	
6.6.1	mac	2023-06-02	07:03:42	07:13:48	601443	60f4e3ab507bbb123f866e88	4	1	main_z	7	main_z	99	stimuli_target_squarediamonds.svg	stimuli_distractor_diamondtriangles.svg	8	yes	0	0	2000	0	0			0	0			1				0	
6.6.1	mac	2023-06-02	07:03:42	07:13:48	601443	60f4e3ab507bbb123f866e88	4	1	main_z	7	advance_on_keypress_ZEE	100	stimuli_target_squarediamonds.svg	stimuli_distractor_diamondtriangles.svg	8	yes	57	0	676	0	0			0	0			1				0	
6.6.1	mac	2023-06-02	07:03:42	07:13:51	604760	60f4e3ab507bbb123f866e88	4	1	main_z	7	main_z	101	stimuli_distractor_trianglediamonds.svg	stimuli_distractor_trianglediamonds.svg	33	no	0	1	2000	0	0			0	0			1				0	
6.6.1	mac	2023-06-02	07:03:42	07:13:51	604760	60f4e3ab507bbb123f866e88	4	1	main_z	7	advance_on_keypress_ZEE	102	stimuli_distractor_trianglediamonds.svg	stimuli_distractor_trianglediamonds.svg	33	no	57	0	2096	0	0			0	0			1				0	
6.6.1	mac	2023-06-02	07:03:42	07:13:54	608220	60f4e3ab507bbb123f866e88	4	1	main_z	7	main_z	103	stimuli_target_diamondrectangles.svg	stimuli_distractor_trianglediamonds.svg	19	yes	44	1	722	0	0			0	0			1				0	
6.6.1	mac	2023-06-02	07:03:42	07:13:54	608220	60f4e3ab507bbb123f866e88	4	1	main_z	7	advance_on_keypress_ZEE	104	stimuli_target_diamondrectangles.svg	stimuli_distractor_trianglediamonds.svg	19	yes	57	0	1492	0	0			0	0			1				0	
6.6.1	mac	2023-06-02	07:03:42	07:13:58	612361	60f4e3ab507bbb123f866e88	4	1	main_z	7	main_z	105	stimuli_distractor_diamondtriangles.svg	stimuli_target_squarediamonds.svg	16	yes	0	0	2000	0	0			0	0			1				0	
6.6.1	mac	2023-06-02	07:03:42	07:13:58	612361	60f4e3ab507bbb123f866e88	4	1	main_z	7	advance_on_keypress_ZEE	106	stimuli_distractor_diamondtriangles.svg	stimuli_target_squarediamonds.svg	16	yes	57	0	1202	0	0			0	0			1				0	
6.6.1	mac	2023-06-02	07:03:42	07:14:02	616195	60f4e3ab507bbb123f866e88	4	1	main_z	7	main_z	107	stimuli_distractor_trianglediamonds.svg	stimuli_distractor_diamondtriangles.svg	36	no	0	1	2000	0	0			0	0			1				0	
6.6.1	mac	2023-06-02	07:03:42	07:14:02	616195	60f4e3ab507bbb123f866e88	4	1	main_z	7	advance_on_keypress_ZEE	108	stimuli_distractor_trianglediamonds.svg	stimuli_distractor_diamondtriangles.svg	36	no	57	0	659	0	0			0	0			1				0	
6.6.1	mac	2023-06-02	07:03:42	07:14:06	619494	60f4e3ab507bbb123f866e88	4	1	main_z	7	main_z	109	stimuli_distractor_trianglediamonds.svg	stimuli_distractor_trianglediamonds.svg	34	no	0	1	2000	0	0			0	0			1				0	
6.6.1	mac	2023-06-02	07:03:42	07:14:06	619494	60f4e3ab507bbb123f866e88	4	1	main_z	7	advance_on_keypress_ZEE	110	stimuli_distractor_trianglediamonds.svg	stimuli_distractor_trianglediamonds.svg	34	no	57	0	705	0	0			0	0			1				0	
6.6.1	mac	2023-06-02	07:03:42	07:14:09	622827	60f4e3ab507bbb123f866e88	4	1	main_z	7	main_z	111	stimuli_distractor_trianglediamonds.svg	stimuli_target_rectangletriangles.svg	9	yes	0	0	2000	0	0			0	0			1				0	
6.6.1	mac	2023-06-02	07:03:42	07:14:09	622827	60f4e3ab507bbb123f866e88	4	1	main_z	7	advance_on_keypress_ZEE	112	stimuli_distractor_trianglediamonds.svg	stimuli_target_rectangletriangles.svg	9	yes	57	0	591	0	0			0	0			1				0	
6.6.1	mac	2023-06-02	07:03:42	07:14:11	624774	60f4e3ab507bbb123f866e88	4	1	main_z	7	main_z	113	stimuli_target_rectangletriangles.svg	stimuli_distractor_diamondtriangles.svg	5	yes	44	1	710	0	0			0	0			1				0	
6.6.1	mac	2023-06-02	07:03:42	07:14:11	624774	60f4e3ab507bbb123f866e88	4	1	main_z	7	advance_on_keypress_ZEE	114	stimuli_target_rectangletriangles.svg	stimuli_distractor_diamondtriangles.svg	5	yes	57	0	628	0	0			0	0			1				0	
6.6.1	mac	2023-06-02	07:03:42	07:14:14	628045	60f4e3ab507bbb123f866e88	4	1	main_z	7	main_z	115	stimuli_target_squaretriangles.svg	stimuli_distractor_diamondtriangles.svg	7	yes	0	0	2000	0	0			0	0			1				0	
6.6.1	mac	2023-06-02	07:03:42	07:14:14	628045	60f4e3ab507bbb123f866e88	4	1	main_z	7	advance_on_keypress_ZEE	116	stimuli_target_squaretriangles.svg	stimuli_distractor_diamondtriangles.svg	7	yes	57	0	567	0	0			0	0			1				0	
6.6.1	mac	2023-06-02	07:03:42	07:14:17	631245	60f4e3ab507bbb123f866e88	4	1	main_z	7	main_z	117	stimuli_distractor_diamondtriangles.svg	stimuli_distractor_trianglediamonds.svg	37	no	0	1	2000	0	0			0	0			1				0	
6.6.1	mac	2023-06-02	07:03:42	07:14:17	631245	60f4e3ab507bbb123f866e88	4	1	main_z	7	advance_on_keypress_ZEE	118	stimuli_distractor_diamondtriangles.svg	stimuli_distractor_trianglediamonds.svg	37	no	57	0	657	0	0			0	0			1				0	
6.6.1	mac	2023-06-02	07:03:42	07:14:19	633186	60f4e3ab507bbb123f866e88	4	1	main_z	7	main_z	119	stimuli_distractor_trianglediamonds.svg	stimuli_target_trianglesquares.svg	26	yes	44	1	636	0	0			0	0			1				0	
6.6.1	mac	2023-06-02	07:03:42	07:14:19	633186	60f4e3ab507bbb123f866e88	4	1	main_z	7	advance_on_keypress_ZEE	120	stimuli_distractor_trianglediamonds.svg	stimuli_target_trianglesquares.svg	26	yes	57	0	634	0	0			0	0			1				0	
6.6.1	mac	2023-06-02	07:03:42	07:14:23	636446	60f4e3ab507bbb123f866e88	4	1	main_z	7	main_z	121	stimuli_distractor_trianglediamonds.svg	stimuli_target_rectanglediamonds.svg	10	yes	0	0	2000	0	0			0	0			1				0	
6.6.1	mac	2023-06-02	07:03:42	07:14:23	636446	60f4e3ab507bbb123f866e88	4	1	main_z	7	advance_on_keypress_ZEE	122	stimuli_distractor_trianglediamonds.svg	stimuli_target_rectanglediamonds.svg	10	yes	57	0	2688	0	0			0	0			1				0	
6.6.1	mac	2023-06-02	07:03:42	07:14:27	640500	60f4e3ab507bbb123f866e88	4	1	main_z	7	main_z	123	stimuli_target_trianglerectangles.svg	stimuli_distractor_diamondtriangles.svg	21	yes	44	1	734	0	0			0	0			1				0	
6.6.1	mac	2023-06-02	07:03:42	07:14:27	640500	60f4e3ab507bbb123f866e88	4	1	main_z	7	advance_on_keypress_ZEE	124	stimuli_target_trianglerectangles.svg	stimuli_distractor_diamondtriangles.svg	21	yes	57	0	646	0	0			0	0			1				0	
6.6.1	mac	2023-06-02	07:03:42	07:14:29	642953	60f4e3ab507bbb123f866e88	4	1	main_z	7	main_z	125	stimuli_target_trianglesquares.svg	stimuli_distractor_diamondtriangles.svg	22	yes	44	1	1171	0	0			0	0			1				0	
6.6.1	mac	2023-06-02	07:03:42	07:14:29	642953	60f4e3ab507bbb123f866e88	4	1	main_z	7	advance_on_keypress_ZEE	126	stimuli_target_trianglesquares.svg	stimuli_distractor_diamondtriangles.svg	22	yes	57	0	1448	0	0			0	0			1				0	
6.6.1	mac	2023-06-02	07:03:42	07:14:33	647029	60f4e3ab507bbb123f866e88	4	1	main_z	7	main_z	127	stimuli_distractor_trianglediamonds.svg	stimuli_target_diamondsquares.svg	28	yes	0	0	2000	0	0			0	0			1				0	
6.6.1	mac	2023-06-02	07:03:42	07:14:33	647029	60f4e3ab507bbb123f866e88	4	1	main_z	7	advance_on_keypress_ZEE	128	stimuli_distractor_trianglediamonds.svg	stimuli_target_diamondsquares.svg	28	yes	57	0	575	0	0			0	0			1				0	
6.6.1	mac	2023-06-02	07:03:42	07:14:35	649233	60f4e3ab507bbb123f866e88	4	1	main_z	7	main_z	129	stimuli_target_diamondsquares.svg	stimuli_distractor_diamondtriangles.svg	24	yes	44	1	983	0	0			0	0			1				0	
6.6.1	mac	2023-06-02	07:03:42	07:14:35	649233	60f4e3ab507bbb123f866e88	4	1	main_z	7	advance_on_keypress_ZEE	130	stimuli_target_diamondsquares.svg	stimuli_distractor_diamondtriangles.svg	24	yes	57	0	782	0	0			0	0			1				0	
6.6.1	mac	2023-06-02	07:03:42	07:14:39	652647	60f4e3ab507bbb123f866e88	4	1	main_z	7	main_z	131	stimuli_target_squarediamonds.svg	stimuli_distractor_trianglediamonds.svg	4	yes	0	0	2000	0	0			0	0			1				0	
6.6.1	mac	2023-06-02	07:03:42	07:14:39	652647	60f4e3ab507bbb123f866e88	4	1	main_z	7	advance_on_keypress_ZEE	132	stimuli_target_squarediamonds.svg	stimuli_distractor_trianglediamonds.svg	4	yes	57	0	3135	0	0			0	0			1				0	
6.6.1	mac	2023-06-02	07:03:42	07:14:45	658415	60f4e3ab507bbb123f866e88	4	1	main_z	7	main_z	133	stimuli_target_rectanglediamonds.svg	stimuli_distractor_diamondtriangles.svg	6	yes	0	0	2000	0	0			0	0			1				0	
6.6.1	mac	2023-06-02	07:03:42	07:14:45	658415	60f4e3ab507bbb123f866e88	4	1	main_z	7	advance_on_keypress_ZEE	134	stimuli_target_rectanglediamonds.svg	stimuli_distractor_diamondtriangles.svg	6	yes	57	0	524	0	0			0	0			1				0	
6.6.1	mac	2023-06-02	07:03:42	07:14:47	660445	60f4e3ab507bbb123f866e88	4	1	main_z	7	main_z	135	stimuli_target_diamondrectangles.svg	stimuli_distractor_diamondtriangles.svg	23	yes	44	1	862	0	0			0	0			1				0	
6.6.1	mac	2023-06-02	07:03:42	07:14:47	660445	60f4e3ab507bbb123f866e88	4	1	main_z	7	advance_on_keypress_ZEE	136	stimuli_target_diamondrectangles.svg	stimuli_distractor_diamondtriangles.svg	23	yes	57	0	4618	0	0			0	0			1				0	
6.6.1	mac	2023-06-02	07:03:42	07:14:54	667698	60f4e3ab507bbb123f866e88	4	1	main_z	7	main_z	137	stimuli_target_trianglerectangles.svg	stimuli_distractor_trianglediamonds.svg	17	yes	0	0	2000	0	0			0	0			1				0	
6.6.1	mac	2023-06-02	07:03:42	07:14:54	667698	60f4e3ab507bbb123f866e88	4	1	main_z	7	advance_on_keypress_ZEE	138	stimuli_target_trianglerectangles.svg	stimuli_distractor_trianglediamonds.svg	17	yes	57	0	4649	0	0			0	0			1				0	
6.6.1	mac	2023-06-02	07:03:42	07:15:01	674983	60f4e3ab507bbb123f866e88	4	1	main_z	7	main_z	139	stimuli_target_squaretriangles.svg	stimuli_distractor_trianglediamonds.svg	3	yes	0	0	2000	0	0			0	0			1				0	
6.6.1	mac	2023-06-02	07:03:42	07:15:01	674983	60f4e3ab507bbb123f866e88	4	1	main_z	7	advance_on_keypress_ZEE	140	stimuli_target_squaretriangles.svg	stimuli_distractor_trianglediamonds.svg	3	yes	57	0	757	0	0			0	0			1				0	
6.6.1	mac	2023-06-02	07:03:42	07:15:04	678382	60f4e3ab507bbb123f866e88	4	1	main_z	7	main_z	141	stimuli_distractor_diamondtriangles.svg	stimuli_target_diamondsquares.svg	32	yes	0	0	2000	0	0			0	0			1				0	
6.6.1	mac	2023-06-02	07:03:42	07:15:04	678382	60f4e3ab507bbb123f866e88	4	1	main_z	7	advance_on_keypress_ZEE	142	stimuli_distractor_diamondtriangles.svg	stimuli_target_diamondsquares.svg	32	yes	57	0	547	0	0			0	0			1				0	
6.6.1	mac	2023-06-02	07:03:42	07:15:06	680248	60f4e3ab507bbb123f866e88	4	1	main_z	7	main_z	143	stimuli_target_trianglesquares.svg	stimuli_distractor_trianglediamonds.svg	18	yes	44	1	679	0	0			0	0			1				0	
6.6.1	mac	2023-06-02	07:03:42	07:15:06	680248	60f4e3ab507bbb123f866e88	4	1	main_z	7	advance_on_keypress_ZEE	144	stimuli_target_trianglesquares.svg	stimuli_distractor_trianglediamonds.svg	18	yes	57	0	579	0	0			0	0			1				0	
6.6.1	mac	2023-06-02	07:03:42	07:15:10	683466	60f4e3ab507bbb123f866e88	4	1	main_z	7	main_z	145	stimuli_distractor_diamondtriangles.svg	stimuli_distractor_trianglediamonds.svg	38	no	0	1	2000	0	0			0	0			1				0	
6.6.1	mac	2023-06-02	07:03:42	07:15:10	683466	60f4e3ab507bbb123f866e88	4	1	main_z	7	advance_on_keypress_ZEE	146	stimuli_distractor_diamondtriangles.svg	stimuli_distractor_trianglediamonds.svg	38	no	57	0	1525	0	0			0	0			1				0	
6.6.1	mac	2023-06-02	07:03:42	07:15:14	687602	60f4e3ab507bbb123f866e88	4	1	main_z	7	main_z	147	stimuli_target_rectangletriangles.svg	stimuli_distractor_trianglediamonds.svg	1	yes	44	1	1965	0	0			0	0			1				0	
6.6.1	mac	2023-06-02	07:03:42	07:15:14	687602	60f4e3ab507bbb123f866e88	4	1	main_z	7	advance_on_keypress_ZEE	148	stimuli_target_rectangletriangles.svg	stimuli_distractor_trianglediamonds.svg	1	yes	57	0	497	0	0			0	0			1				0	
6.6.1	mac	2023-06-02	07:03:42	07:15:17	690733	60f4e3ab507bbb123f866e88	4	1	main_z	7	main_z	149	stimuli_distractor_trianglediamonds.svg	stimuli_target_trianglerectangles.svg	25	yes	0	0	2000	0	0			0	0			1				0	
6.6.1	mac	2023-06-02	07:03:42	07:15:17	690733	60f4e3ab507bbb123f866e88	4	1	main_z	7	advance_on_keypress_ZEE	150	stimuli_distractor_trianglediamonds.svg	stimuli_target_trianglerectangles.svg	25	yes	57	0	524	0	0			0	0			1				0	
6.6.1	mac	2023-06-02	07:03:42	07:15:19	692786	60f4e3ab507bbb123f866e88	4	1	main_z	7	main_z	151	stimuli_target_diamondsquares.svg	stimuli_distractor_trianglediamonds.svg	20	yes	44	1	884	0	0			0	0			1				0	
6.6.1	mac	2023-06-02	07:03:42	07:15:19	692786	60f4e3ab507bbb123f866e88	4	1	main_z	7	advance_on_keypress_ZEE	152	stimuli_target_diamondsquares.svg	stimuli_distractor_trianglediamonds.svg	20	yes	57	0	589	0	0			0	0			1				0	
6.6.1	mac	2023-06-02	07:03:42	07:15:22	696001	60f4e3ab507bbb123f866e88	4	1	main_z	7	main_z	153	stimuli_distractor_diamondtriangles.svg	stimuli_target_squaretriangles.svg	15	yes	0	0	2000	0	0			0	0			1				0	
6.6.1	mac	2023-06-02	07:03:42	07:15:22	696001	60f4e3ab507bbb123f866e88	4	1	main_z	7	advance_on_keypress_ZEE	154	stimuli_distractor_diamondtriangles.svg	stimuli_target_squaretriangles.svg	15	yes	57	0	522	0	0			0	0			1				0	
6.6.1	mac	2023-06-02	07:03:42	07:15:25	699167	60f4e3ab507bbb123f866e88	4	1	main_z	7	main_z	155	stimuli_distractor_trianglediamonds.svg	stimuli_target_squaretriangles.svg	11	yes	0	0	2000	0	0			0	0			1				0	
6.6.1	mac	2023-06-02	07:03:42	07:15:25	699167	60f4e3ab507bbb123f866e88	4	1	main_z	7	advance_on_keypress_ZEE	156	stimuli_distractor_trianglediamonds.svg	stimuli_target_squaretriangles.svg	11	yes	57	0	513	0	0			0	0			1				0	
6.6.1	mac	2023-06-02	07:03:42	07:15:28	702317	60f4e3ab507bbb123f866e88	4	1	main_z	7	main_z	157	stimuli_distractor_trianglediamonds.svg	stimuli_target_squarediamonds.svg	12	yes	0	0	2000	0	0			0	0			1				0	
6.6.1	mac	2023-06-02	07:03:42	07:15:28	702317	60f4e3ab507bbb123f866e88	4	1	main_z	7	advance_on_keypress_ZEE	158	stimuli_distractor_trianglediamonds.svg	stimuli_target_squarediamonds.svg	12	yes	57	0	421	0	0			0	0			1				0	
6.6.1	mac	2023-06-02	07:03:42	07:15:31	705384	60f4e3ab507bbb123f866e88	4	1	main_z	7	main_z	159	stimuli_target_rectanglediamonds.svg	stimuli_distractor_trianglediamonds.svg	2	yes	0	0	2000	0	0			0	0			1				0	
6.6.1	mac	2023-06-02	07:03:42	07:15:31	705384	60f4e3ab507bbb123f866e88	4	1	main_z	7	advance_on_keypress_ZEE	160	stimuli_target_rectanglediamonds.svg	stimuli_distractor_trianglediamonds.svg	2	yes	57	0	538	0	0			0	0			1				0	
6.6.1	mac	2023-06-02	07:03:42	07:16:59	792597	60f4e3ab507bbb123f866e88	4	1	practice_slash	9	practice_slash	1	stimuli_distractor_trianglediamonds.svg	stimuli_distractor_diamondtriangles.svg	16	no	53	0	835	0	0			0	0			1				0	
6.6.1	mac	2023-06-02	07:03:42	07:16:59	792597	60f4e3ab507bbb123f866e88	4	1	practice_slash	9	advance_on_keypress_SLASH	2	stimuli_distractor_trianglediamonds.svg	stimuli_distractor_diamondtriangles.svg	16	no	57	0	522	0	0			0	0			1				0	
6.6.1	mac	2023-06-02	07:03:42	07:17:02	795501	60f4e3ab507bbb123f866e88	4	1	practice_slash	9	practice_slash	3	stimuli_target_squarediamonds.svg	stimuli_distractor_trianglediamonds.svg	5	yes	53	1	741	0	0			0	0			1				0	
6.6.1	mac	2023-06-02	07:03:42	07:17:02	795501	60f4e3ab507bbb123f866e88	4	1	practice_slash	9	advance_on_keypress_SLASH	4	stimuli_target_squarediamonds.svg	stimuli_distractor_trianglediamonds.svg	5	yes	57	0	607	0	0			0	0			1				0	
6.6.1	mac	2023-06-02	07:03:42	07:17:05	798630	60f4e3ab507bbb123f866e88	4	1	practice_slash	9	practice_slash	5	stimuli_target_diamondsquares.svg	stimuli_distractor_trianglediamonds.svg	6	yes	53	1	868	0	0			0	0			1				0	
6.6.1	mac	2023-06-02	07:03:42	07:17:05	798630	60f4e3ab507bbb123f866e88	4	1	practice_slash	9	advance_on_keypress_SLASH	6	stimuli_target_diamondsquares.svg	stimuli_distractor_trianglediamonds.svg	6	yes	57	0	543	0	0			0	0			1				0	
6.6.1	mac	2023-06-02	07:03:42	07:17:08	801643	60f4e3ab507bbb123f866e88	4	1	practice_slash	9	practice_slash	7	stimuli_distractor_trianglediamonds.svg	stimuli_target_diamondrectangles.svg	12	yes	53	1	832	0	0			0	0			1				0	
6.6.1	mac	2023-06-02	07:03:42	07:17:08	801643	60f4e3ab507bbb123f866e88	4	1	practice_slash	9	advance_on_keypress_SLASH	8	stimuli_distractor_trianglediamonds.svg	stimuli_target_diamondrectangles.svg	12	yes	57	0	478	0	0			0	0			1				0	
6.6.1	mac	2023-06-02	07:03:42	07:17:11	804615	60f4e3ab507bbb123f866e88	4	1	practice_slash	9	practice_slash	9	stimuli_target_squarediamonds.svg	stimuli_distractor_diamondtriangles.svg	2	yes	53	1	854	0	0			0	0			1				0	
6.6.1	mac	2023-06-02	07:03:42	07:17:11	804615	60f4e3ab507bbb123f866e88	4	1	practice_slash	9	advance_on_keypress_SLASH	10	stimuli_target_squarediamonds.svg	stimuli_distractor_diamondtriangles.svg	2	yes	57	0	341	0	0			0	0			1				0	
6.6.1	mac	2023-06-02	07:03:42	07:17:14	807471	60f4e3ab507bbb123f866e88	4	1	practice_slash	9	practice_slash	11	stimuli_distractor_diamondtriangles.svg	stimuli_target_diamondrectangles.svg	8	yes	53	1	875	0	0			0	0			1				0	
6.6.1	mac	2023-06-02	07:03:42	07:17:14	807471	60f4e3ab507bbb123f866e88	4	1	practice_slash	9	advance_on_keypress_SLASH	12	stimuli_distractor_diamondtriangles.svg	stimuli_target_diamondrectangles.svg	8	yes	57	0	407	0	0			0	0			1				0	
6.6.1	mac	2023-06-02	07:03:42	07:17:18	811525	60f4e3ab507bbb123f866e88	4	1	practice_slash	9	practice_slash	13	stimuli_distractor_trianglediamonds.svg	stimuli_target_rectanglediamonds.svg	10	yes	0	0	2000	0	0			0	0			1				0	
6.6.1	mac	2023-06-02	07:03:42	07:17:18	811525	60f4e3ab507bbb123f866e88	4	1	practice_slash	9	advance_on_keypress_SLASH	14	stimuli_distractor_trianglediamonds.svg	stimuli_target_rectanglediamonds.svg	10	yes	57	0	1001	0	0			0	0			1				0	
6.6.1	mac	2023-06-02	07:03:42	07:17:21	814945	60f4e3ab507bbb123f866e88	4	1	practice_slash	9	practice_slash	15	stimuli_distractor_diamondtriangles.svg	stimuli_distractor_trianglediamonds.svg	14	no	53	0	783	0	0			0	0			1				0	
6.6.1	mac	2023-06-02	07:03:42	07:17:21	814945	60f4e3ab507bbb123f866e88	4	1	practice_slash	9	advance_on_keypress_SLASH	16	stimuli_distractor_diamondtriangles.svg	stimuli_distractor_trianglediamonds.svg	14	no	57	0	546	0	0			0	0			1				0	
6.6.1	mac	2023-06-02	07:03:42	07:17:24	818082	60f4e3ab507bbb123f866e88	4	1	practice_slash	9	practice_slash	17	stimuli_distractor_diamondtriangles.svg	stimuli_target_rectangletriangles.svg	7	yes	53	1	950	0	0			0	0			1				0	
6.6.1	mac	2023-06-02	07:03:42	07:17:24	818082	60f4e3ab507bbb123f866e88	4	1	practice_slash	9	advance_on_keypress_SLASH	18	stimuli_distractor_diamondtriangles.svg	stimuli_target_rectangletriangles.svg	7	yes	57	0	434	0	0			0	0			1				0	
6.6.1	mac	2023-06-02	07:03:42	07:17:27	821029	60f4e3ab507bbb123f866e88	4	1	practice_slash	9	practice_slash	19	stimuli_distractor_diamondtriangles.svg	stimuli_target_trianglerectangles.svg	9	yes	53	1	883	0	0			0	0			1				0	
6.6.1	mac	2023-06-02	07:03:42	07:17:27	821029	60f4e3ab507bbb123f866e88	4	1	practice_slash	9	advance_on_keypress_SLASH	20	stimuli_distractor_diamondtriangles.svg	stimuli_target_trianglerectangles.svg	9	yes	57	0	420	0	0			0	0			1				0	
6.6.1	mac	2023-06-02	07:03:42	07:17:31	825093	60f4e3ab507bbb123f866e88	4	1	practice_slash	9	practice_slash	21	stimuli_distractor_trianglediamonds.svg	stimuli_target_squarediamonds.svg	11	yes	0	0	2000	0	0			0	0			1				0	
6.6.1	mac	2023-06-02	07:03:42	07:17:31	825093	60f4e3ab507bbb123f866e88	4	1	practice_slash	9	advance_on_keypress_SLASH	22	stimuli_distractor_trianglediamonds.svg	stimuli_target_squarediamonds.svg	11	yes	57	0	813	0	0			0	0			1				0	
6.6.1	mac	2023-06-02	07:03:42	07:17:35	828528	60f4e3ab507bbb123f866e88	4	1	practice_slash	9	practice_slash	23	stimuli_target_rectanglediamonds.svg	stimuli_distractor_diamondtriangles.svg	1	yes	53	1	982	0	0			0	0			1				0	
6.6.1	mac	2023-06-02	07:03:42	07:17:35	828528	60f4e3ab507bbb123f866e88	4	1	practice_slash	9	advance_on_keypress_SLASH	24	stimuli_target_rectanglediamonds.svg	stimuli_distractor_diamondtriangles.svg	1	yes	57	0	439	0	0			0	0			1				0	
6.6.1	mac	2023-06-02	07:03:42	07:17:38	831494	60f4e3ab507bbb123f866e88	4	1	practice_slash	9	practice_slash	25	stimuli_distractor_diamondtriangles.svg	stimuli_distractor_diamondtriangles.svg	13	no	53	0	881	0	0			0	0			1				0	
6.6.1	mac	2023-06-02	07:03:42	07:17:38	831494	60f4e3ab507bbb123f866e88	4	1	practice_slash	9	advance_on_keypress_SLASH	26	stimuli_distractor_diamondtriangles.svg	stimuli_distractor_diamondtriangles.svg	13	no	57	0	484	0	0			0	0			1				0	
6.6.1	mac	2023-06-02	07:03:42	07:17:42	835612	60f4e3ab507bbb123f866e88	4	1	practice_slash	9	practice_slash	27	stimuli_target_rectanglediamonds.svg	stimuli_distractor_trianglediamonds.svg	4	yes	0	0	2000	0	0			0	0			1				0	
6.6.1	mac	2023-06-02	07:03:42	07:17:42	835612	60f4e3ab507bbb123f866e88	4	1	practice_slash	9	advance_on_keypress_SLASH	28	stimuli_target_rectanglediamonds.svg	stimuli_distractor_trianglediamonds.svg	4	yes	57	0	537	0	0			0	0			1				0	
6.6.1	mac	2023-06-02	07:03:42	07:17:45	838583	60f4e3ab507bbb123f866e88	4	1	practice_slash	9	practice_slash	29	stimuli_target_diamondsquares.svg	stimuli_distractor_diamondtriangles.svg	3	yes	53	1	803	0	0			0	0			1				0	
6.6.1	mac	2023-06-02	07:03:42	07:17:45	838583	60f4e3ab507bbb123f866e88	4	1	practice_slash	9	advance_on_keypress_SLASH	30	stimuli_target_diamondsquares.svg	stimuli_distractor_diamondtriangles.svg	3	yes	57	0	427	0	0			0	0			1				0	
6.6.1	mac	2023-06-02	07:03:42	07:17:48	841405	60f4e3ab507bbb123f866e88	4	1	practice_slash	9	practice_slash	31	stimuli_distractor_trianglediamonds.svg	stimuli_distractor_trianglediamonds.svg	15	no	53	0	757	0	0			0	0			1				0	
6.6.1	mac	2023-06-02	07:03:42	07:17:48	841405	60f4e3ab507bbb123f866e88	4	1	practice_slash	9	advance_on_keypress_SLASH	32	stimuli_distractor_trianglediamonds.svg	stimuli_distractor_trianglediamonds.svg	15	no	57	0	355	0	0			0	0			1				0	
6.6.1	mac	2023-06-02	07:03:42	07:17:51	844706	60f4e3ab507bbb123f866e88	4	1	main_slash	11	main_slash	1	stimuli_distractor_diamondtriangles.svg	stimuli_target_diamondrectangles.svg	31	yes	53	1	626	0	0			0	0			1				0	
6.6.1	mac	2023-06-02	07:03:42	07:17:51	844706	60f4e3ab507bbb123f866e88	4	1	main_slash	11	advance_on_keypress_SLASH	2	stimuli_distractor_diamondtriangles.svg	stimuli_target_diamondrectangles.svg	31	yes	57	0	808	0	0			0	0			1				0	
6.6.1	mac	2023-06-02	07:03:42	07:17:53	846800	60f4e3ab507bbb123f866e88	4	1	main_slash	11	main_slash	3	stimuli_target_squaretriangles.svg	stimuli_distractor_trianglediamonds.svg	3	yes	53	1	636	0	0			0	0			1				0	
6.6.1	mac	2023-06-02	07:03:42	07:17:53	846800	60f4e3ab507bbb123f866e88	4	1	main_slash	11	advance_on_keypress_SLASH	4	stimuli_target_squaretriangles.svg	stimuli_distractor_trianglediamonds.svg	3	yes	57	0	698	0	0			0	0			1				0	
6.6.1	mac	2023-06-02	07:03:42	07:17:56	850126	60f4e3ab507bbb123f866e88	4	1	main_slash	11	main_slash	5	stimuli_distractor_diamondtriangles.svg	stimuli_distractor_trianglediamonds.svg	38	no	0	1	2000	0	0			0	0			1				0	
6.6.1	mac	2023-06-02	07:03:42	07:17:56	850126	60f4e3ab507bbb123f866e88	4	1	main_slash	11	advance_on_keypress_SLASH	6	stimuli_distractor_diamondtriangles.svg	stimuli_distractor_trianglediamonds.svg	38	no	57	0	962	0	0			0	0			1				0	
6.6.1	mac	2023-06-02	07:03:42	07:17:58	852387	60f4e3ab507bbb123f866e88	4	1	main_slash	11	main_slash	7	stimuli_distractor_trianglediamonds.svg	stimuli_target_diamondrectangles.svg	27	yes	53	1	657	0	0			0	0			1				0	
6.6.1	mac	2023-06-02	07:03:42	07:17:58	852387	60f4e3ab507bbb123f866e88	4	1	main_slash	11	advance_on_keypress_SLASH	8	stimuli_distractor_trianglediamonds.svg	stimuli_target_diamondrectangles.svg	27	yes	57	0	688	0	0			0	0			1				0	
6.6.1	mac	2023-06-02	07:03:42	07:18:01	854561	60f4e3ab507bbb123f866e88	4	1	main_slash	11	main_slash	9	stimuli_distractor_diamondtriangles.svg	stimuli_target_diamondsquares.svg	32	yes	53	1	848	0	0			0	0			1				0	
6.6.1	mac	2023-06-02	07:03:42	07:18:01	854561	60f4e3ab507bbb123f866e88	4	1	main_slash	11	advance_on_keypress_SLASH	10	stimuli_distractor_diamondtriangles.svg	stimuli_target_diamondsquares.svg	32	yes	57	0	793	0	0			0	0			1				0	
6.6.1	mac	2023-06-02	07:03:42	07:18:03	856986	60f4e3ab507bbb123f866e88	4	1	main_slash	11	main_slash	11	stimuli_target_trianglesquares.svg	stimuli_distractor_trianglediamonds.svg	18	yes	53	1	988	0	0			0	0			1				0	
6.6.1	mac	2023-06-02	07:03:42	07:18:03	856986	60f4e3ab507bbb123f866e88	4	1	main_slash	11	advance_on_keypress_SLASH	12	stimuli_target_trianglesquares.svg	stimuli_distractor_trianglediamonds.svg	18	yes	57	0	722	0	0			0	0			1				0	
6.6.1	mac	2023-06-02	07:03:42	07:18:06	860327	60f4e3ab507bbb123f866e88	4	1	main_slash	11	main_slash	13	stimuli_distractor_trianglediamonds.svg	stimuli_target_rectangletriangles.svg	9	yes	0	0	2000	0	0			0	0			1				0	
6.6.1	mac	2023-06-02	07:03:42	07:18:06	860327	60f4e3ab507bbb123f866e88	4	1	main_slash	11	advance_on_keypress_SLASH	14	stimuli_distractor_trianglediamonds.svg	stimuli_target_rectangletriangles.svg	9	yes	57	0	308	0	0			0	0			1				0	
6.6.1	mac	2023-06-02	07:03:42	07:18:08	861924	60f4e3ab507bbb123f866e88	4	1	main_slash	11	main_slash	15	stimuli_distractor_trianglediamonds.svg	stimuli_target_diamondsquares.svg	28	yes	53	1	643	0	0			0	0			1				0	
6.6.1	mac	2023-06-02	07:03:42	07:18:08	861924	60f4e3ab507bbb123f866e88	4	1	main_slash	11	advance_on_keypress_SLASH	16	stimuli_distractor_trianglediamonds.svg	stimuli_target_diamondsquares.svg	28	yes	57	0	742	0	0			0	0			1				0	
6.6.1	mac	2023-06-02	07:03:42	07:18:11	865312	60f4e3ab507bbb123f866e88	4	1	main_slash	11	main_slash	17	stimuli_distractor_trianglediamonds.svg	stimuli_distractor_trianglediamonds.svg	33	no	0	1	2000	0	0			0	0			1				0	
6.6.1	mac	2023-06-02	07:03:42	07:18:11	865312	60f4e3ab507bbb123f866e88	4	1	main_slash	11	advance_on_keypress_SLASH	18	stimuli_distractor_trianglediamonds.svg	stimuli_distractor_trianglediamonds.svg	33	no	57	0	426	0	0			0	0			1				0	
6.6.1	mac	2023-06-02	07:03:42	07:18:13	866729	60f4e3ab507bbb123f866e88	4	1	main_slash	11	main_slash	19	stimuli_target_diamondrectangles.svg	stimuli_distractor_trianglediamonds.svg	19	yes	53	1	348	0	0			0	0			1				0	
6.6.1	mac	2023-06-02	07:03:42	07:18:13	866729	60f4e3ab507bbb123f866e88	4	1	main_slash	11	advance_on_keypress_SLASH	20	stimuli_target_diamondrectangles.svg	stimuli_distractor_trianglediamonds.svg	19	yes	57	0	834	0	0			0	0			1				0	
6.6.1	mac	2023-06-02	07:03:42	07:18:15	868880	60f4e3ab507bbb123f866e88	4	1	main_slash	11	main_slash	21	stimuli_distractor_diamondtriangles.svg	stimuli_target_rectangletriangles.svg	13	yes	53	1	682	0	0			0	0			1				0	
6.6.1	mac	2023-06-02	07:03:42	07:18:15	868880	60f4e3ab507bbb123f866e88	4	1	main_slash	11	advance_on_keypress_SLASH	22	stimuli_distractor_diamondtriangles.svg	stimuli_target_rectangletriangles.svg	13	yes	57	0	820	0	0			0	0			1				0	
6.6.1	mac	2023-06-02	07:03:42	07:18:18	872329	60f4e3ab507bbb123f866e88	4	1	main_slash	11	main_slash	23	stimuli_target_rectangletriangles.svg	stimuli_distractor_diamondtriangles.svg	5	yes	0	0	2000	0	0			0	0			1				0	
6.6.1	mac	2023-06-02	07:03:42	07:18:18	872329	60f4e3ab507bbb123f866e88	4	1	main_slash	11	advance_on_keypress_SLASH	24	stimuli_target_rectangletriangles.svg	stimuli_distractor_diamondtriangles.svg	5	yes	57	0	718	0	0			0	0			1				0	
6.6.1	mac	2023-06-02	07:03:42	07:18:20	874288	60f4e3ab507bbb123f866e88	4	1	main_slash	11	main_slash	25	stimuli_distractor_diamondtriangles.svg	stimuli_distractor_trianglediamonds.svg	37	no	53	0	605	0	0			0	0			1				0	
6.6.1	mac	2023-06-02	07:03:42	07:18:20	874288	60f4e3ab507bbb123f866e88	4	1	main_slash	11	advance_on_keypress_SLASH	26	stimuli_distractor_diamondtriangles.svg	stimuli_distractor_trianglediamonds.svg	37	no	57	0	743	0	0			0	0			1				0	
6.6.1	mac	2023-06-02	07:03:42	07:18:23	876563	60f4e3ab507bbb123f866e88	4	1	main_slash	11	main_slash	27	stimuli_distractor_diamondtriangles.svg	stimuli_target_squaretriangles.svg	15	yes	53	1	897	0	0			0	0			1				0	
6.6.1	mac	2023-06-02	07:03:42	07:18:23	876563	60f4e3ab507bbb123f866e88	4	1	main_slash	11	advance_on_keypress_SLASH	28	stimuli_distractor_diamondtriangles.svg	stimuli_target_squaretriangles.svg	15	yes	57	0	1211	0	0			0	0			1				0	
6.6.1	mac	2023-06-02	07:03:42	07:18:26	879450	60f4e3ab507bbb123f866e88	4	1	main_slash	11	main_slash	29	stimuli_distractor_diamondtriangles.svg	stimuli_distractor_diamondtriangles.svg	40	no	53	0	1034	0	0			0	0			1				0	
6.6.1	mac	2023-06-02	07:03:42	07:18:26	879450	60f4e3ab507bbb123f866e88	4	1	main_slash	11	advance_on_keypress_SLASH	30	stimuli_distractor_diamondtriangles.svg	stimuli_distractor_diamondtriangles.svg	40	no	57	0	663	0	0			0	0			1				0	
6.6.1	mac	2023-06-02	07:03:42	07:18:28	881720	60f4e3ab507bbb123f866e88	4	1	main_slash	11	main_slash	31	stimuli_distractor_diamondtriangles.svg	stimuli_target_trianglesquares.svg	30	yes	53	1	970	0	0			0	0			1				0	
6.6.1	mac	2023-06-02	07:03:42	07:18:28	881720	60f4e3ab507bbb123f866e88	4	1	main_slash	11	advance_on_keypress_SLASH	32	stimuli_distractor_diamondtriangles.svg	stimuli_target_trianglesquares.svg	30	yes	57	0	713	0	0			0	0			1				0	
6.6.1	mac	2023-06-02	07:03:42	07:18:30	884245	60f4e3ab507bbb123f866e88	4	1	main_slash	11	main_slash	33	stimuli_distractor_trianglediamonds.svg	stimuli_target_trianglesquares.svg	26	yes	53	1	1179	0	0			0	0			1				0	
6.6.1	mac	2023-06-02	07:03:42	07:18:30	884245	60f4e3ab507bbb123f866e88	4	1	main_slash	11	advance_on_keypress_SLASH	34	stimuli_distractor_trianglediamonds.svg	stimuli_target_trianglesquares.svg	26	yes	57	0	757	0	0			0	0			1				0	
6.6.1	mac	2023-06-02	07:03:42	07:18:34	887647	60f4e3ab507bbb123f866e88	4	1	main_slash	11	main_slash	35	stimuli_distractor_trianglediamonds.svg	stimuli_target_trianglerectangles.svg	25	yes	0	0	2000	0	0			0	0			1				0	
6.6.1	mac	2023-06-02	07:03:42	07:18:34	887647	60f4e3ab507bbb123f866e88	4	1	main_slash	11	advance_on_keypress_SLASH	36	stimuli_distractor_trianglediamonds.svg	stimuli_target_trianglerectangles.svg	25	yes	57	0	340	0	0			0	0			1				0	
6.6.1	mac	2023-06-02	07:03:42	07:18:35	888999	60f4e3ab507bbb123f866e88	4	1	main_slash	11	main_slash	37	stimuli_target_squaretriangles.svg	stimuli_distractor_diamondtriangles.svg	7	yes	53	1	365	0	0			0	0			1				0	
6.6.1	mac	2023-06-02	07:03:42	07:18:35	888999	60f4e3ab507bbb123f866e88	4	1	main_slash	11	advance_on_keypress_SLASH	38	stimuli_target_squaretriangles.svg	stimuli_distractor_diamondtriangles.svg	7	yes	57	0	645	0	0			0	0			1				0	
6.6.1	mac	2023-06-02	07:03:42	07:18:38	892280	60f4e3ab507bbb123f866e88	4	1	main_slash	11	main_slash	39	stimuli_distractor_diamondtriangles.svg	stimuli_target_squarediamonds.svg	16	yes	0	0	2000	0	0			0	0			1				0	
6.6.1	mac	2023-06-02	07:03:42	07:18:38	892280	60f4e3ab507bbb123f866e88	4	1	main_slash	11	advance_on_keypress_SLASH	40	stimuli_distractor_diamondtriangles.svg	stimuli_target_squarediamonds.svg	16	yes	57	0	504	0	0			0	0			1				0	
6.6.1	mac	2023-06-02	07:03:42	07:18:40	894084	60f4e3ab507bbb123f866e88	4	1	main_slash	11	main_slash	41	stimuli_target_trianglerectangles.svg	stimuli_distractor_trianglediamonds.svg	17	yes	53	1	667	0	0			0	0			1				0	
6.6.1	mac	2023-06-02	07:03:42	07:18:40	894084	60f4e3ab507bbb123f866e88	4	1	main_slash	11	advance_on_keypress_SLASH	42	stimuli_target_trianglerectangles.svg	stimuli_distractor_trianglediamonds.svg	17	yes	57	0	614	0	0			0	0			1				0	
6.6.1	mac	2023-06-02	07:03:42	07:18:42	896285	60f4e3ab507bbb123f866e88	4	1	main_slash	11	main_slash	43	stimuli_distractor_diamondtriangles.svg	stimuli_target_trianglerectangles.svg	29	yes	53	1	951	0	0			0	0			1				0	
6.6.1	mac	2023-06-02	07:03:42	07:18:42	896285	60f4e3ab507bbb123f866e88	4	1	main_slash	11	advance_on_keypress_SLASH	44	stimuli_distractor_diamondtriangles.svg	stimuli_target_trianglerectangles.svg	29	yes	57	0	890	0	0			0	0			1				0	
6.6.1	mac	2023-06-02	07:03:42	07:18:46	899814	60f4e3ab507bbb123f866e88	4	1	main_slash	11	main_slash	45	stimuli_target_squarediamonds.svg	stimuli_distractor_diamondtriangles.svg	8	yes	0	0	2000	0	0			0	0			1				0	
6.6.1	mac	2023-06-02	07:03:42	07:18:46	899814	60f4e3ab507bbb123f866e88	4	1	main_slash	11	advance_on_keypress_SLASH	46	stimuli_target_squarediamonds.svg	stimuli_distractor_diamondtriangles.svg	8	yes	57	0	2915	0	0			0	0			1				0	
6.6.1	mac	2023-06-02	07:03:42	07:18:50	903876	60f4e3ab507bbb123f866e88	4	1	main_slash	11	main_slash	47	stimuli_distractor_trianglediamonds.svg	stimuli_distractor_diamondtriangles.svg	35	no	53	0	507	0	0			0	0			1				0	
6.6.1	mac	2023-06-02	07:03:42	07:18:50	903876	60f4e3ab507bbb123f866e88	4	1	main_slash	11	advance_on_keypress_SLASH	48	stimuli_distractor_trianglediamonds.svg	stimuli_distractor_diamondtriangles.svg	35	no	57	0	2808	0	0			0	0			1				0	
6.6.1	mac	2023-06-02	07:03:42	07:18:55	908824	60f4e3ab507bbb123f866e88	4	1	main_slash	11	main_slash	49	stimuli_distractor_diamondtriangles.svg	stimuli_target_rectanglediamonds.svg	14	yes	53	1	1489	0	0			0	0			1				0	
6.6.1	mac	2023-06-02	07:03:42	07:18:55	908824	60f4e3ab507bbb123f866e88	4	1	main_slash	11	advance_on_keypress_SLASH	50	stimuli_distractor_diamondtriangles.svg	stimuli_target_rectanglediamonds.svg	14	yes	57	0	5986	0	0			0	0			1				0	
6.6.1	mac	2023-06-02	07:03:42	07:19:02	915816	60f4e3ab507bbb123f866e88	4	1	main_slash	11	main_slash	51	stimuli_distractor_diamondtriangles.svg	stimuli_distractor_diamondtriangles.svg	39	no	53	0	380	0	0			0	0			1				0	
6.6.1	mac	2023-06-02	07:03:42	07:19:02	915816	60f4e3ab507bbb123f866e88	4	1	main_slash	11	advance_on_keypress_SLASH	52	stimuli_distractor_diamondtriangles.svg	stimuli_distractor_diamondtriangles.svg	39	no	57	0	1135	0	0			0	0			1				0	
6.6.1	mac	2023-06-02	07:03:42	07:19:06	919582	60f4e3ab507bbb123f866e88	4	1	main_slash	11	main_slash	53	stimuli_distractor_trianglediamonds.svg	stimuli_distractor_trianglediamonds.svg	34	no	0	1	2000	0	0			0	0			1				0	
6.6.1	mac	2023-06-02	07:03:42	07:19:06	919582	60f4e3ab507bbb123f866e88	4	1	main_slash	11	advance_on_keypress_SLASH	54	stimuli_distractor_trianglediamonds.svg	stimuli_distractor_trianglediamonds.svg	34	no	57	0	1300	0	0			0	0			1				0	
6.6.1	mac	2023-06-02	07:03:42	07:19:09	922428	60f4e3ab507bbb123f866e88	4	1	main_slash	11	main_slash	55	stimuli_target_rectangletriangles.svg	stimuli_distractor_trianglediamonds.svg	1	yes	53	1	909	0	0			0	0			1				0	
6.6.1	mac	2023-06-02	07:03:42	07:19:09	922428	60f4e3ab507bbb123f866e88	4	1	main_slash	11	advance_on_keypress_SLASH	56	stimuli_target_rectangletriangles.svg	stimuli_distractor_trianglediamonds.svg	1	yes	57	0	601	0	0			0	0			1				0	
6.6.1	mac	2023-06-02	07:03:42	07:19:11	924434	60f4e3ab507bbb123f866e88	4	1	main_slash	11	main_slash	57	stimuli_target_trianglesquares.svg	stimuli_distractor_diamondtriangles.svg	22	yes	53	1	765	0	0			0	0			1				0	
6.6.1	mac	2023-06-02	07:03:42	07:19:11	924434	60f4e3ab507bbb123f866e88	4	1	main_slash	11	advance_on_keypress_SLASH	58	stimuli_target_trianglesquares.svg	stimuli_distractor_diamondtriangles.svg	22	yes	57	0	1691	0	0			0	0			1				0	
6.6.1	mac	2023-06-02	07:03:42	07:19:15	928766	60f4e3ab507bbb123f866e88	4	1	main_slash	11	main_slash	59	stimuli_distractor_trianglediamonds.svg	stimuli_target_rectanglediamonds.svg	10	yes	0	0	2000	0	0			0	0			1				0	
6.6.1	mac	2023-06-02	07:03:42	07:19:15	928766	60f4e3ab507bbb123f866e88	4	1	main_slash	11	advance_on_keypress_SLASH	60	stimuli_distractor_trianglediamonds.svg	stimuli_target_rectanglediamonds.svg	10	yes	57	0	493	0	0			0	0			1				0	
6.6.1	mac	2023-06-02	07:03:42	07:19:17	930569	60f4e3ab507bbb123f866e88	4	1	main_slash	11	main_slash	61	stimuli_target_trianglerectangles.svg	stimuli_distractor_diamondtriangles.svg	21	yes	53	1	667	0	0			0	0			1				0	
6.6.1	mac	2023-06-02	07:03:42	07:19:17	930569	60f4e3ab507bbb123f866e88	4	1	main_slash	11	advance_on_keypress_SLASH	62	stimuli_target_trianglerectangles.svg	stimuli_distractor_diamondtriangles.svg	21	yes	57	0	817	0	0			0	0			1				0	
6.6.1	mac	2023-06-02	07:03:42	07:19:20	934017	60f4e3ab507bbb123f866e88	4	1	main_slash	11	main_slash	63	stimuli_distractor_trianglediamonds.svg	stimuli_target_squaretriangles.svg	11	yes	0	0	2000	0	0			0	0			1				0	
6.6.1	mac	2023-06-02	07:03:42	07:19:20	934017	60f4e3ab507bbb123f866e88	4	1	main_slash	11	advance_on_keypress_SLASH	64	stimuli_distractor_trianglediamonds.svg	stimuli_target_squaretriangles.svg	11	yes	57	0	455	0	0			0	0			1				0	
6.6.1	mac	2023-06-02	07:03:42	07:19:22	935739	60f4e3ab507bbb123f866e88	4	1	main_slash	11	main_slash	65	stimuli_target_diamondsquares.svg	stimuli_distractor_trianglediamonds.svg	20	yes	53	1	619	0	0			0	0			1				0	
6.6.1	mac	2023-06-02	07:03:42	07:19:22	935739	60f4e3ab507bbb123f866e88	4	1	main_slash	11	advance_on_keypress_SLASH	66	stimuli_target_diamondsquares.svg	stimuli_distractor_trianglediamonds.svg	20	yes	57	0	1175	0	0			0	0			1				0	
6.6.1	mac	2023-06-02	07:03:42	07:19:26	939550	60f4e3ab507bbb123f866e88	4	1	main_slash	11	main_slash	67	stimuli_target_rectanglediamonds.svg	stimuli_distractor_trianglediamonds.svg	2	yes	0	0	2000	0	0			0	0			1				0	
6.6.1	mac	2023-06-02	07:03:42	07:19:26	939550	60f4e3ab507bbb123f866e88	4	1	main_slash	11	advance_on_keypress_SLASH	68	stimuli_target_rectanglediamonds.svg	stimuli_distractor_trianglediamonds.svg	2	yes	57	0	533	0	0			0	0			1				0	
6.6.1	mac	2023-06-02	07:03:42	07:19:27	941294	60f4e3ab507bbb123f866e88	4	1	main_slash	11	main_slash	69	stimuli_target_diamondrectangles.svg	stimuli_distractor_diamondtriangles.svg	23	yes	53	1	573	0	0			0	0			1				0	
6.6.1	mac	2023-06-02	07:03:42	07:19:27	941294	60f4e3ab507bbb123f866e88	4	1	main_slash	11	advance_on_keypress_SLASH	70	stimuli_target_diamondrectangles.svg	stimuli_distractor_diamondtriangles.svg	23	yes	57	0	662	0	0			0	0			1				0	
6.6.1	mac	2023-06-02	07:03:42	07:19:31	944601	60f4e3ab507bbb123f866e88	4	1	main_slash	11	main_slash	71	stimuli_distractor_trianglediamonds.svg	stimuli_target_squarediamonds.svg	12	yes	0	0	2000	0	0			0	0			1				0	
6.6.1	mac	2023-06-02	07:03:42	07:19:31	944601	60f4e3ab507bbb123f866e88	4	1	main_slash	11	advance_on_keypress_SLASH	72	stimuli_distractor_trianglediamonds.svg	stimuli_target_squarediamonds.svg	12	yes	57	0	510	0	0			0	0			1				0	
6.6.1	mac	2023-06-02	07:03:42	07:19:33	946425	60f4e3ab507bbb123f866e88	4	1	main_slash	11	main_slash	73	stimuli_target_diamondsquares.svg	stimuli_distractor_diamondtriangles.svg	24	yes	53	1	672	0	0			0	0			1				0	
6.6.1	mac	2023-06-02	07:03:42	07:19:33	946425	60f4e3ab507bbb123f866e88	4	1	main_slash	11	advance_on_keypress_SLASH	74	stimuli_target_diamondsquares.svg	stimuli_distractor_diamondtriangles.svg	24	yes	57	0	578	0	0			0	0			1				0	
6.6.1	mac	2023-06-02	07:03:42	07:19:35	948773	60f4e3ab507bbb123f866e88	4	1	main_slash	11	main_slash	75	stimuli_distractor_trianglediamonds.svg	stimuli_distractor_diamondtriangles.svg	36	no	53	0	1136	0	0			0	0			1				0	
6.6.1	mac	2023-06-02	07:03:42	07:19:35	948773	60f4e3ab507bbb123f866e88	4	1	main_slash	11	advance_on_keypress_SLASH	76	stimuli_distractor_trianglediamonds.svg	stimuli_distractor_diamondtriangles.svg	36	no	57	0	587	0	0			0	0			1				0	
6.6.1	mac	2023-06-02	07:03:42	07:19:38	951984	60f4e3ab507bbb123f866e88	4	1	main_slash	11	main_slash	77	stimuli_target_rectanglediamonds.svg	stimuli_distractor_diamondtriangles.svg	6	yes	0	0	2000	0	0			0	0			1				0	
6.6.1	mac	2023-06-02	07:03:42	07:19:38	951984	60f4e3ab507bbb123f866e88	4	1	main_slash	11	advance_on_keypress_SLASH	78	stimuli_target_rectanglediamonds.svg	stimuli_distractor_diamondtriangles.svg	6	yes	57	0	494	0	0			0	0			1				0	
6.6.1	mac	2023-06-02	07:03:42	07:19:41	955118	60f4e3ab507bbb123f866e88	4	1	main_slash	11	main_slash	79	stimuli_target_squarediamonds.svg	stimuli_distractor_trianglediamonds.svg	4	yes	0	0	2000	0	0			0	0			1				0	
6.6.1	mac	2023-06-02	07:03:42	07:19:41	955118	60f4e3ab507bbb123f866e88	4	1	main_slash	11	advance_on_keypress_SLASH	80	stimuli_target_squarediamonds.svg	stimuli_distractor_trianglediamonds.svg	4	yes	57	0	693	0	0			0	0			1				0	
6.6.1	mac	2023-06-02	07:03:42	07:19:43	956853	60f4e3ab507bbb123f866e88	4	1	main_slash	11	main_slash	81	stimuli_distractor_diamondtriangles.svg	stimuli_distractor_trianglediamonds.svg	38	no	53	0	399	0	0			0	0			1				0	
6.6.1	mac	2023-06-02	07:03:42	07:19:43	956853	60f4e3ab507bbb123f866e88	4	1	main_slash	11	advance_on_keypress_SLASH	82	stimuli_distractor_diamondtriangles.svg	stimuli_distractor_trianglediamonds.svg	38	no	57	0	650	0	0			0	0			1				0	
6.6.1	mac	2023-06-02	07:03:42	07:19:45	958968	60f4e3ab507bbb123f866e88	4	1	main_slash	11	main_slash	83	stimuli_target_rectangletriangles.svg	stimuli_distractor_trianglediamonds.svg	1	yes	53	1	832	0	0			0	0			1				0	
6.6.1	mac	2023-06-02	07:03:42	07:19:45	958968	60f4e3ab507bbb123f866e88	4	1	main_slash	11	advance_on_keypress_SLASH	84	stimuli_target_rectangletriangles.svg	stimuli_distractor_trianglediamonds.svg	1	yes	57	0	674	0	0			0	0			1				0	
6.6.1	mac	2023-06-02	07:03:42	07:19:47	960984	60f4e3ab507bbb123f866e88	4	1	main_slash	11	main_slash	85	stimuli_distractor_trianglediamonds.svg	stimuli_target_diamondsquares.svg	28	yes	53	1	696	0	0			0	0			1				0	
6.6.1	mac	2023-06-02	07:03:42	07:19:47	960984	60f4e3ab507bbb123f866e88	4	1	main_slash	11	advance_on_keypress_SLASH	86	stimuli_distractor_trianglediamonds.svg	stimuli_target_diamondsquares.svg	28	yes	57	0	524	0	0			0	0			1				0	
6.6.1	mac	2023-06-02	07:03:42	07:19:49	962743	60f4e3ab507bbb123f866e88	4	1	main_slash	11	main_slash	87	stimuli_distractor_diamondtriangles.svg	stimuli_target_squaretriangles.svg	15	yes	53	1	588	0	0			0	0			1				0	
6.6.1	mac	2023-06-02	07:03:42	07:19:49	962743	60f4e3ab507bbb123f866e88	4	1	main_slash	11	advance_on_keypress_SLASH	88	stimuli_distractor_diamondtriangles.svg	stimuli_target_squaretriangles.svg	15	yes	57	0	490	0	0			0	0			1				0	
6.6.1	mac	2023-06-02	07:03:42	07:19:51	964437	60f4e3ab507bbb123f866e88	4	1	main_slash	11	main_slash	89	stimuli_target_rectangletriangles.svg	stimuli_distractor_diamondtriangles.svg	5	yes	53	1	566	0	0			0	0			1				0	
6.6.1	mac	2023-06-02	07:03:42	07:19:51	964437	60f4e3ab507bbb123f866e88	4	1	main_slash	11	advance_on_keypress_SLASH	90	stimuli_target_rectangletriangles.svg	stimuli_distractor_diamondtriangles.svg	5	yes	57	0	484	0	0			0	0			1				0	
6.6.1	mac	2023-06-02	07:03:42	07:19:54	967553	60f4e3ab507bbb123f866e88	4	1	main_slash	11	main_slash	91	stimuli_distractor_trianglediamonds.svg	stimuli_distractor_trianglediamonds.svg	33	no	0	1	2000	0	0			0	0			1				0	
6.6.1	mac	2023-06-02	07:03:42	07:19:54	967553	60f4e3ab507bbb123f866e88	4	1	main_slash	11	advance_on_keypress_SLASH	92	stimuli_distractor_trianglediamonds.svg	stimuli_distractor_trianglediamonds.svg	33	no	57	0	662	0	0			0	0			1				0	
6.6.1	mac	2023-06-02	07:03:42	07:19:56	969528	60f4e3ab507bbb123f866e88	4	1	main_slash	11	main_slash	93	stimuli_distractor_diamondtriangles.svg	stimuli_target_diamondrectangles.svg	31	yes	53	1	672	0	0			0	0			1				0	
6.6.1	mac	2023-06-02	07:03:42	07:19:56	969528	60f4e3ab507bbb123f866e88	4	1	main_slash	11	advance_on_keypress_SLASH	94	stimuli_distractor_diamondtriangles.svg	stimuli_target_diamondrectangles.svg	31	yes	57	0	516	0	0			0	0			1				0	
6.6.1	mac	2023-06-02	07:03:42	07:19:57	971226	60f4e3ab507bbb123f866e88	4	1	main_slash	11	main_slash	95	stimuli_distractor_trianglediamonds.svg	stimuli_target_diamondrectangles.svg	27	yes	53	1	553	0	0			0	0			1				0	
6.6.1	mac	2023-06-02	07:03:42	07:19:57	971226	60f4e3ab507bbb123f866e88	4	1	main_slash	11	advance_on_keypress_SLASH	96	stimuli_distractor_trianglediamonds.svg	stimuli_target_diamondrectangles.svg	27	yes	57	0	516	0	0			0	0			1				0	
6.6.1	mac	2023-06-02	07:03:42	07:19:59	972851	60f4e3ab507bbb123f866e88	4	1	main_slash	11	main_slash	97	stimuli_target_squaretriangles.svg	stimuli_distractor_trianglediamonds.svg	3	yes	53	1	464	0	0			0	0			1				0	
6.6.1	mac	2023-06-02	07:03:42	07:19:59	972851	60f4e3ab507bbb123f866e88	4	1	main_slash	11	advance_on_keypress_SLASH	98	stimuli_target_squaretriangles.svg	stimuli_distractor_trianglediamonds.svg	3	yes	57	0	484	0	0			0	0			1				0	
6.6.1	mac	2023-06-02	07:03:42	07:20:01	974451	60f4e3ab507bbb123f866e88	4	1	main_slash	11	main_slash	99	stimuli_target_diamondsquares.svg	stimuli_distractor_diamondtriangles.svg	24	yes	53	1	479	0	0			0	0			1				0	
6.6.1	mac	2023-06-02	07:03:42	07:20:01	974451	60f4e3ab507bbb123f866e88	4	1	main_slash	11	advance_on_keypress_SLASH	100	stimuli_target_diamondsquares.svg	stimuli_distractor_diamondtriangles.svg	24	yes	57	0	508	0	0			0	0			1				0	
6.6.1	mac	2023-06-02	07:03:42	07:20:02	976304	60f4e3ab507bbb123f866e88	4	1	main_slash	11	main_slash	101	stimuli_distractor_diamondtriangles.svg	stimuli_distractor_diamondtriangles.svg	40	no	53	0	698	0	0			0	0			1				0	
6.6.1	mac	2023-06-02	07:03:42	07:20:02	976304	60f4e3ab507bbb123f866e88	4	1	main_slash	11	advance_on_keypress_SLASH	102	stimuli_distractor_diamondtriangles.svg	stimuli_distractor_diamondtriangles.svg	40	no	57	0	549	0	0			0	0			1				0	
6.6.1	mac	2023-06-02	07:03:42	07:20:04	978232	60f4e3ab507bbb123f866e88	4	1	main_slash	11	main_slash	103	stimuli_distractor_diamondtriangles.svg	stimuli_distractor_trianglediamonds.svg	37	no	53	0	743	0	0			0	0			1				0	
6.6.1	mac	2023-06-02	07:03:42	07:20:04	978232	60f4e3ab507bbb123f866e88	4	1	main_slash	11	advance_on_keypress_SLASH	104	stimuli_distractor_diamondtriangles.svg	stimuli_distractor_trianglediamonds.svg	37	no	57	0	521	0	0			0	0			1				0	
6.6.1	mac	2023-06-02	07:03:42	07:20:07	980996	60f4e3ab507bbb123f866e88	4	1	main_slash	11	main_slash	105	stimuli_target_trianglerectangles.svg	stimuli_distractor_trianglediamonds.svg	17	yes	53	1	1607	0	0			0	0			1				0	
6.6.1	mac	2023-06-02	07:03:42	07:20:07	980996	60f4e3ab507bbb123f866e88	4	1	main_slash	11	advance_on_keypress_SLASH	106	stimuli_target_trianglerectangles.svg	stimuli_distractor_trianglediamonds.svg	17	yes	57	0	422	0	0			0	0			1				0	
6.6.1	mac	2023-06-02	07:03:42	07:20:10	984054	60f4e3ab507bbb123f866e88	4	1	main_slash	11	main_slash	107	stimuli_target_rectanglediamonds.svg	stimuli_distractor_trianglediamonds.svg	2	yes	0	0	2000	0	0			0	0			1				0	
6.6.1	mac	2023-06-02	07:03:42	07:20:10	984054	60f4e3ab507bbb123f866e88	4	1	main_slash	11	advance_on_keypress_SLASH	108	stimuli_target_rectanglediamonds.svg	stimuli_distractor_trianglediamonds.svg	2	yes	57	0	305	0	0			0	0			1				0	
6.6.1	mac	2023-06-02	07:03:42	07:20:12	985452	60f4e3ab507bbb123f866e88	4	1	main_slash	11	main_slash	109	stimuli_distractor_trianglediamonds.svg	stimuli_target_squaretriangles.svg	11	yes	53	1	446	0	0			0	0			1				0	
6.6.1	mac	2023-06-02	07:03:42	07:20:12	985452	60f4e3ab507bbb123f866e88	4	1	main_slash	11	advance_on_keypress_SLASH	110	stimuli_distractor_trianglediamonds.svg	stimuli_target_squaretriangles.svg	11	yes	57	0	587	0	0			0	0			1				0	
6.6.1	mac	2023-06-02	07:03:42	07:20:13	987212	60f4e3ab507bbb123f866e88	4	1	main_slash	11	main_slash	111	stimuli_target_squarediamonds.svg	stimuli_distractor_diamondtriangles.svg	8	yes	53	1	539	0	0			0	0			1				0	
6.6.1	mac	2023-06-02	07:03:42	07:20:13	987212	60f4e3ab507bbb123f866e88	4	1	main_slash	11	advance_on_keypress_SLASH	112	stimuli_target_squarediamonds.svg	stimuli_distractor_diamondtriangles.svg	8	yes	57	0	445	0	0			0	0			1				0	
6.6.1	mac	2023-06-02	07:03:42	07:20:15	988844	60f4e3ab507bbb123f866e88	4	1	main_slash	11	main_slash	113	stimuli_distractor_trianglediamonds.svg	stimuli_distractor_diamondtriangles.svg	36	no	53	0	553	0	0			0	0			1				0	
6.6.1	mac	2023-06-02	07:03:42	07:20:15	988844	60f4e3ab507bbb123f866e88	4	1	main_slash	11	advance_on_keypress_SLASH	114	stimuli_distractor_trianglediamonds.svg	stimuli_distractor_diamondtriangles.svg	36	no	57	0	476	0	0			0	0			1				0	
6.6.1	mac	2023-06-02	07:03:42	07:20:17	991319	60f4e3ab507bbb123f866e88	4	1	main_slash	11	main_slash	115	stimuli_distractor_diamondtriangles.svg	stimuli_target_squarediamonds.svg	16	yes	53	1	1362	0	0			0	0			1				0	
6.6.1	mac	2023-06-02	07:03:42	07:20:17	991319	60f4e3ab507bbb123f866e88	4	1	main_slash	11	advance_on_keypress_SLASH	116	stimuli_distractor_diamondtriangles.svg	stimuli_target_squarediamonds.svg	16	yes	57	0	483	0	0			0	0			1				0	
6.6.1	mac	2023-06-02	07:03:42	07:20:20	993393	60f4e3ab507bbb123f866e88	4	1	main_slash	11	main_slash	117	stimuli_distractor_trianglediamonds.svg	stimuli_target_trianglerectangles.svg	25	yes	53	1	953	0	0			0	0			1				0	
6.6.1	mac	2023-06-02	07:03:42	07:20:20	993393	60f4e3ab507bbb123f866e88	4	1	main_slash	11	advance_on_keypress_SLASH	118	stimuli_distractor_trianglediamonds.svg	stimuli_target_trianglerectangles.svg	25	yes	57	0	490	0	0			0	0			1				0	
6.6.1	mac	2023-06-02	07:03:42	07:20:23	996503	60f4e3ab507bbb123f866e88	4	1	main_slash	11	main_slash	119	stimuli_distractor_trianglediamonds.svg	stimuli_target_squarediamonds.svg	12	yes	0	0	2000	0	0			0	0			1				0	
6.6.1	mac	2023-06-02	07:03:42	07:20:23	996503	60f4e3ab507bbb123f866e88	4	1	main_slash	11	advance_on_keypress_SLASH	120	stimuli_distractor_trianglediamonds.svg	stimuli_target_squarediamonds.svg	12	yes	57	0	988	0	0			0	0			1				0	
6.6.1	mac	2023-06-02	07:03:42	07:20:25	998916	60f4e3ab507bbb123f866e88	4	1	main_slash	11	main_slash	121	stimuli_distractor_diamondtriangles.svg	stimuli_target_rectanglediamonds.svg	14	yes	53	1	775	0	0			0	0			1				0	
6.6.1	mac	2023-06-02	07:03:42	07:20:25	998916	60f4e3ab507bbb123f866e88	4	1	main_slash	11	advance_on_keypress_SLASH	122	stimuli_distractor_diamondtriangles.svg	stimuli_target_rectanglediamonds.svg	14	yes	57	0	607	0	0			0	0			1				0	
6.6.1	mac	2023-06-02	07:03:42	07:20:27	1001287	60f4e3ab507bbb123f866e88	4	1	main_slash	11	main_slash	123	stimuli_distractor_trianglediamonds.svg	stimuli_distractor_diamondtriangles.svg	35	no	53	0	1112	0	0			0	0			1				0	
6.6.1	mac	2023-06-02	07:03:42	07:20:27	1001287	60f4e3ab507bbb123f866e88	4	1	main_slash	11	advance_on_keypress_SLASH	124	stimuli_distractor_trianglediamonds.svg	stimuli_distractor_diamondtriangles.svg	35	no	57	0	562	0	0			0	0			1				0	
6.6.1	mac	2023-06-02	07:03:42	07:20:30	1003544	60f4e3ab507bbb123f866e88	4	1	main_slash	11	main_slash	125	stimuli_target_trianglerectangles.svg	stimuli_distractor_diamondtriangles.svg	21	yes	53	1	1053	0	0			0	0			1				0	
6.6.1	mac	2023-06-02	07:03:42	07:20:30	1003544	60f4e3ab507bbb123f866e88	4	1	main_slash	11	advance_on_keypress_SLASH	126	stimuli_target_trianglerectangles.svg	stimuli_distractor_diamondtriangles.svg	21	yes	57	0	955	0	0			0	0			1				0	
6.6.1	mac	2023-06-02	07:03:42	07:20:32	1006269	60f4e3ab507bbb123f866e88	4	1	main_slash	11	main_slash	127	stimuli_target_trianglesquares.svg	stimuli_distractor_trianglediamonds.svg	18	yes	53	1	1128	0	0			0	0			1				0	
6.6.1	mac	2023-06-02	07:03:42	07:20:32	1006269	60f4e3ab507bbb123f866e88	4	1	main_slash	11	advance_on_keypress_SLASH	128	stimuli_target_trianglesquares.svg	stimuli_distractor_trianglediamonds.svg	18	yes	57	0	892	0	0			0	0			1				0	
6.6.1	mac	2023-06-02	07:03:42	07:20:35	1008813	60f4e3ab507bbb123f866e88	4	1	main_slash	11	main_slash	129	stimuli_distractor_diamondtriangles.svg	stimuli_distractor_diamondtriangles.svg	39	no	53	0	1006	0	0			0	0			1				0	
6.6.1	mac	2023-06-02	07:03:42	07:20:35	1008813	60f4e3ab507bbb123f866e88	4	1	main_slash	11	advance_on_keypress_SLASH	130	stimuli_distractor_diamondtriangles.svg	stimuli_distractor_diamondtriangles.svg	39	no	57	0	755	0	0			0	0			1				0	
6.6.1	mac	2023-06-02	07:03:42	07:20:37	1011107	60f4e3ab507bbb123f866e88	4	1	main_slash	11	main_slash	131	stimuli_target_diamondrectangles.svg	stimuli_distractor_diamondtriangles.svg	23	yes	53	1	916	0	0			0	0			1				0	
6.6.1	mac	2023-06-02	07:03:42	07:20:37	1011107	60f4e3ab507bbb123f866e88	4	1	main_slash	11	advance_on_keypress_SLASH	132	stimuli_target_diamondrectangles.svg	stimuli_distractor_diamondtriangles.svg	23	yes	57	0	1334	0	0			0	0			1				0	
6.6.1	mac	2023-06-02	07:03:42	07:20:40	1013829	60f4e3ab507bbb123f866e88	4	1	main_slash	11	main_slash	133	stimuli_distractor_diamondtriangles.svg	stimuli_target_trianglerectangles.svg	29	yes	53	1	754	0	0			0	0			1				0	
6.6.1	mac	2023-06-02	07:03:42	07:20:40	1013829	60f4e3ab507bbb123f866e88	4	1	main_slash	11	advance_on_keypress_SLASH	134	stimuli_distractor_diamondtriangles.svg	stimuli_target_trianglerectangles.svg	29	yes	57	0	618	0	0			0	0			1				0	
6.6.1	mac	2023-06-02	07:03:42	07:20:42	1015659	60f4e3ab507bbb123f866e88	4	1	main_slash	11	main_slash	135	stimuli_target_diamondrectangles.svg	stimuli_distractor_trianglediamonds.svg	19	yes	53	1	583	0	0			0	0			1				0	
6.6.1	mac	2023-06-02	07:03:42	07:20:42	1015659	60f4e3ab507bbb123f866e88	4	1	main_slash	11	advance_on_keypress_SLASH	136	stimuli_target_diamondrectangles.svg	stimuli_distractor_trianglediamonds.svg	19	yes	57	0	554	0	0			0	0			1				0	
6.6.1	mac	2023-06-02	07:03:42	07:20:44	1017476	60f4e3ab507bbb123f866e88	4	1	main_slash	11	main_slash	137	stimuli_target_rectanglediamonds.svg	stimuli_distractor_diamondtriangles.svg	6	yes	53	1	634	0	0			0	0			1				0	
6.6.1	mac	2023-06-02	07:03:42	07:20:44	1017476	60f4e3ab507bbb123f866e88	4	1	main_slash	11	advance_on_keypress_SLASH	138	stimuli_target_rectanglediamonds.svg	stimuli_distractor_diamondtriangles.svg	6	yes	57	0	490	0	0			0	0			1				0	
6.6.1	mac	2023-06-02	07:03:42	07:20:45	1019228	60f4e3ab507bbb123f866e88	4	1	main_slash	11	main_slash	139	stimuli_distractor_trianglediamonds.svg	stimuli_target_rectangletriangles.svg	9	yes	53	1	619	0	0			0	0			1				0	
6.6.1	mac	2023-06-02	07:03:42	07:20:45	1019228	60f4e3ab507bbb123f866e88	4	1	main_slash	11	advance_on_keypress_SLASH	140	stimuli_distractor_trianglediamonds.svg	stimuli_target_rectangletriangles.svg	9	yes	57	0	681	0	0			0	0			1				0	
6.6.1	mac	2023-06-02	07:03:42	07:20:47	1021153	60f4e3ab507bbb123f866e88	4	1	main_slash	11	main_slash	141	stimuli_target_trianglesquares.svg	stimuli_distractor_diamondtriangles.svg	22	yes	53	1	612	0	0			0	0			1				0	
6.6.1	mac	2023-06-02	07:03:42	07:20:47	1021153	60f4e3ab507bbb123f866e88	4	1	main_slash	11	advance_on_keypress_SLASH	142	stimuli_target_trianglesquares.svg	stimuli_distractor_diamondtriangles.svg	22	yes	57	0	889	0	0			0	0			1				0	
6.6.1	mac	2023-06-02	07:03:42	07:20:49	1023350	60f4e3ab507bbb123f866e88	4	1	main_slash	11	main_slash	143	stimuli_distractor_diamondtriangles.svg	stimuli_target_diamondsquares.svg	32	yes	53	1	658	0	0			0	0			1				0	
6.6.1	mac	2023-06-02	07:03:42	07:20:49	1023350	60f4e3ab507bbb123f866e88	4	1	main_slash	11	advance_on_keypress_SLASH	144	stimuli_distractor_diamondtriangles.svg	stimuli_target_diamondsquares.svg	32	yes	57	0	1480	0	0			0	0			1				0	
6.6.1	mac	2023-06-02	07:03:42	07:20:52	1026154	60f4e3ab507bbb123f866e88	4	1	main_slash	11	main_slash	145	stimuli_distractor_trianglediamonds.svg	stimuli_target_trianglesquares.svg	26	yes	53	1	680	0	0			0	0			1				0	
6.6.1	mac	2023-06-02	07:03:42	07:20:52	1026154	60f4e3ab507bbb123f866e88	4	1	main_slash	11	advance_on_keypress_SLASH	146	stimuli_distractor_trianglediamonds.svg	stimuli_target_trianglesquares.svg	26	yes	57	0	1042	0	0			0	0			1				0	
6.6.1	mac	2023-06-02	07:03:42	07:20:56	1029840	60f4e3ab507bbb123f866e88	4	1	main_slash	11	main_slash	147	stimuli_distractor_trianglediamonds.svg	stimuli_distractor_trianglediamonds.svg	34	no	0	1	2000	0	0			0	0			1				0	
6.6.1	mac	2023-06-02	07:03:42	07:20:56	1029840	60f4e3ab507bbb123f866e88	4	1	main_slash	11	advance_on_keypress_SLASH	148	stimuli_distractor_trianglediamonds.svg	stimuli_distractor_trianglediamonds.svg	34	no	57	0	990	0	0			0	0			1				0	
6.6.1	mac	2023-06-02	07:03:42	07:20:58	1032063	60f4e3ab507bbb123f866e88	4	1	main_slash	11	main_slash	149	stimuli_target_squaretriangles.svg	stimuli_distractor_diamondtriangles.svg	7	yes	53	1	585	0	0			0	0			1				0	
6.6.1	mac	2023-06-02	07:03:42	07:20:58	1032063	60f4e3ab507bbb123f866e88	4	1	main_slash	11	advance_on_keypress_SLASH	150	stimuli_target_squaretriangles.svg	stimuli_distractor_diamondtriangles.svg	7	yes	57	0	691	0	0			0	0			1				0	
6.6.1	mac	2023-06-02	07:03:42	07:21:00	1034222	60f4e3ab507bbb123f866e88	4	1	main_slash	11	main_slash	151	stimuli_target_diamondsquares.svg	stimuli_distractor_trianglediamonds.svg	20	yes	53	1	828	0	0			0	0			1				0	
6.6.1	mac	2023-06-02	07:03:42	07:21:00	1034222	60f4e3ab507bbb123f866e88	4	1	main_slash	11	advance_on_keypress_SLASH	152	stimuli_target_diamondsquares.svg	stimuli_distractor_trianglediamonds.svg	20	yes	57	0	537	0	0			0	0			1				0	
6.6.1	mac	2023-06-02	07:03:42	07:21:03	1036390	60f4e3ab507bbb123f866e88	4	1	main_slash	11	main_slash	153	stimuli_distractor_diamondtriangles.svg	stimuli_target_rectangletriangles.svg	13	yes	53	1	996	0	0			0	0			1				0	
6.6.1	mac	2023-06-02	07:03:42	07:21:03	1036390	60f4e3ab507bbb123f866e88	4	1	main_slash	11	advance_on_keypress_SLASH	154	stimuli_distractor_diamondtriangles.svg	stimuli_target_rectangletriangles.svg	13	yes	57	0	587	0	0			0	0			1				0	
6.6.1	mac	2023-06-02	07:03:42	07:21:04	1038335	60f4e3ab507bbb123f866e88	4	1	main_slash	11	main_slash	155	stimuli_distractor_diamondtriangles.svg	stimuli_target_trianglesquares.svg	30	yes	53	1	724	0	0			0	0			1				0	
6.6.1	mac	2023-06-02	07:03:42	07:21:04	1038335	60f4e3ab507bbb123f866e88	4	1	main_slash	11	advance_on_keypress_SLASH	156	stimuli_distractor_diamondtriangles.svg	stimuli_target_trianglesquares.svg	30	yes	57	0	1292	0	0			0	0			1				0	
6.6.1	mac	2023-06-02	07:03:42	07:21:08	1042273	60f4e3ab507bbb123f866e88	4	1	main_slash	11	main_slash	157	stimuli_target_squarediamonds.svg	stimuli_distractor_trianglediamonds.svg	4	yes	0	0	2000	0	0			0	0			1				0	
6.6.1	mac	2023-06-02	07:03:42	07:21:08	1042273	60f4e3ab507bbb123f866e88	4	1	main_slash	11	advance_on_keypress_SLASH	158	stimuli_target_squarediamonds.svg	stimuli_distractor_trianglediamonds.svg	4	yes	57	0	1576	0	0			0	0			1				0	
6.6.1	mac	2023-06-02	07:03:42	07:21:11	1045045	60f4e3ab507bbb123f866e88	4	1	main_slash	11	main_slash	159	stimuli_distractor_trianglediamonds.svg	stimuli_target_rectanglediamonds.svg	10	yes	53	1	550	0	0			0	0			1				0	
6.6.1	mac	2023-06-02	07:03:42	07:21:11	1045045	60f4e3ab507bbb123f866e88	4	1	main_slash	11	advance_on_keypress_SLASH	160	stimuli_distractor_trianglediamonds.svg	stimuli_target_rectanglediamonds.svg	10	yes	57	0	599	0	0			0	0			1				0	
6.6.1	mac	2023-06-02	07:03:42	07:21:11	1045045	60f4e3ab507bbb123f866e88	4	1	headphonecheck_calibration	14	headphonecheck_calibrationIntro	1	stimuli_distractor_trianglediamonds.svg	stimuli_target_rectanglediamonds.svg	10	yes	calibrationButton	0	1083	0	0			0	0			1				0	
6.6.1	mac	2023-06-02	07:03:42	07:21:11	1045045	60f4e3ab507bbb123f866e88	4	1	headphonecheck_testphase	15	test_collectResponse	3	stimuli_distractor_trianglediamonds.svg	stimuli_target_rectanglediamonds.svg	10	yes	second	1	6886	1	5	antiphase_hc_osi.wav	2	0	0			1				0	
6.6.1	mac	2023-06-02	07:03:42	07:21:11	1045045	60f4e3ab507bbb123f866e88	4	1	headphonecheck_testphase	15	test_collectResponse	6	stimuli_distractor_trianglediamonds.svg	stimuli_target_rectanglediamonds.svg	10	yes	first	1	467	2	3	antiphase_hc_soi.wav	1	0	0			1				0	
6.6.1	mac	2023-06-02	07:03:42	07:21:11	1045045	60f4e3ab507bbb123f866e88	4	1	headphonecheck_testphase	15	test_collectResponse	9	stimuli_distractor_trianglediamonds.svg	stimuli_target_rectanglediamonds.svg	10	yes	first	1	654	3	4	antiphase_hc_sio.wav	1	0	0			1				0	
6.6.1	mac	2023-06-02	07:03:42	07:21:11	1045045	60f4e3ab507bbb123f866e88	4	1	headphonecheck_testphase	15	test_collectResponse	12	stimuli_distractor_trianglediamonds.svg	stimuli_target_rectanglediamonds.svg	10	yes	second	1	201	4	1	antiphase_hc_iso.wav	2	0	0			1				0	
6.6.1	mac	2023-06-02	07:03:42	07:21:11	1045045	60f4e3ab507bbb123f866e88	4	1	headphonecheck_testphase	15	test_collectResponse	15	stimuli_distractor_trianglediamonds.svg	stimuli_target_rectanglediamonds.svg	10	yes	third	1	3935	5	6	antiphase_hc_ois.wav	3	0	0			1				0	
6.6.1	mac	2023-06-02	07:03:42	07:21:11	1045045	60f4e3ab507bbb123f866e88	4	1	headphonecheck_testphase	15	test_collectResponse	18	stimuli_distractor_trianglediamonds.svg	stimuli_target_rectanglediamonds.svg	10	yes	third	1	346	6	2	antiphase_hc_ios.wav	3	0	0			1				0	
6.6.1	mac	2023-06-02	07:03:42	07:21:11	1045045	60f4e3ab507bbb123f866e88	4	1	stereocheck_calibration	17	stereocheck_calibrationIntro	1	stimuli_distractor_trianglediamonds.svg	stimuli_target_rectanglediamonds.svg	10	yes	stereocheck_calibrationButton	0	3000	6	2	antiphase_hc_ios.wav	3	0	0			1				0	
6.6.1	mac	2023-06-02	07:03:42	07:21:11	1045045	60f4e3ab507bbb123f866e88	4	1	stereocheck_testphase	18	stereocheck_test_collectResponse	3	stimuli_distractor_trianglediamonds.svg	stimuli_target_rectanglediamonds.svg	10	yes	stereocheck_left	1	742	6	2	antiphase_hc_ios.wav	3	1	2	noise_calib_stim_LEFT.wav	1	1				0	
6.6.1	mac	2023-06-02	07:03:42	07:21:11	1045045	60f4e3ab507bbb123f866e88	4	1	stereocheck_testphase	18	stereocheck_test_collectResponse	6	stimuli_distractor_trianglediamonds.svg	stimuli_target_rectanglediamonds.svg	10	yes	stereocheck_right	1	276	6	2	antiphase_hc_ios.wav	3	2	5	noise_calib_stim_RIGHT.wav	2	1				0	
6.6.1	mac	2023-06-02	07:03:42	07:21:11	1045045	60f4e3ab507bbb123f866e88	4	1	stereocheck_testphase	18	stereocheck_test_collectResponse	9	stimuli_distractor_trianglediamonds.svg	stimuli_target_rectanglediamonds.svg	10	yes	stereocheck_left	1	455	6	2	antiphase_hc_ios.wav	3	3	3	noise_calib_stim_LEFT.wav	1	1				0	
6.6.1	mac	2023-06-02	07:03:42	07:21:11	1045045	60f4e3ab507bbb123f866e88	4	1	stereocheck_testphase	18	stereocheck_test_collectResponse	12	stimuli_distractor_trianglediamonds.svg	stimuli_target_rectanglediamonds.svg	10	yes	stereocheck_right	1	339	6	2	antiphase_hc_ios.wav	3	4	6	noise_calib_stim_RIGHT.wav	2	1				0	
6.6.1	mac	2023-06-02	07:03:42	07:21:11	1045045	60f4e3ab507bbb123f866e88	4	1	stereocheck_testphase	18	stereocheck_test_collectResponse	15	stimuli_distractor_trianglediamonds.svg	stimuli_target_rectanglediamonds.svg	10	yes	stereocheck_left	1	333	6	2	antiphase_hc_ios.wav	3	5	1	noise_calib_stim_LEFT.wav	1	1				0	
6.6.1	mac	2023-06-02	07:03:42	07:21:11	1045045	60f4e3ab507bbb123f866e88	4	1	stereocheck_testphase	18	stereocheck_test_collectResponse	18	stimuli_distractor_trianglediamonds.svg	stimuli_target_rectanglediamonds.svg	10	yes	stereocheck_right	1	340	6	2	antiphase_hc_ios.wav	3	6	4	noise_calib_stim_RIGHT.wav	2	1				0	
6.6.1	mac	2023-06-02	07:03:42	07:21:11	1045045	60f4e3ab507bbb123f866e88	4	1	DL_practice	21	DL_practice	2	stimuli_distractor_trianglediamonds.svg	stimuli_target_rectanglediamonds.svg	10	yes	da	1	1256	6	2	antiphase_hc_ios.wav	3	6	4	noise_calib_stim_RIGHT.wav	2	7	blb_dichoticlistening_da-ba.mp3	da	ba	1	left
6.6.1	mac	2023-06-02	07:03:42	07:21:11	1045045	60f4e3ab507bbb123f866e88	4	1	DL_practice	21	DL_practice	3	stimuli_distractor_trianglediamonds.svg	stimuli_target_rectanglediamonds.svg	10	yes	ba	1	1273	6	2	antiphase_hc_ios.wav	3	6	4	noise_calib_stim_RIGHT.wav	2	1	blb_dichoticlistening_ba-ba.mp3	ba	ba	0	left
6.6.1	mac	2023-06-02	07:03:42	07:21:11	1045045	60f4e3ab507bbb123f866e88	4	1	DL_practice	21	DL_practice	4	stimuli_distractor_trianglediamonds.svg	stimuli_target_rectanglediamonds.svg	10	yes	ka	1	1164	6	2	antiphase_hc_ios.wav	3	6	4	noise_calib_stim_RIGHT.wav	2	22	blb_dichoticlistening_ka-ka.mp3	ka	ka	0	left
6.6.1	mac	2023-06-02	07:03:42	07:21:11	1045045	60f4e3ab507bbb123f866e88	4	1	DL_practice	21	DL_practice	5	stimuli_distractor_trianglediamonds.svg	stimuli_target_rectanglediamonds.svg	10	yes	ta	0	1904	6	2	antiphase_hc_ios.wav	3	6	4	noise_calib_stim_RIGHT.wav	2	23	blb_dichoticlistening_ka-pa.mp3	ka	pa	1	other
6.6.1	mac	2023-06-02	07:03:42	07:21:11	1045045	60f4e3ab507bbb123f866e88	4	1	DL_practice	21	DL_practice	6	stimuli_distractor_trianglediamonds.svg	stimuli_target_rectanglediamonds.svg	10	yes	pa	1	2131	6	2	antiphase_hc_ios.wav	3	6	4	noise_calib_stim_RIGHT.wav	2	29	blb_dichoticlistening_pa-pa.mp3	pa	pa	0	left
6.6.1	mac	2023-06-02	07:03:42	07:21:11	1045045	60f4e3ab507bbb123f866e88	4	1	DL_practice	21	DL_practice	7	stimuli_distractor_trianglediamonds.svg	stimuli_target_rectanglediamonds.svg	10	yes	ta	1	1696	6	2	antiphase_hc_ios.wav	3	6	4	noise_calib_stim_RIGHT.wav	2	36	blb_dichoticlistening_ta-ta.mp3	ta	ta	0	left
6.6.1	mac	2023-06-02	07:03:42	07:21:11	1045045	60f4e3ab507bbb123f866e88	4	1	DL_practice	21	DL_practice	8	stimuli_distractor_trianglediamonds.svg	stimuli_target_rectanglediamonds.svg	10	yes	ga	1	1088	6	2	antiphase_hc_ios.wav	3	6	4	noise_calib_stim_RIGHT.wav	2	18	blb_dichoticlistening_ga-ta.mp3	ga	ta	1	left
6.6.1	mac	2023-06-02	07:03:42	07:21:11	1045045	60f4e3ab507bbb123f866e88	4	1	DL_practice	21	DL_practice	9	stimuli_distractor_trianglediamonds.svg	stimuli_target_rectanglediamonds.svg	10	yes	ga	1	758	6	2	antiphase_hc_ios.wav	3	6	4	noise_calib_stim_RIGHT.wav	2	15	blb_dichoticlistening_ga-ga.mp3	ga	ga	0	left
6.6.1	mac	2023-06-02	07:03:42	07:21:11	1045045	60f4e3ab507bbb123f866e88	4	1	DL_practice	21	DL_practice	10	stimuli_distractor_trianglediamonds.svg	stimuli_target_rectanglediamonds.svg	10	yes	da	1	1141	6	2	antiphase_hc_ios.wav	3	6	4	noise_calib_stim_RIGHT.wav	2	8	blb_dichoticlistening_da-da.mp3	da	da	0	left
6.6.1	mac	2023-06-02	07:03:42	07:21:11	1045045	60f4e3ab507bbb123f866e88	4	1	DL_test	23	DL_test	1	stimuli_distractor_trianglediamonds.svg	stimuli_target_rectanglediamonds.svg	10	yes	ba	1	1339	6	2	antiphase_hc_ios.wav	3	6	4	noise_calib_stim_RIGHT.wav	2	2	blb_dichoticlistening_ba-da.mp3	ba	da	1	left
6.6.1	mac	2023-06-02	07:03:42	07:21:11	1045045	60f4e3ab507bbb123f866e88	4	1	DL_test	23	DL_test	2	stimuli_distractor_trianglediamonds.svg	stimuli_target_rectanglediamonds.svg	10	yes	ga	1	944	6	2	antiphase_hc_ios.wav	3	6	4	noise_calib_stim_RIGHT.wav	2	18	blb_dichoticlistening_ga-ta.mp3	ga	ta	1	left
6.6.1	mac	2023-06-02	07:03:42	07:21:11	1045045	60f4e3ab507bbb123f866e88	4	1	DL_test	23	DL_test	3	stimuli_distractor_trianglediamonds.svg	stimuli_target_rectanglediamonds.svg	10	yes	ka	1	749	6	2	antiphase_hc_ios.wav	3	6	4	noise_calib_stim_RIGHT.wav	2	34	blb_dichoticlistening_ta-ka.mp3	ta	ka	1	right
6.6.1	mac	2023-06-02	07:03:42	07:21:11	1045045	60f4e3ab507bbb123f866e88	4	1	DL_test	23	DL_test	4	stimuli_distractor_trianglediamonds.svg	stimuli_target_rectanglediamonds.svg	10	yes	ga	1	1043	6	2	antiphase_hc_ios.wav	3	6	4	noise_calib_stim_RIGHT.wav	2	15	blb_dichoticlistening_ga-ga.mp3	ga	ga	0	left
6.6.1	mac	2023-06-02	07:03:42	07:21:11	1045045	60f4e3ab507bbb123f866e88	4	1	DL_test	23	DL_test	5	stimuli_distractor_trianglediamonds.svg	stimuli_target_rectanglediamonds.svg	10	yes	ba	1	1031	6	2	antiphase_hc_ios.wav	3	6	4	noise_calib_stim_RIGHT.wav	2	3	blb_dichoticlistening_ba-ga.mp3	ba	ga	1	left
6.6.1	mac	2023-06-02	07:03:42	07:21:11	1045045	60f4e3ab507bbb123f866e88	4	1	DL_test	23	DL_test	6	stimuli_distractor_trianglediamonds.svg	stimuli_target_rectanglediamonds.svg	10	yes	ka	1	1730	6	2	antiphase_hc_ios.wav	3	6	4	noise_calib_stim_RIGHT.wav	2	20	blb_dichoticlistening_ka-da.mp3	ka	da	1	left
6.6.1	mac	2023-06-02	07:03:42	07:21:11	1045045	60f4e3ab507bbb123f866e88	4	1	DL_test	23	DL_test	7	stimuli_distractor_trianglediamonds.svg	stimuli_target_rectanglediamonds.svg	10	yes	da	1	1126	6	2	antiphase_hc_ios.wav	3	6	4	noise_calib_stim_RIGHT.wav	2	7	blb_dichoticlistening_da-ba.mp3	da	ba	1	left
6.6.1	mac	2023-06-02	07:03:42	07:21:11	1045045	60f4e3ab507bbb123f866e88	4	1	DL_test	23	DL_test	8	stimuli_distractor_trianglediamonds.svg	stimuli_target_rectanglediamonds.svg	10	yes	ta	1	2007	6	2	antiphase_hc_ios.wav	3	6	4	noise_calib_stim_RIGHT.wav	2	31	blb_dichoticlistening_ta-ba.mp3	ta	ba	1	left
6.6.1	mac	2023-06-02	07:03:42	07:21:11	1045045	60f4e3ab507bbb123f866e88	4	1	DL_test	23	DL_test	9	stimuli_distractor_trianglediamonds.svg	stimuli_target_rectanglediamonds.svg	10	yes	pa	1	1090	6	2	antiphase_hc_ios.wav	3	6	4	noise_calib_stim_RIGHT.wav	2	25	blb_dichoticlistening_pa-ba.mp3	pa	ba	1	left
6.6.1	mac	2023-06-02	07:03:42	07:21:11	1045045	60f4e3ab507bbb123f866e88	4	1	DL_test	23	DL_test	10	stimuli_distractor_trianglediamonds.svg	stimuli_target_rectanglediamonds.svg	10	yes	ta	0	1606	6	2	antiphase_hc_ios.wav	3	6	4	noise_calib_stim_RIGHT.wav	2	26	blb_dichoticlistening_pa-da.mp3	pa	da	1	other
6.6.1	mac	2023-06-02	07:03:42	07:21:11	1045045	60f4e3ab507bbb123f866e88	4	1	DL_test	23	DL_test	11	stimuli_distractor_trianglediamonds.svg	stimuli_target_rectanglediamonds.svg	10	yes	ga	1	1199	6	2	antiphase_hc_ios.wav	3	6	4	noise_calib_stim_RIGHT.wav	2	9	blb_dichoticlistening_da-ga.mp3	da	ga	1	right
6.6.1	mac	2023-06-02	07:03:42	07:21:11	1045045	60f4e3ab507bbb123f866e88	4	1	DL_test	23	DL_test	12	stimuli_distractor_trianglediamonds.svg	stimuli_target_rectanglediamonds.svg	10	yes	ka	1	1148	6	2	antiphase_hc_ios.wav	3	6	4	noise_calib_stim_RIGHT.wav	2	19	blb_dichoticlistening_ka-ba.mp3	ka	ba	1	left
6.6.1	mac	2023-06-02	07:03:42	07:21:11	1045045	60f4e3ab507bbb123f866e88	4	1	DL_test	23	DL_test	13	stimuli_distractor_trianglediamonds.svg	stimuli_target_rectanglediamonds.svg	10	yes	pa	1	1275	6	2	antiphase_hc_ios.wav	3	6	4	noise_calib_stim_RIGHT.wav	2	5	blb_dichoticlistening_ba-pa.mp3	ba	pa	1	right
6.6.1	mac	2023-06-02	07:03:42	07:21:11	1045045	60f4e3ab507bbb123f866e88	4	1	DL_test	23	DL_test	14	stimuli_distractor_trianglediamonds.svg	stimuli_target_rectanglediamonds.svg	10	yes	ka	0	2790	6	2	antiphase_hc_ios.wav	3	6	4	noise_calib_stim_RIGHT.wav	2	12	blb_dichoticlistening_da-ta.mp3	da	ta	1	other
6.6.1	mac	2023-06-02	07:03:42	07:21:11	1045045	60f4e3ab507bbb123f866e88	4	1	DL_test	23	DL_test	15	stimuli_distractor_trianglediamonds.svg	stimuli_target_rectanglediamonds.svg	10	yes	da	1	2214	6	2	antiphase_hc_ios.wav	3	6	4	noise_calib_stim_RIGHT.wav	2	10	blb_dichoticlistening_da-ka.mp3	da	ka	1	left
6.6.1	mac	2023-06-02	07:03:42	07:21:11	1045045	60f4e3ab507bbb123f866e88	4	1	DL_test	23	DL_test	16	stimuli_distractor_trianglediamonds.svg	stimuli_target_rectanglediamonds.svg	10	yes	ka	0	893	6	2	antiphase_hc_ios.wav	3	6	4	noise_calib_stim_RIGHT.wav	2	33	blb_dichoticlistening_ta-ga.mp3	ta	ga	1	other
6.6.1	mac	2023-06-02	07:03:42	07:21:11	1045045	60f4e3ab507bbb123f866e88	4	1	DL_test	23	DL_test	17	stimuli_distractor_trianglediamonds.svg	stimuli_target_rectanglediamonds.svg	10	yes	ta	0	1375	6	2	antiphase_hc_ios.wav	3	6	4	noise_calib_stim_RIGHT.wav	2	28	blb_dichoticlistening_pa-ka.mp3	pa	ka	1	other
6.6.1	mac	2023-06-02	07:03:42	07:21:11	1045045	60f4e3ab507bbb123f866e88	4	1	DL_test	23	DL_test	18	stimuli_distractor_trianglediamonds.svg	stimuli_target_rectanglediamonds.svg	10	yes	ka	0	1146	6	2	antiphase_hc_ios.wav	3	6	4	noise_calib_stim_RIGHT.wav	2	32	blb_dichoticlistening_ta-da.mp3	ta	da	1	other
6.6.1	mac	2023-06-02	07:03:42	07:21:11	1045045	60f4e3ab507bbb123f866e88	4	1	DL_test	23	DL_test	19	stimuli_distractor_trianglediamonds.svg	stimuli_target_rectanglediamonds.svg	10	yes	ka	1	925	6	2	antiphase_hc_ios.wav	3	6	4	noise_calib_stim_RIGHT.wav	2	24	blb_dichoticlistening_ka-ta.mp3	ka	ta	1	left
6.6.1	mac	2023-06-02	07:03:42	07:21:11	1045045	60f4e3ab507bbb123f866e88	4	1	DL_test	23	DL_test	20	stimuli_distractor_trianglediamonds.svg	stimuli_target_rectanglediamonds.svg	10	yes	ta	1	1182	6	2	antiphase_hc_ios.wav	3	6	4	noise_calib_stim_RIGHT.wav	2	36	blb_dichoticlistening_ta-ta.mp3	ta	ta	0	left
6.6.1	mac	2023-06-02	07:03:42	07:21:11	1045045	60f4e3ab507bbb123f866e88	4	1	DL_test	23	DL_test	21	stimuli_distractor_trianglediamonds.svg	stimuli_target_rectanglediamonds.svg	10	yes	ta	1	1098	6	2	antiphase_hc_ios.wav	3	6	4	noise_calib_stim_RIGHT.wav	2	35	blb_dichoticlistening_ta-pa.mp3	ta	pa	1	left
6.6.1	mac	2023-06-02	07:03:42	07:21:11	1045045	60f4e3ab507bbb123f866e88	4	1	DL_test	23	DL_test	22	stimuli_distractor_trianglediamonds.svg	stimuli_target_rectanglediamonds.svg	10	yes	ga	1	2246	6	2	antiphase_hc_ios.wav	3	6	4	noise_calib_stim_RIGHT.wav	2	16	blb_dichoticlistening_ga-ka.mp3	ga	ka	1	left
6.6.1	mac	2023-06-02	07:03:42	07:21:11	1045045	60f4e3ab507bbb123f866e88	4	1	DL_test	23	DL_test	23	stimuli_distractor_trianglediamonds.svg	stimuli_target_rectanglediamonds.svg	10	yes	pa	1	1117	6	2	antiphase_hc_ios.wav	3	6	4	noise_calib_stim_RIGHT.wav	2	29	blb_dichoticlistening_pa-pa.mp3	pa	pa	0	left
6.6.1	mac	2023-06-02	07:03:42	07:21:11	1045045	60f4e3ab507bbb123f866e88	4	1	DL_test	23	DL_test	24	stimuli_distractor_trianglediamonds.svg	stimuli_target_rectanglediamonds.svg	10	yes	ka	1	1030	6	2	antiphase_hc_ios.wav	3	6	4	noise_calib_stim_RIGHT.wav	2	23	blb_dichoticlistening_ka-pa.mp3	ka	pa	1	left
6.6.1	mac	2023-06-02	07:03:42	07:21:11	1045045	60f4e3ab507bbb123f866e88	4	1	DL_test	23	DL_test	25	stimuli_distractor_trianglediamonds.svg	stimuli_target_rectanglediamonds.svg	10	yes	ta	0	1333	6	2	antiphase_hc_ios.wav	3	6	4	noise_calib_stim_RIGHT.wav	2	11	blb_dichoticlistening_da-pa.mp3	da	pa	1	other
