build	computer.platform	date	time	timestamp	time_elapsed_ms	subject	group	session	blockcode	blocknum	trialcode	trialnum	stimulus_left	stimulus_right	stim_index	target_present	response	correct	latency	headphonecheck_countTestTrials	headphonecheck_index	headphonecheck_testSound	headphonecheck_correctResponse	stereocheck_countTestTrials	stereocheck_index	stereocheck_testSound	stereocheck_correctResponse	DL_index	DL_soundfile	DL_leftSound	DL_rightSound	DL_dualSound	DL_choice
6.6.1	mac	2023-07-06	22:37:56	22:41:43	223748	60bf9da88006aeba20357735	4	1	practice_z	5	practice_z	1	stimuli_distractor_trianglediamonds.svg	stimuli_target_rectanglediamonds.svg	10	yes	0	0	2000	0	0			0	0			1				0	
6.6.1	mac	2023-07-06	22:37:56	22:41:43	223748	60bf9da88006aeba20357735	4	1	practice_z	5	advance_on_keypress_ZEE	2	stimuli_distractor_trianglediamonds.svg	stimuli_target_rectanglediamonds.svg	10	yes	57	0	5458	0	0			0	0			1				0	
6.6.1	mac	2023-07-06	22:37:56	22:41:51	231896	60bf9da88006aeba20357735	4	1	practice_z	5	practice_z	3	stimuli_distractor_trianglediamonds.svg	stimuli_target_squarediamonds.svg	11	yes	44	1	1046	0	0			0	0			1				0	
6.6.1	mac	2023-07-06	22:37:56	22:41:51	231896	60bf9da88006aeba20357735	4	1	practice_z	5	advance_on_keypress_ZEE	4	stimuli_distractor_trianglediamonds.svg	stimuli_target_squarediamonds.svg	11	yes	57	0	5658	0	0			0	0			1				0	
6.6.1	mac	2023-07-06	22:37:56	22:42:00	241126	60bf9da88006aeba20357735	4	1	practice_z	5	practice_z	5	stimuli_target_squarediamonds.svg	stimuli_distractor_diamondtriangles.svg	2	yes	44	1	1941	0	0			0	0			1				0	
6.6.1	mac	2023-07-06	22:37:56	22:42:00	241126	60bf9da88006aeba20357735	4	1	practice_z	5	advance_on_keypress_ZEE	6	stimuli_target_squarediamonds.svg	stimuli_distractor_diamondtriangles.svg	2	yes	57	0	1567	0	0			0	0			1				0	
6.6.1	mac	2023-07-06	22:37:56	22:42:06	246314	60bf9da88006aeba20357735	4	1	practice_z	5	practice_z	7	stimuli_distractor_diamondtriangles.svg	stimuli_distractor_diamondtriangles.svg	13	no	0	1	2000	0	0			0	0			1				0	
6.6.1	mac	2023-07-06	22:37:56	22:42:06	246314	60bf9da88006aeba20357735	4	1	practice_z	5	advance_on_keypress_ZEE	8	stimuli_distractor_diamondtriangles.svg	stimuli_distractor_diamondtriangles.svg	13	no	57	0	1187	0	0			0	0			1				0	
6.6.1	mac	2023-07-06	22:37:56	22:42:10	251131	60bf9da88006aeba20357735	4	1	practice_z	5	practice_z	9	stimuli_distractor_trianglediamonds.svg	stimuli_distractor_diamondtriangles.svg	16	no	0	1	2000	0	0			0	0			1				0	
6.6.1	mac	2023-07-06	22:37:56	22:42:10	251131	60bf9da88006aeba20357735	4	1	practice_z	5	advance_on_keypress_ZEE	10	stimuli_distractor_trianglediamonds.svg	stimuli_distractor_diamondtriangles.svg	16	no	57	0	1208	0	0			0	0			1				0	
6.6.1	mac	2023-07-06	22:37:56	22:42:15	255965	60bf9da88006aeba20357735	4	1	practice_z	5	practice_z	11	stimuli_target_diamondsquares.svg	stimuli_distractor_diamondtriangles.svg	3	yes	0	0	2000	0	0			0	0			1				0	
6.6.1	mac	2023-07-06	22:37:56	22:42:15	255965	60bf9da88006aeba20357735	4	1	practice_z	5	advance_on_keypress_ZEE	12	stimuli_target_diamondsquares.svg	stimuli_distractor_diamondtriangles.svg	3	yes	57	0	2339	0	0			0	0			1				0	
6.6.1	mac	2023-07-06	22:37:56	22:42:21	261182	60bf9da88006aeba20357735	4	1	practice_z	5	practice_z	13	stimuli_target_squarediamonds.svg	stimuli_distractor_trianglediamonds.svg	5	yes	44	1	1249	0	0			0	0			1				0	
6.6.1	mac	2023-07-06	22:37:56	22:42:21	261182	60bf9da88006aeba20357735	4	1	practice_z	5	advance_on_keypress_ZEE	14	stimuli_target_squarediamonds.svg	stimuli_distractor_trianglediamonds.svg	5	yes	57	0	840	0	0			0	0			1				0	
6.6.1	mac	2023-07-06	22:37:56	22:42:25	265647	60bf9da88006aeba20357735	4	1	practice_z	5	practice_z	15	stimuli_distractor_trianglediamonds.svg	stimuli_target_diamondrectangles.svg	12	yes	0	0	2000	0	0			0	0			1				0	
6.6.1	mac	2023-07-06	22:37:56	22:42:25	265647	60bf9da88006aeba20357735	4	1	practice_z	5	advance_on_keypress_ZEE	16	stimuli_distractor_trianglediamonds.svg	stimuli_target_diamondrectangles.svg	12	yes	57	0	585	0	0			0	0			1				0	
6.6.1	mac	2023-07-06	22:37:56	22:42:29	269609	60bf9da88006aeba20357735	4	1	practice_z	5	practice_z	17	stimuli_distractor_diamondtriangles.svg	stimuli_target_rectangletriangles.svg	7	yes	44	1	1744	0	0			0	0			1				0	
6.6.1	mac	2023-07-06	22:37:56	22:42:29	269609	60bf9da88006aeba20357735	4	1	practice_z	5	advance_on_keypress_ZEE	18	stimuli_distractor_diamondtriangles.svg	stimuli_target_rectangletriangles.svg	7	yes	57	0	1302	0	0			0	0			1				0	
6.6.1	mac	2023-07-06	22:37:56	22:42:34	274531	60bf9da88006aeba20357735	4	1	practice_z	5	practice_z	19	stimuli_distractor_trianglediamonds.svg	stimuli_distractor_trianglediamonds.svg	15	no	0	1	2000	0	0			0	0			1				0	
6.6.1	mac	2023-07-06	22:37:56	22:42:34	274531	60bf9da88006aeba20357735	4	1	practice_z	5	advance_on_keypress_ZEE	20	stimuli_distractor_trianglediamonds.svg	stimuli_distractor_trianglediamonds.svg	15	no	57	0	484	0	0			0	0			1				0	
6.6.1	mac	2023-07-06	22:37:56	22:42:37	277644	60bf9da88006aeba20357735	4	1	practice_z	5	practice_z	21	stimuli_target_rectanglediamonds.svg	stimuli_distractor_diamondtriangles.svg	1	yes	44	1	995	0	0			0	0			1				0	
6.6.1	mac	2023-07-06	22:37:56	22:42:37	277644	60bf9da88006aeba20357735	4	1	practice_z	5	advance_on_keypress_ZEE	22	stimuli_target_rectanglediamonds.svg	stimuli_distractor_diamondtriangles.svg	1	yes	57	0	1712	0	0			0	0			1				0	
6.6.1	mac	2023-07-06	22:37:56	22:42:41	282130	60bf9da88006aeba20357735	4	1	practice_z	5	practice_z	23	stimuli_distractor_diamondtriangles.svg	stimuli_target_trianglerectangles.svg	9	yes	44	1	1148	0	0			0	0			1				0	
6.6.1	mac	2023-07-06	22:37:56	22:42:41	282130	60bf9da88006aeba20357735	4	1	practice_z	5	advance_on_keypress_ZEE	24	stimuli_distractor_diamondtriangles.svg	stimuli_target_trianglerectangles.svg	9	yes	57	0	712	0	0			0	0			1				0	
6.6.1	mac	2023-07-06	22:37:56	22:42:45	285769	60bf9da88006aeba20357735	4	1	practice_z	5	practice_z	25	stimuli_distractor_diamondtriangles.svg	stimuli_target_diamondrectangles.svg	8	yes	44	1	1287	0	0			0	0			1				0	
6.6.1	mac	2023-07-06	22:37:56	22:42:45	285769	60bf9da88006aeba20357735	4	1	practice_z	5	advance_on_keypress_ZEE	26	stimuli_distractor_diamondtriangles.svg	stimuli_target_diamondrectangles.svg	8	yes	57	0	429	0	0			0	0			1				0	
6.6.1	mac	2023-07-06	22:37:56	22:42:49	289382	60bf9da88006aeba20357735	4	1	practice_z	5	practice_z	27	stimuli_target_diamondsquares.svg	stimuli_distractor_trianglediamonds.svg	6	yes	44	1	1549	0	0			0	0			1				0	
6.6.1	mac	2023-07-06	22:37:56	22:42:49	289382	60bf9da88006aeba20357735	4	1	practice_z	5	advance_on_keypress_ZEE	28	stimuli_target_diamondsquares.svg	stimuli_distractor_trianglediamonds.svg	6	yes	57	0	1044	0	0			0	0			1				0	
6.6.1	mac	2023-07-06	22:37:56	22:42:52	292941	60bf9da88006aeba20357735	4	1	practice_z	5	practice_z	29	stimuli_target_rectanglediamonds.svg	stimuli_distractor_trianglediamonds.svg	4	yes	44	1	892	0	0			0	0			1				0	
6.6.1	mac	2023-07-06	22:37:56	22:42:52	292941	60bf9da88006aeba20357735	4	1	practice_z	5	advance_on_keypress_ZEE	30	stimuli_target_rectanglediamonds.svg	stimuli_distractor_trianglediamonds.svg	4	yes	57	0	591	0	0			0	0			1				0	
6.6.1	mac	2023-07-06	22:37:56	22:42:57	297164	60bf9da88006aeba20357735	4	1	practice_z	5	practice_z	31	stimuli_distractor_diamondtriangles.svg	stimuli_distractor_trianglediamonds.svg	14	no	0	1	2000	0	0			0	0			1				0	
6.6.1	mac	2023-07-06	22:37:56	22:42:57	297164	60bf9da88006aeba20357735	4	1	practice_z	5	advance_on_keypress_ZEE	32	stimuli_distractor_diamondtriangles.svg	stimuli_distractor_trianglediamonds.svg	14	no	57	0	609	0	0			0	0			1				0	
6.6.1	mac	2023-07-06	22:37:56	22:43:07	308025	60bf9da88006aeba20357735	4	1	main_z	7	main_z	1	stimuli_target_diamondsquares.svg	stimuli_distractor_trianglediamonds.svg	20	yes	44	1	1476	0	0			0	0			1				0	
6.6.1	mac	2023-07-06	22:37:56	22:43:07	308025	60bf9da88006aeba20357735	4	1	main_z	7	advance_on_keypress_ZEE	2	stimuli_target_diamondsquares.svg	stimuli_distractor_trianglediamonds.svg	20	yes	57	0	3158	0	0			0	0			1				0	
6.6.1	mac	2023-07-06	22:37:56	22:43:12	312810	60bf9da88006aeba20357735	4	1	main_z	7	main_z	3	stimuli_distractor_trianglediamonds.svg	stimuli_target_diamondsquares.svg	28	yes	44	1	994	0	0			0	0			1				0	
6.6.1	mac	2023-07-06	22:37:56	22:43:12	312810	60bf9da88006aeba20357735	4	1	main_z	7	advance_on_keypress_ZEE	4	stimuli_distractor_trianglediamonds.svg	stimuli_target_diamondsquares.svg	28	yes	57	0	981	0	0			0	0			1				0	
6.6.1	mac	2023-07-06	22:37:56	22:43:15	315392	60bf9da88006aeba20357735	4	1	main_z	7	main_z	5	stimuli_distractor_diamondtriangles.svg	stimuli_target_trianglesquares.svg	30	yes	44	1	976	0	0			0	0			1				0	
6.6.1	mac	2023-07-06	22:37:56	22:43:15	315392	60bf9da88006aeba20357735	4	1	main_z	7	advance_on_keypress_ZEE	6	stimuli_distractor_diamondtriangles.svg	stimuli_target_trianglesquares.svg	30	yes	57	0	821	0	0			0	0			1				0	
6.6.1	mac	2023-07-06	22:37:56	22:43:18	318847	60bf9da88006aeba20357735	4	1	main_z	7	main_z	7	stimuli_distractor_diamondtriangles.svg	stimuli_distractor_trianglediamonds.svg	37	no	0	1	2000	0	0			0	0			1				0	
6.6.1	mac	2023-07-06	22:37:56	22:43:18	318847	60bf9da88006aeba20357735	4	1	main_z	7	advance_on_keypress_ZEE	8	stimuli_distractor_diamondtriangles.svg	stimuli_distractor_trianglediamonds.svg	37	no	57	0	877	0	0			0	0			1				0	
6.6.1	mac	2023-07-06	22:37:56	22:43:21	321337	60bf9da88006aeba20357735	4	1	main_z	7	main_z	9	stimuli_distractor_trianglediamonds.svg	stimuli_target_rectanglediamonds.svg	10	yes	44	1	970	0	0			0	0			1				0	
6.6.1	mac	2023-07-06	22:37:56	22:43:21	321337	60bf9da88006aeba20357735	4	1	main_z	7	advance_on_keypress_ZEE	10	stimuli_distractor_trianglediamonds.svg	stimuli_target_rectanglediamonds.svg	10	yes	57	0	917	0	0			0	0			1				0	
6.6.1	mac	2023-07-06	22:37:56	22:43:23	323926	60bf9da88006aeba20357735	4	1	main_z	7	main_z	11	stimuli_distractor_trianglediamonds.svg	stimuli_target_squaretriangles.svg	11	yes	44	1	1044	0	0			0	0			1				0	
6.6.1	mac	2023-07-06	22:37:56	22:43:23	323926	60bf9da88006aeba20357735	4	1	main_z	7	advance_on_keypress_ZEE	12	stimuli_distractor_trianglediamonds.svg	stimuli_target_squaretriangles.svg	11	yes	57	0	1173	0	0			0	0			1				0	
6.6.1	mac	2023-07-06	22:37:56	22:43:27	327730	60bf9da88006aeba20357735	4	1	main_z	7	main_z	13	stimuli_distractor_diamondtriangles.svg	stimuli_target_squaretriangles.svg	15	yes	0	0	2000	0	0			0	0			1				0	
6.6.1	mac	2023-07-06	22:37:56	22:43:27	327730	60bf9da88006aeba20357735	4	1	main_z	7	advance_on_keypress_ZEE	14	stimuli_distractor_diamondtriangles.svg	stimuli_target_squaretriangles.svg	15	yes	57	0	43	0	0			0	0			1				0	
6.6.1	mac	2023-07-06	22:37:56	22:43:29	330131	60bf9da88006aeba20357735	4	1	main_z	7	main_z	15	stimuli_target_diamondsquares.svg	stimuli_distractor_diamondtriangles.svg	24	yes	44	1	1730	0	0			0	0			1				0	
6.6.1	mac	2023-07-06	22:37:56	22:43:29	330131	60bf9da88006aeba20357735	4	1	main_z	7	advance_on_keypress_ZEE	16	stimuli_target_diamondsquares.svg	stimuli_distractor_diamondtriangles.svg	24	yes	57	0	1262	0	0			0	0			1				0	
6.6.1	mac	2023-07-06	22:37:56	22:43:32	332915	60bf9da88006aeba20357735	4	1	main_z	7	main_z	17	stimuli_distractor_diamondtriangles.svg	stimuli_target_diamondsquares.svg	32	yes	44	1	900	0	0			0	0			1				0	
6.6.1	mac	2023-07-06	22:37:56	22:43:32	332915	60bf9da88006aeba20357735	4	1	main_z	7	advance_on_keypress_ZEE	18	stimuli_distractor_diamondtriangles.svg	stimuli_target_diamondsquares.svg	32	yes	57	0	1017	0	0			0	0			1				0	
6.6.1	mac	2023-07-06	22:37:56	22:43:36	336564	60bf9da88006aeba20357735	4	1	main_z	7	main_z	19	stimuli_distractor_trianglediamonds.svg	stimuli_distractor_trianglediamonds.svg	33	no	0	1	2000	0	0			0	0			1				0	
6.6.1	mac	2023-07-06	22:37:56	22:43:36	336564	60bf9da88006aeba20357735	4	1	main_z	7	advance_on_keypress_ZEE	20	stimuli_distractor_trianglediamonds.svg	stimuli_distractor_trianglediamonds.svg	33	no	57	0	766	0	0			0	0			1				0	
6.6.1	mac	2023-07-06	22:37:56	22:43:38	338936	60bf9da88006aeba20357735	4	1	main_z	7	main_z	21	stimuli_distractor_trianglediamonds.svg	stimuli_target_trianglerectangles.svg	25	yes	44	1	971	0	0			0	0			1				0	
6.6.1	mac	2023-07-06	22:37:56	22:43:38	338936	60bf9da88006aeba20357735	4	1	main_z	7	advance_on_keypress_ZEE	22	stimuli_distractor_trianglediamonds.svg	stimuli_target_trianglerectangles.svg	25	yes	57	0	997	0	0			0	0			1				0	
6.6.1	mac	2023-07-06	22:37:56	22:43:42	342563	60bf9da88006aeba20357735	4	1	main_z	7	main_z	23	stimuli_distractor_trianglediamonds.svg	stimuli_distractor_trianglediamonds.svg	34	no	0	1	2000	0	0			0	0			1				0	
6.6.1	mac	2023-07-06	22:37:56	22:43:42	342563	60bf9da88006aeba20357735	4	1	main_z	7	advance_on_keypress_ZEE	24	stimuli_distractor_trianglediamonds.svg	stimuli_distractor_trianglediamonds.svg	34	no	57	0	610	0	0			0	0			1				0	
6.6.1	mac	2023-07-06	22:37:56	22:43:44	344751	60bf9da88006aeba20357735	4	1	main_z	7	main_z	25	stimuli_target_diamondrectangles.svg	stimuli_distractor_trianglediamonds.svg	19	yes	44	1	952	0	0			0	0			1				0	
6.6.1	mac	2023-07-06	22:37:56	22:43:44	344751	60bf9da88006aeba20357735	4	1	main_z	7	advance_on_keypress_ZEE	26	stimuli_target_diamondrectangles.svg	stimuli_distractor_trianglediamonds.svg	19	yes	57	0	926	0	0			0	0			1				0	
6.6.1	mac	2023-07-06	22:37:56	22:43:47	347313	60bf9da88006aeba20357735	4	1	main_z	7	main_z	27	stimuli_target_trianglerectangles.svg	stimuli_distractor_diamondtriangles.svg	21	yes	44	1	1014	0	0			0	0			1				0	
6.6.1	mac	2023-07-06	22:37:56	22:43:47	347313	60bf9da88006aeba20357735	4	1	main_z	7	advance_on_keypress_ZEE	28	stimuli_target_trianglerectangles.svg	stimuli_distractor_diamondtriangles.svg	21	yes	57	0	828	0	0			0	0			1				0	
6.6.1	mac	2023-07-06	22:37:56	22:43:50	350779	60bf9da88006aeba20357735	4	1	main_z	7	main_z	29	stimuli_distractor_trianglediamonds.svg	stimuli_distractor_diamondtriangles.svg	35	no	0	1	2000	0	0			0	0			1				0	
6.6.1	mac	2023-07-06	22:37:56	22:43:50	350779	60bf9da88006aeba20357735	4	1	main_z	7	advance_on_keypress_ZEE	30	stimuli_distractor_trianglediamonds.svg	stimuli_distractor_diamondtriangles.svg	35	no	57	0	656	0	0			0	0			1				0	
6.6.1	mac	2023-07-06	22:37:56	22:43:53	353234	60bf9da88006aeba20357735	4	1	main_z	7	main_z	31	stimuli_target_rectanglediamonds.svg	stimuli_distractor_trianglediamonds.svg	2	yes	44	1	1170	0	0			0	0			1				0	
6.6.1	mac	2023-07-06	22:37:56	22:43:53	353234	60bf9da88006aeba20357735	4	1	main_z	7	advance_on_keypress_ZEE	32	stimuli_target_rectanglediamonds.svg	stimuli_distractor_trianglediamonds.svg	2	yes	57	0	827	0	0			0	0			1				0	
6.6.1	mac	2023-07-06	22:37:56	22:43:55	355798	60bf9da88006aeba20357735	4	1	main_z	7	main_z	33	stimuli_target_squarediamonds.svg	stimuli_distractor_trianglediamonds.svg	4	yes	44	1	1116	0	0			0	0			1				0	
6.6.1	mac	2023-07-06	22:37:56	22:43:55	355798	60bf9da88006aeba20357735	4	1	main_z	7	advance_on_keypress_ZEE	34	stimuli_target_squarediamonds.svg	stimuli_distractor_trianglediamonds.svg	4	yes	57	0	772	0	0			0	0			1				0	
6.6.1	mac	2023-07-06	22:37:56	22:43:59	359196	60bf9da88006aeba20357735	4	1	main_z	7	main_z	35	stimuli_distractor_diamondtriangles.svg	stimuli_distractor_diamondtriangles.svg	39	no	0	1	2000	0	0			0	0			1				0	
6.6.1	mac	2023-07-06	22:37:56	22:43:59	359196	60bf9da88006aeba20357735	4	1	main_z	7	advance_on_keypress_ZEE	36	stimuli_distractor_diamondtriangles.svg	stimuli_distractor_diamondtriangles.svg	39	no	57	0	686	0	0			0	0			1				0	
6.6.1	mac	2023-07-06	22:37:56	22:44:01	361577	60bf9da88006aeba20357735	4	1	main_z	7	main_z	37	stimuli_target_squaretriangles.svg	stimuli_distractor_diamondtriangles.svg	7	yes	44	1	1062	0	0			0	0			1				0	
6.6.1	mac	2023-07-06	22:37:56	22:44:01	361577	60bf9da88006aeba20357735	4	1	main_z	7	advance_on_keypress_ZEE	38	stimuli_target_squaretriangles.svg	stimuli_distractor_diamondtriangles.svg	7	yes	57	0	1172	0	0			0	0			1				0	
6.6.1	mac	2023-07-06	22:37:56	22:44:04	364324	60bf9da88006aeba20357735	4	1	main_z	7	main_z	39	stimuli_distractor_diamondtriangles.svg	stimuli_target_diamondrectangles.svg	31	yes	44	1	941	0	0			0	0			1				0	
6.6.1	mac	2023-07-06	22:37:56	22:44:04	364324	60bf9da88006aeba20357735	4	1	main_z	7	advance_on_keypress_ZEE	40	stimuli_distractor_diamondtriangles.svg	stimuli_target_diamondrectangles.svg	31	yes	57	0	758	0	0			0	0			1				0	
6.6.1	mac	2023-07-06	22:37:56	22:44:06	366808	60bf9da88006aeba20357735	4	1	main_z	7	main_z	41	stimuli_target_trianglesquares.svg	stimuli_distractor_diamondtriangles.svg	22	yes	44	1	1093	0	0			0	0			1				0	
6.6.1	mac	2023-07-06	22:37:56	22:44:06	366808	60bf9da88006aeba20357735	4	1	main_z	7	advance_on_keypress_ZEE	42	stimuli_target_trianglesquares.svg	stimuli_distractor_diamondtriangles.svg	22	yes	57	0	893	0	0			0	0			1				0	
6.6.1	mac	2023-07-06	22:37:56	22:44:09	369313	60bf9da88006aeba20357735	4	1	main_z	7	main_z	43	stimuli_target_trianglesquares.svg	stimuli_distractor_trianglediamonds.svg	18	yes	44	1	981	0	0			0	0			1				0	
6.6.1	mac	2023-07-06	22:37:56	22:44:09	369313	60bf9da88006aeba20357735	4	1	main_z	7	advance_on_keypress_ZEE	44	stimuli_target_trianglesquares.svg	stimuli_distractor_trianglediamonds.svg	18	yes	57	0	753	0	0			0	0			1				0	
6.6.1	mac	2023-07-06	22:37:56	22:44:12	372379	60bf9da88006aeba20357735	4	1	main_z	7	main_z	45	stimuli_distractor_diamondtriangles.svg	stimuli_distractor_trianglediamonds.svg	38	no	44	0	1682	0	0			0	0			1				0	
6.6.1	mac	2023-07-06	22:37:56	22:44:12	372379	60bf9da88006aeba20357735	4	1	main_z	7	advance_on_keypress_ZEE	46	stimuli_distractor_diamondtriangles.svg	stimuli_distractor_trianglediamonds.svg	38	no	57	0	689	0	0			0	0			1				0	
6.6.1	mac	2023-07-06	22:37:56	22:44:14	374619	60bf9da88006aeba20357735	4	1	main_z	7	main_z	47	stimuli_distractor_trianglediamonds.svg	stimuli_target_trianglesquares.svg	26	yes	44	1	921	0	0			0	0			1				0	
6.6.1	mac	2023-07-06	22:37:56	22:44:14	374619	60bf9da88006aeba20357735	4	1	main_z	7	advance_on_keypress_ZEE	48	stimuli_distractor_trianglediamonds.svg	stimuli_target_trianglesquares.svg	26	yes	57	0	554	0	0			0	0			1				0	
6.6.1	mac	2023-07-06	22:37:56	22:44:17	377795	60bf9da88006aeba20357735	4	1	main_z	7	main_z	49	stimuli_distractor_diamondtriangles.svg	stimuli_target_squarediamonds.svg	16	yes	0	0	2000	0	0			0	0			1				0	
6.6.1	mac	2023-07-06	22:37:56	22:44:17	377795	60bf9da88006aeba20357735	4	1	main_z	7	advance_on_keypress_ZEE	50	stimuli_distractor_diamondtriangles.svg	stimuli_target_squarediamonds.svg	16	yes	57	0	1012	0	0			0	0			1				0	
6.6.1	mac	2023-07-06	22:37:56	22:44:20	380612	60bf9da88006aeba20357735	4	1	main_z	7	main_z	51	stimuli_distractor_diamondtriangles.svg	stimuli_target_rectangletriangles.svg	13	yes	44	1	1180	0	0			0	0			1				0	
6.6.1	mac	2023-07-06	22:37:56	22:44:20	380612	60bf9da88006aeba20357735	4	1	main_z	7	advance_on_keypress_ZEE	52	stimuli_distractor_diamondtriangles.svg	stimuli_target_rectangletriangles.svg	13	yes	57	0	564	0	0			0	0			1				0	
6.6.1	mac	2023-07-06	22:37:56	22:44:23	383275	60bf9da88006aeba20357735	4	1	main_z	7	main_z	53	stimuli_distractor_diamondtriangles.svg	stimuli_target_trianglerectangles.svg	29	yes	44	1	1460	0	0			0	0			1				0	
6.6.1	mac	2023-07-06	22:37:56	22:44:23	383275	60bf9da88006aeba20357735	4	1	main_z	7	advance_on_keypress_ZEE	54	stimuli_distractor_diamondtriangles.svg	stimuli_target_trianglerectangles.svg	29	yes	57	0	956	0	0			0	0			1				0	
6.6.1	mac	2023-07-06	22:37:56	22:44:25	385838	60bf9da88006aeba20357735	4	1	main_z	7	main_z	55	stimuli_target_trianglerectangles.svg	stimuli_distractor_trianglediamonds.svg	17	yes	44	1	972	0	0			0	0			1				0	
6.6.1	mac	2023-07-06	22:37:56	22:44:25	385838	60bf9da88006aeba20357735	4	1	main_z	7	advance_on_keypress_ZEE	56	stimuli_target_trianglerectangles.svg	stimuli_distractor_trianglediamonds.svg	17	yes	57	0	653	0	0			0	0			1				0	
6.6.1	mac	2023-07-06	22:37:56	22:44:28	389129	60bf9da88006aeba20357735	4	1	main_z	7	main_z	57	stimuli_distractor_diamondtriangles.svg	stimuli_distractor_diamondtriangles.svg	40	no	0	1	2000	0	0			0	0			1				0	
6.6.1	mac	2023-07-06	22:37:56	22:44:28	389129	60bf9da88006aeba20357735	4	1	main_z	7	advance_on_keypress_ZEE	58	stimuli_distractor_diamondtriangles.svg	stimuli_distractor_diamondtriangles.svg	40	no	57	0	643	0	0			0	0			1				0	
6.6.1	mac	2023-07-06	22:37:56	22:44:31	391415	60bf9da88006aeba20357735	4	1	main_z	7	main_z	59	stimuli_distractor_trianglediamonds.svg	stimuli_target_diamondrectangles.svg	27	yes	44	1	1016	0	0			0	0			1				0	
6.6.1	mac	2023-07-06	22:37:56	22:44:31	391415	60bf9da88006aeba20357735	4	1	main_z	7	advance_on_keypress_ZEE	60	stimuli_distractor_trianglediamonds.svg	stimuli_target_diamondrectangles.svg	27	yes	57	0	754	0	0			0	0			1				0	
6.6.1	mac	2023-07-06	22:37:56	22:44:33	393834	60bf9da88006aeba20357735	4	1	main_z	7	main_z	61	stimuli_target_rectangletriangles.svg	stimuli_distractor_trianglediamonds.svg	1	yes	44	1	1036	0	0			0	0			1				0	
6.6.1	mac	2023-07-06	22:37:56	22:44:33	393834	60bf9da88006aeba20357735	4	1	main_z	7	advance_on_keypress_ZEE	62	stimuli_target_rectangletriangles.svg	stimuli_distractor_trianglediamonds.svg	1	yes	57	0	583	0	0			0	0			1				0	
6.6.1	mac	2023-07-06	22:37:56	22:44:35	396105	60bf9da88006aeba20357735	4	1	main_z	7	main_z	63	stimuli_distractor_trianglediamonds.svg	stimuli_target_squarediamonds.svg	12	yes	44	1	1057	0	0			0	0			1				0	
6.6.1	mac	2023-07-06	22:37:56	22:44:35	396105	60bf9da88006aeba20357735	4	1	main_z	7	advance_on_keypress_ZEE	64	stimuli_distractor_trianglediamonds.svg	stimuli_target_squarediamonds.svg	12	yes	57	0	561	0	0			0	0			1				0	
6.6.1	mac	2023-07-06	22:37:56	22:44:38	398361	60bf9da88006aeba20357735	4	1	main_z	7	main_z	65	stimuli_target_rectangletriangles.svg	stimuli_distractor_diamondtriangles.svg	5	yes	44	1	1064	0	0			0	0			1				0	
6.6.1	mac	2023-07-06	22:37:56	22:44:38	398361	60bf9da88006aeba20357735	4	1	main_z	7	advance_on_keypress_ZEE	66	stimuli_target_rectangletriangles.svg	stimuli_distractor_diamondtriangles.svg	5	yes	57	0	596	0	0			0	0			1				0	
6.6.1	mac	2023-07-06	22:37:56	22:44:40	400740	60bf9da88006aeba20357735	4	1	main_z	7	main_z	67	stimuli_target_diamondrectangles.svg	stimuli_distractor_diamondtriangles.svg	23	yes	44	1	1157	0	0			0	0			1				0	
6.6.1	mac	2023-07-06	22:37:56	22:44:40	400740	60bf9da88006aeba20357735	4	1	main_z	7	advance_on_keypress_ZEE	68	stimuli_target_diamondrectangles.svg	stimuli_distractor_diamondtriangles.svg	23	yes	57	0	538	0	0			0	0			1				0	
6.6.1	mac	2023-07-06	22:37:56	22:44:43	403239	60bf9da88006aeba20357735	4	1	main_z	7	main_z	69	stimuli_target_rectanglediamonds.svg	stimuli_distractor_diamondtriangles.svg	6	yes	44	1	1322	0	0			0	0			1				0	
6.6.1	mac	2023-07-06	22:37:56	22:44:43	403239	60bf9da88006aeba20357735	4	1	main_z	7	advance_on_keypress_ZEE	70	stimuli_target_rectanglediamonds.svg	stimuli_distractor_diamondtriangles.svg	6	yes	57	0	521	0	0			0	0			1				0	
6.6.1	mac	2023-07-06	22:37:56	22:44:45	405660	60bf9da88006aeba20357735	4	1	main_z	7	main_z	71	stimuli_target_squarediamonds.svg	stimuli_distractor_diamondtriangles.svg	8	yes	44	1	1261	0	0			0	0			1				0	
6.6.1	mac	2023-07-06	22:37:56	22:44:45	405660	60bf9da88006aeba20357735	4	1	main_z	7	advance_on_keypress_ZEE	72	stimuli_target_squarediamonds.svg	stimuli_distractor_diamondtriangles.svg	8	yes	57	0	505	0	0			0	0			1				0	
6.6.1	mac	2023-07-06	22:37:56	22:44:47	407816	60bf9da88006aeba20357735	4	1	main_z	7	main_z	73	stimuli_target_squaretriangles.svg	stimuli_distractor_trianglediamonds.svg	3	yes	44	1	1017	0	0			0	0			1				0	
6.6.1	mac	2023-07-06	22:37:56	22:44:47	407816	60bf9da88006aeba20357735	4	1	main_z	7	advance_on_keypress_ZEE	74	stimuli_target_squaretriangles.svg	stimuli_distractor_trianglediamonds.svg	3	yes	57	0	520	0	0			0	0			1				0	
6.6.1	mac	2023-07-06	22:37:56	22:44:50	410962	60bf9da88006aeba20357735	4	1	main_z	7	main_z	75	stimuli_distractor_trianglediamonds.svg	stimuli_distractor_diamondtriangles.svg	36	no	0	1	2000	0	0			0	0			1				0	
6.6.1	mac	2023-07-06	22:37:56	22:44:50	410962	60bf9da88006aeba20357735	4	1	main_z	7	advance_on_keypress_ZEE	76	stimuli_distractor_trianglediamonds.svg	stimuli_distractor_diamondtriangles.svg	36	no	57	0	1081	0	0			0	0			1				0	
6.6.1	mac	2023-07-06	22:37:56	22:44:53	413756	60bf9da88006aeba20357735	4	1	main_z	7	main_z	77	stimuli_distractor_diamondtriangles.svg	stimuli_target_rectanglediamonds.svg	14	yes	44	1	1075	0	0			0	0			1				0	
6.6.1	mac	2023-07-06	22:37:56	22:44:53	413756	60bf9da88006aeba20357735	4	1	main_z	7	advance_on_keypress_ZEE	78	stimuli_distractor_diamondtriangles.svg	stimuli_target_rectanglediamonds.svg	14	yes	57	0	463	0	0			0	0			1				0	
6.6.1	mac	2023-07-06	22:37:56	22:44:55	415933	60bf9da88006aeba20357735	4	1	main_z	7	main_z	79	stimuli_distractor_trianglediamonds.svg	stimuli_target_rectangletriangles.svg	9	yes	44	1	1084	0	0			0	0			1				0	
6.6.1	mac	2023-07-06	22:37:56	22:44:55	415933	60bf9da88006aeba20357735	4	1	main_z	7	advance_on_keypress_ZEE	80	stimuli_distractor_trianglediamonds.svg	stimuli_target_rectangletriangles.svg	9	yes	57	0	654	0	0			0	0			1				0	
6.6.1	mac	2023-07-06	22:37:56	22:44:58	418177	60bf9da88006aeba20357735	4	1	main_z	7	main_z	81	stimuli_distractor_trianglediamonds.svg	stimuli_target_rectangletriangles.svg	9	yes	44	1	963	0	0			0	0			1				0	
6.6.1	mac	2023-07-06	22:37:56	22:44:58	418177	60bf9da88006aeba20357735	4	1	main_z	7	advance_on_keypress_ZEE	82	stimuli_distractor_trianglediamonds.svg	stimuli_target_rectangletriangles.svg	9	yes	57	0	245	0	0			0	0			1				0	
6.6.1	mac	2023-07-06	22:37:56	22:44:59	419818	60bf9da88006aeba20357735	4	1	main_z	7	main_z	83	stimuli_target_rectangletriangles.svg	stimuli_distractor_trianglediamonds.svg	1	yes	44	1	771	0	0			0	0			1				0	
6.6.1	mac	2023-07-06	22:37:56	22:44:59	419818	60bf9da88006aeba20357735	4	1	main_z	7	advance_on_keypress_ZEE	84	stimuli_target_rectangletriangles.svg	stimuli_distractor_trianglediamonds.svg	1	yes	57	0	212	0	0			0	0			1				0	
6.6.1	mac	2023-07-06	22:37:56	22:45:01	421557	60bf9da88006aeba20357735	4	1	main_z	7	main_z	85	stimuli_distractor_trianglediamonds.svg	stimuli_target_rectanglediamonds.svg	10	yes	44	1	908	0	0			0	0			1				0	
6.6.1	mac	2023-07-06	22:37:56	22:45:01	421557	60bf9da88006aeba20357735	4	1	main_z	7	advance_on_keypress_ZEE	86	stimuli_distractor_trianglediamonds.svg	stimuli_target_rectanglediamonds.svg	10	yes	57	0	243	0	0			0	0			1				0	
6.6.1	mac	2023-07-06	22:37:56	22:45:03	423615	60bf9da88006aeba20357735	4	1	main_z	7	main_z	87	stimuli_distractor_diamondtriangles.svg	stimuli_distractor_trianglediamonds.svg	37	no	44	0	1185	0	0			0	0			1				0	
6.6.1	mac	2023-07-06	22:37:56	22:45:03	423615	60bf9da88006aeba20357735	4	1	main_z	7	advance_on_keypress_ZEE	88	stimuli_distractor_diamondtriangles.svg	stimuli_distractor_trianglediamonds.svg	37	no	57	0	273	0	0			0	0			1				0	
6.6.1	mac	2023-07-06	22:37:56	22:45:06	426511	60bf9da88006aeba20357735	4	1	main_z	7	main_z	89	stimuli_distractor_diamondtriangles.svg	stimuli_distractor_diamondtriangles.svg	39	no	0	1	2000	0	0			0	0			1				0	
6.6.1	mac	2023-07-06	22:37:56	22:45:06	426511	60bf9da88006aeba20357735	4	1	main_z	7	advance_on_keypress_ZEE	90	stimuli_distractor_diamondtriangles.svg	stimuli_distractor_diamondtriangles.svg	39	no	57	0	614	0	0			0	0			1				0	
6.6.1	mac	2023-07-06	22:37:56	22:45:08	428767	60bf9da88006aeba20357735	4	1	main_z	7	main_z	91	stimuli_target_rectangletriangles.svg	stimuli_distractor_diamondtriangles.svg	5	yes	44	1	1003	0	0			0	0			1				0	
6.6.1	mac	2023-07-06	22:37:56	22:45:08	428767	60bf9da88006aeba20357735	4	1	main_z	7	advance_on_keypress_ZEE	92	stimuli_target_rectangletriangles.svg	stimuli_distractor_diamondtriangles.svg	5	yes	57	0	289	0	0			0	0			1				0	
6.6.1	mac	2023-07-06	22:37:56	22:45:10	430800	60bf9da88006aeba20357735	4	1	main_z	7	main_z	93	stimuli_target_rectanglediamonds.svg	stimuli_distractor_diamondtriangles.svg	6	yes	44	1	1119	0	0			0	0			1				0	
6.6.1	mac	2023-07-06	22:37:56	22:45:10	430800	60bf9da88006aeba20357735	4	1	main_z	7	advance_on_keypress_ZEE	94	stimuli_target_rectanglediamonds.svg	stimuli_distractor_diamondtriangles.svg	6	yes	57	0	255	0	0			0	0			1				0	
6.6.1	mac	2023-07-06	22:37:56	22:45:12	432717	60bf9da88006aeba20357735	4	1	main_z	7	main_z	95	stimuli_distractor_diamondtriangles.svg	stimuli_target_rectangletriangles.svg	13	yes	44	1	1037	0	0			0	0			1				0	
6.6.1	mac	2023-07-06	22:37:56	22:45:12	432717	60bf9da88006aeba20357735	4	1	main_z	7	advance_on_keypress_ZEE	96	stimuli_distractor_diamondtriangles.svg	stimuli_target_rectangletriangles.svg	13	yes	57	0	260	0	0			0	0			1				0	
6.6.1	mac	2023-07-06	22:37:56	22:45:14	434565	60bf9da88006aeba20357735	4	1	main_z	7	main_z	97	stimuli_distractor_diamondtriangles.svg	stimuli_target_squarediamonds.svg	16	yes	44	1	969	0	0			0	0			1				0	
6.6.1	mac	2023-07-06	22:37:56	22:45:14	434565	60bf9da88006aeba20357735	4	1	main_z	7	advance_on_keypress_ZEE	98	stimuli_distractor_diamondtriangles.svg	stimuli_target_squarediamonds.svg	16	yes	57	0	256	0	0			0	0			1				0	
6.6.1	mac	2023-07-06	22:37:56	22:45:16	436390	60bf9da88006aeba20357735	4	1	main_z	7	main_z	99	stimuli_distractor_trianglediamonds.svg	stimuli_target_trianglesquares.svg	26	yes	44	1	942	0	0			0	0			1				0	
6.6.1	mac	2023-07-06	22:37:56	22:45:16	436390	60bf9da88006aeba20357735	4	1	main_z	7	advance_on_keypress_ZEE	100	stimuli_distractor_trianglediamonds.svg	stimuli_target_trianglesquares.svg	26	yes	57	0	253	0	0			0	0			1				0	
6.6.1	mac	2023-07-06	22:37:56	22:45:18	438241	60bf9da88006aeba20357735	4	1	main_z	7	main_z	101	stimuli_target_diamondrectangles.svg	stimuli_distractor_diamondtriangles.svg	23	yes	44	1	977	0	0			0	0			1				0	
6.6.1	mac	2023-07-06	22:37:56	22:45:18	438241	60bf9da88006aeba20357735	4	1	main_z	7	advance_on_keypress_ZEE	102	stimuli_target_diamondrectangles.svg	stimuli_distractor_diamondtriangles.svg	23	yes	57	0	272	0	0			0	0			1				0	
6.6.1	mac	2023-07-06	22:37:56	22:45:19	440091	60bf9da88006aeba20357735	4	1	main_z	7	main_z	103	stimuli_target_trianglesquares.svg	stimuli_distractor_trianglediamonds.svg	18	yes	44	1	944	0	0			0	0			1				0	
6.6.1	mac	2023-07-06	22:37:56	22:45:19	440091	60bf9da88006aeba20357735	4	1	main_z	7	advance_on_keypress_ZEE	104	stimuli_target_trianglesquares.svg	stimuli_distractor_trianglediamonds.svg	18	yes	57	0	225	0	0			0	0			1				0	
6.6.1	mac	2023-07-06	22:37:56	22:45:21	441854	60bf9da88006aeba20357735	4	1	main_z	7	main_z	105	stimuli_target_rectanglediamonds.svg	stimuli_distractor_trianglediamonds.svg	2	yes	44	1	905	0	0			0	0			1				0	
6.6.1	mac	2023-07-06	22:37:56	22:45:21	441854	60bf9da88006aeba20357735	4	1	main_z	7	advance_on_keypress_ZEE	106	stimuli_target_rectanglediamonds.svg	stimuli_distractor_trianglediamonds.svg	2	yes	57	0	208	0	0			0	0			1				0	
6.6.1	mac	2023-07-06	22:37:56	22:45:23	443623	60bf9da88006aeba20357735	4	1	main_z	7	main_z	107	stimuli_distractor_trianglediamonds.svg	stimuli_target_trianglerectangles.svg	25	yes	44	1	925	0	0			0	0			1				0	
6.6.1	mac	2023-07-06	22:37:56	22:45:23	443623	60bf9da88006aeba20357735	4	1	main_z	7	advance_on_keypress_ZEE	108	stimuli_distractor_trianglediamonds.svg	stimuli_target_trianglerectangles.svg	25	yes	57	0	199	0	0			0	0			1				0	
6.6.1	mac	2023-07-06	22:37:56	22:45:25	445539	60bf9da88006aeba20357735	4	1	main_z	7	main_z	109	stimuli_distractor_diamondtriangles.svg	stimuli_target_squaretriangles.svg	15	yes	44	1	1092	0	0			0	0			1				0	
6.6.1	mac	2023-07-06	22:37:56	22:45:25	445539	60bf9da88006aeba20357735	4	1	main_z	7	advance_on_keypress_ZEE	110	stimuli_distractor_diamondtriangles.svg	stimuli_target_squaretriangles.svg	15	yes	57	0	446	0	0			0	0			1				0	
6.6.1	mac	2023-07-06	22:37:56	22:45:27	447455	60bf9da88006aeba20357735	4	1	main_z	7	main_z	111	stimuli_distractor_trianglediamonds.svg	stimuli_target_squaretriangles.svg	11	yes	44	1	839	0	0			0	0			1				0	
6.6.1	mac	2023-07-06	22:37:56	22:45:27	447455	60bf9da88006aeba20357735	4	1	main_z	7	advance_on_keypress_ZEE	112	stimuli_distractor_trianglediamonds.svg	stimuli_target_squaretriangles.svg	11	yes	57	0	251	0	0			0	0			1				0	
6.6.1	mac	2023-07-06	22:37:56	22:45:30	450328	60bf9da88006aeba20357735	4	1	main_z	7	main_z	113	stimuli_distractor_diamondtriangles.svg	stimuli_distractor_diamondtriangles.svg	40	no	0	1	2000	0	0			0	0			1				0	
6.6.1	mac	2023-07-06	22:37:56	22:45:30	450328	60bf9da88006aeba20357735	4	1	main_z	7	advance_on_keypress_ZEE	114	stimuli_distractor_diamondtriangles.svg	stimuli_distractor_diamondtriangles.svg	40	no	57	0	1204	0	0			0	0			1				0	
6.6.1	mac	2023-07-06	22:37:56	22:45:32	453109	60bf9da88006aeba20357735	4	1	main_z	7	main_z	115	stimuli_distractor_diamondtriangles.svg	stimuli_target_rectanglediamonds.svg	14	yes	44	1	945	0	0			0	0			1				0	
6.6.1	mac	2023-07-06	22:37:56	22:45:32	453109	60bf9da88006aeba20357735	4	1	main_z	7	advance_on_keypress_ZEE	116	stimuli_distractor_diamondtriangles.svg	stimuli_target_rectanglediamonds.svg	14	yes	57	0	244	0	0			0	0			1				0	
6.6.1	mac	2023-07-06	22:37:56	22:45:34	454859	60bf9da88006aeba20357735	4	1	main_z	7	main_z	117	stimuli_distractor_diamondtriangles.svg	stimuli_target_trianglesquares.svg	30	yes	44	1	879	0	0			0	0			1				0	
6.6.1	mac	2023-07-06	22:37:56	22:45:34	454859	60bf9da88006aeba20357735	4	1	main_z	7	advance_on_keypress_ZEE	118	stimuli_distractor_diamondtriangles.svg	stimuli_target_trianglesquares.svg	30	yes	57	0	259	0	0			0	0			1				0	
6.6.1	mac	2023-07-06	22:37:56	22:45:36	456631	60bf9da88006aeba20357735	4	1	main_z	7	main_z	119	stimuli_target_squarediamonds.svg	stimuli_distractor_diamondtriangles.svg	8	yes	44	1	883	0	0			0	0			1				0	
6.6.1	mac	2023-07-06	22:37:56	22:45:36	456631	60bf9da88006aeba20357735	4	1	main_z	7	advance_on_keypress_ZEE	120	stimuli_target_squarediamonds.svg	stimuli_distractor_diamondtriangles.svg	8	yes	57	0	260	0	0			0	0			1				0	
6.6.1	mac	2023-07-06	22:37:56	22:45:38	458707	60bf9da88006aeba20357735	4	1	main_z	7	main_z	121	stimuli_distractor_trianglediamonds.svg	stimuli_target_diamondrectangles.svg	27	yes	44	1	1194	0	0			0	0			1				0	
6.6.1	mac	2023-07-06	22:37:56	22:45:38	458707	60bf9da88006aeba20357735	4	1	main_z	7	advance_on_keypress_ZEE	122	stimuli_distractor_trianglediamonds.svg	stimuli_target_diamondrectangles.svg	27	yes	57	0	272	0	0			0	0			1				0	
6.6.1	mac	2023-07-06	22:37:56	22:45:40	460481	60bf9da88006aeba20357735	4	1	main_z	7	main_z	123	stimuli_distractor_diamondtriangles.svg	stimuli_target_trianglerectangles.svg	29	yes	44	1	868	0	0			0	0			1				0	
6.6.1	mac	2023-07-06	22:37:56	22:45:40	460481	60bf9da88006aeba20357735	4	1	main_z	7	advance_on_keypress_ZEE	124	stimuli_distractor_diamondtriangles.svg	stimuli_target_trianglerectangles.svg	29	yes	57	0	214	0	0			0	0			1				0	
6.6.1	mac	2023-07-06	22:37:56	22:45:42	462241	60bf9da88006aeba20357735	4	1	main_z	7	main_z	125	stimuli_target_squarediamonds.svg	stimuli_distractor_trianglediamonds.svg	4	yes	44	1	911	0	0			0	0			1				0	
6.6.1	mac	2023-07-06	22:37:56	22:45:42	462241	60bf9da88006aeba20357735	4	1	main_z	7	advance_on_keypress_ZEE	126	stimuli_target_squarediamonds.svg	stimuli_distractor_trianglediamonds.svg	4	yes	57	0	205	0	0			0	0			1				0	
6.6.1	mac	2023-07-06	22:37:56	22:45:43	464062	60bf9da88006aeba20357735	4	1	main_z	7	main_z	127	stimuli_target_diamondsquares.svg	stimuli_distractor_trianglediamonds.svg	20	yes	44	1	982	0	0			0	0			1				0	
6.6.1	mac	2023-07-06	22:37:56	22:45:43	464062	60bf9da88006aeba20357735	4	1	main_z	7	advance_on_keypress_ZEE	128	stimuli_target_diamondsquares.svg	stimuli_distractor_trianglediamonds.svg	20	yes	57	0	256	0	0			0	0			1				0	
6.6.1	mac	2023-07-06	22:37:56	22:45:46	466945	60bf9da88006aeba20357735	4	1	main_z	7	main_z	129	stimuli_distractor_trianglediamonds.svg	stimuli_distractor_trianglediamonds.svg	34	no	0	1	2000	0	0			0	0			1				0	
6.6.1	mac	2023-07-06	22:37:56	22:45:46	466945	60bf9da88006aeba20357735	4	1	main_z	7	advance_on_keypress_ZEE	130	stimuli_distractor_trianglediamonds.svg	stimuli_distractor_trianglediamonds.svg	34	no	57	0	750	0	0			0	0			1				0	
6.6.1	mac	2023-07-06	22:37:56	22:45:48	469096	60bf9da88006aeba20357735	4	1	main_z	7	main_z	131	stimuli_target_trianglesquares.svg	stimuli_distractor_diamondtriangles.svg	22	yes	44	1	766	0	0			0	0			1				0	
6.6.1	mac	2023-07-06	22:37:56	22:45:48	469096	60bf9da88006aeba20357735	4	1	main_z	7	advance_on_keypress_ZEE	132	stimuli_target_trianglesquares.svg	stimuli_distractor_diamondtriangles.svg	22	yes	57	0	266	0	0			0	0			1				0	
6.6.1	mac	2023-07-06	22:37:56	22:45:50	470967	60bf9da88006aeba20357735	4	1	main_z	7	main_z	133	stimuli_distractor_trianglediamonds.svg	stimuli_distractor_diamondtriangles.svg	35	no	44	0	969	0	0			0	0			1				0	
6.6.1	mac	2023-07-06	22:37:56	22:45:50	470967	60bf9da88006aeba20357735	4	1	main_z	7	advance_on_keypress_ZEE	134	stimuli_distractor_trianglediamonds.svg	stimuli_distractor_diamondtriangles.svg	35	no	57	0	234	0	0			0	0			1				0	
6.6.1	mac	2023-07-06	22:37:56	22:45:53	473197	60bf9da88006aeba20357735	4	1	main_z	7	main_z	135	stimuli_distractor_trianglediamonds.svg	stimuli_target_squarediamonds.svg	12	yes	44	1	1366	0	0			0	0			1				0	
6.6.1	mac	2023-07-06	22:37:56	22:45:53	473197	60bf9da88006aeba20357735	4	1	main_z	7	advance_on_keypress_ZEE	136	stimuli_distractor_trianglediamonds.svg	stimuli_target_squarediamonds.svg	12	yes	57	0	198	0	0			0	0			1				0	
6.6.1	mac	2023-07-06	22:37:56	22:45:54	474966	60bf9da88006aeba20357735	4	1	main_z	7	main_z	137	stimuli_target_diamondsquares.svg	stimuli_distractor_diamondtriangles.svg	24	yes	44	1	936	0	0			0	0			1				0	
6.6.1	mac	2023-07-06	22:37:56	22:45:54	474966	60bf9da88006aeba20357735	4	1	main_z	7	advance_on_keypress_ZEE	138	stimuli_target_diamondsquares.svg	stimuli_distractor_diamondtriangles.svg	24	yes	57	0	240	0	0			0	0			1				0	
6.6.1	mac	2023-07-06	22:37:56	22:45:56	476766	60bf9da88006aeba20357735	4	1	main_z	7	main_z	139	stimuli_target_trianglerectangles.svg	stimuli_distractor_trianglediamonds.svg	17	yes	44	1	935	0	0			0	0			1				0	
6.6.1	mac	2023-07-06	22:37:56	22:45:56	476766	60bf9da88006aeba20357735	4	1	main_z	7	advance_on_keypress_ZEE	140	stimuli_target_trianglerectangles.svg	stimuli_distractor_trianglediamonds.svg	17	yes	57	0	285	0	0			0	0			1				0	
6.6.1	mac	2023-07-06	22:37:56	22:45:58	478582	60bf9da88006aeba20357735	4	1	main_z	7	main_z	141	stimuli_distractor_trianglediamonds.svg	stimuli_distractor_trianglediamonds.svg	33	no	44	0	903	0	0			0	0			1				0	
6.6.1	mac	2023-07-06	22:37:56	22:45:58	478582	60bf9da88006aeba20357735	4	1	main_z	7	advance_on_keypress_ZEE	142	stimuli_distractor_trianglediamonds.svg	stimuli_distractor_trianglediamonds.svg	33	no	57	0	316	0	0			0	0			1				0	
6.6.1	mac	2023-07-06	22:37:56	22:46:00	480539	60bf9da88006aeba20357735	4	1	main_z	7	main_z	143	stimuli_target_squaretriangles.svg	stimuli_distractor_diamondtriangles.svg	7	yes	44	1	1009	0	0			0	0			1				0	
6.6.1	mac	2023-07-06	22:37:56	22:46:00	480539	60bf9da88006aeba20357735	4	1	main_z	7	advance_on_keypress_ZEE	144	stimuli_target_squaretriangles.svg	stimuli_distractor_diamondtriangles.svg	7	yes	57	0	257	0	0			0	0			1				0	
6.6.1	mac	2023-07-06	22:37:56	22:46:02	482481	60bf9da88006aeba20357735	4	1	main_z	7	main_z	145	stimuli_target_squaretriangles.svg	stimuli_distractor_trianglediamonds.svg	3	yes	44	1	1051	0	0			0	0			1				0	
6.6.1	mac	2023-07-06	22:37:56	22:46:02	482481	60bf9da88006aeba20357735	4	1	main_z	7	advance_on_keypress_ZEE	146	stimuli_target_squaretriangles.svg	stimuli_distractor_trianglediamonds.svg	3	yes	57	0	221	0	0			0	0			1				0	
6.6.1	mac	2023-07-06	22:37:56	22:46:04	484295	60bf9da88006aeba20357735	4	1	main_z	7	main_z	147	stimuli_distractor_trianglediamonds.svg	stimuli_target_diamondsquares.svg	28	yes	44	1	965	0	0			0	0			1				0	
6.6.1	mac	2023-07-06	22:37:56	22:46:04	484295	60bf9da88006aeba20357735	4	1	main_z	7	advance_on_keypress_ZEE	148	stimuli_distractor_trianglediamonds.svg	stimuli_target_diamondsquares.svg	28	yes	57	0	195	0	0			0	0			1				0	
6.6.1	mac	2023-07-06	22:37:56	22:46:05	486109	60bf9da88006aeba20357735	4	1	main_z	7	main_z	149	stimuli_distractor_diamondtriangles.svg	stimuli_target_diamondrectangles.svg	31	yes	44	1	997	0	0			0	0			1				0	
6.6.1	mac	2023-07-06	22:37:56	22:46:05	486109	60bf9da88006aeba20357735	4	1	main_z	7	advance_on_keypress_ZEE	150	stimuli_distractor_diamondtriangles.svg	stimuli_target_diamondrectangles.svg	31	yes	57	0	251	0	0			0	0			1				0	
6.6.1	mac	2023-07-06	22:37:56	22:46:07	487972	60bf9da88006aeba20357735	4	1	main_z	7	main_z	151	stimuli_distractor_trianglediamonds.svg	stimuli_distractor_diamondtriangles.svg	36	no	44	0	976	0	0			0	0			1				0	
6.6.1	mac	2023-07-06	22:37:56	22:46:07	487972	60bf9da88006aeba20357735	4	1	main_z	7	advance_on_keypress_ZEE	152	stimuli_distractor_trianglediamonds.svg	stimuli_distractor_diamondtriangles.svg	36	no	57	0	247	0	0			0	0			1				0	
6.6.1	mac	2023-07-06	22:37:56	22:46:10	490845	60bf9da88006aeba20357735	4	1	main_z	7	main_z	153	stimuli_distractor_diamondtriangles.svg	stimuli_distractor_trianglediamonds.svg	38	no	0	1	2000	0	0			0	0			1				0	
6.6.1	mac	2023-07-06	22:37:56	22:46:10	490845	60bf9da88006aeba20357735	4	1	main_z	7	advance_on_keypress_ZEE	154	stimuli_distractor_diamondtriangles.svg	stimuli_distractor_trianglediamonds.svg	38	no	57	0	2260	0	0			0	0			1				0	
6.6.1	mac	2023-07-06	22:37:56	22:46:14	494606	60bf9da88006aeba20357735	4	1	main_z	7	main_z	155	stimuli_distractor_diamondtriangles.svg	stimuli_target_diamondsquares.svg	32	yes	44	1	875	0	0			0	0			1				0	
6.6.1	mac	2023-07-06	22:37:56	22:46:14	494606	60bf9da88006aeba20357735	4	1	main_z	7	advance_on_keypress_ZEE	156	stimuli_distractor_diamondtriangles.svg	stimuli_target_diamondsquares.svg	32	yes	57	0	214	0	0			0	0			1				0	
6.6.1	mac	2023-07-06	22:37:56	22:46:16	496396	60bf9da88006aeba20357735	4	1	main_z	7	main_z	157	stimuli_target_trianglerectangles.svg	stimuli_distractor_diamondtriangles.svg	21	yes	44	1	950	0	0			0	0			1				0	
6.6.1	mac	2023-07-06	22:37:56	22:46:16	496396	60bf9da88006aeba20357735	4	1	main_z	7	advance_on_keypress_ZEE	158	stimuli_target_trianglerectangles.svg	stimuli_distractor_diamondtriangles.svg	21	yes	57	0	198	0	0			0	0			1				0	
6.6.1	mac	2023-07-06	22:37:56	22:46:17	498060	60bf9da88006aeba20357735	4	1	main_z	7	main_z	159	stimuli_target_diamondrectangles.svg	stimuli_distractor_trianglediamonds.svg	19	yes	44	1	829	0	0			0	0			1				0	
6.6.1	mac	2023-07-06	22:37:56	22:46:17	498060	60bf9da88006aeba20357735	4	1	main_z	7	advance_on_keypress_ZEE	160	stimuli_target_diamondrectangles.svg	stimuli_distractor_trianglediamonds.svg	19	yes	57	0	234	0	0			0	0			1				0	
6.6.1	mac	2023-07-06	22:37:56	22:46:39	519978	60bf9da88006aeba20357735	4	1	practice_slash	9	practice_slash	1	stimuli_target_diamondsquares.svg	stimuli_distractor_trianglediamonds.svg	6	yes	53	1	865	0	0			0	0			1				0	
6.6.1	mac	2023-07-06	22:37:56	22:46:39	519978	60bf9da88006aeba20357735	4	1	practice_slash	9	advance_on_keypress_SLASH	2	stimuli_target_diamondsquares.svg	stimuli_distractor_trianglediamonds.svg	6	yes	57	0	902	0	0			0	0			1				0	
6.6.1	mac	2023-07-06	22:37:56	22:46:43	523414	60bf9da88006aeba20357735	4	1	practice_slash	9	practice_slash	3	stimuli_distractor_diamondtriangles.svg	stimuli_target_diamondrectangles.svg	8	yes	53	1	902	0	0			0	0			1				0	
6.6.1	mac	2023-07-06	22:37:56	22:46:43	523414	60bf9da88006aeba20357735	4	1	practice_slash	9	advance_on_keypress_SLASH	4	stimuli_distractor_diamondtriangles.svg	stimuli_target_diamondrectangles.svg	8	yes	57	0	1808	0	0			0	0			1				0	
6.6.1	mac	2023-07-06	22:37:56	22:46:47	527543	60bf9da88006aeba20357735	4	1	practice_slash	9	practice_slash	5	stimuli_target_squarediamonds.svg	stimuli_distractor_diamondtriangles.svg	2	yes	53	1	697	0	0			0	0			1				0	
6.6.1	mac	2023-07-06	22:37:56	22:46:47	527543	60bf9da88006aeba20357735	4	1	practice_slash	9	advance_on_keypress_SLASH	6	stimuli_target_squarediamonds.svg	stimuli_distractor_diamondtriangles.svg	2	yes	57	0	1038	0	0			0	0			1				0	
6.6.1	mac	2023-07-06	22:37:56	22:46:51	531354	60bf9da88006aeba20357735	4	1	practice_slash	9	practice_slash	7	stimuli_distractor_trianglediamonds.svg	stimuli_distractor_diamondtriangles.svg	16	no	53	0	1140	0	0			0	0			1				0	
6.6.1	mac	2023-07-06	22:37:56	22:46:51	531354	60bf9da88006aeba20357735	4	1	practice_slash	9	advance_on_keypress_SLASH	8	stimuli_distractor_trianglediamonds.svg	stimuli_distractor_diamondtriangles.svg	16	no	57	0	609	0	0			0	0			1				0	
6.6.1	mac	2023-07-06	22:37:56	22:46:55	535594	60bf9da88006aeba20357735	4	1	practice_slash	9	practice_slash	9	stimuli_distractor_trianglediamonds.svg	stimuli_distractor_trianglediamonds.svg	15	no	0	1	2000	0	0			0	0			1				0	
6.6.1	mac	2023-07-06	22:37:56	22:46:55	535594	60bf9da88006aeba20357735	4	1	practice_slash	9	advance_on_keypress_SLASH	10	stimuli_distractor_trianglediamonds.svg	stimuli_distractor_trianglediamonds.svg	15	no	57	0	810	0	0			0	0			1				0	
6.6.1	mac	2023-07-06	22:37:56	22:46:58	538903	60bf9da88006aeba20357735	4	1	practice_slash	9	practice_slash	11	stimuli_distractor_diamondtriangles.svg	stimuli_target_trianglerectangles.svg	9	yes	53	1	857	0	0			0	0			1				0	
6.6.1	mac	2023-07-06	22:37:56	22:46:58	538903	60bf9da88006aeba20357735	4	1	practice_slash	9	advance_on_keypress_SLASH	12	stimuli_distractor_diamondtriangles.svg	stimuli_target_trianglerectangles.svg	9	yes	57	0	544	0	0			0	0			1				0	
6.6.1	mac	2023-07-06	22:37:56	22:47:02	542345	60bf9da88006aeba20357735	4	1	practice_slash	9	practice_slash	13	stimuli_target_squarediamonds.svg	stimuli_distractor_trianglediamonds.svg	5	yes	53	1	1267	0	0			0	0			1				0	
6.6.1	mac	2023-07-06	22:37:56	22:47:02	542345	60bf9da88006aeba20357735	4	1	practice_slash	9	advance_on_keypress_SLASH	14	stimuli_target_squarediamonds.svg	stimuli_distractor_trianglediamonds.svg	5	yes	57	0	627	0	0			0	0			1				0	
6.6.1	mac	2023-07-06	22:37:56	22:47:06	546594	60bf9da88006aeba20357735	4	1	practice_slash	9	practice_slash	15	stimuli_distractor_diamondtriangles.svg	stimuli_distractor_trianglediamonds.svg	14	no	0	1	2000	0	0			0	0			1				0	
6.6.1	mac	2023-07-06	22:37:56	22:47:06	546594	60bf9da88006aeba20357735	4	1	practice_slash	9	advance_on_keypress_SLASH	16	stimuli_distractor_diamondtriangles.svg	stimuli_distractor_trianglediamonds.svg	14	no	57	0	820	0	0			0	0			1				0	
6.6.1	mac	2023-07-06	22:37:56	22:47:10	551043	60bf9da88006aeba20357735	4	1	practice_slash	9	practice_slash	17	stimuli_distractor_diamondtriangles.svg	stimuli_distractor_diamondtriangles.svg	13	no	0	1	2000	0	0			0	0			1				0	
6.6.1	mac	2023-07-06	22:37:56	22:47:10	551043	60bf9da88006aeba20357735	4	1	practice_slash	9	advance_on_keypress_SLASH	18	stimuli_distractor_diamondtriangles.svg	stimuli_distractor_diamondtriangles.svg	13	no	57	0	587	0	0			0	0			1				0	
6.6.1	mac	2023-07-06	22:37:56	22:47:14	554481	60bf9da88006aeba20357735	4	1	practice_slash	9	practice_slash	19	stimuli_distractor_trianglediamonds.svg	stimuli_target_rectanglediamonds.svg	10	yes	53	1	1218	0	0			0	0			1				0	
6.6.1	mac	2023-07-06	22:37:56	22:47:14	554481	60bf9da88006aeba20357735	4	1	practice_slash	9	advance_on_keypress_SLASH	20	stimuli_distractor_trianglediamonds.svg	stimuli_target_rectanglediamonds.svg	10	yes	57	0	1141	0	0			0	0			1				0	
6.6.1	mac	2023-07-06	22:37:56	22:47:18	558393	60bf9da88006aeba20357735	4	1	practice_slash	9	practice_slash	21	stimuli_distractor_trianglediamonds.svg	stimuli_target_squarediamonds.svg	11	yes	53	1	1148	0	0			0	0			1				0	
6.6.1	mac	2023-07-06	22:37:56	22:47:18	558393	60bf9da88006aeba20357735	4	1	practice_slash	9	advance_on_keypress_SLASH	22	stimuli_distractor_trianglediamonds.svg	stimuli_target_squarediamonds.svg	11	yes	57	0	745	0	0			0	0			1				0	
6.6.1	mac	2023-07-06	22:37:56	22:47:21	561880	60bf9da88006aeba20357735	4	1	practice_slash	9	practice_slash	23	stimuli_target_diamondsquares.svg	stimuli_distractor_diamondtriangles.svg	3	yes	53	1	1101	0	0			0	0			1				0	
6.6.1	mac	2023-07-06	22:37:56	22:47:21	561880	60bf9da88006aeba20357735	4	1	practice_slash	9	advance_on_keypress_SLASH	24	stimuli_target_diamondsquares.svg	stimuli_distractor_diamondtriangles.svg	3	yes	57	0	569	0	0			0	0			1				0	
6.6.1	mac	2023-07-06	22:37:56	22:47:24	565121	60bf9da88006aeba20357735	4	1	practice_slash	9	practice_slash	25	stimuli_distractor_diamondtriangles.svg	stimuli_target_rectangletriangles.svg	7	yes	53	1	1040	0	0			0	0			1				0	
6.6.1	mac	2023-07-06	22:37:56	22:47:24	565121	60bf9da88006aeba20357735	4	1	practice_slash	9	advance_on_keypress_SLASH	26	stimuli_distractor_diamondtriangles.svg	stimuli_target_rectangletriangles.svg	7	yes	57	0	585	0	0			0	0			1				0	
6.6.1	mac	2023-07-06	22:37:56	22:47:28	568291	60bf9da88006aeba20357735	4	1	practice_slash	9	practice_slash	27	stimuli_target_rectanglediamonds.svg	stimuli_distractor_diamondtriangles.svg	1	yes	53	1	946	0	0			0	0			1				0	
6.6.1	mac	2023-07-06	22:37:56	22:47:28	568291	60bf9da88006aeba20357735	4	1	practice_slash	9	advance_on_keypress_SLASH	28	stimuli_target_rectanglediamonds.svg	stimuli_distractor_diamondtriangles.svg	1	yes	57	0	602	0	0			0	0			1				0	
6.6.1	mac	2023-07-06	22:37:56	22:47:31	571776	60bf9da88006aeba20357735	4	1	practice_slash	9	practice_slash	29	stimuli_distractor_trianglediamonds.svg	stimuli_target_diamondrectangles.svg	12	yes	53	1	1246	0	0			0	0			1				0	
6.6.1	mac	2023-07-06	22:37:56	22:47:31	571776	60bf9da88006aeba20357735	4	1	practice_slash	9	advance_on_keypress_SLASH	30	stimuli_distractor_trianglediamonds.svg	stimuli_target_diamondrectangles.svg	12	yes	57	0	461	0	0			0	0			1				0	
6.6.1	mac	2023-07-06	22:37:56	22:47:34	574799	60bf9da88006aeba20357735	4	1	practice_slash	9	practice_slash	31	stimuli_target_rectanglediamonds.svg	stimuli_distractor_trianglediamonds.svg	4	yes	53	1	937	0	0			0	0			1				0	
6.6.1	mac	2023-07-06	22:37:56	22:47:34	574799	60bf9da88006aeba20357735	4	1	practice_slash	9	advance_on_keypress_SLASH	32	stimuli_target_rectanglediamonds.svg	stimuli_distractor_trianglediamonds.svg	4	yes	57	0	618	0	0			0	0			1				0	
6.6.1	mac	2023-07-06	22:37:56	22:48:58	659093	60bf9da88006aeba20357735	4	1	main_slash	11	main_slash	1	stimuli_distractor_trianglediamonds.svg	stimuli_distractor_diamondtriangles.svg	35	no	53	0	749	0	0			0	0			1				0	
6.6.1	mac	2023-07-06	22:37:56	22:48:58	659093	60bf9da88006aeba20357735	4	1	main_slash	11	advance_on_keypress_SLASH	2	stimuli_distractor_trianglediamonds.svg	stimuli_distractor_diamondtriangles.svg	35	no	57	0	1067	0	0			0	0			1				0	
6.6.1	mac	2023-07-06	22:37:56	22:49:01	661621	60bf9da88006aeba20357735	4	1	main_slash	11	main_slash	3	stimuli_target_rectangletriangles.svg	stimuli_distractor_trianglediamonds.svg	1	yes	53	1	827	0	0			0	0			1				0	
6.6.1	mac	2023-07-06	22:37:56	22:49:01	661621	60bf9da88006aeba20357735	4	1	main_slash	11	advance_on_keypress_SLASH	4	stimuli_target_rectangletriangles.svg	stimuli_distractor_trianglediamonds.svg	1	yes	57	0	705	0	0			0	0			1				0	
6.6.1	mac	2023-07-06	22:37:56	22:49:03	663914	60bf9da88006aeba20357735	4	1	main_slash	11	main_slash	5	stimuli_target_squaretriangles.svg	stimuli_distractor_diamondtriangles.svg	7	yes	53	1	953	0	0			0	0			1				0	
6.6.1	mac	2023-07-06	22:37:56	22:49:03	663914	60bf9da88006aeba20357735	4	1	main_slash	11	advance_on_keypress_SLASH	6	stimuli_target_squaretriangles.svg	stimuli_distractor_diamondtriangles.svg	7	yes	57	0	869	0	0			0	0			1				0	
6.6.1	mac	2023-07-06	22:37:56	22:49:06	666286	60bf9da88006aeba20357735	4	1	main_slash	11	main_slash	7	stimuli_distractor_trianglediamonds.svg	stimuli_target_diamondrectangles.svg	27	yes	53	1	857	0	0			0	0			1				0	
6.6.1	mac	2023-07-06	22:37:56	22:49:06	666286	60bf9da88006aeba20357735	4	1	main_slash	11	advance_on_keypress_SLASH	8	stimuli_distractor_trianglediamonds.svg	stimuli_target_diamondrectangles.svg	27	yes	57	0	787	0	0			0	0			1				0	
6.6.1	mac	2023-07-06	22:37:56	22:49:08	668819	60bf9da88006aeba20357735	4	1	main_slash	11	main_slash	9	stimuli_distractor_trianglediamonds.svg	stimuli_target_rectanglediamonds.svg	10	yes	53	1	1107	0	0			0	0			1				0	
6.6.1	mac	2023-07-06	22:37:56	22:49:08	668819	60bf9da88006aeba20357735	4	1	main_slash	11	advance_on_keypress_SLASH	10	stimuli_distractor_trianglediamonds.svg	stimuli_target_rectanglediamonds.svg	10	yes	57	0	906	0	0			0	0			1				0	
6.6.1	mac	2023-07-06	22:37:56	22:49:11	671371	60bf9da88006aeba20357735	4	1	main_slash	11	main_slash	11	stimuli_distractor_trianglediamonds.svg	stimuli_target_squaretriangles.svg	11	yes	53	1	1010	0	0			0	0			1				0	
6.6.1	mac	2023-07-06	22:37:56	22:49:11	671371	60bf9da88006aeba20357735	4	1	main_slash	11	advance_on_keypress_SLASH	12	stimuli_distractor_trianglediamonds.svg	stimuli_target_squaretriangles.svg	11	yes	57	0	1074	0	0			0	0			1				0	
6.6.1	mac	2023-07-06	22:37:56	22:49:13	674008	60bf9da88006aeba20357735	4	1	main_slash	11	main_slash	13	stimuli_target_squarediamonds.svg	stimuli_distractor_diamondtriangles.svg	8	yes	53	1	930	0	0			0	0			1				0	
6.6.1	mac	2023-07-06	22:37:56	22:49:13	674008	60bf9da88006aeba20357735	4	1	main_slash	11	advance_on_keypress_SLASH	14	stimuli_target_squarediamonds.svg	stimuli_distractor_diamondtriangles.svg	8	yes	57	0	810	0	0			0	0			1				0	
6.6.1	mac	2023-07-06	22:37:56	22:49:16	676205	60bf9da88006aeba20357735	4	1	main_slash	11	main_slash	15	stimuli_distractor_trianglediamonds.svg	stimuli_target_rectangletriangles.svg	9	yes	53	1	721	0	0			0	0			1				0	
6.6.1	mac	2023-07-06	22:37:56	22:49:16	676205	60bf9da88006aeba20357735	4	1	main_slash	11	advance_on_keypress_SLASH	16	stimuli_distractor_trianglediamonds.svg	stimuli_target_rectangletriangles.svg	9	yes	57	0	617	0	0			0	0			1				0	
6.6.1	mac	2023-07-06	22:37:56	22:49:18	678442	60bf9da88006aeba20357735	4	1	main_slash	11	main_slash	17	stimuli_distractor_diamondtriangles.svg	stimuli_target_trianglerectangles.svg	29	yes	53	1	982	0	0			0	0			1				0	
6.6.1	mac	2023-07-06	22:37:56	22:49:18	678442	60bf9da88006aeba20357735	4	1	main_slash	11	advance_on_keypress_SLASH	18	stimuli_distractor_diamondtriangles.svg	stimuli_target_trianglerectangles.svg	29	yes	57	0	438	0	0			0	0			1				0	
6.6.1	mac	2023-07-06	22:37:56	22:49:20	680570	60bf9da88006aeba20357735	4	1	main_slash	11	main_slash	19	stimuli_target_trianglerectangles.svg	stimuli_distractor_diamondtriangles.svg	21	yes	53	1	1058	0	0			0	0			1				0	
6.6.1	mac	2023-07-06	22:37:56	22:49:20	680570	60bf9da88006aeba20357735	4	1	main_slash	11	advance_on_keypress_SLASH	20	stimuli_target_trianglerectangles.svg	stimuli_distractor_diamondtriangles.svg	21	yes	57	0	296	0	0			0	0			1				0	
6.6.1	mac	2023-07-06	22:37:56	22:49:22	682717	60bf9da88006aeba20357735	4	1	main_slash	11	main_slash	21	stimuli_target_trianglerectangles.svg	stimuli_distractor_trianglediamonds.svg	17	yes	53	1	1221	0	0			0	0			1				0	
6.6.1	mac	2023-07-06	22:37:56	22:49:22	682717	60bf9da88006aeba20357735	4	1	main_slash	11	advance_on_keypress_SLASH	22	stimuli_target_trianglerectangles.svg	stimuli_distractor_trianglediamonds.svg	17	yes	57	0	360	0	0			0	0			1				0	
6.6.1	mac	2023-07-06	22:37:56	22:49:24	684641	60bf9da88006aeba20357735	4	1	main_slash	11	main_slash	23	stimuli_distractor_diamondtriangles.svg	stimuli_target_diamondrectangles.svg	31	yes	53	1	931	0	0			0	0			1				0	
6.6.1	mac	2023-07-06	22:37:56	22:49:24	684641	60bf9da88006aeba20357735	4	1	main_slash	11	advance_on_keypress_SLASH	24	stimuli_distractor_diamondtriangles.svg	stimuli_target_diamondrectangles.svg	31	yes	57	0	346	0	0			0	0			1				0	
6.6.1	mac	2023-07-06	22:37:56	22:49:26	686759	60bf9da88006aeba20357735	4	1	main_slash	11	main_slash	25	stimuli_distractor_diamondtriangles.svg	stimuli_target_rectangletriangles.svg	13	yes	53	1	1149	0	0			0	0			1				0	
6.6.1	mac	2023-07-06	22:37:56	22:49:26	686759	60bf9da88006aeba20357735	4	1	main_slash	11	advance_on_keypress_SLASH	26	stimuli_distractor_diamondtriangles.svg	stimuli_target_rectangletriangles.svg	13	yes	57	0	252	0	0			0	0			1				0	
6.6.1	mac	2023-07-06	22:37:56	22:49:28	688662	60bf9da88006aeba20357735	4	1	main_slash	11	main_slash	27	stimuli_distractor_diamondtriangles.svg	stimuli_target_squaretriangles.svg	15	yes	53	1	1017	0	0			0	0			1				0	
6.6.1	mac	2023-07-06	22:37:56	22:49:28	688662	60bf9da88006aeba20357735	4	1	main_slash	11	advance_on_keypress_SLASH	28	stimuli_distractor_diamondtriangles.svg	stimuli_target_squaretriangles.svg	15	yes	57	0	264	0	0			0	0			1				0	
6.6.1	mac	2023-07-06	22:37:56	22:49:30	690543	60bf9da88006aeba20357735	4	1	main_slash	11	main_slash	29	stimuli_distractor_trianglediamonds.svg	stimuli_target_trianglesquares.svg	26	yes	53	1	982	0	0			0	0			1				0	
6.6.1	mac	2023-07-06	22:37:56	22:49:30	690543	60bf9da88006aeba20357735	4	1	main_slash	11	advance_on_keypress_SLASH	30	stimuli_distractor_trianglediamonds.svg	stimuli_target_trianglesquares.svg	26	yes	57	0	267	0	0			0	0			1				0	
6.6.1	mac	2023-07-06	22:37:56	22:49:32	692437	60bf9da88006aeba20357735	4	1	main_slash	11	main_slash	31	stimuli_target_squaretriangles.svg	stimuli_distractor_trianglediamonds.svg	3	yes	53	1	992	0	0			0	0			1				0	
6.6.1	mac	2023-07-06	22:37:56	22:49:32	692437	60bf9da88006aeba20357735	4	1	main_slash	11	advance_on_keypress_SLASH	32	stimuli_target_squaretriangles.svg	stimuli_distractor_trianglediamonds.svg	3	yes	57	0	355	0	0			0	0			1				0	
6.6.1	mac	2023-07-06	22:37:56	22:49:34	694900	60bf9da88006aeba20357735	4	1	main_slash	11	main_slash	33	stimuli_distractor_trianglediamonds.svg	stimuli_target_trianglerectangles.svg	25	yes	53	1	1472	0	0			0	0			1				0	
6.6.1	mac	2023-07-06	22:37:56	22:49:34	694900	60bf9da88006aeba20357735	4	1	main_slash	11	advance_on_keypress_SLASH	34	stimuli_distractor_trianglediamonds.svg	stimuli_target_trianglerectangles.svg	25	yes	57	0	2044	0	0			0	0			1				0	
6.6.1	mac	2023-07-06	22:37:56	22:49:39	699574	60bf9da88006aeba20357735	4	1	main_slash	11	main_slash	35	stimuli_distractor_diamondtriangles.svg	stimuli_distractor_diamondtriangles.svg	40	no	0	1	2000	0	0			0	0			1				0	
6.6.1	mac	2023-07-06	22:37:56	22:49:39	699574	60bf9da88006aeba20357735	4	1	main_slash	11	advance_on_keypress_SLASH	36	stimuli_distractor_diamondtriangles.svg	stimuli_distractor_diamondtriangles.svg	40	no	57	0	809	0	0			0	0			1				0	
6.6.1	mac	2023-07-06	22:37:56	22:49:41	701869	60bf9da88006aeba20357735	4	1	main_slash	11	main_slash	37	stimuli_distractor_trianglediamonds.svg	stimuli_target_squarediamonds.svg	12	yes	53	1	858	0	0			0	0			1				0	
6.6.1	mac	2023-07-06	22:37:56	22:49:41	701869	60bf9da88006aeba20357735	4	1	main_slash	11	advance_on_keypress_SLASH	38	stimuli_distractor_trianglediamonds.svg	stimuli_target_squarediamonds.svg	12	yes	57	0	404	0	0			0	0			1				0	
6.6.1	mac	2023-07-06	22:37:56	22:49:43	703607	60bf9da88006aeba20357735	4	1	main_slash	11	main_slash	39	stimuli_target_trianglesquares.svg	stimuli_distractor_diamondtriangles.svg	22	yes	53	1	697	0	0			0	0			1				0	
6.6.1	mac	2023-07-06	22:37:56	22:49:43	703607	60bf9da88006aeba20357735	4	1	main_slash	11	advance_on_keypress_SLASH	40	stimuli_target_trianglesquares.svg	stimuli_distractor_diamondtriangles.svg	22	yes	57	0	982	0	0			0	0			1				0	
6.6.1	mac	2023-07-06	22:37:56	22:49:46	706254	60bf9da88006aeba20357735	4	1	main_slash	11	main_slash	41	stimuli_target_rectanglediamonds.svg	stimuli_distractor_diamondtriangles.svg	6	yes	53	1	1028	0	0			0	0			1				0	
6.6.1	mac	2023-07-06	22:37:56	22:49:46	706254	60bf9da88006aeba20357735	4	1	main_slash	11	advance_on_keypress_SLASH	42	stimuli_target_rectanglediamonds.svg	stimuli_distractor_diamondtriangles.svg	6	yes	57	0	418	0	0			0	0			1				0	
6.6.1	mac	2023-07-06	22:37:56	22:49:48	708305	60bf9da88006aeba20357735	4	1	main_slash	11	main_slash	43	stimuli_target_diamondsquares.svg	stimuli_distractor_diamondtriangles.svg	24	yes	53	1	1011	0	0			0	0			1				0	
6.6.1	mac	2023-07-06	22:37:56	22:49:48	708305	60bf9da88006aeba20357735	4	1	main_slash	11	advance_on_keypress_SLASH	44	stimuli_target_diamondsquares.svg	stimuli_distractor_diamondtriangles.svg	24	yes	57	0	536	0	0			0	0			1				0	
6.6.1	mac	2023-07-06	22:37:56	22:49:50	710477	60bf9da88006aeba20357735	4	1	main_slash	11	main_slash	45	stimuli_target_diamondsquares.svg	stimuli_distractor_trianglediamonds.svg	20	yes	53	1	1000	0	0			0	0			1				0	
6.6.1	mac	2023-07-06	22:37:56	22:49:50	710477	60bf9da88006aeba20357735	4	1	main_slash	11	advance_on_keypress_SLASH	46	stimuli_target_diamondsquares.svg	stimuli_distractor_trianglediamonds.svg	20	yes	57	0	431	0	0			0	0			1				0	
6.6.1	mac	2023-07-06	22:37:56	22:49:53	713541	60bf9da88006aeba20357735	4	1	main_slash	11	main_slash	47	stimuli_distractor_trianglediamonds.svg	stimuli_distractor_trianglediamonds.svg	34	no	0	1	2000	0	0			0	0			1				0	
6.6.1	mac	2023-07-06	22:37:56	22:49:53	713541	60bf9da88006aeba20357735	4	1	main_slash	11	advance_on_keypress_SLASH	48	stimuli_distractor_trianglediamonds.svg	stimuli_distractor_trianglediamonds.svg	34	no	57	0	754	0	0			0	0			1				0	
6.6.1	mac	2023-07-06	22:37:56	22:49:55	715976	60bf9da88006aeba20357735	4	1	main_slash	11	main_slash	49	stimuli_distractor_diamondtriangles.svg	stimuli_target_squarediamonds.svg	16	yes	53	1	1048	0	0			0	0			1				0	
6.6.1	mac	2023-07-06	22:37:56	22:49:55	715976	60bf9da88006aeba20357735	4	1	main_slash	11	advance_on_keypress_SLASH	50	stimuli_distractor_diamondtriangles.svg	stimuli_target_squarediamonds.svg	16	yes	57	0	818	0	0			0	0			1				0	
6.6.1	mac	2023-07-06	22:37:56	22:49:58	718453	60bf9da88006aeba20357735	4	1	main_slash	11	main_slash	51	stimuli_target_rectangletriangles.svg	stimuli_distractor_diamondtriangles.svg	5	yes	53	1	1025	0	0			0	0			1				0	
6.6.1	mac	2023-07-06	22:37:56	22:49:58	718453	60bf9da88006aeba20357735	4	1	main_slash	11	advance_on_keypress_SLASH	52	stimuli_target_rectangletriangles.svg	stimuli_distractor_diamondtriangles.svg	5	yes	57	0	794	0	0			0	0			1				0	
6.6.1	mac	2023-07-06	22:37:56	22:50:01	721874	60bf9da88006aeba20357735	4	1	main_slash	11	main_slash	53	stimuli_distractor_trianglediamonds.svg	stimuli_distractor_diamondtriangles.svg	36	no	0	1	2000	0	0			0	0			1				0	
6.6.1	mac	2023-07-06	22:37:56	22:50:01	721874	60bf9da88006aeba20357735	4	1	main_slash	11	advance_on_keypress_SLASH	54	stimuli_distractor_trianglediamonds.svg	stimuli_distractor_diamondtriangles.svg	36	no	57	0	846	0	0			0	0			1				0	
6.6.1	mac	2023-07-06	22:37:56	22:50:04	724231	60bf9da88006aeba20357735	4	1	main_slash	11	main_slash	55	stimuli_target_diamondrectangles.svg	stimuli_distractor_trianglediamonds.svg	19	yes	53	1	871	0	0			0	0			1				0	
6.6.1	mac	2023-07-06	22:37:56	22:50:04	724231	60bf9da88006aeba20357735	4	1	main_slash	11	advance_on_keypress_SLASH	56	stimuli_target_diamondrectangles.svg	stimuli_distractor_trianglediamonds.svg	19	yes	57	0	744	0	0			0	0			1				0	
6.6.1	mac	2023-07-06	22:37:56	22:50:06	726445	60bf9da88006aeba20357735	4	1	main_slash	11	main_slash	57	stimuli_target_trianglesquares.svg	stimuli_distractor_trianglediamonds.svg	18	yes	53	1	852	0	0			0	0			1				0	
6.6.1	mac	2023-07-06	22:37:56	22:50:06	726445	60bf9da88006aeba20357735	4	1	main_slash	11	advance_on_keypress_SLASH	58	stimuli_target_trianglesquares.svg	stimuli_distractor_trianglediamonds.svg	18	yes	57	0	811	0	0			0	0			1				0	
6.6.1	mac	2023-07-06	22:37:56	22:50:08	728651	60bf9da88006aeba20357735	4	1	main_slash	11	main_slash	59	stimuli_distractor_diamondtriangles.svg	stimuli_target_diamondsquares.svg	32	yes	53	1	774	0	0			0	0			1				0	
6.6.1	mac	2023-07-06	22:37:56	22:50:08	728651	60bf9da88006aeba20357735	4	1	main_slash	11	advance_on_keypress_SLASH	60	stimuli_distractor_diamondtriangles.svg	stimuli_target_diamondsquares.svg	32	yes	57	0	861	0	0			0	0			1				0	
6.6.1	mac	2023-07-06	22:37:56	22:50:11	732141	60bf9da88006aeba20357735	4	1	main_slash	11	main_slash	61	stimuli_distractor_trianglediamonds.svg	stimuli_distractor_trianglediamonds.svg	33	no	0	1	2000	0	0			0	0			1				0	
6.6.1	mac	2023-07-06	22:37:56	22:50:11	732141	60bf9da88006aeba20357735	4	1	main_slash	11	advance_on_keypress_SLASH	62	stimuli_distractor_trianglediamonds.svg	stimuli_distractor_trianglediamonds.svg	33	no	57	0	687	0	0			0	0			1				0	
6.6.1	mac	2023-07-06	22:37:56	22:50:14	734356	60bf9da88006aeba20357735	4	1	main_slash	11	main_slash	63	stimuli_target_squarediamonds.svg	stimuli_distractor_trianglediamonds.svg	4	yes	53	1	895	0	0			0	0			1				0	
6.6.1	mac	2023-07-06	22:37:56	22:50:14	734356	60bf9da88006aeba20357735	4	1	main_slash	11	advance_on_keypress_SLASH	64	stimuli_target_squarediamonds.svg	stimuli_distractor_trianglediamonds.svg	4	yes	57	0	1018	0	0			0	0			1				0	
6.6.1	mac	2023-07-06	22:37:56	22:50:16	736951	60bf9da88006aeba20357735	4	1	main_slash	11	main_slash	65	stimuli_distractor_diamondtriangles.svg	stimuli_target_trianglesquares.svg	30	yes	53	1	940	0	0			0	0			1				0	
6.6.1	mac	2023-07-06	22:37:56	22:50:16	736951	60bf9da88006aeba20357735	4	1	main_slash	11	advance_on_keypress_SLASH	66	stimuli_distractor_diamondtriangles.svg	stimuli_target_trianglesquares.svg	30	yes	57	0	597	0	0			0	0			1				0	
6.6.1	mac	2023-07-06	22:37:56	22:50:19	739651	60bf9da88006aeba20357735	4	1	main_slash	11	main_slash	67	stimuli_distractor_diamondtriangles.svg	stimuli_distractor_trianglediamonds.svg	37	no	53	0	1473	0	0			0	0			1				0	
6.6.1	mac	2023-07-06	22:37:56	22:50:19	739651	60bf9da88006aeba20357735	4	1	main_slash	11	advance_on_keypress_SLASH	68	stimuli_distractor_diamondtriangles.svg	stimuli_distractor_trianglediamonds.svg	37	no	57	0	727	0	0			0	0			1				0	
6.6.1	mac	2023-07-06	22:37:56	22:50:21	741534	60bf9da88006aeba20357735	4	1	main_slash	11	main_slash	69	stimuli_target_rectanglediamonds.svg	stimuli_distractor_trianglediamonds.svg	2	yes	53	1	523	0	0			0	0			1				0	
6.6.1	mac	2023-07-06	22:37:56	22:50:21	741534	60bf9da88006aeba20357735	4	1	main_slash	11	advance_on_keypress_SLASH	70	stimuli_target_rectanglediamonds.svg	stimuli_distractor_trianglediamonds.svg	2	yes	57	0	583	0	0			0	0			1				0	
6.6.1	mac	2023-07-06	22:37:56	22:50:24	744741	60bf9da88006aeba20357735	4	1	main_slash	11	main_slash	71	stimuli_distractor_diamondtriangles.svg	stimuli_distractor_diamondtriangles.svg	39	no	0	1	2000	0	0			0	0			1				0	
6.6.1	mac	2023-07-06	22:37:56	22:50:24	744741	60bf9da88006aeba20357735	4	1	main_slash	11	advance_on_keypress_SLASH	72	stimuli_distractor_diamondtriangles.svg	stimuli_distractor_diamondtriangles.svg	39	no	57	0	1977	0	0			0	0			1				0	
6.6.1	mac	2023-07-06	22:37:56	22:50:27	747981	60bf9da88006aeba20357735	4	1	main_slash	11	main_slash	73	stimuli_distractor_diamondtriangles.svg	stimuli_target_rectanglediamonds.svg	14	yes	53	1	638	0	0			0	0			1				0	
6.6.1	mac	2023-07-06	22:37:56	22:50:27	747981	60bf9da88006aeba20357735	4	1	main_slash	11	advance_on_keypress_SLASH	74	stimuli_distractor_diamondtriangles.svg	stimuli_target_rectanglediamonds.svg	14	yes	57	0	1078	0	0			0	0			1				0	
6.6.1	mac	2023-07-06	22:37:56	22:50:30	750228	60bf9da88006aeba20357735	4	1	main_slash	11	main_slash	75	stimuli_distractor_trianglediamonds.svg	stimuli_target_diamondsquares.svg	28	yes	53	1	553	0	0			0	0			1				0	
6.6.1	mac	2023-07-06	22:37:56	22:50:30	750228	60bf9da88006aeba20357735	4	1	main_slash	11	advance_on_keypress_SLASH	76	stimuli_distractor_trianglediamonds.svg	stimuli_target_diamondsquares.svg	28	yes	57	0	1011	0	0			0	0			1				0	
6.6.1	mac	2023-07-06	22:37:56	22:50:33	753857	60bf9da88006aeba20357735	4	1	main_slash	11	main_slash	77	stimuli_distractor_diamondtriangles.svg	stimuli_distractor_trianglediamonds.svg	38	no	0	1	2000	0	0			0	0			1				0	
6.6.1	mac	2023-07-06	22:37:56	22:50:33	753857	60bf9da88006aeba20357735	4	1	main_slash	11	advance_on_keypress_SLASH	78	stimuli_distractor_diamondtriangles.svg	stimuli_distractor_trianglediamonds.svg	38	no	57	0	1177	0	0			0	0			1				0	
6.6.1	mac	2023-07-06	22:37:56	22:50:36	756567	60bf9da88006aeba20357735	4	1	main_slash	11	main_slash	79	stimuli_target_diamondrectangles.svg	stimuli_distractor_diamondtriangles.svg	23	yes	53	1	907	0	0			0	0			1				0	
6.6.1	mac	2023-07-06	22:37:56	22:50:36	756567	60bf9da88006aeba20357735	4	1	main_slash	11	advance_on_keypress_SLASH	80	stimuli_target_diamondrectangles.svg	stimuli_distractor_diamondtriangles.svg	23	yes	57	0	916	0	0			0	0			1				0	
6.6.1	mac	2023-07-06	22:37:56	22:50:38	758999	60bf9da88006aeba20357735	4	1	main_slash	11	main_slash	81	stimuli_target_rectanglediamonds.svg	stimuli_distractor_diamondtriangles.svg	6	yes	53	1	888	0	0			0	0			1				0	
6.6.1	mac	2023-07-06	22:37:56	22:50:38	758999	60bf9da88006aeba20357735	4	1	main_slash	11	advance_on_keypress_SLASH	82	stimuli_target_rectanglediamonds.svg	stimuli_distractor_diamondtriangles.svg	6	yes	57	0	468	0	0			0	0			1				0	
6.6.1	mac	2023-07-06	22:37:56	22:50:40	761013	60bf9da88006aeba20357735	4	1	main_slash	11	main_slash	83	stimuli_distractor_trianglediamonds.svg	stimuli_target_trianglerectangles.svg	25	yes	53	1	919	0	0			0	0			1				0	
6.6.1	mac	2023-07-06	22:37:56	22:50:40	761013	60bf9da88006aeba20357735	4	1	main_slash	11	advance_on_keypress_SLASH	84	stimuli_distractor_trianglediamonds.svg	stimuli_target_trianglerectangles.svg	25	yes	57	0	576	0	0			0	0			1				0	
6.6.1	mac	2023-07-06	22:37:56	22:50:42	763021	60bf9da88006aeba20357735	4	1	main_slash	11	main_slash	85	stimuli_distractor_diamondtriangles.svg	stimuli_target_diamondsquares.svg	32	yes	53	1	811	0	0			0	0			1				0	
6.6.1	mac	2023-07-06	22:37:56	22:50:42	763021	60bf9da88006aeba20357735	4	1	main_slash	11	advance_on_keypress_SLASH	86	stimuli_distractor_diamondtriangles.svg	stimuli_target_diamondsquares.svg	32	yes	57	0	513	0	0			0	0			1				0	
6.6.1	mac	2023-07-06	22:37:56	22:50:44	765020	60bf9da88006aeba20357735	4	1	main_slash	11	main_slash	87	stimuli_distractor_trianglediamonds.svg	stimuli_target_diamondrectangles.svg	27	yes	53	1	860	0	0			0	0			1				0	
6.6.1	mac	2023-07-06	22:37:56	22:50:44	765020	60bf9da88006aeba20357735	4	1	main_slash	11	advance_on_keypress_SLASH	88	stimuli_distractor_trianglediamonds.svg	stimuli_target_diamondrectangles.svg	27	yes	57	0	549	0	0			0	0			1				0	
6.6.1	mac	2023-07-06	22:37:56	22:50:46	766774	60bf9da88006aeba20357735	4	1	main_slash	11	main_slash	89	stimuli_target_trianglesquares.svg	stimuli_distractor_trianglediamonds.svg	18	yes	53	1	551	0	0			0	0			1				0	
6.6.1	mac	2023-07-06	22:37:56	22:50:46	766774	60bf9da88006aeba20357735	4	1	main_slash	11	advance_on_keypress_SLASH	90	stimuli_target_trianglesquares.svg	stimuli_distractor_trianglediamonds.svg	18	yes	57	0	468	0	0			0	0			1				0	
6.6.1	mac	2023-07-06	22:37:56	22:50:48	768765	60bf9da88006aeba20357735	4	1	main_slash	11	main_slash	91	stimuli_distractor_diamondtriangles.svg	stimuli_target_trianglerectangles.svg	29	yes	53	1	888	0	0			0	0			1				0	
6.6.1	mac	2023-07-06	22:37:56	22:50:48	768765	60bf9da88006aeba20357735	4	1	main_slash	11	advance_on_keypress_SLASH	92	stimuli_distractor_diamondtriangles.svg	stimuli_target_trianglerectangles.svg	29	yes	57	0	458	0	0			0	0			1				0	
6.6.1	mac	2023-07-06	22:37:56	22:50:50	770320	60bf9da88006aeba20357735	4	1	main_slash	11	main_slash	93	stimuli_target_trianglesquares.svg	stimuli_distractor_diamondtriangles.svg	22	yes	53	1	460	0	0			0	0			1				0	
6.6.1	mac	2023-07-06	22:37:56	22:50:50	770320	60bf9da88006aeba20357735	4	1	main_slash	11	advance_on_keypress_SLASH	94	stimuli_target_trianglesquares.svg	stimuli_distractor_diamondtriangles.svg	22	yes	57	0	419	0	0			0	0			1				0	
6.6.1	mac	2023-07-06	22:37:56	22:50:53	773373	60bf9da88006aeba20357735	4	1	main_slash	11	main_slash	95	stimuli_distractor_trianglediamonds.svg	stimuli_distractor_trianglediamonds.svg	34	no	0	1	2000	0	0			0	0			1				0	
6.6.1	mac	2023-07-06	22:37:56	22:50:53	773373	60bf9da88006aeba20357735	4	1	main_slash	11	advance_on_keypress_SLASH	96	stimuli_distractor_trianglediamonds.svg	stimuli_distractor_trianglediamonds.svg	34	no	57	0	1313	0	0			0	0			1				0	
6.6.1	mac	2023-07-06	22:37:56	22:50:55	775799	60bf9da88006aeba20357735	4	1	main_slash	11	main_slash	97	stimuli_target_rectangletriangles.svg	stimuli_distractor_diamondtriangles.svg	5	yes	53	1	473	0	0			0	0			1				0	
6.6.1	mac	2023-07-06	22:37:56	22:50:55	775799	60bf9da88006aeba20357735	4	1	main_slash	11	advance_on_keypress_SLASH	98	stimuli_target_rectangletriangles.svg	stimuli_distractor_diamondtriangles.svg	5	yes	57	0	594	0	0			0	0			1				0	
6.6.1	mac	2023-07-06	22:37:56	22:50:58	779024	60bf9da88006aeba20357735	4	1	main_slash	11	main_slash	99	stimuli_distractor_trianglediamonds.svg	stimuli_distractor_trianglediamonds.svg	33	no	0	1	2000	0	0			0	0			1				0	
6.6.1	mac	2023-07-06	22:37:56	22:50:58	779024	60bf9da88006aeba20357735	4	1	main_slash	11	advance_on_keypress_SLASH	100	stimuli_distractor_trianglediamonds.svg	stimuli_distractor_trianglediamonds.svg	33	no	57	0	352	0	0			0	0			1				0	
6.6.1	mac	2023-07-06	22:37:56	22:51:00	781038	60bf9da88006aeba20357735	4	1	main_slash	11	main_slash	101	stimuli_distractor_trianglediamonds.svg	stimuli_target_squaretriangles.svg	11	yes	53	1	1028	0	0			0	0			1				0	
6.6.1	mac	2023-07-06	22:37:56	22:51:00	781038	60bf9da88006aeba20357735	4	1	main_slash	11	advance_on_keypress_SLASH	102	stimuli_distractor_trianglediamonds.svg	stimuli_target_squaretriangles.svg	11	yes	57	0	492	0	0			0	0			1				0	
6.6.1	mac	2023-07-06	22:37:56	22:51:03	783219	60bf9da88006aeba20357735	4	1	main_slash	11	main_slash	103	stimuli_target_trianglerectangles.svg	stimuli_distractor_diamondtriangles.svg	21	yes	53	1	1058	0	0			0	0			1				0	
6.6.1	mac	2023-07-06	22:37:56	22:51:03	783219	60bf9da88006aeba20357735	4	1	main_slash	11	advance_on_keypress_SLASH	104	stimuli_target_trianglerectangles.svg	stimuli_distractor_diamondtriangles.svg	21	yes	57	0	388	0	0			0	0			1				0	
6.6.1	mac	2023-07-06	22:37:56	22:51:05	785193	60bf9da88006aeba20357735	4	1	main_slash	11	main_slash	105	stimuli_target_squarediamonds.svg	stimuli_distractor_trianglediamonds.svg	4	yes	53	1	950	0	0			0	0			1				0	
6.6.1	mac	2023-07-06	22:37:56	22:51:05	785193	60bf9da88006aeba20357735	4	1	main_slash	11	advance_on_keypress_SLASH	106	stimuli_target_squarediamonds.svg	stimuli_distractor_trianglediamonds.svg	4	yes	57	0	384	0	0			0	0			1				0	
6.6.1	mac	2023-07-06	22:37:56	22:51:06	786941	60bf9da88006aeba20357735	4	1	main_slash	11	main_slash	107	stimuli_target_diamondsquares.svg	stimuli_distractor_diamondtriangles.svg	24	yes	53	1	732	0	0			0	0			1				0	
6.6.1	mac	2023-07-06	22:37:56	22:51:06	786941	60bf9da88006aeba20357735	4	1	main_slash	11	advance_on_keypress_SLASH	108	stimuli_target_diamondsquares.svg	stimuli_distractor_diamondtriangles.svg	24	yes	57	0	443	0	0			0	0			1				0	
6.6.1	mac	2023-07-06	22:37:56	22:51:08	788471	60bf9da88006aeba20357735	4	1	main_slash	11	main_slash	109	stimuli_target_squaretriangles.svg	stimuli_distractor_diamondtriangles.svg	7	yes	53	1	461	0	0			0	0			1				0	
6.6.1	mac	2023-07-06	22:37:56	22:51:08	788471	60bf9da88006aeba20357735	4	1	main_slash	11	advance_on_keypress_SLASH	110	stimuli_target_squaretriangles.svg	stimuli_distractor_diamondtriangles.svg	7	yes	57	0	366	0	0			0	0			1				0	
6.6.1	mac	2023-07-06	22:37:56	22:51:11	791458	60bf9da88006aeba20357735	4	1	main_slash	11	main_slash	111	stimuli_distractor_trianglediamonds.svg	stimuli_distractor_diamondtriangles.svg	36	no	0	1	2000	0	0			0	0			1				0	
6.6.1	mac	2023-07-06	22:37:56	22:51:11	791458	60bf9da88006aeba20357735	4	1	main_slash	11	advance_on_keypress_SLASH	112	stimuli_distractor_trianglediamonds.svg	stimuli_distractor_diamondtriangles.svg	36	no	57	0	495	0	0			0	0			1				0	
6.6.1	mac	2023-07-06	22:37:56	22:51:12	793062	60bf9da88006aeba20357735	4	1	main_slash	11	main_slash	113	stimuli_distractor_trianglediamonds.svg	stimuli_target_diamondsquares.svg	28	yes	53	1	470	0	0			0	0			1				0	
6.6.1	mac	2023-07-06	22:37:56	22:51:12	793062	60bf9da88006aeba20357735	4	1	main_slash	11	advance_on_keypress_SLASH	114	stimuli_distractor_trianglediamonds.svg	stimuli_target_diamondsquares.svg	28	yes	57	0	342	0	0			0	0			1				0	
6.6.1	mac	2023-07-06	22:37:56	22:51:15	796040	60bf9da88006aeba20357735	4	1	main_slash	11	main_slash	115	stimuli_distractor_trianglediamonds.svg	stimuli_distractor_diamondtriangles.svg	35	no	0	1	2000	0	0			0	0			1				0	
6.6.1	mac	2023-07-06	22:37:56	22:51:15	796040	60bf9da88006aeba20357735	4	1	main_slash	11	advance_on_keypress_SLASH	116	stimuli_distractor_trianglediamonds.svg	stimuli_distractor_diamondtriangles.svg	35	no	57	0	746	0	0			0	0			1				0	
6.6.1	mac	2023-07-06	22:37:56	22:51:19	799407	60bf9da88006aeba20357735	4	1	main_slash	11	main_slash	117	stimuli_distractor_diamondtriangles.svg	stimuli_distractor_trianglediamonds.svg	38	no	0	1	2000	0	0			0	0			1				0	
6.6.1	mac	2023-07-06	22:37:56	22:51:19	799407	60bf9da88006aeba20357735	4	1	main_slash	11	advance_on_keypress_SLASH	118	stimuli_distractor_diamondtriangles.svg	stimuli_distractor_trianglediamonds.svg	38	no	57	0	376	0	0			0	0			1				0	
6.6.1	mac	2023-07-06	22:37:56	22:51:20	800970	60bf9da88006aeba20357735	4	1	main_slash	11	main_slash	119	stimuli_target_squarediamonds.svg	stimuli_distractor_diamondtriangles.svg	8	yes	53	1	562	0	0			0	0			1				0	
6.6.1	mac	2023-07-06	22:37:56	22:51:20	800970	60bf9da88006aeba20357735	4	1	main_slash	11	advance_on_keypress_SLASH	120	stimuli_target_squarediamonds.svg	stimuli_distractor_diamondtriangles.svg	8	yes	57	0	760	0	0			0	0			1				0	
6.6.1	mac	2023-07-06	22:37:56	22:51:22	803162	60bf9da88006aeba20357735	4	1	main_slash	11	main_slash	121	stimuli_distractor_diamondtriangles.svg	stimuli_target_diamondrectangles.svg	31	yes	53	1	803	0	0			0	0			1				0	
6.6.1	mac	2023-07-06	22:37:56	22:51:22	803162	60bf9da88006aeba20357735	4	1	main_slash	11	advance_on_keypress_SLASH	122	stimuli_distractor_diamondtriangles.svg	stimuli_target_diamondrectangles.svg	31	yes	57	0	441	0	0			0	0			1				0	
6.6.1	mac	2023-07-06	22:37:56	22:51:24	804886	60bf9da88006aeba20357735	4	1	main_slash	11	main_slash	123	stimuli_distractor_diamondtriangles.svg	stimuli_target_squaretriangles.svg	15	yes	53	1	660	0	0			0	0			1				0	
6.6.1	mac	2023-07-06	22:37:56	22:51:24	804886	60bf9da88006aeba20357735	4	1	main_slash	11	advance_on_keypress_SLASH	124	stimuli_distractor_diamondtriangles.svg	stimuli_target_squaretriangles.svg	15	yes	57	0	461	0	0			0	0			1				0	
6.6.1	mac	2023-07-06	22:37:56	22:51:26	806447	60bf9da88006aeba20357735	4	1	main_slash	11	main_slash	125	stimuli_target_squaretriangles.svg	stimuli_distractor_trianglediamonds.svg	3	yes	53	1	463	0	0			0	0			1				0	
6.6.1	mac	2023-07-06	22:37:56	22:51:26	806447	60bf9da88006aeba20357735	4	1	main_slash	11	advance_on_keypress_SLASH	126	stimuli_target_squaretriangles.svg	stimuli_distractor_trianglediamonds.svg	3	yes	57	0	441	0	0			0	0			1				0	
6.6.1	mac	2023-07-06	22:37:56	22:51:27	808060	60bf9da88006aeba20357735	4	1	main_slash	11	main_slash	127	stimuli_distractor_diamondtriangles.svg	stimuli_target_rectanglediamonds.svg	14	yes	53	1	551	0	0			0	0			1				0	
6.6.1	mac	2023-07-06	22:37:56	22:51:27	808060	60bf9da88006aeba20357735	4	1	main_slash	11	advance_on_keypress_SLASH	128	stimuli_distractor_diamondtriangles.svg	stimuli_target_rectanglediamonds.svg	14	yes	57	0	437	0	0			0	0			1				0	
6.6.1	mac	2023-07-06	22:37:56	22:51:29	809525	60bf9da88006aeba20357735	4	1	main_slash	11	main_slash	129	stimuli_target_rectangletriangles.svg	stimuli_distractor_trianglediamonds.svg	1	yes	53	1	399	0	0			0	0			1				0	
6.6.1	mac	2023-07-06	22:37:56	22:51:29	809525	60bf9da88006aeba20357735	4	1	main_slash	11	advance_on_keypress_SLASH	130	stimuli_target_rectangletriangles.svg	stimuli_distractor_trianglediamonds.svg	1	yes	57	0	346	0	0			0	0			1				0	
6.6.1	mac	2023-07-06	22:37:56	22:51:30	810951	60bf9da88006aeba20357735	4	1	main_slash	11	main_slash	131	stimuli_distractor_trianglediamonds.svg	stimuli_target_rectanglediamonds.svg	10	yes	53	1	441	0	0			0	0			1				0	
6.6.1	mac	2023-07-06	22:37:56	22:51:30	810951	60bf9da88006aeba20357735	4	1	main_slash	11	advance_on_keypress_SLASH	132	stimuli_distractor_trianglediamonds.svg	stimuli_target_rectanglediamonds.svg	10	yes	57	0	336	0	0			0	0			1				0	
6.6.1	mac	2023-07-06	22:37:56	22:51:33	813923	60bf9da88006aeba20357735	4	1	main_slash	11	main_slash	133	stimuli_distractor_diamondtriangles.svg	stimuli_distractor_diamondtriangles.svg	39	no	0	1	2000	0	0			0	0			1				0	
6.6.1	mac	2023-07-06	22:37:56	22:51:33	813923	60bf9da88006aeba20357735	4	1	main_slash	11	advance_on_keypress_SLASH	134	stimuli_distractor_diamondtriangles.svg	stimuli_distractor_diamondtriangles.svg	39	no	57	0	1107	0	0			0	0			1				0	
6.6.1	mac	2023-07-06	22:37:56	22:51:35	816088	60bf9da88006aeba20357735	4	1	main_slash	11	main_slash	135	stimuli_distractor_trianglediamonds.svg	stimuli_target_rectangletriangles.svg	9	yes	53	1	430	0	0			0	0			1				0	
6.6.1	mac	2023-07-06	22:37:56	22:51:35	816088	60bf9da88006aeba20357735	4	1	main_slash	11	advance_on_keypress_SLASH	136	stimuli_distractor_trianglediamonds.svg	stimuli_target_rectangletriangles.svg	9	yes	57	0	390	0	0			0	0			1				0	
6.6.1	mac	2023-07-06	22:37:56	22:51:37	817702	60bf9da88006aeba20357735	4	1	main_slash	11	main_slash	137	stimuli_distractor_diamondtriangles.svg	stimuli_distractor_trianglediamonds.svg	37	no	53	0	594	0	0			0	0			1				0	
6.6.1	mac	2023-07-06	22:37:56	22:51:37	817702	60bf9da88006aeba20357735	4	1	main_slash	11	advance_on_keypress_SLASH	138	stimuli_distractor_diamondtriangles.svg	stimuli_distractor_trianglediamonds.svg	37	no	57	0	1106	0	0			0	0			1				0	
6.6.1	mac	2023-07-06	22:37:56	22:51:40	820322	60bf9da88006aeba20357735	4	1	main_slash	11	main_slash	139	stimuli_target_diamondrectangles.svg	stimuli_distractor_diamondtriangles.svg	23	yes	53	1	881	0	0			0	0			1				0	
6.6.1	mac	2023-07-06	22:37:56	22:51:40	820322	60bf9da88006aeba20357735	4	1	main_slash	11	advance_on_keypress_SLASH	140	stimuli_target_diamondrectangles.svg	stimuli_distractor_diamondtriangles.svg	23	yes	57	0	367	0	0			0	0			1				0	
6.6.1	mac	2023-07-06	22:37:56	22:51:41	821811	60bf9da88006aeba20357735	4	1	main_slash	11	main_slash	141	stimuli_distractor_diamondtriangles.svg	stimuli_target_rectangletriangles.svg	13	yes	53	1	486	0	0			0	0			1				0	
6.6.1	mac	2023-07-06	22:37:56	22:51:41	821811	60bf9da88006aeba20357735	4	1	main_slash	11	advance_on_keypress_SLASH	142	stimuli_distractor_diamondtriangles.svg	stimuli_target_rectangletriangles.svg	13	yes	57	0	347	0	0			0	0			1				0	
6.6.1	mac	2023-07-06	22:37:56	22:51:43	823529	60bf9da88006aeba20357735	4	1	main_slash	11	main_slash	143	stimuli_target_trianglerectangles.svg	stimuli_distractor_trianglediamonds.svg	17	yes	53	1	737	0	0			0	0			1				0	
6.6.1	mac	2023-07-06	22:37:56	22:51:43	823529	60bf9da88006aeba20357735	4	1	main_slash	11	advance_on_keypress_SLASH	144	stimuli_target_trianglerectangles.svg	stimuli_distractor_trianglediamonds.svg	17	yes	57	0	392	0	0			0	0			1				0	
6.6.1	mac	2023-07-06	22:37:56	22:51:44	825017	60bf9da88006aeba20357735	4	1	main_slash	11	main_slash	145	stimuli_target_diamondrectangles.svg	stimuli_distractor_trianglediamonds.svg	19	yes	53	1	474	0	0			0	0			1				0	
6.6.1	mac	2023-07-06	22:37:56	22:51:44	825017	60bf9da88006aeba20357735	4	1	main_slash	11	advance_on_keypress_SLASH	146	stimuli_target_diamondrectangles.svg	stimuli_distractor_trianglediamonds.svg	19	yes	57	0	314	0	0			0	0			1				0	
6.6.1	mac	2023-07-06	22:37:56	22:51:46	826436	60bf9da88006aeba20357735	4	1	main_slash	11	main_slash	147	stimuli_target_rectanglediamonds.svg	stimuli_distractor_trianglediamonds.svg	2	yes	53	1	477	0	0			0	0			1				0	
6.6.1	mac	2023-07-06	22:37:56	22:51:46	826436	60bf9da88006aeba20357735	4	1	main_slash	11	advance_on_keypress_SLASH	148	stimuli_target_rectanglediamonds.svg	stimuli_distractor_trianglediamonds.svg	2	yes	57	0	338	0	0			0	0			1				0	
6.6.1	mac	2023-07-06	22:37:56	22:51:47	827899	60bf9da88006aeba20357735	4	1	main_slash	11	main_slash	149	stimuli_distractor_diamondtriangles.svg	stimuli_target_trianglesquares.svg	30	yes	53	1	490	0	0			0	0			1				0	
6.6.1	mac	2023-07-06	22:37:56	22:51:47	827899	60bf9da88006aeba20357735	4	1	main_slash	11	advance_on_keypress_SLASH	150	stimuli_distractor_diamondtriangles.svg	stimuli_target_trianglesquares.svg	30	yes	57	0	334	0	0			0	0			1				0	
6.6.1	mac	2023-07-06	22:37:56	22:51:49	829592	60bf9da88006aeba20357735	4	1	main_slash	11	main_slash	151	stimuli_target_diamondsquares.svg	stimuli_distractor_trianglediamonds.svg	20	yes	53	1	733	0	0			0	0			1				0	
6.6.1	mac	2023-07-06	22:37:56	22:51:49	829592	60bf9da88006aeba20357735	4	1	main_slash	11	advance_on_keypress_SLASH	152	stimuli_target_diamondsquares.svg	stimuli_distractor_trianglediamonds.svg	20	yes	57	0	275	0	0			0	0			1				0	
6.6.1	mac	2023-07-06	22:37:56	22:51:50	830979	60bf9da88006aeba20357735	4	1	main_slash	11	main_slash	153	stimuli_distractor_diamondtriangles.svg	stimuli_target_squarediamonds.svg	16	yes	53	1	476	0	0			0	0			1				0	
6.6.1	mac	2023-07-06	22:37:56	22:51:50	830979	60bf9da88006aeba20357735	4	1	main_slash	11	advance_on_keypress_SLASH	154	stimuli_distractor_diamondtriangles.svg	stimuli_target_squarediamonds.svg	16	yes	57	0	268	0	0			0	0			1				0	
6.6.1	mac	2023-07-06	22:37:56	22:51:52	832246	60bf9da88006aeba20357735	4	1	main_slash	11	main_slash	155	stimuli_distractor_trianglediamonds.svg	stimuli_target_squarediamonds.svg	12	yes	53	1	371	0	0			0	0			1				0	
6.6.1	mac	2023-07-06	22:37:56	22:51:52	832246	60bf9da88006aeba20357735	4	1	main_slash	11	advance_on_keypress_SLASH	156	stimuli_distractor_trianglediamonds.svg	stimuli_target_squarediamonds.svg	12	yes	57	0	355	0	0			0	0			1				0	
6.6.1	mac	2023-07-06	22:37:56	22:51:55	835239	60bf9da88006aeba20357735	4	1	main_slash	11	main_slash	157	stimuli_distractor_diamondtriangles.svg	stimuli_distractor_diamondtriangles.svg	40	no	0	1	2000	0	0			0	0			1				0	
6.6.1	mac	2023-07-06	22:37:56	22:51:55	835239	60bf9da88006aeba20357735	4	1	main_slash	11	advance_on_keypress_SLASH	158	stimuli_distractor_diamondtriangles.svg	stimuli_distractor_diamondtriangles.svg	40	no	57	0	903	0	0			0	0			1				0	
6.6.1	mac	2023-07-06	22:37:56	22:51:57	837200	60bf9da88006aeba20357735	4	1	main_slash	11	main_slash	159	stimuli_distractor_trianglediamonds.svg	stimuli_target_trianglesquares.svg	26	yes	53	1	426	0	0			0	0			1				0	
6.6.1	mac	2023-07-06	22:37:56	22:51:57	837200	60bf9da88006aeba20357735	4	1	main_slash	11	advance_on_keypress_SLASH	160	stimuli_distractor_trianglediamonds.svg	stimuli_target_trianglesquares.svg	26	yes	57	0	339	0	0			0	0			1				0	
6.6.1	mac	2023-07-06	22:37:56	22:51:57	837200	60bf9da88006aeba20357735	4	1	headphonecheck_calibration	14	headphonecheck_calibrationIntro	1	stimuli_distractor_trianglediamonds.svg	stimuli_target_trianglesquares.svg	26	yes	calibrationButton	0	3254	0	0			0	0			1				0	
6.6.1	mac	2023-07-06	22:37:56	22:51:57	837200	60bf9da88006aeba20357735	4	1	headphonecheck_testphase	15	test_collectResponse	3	stimuli_distractor_trianglediamonds.svg	stimuli_target_trianglesquares.svg	26	yes	second	0	15411	1	3	antiphase_hc_soi.wav	1	0	0			1				0	
6.6.1	mac	2023-07-06	22:37:56	22:51:57	837200	60bf9da88006aeba20357735	4	1	headphonecheck_testphase	15	test_collectResponse	6	stimuli_distractor_trianglediamonds.svg	stimuli_target_trianglesquares.svg	26	yes	second	1	1690	2	5	antiphase_hc_osi.wav	2	0	0			1				0	
6.6.1	mac	2023-07-06	22:37:56	22:51:57	837200	60bf9da88006aeba20357735	4	1	headphonecheck_testphase	15	test_collectResponse	9	stimuli_distractor_trianglediamonds.svg	stimuli_target_trianglesquares.svg	26	yes	first	0	411	3	2	antiphase_hc_ios.wav	3	0	0			1				0	
6.6.1	mac	2023-07-06	22:37:56	22:51:57	837200	60bf9da88006aeba20357735	4	1	headphonecheck_testphase	15	test_collectResponse	12	stimuli_distractor_trianglediamonds.svg	stimuli_target_trianglesquares.svg	26	yes	second	0	943	4	4	antiphase_hc_sio.wav	1	0	0			1				0	
6.6.1	mac	2023-07-06	22:37:56	22:51:57	837200	60bf9da88006aeba20357735	4	1	headphonecheck_testphase	15	test_collectResponse	15	stimuli_distractor_trianglediamonds.svg	stimuli_target_trianglesquares.svg	26	yes	first	0	2106	5	1	antiphase_hc_iso.wav	2	0	0			1				0	
6.6.1	mac	2023-07-06	22:37:56	22:51:57	837200	60bf9da88006aeba20357735	4	1	headphonecheck_testphase	15	test_collectResponse	18	stimuli_distractor_trianglediamonds.svg	stimuli_target_trianglesquares.svg	26	yes	third	1	745	6	6	antiphase_hc_ois.wav	3	0	0			1				0	
6.6.1	mac	2023-07-06	22:37:56	22:51:57	837200	60bf9da88006aeba20357735	4	1	stereocheck_calibration	17	stereocheck_calibrationIntro	1	stimuli_distractor_trianglediamonds.svg	stimuli_target_trianglesquares.svg	26	yes	stereocheck_calibrationButton	0	5362	6	6	antiphase_hc_ois.wav	3	0	0			1				0	
6.6.1	mac	2023-07-06	22:37:56	22:51:57	837200	60bf9da88006aeba20357735	4	1	stereocheck_testphase	18	stereocheck_test_collectResponse	3	stimuli_distractor_trianglediamonds.svg	stimuli_target_trianglesquares.svg	26	yes	stereocheck_right	1	255	6	6	antiphase_hc_ois.wav	3	1	6	noise_calib_stim_RIGHT.wav	2	1				0	
6.6.1	mac	2023-07-06	22:37:56	22:51:57	837200	60bf9da88006aeba20357735	4	1	stereocheck_testphase	18	stereocheck_test_collectResponse	6	stimuli_distractor_trianglediamonds.svg	stimuli_target_trianglesquares.svg	26	yes	stereocheck_right	1	543	6	6	antiphase_hc_ois.wav	3	2	4	noise_calib_stim_RIGHT.wav	2	1				0	
6.6.1	mac	2023-07-06	22:37:56	22:51:57	837200	60bf9da88006aeba20357735	4	1	stereocheck_testphase	18	stereocheck_test_collectResponse	9	stimuli_distractor_trianglediamonds.svg	stimuli_target_trianglesquares.svg	26	yes	stereocheck_left	1	352	6	6	antiphase_hc_ois.wav	3	3	1	noise_calib_stim_LEFT.wav	1	1				0	
6.6.1	mac	2023-07-06	22:37:56	22:51:57	837200	60bf9da88006aeba20357735	4	1	stereocheck_testphase	18	stereocheck_test_collectResponse	12	stimuli_distractor_trianglediamonds.svg	stimuli_target_trianglesquares.svg	26	yes	stereocheck_left	1	289	6	6	antiphase_hc_ois.wav	3	4	3	noise_calib_stim_LEFT.wav	1	1				0	
6.6.1	mac	2023-07-06	22:37:56	22:51:57	837200	60bf9da88006aeba20357735	4	1	stereocheck_testphase	18	stereocheck_test_collectResponse	15	stimuli_distractor_trianglediamonds.svg	stimuli_target_trianglesquares.svg	26	yes	stereocheck_right	1	379	6	6	antiphase_hc_ois.wav	3	5	5	noise_calib_stim_RIGHT.wav	2	1				0	
6.6.1	mac	2023-07-06	22:37:56	22:51:57	837200	60bf9da88006aeba20357735	4	1	stereocheck_testphase	18	stereocheck_test_collectResponse	18	stimuli_distractor_trianglediamonds.svg	stimuli_target_trianglesquares.svg	26	yes	stereocheck_left	1	422	6	6	antiphase_hc_ois.wav	3	6	2	noise_calib_stim_LEFT.wav	1	1				0	
6.6.1	mac	2023-07-06	22:37:56	22:51:57	837200	60bf9da88006aeba20357735	4	1	DL_practice	21	DL_practice	2	stimuli_distractor_trianglediamonds.svg	stimuli_target_trianglesquares.svg	26	yes	da	0	3986	6	6	antiphase_hc_ois.wav	3	6	2	noise_calib_stim_LEFT.wav	1	1	blb_dichoticlistening_ba-ba.mp3	ba	ba	0	other
6.6.1	mac	2023-07-06	22:37:56	22:51:57	837200	60bf9da88006aeba20357735	4	1	DL_practice	21	DL_practice	3	stimuli_distractor_trianglediamonds.svg	stimuli_target_trianglesquares.svg	26	yes	ga	1	965	6	6	antiphase_hc_ois.wav	3	6	2	noise_calib_stim_LEFT.wav	1	15	blb_dichoticlistening_ga-ga.mp3	ga	ga	0	left
6.6.1	mac	2023-07-06	22:37:56	22:51:57	837200	60bf9da88006aeba20357735	4	1	DL_practice	21	DL_practice	4	stimuli_distractor_trianglediamonds.svg	stimuli_target_trianglesquares.svg	26	yes	da	1	1108	6	6	antiphase_hc_ois.wav	3	6	2	noise_calib_stim_LEFT.wav	1	7	blb_dichoticlistening_da-ba.mp3	da	ba	1	left
6.6.1	mac	2023-07-06	22:37:56	22:51:57	837200	60bf9da88006aeba20357735	4	1	DL_practice	21	DL_practice	5	stimuli_distractor_trianglediamonds.svg	stimuli_target_trianglesquares.svg	26	yes	pa	1	986	6	6	antiphase_hc_ois.wav	3	6	2	noise_calib_stim_LEFT.wav	1	29	blb_dichoticlistening_pa-pa.mp3	pa	pa	0	left
6.6.1	mac	2023-07-06	22:37:56	22:51:57	837200	60bf9da88006aeba20357735	4	1	DL_practice	21	DL_practice	6	stimuli_distractor_trianglediamonds.svg	stimuli_target_trianglesquares.svg	26	yes	da	1	917	6	6	antiphase_hc_ois.wav	3	6	2	noise_calib_stim_LEFT.wav	1	8	blb_dichoticlistening_da-da.mp3	da	da	0	left
6.6.1	mac	2023-07-06	22:37:56	22:51:57	837200	60bf9da88006aeba20357735	4	1	DL_practice	21	DL_practice	7	stimuli_distractor_trianglediamonds.svg	stimuli_target_trianglesquares.svg	26	yes	ba	0	2115	6	6	antiphase_hc_ois.wav	3	6	2	noise_calib_stim_LEFT.wav	1	18	blb_dichoticlistening_ga-ta.mp3	ga	ta	1	other
6.6.1	mac	2023-07-06	22:37:56	22:51:57	837200	60bf9da88006aeba20357735	4	1	DL_practice	21	DL_practice	8	stimuli_distractor_trianglediamonds.svg	stimuli_target_trianglesquares.svg	26	yes	ka	1	1173	6	6	antiphase_hc_ois.wav	3	6	2	noise_calib_stim_LEFT.wav	1	22	blb_dichoticlistening_ka-ka.mp3	ka	ka	0	left
6.6.1	mac	2023-07-06	22:37:56	22:51:57	837200	60bf9da88006aeba20357735	4	1	DL_practice	21	DL_practice	9	stimuli_distractor_trianglediamonds.svg	stimuli_target_trianglesquares.svg	26	yes	ka	1	1017	6	6	antiphase_hc_ois.wav	3	6	2	noise_calib_stim_LEFT.wav	1	23	blb_dichoticlistening_ka-pa.mp3	ka	pa	1	left
6.6.1	mac	2023-07-06	22:37:56	22:51:57	837200	60bf9da88006aeba20357735	4	1	DL_practice	21	DL_practice	10	stimuli_distractor_trianglediamonds.svg	stimuli_target_trianglesquares.svg	26	yes	ta	1	1249	6	6	antiphase_hc_ois.wav	3	6	2	noise_calib_stim_LEFT.wav	1	36	blb_dichoticlistening_ta-ta.mp3	ta	ta	0	left
6.6.1	mac	2023-07-06	22:37:56	22:51:57	837200	60bf9da88006aeba20357735	4	1	DL_test	23	DL_test	1	stimuli_distractor_trianglediamonds.svg	stimuli_target_trianglesquares.svg	26	yes	ga	0	890	6	6	antiphase_hc_ois.wav	3	6	2	noise_calib_stim_LEFT.wav	1	12	blb_dichoticlistening_da-ta.mp3	da	ta	1	other
6.6.1	mac	2023-07-06	22:37:56	22:51:57	837200	60bf9da88006aeba20357735	4	1	DL_test	23	DL_test	2	stimuli_distractor_trianglediamonds.svg	stimuli_target_trianglesquares.svg	26	yes	da	1	1077	6	6	antiphase_hc_ois.wav	3	6	2	noise_calib_stim_LEFT.wav	1	11	blb_dichoticlistening_da-pa.mp3	da	pa	1	left
6.6.1	mac	2023-07-06	22:37:56	22:51:57	837200	60bf9da88006aeba20357735	4	1	DL_test	23	DL_test	3	stimuli_distractor_trianglediamonds.svg	stimuli_target_trianglesquares.svg	26	yes	ka	0	719	6	6	antiphase_hc_ois.wav	3	6	2	noise_calib_stim_LEFT.wav	1	30	blb_dichoticlistening_pa-ta.mp3	pa	ta	1	other
6.6.1	mac	2023-07-06	22:37:56	22:51:57	837200	60bf9da88006aeba20357735	4	1	DL_test	23	DL_test	4	stimuli_distractor_trianglediamonds.svg	stimuli_target_trianglesquares.svg	26	yes	ga	1	1340	6	6	antiphase_hc_ois.wav	3	6	2	noise_calib_stim_LEFT.wav	1	33	blb_dichoticlistening_ta-ga.mp3	ta	ga	1	right
6.6.1	mac	2023-07-06	22:37:56	22:51:57	837200	60bf9da88006aeba20357735	4	1	DL_test	23	DL_test	5	stimuli_distractor_trianglediamonds.svg	stimuli_target_trianglesquares.svg	26	yes	ka	1	814	6	6	antiphase_hc_ois.wav	3	6	2	noise_calib_stim_LEFT.wav	1	19	blb_dichoticlistening_ka-ba.mp3	ka	ba	1	left
6.6.1	mac	2023-07-06	22:37:56	22:51:57	837200	60bf9da88006aeba20357735	4	1	DL_test	23	DL_test	6	stimuli_distractor_trianglediamonds.svg	stimuli_target_trianglesquares.svg	26	yes	da	1	748	6	6	antiphase_hc_ois.wav	3	6	2	noise_calib_stim_LEFT.wav	1	2	blb_dichoticlistening_ba-da.mp3	ba	da	1	right
6.6.1	mac	2023-07-06	22:37:56	22:51:57	837200	60bf9da88006aeba20357735	4	1	DL_test	23	DL_test	7	stimuli_distractor_trianglediamonds.svg	stimuli_target_trianglesquares.svg	26	yes	ta	0	2783	6	6	antiphase_hc_ois.wav	3	6	2	noise_calib_stim_LEFT.wav	1	7	blb_dichoticlistening_da-ba.mp3	da	ba	1	other
6.6.1	mac	2023-07-06	22:37:56	22:51:57	837200	60bf9da88006aeba20357735	4	1	DL_test	23	DL_test	8	stimuli_distractor_trianglediamonds.svg	stimuli_target_trianglesquares.svg	26	yes	ga	0	1086	6	6	antiphase_hc_ois.wav	3	6	2	noise_calib_stim_LEFT.wav	1	32	blb_dichoticlistening_ta-da.mp3	ta	da	1	other
6.6.1	mac	2023-07-06	22:37:56	22:51:57	837200	60bf9da88006aeba20357735	4	1	DL_test	23	DL_test	9	stimuli_distractor_trianglediamonds.svg	stimuli_target_trianglesquares.svg	26	yes	ga	0	761	6	6	antiphase_hc_ois.wav	3	6	2	noise_calib_stim_LEFT.wav	1	8	blb_dichoticlistening_da-da.mp3	da	da	0	other
6.6.1	mac	2023-07-06	22:37:56	22:51:57	837200	60bf9da88006aeba20357735	4	1	DL_test	23	DL_test	10	stimuli_distractor_trianglediamonds.svg	stimuli_target_trianglesquares.svg	26	yes	ta	1	2231	6	6	antiphase_hc_ois.wav	3	6	2	noise_calib_stim_LEFT.wav	1	35	blb_dichoticlistening_ta-pa.mp3	ta	pa	1	left
6.6.1	mac	2023-07-06	22:37:56	22:51:57	837200	60bf9da88006aeba20357735	4	1	DL_test	23	DL_test	11	stimuli_distractor_trianglediamonds.svg	stimuli_target_trianglesquares.svg	26	yes	ta	1	871	6	6	antiphase_hc_ois.wav	3	6	2	noise_calib_stim_LEFT.wav	1	31	blb_dichoticlistening_ta-ba.mp3	ta	ba	1	left
6.6.1	mac	2023-07-06	22:37:56	22:51:57	837200	60bf9da88006aeba20357735	4	1	DL_test	23	DL_test	12	stimuli_distractor_trianglediamonds.svg	stimuli_target_trianglesquares.svg	26	yes	ga	0	1023	6	6	antiphase_hc_ois.wav	3	6	2	noise_calib_stim_LEFT.wav	1	26	blb_dichoticlistening_pa-da.mp3	pa	da	1	other
6.6.1	mac	2023-07-06	22:37:56	22:51:57	837200	60bf9da88006aeba20357735	4	1	DL_test	23	DL_test	13	stimuli_distractor_trianglediamonds.svg	stimuli_target_trianglesquares.svg	26	yes	ta	1	1026	6	6	antiphase_hc_ois.wav	3	6	2	noise_calib_stim_LEFT.wav	1	36	blb_dichoticlistening_ta-ta.mp3	ta	ta	0	left
6.6.1	mac	2023-07-06	22:37:56	22:51:57	837200	60bf9da88006aeba20357735	4	1	DL_test	23	DL_test	14	stimuli_distractor_trianglediamonds.svg	stimuli_target_trianglesquares.svg	26	yes	ga	1	931	6	6	antiphase_hc_ois.wav	3	6	2	noise_calib_stim_LEFT.wav	1	17	blb_dichoticlistening_ga-pa.mp3	ga	pa	1	left
6.6.1	mac	2023-07-06	22:37:56	22:51:57	837200	60bf9da88006aeba20357735	4	1	DL_test	23	DL_test	15	stimuli_distractor_trianglediamonds.svg	stimuli_target_trianglesquares.svg	26	yes	ga	0	828	6	6	antiphase_hc_ois.wav	3	6	2	noise_calib_stim_LEFT.wav	1	24	blb_dichoticlistening_ka-ta.mp3	ka	ta	1	other
6.6.1	mac	2023-07-06	22:37:56	22:51:57	837200	60bf9da88006aeba20357735	4	1	DL_test	23	DL_test	16	stimuli_distractor_trianglediamonds.svg	stimuli_target_trianglesquares.svg	26	yes	ga	1	786	6	6	antiphase_hc_ois.wav	3	6	2	noise_calib_stim_LEFT.wav	1	15	blb_dichoticlistening_ga-ga.mp3	ga	ga	0	left
6.6.1	mac	2023-07-06	22:37:56	22:51:57	837200	60bf9da88006aeba20357735	4	1	DL_test	23	DL_test	17	stimuli_distractor_trianglediamonds.svg	stimuli_target_trianglesquares.svg	26	yes	ta	1	2314	6	6	antiphase_hc_ois.wav	3	6	2	noise_calib_stim_LEFT.wav	1	6	blb_dichoticlistening_ba-ta.mp3	ba	ta	1	right
6.6.1	mac	2023-07-06	22:37:56	22:51:57	837200	60bf9da88006aeba20357735	4	1	DL_test	23	DL_test	18	stimuli_distractor_trianglediamonds.svg	stimuli_target_trianglesquares.svg	26	yes	ka	1	935	6	6	antiphase_hc_ois.wav	3	6	2	noise_calib_stim_LEFT.wav	1	28	blb_dichoticlistening_pa-ka.mp3	pa	ka	1	right
6.6.1	mac	2023-07-06	22:37:56	22:51:57	837200	60bf9da88006aeba20357735	4	1	DL_test	23	DL_test	19	stimuli_distractor_trianglediamonds.svg	stimuli_target_trianglesquares.svg	26	yes	ga	0	964	6	6	antiphase_hc_ois.wav	3	6	2	noise_calib_stim_LEFT.wav	1	10	blb_dichoticlistening_da-ka.mp3	da	ka	1	other
6.6.1	mac	2023-07-06	22:37:56	22:51:57	837200	60bf9da88006aeba20357735	4	1	DL_test	23	DL_test	20	stimuli_distractor_trianglediamonds.svg	stimuli_target_trianglesquares.svg	26	yes	ba	1	2702	6	6	antiphase_hc_ois.wav	3	6	2	noise_calib_stim_LEFT.wav	1	3	blb_dichoticlistening_ba-ga.mp3	ba	ga	1	left
6.6.1	mac	2023-07-06	22:37:56	22:51:57	837200	60bf9da88006aeba20357735	4	1	DL_test	23	DL_test	21	stimuli_distractor_trianglediamonds.svg	stimuli_target_trianglesquares.svg	26	yes	ga	1	1651	6	6	antiphase_hc_ois.wav	3	6	2	noise_calib_stim_LEFT.wav	1	27	blb_dichoticlistening_pa-ga.mp3	pa	ga	1	right
6.6.1	mac	2023-07-06	22:37:56	22:51:57	837200	60bf9da88006aeba20357735	4	1	DL_test	23	DL_test	22	stimuli_distractor_trianglediamonds.svg	stimuli_target_trianglesquares.svg	26	yes	ga	1	939	6	6	antiphase_hc_ois.wav	3	6	2	noise_calib_stim_LEFT.wav	1	14	blb_dichoticlistening_ga-da.mp3	ga	da	1	left
6.6.1	mac	2023-07-06	22:37:56	22:51:57	837200	60bf9da88006aeba20357735	4	1	DL_test	23	DL_test	23	stimuli_distractor_trianglediamonds.svg	stimuli_target_trianglesquares.svg	26	yes	ga	1	1097	6	6	antiphase_hc_ois.wav	3	6	2	noise_calib_stim_LEFT.wav	1	9	blb_dichoticlistening_da-ga.mp3	da	ga	1	right
6.6.1	mac	2023-07-06	22:37:56	22:51:57	837200	60bf9da88006aeba20357735	4	1	DL_test	23	DL_test	24	stimuli_distractor_trianglediamonds.svg	stimuli_target_trianglesquares.svg	26	yes	ka	1	863	6	6	antiphase_hc_ois.wav	3	6	2	noise_calib_stim_LEFT.wav	1	23	blb_dichoticlistening_ka-pa.mp3	ka	pa	1	left
6.6.1	mac	2023-07-06	22:37:56	22:51:57	837200	60bf9da88006aeba20357735	4	1	DL_test	23	DL_test	25	stimuli_distractor_trianglediamonds.svg	stimuli_target_trianglesquares.svg	26	yes	ga	1	885	6	6	antiphase_hc_ois.wav	3	6	2	noise_calib_stim_LEFT.wav	1	16	blb_dichoticlistening_ga-ka.mp3	ga	ka	1	left
6.6.1	mac	2023-07-06	22:37:56	22:51:57	837200	60bf9da88006aeba20357735	4	1	DL_test	23	DL_test	26	stimuli_distractor_trianglediamonds.svg	stimuli_target_trianglesquares.svg	26	yes	pa	1	1332	6	6	antiphase_hc_ois.wav	3	6	2	noise_calib_stim_LEFT.wav	1	29	blb_dichoticlistening_pa-pa.mp3	pa	pa	0	left
