build	computer.platform	date	time	timestamp	time_elapsed_ms	subject	group	session	blockcode	blocknum	trialcode	trialnum	stimulus_left	stimulus_right	stim_index	target_present	response	correct	latency	headphonecheck_countTestTrials	headphonecheck_index	headphonecheck_testSound	headphonecheck_correctResponse	stereocheck_countTestTrials	stereocheck_index	stereocheck_testSound	stereocheck_correctResponse	DL_index	DL_soundfile	DL_leftSound	DL_rightSound	DL_dualSound	DL_choice
6.6.1	win	2023-06-13	07:52:31	07:57:29	269139	63f7e5adcf31a0af5e7da12f	4	1	practice_z	5	practice_z	1	stimuli_distractor_trianglediamonds.svg	stimuli_target_squarediamonds.svg	11	yes	0	0	2000	0	0			0	0			1				0	
6.6.1	win	2023-06-13	07:52:31	07:57:29	269139	63f7e5adcf31a0af5e7da12f	4	1	practice_z	5	advance_on_keypress_ZEE	2	stimuli_distractor_trianglediamonds.svg	stimuli_target_squarediamonds.svg	11	yes	57	0	2101	0	0			0	0			1				0	
6.6.1	win	2023-06-13	07:52:31	07:57:34	273960	63f7e5adcf31a0af5e7da12f	4	1	practice_z	5	practice_z	3	stimuli_target_diamondsquares.svg	stimuli_distractor_trianglediamonds.svg	6	yes	44	1	1055	0	0			0	0			1				0	
6.6.1	win	2023-06-13	07:52:31	07:57:34	273960	63f7e5adcf31a0af5e7da12f	4	1	practice_z	5	advance_on_keypress_ZEE	4	stimuli_target_diamondsquares.svg	stimuli_distractor_trianglediamonds.svg	6	yes	57	0	532	0	0			0	0			1				0	
6.6.1	win	2023-06-13	07:52:31	07:57:37	276680	63f7e5adcf31a0af5e7da12f	4	1	practice_z	5	practice_z	5	stimuli_target_rectanglediamonds.svg	stimuli_distractor_diamondtriangles.svg	1	yes	44	1	503	0	0			0	0			1				0	
6.6.1	win	2023-06-13	07:52:31	07:57:37	276680	63f7e5adcf31a0af5e7da12f	4	1	practice_z	5	advance_on_keypress_ZEE	6	stimuli_target_rectanglediamonds.svg	stimuli_distractor_diamondtriangles.svg	1	yes	57	0	663	0	0			0	0			1				0	
6.6.1	win	2023-06-13	07:52:31	07:57:40	279775	63f7e5adcf31a0af5e7da12f	4	1	practice_z	5	practice_z	7	stimuli_distractor_diamondtriangles.svg	stimuli_target_rectangletriangles.svg	7	yes	44	1	779	0	0			0	0			1				0	
6.6.1	win	2023-06-13	07:52:31	07:57:40	279775	63f7e5adcf31a0af5e7da12f	4	1	practice_z	5	advance_on_keypress_ZEE	8	stimuli_distractor_diamondtriangles.svg	stimuli_target_rectangletriangles.svg	7	yes	57	0	691	0	0			0	0			1				0	
6.6.1	win	2023-06-13	07:52:31	07:57:43	283176	63f7e5adcf31a0af5e7da12f	4	1	practice_z	5	practice_z	9	stimuli_target_rectanglediamonds.svg	stimuli_distractor_trianglediamonds.svg	4	yes	44	1	1054	0	0			0	0			1				0	
6.6.1	win	2023-06-13	07:52:31	07:57:43	283176	63f7e5adcf31a0af5e7da12f	4	1	practice_z	5	advance_on_keypress_ZEE	10	stimuli_target_rectanglediamonds.svg	stimuli_distractor_trianglediamonds.svg	4	yes	57	0	579	0	0			0	0			1				0	
6.6.1	win	2023-06-13	07:52:31	07:57:47	286893	63f7e5adcf31a0af5e7da12f	4	1	practice_z	5	practice_z	11	stimuli_distractor_diamondtriangles.svg	stimuli_target_trianglerectangles.svg	9	yes	44	1	1474	0	0			0	0			1				0	
6.6.1	win	2023-06-13	07:52:31	07:57:47	286893	63f7e5adcf31a0af5e7da12f	4	1	practice_z	5	advance_on_keypress_ZEE	12	stimuli_distractor_diamondtriangles.svg	stimuli_target_trianglerectangles.svg	9	yes	57	0	534	0	0			0	0			1				0	
6.6.1	win	2023-06-13	07:52:31	07:57:50	290054	63f7e5adcf31a0af5e7da12f	4	1	practice_z	5	practice_z	13	stimuli_target_squarediamonds.svg	stimuli_distractor_diamondtriangles.svg	2	yes	44	1	951	0	0			0	0			1				0	
6.6.1	win	2023-06-13	07:52:31	07:57:50	290054	63f7e5adcf31a0af5e7da12f	4	1	practice_z	5	advance_on_keypress_ZEE	14	stimuli_target_squarediamonds.svg	stimuli_distractor_diamondtriangles.svg	2	yes	57	0	439	0	0			0	0			1				0	
6.6.1	win	2023-06-13	07:52:31	07:57:54	294165	63f7e5adcf31a0af5e7da12f	4	1	practice_z	5	practice_z	15	stimuli_distractor_diamondtriangles.svg	stimuli_distractor_trianglediamonds.svg	14	no	0	1	2000	0	0			0	0			1				0	
6.6.1	win	2023-06-13	07:52:31	07:57:54	294165	63f7e5adcf31a0af5e7da12f	4	1	practice_z	5	advance_on_keypress_ZEE	16	stimuli_distractor_diamondtriangles.svg	stimuli_distractor_trianglediamonds.svg	14	no	57	0	995	0	0			0	0			1				0	
6.6.1	win	2023-06-13	07:52:31	07:57:58	297894	63f7e5adcf31a0af5e7da12f	4	1	practice_z	5	practice_z	17	stimuli_distractor_trianglediamonds.svg	stimuli_distractor_diamondtriangles.svg	16	no	44	0	1082	0	0			0	0			1				0	
6.6.1	win	2023-06-13	07:52:31	07:57:58	297894	63f7e5adcf31a0af5e7da12f	4	1	practice_z	5	advance_on_keypress_ZEE	18	stimuli_distractor_trianglediamonds.svg	stimuli_distractor_diamondtriangles.svg	16	no	57	0	790	0	0			0	0			1				0	
6.6.1	win	2023-06-13	07:52:31	07:58:01	301129	63f7e5adcf31a0af5e7da12f	4	1	practice_z	5	practice_z	19	stimuli_distractor_trianglediamonds.svg	stimuli_target_rectanglediamonds.svg	10	yes	44	1	797	0	0			0	0			1				0	
6.6.1	win	2023-06-13	07:52:31	07:58:01	301129	63f7e5adcf31a0af5e7da12f	4	1	practice_z	5	advance_on_keypress_ZEE	20	stimuli_distractor_trianglediamonds.svg	stimuli_target_rectanglediamonds.svg	10	yes	57	0	564	0	0			0	0			1				0	
6.6.1	win	2023-06-13	07:52:31	07:58:06	305354	63f7e5adcf31a0af5e7da12f	4	1	practice_z	5	practice_z	21	stimuli_distractor_trianglediamonds.svg	stimuli_distractor_trianglediamonds.svg	15	no	0	1	2000	0	0			0	0			1				0	
6.6.1	win	2023-06-13	07:52:31	07:58:06	305354	63f7e5adcf31a0af5e7da12f	4	1	practice_z	5	advance_on_keypress_ZEE	22	stimuli_distractor_trianglediamonds.svg	stimuli_distractor_trianglediamonds.svg	15	no	57	0	475	0	0			0	0			1				0	
6.6.1	win	2023-06-13	07:52:31	07:58:09	308472	63f7e5adcf31a0af5e7da12f	4	1	practice_z	5	practice_z	23	stimuli_distractor_diamondtriangles.svg	stimuli_distractor_diamondtriangles.svg	13	no	44	0	999	0	0			0	0			1				0	
6.6.1	win	2023-06-13	07:52:31	07:58:09	308472	63f7e5adcf31a0af5e7da12f	4	1	practice_z	5	advance_on_keypress_ZEE	24	stimuli_distractor_diamondtriangles.svg	stimuli_distractor_diamondtriangles.svg	13	no	57	0	390	0	0			0	0			1				0	
6.6.1	win	2023-06-13	07:52:31	07:58:12	311568	63f7e5adcf31a0af5e7da12f	4	1	practice_z	5	practice_z	25	stimuli_distractor_diamondtriangles.svg	stimuli_target_diamondrectangles.svg	8	yes	44	1	1045	0	0			0	0			1				0	
6.6.1	win	2023-06-13	07:52:31	07:58:12	311568	63f7e5adcf31a0af5e7da12f	4	1	practice_z	5	advance_on_keypress_ZEE	26	stimuli_distractor_diamondtriangles.svg	stimuli_target_diamondrectangles.svg	8	yes	57	0	986	0	0			0	0			1				0	
6.6.1	win	2023-06-13	07:52:31	07:58:15	315200	63f7e5adcf31a0af5e7da12f	4	1	practice_z	5	practice_z	27	stimuli_target_squarediamonds.svg	stimuli_distractor_trianglediamonds.svg	5	yes	44	1	977	0	0			0	0			1				0	
6.6.1	win	2023-06-13	07:52:31	07:58:15	315200	63f7e5adcf31a0af5e7da12f	4	1	practice_z	5	advance_on_keypress_ZEE	28	stimuli_target_squarediamonds.svg	stimuli_distractor_trianglediamonds.svg	5	yes	57	0	681	0	0			0	0			1				0	
6.6.1	win	2023-06-13	07:52:31	07:58:20	319538	63f7e5adcf31a0af5e7da12f	4	1	practice_z	5	practice_z	29	stimuli_target_diamondsquares.svg	stimuli_distractor_diamondtriangles.svg	3	yes	0	0	2000	0	0			0	0			1				0	
6.6.1	win	2023-06-13	07:52:31	07:58:20	319538	63f7e5adcf31a0af5e7da12f	4	1	practice_z	5	advance_on_keypress_ZEE	30	stimuli_target_diamondsquares.svg	stimuli_distractor_diamondtriangles.svg	3	yes	57	0	459	0	0			0	0			1				0	
6.6.1	win	2023-06-13	07:52:31	07:58:22	322122	63f7e5adcf31a0af5e7da12f	4	1	practice_z	5	practice_z	31	stimuli_distractor_trianglediamonds.svg	stimuli_target_diamondrectangles.svg	12	yes	44	1	455	0	0			0	0			1				0	
6.6.1	win	2023-06-13	07:52:31	07:58:22	322122	63f7e5adcf31a0af5e7da12f	4	1	practice_z	5	advance_on_keypress_ZEE	32	stimuli_distractor_trianglediamonds.svg	stimuli_target_diamondrectangles.svg	12	yes	57	0	508	0	0			0	0			1				0	
6.6.1	win	2023-06-13	07:52:31	07:58:31	330903	63f7e5adcf31a0af5e7da12f	4	1	main_z	7	main_z	1	stimuli_distractor_trianglediamonds.svg	stimuli_distractor_diamondtriangles.svg	35	no	44	0	1180	0	0			0	0			1				0	
6.6.1	win	2023-06-13	07:52:31	07:58:31	330903	63f7e5adcf31a0af5e7da12f	4	1	main_z	7	advance_on_keypress_ZEE	2	stimuli_distractor_trianglediamonds.svg	stimuli_distractor_diamondtriangles.svg	35	no	57	0	1540	0	0			0	0			1				0	
6.6.1	win	2023-06-13	07:52:31	07:58:34	334150	63f7e5adcf31a0af5e7da12f	4	1	main_z	7	main_z	3	stimuli_distractor_diamondtriangles.svg	stimuli_distractor_trianglediamonds.svg	38	no	44	0	1045	0	0			0	0			1				0	
6.6.1	win	2023-06-13	07:52:31	07:58:34	334150	63f7e5adcf31a0af5e7da12f	4	1	main_z	7	advance_on_keypress_ZEE	4	stimuli_distractor_diamondtriangles.svg	stimuli_distractor_trianglediamonds.svg	38	no	57	0	1235	0	0			0	0			1				0	
6.6.1	win	2023-06-13	07:52:31	07:58:37	337181	63f7e5adcf31a0af5e7da12f	4	1	main_z	7	main_z	5	stimuli_target_squaretriangles.svg	stimuli_distractor_trianglediamonds.svg	3	yes	44	1	1152	0	0			0	0			1				0	
6.6.1	win	2023-06-13	07:52:31	07:58:37	337181	63f7e5adcf31a0af5e7da12f	4	1	main_z	7	advance_on_keypress_ZEE	6	stimuli_target_squaretriangles.svg	stimuli_distractor_trianglediamonds.svg	3	yes	57	0	681	0	0			0	0			1				0	
6.6.1	win	2023-06-13	07:52:31	07:58:40	339574	63f7e5adcf31a0af5e7da12f	4	1	main_z	7	main_z	7	stimuli_target_diamondsquares.svg	stimuli_distractor_diamondtriangles.svg	24	yes	44	1	1061	0	0			0	0			1				0	
6.6.1	win	2023-06-13	07:52:31	07:58:40	339574	63f7e5adcf31a0af5e7da12f	4	1	main_z	7	advance_on_keypress_ZEE	8	stimuli_target_diamondsquares.svg	stimuli_distractor_diamondtriangles.svg	24	yes	57	0	641	0	0			0	0			1				0	
6.6.1	win	2023-06-13	07:52:31	07:58:42	341896	63f7e5adcf31a0af5e7da12f	4	1	main_z	7	main_z	9	stimuli_target_rectanglediamonds.svg	stimuli_distractor_trianglediamonds.svg	2	yes	44	1	1022	0	0			0	0			1				0	
6.6.1	win	2023-06-13	07:52:31	07:58:42	341896	63f7e5adcf31a0af5e7da12f	4	1	main_z	7	advance_on_keypress_ZEE	10	stimuli_target_rectanglediamonds.svg	stimuli_distractor_trianglediamonds.svg	2	yes	57	0	613	0	0			0	0			1				0	
6.6.1	win	2023-06-13	07:52:31	07:58:45	345161	63f7e5adcf31a0af5e7da12f	4	1	main_z	7	main_z	11	stimuli_target_trianglerectangles.svg	stimuli_distractor_trianglediamonds.svg	17	yes	0	0	2000	0	0			0	0			1				0	
6.6.1	win	2023-06-13	07:52:31	07:58:45	345161	63f7e5adcf31a0af5e7da12f	4	1	main_z	7	advance_on_keypress_ZEE	12	stimuli_target_trianglerectangles.svg	stimuli_distractor_trianglediamonds.svg	17	yes	57	0	530	0	0			0	0			1				0	
6.6.1	win	2023-06-13	07:52:31	07:58:48	347414	63f7e5adcf31a0af5e7da12f	4	1	main_z	7	main_z	13	stimuli_target_rectangletriangles.svg	stimuli_distractor_diamondtriangles.svg	5	yes	44	1	1075	0	0			0	0			1				0	
6.6.1	win	2023-06-13	07:52:31	07:58:48	347414	63f7e5adcf31a0af5e7da12f	4	1	main_z	7	advance_on_keypress_ZEE	14	stimuli_target_rectangletriangles.svg	stimuli_distractor_diamondtriangles.svg	5	yes	57	0	848	0	0			0	0			1				0	
6.6.1	win	2023-06-13	07:52:31	07:58:51	350906	63f7e5adcf31a0af5e7da12f	4	1	main_z	7	main_z	15	stimuli_distractor_diamondtriangles.svg	stimuli_distractor_trianglediamonds.svg	37	no	0	1	2000	0	0			0	0			1				0	
6.6.1	win	2023-06-13	07:52:31	07:58:51	350906	63f7e5adcf31a0af5e7da12f	4	1	main_z	7	advance_on_keypress_ZEE	16	stimuli_distractor_diamondtriangles.svg	stimuli_distractor_trianglediamonds.svg	37	no	57	0	596	0	0			0	0			1				0	
6.6.1	win	2023-06-13	07:52:31	07:58:53	353218	63f7e5adcf31a0af5e7da12f	4	1	main_z	7	main_z	17	stimuli_distractor_diamondtriangles.svg	stimuli_target_rectanglediamonds.svg	14	yes	44	1	1050	0	0			0	0			1				0	
6.6.1	win	2023-06-13	07:52:31	07:58:53	353218	63f7e5adcf31a0af5e7da12f	4	1	main_z	7	advance_on_keypress_ZEE	18	stimuli_distractor_diamondtriangles.svg	stimuli_target_rectanglediamonds.svg	14	yes	57	0	440	0	0			0	0			1				0	
6.6.1	win	2023-06-13	07:52:31	07:58:57	356290	63f7e5adcf31a0af5e7da12f	4	1	main_z	7	main_z	19	stimuli_target_trianglesquares.svg	stimuli_distractor_diamondtriangles.svg	22	yes	0	0	2000	0	0			0	0			1				0	
6.6.1	win	2023-06-13	07:52:31	07:58:57	356290	63f7e5adcf31a0af5e7da12f	4	1	main_z	7	advance_on_keypress_ZEE	20	stimuli_target_trianglesquares.svg	stimuli_distractor_diamondtriangles.svg	22	yes	57	0	580	0	0			0	0			1				0	
6.6.1	win	2023-06-13	07:52:31	07:58:59	358574	63f7e5adcf31a0af5e7da12f	4	1	main_z	7	main_z	21	stimuli_target_diamondrectangles.svg	stimuli_distractor_diamondtriangles.svg	23	yes	44	1	1052	0	0			0	0			1				0	
6.6.1	win	2023-06-13	07:52:31	07:58:59	358574	63f7e5adcf31a0af5e7da12f	4	1	main_z	7	advance_on_keypress_ZEE	22	stimuli_target_diamondrectangles.svg	stimuli_distractor_diamondtriangles.svg	23	yes	57	0	1057	0	0			0	0			1				0	
6.6.1	win	2023-06-13	07:52:31	07:59:01	361239	63f7e5adcf31a0af5e7da12f	4	1	main_z	7	main_z	23	stimuli_distractor_trianglediamonds.svg	stimuli_target_squaretriangles.svg	11	yes	44	1	966	0	0			0	0			1				0	
6.6.1	win	2023-06-13	07:52:31	07:59:01	361239	63f7e5adcf31a0af5e7da12f	4	1	main_z	7	advance_on_keypress_ZEE	24	stimuli_distractor_trianglediamonds.svg	stimuli_target_squaretriangles.svg	11	yes	57	0	326	0	0			0	0			1				0	
6.6.1	win	2023-06-13	07:52:31	07:59:03	362945	63f7e5adcf31a0af5e7da12f	4	1	main_z	7	main_z	25	stimuli_target_squarediamonds.svg	stimuli_distractor_trianglediamonds.svg	4	yes	44	1	728	0	0			0	0			1				0	
6.6.1	win	2023-06-13	07:52:31	07:59:03	362945	63f7e5adcf31a0af5e7da12f	4	1	main_z	7	advance_on_keypress_ZEE	26	stimuli_target_squarediamonds.svg	stimuli_distractor_trianglediamonds.svg	4	yes	57	0	362	0	0			0	0			1				0	
6.6.1	win	2023-06-13	07:52:31	07:59:06	365957	63f7e5adcf31a0af5e7da12f	4	1	main_z	7	main_z	27	stimuli_distractor_trianglediamonds.svg	stimuli_distractor_trianglediamonds.svg	33	no	0	1	2000	0	0			0	0			1				0	
6.6.1	win	2023-06-13	07:52:31	07:59:06	365957	63f7e5adcf31a0af5e7da12f	4	1	main_z	7	advance_on_keypress_ZEE	28	stimuli_distractor_trianglediamonds.svg	stimuli_distractor_trianglediamonds.svg	33	no	57	0	561	0	0			0	0			1				0	
6.6.1	win	2023-06-13	07:52:31	07:59:09	369157	63f7e5adcf31a0af5e7da12f	4	1	main_z	7	main_z	29	stimuli_distractor_trianglediamonds.svg	stimuli_distractor_diamondtriangles.svg	36	no	0	1	2000	0	0			0	0			1				0	
6.6.1	win	2023-06-13	07:52:31	07:59:09	369157	63f7e5adcf31a0af5e7da12f	4	1	main_z	7	advance_on_keypress_ZEE	30	stimuli_distractor_trianglediamonds.svg	stimuli_distractor_diamondtriangles.svg	36	no	57	0	641	0	0			0	0			1				0	
6.6.1	win	2023-06-13	07:52:31	07:59:12	371775	63f7e5adcf31a0af5e7da12f	4	1	main_z	7	main_z	31	stimuli_target_trianglerectangles.svg	stimuli_distractor_diamondtriangles.svg	21	yes	44	1	1318	0	0			0	0			1				0	
6.6.1	win	2023-06-13	07:52:31	07:59:12	371775	63f7e5adcf31a0af5e7da12f	4	1	main_z	7	advance_on_keypress_ZEE	32	stimuli_target_trianglerectangles.svg	stimuli_distractor_diamondtriangles.svg	21	yes	57	0	1209	0	0			0	0			1				0	
6.6.1	win	2023-06-13	07:52:31	07:59:16	375374	63f7e5adcf31a0af5e7da12f	4	1	main_z	7	main_z	33	stimuli_target_diamondsquares.svg	stimuli_distractor_trianglediamonds.svg	20	yes	44	1	1735	0	0			0	0			1				0	
6.6.1	win	2023-06-13	07:52:31	07:59:16	375374	63f7e5adcf31a0af5e7da12f	4	1	main_z	7	advance_on_keypress_ZEE	34	stimuli_target_diamondsquares.svg	stimuli_distractor_trianglediamonds.svg	20	yes	57	0	568	0	0			0	0			1				0	
6.6.1	win	2023-06-13	07:52:31	07:59:19	378591	63f7e5adcf31a0af5e7da12f	4	1	main_z	7	main_z	35	stimuli_distractor_trianglediamonds.svg	stimuli_target_rectanglediamonds.svg	10	yes	0	0	2000	0	0			0	0			1				0	
6.6.1	win	2023-06-13	07:52:31	07:59:19	378591	63f7e5adcf31a0af5e7da12f	4	1	main_z	7	advance_on_keypress_ZEE	36	stimuli_distractor_trianglediamonds.svg	stimuli_target_rectanglediamonds.svg	10	yes	57	0	496	0	0			0	0			1				0	
6.6.1	win	2023-06-13	07:52:31	07:59:21	380763	63f7e5adcf31a0af5e7da12f	4	1	main_z	7	main_z	37	stimuli_target_squarediamonds.svg	stimuli_distractor_diamondtriangles.svg	8	yes	44	1	1018	0	0			0	0			1				0	
6.6.1	win	2023-06-13	07:52:31	07:59:21	380763	63f7e5adcf31a0af5e7da12f	4	1	main_z	7	advance_on_keypress_ZEE	38	stimuli_target_squarediamonds.svg	stimuli_distractor_diamondtriangles.svg	8	yes	57	0	433	0	0			0	0			1				0	
6.6.1	win	2023-06-13	07:52:31	07:59:24	383841	63f7e5adcf31a0af5e7da12f	4	1	main_z	7	main_z	39	stimuli_distractor_diamondtriangles.svg	stimuli_distractor_diamondtriangles.svg	40	no	0	1	2000	0	0			0	0			1				0	
6.6.1	win	2023-06-13	07:52:31	07:59:24	383841	63f7e5adcf31a0af5e7da12f	4	1	main_z	7	advance_on_keypress_ZEE	40	stimuli_distractor_diamondtriangles.svg	stimuli_distractor_diamondtriangles.svg	40	no	57	0	462	0	0			0	0			1				0	
6.6.1	win	2023-06-13	07:52:31	07:59:26	385803	63f7e5adcf31a0af5e7da12f	4	1	main_z	7	main_z	41	stimuli_distractor_diamondtriangles.svg	stimuli_target_squarediamonds.svg	16	yes	44	1	834	0	0			0	0			1				0	
6.6.1	win	2023-06-13	07:52:31	07:59:26	385803	63f7e5adcf31a0af5e7da12f	4	1	main_z	7	advance_on_keypress_ZEE	42	stimuli_distractor_diamondtriangles.svg	stimuli_target_squarediamonds.svg	16	yes	57	0	423	0	0			0	0			1				0	
6.6.1	win	2023-06-13	07:52:31	07:59:29	388310	63f7e5adcf31a0af5e7da12f	4	1	main_z	7	main_z	43	stimuli_target_squaretriangles.svg	stimuli_distractor_diamondtriangles.svg	7	yes	44	1	1420	0	0			0	0			1				0	
6.6.1	win	2023-06-13	07:52:31	07:59:29	388310	63f7e5adcf31a0af5e7da12f	4	1	main_z	7	advance_on_keypress_ZEE	44	stimuli_target_squaretriangles.svg	stimuli_distractor_diamondtriangles.svg	7	yes	57	0	459	0	0			0	0			1				0	
6.6.1	win	2023-06-13	07:52:31	07:59:31	390518	63f7e5adcf31a0af5e7da12f	4	1	main_z	7	main_z	45	stimuli_distractor_trianglediamonds.svg	stimuli_target_squarediamonds.svg	12	yes	44	1	1095	0	0			0	0			1				0	
6.6.1	win	2023-06-13	07:52:31	07:59:31	390518	63f7e5adcf31a0af5e7da12f	4	1	main_z	7	advance_on_keypress_ZEE	46	stimuli_distractor_trianglediamonds.svg	stimuli_target_squarediamonds.svg	12	yes	57	0	387	0	0			0	0			1				0	
6.6.1	win	2023-06-13	07:52:31	07:59:33	392322	63f7e5adcf31a0af5e7da12f	4	1	main_z	7	main_z	47	stimuli_distractor_diamondtriangles.svg	stimuli_target_squaretriangles.svg	15	yes	44	1	778	0	0			0	0			1				0	
6.6.1	win	2023-06-13	07:52:31	07:59:33	392322	63f7e5adcf31a0af5e7da12f	4	1	main_z	7	advance_on_keypress_ZEE	48	stimuli_distractor_diamondtriangles.svg	stimuli_target_squaretriangles.svg	15	yes	57	0	410	0	0			0	0			1				0	
6.6.1	win	2023-06-13	07:52:31	07:59:34	394241	63f7e5adcf31a0af5e7da12f	4	1	main_z	7	main_z	49	stimuli_distractor_trianglediamonds.svg	stimuli_target_rectangletriangles.svg	9	yes	44	1	839	0	0			0	0			1				0	
6.6.1	win	2023-06-13	07:52:31	07:59:34	394241	63f7e5adcf31a0af5e7da12f	4	1	main_z	7	advance_on_keypress_ZEE	50	stimuli_distractor_trianglediamonds.svg	stimuli_target_rectangletriangles.svg	9	yes	57	0	325	0	0			0	0			1				0	
6.6.1	win	2023-06-13	07:52:31	07:59:37	397228	63f7e5adcf31a0af5e7da12f	4	1	main_z	7	main_z	51	stimuli_distractor_diamondtriangles.svg	stimuli_target_diamondsquares.svg	32	yes	0	0	2000	0	0			0	0			1				0	
6.6.1	win	2023-06-13	07:52:31	07:59:37	397228	63f7e5adcf31a0af5e7da12f	4	1	main_z	7	advance_on_keypress_ZEE	52	stimuli_distractor_diamondtriangles.svg	stimuli_target_diamondsquares.svg	32	yes	57	0	398	0	0			0	0			1				0	
6.6.1	win	2023-06-13	07:52:31	07:59:41	400275	63f7e5adcf31a0af5e7da12f	4	1	main_z	7	main_z	53	stimuli_distractor_diamondtriangles.svg	stimuli_target_trianglesquares.svg	30	yes	0	0	2000	0	0			0	0			1				0	
6.6.1	win	2023-06-13	07:52:31	07:59:41	400275	63f7e5adcf31a0af5e7da12f	4	1	main_z	7	advance_on_keypress_ZEE	54	stimuli_distractor_diamondtriangles.svg	stimuli_target_trianglesquares.svg	30	yes	57	0	716	0	0			0	0			1				0	
6.6.1	win	2023-06-13	07:52:31	07:59:44	403647	63f7e5adcf31a0af5e7da12f	4	1	main_z	7	main_z	55	stimuli_distractor_trianglediamonds.svg	stimuli_distractor_trianglediamonds.svg	34	no	0	1	2000	0	0			0	0			1				0	
6.6.1	win	2023-06-13	07:52:31	07:59:44	403647	63f7e5adcf31a0af5e7da12f	4	1	main_z	7	advance_on_keypress_ZEE	56	stimuli_distractor_trianglediamonds.svg	stimuli_distractor_trianglediamonds.svg	34	no	57	0	365	0	0			0	0			1				0	
6.6.1	win	2023-06-13	07:52:31	07:59:45	405179	63f7e5adcf31a0af5e7da12f	4	1	main_z	7	main_z	57	stimuli_target_rectanglediamonds.svg	stimuli_distractor_diamondtriangles.svg	6	yes	44	1	517	0	0			0	0			1				0	
6.6.1	win	2023-06-13	07:52:31	07:59:45	405179	63f7e5adcf31a0af5e7da12f	4	1	main_z	7	advance_on_keypress_ZEE	58	stimuli_target_rectanglediamonds.svg	stimuli_distractor_diamondtriangles.svg	6	yes	57	0	656	0	0			0	0			1				0	
6.6.1	win	2023-06-13	07:52:31	07:59:48	407717	63f7e5adcf31a0af5e7da12f	4	1	main_z	7	main_z	59	stimuli_distractor_trianglediamonds.svg	stimuli_target_trianglesquares.svg	26	yes	44	1	1236	0	0			0	0			1				0	
6.6.1	win	2023-06-13	07:52:31	07:59:48	407717	63f7e5adcf31a0af5e7da12f	4	1	main_z	7	advance_on_keypress_ZEE	60	stimuli_distractor_trianglediamonds.svg	stimuli_target_trianglesquares.svg	26	yes	57	0	426	0	0			0	0			1				0	
6.6.1	win	2023-06-13	07:52:31	07:59:50	409729	63f7e5adcf31a0af5e7da12f	4	1	main_z	7	main_z	61	stimuli_target_rectangletriangles.svg	stimuli_distractor_trianglediamonds.svg	1	yes	44	1	952	0	0			0	0			1				0	
6.6.1	win	2023-06-13	07:52:31	07:59:50	409729	63f7e5adcf31a0af5e7da12f	4	1	main_z	7	advance_on_keypress_ZEE	62	stimuli_target_rectangletriangles.svg	stimuli_distractor_trianglediamonds.svg	1	yes	57	0	272	0	0			0	0			1				0	
6.6.1	win	2023-06-13	07:52:31	07:59:52	411649	63f7e5adcf31a0af5e7da12f	4	1	main_z	7	main_z	63	stimuli_distractor_diamondtriangles.svg	stimuli_target_rectangletriangles.svg	13	yes	44	1	981	0	0			0	0			1				0	
6.6.1	win	2023-06-13	07:52:31	07:59:52	411649	63f7e5adcf31a0af5e7da12f	4	1	main_z	7	advance_on_keypress_ZEE	64	stimuli_distractor_diamondtriangles.svg	stimuli_target_rectangletriangles.svg	13	yes	57	0	245	0	0			0	0			1				0	
6.6.1	win	2023-06-13	07:52:31	07:59:54	413494	63f7e5adcf31a0af5e7da12f	4	1	main_z	7	main_z	65	stimuli_distractor_diamondtriangles.svg	stimuli_target_trianglerectangles.svg	29	yes	44	1	953	0	0			0	0			1				0	
6.6.1	win	2023-06-13	07:52:31	07:59:54	413494	63f7e5adcf31a0af5e7da12f	4	1	main_z	7	advance_on_keypress_ZEE	66	stimuli_distractor_diamondtriangles.svg	stimuli_target_trianglerectangles.svg	29	yes	57	0	418	0	0			0	0			1				0	
6.6.1	win	2023-06-13	07:52:31	07:59:57	416587	63f7e5adcf31a0af5e7da12f	4	1	main_z	7	main_z	67	stimuli_distractor_trianglediamonds.svg	stimuli_target_trianglerectangles.svg	25	yes	0	0	2000	0	0			0	0			1				0	
6.6.1	win	2023-06-13	07:52:31	07:59:57	416587	63f7e5adcf31a0af5e7da12f	4	1	main_z	7	advance_on_keypress_ZEE	68	stimuli_distractor_trianglediamonds.svg	stimuli_target_trianglerectangles.svg	25	yes	57	0	383	0	0			0	0			1				0	
6.6.1	win	2023-06-13	07:52:31	08:00:00	419635	63f7e5adcf31a0af5e7da12f	4	1	main_z	7	main_z	69	stimuli_distractor_diamondtriangles.svg	stimuli_distractor_diamondtriangles.svg	39	no	0	1	2000	0	0			0	0			1				0	
6.6.1	win	2023-06-13	07:52:31	08:00:00	419635	63f7e5adcf31a0af5e7da12f	4	1	main_z	7	advance_on_keypress_ZEE	70	stimuli_distractor_diamondtriangles.svg	stimuli_distractor_diamondtriangles.svg	39	no	57	0	325	0	0			0	0			1				0	
6.6.1	win	2023-06-13	07:52:31	08:00:03	422622	63f7e5adcf31a0af5e7da12f	4	1	main_z	7	main_z	71	stimuli_target_diamondrectangles.svg	stimuli_distractor_trianglediamonds.svg	19	yes	0	0	2000	0	0			0	0			1				0	
6.6.1	win	2023-06-13	07:52:31	08:00:03	422622	63f7e5adcf31a0af5e7da12f	4	1	main_z	7	advance_on_keypress_ZEE	72	stimuli_target_diamondrectangles.svg	stimuli_distractor_trianglediamonds.svg	19	yes	57	0	357	0	0			0	0			1				0	
6.6.1	win	2023-06-13	07:52:31	08:00:05	424680	63f7e5adcf31a0af5e7da12f	4	1	main_z	7	main_z	73	stimuli_target_trianglesquares.svg	stimuli_distractor_trianglediamonds.svg	18	yes	44	1	1037	0	0			0	0			1				0	
6.6.1	win	2023-06-13	07:52:31	08:00:05	424680	63f7e5adcf31a0af5e7da12f	4	1	main_z	7	advance_on_keypress_ZEE	74	stimuli_target_trianglesquares.svg	stimuli_distractor_trianglediamonds.svg	18	yes	57	0	467	0	0			0	0			1				0	
6.6.1	win	2023-06-13	07:52:31	08:00:08	427803	63f7e5adcf31a0af5e7da12f	4	1	main_z	7	main_z	75	stimuli_distractor_trianglediamonds.svg	stimuli_target_diamondrectangles.svg	27	yes	0	0	2000	0	0			0	0			1				0	
6.6.1	win	2023-06-13	07:52:31	08:00:08	427803	63f7e5adcf31a0af5e7da12f	4	1	main_z	7	advance_on_keypress_ZEE	76	stimuli_distractor_trianglediamonds.svg	stimuli_target_diamondrectangles.svg	27	yes	57	0	334	0	0			0	0			1				0	
6.6.1	win	2023-06-13	07:52:31	08:00:11	430780	63f7e5adcf31a0af5e7da12f	4	1	main_z	7	main_z	77	stimuli_distractor_diamondtriangles.svg	stimuli_target_diamondrectangles.svg	31	yes	0	0	2000	0	0			0	0			1				0	
6.6.1	win	2023-06-13	07:52:31	08:00:11	430780	63f7e5adcf31a0af5e7da12f	4	1	main_z	7	advance_on_keypress_ZEE	78	stimuli_distractor_diamondtriangles.svg	stimuli_target_diamondrectangles.svg	31	yes	57	0	334	0	0			0	0			1				0	
6.6.1	win	2023-06-13	07:52:31	08:00:14	433766	63f7e5adcf31a0af5e7da12f	4	1	main_z	7	main_z	79	stimuli_distractor_trianglediamonds.svg	stimuli_target_diamondsquares.svg	28	yes	0	0	2000	0	0			0	0			1				0	
6.6.1	win	2023-06-13	07:52:31	08:00:14	433766	63f7e5adcf31a0af5e7da12f	4	1	main_z	7	advance_on_keypress_ZEE	80	stimuli_distractor_trianglediamonds.svg	stimuli_target_diamondsquares.svg	28	yes	57	0	974	0	0			0	0			1				0	
6.6.1	win	2023-06-13	07:52:31	08:00:18	437392	63f7e5adcf31a0af5e7da12f	4	1	main_z	7	main_z	81	stimuli_distractor_diamondtriangles.svg	stimuli_target_diamondrectangles.svg	31	yes	0	0	2000	0	0			0	0			1				0	
6.6.1	win	2023-06-13	07:52:31	08:00:18	437392	63f7e5adcf31a0af5e7da12f	4	1	main_z	7	advance_on_keypress_ZEE	82	stimuli_distractor_diamondtriangles.svg	stimuli_target_diamondrectangles.svg	31	yes	57	0	309	0	0			0	0			1				0	
6.6.1	win	2023-06-13	07:52:31	08:00:20	439260	63f7e5adcf31a0af5e7da12f	4	1	main_z	7	main_z	83	stimuli_target_squarediamonds.svg	stimuli_distractor_trianglediamonds.svg	4	yes	44	1	887	0	0			0	0			1				0	
6.6.1	win	2023-06-13	07:52:31	08:00:20	439260	63f7e5adcf31a0af5e7da12f	4	1	main_z	7	advance_on_keypress_ZEE	84	stimuli_target_squarediamonds.svg	stimuli_distractor_trianglediamonds.svg	4	yes	57	0	450	0	0			0	0			1				0	
6.6.1	win	2023-06-13	07:52:31	08:00:22	441674	63f7e5adcf31a0af5e7da12f	4	1	main_z	7	main_z	85	stimuli_distractor_diamondtriangles.svg	stimuli_target_diamondsquares.svg	32	yes	44	1	1294	0	0			0	0			1				0	
6.6.1	win	2023-06-13	07:52:31	08:00:22	441674	63f7e5adcf31a0af5e7da12f	4	1	main_z	7	advance_on_keypress_ZEE	86	stimuli_distractor_diamondtriangles.svg	stimuli_target_diamondsquares.svg	32	yes	57	0	354	0	0			0	0			1				0	
6.6.1	win	2023-06-13	07:52:31	08:00:24	443654	63f7e5adcf31a0af5e7da12f	4	1	main_z	7	main_z	87	stimuli_target_diamondrectangles.svg	stimuli_distractor_trianglediamonds.svg	19	yes	44	1	978	0	0			0	0			1				0	
6.6.1	win	2023-06-13	07:52:31	08:00:24	443654	63f7e5adcf31a0af5e7da12f	4	1	main_z	7	advance_on_keypress_ZEE	88	stimuli_target_diamondrectangles.svg	stimuli_distractor_trianglediamonds.svg	19	yes	57	0	315	0	0			0	0			1				0	
6.6.1	win	2023-06-13	07:52:31	08:00:26	445494	63f7e5adcf31a0af5e7da12f	4	1	main_z	7	main_z	89	stimuli_distractor_diamondtriangles.svg	stimuli_target_rectangletriangles.svg	13	yes	44	1	870	0	0			0	0			1				0	
6.6.1	win	2023-06-13	07:52:31	08:00:26	445494	63f7e5adcf31a0af5e7da12f	4	1	main_z	7	advance_on_keypress_ZEE	90	stimuli_distractor_diamondtriangles.svg	stimuli_target_rectangletriangles.svg	13	yes	57	0	297	0	0			0	0			1				0	
6.6.1	win	2023-06-13	07:52:31	08:00:28	447784	63f7e5adcf31a0af5e7da12f	4	1	main_z	7	main_z	91	stimuli_distractor_trianglediamonds.svg	stimuli_distractor_diamondtriangles.svg	35	no	44	0	1339	0	0			0	0			1				0	
6.6.1	win	2023-06-13	07:52:31	08:00:28	447784	63f7e5adcf31a0af5e7da12f	4	1	main_z	7	advance_on_keypress_ZEE	92	stimuli_distractor_trianglediamonds.svg	stimuli_distractor_diamondtriangles.svg	35	no	57	0	862	0	0			0	0			1				0	
6.6.1	win	2023-06-13	07:52:31	08:00:31	450470	63f7e5adcf31a0af5e7da12f	4	1	main_z	7	main_z	93	stimuli_target_trianglerectangles.svg	stimuli_distractor_trianglediamonds.svg	17	yes	44	1	1177	0	0			0	0			1				0	
6.6.1	win	2023-06-13	07:52:31	08:00:31	450470	63f7e5adcf31a0af5e7da12f	4	1	main_z	7	advance_on_keypress_ZEE	94	stimuli_target_trianglerectangles.svg	stimuli_distractor_trianglediamonds.svg	17	yes	57	0	610	0	0			0	0			1				0	
6.6.1	win	2023-06-13	07:52:31	08:00:34	453374	63f7e5adcf31a0af5e7da12f	4	1	main_z	7	main_z	95	stimuli_distractor_trianglediamonds.svg	stimuli_target_rectangletriangles.svg	9	yes	44	1	1665	0	0			0	0			1				0	
6.6.1	win	2023-06-13	07:52:31	08:00:34	453374	63f7e5adcf31a0af5e7da12f	4	1	main_z	7	advance_on_keypress_ZEE	96	stimuli_distractor_trianglediamonds.svg	stimuli_target_rectangletriangles.svg	9	yes	57	0	453	0	0			0	0			1				0	
6.6.1	win	2023-06-13	07:52:31	08:00:36	455887	63f7e5adcf31a0af5e7da12f	4	1	main_z	7	main_z	97	stimuli_distractor_trianglediamonds.svg	stimuli_target_diamondsquares.svg	28	yes	44	1	1411	0	0			0	0			1				0	
6.6.1	win	2023-06-13	07:52:31	08:00:36	455887	63f7e5adcf31a0af5e7da12f	4	1	main_z	7	advance_on_keypress_ZEE	98	stimuli_distractor_trianglediamonds.svg	stimuli_target_diamondsquares.svg	28	yes	57	0	361	0	0			0	0			1				0	
6.6.1	win	2023-06-13	07:52:31	08:00:39	458322	63f7e5adcf31a0af5e7da12f	4	1	main_z	7	main_z	99	stimuli_target_diamondsquares.svg	stimuli_distractor_diamondtriangles.svg	24	yes	44	1	1435	0	0			0	0			1				0	
6.6.1	win	2023-06-13	07:52:31	08:00:39	458322	63f7e5adcf31a0af5e7da12f	4	1	main_z	7	advance_on_keypress_ZEE	100	stimuli_target_diamondsquares.svg	stimuli_distractor_diamondtriangles.svg	24	yes	57	0	191	0	0			0	0			1				0	
6.6.1	win	2023-06-13	07:52:31	08:00:40	460210	63f7e5adcf31a0af5e7da12f	4	1	main_z	7	main_z	101	stimuli_distractor_trianglediamonds.svg	stimuli_target_trianglesquares.svg	26	yes	44	1	1038	0	0			0	0			1				0	
6.6.1	win	2023-06-13	07:52:31	08:00:40	460210	63f7e5adcf31a0af5e7da12f	4	1	main_z	7	advance_on_keypress_ZEE	102	stimuli_distractor_trianglediamonds.svg	stimuli_target_trianglesquares.svg	26	yes	57	0	204	0	0			0	0			1				0	
6.6.1	win	2023-06-13	07:52:31	08:00:43	463088	63f7e5adcf31a0af5e7da12f	4	1	main_z	7	main_z	103	stimuli_distractor_trianglediamonds.svg	stimuli_distractor_trianglediamonds.svg	33	no	0	1	2000	0	0			0	0			1				0	
6.6.1	win	2023-06-13	07:52:31	08:00:43	463088	63f7e5adcf31a0af5e7da12f	4	1	main_z	7	advance_on_keypress_ZEE	104	stimuli_distractor_trianglediamonds.svg	stimuli_distractor_trianglediamonds.svg	33	no	57	0	481	0	0			0	0			1				0	
6.6.1	win	2023-06-13	07:52:31	08:00:45	464854	63f7e5adcf31a0af5e7da12f	4	1	main_z	7	main_z	105	stimuli_target_rectanglediamonds.svg	stimuli_distractor_trianglediamonds.svg	2	yes	44	1	644	0	0			0	0			1				0	
6.6.1	win	2023-06-13	07:52:31	08:00:45	464854	63f7e5adcf31a0af5e7da12f	4	1	main_z	7	advance_on_keypress_ZEE	106	stimuli_target_rectanglediamonds.svg	stimuli_distractor_trianglediamonds.svg	2	yes	57	0	394	0	0			0	0			1				0	
6.6.1	win	2023-06-13	07:52:31	08:00:47	466786	63f7e5adcf31a0af5e7da12f	4	1	main_z	7	main_z	107	stimuli_target_diamondrectangles.svg	stimuli_distractor_diamondtriangles.svg	23	yes	44	1	898	0	0			0	0			1				0	
6.6.1	win	2023-06-13	07:52:31	08:00:47	466786	63f7e5adcf31a0af5e7da12f	4	1	main_z	7	advance_on_keypress_ZEE	108	stimuli_target_diamondrectangles.svg	stimuli_distractor_diamondtriangles.svg	23	yes	57	0	269	0	0			0	0			1				0	
6.6.1	win	2023-06-13	07:52:31	08:00:49	468782	63f7e5adcf31a0af5e7da12f	4	1	main_z	7	main_z	109	stimuli_target_trianglesquares.svg	stimuli_distractor_trianglediamonds.svg	18	yes	44	1	1089	0	0			0	0			1				0	
6.6.1	win	2023-06-13	07:52:31	08:00:49	468782	63f7e5adcf31a0af5e7da12f	4	1	main_z	7	advance_on_keypress_ZEE	110	stimuli_target_trianglesquares.svg	stimuli_distractor_trianglediamonds.svg	18	yes	57	0	165	0	0			0	0			1				0	
6.6.1	win	2023-06-13	07:52:31	08:00:52	471593	63f7e5adcf31a0af5e7da12f	4	1	main_z	7	main_z	111	stimuli_distractor_diamondtriangles.svg	stimuli_distractor_trianglediamonds.svg	38	no	0	1	2000	0	0			0	0			1				0	
6.6.1	win	2023-06-13	07:52:31	08:00:52	471593	63f7e5adcf31a0af5e7da12f	4	1	main_z	7	advance_on_keypress_ZEE	112	stimuli_distractor_diamondtriangles.svg	stimuli_distractor_trianglediamonds.svg	38	no	57	0	516	0	0			0	0			1				0	
6.6.1	win	2023-06-13	07:52:31	08:00:55	474569	63f7e5adcf31a0af5e7da12f	4	1	main_z	7	main_z	113	stimuli_distractor_diamondtriangles.svg	stimuli_target_trianglesquares.svg	30	yes	44	1	1806	0	0			0	0			1				0	
6.6.1	win	2023-06-13	07:52:31	08:00:55	474569	63f7e5adcf31a0af5e7da12f	4	1	main_z	7	advance_on_keypress_ZEE	114	stimuli_distractor_diamondtriangles.svg	stimuli_target_trianglesquares.svg	30	yes	57	0	293	0	0			0	0			1				0	
6.6.1	win	2023-06-13	07:52:31	08:00:56	476194	63f7e5adcf31a0af5e7da12f	4	1	main_z	7	main_z	115	stimuli_target_squaretriangles.svg	stimuli_distractor_trianglediamonds.svg	3	yes	44	1	680	0	0			0	0			1				0	
6.6.1	win	2023-06-13	07:52:31	08:00:56	476194	63f7e5adcf31a0af5e7da12f	4	1	main_z	7	advance_on_keypress_ZEE	116	stimuli_target_squaretriangles.svg	stimuli_distractor_trianglediamonds.svg	3	yes	57	0	140	0	0			0	0			1				0	
6.6.1	win	2023-06-13	07:52:31	08:00:58	477431	63f7e5adcf31a0af5e7da12f	4	1	main_z	7	main_z	117	stimuli_distractor_diamondtriangles.svg	stimuli_target_squarediamonds.svg	16	yes	44	1	429	0	0			0	0			1				0	
6.6.1	win	2023-06-13	07:52:31	08:00:58	477431	63f7e5adcf31a0af5e7da12f	4	1	main_z	7	advance_on_keypress_ZEE	118	stimuli_distractor_diamondtriangles.svg	stimuli_target_squarediamonds.svg	16	yes	57	0	75	0	0			0	0			1				0	
6.6.1	win	2023-06-13	07:52:31	08:01:00	480160	63f7e5adcf31a0af5e7da12f	4	1	main_z	7	main_z	119	stimuli_distractor_diamondtriangles.svg	stimuli_distractor_diamondtriangles.svg	39	no	0	1	2000	0	0			0	0			1				0	
6.6.1	win	2023-06-13	07:52:31	08:01:00	480160	63f7e5adcf31a0af5e7da12f	4	1	main_z	7	advance_on_keypress_ZEE	120	stimuli_distractor_diamondtriangles.svg	stimuli_distractor_diamondtriangles.svg	39	no	57	0	1829	0	0			0	0			1				0	
6.6.1	win	2023-06-13	07:52:31	08:01:04	483440	63f7e5adcf31a0af5e7da12f	4	1	main_z	7	main_z	121	stimuli_target_trianglesquares.svg	stimuli_distractor_diamondtriangles.svg	22	yes	44	1	794	0	0			0	0			1				0	
6.6.1	win	2023-06-13	07:52:31	08:01:04	483440	63f7e5adcf31a0af5e7da12f	4	1	main_z	7	advance_on_keypress_ZEE	122	stimuli_target_trianglesquares.svg	stimuli_distractor_diamondtriangles.svg	22	yes	57	0	250	0	0			0	0			1				0	
6.6.1	win	2023-06-13	07:52:31	08:01:07	486349	63f7e5adcf31a0af5e7da12f	4	1	main_z	7	main_z	123	stimuli_distractor_trianglediamonds.svg	stimuli_target_diamondrectangles.svg	27	yes	0	0	2000	0	0			0	0			1				0	
6.6.1	win	2023-06-13	07:52:31	08:01:07	486349	63f7e5adcf31a0af5e7da12f	4	1	main_z	7	advance_on_keypress_ZEE	124	stimuli_distractor_trianglediamonds.svg	stimuli_target_diamondrectangles.svg	27	yes	57	0	326	0	0			0	0			1				0	
6.6.1	win	2023-06-13	07:52:31	08:01:10	489322	63f7e5adcf31a0af5e7da12f	4	1	main_z	7	main_z	125	stimuli_distractor_diamondtriangles.svg	stimuli_target_trianglerectangles.svg	29	yes	0	0	2000	0	0			0	0			1				0	
6.6.1	win	2023-06-13	07:52:31	08:01:10	489322	63f7e5adcf31a0af5e7da12f	4	1	main_z	7	advance_on_keypress_ZEE	126	stimuli_distractor_diamondtriangles.svg	stimuli_target_trianglerectangles.svg	29	yes	57	0	503	0	0			0	0			1				0	
6.6.1	win	2023-06-13	07:52:31	08:01:12	491427	63f7e5adcf31a0af5e7da12f	4	1	main_z	7	main_z	127	stimuli_target_diamondsquares.svg	stimuli_distractor_trianglediamonds.svg	20	yes	44	1	962	0	0			0	0			1				0	
6.6.1	win	2023-06-13	07:52:31	08:01:12	491427	63f7e5adcf31a0af5e7da12f	4	1	main_z	7	advance_on_keypress_ZEE	128	stimuli_target_diamondsquares.svg	stimuli_distractor_trianglediamonds.svg	20	yes	57	0	282	0	0			0	0			1				0	
6.6.1	win	2023-06-13	07:52:31	08:01:15	494367	63f7e5adcf31a0af5e7da12f	4	1	main_z	7	main_z	129	stimuli_distractor_diamondtriangles.svg	stimuli_distractor_diamondtriangles.svg	40	no	0	1	2000	0	0			0	0			1				0	
6.6.1	win	2023-06-13	07:52:31	08:01:15	494367	63f7e5adcf31a0af5e7da12f	4	1	main_z	7	advance_on_keypress_ZEE	130	stimuli_distractor_diamondtriangles.svg	stimuli_distractor_diamondtriangles.svg	40	no	57	0	605	0	0			0	0			1				0	
6.6.1	win	2023-06-13	07:52:31	08:01:17	496487	63f7e5adcf31a0af5e7da12f	4	1	main_z	7	main_z	131	stimuli_distractor_trianglediamonds.svg	stimuli_target_squarediamonds.svg	12	yes	44	1	867	0	0			0	0			1				0	
6.6.1	win	2023-06-13	07:52:31	08:01:17	496487	63f7e5adcf31a0af5e7da12f	4	1	main_z	7	advance_on_keypress_ZEE	132	stimuli_distractor_trianglediamonds.svg	stimuli_target_squarediamonds.svg	12	yes	57	0	216	0	0			0	0			1				0	
6.6.1	win	2023-06-13	07:52:31	08:01:19	498286	63f7e5adcf31a0af5e7da12f	4	1	main_z	7	main_z	133	stimuli_distractor_diamondtriangles.svg	stimuli_target_rectanglediamonds.svg	14	yes	44	1	942	0	0			0	0			1				0	
6.6.1	win	2023-06-13	07:52:31	08:01:19	498286	63f7e5adcf31a0af5e7da12f	4	1	main_z	7	advance_on_keypress_ZEE	134	stimuli_distractor_diamondtriangles.svg	stimuli_target_rectanglediamonds.svg	14	yes	57	0	160	0	0			0	0			1				0	
6.6.1	win	2023-06-13	07:52:31	08:01:20	499734	63f7e5adcf31a0af5e7da12f	4	1	main_z	7	main_z	135	stimuli_target_rectangletriangles.svg	stimuli_distractor_diamondtriangles.svg	5	yes	44	1	640	0	0			0	0			1				0	
6.6.1	win	2023-06-13	07:52:31	08:01:20	499734	63f7e5adcf31a0af5e7da12f	4	1	main_z	7	advance_on_keypress_ZEE	136	stimuli_target_rectangletriangles.svg	stimuli_distractor_diamondtriangles.svg	5	yes	57	0	134	0	0			0	0			1				0	
6.6.1	win	2023-06-13	07:52:31	08:01:21	501178	63f7e5adcf31a0af5e7da12f	4	1	main_z	7	main_z	137	stimuli_distractor_diamondtriangles.svg	stimuli_target_squaretriangles.svg	15	yes	44	1	639	0	0			0	0			1				0	
6.6.1	win	2023-06-13	07:52:31	08:01:21	501178	63f7e5adcf31a0af5e7da12f	4	1	main_z	7	advance_on_keypress_ZEE	138	stimuli_distractor_diamondtriangles.svg	stimuli_target_squaretriangles.svg	15	yes	57	0	132	0	0			0	0			1				0	
6.6.1	win	2023-06-13	07:52:31	08:01:24	503961	63f7e5adcf31a0af5e7da12f	4	1	main_z	7	main_z	139	stimuli_distractor_trianglediamonds.svg	stimuli_distractor_diamondtriangles.svg	36	no	0	1	2000	0	0			0	0			1				0	
6.6.1	win	2023-06-13	07:52:31	08:01:24	503961	63f7e5adcf31a0af5e7da12f	4	1	main_z	7	advance_on_keypress_ZEE	140	stimuli_distractor_trianglediamonds.svg	stimuli_distractor_diamondtriangles.svg	36	no	57	0	325	0	0			0	0			1				0	
6.6.1	win	2023-06-13	07:52:31	08:01:26	505518	63f7e5adcf31a0af5e7da12f	4	1	main_z	7	main_z	141	stimuli_target_squarediamonds.svg	stimuli_distractor_diamondtriangles.svg	8	yes	44	1	591	0	0			0	0			1				0	
6.6.1	win	2023-06-13	07:52:31	08:01:26	505518	63f7e5adcf31a0af5e7da12f	4	1	main_z	7	advance_on_keypress_ZEE	142	stimuli_target_squarediamonds.svg	stimuli_distractor_diamondtriangles.svg	8	yes	57	0	358	0	0			0	0			1				0	
6.6.1	win	2023-06-13	07:52:31	08:01:29	508528	63f7e5adcf31a0af5e7da12f	4	1	main_z	7	main_z	143	stimuli_target_trianglerectangles.svg	stimuli_distractor_diamondtriangles.svg	21	yes	0	0	2000	0	0			0	0			1				0	
6.6.1	win	2023-06-13	07:52:31	08:01:29	508528	63f7e5adcf31a0af5e7da12f	4	1	main_z	7	advance_on_keypress_ZEE	144	stimuli_target_trianglerectangles.svg	stimuli_distractor_diamondtriangles.svg	21	yes	57	0	438	0	0			0	0			1				0	
6.6.1	win	2023-06-13	07:52:31	08:01:31	510479	63f7e5adcf31a0af5e7da12f	4	1	main_z	7	main_z	145	stimuli_distractor_trianglediamonds.svg	stimuli_distractor_trianglediamonds.svg	34	no	44	0	850	0	0			0	0			1				0	
6.6.1	win	2023-06-13	07:52:31	08:01:31	510479	63f7e5adcf31a0af5e7da12f	4	1	main_z	7	advance_on_keypress_ZEE	146	stimuli_distractor_trianglediamonds.svg	stimuli_distractor_trianglediamonds.svg	34	no	57	0	280	0	0			0	0			1				0	
6.6.1	win	2023-06-13	07:52:31	08:01:32	512094	63f7e5adcf31a0af5e7da12f	4	1	main_z	7	main_z	147	stimuli_target_rectangletriangles.svg	stimuli_distractor_trianglediamonds.svg	1	yes	44	1	683	0	0			0	0			1				0	
6.6.1	win	2023-06-13	07:52:31	08:01:32	512094	63f7e5adcf31a0af5e7da12f	4	1	main_z	7	advance_on_keypress_ZEE	148	stimuli_target_rectangletriangles.svg	stimuli_distractor_trianglediamonds.svg	1	yes	57	0	71	0	0			0	0			1				0	
6.6.1	win	2023-06-13	07:52:31	08:01:35	514828	63f7e5adcf31a0af5e7da12f	4	1	main_z	7	main_z	149	stimuli_distractor_trianglediamonds.svg	stimuli_target_rectanglediamonds.svg	10	yes	0	0	2000	0	0			0	0			1				0	
6.6.1	win	2023-06-13	07:52:31	08:01:35	514828	63f7e5adcf31a0af5e7da12f	4	1	main_z	7	advance_on_keypress_ZEE	150	stimuli_distractor_trianglediamonds.svg	stimuli_target_rectanglediamonds.svg	10	yes	57	0	634	0	0			0	0			1				0	
6.6.1	win	2023-06-13	07:52:31	08:01:38	517287	63f7e5adcf31a0af5e7da12f	4	1	main_z	7	main_z	151	stimuli_distractor_diamondtriangles.svg	stimuli_distractor_trianglediamonds.svg	37	no	44	0	1149	0	0			0	0			1				0	
6.6.1	win	2023-06-13	07:52:31	08:01:38	517287	63f7e5adcf31a0af5e7da12f	4	1	main_z	7	advance_on_keypress_ZEE	152	stimuli_distractor_diamondtriangles.svg	stimuli_distractor_trianglediamonds.svg	37	no	57	0	272	0	0			0	0			1				0	
6.6.1	win	2023-06-13	07:52:31	08:01:40	519358	63f7e5adcf31a0af5e7da12f	4	1	main_z	7	main_z	153	stimuli_target_squaretriangles.svg	stimuli_distractor_diamondtriangles.svg	7	yes	44	1	1147	0	0			0	0			1				0	
6.6.1	win	2023-06-13	07:52:31	08:01:40	519358	63f7e5adcf31a0af5e7da12f	4	1	main_z	7	advance_on_keypress_ZEE	154	stimuli_target_squaretriangles.svg	stimuli_distractor_diamondtriangles.svg	7	yes	57	0	500	0	0			0	0			1				0	
6.6.1	win	2023-06-13	07:52:31	08:01:41	521251	63f7e5adcf31a0af5e7da12f	4	1	main_z	7	main_z	155	stimuli_distractor_trianglediamonds.svg	stimuli_target_squaretriangles.svg	11	yes	44	1	727	0	0			0	0			1				0	
6.6.1	win	2023-06-13	07:52:31	08:01:41	521251	63f7e5adcf31a0af5e7da12f	4	1	main_z	7	advance_on_keypress_ZEE	156	stimuli_distractor_trianglediamonds.svg	stimuli_target_squaretriangles.svg	11	yes	57	0	121	0	0			0	0			1				0	
6.6.1	win	2023-06-13	07:52:31	08:01:43	522583	63f7e5adcf31a0af5e7da12f	4	1	main_z	7	main_z	157	stimuli_target_rectanglediamonds.svg	stimuli_distractor_diamondtriangles.svg	6	yes	44	1	570	0	0			0	0			1				0	
6.6.1	win	2023-06-13	07:52:31	08:01:43	522583	63f7e5adcf31a0af5e7da12f	4	1	main_z	7	advance_on_keypress_ZEE	158	stimuli_target_rectanglediamonds.svg	stimuli_distractor_diamondtriangles.svg	6	yes	57	0	115	0	0			0	0			1				0	
6.6.1	win	2023-06-13	07:52:31	08:01:46	525351	63f7e5adcf31a0af5e7da12f	4	1	main_z	7	main_z	159	stimuli_distractor_trianglediamonds.svg	stimuli_target_trianglerectangles.svg	25	yes	0	0	2000	0	0			0	0			1				0	
6.6.1	win	2023-06-13	07:52:31	08:01:46	525351	63f7e5adcf31a0af5e7da12f	4	1	main_z	7	advance_on_keypress_ZEE	160	stimuli_distractor_trianglediamonds.svg	stimuli_target_trianglerectangles.svg	25	yes	57	0	1941	0	0			0	0			1				0	
6.6.1	win	2023-06-13	07:52:31	08:02:08	548072	63f7e5adcf31a0af5e7da12f	4	1	practice_slash	9	practice_slash	1	stimuli_distractor_diamondtriangles.svg	stimuli_distractor_trianglediamonds.svg	14	no	53	0	591	0	0			0	0			1				0	
6.6.1	win	2023-06-13	07:52:31	08:02:08	548072	63f7e5adcf31a0af5e7da12f	4	1	practice_slash	9	advance_on_keypress_SLASH	2	stimuli_distractor_diamondtriangles.svg	stimuli_distractor_trianglediamonds.svg	14	no	57	0	751	0	0			0	0			1				0	
6.6.1	win	2023-06-13	07:52:31	08:02:11	551200	63f7e5adcf31a0af5e7da12f	4	1	practice_slash	9	practice_slash	3	stimuli_distractor_trianglediamonds.svg	stimuli_target_rectanglediamonds.svg	10	yes	53	1	719	0	0			0	0			1				0	
6.6.1	win	2023-06-13	07:52:31	08:02:11	551200	63f7e5adcf31a0af5e7da12f	4	1	practice_slash	9	advance_on_keypress_SLASH	4	stimuli_distractor_trianglediamonds.svg	stimuli_target_rectanglediamonds.svg	10	yes	57	0	538	0	0			0	0			1				0	
6.6.1	win	2023-06-13	07:52:31	08:02:14	553856	63f7e5adcf31a0af5e7da12f	4	1	practice_slash	9	practice_slash	5	stimuli_target_rectanglediamonds.svg	stimuli_distractor_diamondtriangles.svg	1	yes	53	1	475	0	0			0	0			1				0	
6.6.1	win	2023-06-13	07:52:31	08:02:14	553856	63f7e5adcf31a0af5e7da12f	4	1	practice_slash	9	advance_on_keypress_SLASH	6	stimuli_target_rectanglediamonds.svg	stimuli_distractor_diamondtriangles.svg	1	yes	57	0	536	0	0			0	0			1				0	
6.6.1	win	2023-06-13	07:52:31	08:02:18	558038	63f7e5adcf31a0af5e7da12f	4	1	practice_slash	9	practice_slash	7	stimuli_distractor_diamondtriangles.svg	stimuli_target_trianglerectangles.svg	9	yes	0	0	2000	0	0			0	0			1				0	
6.6.1	win	2023-06-13	07:52:31	08:02:18	558038	63f7e5adcf31a0af5e7da12f	4	1	practice_slash	9	advance_on_keypress_SLASH	8	stimuli_distractor_diamondtriangles.svg	stimuli_target_trianglerectangles.svg	9	yes	57	0	752	0	0			0	0			1				0	
6.6.1	win	2023-06-13	07:52:31	08:02:22	561264	63f7e5adcf31a0af5e7da12f	4	1	practice_slash	9	practice_slash	9	stimuli_distractor_trianglediamonds.svg	stimuli_distractor_diamondtriangles.svg	16	no	53	0	833	0	0			0	0			1				0	
6.6.1	win	2023-06-13	07:52:31	08:02:22	561264	63f7e5adcf31a0af5e7da12f	4	1	practice_slash	9	advance_on_keypress_SLASH	10	stimuli_distractor_trianglediamonds.svg	stimuli_distractor_diamondtriangles.svg	16	no	57	0	743	0	0			0	0			1				0	
6.6.1	win	2023-06-13	07:52:31	08:02:25	564895	63f7e5adcf31a0af5e7da12f	4	1	practice_slash	9	practice_slash	11	stimuli_distractor_diamondtriangles.svg	stimuli_target_diamondrectangles.svg	8	yes	53	1	1216	0	0			0	0			1				0	
6.6.1	win	2023-06-13	07:52:31	08:02:25	564895	63f7e5adcf31a0af5e7da12f	4	1	practice_slash	9	advance_on_keypress_SLASH	12	stimuli_distractor_diamondtriangles.svg	stimuli_target_diamondrectangles.svg	8	yes	57	0	558	0	0			0	0			1				0	
6.6.1	win	2023-06-13	07:52:31	08:02:29	569114	63f7e5adcf31a0af5e7da12f	4	1	practice_slash	9	practice_slash	13	stimuli_distractor_trianglediamonds.svg	stimuli_distractor_trianglediamonds.svg	15	no	0	1	2000	0	0			0	0			1				0	
6.6.1	win	2023-06-13	07:52:31	08:02:29	569114	63f7e5adcf31a0af5e7da12f	4	1	practice_slash	9	advance_on_keypress_SLASH	14	stimuli_distractor_trianglediamonds.svg	stimuli_distractor_trianglediamonds.svg	15	no	57	0	501	0	0			0	0			1				0	
6.6.1	win	2023-06-13	07:52:31	08:02:32	572145	63f7e5adcf31a0af5e7da12f	4	1	practice_slash	9	practice_slash	15	stimuli_target_diamondsquares.svg	stimuli_distractor_trianglediamonds.svg	6	yes	53	1	871	0	0			0	0			1				0	
6.6.1	win	2023-06-13	07:52:31	08:02:32	572145	63f7e5adcf31a0af5e7da12f	4	1	practice_slash	9	advance_on_keypress_SLASH	16	stimuli_target_diamondsquares.svg	stimuli_distractor_trianglediamonds.svg	6	yes	57	0	587	0	0			0	0			1				0	
6.6.1	win	2023-06-13	07:52:31	08:02:35	574931	63f7e5adcf31a0af5e7da12f	4	1	practice_slash	9	practice_slash	17	stimuli_target_squarediamonds.svg	stimuli_distractor_trianglediamonds.svg	5	yes	53	1	516	0	0			0	0			1				0	
6.6.1	win	2023-06-13	07:52:31	08:02:35	574931	63f7e5adcf31a0af5e7da12f	4	1	practice_slash	9	advance_on_keypress_SLASH	18	stimuli_target_squarediamonds.svg	stimuli_distractor_trianglediamonds.svg	5	yes	57	0	556	0	0			0	0			1				0	
6.6.1	win	2023-06-13	07:52:31	08:02:38	577670	63f7e5adcf31a0af5e7da12f	4	1	practice_slash	9	practice_slash	19	stimuli_target_squarediamonds.svg	stimuli_distractor_diamondtriangles.svg	2	yes	53	1	533	0	0			0	0			1				0	
6.6.1	win	2023-06-13	07:52:31	08:02:38	577670	63f7e5adcf31a0af5e7da12f	4	1	practice_slash	9	advance_on_keypress_SLASH	20	stimuli_target_squarediamonds.svg	stimuli_distractor_diamondtriangles.svg	2	yes	57	0	502	0	0			0	0			1				0	
6.6.1	win	2023-06-13	07:52:31	08:02:42	581823	63f7e5adcf31a0af5e7da12f	4	1	practice_slash	9	practice_slash	21	stimuli_distractor_diamondtriangles.svg	stimuli_distractor_diamondtriangles.svg	13	no	0	1	2000	0	0			0	0			1				0	
6.6.1	win	2023-06-13	07:52:31	08:02:42	581823	63f7e5adcf31a0af5e7da12f	4	1	practice_slash	9	advance_on_keypress_SLASH	22	stimuli_distractor_diamondtriangles.svg	stimuli_distractor_diamondtriangles.svg	13	no	57	0	776	0	0			0	0			1				0	
6.6.1	win	2023-06-13	07:52:31	08:02:45	584717	63f7e5adcf31a0af5e7da12f	4	1	practice_slash	9	practice_slash	23	stimuli_target_rectanglediamonds.svg	stimuli_distractor_trianglediamonds.svg	4	yes	53	1	464	0	0			0	0			1				0	
6.6.1	win	2023-06-13	07:52:31	08:02:45	584717	63f7e5adcf31a0af5e7da12f	4	1	practice_slash	9	advance_on_keypress_SLASH	24	stimuli_target_rectanglediamonds.svg	stimuli_distractor_trianglediamonds.svg	4	yes	57	0	356	0	0			0	0			1				0	
6.6.1	win	2023-06-13	07:52:31	08:02:48	587545	63f7e5adcf31a0af5e7da12f	4	1	practice_slash	9	practice_slash	25	stimuli_distractor_trianglediamonds.svg	stimuli_target_diamondrectangles.svg	12	yes	53	1	829	0	0			0	0			1				0	
6.6.1	win	2023-06-13	07:52:31	08:02:48	587545	63f7e5adcf31a0af5e7da12f	4	1	practice_slash	9	advance_on_keypress_SLASH	26	stimuli_distractor_trianglediamonds.svg	stimuli_target_diamondrectangles.svg	12	yes	57	0	379	0	0			0	0			1				0	
6.6.1	win	2023-06-13	07:52:31	08:02:51	590384	63f7e5adcf31a0af5e7da12f	4	1	practice_slash	9	practice_slash	27	stimuli_target_diamondsquares.svg	stimuli_distractor_diamondtriangles.svg	3	yes	53	1	802	0	0			0	0			1				0	
6.6.1	win	2023-06-13	07:52:31	08:02:51	590384	63f7e5adcf31a0af5e7da12f	4	1	practice_slash	9	advance_on_keypress_SLASH	28	stimuli_target_diamondsquares.svg	stimuli_distractor_diamondtriangles.svg	3	yes	57	0	337	0	0			0	0			1				0	
6.6.1	win	2023-06-13	07:52:31	08:02:53	593095	63f7e5adcf31a0af5e7da12f	4	1	practice_slash	9	practice_slash	29	stimuli_distractor_trianglediamonds.svg	stimuli_target_squarediamonds.svg	11	yes	53	1	731	0	0			0	0			1				0	
6.6.1	win	2023-06-13	07:52:31	08:02:53	593095	63f7e5adcf31a0af5e7da12f	4	1	practice_slash	9	advance_on_keypress_SLASH	30	stimuli_distractor_trianglediamonds.svg	stimuli_target_squarediamonds.svg	11	yes	57	0	477	0	0			0	0			1				0	
6.6.1	win	2023-06-13	07:52:31	08:02:56	595832	63f7e5adcf31a0af5e7da12f	4	1	practice_slash	9	practice_slash	31	stimuli_distractor_diamondtriangles.svg	stimuli_target_rectangletriangles.svg	7	yes	53	1	600	0	0			0	0			1				0	
6.6.1	win	2023-06-13	07:52:31	08:02:56	595832	63f7e5adcf31a0af5e7da12f	4	1	practice_slash	9	advance_on_keypress_SLASH	32	stimuli_distractor_diamondtriangles.svg	stimuli_target_rectangletriangles.svg	7	yes	57	0	1631	0	0			0	0			1				0	
6.6.1	win	2023-06-13	07:52:31	08:03:16	615781	63f7e5adcf31a0af5e7da12f	4	1	main_slash	11	main_slash	1	stimuli_distractor_diamondtriangles.svg	stimuli_target_trianglerectangles.svg	29	yes	53	1	610	0	0			0	0			1				0	
6.6.1	win	2023-06-13	07:52:31	08:03:16	615781	63f7e5adcf31a0af5e7da12f	4	1	main_slash	11	advance_on_keypress_SLASH	2	stimuli_distractor_diamondtriangles.svg	stimuli_target_trianglerectangles.svg	29	yes	57	0	1433	0	0			0	0			1				0	
6.6.1	win	2023-06-13	07:52:31	08:03:20	619867	63f7e5adcf31a0af5e7da12f	4	1	main_slash	11	main_slash	3	stimuli_distractor_diamondtriangles.svg	stimuli_distractor_diamondtriangles.svg	40	no	0	1	2000	0	0			0	0			1				0	
6.6.1	win	2023-06-13	07:52:31	08:03:20	619867	63f7e5adcf31a0af5e7da12f	4	1	main_slash	11	advance_on_keypress_SLASH	4	stimuli_distractor_diamondtriangles.svg	stimuli_distractor_diamondtriangles.svg	40	no	57	0	797	0	0			0	0			1				0	
6.6.1	win	2023-06-13	07:52:31	08:03:22	622134	63f7e5adcf31a0af5e7da12f	4	1	main_slash	11	main_slash	5	stimuli_target_trianglerectangles.svg	stimuli_distractor_diamondtriangles.svg	21	yes	53	1	820	0	0			0	0			1				0	
6.6.1	win	2023-06-13	07:52:31	08:03:22	622134	63f7e5adcf31a0af5e7da12f	4	1	main_slash	11	advance_on_keypress_SLASH	6	stimuli_target_trianglerectangles.svg	stimuli_distractor_diamondtriangles.svg	21	yes	57	0	555	0	0			0	0			1				0	
6.6.1	win	2023-06-13	07:52:31	08:03:24	623771	63f7e5adcf31a0af5e7da12f	4	1	main_slash	11	main_slash	7	stimuli_target_rectanglediamonds.svg	stimuli_distractor_trianglediamonds.svg	2	yes	53	1	435	0	0			0	0			1				0	
6.6.1	win	2023-06-13	07:52:31	08:03:24	623771	63f7e5adcf31a0af5e7da12f	4	1	main_slash	11	advance_on_keypress_SLASH	8	stimuli_target_rectanglediamonds.svg	stimuli_distractor_trianglediamonds.svg	2	yes	57	0	273	0	0			0	0			1				0	
6.6.1	win	2023-06-13	07:52:31	08:03:27	626711	63f7e5adcf31a0af5e7da12f	4	1	main_slash	11	main_slash	9	stimuli_target_diamondsquares.svg	stimuli_distractor_diamondtriangles.svg	24	yes	0	0	2000	0	0			0	0			1				0	
6.6.1	win	2023-06-13	07:52:31	08:03:27	626711	63f7e5adcf31a0af5e7da12f	4	1	main_slash	11	advance_on_keypress_SLASH	10	stimuli_target_diamondsquares.svg	stimuli_distractor_diamondtriangles.svg	24	yes	57	0	299	0	0			0	0			1				0	
6.6.1	win	2023-06-13	07:52:31	08:03:28	628078	63f7e5adcf31a0af5e7da12f	4	1	main_slash	11	main_slash	11	stimuli_distractor_trianglediamonds.svg	stimuli_target_squaretriangles.svg	11	yes	53	1	414	0	0			0	0			1				0	
6.6.1	win	2023-06-13	07:52:31	08:03:28	628078	63f7e5adcf31a0af5e7da12f	4	1	main_slash	11	advance_on_keypress_SLASH	12	stimuli_distractor_trianglediamonds.svg	stimuli_target_squaretriangles.svg	11	yes	57	0	636	0	0			0	0			1				0	
6.6.1	win	2023-06-13	07:52:31	08:03:30	629822	63f7e5adcf31a0af5e7da12f	4	1	main_slash	11	main_slash	13	stimuli_distractor_diamondtriangles.svg	stimuli_target_squaretriangles.svg	15	yes	53	1	458	0	0			0	0			1				0	
6.6.1	win	2023-06-13	07:52:31	08:03:30	629822	63f7e5adcf31a0af5e7da12f	4	1	main_slash	11	advance_on_keypress_SLASH	14	stimuli_distractor_diamondtriangles.svg	stimuli_target_squaretriangles.svg	15	yes	57	0	487	0	0			0	0			1				0	
6.6.1	win	2023-06-13	07:52:31	08:03:33	632950	63f7e5adcf31a0af5e7da12f	4	1	main_slash	11	main_slash	15	stimuli_distractor_trianglediamonds.svg	stimuli_distractor_trianglediamonds.svg	33	no	0	1	2000	0	0			0	0			1				0	
6.6.1	win	2023-06-13	07:52:31	08:03:33	632950	63f7e5adcf31a0af5e7da12f	4	1	main_slash	11	advance_on_keypress_SLASH	16	stimuli_distractor_trianglediamonds.svg	stimuli_distractor_trianglediamonds.svg	33	no	57	0	298	0	0			0	0			1				0	
6.6.1	win	2023-06-13	07:52:31	08:03:36	635898	63f7e5adcf31a0af5e7da12f	4	1	main_slash	11	main_slash	17	stimuli_distractor_diamondtriangles.svg	stimuli_distractor_trianglediamonds.svg	38	no	0	1	2000	0	0			0	0			1				0	
6.6.1	win	2023-06-13	07:52:31	08:03:36	635898	63f7e5adcf31a0af5e7da12f	4	1	main_slash	11	advance_on_keypress_SLASH	18	stimuli_distractor_diamondtriangles.svg	stimuli_distractor_trianglediamonds.svg	38	no	57	0	316	0	0			0	0			1				0	
6.6.1	win	2023-06-13	07:52:31	08:03:38	637566	63f7e5adcf31a0af5e7da12f	4	1	main_slash	11	main_slash	19	stimuli_distractor_trianglediamonds.svg	stimuli_target_squarediamonds.svg	12	yes	53	1	702	0	0			0	0			1				0	
6.6.1	win	2023-06-13	07:52:31	08:03:38	637566	63f7e5adcf31a0af5e7da12f	4	1	main_slash	11	advance_on_keypress_SLASH	20	stimuli_distractor_trianglediamonds.svg	stimuli_target_squarediamonds.svg	12	yes	57	0	513	0	0			0	0			1				0	
6.6.1	win	2023-06-13	07:52:31	08:03:39	639247	63f7e5adcf31a0af5e7da12f	4	1	main_slash	11	main_slash	21	stimuli_target_trianglesquares.svg	stimuli_distractor_trianglediamonds.svg	18	yes	53	1	515	0	0			0	0			1				0	
6.6.1	win	2023-06-13	07:52:31	08:03:39	639247	63f7e5adcf31a0af5e7da12f	4	1	main_slash	11	advance_on_keypress_SLASH	22	stimuli_target_trianglesquares.svg	stimuli_distractor_trianglediamonds.svg	18	yes	57	0	301	0	0			0	0			1				0	
6.6.1	win	2023-06-13	07:52:31	08:03:41	640958	63f7e5adcf31a0af5e7da12f	4	1	main_slash	11	main_slash	23	stimuli_distractor_trianglediamonds.svg	stimuli_target_diamondsquares.svg	28	yes	53	1	760	0	0			0	0			1				0	
6.6.1	win	2023-06-13	07:52:31	08:03:41	640958	63f7e5adcf31a0af5e7da12f	4	1	main_slash	11	advance_on_keypress_SLASH	24	stimuli_distractor_trianglediamonds.svg	stimuli_target_diamondsquares.svg	28	yes	57	0	377	0	0			0	0			1				0	
6.6.1	win	2023-06-13	07:52:31	08:03:43	642734	63f7e5adcf31a0af5e7da12f	4	1	main_slash	11	main_slash	25	stimuli_target_diamondrectangles.svg	stimuli_distractor_diamondtriangles.svg	23	yes	53	1	753	0	0			0	0			1				0	
6.6.1	win	2023-06-13	07:52:31	08:03:43	642734	63f7e5adcf31a0af5e7da12f	4	1	main_slash	11	advance_on_keypress_SLASH	26	stimuli_target_diamondrectangles.svg	stimuli_distractor_diamondtriangles.svg	23	yes	57	0	258	0	0			0	0			1				0	
6.6.1	win	2023-06-13	07:52:31	08:03:45	644414	63f7e5adcf31a0af5e7da12f	4	1	main_slash	11	main_slash	27	stimuli_distractor_trianglediamonds.svg	stimuli_target_rectanglediamonds.svg	10	yes	53	1	783	0	0			0	0			1				0	
6.6.1	win	2023-06-13	07:52:31	08:03:45	644414	63f7e5adcf31a0af5e7da12f	4	1	main_slash	11	advance_on_keypress_SLASH	28	stimuli_distractor_trianglediamonds.svg	stimuli_target_rectanglediamonds.svg	10	yes	57	0	367	0	0			0	0			1				0	
6.6.1	win	2023-06-13	07:52:31	08:03:46	646088	63f7e5adcf31a0af5e7da12f	4	1	main_slash	11	main_slash	29	stimuli_distractor_trianglediamonds.svg	stimuli_target_rectangletriangles.svg	9	yes	53	1	655	0	0			0	0			1				0	
6.6.1	win	2023-06-13	07:52:31	08:03:46	646088	63f7e5adcf31a0af5e7da12f	4	1	main_slash	11	advance_on_keypress_SLASH	30	stimuli_distractor_trianglediamonds.svg	stimuli_target_rectangletriangles.svg	9	yes	57	0	236	0	0			0	0			1				0	
6.6.1	win	2023-06-13	07:52:31	08:03:48	647782	63f7e5adcf31a0af5e7da12f	4	1	main_slash	11	main_slash	31	stimuli_target_squaretriangles.svg	stimuli_distractor_diamondtriangles.svg	7	yes	53	1	817	0	0			0	0			1				0	
6.6.1	win	2023-06-13	07:52:31	08:03:48	647782	63f7e5adcf31a0af5e7da12f	4	1	main_slash	11	advance_on_keypress_SLASH	32	stimuli_target_squaretriangles.svg	stimuli_distractor_diamondtriangles.svg	7	yes	57	0	224	0	0			0	0			1				0	
6.6.1	win	2023-06-13	07:52:31	08:03:50	649654	63f7e5adcf31a0af5e7da12f	4	1	main_slash	11	main_slash	33	stimuli_distractor_trianglediamonds.svg	stimuli_target_trianglesquares.svg	26	yes	53	1	1006	0	0			0	0			1				0	
6.6.1	win	2023-06-13	07:52:31	08:03:50	649654	63f7e5adcf31a0af5e7da12f	4	1	main_slash	11	advance_on_keypress_SLASH	34	stimuli_distractor_trianglediamonds.svg	stimuli_target_trianglesquares.svg	26	yes	57	0	469	0	0			0	0			1				0	
6.6.1	win	2023-06-13	07:52:31	08:03:52	652006	63f7e5adcf31a0af5e7da12f	4	1	main_slash	11	main_slash	35	stimuli_target_diamondrectangles.svg	stimuli_distractor_trianglediamonds.svg	19	yes	53	1	1241	0	0			0	0			1				0	
6.6.1	win	2023-06-13	07:52:31	08:03:52	652006	63f7e5adcf31a0af5e7da12f	4	1	main_slash	11	advance_on_keypress_SLASH	36	stimuli_target_diamondrectangles.svg	stimuli_distractor_trianglediamonds.svg	19	yes	57	0	583	0	0			0	0			1				0	
6.6.1	win	2023-06-13	07:52:31	08:03:55	654294	63f7e5adcf31a0af5e7da12f	4	1	main_slash	11	main_slash	37	stimuli_distractor_diamondtriangles.svg	stimuli_target_squarediamonds.svg	16	yes	53	1	1062	0	0			0	0			1				0	
6.6.1	win	2023-06-13	07:52:31	08:03:55	654294	63f7e5adcf31a0af5e7da12f	4	1	main_slash	11	advance_on_keypress_SLASH	38	stimuli_distractor_diamondtriangles.svg	stimuli_target_squarediamonds.svg	16	yes	57	0	364	0	0			0	0			1				0	
6.6.1	win	2023-06-13	07:52:31	08:03:58	657299	63f7e5adcf31a0af5e7da12f	4	1	main_slash	11	main_slash	39	stimuli_distractor_diamondtriangles.svg	stimuli_distractor_diamondtriangles.svg	39	no	0	1	2000	0	0			0	0			1				0	
6.6.1	win	2023-06-13	07:52:31	08:03:58	657299	63f7e5adcf31a0af5e7da12f	4	1	main_slash	11	advance_on_keypress_SLASH	40	stimuli_distractor_diamondtriangles.svg	stimuli_distractor_diamondtriangles.svg	39	no	57	0	1283	0	0			0	0			1				0	
6.6.1	win	2023-06-13	07:52:31	08:04:01	660456	63f7e5adcf31a0af5e7da12f	4	1	main_slash	11	main_slash	41	stimuli_distractor_trianglediamonds.svg	stimuli_distractor_diamondtriangles.svg	35	no	53	0	1214	0	0			0	0			1				0	
6.6.1	win	2023-06-13	07:52:31	08:04:01	660456	63f7e5adcf31a0af5e7da12f	4	1	main_slash	11	advance_on_keypress_SLASH	42	stimuli_distractor_trianglediamonds.svg	stimuli_distractor_diamondtriangles.svg	35	no	57	0	645	0	0			0	0			1				0	
6.6.1	win	2023-06-13	07:52:31	08:04:04	663748	63f7e5adcf31a0af5e7da12f	4	1	main_slash	11	main_slash	43	stimuli_distractor_trianglediamonds.svg	stimuli_distractor_trianglediamonds.svg	34	no	0	1	2000	0	0			0	0			1				0	
6.6.1	win	2023-06-13	07:52:31	08:04:04	663748	63f7e5adcf31a0af5e7da12f	4	1	main_slash	11	advance_on_keypress_SLASH	44	stimuli_distractor_trianglediamonds.svg	stimuli_distractor_trianglediamonds.svg	34	no	57	0	425	0	0			0	0			1				0	
6.6.1	win	2023-06-13	07:52:31	08:04:07	666847	63f7e5adcf31a0af5e7da12f	4	1	main_slash	11	main_slash	45	stimuli_distractor_diamondtriangles.svg	stimuli_target_diamondrectangles.svg	31	yes	0	0	2000	0	0			0	0			1				0	
6.6.1	win	2023-06-13	07:52:31	08:04:07	666847	63f7e5adcf31a0af5e7da12f	4	1	main_slash	11	advance_on_keypress_SLASH	46	stimuli_distractor_diamondtriangles.svg	stimuli_target_diamondrectangles.svg	31	yes	57	0	341	0	0			0	0			1				0	
6.6.1	win	2023-06-13	07:52:31	08:04:09	668654	63f7e5adcf31a0af5e7da12f	4	1	main_slash	11	main_slash	47	stimuli_distractor_diamondtriangles.svg	stimuli_target_trianglesquares.svg	30	yes	53	1	805	0	0			0	0			1				0	
6.6.1	win	2023-06-13	07:52:31	08:04:09	668654	63f7e5adcf31a0af5e7da12f	4	1	main_slash	11	advance_on_keypress_SLASH	48	stimuli_distractor_diamondtriangles.svg	stimuli_target_trianglesquares.svg	30	yes	57	0	349	0	0			0	0			1				0	
6.6.1	win	2023-06-13	07:52:31	08:04:11	670325	63f7e5adcf31a0af5e7da12f	4	1	main_slash	11	main_slash	49	stimuli_target_squarediamonds.svg	stimuli_distractor_trianglediamonds.svg	4	yes	53	1	677	0	0			0	0			1				0	
6.6.1	win	2023-06-13	07:52:31	08:04:11	670325	63f7e5adcf31a0af5e7da12f	4	1	main_slash	11	advance_on_keypress_SLASH	50	stimuli_target_squarediamonds.svg	stimuli_distractor_trianglediamonds.svg	4	yes	57	0	290	0	0			0	0			1				0	
6.6.1	win	2023-06-13	07:52:31	08:04:12	672074	63f7e5adcf31a0af5e7da12f	4	1	main_slash	11	main_slash	51	stimuli_distractor_trianglediamonds.svg	stimuli_target_diamondrectangles.svg	27	yes	53	1	797	0	0			0	0			1				0	
6.6.1	win	2023-06-13	07:52:31	08:04:12	672074	63f7e5adcf31a0af5e7da12f	4	1	main_slash	11	advance_on_keypress_SLASH	52	stimuli_distractor_trianglediamonds.svg	stimuli_target_diamondrectangles.svg	27	yes	57	0	276	0	0			0	0			1				0	
6.6.1	win	2023-06-13	07:52:31	08:04:15	674999	63f7e5adcf31a0af5e7da12f	4	1	main_slash	11	main_slash	53	stimuli_target_trianglerectangles.svg	stimuli_distractor_trianglediamonds.svg	17	yes	0	0	2000	0	0			0	0			1				0	
6.6.1	win	2023-06-13	07:52:31	08:04:15	674999	63f7e5adcf31a0af5e7da12f	4	1	main_slash	11	advance_on_keypress_SLASH	54	stimuli_target_trianglerectangles.svg	stimuli_distractor_trianglediamonds.svg	17	yes	57	0	1318	0	0			0	0			1				0	
6.6.1	win	2023-06-13	07:52:31	08:04:19	678295	63f7e5adcf31a0af5e7da12f	4	1	main_slash	11	main_slash	55	stimuli_target_diamondsquares.svg	stimuli_distractor_trianglediamonds.svg	20	yes	53	1	1304	0	0			0	0			1				0	
6.6.1	win	2023-06-13	07:52:31	08:04:19	678295	63f7e5adcf31a0af5e7da12f	4	1	main_slash	11	advance_on_keypress_SLASH	56	stimuli_target_diamondsquares.svg	stimuli_distractor_trianglediamonds.svg	20	yes	57	0	1227	0	0			0	0			1				0	
6.6.1	win	2023-06-13	07:52:31	08:04:22	682179	63f7e5adcf31a0af5e7da12f	4	1	main_slash	11	main_slash	57	stimuli_distractor_trianglediamonds.svg	stimuli_target_trianglerectangles.svg	25	yes	0	0	2000	0	0			0	0			1				0	
6.6.1	win	2023-06-13	07:52:31	08:04:22	682179	63f7e5adcf31a0af5e7da12f	4	1	main_slash	11	advance_on_keypress_SLASH	58	stimuli_distractor_trianglediamonds.svg	stimuli_target_trianglerectangles.svg	25	yes	57	0	751	0	0			0	0			1				0	
6.6.1	win	2023-06-13	07:52:31	08:04:26	685583	63f7e5adcf31a0af5e7da12f	4	1	main_slash	11	main_slash	59	stimuli_distractor_diamondtriangles.svg	stimuli_target_diamondsquares.svg	32	yes	0	0	2000	0	0			0	0			1				0	
6.6.1	win	2023-06-13	07:52:31	08:04:26	685583	63f7e5adcf31a0af5e7da12f	4	1	main_slash	11	advance_on_keypress_SLASH	60	stimuli_distractor_diamondtriangles.svg	stimuli_target_diamondsquares.svg	32	yes	57	0	367	0	0			0	0			1				0	
6.6.1	win	2023-06-13	07:52:31	08:04:28	687270	63f7e5adcf31a0af5e7da12f	4	1	main_slash	11	main_slash	61	stimuli_target_squaretriangles.svg	stimuli_distractor_trianglediamonds.svg	3	yes	53	1	671	0	0			0	0			1				0	
6.6.1	win	2023-06-13	07:52:31	08:04:28	687270	63f7e5adcf31a0af5e7da12f	4	1	main_slash	11	advance_on_keypress_SLASH	62	stimuli_target_squaretriangles.svg	stimuli_distractor_trianglediamonds.svg	3	yes	57	0	339	0	0			0	0			1				0	
6.6.1	win	2023-06-13	07:52:31	08:04:29	688818	63f7e5adcf31a0af5e7da12f	4	1	main_slash	11	main_slash	63	stimuli_target_squarediamonds.svg	stimuli_distractor_diamondtriangles.svg	8	yes	53	1	565	0	0			0	0			1				0	
6.6.1	win	2023-06-13	07:52:31	08:04:29	688818	63f7e5adcf31a0af5e7da12f	4	1	main_slash	11	advance_on_keypress_SLASH	64	stimuli_target_squarediamonds.svg	stimuli_distractor_diamondtriangles.svg	8	yes	57	0	325	0	0			0	0			1				0	
6.6.1	win	2023-06-13	07:52:31	08:04:31	690366	63f7e5adcf31a0af5e7da12f	4	1	main_slash	11	main_slash	65	stimuli_distractor_diamondtriangles.svg	stimuli_target_rectanglediamonds.svg	14	yes	53	1	575	0	0			0	0			1				0	
6.6.1	win	2023-06-13	07:52:31	08:04:31	690366	63f7e5adcf31a0af5e7da12f	4	1	main_slash	11	advance_on_keypress_SLASH	66	stimuli_distractor_diamondtriangles.svg	stimuli_target_rectanglediamonds.svg	14	yes	57	0	295	0	0			0	0			1				0	
6.6.1	win	2023-06-13	07:52:31	08:04:32	691989	63f7e5adcf31a0af5e7da12f	4	1	main_slash	11	main_slash	67	stimuli_target_trianglesquares.svg	stimuli_distractor_diamondtriangles.svg	22	yes	53	1	674	0	0			0	0			1				0	
6.6.1	win	2023-06-13	07:52:31	08:04:32	691989	63f7e5adcf31a0af5e7da12f	4	1	main_slash	11	advance_on_keypress_SLASH	68	stimuli_target_trianglesquares.svg	stimuli_distractor_diamondtriangles.svg	22	yes	57	0	319	0	0			0	0			1				0	
6.6.1	win	2023-06-13	07:52:31	08:04:34	693638	63f7e5adcf31a0af5e7da12f	4	1	main_slash	11	main_slash	69	stimuli_distractor_diamondtriangles.svg	stimuli_target_rectangletriangles.svg	13	yes	53	1	672	0	0			0	0			1				0	
6.6.1	win	2023-06-13	07:52:31	08:04:34	693638	63f7e5adcf31a0af5e7da12f	4	1	main_slash	11	advance_on_keypress_SLASH	70	stimuli_distractor_diamondtriangles.svg	stimuli_target_rectangletriangles.svg	13	yes	57	0	325	0	0			0	0			1				0	
6.6.1	win	2023-06-13	07:52:31	08:04:35	695086	63f7e5adcf31a0af5e7da12f	4	1	main_slash	11	main_slash	71	stimuli_target_rectangletriangles.svg	stimuli_distractor_diamondtriangles.svg	5	yes	53	1	470	0	0			0	0			1				0	
6.6.1	win	2023-06-13	07:52:31	08:04:35	695086	63f7e5adcf31a0af5e7da12f	4	1	main_slash	11	advance_on_keypress_SLASH	72	stimuli_target_rectangletriangles.svg	stimuli_distractor_diamondtriangles.svg	5	yes	57	0	307	0	0			0	0			1				0	
6.6.1	win	2023-06-13	07:52:31	08:04:37	696486	63f7e5adcf31a0af5e7da12f	4	1	main_slash	11	main_slash	73	stimuli_target_rectanglediamonds.svg	stimuli_distractor_diamondtriangles.svg	6	yes	53	1	453	0	0			0	0			1				0	
6.6.1	win	2023-06-13	07:52:31	08:04:37	696486	63f7e5adcf31a0af5e7da12f	4	1	main_slash	11	advance_on_keypress_SLASH	74	stimuli_target_rectanglediamonds.svg	stimuli_distractor_diamondtriangles.svg	6	yes	57	0	283	0	0			0	0			1				0	
6.6.1	win	2023-06-13	07:52:31	08:04:40	699421	63f7e5adcf31a0af5e7da12f	4	1	main_slash	11	main_slash	75	stimuli_distractor_trianglediamonds.svg	stimuli_distractor_diamondtriangles.svg	36	no	0	1	2000	0	0			0	0			1				0	
6.6.1	win	2023-06-13	07:52:31	08:04:40	699421	63f7e5adcf31a0af5e7da12f	4	1	main_slash	11	advance_on_keypress_SLASH	76	stimuli_distractor_trianglediamonds.svg	stimuli_distractor_diamondtriangles.svg	36	no	57	0	349	0	0			0	0			1				0	
6.6.1	win	2023-06-13	07:52:31	08:04:43	702423	63f7e5adcf31a0af5e7da12f	4	1	main_slash	11	main_slash	77	stimuli_distractor_diamondtriangles.svg	stimuli_distractor_trianglediamonds.svg	37	no	0	1	2000	0	0			0	0			1				0	
6.6.1	win	2023-06-13	07:52:31	08:04:43	702423	63f7e5adcf31a0af5e7da12f	4	1	main_slash	11	advance_on_keypress_SLASH	78	stimuli_distractor_diamondtriangles.svg	stimuli_distractor_trianglediamonds.svg	37	no	57	0	629	0	0			0	0			1				0	
6.6.1	win	2023-06-13	07:52:31	08:04:45	704264	63f7e5adcf31a0af5e7da12f	4	1	main_slash	11	main_slash	79	stimuli_target_rectangletriangles.svg	stimuli_distractor_trianglediamonds.svg	1	yes	53	1	554	0	0			0	0			1				0	
6.6.1	win	2023-06-13	07:52:31	08:04:45	704264	63f7e5adcf31a0af5e7da12f	4	1	main_slash	11	advance_on_keypress_SLASH	80	stimuli_target_rectangletriangles.svg	stimuli_distractor_trianglediamonds.svg	1	yes	57	0	603	0	0			0	0			1				0	
6.6.1	win	2023-06-13	07:52:31	08:04:48	707469	63f7e5adcf31a0af5e7da12f	4	1	main_slash	11	main_slash	81	stimuli_distractor_trianglediamonds.svg	stimuli_target_diamondsquares.svg	28	yes	53	1	1937	0	0			0	0			1				0	
6.6.1	win	2023-06-13	07:52:31	08:04:48	707469	63f7e5adcf31a0af5e7da12f	4	1	main_slash	11	advance_on_keypress_SLASH	82	stimuli_distractor_trianglediamonds.svg	stimuli_target_diamondsquares.svg	28	yes	57	0	531	0	0			0	0			1				0	
6.6.1	win	2023-06-13	07:52:31	08:04:49	709155	63f7e5adcf31a0af5e7da12f	4	1	main_slash	11	main_slash	83	stimuli_target_squaretriangles.svg	stimuli_distractor_diamondtriangles.svg	7	yes	53	1	492	0	0			0	0			1				0	
6.6.1	win	2023-06-13	07:52:31	08:04:49	709155	63f7e5adcf31a0af5e7da12f	4	1	main_slash	11	advance_on_keypress_SLASH	84	stimuli_target_squaretriangles.svg	stimuli_distractor_diamondtriangles.svg	7	yes	57	0	656	0	0			0	0			1				0	
6.6.1	win	2023-06-13	07:52:31	08:04:53	712481	63f7e5adcf31a0af5e7da12f	4	1	main_slash	11	main_slash	85	stimuli_distractor_trianglediamonds.svg	stimuli_distractor_trianglediamonds.svg	33	no	0	1	2000	0	0			0	0			1				0	
6.6.1	win	2023-06-13	07:52:31	08:04:53	712481	63f7e5adcf31a0af5e7da12f	4	1	main_slash	11	advance_on_keypress_SLASH	86	stimuli_distractor_trianglediamonds.svg	stimuli_distractor_trianglediamonds.svg	33	no	57	0	498	0	0			0	0			1				0	
6.6.1	win	2023-06-13	07:52:31	08:04:54	714219	63f7e5adcf31a0af5e7da12f	4	1	main_slash	11	main_slash	87	stimuli_distractor_trianglediamonds.svg	stimuli_target_squaretriangles.svg	11	yes	53	1	581	0	0			0	0			1				0	
6.6.1	win	2023-06-13	07:52:31	08:04:54	714219	63f7e5adcf31a0af5e7da12f	4	1	main_slash	11	advance_on_keypress_SLASH	88	stimuli_distractor_trianglediamonds.svg	stimuli_target_squaretriangles.svg	11	yes	57	0	341	0	0			0	0			1				0	
6.6.1	win	2023-06-13	07:52:31	08:04:56	715906	63f7e5adcf31a0af5e7da12f	4	1	main_slash	11	main_slash	89	stimuli_target_trianglerectangles.svg	stimuli_distractor_diamondtriangles.svg	21	yes	53	1	694	0	0			0	0			1				0	
6.6.1	win	2023-06-13	07:52:31	08:04:56	715906	63f7e5adcf31a0af5e7da12f	4	1	main_slash	11	advance_on_keypress_SLASH	90	stimuli_target_trianglerectangles.svg	stimuli_distractor_diamondtriangles.svg	21	yes	57	0	233	0	0			0	0			1				0	
6.6.1	win	2023-06-13	07:52:31	08:04:59	718783	63f7e5adcf31a0af5e7da12f	4	1	main_slash	11	main_slash	91	stimuli_distractor_diamondtriangles.svg	stimuli_target_diamondrectangles.svg	31	yes	0	0	2000	0	0			0	0			1				0	
6.6.1	win	2023-06-13	07:52:31	08:04:59	718783	63f7e5adcf31a0af5e7da12f	4	1	main_slash	11	advance_on_keypress_SLASH	92	stimuli_distractor_diamondtriangles.svg	stimuli_target_diamondrectangles.svg	31	yes	57	0	566	0	0			0	0			1				0	
6.6.1	win	2023-06-13	07:52:31	08:05:02	722003	63f7e5adcf31a0af5e7da12f	4	1	main_slash	11	main_slash	93	stimuli_target_diamondrectangles.svg	stimuli_distractor_diamondtriangles.svg	23	yes	0	0	2000	0	0			0	0			1				0	
6.6.1	win	2023-06-13	07:52:31	08:05:02	722003	63f7e5adcf31a0af5e7da12f	4	1	main_slash	11	advance_on_keypress_SLASH	94	stimuli_target_diamondrectangles.svg	stimuli_distractor_diamondtriangles.svg	23	yes	57	0	365	0	0			0	0			1				0	
6.6.1	win	2023-06-13	07:52:31	08:05:04	723658	63f7e5adcf31a0af5e7da12f	4	1	main_slash	11	main_slash	95	stimuli_target_rectangletriangles.svg	stimuli_distractor_diamondtriangles.svg	5	yes	53	1	629	0	0			0	0			1				0	
6.6.1	win	2023-06-13	07:52:31	08:05:04	723658	63f7e5adcf31a0af5e7da12f	4	1	main_slash	11	advance_on_keypress_SLASH	96	stimuli_target_rectangletriangles.svg	stimuli_distractor_diamondtriangles.svg	5	yes	57	0	939	0	0			0	0			1				0	
6.6.1	win	2023-06-13	07:52:31	08:05:08	727264	63f7e5adcf31a0af5e7da12f	4	1	main_slash	11	main_slash	97	stimuli_distractor_diamondtriangles.svg	stimuli_distractor_diamondtriangles.svg	40	no	0	1	2000	0	0			0	0			1				0	
6.6.1	win	2023-06-13	07:52:31	08:05:08	727264	63f7e5adcf31a0af5e7da12f	4	1	main_slash	11	advance_on_keypress_SLASH	98	stimuli_distractor_diamondtriangles.svg	stimuli_distractor_diamondtriangles.svg	40	no	57	0	410	0	0			0	0			1				0	
6.6.1	win	2023-06-13	07:52:31	08:05:09	728875	63f7e5adcf31a0af5e7da12f	4	1	main_slash	11	main_slash	99	stimuli_target_squarediamonds.svg	stimuli_distractor_trianglediamonds.svg	4	yes	53	1	553	0	0			0	0			1				0	
6.6.1	win	2023-06-13	07:52:31	08:05:09	728875	63f7e5adcf31a0af5e7da12f	4	1	main_slash	11	advance_on_keypress_SLASH	100	stimuli_target_squarediamonds.svg	stimuli_distractor_trianglediamonds.svg	4	yes	57	0	434	0	0			0	0			1				0	
6.6.1	win	2023-06-13	07:52:31	08:05:11	730637	63f7e5adcf31a0af5e7da12f	4	1	main_slash	11	main_slash	101	stimuli_target_diamondsquares.svg	stimuli_distractor_trianglediamonds.svg	20	yes	53	1	688	0	0			0	0			1				0	
6.6.1	win	2023-06-13	07:52:31	08:05:11	730637	63f7e5adcf31a0af5e7da12f	4	1	main_slash	11	advance_on_keypress_SLASH	102	stimuli_target_diamondsquares.svg	stimuli_distractor_trianglediamonds.svg	20	yes	57	0	236	0	0			0	0			1				0	
6.6.1	win	2023-06-13	07:52:31	08:05:12	732062	63f7e5adcf31a0af5e7da12f	4	1	main_slash	11	main_slash	103	stimuli_distractor_diamondtriangles.svg	stimuli_target_squarediamonds.svg	16	yes	53	1	537	0	0			0	0			1				0	
6.6.1	win	2023-06-13	07:52:31	08:05:12	732062	63f7e5adcf31a0af5e7da12f	4	1	main_slash	11	advance_on_keypress_SLASH	104	stimuli_distractor_diamondtriangles.svg	stimuli_target_squarediamonds.svg	16	yes	57	0	219	0	0			0	0			1				0	
6.6.1	win	2023-06-13	07:52:31	08:05:14	733405	63f7e5adcf31a0af5e7da12f	4	1	main_slash	11	main_slash	105	stimuli_distractor_trianglediamonds.svg	stimuli_target_squarediamonds.svg	12	yes	53	1	489	0	0			0	0			1				0	
6.6.1	win	2023-06-13	07:52:31	08:05:14	733405	63f7e5adcf31a0af5e7da12f	4	1	main_slash	11	advance_on_keypress_SLASH	106	stimuli_distractor_trianglediamonds.svg	stimuli_target_squarediamonds.svg	12	yes	57	0	165	0	0			0	0			1				0	
6.6.1	win	2023-06-13	07:52:31	08:05:16	736217	63f7e5adcf31a0af5e7da12f	4	1	main_slash	11	main_slash	107	stimuli_distractor_diamondtriangles.svg	stimuli_target_diamondsquares.svg	32	yes	0	0	2000	0	0			0	0			1				0	
6.6.1	win	2023-06-13	07:52:31	08:05:16	736217	63f7e5adcf31a0af5e7da12f	4	1	main_slash	11	advance_on_keypress_SLASH	108	stimuli_distractor_diamondtriangles.svg	stimuli_target_diamondsquares.svg	32	yes	57	0	332	0	0			0	0			1				0	
6.6.1	win	2023-06-13	07:52:31	08:05:19	739201	63f7e5adcf31a0af5e7da12f	4	1	main_slash	11	main_slash	109	stimuli_distractor_trianglediamonds.svg	stimuli_distractor_trianglediamonds.svg	34	no	0	1	2000	0	0			0	0			1				0	
6.6.1	win	2023-06-13	07:52:31	08:05:19	739201	63f7e5adcf31a0af5e7da12f	4	1	main_slash	11	advance_on_keypress_SLASH	110	stimuli_distractor_trianglediamonds.svg	stimuli_distractor_trianglediamonds.svg	34	no	57	0	341	0	0			0	0			1				0	
6.6.1	win	2023-06-13	07:52:31	08:05:22	742201	63f7e5adcf31a0af5e7da12f	4	1	main_slash	11	main_slash	111	stimuli_distractor_diamondtriangles.svg	stimuli_distractor_trianglediamonds.svg	37	no	0	1	2000	0	0			0	0			1				0	
6.6.1	win	2023-06-13	07:52:31	08:05:22	742201	63f7e5adcf31a0af5e7da12f	4	1	main_slash	11	advance_on_keypress_SLASH	112	stimuli_distractor_diamondtriangles.svg	stimuli_distractor_trianglediamonds.svg	37	no	57	0	317	0	0			0	0			1				0	
6.6.1	win	2023-06-13	07:52:31	08:05:24	743950	63f7e5adcf31a0af5e7da12f	4	1	main_slash	11	main_slash	113	stimuli_target_diamondsquares.svg	stimuli_distractor_diamondtriangles.svg	24	yes	53	1	783	0	0			0	0			1				0	
6.6.1	win	2023-06-13	07:52:31	08:05:24	743950	63f7e5adcf31a0af5e7da12f	4	1	main_slash	11	advance_on_keypress_SLASH	114	stimuli_target_diamondsquares.svg	stimuli_distractor_diamondtriangles.svg	24	yes	57	0	791	0	0			0	0			1				0	
6.6.1	win	2023-06-13	07:52:31	08:05:26	745995	63f7e5adcf31a0af5e7da12f	4	1	main_slash	11	main_slash	115	stimuli_distractor_diamondtriangles.svg	stimuli_target_rectangletriangles.svg	13	yes	53	1	581	0	0			0	0			1				0	
6.6.1	win	2023-06-13	07:52:31	08:05:26	745995	63f7e5adcf31a0af5e7da12f	4	1	main_slash	11	advance_on_keypress_SLASH	116	stimuli_distractor_diamondtriangles.svg	stimuli_target_rectangletriangles.svg	13	yes	57	0	301	0	0			0	0			1				0	
6.6.1	win	2023-06-13	07:52:31	08:05:28	747434	63f7e5adcf31a0af5e7da12f	4	1	main_slash	11	main_slash	117	stimuli_distractor_trianglediamonds.svg	stimuli_target_rectanglediamonds.svg	10	yes	53	1	496	0	0			0	0			1				0	
6.6.1	win	2023-06-13	07:52:31	08:05:28	747434	63f7e5adcf31a0af5e7da12f	4	1	main_slash	11	advance_on_keypress_SLASH	118	stimuli_distractor_trianglediamonds.svg	stimuli_target_rectanglediamonds.svg	10	yes	57	0	211	0	0			0	0			1				0	
6.6.1	win	2023-06-13	07:52:31	08:05:30	749616	63f7e5adcf31a0af5e7da12f	4	1	main_slash	11	main_slash	119	stimuli_target_trianglesquares.svg	stimuli_distractor_diamondtriangles.svg	22	yes	53	1	1313	0	0			0	0			1				0	
6.6.1	win	2023-06-13	07:52:31	08:05:30	749616	63f7e5adcf31a0af5e7da12f	4	1	main_slash	11	advance_on_keypress_SLASH	120	stimuli_target_trianglesquares.svg	stimuli_distractor_diamondtriangles.svg	22	yes	57	0	388	0	0			0	0			1				0	
6.6.1	win	2023-06-13	07:52:31	08:05:33	752681	63f7e5adcf31a0af5e7da12f	4	1	main_slash	11	main_slash	121	stimuli_distractor_diamondtriangles.svg	stimuli_target_trianglerectangles.svg	29	yes	0	0	2000	0	0			0	0			1				0	
6.6.1	win	2023-06-13	07:52:31	08:05:33	752681	63f7e5adcf31a0af5e7da12f	4	1	main_slash	11	advance_on_keypress_SLASH	122	stimuli_distractor_diamondtriangles.svg	stimuli_target_trianglerectangles.svg	29	yes	57	0	601	0	0			0	0			1				0	
6.6.1	win	2023-06-13	07:52:31	08:05:35	755081	63f7e5adcf31a0af5e7da12f	4	1	main_slash	11	main_slash	123	stimuli_target_diamondrectangles.svg	stimuli_distractor_trianglediamonds.svg	19	yes	53	1	1136	0	0			0	0			1				0	
6.6.1	win	2023-06-13	07:52:31	08:05:35	755081	63f7e5adcf31a0af5e7da12f	4	1	main_slash	11	advance_on_keypress_SLASH	124	stimuli_target_diamondrectangles.svg	stimuli_distractor_trianglediamonds.svg	19	yes	57	0	480	0	0			0	0			1				0	
6.6.1	win	2023-06-13	07:52:31	08:05:37	756830	63f7e5adcf31a0af5e7da12f	4	1	main_slash	11	main_slash	125	stimuli_target_rectanglediamonds.svg	stimuli_distractor_trianglediamonds.svg	2	yes	53	1	612	0	0			0	0			1				0	
6.6.1	win	2023-06-13	07:52:31	08:05:37	756830	63f7e5adcf31a0af5e7da12f	4	1	main_slash	11	advance_on_keypress_SLASH	126	stimuli_target_rectanglediamonds.svg	stimuli_distractor_trianglediamonds.svg	2	yes	57	0	292	0	0			0	0			1				0	
6.6.1	win	2023-06-13	07:52:31	08:05:39	758382	63f7e5adcf31a0af5e7da12f	4	1	main_slash	11	main_slash	127	stimuli_target_rectanglediamonds.svg	stimuli_distractor_diamondtriangles.svg	6	yes	53	1	631	0	0			0	0			1				0	
6.6.1	win	2023-06-13	07:52:31	08:05:39	758382	63f7e5adcf31a0af5e7da12f	4	1	main_slash	11	advance_on_keypress_SLASH	128	stimuli_target_rectanglediamonds.svg	stimuli_distractor_diamondtriangles.svg	6	yes	57	0	229	0	0			0	0			1				0	
6.6.1	win	2023-06-13	07:52:31	08:05:40	759639	63f7e5adcf31a0af5e7da12f	4	1	main_slash	11	main_slash	129	stimuli_target_rectangletriangles.svg	stimuli_distractor_trianglediamonds.svg	1	yes	53	1	376	0	0			0	0			1				0	
6.6.1	win	2023-06-13	07:52:31	08:05:40	759639	63f7e5adcf31a0af5e7da12f	4	1	main_slash	11	advance_on_keypress_SLASH	130	stimuli_target_rectangletriangles.svg	stimuli_distractor_trianglediamonds.svg	1	yes	57	0	195	0	0			0	0			1				0	
6.6.1	win	2023-06-13	07:52:31	08:05:42	761461	63f7e5adcf31a0af5e7da12f	4	1	main_slash	11	main_slash	131	stimuli_distractor_diamondtriangles.svg	stimuli_target_trianglesquares.svg	30	yes	53	1	977	0	0			0	0			1				0	
6.6.1	win	2023-06-13	07:52:31	08:05:42	761461	63f7e5adcf31a0af5e7da12f	4	1	main_slash	11	advance_on_keypress_SLASH	132	stimuli_distractor_diamondtriangles.svg	stimuli_target_trianglesquares.svg	30	yes	57	0	218	0	0			0	0			1				0	
6.6.1	win	2023-06-13	07:52:31	08:05:45	764345	63f7e5adcf31a0af5e7da12f	4	1	main_slash	11	main_slash	133	stimuli_distractor_diamondtriangles.svg	stimuli_distractor_trianglediamonds.svg	38	no	0	1	2000	0	0			0	0			1				0	
6.6.1	win	2023-06-13	07:52:31	08:05:45	764345	63f7e5adcf31a0af5e7da12f	4	1	main_slash	11	advance_on_keypress_SLASH	134	stimuli_distractor_diamondtriangles.svg	stimuli_distractor_trianglediamonds.svg	38	no	57	0	319	0	0			0	0			1				0	
6.6.1	win	2023-06-13	07:52:31	08:05:48	767331	63f7e5adcf31a0af5e7da12f	4	1	main_slash	11	main_slash	135	stimuli_target_trianglerectangles.svg	stimuli_distractor_trianglediamonds.svg	17	yes	0	0	2000	0	0			0	0			1				0	
6.6.1	win	2023-06-13	07:52:31	08:05:48	767331	63f7e5adcf31a0af5e7da12f	4	1	main_slash	11	advance_on_keypress_SLASH	136	stimuli_target_trianglerectangles.svg	stimuli_distractor_trianglediamonds.svg	17	yes	57	0	431	0	0			0	0			1				0	
6.6.1	win	2023-06-13	07:52:31	08:05:49	769189	63f7e5adcf31a0af5e7da12f	4	1	main_slash	11	main_slash	137	stimuli_distractor_diamondtriangles.svg	stimuli_target_squaretriangles.svg	15	yes	53	1	772	0	0			0	0			1				0	
6.6.1	win	2023-06-13	07:52:31	08:05:49	769189	63f7e5adcf31a0af5e7da12f	4	1	main_slash	11	advance_on_keypress_SLASH	138	stimuli_distractor_diamondtriangles.svg	stimuli_target_squaretriangles.svg	15	yes	57	0	285	0	0			0	0			1				0	
6.6.1	win	2023-06-13	07:52:31	08:05:51	771061	63f7e5adcf31a0af5e7da12f	4	1	main_slash	11	main_slash	139	stimuli_distractor_trianglediamonds.svg	stimuli_distractor_diamondtriangles.svg	36	no	53	0	944	0	0			0	0			1				0	
6.6.1	win	2023-06-13	07:52:31	08:05:51	771061	63f7e5adcf31a0af5e7da12f	4	1	main_slash	11	advance_on_keypress_SLASH	140	stimuli_distractor_trianglediamonds.svg	stimuli_distractor_diamondtriangles.svg	36	no	57	0	602	0	0			0	0			1				0	
6.6.1	win	2023-06-13	07:52:31	08:05:55	774302	63f7e5adcf31a0af5e7da12f	4	1	main_slash	11	main_slash	141	stimuli_distractor_trianglediamonds.svg	stimuli_target_trianglerectangles.svg	25	yes	0	0	2000	0	0			0	0			1				0	
6.6.1	win	2023-06-13	07:52:31	08:05:55	774302	63f7e5adcf31a0af5e7da12f	4	1	main_slash	11	advance_on_keypress_SLASH	142	stimuli_distractor_trianglediamonds.svg	stimuli_target_trianglerectangles.svg	25	yes	57	0	320	0	0			0	0			1				0	
6.6.1	win	2023-06-13	07:52:31	08:05:56	775827	63f7e5adcf31a0af5e7da12f	4	1	main_slash	11	main_slash	143	stimuli_distractor_diamondtriangles.svg	stimuli_target_rectanglediamonds.svg	14	yes	53	1	537	0	0			0	0			1				0	
6.6.1	win	2023-06-13	07:52:31	08:05:56	775827	63f7e5adcf31a0af5e7da12f	4	1	main_slash	11	advance_on_keypress_SLASH	144	stimuli_distractor_diamondtriangles.svg	stimuli_target_rectanglediamonds.svg	14	yes	57	0	322	0	0			0	0			1				0	
6.6.1	win	2023-06-13	07:52:31	08:05:58	777374	63f7e5adcf31a0af5e7da12f	4	1	main_slash	11	main_slash	145	stimuli_target_squarediamonds.svg	stimuli_distractor_diamondtriangles.svg	8	yes	53	1	564	0	0			0	0			1				0	
6.6.1	win	2023-06-13	07:52:31	08:05:58	777374	63f7e5adcf31a0af5e7da12f	4	1	main_slash	11	advance_on_keypress_SLASH	146	stimuli_target_squarediamonds.svg	stimuli_distractor_diamondtriangles.svg	8	yes	57	0	357	0	0			0	0			1				0	
6.6.1	win	2023-06-13	07:52:31	08:06:00	779913	63f7e5adcf31a0af5e7da12f	4	1	main_slash	11	main_slash	147	stimuli_target_trianglesquares.svg	stimuli_distractor_trianglediamonds.svg	18	yes	53	1	1542	0	0			0	0			1				0	
6.6.1	win	2023-06-13	07:52:31	08:06:00	779913	63f7e5adcf31a0af5e7da12f	4	1	main_slash	11	advance_on_keypress_SLASH	148	stimuli_target_trianglesquares.svg	stimuli_distractor_trianglediamonds.svg	18	yes	57	0	480	0	0			0	0			1				0	
6.6.1	win	2023-06-13	07:52:31	08:06:02	782077	63f7e5adcf31a0af5e7da12f	4	1	main_slash	11	main_slash	149	stimuli_distractor_trianglediamonds.svg	stimuli_target_trianglesquares.svg	26	yes	53	1	1043	0	0			0	0			1				0	
6.6.1	win	2023-06-13	07:52:31	08:06:02	782077	63f7e5adcf31a0af5e7da12f	4	1	main_slash	11	advance_on_keypress_SLASH	150	stimuli_distractor_trianglediamonds.svg	stimuli_target_trianglesquares.svg	26	yes	57	0	360	0	0			0	0			1				0	
6.6.1	win	2023-06-13	07:52:31	08:06:05	785085	63f7e5adcf31a0af5e7da12f	4	1	main_slash	11	main_slash	151	stimuli_distractor_diamondtriangles.svg	stimuli_distractor_diamondtriangles.svg	39	no	0	1	2000	0	0			0	0			1				0	
6.6.1	win	2023-06-13	07:52:31	08:06:05	785085	63f7e5adcf31a0af5e7da12f	4	1	main_slash	11	advance_on_keypress_SLASH	152	stimuli_distractor_diamondtriangles.svg	stimuli_distractor_diamondtriangles.svg	39	no	57	0	352	0	0			0	0			1				0	
6.6.1	win	2023-06-13	07:52:31	08:06:07	786660	63f7e5adcf31a0af5e7da12f	4	1	main_slash	11	main_slash	153	stimuli_distractor_trianglediamonds.svg	stimuli_target_rectangletriangles.svg	9	yes	53	1	544	0	0			0	0			1				0	
6.6.1	win	2023-06-13	07:52:31	08:06:07	786660	63f7e5adcf31a0af5e7da12f	4	1	main_slash	11	advance_on_keypress_SLASH	154	stimuli_distractor_trianglediamonds.svg	stimuli_target_rectangletriangles.svg	9	yes	57	0	208	0	0			0	0			1				0	
6.6.1	win	2023-06-13	07:52:31	08:06:09	788317	63f7e5adcf31a0af5e7da12f	4	1	main_slash	11	main_slash	155	stimuli_distractor_trianglediamonds.svg	stimuli_target_diamondrectangles.svg	27	yes	53	1	799	0	0			0	0			1				0	
6.6.1	win	2023-06-13	07:52:31	08:06:09	788317	63f7e5adcf31a0af5e7da12f	4	1	main_slash	11	advance_on_keypress_SLASH	156	stimuli_distractor_trianglediamonds.svg	stimuli_target_diamondrectangles.svg	27	yes	57	0	535	0	0			0	0			1				0	
6.6.1	win	2023-06-13	07:52:31	08:06:12	791531	63f7e5adcf31a0af5e7da12f	4	1	main_slash	11	main_slash	157	stimuli_distractor_trianglediamonds.svg	stimuli_distractor_diamondtriangles.svg	35	no	0	1	2000	0	0			0	0			1				0	
6.6.1	win	2023-06-13	07:52:31	08:06:12	791531	63f7e5adcf31a0af5e7da12f	4	1	main_slash	11	advance_on_keypress_SLASH	158	stimuli_distractor_trianglediamonds.svg	stimuli_distractor_diamondtriangles.svg	35	no	57	0	679	0	0			0	0			1				0	
6.6.1	win	2023-06-13	07:52:31	08:06:14	793357	63f7e5adcf31a0af5e7da12f	4	1	main_slash	11	main_slash	159	stimuli_target_squaretriangles.svg	stimuli_distractor_trianglediamonds.svg	3	yes	53	1	497	0	0			0	0			1				0	
6.6.1	win	2023-06-13	07:52:31	08:06:14	793357	63f7e5adcf31a0af5e7da12f	4	1	main_slash	11	advance_on_keypress_SLASH	160	stimuli_target_squaretriangles.svg	stimuli_distractor_trianglediamonds.svg	3	yes	57	0	292	0	0			0	0			1				0	
6.6.1	win	2023-06-13	07:52:31	08:06:14	793357	63f7e5adcf31a0af5e7da12f	4	1	headphonecheck_calibration	14	headphonecheck_calibrationIntro	1	stimuli_target_squaretriangles.svg	stimuli_distractor_trianglediamonds.svg	3	yes	calibrationButton	0	5884	0	0			0	0			1				0	
6.6.1	win	2023-06-13	07:52:31	08:06:14	793357	63f7e5adcf31a0af5e7da12f	4	1	headphonecheck_testphase	15	test_collectResponse	3	stimuli_target_squaretriangles.svg	stimuli_distractor_trianglediamonds.svg	3	yes	third	1	622	1	2	antiphase_hc_ios.wav	3	0	0			1				0	
6.6.1	win	2023-06-13	07:52:31	08:06:14	793357	63f7e5adcf31a0af5e7da12f	4	1	headphonecheck_testphase	15	test_collectResponse	6	stimuli_target_squaretriangles.svg	stimuli_distractor_trianglediamonds.svg	3	yes	first	0	2700	2	6	antiphase_hc_ois.wav	3	0	0			1				0	
6.6.1	win	2023-06-13	07:52:31	08:06:14	793357	63f7e5adcf31a0af5e7da12f	4	1	headphonecheck_testphase	15	test_collectResponse	9	stimuli_target_squaretriangles.svg	stimuli_distractor_trianglediamonds.svg	3	yes	second	1	1095	3	1	antiphase_hc_iso.wav	2	0	0			1				0	
6.6.1	win	2023-06-13	07:52:31	08:06:14	793357	63f7e5adcf31a0af5e7da12f	4	1	headphonecheck_testphase	15	test_collectResponse	12	stimuli_target_squaretriangles.svg	stimuli_distractor_trianglediamonds.svg	3	yes	first	1	3839	4	3	antiphase_hc_soi.wav	1	0	0			1				0	
6.6.1	win	2023-06-13	07:52:31	08:06:14	793357	63f7e5adcf31a0af5e7da12f	4	1	headphonecheck_testphase	15	test_collectResponse	15	stimuli_target_squaretriangles.svg	stimuli_distractor_trianglediamonds.svg	3	yes	first	1	470	5	4	antiphase_hc_sio.wav	1	0	0			1				0	
6.6.1	win	2023-06-13	07:52:31	08:06:14	793357	63f7e5adcf31a0af5e7da12f	4	1	headphonecheck_testphase	15	test_collectResponse	18	stimuli_target_squaretriangles.svg	stimuli_distractor_trianglediamonds.svg	3	yes	first	0	707	6	5	antiphase_hc_osi.wav	2	0	0			1				0	
6.6.1	win	2023-06-13	07:52:31	08:06:14	793357	63f7e5adcf31a0af5e7da12f	4	1	stereocheck_calibration	17	stereocheck_calibrationIntro	1	stimuli_target_squaretriangles.svg	stimuli_distractor_trianglediamonds.svg	3	yes	stereocheck_calibrationButton	0	9740	6	5	antiphase_hc_osi.wav	2	0	0			1				0	
6.6.1	win	2023-06-13	07:52:31	08:06:14	793357	63f7e5adcf31a0af5e7da12f	4	1	stereocheck_testphase	18	stereocheck_test_collectResponse	3	stimuli_target_squaretriangles.svg	stimuli_distractor_trianglediamonds.svg	3	yes	stereocheck_left	1	1418	6	5	antiphase_hc_osi.wav	2	1	3	noise_calib_stim_LEFT.wav	1	1				0	
6.6.1	win	2023-06-13	07:52:31	08:06:14	793357	63f7e5adcf31a0af5e7da12f	4	1	stereocheck_testphase	18	stereocheck_test_collectResponse	6	stimuli_target_squaretriangles.svg	stimuli_distractor_trianglediamonds.svg	3	yes	stereocheck_right	1	224	6	5	antiphase_hc_osi.wav	2	2	4	noise_calib_stim_RIGHT.wav	2	1				0	
6.6.1	win	2023-06-13	07:52:31	08:06:14	793357	63f7e5adcf31a0af5e7da12f	4	1	stereocheck_testphase	18	stereocheck_test_collectResponse	9	stimuli_target_squaretriangles.svg	stimuli_distractor_trianglediamonds.svg	3	yes	stereocheck_right	1	93	6	5	antiphase_hc_osi.wav	2	3	6	noise_calib_stim_RIGHT.wav	2	1				0	
6.6.1	win	2023-06-13	07:52:31	08:06:14	793357	63f7e5adcf31a0af5e7da12f	4	1	stereocheck_testphase	18	stereocheck_test_collectResponse	12	stimuli_target_squaretriangles.svg	stimuli_distractor_trianglediamonds.svg	3	yes	stereocheck_left	1	87	6	5	antiphase_hc_osi.wav	2	4	1	noise_calib_stim_LEFT.wav	1	1				0	
6.6.1	win	2023-06-13	07:52:31	08:06:14	793357	63f7e5adcf31a0af5e7da12f	4	1	stereocheck_testphase	18	stereocheck_test_collectResponse	15	stimuli_target_squaretriangles.svg	stimuli_distractor_trianglediamonds.svg	3	yes	stereocheck_right	1	200	6	5	antiphase_hc_osi.wav	2	5	5	noise_calib_stim_RIGHT.wav	2	1				0	
6.6.1	win	2023-06-13	07:52:31	08:06:14	793357	63f7e5adcf31a0af5e7da12f	4	1	stereocheck_testphase	18	stereocheck_test_collectResponse	18	stimuli_target_squaretriangles.svg	stimuli_distractor_trianglediamonds.svg	3	yes	stereocheck_left	1	571	6	5	antiphase_hc_osi.wav	2	6	2	noise_calib_stim_LEFT.wav	1	1				0	
6.6.1	win	2023-06-13	07:52:31	08:06:14	793357	63f7e5adcf31a0af5e7da12f	4	1	DL_practice	21	DL_practice	2	stimuli_target_squaretriangles.svg	stimuli_distractor_trianglediamonds.svg	3	yes	ta	1	2235	6	5	antiphase_hc_osi.wav	2	6	2	noise_calib_stim_LEFT.wav	1	36	blb_dichoticlistening_ta-ta.mp3	ta	ta	0	left
6.6.1	win	2023-06-13	07:52:31	08:06:14	793357	63f7e5adcf31a0af5e7da12f	4	1	DL_practice	21	DL_practice	3	stimuli_target_squaretriangles.svg	stimuli_distractor_trianglediamonds.svg	3	yes	ka	1	1143	6	5	antiphase_hc_osi.wav	2	6	2	noise_calib_stim_LEFT.wav	1	23	blb_dichoticlistening_ka-pa.mp3	ka	pa	1	left
6.6.1	win	2023-06-13	07:52:31	08:06:14	793357	63f7e5adcf31a0af5e7da12f	4	1	DL_practice	21	DL_practice	4	stimuli_target_squaretriangles.svg	stimuli_distractor_trianglediamonds.svg	3	yes	ba	1	1216	6	5	antiphase_hc_osi.wav	2	6	2	noise_calib_stim_LEFT.wav	1	7	blb_dichoticlistening_da-ba.mp3	da	ba	1	right
6.6.1	win	2023-06-13	07:52:31	08:06:14	793357	63f7e5adcf31a0af5e7da12f	4	1	DL_practice	21	DL_practice	5	stimuli_target_squaretriangles.svg	stimuli_distractor_trianglediamonds.svg	3	yes	ba	1	1043	6	5	antiphase_hc_osi.wav	2	6	2	noise_calib_stim_LEFT.wav	1	1	blb_dichoticlistening_ba-ba.mp3	ba	ba	0	left
6.6.1	win	2023-06-13	07:52:31	08:06:14	793357	63f7e5adcf31a0af5e7da12f	4	1	DL_practice	21	DL_practice	6	stimuli_target_squaretriangles.svg	stimuli_distractor_trianglediamonds.svg	3	yes	ga	1	742	6	5	antiphase_hc_osi.wav	2	6	2	noise_calib_stim_LEFT.wav	1	18	blb_dichoticlistening_ga-ta.mp3	ga	ta	1	left
6.6.1	win	2023-06-13	07:52:31	08:06:14	793357	63f7e5adcf31a0af5e7da12f	4	1	DL_practice	21	DL_practice	7	stimuli_target_squaretriangles.svg	stimuli_distractor_trianglediamonds.svg	3	yes	da	1	1228	6	5	antiphase_hc_osi.wav	2	6	2	noise_calib_stim_LEFT.wav	1	8	blb_dichoticlistening_da-da.mp3	da	da	0	left
6.6.1	win	2023-06-13	07:52:31	08:06:14	793357	63f7e5adcf31a0af5e7da12f	4	1	DL_practice	21	DL_practice	8	stimuli_target_squaretriangles.svg	stimuli_distractor_trianglediamonds.svg	3	yes	ka	1	866	6	5	antiphase_hc_osi.wav	2	6	2	noise_calib_stim_LEFT.wav	1	22	blb_dichoticlistening_ka-ka.mp3	ka	ka	0	left
6.6.1	win	2023-06-13	07:52:31	08:06:14	793357	63f7e5adcf31a0af5e7da12f	4	1	DL_practice	21	DL_practice	9	stimuli_target_squaretriangles.svg	stimuli_distractor_trianglediamonds.svg	3	yes	pa	1	779	6	5	antiphase_hc_osi.wav	2	6	2	noise_calib_stim_LEFT.wav	1	29	blb_dichoticlistening_pa-pa.mp3	pa	pa	0	left
6.6.1	win	2023-06-13	07:52:31	08:06:14	793357	63f7e5adcf31a0af5e7da12f	4	1	DL_practice	21	DL_practice	10	stimuli_target_squaretriangles.svg	stimuli_distractor_trianglediamonds.svg	3	yes	ga	1	620	6	5	antiphase_hc_osi.wav	2	6	2	noise_calib_stim_LEFT.wav	1	15	blb_dichoticlistening_ga-ga.mp3	ga	ga	0	left
6.6.1	win	2023-06-13	07:52:31	08:06:14	793357	63f7e5adcf31a0af5e7da12f	4	1	DL_test	23	DL_test	1	stimuli_target_squaretriangles.svg	stimuli_distractor_trianglediamonds.svg	3	yes	ta	1	1751	6	5	antiphase_hc_osi.wav	2	6	2	noise_calib_stim_LEFT.wav	1	35	blb_dichoticlistening_ta-pa.mp3	ta	pa	1	left
6.6.1	win	2023-06-13	07:52:31	08:06:14	793357	63f7e5adcf31a0af5e7da12f	4	1	DL_test	23	DL_test	2	stimuli_target_squaretriangles.svg	stimuli_distractor_trianglediamonds.svg	3	yes	ga	1	602	6	5	antiphase_hc_osi.wav	2	6	2	noise_calib_stim_LEFT.wav	1	14	blb_dichoticlistening_ga-da.mp3	ga	da	1	left
6.6.1	win	2023-06-13	07:52:31	08:06:14	793357	63f7e5adcf31a0af5e7da12f	4	1	DL_test	23	DL_test	3	stimuli_target_squaretriangles.svg	stimuli_distractor_trianglediamonds.svg	3	yes	da	1	797	6	5	antiphase_hc_osi.wav	2	6	2	noise_calib_stim_LEFT.wav	1	26	blb_dichoticlistening_pa-da.mp3	pa	da	1	right
6.6.1	win	2023-06-13	07:52:31	08:06:14	793357	63f7e5adcf31a0af5e7da12f	4	1	DL_test	23	DL_test	4	stimuli_target_squaretriangles.svg	stimuli_distractor_trianglediamonds.svg	3	yes	ga	1	1003	6	5	antiphase_hc_osi.wav	2	6	2	noise_calib_stim_LEFT.wav	1	21	blb_dichoticlistening_ka-ga.mp3	ka	ga	1	right
6.6.1	win	2023-06-13	07:52:31	08:06:14	793357	63f7e5adcf31a0af5e7da12f	4	1	DL_test	23	DL_test	5	stimuli_target_squaretriangles.svg	stimuli_distractor_trianglediamonds.svg	3	yes	ka	1	1222	6	5	antiphase_hc_osi.wav	2	6	2	noise_calib_stim_LEFT.wav	1	34	blb_dichoticlistening_ta-ka.mp3	ta	ka	1	right
6.6.1	win	2023-06-13	07:52:31	08:06:14	793357	63f7e5adcf31a0af5e7da12f	4	1	DL_test	23	DL_test	6	stimuli_target_squaretriangles.svg	stimuli_distractor_trianglediamonds.svg	3	yes	ta	1	1185	6	5	antiphase_hc_osi.wav	2	6	2	noise_calib_stim_LEFT.wav	1	30	blb_dichoticlistening_pa-ta.mp3	pa	ta	1	right
6.6.1	win	2023-06-13	07:52:31	08:06:14	793357	63f7e5adcf31a0af5e7da12f	4	1	DL_test	23	DL_test	7	stimuli_target_squaretriangles.svg	stimuli_distractor_trianglediamonds.svg	3	yes	ka	1	1262	6	5	antiphase_hc_osi.wav	2	6	2	noise_calib_stim_LEFT.wav	1	23	blb_dichoticlistening_ka-pa.mp3	ka	pa	1	left
6.6.1	win	2023-06-13	07:52:31	08:06:14	793357	63f7e5adcf31a0af5e7da12f	4	1	DL_test	23	DL_test	8	stimuli_target_squaretriangles.svg	stimuli_distractor_trianglediamonds.svg	3	yes	ga	1	525	6	5	antiphase_hc_osi.wav	2	6	2	noise_calib_stim_LEFT.wav	1	18	blb_dichoticlistening_ga-ta.mp3	ga	ta	1	left
6.6.1	win	2023-06-13	07:52:31	08:06:14	793357	63f7e5adcf31a0af5e7da12f	4	1	DL_test	23	DL_test	9	stimuli_target_squaretriangles.svg	stimuli_distractor_trianglediamonds.svg	3	yes	ba	1	988	6	5	antiphase_hc_osi.wav	2	6	2	noise_calib_stim_LEFT.wav	1	2	blb_dichoticlistening_ba-da.mp3	ba	da	1	left
6.6.1	win	2023-06-13	07:52:31	08:06:14	793357	63f7e5adcf31a0af5e7da12f	4	1	DL_test	23	DL_test	10	stimuli_target_squaretriangles.svg	stimuli_distractor_trianglediamonds.svg	3	yes	ka	1	1347	6	5	antiphase_hc_osi.wav	2	6	2	noise_calib_stim_LEFT.wav	1	20	blb_dichoticlistening_ka-da.mp3	ka	da	1	left
6.6.1	win	2023-06-13	07:52:31	08:06:14	793357	63f7e5adcf31a0af5e7da12f	4	1	DL_test	23	DL_test	11	stimuli_target_squaretriangles.svg	stimuli_distractor_trianglediamonds.svg	3	yes	ga	1	1272	6	5	antiphase_hc_osi.wav	2	6	2	noise_calib_stim_LEFT.wav	1	9	blb_dichoticlistening_da-ga.mp3	da	ga	1	right
6.6.1	win	2023-06-13	07:52:31	08:06:14	793357	63f7e5adcf31a0af5e7da12f	4	1	DL_test	23	DL_test	12	stimuli_target_squaretriangles.svg	stimuli_distractor_trianglediamonds.svg	3	yes	da	0	1306	6	5	antiphase_hc_osi.wav	2	6	2	noise_calib_stim_LEFT.wav	1	31	blb_dichoticlistening_ta-ba.mp3	ta	ba	1	other
6.6.1	win	2023-06-13	07:52:31	08:06:14	793357	63f7e5adcf31a0af5e7da12f	4	1	DL_test	23	DL_test	13	stimuli_target_squaretriangles.svg	stimuli_distractor_trianglediamonds.svg	3	yes	ga	1	1105	6	5	antiphase_hc_osi.wav	2	6	2	noise_calib_stim_LEFT.wav	1	17	blb_dichoticlistening_ga-pa.mp3	ga	pa	1	left
6.6.1	win	2023-06-13	07:52:31	08:06:14	793357	63f7e5adcf31a0af5e7da12f	4	1	DL_test	23	DL_test	14	stimuli_target_squaretriangles.svg	stimuli_distractor_trianglediamonds.svg	3	yes	ba	1	676	6	5	antiphase_hc_osi.wav	2	6	2	noise_calib_stim_LEFT.wav	1	25	blb_dichoticlistening_pa-ba.mp3	pa	ba	1	right
6.6.1	win	2023-06-13	07:52:31	08:06:14	793357	63f7e5adcf31a0af5e7da12f	4	1	DL_test	23	DL_test	15	stimuli_target_squaretriangles.svg	stimuli_distractor_trianglediamonds.svg	3	yes	da	1	1119	6	5	antiphase_hc_osi.wav	2	6	2	noise_calib_stim_LEFT.wav	1	32	blb_dichoticlistening_ta-da.mp3	ta	da	1	right
6.6.1	win	2023-06-13	07:52:31	08:06:14	793357	63f7e5adcf31a0af5e7da12f	4	1	DL_test	23	DL_test	16	stimuli_target_squaretriangles.svg	stimuli_distractor_trianglediamonds.svg	3	yes	ba	1	1280	6	5	antiphase_hc_osi.wav	2	6	2	noise_calib_stim_LEFT.wav	1	5	blb_dichoticlistening_ba-pa.mp3	ba	pa	1	left
6.6.1	win	2023-06-13	07:52:31	08:06:14	793357	63f7e5adcf31a0af5e7da12f	4	1	DL_test	23	DL_test	17	stimuli_target_squaretriangles.svg	stimuli_distractor_trianglediamonds.svg	3	yes	da	1	1480	6	5	antiphase_hc_osi.wav	2	6	2	noise_calib_stim_LEFT.wav	1	10	blb_dichoticlistening_da-ka.mp3	da	ka	1	left
6.6.1	win	2023-06-13	07:52:31	08:06:14	793357	63f7e5adcf31a0af5e7da12f	4	1	DL_test	23	DL_test	18	stimuli_target_squaretriangles.svg	stimuli_distractor_trianglediamonds.svg	3	yes	ka	1	1058	6	5	antiphase_hc_osi.wav	2	6	2	noise_calib_stim_LEFT.wav	1	28	blb_dichoticlistening_pa-ka.mp3	pa	ka	1	right
6.6.1	win	2023-06-13	07:52:31	08:06:14	793357	63f7e5adcf31a0af5e7da12f	4	1	DL_test	23	DL_test	19	stimuli_target_squaretriangles.svg	stimuli_distractor_trianglediamonds.svg	3	yes	pa	0	1718	6	5	antiphase_hc_osi.wav	2	6	2	noise_calib_stim_LEFT.wav	1	19	blb_dichoticlistening_ka-ba.mp3	ka	ba	1	other
6.6.1	win	2023-06-13	07:52:31	08:06:14	793357	63f7e5adcf31a0af5e7da12f	4	1	DL_test	23	DL_test	20	stimuli_target_squaretriangles.svg	stimuli_distractor_trianglediamonds.svg	3	yes	da	1	942	6	5	antiphase_hc_osi.wav	2	6	2	noise_calib_stim_LEFT.wav	1	12	blb_dichoticlistening_da-ta.mp3	da	ta	1	left
6.6.1	win	2023-06-13	07:52:31	08:06:14	793357	63f7e5adcf31a0af5e7da12f	4	1	DL_test	23	DL_test	21	stimuli_target_squaretriangles.svg	stimuli_distractor_trianglediamonds.svg	3	yes	ba	1	724	6	5	antiphase_hc_osi.wav	2	6	2	noise_calib_stim_LEFT.wav	1	7	blb_dichoticlistening_da-ba.mp3	da	ba	1	right
6.6.1	win	2023-06-13	07:52:31	08:06:14	793357	63f7e5adcf31a0af5e7da12f	4	1	DL_test	23	DL_test	22	stimuli_target_squaretriangles.svg	stimuli_distractor_trianglediamonds.svg	3	yes	pa	1	833	6	5	antiphase_hc_osi.wav	2	6	2	noise_calib_stim_LEFT.wav	1	29	blb_dichoticlistening_pa-pa.mp3	pa	pa	0	left
6.6.1	win	2023-06-13	07:52:31	08:06:14	793357	63f7e5adcf31a0af5e7da12f	4	1	DL_test	23	DL_test	23	stimuli_target_squaretriangles.svg	stimuli_distractor_trianglediamonds.svg	3	yes	ba	1	1239	6	5	antiphase_hc_osi.wav	2	6	2	noise_calib_stim_LEFT.wav	1	1	blb_dichoticlistening_ba-ba.mp3	ba	ba	0	left
6.6.1	win	2023-06-13	07:52:31	08:06:14	793357	63f7e5adcf31a0af5e7da12f	4	1	DL_test	23	DL_test	24	stimuli_target_squaretriangles.svg	stimuli_distractor_trianglediamonds.svg	3	yes	ta	1	1388	6	5	antiphase_hc_osi.wav	2	6	2	noise_calib_stim_LEFT.wav	1	36	blb_dichoticlistening_ta-ta.mp3	ta	ta	0	left
6.6.1	win	2023-06-13	07:52:31	08:06:14	793357	63f7e5adcf31a0af5e7da12f	4	1	DL_test	23	DL_test	25	stimuli_target_squaretriangles.svg	stimuli_distractor_trianglediamonds.svg	3	yes	da	1	1358	6	5	antiphase_hc_osi.wav	2	6	2	noise_calib_stim_LEFT.wav	1	11	blb_dichoticlistening_da-pa.mp3	da	pa	1	left
6.6.1	win	2023-06-13	07:52:31	08:06:14	793357	63f7e5adcf31a0af5e7da12f	4	1	DL_test	23	DL_test	26	stimuli_target_squaretriangles.svg	stimuli_distractor_trianglediamonds.svg	3	yes	ba	1	631	6	5	antiphase_hc_osi.wav	2	6	2	noise_calib_stim_LEFT.wav	1	6	blb_dichoticlistening_ba-ta.mp3	ba	ta	1	left
