build	computer.platform	date	time	timestamp	time_elapsed_ms	subject	group	session	blockcode	blocknum	trialcode	trialnum	stimulus_left	stimulus_right	stim_index	target_present	response	correct	latency	headphonecheck_countTestTrials	headphonecheck_index	headphonecheck_testSound	headphonecheck_correctResponse	stereocheck_countTestTrials	stereocheck_index	stereocheck_testSound	stereocheck_correctResponse	DL_index	DL_soundfile	DL_leftSound	DL_rightSound	DL_dualSound	DL_choice
6.6.1	win	2023-06-02	08:44:18	08:50:10	343840	627809c52874925390a423a6	4	1	practice_z	5	practice_z	1	stimuli_distractor_trianglediamonds.svg	stimuli_target_rectanglediamonds.svg	10	yes	44	1	764	0	0			0	0			1				0	
6.6.1	win	2023-06-02	08:44:18	08:50:10	343840	627809c52874925390a423a6	4	1	practice_z	5	advance_on_keypress_ZEE	2	stimuli_distractor_trianglediamonds.svg	stimuli_target_rectanglediamonds.svg	10	yes	57	0	877	0	0			0	0			1				0	
6.6.1	win	2023-06-02	08:44:18	08:50:15	348391	627809c52874925390a423a6	4	1	practice_z	5	practice_z	3	stimuli_distractor_diamondtriangles.svg	stimuli_distractor_diamondtriangles.svg	13	no	0	1	2000	0	0			0	0			1				0	
6.6.1	win	2023-06-02	08:44:18	08:50:15	348391	627809c52874925390a423a6	4	1	practice_z	5	advance_on_keypress_ZEE	4	stimuli_distractor_diamondtriangles.svg	stimuli_distractor_diamondtriangles.svg	13	no	57	0	1118	0	0			0	0			1				0	
6.6.1	win	2023-06-02	08:44:18	08:50:19	352346	627809c52874925390a423a6	4	1	practice_z	5	practice_z	5	stimuli_distractor_diamondtriangles.svg	stimuli_target_trianglerectangles.svg	9	yes	44	1	1188	0	0			0	0			1				0	
6.6.1	win	2023-06-02	08:44:18	08:50:19	352346	627809c52874925390a423a6	4	1	practice_z	5	advance_on_keypress_ZEE	6	stimuli_distractor_diamondtriangles.svg	stimuli_target_trianglerectangles.svg	9	yes	57	0	905	0	0			0	0			1				0	
6.6.1	win	2023-06-02	08:44:18	08:50:23	356178	627809c52874925390a423a6	4	1	practice_z	5	practice_z	7	stimuli_target_squarediamonds.svg	stimuli_distractor_trianglediamonds.svg	5	yes	44	1	1258	0	0			0	0			1				0	
6.6.1	win	2023-06-02	08:44:18	08:50:23	356178	627809c52874925390a423a6	4	1	practice_z	5	advance_on_keypress_ZEE	8	stimuli_target_squarediamonds.svg	stimuli_distractor_trianglediamonds.svg	5	yes	57	0	477	0	0			0	0			1				0	
6.6.1	win	2023-06-02	08:44:18	08:50:26	359450	627809c52874925390a423a6	4	1	practice_z	5	practice_z	9	stimuli_target_diamondsquares.svg	stimuli_distractor_diamondtriangles.svg	3	yes	44	1	1141	0	0			0	0			1				0	
6.6.1	win	2023-06-02	08:44:18	08:50:26	359450	627809c52874925390a423a6	4	1	practice_z	5	advance_on_keypress_ZEE	10	stimuli_target_diamondsquares.svg	stimuli_distractor_diamondtriangles.svg	3	yes	57	0	521	0	0			0	0			1				0	
6.6.1	win	2023-06-02	08:44:18	08:50:30	363626	627809c52874925390a423a6	4	1	practice_z	5	practice_z	11	stimuli_distractor_trianglediamonds.svg	stimuli_distractor_diamondtriangles.svg	16	no	0	1	2000	0	0			0	0			1				0	
6.6.1	win	2023-06-02	08:44:18	08:50:30	363626	627809c52874925390a423a6	4	1	practice_z	5	advance_on_keypress_ZEE	12	stimuli_distractor_trianglediamonds.svg	stimuli_distractor_diamondtriangles.svg	16	no	57	0	598	0	0			0	0			1				0	
6.6.1	win	2023-06-02	08:44:18	08:50:34	367030	627809c52874925390a423a6	4	1	practice_z	5	practice_z	13	stimuli_target_squarediamonds.svg	stimuli_distractor_diamondtriangles.svg	2	yes	44	1	1157	0	0			0	0			1				0	
6.6.1	win	2023-06-02	08:44:18	08:50:34	367030	627809c52874925390a423a6	4	1	practice_z	5	advance_on_keypress_ZEE	14	stimuli_target_squarediamonds.svg	stimuli_distractor_diamondtriangles.svg	2	yes	57	0	473	0	0			0	0			1				0	
6.6.1	win	2023-06-02	08:44:18	08:50:37	370743	627809c52874925390a423a6	4	1	practice_z	5	practice_z	15	stimuli_target_diamondsquares.svg	stimuli_distractor_trianglediamonds.svg	6	yes	44	1	1585	0	0			0	0			1				0	
6.6.1	win	2023-06-02	08:44:18	08:50:37	370743	627809c52874925390a423a6	4	1	practice_z	5	advance_on_keypress_ZEE	16	stimuli_target_diamondsquares.svg	stimuli_distractor_trianglediamonds.svg	6	yes	57	0	660	0	0			0	0			1				0	
6.6.1	win	2023-06-02	08:44:18	08:50:41	374197	627809c52874925390a423a6	4	1	practice_z	5	practice_z	17	stimuli_distractor_diamondtriangles.svg	stimuli_target_diamondrectangles.svg	8	yes	44	1	1137	0	0			0	0			1				0	
6.6.1	win	2023-06-02	08:44:18	08:50:41	374197	627809c52874925390a423a6	4	1	practice_z	5	advance_on_keypress_ZEE	18	stimuli_distractor_diamondtriangles.svg	stimuli_target_diamondrectangles.svg	8	yes	57	0	435	0	0			0	0			1				0	
6.6.1	win	2023-06-02	08:44:18	08:50:45	378275	627809c52874925390a423a6	4	1	practice_z	5	practice_z	19	stimuli_distractor_diamondtriangles.svg	stimuli_distractor_trianglediamonds.svg	14	no	0	1	2000	0	0			0	0			1				0	
6.6.1	win	2023-06-02	08:44:18	08:50:45	378275	627809c52874925390a423a6	4	1	practice_z	5	advance_on_keypress_ZEE	20	stimuli_distractor_diamondtriangles.svg	stimuli_distractor_trianglediamonds.svg	14	no	57	0	767	0	0			0	0			1				0	
6.6.1	win	2023-06-02	08:44:18	08:50:48	381736	627809c52874925390a423a6	4	1	practice_z	5	practice_z	21	stimuli_distractor_trianglediamonds.svg	stimuli_target_diamondrectangles.svg	12	yes	44	1	1045	0	0			0	0			1				0	
6.6.1	win	2023-06-02	08:44:18	08:50:48	381736	627809c52874925390a423a6	4	1	practice_z	5	advance_on_keypress_ZEE	22	stimuli_distractor_trianglediamonds.svg	stimuli_target_diamondrectangles.svg	12	yes	57	0	647	0	0			0	0			1				0	
6.6.1	win	2023-06-02	08:44:18	08:50:52	385380	627809c52874925390a423a6	4	1	practice_z	5	practice_z	23	stimuli_distractor_diamondtriangles.svg	stimuli_target_rectangletriangles.svg	7	yes	44	1	1340	0	0			0	0			1				0	
6.6.1	win	2023-06-02	08:44:18	08:50:52	385380	627809c52874925390a423a6	4	1	practice_z	5	advance_on_keypress_ZEE	24	stimuli_distractor_diamondtriangles.svg	stimuli_target_rectangletriangles.svg	7	yes	57	0	507	0	0			0	0			1				0	
6.6.1	win	2023-06-02	08:44:18	08:50:56	389542	627809c52874925390a423a6	4	1	practice_z	5	practice_z	25	stimuli_distractor_trianglediamonds.svg	stimuli_target_squarediamonds.svg	11	yes	0	0	2000	0	0			0	0			1				0	
6.6.1	win	2023-06-02	08:44:18	08:50:56	389542	627809c52874925390a423a6	4	1	practice_z	5	advance_on_keypress_ZEE	26	stimuli_distractor_trianglediamonds.svg	stimuli_target_squarediamonds.svg	11	yes	57	0	808	0	0			0	0			1				0	
6.6.1	win	2023-06-02	08:44:18	08:51:00	393116	627809c52874925390a423a6	4	1	practice_z	5	practice_z	27	stimuli_target_rectanglediamonds.svg	stimuli_distractor_trianglediamonds.svg	4	yes	44	1	1125	0	0			0	0			1				0	
6.6.1	win	2023-06-02	08:44:18	08:51:00	393116	627809c52874925390a423a6	4	1	practice_z	5	advance_on_keypress_ZEE	28	stimuli_target_rectanglediamonds.svg	stimuli_distractor_trianglediamonds.svg	4	yes	57	0	360	0	0			0	0			1				0	
6.6.1	win	2023-06-02	08:44:18	08:51:04	397125	627809c52874925390a423a6	4	1	practice_z	5	practice_z	29	stimuli_distractor_trianglediamonds.svg	stimuli_distractor_trianglediamonds.svg	15	no	0	1	2000	0	0			0	0			1				0	
6.6.1	win	2023-06-02	08:44:18	08:51:04	397125	627809c52874925390a423a6	4	1	practice_z	5	advance_on_keypress_ZEE	30	stimuli_distractor_trianglediamonds.svg	stimuli_distractor_trianglediamonds.svg	15	no	57	0	814	0	0			0	0			1				0	
6.6.1	win	2023-06-02	08:44:18	08:51:07	400661	627809c52874925390a423a6	4	1	practice_z	5	practice_z	31	stimuli_target_rectanglediamonds.svg	stimuli_distractor_diamondtriangles.svg	1	yes	44	1	1070	0	0			0	0			1				0	
6.6.1	win	2023-06-02	08:44:18	08:51:07	400661	627809c52874925390a423a6	4	1	practice_z	5	advance_on_keypress_ZEE	32	stimuli_target_rectanglediamonds.svg	stimuli_distractor_diamondtriangles.svg	1	yes	57	0	453	0	0			0	0			1				0	
6.6.1	win	2023-06-02	08:44:18	08:51:30	423272	627809c52874925390a423a6	4	1	main_z	7	main_z	1	stimuli_distractor_trianglediamonds.svg	stimuli_distractor_trianglediamonds.svg	34	no	0	1	2000	0	0			0	0			1				0	
6.6.1	win	2023-06-02	08:44:18	08:51:30	423272	627809c52874925390a423a6	4	1	main_z	7	advance_on_keypress_ZEE	2	stimuli_distractor_trianglediamonds.svg	stimuli_distractor_trianglediamonds.svg	34	no	57	0	1323	0	0			0	0			1				0	
6.6.1	win	2023-06-02	08:44:18	08:51:33	426265	627809c52874925390a423a6	4	1	main_z	7	main_z	3	stimuli_distractor_diamondtriangles.svg	stimuli_target_squarediamonds.svg	16	yes	44	1	1025	0	0			0	0			1				0	
6.6.1	win	2023-06-02	08:44:18	08:51:33	426265	627809c52874925390a423a6	4	1	main_z	7	advance_on_keypress_ZEE	4	stimuli_distractor_diamondtriangles.svg	stimuli_target_squarediamonds.svg	16	yes	57	0	1279	0	0			0	0			1				0	
6.6.1	win	2023-06-02	08:44:18	08:51:36	428973	627809c52874925390a423a6	4	1	main_z	7	main_z	5	stimuli_distractor_trianglediamonds.svg	stimuli_target_rectangletriangles.svg	9	yes	44	1	784	0	0			0	0			1				0	
6.6.1	win	2023-06-02	08:44:18	08:51:36	428973	627809c52874925390a423a6	4	1	main_z	7	advance_on_keypress_ZEE	6	stimuli_distractor_trianglediamonds.svg	stimuli_target_rectangletriangles.svg	9	yes	57	0	1231	0	0			0	0			1				0	
6.6.1	win	2023-06-02	08:44:18	08:51:38	431659	627809c52874925390a423a6	4	1	main_z	7	main_z	7	stimuli_target_rectanglediamonds.svg	stimuli_distractor_diamondtriangles.svg	6	yes	44	1	802	0	0			0	0			1				0	
6.6.1	win	2023-06-02	08:44:18	08:51:38	431659	627809c52874925390a423a6	4	1	main_z	7	advance_on_keypress_ZEE	8	stimuli_target_rectanglediamonds.svg	stimuli_distractor_diamondtriangles.svg	6	yes	57	0	887	0	0			0	0			1				0	
6.6.1	win	2023-06-02	08:44:18	08:51:40	433663	627809c52874925390a423a6	4	1	main_z	7	main_z	9	stimuli_target_squarediamonds.svg	stimuli_distractor_trianglediamonds.svg	4	yes	44	1	473	0	0			0	0			1				0	
6.6.1	win	2023-06-02	08:44:18	08:51:40	433663	627809c52874925390a423a6	4	1	main_z	7	advance_on_keypress_ZEE	10	stimuli_target_squarediamonds.svg	stimuli_distractor_trianglediamonds.svg	4	yes	57	0	804	0	0			0	0			1				0	
6.6.1	win	2023-06-02	08:44:18	08:51:42	435733	627809c52874925390a423a6	4	1	main_z	7	main_z	11	stimuli_target_rectangletriangles.svg	stimuli_distractor_diamondtriangles.svg	5	yes	44	1	627	0	0			0	0			1				0	
6.6.1	win	2023-06-02	08:44:18	08:51:42	435733	627809c52874925390a423a6	4	1	main_z	7	advance_on_keypress_ZEE	12	stimuli_target_rectangletriangles.svg	stimuli_distractor_diamondtriangles.svg	5	yes	57	0	633	0	0			0	0			1				0	
6.6.1	win	2023-06-02	08:44:18	08:51:45	437976	627809c52874925390a423a6	4	1	main_z	7	main_z	13	stimuli_target_diamondrectangles.svg	stimuli_distractor_diamondtriangles.svg	23	yes	44	1	969	0	0			0	0			1				0	
6.6.1	win	2023-06-02	08:44:18	08:51:45	437976	627809c52874925390a423a6	4	1	main_z	7	advance_on_keypress_ZEE	14	stimuli_target_diamondrectangles.svg	stimuli_distractor_diamondtriangles.svg	23	yes	57	0	757	0	0			0	0			1				0	
6.6.1	win	2023-06-02	08:44:18	08:51:48	441372	627809c52874925390a423a6	4	1	main_z	7	main_z	15	stimuli_distractor_trianglediamonds.svg	stimuli_distractor_diamondtriangles.svg	36	no	0	1	2000	0	0			0	0			1				0	
6.6.1	win	2023-06-02	08:44:18	08:51:48	441372	627809c52874925390a423a6	4	1	main_z	7	advance_on_keypress_ZEE	16	stimuli_distractor_trianglediamonds.svg	stimuli_distractor_diamondtriangles.svg	36	no	57	0	555	0	0			0	0			1				0	
6.6.1	win	2023-06-02	08:44:18	08:51:50	443668	627809c52874925390a423a6	4	1	main_z	7	main_z	17	stimuli_distractor_trianglediamonds.svg	stimuli_target_diamondsquares.svg	28	yes	44	1	1095	0	0			0	0			1				0	
6.6.1	win	2023-06-02	08:44:18	08:51:50	443668	627809c52874925390a423a6	4	1	main_z	7	advance_on_keypress_ZEE	18	stimuli_distractor_trianglediamonds.svg	stimuli_target_diamondsquares.svg	28	yes	57	0	935	0	0			0	0			1				0	
6.6.1	win	2023-06-02	08:44:18	08:51:53	446289	627809c52874925390a423a6	4	1	main_z	7	main_z	19	stimuli_target_rectangletriangles.svg	stimuli_distractor_trianglediamonds.svg	1	yes	44	1	1033	0	0			0	0			1				0	
6.6.1	win	2023-06-02	08:44:18	08:51:53	446289	627809c52874925390a423a6	4	1	main_z	7	advance_on_keypress_ZEE	20	stimuli_target_rectangletriangles.svg	stimuli_distractor_trianglediamonds.svg	1	yes	57	0	834	0	0			0	0			1				0	
6.6.1	win	2023-06-02	08:44:18	08:51:55	448824	627809c52874925390a423a6	4	1	main_z	7	main_z	21	stimuli_target_diamondsquares.svg	stimuli_distractor_trianglediamonds.svg	20	yes	44	1	1051	0	0			0	0			1				0	
6.6.1	win	2023-06-02	08:44:18	08:51:55	448824	627809c52874925390a423a6	4	1	main_z	7	advance_on_keypress_ZEE	22	stimuli_target_diamondsquares.svg	stimuli_distractor_trianglediamonds.svg	20	yes	57	0	509	0	0			0	0			1				0	
6.6.1	win	2023-06-02	08:44:18	08:51:57	450902	627809c52874925390a423a6	4	1	main_z	7	main_z	23	stimuli_distractor_trianglediamonds.svg	stimuli_target_rectanglediamonds.svg	10	yes	44	1	929	0	0			0	0			1				0	
6.6.1	win	2023-06-02	08:44:18	08:51:57	450902	627809c52874925390a423a6	4	1	main_z	7	advance_on_keypress_ZEE	24	stimuli_distractor_trianglediamonds.svg	stimuli_target_rectanglediamonds.svg	10	yes	57	0	494	0	0			0	0			1				0	
6.6.1	win	2023-06-02	08:44:18	08:52:01	454056	627809c52874925390a423a6	4	1	main_z	7	main_z	25	stimuli_distractor_trianglediamonds.svg	stimuli_distractor_trianglediamonds.svg	33	no	0	1	2000	0	0			0	0			1				0	
6.6.1	win	2023-06-02	08:44:18	08:52:01	454056	627809c52874925390a423a6	4	1	main_z	7	advance_on_keypress_ZEE	26	stimuli_distractor_trianglediamonds.svg	stimuli_distractor_trianglediamonds.svg	33	no	57	0	529	0	0			0	0			1				0	
6.6.1	win	2023-06-02	08:44:18	08:52:03	456195	627809c52874925390a423a6	4	1	main_z	7	main_z	27	stimuli_target_squaretriangles.svg	stimuli_distractor_diamondtriangles.svg	7	yes	44	1	955	0	0			0	0			1				0	
6.6.1	win	2023-06-02	08:44:18	08:52:03	456195	627809c52874925390a423a6	4	1	main_z	7	advance_on_keypress_ZEE	28	stimuli_target_squaretriangles.svg	stimuli_distractor_diamondtriangles.svg	7	yes	57	0	557	0	0			0	0			1				0	
6.6.1	win	2023-06-02	08:44:18	08:52:06	459389	627809c52874925390a423a6	4	1	main_z	7	main_z	29	stimuli_distractor_trianglediamonds.svg	stimuli_distractor_diamondtriangles.svg	35	no	0	1	2000	0	0			0	0			1				0	
6.6.1	win	2023-06-02	08:44:18	08:52:06	459389	627809c52874925390a423a6	4	1	main_z	7	advance_on_keypress_ZEE	30	stimuli_distractor_trianglediamonds.svg	stimuli_distractor_diamondtriangles.svg	35	no	57	0	523	0	0			0	0			1				0	
6.6.1	win	2023-06-02	08:44:18	08:52:08	461664	627809c52874925390a423a6	4	1	main_z	7	main_z	31	stimuli_distractor_diamondtriangles.svg	stimuli_target_diamondsquares.svg	32	yes	44	1	1108	0	0			0	0			1				0	
6.6.1	win	2023-06-02	08:44:18	08:52:08	461664	627809c52874925390a423a6	4	1	main_z	7	advance_on_keypress_ZEE	32	stimuli_distractor_diamondtriangles.svg	stimuli_target_diamondsquares.svg	32	yes	57	0	538	0	0			0	0			1				0	
6.6.1	win	2023-06-02	08:44:18	08:52:10	463896	627809c52874925390a423a6	4	1	main_z	7	main_z	33	stimuli_target_squarediamonds.svg	stimuli_distractor_diamondtriangles.svg	8	yes	44	1	1055	0	0			0	0			1				0	
6.6.1	win	2023-06-02	08:44:18	08:52:10	463896	627809c52874925390a423a6	4	1	main_z	7	advance_on_keypress_ZEE	34	stimuli_target_squarediamonds.svg	stimuli_distractor_diamondtriangles.svg	8	yes	57	0	602	0	0			0	0			1				0	
6.6.1	win	2023-06-02	08:44:18	08:52:13	466142	627809c52874925390a423a6	4	1	main_z	7	main_z	35	stimuli_distractor_diamondtriangles.svg	stimuli_target_trianglerectangles.svg	29	yes	44	1	1000	0	0			0	0			1				0	
6.6.1	win	2023-06-02	08:44:18	08:52:13	466142	627809c52874925390a423a6	4	1	main_z	7	advance_on_keypress_ZEE	36	stimuli_distractor_diamondtriangles.svg	stimuli_target_trianglerectangles.svg	29	yes	57	0	507	0	0			0	0			1				0	
6.6.1	win	2023-06-02	08:44:18	08:52:16	469289	627809c52874925390a423a6	4	1	main_z	7	main_z	37	stimuli_distractor_diamondtriangles.svg	stimuli_distractor_trianglediamonds.svg	37	no	0	1	2000	0	0			0	0			1				0	
6.6.1	win	2023-06-02	08:44:18	08:52:16	469289	627809c52874925390a423a6	4	1	main_z	7	advance_on_keypress_ZEE	38	stimuli_distractor_diamondtriangles.svg	stimuli_distractor_trianglediamonds.svg	37	no	57	0	705	0	0			0	0			1				0	
6.6.1	win	2023-06-02	08:44:18	08:52:18	471747	627809c52874925390a423a6	4	1	main_z	7	main_z	39	stimuli_distractor_trianglediamonds.svg	stimuli_target_squaretriangles.svg	11	yes	44	1	1108	0	0			0	0			1				0	
6.6.1	win	2023-06-02	08:44:18	08:52:18	471747	627809c52874925390a423a6	4	1	main_z	7	advance_on_keypress_ZEE	40	stimuli_distractor_trianglediamonds.svg	stimuli_target_squaretriangles.svg	11	yes	57	0	597	0	0			0	0			1				0	
6.6.1	win	2023-06-02	08:44:18	08:52:21	474050	627809c52874925390a423a6	4	1	main_z	7	main_z	41	stimuli_target_rectanglediamonds.svg	stimuli_distractor_trianglediamonds.svg	2	yes	44	1	1060	0	0			0	0			1				0	
6.6.1	win	2023-06-02	08:44:18	08:52:21	474050	627809c52874925390a423a6	4	1	main_z	7	advance_on_keypress_ZEE	42	stimuli_target_rectanglediamonds.svg	stimuli_distractor_trianglediamonds.svg	2	yes	57	0	489	0	0			0	0			1				0	
6.6.1	win	2023-06-02	08:44:18	08:52:23	476163	627809c52874925390a423a6	4	1	main_z	7	main_z	43	stimuli_distractor_diamondtriangles.svg	stimuli_target_diamondrectangles.svg	31	yes	44	1	973	0	0			0	0			1				0	
6.6.1	win	2023-06-02	08:44:18	08:52:23	476163	627809c52874925390a423a6	4	1	main_z	7	advance_on_keypress_ZEE	44	stimuli_distractor_diamondtriangles.svg	stimuli_target_diamondrectangles.svg	31	yes	57	0	557	0	0			0	0			1				0	
6.6.1	win	2023-06-02	08:44:18	08:52:25	478140	627809c52874925390a423a6	4	1	main_z	7	main_z	45	stimuli_distractor_diamondtriangles.svg	stimuli_target_squaretriangles.svg	15	yes	44	1	784	0	0			0	0			1				0	
6.6.1	win	2023-06-02	08:44:18	08:52:25	478140	627809c52874925390a423a6	4	1	main_z	7	advance_on_keypress_ZEE	46	stimuli_distractor_diamondtriangles.svg	stimuli_target_squaretriangles.svg	15	yes	57	0	581	0	0			0	0			1				0	
6.6.1	win	2023-06-02	08:44:18	08:52:27	480322	627809c52874925390a423a6	4	1	main_z	7	main_z	47	stimuli_distractor_trianglediamonds.svg	stimuli_target_trianglerectangles.svg	25	yes	44	1	948	0	0			0	0			1				0	
6.6.1	win	2023-06-02	08:44:18	08:52:27	480322	627809c52874925390a423a6	4	1	main_z	7	advance_on_keypress_ZEE	48	stimuli_distractor_trianglediamonds.svg	stimuli_target_trianglerectangles.svg	25	yes	57	0	476	0	0			0	0			1				0	
6.6.1	win	2023-06-02	08:44:18	08:52:29	482327	627809c52874925390a423a6	4	1	main_z	7	main_z	49	stimuli_distractor_diamondtriangles.svg	stimuli_target_rectangletriangles.svg	13	yes	44	1	871	0	0			0	0			1				0	
6.6.1	win	2023-06-02	08:44:18	08:52:29	482327	627809c52874925390a423a6	4	1	main_z	7	advance_on_keypress_ZEE	50	stimuli_distractor_diamondtriangles.svg	stimuli_target_rectangletriangles.svg	13	yes	57	0	543	0	0			0	0			1				0	
6.6.1	win	2023-06-02	08:44:18	08:52:31	484626	627809c52874925390a423a6	4	1	main_z	7	main_z	51	stimuli_target_diamondrectangles.svg	stimuli_distractor_trianglediamonds.svg	19	yes	44	1	1119	0	0			0	0			1				0	
6.6.1	win	2023-06-02	08:44:18	08:52:31	484626	627809c52874925390a423a6	4	1	main_z	7	advance_on_keypress_ZEE	52	stimuli_target_diamondrectangles.svg	stimuli_distractor_trianglediamonds.svg	19	yes	57	0	546	0	0			0	0			1				0	
6.6.1	win	2023-06-02	08:44:18	08:52:33	486864	627809c52874925390a423a6	4	1	main_z	7	main_z	53	stimuli_distractor_diamondtriangles.svg	stimuli_target_trianglesquares.svg	30	yes	44	1	1041	0	0			0	0			1				0	
6.6.1	win	2023-06-02	08:44:18	08:52:33	486864	627809c52874925390a423a6	4	1	main_z	7	advance_on_keypress_ZEE	54	stimuli_distractor_diamondtriangles.svg	stimuli_target_trianglesquares.svg	30	yes	57	0	559	0	0			0	0			1				0	
6.6.1	win	2023-06-02	08:44:18	08:52:36	489147	627809c52874925390a423a6	4	1	main_z	7	main_z	55	stimuli_target_trianglerectangles.svg	stimuli_distractor_diamondtriangles.svg	21	yes	44	1	1091	0	0			0	0			1				0	
6.6.1	win	2023-06-02	08:44:18	08:52:36	489147	627809c52874925390a423a6	4	1	main_z	7	advance_on_keypress_ZEE	56	stimuli_target_trianglerectangles.svg	stimuli_distractor_diamondtriangles.svg	21	yes	57	0	583	0	0			0	0			1				0	
6.6.1	win	2023-06-02	08:44:18	08:52:38	491452	627809c52874925390a423a6	4	1	main_z	7	main_z	57	stimuli_target_diamondsquares.svg	stimuli_distractor_diamondtriangles.svg	24	yes	44	1	1080	0	0			0	0			1				0	
6.6.1	win	2023-06-02	08:44:18	08:52:38	491452	627809c52874925390a423a6	4	1	main_z	7	advance_on_keypress_ZEE	58	stimuli_target_diamondsquares.svg	stimuli_distractor_diamondtriangles.svg	24	yes	57	0	596	0	0			0	0			1				0	
6.6.1	win	2023-06-02	08:44:18	08:52:40	493646	627809c52874925390a423a6	4	1	main_z	7	main_z	59	stimuli_target_trianglesquares.svg	stimuli_distractor_trianglediamonds.svg	18	yes	44	1	939	0	0			0	0			1				0	
6.6.1	win	2023-06-02	08:44:18	08:52:40	493646	627809c52874925390a423a6	4	1	main_z	7	advance_on_keypress_ZEE	60	stimuli_target_trianglesquares.svg	stimuli_distractor_trianglediamonds.svg	18	yes	57	0	565	0	0			0	0			1				0	
6.6.1	win	2023-06-02	08:44:18	08:52:43	496856	627809c52874925390a423a6	4	1	main_z	7	main_z	61	stimuli_distractor_diamondtriangles.svg	stimuli_distractor_trianglediamonds.svg	38	no	0	1	2000	0	0			0	0			1				0	
6.6.1	win	2023-06-02	08:44:18	08:52:43	496856	627809c52874925390a423a6	4	1	main_z	7	advance_on_keypress_ZEE	62	stimuli_distractor_diamondtriangles.svg	stimuli_distractor_trianglediamonds.svg	38	no	57	0	660	0	0			0	0			1				0	
6.6.1	win	2023-06-02	08:44:18	08:52:46	499150	627809c52874925390a423a6	4	1	main_z	7	main_z	63	stimuli_target_trianglerectangles.svg	stimuli_distractor_trianglediamonds.svg	17	yes	44	1	994	0	0			0	0			1				0	
6.6.1	win	2023-06-02	08:44:18	08:52:46	499150	627809c52874925390a423a6	4	1	main_z	7	advance_on_keypress_ZEE	64	stimuli_target_trianglerectangles.svg	stimuli_distractor_trianglediamonds.svg	17	yes	57	0	544	0	0			0	0			1				0	
6.6.1	win	2023-06-02	08:44:18	08:52:49	502339	627809c52874925390a423a6	4	1	main_z	7	main_z	65	stimuli_distractor_diamondtriangles.svg	stimuli_distractor_diamondtriangles.svg	40	no	0	1	2000	0	0			0	0			1				0	
6.6.1	win	2023-06-02	08:44:18	08:52:49	502339	627809c52874925390a423a6	4	1	main_z	7	advance_on_keypress_ZEE	66	stimuli_distractor_diamondtriangles.svg	stimuli_distractor_diamondtriangles.svg	40	no	57	0	601	0	0			0	0			1				0	
6.6.1	win	2023-06-02	08:44:18	08:52:51	504634	627809c52874925390a423a6	4	1	main_z	7	main_z	67	stimuli_target_trianglesquares.svg	stimuli_distractor_diamondtriangles.svg	22	yes	44	1	1045	0	0			0	0			1				0	
6.6.1	win	2023-06-02	08:44:18	08:52:51	504634	627809c52874925390a423a6	4	1	main_z	7	advance_on_keypress_ZEE	68	stimuli_target_trianglesquares.svg	stimuli_distractor_diamondtriangles.svg	22	yes	57	0	526	0	0			0	0			1				0	
6.6.1	win	2023-06-02	08:44:18	08:52:53	506784	627809c52874925390a423a6	4	1	main_z	7	main_z	69	stimuli_distractor_diamondtriangles.svg	stimuli_target_rectanglediamonds.svg	14	yes	44	1	978	0	0			0	0			1				0	
6.6.1	win	2023-06-02	08:44:18	08:52:53	506784	627809c52874925390a423a6	4	1	main_z	7	advance_on_keypress_ZEE	70	stimuli_distractor_diamondtriangles.svg	stimuli_target_rectanglediamonds.svg	14	yes	57	0	472	0	0			0	0			1				0	
6.6.1	win	2023-06-02	08:44:18	08:52:56	509905	627809c52874925390a423a6	4	1	main_z	7	main_z	71	stimuli_target_squaretriangles.svg	stimuli_distractor_trianglediamonds.svg	3	yes	0	0	2000	0	0			0	0			1				0	
6.6.1	win	2023-06-02	08:44:18	08:52:56	509905	627809c52874925390a423a6	4	1	main_z	7	advance_on_keypress_ZEE	72	stimuli_target_squaretriangles.svg	stimuli_distractor_trianglediamonds.svg	3	yes	57	0	1071	0	0			0	0			1				0	
6.6.1	win	2023-06-02	08:44:18	08:52:59	512684	627809c52874925390a423a6	4	1	main_z	7	main_z	73	stimuli_distractor_trianglediamonds.svg	stimuli_target_squarediamonds.svg	12	yes	44	1	1054	0	0			0	0			1				0	
6.6.1	win	2023-06-02	08:44:18	08:52:59	512684	627809c52874925390a423a6	4	1	main_z	7	advance_on_keypress_ZEE	74	stimuli_distractor_trianglediamonds.svg	stimuli_target_squarediamonds.svg	12	yes	57	0	565	0	0			0	0			1				0	
6.6.1	win	2023-06-02	08:44:18	08:53:02	515906	627809c52874925390a423a6	4	1	main_z	7	main_z	75	stimuli_distractor_diamondtriangles.svg	stimuli_distractor_diamondtriangles.svg	39	no	0	1	2000	0	0			0	0			1				0	
6.6.1	win	2023-06-02	08:44:18	08:53:02	515906	627809c52874925390a423a6	4	1	main_z	7	advance_on_keypress_ZEE	76	stimuli_distractor_diamondtriangles.svg	stimuli_distractor_diamondtriangles.svg	39	no	57	0	733	0	0			0	0			1				0	
6.6.1	win	2023-06-02	08:44:18	08:53:05	518200	627809c52874925390a423a6	4	1	main_z	7	main_z	77	stimuli_distractor_trianglediamonds.svg	stimuli_target_diamondrectangles.svg	27	yes	44	1	910	0	0			0	0			1				0	
6.6.1	win	2023-06-02	08:44:18	08:53:05	518200	627809c52874925390a423a6	4	1	main_z	7	advance_on_keypress_ZEE	78	stimuli_distractor_trianglediamonds.svg	stimuli_target_diamondrectangles.svg	27	yes	57	0	482	0	0			0	0			1				0	
6.6.1	win	2023-06-02	08:44:18	08:53:07	520258	627809c52874925390a423a6	4	1	main_z	7	main_z	79	stimuli_distractor_trianglediamonds.svg	stimuli_target_trianglesquares.svg	26	yes	44	1	918	0	0			0	0			1				0	
6.6.1	win	2023-06-02	08:44:18	08:53:07	520258	627809c52874925390a423a6	4	1	main_z	7	advance_on_keypress_ZEE	80	stimuli_distractor_trianglediamonds.svg	stimuli_target_trianglesquares.svg	26	yes	57	0	542	0	0			0	0			1				0	
6.6.1	win	2023-06-02	08:44:18	08:53:09	522595	627809c52874925390a423a6	4	1	main_z	7	main_z	81	stimuli_target_rectangletriangles.svg	stimuli_distractor_trianglediamonds.svg	1	yes	44	1	1138	0	0			0	0			1				0	
6.6.1	win	2023-06-02	08:44:18	08:53:09	522595	627809c52874925390a423a6	4	1	main_z	7	advance_on_keypress_ZEE	82	stimuli_target_rectangletriangles.svg	stimuli_distractor_trianglediamonds.svg	1	yes	57	0	553	0	0			0	0			1				0	
6.6.1	win	2023-06-02	08:44:18	08:53:11	524878	627809c52874925390a423a6	4	1	main_z	7	main_z	83	stimuli_distractor_trianglediamonds.svg	stimuli_distractor_diamondtriangles.svg	36	no	44	0	1089	0	0			0	0			1				0	
6.6.1	win	2023-06-02	08:44:18	08:53:11	524878	627809c52874925390a423a6	4	1	main_z	7	advance_on_keypress_ZEE	84	stimuli_distractor_trianglediamonds.svg	stimuli_distractor_diamondtriangles.svg	36	no	57	0	942	0	0			0	0			1				0	
6.6.1	win	2023-06-02	08:44:18	08:53:14	527634	627809c52874925390a423a6	4	1	main_z	7	main_z	85	stimuli_target_squaretriangles.svg	stimuli_distractor_trianglediamonds.svg	3	yes	44	1	1178	0	0			0	0			1				0	
6.6.1	win	2023-06-02	08:44:18	08:53:14	527634	627809c52874925390a423a6	4	1	main_z	7	advance_on_keypress_ZEE	86	stimuli_target_squaretriangles.svg	stimuli_distractor_trianglediamonds.svg	3	yes	57	0	572	0	0			0	0			1				0	
6.6.1	win	2023-06-02	08:44:18	08:53:17	530856	627809c52874925390a423a6	4	1	main_z	7	main_z	87	stimuli_distractor_diamondtriangles.svg	stimuli_distractor_diamondtriangles.svg	40	no	0	1	2000	0	0			0	0			1				0	
6.6.1	win	2023-06-02	08:44:18	08:53:17	530856	627809c52874925390a423a6	4	1	main_z	7	advance_on_keypress_ZEE	88	stimuli_distractor_diamondtriangles.svg	stimuli_distractor_diamondtriangles.svg	40	no	57	0	430	0	0			0	0			1				0	
6.6.1	win	2023-06-02	08:44:18	08:53:19	532911	627809c52874925390a423a6	4	1	main_z	7	main_z	89	stimuli_target_trianglesquares.svg	stimuli_distractor_trianglediamonds.svg	18	yes	44	1	972	0	0			0	0			1				0	
6.6.1	win	2023-06-02	08:44:18	08:53:19	532911	627809c52874925390a423a6	4	1	main_z	7	advance_on_keypress_ZEE	90	stimuli_target_trianglesquares.svg	stimuli_distractor_trianglediamonds.svg	18	yes	57	0	556	0	0			0	0			1				0	
6.6.1	win	2023-06-02	08:44:18	08:53:21	534860	627809c52874925390a423a6	4	1	main_z	7	main_z	91	stimuli_distractor_diamondtriangles.svg	stimuli_target_rectangletriangles.svg	13	yes	44	1	752	0	0			0	0			1				0	
6.6.1	win	2023-06-02	08:44:18	08:53:21	534860	627809c52874925390a423a6	4	1	main_z	7	advance_on_keypress_ZEE	92	stimuli_distractor_diamondtriangles.svg	stimuli_target_rectangletriangles.svg	13	yes	57	0	592	0	0			0	0			1				0	
6.6.1	win	2023-06-02	08:44:18	08:53:24	537049	627809c52874925390a423a6	4	1	main_z	7	main_z	93	stimuli_target_diamondsquares.svg	stimuli_distractor_diamondtriangles.svg	24	yes	44	1	926	0	0			0	0			1				0	
6.6.1	win	2023-06-02	08:44:18	08:53:24	537049	627809c52874925390a423a6	4	1	main_z	7	advance_on_keypress_ZEE	94	stimuli_target_diamondsquares.svg	stimuli_distractor_diamondtriangles.svg	24	yes	57	0	514	0	0			0	0			1				0	
6.6.1	win	2023-06-02	08:44:18	08:53:26	539171	627809c52874925390a423a6	4	1	main_z	7	main_z	95	stimuli_distractor_trianglediamonds.svg	stimuli_target_squaretriangles.svg	11	yes	44	1	948	0	0			0	0			1				0	
6.6.1	win	2023-06-02	08:44:18	08:53:26	539171	627809c52874925390a423a6	4	1	main_z	7	advance_on_keypress_ZEE	96	stimuli_distractor_trianglediamonds.svg	stimuli_target_squaretriangles.svg	11	yes	57	0	600	0	0			0	0			1				0	
6.6.1	win	2023-06-02	08:44:18	08:53:28	541338	627809c52874925390a423a6	4	1	main_z	7	main_z	97	stimuli_target_diamondrectangles.svg	stimuli_distractor_trianglediamonds.svg	19	yes	44	1	914	0	0			0	0			1				0	
6.6.1	win	2023-06-02	08:44:18	08:53:28	541338	627809c52874925390a423a6	4	1	main_z	7	advance_on_keypress_ZEE	98	stimuli_target_diamondrectangles.svg	stimuli_distractor_trianglediamonds.svg	19	yes	57	0	536	0	0			0	0			1				0	
6.6.1	win	2023-06-02	08:44:18	08:53:31	544523	627809c52874925390a423a6	4	1	main_z	7	main_z	99	stimuli_distractor_diamondtriangles.svg	stimuli_distractor_trianglediamonds.svg	38	no	0	1	2000	0	0			0	0			1				0	
6.6.1	win	2023-06-02	08:44:18	08:53:31	544523	627809c52874925390a423a6	4	1	main_z	7	advance_on_keypress_ZEE	100	stimuli_distractor_diamondtriangles.svg	stimuli_distractor_trianglediamonds.svg	38	no	57	0	1014	0	0			0	0			1				0	
6.6.1	win	2023-06-02	08:44:18	08:53:33	546926	627809c52874925390a423a6	4	1	main_z	7	main_z	101	stimuli_target_rectanglediamonds.svg	stimuli_distractor_diamondtriangles.svg	6	yes	44	1	736	0	0			0	0			1				0	
6.6.1	win	2023-06-02	08:44:18	08:53:33	546926	627809c52874925390a423a6	4	1	main_z	7	advance_on_keypress_ZEE	102	stimuli_target_rectanglediamonds.svg	stimuli_distractor_diamondtriangles.svg	6	yes	57	0	529	0	0			0	0			1				0	
6.6.1	win	2023-06-02	08:44:18	08:53:36	549062	627809c52874925390a423a6	4	1	main_z	7	main_z	103	stimuli_target_squaretriangles.svg	stimuli_distractor_diamondtriangles.svg	7	yes	44	1	955	0	0			0	0			1				0	
6.6.1	win	2023-06-02	08:44:18	08:53:36	549062	627809c52874925390a423a6	4	1	main_z	7	advance_on_keypress_ZEE	104	stimuli_target_squaretriangles.svg	stimuli_distractor_diamondtriangles.svg	7	yes	57	0	619	0	0			0	0			1				0	
6.6.1	win	2023-06-02	08:44:18	08:53:38	551190	627809c52874925390a423a6	4	1	main_z	7	main_z	105	stimuli_distractor_diamondtriangles.svg	stimuli_target_trianglesquares.svg	30	yes	44	1	865	0	0			0	0			1				0	
6.6.1	win	2023-06-02	08:44:18	08:53:38	551190	627809c52874925390a423a6	4	1	main_z	7	advance_on_keypress_ZEE	106	stimuli_distractor_diamondtriangles.svg	stimuli_target_trianglesquares.svg	30	yes	57	0	561	0	0			0	0			1				0	
6.6.1	win	2023-06-02	08:44:18	08:53:40	553479	627809c52874925390a423a6	4	1	main_z	7	main_z	107	stimuli_distractor_diamondtriangles.svg	stimuli_target_diamondsquares.svg	32	yes	44	1	1071	0	0			0	0			1				0	
6.6.1	win	2023-06-02	08:44:18	08:53:40	553479	627809c52874925390a423a6	4	1	main_z	7	advance_on_keypress_ZEE	108	stimuli_distractor_diamondtriangles.svg	stimuli_target_diamondsquares.svg	32	yes	57	0	636	0	0			0	0			1				0	
6.6.1	win	2023-06-02	08:44:18	08:53:42	555536	627809c52874925390a423a6	4	1	main_z	7	main_z	109	stimuli_target_squarediamonds.svg	stimuli_distractor_trianglediamonds.svg	4	yes	44	1	779	0	0			0	0			1				0	
6.6.1	win	2023-06-02	08:44:18	08:53:42	555536	627809c52874925390a423a6	4	1	main_z	7	advance_on_keypress_ZEE	110	stimuli_target_squarediamonds.svg	stimuli_distractor_trianglediamonds.svg	4	yes	57	0	552	0	0			0	0			1				0	
6.6.1	win	2023-06-02	08:44:18	08:53:44	557662	627809c52874925390a423a6	4	1	main_z	7	main_z	111	stimuli_target_trianglesquares.svg	stimuli_distractor_diamondtriangles.svg	22	yes	44	1	923	0	0			0	0			1				0	
6.6.1	win	2023-06-02	08:44:18	08:53:44	557662	627809c52874925390a423a6	4	1	main_z	7	advance_on_keypress_ZEE	112	stimuli_target_trianglesquares.svg	stimuli_distractor_diamondtriangles.svg	22	yes	57	0	499	0	0			0	0			1				0	
6.6.1	win	2023-06-02	08:44:18	08:53:46	559634	627809c52874925390a423a6	4	1	main_z	7	main_z	113	stimuli_target_trianglerectangles.svg	stimuli_distractor_diamondtriangles.svg	21	yes	44	1	828	0	0			0	0			1				0	
6.6.1	win	2023-06-02	08:44:18	08:53:46	559634	627809c52874925390a423a6	4	1	main_z	7	advance_on_keypress_ZEE	114	stimuli_target_trianglerectangles.svg	stimuli_distractor_diamondtriangles.svg	21	yes	57	0	530	0	0			0	0			1				0	
6.6.1	win	2023-06-02	08:44:18	08:53:48	561715	627809c52874925390a423a6	4	1	main_z	7	main_z	115	stimuli_distractor_diamondtriangles.svg	stimuli_target_squaretriangles.svg	15	yes	44	1	892	0	0			0	0			1				0	
6.6.1	win	2023-06-02	08:44:18	08:53:48	561715	627809c52874925390a423a6	4	1	main_z	7	advance_on_keypress_ZEE	116	stimuli_distractor_diamondtriangles.svg	stimuli_target_squaretriangles.svg	15	yes	57	0	919	0	0			0	0			1				0	
6.6.1	win	2023-06-02	08:44:18	08:53:51	564213	627809c52874925390a423a6	4	1	main_z	7	main_z	117	stimuli_target_trianglerectangles.svg	stimuli_distractor_trianglediamonds.svg	17	yes	44	1	941	0	0			0	0			1				0	
6.6.1	win	2023-06-02	08:44:18	08:53:51	564213	627809c52874925390a423a6	4	1	main_z	7	advance_on_keypress_ZEE	118	stimuli_target_trianglerectangles.svg	stimuli_distractor_trianglediamonds.svg	17	yes	57	0	650	0	0			0	0			1				0	
6.6.1	win	2023-06-02	08:44:18	08:53:53	566503	627809c52874925390a423a6	4	1	main_z	7	main_z	119	stimuli_distractor_trianglediamonds.svg	stimuli_target_rectanglediamonds.svg	10	yes	44	1	996	0	0			0	0			1				0	
6.6.1	win	2023-06-02	08:44:18	08:53:53	566503	627809c52874925390a423a6	4	1	main_z	7	advance_on_keypress_ZEE	120	stimuli_distractor_trianglediamonds.svg	stimuli_target_rectanglediamonds.svg	10	yes	57	0	783	0	0			0	0			1				0	
6.6.1	win	2023-06-02	08:44:18	08:53:56	569939	627809c52874925390a423a6	4	1	main_z	7	main_z	121	stimuli_distractor_diamondtriangles.svg	stimuli_distractor_trianglediamonds.svg	37	no	0	1	2000	0	0			0	0			1				0	
6.6.1	win	2023-06-02	08:44:18	08:53:56	569939	627809c52874925390a423a6	4	1	main_z	7	advance_on_keypress_ZEE	122	stimuli_distractor_diamondtriangles.svg	stimuli_distractor_trianglediamonds.svg	37	no	57	0	1540	0	0			0	0			1				0	
6.6.1	win	2023-06-02	08:44:18	08:53:59	572848	627809c52874925390a423a6	4	1	main_z	7	main_z	123	stimuli_distractor_trianglediamonds.svg	stimuli_target_rectangletriangles.svg	9	yes	44	1	725	0	0			0	0			1				0	
6.6.1	win	2023-06-02	08:44:18	08:53:59	572848	627809c52874925390a423a6	4	1	main_z	7	advance_on_keypress_ZEE	124	stimuli_distractor_trianglediamonds.svg	stimuli_target_rectangletriangles.svg	9	yes	57	0	457	0	0			0	0			1				0	
6.6.1	win	2023-06-02	08:44:18	08:54:02	575956	627809c52874925390a423a6	4	1	main_z	7	main_z	125	stimuli_distractor_trianglediamonds.svg	stimuli_distractor_trianglediamonds.svg	34	no	0	1	2000	0	0			0	0			1				0	
6.6.1	win	2023-06-02	08:44:18	08:54:02	575956	627809c52874925390a423a6	4	1	main_z	7	advance_on_keypress_ZEE	126	stimuli_distractor_trianglediamonds.svg	stimuli_distractor_trianglediamonds.svg	34	no	57	0	602	0	0			0	0			1				0	
6.6.1	win	2023-06-02	08:44:18	08:54:05	578209	627809c52874925390a423a6	4	1	main_z	7	main_z	127	stimuli_target_rectanglediamonds.svg	stimuli_distractor_trianglediamonds.svg	2	yes	44	1	1001	0	0			0	0			1				0	
6.6.1	win	2023-06-02	08:44:18	08:54:05	578209	627809c52874925390a423a6	4	1	main_z	7	advance_on_keypress_ZEE	128	stimuli_target_rectanglediamonds.svg	stimuli_distractor_trianglediamonds.svg	2	yes	57	0	504	0	0			0	0			1				0	
6.6.1	win	2023-06-02	08:44:18	08:54:08	581357	627809c52874925390a423a6	4	1	main_z	7	main_z	129	stimuli_distractor_diamondtriangles.svg	stimuli_distractor_diamondtriangles.svg	39	no	0	1	2000	0	0			0	0			1				0	
6.6.1	win	2023-06-02	08:44:18	08:54:08	581357	627809c52874925390a423a6	4	1	main_z	7	advance_on_keypress_ZEE	130	stimuli_distractor_diamondtriangles.svg	stimuli_distractor_diamondtriangles.svg	39	no	57	0	565	0	0			0	0			1				0	
6.6.1	win	2023-06-02	08:44:18	08:54:11	584575	627809c52874925390a423a6	4	1	main_z	7	main_z	131	stimuli_distractor_trianglediamonds.svg	stimuli_distractor_diamondtriangles.svg	35	no	0	1	2000	0	0			0	0			1				0	
6.6.1	win	2023-06-02	08:44:18	08:54:11	584575	627809c52874925390a423a6	4	1	main_z	7	advance_on_keypress_ZEE	132	stimuli_distractor_trianglediamonds.svg	stimuli_distractor_diamondtriangles.svg	35	no	57	0	503	0	0			0	0			1				0	
6.6.1	win	2023-06-02	08:44:18	08:54:13	586729	627809c52874925390a423a6	4	1	main_z	7	main_z	133	stimuli_distractor_trianglediamonds.svg	stimuli_target_diamondrectangles.svg	27	yes	44	1	1006	0	0			0	0			1				0	
6.6.1	win	2023-06-02	08:44:18	08:54:13	586729	627809c52874925390a423a6	4	1	main_z	7	advance_on_keypress_ZEE	134	stimuli_distractor_trianglediamonds.svg	stimuli_target_diamondrectangles.svg	27	yes	57	0	477	0	0			0	0			1				0	
6.6.1	win	2023-06-02	08:44:18	08:54:15	588930	627809c52874925390a423a6	4	1	main_z	7	main_z	135	stimuli_distractor_diamondtriangles.svg	stimuli_target_rectanglediamonds.svg	14	yes	44	1	1090	0	0			0	0			1				0	
6.6.1	win	2023-06-02	08:44:18	08:54:15	588930	627809c52874925390a423a6	4	1	main_z	7	advance_on_keypress_ZEE	136	stimuli_distractor_diamondtriangles.svg	stimuli_target_rectanglediamonds.svg	14	yes	57	0	459	0	0			0	0			1				0	
6.6.1	win	2023-06-02	08:44:18	08:54:18	590967	627809c52874925390a423a6	4	1	main_z	7	main_z	137	stimuli_target_squarediamonds.svg	stimuli_distractor_diamondtriangles.svg	8	yes	44	1	926	0	0			0	0			1				0	
6.6.1	win	2023-06-02	08:44:18	08:54:18	590967	627809c52874925390a423a6	4	1	main_z	7	advance_on_keypress_ZEE	138	stimuli_target_squarediamonds.svg	stimuli_distractor_diamondtriangles.svg	8	yes	57	0	496	0	0			0	0			1				0	
6.6.1	win	2023-06-02	08:44:18	08:54:19	592717	627809c52874925390a423a6	4	1	main_z	7	main_z	139	stimuli_distractor_diamondtriangles.svg	stimuli_target_trianglerectangles.svg	29	yes	44	1	595	0	0			0	0			1				0	
6.6.1	win	2023-06-02	08:44:18	08:54:19	592717	627809c52874925390a423a6	4	1	main_z	7	advance_on_keypress_ZEE	140	stimuli_distractor_diamondtriangles.svg	stimuli_target_trianglerectangles.svg	29	yes	57	0	473	0	0			0	0			1				0	
6.6.1	win	2023-06-02	08:44:18	08:54:21	594515	627809c52874925390a423a6	4	1	main_z	7	main_z	141	stimuli_distractor_trianglediamonds.svg	stimuli_target_trianglerectangles.svg	25	yes	44	1	676	0	0			0	0			1				0	
6.6.1	win	2023-06-02	08:44:18	08:54:21	594515	627809c52874925390a423a6	4	1	main_z	7	advance_on_keypress_ZEE	142	stimuli_distractor_trianglediamonds.svg	stimuli_target_trianglerectangles.svg	25	yes	57	0	463	0	0			0	0			1				0	
6.6.1	win	2023-06-02	08:44:18	08:54:23	596513	627809c52874925390a423a6	4	1	main_z	7	main_z	143	stimuli_target_diamondrectangles.svg	stimuli_distractor_diamondtriangles.svg	23	yes	44	1	889	0	0			0	0			1				0	
6.6.1	win	2023-06-02	08:44:18	08:54:23	596513	627809c52874925390a423a6	4	1	main_z	7	advance_on_keypress_ZEE	144	stimuli_target_diamondrectangles.svg	stimuli_distractor_diamondtriangles.svg	23	yes	57	0	478	0	0			0	0			1				0	
6.6.1	win	2023-06-02	08:44:18	08:54:25	598768	627809c52874925390a423a6	4	1	main_z	7	main_z	145	stimuli_distractor_diamondtriangles.svg	stimuli_target_squarediamonds.svg	16	yes	44	1	1129	0	0			0	0			1				0	
6.6.1	win	2023-06-02	08:44:18	08:54:25	598768	627809c52874925390a423a6	4	1	main_z	7	advance_on_keypress_ZEE	146	stimuli_distractor_diamondtriangles.svg	stimuli_target_squarediamonds.svg	16	yes	57	0	424	0	0			0	0			1				0	
6.6.1	win	2023-06-02	08:44:18	08:54:27	600704	627809c52874925390a423a6	4	1	main_z	7	main_z	147	stimuli_target_rectangletriangles.svg	stimuli_distractor_diamondtriangles.svg	5	yes	44	1	864	0	0			0	0			1				0	
6.6.1	win	2023-06-02	08:44:18	08:54:27	600704	627809c52874925390a423a6	4	1	main_z	7	advance_on_keypress_ZEE	148	stimuli_target_rectangletriangles.svg	stimuli_distractor_diamondtriangles.svg	5	yes	57	0	552	0	0			0	0			1				0	
6.6.1	win	2023-06-02	08:44:18	08:54:30	602978	627809c52874925390a423a6	4	1	main_z	7	main_z	149	stimuli_distractor_trianglediamonds.svg	stimuli_target_squarediamonds.svg	12	yes	44	1	1070	0	0			0	0			1				0	
6.6.1	win	2023-06-02	08:44:18	08:54:30	602978	627809c52874925390a423a6	4	1	main_z	7	advance_on_keypress_ZEE	150	stimuli_distractor_trianglediamonds.svg	stimuli_target_squarediamonds.svg	12	yes	57	0	430	0	0			0	0			1				0	
6.6.1	win	2023-06-02	08:44:18	08:54:33	606056	627809c52874925390a423a6	4	1	main_z	7	main_z	151	stimuli_distractor_trianglediamonds.svg	stimuli_distractor_trianglediamonds.svg	33	no	0	1	2000	0	0			0	0			1				0	
6.6.1	win	2023-06-02	08:44:18	08:54:33	606056	627809c52874925390a423a6	4	1	main_z	7	advance_on_keypress_ZEE	152	stimuli_distractor_trianglediamonds.svg	stimuli_distractor_trianglediamonds.svg	33	no	57	0	1218	0	0			0	0			1				0	
6.6.1	win	2023-06-02	08:44:18	08:54:35	608830	627809c52874925390a423a6	4	1	main_z	7	main_z	153	stimuli_distractor_trianglediamonds.svg	stimuli_target_trianglesquares.svg	26	yes	44	1	908	0	0			0	0			1				0	
6.6.1	win	2023-06-02	08:44:18	08:54:35	608830	627809c52874925390a423a6	4	1	main_z	7	advance_on_keypress_ZEE	154	stimuli_distractor_trianglediamonds.svg	stimuli_target_trianglesquares.svg	26	yes	57	0	518	0	0			0	0			1				0	
6.6.1	win	2023-06-02	08:44:18	08:54:37	610769	627809c52874925390a423a6	4	1	main_z	7	main_z	155	stimuli_distractor_diamondtriangles.svg	stimuli_target_diamondrectangles.svg	31	yes	44	1	780	0	0			0	0			1				0	
6.6.1	win	2023-06-02	08:44:18	08:54:37	610769	627809c52874925390a423a6	4	1	main_z	7	advance_on_keypress_ZEE	156	stimuli_distractor_diamondtriangles.svg	stimuli_target_diamondrectangles.svg	31	yes	57	0	450	0	0			0	0			1				0	
6.6.1	win	2023-06-02	08:44:18	08:54:39	612475	627809c52874925390a423a6	4	1	main_z	7	main_z	157	stimuli_distractor_trianglediamonds.svg	stimuli_target_diamondsquares.svg	28	yes	44	1	603	0	0			0	0			1				0	
6.6.1	win	2023-06-02	08:44:18	08:54:39	612475	627809c52874925390a423a6	4	1	main_z	7	advance_on_keypress_ZEE	158	stimuli_distractor_trianglediamonds.svg	stimuli_target_diamondsquares.svg	28	yes	57	0	471	0	0			0	0			1				0	
6.6.1	win	2023-06-02	08:44:18	08:54:42	615600	627809c52874925390a423a6	4	1	main_z	7	main_z	159	stimuli_target_diamondsquares.svg	stimuli_distractor_trianglediamonds.svg	20	yes	0	0	2000	0	0			0	0			1				0	
6.6.1	win	2023-06-02	08:44:18	08:54:42	615600	627809c52874925390a423a6	4	1	main_z	7	advance_on_keypress_ZEE	160	stimuli_target_diamondsquares.svg	stimuli_distractor_trianglediamonds.svg	20	yes	57	0	787	0	0			0	0			1				0	
6.6.1	win	2023-06-02	08:44:18	08:55:17	650318	627809c52874925390a423a6	4	1	practice_slash	9	practice_slash	1	stimuli_distractor_trianglediamonds.svg	stimuli_target_squarediamonds.svg	11	yes	53	1	823	0	0			0	0			1				0	
6.6.1	win	2023-06-02	08:44:18	08:55:17	650318	627809c52874925390a423a6	4	1	practice_slash	9	advance_on_keypress_SLASH	2	stimuli_distractor_trianglediamonds.svg	stimuli_target_squarediamonds.svg	11	yes	57	0	605	0	0			0	0			1				0	
6.6.1	win	2023-06-02	08:44:18	08:55:20	653253	627809c52874925390a423a6	4	1	practice_slash	9	practice_slash	3	stimuli_target_squarediamonds.svg	stimuli_distractor_diamondtriangles.svg	2	yes	53	1	674	0	0			0	0			1				0	
6.6.1	win	2023-06-02	08:44:18	08:55:20	653253	627809c52874925390a423a6	4	1	practice_slash	9	advance_on_keypress_SLASH	4	stimuli_target_squarediamonds.svg	stimuli_distractor_diamondtriangles.svg	2	yes	57	0	916	0	0			0	0			1				0	
6.6.1	win	2023-06-02	08:44:18	08:55:23	656796	627809c52874925390a423a6	4	1	practice_slash	9	practice_slash	5	stimuli_target_diamondsquares.svg	stimuli_distractor_trianglediamonds.svg	6	yes	53	1	972	0	0			0	0			1				0	
6.6.1	win	2023-06-02	08:44:18	08:55:23	656796	627809c52874925390a423a6	4	1	practice_slash	9	advance_on_keypress_SLASH	6	stimuli_target_diamondsquares.svg	stimuli_distractor_trianglediamonds.svg	6	yes	57	0	361	0	0			0	0			1				0	
6.6.1	win	2023-06-02	08:44:18	08:55:26	659908	627809c52874925390a423a6	4	1	practice_slash	9	practice_slash	7	stimuli_target_rectanglediamonds.svg	stimuli_distractor_trianglediamonds.svg	4	yes	53	1	1085	0	0			0	0			1				0	
6.6.1	win	2023-06-02	08:44:18	08:55:26	659908	627809c52874925390a423a6	4	1	practice_slash	9	advance_on_keypress_SLASH	8	stimuli_target_rectanglediamonds.svg	stimuli_distractor_trianglediamonds.svg	4	yes	57	0	398	0	0			0	0			1				0	
6.6.1	win	2023-06-02	08:44:18	08:55:31	663973	627809c52874925390a423a6	4	1	practice_slash	9	practice_slash	9	stimuli_distractor_trianglediamonds.svg	stimuli_distractor_diamondtriangles.svg	16	no	0	1	2000	0	0			0	0			1				0	
6.6.1	win	2023-06-02	08:44:18	08:55:31	663973	627809c52874925390a423a6	4	1	practice_slash	9	advance_on_keypress_SLASH	10	stimuli_distractor_trianglediamonds.svg	stimuli_distractor_diamondtriangles.svg	16	no	57	0	613	0	0			0	0			1				0	
6.6.1	win	2023-06-02	08:44:18	08:55:33	666924	627809c52874925390a423a6	4	1	practice_slash	9	practice_slash	11	stimuli_distractor_trianglediamonds.svg	stimuli_target_rectanglediamonds.svg	10	yes	53	1	681	0	0			0	0			1				0	
6.6.1	win	2023-06-02	08:44:18	08:55:33	666924	627809c52874925390a423a6	4	1	practice_slash	9	advance_on_keypress_SLASH	12	stimuli_distractor_trianglediamonds.svg	stimuli_target_rectanglediamonds.svg	10	yes	57	0	537	0	0			0	0			1				0	
6.6.1	win	2023-06-02	08:44:18	08:55:38	671108	627809c52874925390a423a6	4	1	practice_slash	9	practice_slash	13	stimuli_distractor_diamondtriangles.svg	stimuli_distractor_diamondtriangles.svg	13	no	0	1	2000	0	0			0	0			1				0	
6.6.1	win	2023-06-02	08:44:18	08:55:38	671108	627809c52874925390a423a6	4	1	practice_slash	9	advance_on_keypress_SLASH	14	stimuli_distractor_diamondtriangles.svg	stimuli_distractor_diamondtriangles.svg	13	no	57	0	653	0	0			0	0			1				0	
6.6.1	win	2023-06-02	08:44:18	08:55:41	674845	627809c52874925390a423a6	4	1	practice_slash	9	practice_slash	15	stimuli_distractor_diamondtriangles.svg	stimuli_target_trianglerectangles.svg	9	yes	53	1	1404	0	0			0	0			1				0	
6.6.1	win	2023-06-02	08:44:18	08:55:41	674845	627809c52874925390a423a6	4	1	practice_slash	9	advance_on_keypress_SLASH	16	stimuli_distractor_diamondtriangles.svg	stimuli_target_trianglerectangles.svg	9	yes	57	0	402	0	0			0	0			1				0	
6.6.1	win	2023-06-02	08:44:18	08:55:44	677830	627809c52874925390a423a6	4	1	practice_slash	9	practice_slash	17	stimuli_target_squarediamonds.svg	stimuli_distractor_trianglediamonds.svg	5	yes	53	1	939	0	0			0	0			1				0	
6.6.1	win	2023-06-02	08:44:18	08:55:44	677830	627809c52874925390a423a6	4	1	practice_slash	9	advance_on_keypress_SLASH	18	stimuli_target_squarediamonds.svg	stimuli_distractor_trianglediamonds.svg	5	yes	57	0	488	0	0			0	0			1				0	
6.6.1	win	2023-06-02	08:44:18	08:55:49	681992	627809c52874925390a423a6	4	1	practice_slash	9	practice_slash	19	stimuli_distractor_diamondtriangles.svg	stimuli_distractor_trianglediamonds.svg	14	no	0	1	2000	0	0			0	0			1				0	
6.6.1	win	2023-06-02	08:44:18	08:55:49	681992	627809c52874925390a423a6	4	1	practice_slash	9	advance_on_keypress_SLASH	20	stimuli_distractor_diamondtriangles.svg	stimuli_distractor_trianglediamonds.svg	14	no	57	0	600	0	0			0	0			1				0	
6.6.1	win	2023-06-02	08:44:18	08:55:52	685114	627809c52874925390a423a6	4	1	practice_slash	9	practice_slash	21	stimuli_target_rectanglediamonds.svg	stimuli_distractor_diamondtriangles.svg	1	yes	53	1	871	0	0			0	0			1				0	
6.6.1	win	2023-06-02	08:44:18	08:55:52	685114	627809c52874925390a423a6	4	1	practice_slash	9	advance_on_keypress_SLASH	22	stimuli_target_rectanglediamonds.svg	stimuli_distractor_diamondtriangles.svg	1	yes	57	0	630	0	0			0	0			1				0	
6.6.1	win	2023-06-02	08:44:18	08:55:56	689391	627809c52874925390a423a6	4	1	practice_slash	9	practice_slash	23	stimuli_distractor_trianglediamonds.svg	stimuli_distractor_trianglediamonds.svg	15	no	0	1	2000	0	0			0	0			1				0	
6.6.1	win	2023-06-02	08:44:18	08:55:56	689391	627809c52874925390a423a6	4	1	practice_slash	9	advance_on_keypress_SLASH	24	stimuli_distractor_trianglediamonds.svg	stimuli_distractor_trianglediamonds.svg	15	no	57	0	619	0	0			0	0			1				0	
6.6.1	win	2023-06-02	08:44:18	08:55:59	692425	627809c52874925390a423a6	4	1	practice_slash	9	practice_slash	25	stimuli_distractor_trianglediamonds.svg	stimuli_target_diamondrectangles.svg	12	yes	53	1	767	0	0			0	0			1				0	
6.6.1	win	2023-06-02	08:44:18	08:55:59	692425	627809c52874925390a423a6	4	1	practice_slash	9	advance_on_keypress_SLASH	26	stimuli_distractor_trianglediamonds.svg	stimuli_target_diamondrectangles.svg	12	yes	57	0	498	0	0			0	0			1				0	
6.6.1	win	2023-06-02	08:44:18	08:56:02	695333	627809c52874925390a423a6	4	1	practice_slash	9	practice_slash	27	stimuli_target_diamondsquares.svg	stimuli_distractor_diamondtriangles.svg	3	yes	53	1	759	0	0			0	0			1				0	
6.6.1	win	2023-06-02	08:44:18	08:56:02	695333	627809c52874925390a423a6	4	1	practice_slash	9	advance_on_keypress_SLASH	28	stimuli_target_diamondsquares.svg	stimuli_distractor_diamondtriangles.svg	3	yes	57	0	289	0	0			0	0			1				0	
6.6.1	win	2023-06-02	08:44:18	08:56:05	698002	627809c52874925390a423a6	4	1	practice_slash	9	practice_slash	29	stimuli_distractor_diamondtriangles.svg	stimuli_target_rectangletriangles.svg	7	yes	53	1	728	0	0			0	0			1				0	
6.6.1	win	2023-06-02	08:44:18	08:56:05	698002	627809c52874925390a423a6	4	1	practice_slash	9	advance_on_keypress_SLASH	30	stimuli_distractor_diamondtriangles.svg	stimuli_target_rectangletriangles.svg	7	yes	57	0	412	0	0			0	0			1				0	
6.6.1	win	2023-06-02	08:44:18	08:56:07	700711	627809c52874925390a423a6	4	1	practice_slash	9	practice_slash	31	stimuli_distractor_diamondtriangles.svg	stimuli_target_diamondrectangles.svg	8	yes	53	1	637	0	0			0	0			1				0	
6.6.1	win	2023-06-02	08:44:18	08:56:07	700711	627809c52874925390a423a6	4	1	practice_slash	9	advance_on_keypress_SLASH	32	stimuli_distractor_diamondtriangles.svg	stimuli_target_diamondrectangles.svg	8	yes	57	0	505	0	0			0	0			1				0	
6.6.1	win	2023-06-02	08:44:18	08:56:16	709472	627809c52874925390a423a6	4	1	main_slash	11	main_slash	1	stimuli_distractor_diamondtriangles.svg	stimuli_distractor_trianglediamonds.svg	37	no	0	1	2000	0	0			0	0			1				0	
6.6.1	win	2023-06-02	08:44:18	08:56:16	709472	627809c52874925390a423a6	4	1	main_slash	11	advance_on_keypress_SLASH	2	stimuli_distractor_diamondtriangles.svg	stimuli_distractor_trianglediamonds.svg	37	no	57	0	649	0	0			0	0			1				0	
6.6.1	win	2023-06-02	08:44:18	08:56:19	712772	627809c52874925390a423a6	4	1	main_slash	11	main_slash	3	stimuli_distractor_trianglediamonds.svg	stimuli_distractor_trianglediamonds.svg	34	no	0	1	2000	0	0			0	0			1				0	
6.6.1	win	2023-06-02	08:44:18	08:56:19	712772	627809c52874925390a423a6	4	1	main_slash	11	advance_on_keypress_SLASH	4	stimuli_distractor_trianglediamonds.svg	stimuli_distractor_trianglediamonds.svg	34	no	57	0	595	0	0			0	0			1				0	
6.6.1	win	2023-06-02	08:44:18	08:56:21	714898	627809c52874925390a423a6	4	1	main_slash	11	main_slash	5	stimuli_target_rectanglediamonds.svg	stimuli_distractor_trianglediamonds.svg	2	yes	53	1	875	0	0			0	0			1				0	
6.6.1	win	2023-06-02	08:44:18	08:56:21	714898	627809c52874925390a423a6	4	1	main_slash	11	advance_on_keypress_SLASH	6	stimuli_target_rectanglediamonds.svg	stimuli_distractor_trianglediamonds.svg	2	yes	57	0	640	0	0			0	0			1				0	
6.6.1	win	2023-06-02	08:44:18	08:56:23	716868	627809c52874925390a423a6	4	1	main_slash	11	main_slash	7	stimuli_target_trianglerectangles.svg	stimuli_distractor_diamondtriangles.svg	21	yes	53	1	695	0	0			0	0			1				0	
6.6.1	win	2023-06-02	08:44:18	08:56:23	716868	627809c52874925390a423a6	4	1	main_slash	11	advance_on_keypress_SLASH	8	stimuli_target_trianglerectangles.svg	stimuli_distractor_diamondtriangles.svg	21	yes	57	0	423	0	0			0	0			1				0	
6.6.1	win	2023-06-02	08:44:18	08:56:25	718617	627809c52874925390a423a6	4	1	main_slash	11	main_slash	9	stimuli_distractor_trianglediamonds.svg	stimuli_target_trianglerectangles.svg	25	yes	53	1	677	0	0			0	0			1				0	
6.6.1	win	2023-06-02	08:44:18	08:56:25	718617	627809c52874925390a423a6	4	1	main_slash	11	advance_on_keypress_SLASH	10	stimuli_distractor_trianglediamonds.svg	stimuli_target_trianglerectangles.svg	25	yes	57	0	367	0	0			0	0			1				0	
6.6.1	win	2023-06-02	08:44:18	08:56:27	720951	627809c52874925390a423a6	4	1	main_slash	11	main_slash	11	stimuli_distractor_trianglediamonds.svg	stimuli_target_rectangletriangles.svg	9	yes	53	1	1312	0	0			0	0			1				0	
6.6.1	win	2023-06-02	08:44:18	08:56:27	720951	627809c52874925390a423a6	4	1	main_slash	11	advance_on_keypress_SLASH	12	stimuli_distractor_trianglediamonds.svg	stimuli_target_rectangletriangles.svg	9	yes	57	0	430	0	0			0	0			1				0	
6.6.1	win	2023-06-02	08:44:18	08:56:29	722697	627809c52874925390a423a6	4	1	main_slash	11	main_slash	13	stimuli_distractor_trianglediamonds.svg	stimuli_target_squaretriangles.svg	11	yes	53	1	656	0	0			0	0			1				0	
6.6.1	win	2023-06-02	08:44:18	08:56:29	722697	627809c52874925390a423a6	4	1	main_slash	11	advance_on_keypress_SLASH	14	stimuli_distractor_trianglediamonds.svg	stimuli_target_squaretriangles.svg	11	yes	57	0	431	0	0			0	0			1				0	
6.6.1	win	2023-06-02	08:44:18	08:56:31	724358	627809c52874925390a423a6	4	1	main_slash	11	main_slash	15	stimuli_distractor_diamondtriangles.svg	stimuli_target_diamondrectangles.svg	31	yes	53	1	567	0	0			0	0			1				0	
6.6.1	win	2023-06-02	08:44:18	08:56:31	724358	627809c52874925390a423a6	4	1	main_slash	11	advance_on_keypress_SLASH	16	stimuli_distractor_diamondtriangles.svg	stimuli_target_diamondrectangles.svg	31	yes	57	0	355	0	0			0	0			1				0	
6.6.1	win	2023-06-02	08:44:18	08:56:33	726046	627809c52874925390a423a6	4	1	main_slash	11	main_slash	17	stimuli_target_trianglesquares.svg	stimuli_distractor_trianglediamonds.svg	18	yes	53	1	689	0	0			0	0			1				0	
6.6.1	win	2023-06-02	08:44:18	08:56:33	726046	627809c52874925390a423a6	4	1	main_slash	11	advance_on_keypress_SLASH	18	stimuli_target_trianglesquares.svg	stimuli_distractor_trianglediamonds.svg	18	yes	57	0	412	0	0			0	0			1				0	
6.6.1	win	2023-06-02	08:44:18	08:56:34	727638	627809c52874925390a423a6	4	1	main_slash	11	main_slash	19	stimuli_distractor_trianglediamonds.svg	stimuli_target_trianglesquares.svg	26	yes	53	1	532	0	0			0	0			1				0	
6.6.1	win	2023-06-02	08:44:18	08:56:34	727638	627809c52874925390a423a6	4	1	main_slash	11	advance_on_keypress_SLASH	20	stimuli_distractor_trianglediamonds.svg	stimuli_target_trianglesquares.svg	26	yes	57	0	405	0	0			0	0			1				0	
6.6.1	win	2023-06-02	08:44:18	08:56:37	730691	627809c52874925390a423a6	4	1	main_slash	11	main_slash	21	stimuli_distractor_diamondtriangles.svg	stimuli_target_squaretriangles.svg	15	yes	0	0	2000	0	0			0	0			1				0	
6.6.1	win	2023-06-02	08:44:18	08:56:37	730691	627809c52874925390a423a6	4	1	main_slash	11	advance_on_keypress_SLASH	22	stimuli_distractor_diamondtriangles.svg	stimuli_target_squaretriangles.svg	15	yes	57	0	345	0	0			0	0			1				0	
6.6.1	win	2023-06-02	08:44:18	08:56:39	732234	627809c52874925390a423a6	4	1	main_slash	11	main_slash	23	stimuli_distractor_trianglediamonds.svg	stimuli_target_diamondrectangles.svg	27	yes	53	1	544	0	0			0	0			1				0	
6.6.1	win	2023-06-02	08:44:18	08:56:39	732234	627809c52874925390a423a6	4	1	main_slash	11	advance_on_keypress_SLASH	24	stimuli_distractor_trianglediamonds.svg	stimuli_target_diamondrectangles.svg	27	yes	57	0	365	0	0			0	0			1				0	
6.6.1	win	2023-06-02	08:44:18	08:56:40	733794	627809c52874925390a423a6	4	1	main_slash	11	main_slash	25	stimuli_distractor_diamondtriangles.svg	stimuli_target_trianglesquares.svg	30	yes	53	1	539	0	0			0	0			1				0	
6.6.1	win	2023-06-02	08:44:18	08:56:40	733794	627809c52874925390a423a6	4	1	main_slash	11	advance_on_keypress_SLASH	26	stimuli_distractor_diamondtriangles.svg	stimuli_target_trianglesquares.svg	30	yes	57	0	376	0	0			0	0			1				0	
6.6.1	win	2023-06-02	08:44:18	08:56:43	736806	627809c52874925390a423a6	4	1	main_slash	11	main_slash	27	stimuli_distractor_trianglediamonds.svg	stimuli_distractor_trianglediamonds.svg	33	no	0	1	2000	0	0			0	0			1				0	
6.6.1	win	2023-06-02	08:44:18	08:56:43	736806	627809c52874925390a423a6	4	1	main_slash	11	advance_on_keypress_SLASH	28	stimuli_distractor_trianglediamonds.svg	stimuli_distractor_trianglediamonds.svg	33	no	57	0	664	0	0			0	0			1				0	
6.6.1	win	2023-06-02	08:44:18	08:56:45	738698	627809c52874925390a423a6	4	1	main_slash	11	main_slash	29	stimuli_target_squarediamonds.svg	stimuli_distractor_trianglediamonds.svg	4	yes	53	1	575	0	0			0	0			1				0	
6.6.1	win	2023-06-02	08:44:18	08:56:45	738698	627809c52874925390a423a6	4	1	main_slash	11	advance_on_keypress_SLASH	30	stimuli_target_squarediamonds.svg	stimuli_distractor_trianglediamonds.svg	4	yes	57	0	354	0	0			0	0			1				0	
6.6.1	win	2023-06-02	08:44:18	08:56:47	740268	627809c52874925390a423a6	4	1	main_slash	11	main_slash	31	stimuli_target_trianglerectangles.svg	stimuli_distractor_trianglediamonds.svg	17	yes	53	1	578	0	0			0	0			1				0	
6.6.1	win	2023-06-02	08:44:18	08:56:47	740268	627809c52874925390a423a6	4	1	main_slash	11	advance_on_keypress_SLASH	32	stimuli_target_trianglerectangles.svg	stimuli_distractor_trianglediamonds.svg	17	yes	57	0	347	0	0			0	0			1				0	
6.6.1	win	2023-06-02	08:44:18	08:56:49	742034	627809c52874925390a423a6	4	1	main_slash	11	main_slash	33	stimuli_distractor_diamondtriangles.svg	stimuli_target_rectanglediamonds.svg	14	yes	53	1	762	0	0			0	0			1				0	
6.6.1	win	2023-06-02	08:44:18	08:56:49	742034	627809c52874925390a423a6	4	1	main_slash	11	advance_on_keypress_SLASH	34	stimuli_distractor_diamondtriangles.svg	stimuli_target_rectanglediamonds.svg	14	yes	57	0	359	0	0			0	0			1				0	
6.6.1	win	2023-06-02	08:44:18	08:56:50	743930	627809c52874925390a423a6	4	1	main_slash	11	main_slash	35	stimuli_distractor_diamondtriangles.svg	stimuli_target_diamondsquares.svg	32	yes	53	1	891	0	0			0	0			1				0	
6.6.1	win	2023-06-02	08:44:18	08:56:50	743930	627809c52874925390a423a6	4	1	main_slash	11	advance_on_keypress_SLASH	36	stimuli_distractor_diamondtriangles.svg	stimuli_target_diamondsquares.svg	32	yes	57	0	340	0	0			0	0			1				0	
6.6.1	win	2023-06-02	08:44:18	08:56:52	745485	627809c52874925390a423a6	4	1	main_slash	11	main_slash	37	stimuli_target_rectangletriangles.svg	stimuli_distractor_diamondtriangles.svg	5	yes	53	1	579	0	0			0	0			1				0	
6.6.1	win	2023-06-02	08:44:18	08:56:52	745485	627809c52874925390a423a6	4	1	main_slash	11	advance_on_keypress_SLASH	38	stimuli_target_rectangletriangles.svg	stimuli_distractor_diamondtriangles.svg	5	yes	57	0	342	0	0			0	0			1				0	
6.6.1	win	2023-06-02	08:44:18	08:56:54	747066	627809c52874925390a423a6	4	1	main_slash	11	main_slash	39	stimuli_target_rectanglediamonds.svg	stimuli_distractor_diamondtriangles.svg	6	yes	53	1	591	0	0			0	0			1				0	
6.6.1	win	2023-06-02	08:44:18	08:56:54	747066	627809c52874925390a423a6	4	1	main_slash	11	advance_on_keypress_SLASH	40	stimuli_target_rectanglediamonds.svg	stimuli_distractor_diamondtriangles.svg	6	yes	57	0	319	0	0			0	0			1				0	
6.6.1	win	2023-06-02	08:44:18	08:56:55	748764	627809c52874925390a423a6	4	1	main_slash	11	main_slash	41	stimuli_target_squarediamonds.svg	stimuli_distractor_diamondtriangles.svg	8	yes	53	1	724	0	0			0	0			1				0	
6.6.1	win	2023-06-02	08:44:18	08:56:55	748764	627809c52874925390a423a6	4	1	main_slash	11	advance_on_keypress_SLASH	42	stimuli_target_squarediamonds.svg	stimuli_distractor_diamondtriangles.svg	8	yes	57	0	358	0	0			0	0			1				0	
6.6.1	win	2023-06-02	08:44:18	08:56:57	750521	627809c52874925390a423a6	4	1	main_slash	11	main_slash	43	stimuli_target_rectangletriangles.svg	stimuli_distractor_trianglediamonds.svg	1	yes	53	1	766	0	0			0	0			1				0	
6.6.1	win	2023-06-02	08:44:18	08:56:57	750521	627809c52874925390a423a6	4	1	main_slash	11	advance_on_keypress_SLASH	44	stimuli_target_rectangletriangles.svg	stimuli_distractor_trianglediamonds.svg	1	yes	57	0	332	0	0			0	0			1				0	
6.6.1	win	2023-06-02	08:44:18	08:57:00	753508	627809c52874925390a423a6	4	1	main_slash	11	main_slash	45	stimuli_distractor_trianglediamonds.svg	stimuli_distractor_diamondtriangles.svg	35	no	0	1	2000	0	0			0	0			1				0	
6.6.1	win	2023-06-02	08:44:18	08:57:00	753508	627809c52874925390a423a6	4	1	main_slash	11	advance_on_keypress_SLASH	46	stimuli_distractor_trianglediamonds.svg	stimuli_distractor_diamondtriangles.svg	35	no	57	0	987	0	0			0	0			1				0	
6.6.1	win	2023-06-02	08:44:18	08:57:02	755744	627809c52874925390a423a6	4	1	main_slash	11	main_slash	47	stimuli_distractor_diamondtriangles.svg	stimuli_target_rectangletriangles.svg	13	yes	53	1	605	0	0			0	0			1				0	
6.6.1	win	2023-06-02	08:44:18	08:57:02	755744	627809c52874925390a423a6	4	1	main_slash	11	advance_on_keypress_SLASH	48	stimuli_distractor_diamondtriangles.svg	stimuli_target_rectangletriangles.svg	13	yes	57	0	358	0	0			0	0			1				0	
6.6.1	win	2023-06-02	08:44:18	08:57:04	757207	627809c52874925390a423a6	4	1	main_slash	11	main_slash	49	stimuli_distractor_trianglediamonds.svg	stimuli_target_squarediamonds.svg	12	yes	53	1	467	0	0			0	0			1				0	
6.6.1	win	2023-06-02	08:44:18	08:57:04	757207	627809c52874925390a423a6	4	1	main_slash	11	advance_on_keypress_SLASH	50	stimuli_distractor_trianglediamonds.svg	stimuli_target_squarediamonds.svg	12	yes	57	0	307	0	0			0	0			1				0	
6.6.1	win	2023-06-02	08:44:18	08:57:05	758713	627809c52874925390a423a6	4	1	main_slash	11	main_slash	51	stimuli_target_diamondrectangles.svg	stimuli_distractor_trianglediamonds.svg	19	yes	53	1	556	0	0			0	0			1				0	
6.6.1	win	2023-06-02	08:44:18	08:57:05	758713	627809c52874925390a423a6	4	1	main_slash	11	advance_on_keypress_SLASH	52	stimuli_target_diamondrectangles.svg	stimuli_distractor_trianglediamonds.svg	19	yes	57	0	323	0	0			0	0			1				0	
6.6.1	win	2023-06-02	08:44:18	08:57:07	760188	627809c52874925390a423a6	4	1	main_slash	11	main_slash	53	stimuli_distractor_diamondtriangles.svg	stimuli_target_squarediamonds.svg	16	yes	53	1	490	0	0			0	0			1				0	
6.6.1	win	2023-06-02	08:44:18	08:57:07	760188	627809c52874925390a423a6	4	1	main_slash	11	advance_on_keypress_SLASH	54	stimuli_distractor_diamondtriangles.svg	stimuli_target_squarediamonds.svg	16	yes	57	0	337	0	0			0	0			1				0	
6.6.1	win	2023-06-02	08:44:18	08:57:08	761803	627809c52874925390a423a6	4	1	main_slash	11	main_slash	55	stimuli_target_diamondsquares.svg	stimuli_distractor_diamondtriangles.svg	24	yes	53	1	631	0	0			0	0			1				0	
6.6.1	win	2023-06-02	08:44:18	08:57:08	761803	627809c52874925390a423a6	4	1	main_slash	11	advance_on_keypress_SLASH	56	stimuli_target_diamondsquares.svg	stimuli_distractor_diamondtriangles.svg	24	yes	57	0	306	0	0			0	0			1				0	
6.6.1	win	2023-06-02	08:44:18	08:57:10	763351	627809c52874925390a423a6	4	1	main_slash	11	main_slash	57	stimuli_target_diamondrectangles.svg	stimuli_distractor_diamondtriangles.svg	23	yes	53	1	596	0	0			0	0			1				0	
6.6.1	win	2023-06-02	08:44:18	08:57:10	763351	627809c52874925390a423a6	4	1	main_slash	11	advance_on_keypress_SLASH	58	stimuli_target_diamondrectangles.svg	stimuli_distractor_diamondtriangles.svg	23	yes	57	0	314	0	0			0	0			1				0	
6.6.1	win	2023-06-02	08:44:18	08:57:11	764806	627809c52874925390a423a6	4	1	main_slash	11	main_slash	59	stimuli_target_squaretriangles.svg	stimuli_distractor_trianglediamonds.svg	3	yes	53	1	483	0	0			0	0			1				0	
6.6.1	win	2023-06-02	08:44:18	08:57:11	764806	627809c52874925390a423a6	4	1	main_slash	11	advance_on_keypress_SLASH	60	stimuli_target_squaretriangles.svg	stimuli_distractor_trianglediamonds.svg	3	yes	57	0	312	0	0			0	0			1				0	
6.6.1	win	2023-06-02	08:44:18	08:57:13	766326	627809c52874925390a423a6	4	1	main_slash	11	main_slash	61	stimuli_target_squaretriangles.svg	stimuli_distractor_diamondtriangles.svg	7	yes	53	1	552	0	0			0	0			1				0	
6.6.1	win	2023-06-02	08:44:18	08:57:13	766326	627809c52874925390a423a6	4	1	main_slash	11	advance_on_keypress_SLASH	62	stimuli_target_squaretriangles.svg	stimuli_distractor_diamondtriangles.svg	7	yes	57	0	328	0	0			0	0			1				0	
6.6.1	win	2023-06-02	08:44:18	08:57:16	769305	627809c52874925390a423a6	4	1	main_slash	11	main_slash	63	stimuli_distractor_diamondtriangles.svg	stimuli_distractor_diamondtriangles.svg	40	no	0	1	2000	0	0			0	0			1				0	
6.6.1	win	2023-06-02	08:44:18	08:57:16	769305	627809c52874925390a423a6	4	1	main_slash	11	advance_on_keypress_SLASH	64	stimuli_distractor_diamondtriangles.svg	stimuli_distractor_diamondtriangles.svg	40	no	57	0	636	0	0			0	0			1				0	
6.6.1	win	2023-06-02	08:44:18	08:57:18	771224	627809c52874925390a423a6	4	1	main_slash	11	main_slash	65	stimuli_distractor_trianglediamonds.svg	stimuli_target_diamondsquares.svg	28	yes	53	1	634	0	0			0	0			1				0	
6.6.1	win	2023-06-02	08:44:18	08:57:18	771224	627809c52874925390a423a6	4	1	main_slash	11	advance_on_keypress_SLASH	66	stimuli_distractor_trianglediamonds.svg	stimuli_target_diamondsquares.svg	28	yes	57	0	369	0	0			0	0			1				0	
6.6.1	win	2023-06-02	08:44:18	08:57:20	773018	627809c52874925390a423a6	4	1	main_slash	11	main_slash	67	stimuli_distractor_trianglediamonds.svg	stimuli_distractor_diamondtriangles.svg	36	no	53	0	779	0	0			0	0			1				0	
6.6.1	win	2023-06-02	08:44:18	08:57:20	773018	627809c52874925390a423a6	4	1	main_slash	11	advance_on_keypress_SLASH	68	stimuli_distractor_trianglediamonds.svg	stimuli_distractor_diamondtriangles.svg	36	no	57	0	528	0	0			0	0			1				0	
6.6.1	win	2023-06-02	08:44:18	08:57:23	776207	627809c52874925390a423a6	4	1	main_slash	11	main_slash	69	stimuli_distractor_diamondtriangles.svg	stimuli_distractor_trianglediamonds.svg	38	no	0	1	2000	0	0			0	0			1				0	
6.6.1	win	2023-06-02	08:44:18	08:57:23	776207	627809c52874925390a423a6	4	1	main_slash	11	advance_on_keypress_SLASH	70	stimuli_distractor_diamondtriangles.svg	stimuli_distractor_trianglediamonds.svg	38	no	57	0	584	0	0			0	0			1				0	
6.6.1	win	2023-06-02	08:44:18	08:57:25	778058	627809c52874925390a423a6	4	1	main_slash	11	main_slash	71	stimuli_target_trianglesquares.svg	stimuli_distractor_diamondtriangles.svg	22	yes	53	1	618	0	0			0	0			1				0	
6.6.1	win	2023-06-02	08:44:18	08:57:25	778058	627809c52874925390a423a6	4	1	main_slash	11	advance_on_keypress_SLASH	72	stimuli_target_trianglesquares.svg	stimuli_distractor_diamondtriangles.svg	22	yes	57	0	329	0	0			0	0			1				0	
6.6.1	win	2023-06-02	08:44:18	08:57:28	781039	627809c52874925390a423a6	4	1	main_slash	11	main_slash	73	stimuli_distractor_diamondtriangles.svg	stimuli_distractor_diamondtriangles.svg	39	no	0	1	2000	0	0			0	0			1				0	
6.6.1	win	2023-06-02	08:44:18	08:57:28	781039	627809c52874925390a423a6	4	1	main_slash	11	advance_on_keypress_SLASH	74	stimuli_distractor_diamondtriangles.svg	stimuli_distractor_diamondtriangles.svg	39	no	57	0	726	0	0			0	0			1				0	
6.6.1	win	2023-06-02	08:44:18	08:57:30	783006	627809c52874925390a423a6	4	1	main_slash	11	main_slash	75	stimuli_distractor_diamondtriangles.svg	stimuli_target_trianglerectangles.svg	29	yes	53	1	601	0	0			0	0			1				0	
6.6.1	win	2023-06-02	08:44:18	08:57:30	783006	627809c52874925390a423a6	4	1	main_slash	11	advance_on_keypress_SLASH	76	stimuli_distractor_diamondtriangles.svg	stimuli_target_trianglerectangles.svg	29	yes	57	0	404	0	0			0	0			1				0	
6.6.1	win	2023-06-02	08:44:18	08:57:31	784707	627809c52874925390a423a6	4	1	main_slash	11	main_slash	77	stimuli_target_diamondsquares.svg	stimuli_distractor_trianglediamonds.svg	20	yes	53	1	651	0	0			0	0			1				0	
6.6.1	win	2023-06-02	08:44:18	08:57:31	784707	627809c52874925390a423a6	4	1	main_slash	11	advance_on_keypress_SLASH	78	stimuli_target_diamondsquares.svg	stimuli_distractor_trianglediamonds.svg	20	yes	57	0	362	0	0			0	0			1				0	
6.6.1	win	2023-06-02	08:44:18	08:57:33	786310	627809c52874925390a423a6	4	1	main_slash	11	main_slash	79	stimuli_distractor_trianglediamonds.svg	stimuli_target_rectanglediamonds.svg	10	yes	53	1	586	0	0			0	0			1				0	
6.6.1	win	2023-06-02	08:44:18	08:57:33	786310	627809c52874925390a423a6	4	1	main_slash	11	advance_on_keypress_SLASH	80	stimuli_distractor_trianglediamonds.svg	stimuli_target_rectanglediamonds.svg	10	yes	57	0	361	0	0			0	0			1				0	
6.6.1	win	2023-06-02	08:44:18	08:57:34	787934	627809c52874925390a423a6	4	1	main_slash	11	main_slash	81	stimuli_distractor_diamondtriangles.svg	stimuli_target_rectangletriangles.svg	13	yes	53	1	595	0	0			0	0			1				0	
6.6.1	win	2023-06-02	08:44:18	08:57:34	787934	627809c52874925390a423a6	4	1	main_slash	11	advance_on_keypress_SLASH	82	stimuli_distractor_diamondtriangles.svg	stimuli_target_rectangletriangles.svg	13	yes	57	0	360	0	0			0	0			1				0	
6.6.1	win	2023-06-02	08:44:18	08:57:36	789486	627809c52874925390a423a6	4	1	main_slash	11	main_slash	83	stimuli_target_squaretriangles.svg	stimuli_distractor_trianglediamonds.svg	3	yes	53	1	547	0	0			0	0			1				0	
6.6.1	win	2023-06-02	08:44:18	08:57:36	789486	627809c52874925390a423a6	4	1	main_slash	11	advance_on_keypress_SLASH	84	stimuli_target_squaretriangles.svg	stimuli_distractor_trianglediamonds.svg	3	yes	57	0	342	0	0			0	0			1				0	
6.6.1	win	2023-06-02	08:44:18	08:57:38	791058	627809c52874925390a423a6	4	1	main_slash	11	main_slash	85	stimuli_distractor_trianglediamonds.svg	stimuli_target_diamondrectangles.svg	27	yes	53	1	586	0	0			0	0			1				0	
6.6.1	win	2023-06-02	08:44:18	08:57:38	791058	627809c52874925390a423a6	4	1	main_slash	11	advance_on_keypress_SLASH	86	stimuli_distractor_trianglediamonds.svg	stimuli_target_diamondrectangles.svg	27	yes	57	0	319	0	0			0	0			1				0	
6.6.1	win	2023-06-02	08:44:18	08:57:39	792517	627809c52874925390a423a6	4	1	main_slash	11	main_slash	87	stimuli_distractor_diamondtriangles.svg	stimuli_target_trianglesquares.svg	30	yes	53	1	495	0	0			0	0			1				0	
6.6.1	win	2023-06-02	08:44:18	08:57:39	792517	627809c52874925390a423a6	4	1	main_slash	11	advance_on_keypress_SLASH	88	stimuli_distractor_diamondtriangles.svg	stimuli_target_trianglesquares.svg	30	yes	57	0	301	0	0			0	0			1				0	
6.6.1	win	2023-06-02	08:44:18	08:57:42	795474	627809c52874925390a423a6	4	1	main_slash	11	main_slash	89	stimuli_distractor_trianglediamonds.svg	stimuli_distractor_trianglediamonds.svg	33	no	0	1	2000	0	0			0	0			1				0	
6.6.1	win	2023-06-02	08:44:18	08:57:42	795474	627809c52874925390a423a6	4	1	main_slash	11	advance_on_keypress_SLASH	90	stimuli_distractor_trianglediamonds.svg	stimuli_distractor_trianglediamonds.svg	33	no	57	0	369	0	0			0	0			1				0	
6.6.1	win	2023-06-02	08:44:18	08:57:44	797201	627809c52874925390a423a6	4	1	main_slash	11	main_slash	91	stimuli_target_diamondsquares.svg	stimuli_distractor_diamondtriangles.svg	24	yes	53	1	712	0	0			0	0			1				0	
6.6.1	win	2023-06-02	08:44:18	08:57:44	797201	627809c52874925390a423a6	4	1	main_slash	11	advance_on_keypress_SLASH	92	stimuli_target_diamondsquares.svg	stimuli_distractor_diamondtriangles.svg	24	yes	57	0	344	0	0			0	0			1				0	
6.6.1	win	2023-06-02	08:44:18	08:57:46	799127	627809c52874925390a423a6	4	1	main_slash	11	main_slash	93	stimuli_distractor_diamondtriangles.svg	stimuli_target_squarediamonds.svg	16	yes	53	1	920	0	0			0	0			1				0	
6.6.1	win	2023-06-02	08:44:18	08:57:46	799127	627809c52874925390a423a6	4	1	main_slash	11	advance_on_keypress_SLASH	94	stimuli_distractor_diamondtriangles.svg	stimuli_target_squarediamonds.svg	16	yes	57	0	380	0	0			0	0			1				0	
6.6.1	win	2023-06-02	08:44:18	08:57:49	802156	627809c52874925390a423a6	4	1	main_slash	11	main_slash	95	stimuli_distractor_diamondtriangles.svg	stimuli_distractor_diamondtriangles.svg	40	no	0	1	2000	0	0			0	0			1				0	
6.6.1	win	2023-06-02	08:44:18	08:57:49	802156	627809c52874925390a423a6	4	1	main_slash	11	advance_on_keypress_SLASH	96	stimuli_distractor_diamondtriangles.svg	stimuli_distractor_diamondtriangles.svg	40	no	57	0	581	0	0			0	0			1				0	
6.6.1	win	2023-06-02	08:44:18	08:57:52	805390	627809c52874925390a423a6	4	1	main_slash	11	main_slash	97	stimuli_distractor_diamondtriangles.svg	stimuli_distractor_trianglediamonds.svg	37	no	0	1	2000	0	0			0	0			1				0	
6.6.1	win	2023-06-02	08:44:18	08:57:52	805390	627809c52874925390a423a6	4	1	main_slash	11	advance_on_keypress_SLASH	98	stimuli_distractor_diamondtriangles.svg	stimuli_distractor_trianglediamonds.svg	37	no	57	0	412	0	0			0	0			1				0	
6.6.1	win	2023-06-02	08:44:18	08:57:54	807097	627809c52874925390a423a6	4	1	main_slash	11	main_slash	99	stimuli_distractor_trianglediamonds.svg	stimuli_target_squaretriangles.svg	11	yes	53	1	641	0	0			0	0			1				0	
6.6.1	win	2023-06-02	08:44:18	08:57:54	807097	627809c52874925390a423a6	4	1	main_slash	11	advance_on_keypress_SLASH	100	stimuli_distractor_trianglediamonds.svg	stimuli_target_squaretriangles.svg	11	yes	57	0	489	0	0			0	0			1				0	
6.6.1	win	2023-06-02	08:44:18	08:57:57	810224	627809c52874925390a423a6	4	1	main_slash	11	main_slash	101	stimuli_distractor_trianglediamonds.svg	stimuli_distractor_trianglediamonds.svg	34	no	0	1	2000	0	0			0	0			1				0	
6.6.1	win	2023-06-02	08:44:18	08:57:57	810224	627809c52874925390a423a6	4	1	main_slash	11	advance_on_keypress_SLASH	102	stimuli_distractor_trianglediamonds.svg	stimuli_distractor_trianglediamonds.svg	34	no	57	0	650	0	0			0	0			1				0	
6.6.1	win	2023-06-02	08:44:18	08:57:59	812126	627809c52874925390a423a6	4	1	main_slash	11	main_slash	103	stimuli_distractor_trianglediamonds.svg	stimuli_target_rectangletriangles.svg	9	yes	53	1	604	0	0			0	0			1				0	
6.6.1	win	2023-06-02	08:44:18	08:57:59	812126	627809c52874925390a423a6	4	1	main_slash	11	advance_on_keypress_SLASH	104	stimuli_distractor_trianglediamonds.svg	stimuli_target_rectangletriangles.svg	9	yes	57	0	347	0	0			0	0			1				0	
6.6.1	win	2023-06-02	08:44:18	08:58:00	813640	627809c52874925390a423a6	4	1	main_slash	11	main_slash	105	stimuli_target_rectangletriangles.svg	stimuli_distractor_diamondtriangles.svg	5	yes	53	1	518	0	0			0	0			1				0	
6.6.1	win	2023-06-02	08:44:18	08:58:00	813640	627809c52874925390a423a6	4	1	main_slash	11	advance_on_keypress_SLASH	106	stimuli_target_rectangletriangles.svg	stimuli_distractor_diamondtriangles.svg	5	yes	57	0	287	0	0			0	0			1				0	
6.6.1	win	2023-06-02	08:44:18	08:58:02	815114	627809c52874925390a423a6	4	1	main_slash	11	main_slash	107	stimuli_distractor_trianglediamonds.svg	stimuli_distractor_diamondtriangles.svg	36	no	53	0	541	0	0			0	0			1				0	
6.6.1	win	2023-06-02	08:44:18	08:58:02	815114	627809c52874925390a423a6	4	1	main_slash	11	advance_on_keypress_SLASH	108	stimuli_distractor_trianglediamonds.svg	stimuli_distractor_diamondtriangles.svg	36	no	57	0	381	0	0			0	0			1				0	
6.6.1	win	2023-06-02	08:44:18	08:58:03	816680	627809c52874925390a423a6	4	1	main_slash	11	main_slash	109	stimuli_target_rectanglediamonds.svg	stimuli_distractor_diamondtriangles.svg	6	yes	53	1	540	0	0			0	0			1				0	
6.6.1	win	2023-06-02	08:44:18	08:58:03	816680	627809c52874925390a423a6	4	1	main_slash	11	advance_on_keypress_SLASH	110	stimuli_target_rectanglediamonds.svg	stimuli_distractor_diamondtriangles.svg	6	yes	57	0	360	0	0			0	0			1				0	
6.6.1	win	2023-06-02	08:44:18	08:58:06	819689	627809c52874925390a423a6	4	1	main_slash	11	main_slash	111	stimuli_distractor_diamondtriangles.svg	stimuli_distractor_trianglediamonds.svg	38	no	0	1	2000	0	0			0	0			1				0	
6.6.1	win	2023-06-02	08:44:18	08:58:06	819689	627809c52874925390a423a6	4	1	main_slash	11	advance_on_keypress_SLASH	112	stimuli_distractor_diamondtriangles.svg	stimuli_distractor_trianglediamonds.svg	38	no	57	0	784	0	0			0	0			1				0	
6.6.1	win	2023-06-02	08:44:18	08:58:09	822301	627809c52874925390a423a6	4	1	main_slash	11	main_slash	113	stimuli_target_diamondrectangles.svg	stimuli_distractor_diamondtriangles.svg	23	yes	53	1	1179	0	0			0	0			1				0	
6.6.1	win	2023-06-02	08:44:18	08:58:09	822301	627809c52874925390a423a6	4	1	main_slash	11	advance_on_keypress_SLASH	114	stimuli_target_diamondrectangles.svg	stimuli_distractor_diamondtriangles.svg	23	yes	57	0	454	0	0			0	0			1				0	
6.6.1	win	2023-06-02	08:44:18	08:58:11	824106	627809c52874925390a423a6	4	1	main_slash	11	main_slash	115	stimuli_target_rectanglediamonds.svg	stimuli_distractor_trianglediamonds.svg	2	yes	53	1	697	0	0			0	0			1				0	
6.6.1	win	2023-06-02	08:44:18	08:58:11	824106	627809c52874925390a423a6	4	1	main_slash	11	advance_on_keypress_SLASH	116	stimuli_target_rectanglediamonds.svg	stimuli_distractor_trianglediamonds.svg	2	yes	57	0	323	0	0			0	0			1				0	
6.6.1	win	2023-06-02	08:44:18	08:58:12	825726	627809c52874925390a423a6	4	1	main_slash	11	main_slash	117	stimuli_distractor_trianglediamonds.svg	stimuli_target_trianglesquares.svg	26	yes	53	1	654	0	0			0	0			1				0	
6.6.1	win	2023-06-02	08:44:18	08:58:12	825726	627809c52874925390a423a6	4	1	main_slash	11	advance_on_keypress_SLASH	118	stimuli_distractor_trianglediamonds.svg	stimuli_target_trianglesquares.svg	26	yes	57	0	341	0	0			0	0			1				0	
6.6.1	win	2023-06-02	08:44:18	08:58:14	827292	627809c52874925390a423a6	4	1	main_slash	11	main_slash	119	stimuli_distractor_diamondtriangles.svg	stimuli_target_rectanglediamonds.svg	14	yes	53	1	586	0	0			0	0			1				0	
6.6.1	win	2023-06-02	08:44:18	08:58:14	827292	627809c52874925390a423a6	4	1	main_slash	11	advance_on_keypress_SLASH	120	stimuli_distractor_diamondtriangles.svg	stimuli_target_rectanglediamonds.svg	14	yes	57	0	339	0	0			0	0			1				0	
6.6.1	win	2023-06-02	08:44:18	08:58:17	830274	627809c52874925390a423a6	4	1	main_slash	11	main_slash	121	stimuli_distractor_diamondtriangles.svg	stimuli_distractor_diamondtriangles.svg	39	no	0	1	2000	0	0			0	0			1				0	
6.6.1	win	2023-06-02	08:44:18	08:58:17	830274	627809c52874925390a423a6	4	1	main_slash	11	advance_on_keypress_SLASH	122	stimuli_distractor_diamondtriangles.svg	stimuli_distractor_diamondtriangles.svg	39	no	57	0	860	0	0			0	0			1				0	
6.6.1	win	2023-06-02	08:44:18	08:58:19	832490	627809c52874925390a423a6	4	1	main_slash	11	main_slash	123	stimuli_distractor_trianglediamonds.svg	stimuli_target_rectanglediamonds.svg	10	yes	53	1	701	0	0			0	0			1				0	
6.6.1	win	2023-06-02	08:44:18	08:58:19	832490	627809c52874925390a423a6	4	1	main_slash	11	advance_on_keypress_SLASH	124	stimuli_distractor_trianglediamonds.svg	stimuli_target_rectanglediamonds.svg	10	yes	57	0	370	0	0			0	0			1				0	
6.6.1	win	2023-06-02	08:44:18	08:58:21	834245	627809c52874925390a423a6	4	1	main_slash	11	main_slash	125	stimuli_target_squaretriangles.svg	stimuli_distractor_diamondtriangles.svg	7	yes	53	1	739	0	0			0	0			1				0	
6.6.1	win	2023-06-02	08:44:18	08:58:21	834245	627809c52874925390a423a6	4	1	main_slash	11	advance_on_keypress_SLASH	126	stimuli_target_squaretriangles.svg	stimuli_distractor_diamondtriangles.svg	7	yes	57	0	449	0	0			0	0			1				0	
6.6.1	win	2023-06-02	08:44:18	08:58:22	835881	627809c52874925390a423a6	4	1	main_slash	11	main_slash	127	stimuli_distractor_diamondtriangles.svg	stimuli_target_diamondsquares.svg	32	yes	53	1	541	0	0			0	0			1				0	
6.6.1	win	2023-06-02	08:44:18	08:58:22	835881	627809c52874925390a423a6	4	1	main_slash	11	advance_on_keypress_SLASH	128	stimuli_distractor_diamondtriangles.svg	stimuli_target_diamondsquares.svg	32	yes	57	0	304	0	0			0	0			1				0	
6.6.1	win	2023-06-02	08:44:18	08:58:24	837406	627809c52874925390a423a6	4	1	main_slash	11	main_slash	129	stimuli_target_trianglesquares.svg	stimuli_distractor_trianglediamonds.svg	18	yes	53	1	582	0	0			0	0			1				0	
6.6.1	win	2023-06-02	08:44:18	08:58:24	837406	627809c52874925390a423a6	4	1	main_slash	11	advance_on_keypress_SLASH	130	stimuli_target_trianglesquares.svg	stimuli_distractor_trianglediamonds.svg	18	yes	57	0	266	0	0			0	0			1				0	
6.6.1	win	2023-06-02	08:44:18	08:58:25	838946	627809c52874925390a423a6	4	1	main_slash	11	main_slash	131	stimuli_target_diamondrectangles.svg	stimuli_distractor_trianglediamonds.svg	19	yes	53	1	623	0	0			0	0			1				0	
6.6.1	win	2023-06-02	08:44:18	08:58:25	838946	627809c52874925390a423a6	4	1	main_slash	11	advance_on_keypress_SLASH	132	stimuli_target_diamondrectangles.svg	stimuli_distractor_trianglediamonds.svg	19	yes	57	0	313	0	0			0	0			1				0	
6.6.1	win	2023-06-02	08:44:18	08:58:28	841095	627809c52874925390a423a6	4	1	main_slash	11	main_slash	133	stimuli_distractor_diamondtriangles.svg	stimuli_target_trianglerectangles.svg	29	yes	53	1	1189	0	0			0	0			1				0	
6.6.1	win	2023-06-02	08:44:18	08:58:28	841095	627809c52874925390a423a6	4	1	main_slash	11	advance_on_keypress_SLASH	134	stimuli_distractor_diamondtriangles.svg	stimuli_target_trianglerectangles.svg	29	yes	57	0	477	0	0			0	0			1				0	
6.6.1	win	2023-06-02	08:44:18	08:58:29	842914	627809c52874925390a423a6	4	1	main_slash	11	main_slash	135	stimuli_target_rectangletriangles.svg	stimuli_distractor_trianglediamonds.svg	1	yes	53	1	691	0	0			0	0			1				0	
6.6.1	win	2023-06-02	08:44:18	08:58:29	842914	627809c52874925390a423a6	4	1	main_slash	11	advance_on_keypress_SLASH	136	stimuli_target_rectangletriangles.svg	stimuli_distractor_trianglediamonds.svg	1	yes	57	0	265	0	0			0	0			1				0	
6.6.1	win	2023-06-02	08:44:18	08:58:31	844422	627809c52874925390a423a6	4	1	main_slash	11	main_slash	137	stimuli_target_trianglerectangles.svg	stimuli_distractor_trianglediamonds.svg	17	yes	53	1	599	0	0			0	0			1				0	
6.6.1	win	2023-06-02	08:44:18	08:58:31	844422	627809c52874925390a423a6	4	1	main_slash	11	advance_on_keypress_SLASH	138	stimuli_target_trianglerectangles.svg	stimuli_distractor_trianglediamonds.svg	17	yes	57	0	280	0	0			0	0			1				0	
6.6.1	win	2023-06-02	08:44:18	08:58:34	847356	627809c52874925390a423a6	4	1	main_slash	11	main_slash	139	stimuli_distractor_trianglediamonds.svg	stimuli_distractor_diamondtriangles.svg	35	no	0	1	2000	0	0			0	0			1				0	
6.6.1	win	2023-06-02	08:44:18	08:58:34	847356	627809c52874925390a423a6	4	1	main_slash	11	advance_on_keypress_SLASH	140	stimuli_distractor_trianglediamonds.svg	stimuli_distractor_diamondtriangles.svg	35	no	57	0	580	0	0			0	0			1				0	
6.6.1	win	2023-06-02	08:44:18	08:58:36	849279	627809c52874925390a423a6	4	1	main_slash	11	main_slash	141	stimuli_distractor_trianglediamonds.svg	stimuli_target_diamondsquares.svg	28	yes	53	1	683	0	0			0	0			1				0	
6.6.1	win	2023-06-02	08:44:18	08:58:36	849279	627809c52874925390a423a6	4	1	main_slash	11	advance_on_keypress_SLASH	142	stimuli_distractor_trianglediamonds.svg	stimuli_target_diamondsquares.svg	28	yes	57	0	392	0	0			0	0			1				0	
6.6.1	win	2023-06-02	08:44:18	08:58:38	851210	627809c52874925390a423a6	4	1	main_slash	11	main_slash	143	stimuli_distractor_diamondtriangles.svg	stimuli_target_squaretriangles.svg	15	yes	53	1	902	0	0			0	0			1				0	
6.6.1	win	2023-06-02	08:44:18	08:58:38	851210	627809c52874925390a423a6	4	1	main_slash	11	advance_on_keypress_SLASH	144	stimuli_distractor_diamondtriangles.svg	stimuli_target_squaretriangles.svg	15	yes	57	0	300	0	0			0	0			1				0	
6.6.1	win	2023-06-02	08:44:18	08:58:40	853012	627809c52874925390a423a6	4	1	main_slash	11	main_slash	145	stimuli_distractor_trianglediamonds.svg	stimuli_target_trianglerectangles.svg	25	yes	53	1	856	0	0			0	0			1				0	
6.6.1	win	2023-06-02	08:44:18	08:58:40	853012	627809c52874925390a423a6	4	1	main_slash	11	advance_on_keypress_SLASH	146	stimuli_distractor_trianglediamonds.svg	stimuli_target_trianglerectangles.svg	25	yes	57	0	281	0	0			0	0			1				0	
6.6.1	win	2023-06-02	08:44:18	08:58:41	854604	627809c52874925390a423a6	4	1	main_slash	11	main_slash	147	stimuli_target_trianglesquares.svg	stimuli_distractor_diamondtriangles.svg	22	yes	53	1	663	0	0			0	0			1				0	
6.6.1	win	2023-06-02	08:44:18	08:58:41	854604	627809c52874925390a423a6	4	1	main_slash	11	advance_on_keypress_SLASH	148	stimuli_target_trianglesquares.svg	stimuli_distractor_diamondtriangles.svg	22	yes	57	0	310	0	0			0	0			1				0	
6.6.1	win	2023-06-02	08:44:18	08:58:44	857555	627809c52874925390a423a6	4	1	main_slash	11	main_slash	149	stimuli_distractor_diamondtriangles.svg	stimuli_target_diamondrectangles.svg	31	yes	0	0	2000	0	0			0	0			1				0	
6.6.1	win	2023-06-02	08:44:18	08:58:44	857555	627809c52874925390a423a6	4	1	main_slash	11	advance_on_keypress_SLASH	150	stimuli_distractor_diamondtriangles.svg	stimuli_target_diamondrectangles.svg	31	yes	57	0	605	0	0			0	0			1				0	
6.6.1	win	2023-06-02	08:44:18	08:58:46	859733	627809c52874925390a423a6	4	1	main_slash	11	main_slash	151	stimuli_target_trianglerectangles.svg	stimuli_distractor_diamondtriangles.svg	21	yes	53	1	926	0	0			0	0			1				0	
6.6.1	win	2023-06-02	08:44:18	08:58:46	859733	627809c52874925390a423a6	4	1	main_slash	11	advance_on_keypress_SLASH	152	stimuli_target_trianglerectangles.svg	stimuli_distractor_diamondtriangles.svg	21	yes	57	0	290	0	0			0	0			1				0	
6.6.1	win	2023-06-02	08:44:18	08:58:48	861281	627809c52874925390a423a6	4	1	main_slash	11	main_slash	153	stimuli_target_squarediamonds.svg	stimuli_distractor_diamondtriangles.svg	8	yes	53	1	625	0	0			0	0			1				0	
6.6.1	win	2023-06-02	08:44:18	08:58:48	861281	627809c52874925390a423a6	4	1	main_slash	11	advance_on_keypress_SLASH	154	stimuli_target_squarediamonds.svg	stimuli_distractor_diamondtriangles.svg	8	yes	57	0	340	0	0			0	0			1				0	
6.6.1	win	2023-06-02	08:44:18	08:58:49	862869	627809c52874925390a423a6	4	1	main_slash	11	main_slash	155	stimuli_target_squarediamonds.svg	stimuli_distractor_trianglediamonds.svg	4	yes	53	1	596	0	0			0	0			1				0	
6.6.1	win	2023-06-02	08:44:18	08:58:49	862869	627809c52874925390a423a6	4	1	main_slash	11	advance_on_keypress_SLASH	156	stimuli_target_squarediamonds.svg	stimuli_distractor_trianglediamonds.svg	4	yes	57	0	298	0	0			0	0			1				0	
6.6.1	win	2023-06-02	08:44:18	08:58:51	864595	627809c52874925390a423a6	4	1	main_slash	11	main_slash	157	stimuli_target_diamondsquares.svg	stimuli_distractor_trianglediamonds.svg	20	yes	53	1	771	0	0			0	0			1				0	
6.6.1	win	2023-06-02	08:44:18	08:58:51	864595	627809c52874925390a423a6	4	1	main_slash	11	advance_on_keypress_SLASH	158	stimuli_target_diamondsquares.svg	stimuli_distractor_trianglediamonds.svg	20	yes	57	0	327	0	0			0	0			1				0	
6.6.1	win	2023-06-02	08:44:18	08:58:53	866287	627809c52874925390a423a6	4	1	main_slash	11	main_slash	159	stimuli_distractor_trianglediamonds.svg	stimuli_target_squarediamonds.svg	12	yes	53	1	713	0	0			0	0			1				0	
6.6.1	win	2023-06-02	08:44:18	08:58:53	866287	627809c52874925390a423a6	4	1	main_slash	11	advance_on_keypress_SLASH	160	stimuli_distractor_trianglediamonds.svg	stimuli_target_squarediamonds.svg	12	yes	57	0	357	0	0			0	0			1				0	
6.6.1	win	2023-06-02	08:44:18	08:58:53	866287	627809c52874925390a423a6	4	1	headphonecheck_calibration	14	headphonecheck_calibrationIntro	1	stimuli_distractor_trianglediamonds.svg	stimuli_target_squarediamonds.svg	12	yes	calibrationButton	0	6140	0	0			0	0			1				0	
6.6.1	win	2023-06-02	08:44:18	08:58:53	866287	627809c52874925390a423a6	4	1	headphonecheck_testphase	15	test_collectResponse	3	stimuli_distractor_trianglediamonds.svg	stimuli_target_squarediamonds.svg	12	yes	second	1	471	1	1	antiphase_hc_iso.wav	2	0	0			1				0	
6.6.1	win	2023-06-02	08:44:18	08:58:53	866287	627809c52874925390a423a6	4	1	headphonecheck_testphase	15	test_collectResponse	6	stimuli_distractor_trianglediamonds.svg	stimuli_target_squarediamonds.svg	12	yes	first	1	256	2	4	antiphase_hc_sio.wav	1	0	0			1				0	
6.6.1	win	2023-06-02	08:44:18	08:58:53	866287	627809c52874925390a423a6	4	1	headphonecheck_testphase	15	test_collectResponse	9	stimuli_distractor_trianglediamonds.svg	stimuli_target_squarediamonds.svg	12	yes	third	1	102	3	2	antiphase_hc_ios.wav	3	0	0			1				0	
6.6.1	win	2023-06-02	08:44:18	08:58:53	866287	627809c52874925390a423a6	4	1	headphonecheck_testphase	15	test_collectResponse	12	stimuli_distractor_trianglediamonds.svg	stimuli_target_squarediamonds.svg	12	yes	third	1	77	4	6	antiphase_hc_ois.wav	3	0	0			1				0	
6.6.1	win	2023-06-02	08:44:18	08:58:53	866287	627809c52874925390a423a6	4	1	headphonecheck_testphase	15	test_collectResponse	15	stimuli_distractor_trianglediamonds.svg	stimuli_target_squarediamonds.svg	12	yes	first	1	77	5	3	antiphase_hc_soi.wav	1	0	0			1				0	
6.6.1	win	2023-06-02	08:44:18	08:58:53	866287	627809c52874925390a423a6	4	1	headphonecheck_testphase	15	test_collectResponse	18	stimuli_distractor_trianglediamonds.svg	stimuli_target_squarediamonds.svg	12	yes	second	1	175	6	5	antiphase_hc_osi.wav	2	0	0			1				0	
6.6.1	win	2023-06-02	08:44:18	08:58:53	866287	627809c52874925390a423a6	4	1	stereocheck_calibration	17	stereocheck_calibrationIntro	1	stimuli_distractor_trianglediamonds.svg	stimuli_target_squarediamonds.svg	12	yes	stereocheck_calibrationButton	0	8219	6	5	antiphase_hc_osi.wav	2	0	0			1				0	
6.6.1	win	2023-06-02	08:44:18	08:58:53	866287	627809c52874925390a423a6	4	1	stereocheck_testphase	18	stereocheck_test_collectResponse	3	stimuli_distractor_trianglediamonds.svg	stimuli_target_squarediamonds.svg	12	yes	stereocheck_right	1	12057	6	5	antiphase_hc_osi.wav	2	1	4	noise_calib_stim_RIGHT.wav	2	1				0	
6.6.1	win	2023-06-02	08:44:18	08:58:53	866287	627809c52874925390a423a6	4	1	stereocheck_testphase	18	stereocheck_test_collectResponse	6	stimuli_distractor_trianglediamonds.svg	stimuli_target_squarediamonds.svg	12	yes	stereocheck_right	1	837	6	5	antiphase_hc_osi.wav	2	2	6	noise_calib_stim_RIGHT.wav	2	1				0	
6.6.1	win	2023-06-02	08:44:18	08:58:53	866287	627809c52874925390a423a6	4	1	stereocheck_testphase	18	stereocheck_test_collectResponse	9	stimuli_distractor_trianglediamonds.svg	stimuli_target_squarediamonds.svg	12	yes	stereocheck_left	1	5635	6	5	antiphase_hc_osi.wav	2	3	3	noise_calib_stim_LEFT.wav	1	1				0	
6.6.1	win	2023-06-02	08:44:18	08:58:53	866287	627809c52874925390a423a6	4	1	stereocheck_testphase	18	stereocheck_test_collectResponse	12	stimuli_distractor_trianglediamonds.svg	stimuli_target_squarediamonds.svg	12	yes	stereocheck_right	1	1515	6	5	antiphase_hc_osi.wav	2	4	5	noise_calib_stim_RIGHT.wav	2	1				0	
6.6.1	win	2023-06-02	08:44:18	08:58:53	866287	627809c52874925390a423a6	4	1	stereocheck_testphase	18	stereocheck_test_collectResponse	15	stimuli_distractor_trianglediamonds.svg	stimuli_target_squarediamonds.svg	12	yes	stereocheck_left	1	1042	6	5	antiphase_hc_osi.wav	2	5	1	noise_calib_stim_LEFT.wav	1	1				0	
6.6.1	win	2023-06-02	08:44:18	08:58:53	866287	627809c52874925390a423a6	4	1	stereocheck_testphase	18	stereocheck_test_collectResponse	18	stimuli_distractor_trianglediamonds.svg	stimuli_target_squarediamonds.svg	12	yes	stereocheck_left	1	242	6	5	antiphase_hc_osi.wav	2	6	2	noise_calib_stim_LEFT.wav	1	1				0	
6.6.1	win	2023-06-02	08:44:18	08:58:53	866287	627809c52874925390a423a6	4	1	DL_practice	21	DL_practice	2	stimuli_distractor_trianglediamonds.svg	stimuli_target_squarediamonds.svg	12	yes	ga	1	1047	6	5	antiphase_hc_osi.wav	2	6	2	noise_calib_stim_LEFT.wav	1	15	blb_dichoticlistening_ga-ga.mp3	ga	ga	0	left
6.6.1	win	2023-06-02	08:44:18	08:58:53	866287	627809c52874925390a423a6	4	1	DL_practice	21	DL_practice	3	stimuli_distractor_trianglediamonds.svg	stimuli_target_squarediamonds.svg	12	yes	ka	1	1266	6	5	antiphase_hc_osi.wav	2	6	2	noise_calib_stim_LEFT.wav	1	22	blb_dichoticlistening_ka-ka.mp3	ka	ka	0	left
6.6.1	win	2023-06-02	08:44:18	08:58:53	866287	627809c52874925390a423a6	4	1	DL_practice	21	DL_practice	4	stimuli_distractor_trianglediamonds.svg	stimuli_target_squarediamonds.svg	12	yes	ta	1	1549	6	5	antiphase_hc_osi.wav	2	6	2	noise_calib_stim_LEFT.wav	1	36	blb_dichoticlistening_ta-ta.mp3	ta	ta	0	left
6.6.1	win	2023-06-02	08:44:18	08:58:53	866287	627809c52874925390a423a6	4	1	DL_practice	21	DL_practice	5	stimuli_distractor_trianglediamonds.svg	stimuli_target_squarediamonds.svg	12	yes	da	1	1221	6	5	antiphase_hc_osi.wav	2	6	2	noise_calib_stim_LEFT.wav	1	7	blb_dichoticlistening_da-ba.mp3	da	ba	1	left
6.6.1	win	2023-06-02	08:44:18	08:58:53	866287	627809c52874925390a423a6	4	1	DL_practice	21	DL_practice	6	stimuli_distractor_trianglediamonds.svg	stimuli_target_squarediamonds.svg	12	yes	ba	1	1081	6	5	antiphase_hc_osi.wav	2	6	2	noise_calib_stim_LEFT.wav	1	1	blb_dichoticlistening_ba-ba.mp3	ba	ba	0	left
6.6.1	win	2023-06-02	08:44:18	08:58:53	866287	627809c52874925390a423a6	4	1	DL_practice	21	DL_practice	7	stimuli_distractor_trianglediamonds.svg	stimuli_target_squarediamonds.svg	12	yes	ka	0	1586	6	5	antiphase_hc_osi.wav	2	6	2	noise_calib_stim_LEFT.wav	1	18	blb_dichoticlistening_ga-ta.mp3	ga	ta	1	other
6.6.1	win	2023-06-02	08:44:18	08:58:53	866287	627809c52874925390a423a6	4	1	DL_practice	21	DL_practice	8	stimuli_distractor_trianglediamonds.svg	stimuli_target_squarediamonds.svg	12	yes	pa	1	1273	6	5	antiphase_hc_osi.wav	2	6	2	noise_calib_stim_LEFT.wav	1	29	blb_dichoticlistening_pa-pa.mp3	pa	pa	0	left
6.6.1	win	2023-06-02	08:44:18	08:58:53	866287	627809c52874925390a423a6	4	1	DL_practice	21	DL_practice	9	stimuli_distractor_trianglediamonds.svg	stimuli_target_squarediamonds.svg	12	yes	ka	1	1236	6	5	antiphase_hc_osi.wav	2	6	2	noise_calib_stim_LEFT.wav	1	23	blb_dichoticlistening_ka-pa.mp3	ka	pa	1	left
6.6.1	win	2023-06-02	08:44:18	08:58:53	866287	627809c52874925390a423a6	4	1	DL_practice	21	DL_practice	10	stimuli_distractor_trianglediamonds.svg	stimuli_target_squarediamonds.svg	12	yes	da	1	1070	6	5	antiphase_hc_osi.wav	2	6	2	noise_calib_stim_LEFT.wav	1	8	blb_dichoticlistening_da-da.mp3	da	da	0	left
6.6.1	win	2023-06-02	08:44:18	08:58:53	866287	627809c52874925390a423a6	4	1	DL_test	23	DL_test	1	stimuli_distractor_trianglediamonds.svg	stimuli_target_squarediamonds.svg	12	yes	ka	1	799	6	5	antiphase_hc_osi.wav	2	6	2	noise_calib_stim_LEFT.wav	1	24	blb_dichoticlistening_ka-ta.mp3	ka	ta	1	left
6.6.1	win	2023-06-02	08:44:18	08:58:53	866287	627809c52874925390a423a6	4	1	DL_test	23	DL_test	2	stimuli_distractor_trianglediamonds.svg	stimuli_target_squarediamonds.svg	12	yes	da	1	1010	6	5	antiphase_hc_osi.wav	2	6	2	noise_calib_stim_LEFT.wav	1	2	blb_dichoticlistening_ba-da.mp3	ba	da	1	right
6.6.1	win	2023-06-02	08:44:18	08:58:53	866287	627809c52874925390a423a6	4	1	DL_test	23	DL_test	3	stimuli_distractor_trianglediamonds.svg	stimuli_target_squarediamonds.svg	12	yes	ta	1	1288	6	5	antiphase_hc_osi.wav	2	6	2	noise_calib_stim_LEFT.wav	1	36	blb_dichoticlistening_ta-ta.mp3	ta	ta	0	left
6.6.1	win	2023-06-02	08:44:18	08:58:53	866287	627809c52874925390a423a6	4	1	DL_test	23	DL_test	4	stimuli_distractor_trianglediamonds.svg	stimuli_target_squarediamonds.svg	12	yes	ka	1	1024	6	5	antiphase_hc_osi.wav	2	6	2	noise_calib_stim_LEFT.wav	1	21	blb_dichoticlistening_ka-ga.mp3	ka	ga	1	left
6.6.1	win	2023-06-02	08:44:18	08:58:53	866287	627809c52874925390a423a6	4	1	DL_test	23	DL_test	5	stimuli_distractor_trianglediamonds.svg	stimuli_target_squarediamonds.svg	12	yes	pa	1	1337	6	5	antiphase_hc_osi.wav	2	6	2	noise_calib_stim_LEFT.wav	1	27	blb_dichoticlistening_pa-ga.mp3	pa	ga	1	left
6.6.1	win	2023-06-02	08:44:18	08:58:53	866287	627809c52874925390a423a6	4	1	DL_test	23	DL_test	6	stimuli_distractor_trianglediamonds.svg	stimuli_target_squarediamonds.svg	12	yes	ka	0	822	6	5	antiphase_hc_osi.wav	2	6	2	noise_calib_stim_LEFT.wav	1	6	blb_dichoticlistening_ba-ta.mp3	ba	ta	1	other
6.6.1	win	2023-06-02	08:44:18	08:58:53	866287	627809c52874925390a423a6	4	1	DL_test	23	DL_test	7	stimuli_distractor_trianglediamonds.svg	stimuli_target_squarediamonds.svg	12	yes	ka	1	689	6	5	antiphase_hc_osi.wav	2	6	2	noise_calib_stim_LEFT.wav	1	20	blb_dichoticlistening_ka-da.mp3	ka	da	1	left
6.6.1	win	2023-06-02	08:44:18	08:58:53	866287	627809c52874925390a423a6	4	1	DL_test	23	DL_test	8	stimuli_distractor_trianglediamonds.svg	stimuli_target_squarediamonds.svg	12	yes	pa	1	1545	6	5	antiphase_hc_osi.wav	2	6	2	noise_calib_stim_LEFT.wav	1	11	blb_dichoticlistening_da-pa.mp3	da	pa	1	right
6.6.1	win	2023-06-02	08:44:18	08:58:53	866287	627809c52874925390a423a6	4	1	DL_test	23	DL_test	9	stimuli_distractor_trianglediamonds.svg	stimuli_target_squarediamonds.svg	12	yes	ga	1	1295	6	5	antiphase_hc_osi.wav	2	6	2	noise_calib_stim_LEFT.wav	1	3	blb_dichoticlistening_ba-ga.mp3	ba	ga	1	right
6.6.1	win	2023-06-02	08:44:18	08:58:53	866287	627809c52874925390a423a6	4	1	DL_test	23	DL_test	10	stimuli_distractor_trianglediamonds.svg	stimuli_target_squarediamonds.svg	12	yes	ka	0	1095	6	5	antiphase_hc_osi.wav	2	6	2	noise_calib_stim_LEFT.wav	1	12	blb_dichoticlistening_da-ta.mp3	da	ta	1	other
6.6.1	win	2023-06-02	08:44:18	08:58:53	866287	627809c52874925390a423a6	4	1	DL_test	23	DL_test	11	stimuli_distractor_trianglediamonds.svg	stimuli_target_squarediamonds.svg	12	yes	ka	1	682	6	5	antiphase_hc_osi.wav	2	6	2	noise_calib_stim_LEFT.wav	1	22	blb_dichoticlistening_ka-ka.mp3	ka	ka	0	left
6.6.1	win	2023-06-02	08:44:18	08:58:53	866287	627809c52874925390a423a6	4	1	DL_test	23	DL_test	12	stimuli_distractor_trianglediamonds.svg	stimuli_target_squarediamonds.svg	12	yes	ga	1	1423	6	5	antiphase_hc_osi.wav	2	6	2	noise_calib_stim_LEFT.wav	1	9	blb_dichoticlistening_da-ga.mp3	da	ga	1	right
6.6.1	win	2023-06-02	08:44:18	08:58:53	866287	627809c52874925390a423a6	4	1	DL_test	23	DL_test	13	stimuli_distractor_trianglediamonds.svg	stimuli_target_squarediamonds.svg	12	yes	ka	0	1115	6	5	antiphase_hc_osi.wav	2	6	2	noise_calib_stim_LEFT.wav	1	33	blb_dichoticlistening_ta-ga.mp3	ta	ga	1	other
6.6.1	win	2023-06-02	08:44:18	08:58:53	866287	627809c52874925390a423a6	4	1	DL_test	23	DL_test	14	stimuli_distractor_trianglediamonds.svg	stimuli_target_squarediamonds.svg	12	yes	ba	1	1276	6	5	antiphase_hc_osi.wav	2	6	2	noise_calib_stim_LEFT.wav	1	1	blb_dichoticlistening_ba-ba.mp3	ba	ba	0	left
6.6.1	win	2023-06-02	08:44:18	08:58:53	866287	627809c52874925390a423a6	4	1	DL_test	23	DL_test	15	stimuli_distractor_trianglediamonds.svg	stimuli_target_squarediamonds.svg	12	yes	pa	1	1155	6	5	antiphase_hc_osi.wav	2	6	2	noise_calib_stim_LEFT.wav	1	25	blb_dichoticlistening_pa-ba.mp3	pa	ba	1	left
6.6.1	win	2023-06-02	08:44:18	08:58:53	866287	627809c52874925390a423a6	4	1	DL_test	23	DL_test	16	stimuli_distractor_trianglediamonds.svg	stimuli_target_squarediamonds.svg	12	yes	ka	0	1527	6	5	antiphase_hc_osi.wav	2	6	2	noise_calib_stim_LEFT.wav	1	32	blb_dichoticlistening_ta-da.mp3	ta	da	1	other
6.6.1	win	2023-06-02	08:44:18	08:58:53	866287	627809c52874925390a423a6	4	1	DL_test	23	DL_test	17	stimuli_distractor_trianglediamonds.svg	stimuli_target_squarediamonds.svg	12	yes	pa	1	851	6	5	antiphase_hc_osi.wav	2	6	2	noise_calib_stim_LEFT.wav	1	5	blb_dichoticlistening_ba-pa.mp3	ba	pa	1	right
6.6.1	win	2023-06-02	08:44:18	08:58:53	866287	627809c52874925390a423a6	4	1	DL_test	23	DL_test	18	stimuli_distractor_trianglediamonds.svg	stimuli_target_squarediamonds.svg	12	yes	ka	1	871	6	5	antiphase_hc_osi.wav	2	6	2	noise_calib_stim_LEFT.wav	1	16	blb_dichoticlistening_ga-ka.mp3	ga	ka	1	right
6.6.1	win	2023-06-02	08:44:18	08:58:53	866287	627809c52874925390a423a6	4	1	DL_test	23	DL_test	19	stimuli_distractor_trianglediamonds.svg	stimuli_target_squarediamonds.svg	12	yes	ka	1	729	6	5	antiphase_hc_osi.wav	2	6	2	noise_calib_stim_LEFT.wav	1	28	blb_dichoticlistening_pa-ka.mp3	pa	ka	1	right
6.6.1	win	2023-06-02	08:44:18	08:58:53	866287	627809c52874925390a423a6	4	1	DL_test	23	DL_test	20	stimuli_distractor_trianglediamonds.svg	stimuli_target_squarediamonds.svg	12	yes	da	1	1560	6	5	antiphase_hc_osi.wav	2	6	2	noise_calib_stim_LEFT.wav	1	26	blb_dichoticlistening_pa-da.mp3	pa	da	1	right
6.6.1	win	2023-06-02	08:44:18	08:58:53	866287	627809c52874925390a423a6	4	1	DL_test	23	DL_test	21	stimuli_distractor_trianglediamonds.svg	stimuli_target_squarediamonds.svg	12	yes	ka	0	904	6	5	antiphase_hc_osi.wav	2	6	2	noise_calib_stim_LEFT.wav	1	18	blb_dichoticlistening_ga-ta.mp3	ga	ta	1	other
6.6.1	win	2023-06-02	08:44:18	08:58:53	866287	627809c52874925390a423a6	4	1	DL_test	23	DL_test	22	stimuli_distractor_trianglediamonds.svg	stimuli_target_squarediamonds.svg	12	yes	pa	1	762	6	5	antiphase_hc_osi.wav	2	6	2	noise_calib_stim_LEFT.wav	1	23	blb_dichoticlistening_ka-pa.mp3	ka	pa	1	right
6.6.1	win	2023-06-02	08:44:18	08:58:53	866287	627809c52874925390a423a6	4	1	DL_test	23	DL_test	23	stimuli_distractor_trianglediamonds.svg	stimuli_target_squarediamonds.svg	12	yes	ka	1	671	6	5	antiphase_hc_osi.wav	2	6	2	noise_calib_stim_LEFT.wav	1	19	blb_dichoticlistening_ka-ba.mp3	ka	ba	1	left
6.6.1	win	2023-06-02	08:44:18	08:58:53	866287	627809c52874925390a423a6	4	1	DL_test	23	DL_test	24	stimuli_distractor_trianglediamonds.svg	stimuli_target_squarediamonds.svg	12	yes	ka	1	644	6	5	antiphase_hc_osi.wav	2	6	2	noise_calib_stim_LEFT.wav	1	4	blb_dichoticlistening_ba-ka.mp3	ba	ka	1	right
6.6.1	win	2023-06-02	08:44:18	08:58:53	866287	627809c52874925390a423a6	4	1	DL_test	23	DL_test	25	stimuli_distractor_trianglediamonds.svg	stimuli_target_squarediamonds.svg	12	yes	ba	1	1227	6	5	antiphase_hc_osi.wav	2	6	2	noise_calib_stim_LEFT.wav	1	13	blb_dichoticlistening_ga-ba.mp3	ga	ba	1	right
6.6.1	win	2023-06-02	08:44:18	08:58:53	866287	627809c52874925390a423a6	4	1	DL_test	23	DL_test	26	stimuli_distractor_trianglediamonds.svg	stimuli_target_squarediamonds.svg	12	yes	ka	1	914	6	5	antiphase_hc_osi.wav	2	6	2	noise_calib_stim_LEFT.wav	1	34	blb_dichoticlistening_ta-ka.mp3	ta	ka	1	right
