build	computer.platform	date	time	timestamp	time_elapsed_ms	subject	group	session	blockcode	blocknum	trialcode	trialnum	stimulus_left	stimulus_right	stim_index	target_present	response	correct	latency	headphonecheck_countTestTrials	headphonecheck_index	headphonecheck_testSound	headphonecheck_correctResponse	stereocheck_countTestTrials	stereocheck_index	stereocheck_testSound	stereocheck_correctResponse	DL_index	DL_soundfile	DL_leftSound	DL_rightSound	DL_dualSound	DL_choice
6.6.1	win	2023-06-01	16:20:55	0	0	6159fb27b6340dda3fc6a5c3	2	1	headphonecheck_calibration	4	headphonecheck_calibrationIntro	1			0		calibrationButton	0	4233	0	0			0	0			1				0	
6.6.1	win	2023-06-01	16:20:55	0	0	6159fb27b6340dda3fc6a5c3	2	1	headphonecheck_testphase	5	test_collectResponse	3			0		third	0	1012	1	4	antiphase_hc_sio.wav	1	0	0			1				0	
6.6.1	win	2023-06-01	16:20:55	0	0	6159fb27b6340dda3fc6a5c3	2	1	headphonecheck_testphase	5	test_collectResponse	6			0		third	0	23265	2	1	antiphase_hc_iso.wav	2	0	0			1				0	
6.6.1	win	2023-06-01	16:20:55	0	0	6159fb27b6340dda3fc6a5c3	2	1	headphonecheck_testphase	5	test_collectResponse	9			0		second	0	470	3	3	antiphase_hc_soi.wav	1	0	0			1				0	
6.6.1	win	2023-06-01	16:20:55	0	0	6159fb27b6340dda3fc6a5c3	2	1	headphonecheck_testphase	5	test_collectResponse	12			0		first	0	328	4	6	antiphase_hc_ois.wav	3	0	0			1				0	
6.6.1	win	2023-06-01	16:20:55	0	0	6159fb27b6340dda3fc6a5c3	2	1	headphonecheck_testphase	5	test_collectResponse	15			0		first	0	312	5	5	antiphase_hc_osi.wav	2	0	0			1				0	
6.6.1	win	2023-06-01	16:20:55	0	0	6159fb27b6340dda3fc6a5c3	2	1	headphonecheck_testphase	5	test_collectResponse	18			0		second	0	295	6	2	antiphase_hc_ios.wav	3	0	0			1				0	
6.6.1	win	2023-06-01	16:20:55	0	0	6159fb27b6340dda3fc6a5c3	2	1	stereocheck_calibration	7	stereocheck_calibrationIntro	1			0		stereocheck_calibrationButton	0	94622	6	2	antiphase_hc_ios.wav	3	0	0			1				0	
6.6.1	win	2023-06-01	16:20:55	0	0	6159fb27b6340dda3fc6a5c3	2	1	stereocheck_testphase	8	stereocheck_test_collectResponse	3			0		stereocheck_left	1	725	6	2	antiphase_hc_ios.wav	3	1	2	noise_calib_stim_LEFT.wav	1	1				0	
6.6.1	win	2023-06-01	16:20:55	0	0	6159fb27b6340dda3fc6a5c3	2	1	stereocheck_testphase	8	stereocheck_test_collectResponse	6			0		stereocheck_left	1	657	6	2	antiphase_hc_ios.wav	3	2	3	noise_calib_stim_LEFT.wav	1	1				0	
6.6.1	win	2023-06-01	16:20:55	0	0	6159fb27b6340dda3fc6a5c3	2	1	stereocheck_testphase	8	stereocheck_test_collectResponse	9			0		stereocheck_right	1	475	6	2	antiphase_hc_ios.wav	3	3	6	noise_calib_stim_RIGHT.wav	2	1				0	
6.6.1	win	2023-06-01	16:20:55	0	0	6159fb27b6340dda3fc6a5c3	2	1	stereocheck_testphase	8	stereocheck_test_collectResponse	12			0		stereocheck_right	1	370	6	2	antiphase_hc_ios.wav	3	4	4	noise_calib_stim_RIGHT.wav	2	1				0	
6.6.1	win	2023-06-01	16:20:55	0	0	6159fb27b6340dda3fc6a5c3	2	1	stereocheck_testphase	8	stereocheck_test_collectResponse	15			0		stereocheck_left	1	406	6	2	antiphase_hc_ios.wav	3	5	1	noise_calib_stim_LEFT.wav	1	1				0	
6.6.1	win	2023-06-01	16:20:55	0	0	6159fb27b6340dda3fc6a5c3	2	1	stereocheck_testphase	8	stereocheck_test_collectResponse	18			0		stereocheck_right	1	954	6	2	antiphase_hc_ios.wav	3	6	5	noise_calib_stim_RIGHT.wav	2	1				0	
6.6.1	win	2023-06-01	16:20:55	0	0	6159fb27b6340dda3fc6a5c3	2	1	DL_practice	11	DL_practice	2			0		da	1	1587	6	2	antiphase_hc_ios.wav	3	6	5	noise_calib_stim_RIGHT.wav	2	8	blb_dichoticlistening_da-da.mp3	da	da	0	left
6.6.1	win	2023-06-01	16:20:55	0	0	6159fb27b6340dda3fc6a5c3	2	1	DL_practice	11	DL_practice	3			0		ta	1	2628	6	2	antiphase_hc_ios.wav	3	6	5	noise_calib_stim_RIGHT.wav	2	36	blb_dichoticlistening_ta-ta.mp3	ta	ta	0	left
6.6.1	win	2023-06-01	16:20:55	0	0	6159fb27b6340dda3fc6a5c3	2	1	DL_practice	11	DL_practice	4			0		ka	1	4190	6	2	antiphase_hc_ios.wav	3	6	5	noise_calib_stim_RIGHT.wav	2	23	blb_dichoticlistening_ka-pa.mp3	ka	pa	1	left
6.6.1	win	2023-06-01	16:20:55	0	0	6159fb27b6340dda3fc6a5c3	2	1	DL_practice	11	DL_practice	5			0		da	0	1692	6	2	antiphase_hc_ios.wav	3	6	5	noise_calib_stim_RIGHT.wav	2	15	blb_dichoticlistening_ga-ga.mp3	ga	ga	0	other
6.6.1	win	2023-06-01	16:20:55	0	0	6159fb27b6340dda3fc6a5c3	2	1	DL_practice	11	DL_practice	6			0		da	0	5291	6	2	antiphase_hc_ios.wav	3	6	5	noise_calib_stim_RIGHT.wav	2	18	blb_dichoticlistening_ga-ta.mp3	ga	ta	1	other
6.6.1	win	2023-06-01	16:20:55	0	0	6159fb27b6340dda3fc6a5c3	2	1	DL_practice	11	DL_practice	7			0		ba	1	2024	6	2	antiphase_hc_ios.wav	3	6	5	noise_calib_stim_RIGHT.wav	2	1	blb_dichoticlistening_ba-ba.mp3	ba	ba	0	left
6.6.1	win	2023-06-01	16:20:55	0	0	6159fb27b6340dda3fc6a5c3	2	1	DL_practice	11	DL_practice	8			0		pa	1	2156	6	2	antiphase_hc_ios.wav	3	6	5	noise_calib_stim_RIGHT.wav	2	29	blb_dichoticlistening_pa-pa.mp3	pa	pa	0	left
6.6.1	win	2023-06-01	16:20:55	0	0	6159fb27b6340dda3fc6a5c3	2	1	DL_practice	11	DL_practice	9			0		ka	1	1604	6	2	antiphase_hc_ios.wav	3	6	5	noise_calib_stim_RIGHT.wav	2	22	blb_dichoticlistening_ka-ka.mp3	ka	ka	0	left
6.6.1	win	2023-06-01	16:20:55	0	0	6159fb27b6340dda3fc6a5c3	2	1	DL_practice	11	DL_practice	10			0		ba	1	7499	6	2	antiphase_hc_ios.wav	3	6	5	noise_calib_stim_RIGHT.wav	2	7	blb_dichoticlistening_da-ba.mp3	da	ba	1	right
6.6.1	win	2023-06-01	16:20:55	0	0	6159fb27b6340dda3fc6a5c3	2	1	DL_test	13	DL_test	1			0		da	1	1341	6	2	antiphase_hc_ios.wav	3	6	5	noise_calib_stim_RIGHT.wav	2	9	blb_dichoticlistening_da-ga.mp3	da	ga	1	left
6.6.1	win	2023-06-01	16:20:55	0	0	6159fb27b6340dda3fc6a5c3	2	1	DL_test	13	DL_test	2			0		ga	1	3724	6	2	antiphase_hc_ios.wav	3	6	5	noise_calib_stim_RIGHT.wav	2	14	blb_dichoticlistening_ga-da.mp3	ga	da	1	left
6.6.1	win	2023-06-01	16:20:55	0	0	6159fb27b6340dda3fc6a5c3	2	1	DL_test	13	DL_test	3			0		pa	1	2551	6	2	antiphase_hc_ios.wav	3	6	5	noise_calib_stim_RIGHT.wav	2	11	blb_dichoticlistening_da-pa.mp3	da	pa	1	right
6.6.1	win	2023-06-01	16:20:55	0	0	6159fb27b6340dda3fc6a5c3	2	1	DL_test	13	DL_test	4			0		pa	1	1632	6	2	antiphase_hc_ios.wav	3	6	5	noise_calib_stim_RIGHT.wav	2	29	blb_dichoticlistening_pa-pa.mp3	pa	pa	0	left
6.6.1	win	2023-06-01	16:20:55	0	0	6159fb27b6340dda3fc6a5c3	2	1	DL_test	13	DL_test	5			0		da	0	4951	6	2	antiphase_hc_ios.wav	3	6	5	noise_calib_stim_RIGHT.wav	2	33	blb_dichoticlistening_ta-ga.mp3	ta	ga	1	other
6.6.1	win	2023-06-01	16:20:55	0	0	6159fb27b6340dda3fc6a5c3	2	1	DL_test	13	DL_test	6			0		da	0	1180	6	2	antiphase_hc_ios.wav	3	6	5	noise_calib_stim_RIGHT.wav	2	15	blb_dichoticlistening_ga-ga.mp3	ga	ga	0	other
6.6.1	win	2023-06-01	16:20:55	0	0	6159fb27b6340dda3fc6a5c3	2	1	DL_test	13	DL_test	7			0		ba	1	1648	6	2	antiphase_hc_ios.wav	3	6	5	noise_calib_stim_RIGHT.wav	2	13	blb_dichoticlistening_ga-ba.mp3	ga	ba	1	right
6.6.1	win	2023-06-01	16:20:55	0	0	6159fb27b6340dda3fc6a5c3	2	1	DL_test	13	DL_test	8			0		ka	1	2109	6	2	antiphase_hc_ios.wav	3	6	5	noise_calib_stim_RIGHT.wav	2	23	blb_dichoticlistening_ka-pa.mp3	ka	pa	1	left
6.6.1	win	2023-06-01	16:20:55	0	0	6159fb27b6340dda3fc6a5c3	2	1	DL_test	13	DL_test	9			0		ba	1	1717	6	2	antiphase_hc_ios.wav	3	6	5	noise_calib_stim_RIGHT.wav	2	3	blb_dichoticlistening_ba-ga.mp3	ba	ga	1	left
6.6.1	win	2023-06-01	16:20:55	0	0	6159fb27b6340dda3fc6a5c3	2	1	DL_test	13	DL_test	10			0		ka	1	1718	6	2	antiphase_hc_ios.wav	3	6	5	noise_calib_stim_RIGHT.wav	2	34	blb_dichoticlistening_ta-ka.mp3	ta	ka	1	right
6.6.1	win	2023-06-01	16:20:55	0	0	6159fb27b6340dda3fc6a5c3	2	1	DL_test	13	DL_test	11			0		ta	1	5154	6	2	antiphase_hc_ios.wav	3	6	5	noise_calib_stim_RIGHT.wav	2	18	blb_dichoticlistening_ga-ta.mp3	ga	ta	1	right
6.6.1	win	2023-06-01	16:20:55	0	0	6159fb27b6340dda3fc6a5c3	2	1	DL_test	13	DL_test	12			0		ka	1	1143	6	2	antiphase_hc_ios.wav	3	6	5	noise_calib_stim_RIGHT.wav	2	22	blb_dichoticlistening_ka-ka.mp3	ka	ka	0	left
6.6.1	win	2023-06-01	16:20:55	0	0	6159fb27b6340dda3fc6a5c3	2	1	DL_test	13	DL_test	13			0		pa	1	1068	6	2	antiphase_hc_ios.wav	3	6	5	noise_calib_stim_RIGHT.wav	2	35	blb_dichoticlistening_ta-pa.mp3	ta	pa	1	right
6.6.1	win	2023-06-01	16:20:55	0	0	6159fb27b6340dda3fc6a5c3	2	1	DL_test	13	DL_test	14			0		ba	1	2382	6	2	antiphase_hc_ios.wav	3	6	5	noise_calib_stim_RIGHT.wav	2	7	blb_dichoticlistening_da-ba.mp3	da	ba	1	right
6.6.1	win	2023-06-01	16:20:55	0	0	6159fb27b6340dda3fc6a5c3	2	1	DL_test	13	DL_test	15			0		ka	1	1694	6	2	antiphase_hc_ios.wav	3	6	5	noise_calib_stim_RIGHT.wav	2	4	blb_dichoticlistening_ba-ka.mp3	ba	ka	1	right
6.6.1	win	2023-06-01	16:20:55	0	0	6159fb27b6340dda3fc6a5c3	2	1	DL_test	13	DL_test	16			0		ta	1	1881	6	2	antiphase_hc_ios.wav	3	6	5	noise_calib_stim_RIGHT.wav	2	36	blb_dichoticlistening_ta-ta.mp3	ta	ta	0	left
6.6.1	win	2023-06-01	16:20:55	0	0	6159fb27b6340dda3fc6a5c3	2	1	DL_test	13	DL_test	17			0		ba	1	1506	6	2	antiphase_hc_ios.wav	3	6	5	noise_calib_stim_RIGHT.wav	2	1	blb_dichoticlistening_ba-ba.mp3	ba	ba	0	left
6.6.1	win	2023-06-01	16:20:55	0	0	6159fb27b6340dda3fc6a5c3	2	1	DL_test	13	DL_test	18			0		pa	1	2033	6	2	antiphase_hc_ios.wav	3	6	5	noise_calib_stim_RIGHT.wav	2	27	blb_dichoticlistening_pa-ga.mp3	pa	ga	1	left
6.6.1	win	2023-06-01	16:20:55	0	0	6159fb27b6340dda3fc6a5c3	2	1	DL_test	13	DL_test	19			0		pa	1	1263	6	2	antiphase_hc_ios.wav	3	6	5	noise_calib_stim_RIGHT.wav	2	26	blb_dichoticlistening_pa-da.mp3	pa	da	1	left
6.6.1	win	2023-06-01	16:20:55	0	0	6159fb27b6340dda3fc6a5c3	2	1	DL_test	13	DL_test	20			0		ka	1	1566	6	2	antiphase_hc_ios.wav	3	6	5	noise_calib_stim_RIGHT.wav	2	24	blb_dichoticlistening_ka-ta.mp3	ka	ta	1	left
6.6.1	win	2023-06-01	16:20:55	0	0	6159fb27b6340dda3fc6a5c3	2	1	DL_test	13	DL_test	21			0		pa	0	2319	6	2	antiphase_hc_ios.wav	3	6	5	noise_calib_stim_RIGHT.wav	2	6	blb_dichoticlistening_ba-ta.mp3	ba	ta	1	other
6.6.1	win	2023-06-01	16:20:55	0	0	6159fb27b6340dda3fc6a5c3	2	1	DL_test	13	DL_test	22			0		ka	1	4619	6	2	antiphase_hc_ios.wav	3	6	5	noise_calib_stim_RIGHT.wav	2	21	blb_dichoticlistening_ka-ga.mp3	ka	ga	1	left
6.6.1	win	2023-06-01	16:20:55	0	0	6159fb27b6340dda3fc6a5c3	2	1	DL_test	13	DL_test	23			0		pa	1	2262	6	2	antiphase_hc_ios.wav	3	6	5	noise_calib_stim_RIGHT.wav	2	30	blb_dichoticlistening_pa-ta.mp3	pa	ta	1	left
6.6.1	win	2023-06-01	16:20:55	0	0	6159fb27b6340dda3fc6a5c3	2	1	DL_test	13	DL_test	24			0		pa	0	3028	6	2	antiphase_hc_ios.wav	3	6	5	noise_calib_stim_RIGHT.wav	2	19	blb_dichoticlistening_ka-ba.mp3	ka	ba	1	other
6.6.1	win	2023-06-01	16:20:55	0	0	6159fb27b6340dda3fc6a5c3	2	1	DL_test	13	DL_test	25			0		ba	1	1983	6	2	antiphase_hc_ios.wav	3	6	5	noise_calib_stim_RIGHT.wav	2	2	blb_dichoticlistening_ba-da.mp3	ba	da	1	left
6.6.1	win	2023-06-01	16:20:55	0	0	6159fb27b6340dda3fc6a5c3	2	1	DL_test	13	DL_test	26			0		pa	0	1955	6	2	antiphase_hc_ios.wav	3	6	5	noise_calib_stim_RIGHT.wav	2	31	blb_dichoticlistening_ta-ba.mp3	ta	ba	1	other
6.6.1	win	2023-06-01	16:20:55	0	0	6159fb27b6340dda3fc6a5c3	2	1	DL_test	13	DL_test	27			0		pa	0	1153	6	2	antiphase_hc_ios.wav	3	6	5	noise_calib_stim_RIGHT.wav	2	10	blb_dichoticlistening_da-ka.mp3	da	ka	1	other
6.6.1	win	2023-06-01	16:20:55	0	0	6159fb27b6340dda3fc6a5c3	2	1	DL_test	13	DL_test	28			0		pa	1	1495	6	2	antiphase_hc_ios.wav	3	6	5	noise_calib_stim_RIGHT.wav	2	25	blb_dichoticlistening_pa-ba.mp3	pa	ba	1	left
6.6.1	win	2023-06-01	16:20:55	0	0	6159fb27b6340dda3fc6a5c3	2	1	DL_test	13	DL_test	29			0		ka	1	1714	6	2	antiphase_hc_ios.wav	3	6	5	noise_calib_stim_RIGHT.wav	2	20	blb_dichoticlistening_ka-da.mp3	ka	da	1	left
6.6.1	win	2023-06-01	16:20:55	0	0	6159fb27b6340dda3fc6a5c3	2	1	DL_test	13	DL_test	30			0		ta	1	987	6	2	antiphase_hc_ios.wav	3	6	5	noise_calib_stim_RIGHT.wav	2	12	blb_dichoticlistening_da-ta.mp3	da	ta	1	right
6.6.1	win	2023-06-01	16:20:55	0	0	6159fb27b6340dda3fc6a5c3	2	1	DL_test	13	DL_test	31			0		pa	1	1051	6	2	antiphase_hc_ios.wav	3	6	5	noise_calib_stim_RIGHT.wav	2	5	blb_dichoticlistening_ba-pa.mp3	ba	pa	1	right
6.6.1	win	2023-06-01	16:20:55	0	0	6159fb27b6340dda3fc6a5c3	2	1	DL_test	13	DL_test	32			0		da	1	1788	6	2	antiphase_hc_ios.wav	3	6	5	noise_calib_stim_RIGHT.wav	2	8	blb_dichoticlistening_da-da.mp3	da	da	0	left
6.6.1	win	2023-06-01	16:20:55	0	0	6159fb27b6340dda3fc6a5c3	2	1	DL_test	13	DL_test	33			0		ka	1	1459	6	2	antiphase_hc_ios.wav	3	6	5	noise_calib_stim_RIGHT.wav	2	16	blb_dichoticlistening_ga-ka.mp3	ga	ka	1	right
6.6.1	win	2023-06-01	16:20:55	0	0	6159fb27b6340dda3fc6a5c3	2	1	DL_test	13	DL_test	34			0		pa	1	1489	6	2	antiphase_hc_ios.wav	3	6	5	noise_calib_stim_RIGHT.wav	2	17	blb_dichoticlistening_ga-pa.mp3	ga	pa	1	right
6.6.1	win	2023-06-01	16:20:55	0	0	6159fb27b6340dda3fc6a5c3	2	1	DL_test	13	DL_test	35			0		ka	1	1020	6	2	antiphase_hc_ios.wav	3	6	5	noise_calib_stim_RIGHT.wav	2	28	blb_dichoticlistening_pa-ka.mp3	pa	ka	1	right
6.6.1	win	2023-06-01	16:20:55	0	0	6159fb27b6340dda3fc6a5c3	2	1	DL_test	13	DL_test	36			0		ta	1	1663	6	2	antiphase_hc_ios.wav	3	6	5	noise_calib_stim_RIGHT.wav	2	32	blb_dichoticlistening_ta-da.mp3	ta	da	1	left
6.6.1	win	2023-06-01	16:20:55	0	0	6159fb27b6340dda3fc6a5c3	2	1	DL_test	14	DL_test	1			0		ta	1	3881	6	2	antiphase_hc_ios.wav	3	6	5	noise_calib_stim_RIGHT.wav	2	30	blb_dichoticlistening_pa-ta.mp3	pa	ta	1	right
6.6.1	win	2023-06-01	16:20:55	0	0	6159fb27b6340dda3fc6a5c3	2	1	DL_test	14	DL_test	2			0		da	1	2627	6	2	antiphase_hc_ios.wav	3	6	5	noise_calib_stim_RIGHT.wav	2	32	blb_dichoticlistening_ta-da.mp3	ta	da	1	right
6.6.1	win	2023-06-01	16:20:55	0	0	6159fb27b6340dda3fc6a5c3	2	1	DL_test	14	DL_test	3			0		ka	1	1272	6	2	antiphase_hc_ios.wav	3	6	5	noise_calib_stim_RIGHT.wav	2	22	blb_dichoticlistening_ka-ka.mp3	ka	ka	0	left
6.6.1	win	2023-06-01	16:20:55	0	0	6159fb27b6340dda3fc6a5c3	2	1	DL_test	14	DL_test	4			0		ta	1	1326	6	2	antiphase_hc_ios.wav	3	6	5	noise_calib_stim_RIGHT.wav	2	12	blb_dichoticlistening_da-ta.mp3	da	ta	1	right
6.6.1	win	2023-06-01	16:20:55	0	0	6159fb27b6340dda3fc6a5c3	2	1	DL_test	14	DL_test	5			0		ba	1	2159	6	2	antiphase_hc_ios.wav	3	6	5	noise_calib_stim_RIGHT.wav	2	13	blb_dichoticlistening_ga-ba.mp3	ga	ba	1	right
6.6.1	win	2023-06-01	16:20:55	0	0	6159fb27b6340dda3fc6a5c3	2	1	DL_test	14	DL_test	6			0		ta	1	1114	6	2	antiphase_hc_ios.wav	3	6	5	noise_calib_stim_RIGHT.wav	2	36	blb_dichoticlistening_ta-ta.mp3	ta	ta	0	left
6.6.1	win	2023-06-01	16:20:55	0	0	6159fb27b6340dda3fc6a5c3	2	1	DL_test	14	DL_test	7			0		ba	1	2070	6	2	antiphase_hc_ios.wav	3	6	5	noise_calib_stim_RIGHT.wav	2	7	blb_dichoticlistening_da-ba.mp3	da	ba	1	right
6.6.1	win	2023-06-01	16:20:55	0	0	6159fb27b6340dda3fc6a5c3	2	1	DL_test	14	DL_test	8			0		ka	1	1168	6	2	antiphase_hc_ios.wav	3	6	5	noise_calib_stim_RIGHT.wav	2	28	blb_dichoticlistening_pa-ka.mp3	pa	ka	1	right
6.6.1	win	2023-06-01	16:20:55	0	0	6159fb27b6340dda3fc6a5c3	2	1	DL_test	14	DL_test	9			0		ka	0	2144	6	2	antiphase_hc_ios.wav	3	6	5	noise_calib_stim_RIGHT.wav	2	33	blb_dichoticlistening_ta-ga.mp3	ta	ga	1	other
6.6.1	win	2023-06-01	16:20:55	0	0	6159fb27b6340dda3fc6a5c3	2	1	DL_test	14	DL_test	10			0		pa	1	1319	6	2	antiphase_hc_ios.wav	3	6	5	noise_calib_stim_RIGHT.wav	2	26	blb_dichoticlistening_pa-da.mp3	pa	da	1	left
6.6.1	win	2023-06-01	16:20:55	0	0	6159fb27b6340dda3fc6a5c3	2	1	DL_test	14	DL_test	11			0		ga	1	896	6	2	antiphase_hc_ios.wav	3	6	5	noise_calib_stim_RIGHT.wav	2	21	blb_dichoticlistening_ka-ga.mp3	ka	ga	1	right
6.6.1	win	2023-06-01	16:20:55	0	0	6159fb27b6340dda3fc6a5c3	2	1	DL_test	14	DL_test	12			0		ka	1	1189	6	2	antiphase_hc_ios.wav	3	6	5	noise_calib_stim_RIGHT.wav	2	20	blb_dichoticlistening_ka-da.mp3	ka	da	1	left
6.6.1	win	2023-06-01	16:20:55	0	0	6159fb27b6340dda3fc6a5c3	2	1	DL_test	14	DL_test	13			0		ba	1	1353	6	2	antiphase_hc_ios.wav	3	6	5	noise_calib_stim_RIGHT.wav	2	19	blb_dichoticlistening_ka-ba.mp3	ka	ba	1	right
6.6.1	win	2023-06-01	16:20:55	0	0	6159fb27b6340dda3fc6a5c3	2	1	DL_test	14	DL_test	14			0		pa	1	1250	6	2	antiphase_hc_ios.wav	3	6	5	noise_calib_stim_RIGHT.wav	2	11	blb_dichoticlistening_da-pa.mp3	da	pa	1	right
6.6.1	win	2023-06-01	16:20:55	0	0	6159fb27b6340dda3fc6a5c3	2	1	DL_test	14	DL_test	15			0		ka	1	1024	6	2	antiphase_hc_ios.wav	3	6	5	noise_calib_stim_RIGHT.wav	2	34	blb_dichoticlistening_ta-ka.mp3	ta	ka	1	right
6.6.1	win	2023-06-01	16:20:55	0	0	6159fb27b6340dda3fc6a5c3	2	1	DL_test	14	DL_test	16			0		ba	1	1045	6	2	antiphase_hc_ios.wav	3	6	5	noise_calib_stim_RIGHT.wav	2	1	blb_dichoticlistening_ba-ba.mp3	ba	ba	0	left
6.6.1	win	2023-06-01	16:20:55	0	0	6159fb27b6340dda3fc6a5c3	2	1	DL_test	14	DL_test	17			0		ba	1	1098	6	2	antiphase_hc_ios.wav	3	6	5	noise_calib_stim_RIGHT.wav	2	2	blb_dichoticlistening_ba-da.mp3	ba	da	1	left
6.6.1	win	2023-06-01	16:20:55	0	0	6159fb27b6340dda3fc6a5c3	2	1	DL_test	14	DL_test	18			0		da	1	779	6	2	antiphase_hc_ios.wav	3	6	5	noise_calib_stim_RIGHT.wav	2	14	blb_dichoticlistening_ga-da.mp3	ga	da	1	right
6.6.1	win	2023-06-01	16:20:55	0	0	6159fb27b6340dda3fc6a5c3	2	1	DL_test	14	DL_test	19			0		pa	1	1188	6	2	antiphase_hc_ios.wav	3	6	5	noise_calib_stim_RIGHT.wav	2	5	blb_dichoticlistening_ba-pa.mp3	ba	pa	1	right
6.6.1	win	2023-06-01	16:20:55	0	0	6159fb27b6340dda3fc6a5c3	2	1	DL_test	14	DL_test	20			0		da	1	1691	6	2	antiphase_hc_ios.wav	3	6	5	noise_calib_stim_RIGHT.wav	2	9	blb_dichoticlistening_da-ga.mp3	da	ga	1	left
6.6.1	win	2023-06-01	16:20:55	0	0	6159fb27b6340dda3fc6a5c3	2	1	DL_test	14	DL_test	21			0		pa	1	1209	6	2	antiphase_hc_ios.wav	3	6	5	noise_calib_stim_RIGHT.wav	2	29	blb_dichoticlistening_pa-pa.mp3	pa	pa	0	left
6.6.1	win	2023-06-01	16:20:55	0	0	6159fb27b6340dda3fc6a5c3	2	1	DL_test	14	DL_test	22			0		ta	1	1215	6	2	antiphase_hc_ios.wav	3	6	5	noise_calib_stim_RIGHT.wav	2	18	blb_dichoticlistening_ga-ta.mp3	ga	ta	1	right
6.6.1	win	2023-06-01	16:20:55	0	0	6159fb27b6340dda3fc6a5c3	2	1	DL_test	14	DL_test	23			0		pa	1	1146	6	2	antiphase_hc_ios.wav	3	6	5	noise_calib_stim_RIGHT.wav	2	17	blb_dichoticlistening_ga-pa.mp3	ga	pa	1	right
6.6.1	win	2023-06-01	16:20:55	0	0	6159fb27b6340dda3fc6a5c3	2	1	DL_test	14	DL_test	24			0		ka	1	1804	6	2	antiphase_hc_ios.wav	3	6	5	noise_calib_stim_RIGHT.wav	2	4	blb_dichoticlistening_ba-ka.mp3	ba	ka	1	right
6.6.1	win	2023-06-01	16:20:55	0	0	6159fb27b6340dda3fc6a5c3	2	1	DL_test	14	DL_test	25			0		pa	0	1157	6	2	antiphase_hc_ios.wav	3	6	5	noise_calib_stim_RIGHT.wav	2	31	blb_dichoticlistening_ta-ba.mp3	ta	ba	1	other
6.6.1	win	2023-06-01	16:20:55	0	0	6159fb27b6340dda3fc6a5c3	2	1	DL_test	14	DL_test	26			0		ka	1	1172	6	2	antiphase_hc_ios.wav	3	6	5	noise_calib_stim_RIGHT.wav	2	23	blb_dichoticlistening_ka-pa.mp3	ka	pa	1	left
6.6.1	win	2023-06-01	16:20:55	0	0	6159fb27b6340dda3fc6a5c3	2	1	DL_test	14	DL_test	27			0		pa	0	1066	6	2	antiphase_hc_ios.wav	3	6	5	noise_calib_stim_RIGHT.wav	2	6	blb_dichoticlistening_ba-ta.mp3	ba	ta	1	other
6.6.1	win	2023-06-01	16:20:55	0	0	6159fb27b6340dda3fc6a5c3	2	1	DL_test	14	DL_test	28			0		pa	1	802	6	2	antiphase_hc_ios.wav	3	6	5	noise_calib_stim_RIGHT.wav	2	25	blb_dichoticlistening_pa-ba.mp3	pa	ba	1	left
6.6.1	win	2023-06-01	16:20:55	0	0	6159fb27b6340dda3fc6a5c3	2	1	DL_test	14	DL_test	29			0		ga	1	2596	6	2	antiphase_hc_ios.wav	3	6	5	noise_calib_stim_RIGHT.wav	2	3	blb_dichoticlistening_ba-ga.mp3	ba	ga	1	right
6.6.1	win	2023-06-01	16:20:55	0	0	6159fb27b6340dda3fc6a5c3	2	1	DL_test	14	DL_test	30			0		ka	1	1116	6	2	antiphase_hc_ios.wav	3	6	5	noise_calib_stim_RIGHT.wav	2	16	blb_dichoticlistening_ga-ka.mp3	ga	ka	1	right
6.6.1	win	2023-06-01	16:20:55	0	0	6159fb27b6340dda3fc6a5c3	2	1	DL_test	14	DL_test	31			0		pa	1	1276	6	2	antiphase_hc_ios.wav	3	6	5	noise_calib_stim_RIGHT.wav	2	35	blb_dichoticlistening_ta-pa.mp3	ta	pa	1	right
6.6.1	win	2023-06-01	16:20:55	0	0	6159fb27b6340dda3fc6a5c3	2	1	DL_test	14	DL_test	32			0		pa	0	1430	6	2	antiphase_hc_ios.wav	3	6	5	noise_calib_stim_RIGHT.wav	2	10	blb_dichoticlistening_da-ka.mp3	da	ka	1	other
6.6.1	win	2023-06-01	16:20:55	0	0	6159fb27b6340dda3fc6a5c3	2	1	DL_test	14	DL_test	33			0		ka	1	1432	6	2	antiphase_hc_ios.wav	3	6	5	noise_calib_stim_RIGHT.wav	2	24	blb_dichoticlistening_ka-ta.mp3	ka	ta	1	left
6.6.1	win	2023-06-01	16:20:55	0	0	6159fb27b6340dda3fc6a5c3	2	1	DL_test	14	DL_test	34			0		pa	1	1171	6	2	antiphase_hc_ios.wav	3	6	5	noise_calib_stim_RIGHT.wav	2	27	blb_dichoticlistening_pa-ga.mp3	pa	ga	1	left
6.6.1	win	2023-06-01	16:20:55	0	0	6159fb27b6340dda3fc6a5c3	2	1	DL_test	14	DL_test	35			0		ga	1	1392	6	2	antiphase_hc_ios.wav	3	6	5	noise_calib_stim_RIGHT.wav	2	15	blb_dichoticlistening_ga-ga.mp3	ga	ga	0	left
6.6.1	win	2023-06-01	16:20:55	0	0	6159fb27b6340dda3fc6a5c3	2	1	DL_test	14	DL_test	36			0		da	1	1128	6	2	antiphase_hc_ios.wav	3	6	5	noise_calib_stim_RIGHT.wav	2	8	blb_dichoticlistening_da-da.mp3	da	da	0	left
6.6.1	win	2023-06-01	16:20:55	0	0	6159fb27b6340dda3fc6a5c3	2	1	DL_test	15	DL_test	1			0		ba	1	1527	6	2	antiphase_hc_ios.wav	3	6	5	noise_calib_stim_RIGHT.wav	2	2	blb_dichoticlistening_ba-da.mp3	ba	da	1	left
6.6.1	win	2023-06-01	16:20:55	0	0	6159fb27b6340dda3fc6a5c3	2	1	DL_test	15	DL_test	2			0		ba	1	1136	6	2	antiphase_hc_ios.wav	3	6	5	noise_calib_stim_RIGHT.wav	2	3	blb_dichoticlistening_ba-ga.mp3	ba	ga	1	left
6.6.1	win	2023-06-01	16:20:55	0	0	6159fb27b6340dda3fc6a5c3	2	1	DL_test	15	DL_test	3			0		ka	0	1181	6	2	antiphase_hc_ios.wav	3	6	5	noise_calib_stim_RIGHT.wav	2	33	blb_dichoticlistening_ta-ga.mp3	ta	ga	1	other
6.6.1	win	2023-06-01	16:20:55	0	0	6159fb27b6340dda3fc6a5c3	2	1	DL_test	15	DL_test	4			0		ka	1	1309	6	2	antiphase_hc_ios.wav	3	6	5	noise_calib_stim_RIGHT.wav	2	4	blb_dichoticlistening_ba-ka.mp3	ba	ka	1	right
6.6.1	win	2023-06-01	16:20:55	0	0	6159fb27b6340dda3fc6a5c3	2	1	DL_test	15	DL_test	5			0		da	1	1297	6	2	antiphase_hc_ios.wav	3	6	5	noise_calib_stim_RIGHT.wav	2	8	blb_dichoticlistening_da-da.mp3	da	da	0	left
6.6.1	win	2023-06-01	16:20:55	0	0	6159fb27b6340dda3fc6a5c3	2	1	DL_test	15	DL_test	6			0		ka	1	1057	6	2	antiphase_hc_ios.wav	3	6	5	noise_calib_stim_RIGHT.wav	2	24	blb_dichoticlistening_ka-ta.mp3	ka	ta	1	left
6.6.1	win	2023-06-01	16:20:55	0	0	6159fb27b6340dda3fc6a5c3	2	1	DL_test	15	DL_test	7			0		pa	1	1314	6	2	antiphase_hc_ios.wav	3	6	5	noise_calib_stim_RIGHT.wav	2	23	blb_dichoticlistening_ka-pa.mp3	ka	pa	1	right
6.6.1	win	2023-06-01	16:20:55	0	0	6159fb27b6340dda3fc6a5c3	2	1	DL_test	15	DL_test	8			0		pa	0	860	6	2	antiphase_hc_ios.wav	3	6	5	noise_calib_stim_RIGHT.wav	2	6	blb_dichoticlistening_ba-ta.mp3	ba	ta	1	other
6.6.1	win	2023-06-01	16:20:55	0	0	6159fb27b6340dda3fc6a5c3	2	1	DL_test	15	DL_test	9			0		ka	1	984	6	2	antiphase_hc_ios.wav	3	6	5	noise_calib_stim_RIGHT.wav	2	20	blb_dichoticlistening_ka-da.mp3	ka	da	1	left
6.6.1	win	2023-06-01	16:20:55	0	0	6159fb27b6340dda3fc6a5c3	2	1	DL_test	15	DL_test	10			0		pa	1	1164	6	2	antiphase_hc_ios.wav	3	6	5	noise_calib_stim_RIGHT.wav	2	25	blb_dichoticlistening_pa-ba.mp3	pa	ba	1	left
6.6.1	win	2023-06-01	16:20:55	0	0	6159fb27b6340dda3fc6a5c3	2	1	DL_test	15	DL_test	11			0		pa	1	1804	6	2	antiphase_hc_ios.wav	3	6	5	noise_calib_stim_RIGHT.wav	2	35	blb_dichoticlistening_ta-pa.mp3	ta	pa	1	right
6.6.1	win	2023-06-01	16:20:55	0	0	6159fb27b6340dda3fc6a5c3	2	1	DL_test	15	DL_test	12			0		pa	1	831	6	2	antiphase_hc_ios.wav	3	6	5	noise_calib_stim_RIGHT.wav	2	5	blb_dichoticlistening_ba-pa.mp3	ba	pa	1	right
6.6.1	win	2023-06-01	16:20:55	0	0	6159fb27b6340dda3fc6a5c3	2	1	DL_test	15	DL_test	13			0		ga	1	1431	6	2	antiphase_hc_ios.wav	3	6	5	noise_calib_stim_RIGHT.wav	2	18	blb_dichoticlistening_ga-ta.mp3	ga	ta	1	left
6.6.1	win	2023-06-01	16:20:55	0	0	6159fb27b6340dda3fc6a5c3	2	1	DL_test	15	DL_test	14			0		pa	1	979	6	2	antiphase_hc_ios.wav	3	6	5	noise_calib_stim_RIGHT.wav	2	26	blb_dichoticlistening_pa-da.mp3	pa	da	1	left
6.6.1	win	2023-06-01	16:20:55	0	0	6159fb27b6340dda3fc6a5c3	2	1	DL_test	15	DL_test	15			0		ka	1	1289	6	2	antiphase_hc_ios.wav	3	6	5	noise_calib_stim_RIGHT.wav	2	21	blb_dichoticlistening_ka-ga.mp3	ka	ga	1	left
6.6.1	win	2023-06-01	16:20:55	0	0	6159fb27b6340dda3fc6a5c3	2	1	DL_test	15	DL_test	16			0		da	1	1319	6	2	antiphase_hc_ios.wav	3	6	5	noise_calib_stim_RIGHT.wav	2	14	blb_dichoticlistening_ga-da.mp3	ga	da	1	right
6.6.1	win	2023-06-01	16:20:55	0	0	6159fb27b6340dda3fc6a5c3	2	1	DL_test	15	DL_test	17			0		pa	1	2124	6	2	antiphase_hc_ios.wav	3	6	5	noise_calib_stim_RIGHT.wav	2	11	blb_dichoticlistening_da-pa.mp3	da	pa	1	right
6.6.1	win	2023-06-01	16:20:55	0	0	6159fb27b6340dda3fc6a5c3	2	1	DL_test	15	DL_test	18			0		da	1	1314	6	2	antiphase_hc_ios.wav	3	6	5	noise_calib_stim_RIGHT.wav	2	9	blb_dichoticlistening_da-ga.mp3	da	ga	1	left
6.6.1	win	2023-06-01	16:20:55	0	0	6159fb27b6340dda3fc6a5c3	2	1	DL_test	15	DL_test	19			0		ba	1	1713	6	2	antiphase_hc_ios.wav	3	6	5	noise_calib_stim_RIGHT.wav	2	1	blb_dichoticlistening_ba-ba.mp3	ba	ba	0	left
6.6.1	win	2023-06-01	16:20:55	0	0	6159fb27b6340dda3fc6a5c3	2	1	DL_test	15	DL_test	20			0		ka	1	1164	6	2	antiphase_hc_ios.wav	3	6	5	noise_calib_stim_RIGHT.wav	2	28	blb_dichoticlistening_pa-ka.mp3	pa	ka	1	right
6.6.1	win	2023-06-01	16:20:55	0	0	6159fb27b6340dda3fc6a5c3	2	1	DL_test	15	DL_test	21			0		ka	1	2310	6	2	antiphase_hc_ios.wav	3	6	5	noise_calib_stim_RIGHT.wav	2	19	blb_dichoticlistening_ka-ba.mp3	ka	ba	1	left
6.6.1	win	2023-06-01	16:20:55	0	0	6159fb27b6340dda3fc6a5c3	2	1	DL_test	15	DL_test	22			0		pa	1	1373	6	2	antiphase_hc_ios.wav	3	6	5	noise_calib_stim_RIGHT.wav	2	17	blb_dichoticlistening_ga-pa.mp3	ga	pa	1	right
6.6.1	win	2023-06-01	16:20:55	0	0	6159fb27b6340dda3fc6a5c3	2	1	DL_test	15	DL_test	23			0		ga	1	934	6	2	antiphase_hc_ios.wav	3	6	5	noise_calib_stim_RIGHT.wav	2	15	blb_dichoticlistening_ga-ga.mp3	ga	ga	0	left
6.6.1	win	2023-06-01	16:20:55	0	0	6159fb27b6340dda3fc6a5c3	2	1	DL_test	15	DL_test	24			0		ka	1	927	6	2	antiphase_hc_ios.wav	3	6	5	noise_calib_stim_RIGHT.wav	2	22	blb_dichoticlistening_ka-ka.mp3	ka	ka	0	left
6.6.1	win	2023-06-01	16:20:55	0	0	6159fb27b6340dda3fc6a5c3	2	1	DL_test	15	DL_test	25			0		pa	1	1000	6	2	antiphase_hc_ios.wav	3	6	5	noise_calib_stim_RIGHT.wav	2	29	blb_dichoticlistening_pa-pa.mp3	pa	pa	0	left
6.6.1	win	2023-06-01	16:20:55	0	0	6159fb27b6340dda3fc6a5c3	2	1	DL_test	15	DL_test	26			0		pa	1	1192	6	2	antiphase_hc_ios.wav	3	6	5	noise_calib_stim_RIGHT.wav	2	27	blb_dichoticlistening_pa-ga.mp3	pa	ga	1	left
6.6.1	win	2023-06-01	16:20:55	0	0	6159fb27b6340dda3fc6a5c3	2	1	DL_test	15	DL_test	27			0		ka	1	1162	6	2	antiphase_hc_ios.wav	3	6	5	noise_calib_stim_RIGHT.wav	2	34	blb_dichoticlistening_ta-ka.mp3	ta	ka	1	right
6.6.1	win	2023-06-01	16:20:55	0	0	6159fb27b6340dda3fc6a5c3	2	1	DL_test	15	DL_test	28			0		pa	0	1181	6	2	antiphase_hc_ios.wav	3	6	5	noise_calib_stim_RIGHT.wav	2	31	blb_dichoticlistening_ta-ba.mp3	ta	ba	1	other
6.6.1	win	2023-06-01	16:20:55	0	0	6159fb27b6340dda3fc6a5c3	2	1	DL_test	15	DL_test	29			0		ta	1	1422	6	2	antiphase_hc_ios.wav	3	6	5	noise_calib_stim_RIGHT.wav	2	32	blb_dichoticlistening_ta-da.mp3	ta	da	1	left
6.6.1	win	2023-06-01	16:20:55	0	0	6159fb27b6340dda3fc6a5c3	2	1	DL_test	15	DL_test	30			0		ta	1	1885	6	2	antiphase_hc_ios.wav	3	6	5	noise_calib_stim_RIGHT.wav	2	12	blb_dichoticlistening_da-ta.mp3	da	ta	1	right
6.6.1	win	2023-06-01	16:20:55	0	0	6159fb27b6340dda3fc6a5c3	2	1	DL_test	15	DL_test	31			0		ka	1	1207	6	2	antiphase_hc_ios.wav	3	6	5	noise_calib_stim_RIGHT.wav	2	16	blb_dichoticlistening_ga-ka.mp3	ga	ka	1	right
6.6.1	win	2023-06-01	16:20:55	0	0	6159fb27b6340dda3fc6a5c3	2	1	DL_test	15	DL_test	32			0		ba	1	1341	6	2	antiphase_hc_ios.wav	3	6	5	noise_calib_stim_RIGHT.wav	2	13	blb_dichoticlistening_ga-ba.mp3	ga	ba	1	right
6.6.1	win	2023-06-01	16:20:55	0	0	6159fb27b6340dda3fc6a5c3	2	1	DL_test	15	DL_test	33			0		pa	0	1110	6	2	antiphase_hc_ios.wav	3	6	5	noise_calib_stim_RIGHT.wav	2	10	blb_dichoticlistening_da-ka.mp3	da	ka	1	other
6.6.1	win	2023-06-01	16:20:55	0	0	6159fb27b6340dda3fc6a5c3	2	1	DL_test	15	DL_test	34			0		ba	1	1802	6	2	antiphase_hc_ios.wav	3	6	5	noise_calib_stim_RIGHT.wav	2	7	blb_dichoticlistening_da-ba.mp3	da	ba	1	right
6.6.1	win	2023-06-01	16:20:55	0	0	6159fb27b6340dda3fc6a5c3	2	1	DL_test	15	DL_test	35			0		ta	1	1079	6	2	antiphase_hc_ios.wav	3	6	5	noise_calib_stim_RIGHT.wav	2	36	blb_dichoticlistening_ta-ta.mp3	ta	ta	0	left
6.6.1	win	2023-06-01	16:20:55	0	0	6159fb27b6340dda3fc6a5c3	2	1	DL_test	15	DL_test	36			0		ka	0	2157	6	2	antiphase_hc_ios.wav	3	6	5	noise_calib_stim_RIGHT.wav	2	30	blb_dichoticlistening_pa-ta.mp3	pa	ta	1	other
6.6.1	win	2023-06-01	16:20:55	0	0	6159fb27b6340dda3fc6a5c3	2	1	DL_test	16	DL_test	1			0		pa	1	1095	6	2	antiphase_hc_ios.wav	3	6	5	noise_calib_stim_RIGHT.wav	2	29	blb_dichoticlistening_pa-pa.mp3	pa	pa	0	left
6.6.1	win	2023-06-01	16:20:55	0	0	6159fb27b6340dda3fc6a5c3	2	1	DL_test	16	DL_test	2			0		pa	1	1385	6	2	antiphase_hc_ios.wav	3	6	5	noise_calib_stim_RIGHT.wav	2	25	blb_dichoticlistening_pa-ba.mp3	pa	ba	1	left
6.6.1	win	2023-06-01	16:20:55	0	0	6159fb27b6340dda3fc6a5c3	2	1	DL_test	16	DL_test	3			0		ka	1	1039	6	2	antiphase_hc_ios.wav	3	6	5	noise_calib_stim_RIGHT.wav	2	21	blb_dichoticlistening_ka-ga.mp3	ka	ga	1	left
6.6.1	win	2023-06-01	16:20:55	0	0	6159fb27b6340dda3fc6a5c3	2	1	DL_test	16	DL_test	4			0		ka	1	1054	6	2	antiphase_hc_ios.wav	3	6	5	noise_calib_stim_RIGHT.wav	2	16	blb_dichoticlistening_ga-ka.mp3	ga	ka	1	right
6.6.1	win	2023-06-01	16:20:55	0	0	6159fb27b6340dda3fc6a5c3	2	1	DL_test	16	DL_test	5			0		pa	1	1229	6	2	antiphase_hc_ios.wav	3	6	5	noise_calib_stim_RIGHT.wav	2	5	blb_dichoticlistening_ba-pa.mp3	ba	pa	1	right
6.6.1	win	2023-06-01	16:20:55	0	0	6159fb27b6340dda3fc6a5c3	2	1	DL_test	16	DL_test	6			0		da	1	1282	6	2	antiphase_hc_ios.wav	3	6	5	noise_calib_stim_RIGHT.wav	2	14	blb_dichoticlistening_ga-da.mp3	ga	da	1	right
6.6.1	win	2023-06-01	16:20:55	0	0	6159fb27b6340dda3fc6a5c3	2	1	DL_test	16	DL_test	7			0		ga	1	715	6	2	antiphase_hc_ios.wav	3	6	5	noise_calib_stim_RIGHT.wav	2	15	blb_dichoticlistening_ga-ga.mp3	ga	ga	0	left
6.6.1	win	2023-06-01	16:20:55	0	0	6159fb27b6340dda3fc6a5c3	2	1	DL_test	16	DL_test	8			0		ba	1	2168	6	2	antiphase_hc_ios.wav	3	6	5	noise_calib_stim_RIGHT.wav	2	7	blb_dichoticlistening_da-ba.mp3	da	ba	1	right
6.6.1	win	2023-06-01	16:20:55	0	0	6159fb27b6340dda3fc6a5c3	2	1	DL_test	16	DL_test	9			0		ka	0	1645	6	2	antiphase_hc_ios.wav	3	6	5	noise_calib_stim_RIGHT.wav	2	32	blb_dichoticlistening_ta-da.mp3	ta	da	1	other
6.6.1	win	2023-06-01	16:20:55	0	0	6159fb27b6340dda3fc6a5c3	2	1	DL_test	16	DL_test	10			0		da	1	1105	6	2	antiphase_hc_ios.wav	3	6	5	noise_calib_stim_RIGHT.wav	2	9	blb_dichoticlistening_da-ga.mp3	da	ga	1	left
6.6.1	win	2023-06-01	16:20:55	0	0	6159fb27b6340dda3fc6a5c3	2	1	DL_test	16	DL_test	11			0		ka	0	954	6	2	antiphase_hc_ios.wav	3	6	5	noise_calib_stim_RIGHT.wav	2	18	blb_dichoticlistening_ga-ta.mp3	ga	ta	1	other
6.6.1	win	2023-06-01	16:20:55	0	0	6159fb27b6340dda3fc6a5c3	2	1	DL_test	16	DL_test	12			0		pa	0	1263	6	2	antiphase_hc_ios.wav	3	6	5	noise_calib_stim_RIGHT.wav	2	10	blb_dichoticlistening_da-ka.mp3	da	ka	1	other
6.6.1	win	2023-06-01	16:20:55	0	0	6159fb27b6340dda3fc6a5c3	2	1	DL_test	16	DL_test	13			0		ka	1	1048	6	2	antiphase_hc_ios.wav	3	6	5	noise_calib_stim_RIGHT.wav	2	4	blb_dichoticlistening_ba-ka.mp3	ba	ka	1	right
6.6.1	win	2023-06-01	16:20:55	0	0	6159fb27b6340dda3fc6a5c3	2	1	DL_test	16	DL_test	14			0		pa	1	1259	6	2	antiphase_hc_ios.wav	3	6	5	noise_calib_stim_RIGHT.wav	2	26	blb_dichoticlistening_pa-da.mp3	pa	da	1	left
6.6.1	win	2023-06-01	16:20:55	0	0	6159fb27b6340dda3fc6a5c3	2	1	DL_test	16	DL_test	15			0		ka	1	1029	6	2	antiphase_hc_ios.wav	3	6	5	noise_calib_stim_RIGHT.wav	2	19	blb_dichoticlistening_ka-ba.mp3	ka	ba	1	left
6.6.1	win	2023-06-01	16:20:55	0	0	6159fb27b6340dda3fc6a5c3	2	1	DL_test	16	DL_test	16			0		ka	1	1002	6	2	antiphase_hc_ios.wav	3	6	5	noise_calib_stim_RIGHT.wav	2	23	blb_dichoticlistening_ka-pa.mp3	ka	pa	1	left
6.6.1	win	2023-06-01	16:20:55	0	0	6159fb27b6340dda3fc6a5c3	2	1	DL_test	16	DL_test	17			0		ta	1	1269	6	2	antiphase_hc_ios.wav	3	6	5	noise_calib_stim_RIGHT.wav	2	30	blb_dichoticlistening_pa-ta.mp3	pa	ta	1	right
6.6.1	win	2023-06-01	16:20:55	0	0	6159fb27b6340dda3fc6a5c3	2	1	DL_test	16	DL_test	18			0		ta	1	1442	6	2	antiphase_hc_ios.wav	3	6	5	noise_calib_stim_RIGHT.wav	2	36	blb_dichoticlistening_ta-ta.mp3	ta	ta	0	left
6.6.1	win	2023-06-01	16:20:55	0	0	6159fb27b6340dda3fc6a5c3	2	1	DL_test	16	DL_test	19			0		ba	1	1333	6	2	antiphase_hc_ios.wav	3	6	5	noise_calib_stim_RIGHT.wav	2	3	blb_dichoticlistening_ba-ga.mp3	ba	ga	1	left
6.6.1	win	2023-06-01	16:20:55	0	0	6159fb27b6340dda3fc6a5c3	2	1	DL_test	16	DL_test	20			0		pa	0	1509	6	2	antiphase_hc_ios.wav	3	6	5	noise_calib_stim_RIGHT.wav	2	6	blb_dichoticlistening_ba-ta.mp3	ba	ta	1	other
6.6.1	win	2023-06-01	16:20:55	0	0	6159fb27b6340dda3fc6a5c3	2	1	DL_test	16	DL_test	21			0		pa	0	1436	6	2	antiphase_hc_ios.wav	3	6	5	noise_calib_stim_RIGHT.wav	2	31	blb_dichoticlistening_ta-ba.mp3	ta	ba	1	other
6.6.1	win	2023-06-01	16:20:55	0	0	6159fb27b6340dda3fc6a5c3	2	1	DL_test	16	DL_test	22			0		ta	1	1170	6	2	antiphase_hc_ios.wav	3	6	5	noise_calib_stim_RIGHT.wav	2	12	blb_dichoticlistening_da-ta.mp3	da	ta	1	right
6.6.1	win	2023-06-01	16:20:55	0	0	6159fb27b6340dda3fc6a5c3	2	1	DL_test	16	DL_test	23			0		ka	1	1120	6	2	antiphase_hc_ios.wav	3	6	5	noise_calib_stim_RIGHT.wav	2	28	blb_dichoticlistening_pa-ka.mp3	pa	ka	1	right
6.6.1	win	2023-06-01	16:20:55	0	0	6159fb27b6340dda3fc6a5c3	2	1	DL_test	16	DL_test	24			0		pa	1	991	6	2	antiphase_hc_ios.wav	3	6	5	noise_calib_stim_RIGHT.wav	2	11	blb_dichoticlistening_da-pa.mp3	da	pa	1	right
6.6.1	win	2023-06-01	16:20:55	0	0	6159fb27b6340dda3fc6a5c3	2	1	DL_test	16	DL_test	25			0		ka	1	1044	6	2	antiphase_hc_ios.wav	3	6	5	noise_calib_stim_RIGHT.wav	2	24	blb_dichoticlistening_ka-ta.mp3	ka	ta	1	left
6.6.1	win	2023-06-01	16:20:55	0	0	6159fb27b6340dda3fc6a5c3	2	1	DL_test	16	DL_test	26			0		pa	1	934	6	2	antiphase_hc_ios.wav	3	6	5	noise_calib_stim_RIGHT.wav	2	17	blb_dichoticlistening_ga-pa.mp3	ga	pa	1	right
6.6.1	win	2023-06-01	16:20:55	0	0	6159fb27b6340dda3fc6a5c3	2	1	DL_test	16	DL_test	27			0		pa	1	836	6	2	antiphase_hc_ios.wav	3	6	5	noise_calib_stim_RIGHT.wav	2	27	blb_dichoticlistening_pa-ga.mp3	pa	ga	1	left
6.6.1	win	2023-06-01	16:20:55	0	0	6159fb27b6340dda3fc6a5c3	2	1	DL_test	16	DL_test	28			0		da	1	1389	6	2	antiphase_hc_ios.wav	3	6	5	noise_calib_stim_RIGHT.wav	2	8	blb_dichoticlistening_da-da.mp3	da	da	0	left
6.6.1	win	2023-06-01	16:20:55	0	0	6159fb27b6340dda3fc6a5c3	2	1	DL_test	16	DL_test	29			0		ka	0	1139	6	2	antiphase_hc_ios.wav	3	6	5	noise_calib_stim_RIGHT.wav	2	33	blb_dichoticlistening_ta-ga.mp3	ta	ga	1	other
6.6.1	win	2023-06-01	16:20:55	0	0	6159fb27b6340dda3fc6a5c3	2	1	DL_test	16	DL_test	30			0		ka	1	874	6	2	antiphase_hc_ios.wav	3	6	5	noise_calib_stim_RIGHT.wav	2	34	blb_dichoticlistening_ta-ka.mp3	ta	ka	1	right
6.6.1	win	2023-06-01	16:20:55	0	0	6159fb27b6340dda3fc6a5c3	2	1	DL_test	16	DL_test	31			0		ba	1	1711	6	2	antiphase_hc_ios.wav	3	6	5	noise_calib_stim_RIGHT.wav	2	2	blb_dichoticlistening_ba-da.mp3	ba	da	1	left
6.6.1	win	2023-06-01	16:20:55	0	0	6159fb27b6340dda3fc6a5c3	2	1	DL_test	16	DL_test	32			0		ka	1	1029	6	2	antiphase_hc_ios.wav	3	6	5	noise_calib_stim_RIGHT.wav	2	20	blb_dichoticlistening_ka-da.mp3	ka	da	1	left
6.6.1	win	2023-06-01	16:20:55	0	0	6159fb27b6340dda3fc6a5c3	2	1	DL_test	16	DL_test	33			0		pa	1	1589	6	2	antiphase_hc_ios.wav	3	6	5	noise_calib_stim_RIGHT.wav	2	35	blb_dichoticlistening_ta-pa.mp3	ta	pa	1	right
6.6.1	win	2023-06-01	16:20:55	0	0	6159fb27b6340dda3fc6a5c3	2	1	DL_test	16	DL_test	34			0		ba	1	2141	6	2	antiphase_hc_ios.wav	3	6	5	noise_calib_stim_RIGHT.wav	2	13	blb_dichoticlistening_ga-ba.mp3	ga	ba	1	right
6.6.1	win	2023-06-01	16:20:55	0	0	6159fb27b6340dda3fc6a5c3	2	1	DL_test	16	DL_test	35			0		ka	1	903	6	2	antiphase_hc_ios.wav	3	6	5	noise_calib_stim_RIGHT.wav	2	22	blb_dichoticlistening_ka-ka.mp3	ka	ka	0	left
6.6.1	win	2023-06-01	16:20:55	0	0	6159fb27b6340dda3fc6a5c3	2	1	DL_test	16	DL_test	36			0		ba	1	1072	6	2	antiphase_hc_ios.wav	3	6	5	noise_calib_stim_RIGHT.wav	2	1	blb_dichoticlistening_ba-ba.mp3	ba	ba	0	left
6.6.1	win	2023-06-01	16:20:55	16:35:49	888240	6159fb27b6340dda3fc6a5c3	2	1	practice_z	22	practice_z	1	stimuli_distractor_trianglediamonds.svg	stimuli_target_rectanglediamonds.svg	10	yes	0	0	2000	6	2	antiphase_hc_ios.wav	3	6	5	noise_calib_stim_RIGHT.wav	2	1	blb_dichoticlistening_ba-ba.mp3	ba	ba	0	left
6.6.1	win	2023-06-01	16:20:55	16:35:49	888240	6159fb27b6340dda3fc6a5c3	2	1	practice_z	22	advance_on_keypress_ZEE	2	stimuli_distractor_trianglediamonds.svg	stimuli_target_rectanglediamonds.svg	10	yes	57	0	1079	6	2	antiphase_hc_ios.wav	3	6	5	noise_calib_stim_RIGHT.wav	2	1	blb_dichoticlistening_ba-ba.mp3	ba	ba	0	left
6.6.1	win	2023-06-01	16:20:55	16:35:54	892989	6159fb27b6340dda3fc6a5c3	2	1	practice_z	22	practice_z	3	stimuli_target_diamondsquares.svg	stimuli_distractor_diamondtriangles.svg	3	yes	0	0	2000	6	2	antiphase_hc_ios.wav	3	6	5	noise_calib_stim_RIGHT.wav	2	1	blb_dichoticlistening_ba-ba.mp3	ba	ba	0	left
6.6.1	win	2023-06-01	16:20:55	16:35:54	892989	6159fb27b6340dda3fc6a5c3	2	1	practice_z	22	advance_on_keypress_ZEE	4	stimuli_target_diamondsquares.svg	stimuli_distractor_diamondtriangles.svg	3	yes	57	0	1744	6	2	antiphase_hc_ios.wav	3	6	5	noise_calib_stim_RIGHT.wav	2	1	blb_dichoticlistening_ba-ba.mp3	ba	ba	0	left
6.6.1	win	2023-06-01	16:20:55	16:35:58	897705	6159fb27b6340dda3fc6a5c3	2	1	practice_z	22	practice_z	5	stimuli_distractor_trianglediamonds.svg	stimuli_distractor_trianglediamonds.svg	15	no	44	0	1314	6	2	antiphase_hc_ios.wav	3	6	5	noise_calib_stim_RIGHT.wav	2	1	blb_dichoticlistening_ba-ba.mp3	ba	ba	0	left
6.6.1	win	2023-06-01	16:20:55	16:35:58	897705	6159fb27b6340dda3fc6a5c3	2	1	practice_z	22	advance_on_keypress_ZEE	6	stimuli_distractor_trianglediamonds.svg	stimuli_distractor_trianglediamonds.svg	15	no	57	0	717	6	2	antiphase_hc_ios.wav	3	6	5	noise_calib_stim_RIGHT.wav	2	1	blb_dichoticlistening_ba-ba.mp3	ba	ba	0	left
6.6.1	win	2023-06-01	16:20:55	16:36:03	902068	6159fb27b6340dda3fc6a5c3	2	1	practice_z	22	practice_z	7	stimuli_distractor_trianglediamonds.svg	stimuli_distractor_diamondtriangles.svg	16	no	0	1	2000	6	2	antiphase_hc_ios.wav	3	6	5	noise_calib_stim_RIGHT.wav	2	1	blb_dichoticlistening_ba-ba.mp3	ba	ba	0	left
6.6.1	win	2023-06-01	16:20:55	16:36:03	902068	6159fb27b6340dda3fc6a5c3	2	1	practice_z	22	advance_on_keypress_ZEE	8	stimuli_distractor_trianglediamonds.svg	stimuli_distractor_diamondtriangles.svg	16	no	57	0	1562	6	2	antiphase_hc_ios.wav	3	6	5	noise_calib_stim_RIGHT.wav	2	1	blb_dichoticlistening_ba-ba.mp3	ba	ba	0	left
6.6.1	win	2023-06-01	16:20:55	16:36:08	907290	6159fb27b6340dda3fc6a5c3	2	1	practice_z	22	practice_z	9	stimuli_distractor_diamondtriangles.svg	stimuli_target_diamondrectangles.svg	8	yes	0	0	2000	6	2	antiphase_hc_ios.wav	3	6	5	noise_calib_stim_RIGHT.wav	2	1	blb_dichoticlistening_ba-ba.mp3	ba	ba	0	left
6.6.1	win	2023-06-01	16:20:55	16:36:08	907290	6159fb27b6340dda3fc6a5c3	2	1	practice_z	22	advance_on_keypress_ZEE	10	stimuli_distractor_diamondtriangles.svg	stimuli_target_diamondrectangles.svg	8	yes	57	0	553	6	2	antiphase_hc_ios.wav	3	6	5	noise_calib_stim_RIGHT.wav	2	1	blb_dichoticlistening_ba-ba.mp3	ba	ba	0	left
6.6.1	win	2023-06-01	16:20:55	16:36:11	910008	6159fb27b6340dda3fc6a5c3	2	1	practice_z	22	practice_z	11	stimuli_target_squarediamonds.svg	stimuli_distractor_trianglediamonds.svg	5	yes	44	1	525	6	2	antiphase_hc_ios.wav	3	6	5	noise_calib_stim_RIGHT.wav	2	1	blb_dichoticlistening_ba-ba.mp3	ba	ba	0	left
6.6.1	win	2023-06-01	16:20:55	16:36:11	910008	6159fb27b6340dda3fc6a5c3	2	1	practice_z	22	advance_on_keypress_ZEE	12	stimuli_target_squarediamonds.svg	stimuli_distractor_trianglediamonds.svg	5	yes	57	0	429	6	2	antiphase_hc_ios.wav	3	6	5	noise_calib_stim_RIGHT.wav	2	1	blb_dichoticlistening_ba-ba.mp3	ba	ba	0	left
6.6.1	win	2023-06-01	16:20:55	16:36:15	914084	6159fb27b6340dda3fc6a5c3	2	1	practice_z	22	practice_z	13	stimuli_distractor_diamondtriangles.svg	stimuli_distractor_diamondtriangles.svg	13	no	0	1	2000	6	2	antiphase_hc_ios.wav	3	6	5	noise_calib_stim_RIGHT.wav	2	1	blb_dichoticlistening_ba-ba.mp3	ba	ba	0	left
6.6.1	win	2023-06-01	16:20:55	16:36:15	914084	6159fb27b6340dda3fc6a5c3	2	1	practice_z	22	advance_on_keypress_ZEE	14	stimuli_distractor_diamondtriangles.svg	stimuli_distractor_diamondtriangles.svg	13	no	57	0	710	6	2	antiphase_hc_ios.wav	3	6	5	noise_calib_stim_RIGHT.wav	2	1	blb_dichoticlistening_ba-ba.mp3	ba	ba	0	left
6.6.1	win	2023-06-01	16:20:55	16:36:17	916807	6159fb27b6340dda3fc6a5c3	2	1	practice_z	22	practice_z	15	stimuli_target_rectanglediamonds.svg	stimuli_distractor_trianglediamonds.svg	4	yes	44	1	357	6	2	antiphase_hc_ios.wav	3	6	5	noise_calib_stim_RIGHT.wav	2	1	blb_dichoticlistening_ba-ba.mp3	ba	ba	0	left
6.6.1	win	2023-06-01	16:20:55	16:36:17	916807	6159fb27b6340dda3fc6a5c3	2	1	practice_z	22	advance_on_keypress_ZEE	16	stimuli_target_rectanglediamonds.svg	stimuli_distractor_trianglediamonds.svg	4	yes	57	0	613	6	2	antiphase_hc_ios.wav	3	6	5	noise_calib_stim_RIGHT.wav	2	1	blb_dichoticlistening_ba-ba.mp3	ba	ba	0	left
6.6.1	win	2023-06-01	16:20:55	16:36:20	919362	6159fb27b6340dda3fc6a5c3	2	1	practice_z	22	practice_z	17	stimuli_target_squarediamonds.svg	stimuli_distractor_diamondtriangles.svg	2	yes	44	1	292	6	2	antiphase_hc_ios.wav	3	6	5	noise_calib_stim_RIGHT.wav	2	1	blb_dichoticlistening_ba-ba.mp3	ba	ba	0	left
6.6.1	win	2023-06-01	16:20:55	16:36:20	919362	6159fb27b6340dda3fc6a5c3	2	1	practice_z	22	advance_on_keypress_ZEE	18	stimuli_target_squarediamonds.svg	stimuli_distractor_diamondtriangles.svg	2	yes	57	0	388	6	2	antiphase_hc_ios.wav	3	6	5	noise_calib_stim_RIGHT.wav	2	1	blb_dichoticlistening_ba-ba.mp3	ba	ba	0	left
6.6.1	win	2023-06-01	16:20:55	16:36:22	921792	6159fb27b6340dda3fc6a5c3	2	1	practice_z	22	practice_z	19	stimuli_distractor_trianglediamonds.svg	stimuli_target_diamondrectangles.svg	12	yes	44	1	388	6	2	antiphase_hc_ios.wav	3	6	5	noise_calib_stim_RIGHT.wav	2	1	blb_dichoticlistening_ba-ba.mp3	ba	ba	0	left
6.6.1	win	2023-06-01	16:20:55	16:36:22	921792	6159fb27b6340dda3fc6a5c3	2	1	practice_z	22	advance_on_keypress_ZEE	20	stimuli_distractor_trianglediamonds.svg	stimuli_target_diamondrectangles.svg	12	yes	57	0	509	6	2	antiphase_hc_ios.wav	3	6	5	noise_calib_stim_RIGHT.wav	2	1	blb_dichoticlistening_ba-ba.mp3	ba	ba	0	left
6.6.1	win	2023-06-01	16:20:55	16:36:25	924495	6159fb27b6340dda3fc6a5c3	2	1	practice_z	22	practice_z	21	stimuli_distractor_diamondtriangles.svg	stimuli_target_rectangletriangles.svg	7	yes	44	1	524	6	2	antiphase_hc_ios.wav	3	6	5	noise_calib_stim_RIGHT.wav	2	1	blb_dichoticlistening_ba-ba.mp3	ba	ba	0	left
6.6.1	win	2023-06-01	16:20:55	16:36:25	924495	6159fb27b6340dda3fc6a5c3	2	1	practice_z	22	advance_on_keypress_ZEE	22	stimuli_distractor_diamondtriangles.svg	stimuli_target_rectangletriangles.svg	7	yes	57	0	536	6	2	antiphase_hc_ios.wav	3	6	5	noise_calib_stim_RIGHT.wav	2	1	blb_dichoticlistening_ba-ba.mp3	ba	ba	0	left
6.6.1	win	2023-06-01	16:20:55	16:36:28	927073	6159fb27b6340dda3fc6a5c3	2	1	practice_z	22	practice_z	23	stimuli_distractor_diamondtriangles.svg	stimuli_distractor_trianglediamonds.svg	14	no	44	0	386	6	2	antiphase_hc_ios.wav	3	6	5	noise_calib_stim_RIGHT.wav	2	1	blb_dichoticlistening_ba-ba.mp3	ba	ba	0	left
6.6.1	win	2023-06-01	16:20:55	16:36:28	927073	6159fb27b6340dda3fc6a5c3	2	1	practice_z	22	advance_on_keypress_ZEE	24	stimuli_distractor_diamondtriangles.svg	stimuli_distractor_trianglediamonds.svg	14	no	57	0	418	6	2	antiphase_hc_ios.wav	3	6	5	noise_calib_stim_RIGHT.wav	2	1	blb_dichoticlistening_ba-ba.mp3	ba	ba	0	left
6.6.1	win	2023-06-01	16:20:55	16:36:30	929740	6159fb27b6340dda3fc6a5c3	2	1	practice_z	22	practice_z	25	stimuli_distractor_diamondtriangles.svg	stimuli_target_trianglerectangles.svg	9	yes	44	1	586	6	2	antiphase_hc_ios.wav	3	6	5	noise_calib_stim_RIGHT.wav	2	1	blb_dichoticlistening_ba-ba.mp3	ba	ba	0	left
6.6.1	win	2023-06-01	16:20:55	16:36:30	929740	6159fb27b6340dda3fc6a5c3	2	1	practice_z	22	advance_on_keypress_ZEE	26	stimuli_distractor_diamondtriangles.svg	stimuli_target_trianglerectangles.svg	9	yes	57	0	335	6	2	antiphase_hc_ios.wav	3	6	5	noise_calib_stim_RIGHT.wav	2	1	blb_dichoticlistening_ba-ba.mp3	ba	ba	0	left
6.6.1	win	2023-06-01	16:20:55	16:36:33	932209	6159fb27b6340dda3fc6a5c3	2	1	practice_z	22	practice_z	27	stimuli_target_rectanglediamonds.svg	stimuli_distractor_diamondtriangles.svg	1	yes	44	1	492	6	2	antiphase_hc_ios.wav	3	6	5	noise_calib_stim_RIGHT.wav	2	1	blb_dichoticlistening_ba-ba.mp3	ba	ba	0	left
6.6.1	win	2023-06-01	16:20:55	16:36:33	932209	6159fb27b6340dda3fc6a5c3	2	1	practice_z	22	advance_on_keypress_ZEE	28	stimuli_target_rectanglediamonds.svg	stimuli_distractor_diamondtriangles.svg	1	yes	57	0	519	6	2	antiphase_hc_ios.wav	3	6	5	noise_calib_stim_RIGHT.wav	2	1	blb_dichoticlistening_ba-ba.mp3	ba	ba	0	left
6.6.1	win	2023-06-01	16:20:55	16:36:35	934753	6159fb27b6340dda3fc6a5c3	2	1	practice_z	22	practice_z	29	stimuli_distractor_trianglediamonds.svg	stimuli_target_squarediamonds.svg	11	yes	44	1	382	6	2	antiphase_hc_ios.wav	3	6	5	noise_calib_stim_RIGHT.wav	2	1	blb_dichoticlistening_ba-ba.mp3	ba	ba	0	left
6.6.1	win	2023-06-01	16:20:55	16:36:35	934753	6159fb27b6340dda3fc6a5c3	2	1	practice_z	22	advance_on_keypress_ZEE	30	stimuli_distractor_trianglediamonds.svg	stimuli_target_squarediamonds.svg	11	yes	57	0	262	6	2	antiphase_hc_ios.wav	3	6	5	noise_calib_stim_RIGHT.wav	2	1	blb_dichoticlistening_ba-ba.mp3	ba	ba	0	left
6.6.1	win	2023-06-01	16:20:55	16:36:39	938672	6159fb27b6340dda3fc6a5c3	2	1	practice_z	22	practice_z	31	stimuli_target_diamondsquares.svg	stimuli_distractor_trianglediamonds.svg	6	yes	0	0	2000	6	2	antiphase_hc_ios.wav	3	6	5	noise_calib_stim_RIGHT.wav	2	1	blb_dichoticlistening_ba-ba.mp3	ba	ba	0	left
6.6.1	win	2023-06-01	16:20:55	16:36:39	938672	6159fb27b6340dda3fc6a5c3	2	1	practice_z	22	advance_on_keypress_ZEE	32	stimuli_target_diamondsquares.svg	stimuli_distractor_trianglediamonds.svg	6	yes	57	0	321	6	2	antiphase_hc_ios.wav	3	6	5	noise_calib_stim_RIGHT.wav	2	1	blb_dichoticlistening_ba-ba.mp3	ba	ba	0	left
6.6.1	win	2023-06-01	16:20:55	16:36:46	945539	6159fb27b6340dda3fc6a5c3	2	1	main_z	24	main_z	1	stimuli_target_rectangletriangles.svg	stimuli_distractor_diamondtriangles.svg	5	yes	44	1	366	6	2	antiphase_hc_ios.wav	3	6	5	noise_calib_stim_RIGHT.wav	2	1	blb_dichoticlistening_ba-ba.mp3	ba	ba	0	left
6.6.1	win	2023-06-01	16:20:55	16:36:46	945539	6159fb27b6340dda3fc6a5c3	2	1	main_z	24	advance_on_keypress_ZEE	2	stimuli_target_rectangletriangles.svg	stimuli_distractor_diamondtriangles.svg	5	yes	57	0	2851	6	2	antiphase_hc_ios.wav	3	6	5	noise_calib_stim_RIGHT.wav	2	1	blb_dichoticlistening_ba-ba.mp3	ba	ba	0	left
6.6.1	win	2023-06-01	16:20:55	16:36:50	949376	6159fb27b6340dda3fc6a5c3	2	1	main_z	24	main_z	3	stimuli_distractor_diamondtriangles.svg	stimuli_distractor_trianglediamonds.svg	37	no	44	0	326	6	2	antiphase_hc_ios.wav	3	6	5	noise_calib_stim_RIGHT.wav	2	1	blb_dichoticlistening_ba-ba.mp3	ba	ba	0	left
6.6.1	win	2023-06-01	16:20:55	16:36:50	949376	6159fb27b6340dda3fc6a5c3	2	1	main_z	24	advance_on_keypress_ZEE	4	stimuli_distractor_diamondtriangles.svg	stimuli_distractor_trianglediamonds.svg	37	no	57	0	708	6	2	antiphase_hc_ios.wav	3	6	5	noise_calib_stim_RIGHT.wav	2	1	blb_dichoticlistening_ba-ba.mp3	ba	ba	0	left
6.6.1	win	2023-06-01	16:20:55	16:36:52	951135	6159fb27b6340dda3fc6a5c3	2	1	main_z	24	main_z	5	stimuli_distractor_trianglediamonds.svg	stimuli_target_squaretriangles.svg	11	yes	44	1	402	6	2	antiphase_hc_ios.wav	3	6	5	noise_calib_stim_RIGHT.wav	2	1	blb_dichoticlistening_ba-ba.mp3	ba	ba	0	left
6.6.1	win	2023-06-01	16:20:55	16:36:52	951135	6159fb27b6340dda3fc6a5c3	2	1	main_z	24	advance_on_keypress_ZEE	6	stimuli_distractor_trianglediamonds.svg	stimuli_target_squaretriangles.svg	11	yes	57	0	692	6	2	antiphase_hc_ios.wav	3	6	5	noise_calib_stim_RIGHT.wav	2	1	blb_dichoticlistening_ba-ba.mp3	ba	ba	0	left
6.6.1	win	2023-06-01	16:20:55	16:36:53	952811	6159fb27b6340dda3fc6a5c3	2	1	main_z	24	main_z	7	stimuli_target_squaretriangles.svg	stimuli_distractor_trianglediamonds.svg	3	yes	44	1	345	6	2	antiphase_hc_ios.wav	3	6	5	noise_calib_stim_RIGHT.wav	2	1	blb_dichoticlistening_ba-ba.mp3	ba	ba	0	left
6.6.1	win	2023-06-01	16:20:55	16:36:53	952811	6159fb27b6340dda3fc6a5c3	2	1	main_z	24	advance_on_keypress_ZEE	8	stimuli_target_squaretriangles.svg	stimuli_distractor_trianglediamonds.svg	3	yes	57	0	563	6	2	antiphase_hc_ios.wav	3	6	5	noise_calib_stim_RIGHT.wav	2	1	blb_dichoticlistening_ba-ba.mp3	ba	ba	0	left
6.6.1	win	2023-06-01	16:20:55	16:36:57	956036	6159fb27b6340dda3fc6a5c3	2	1	main_z	24	main_z	9	stimuli_distractor_trianglediamonds.svg	stimuli_distractor_trianglediamonds.svg	34	no	0	1	2000	6	2	antiphase_hc_ios.wav	3	6	5	noise_calib_stim_RIGHT.wav	2	1	blb_dichoticlistening_ba-ba.mp3	ba	ba	0	left
6.6.1	win	2023-06-01	16:20:55	16:36:57	956036	6159fb27b6340dda3fc6a5c3	2	1	main_z	24	advance_on_keypress_ZEE	10	stimuli_distractor_trianglediamonds.svg	stimuli_distractor_trianglediamonds.svg	34	no	57	0	368	6	2	antiphase_hc_ios.wav	3	6	5	noise_calib_stim_RIGHT.wav	2	1	blb_dichoticlistening_ba-ba.mp3	ba	ba	0	left
6.6.1	win	2023-06-01	16:20:55	16:36:59	958306	6159fb27b6340dda3fc6a5c3	2	1	main_z	24	main_z	11	stimuli_target_trianglesquares.svg	stimuli_distractor_trianglediamonds.svg	18	yes	44	1	1251	6	2	antiphase_hc_ios.wav	3	6	5	noise_calib_stim_RIGHT.wav	2	1	blb_dichoticlistening_ba-ba.mp3	ba	ba	0	left
6.6.1	win	2023-06-01	16:20:55	16:36:59	958306	6159fb27b6340dda3fc6a5c3	2	1	main_z	24	advance_on_keypress_ZEE	12	stimuli_target_trianglesquares.svg	stimuli_distractor_trianglediamonds.svg	18	yes	57	0	603	6	2	antiphase_hc_ios.wav	3	6	5	noise_calib_stim_RIGHT.wav	2	1	blb_dichoticlistening_ba-ba.mp3	ba	ba	0	left
6.6.1	win	2023-06-01	16:20:55	16:37:01	960415	6159fb27b6340dda3fc6a5c3	2	1	main_z	24	main_z	13	stimuli_target_diamondsquares.svg	stimuli_distractor_diamondtriangles.svg	24	yes	44	1	865	6	2	antiphase_hc_ios.wav	3	6	5	noise_calib_stim_RIGHT.wav	2	1	blb_dichoticlistening_ba-ba.mp3	ba	ba	0	left
6.6.1	win	2023-06-01	16:20:55	16:37:01	960415	6159fb27b6340dda3fc6a5c3	2	1	main_z	24	advance_on_keypress_ZEE	14	stimuli_target_diamondsquares.svg	stimuli_distractor_diamondtriangles.svg	24	yes	57	0	747	6	2	antiphase_hc_ios.wav	3	6	5	noise_calib_stim_RIGHT.wav	2	1	blb_dichoticlistening_ba-ba.mp3	ba	ba	0	left
6.6.1	win	2023-06-01	16:20:55	16:37:03	962446	6159fb27b6340dda3fc6a5c3	2	1	main_z	24	main_z	15	stimuli_distractor_diamondtriangles.svg	stimuli_target_trianglerectangles.svg	29	yes	44	1	629	6	2	antiphase_hc_ios.wav	3	6	5	noise_calib_stim_RIGHT.wav	2	1	blb_dichoticlistening_ba-ba.mp3	ba	ba	0	left
6.6.1	win	2023-06-01	16:20:55	16:37:03	962446	6159fb27b6340dda3fc6a5c3	2	1	main_z	24	advance_on_keypress_ZEE	16	stimuli_distractor_diamondtriangles.svg	stimuli_target_trianglerectangles.svg	29	yes	57	0	683	6	2	antiphase_hc_ios.wav	3	6	5	noise_calib_stim_RIGHT.wav	2	1	blb_dichoticlistening_ba-ba.mp3	ba	ba	0	left
6.6.1	win	2023-06-01	16:20:55	16:37:05	964481	6159fb27b6340dda3fc6a5c3	2	1	main_z	24	main_z	17	stimuli_distractor_diamondtriangles.svg	stimuli_target_trianglesquares.svg	30	yes	44	1	698	6	2	antiphase_hc_ios.wav	3	6	5	noise_calib_stim_RIGHT.wav	2	1	blb_dichoticlistening_ba-ba.mp3	ba	ba	0	left
6.6.1	win	2023-06-01	16:20:55	16:37:05	964481	6159fb27b6340dda3fc6a5c3	2	1	main_z	24	advance_on_keypress_ZEE	18	stimuli_distractor_diamondtriangles.svg	stimuli_target_trianglesquares.svg	30	yes	57	0	732	6	2	antiphase_hc_ios.wav	3	6	5	noise_calib_stim_RIGHT.wav	2	1	blb_dichoticlistening_ba-ba.mp3	ba	ba	0	left
6.6.1	win	2023-06-01	16:20:55	16:37:07	966702	6159fb27b6340dda3fc6a5c3	2	1	main_z	24	main_z	19	stimuli_distractor_diamondtriangles.svg	stimuli_target_rectangletriangles.svg	13	yes	44	1	836	6	2	antiphase_hc_ios.wav	3	6	5	noise_calib_stim_RIGHT.wav	2	1	blb_dichoticlistening_ba-ba.mp3	ba	ba	0	left
6.6.1	win	2023-06-01	16:20:55	16:37:07	966702	6159fb27b6340dda3fc6a5c3	2	1	main_z	24	advance_on_keypress_ZEE	20	stimuli_distractor_diamondtriangles.svg	stimuli_target_rectangletriangles.svg	13	yes	57	0	722	6	2	antiphase_hc_ios.wav	3	6	5	noise_calib_stim_RIGHT.wav	2	1	blb_dichoticlistening_ba-ba.mp3	ba	ba	0	left
6.6.1	win	2023-06-01	16:20:55	16:37:10	969078	6159fb27b6340dda3fc6a5c3	2	1	main_z	24	main_z	21	stimuli_target_trianglerectangles.svg	stimuli_distractor_diamondtriangles.svg	21	yes	44	1	1011	6	2	antiphase_hc_ios.wav	3	6	5	noise_calib_stim_RIGHT.wav	2	1	blb_dichoticlistening_ba-ba.mp3	ba	ba	0	left
6.6.1	win	2023-06-01	16:20:55	16:37:10	969078	6159fb27b6340dda3fc6a5c3	2	1	main_z	24	advance_on_keypress_ZEE	22	stimuli_target_trianglerectangles.svg	stimuli_distractor_diamondtriangles.svg	21	yes	57	0	703	6	2	antiphase_hc_ios.wav	3	6	5	noise_calib_stim_RIGHT.wav	2	1	blb_dichoticlistening_ba-ba.mp3	ba	ba	0	left
6.6.1	win	2023-06-01	16:20:55	16:37:13	972436	6159fb27b6340dda3fc6a5c3	2	1	main_z	24	main_z	23	stimuli_distractor_trianglediamonds.svg	stimuli_distractor_trianglediamonds.svg	33	no	0	1	2000	6	2	antiphase_hc_ios.wav	3	6	5	noise_calib_stim_RIGHT.wav	2	1	blb_dichoticlistening_ba-ba.mp3	ba	ba	0	left
6.6.1	win	2023-06-01	16:20:55	16:37:13	972436	6159fb27b6340dda3fc6a5c3	2	1	main_z	24	advance_on_keypress_ZEE	24	stimuli_distractor_trianglediamonds.svg	stimuli_distractor_trianglediamonds.svg	33	no	57	0	406	6	2	antiphase_hc_ios.wav	3	6	5	noise_calib_stim_RIGHT.wav	2	1	blb_dichoticlistening_ba-ba.mp3	ba	ba	0	left
6.6.1	win	2023-06-01	16:20:55	16:37:15	974109	6159fb27b6340dda3fc6a5c3	2	1	main_z	24	main_z	25	stimuli_distractor_diamondtriangles.svg	stimuli_target_rectanglediamonds.svg	14	yes	44	1	625	6	2	antiphase_hc_ios.wav	3	6	5	noise_calib_stim_RIGHT.wav	2	1	blb_dichoticlistening_ba-ba.mp3	ba	ba	0	left
6.6.1	win	2023-06-01	16:20:55	16:37:15	974109	6159fb27b6340dda3fc6a5c3	2	1	main_z	24	advance_on_keypress_ZEE	26	stimuli_distractor_diamondtriangles.svg	stimuli_target_rectanglediamonds.svg	14	yes	57	0	702	6	2	antiphase_hc_ios.wav	3	6	5	noise_calib_stim_RIGHT.wav	2	1	blb_dichoticlistening_ba-ba.mp3	ba	ba	0	left
6.6.1	win	2023-06-01	16:20:55	16:37:18	977450	6159fb27b6340dda3fc6a5c3	2	1	main_z	24	main_z	27	stimuli_distractor_trianglediamonds.svg	stimuli_distractor_diamondtriangles.svg	35	no	0	1	2000	6	2	antiphase_hc_ios.wav	3	6	5	noise_calib_stim_RIGHT.wav	2	1	blb_dichoticlistening_ba-ba.mp3	ba	ba	0	left
6.6.1	win	2023-06-01	16:20:55	16:37:18	977450	6159fb27b6340dda3fc6a5c3	2	1	main_z	24	advance_on_keypress_ZEE	28	stimuli_distractor_trianglediamonds.svg	stimuli_distractor_diamondtriangles.svg	35	no	57	0	464	6	2	antiphase_hc_ios.wav	3	6	5	noise_calib_stim_RIGHT.wav	2	1	blb_dichoticlistening_ba-ba.mp3	ba	ba	0	left
6.6.1	win	2023-06-01	16:20:55	16:37:20	978954	6159fb27b6340dda3fc6a5c3	2	1	main_z	24	main_z	29	stimuli_target_trianglesquares.svg	stimuli_distractor_diamondtriangles.svg	22	yes	44	1	386	6	2	antiphase_hc_ios.wav	3	6	5	noise_calib_stim_RIGHT.wav	2	1	blb_dichoticlistening_ba-ba.mp3	ba	ba	0	left
6.6.1	win	2023-06-01	16:20:55	16:37:20	978954	6159fb27b6340dda3fc6a5c3	2	1	main_z	24	advance_on_keypress_ZEE	30	stimuli_target_trianglesquares.svg	stimuli_distractor_diamondtriangles.svg	22	yes	57	0	773	6	2	antiphase_hc_ios.wav	3	6	5	noise_calib_stim_RIGHT.wav	2	1	blb_dichoticlistening_ba-ba.mp3	ba	ba	0	left
6.6.1	win	2023-06-01	16:20:55	16:37:22	981062	6159fb27b6340dda3fc6a5c3	2	1	main_z	24	main_z	31	stimuli_target_trianglerectangles.svg	stimuli_distractor_trianglediamonds.svg	17	yes	44	1	695	6	2	antiphase_hc_ios.wav	3	6	5	noise_calib_stim_RIGHT.wav	2	1	blb_dichoticlistening_ba-ba.mp3	ba	ba	0	left
6.6.1	win	2023-06-01	16:20:55	16:37:22	981062	6159fb27b6340dda3fc6a5c3	2	1	main_z	24	advance_on_keypress_ZEE	32	stimuli_target_trianglerectangles.svg	stimuli_distractor_trianglediamonds.svg	17	yes	57	0	551	6	2	antiphase_hc_ios.wav	3	6	5	noise_calib_stim_RIGHT.wav	2	1	blb_dichoticlistening_ba-ba.mp3	ba	ba	0	left
6.6.1	win	2023-06-01	16:20:55	16:37:23	982783	6159fb27b6340dda3fc6a5c3	2	1	main_z	24	main_z	33	stimuli_target_squarediamonds.svg	stimuli_distractor_diamondtriangles.svg	8	yes	44	1	513	6	2	antiphase_hc_ios.wav	3	6	5	noise_calib_stim_RIGHT.wav	2	1	blb_dichoticlistening_ba-ba.mp3	ba	ba	0	left
6.6.1	win	2023-06-01	16:20:55	16:37:23	982783	6159fb27b6340dda3fc6a5c3	2	1	main_z	24	advance_on_keypress_ZEE	34	stimuli_target_squarediamonds.svg	stimuli_distractor_diamondtriangles.svg	8	yes	57	0	494	6	2	antiphase_hc_ios.wav	3	6	5	noise_calib_stim_RIGHT.wav	2	1	blb_dichoticlistening_ba-ba.mp3	ba	ba	0	left
6.6.1	win	2023-06-01	16:20:55	16:37:25	984401	6159fb27b6340dda3fc6a5c3	2	1	main_z	24	main_z	35	stimuli_target_rectangletriangles.svg	stimuli_distractor_trianglediamonds.svg	1	yes	44	1	466	6	2	antiphase_hc_ios.wav	3	6	5	noise_calib_stim_RIGHT.wav	2	1	blb_dichoticlistening_ba-ba.mp3	ba	ba	0	left
6.6.1	win	2023-06-01	16:20:55	16:37:25	984401	6159fb27b6340dda3fc6a5c3	2	1	main_z	24	advance_on_keypress_ZEE	36	stimuli_target_rectangletriangles.svg	stimuli_distractor_trianglediamonds.svg	1	yes	57	0	479	6	2	antiphase_hc_ios.wav	3	6	5	noise_calib_stim_RIGHT.wav	2	1	blb_dichoticlistening_ba-ba.mp3	ba	ba	0	left
6.6.1	win	2023-06-01	16:20:55	16:37:27	986108	6159fb27b6340dda3fc6a5c3	2	1	main_z	24	main_z	37	stimuli_distractor_diamondtriangles.svg	stimuli_target_squarediamonds.svg	16	yes	44	1	574	6	2	antiphase_hc_ios.wav	3	6	5	noise_calib_stim_RIGHT.wav	2	1	blb_dichoticlistening_ba-ba.mp3	ba	ba	0	left
6.6.1	win	2023-06-01	16:20:55	16:37:27	986108	6159fb27b6340dda3fc6a5c3	2	1	main_z	24	advance_on_keypress_ZEE	38	stimuli_distractor_diamondtriangles.svg	stimuli_target_squarediamonds.svg	16	yes	57	0	387	6	2	antiphase_hc_ios.wav	3	6	5	noise_calib_stim_RIGHT.wav	2	1	blb_dichoticlistening_ba-ba.mp3	ba	ba	0	left
6.6.1	win	2023-06-01	16:20:55	16:37:29	987974	6159fb27b6340dda3fc6a5c3	2	1	main_z	24	main_z	39	stimuli_target_rectanglediamonds.svg	stimuli_distractor_trianglediamonds.svg	2	yes	44	1	840	6	2	antiphase_hc_ios.wav	3	6	5	noise_calib_stim_RIGHT.wav	2	1	blb_dichoticlistening_ba-ba.mp3	ba	ba	0	left
6.6.1	win	2023-06-01	16:20:55	16:37:29	987974	6159fb27b6340dda3fc6a5c3	2	1	main_z	24	advance_on_keypress_ZEE	40	stimuli_target_rectanglediamonds.svg	stimuli_distractor_trianglediamonds.svg	2	yes	57	0	347	6	2	antiphase_hc_ios.wav	3	6	5	noise_calib_stim_RIGHT.wav	2	1	blb_dichoticlistening_ba-ba.mp3	ba	ba	0	left
6.6.1	win	2023-06-01	16:20:55	16:37:30	989637	6159fb27b6340dda3fc6a5c3	2	1	main_z	24	main_z	41	stimuli_distractor_trianglediamonds.svg	stimuli_target_trianglerectangles.svg	25	yes	44	1	670	6	2	antiphase_hc_ios.wav	3	6	5	noise_calib_stim_RIGHT.wav	2	1	blb_dichoticlistening_ba-ba.mp3	ba	ba	0	left
6.6.1	win	2023-06-01	16:20:55	16:37:30	989637	6159fb27b6340dda3fc6a5c3	2	1	main_z	24	advance_on_keypress_ZEE	42	stimuli_distractor_trianglediamonds.svg	stimuli_target_trianglerectangles.svg	25	yes	57	0	336	6	2	antiphase_hc_ios.wav	3	6	5	noise_calib_stim_RIGHT.wav	2	1	blb_dichoticlistening_ba-ba.mp3	ba	ba	0	left
6.6.1	win	2023-06-01	16:20:55	16:37:32	991135	6159fb27b6340dda3fc6a5c3	2	1	main_z	24	main_z	43	stimuli_target_squaretriangles.svg	stimuli_distractor_diamondtriangles.svg	7	yes	44	1	519	6	2	antiphase_hc_ios.wav	3	6	5	noise_calib_stim_RIGHT.wav	2	1	blb_dichoticlistening_ba-ba.mp3	ba	ba	0	left
6.6.1	win	2023-06-01	16:20:55	16:37:32	991135	6159fb27b6340dda3fc6a5c3	2	1	main_z	24	advance_on_keypress_ZEE	44	stimuli_target_squaretriangles.svg	stimuli_distractor_diamondtriangles.svg	7	yes	57	0	350	6	2	antiphase_hc_ios.wav	3	6	5	noise_calib_stim_RIGHT.wav	2	1	blb_dichoticlistening_ba-ba.mp3	ba	ba	0	left
6.6.1	win	2023-06-01	16:20:55	16:37:33	992577	6159fb27b6340dda3fc6a5c3	2	1	main_z	24	main_z	45	stimuli_target_squarediamonds.svg	stimuli_distractor_trianglediamonds.svg	4	yes	44	1	443	6	2	antiphase_hc_ios.wav	3	6	5	noise_calib_stim_RIGHT.wav	2	1	blb_dichoticlistening_ba-ba.mp3	ba	ba	0	left
6.6.1	win	2023-06-01	16:20:55	16:37:33	992577	6159fb27b6340dda3fc6a5c3	2	1	main_z	24	advance_on_keypress_ZEE	46	stimuli_target_squarediamonds.svg	stimuli_distractor_trianglediamonds.svg	4	yes	57	0	359	6	2	antiphase_hc_ios.wav	3	6	5	noise_calib_stim_RIGHT.wav	2	1	blb_dichoticlistening_ba-ba.mp3	ba	ba	0	left
6.6.1	win	2023-06-01	16:20:55	16:37:35	994077	6159fb27b6340dda3fc6a5c3	2	1	main_z	24	main_z	47	stimuli_target_diamondrectangles.svg	stimuli_distractor_trianglediamonds.svg	19	yes	44	1	510	6	2	antiphase_hc_ios.wav	3	6	5	noise_calib_stim_RIGHT.wav	2	1	blb_dichoticlistening_ba-ba.mp3	ba	ba	0	left
6.6.1	win	2023-06-01	16:20:55	16:37:35	994077	6159fb27b6340dda3fc6a5c3	2	1	main_z	24	advance_on_keypress_ZEE	48	stimuli_target_diamondrectangles.svg	stimuli_distractor_trianglediamonds.svg	19	yes	57	0	331	6	2	antiphase_hc_ios.wav	3	6	5	noise_calib_stim_RIGHT.wav	2	1	blb_dichoticlistening_ba-ba.mp3	ba	ba	0	left
6.6.1	win	2023-06-01	16:20:55	16:37:36	995698	6159fb27b6340dda3fc6a5c3	2	1	main_z	24	main_z	49	stimuli_target_rectanglediamonds.svg	stimuli_distractor_diamondtriangles.svg	6	yes	44	1	648	6	2	antiphase_hc_ios.wav	3	6	5	noise_calib_stim_RIGHT.wav	2	1	blb_dichoticlistening_ba-ba.mp3	ba	ba	0	left
6.6.1	win	2023-06-01	16:20:55	16:37:36	995698	6159fb27b6340dda3fc6a5c3	2	1	main_z	24	advance_on_keypress_ZEE	50	stimuli_target_rectanglediamonds.svg	stimuli_distractor_diamondtriangles.svg	6	yes	57	0	402	6	2	antiphase_hc_ios.wav	3	6	5	noise_calib_stim_RIGHT.wav	2	1	blb_dichoticlistening_ba-ba.mp3	ba	ba	0	left
6.6.1	win	2023-06-01	16:20:55	16:37:39	997879	6159fb27b6340dda3fc6a5c3	2	1	main_z	24	main_z	51	stimuli_target_diamondrectangles.svg	stimuli_distractor_diamondtriangles.svg	23	yes	44	1	1126	6	2	antiphase_hc_ios.wav	3	6	5	noise_calib_stim_RIGHT.wav	2	1	blb_dichoticlistening_ba-ba.mp3	ba	ba	0	left
6.6.1	win	2023-06-01	16:20:55	16:37:39	997879	6159fb27b6340dda3fc6a5c3	2	1	main_z	24	advance_on_keypress_ZEE	52	stimuli_target_diamondrectangles.svg	stimuli_distractor_diamondtriangles.svg	23	yes	57	0	377	6	2	antiphase_hc_ios.wav	3	6	5	noise_calib_stim_RIGHT.wav	2	1	blb_dichoticlistening_ba-ba.mp3	ba	ba	0	left
6.6.1	win	2023-06-01	16:20:55	16:37:42	1000903	6159fb27b6340dda3fc6a5c3	2	1	main_z	24	main_z	53	stimuli_distractor_diamondtriangles.svg	stimuli_distractor_diamondtriangles.svg	39	no	0	1	2000	6	2	antiphase_hc_ios.wav	3	6	5	noise_calib_stim_RIGHT.wav	2	1	blb_dichoticlistening_ba-ba.mp3	ba	ba	0	left
6.6.1	win	2023-06-01	16:20:55	16:37:42	1000903	6159fb27b6340dda3fc6a5c3	2	1	main_z	24	advance_on_keypress_ZEE	54	stimuli_distractor_diamondtriangles.svg	stimuli_distractor_diamondtriangles.svg	39	no	57	0	354	6	2	antiphase_hc_ios.wav	3	6	5	noise_calib_stim_RIGHT.wav	2	1	blb_dichoticlistening_ba-ba.mp3	ba	ba	0	left
6.6.1	win	2023-06-01	16:20:55	16:37:43	1002271	6159fb27b6340dda3fc6a5c3	2	1	main_z	24	main_z	55	stimuli_distractor_trianglediamonds.svg	stimuli_target_squarediamonds.svg	12	yes	44	1	369	6	2	antiphase_hc_ios.wav	3	6	5	noise_calib_stim_RIGHT.wav	2	1	blb_dichoticlistening_ba-ba.mp3	ba	ba	0	left
6.6.1	win	2023-06-01	16:20:55	16:37:43	1002271	6159fb27b6340dda3fc6a5c3	2	1	main_z	24	advance_on_keypress_ZEE	56	stimuli_distractor_trianglediamonds.svg	stimuli_target_squarediamonds.svg	12	yes	57	0	402	6	2	antiphase_hc_ios.wav	3	6	5	noise_calib_stim_RIGHT.wav	2	1	blb_dichoticlistening_ba-ba.mp3	ba	ba	0	left
6.6.1	win	2023-06-01	16:20:55	16:37:46	1004984	6159fb27b6340dda3fc6a5c3	2	1	main_z	24	main_z	57	stimuli_distractor_diamondtriangles.svg	stimuli_distractor_trianglediamonds.svg	38	no	44	0	1664	6	2	antiphase_hc_ios.wav	3	6	5	noise_calib_stim_RIGHT.wav	2	1	blb_dichoticlistening_ba-ba.mp3	ba	ba	0	left
6.6.1	win	2023-06-01	16:20:55	16:37:46	1004984	6159fb27b6340dda3fc6a5c3	2	1	main_z	24	advance_on_keypress_ZEE	58	stimuli_distractor_diamondtriangles.svg	stimuli_distractor_trianglediamonds.svg	38	no	57	0	568	6	2	antiphase_hc_ios.wav	3	6	5	noise_calib_stim_RIGHT.wav	2	1	blb_dichoticlistening_ba-ba.mp3	ba	ba	0	left
6.6.1	win	2023-06-01	16:20:55	16:37:47	1006753	6159fb27b6340dda3fc6a5c3	2	1	main_z	24	main_z	59	stimuli_distractor_diamondtriangles.svg	stimuli_target_diamondrectangles.svg	31	yes	44	1	536	6	2	antiphase_hc_ios.wav	3	6	5	noise_calib_stim_RIGHT.wav	2	1	blb_dichoticlistening_ba-ba.mp3	ba	ba	0	left
6.6.1	win	2023-06-01	16:20:55	16:37:47	1006753	6159fb27b6340dda3fc6a5c3	2	1	main_z	24	advance_on_keypress_ZEE	60	stimuli_distractor_diamondtriangles.svg	stimuli_target_diamondrectangles.svg	31	yes	57	0	361	6	2	antiphase_hc_ios.wav	3	6	5	noise_calib_stim_RIGHT.wav	2	1	blb_dichoticlistening_ba-ba.mp3	ba	ba	0	left
6.6.1	win	2023-06-01	16:20:55	16:37:49	1008602	6159fb27b6340dda3fc6a5c3	2	1	main_z	24	main_z	61	stimuli_distractor_trianglediamonds.svg	stimuli_target_rectangletriangles.svg	9	yes	44	1	835	6	2	antiphase_hc_ios.wav	3	6	5	noise_calib_stim_RIGHT.wav	2	1	blb_dichoticlistening_ba-ba.mp3	ba	ba	0	left
6.6.1	win	2023-06-01	16:20:55	16:37:49	1008602	6159fb27b6340dda3fc6a5c3	2	1	main_z	24	advance_on_keypress_ZEE	62	stimuli_distractor_trianglediamonds.svg	stimuli_target_rectangletriangles.svg	9	yes	57	0	372	6	2	antiphase_hc_ios.wav	3	6	5	noise_calib_stim_RIGHT.wav	2	1	blb_dichoticlistening_ba-ba.mp3	ba	ba	0	left
6.6.1	win	2023-06-01	16:20:55	16:37:52	1010897	6159fb27b6340dda3fc6a5c3	2	1	main_z	24	main_z	63	stimuli_distractor_diamondtriangles.svg	stimuli_distractor_diamondtriangles.svg	40	no	44	0	1280	6	2	antiphase_hc_ios.wav	3	6	5	noise_calib_stim_RIGHT.wav	2	1	blb_dichoticlistening_ba-ba.mp3	ba	ba	0	left
6.6.1	win	2023-06-01	16:20:55	16:37:52	1010897	6159fb27b6340dda3fc6a5c3	2	1	main_z	24	advance_on_keypress_ZEE	64	stimuli_distractor_diamondtriangles.svg	stimuli_distractor_diamondtriangles.svg	40	no	57	0	726	6	2	antiphase_hc_ios.wav	3	6	5	noise_calib_stim_RIGHT.wav	2	1	blb_dichoticlistening_ba-ba.mp3	ba	ba	0	left
6.6.1	win	2023-06-01	16:20:55	16:37:55	1014267	6159fb27b6340dda3fc6a5c3	2	1	main_z	24	main_z	65	stimuli_distractor_trianglediamonds.svg	stimuli_distractor_diamondtriangles.svg	36	no	0	1	2000	6	2	antiphase_hc_ios.wav	3	6	5	noise_calib_stim_RIGHT.wav	2	1	blb_dichoticlistening_ba-ba.mp3	ba	ba	0	left
6.6.1	win	2023-06-01	16:20:55	16:37:55	1014267	6159fb27b6340dda3fc6a5c3	2	1	main_z	24	advance_on_keypress_ZEE	66	stimuli_distractor_trianglediamonds.svg	stimuli_distractor_diamondtriangles.svg	36	no	57	0	365	6	2	antiphase_hc_ios.wav	3	6	5	noise_calib_stim_RIGHT.wav	2	1	blb_dichoticlistening_ba-ba.mp3	ba	ba	0	left
6.6.1	win	2023-06-01	16:20:55	16:37:56	1015828	6159fb27b6340dda3fc6a5c3	2	1	main_z	24	main_z	67	stimuli_distractor_trianglediamonds.svg	stimuli_target_trianglesquares.svg	26	yes	44	1	544	6	2	antiphase_hc_ios.wav	3	6	5	noise_calib_stim_RIGHT.wav	2	1	blb_dichoticlistening_ba-ba.mp3	ba	ba	0	left
6.6.1	win	2023-06-01	16:20:55	16:37:56	1015828	6159fb27b6340dda3fc6a5c3	2	1	main_z	24	advance_on_keypress_ZEE	68	stimuli_distractor_trianglediamonds.svg	stimuli_target_trianglesquares.svg	26	yes	57	0	433	6	2	antiphase_hc_ios.wav	3	6	5	noise_calib_stim_RIGHT.wav	2	1	blb_dichoticlistening_ba-ba.mp3	ba	ba	0	left
6.6.1	win	2023-06-01	16:20:55	16:37:58	1017472	6159fb27b6340dda3fc6a5c3	2	1	main_z	24	main_z	69	stimuli_distractor_trianglediamonds.svg	stimuli_target_rectanglediamonds.svg	10	yes	44	1	554	6	2	antiphase_hc_ios.wav	3	6	5	noise_calib_stim_RIGHT.wav	2	1	blb_dichoticlistening_ba-ba.mp3	ba	ba	0	left
6.6.1	win	2023-06-01	16:20:55	16:37:58	1017472	6159fb27b6340dda3fc6a5c3	2	1	main_z	24	advance_on_keypress_ZEE	70	stimuli_distractor_trianglediamonds.svg	stimuli_target_rectanglediamonds.svg	10	yes	57	0	333	6	2	antiphase_hc_ios.wav	3	6	5	noise_calib_stim_RIGHT.wav	2	1	blb_dichoticlistening_ba-ba.mp3	ba	ba	0	left
6.6.1	win	2023-06-01	16:20:55	16:38:00	1019399	6159fb27b6340dda3fc6a5c3	2	1	main_z	24	main_z	71	stimuli_distractor_diamondtriangles.svg	stimuli_target_diamondsquares.svg	32	yes	44	1	948	6	2	antiphase_hc_ios.wav	3	6	5	noise_calib_stim_RIGHT.wav	2	1	blb_dichoticlistening_ba-ba.mp3	ba	ba	0	left
6.6.1	win	2023-06-01	16:20:55	16:38:00	1019399	6159fb27b6340dda3fc6a5c3	2	1	main_z	24	advance_on_keypress_ZEE	72	stimuli_distractor_diamondtriangles.svg	stimuli_target_diamondsquares.svg	32	yes	57	0	325	6	2	antiphase_hc_ios.wav	3	6	5	noise_calib_stim_RIGHT.wav	2	1	blb_dichoticlistening_ba-ba.mp3	ba	ba	0	left
6.6.1	win	2023-06-01	16:20:55	16:38:02	1020982	6159fb27b6340dda3fc6a5c3	2	1	main_z	24	main_z	73	stimuli_distractor_trianglediamonds.svg	stimuli_target_diamondrectangles.svg	27	yes	44	1	615	6	2	antiphase_hc_ios.wav	3	6	5	noise_calib_stim_RIGHT.wav	2	1	blb_dichoticlistening_ba-ba.mp3	ba	ba	0	left
6.6.1	win	2023-06-01	16:20:55	16:38:02	1020982	6159fb27b6340dda3fc6a5c3	2	1	main_z	24	advance_on_keypress_ZEE	74	stimuli_distractor_trianglediamonds.svg	stimuli_target_diamondrectangles.svg	27	yes	57	0	383	6	2	antiphase_hc_ios.wav	3	6	5	noise_calib_stim_RIGHT.wav	2	1	blb_dichoticlistening_ba-ba.mp3	ba	ba	0	left
6.6.1	win	2023-06-01	16:20:55	16:38:03	1022419	6159fb27b6340dda3fc6a5c3	2	1	main_z	24	main_z	75	stimuli_target_diamondsquares.svg	stimuli_distractor_trianglediamonds.svg	20	yes	44	1	401	6	2	antiphase_hc_ios.wav	3	6	5	noise_calib_stim_RIGHT.wav	2	1	blb_dichoticlistening_ba-ba.mp3	ba	ba	0	left
6.6.1	win	2023-06-01	16:20:55	16:38:03	1022419	6159fb27b6340dda3fc6a5c3	2	1	main_z	24	advance_on_keypress_ZEE	76	stimuli_target_diamondsquares.svg	stimuli_distractor_trianglediamonds.svg	20	yes	57	0	349	6	2	antiphase_hc_ios.wav	3	6	5	noise_calib_stim_RIGHT.wav	2	1	blb_dichoticlistening_ba-ba.mp3	ba	ba	0	left
6.6.1	win	2023-06-01	16:20:55	16:38:05	1024426	6159fb27b6340dda3fc6a5c3	2	1	main_z	24	main_z	77	stimuli_distractor_diamondtriangles.svg	stimuli_target_squaretriangles.svg	15	yes	44	1	1006	6	2	antiphase_hc_ios.wav	3	6	5	noise_calib_stim_RIGHT.wav	2	1	blb_dichoticlistening_ba-ba.mp3	ba	ba	0	left
6.6.1	win	2023-06-01	16:20:55	16:38:05	1024426	6159fb27b6340dda3fc6a5c3	2	1	main_z	24	advance_on_keypress_ZEE	78	stimuli_distractor_diamondtriangles.svg	stimuli_target_squaretriangles.svg	15	yes	57	0	305	6	2	antiphase_hc_ios.wav	3	6	5	noise_calib_stim_RIGHT.wav	2	1	blb_dichoticlistening_ba-ba.mp3	ba	ba	0	left
6.6.1	win	2023-06-01	16:20:55	16:38:07	1026284	6159fb27b6340dda3fc6a5c3	2	1	main_z	24	main_z	79	stimuli_distractor_trianglediamonds.svg	stimuli_target_diamondsquares.svg	28	yes	44	1	913	6	2	antiphase_hc_ios.wav	3	6	5	noise_calib_stim_RIGHT.wav	2	1	blb_dichoticlistening_ba-ba.mp3	ba	ba	0	left
6.6.1	win	2023-06-01	16:20:55	16:38:07	1026284	6159fb27b6340dda3fc6a5c3	2	1	main_z	24	advance_on_keypress_ZEE	80	stimuli_distractor_trianglediamonds.svg	stimuli_target_diamondsquares.svg	28	yes	57	0	385	6	2	antiphase_hc_ios.wav	3	6	5	noise_calib_stim_RIGHT.wav	2	1	blb_dichoticlistening_ba-ba.mp3	ba	ba	0	left
6.6.1	win	2023-06-01	16:20:55	16:38:09	1028087	6159fb27b6340dda3fc6a5c3	2	1	main_z	24	main_z	81	stimuli_target_rectangletriangles.svg	stimuli_distractor_diamondtriangles.svg	5	yes	44	1	769	6	2	antiphase_hc_ios.wav	3	6	5	noise_calib_stim_RIGHT.wav	2	1	blb_dichoticlistening_ba-ba.mp3	ba	ba	0	left
6.6.1	win	2023-06-01	16:20:55	16:38:09	1028087	6159fb27b6340dda3fc6a5c3	2	1	main_z	24	advance_on_keypress_ZEE	82	stimuli_target_rectangletriangles.svg	stimuli_distractor_diamondtriangles.svg	5	yes	57	0	385	6	2	antiphase_hc_ios.wav	3	6	5	noise_calib_stim_RIGHT.wav	2	1	blb_dichoticlistening_ba-ba.mp3	ba	ba	0	left
6.6.1	win	2023-06-01	16:20:55	16:38:11	1030019	6159fb27b6340dda3fc6a5c3	2	1	main_z	24	main_z	83	stimuli_target_diamondrectangles.svg	stimuli_distractor_diamondtriangles.svg	23	yes	44	1	901	6	2	antiphase_hc_ios.wav	3	6	5	noise_calib_stim_RIGHT.wav	2	1	blb_dichoticlistening_ba-ba.mp3	ba	ba	0	left
6.6.1	win	2023-06-01	16:20:55	16:38:11	1030019	6159fb27b6340dda3fc6a5c3	2	1	main_z	24	advance_on_keypress_ZEE	84	stimuli_target_diamondrectangles.svg	stimuli_distractor_diamondtriangles.svg	23	yes	57	0	374	6	2	antiphase_hc_ios.wav	3	6	5	noise_calib_stim_RIGHT.wav	2	1	blb_dichoticlistening_ba-ba.mp3	ba	ba	0	left
6.6.1	win	2023-06-01	16:20:55	16:38:12	1031638	6159fb27b6340dda3fc6a5c3	2	1	main_z	24	main_z	85	stimuli_distractor_diamondtriangles.svg	stimuli_target_squarediamonds.svg	16	yes	44	1	586	6	2	antiphase_hc_ios.wav	3	6	5	noise_calib_stim_RIGHT.wav	2	1	blb_dichoticlistening_ba-ba.mp3	ba	ba	0	left
6.6.1	win	2023-06-01	16:20:55	16:38:12	1031638	6159fb27b6340dda3fc6a5c3	2	1	main_z	24	advance_on_keypress_ZEE	86	stimuli_distractor_diamondtriangles.svg	stimuli_target_squarediamonds.svg	16	yes	57	0	401	6	2	antiphase_hc_ios.wav	3	6	5	noise_calib_stim_RIGHT.wav	2	1	blb_dichoticlistening_ba-ba.mp3	ba	ba	0	left
6.6.1	win	2023-06-01	16:20:55	16:38:14	1033663	6159fb27b6340dda3fc6a5c3	2	1	main_z	24	main_z	87	stimuli_distractor_diamondtriangles.svg	stimuli_target_diamondsquares.svg	32	yes	44	1	975	6	2	antiphase_hc_ios.wav	3	6	5	noise_calib_stim_RIGHT.wav	2	1	blb_dichoticlistening_ba-ba.mp3	ba	ba	0	left
6.6.1	win	2023-06-01	16:20:55	16:38:14	1033663	6159fb27b6340dda3fc6a5c3	2	1	main_z	24	advance_on_keypress_ZEE	88	stimuli_distractor_diamondtriangles.svg	stimuli_target_diamondsquares.svg	32	yes	57	0	369	6	2	antiphase_hc_ios.wav	3	6	5	noise_calib_stim_RIGHT.wav	2	1	blb_dichoticlistening_ba-ba.mp3	ba	ba	0	left
6.6.1	win	2023-06-01	16:20:55	16:38:16	1035407	6159fb27b6340dda3fc6a5c3	2	1	main_z	24	main_z	89	stimuli_distractor_trianglediamonds.svg	stimuli_target_diamondsquares.svg	28	yes	44	1	722	6	2	antiphase_hc_ios.wav	3	6	5	noise_calib_stim_RIGHT.wav	2	1	blb_dichoticlistening_ba-ba.mp3	ba	ba	0	left
6.6.1	win	2023-06-01	16:20:55	16:38:16	1035407	6159fb27b6340dda3fc6a5c3	2	1	main_z	24	advance_on_keypress_ZEE	90	stimuli_distractor_trianglediamonds.svg	stimuli_target_diamondsquares.svg	28	yes	57	0	343	6	2	antiphase_hc_ios.wav	3	6	5	noise_calib_stim_RIGHT.wav	2	1	blb_dichoticlistening_ba-ba.mp3	ba	ba	0	left
6.6.1	win	2023-06-01	16:20:55	16:38:19	1038404	6159fb27b6340dda3fc6a5c3	2	1	main_z	24	main_z	91	stimuli_distractor_diamondtriangles.svg	stimuli_distractor_diamondtriangles.svg	39	no	0	1	2000	6	2	antiphase_hc_ios.wav	3	6	5	noise_calib_stim_RIGHT.wav	2	1	blb_dichoticlistening_ba-ba.mp3	ba	ba	0	left
6.6.1	win	2023-06-01	16:20:55	16:38:19	1038404	6159fb27b6340dda3fc6a5c3	2	1	main_z	24	advance_on_keypress_ZEE	92	stimuli_distractor_diamondtriangles.svg	stimuli_distractor_diamondtriangles.svg	39	no	57	0	313	6	2	antiphase_hc_ios.wav	3	6	5	noise_calib_stim_RIGHT.wav	2	1	blb_dichoticlistening_ba-ba.mp3	ba	ba	0	left
6.6.1	win	2023-06-01	16:20:55	16:38:21	1039943	6159fb27b6340dda3fc6a5c3	2	1	main_z	24	main_z	93	stimuli_target_squaretriangles.svg	stimuli_distractor_trianglediamonds.svg	3	yes	44	1	575	6	2	antiphase_hc_ios.wav	3	6	5	noise_calib_stim_RIGHT.wav	2	1	blb_dichoticlistening_ba-ba.mp3	ba	ba	0	left
6.6.1	win	2023-06-01	16:20:55	16:38:21	1039943	6159fb27b6340dda3fc6a5c3	2	1	main_z	24	advance_on_keypress_ZEE	94	stimuli_target_squaretriangles.svg	stimuli_distractor_trianglediamonds.svg	3	yes	57	0	338	6	2	antiphase_hc_ios.wav	3	6	5	noise_calib_stim_RIGHT.wav	2	1	blb_dichoticlistening_ba-ba.mp3	ba	ba	0	left
6.6.1	win	2023-06-01	16:20:55	16:38:22	1041825	6159fb27b6340dda3fc6a5c3	2	1	main_z	24	main_z	95	stimuli_distractor_diamondtriangles.svg	stimuli_target_trianglerectangles.svg	29	yes	44	1	904	6	2	antiphase_hc_ios.wav	3	6	5	noise_calib_stim_RIGHT.wav	2	1	blb_dichoticlistening_ba-ba.mp3	ba	ba	0	left
6.6.1	win	2023-06-01	16:20:55	16:38:22	1041825	6159fb27b6340dda3fc6a5c3	2	1	main_z	24	advance_on_keypress_ZEE	96	stimuli_distractor_diamondtriangles.svg	stimuli_target_trianglerectangles.svg	29	yes	57	0	292	6	2	antiphase_hc_ios.wav	3	6	5	noise_calib_stim_RIGHT.wav	2	1	blb_dichoticlistening_ba-ba.mp3	ba	ba	0	left
6.6.1	win	2023-06-01	16:20:55	16:38:25	1043892	6159fb27b6340dda3fc6a5c3	2	1	main_z	24	main_z	97	stimuli_target_trianglerectangles.svg	stimuli_distractor_diamondtriangles.svg	21	yes	44	1	1138	6	2	antiphase_hc_ios.wav	3	6	5	noise_calib_stim_RIGHT.wav	2	1	blb_dichoticlistening_ba-ba.mp3	ba	ba	0	left
6.6.1	win	2023-06-01	16:20:55	16:38:25	1043892	6159fb27b6340dda3fc6a5c3	2	1	main_z	24	advance_on_keypress_ZEE	98	stimuli_target_trianglerectangles.svg	stimuli_distractor_diamondtriangles.svg	21	yes	57	0	431	6	2	antiphase_hc_ios.wav	3	6	5	noise_calib_stim_RIGHT.wav	2	1	blb_dichoticlistening_ba-ba.mp3	ba	ba	0	left
6.6.1	win	2023-06-01	16:20:55	16:38:27	1045908	6159fb27b6340dda3fc6a5c3	2	1	main_z	24	main_z	99	stimuli_distractor_diamondtriangles.svg	stimuli_target_rectanglediamonds.svg	14	yes	44	1	938	6	2	antiphase_hc_ios.wav	3	6	5	noise_calib_stim_RIGHT.wav	2	1	blb_dichoticlistening_ba-ba.mp3	ba	ba	0	left
6.6.1	win	2023-06-01	16:20:55	16:38:27	1045908	6159fb27b6340dda3fc6a5c3	2	1	main_z	24	advance_on_keypress_ZEE	100	stimuli_distractor_diamondtriangles.svg	stimuli_target_rectanglediamonds.svg	14	yes	57	0	317	6	2	antiphase_hc_ios.wav	3	6	5	noise_calib_stim_RIGHT.wav	2	1	blb_dichoticlistening_ba-ba.mp3	ba	ba	0	left
6.6.1	win	2023-06-01	16:20:55	16:38:29	1047871	6159fb27b6340dda3fc6a5c3	2	1	main_z	24	main_z	101	stimuli_target_squarediamonds.svg	stimuli_distractor_diamondtriangles.svg	8	yes	44	1	1003	6	2	antiphase_hc_ios.wav	3	6	5	noise_calib_stim_RIGHT.wav	2	1	blb_dichoticlistening_ba-ba.mp3	ba	ba	0	left
6.6.1	win	2023-06-01	16:20:55	16:38:29	1047871	6159fb27b6340dda3fc6a5c3	2	1	main_z	24	advance_on_keypress_ZEE	102	stimuli_target_squarediamonds.svg	stimuli_distractor_diamondtriangles.svg	8	yes	57	0	322	6	2	antiphase_hc_ios.wav	3	6	5	noise_calib_stim_RIGHT.wav	2	1	blb_dichoticlistening_ba-ba.mp3	ba	ba	0	left
6.6.1	win	2023-06-01	16:20:55	16:38:32	1050838	6159fb27b6340dda3fc6a5c3	2	1	main_z	24	main_z	103	stimuli_distractor_diamondtriangles.svg	stimuli_distractor_trianglediamonds.svg	37	no	0	1	2000	6	2	antiphase_hc_ios.wav	3	6	5	noise_calib_stim_RIGHT.wav	2	1	blb_dichoticlistening_ba-ba.mp3	ba	ba	0	left
6.6.1	win	2023-06-01	16:20:55	16:38:32	1050838	6159fb27b6340dda3fc6a5c3	2	1	main_z	24	advance_on_keypress_ZEE	104	stimuli_distractor_diamondtriangles.svg	stimuli_distractor_trianglediamonds.svg	37	no	57	0	365	6	2	antiphase_hc_ios.wav	3	6	5	noise_calib_stim_RIGHT.wav	2	1	blb_dichoticlistening_ba-ba.mp3	ba	ba	0	left
6.6.1	win	2023-06-01	16:20:55	16:38:33	1052320	6159fb27b6340dda3fc6a5c3	2	1	main_z	24	main_z	105	stimuli_target_trianglesquares.svg	stimuli_distractor_trianglediamonds.svg	18	yes	44	1	469	6	2	antiphase_hc_ios.wav	3	6	5	noise_calib_stim_RIGHT.wav	2	1	blb_dichoticlistening_ba-ba.mp3	ba	ba	0	left
6.6.1	win	2023-06-01	16:20:55	16:38:33	1052320	6159fb27b6340dda3fc6a5c3	2	1	main_z	24	advance_on_keypress_ZEE	106	stimuli_target_trianglesquares.svg	stimuli_distractor_trianglediamonds.svg	18	yes	57	0	326	6	2	antiphase_hc_ios.wav	3	6	5	noise_calib_stim_RIGHT.wav	2	1	blb_dichoticlistening_ba-ba.mp3	ba	ba	0	left
6.6.1	win	2023-06-01	16:20:55	16:38:35	1054082	6159fb27b6340dda3fc6a5c3	2	1	main_z	24	main_z	107	stimuli_distractor_trianglediamonds.svg	stimuli_distractor_diamondtriangles.svg	35	no	44	0	796	6	2	antiphase_hc_ios.wav	3	6	5	noise_calib_stim_RIGHT.wav	2	1	blb_dichoticlistening_ba-ba.mp3	ba	ba	0	left
6.6.1	win	2023-06-01	16:20:55	16:38:35	1054082	6159fb27b6340dda3fc6a5c3	2	1	main_z	24	advance_on_keypress_ZEE	108	stimuli_distractor_trianglediamonds.svg	stimuli_distractor_diamondtriangles.svg	35	no	57	0	382	6	2	antiphase_hc_ios.wav	3	6	5	noise_calib_stim_RIGHT.wav	2	1	blb_dichoticlistening_ba-ba.mp3	ba	ba	0	left
6.6.1	win	2023-06-01	16:20:55	16:38:36	1055785	6159fb27b6340dda3fc6a5c3	2	1	main_z	24	main_z	109	stimuli_target_rectangletriangles.svg	stimuli_distractor_trianglediamonds.svg	1	yes	44	1	667	6	2	antiphase_hc_ios.wav	3	6	5	noise_calib_stim_RIGHT.wav	2	1	blb_dichoticlistening_ba-ba.mp3	ba	ba	0	left
6.6.1	win	2023-06-01	16:20:55	16:38:36	1055785	6159fb27b6340dda3fc6a5c3	2	1	main_z	24	advance_on_keypress_ZEE	110	stimuli_target_rectangletriangles.svg	stimuli_distractor_trianglediamonds.svg	1	yes	57	0	313	6	2	antiphase_hc_ios.wav	3	6	5	noise_calib_stim_RIGHT.wav	2	1	blb_dichoticlistening_ba-ba.mp3	ba	ba	0	left
6.6.1	win	2023-06-01	16:20:55	16:38:38	1057631	6159fb27b6340dda3fc6a5c3	2	1	main_z	24	main_z	111	stimuli_target_rectanglediamonds.svg	stimuli_distractor_diamondtriangles.svg	6	yes	44	1	878	6	2	antiphase_hc_ios.wav	3	6	5	noise_calib_stim_RIGHT.wav	2	1	blb_dichoticlistening_ba-ba.mp3	ba	ba	0	left
6.6.1	win	2023-06-01	16:20:55	16:38:38	1057631	6159fb27b6340dda3fc6a5c3	2	1	main_z	24	advance_on_keypress_ZEE	112	stimuli_target_rectanglediamonds.svg	stimuli_distractor_diamondtriangles.svg	6	yes	57	0	301	6	2	antiphase_hc_ios.wav	3	6	5	noise_calib_stim_RIGHT.wav	2	1	blb_dichoticlistening_ba-ba.mp3	ba	ba	0	left
6.6.1	win	2023-06-01	16:20:55	16:38:40	1059299	6159fb27b6340dda3fc6a5c3	2	1	main_z	24	main_z	113	stimuli_distractor_trianglediamonds.svg	stimuli_target_trianglesquares.svg	26	yes	44	1	714	6	2	antiphase_hc_ios.wav	3	6	5	noise_calib_stim_RIGHT.wav	2	1	blb_dichoticlistening_ba-ba.mp3	ba	ba	0	left
6.6.1	win	2023-06-01	16:20:55	16:38:40	1059299	6159fb27b6340dda3fc6a5c3	2	1	main_z	24	advance_on_keypress_ZEE	114	stimuli_distractor_trianglediamonds.svg	stimuli_target_trianglesquares.svg	26	yes	57	0	286	6	2	antiphase_hc_ios.wav	3	6	5	noise_calib_stim_RIGHT.wav	2	1	blb_dichoticlistening_ba-ba.mp3	ba	ba	0	left
6.6.1	win	2023-06-01	16:20:55	16:38:42	1061261	6159fb27b6340dda3fc6a5c3	2	1	main_z	24	main_z	115	stimuli_distractor_diamondtriangles.svg	stimuli_target_squaretriangles.svg	15	yes	44	1	1024	6	2	antiphase_hc_ios.wav	3	6	5	noise_calib_stim_RIGHT.wav	2	1	blb_dichoticlistening_ba-ba.mp3	ba	ba	0	left
6.6.1	win	2023-06-01	16:20:55	16:38:42	1061261	6159fb27b6340dda3fc6a5c3	2	1	main_z	24	advance_on_keypress_ZEE	116	stimuli_distractor_diamondtriangles.svg	stimuli_target_squaretriangles.svg	15	yes	57	0	351	6	2	antiphase_hc_ios.wav	3	6	5	noise_calib_stim_RIGHT.wav	2	1	blb_dichoticlistening_ba-ba.mp3	ba	ba	0	left
6.6.1	win	2023-06-01	16:20:55	16:38:44	1063168	6159fb27b6340dda3fc6a5c3	2	1	main_z	24	main_z	117	stimuli_target_trianglesquares.svg	stimuli_distractor_diamondtriangles.svg	22	yes	44	1	913	6	2	antiphase_hc_ios.wav	3	6	5	noise_calib_stim_RIGHT.wav	2	1	blb_dichoticlistening_ba-ba.mp3	ba	ba	0	left
6.6.1	win	2023-06-01	16:20:55	16:38:44	1063168	6159fb27b6340dda3fc6a5c3	2	1	main_z	24	advance_on_keypress_ZEE	118	stimuli_target_trianglesquares.svg	stimuli_distractor_diamondtriangles.svg	22	yes	57	0	308	6	2	antiphase_hc_ios.wav	3	6	5	noise_calib_stim_RIGHT.wav	2	1	blb_dichoticlistening_ba-ba.mp3	ba	ba	0	left
6.6.1	win	2023-06-01	16:20:55	16:38:46	1064836	6159fb27b6340dda3fc6a5c3	2	1	main_z	24	main_z	119	stimuli_distractor_trianglediamonds.svg	stimuli_target_squaretriangles.svg	11	yes	44	1	718	6	2	antiphase_hc_ios.wav	3	6	5	noise_calib_stim_RIGHT.wav	2	1	blb_dichoticlistening_ba-ba.mp3	ba	ba	0	left
6.6.1	win	2023-06-01	16:20:55	16:38:46	1064836	6159fb27b6340dda3fc6a5c3	2	1	main_z	24	advance_on_keypress_ZEE	120	stimuli_distractor_trianglediamonds.svg	stimuli_target_squaretriangles.svg	11	yes	57	0	281	6	2	antiphase_hc_ios.wav	3	6	5	noise_calib_stim_RIGHT.wav	2	1	blb_dichoticlistening_ba-ba.mp3	ba	ba	0	left
6.6.1	win	2023-06-01	16:20:55	16:38:47	1066450	6159fb27b6340dda3fc6a5c3	2	1	main_z	24	main_z	121	stimuli_distractor_trianglediamonds.svg	stimuli_target_diamondrectangles.svg	27	yes	44	1	682	6	2	antiphase_hc_ios.wav	3	6	5	noise_calib_stim_RIGHT.wav	2	1	blb_dichoticlistening_ba-ba.mp3	ba	ba	0	left
6.6.1	win	2023-06-01	16:20:55	16:38:47	1066450	6159fb27b6340dda3fc6a5c3	2	1	main_z	24	advance_on_keypress_ZEE	122	stimuli_distractor_trianglediamonds.svg	stimuli_target_diamondrectangles.svg	27	yes	57	0	301	6	2	antiphase_hc_ios.wav	3	6	5	noise_calib_stim_RIGHT.wav	2	1	blb_dichoticlistening_ba-ba.mp3	ba	ba	0	left
6.6.1	win	2023-06-01	16:20:55	16:38:49	1068551	6159fb27b6340dda3fc6a5c3	2	1	main_z	24	main_z	123	stimuli_distractor_trianglediamonds.svg	stimuli_distractor_trianglediamonds.svg	33	no	44	0	1146	6	2	antiphase_hc_ios.wav	3	6	5	noise_calib_stim_RIGHT.wav	2	1	blb_dichoticlistening_ba-ba.mp3	ba	ba	0	left
6.6.1	win	2023-06-01	16:20:55	16:38:49	1068551	6159fb27b6340dda3fc6a5c3	2	1	main_z	24	advance_on_keypress_ZEE	124	stimuli_distractor_trianglediamonds.svg	stimuli_distractor_trianglediamonds.svg	33	no	57	0	245	6	2	antiphase_hc_ios.wav	3	6	5	noise_calib_stim_RIGHT.wav	2	1	blb_dichoticlistening_ba-ba.mp3	ba	ba	0	left
6.6.1	win	2023-06-01	16:20:55	16:38:51	1070086	6159fb27b6340dda3fc6a5c3	2	1	main_z	24	main_z	125	stimuli_distractor_diamondtriangles.svg	stimuli_target_diamondrectangles.svg	31	yes	44	1	633	6	2	antiphase_hc_ios.wav	3	6	5	noise_calib_stim_RIGHT.wav	2	1	blb_dichoticlistening_ba-ba.mp3	ba	ba	0	left
6.6.1	win	2023-06-01	16:20:55	16:38:51	1070086	6159fb27b6340dda3fc6a5c3	2	1	main_z	24	advance_on_keypress_ZEE	126	stimuli_distractor_diamondtriangles.svg	stimuli_target_diamondrectangles.svg	31	yes	57	0	323	6	2	antiphase_hc_ios.wav	3	6	5	noise_calib_stim_RIGHT.wav	2	1	blb_dichoticlistening_ba-ba.mp3	ba	ba	0	left
6.6.1	win	2023-06-01	16:20:55	16:38:54	1073052	6159fb27b6340dda3fc6a5c3	2	1	main_z	24	main_z	127	stimuli_distractor_diamondtriangles.svg	stimuli_distractor_diamondtriangles.svg	40	no	0	1	2000	6	2	antiphase_hc_ios.wav	3	6	5	noise_calib_stim_RIGHT.wav	2	1	blb_dichoticlistening_ba-ba.mp3	ba	ba	0	left
6.6.1	win	2023-06-01	16:20:55	16:38:54	1073052	6159fb27b6340dda3fc6a5c3	2	1	main_z	24	advance_on_keypress_ZEE	128	stimuli_distractor_diamondtriangles.svg	stimuli_distractor_diamondtriangles.svg	40	no	57	0	283	6	2	antiphase_hc_ios.wav	3	6	5	noise_calib_stim_RIGHT.wav	2	1	blb_dichoticlistening_ba-ba.mp3	ba	ba	0	left
6.6.1	win	2023-06-01	16:20:55	16:38:55	1074655	6159fb27b6340dda3fc6a5c3	2	1	main_z	24	main_z	129	stimuli_target_diamondrectangles.svg	stimuli_distractor_trianglediamonds.svg	19	yes	44	1	670	6	2	antiphase_hc_ios.wav	3	6	5	noise_calib_stim_RIGHT.wav	2	1	blb_dichoticlistening_ba-ba.mp3	ba	ba	0	left
6.6.1	win	2023-06-01	16:20:55	16:38:55	1074655	6159fb27b6340dda3fc6a5c3	2	1	main_z	24	advance_on_keypress_ZEE	130	stimuli_target_diamondrectangles.svg	stimuli_distractor_trianglediamonds.svg	19	yes	57	0	315	6	2	antiphase_hc_ios.wav	3	6	5	noise_calib_stim_RIGHT.wav	2	1	blb_dichoticlistening_ba-ba.mp3	ba	ba	0	left
6.6.1	win	2023-06-01	16:20:55	16:38:57	1076180	6159fb27b6340dda3fc6a5c3	2	1	main_z	24	main_z	131	stimuli_target_squaretriangles.svg	stimuli_distractor_diamondtriangles.svg	7	yes	44	1	562	6	2	antiphase_hc_ios.wav	3	6	5	noise_calib_stim_RIGHT.wav	2	1	blb_dichoticlistening_ba-ba.mp3	ba	ba	0	left
6.6.1	win	2023-06-01	16:20:55	16:38:57	1076180	6159fb27b6340dda3fc6a5c3	2	1	main_z	24	advance_on_keypress_ZEE	132	stimuli_target_squaretriangles.svg	stimuli_distractor_diamondtriangles.svg	7	yes	57	0	306	6	2	antiphase_hc_ios.wav	3	6	5	noise_calib_stim_RIGHT.wav	2	1	blb_dichoticlistening_ba-ba.mp3	ba	ba	0	left
6.6.1	win	2023-06-01	16:20:55	16:38:59	1077968	6159fb27b6340dda3fc6a5c3	2	1	main_z	24	main_z	133	stimuli_distractor_trianglediamonds.svg	stimuli_distractor_diamondtriangles.svg	36	no	44	0	832	6	2	antiphase_hc_ios.wav	3	6	5	noise_calib_stim_RIGHT.wav	2	1	blb_dichoticlistening_ba-ba.mp3	ba	ba	0	left
6.6.1	win	2023-06-01	16:20:55	16:38:59	1077968	6159fb27b6340dda3fc6a5c3	2	1	main_z	24	advance_on_keypress_ZEE	134	stimuli_distractor_trianglediamonds.svg	stimuli_distractor_diamondtriangles.svg	36	no	57	0	271	6	2	antiphase_hc_ios.wav	3	6	5	noise_calib_stim_RIGHT.wav	2	1	blb_dichoticlistening_ba-ba.mp3	ba	ba	0	left
6.6.1	win	2023-06-01	16:20:55	16:39:00	1079487	6159fb27b6340dda3fc6a5c3	2	1	main_z	24	main_z	135	stimuli_distractor_diamondtriangles.svg	stimuli_target_trianglesquares.svg	30	yes	44	1	603	6	2	antiphase_hc_ios.wav	3	6	5	noise_calib_stim_RIGHT.wav	2	1	blb_dichoticlistening_ba-ba.mp3	ba	ba	0	left
6.6.1	win	2023-06-01	16:20:55	16:39:00	1079487	6159fb27b6340dda3fc6a5c3	2	1	main_z	24	advance_on_keypress_ZEE	136	stimuli_distractor_diamondtriangles.svg	stimuli_target_trianglesquares.svg	30	yes	57	0	275	6	2	antiphase_hc_ios.wav	3	6	5	noise_calib_stim_RIGHT.wav	2	1	blb_dichoticlistening_ba-ba.mp3	ba	ba	0	left
6.6.1	win	2023-06-01	16:20:55	16:39:03	1081928	6159fb27b6340dda3fc6a5c3	2	1	main_z	24	main_z	137	stimuli_target_squarediamonds.svg	stimuli_distractor_trianglediamonds.svg	4	yes	44	1	1526	6	2	antiphase_hc_ios.wav	3	6	5	noise_calib_stim_RIGHT.wav	2	1	blb_dichoticlistening_ba-ba.mp3	ba	ba	0	left
6.6.1	win	2023-06-01	16:20:55	16:39:03	1081928	6159fb27b6340dda3fc6a5c3	2	1	main_z	24	advance_on_keypress_ZEE	138	stimuli_target_squarediamonds.svg	stimuli_distractor_trianglediamonds.svg	4	yes	57	0	448	6	2	antiphase_hc_ios.wav	3	6	5	noise_calib_stim_RIGHT.wav	2	1	blb_dichoticlistening_ba-ba.mp3	ba	ba	0	left
6.6.1	win	2023-06-01	16:20:55	16:39:04	1083544	6159fb27b6340dda3fc6a5c3	2	1	main_z	24	main_z	139	stimuli_target_trianglerectangles.svg	stimuli_distractor_trianglediamonds.svg	17	yes	44	1	525	6	2	antiphase_hc_ios.wav	3	6	5	noise_calib_stim_RIGHT.wav	2	1	blb_dichoticlistening_ba-ba.mp3	ba	ba	0	left
6.6.1	win	2023-06-01	16:20:55	16:39:04	1083544	6159fb27b6340dda3fc6a5c3	2	1	main_z	24	advance_on_keypress_ZEE	140	stimuli_target_trianglerectangles.svg	stimuli_distractor_trianglediamonds.svg	17	yes	57	0	325	6	2	antiphase_hc_ios.wav	3	6	5	noise_calib_stim_RIGHT.wav	2	1	blb_dichoticlistening_ba-ba.mp3	ba	ba	0	left
6.6.1	win	2023-06-01	16:20:55	16:39:06	1084935	6159fb27b6340dda3fc6a5c3	2	1	main_z	24	main_z	141	stimuli_target_diamondsquares.svg	stimuli_distractor_trianglediamonds.svg	20	yes	44	1	416	6	2	antiphase_hc_ios.wav	3	6	5	noise_calib_stim_RIGHT.wav	2	1	blb_dichoticlistening_ba-ba.mp3	ba	ba	0	left
6.6.1	win	2023-06-01	16:20:55	16:39:06	1084935	6159fb27b6340dda3fc6a5c3	2	1	main_z	24	advance_on_keypress_ZEE	142	stimuli_target_diamondsquares.svg	stimuli_distractor_trianglediamonds.svg	20	yes	57	0	296	6	2	antiphase_hc_ios.wav	3	6	5	noise_calib_stim_RIGHT.wav	2	1	blb_dichoticlistening_ba-ba.mp3	ba	ba	0	left
6.6.1	win	2023-06-01	16:20:55	16:39:07	1086473	6159fb27b6340dda3fc6a5c3	2	1	main_z	24	main_z	143	stimuli_target_rectanglediamonds.svg	stimuli_distractor_trianglediamonds.svg	2	yes	44	1	588	6	2	antiphase_hc_ios.wav	3	6	5	noise_calib_stim_RIGHT.wav	2	1	blb_dichoticlistening_ba-ba.mp3	ba	ba	0	left
6.6.1	win	2023-06-01	16:20:55	16:39:07	1086473	6159fb27b6340dda3fc6a5c3	2	1	main_z	24	advance_on_keypress_ZEE	144	stimuli_target_rectanglediamonds.svg	stimuli_distractor_trianglediamonds.svg	2	yes	57	0	280	6	2	antiphase_hc_ios.wav	3	6	5	noise_calib_stim_RIGHT.wav	2	1	blb_dichoticlistening_ba-ba.mp3	ba	ba	0	left
6.6.1	win	2023-06-01	16:20:55	16:39:10	1089405	6159fb27b6340dda3fc6a5c3	2	1	main_z	24	main_z	145	stimuli_distractor_diamondtriangles.svg	stimuli_distractor_trianglediamonds.svg	38	no	0	1	2000	6	2	antiphase_hc_ios.wav	3	6	5	noise_calib_stim_RIGHT.wav	2	1	blb_dichoticlistening_ba-ba.mp3	ba	ba	0	left
6.6.1	win	2023-06-01	16:20:55	16:39:10	1089405	6159fb27b6340dda3fc6a5c3	2	1	main_z	24	advance_on_keypress_ZEE	146	stimuli_distractor_diamondtriangles.svg	stimuli_distractor_trianglediamonds.svg	38	no	57	0	311	6	2	antiphase_hc_ios.wav	3	6	5	noise_calib_stim_RIGHT.wav	2	1	blb_dichoticlistening_ba-ba.mp3	ba	ba	0	left
6.6.1	win	2023-06-01	16:20:55	16:39:11	1090798	6159fb27b6340dda3fc6a5c3	2	1	main_z	24	main_z	147	stimuli_target_diamondsquares.svg	stimuli_distractor_diamondtriangles.svg	24	yes	44	1	429	6	2	antiphase_hc_ios.wav	3	6	5	noise_calib_stim_RIGHT.wav	2	1	blb_dichoticlistening_ba-ba.mp3	ba	ba	0	left
6.6.1	win	2023-06-01	16:20:55	16:39:11	1090798	6159fb27b6340dda3fc6a5c3	2	1	main_z	24	advance_on_keypress_ZEE	148	stimuli_target_diamondsquares.svg	stimuli_distractor_diamondtriangles.svg	24	yes	57	0	306	6	2	antiphase_hc_ios.wav	3	6	5	noise_calib_stim_RIGHT.wav	2	1	blb_dichoticlistening_ba-ba.mp3	ba	ba	0	left
6.6.1	win	2023-06-01	16:20:55	16:39:13	1092592	6159fb27b6340dda3fc6a5c3	2	1	main_z	24	main_z	149	stimuli_distractor_trianglediamonds.svg	stimuli_target_squarediamonds.svg	12	yes	44	1	840	6	2	antiphase_hc_ios.wav	3	6	5	noise_calib_stim_RIGHT.wav	2	1	blb_dichoticlistening_ba-ba.mp3	ba	ba	0	left
6.6.1	win	2023-06-01	16:20:55	16:39:13	1092592	6159fb27b6340dda3fc6a5c3	2	1	main_z	24	advance_on_keypress_ZEE	150	stimuli_distractor_trianglediamonds.svg	stimuli_target_squarediamonds.svg	12	yes	57	0	254	6	2	antiphase_hc_ios.wav	3	6	5	noise_calib_stim_RIGHT.wav	2	1	blb_dichoticlistening_ba-ba.mp3	ba	ba	0	left
6.6.1	win	2023-06-01	16:20:55	16:39:15	1094137	6159fb27b6340dda3fc6a5c3	2	1	main_z	24	main_z	151	stimuli_distractor_trianglediamonds.svg	stimuli_target_trianglerectangles.svg	25	yes	44	1	651	6	2	antiphase_hc_ios.wav	3	6	5	noise_calib_stim_RIGHT.wav	2	1	blb_dichoticlistening_ba-ba.mp3	ba	ba	0	left
6.6.1	win	2023-06-01	16:20:55	16:39:15	1094137	6159fb27b6340dda3fc6a5c3	2	1	main_z	24	advance_on_keypress_ZEE	152	stimuli_distractor_trianglediamonds.svg	stimuli_target_trianglerectangles.svg	25	yes	57	0	243	6	2	antiphase_hc_ios.wav	3	6	5	noise_calib_stim_RIGHT.wav	2	1	blb_dichoticlistening_ba-ba.mp3	ba	ba	0	left
6.6.1	win	2023-06-01	16:20:55	16:39:16	1095770	6159fb27b6340dda3fc6a5c3	2	1	main_z	24	main_z	153	stimuli_distractor_trianglediamonds.svg	stimuli_target_rectanglediamonds.svg	10	yes	44	1	734	6	2	antiphase_hc_ios.wav	3	6	5	noise_calib_stim_RIGHT.wav	2	1	blb_dichoticlistening_ba-ba.mp3	ba	ba	0	left
6.6.1	win	2023-06-01	16:20:55	16:39:16	1095770	6159fb27b6340dda3fc6a5c3	2	1	main_z	24	advance_on_keypress_ZEE	154	stimuli_distractor_trianglediamonds.svg	stimuli_target_rectanglediamonds.svg	10	yes	57	0	227	6	2	antiphase_hc_ios.wav	3	6	5	noise_calib_stim_RIGHT.wav	2	1	blb_dichoticlistening_ba-ba.mp3	ba	ba	0	left
6.6.1	win	2023-06-01	16:20:55	16:39:18	1097228	6159fb27b6340dda3fc6a5c3	2	1	main_z	24	main_z	155	stimuli_distractor_trianglediamonds.svg	stimuli_target_rectangletriangles.svg	9	yes	44	1	576	6	2	antiphase_hc_ios.wav	3	6	5	noise_calib_stim_RIGHT.wav	2	1	blb_dichoticlistening_ba-ba.mp3	ba	ba	0	left
6.6.1	win	2023-06-01	16:20:55	16:39:18	1097228	6159fb27b6340dda3fc6a5c3	2	1	main_z	24	advance_on_keypress_ZEE	156	stimuli_distractor_trianglediamonds.svg	stimuli_target_rectangletriangles.svg	9	yes	57	0	224	6	2	antiphase_hc_ios.wav	3	6	5	noise_calib_stim_RIGHT.wav	2	1	blb_dichoticlistening_ba-ba.mp3	ba	ba	0	left
6.6.1	win	2023-06-01	16:20:55	16:39:21	1100086	6159fb27b6340dda3fc6a5c3	2	1	main_z	24	main_z	157	stimuli_distractor_trianglediamonds.svg	stimuli_distractor_trianglediamonds.svg	34	no	0	1	2000	6	2	antiphase_hc_ios.wav	3	6	5	noise_calib_stim_RIGHT.wav	2	1	blb_dichoticlistening_ba-ba.mp3	ba	ba	0	left
6.6.1	win	2023-06-01	16:20:55	16:39:21	1100086	6159fb27b6340dda3fc6a5c3	2	1	main_z	24	advance_on_keypress_ZEE	158	stimuli_distractor_trianglediamonds.svg	stimuli_distractor_trianglediamonds.svg	34	no	57	0	387	6	2	antiphase_hc_ios.wav	3	6	5	noise_calib_stim_RIGHT.wav	2	1	blb_dichoticlistening_ba-ba.mp3	ba	ba	0	left
6.6.1	win	2023-06-01	16:20:55	16:39:22	1101692	6159fb27b6340dda3fc6a5c3	2	1	main_z	24	main_z	159	stimuli_distractor_diamondtriangles.svg	stimuli_target_rectangletriangles.svg	13	yes	44	1	573	6	2	antiphase_hc_ios.wav	3	6	5	noise_calib_stim_RIGHT.wav	2	1	blb_dichoticlistening_ba-ba.mp3	ba	ba	0	left
6.6.1	win	2023-06-01	16:20:55	16:39:22	1101692	6159fb27b6340dda3fc6a5c3	2	1	main_z	24	advance_on_keypress_ZEE	160	stimuli_distractor_diamondtriangles.svg	stimuli_target_rectangletriangles.svg	13	yes	57	0	622	6	2	antiphase_hc_ios.wav	3	6	5	noise_calib_stim_RIGHT.wav	2	1	blb_dichoticlistening_ba-ba.mp3	ba	ba	0	left
6.6.1	win	2023-06-01	16:20:55	16:39:39	1117960	6159fb27b6340dda3fc6a5c3	2	1	practice_slash	26	practice_slash	1	stimuli_distractor_trianglediamonds.svg	stimuli_distractor_trianglediamonds.svg	15	no	0	1	2000	6	2	antiphase_hc_ios.wav	3	6	5	noise_calib_stim_RIGHT.wav	2	1	blb_dichoticlistening_ba-ba.mp3	ba	ba	0	left
6.6.1	win	2023-06-01	16:20:55	16:39:39	1117960	6159fb27b6340dda3fc6a5c3	2	1	practice_slash	26	advance_on_keypress_SLASH	2	stimuli_distractor_trianglediamonds.svg	stimuli_distractor_trianglediamonds.svg	15	no	57	0	558	6	2	antiphase_hc_ios.wav	3	6	5	noise_calib_stim_RIGHT.wav	2	1	blb_dichoticlistening_ba-ba.mp3	ba	ba	0	left
6.6.1	win	2023-06-01	16:20:55	16:39:42	1120849	6159fb27b6340dda3fc6a5c3	2	1	practice_slash	26	practice_slash	3	stimuli_distractor_trianglediamonds.svg	stimuli_target_rectanglediamonds.svg	10	yes	53	1	661	6	2	antiphase_hc_ios.wav	3	6	5	noise_calib_stim_RIGHT.wav	2	1	blb_dichoticlistening_ba-ba.mp3	ba	ba	0	left
6.6.1	win	2023-06-01	16:20:55	16:39:42	1120849	6159fb27b6340dda3fc6a5c3	2	1	practice_slash	26	advance_on_keypress_SLASH	4	stimuli_distractor_trianglediamonds.svg	stimuli_target_rectanglediamonds.svg	10	yes	57	0	2151	6	2	antiphase_hc_ios.wav	3	6	5	noise_calib_stim_RIGHT.wav	2	1	blb_dichoticlistening_ba-ba.mp3	ba	ba	0	left
6.6.1	win	2023-06-01	16:20:55	16:39:47	1126661	6159fb27b6340dda3fc6a5c3	2	1	practice_slash	26	practice_slash	5	stimuli_distractor_trianglediamonds.svg	stimuli_distractor_diamondtriangles.svg	16	no	0	1	2000	6	2	antiphase_hc_ios.wav	3	6	5	noise_calib_stim_RIGHT.wav	2	1	blb_dichoticlistening_ba-ba.mp3	ba	ba	0	left
6.6.1	win	2023-06-01	16:20:55	16:39:47	1126661	6159fb27b6340dda3fc6a5c3	2	1	practice_slash	26	advance_on_keypress_SLASH	6	stimuli_distractor_trianglediamonds.svg	stimuli_distractor_diamondtriangles.svg	16	no	57	0	987	6	2	antiphase_hc_ios.wav	3	6	5	noise_calib_stim_RIGHT.wav	2	1	blb_dichoticlistening_ba-ba.mp3	ba	ba	0	left
6.6.1	win	2023-06-01	16:20:55	16:39:50	1129760	6159fb27b6340dda3fc6a5c3	2	1	practice_slash	26	practice_slash	7	stimuli_target_diamondsquares.svg	stimuli_distractor_trianglediamonds.svg	6	yes	53	1	470	6	2	antiphase_hc_ios.wav	3	6	5	noise_calib_stim_RIGHT.wav	2	1	blb_dichoticlistening_ba-ba.mp3	ba	ba	0	left
6.6.1	win	2023-06-01	16:20:55	16:39:50	1129760	6159fb27b6340dda3fc6a5c3	2	1	practice_slash	26	advance_on_keypress_SLASH	8	stimuli_target_diamondsquares.svg	stimuli_distractor_trianglediamonds.svg	6	yes	57	0	611	6	2	antiphase_hc_ios.wav	3	6	5	noise_calib_stim_RIGHT.wav	2	1	blb_dichoticlistening_ba-ba.mp3	ba	ba	0	left
6.6.1	win	2023-06-01	16:20:55	16:39:53	1132479	6159fb27b6340dda3fc6a5c3	2	1	practice_slash	26	practice_slash	9	stimuli_target_rectanglediamonds.svg	stimuli_distractor_trianglediamonds.svg	4	yes	53	1	455	6	2	antiphase_hc_ios.wav	3	6	5	noise_calib_stim_RIGHT.wav	2	1	blb_dichoticlistening_ba-ba.mp3	ba	ba	0	left
6.6.1	win	2023-06-01	16:20:55	16:39:53	1132479	6159fb27b6340dda3fc6a5c3	2	1	practice_slash	26	advance_on_keypress_SLASH	10	stimuli_target_rectanglediamonds.svg	stimuli_distractor_trianglediamonds.svg	4	yes	57	0	370	6	2	antiphase_hc_ios.wav	3	6	5	noise_calib_stim_RIGHT.wav	2	1	blb_dichoticlistening_ba-ba.mp3	ba	ba	0	left
6.6.1	win	2023-06-01	16:20:55	16:39:56	1134915	6159fb27b6340dda3fc6a5c3	2	1	practice_slash	26	practice_slash	11	stimuli_distractor_diamondtriangles.svg	stimuli_target_trianglerectangles.svg	9	yes	53	1	428	6	2	antiphase_hc_ios.wav	3	6	5	noise_calib_stim_RIGHT.wav	2	1	blb_dichoticlistening_ba-ba.mp3	ba	ba	0	left
6.6.1	win	2023-06-01	16:20:55	16:39:56	1134915	6159fb27b6340dda3fc6a5c3	2	1	practice_slash	26	advance_on_keypress_SLASH	12	stimuli_distractor_diamondtriangles.svg	stimuli_target_trianglerectangles.svg	9	yes	57	0	460	6	2	antiphase_hc_ios.wav	3	6	5	noise_calib_stim_RIGHT.wav	2	1	blb_dichoticlistening_ba-ba.mp3	ba	ba	0	left
6.6.1	win	2023-06-01	16:20:55	16:39:58	1137595	6159fb27b6340dda3fc6a5c3	2	1	practice_slash	26	practice_slash	13	stimuli_target_rectanglediamonds.svg	stimuli_distractor_diamondtriangles.svg	1	yes	53	1	554	6	2	antiphase_hc_ios.wav	3	6	5	noise_calib_stim_RIGHT.wav	2	1	blb_dichoticlistening_ba-ba.mp3	ba	ba	0	left
6.6.1	win	2023-06-01	16:20:55	16:39:58	1137595	6159fb27b6340dda3fc6a5c3	2	1	practice_slash	26	advance_on_keypress_SLASH	14	stimuli_target_rectanglediamonds.svg	stimuli_distractor_diamondtriangles.svg	1	yes	57	0	422	6	2	antiphase_hc_ios.wav	3	6	5	noise_calib_stim_RIGHT.wav	2	1	blb_dichoticlistening_ba-ba.mp3	ba	ba	0	left
6.6.1	win	2023-06-01	16:20:55	16:40:01	1140091	6159fb27b6340dda3fc6a5c3	2	1	practice_slash	26	practice_slash	15	stimuli_target_squarediamonds.svg	stimuli_distractor_trianglediamonds.svg	5	yes	53	1	433	6	2	antiphase_hc_ios.wav	3	6	5	noise_calib_stim_RIGHT.wav	2	1	blb_dichoticlistening_ba-ba.mp3	ba	ba	0	left
6.6.1	win	2023-06-01	16:20:55	16:40:01	1140091	6159fb27b6340dda3fc6a5c3	2	1	practice_slash	26	advance_on_keypress_SLASH	16	stimuli_target_squarediamonds.svg	stimuli_distractor_trianglediamonds.svg	5	yes	57	0	390	6	2	antiphase_hc_ios.wav	3	6	5	noise_calib_stim_RIGHT.wav	2	1	blb_dichoticlistening_ba-ba.mp3	ba	ba	0	left
6.6.1	win	2023-06-01	16:20:55	16:40:05	1144128	6159fb27b6340dda3fc6a5c3	2	1	practice_slash	26	practice_slash	17	stimuli_distractor_diamondtriangles.svg	stimuli_distractor_diamondtriangles.svg	13	no	0	1	2000	6	2	antiphase_hc_ios.wav	3	6	5	noise_calib_stim_RIGHT.wav	2	1	blb_dichoticlistening_ba-ba.mp3	ba	ba	0	left
6.6.1	win	2023-06-01	16:20:55	16:40:05	1144128	6159fb27b6340dda3fc6a5c3	2	1	practice_slash	26	advance_on_keypress_SLASH	18	stimuli_distractor_diamondtriangles.svg	stimuli_distractor_diamondtriangles.svg	13	no	57	0	425	6	2	antiphase_hc_ios.wav	3	6	5	noise_calib_stim_RIGHT.wav	2	1	blb_dichoticlistening_ba-ba.mp3	ba	ba	0	left
6.6.1	win	2023-06-01	16:20:55	16:40:08	1146933	6159fb27b6340dda3fc6a5c3	2	1	practice_slash	26	practice_slash	19	stimuli_target_diamondsquares.svg	stimuli_distractor_diamondtriangles.svg	3	yes	53	1	745	6	2	antiphase_hc_ios.wav	3	6	5	noise_calib_stim_RIGHT.wav	2	1	blb_dichoticlistening_ba-ba.mp3	ba	ba	0	left
