build	computer.platform	date	time	timestamp	time_elapsed_ms	subject	group	session	blockcode	blocknum	trialcode	trialnum	stimulus_left	stimulus_right	stim_index	target_present	response	correct	latency	headphonecheck_countTestTrials	headphonecheck_index	headphonecheck_testSound	headphonecheck_correctResponse	stereocheck_countTestTrials	stereocheck_index	stereocheck_testSound	stereocheck_correctResponse	DL_index	DL_soundfile	DL_leftSound	DL_rightSound	DL_dualSound	DL_choice
6.6.1	win	2023-07-13	19:41:14	0	0	5fd8c059856120277dec48ef	1	1	headphonecheck_calibration	4	headphonecheck_calibrationIntro	1			0		calibrationButton	0	7624	0	0			0	0			1				0	
6.6.1	win	2023-07-13	19:41:14	0	0	5fd8c059856120277dec48ef	1	1	headphonecheck_testphase	5	test_collectResponse	3			0		third	1	1051	1	6	antiphase_hc_ois.wav	3	0	0			1				0	
6.6.1	win	2023-07-13	19:41:14	0	0	5fd8c059856120277dec48ef	1	1	headphonecheck_testphase	5	test_collectResponse	6			0		first	1	698	2	4	antiphase_hc_sio.wav	1	0	0			1				0	
6.6.1	win	2023-07-13	19:41:14	0	0	5fd8c059856120277dec48ef	1	1	headphonecheck_testphase	5	test_collectResponse	9			0		second	1	504	3	1	antiphase_hc_iso.wav	2	0	0			1				0	
6.6.1	win	2023-07-13	19:41:14	0	0	5fd8c059856120277dec48ef	1	1	headphonecheck_testphase	5	test_collectResponse	12			0		second	1	730	4	5	antiphase_hc_osi.wav	2	0	0			1				0	
6.6.1	win	2023-07-13	19:41:14	0	0	5fd8c059856120277dec48ef	1	1	headphonecheck_testphase	5	test_collectResponse	15			0		first	1	592	5	3	antiphase_hc_soi.wav	1	0	0			1				0	
6.6.1	win	2023-07-13	19:41:14	0	0	5fd8c059856120277dec48ef	1	1	headphonecheck_testphase	5	test_collectResponse	18			0		third	1	957	6	2	antiphase_hc_ios.wav	3	0	0			1				0	
6.6.1	win	2023-07-13	19:41:14	0	0	5fd8c059856120277dec48ef	1	1	stereocheck_calibration	7	stereocheck_calibrationIntro	1			0		stereocheck_calibrationButton	0	8144	6	2	antiphase_hc_ios.wav	3	0	0			1				0	
6.6.1	win	2023-07-13	19:41:14	0	0	5fd8c059856120277dec48ef	1	1	stereocheck_testphase	8	stereocheck_test_collectResponse	3			0		stereocheck_right	1	1675	6	2	antiphase_hc_ios.wav	3	1	6	noise_calib_stim_RIGHT.wav	2	1				0	
6.6.1	win	2023-07-13	19:41:14	0	0	5fd8c059856120277dec48ef	1	1	stereocheck_testphase	8	stereocheck_test_collectResponse	6			0		stereocheck_left	1	459	6	2	antiphase_hc_ios.wav	3	2	2	noise_calib_stim_LEFT.wav	1	1				0	
6.6.1	win	2023-07-13	19:41:14	0	0	5fd8c059856120277dec48ef	1	1	stereocheck_testphase	8	stereocheck_test_collectResponse	9			0		stereocheck_right	1	401	6	2	antiphase_hc_ios.wav	3	3	5	noise_calib_stim_RIGHT.wav	2	1				0	
6.6.1	win	2023-07-13	19:41:14	0	0	5fd8c059856120277dec48ef	1	1	stereocheck_testphase	8	stereocheck_test_collectResponse	12			0		stereocheck_left	1	325	6	2	antiphase_hc_ios.wav	3	4	1	noise_calib_stim_LEFT.wav	1	1				0	
6.6.1	win	2023-07-13	19:41:14	0	0	5fd8c059856120277dec48ef	1	1	stereocheck_testphase	8	stereocheck_test_collectResponse	15			0		stereocheck_right	1	420	6	2	antiphase_hc_ios.wav	3	5	4	noise_calib_stim_RIGHT.wav	2	1				0	
6.6.1	win	2023-07-13	19:41:14	0	0	5fd8c059856120277dec48ef	1	1	stereocheck_testphase	8	stereocheck_test_collectResponse	18			0		stereocheck_left	1	401	6	2	antiphase_hc_ios.wav	3	6	3	noise_calib_stim_LEFT.wav	1	1				0	
6.6.1	win	2023-07-13	19:41:14	0	0	5fd8c059856120277dec48ef	1	1	DL_practice	11	DL_practice	2			0		da	1	3967	6	2	antiphase_hc_ios.wav	3	6	3	noise_calib_stim_LEFT.wav	1	7	blb_dichoticlistening_da-ba.mp3	da	ba	1	left
6.6.1	win	2023-07-13	19:41:14	0	0	5fd8c059856120277dec48ef	1	1	DL_practice	11	DL_practice	3			0		ta	1	1825	6	2	antiphase_hc_ios.wav	3	6	3	noise_calib_stim_LEFT.wav	1	36	blb_dichoticlistening_ta-ta.mp3	ta	ta	0	left
6.6.1	win	2023-07-13	19:41:14	0	0	5fd8c059856120277dec48ef	1	1	DL_practice	11	DL_practice	4			0		pa	1	1954	6	2	antiphase_hc_ios.wav	3	6	3	noise_calib_stim_LEFT.wav	1	23	blb_dichoticlistening_ka-pa.mp3	ka	pa	1	right
6.6.1	win	2023-07-13	19:41:14	0	0	5fd8c059856120277dec48ef	1	1	DL_practice	11	DL_practice	5			0		ba	1	1666	6	2	antiphase_hc_ios.wav	3	6	3	noise_calib_stim_LEFT.wav	1	1	blb_dichoticlistening_ba-ba.mp3	ba	ba	0	left
6.6.1	win	2023-07-13	19:41:14	0	0	5fd8c059856120277dec48ef	1	1	DL_practice	11	DL_practice	6			0		pa	1	2048	6	2	antiphase_hc_ios.wav	3	6	3	noise_calib_stim_LEFT.wav	1	29	blb_dichoticlistening_pa-pa.mp3	pa	pa	0	left
6.6.1	win	2023-07-13	19:41:14	0	0	5fd8c059856120277dec48ef	1	1	DL_practice	11	DL_practice	7			0		ka	1	1434	6	2	antiphase_hc_ios.wav	3	6	3	noise_calib_stim_LEFT.wav	1	22	blb_dichoticlistening_ka-ka.mp3	ka	ka	0	left
6.6.1	win	2023-07-13	19:41:14	0	0	5fd8c059856120277dec48ef	1	1	DL_practice	11	DL_practice	8			0		da	0	1476	6	2	antiphase_hc_ios.wav	3	6	3	noise_calib_stim_LEFT.wav	1	15	blb_dichoticlistening_ga-ga.mp3	ga	ga	0	other
6.6.1	win	2023-07-13	19:41:14	0	0	5fd8c059856120277dec48ef	1	1	DL_practice	11	DL_practice	9			0		ga	0	3943	6	2	antiphase_hc_ios.wav	3	6	3	noise_calib_stim_LEFT.wav	1	8	blb_dichoticlistening_da-da.mp3	da	da	0	other
6.6.1	win	2023-07-13	19:41:14	0	0	5fd8c059856120277dec48ef	1	1	DL_practice	11	DL_practice	10			0		ta	1	2063	6	2	antiphase_hc_ios.wav	3	6	3	noise_calib_stim_LEFT.wav	1	18	blb_dichoticlistening_ga-ta.mp3	ga	ta	1	right
6.6.1	win	2023-07-13	19:41:14	0	0	5fd8c059856120277dec48ef	1	1	DL_test	13	DL_test	1			0		ba	1	1735	6	2	antiphase_hc_ios.wav	3	6	3	noise_calib_stim_LEFT.wav	1	1	blb_dichoticlistening_ba-ba.mp3	ba	ba	0	left
6.6.1	win	2023-07-13	19:41:14	0	0	5fd8c059856120277dec48ef	1	1	DL_test	13	DL_test	2			0		pa	1	1735	6	2	antiphase_hc_ios.wav	3	6	3	noise_calib_stim_LEFT.wav	1	29	blb_dichoticlistening_pa-pa.mp3	pa	pa	0	left
6.6.1	win	2023-07-13	19:41:14	0	0	5fd8c059856120277dec48ef	1	1	DL_test	13	DL_test	3			0		ta	1	1114	6	2	antiphase_hc_ios.wav	3	6	3	noise_calib_stim_LEFT.wav	1	34	blb_dichoticlistening_ta-ka.mp3	ta	ka	1	left
6.6.1	win	2023-07-13	19:41:14	0	0	5fd8c059856120277dec48ef	1	1	DL_test	13	DL_test	4			0		da	0	3298	6	2	antiphase_hc_ios.wav	3	6	3	noise_calib_stim_LEFT.wav	1	21	blb_dichoticlistening_ka-ga.mp3	ka	ga	1	other
6.6.1	win	2023-07-13	19:41:14	0	0	5fd8c059856120277dec48ef	1	1	DL_test	13	DL_test	5			0		ga	1	2177	6	2	antiphase_hc_ios.wav	3	6	3	noise_calib_stim_LEFT.wav	1	9	blb_dichoticlistening_da-ga.mp3	da	ga	1	right
6.6.1	win	2023-07-13	19:41:14	0	0	5fd8c059856120277dec48ef	1	1	DL_test	13	DL_test	6			0		ka	1	1834	6	2	antiphase_hc_ios.wav	3	6	3	noise_calib_stim_LEFT.wav	1	22	blb_dichoticlistening_ka-ka.mp3	ka	ka	0	left
6.6.1	win	2023-07-13	19:41:14	0	0	5fd8c059856120277dec48ef	1	1	DL_test	13	DL_test	7			0		da	1	2946	6	2	antiphase_hc_ios.wav	3	6	3	noise_calib_stim_LEFT.wav	1	7	blb_dichoticlistening_da-ba.mp3	da	ba	1	left
6.6.1	win	2023-07-13	19:41:14	0	0	5fd8c059856120277dec48ef	1	1	DL_test	13	DL_test	8			0		ta	1	2997	6	2	antiphase_hc_ios.wav	3	6	3	noise_calib_stim_LEFT.wav	1	32	blb_dichoticlistening_ta-da.mp3	ta	da	1	left
6.6.1	win	2023-07-13	19:41:14	0	0	5fd8c059856120277dec48ef	1	1	DL_test	13	DL_test	9			0		ta	0	2634	6	2	antiphase_hc_ios.wav	3	6	3	noise_calib_stim_LEFT.wav	1	20	blb_dichoticlistening_ka-da.mp3	ka	da	1	other
6.6.1	win	2023-07-13	19:41:14	0	0	5fd8c059856120277dec48ef	1	1	DL_test	13	DL_test	10			0		ba	1	4345	6	2	antiphase_hc_ios.wav	3	6	3	noise_calib_stim_LEFT.wav	1	6	blb_dichoticlistening_ba-ta.mp3	ba	ta	1	left
6.6.1	win	2023-07-13	19:41:14	0	0	5fd8c059856120277dec48ef	1	1	DL_test	13	DL_test	11			0		pa	1	1449	6	2	antiphase_hc_ios.wav	3	6	3	noise_calib_stim_LEFT.wav	1	30	blb_dichoticlistening_pa-ta.mp3	pa	ta	1	left
6.6.1	win	2023-07-13	19:41:14	0	0	5fd8c059856120277dec48ef	1	1	DL_test	13	DL_test	12			0		da	0	2568	6	2	antiphase_hc_ios.wav	3	6	3	noise_calib_stim_LEFT.wav	1	33	blb_dichoticlistening_ta-ga.mp3	ta	ga	1	other
6.6.1	win	2023-07-13	19:41:14	0	0	5fd8c059856120277dec48ef	1	1	DL_test	13	DL_test	13			0		da	1	2042	6	2	antiphase_hc_ios.wav	3	6	3	noise_calib_stim_LEFT.wav	1	8	blb_dichoticlistening_da-da.mp3	da	da	0	left
6.6.1	win	2023-07-13	19:41:14	0	0	5fd8c059856120277dec48ef	1	1	DL_test	13	DL_test	14			0		da	0	2359	6	2	antiphase_hc_ios.wav	3	6	3	noise_calib_stim_LEFT.wav	1	15	blb_dichoticlistening_ga-ga.mp3	ga	ga	0	other
6.6.1	win	2023-07-13	19:41:14	0	0	5fd8c059856120277dec48ef	1	1	DL_test	13	DL_test	15			0		pa	1	1770	6	2	antiphase_hc_ios.wav	3	6	3	noise_calib_stim_LEFT.wav	1	28	blb_dichoticlistening_pa-ka.mp3	pa	ka	1	left
6.6.1	win	2023-07-13	19:41:14	0	0	5fd8c059856120277dec48ef	1	1	DL_test	13	DL_test	16			0		da	0	2264	6	2	antiphase_hc_ios.wav	3	6	3	noise_calib_stim_LEFT.wav	1	3	blb_dichoticlistening_ba-ga.mp3	ba	ga	1	other
6.6.1	win	2023-07-13	19:41:14	0	0	5fd8c059856120277dec48ef	1	1	DL_test	13	DL_test	17			0		da	1	1472	6	2	antiphase_hc_ios.wav	3	6	3	noise_calib_stim_LEFT.wav	1	14	blb_dichoticlistening_ga-da.mp3	ga	da	1	right
6.6.1	win	2023-07-13	19:41:14	0	0	5fd8c059856120277dec48ef	1	1	DL_test	13	DL_test	18			0		ga	1	2352	6	2	antiphase_hc_ios.wav	3	6	3	noise_calib_stim_LEFT.wav	1	13	blb_dichoticlistening_ga-ba.mp3	ga	ba	1	left
6.6.1	win	2023-07-13	19:41:14	0	0	5fd8c059856120277dec48ef	1	1	DL_test	13	DL_test	19			0		pa	1	2276	6	2	antiphase_hc_ios.wav	3	6	3	noise_calib_stim_LEFT.wav	1	23	blb_dichoticlistening_ka-pa.mp3	ka	pa	1	right
6.6.1	win	2023-07-13	19:41:14	0	0	5fd8c059856120277dec48ef	1	1	DL_test	13	DL_test	20			0		ta	1	1279	6	2	antiphase_hc_ios.wav	3	6	3	noise_calib_stim_LEFT.wav	1	36	blb_dichoticlistening_ta-ta.mp3	ta	ta	0	left
6.6.1	win	2023-07-13	19:41:14	0	0	5fd8c059856120277dec48ef	1	1	DL_test	13	DL_test	21			0		da	0	3633	6	2	antiphase_hc_ios.wav	3	6	3	noise_calib_stim_LEFT.wav	1	18	blb_dichoticlistening_ga-ta.mp3	ga	ta	1	other
6.6.1	win	2023-07-13	19:41:14	0	0	5fd8c059856120277dec48ef	1	1	DL_test	13	DL_test	22			0		pa	1	1940	6	2	antiphase_hc_ios.wav	3	6	3	noise_calib_stim_LEFT.wav	1	17	blb_dichoticlistening_ga-pa.mp3	ga	pa	1	right
6.6.1	win	2023-07-13	19:41:14	0	0	5fd8c059856120277dec48ef	1	1	DL_test	13	DL_test	23			0		ba	1	3234	6	2	antiphase_hc_ios.wav	3	6	3	noise_calib_stim_LEFT.wav	1	2	blb_dichoticlistening_ba-da.mp3	ba	da	1	left
6.6.1	win	2023-07-13	19:41:14	0	0	5fd8c059856120277dec48ef	1	1	DL_test	13	DL_test	24			0		pa	1	1491	6	2	antiphase_hc_ios.wav	3	6	3	noise_calib_stim_LEFT.wav	1	25	blb_dichoticlistening_pa-ba.mp3	pa	ba	1	left
6.6.1	win	2023-07-13	19:41:14	0	0	5fd8c059856120277dec48ef	1	1	DL_test	13	DL_test	25			0		ba	1	3001	6	2	antiphase_hc_ios.wav	3	6	3	noise_calib_stim_LEFT.wav	1	4	blb_dichoticlistening_ba-ka.mp3	ba	ka	1	left
6.6.1	win	2023-07-13	19:41:14	0	0	5fd8c059856120277dec48ef	1	1	DL_test	13	DL_test	26			0		pa	1	2638	6	2	antiphase_hc_ios.wav	3	6	3	noise_calib_stim_LEFT.wav	1	26	blb_dichoticlistening_pa-da.mp3	pa	da	1	left
6.6.1	win	2023-07-13	19:41:14	0	0	5fd8c059856120277dec48ef	1	1	DL_test	13	DL_test	27			0		ta	1	1199	6	2	antiphase_hc_ios.wav	3	6	3	noise_calib_stim_LEFT.wav	1	12	blb_dichoticlistening_da-ta.mp3	da	ta	1	right
6.6.1	win	2023-07-13	19:41:14	0	0	5fd8c059856120277dec48ef	1	1	DL_test	13	DL_test	28			0		pa	1	2056	6	2	antiphase_hc_ios.wav	3	6	3	noise_calib_stim_LEFT.wav	1	27	blb_dichoticlistening_pa-ga.mp3	pa	ga	1	left
6.6.1	win	2023-07-13	19:41:14	0	0	5fd8c059856120277dec48ef	1	1	DL_test	13	DL_test	29			0		pa	1	1744	6	2	antiphase_hc_ios.wav	3	6	3	noise_calib_stim_LEFT.wav	1	11	blb_dichoticlistening_da-pa.mp3	da	pa	1	right
6.6.1	win	2023-07-13	19:41:14	0	0	5fd8c059856120277dec48ef	1	1	DL_test	13	DL_test	30			0		ta	1	1253	6	2	antiphase_hc_ios.wav	3	6	3	noise_calib_stim_LEFT.wav	1	35	blb_dichoticlistening_ta-pa.mp3	ta	pa	1	left
6.6.1	win	2023-07-13	19:41:14	0	0	5fd8c059856120277dec48ef	1	1	DL_test	13	DL_test	31			0		pa	0	1763	6	2	antiphase_hc_ios.wav	3	6	3	noise_calib_stim_LEFT.wav	1	10	blb_dichoticlistening_da-ka.mp3	da	ka	1	other
6.6.1	win	2023-07-13	19:41:14	0	0	5fd8c059856120277dec48ef	1	1	DL_test	13	DL_test	32			0		pa	0	1668	6	2	antiphase_hc_ios.wav	3	6	3	noise_calib_stim_LEFT.wav	1	31	blb_dichoticlistening_ta-ba.mp3	ta	ba	1	other
6.6.1	win	2023-07-13	19:41:14	0	0	5fd8c059856120277dec48ef	1	1	DL_test	13	DL_test	33			0		pa	0	2148	6	2	antiphase_hc_ios.wav	3	6	3	noise_calib_stim_LEFT.wav	1	19	blb_dichoticlistening_ka-ba.mp3	ka	ba	1	other
6.6.1	win	2023-07-13	19:41:14	0	0	5fd8c059856120277dec48ef	1	1	DL_test	13	DL_test	34			0		ta	1	1562	6	2	antiphase_hc_ios.wav	3	6	3	noise_calib_stim_LEFT.wav	1	24	blb_dichoticlistening_ka-ta.mp3	ka	ta	1	right
6.6.1	win	2023-07-13	19:41:14	0	0	5fd8c059856120277dec48ef	1	1	DL_test	13	DL_test	35			0		ta	0	35	6	2	antiphase_hc_ios.wav	3	6	3	noise_calib_stim_LEFT.wav	1	5	blb_dichoticlistening_ba-pa.mp3	ba	pa	1	other
6.6.1	win	2023-07-13	19:41:14	0	0	5fd8c059856120277dec48ef	1	1	DL_test	13	DL_test	36			0		ta	0	1781	6	2	antiphase_hc_ios.wav	3	6	3	noise_calib_stim_LEFT.wav	1	16	blb_dichoticlistening_ga-ka.mp3	ga	ka	1	other
6.6.1	win	2023-07-13	19:41:14	0	0	5fd8c059856120277dec48ef	1	1	DL_test	14	DL_test	1			0		ta	0	1636	6	2	antiphase_hc_ios.wav	3	6	3	noise_calib_stim_LEFT.wav	1	16	blb_dichoticlistening_ga-ka.mp3	ga	ka	1	other
6.6.1	win	2023-07-13	19:41:14	0	0	5fd8c059856120277dec48ef	1	1	DL_test	14	DL_test	2			0		ta	1	877	6	2	antiphase_hc_ios.wav	3	6	3	noise_calib_stim_LEFT.wav	1	36	blb_dichoticlistening_ta-ta.mp3	ta	ta	0	left
6.6.1	win	2023-07-13	19:41:14	0	0	5fd8c059856120277dec48ef	1	1	DL_test	14	DL_test	3			0		da	1	2494	6	2	antiphase_hc_ios.wav	3	6	3	noise_calib_stim_LEFT.wav	1	12	blb_dichoticlistening_da-ta.mp3	da	ta	1	left
6.6.1	win	2023-07-13	19:41:14	0	0	5fd8c059856120277dec48ef	1	1	DL_test	14	DL_test	4			0		da	0	2944	6	2	antiphase_hc_ios.wav	3	6	3	noise_calib_stim_LEFT.wav	1	21	blb_dichoticlistening_ka-ga.mp3	ka	ga	1	other
6.6.1	win	2023-07-13	19:41:14	0	0	5fd8c059856120277dec48ef	1	1	DL_test	14	DL_test	5			0		pa	0	2534	6	2	antiphase_hc_ios.wav	3	6	3	noise_calib_stim_LEFT.wav	1	10	blb_dichoticlistening_da-ka.mp3	da	ka	1	other
6.6.1	win	2023-07-13	19:41:14	0	0	5fd8c059856120277dec48ef	1	1	DL_test	14	DL_test	6			0		pa	1	2020	6	2	antiphase_hc_ios.wav	3	6	3	noise_calib_stim_LEFT.wav	1	35	blb_dichoticlistening_ta-pa.mp3	ta	pa	1	right
6.6.1	win	2023-07-13	19:41:14	0	0	5fd8c059856120277dec48ef	1	1	DL_test	14	DL_test	7			0		pa	1	1311	6	2	antiphase_hc_ios.wav	3	6	3	noise_calib_stim_LEFT.wav	1	26	blb_dichoticlistening_pa-da.mp3	pa	da	1	left
6.6.1	win	2023-07-13	19:41:14	0	0	5fd8c059856120277dec48ef	1	1	DL_test	14	DL_test	8			0		pa	1	794	6	2	antiphase_hc_ios.wav	3	6	3	noise_calib_stim_LEFT.wav	1	29	blb_dichoticlistening_pa-pa.mp3	pa	pa	0	left
6.6.1	win	2023-07-13	19:41:14	0	0	5fd8c059856120277dec48ef	1	1	DL_test	14	DL_test	9			0		pa	0	1109	6	2	antiphase_hc_ios.wav	3	6	3	noise_calib_stim_LEFT.wav	1	4	blb_dichoticlistening_ba-ka.mp3	ba	ka	1	other
6.6.1	win	2023-07-13	19:41:14	0	0	5fd8c059856120277dec48ef	1	1	DL_test	14	DL_test	10			0		da	0	1618	6	2	antiphase_hc_ios.wav	3	6	3	noise_calib_stim_LEFT.wav	1	3	blb_dichoticlistening_ba-ga.mp3	ba	ga	1	other
6.6.1	win	2023-07-13	19:41:14	0	0	5fd8c059856120277dec48ef	1	1	DL_test	14	DL_test	11			0		ta	1	1625	6	2	antiphase_hc_ios.wav	3	6	3	noise_calib_stim_LEFT.wav	1	18	blb_dichoticlistening_ga-ta.mp3	ga	ta	1	right
6.6.1	win	2023-07-13	19:41:14	0	0	5fd8c059856120277dec48ef	1	1	DL_test	14	DL_test	12			0		pa	0	1158	6	2	antiphase_hc_ios.wav	3	6	3	noise_calib_stim_LEFT.wav	1	31	blb_dichoticlistening_ta-ba.mp3	ta	ba	1	other
6.6.1	win	2023-07-13	19:41:14	0	0	5fd8c059856120277dec48ef	1	1	DL_test	14	DL_test	13			0		pa	1	767	6	2	antiphase_hc_ios.wav	3	6	3	noise_calib_stim_LEFT.wav	1	23	blb_dichoticlistening_ka-pa.mp3	ka	pa	1	right
6.6.1	win	2023-07-13	19:41:14	0	0	5fd8c059856120277dec48ef	1	1	DL_test	14	DL_test	14			0		ta	1	1614	6	2	antiphase_hc_ios.wav	3	6	3	noise_calib_stim_LEFT.wav	1	32	blb_dichoticlistening_ta-da.mp3	ta	da	1	left
6.6.1	win	2023-07-13	19:41:14	0	0	5fd8c059856120277dec48ef	1	1	DL_test	14	DL_test	15			0		da	0	1781	6	2	antiphase_hc_ios.wav	3	6	3	noise_calib_stim_LEFT.wav	1	15	blb_dichoticlistening_ga-ga.mp3	ga	ga	0	other
6.6.1	win	2023-07-13	19:41:14	0	0	5fd8c059856120277dec48ef	1	1	DL_test	14	DL_test	16			0		pa	1	1638	6	2	antiphase_hc_ios.wav	3	6	3	noise_calib_stim_LEFT.wav	1	17	blb_dichoticlistening_ga-pa.mp3	ga	pa	1	right
6.6.1	win	2023-07-13	19:41:14	0	0	5fd8c059856120277dec48ef	1	1	DL_test	14	DL_test	17			0		pa	1	1487	6	2	antiphase_hc_ios.wav	3	6	3	noise_calib_stim_LEFT.wav	1	11	blb_dichoticlistening_da-pa.mp3	da	pa	1	right
6.6.1	win	2023-07-13	19:41:14	0	0	5fd8c059856120277dec48ef	1	1	DL_test	14	DL_test	18			0		pa	1	1179	6	2	antiphase_hc_ios.wav	3	6	3	noise_calib_stim_LEFT.wav	1	30	blb_dichoticlistening_pa-ta.mp3	pa	ta	1	left
6.6.1	win	2023-07-13	19:41:14	0	0	5fd8c059856120277dec48ef	1	1	DL_test	14	DL_test	19			0		ka	1	1257	6	2	antiphase_hc_ios.wav	3	6	3	noise_calib_stim_LEFT.wav	1	22	blb_dichoticlistening_ka-ka.mp3	ka	ka	0	left
6.6.1	win	2023-07-13	19:41:14	0	0	5fd8c059856120277dec48ef	1	1	DL_test	14	DL_test	20			0		pa	0	1276	6	2	antiphase_hc_ios.wav	3	6	3	noise_calib_stim_LEFT.wav	1	6	blb_dichoticlistening_ba-ta.mp3	ba	ta	1	other
6.6.1	win	2023-07-13	19:41:14	0	0	5fd8c059856120277dec48ef	1	1	DL_test	14	DL_test	21			0		ta	1	1258	6	2	antiphase_hc_ios.wav	3	6	3	noise_calib_stim_LEFT.wav	1	33	blb_dichoticlistening_ta-ga.mp3	ta	ga	1	left
6.6.1	win	2023-07-13	19:41:14	0	0	5fd8c059856120277dec48ef	1	1	DL_test	14	DL_test	22			0		pa	1	1435	6	2	antiphase_hc_ios.wav	3	6	3	noise_calib_stim_LEFT.wav	1	27	blb_dichoticlistening_pa-ga.mp3	pa	ga	1	left
6.6.1	win	2023-07-13	19:41:14	0	0	5fd8c059856120277dec48ef	1	1	DL_test	14	DL_test	23			0		pa	0	1675	6	2	antiphase_hc_ios.wav	3	6	3	noise_calib_stim_LEFT.wav	1	19	blb_dichoticlistening_ka-ba.mp3	ka	ba	1	other
6.6.1	win	2023-07-13	19:41:14	0	0	5fd8c059856120277dec48ef	1	1	DL_test	14	DL_test	24			0		pa	1	829	6	2	antiphase_hc_ios.wav	3	6	3	noise_calib_stim_LEFT.wav	1	28	blb_dichoticlistening_pa-ka.mp3	pa	ka	1	left
6.6.1	win	2023-07-13	19:41:14	0	0	5fd8c059856120277dec48ef	1	1	DL_test	14	DL_test	25			0		ta	0	1276	6	2	antiphase_hc_ios.wav	3	6	3	noise_calib_stim_LEFT.wav	1	20	blb_dichoticlistening_ka-da.mp3	ka	da	1	other
6.6.1	win	2023-07-13	19:41:14	0	0	5fd8c059856120277dec48ef	1	1	DL_test	14	DL_test	26			0		da	1	1726	6	2	antiphase_hc_ios.wav	3	6	3	noise_calib_stim_LEFT.wav	1	9	blb_dichoticlistening_da-ga.mp3	da	ga	1	left
6.6.1	win	2023-07-13	19:41:14	0	0	5fd8c059856120277dec48ef	1	1	DL_test	14	DL_test	27			0		ba	1	2610	6	2	antiphase_hc_ios.wav	3	6	3	noise_calib_stim_LEFT.wav	1	2	blb_dichoticlistening_ba-da.mp3	ba	da	1	left
6.6.1	win	2023-07-13	19:41:14	0	0	5fd8c059856120277dec48ef	1	1	DL_test	14	DL_test	28			0		ta	1	1522	6	2	antiphase_hc_ios.wav	3	6	3	noise_calib_stim_LEFT.wav	1	34	blb_dichoticlistening_ta-ka.mp3	ta	ka	1	left
6.6.1	win	2023-07-13	19:41:14	0	0	5fd8c059856120277dec48ef	1	1	DL_test	14	DL_test	29			0		ta	1	719	6	2	antiphase_hc_ios.wav	3	6	3	noise_calib_stim_LEFT.wav	1	24	blb_dichoticlistening_ka-ta.mp3	ka	ta	1	right
6.6.1	win	2023-07-13	19:41:14	0	0	5fd8c059856120277dec48ef	1	1	DL_test	14	DL_test	30			0		pa	0	3198	6	2	antiphase_hc_ios.wav	3	6	3	noise_calib_stim_LEFT.wav	1	7	blb_dichoticlistening_da-ba.mp3	da	ba	1	other
6.6.1	win	2023-07-13	19:41:14	0	0	5fd8c059856120277dec48ef	1	1	DL_test	14	DL_test	31			0		pa	1	2441	6	2	antiphase_hc_ios.wav	3	6	3	noise_calib_stim_LEFT.wav	1	25	blb_dichoticlistening_pa-ba.mp3	pa	ba	1	left
6.6.1	win	2023-07-13	19:41:14	0	0	5fd8c059856120277dec48ef	1	1	DL_test	14	DL_test	32			0		da	1	1645	6	2	antiphase_hc_ios.wav	3	6	3	noise_calib_stim_LEFT.wav	1	8	blb_dichoticlistening_da-da.mp3	da	da	0	left
6.6.1	win	2023-07-13	19:41:14	0	0	5fd8c059856120277dec48ef	1	1	DL_test	14	DL_test	33			0		pa	1	1501	6	2	antiphase_hc_ios.wav	3	6	3	noise_calib_stim_LEFT.wav	1	5	blb_dichoticlistening_ba-pa.mp3	ba	pa	1	right
6.6.1	win	2023-07-13	19:41:14	0	0	5fd8c059856120277dec48ef	1	1	DL_test	14	DL_test	34			0		ta	0	4343	6	2	antiphase_hc_ios.wav	3	6	3	noise_calib_stim_LEFT.wav	1	14	blb_dichoticlistening_ga-da.mp3	ga	da	1	other
6.6.1	win	2023-07-13	19:41:14	0	0	5fd8c059856120277dec48ef	1	1	DL_test	14	DL_test	35			0		pa	0	2478	6	2	antiphase_hc_ios.wav	3	6	3	noise_calib_stim_LEFT.wav	1	1	blb_dichoticlistening_ba-ba.mp3	ba	ba	0	other
6.6.1	win	2023-07-13	19:41:14	0	0	5fd8c059856120277dec48ef	1	1	DL_test	14	DL_test	36			0		ta	0	2503	6	2	antiphase_hc_ios.wav	3	6	3	noise_calib_stim_LEFT.wav	1	13	blb_dichoticlistening_ga-ba.mp3	ga	ba	1	other
6.6.1	win	2023-07-13	19:41:14	0	0	5fd8c059856120277dec48ef	1	1	DL_test	15	DL_test	1			0		pa	0	1613	6	2	antiphase_hc_ios.wav	3	6	3	noise_calib_stim_LEFT.wav	1	6	blb_dichoticlistening_ba-ta.mp3	ba	ta	1	other
6.6.1	win	2023-07-13	19:41:14	0	0	5fd8c059856120277dec48ef	1	1	DL_test	15	DL_test	2			0		pa	1	953	6	2	antiphase_hc_ios.wav	3	6	3	noise_calib_stim_LEFT.wav	1	29	blb_dichoticlistening_pa-pa.mp3	pa	pa	0	left
6.6.1	win	2023-07-13	19:41:14	0	0	5fd8c059856120277dec48ef	1	1	DL_test	15	DL_test	3			0		ta	0	1861	6	2	antiphase_hc_ios.wav	3	6	3	noise_calib_stim_LEFT.wav	1	16	blb_dichoticlistening_ga-ka.mp3	ga	ka	1	other
6.6.1	win	2023-07-13	19:41:14	0	0	5fd8c059856120277dec48ef	1	1	DL_test	15	DL_test	4			0		pa	1	3794	6	2	antiphase_hc_ios.wav	3	6	3	noise_calib_stim_LEFT.wav	1	26	blb_dichoticlistening_pa-da.mp3	pa	da	1	left
6.6.1	win	2023-07-13	19:41:14	0	0	5fd8c059856120277dec48ef	1	1	DL_test	15	DL_test	5			0		da	0	2813	6	2	antiphase_hc_ios.wav	3	6	3	noise_calib_stim_LEFT.wav	1	33	blb_dichoticlistening_ta-ga.mp3	ta	ga	1	other
6.6.1	win	2023-07-13	19:41:14	0	0	5fd8c059856120277dec48ef	1	1	DL_test	15	DL_test	6			0		da	1	1108	6	2	antiphase_hc_ios.wav	3	6	3	noise_calib_stim_LEFT.wav	1	9	blb_dichoticlistening_da-ga.mp3	da	ga	1	left
6.6.1	win	2023-07-13	19:41:14	0	0	5fd8c059856120277dec48ef	1	1	DL_test	15	DL_test	7			0		pa	1	1453	6	2	antiphase_hc_ios.wav	3	6	3	noise_calib_stim_LEFT.wav	1	25	blb_dichoticlistening_pa-ba.mp3	pa	ba	1	left
6.6.1	win	2023-07-13	19:41:14	0	0	5fd8c059856120277dec48ef	1	1	DL_test	15	DL_test	8			0		pa	0	1137	6	2	antiphase_hc_ios.wav	3	6	3	noise_calib_stim_LEFT.wav	1	19	blb_dichoticlistening_ka-ba.mp3	ka	ba	1	other
6.6.1	win	2023-07-13	19:41:14	0	0	5fd8c059856120277dec48ef	1	1	DL_test	15	DL_test	9			0		da	1	2380	6	2	antiphase_hc_ios.wav	3	6	3	noise_calib_stim_LEFT.wav	1	14	blb_dichoticlistening_ga-da.mp3	ga	da	1	right
6.6.1	win	2023-07-13	19:41:14	0	0	5fd8c059856120277dec48ef	1	1	DL_test	15	DL_test	10			0		ta	1	2128	6	2	antiphase_hc_ios.wav	3	6	3	noise_calib_stim_LEFT.wav	1	36	blb_dichoticlistening_ta-ta.mp3	ta	ta	0	left
6.6.1	win	2023-07-13	19:41:14	0	0	5fd8c059856120277dec48ef	1	1	DL_test	15	DL_test	11			0		pa	1	1614	6	2	antiphase_hc_ios.wav	3	6	3	noise_calib_stim_LEFT.wav	1	28	blb_dichoticlistening_pa-ka.mp3	pa	ka	1	left
6.6.1	win	2023-07-13	19:41:14	0	0	5fd8c059856120277dec48ef	1	1	DL_test	15	DL_test	12			0		ga	0	4243	6	2	antiphase_hc_ios.wav	3	6	3	noise_calib_stim_LEFT.wav	1	2	blb_dichoticlistening_ba-da.mp3	ba	da	1	other
6.6.1	win	2023-07-13	19:41:14	0	0	5fd8c059856120277dec48ef	1	1	DL_test	15	DL_test	13			0		pa	1	1940	6	2	antiphase_hc_ios.wav	3	6	3	noise_calib_stim_LEFT.wav	1	11	blb_dichoticlistening_da-pa.mp3	da	pa	1	right
6.6.1	win	2023-07-13	19:41:14	0	0	5fd8c059856120277dec48ef	1	1	DL_test	15	DL_test	14			0		pa	0	1378	6	2	antiphase_hc_ios.wav	3	6	3	noise_calib_stim_LEFT.wav	1	31	blb_dichoticlistening_ta-ba.mp3	ta	ba	1	other
6.6.1	win	2023-07-13	19:41:14	0	0	5fd8c059856120277dec48ef	1	1	DL_test	15	DL_test	15			0		pa	0	891	6	2	antiphase_hc_ios.wav	3	6	3	noise_calib_stim_LEFT.wav	1	4	blb_dichoticlistening_ba-ka.mp3	ba	ka	1	other
6.6.1	win	2023-07-13	19:41:14	0	0	5fd8c059856120277dec48ef	1	1	DL_test	15	DL_test	16			0		ta	1	1387	6	2	antiphase_hc_ios.wav	3	6	3	noise_calib_stim_LEFT.wav	1	24	blb_dichoticlistening_ka-ta.mp3	ka	ta	1	right
6.6.1	win	2023-07-13	19:41:14	0	0	5fd8c059856120277dec48ef	1	1	DL_test	15	DL_test	17			0		ga	0	3793	6	2	antiphase_hc_ios.wav	3	6	3	noise_calib_stim_LEFT.wav	1	20	blb_dichoticlistening_ka-da.mp3	ka	da	1	other
6.6.1	win	2023-07-13	19:41:14	0	0	5fd8c059856120277dec48ef	1	1	DL_test	15	DL_test	18			0		da	1	1567	6	2	antiphase_hc_ios.wav	3	6	3	noise_calib_stim_LEFT.wav	1	8	blb_dichoticlistening_da-da.mp3	da	da	0	left
6.6.1	win	2023-07-13	19:41:14	0	0	5fd8c059856120277dec48ef	1	1	DL_test	15	DL_test	19			0		pa	1	2466	6	2	antiphase_hc_ios.wav	3	6	3	noise_calib_stim_LEFT.wav	1	30	blb_dichoticlistening_pa-ta.mp3	pa	ta	1	left
6.6.1	win	2023-07-13	19:41:14	0	0	5fd8c059856120277dec48ef	1	1	DL_test	15	DL_test	20			0		ba	1	2461	6	2	antiphase_hc_ios.wav	3	6	3	noise_calib_stim_LEFT.wav	1	7	blb_dichoticlistening_da-ba.mp3	da	ba	1	right
6.6.1	win	2023-07-13	19:41:14	0	0	5fd8c059856120277dec48ef	1	1	DL_test	15	DL_test	21			0		ka	1	1577	6	2	antiphase_hc_ios.wav	3	6	3	noise_calib_stim_LEFT.wav	1	22	blb_dichoticlistening_ka-ka.mp3	ka	ka	0	left
6.6.1	win	2023-07-13	19:41:14	0	0	5fd8c059856120277dec48ef	1	1	DL_test	15	DL_test	22			0		ta	0	3362	6	2	antiphase_hc_ios.wav	3	6	3	noise_calib_stim_LEFT.wav	1	13	blb_dichoticlistening_ga-ba.mp3	ga	ba	1	other
6.6.1	win	2023-07-13	19:41:14	0	0	5fd8c059856120277dec48ef	1	1	DL_test	15	DL_test	23			0		ta	0	1611	6	2	antiphase_hc_ios.wav	3	6	3	noise_calib_stim_LEFT.wav	1	27	blb_dichoticlistening_pa-ga.mp3	pa	ga	1	other
6.6.1	win	2023-07-13	19:41:14	0	0	5fd8c059856120277dec48ef	1	1	DL_test	15	DL_test	24			0		ta	0	5581	6	2	antiphase_hc_ios.wav	3	6	3	noise_calib_stim_LEFT.wav	1	3	blb_dichoticlistening_ba-ga.mp3	ba	ga	1	other
6.6.1	win	2023-07-13	19:41:14	0	0	5fd8c059856120277dec48ef	1	1	DL_test	15	DL_test	25			0		pa	1	1395	6	2	antiphase_hc_ios.wav	3	6	3	noise_calib_stim_LEFT.wav	1	17	blb_dichoticlistening_ga-pa.mp3	ga	pa	1	right
6.6.1	win	2023-07-13	19:41:14	0	0	5fd8c059856120277dec48ef	1	1	DL_test	15	DL_test	26			0		pa	1	887	6	2	antiphase_hc_ios.wav	3	6	3	noise_calib_stim_LEFT.wav	1	5	blb_dichoticlistening_ba-pa.mp3	ba	pa	1	right
6.6.1	win	2023-07-13	19:41:14	0	0	5fd8c059856120277dec48ef	1	1	DL_test	15	DL_test	27			0		ta	0	3117	6	2	antiphase_hc_ios.wav	3	6	3	noise_calib_stim_LEFT.wav	1	23	blb_dichoticlistening_ka-pa.mp3	ka	pa	1	other
6.6.1	win	2023-07-13	19:41:14	0	0	5fd8c059856120277dec48ef	1	1	DL_test	15	DL_test	28			0		ta	1	1236	6	2	antiphase_hc_ios.wav	3	6	3	noise_calib_stim_LEFT.wav	1	32	blb_dichoticlistening_ta-da.mp3	ta	da	1	left
6.6.1	win	2023-07-13	19:41:14	0	0	5fd8c059856120277dec48ef	1	1	DL_test	15	DL_test	29			0		da	0	2029	6	2	antiphase_hc_ios.wav	3	6	3	noise_calib_stim_LEFT.wav	1	15	blb_dichoticlistening_ga-ga.mp3	ga	ga	0	other
6.6.1	win	2023-07-13	19:41:14	0	0	5fd8c059856120277dec48ef	1	1	DL_test	15	DL_test	30			0		pa	1	1582	6	2	antiphase_hc_ios.wav	3	6	3	noise_calib_stim_LEFT.wav	1	35	blb_dichoticlistening_ta-pa.mp3	ta	pa	1	right
6.6.1	win	2023-07-13	19:41:14	0	0	5fd8c059856120277dec48ef	1	1	DL_test	15	DL_test	31			0		ta	1	3323	6	2	antiphase_hc_ios.wav	3	6	3	noise_calib_stim_LEFT.wav	1	12	blb_dichoticlistening_da-ta.mp3	da	ta	1	right
6.6.1	win	2023-07-13	19:41:14	0	0	5fd8c059856120277dec48ef	1	1	DL_test	15	DL_test	32			0		ta	1	1659	6	2	antiphase_hc_ios.wav	3	6	3	noise_calib_stim_LEFT.wav	1	18	blb_dichoticlistening_ga-ta.mp3	ga	ta	1	right
6.6.1	win	2023-07-13	19:41:14	0	0	5fd8c059856120277dec48ef	1	1	DL_test	15	DL_test	33			0		ta	0	2153	6	2	antiphase_hc_ios.wav	3	6	3	noise_calib_stim_LEFT.wav	1	21	blb_dichoticlistening_ka-ga.mp3	ka	ga	1	other
6.6.1	win	2023-07-13	19:41:14	0	0	5fd8c059856120277dec48ef	1	1	DL_test	15	DL_test	34			0		ka	1	1552	6	2	antiphase_hc_ios.wav	3	6	3	noise_calib_stim_LEFT.wav	1	34	blb_dichoticlistening_ta-ka.mp3	ta	ka	1	right
6.6.1	win	2023-07-13	19:41:14	0	0	5fd8c059856120277dec48ef	1	1	DL_test	15	DL_test	35			0		ta	0	1760	6	2	antiphase_hc_ios.wav	3	6	3	noise_calib_stim_LEFT.wav	1	10	blb_dichoticlistening_da-ka.mp3	da	ka	1	other
6.6.1	win	2023-07-13	19:41:14	0	0	5fd8c059856120277dec48ef	1	1	DL_test	15	DL_test	36			0		pa	0	1271	6	2	antiphase_hc_ios.wav	3	6	3	noise_calib_stim_LEFT.wav	1	1	blb_dichoticlistening_ba-ba.mp3	ba	ba	0	other
6.6.1	win	2023-07-13	19:41:14	0	0	5fd8c059856120277dec48ef	1	1	DL_test	16	DL_test	1			0		ka	1	1406	6	2	antiphase_hc_ios.wav	3	6	3	noise_calib_stim_LEFT.wav	1	22	blb_dichoticlistening_ka-ka.mp3	ka	ka	0	left
6.6.1	win	2023-07-13	19:41:14	0	0	5fd8c059856120277dec48ef	1	1	DL_test	16	DL_test	2			0		pa	1	1570	6	2	antiphase_hc_ios.wav	3	6	3	noise_calib_stim_LEFT.wav	1	26	blb_dichoticlistening_pa-da.mp3	pa	da	1	left
6.6.1	win	2023-07-13	19:41:14	0	0	5fd8c059856120277dec48ef	1	1	DL_test	16	DL_test	3			0		ta	1	1406	6	2	antiphase_hc_ios.wav	3	6	3	noise_calib_stim_LEFT.wav	1	33	blb_dichoticlistening_ta-ga.mp3	ta	ga	1	left
6.6.1	win	2023-07-13	19:41:14	0	0	5fd8c059856120277dec48ef	1	1	DL_test	16	DL_test	4			0		pa	1	1255	6	2	antiphase_hc_ios.wav	3	6	3	noise_calib_stim_LEFT.wav	1	5	blb_dichoticlistening_ba-pa.mp3	ba	pa	1	right
6.6.1	win	2023-07-13	19:41:14	0	0	5fd8c059856120277dec48ef	1	1	DL_test	16	DL_test	5			0		pa	0	914	6	2	antiphase_hc_ios.wav	3	6	3	noise_calib_stim_LEFT.wav	1	4	blb_dichoticlistening_ba-ka.mp3	ba	ka	1	other
6.6.1	win	2023-07-13	19:41:14	0	0	5fd8c059856120277dec48ef	1	1	DL_test	16	DL_test	6			0		pa	0	1505	6	2	antiphase_hc_ios.wav	3	6	3	noise_calib_stim_LEFT.wav	1	10	blb_dichoticlistening_da-ka.mp3	da	ka	1	other
6.6.1	win	2023-07-13	19:41:14	0	0	5fd8c059856120277dec48ef	1	1	DL_test	16	DL_test	7			0		pa	0	921	6	2	antiphase_hc_ios.wav	3	6	3	noise_calib_stim_LEFT.wav	1	1	blb_dichoticlistening_ba-ba.mp3	ba	ba	0	other
6.6.1	win	2023-07-13	19:41:14	0	0	5fd8c059856120277dec48ef	1	1	DL_test	16	DL_test	8			0		ta	1	2449	6	2	antiphase_hc_ios.wav	3	6	3	noise_calib_stim_LEFT.wav	1	24	blb_dichoticlistening_ka-ta.mp3	ka	ta	1	right
6.6.1	win	2023-07-13	19:41:14	0	0	5fd8c059856120277dec48ef	1	1	DL_test	16	DL_test	9			0		ta	1	824	6	2	antiphase_hc_ios.wav	3	6	3	noise_calib_stim_LEFT.wav	1	18	blb_dichoticlistening_ga-ta.mp3	ga	ta	1	right
6.6.1	win	2023-07-13	19:41:14	0	0	5fd8c059856120277dec48ef	1	1	DL_test	16	DL_test	10			0		ta	0	2363	6	2	antiphase_hc_ios.wav	3	6	3	noise_calib_stim_LEFT.wav	1	21	blb_dichoticlistening_ka-ga.mp3	ka	ga	1	other
6.6.1	win	2023-07-13	19:41:14	0	0	5fd8c059856120277dec48ef	1	1	DL_test	16	DL_test	11			0		pa	1	1240	6	2	antiphase_hc_ios.wav	3	6	3	noise_calib_stim_LEFT.wav	1	28	blb_dichoticlistening_pa-ka.mp3	pa	ka	1	left
6.6.1	win	2023-07-13	19:41:14	0	0	5fd8c059856120277dec48ef	1	1	DL_test	16	DL_test	12			0		pa	0	721	6	2	antiphase_hc_ios.wav	3	6	3	noise_calib_stim_LEFT.wav	1	31	blb_dichoticlistening_ta-ba.mp3	ta	ba	1	other
6.6.1	win	2023-07-13	19:41:14	0	0	5fd8c059856120277dec48ef	1	1	DL_test	16	DL_test	13			0		ta	0	1917	6	2	antiphase_hc_ios.wav	3	6	3	noise_calib_stim_LEFT.wav	1	16	blb_dichoticlistening_ga-ka.mp3	ga	ka	1	other
6.6.1	win	2023-07-13	19:41:14	0	0	5fd8c059856120277dec48ef	1	1	DL_test	16	DL_test	14			0		da	1	1539	6	2	antiphase_hc_ios.wav	3	6	3	noise_calib_stim_LEFT.wav	1	9	blb_dichoticlistening_da-ga.mp3	da	ga	1	left
6.6.1	win	2023-07-13	19:41:14	0	0	5fd8c059856120277dec48ef	1	1	DL_test	16	DL_test	15			0		pa	1	1548	6	2	antiphase_hc_ios.wav	3	6	3	noise_calib_stim_LEFT.wav	1	29	blb_dichoticlistening_pa-pa.mp3	pa	pa	0	left
6.6.1	win	2023-07-13	19:41:14	0	0	5fd8c059856120277dec48ef	1	1	DL_test	16	DL_test	16			0		ga	1	2446	6	2	antiphase_hc_ios.wav	3	6	3	noise_calib_stim_LEFT.wav	1	14	blb_dichoticlistening_ga-da.mp3	ga	da	1	left
6.6.1	win	2023-07-13	19:41:14	0	0	5fd8c059856120277dec48ef	1	1	DL_test	16	DL_test	17			0		ba	1	2475	6	2	antiphase_hc_ios.wav	3	6	3	noise_calib_stim_LEFT.wav	1	3	blb_dichoticlistening_ba-ga.mp3	ba	ga	1	left
6.6.1	win	2023-07-13	19:41:14	0	0	5fd8c059856120277dec48ef	1	1	DL_test	16	DL_test	18			0		ba	1	1423	6	2	antiphase_hc_ios.wav	3	6	3	noise_calib_stim_LEFT.wav	1	13	blb_dichoticlistening_ga-ba.mp3	ga	ba	1	right
6.6.1	win	2023-07-13	19:41:14	0	0	5fd8c059856120277dec48ef	1	1	DL_test	16	DL_test	19			0		pa	0	2204	6	2	antiphase_hc_ios.wav	3	6	3	noise_calib_stim_LEFT.wav	1	19	blb_dichoticlistening_ka-ba.mp3	ka	ba	1	other
6.6.1	win	2023-07-13	19:41:14	0	0	5fd8c059856120277dec48ef	1	1	DL_test	16	DL_test	20			0		ta	1	2118	6	2	antiphase_hc_ios.wav	3	6	3	noise_calib_stim_LEFT.wav	1	34	blb_dichoticlistening_ta-ka.mp3	ta	ka	1	left
6.6.1	win	2023-07-13	19:41:14	0	0	5fd8c059856120277dec48ef	1	1	DL_test	16	DL_test	21			0		pa	1	1531	6	2	antiphase_hc_ios.wav	3	6	3	noise_calib_stim_LEFT.wav	1	11	blb_dichoticlistening_da-pa.mp3	da	pa	1	right
6.6.1	win	2023-07-13	19:41:14	0	0	5fd8c059856120277dec48ef	1	1	DL_test	16	DL_test	22			0		pa	0	825	6	2	antiphase_hc_ios.wav	3	6	3	noise_calib_stim_LEFT.wav	1	7	blb_dichoticlistening_da-ba.mp3	da	ba	1	other
6.6.1	win	2023-07-13	19:41:14	0	0	5fd8c059856120277dec48ef	1	1	DL_test	16	DL_test	23			0		ta	0	2099	6	2	antiphase_hc_ios.wav	3	6	3	noise_calib_stim_LEFT.wav	1	17	blb_dichoticlistening_ga-pa.mp3	ga	pa	1	other
6.6.1	win	2023-07-13	19:41:14	0	0	5fd8c059856120277dec48ef	1	1	DL_test	16	DL_test	24			0		ta	1	690	6	2	antiphase_hc_ios.wav	3	6	3	noise_calib_stim_LEFT.wav	1	32	blb_dichoticlistening_ta-da.mp3	ta	da	1	left
6.6.1	win	2023-07-13	19:41:14	0	0	5fd8c059856120277dec48ef	1	1	DL_test	16	DL_test	25			0		pa	1	1760	6	2	antiphase_hc_ios.wav	3	6	3	noise_calib_stim_LEFT.wav	1	23	blb_dichoticlistening_ka-pa.mp3	ka	pa	1	right
6.6.1	win	2023-07-13	19:41:14	0	0	5fd8c059856120277dec48ef	1	1	DL_test	16	DL_test	26			0		pa	1	715	6	2	antiphase_hc_ios.wav	3	6	3	noise_calib_stim_LEFT.wav	1	25	blb_dichoticlistening_pa-ba.mp3	pa	ba	1	left
6.6.1	win	2023-07-13	19:41:14	0	0	5fd8c059856120277dec48ef	1	1	DL_test	16	DL_test	27			0		pa	1	826	6	2	antiphase_hc_ios.wav	3	6	3	noise_calib_stim_LEFT.wav	1	35	blb_dichoticlistening_ta-pa.mp3	ta	pa	1	right
6.6.1	win	2023-07-13	19:41:14	0	0	5fd8c059856120277dec48ef	1	1	DL_test	16	DL_test	28			0		da	1	1565	6	2	antiphase_hc_ios.wav	3	6	3	noise_calib_stim_LEFT.wav	1	8	blb_dichoticlistening_da-da.mp3	da	da	0	left
6.6.1	win	2023-07-13	19:41:14	0	0	5fd8c059856120277dec48ef	1	1	DL_test	16	DL_test	29			0		pa	0	1503	6	2	antiphase_hc_ios.wav	3	6	3	noise_calib_stim_LEFT.wav	1	6	blb_dichoticlistening_ba-ta.mp3	ba	ta	1	other
6.6.1	win	2023-07-13	19:41:14	0	0	5fd8c059856120277dec48ef	1	1	DL_test	16	DL_test	30			0		ta	0	2207	6	2	antiphase_hc_ios.wav	3	6	3	noise_calib_stim_LEFT.wav	1	20	blb_dichoticlistening_ka-da.mp3	ka	da	1	other
6.6.1	win	2023-07-13	19:41:14	0	0	5fd8c059856120277dec48ef	1	1	DL_test	16	DL_test	31			0		pa	0	1976	6	2	antiphase_hc_ios.wav	3	6	3	noise_calib_stim_LEFT.wav	1	2	blb_dichoticlistening_ba-da.mp3	ba	da	1	other
6.6.1	win	2023-07-13	19:41:14	0	0	5fd8c059856120277dec48ef	1	1	DL_test	16	DL_test	32			0		pa	1	957	6	2	antiphase_hc_ios.wav	3	6	3	noise_calib_stim_LEFT.wav	1	30	blb_dichoticlistening_pa-ta.mp3	pa	ta	1	left
6.6.1	win	2023-07-13	19:41:14	0	0	5fd8c059856120277dec48ef	1	1	DL_test	16	DL_test	33			0		da	0	2093	6	2	antiphase_hc_ios.wav	3	6	3	noise_calib_stim_LEFT.wav	1	15	blb_dichoticlistening_ga-ga.mp3	ga	ga	0	other
6.6.1	win	2023-07-13	19:41:14	0	0	5fd8c059856120277dec48ef	1	1	DL_test	16	DL_test	34			0		ta	1	2227	6	2	antiphase_hc_ios.wav	3	6	3	noise_calib_stim_LEFT.wav	1	12	blb_dichoticlistening_da-ta.mp3	da	ta	1	right
6.6.1	win	2023-07-13	19:41:14	0	0	5fd8c059856120277dec48ef	1	1	DL_test	16	DL_test	35			0		pa	1	1367	6	2	antiphase_hc_ios.wav	3	6	3	noise_calib_stim_LEFT.wav	1	27	blb_dichoticlistening_pa-ga.mp3	pa	ga	1	left
6.6.1	win	2023-07-13	19:41:14	0	0	5fd8c059856120277dec48ef	1	1	DL_test	16	DL_test	36			0		ta	1	2291	6	2	antiphase_hc_ios.wav	3	6	3	noise_calib_stim_LEFT.wav	1	36	blb_dichoticlistening_ta-ta.mp3	ta	ta	0	left
6.6.1	win	2023-07-13	19:41:14	19:54:42	802277	5fd8c059856120277dec48ef	1	1	practice_slash	22	practice_slash	1	stimuli_target_diamondsquares.svg	stimuli_distractor_diamondtriangles.svg	3	yes	0	0	1996	6	2	antiphase_hc_ios.wav	3	6	3	noise_calib_stim_LEFT.wav	1	36	blb_dichoticlistening_ta-ta.mp3	ta	ta	0	left
6.6.1	win	2023-07-13	19:41:14	19:54:42	802277	5fd8c059856120277dec48ef	1	1	practice_slash	22	advance_on_keypress_SLASH	2	stimuli_target_diamondsquares.svg	stimuli_distractor_diamondtriangles.svg	3	yes	57	0	2957	6	2	antiphase_hc_ios.wav	3	6	3	noise_calib_stim_LEFT.wav	1	36	blb_dichoticlistening_ta-ta.mp3	ta	ta	0	left
6.6.1	win	2023-07-13	19:41:14	19:54:47	807423	5fd8c059856120277dec48ef	1	1	practice_slash	22	practice_slash	3	stimuli_target_squarediamonds.svg	stimuli_distractor_trianglediamonds.svg	5	yes	53	1	517	6	2	antiphase_hc_ios.wav	3	6	3	noise_calib_stim_LEFT.wav	1	36	blb_dichoticlistening_ta-ta.mp3	ta	ta	0	left
6.6.1	win	2023-07-13	19:41:14	19:54:47	807423	5fd8c059856120277dec48ef	1	1	practice_slash	22	advance_on_keypress_SLASH	4	stimuli_target_squarediamonds.svg	stimuli_distractor_trianglediamonds.svg	5	yes	57	0	1145	6	2	antiphase_hc_ios.wav	3	6	3	noise_calib_stim_LEFT.wav	1	36	blb_dichoticlistening_ta-ta.mp3	ta	ta	0	left
6.6.1	win	2023-07-13	19:41:14	19:54:51	810627	5fd8c059856120277dec48ef	1	1	practice_slash	22	practice_slash	5	stimuli_distractor_trianglediamonds.svg	stimuli_target_diamondrectangles.svg	12	yes	53	1	388	6	2	antiphase_hc_ios.wav	3	6	3	noise_calib_stim_LEFT.wav	1	36	blb_dichoticlistening_ta-ta.mp3	ta	ta	0	left
6.6.1	win	2023-07-13	19:41:14	19:54:51	810627	5fd8c059856120277dec48ef	1	1	practice_slash	22	advance_on_keypress_SLASH	6	stimuli_distractor_trianglediamonds.svg	stimuli_target_diamondrectangles.svg	12	yes	57	0	1598	6	2	antiphase_hc_ios.wav	3	6	3	noise_calib_stim_LEFT.wav	1	36	blb_dichoticlistening_ta-ta.mp3	ta	ta	0	left
6.6.1	win	2023-07-13	19:41:14	19:54:54	814292	5fd8c059856120277dec48ef	1	1	practice_slash	22	practice_slash	7	stimuli_distractor_diamondtriangles.svg	stimuli_target_rectangletriangles.svg	7	yes	53	1	386	6	2	antiphase_hc_ios.wav	3	6	3	noise_calib_stim_LEFT.wav	1	36	blb_dichoticlistening_ta-ta.mp3	ta	ta	0	left
6.6.1	win	2023-07-13	19:41:14	19:54:54	814292	5fd8c059856120277dec48ef	1	1	practice_slash	22	advance_on_keypress_SLASH	8	stimuli_distractor_diamondtriangles.svg	stimuli_target_rectangletriangles.svg	7	yes	57	0	1915	6	2	antiphase_hc_ios.wav	3	6	3	noise_calib_stim_LEFT.wav	1	36	blb_dichoticlistening_ta-ta.mp3	ta	ta	0	left
6.6.1	win	2023-07-13	19:41:14	19:54:58	818302	5fd8c059856120277dec48ef	1	1	practice_slash	22	practice_slash	9	stimuli_target_squarediamonds.svg	stimuli_distractor_diamondtriangles.svg	2	yes	53	1	434	6	2	antiphase_hc_ios.wav	3	6	3	noise_calib_stim_LEFT.wav	1	36	blb_dichoticlistening_ta-ta.mp3	ta	ta	0	left
6.6.1	win	2023-07-13	19:41:14	19:54:58	818302	5fd8c059856120277dec48ef	1	1	practice_slash	22	advance_on_keypress_SLASH	10	stimuli_target_squarediamonds.svg	stimuli_distractor_diamondtriangles.svg	2	yes	57	0	1357	6	2	antiphase_hc_ios.wav	3	6	3	noise_calib_stim_LEFT.wav	1	36	blb_dichoticlistening_ta-ta.mp3	ta	ta	0	left
6.6.1	win	2023-07-13	19:41:14	19:55:03	823318	5fd8c059856120277dec48ef	1	1	practice_slash	22	practice_slash	11	stimuli_distractor_diamondtriangles.svg	stimuli_target_diamondrectangles.svg	8	yes	0	0	1996	6	2	antiphase_hc_ios.wav	3	6	3	noise_calib_stim_LEFT.wav	1	36	blb_dichoticlistening_ta-ta.mp3	ta	ta	0	left
6.6.1	win	2023-07-13	19:41:14	19:55:03	823318	5fd8c059856120277dec48ef	1	1	practice_slash	22	advance_on_keypress_SLASH	12	stimuli_distractor_diamondtriangles.svg	stimuli_target_diamondrectangles.svg	8	yes	57	0	750	6	2	antiphase_hc_ios.wav	3	6	3	noise_calib_stim_LEFT.wav	1	36	blb_dichoticlistening_ta-ta.mp3	ta	ta	0	left
6.6.1	win	2023-07-13	19:41:14	19:55:08	827736	5fd8c059856120277dec48ef	1	1	practice_slash	22	practice_slash	13	stimuli_target_diamondsquares.svg	stimuli_distractor_trianglediamonds.svg	6	yes	0	0	1996	6	2	antiphase_hc_ios.wav	3	6	3	noise_calib_stim_LEFT.wav	1	36	blb_dichoticlistening_ta-ta.mp3	ta	ta	0	left
6.6.1	win	2023-07-13	19:41:14	19:55:08	827736	5fd8c059856120277dec48ef	1	1	practice_slash	22	advance_on_keypress_SLASH	14	stimuli_target_diamondsquares.svg	stimuli_distractor_trianglediamonds.svg	6	yes	57	0	823	6	2	antiphase_hc_ios.wav	3	6	3	noise_calib_stim_LEFT.wav	1	36	blb_dichoticlistening_ta-ta.mp3	ta	ta	0	left
6.6.1	win	2023-07-13	19:41:14	19:55:10	830567	5fd8c059856120277dec48ef	1	1	practice_slash	22	practice_slash	15	stimuli_distractor_trianglediamonds.svg	stimuli_target_rectanglediamonds.svg	10	yes	53	1	328	6	2	antiphase_hc_ios.wav	3	6	3	noise_calib_stim_LEFT.wav	1	36	blb_dichoticlistening_ta-ta.mp3	ta	ta	0	left
6.6.1	win	2023-07-13	19:41:14	19:55:10	830567	5fd8c059856120277dec48ef	1	1	practice_slash	22	advance_on_keypress_SLASH	16	stimuli_distractor_trianglediamonds.svg	stimuli_target_rectanglediamonds.svg	10	yes	57	0	2551	6	2	antiphase_hc_ios.wav	3	6	3	noise_calib_stim_LEFT.wav	1	36	blb_dichoticlistening_ta-ta.mp3	ta	ta	0	left
6.6.1	win	2023-07-13	19:41:14	19:55:15	835173	5fd8c059856120277dec48ef	1	1	practice_slash	22	practice_slash	17	stimuli_distractor_trianglediamonds.svg	stimuli_target_squarediamonds.svg	11	yes	53	1	392	6	2	antiphase_hc_ios.wav	3	6	3	noise_calib_stim_LEFT.wav	1	36	blb_dichoticlistening_ta-ta.mp3	ta	ta	0	left
6.6.1	win	2023-07-13	19:41:14	19:55:15	835173	5fd8c059856120277dec48ef	1	1	practice_slash	22	advance_on_keypress_SLASH	18	stimuli_distractor_trianglediamonds.svg	stimuli_target_squarediamonds.svg	11	yes	57	0	1031	6	2	antiphase_hc_ios.wav	3	6	3	noise_calib_stim_LEFT.wav	1	36	blb_dichoticlistening_ta-ta.mp3	ta	ta	0	left
6.6.1	win	2023-07-13	19:41:14	19:55:20	839860	5fd8c059856120277dec48ef	1	1	practice_slash	22	practice_slash	19	stimuli_distractor_trianglediamonds.svg	stimuli_distractor_diamondtriangles.svg	16	no	0	1	1996	6	2	antiphase_hc_ios.wav	3	6	3	noise_calib_stim_LEFT.wav	1	36	blb_dichoticlistening_ta-ta.mp3	ta	ta	0	left
6.6.1	win	2023-07-13	19:41:14	19:55:20	839860	5fd8c059856120277dec48ef	1	1	practice_slash	22	advance_on_keypress_SLASH	20	stimuli_distractor_trianglediamonds.svg	stimuli_distractor_diamondtriangles.svg	16	no	57	0	821	6	2	antiphase_hc_ios.wav	3	6	3	noise_calib_stim_LEFT.wav	1	36	blb_dichoticlistening_ta-ta.mp3	ta	ta	0	left
6.6.1	win	2023-07-13	19:41:14	19:55:24	844340	5fd8c059856120277dec48ef	1	1	practice_slash	22	practice_slash	21	stimuli_distractor_diamondtriangles.svg	stimuli_distractor_diamondtriangles.svg	13	no	0	1	1996	6	2	antiphase_hc_ios.wav	3	6	3	noise_calib_stim_LEFT.wav	1	36	blb_dichoticlistening_ta-ta.mp3	ta	ta	0	left
6.6.1	win	2023-07-13	19:41:14	19:55:24	844340	5fd8c059856120277dec48ef	1	1	practice_slash	22	advance_on_keypress_SLASH	22	stimuli_distractor_diamondtriangles.svg	stimuli_distractor_diamondtriangles.svg	13	no	57	0	1207	6	2	antiphase_hc_ios.wav	3	6	3	noise_calib_stim_LEFT.wav	1	36	blb_dichoticlistening_ta-ta.mp3	ta	ta	0	left
6.6.1	win	2023-07-13	19:41:14	19:55:27	847582	5fd8c059856120277dec48ef	1	1	practice_slash	22	practice_slash	23	stimuli_target_rectanglediamonds.svg	stimuli_distractor_trianglediamonds.svg	4	yes	53	1	364	6	2	antiphase_hc_ios.wav	3	6	3	noise_calib_stim_LEFT.wav	1	36	blb_dichoticlistening_ta-ta.mp3	ta	ta	0	left
6.6.1	win	2023-07-13	19:41:14	19:55:27	847582	5fd8c059856120277dec48ef	1	1	practice_slash	22	advance_on_keypress_SLASH	24	stimuli_target_rectanglediamonds.svg	stimuli_distractor_trianglediamonds.svg	4	yes	57	0	758	6	2	antiphase_hc_ios.wav	3	6	3	noise_calib_stim_LEFT.wav	1	36	blb_dichoticlistening_ta-ta.mp3	ta	ta	0	left
6.6.1	win	2023-07-13	19:41:14	19:55:32	851985	5fd8c059856120277dec48ef	1	1	practice_slash	22	practice_slash	25	stimuli_distractor_diamondtriangles.svg	stimuli_distractor_trianglediamonds.svg	14	no	0	1	1996	6	2	antiphase_hc_ios.wav	3	6	3	noise_calib_stim_LEFT.wav	1	36	blb_dichoticlistening_ta-ta.mp3	ta	ta	0	left
6.6.1	win	2023-07-13	19:41:14	19:55:32	851985	5fd8c059856120277dec48ef	1	1	practice_slash	22	advance_on_keypress_SLASH	26	stimuli_distractor_diamondtriangles.svg	stimuli_distractor_trianglediamonds.svg	14	no	57	0	949	6	2	antiphase_hc_ios.wav	3	6	3	noise_calib_stim_LEFT.wav	1	36	blb_dichoticlistening_ta-ta.mp3	ta	ta	0	left
6.6.1	win	2023-07-13	19:41:14	19:55:36	856590	5fd8c059856120277dec48ef	1	1	practice_slash	22	practice_slash	27	stimuli_distractor_trianglediamonds.svg	stimuli_distractor_trianglediamonds.svg	15	no	0	1	1996	6	2	antiphase_hc_ios.wav	3	6	3	noise_calib_stim_LEFT.wav	1	36	blb_dichoticlistening_ta-ta.mp3	ta	ta	0	left
6.6.1	win	2023-07-13	19:41:14	19:55:36	856590	5fd8c059856120277dec48ef	1	1	practice_slash	22	advance_on_keypress_SLASH	28	stimuli_distractor_trianglediamonds.svg	stimuli_distractor_trianglediamonds.svg	15	no	57	0	1834	6	2	antiphase_hc_ios.wav	3	6	3	noise_calib_stim_LEFT.wav	1	36	blb_dichoticlistening_ta-ta.mp3	ta	ta	0	left
6.6.1	win	2023-07-13	19:41:14	19:55:40	860495	5fd8c059856120277dec48ef	1	1	practice_slash	22	practice_slash	29	stimuli_target_rectanglediamonds.svg	stimuli_distractor_diamondtriangles.svg	1	yes	53	1	401	6	2	antiphase_hc_ios.wav	3	6	3	noise_calib_stim_LEFT.wav	1	36	blb_dichoticlistening_ta-ta.mp3	ta	ta	0	left
6.6.1	win	2023-07-13	19:41:14	19:55:40	860495	5fd8c059856120277dec48ef	1	1	practice_slash	22	advance_on_keypress_SLASH	30	stimuli_target_rectanglediamonds.svg	stimuli_distractor_diamondtriangles.svg	1	yes	57	0	806	6	2	antiphase_hc_ios.wav	3	6	3	noise_calib_stim_LEFT.wav	1	36	blb_dichoticlistening_ta-ta.mp3	ta	ta	0	left
6.6.1	win	2023-07-13	19:41:14	19:55:45	864965	5fd8c059856120277dec48ef	1	1	practice_slash	22	practice_slash	31	stimuli_distractor_diamondtriangles.svg	stimuli_target_trianglerectangles.svg	9	yes	0	0	1996	6	2	antiphase_hc_ios.wav	3	6	3	noise_calib_stim_LEFT.wav	1	36	blb_dichoticlistening_ta-ta.mp3	ta	ta	0	left
6.6.1	win	2023-07-13	19:41:14	19:55:45	864965	5fd8c059856120277dec48ef	1	1	practice_slash	22	advance_on_keypress_SLASH	32	stimuli_distractor_diamondtriangles.svg	stimuli_target_trianglerectangles.svg	9	yes	57	0	581	6	2	antiphase_hc_ios.wav	3	6	3	noise_calib_stim_LEFT.wav	1	36	blb_dichoticlistening_ta-ta.mp3	ta	ta	0	left
6.6.1	win	2023-07-13	19:41:14	19:55:55	874883	5fd8c059856120277dec48ef	1	1	main_slash	24	main_slash	1	stimuli_distractor_trianglediamonds.svg	stimuli_target_trianglesquares.svg	26	yes	53	1	896	6	2	antiphase_hc_ios.wav	3	6	3	noise_calib_stim_LEFT.wav	1	36	blb_dichoticlistening_ta-ta.mp3	ta	ta	0	left
6.6.1	win	2023-07-13	19:41:14	19:55:55	874883	5fd8c059856120277dec48ef	1	1	main_slash	24	advance_on_keypress_SLASH	2	stimuli_distractor_trianglediamonds.svg	stimuli_target_trianglesquares.svg	26	yes	57	0	1638	6	2	antiphase_hc_ios.wav	3	6	3	noise_calib_stim_LEFT.wav	1	36	blb_dichoticlistening_ta-ta.mp3	ta	ta	0	left
6.6.1	win	2023-07-13	19:41:14	19:55:59	879171	5fd8c059856120277dec48ef	1	1	main_slash	24	main_slash	3	stimuli_distractor_diamondtriangles.svg	stimuli_distractor_trianglediamonds.svg	38	no	0	1	1996	6	2	antiphase_hc_ios.wav	3	6	3	noise_calib_stim_LEFT.wav	1	36	blb_dichoticlistening_ta-ta.mp3	ta	ta	0	left
6.6.1	win	2023-07-13	19:41:14	19:55:59	879171	5fd8c059856120277dec48ef	1	1	main_slash	24	advance_on_keypress_SLASH	4	stimuli_distractor_diamondtriangles.svg	stimuli_distractor_trianglediamonds.svg	38	no	57	0	976	6	2	antiphase_hc_ios.wav	3	6	3	noise_calib_stim_LEFT.wav	1	36	blb_dichoticlistening_ta-ta.mp3	ta	ta	0	left
6.6.1	win	2023-07-13	19:41:14	19:56:01	881392	5fd8c059856120277dec48ef	1	1	main_slash	24	main_slash	5	stimuli_target_trianglerectangles.svg	stimuli_distractor_trianglediamonds.svg	17	yes	53	1	571	6	2	antiphase_hc_ios.wav	3	6	3	noise_calib_stim_LEFT.wav	1	36	blb_dichoticlistening_ta-ta.mp3	ta	ta	0	left
6.6.1	win	2023-07-13	19:41:14	19:56:01	881392	5fd8c059856120277dec48ef	1	1	main_slash	24	advance_on_keypress_SLASH	6	stimuli_target_trianglerectangles.svg	stimuli_distractor_trianglediamonds.svg	17	yes	57	0	1254	6	2	antiphase_hc_ios.wav	3	6	3	noise_calib_stim_LEFT.wav	1	36	blb_dichoticlistening_ta-ta.mp3	ta	ta	0	left
6.6.1	win	2023-07-13	19:41:14	19:56:04	883829	5fd8c059856120277dec48ef	1	1	main_slash	24	main_slash	7	stimuli_target_diamondsquares.svg	stimuli_distractor_diamondtriangles.svg	24	yes	53	1	529	6	2	antiphase_hc_ios.wav	3	6	3	noise_calib_stim_LEFT.wav	1	36	blb_dichoticlistening_ta-ta.mp3	ta	ta	0	left
6.6.1	win	2023-07-13	19:41:14	19:56:04	883829	5fd8c059856120277dec48ef	1	1	main_slash	24	advance_on_keypress_SLASH	8	stimuli_target_diamondsquares.svg	stimuli_distractor_diamondtriangles.svg	24	yes	57	0	1260	6	2	antiphase_hc_ios.wav	3	6	3	noise_calib_stim_LEFT.wav	1	36	blb_dichoticlistening_ta-ta.mp3	ta	ta	0	left
6.6.1	win	2023-07-13	19:41:14	19:56:06	886214	5fd8c059856120277dec48ef	1	1	main_slash	24	main_slash	9	stimuli_target_rectangletriangles.svg	stimuli_distractor_trianglediamonds.svg	1	yes	53	1	476	6	2	antiphase_hc_ios.wav	3	6	3	noise_calib_stim_LEFT.wav	1	36	blb_dichoticlistening_ta-ta.mp3	ta	ta	0	left
6.6.1	win	2023-07-13	19:41:14	19:56:06	886214	5fd8c059856120277dec48ef	1	1	main_slash	24	advance_on_keypress_SLASH	10	stimuli_target_rectangletriangles.svg	stimuli_distractor_trianglediamonds.svg	1	yes	57	0	1304	6	2	antiphase_hc_ios.wav	3	6	3	noise_calib_stim_LEFT.wav	1	36	blb_dichoticlistening_ta-ta.mp3	ta	ta	0	left
6.6.1	win	2023-07-13	19:41:14	19:56:10	890171	5fd8c059856120277dec48ef	1	1	main_slash	24	main_slash	11	stimuli_distractor_trianglediamonds.svg	stimuli_distractor_trianglediamonds.svg	33	no	0	1	1996	6	2	antiphase_hc_ios.wav	3	6	3	noise_calib_stim_LEFT.wav	1	36	blb_dichoticlistening_ta-ta.mp3	ta	ta	0	left
6.6.1	win	2023-07-13	19:41:14	19:56:10	890171	5fd8c059856120277dec48ef	1	1	main_slash	24	advance_on_keypress_SLASH	12	stimuli_distractor_trianglediamonds.svg	stimuli_distractor_trianglediamonds.svg	33	no	57	0	704	6	2	antiphase_hc_ios.wav	3	6	3	noise_calib_stim_LEFT.wav	1	36	blb_dichoticlistening_ta-ta.mp3	ta	ta	0	left
6.6.1	win	2023-07-13	19:41:14	19:56:12	892138	5fd8c059856120277dec48ef	1	1	main_slash	24	main_slash	13	stimuli_target_diamondrectangles.svg	stimuli_distractor_trianglediamonds.svg	19	yes	53	1	588	6	2	antiphase_hc_ios.wav	3	6	3	noise_calib_stim_LEFT.wav	1	36	blb_dichoticlistening_ta-ta.mp3	ta	ta	0	left
6.6.1	win	2023-07-13	19:41:14	19:56:12	892138	5fd8c059856120277dec48ef	1	1	main_slash	24	advance_on_keypress_SLASH	14	stimuli_target_diamondrectangles.svg	stimuli_distractor_trianglediamonds.svg	19	yes	57	0	1334	6	2	antiphase_hc_ios.wav	3	6	3	noise_calib_stim_LEFT.wav	1	36	blb_dichoticlistening_ta-ta.mp3	ta	ta	0	left
6.6.1	win	2023-07-13	19:41:14	19:56:14	894495	5fd8c059856120277dec48ef	1	1	main_slash	24	main_slash	15	stimuli_distractor_diamondtriangles.svg	stimuli_target_squaretriangles.svg	15	yes	53	1	362	6	2	antiphase_hc_ios.wav	3	6	3	noise_calib_stim_LEFT.wav	1	36	blb_dichoticlistening_ta-ta.mp3	ta	ta	0	left
6.6.1	win	2023-07-13	19:41:14	19:56:14	894495	5fd8c059856120277dec48ef	1	1	main_slash	24	advance_on_keypress_SLASH	16	stimuli_distractor_diamondtriangles.svg	stimuli_target_squaretriangles.svg	15	yes	57	0	1038	6	2	antiphase_hc_ios.wav	3	6	3	noise_calib_stim_LEFT.wav	1	36	blb_dichoticlistening_ta-ta.mp3	ta	ta	0	left
6.6.1	win	2023-07-13	19:41:14	19:56:17	896674	5fd8c059856120277dec48ef	1	1	main_slash	24	main_slash	17	stimuli_distractor_diamondtriangles.svg	stimuli_target_diamondsquares.svg	32	yes	53	1	478	6	2	antiphase_hc_ios.wav	3	6	3	noise_calib_stim_LEFT.wav	1	36	blb_dichoticlistening_ta-ta.mp3	ta	ta	0	left
6.6.1	win	2023-07-13	19:41:14	19:56:17	896674	5fd8c059856120277dec48ef	1	1	main_slash	24	advance_on_keypress_SLASH	18	stimuli_distractor_diamondtriangles.svg	stimuli_target_diamondsquares.svg	32	yes	57	0	1426	6	2	antiphase_hc_ios.wav	3	6	3	noise_calib_stim_LEFT.wav	1	36	blb_dichoticlistening_ta-ta.mp3	ta	ta	0	left
6.6.1	win	2023-07-13	19:41:14	19:56:19	899114	5fd8c059856120277dec48ef	1	1	main_slash	24	main_slash	19	stimuli_distractor_trianglediamonds.svg	stimuli_target_diamondsquares.svg	28	yes	53	1	356	6	2	antiphase_hc_ios.wav	3	6	3	noise_calib_stim_LEFT.wav	1	36	blb_dichoticlistening_ta-ta.mp3	ta	ta	0	left
6.6.1	win	2023-07-13	19:41:14	19:56:19	899114	5fd8c059856120277dec48ef	1	1	main_slash	24	advance_on_keypress_SLASH	20	stimuli_distractor_trianglediamonds.svg	stimuli_target_diamondsquares.svg	28	yes	57	0	1044	6	2	antiphase_hc_ios.wav	3	6	3	noise_calib_stim_LEFT.wav	1	36	blb_dichoticlistening_ta-ta.mp3	ta	ta	0	left
6.6.1	win	2023-07-13	19:41:14	19:56:21	901139	5fd8c059856120277dec48ef	1	1	main_slash	24	main_slash	21	stimuli_target_trianglesquares.svg	stimuli_distractor_diamondtriangles.svg	22	yes	53	1	318	6	2	antiphase_hc_ios.wav	3	6	3	noise_calib_stim_LEFT.wav	1	36	blb_dichoticlistening_ta-ta.mp3	ta	ta	0	left
6.6.1	win	2023-07-13	19:41:14	19:56:21	901139	5fd8c059856120277dec48ef	1	1	main_slash	24	advance_on_keypress_SLASH	22	stimuli_target_trianglesquares.svg	stimuli_distractor_diamondtriangles.svg	22	yes	57	0	1367	6	2	antiphase_hc_ios.wav	3	6	3	noise_calib_stim_LEFT.wav	1	36	blb_dichoticlistening_ta-ta.mp3	ta	ta	0	left
6.6.1	win	2023-07-13	19:41:14	19:56:25	905152	5fd8c059856120277dec48ef	1	1	main_slash	24	main_slash	23	stimuli_target_trianglesquares.svg	stimuli_distractor_trianglediamonds.svg	18	yes	0	0	1996	6	2	antiphase_hc_ios.wav	3	6	3	noise_calib_stim_LEFT.wav	1	36	blb_dichoticlistening_ta-ta.mp3	ta	ta	0	left
6.6.1	win	2023-07-13	19:41:14	19:56:25	905152	5fd8c059856120277dec48ef	1	1	main_slash	24	advance_on_keypress_SLASH	24	stimuli_target_trianglesquares.svg	stimuli_distractor_trianglediamonds.svg	18	yes	57	0	644	6	2	antiphase_hc_ios.wav	3	6	3	noise_calib_stim_LEFT.wav	1	36	blb_dichoticlistening_ta-ta.mp3	ta	ta	0	left
6.6.1	win	2023-07-13	19:41:14	19:56:27	906730	5fd8c059856120277dec48ef	1	1	main_slash	24	main_slash	25	stimuli_target_rectanglediamonds.svg	stimuli_distractor_trianglediamonds.svg	2	yes	53	1	263	6	2	antiphase_hc_ios.wav	3	6	3	noise_calib_stim_LEFT.wav	1	36	blb_dichoticlistening_ta-ta.mp3	ta	ta	0	left
6.6.1	win	2023-07-13	19:41:14	19:56:27	906730	5fd8c059856120277dec48ef	1	1	main_slash	24	advance_on_keypress_SLASH	26	stimuli_target_rectanglediamonds.svg	stimuli_distractor_trianglediamonds.svg	2	yes	57	0	1495	6	2	antiphase_hc_ios.wav	3	6	3	noise_calib_stim_LEFT.wav	1	36	blb_dichoticlistening_ta-ta.mp3	ta	ta	0	left
6.6.1	win	2023-07-13	19:41:14	19:56:29	909338	5fd8c059856120277dec48ef	1	1	main_slash	24	main_slash	27	stimuli_distractor_diamondtriangles.svg	stimuli_target_diamondrectangles.svg	31	yes	53	1	433	6	2	antiphase_hc_ios.wav	3	6	3	noise_calib_stim_LEFT.wav	1	36	blb_dichoticlistening_ta-ta.mp3	ta	ta	0	left
6.6.1	win	2023-07-13	19:41:14	19:56:29	909338	5fd8c059856120277dec48ef	1	1	main_slash	24	advance_on_keypress_SLASH	28	stimuli_distractor_diamondtriangles.svg	stimuli_target_diamondrectangles.svg	31	yes	57	0	747	6	2	antiphase_hc_ios.wav	3	6	3	noise_calib_stim_LEFT.wav	1	36	blb_dichoticlistening_ta-ta.mp3	ta	ta	0	left
6.6.1	win	2023-07-13	19:41:14	19:56:31	911131	5fd8c059856120277dec48ef	1	1	main_slash	24	main_slash	29	stimuli_distractor_trianglediamonds.svg	stimuli_target_squarediamonds.svg	12	yes	53	1	372	6	2	antiphase_hc_ios.wav	3	6	3	noise_calib_stim_LEFT.wav	1	36	blb_dichoticlistening_ta-ta.mp3	ta	ta	0	left
6.6.1	win	2023-07-13	19:41:14	19:56:31	911131	5fd8c059856120277dec48ef	1	1	main_slash	24	advance_on_keypress_SLASH	30	stimuli_distractor_trianglediamonds.svg	stimuli_target_squarediamonds.svg	12	yes	57	0	1065	6	2	antiphase_hc_ios.wav	3	6	3	noise_calib_stim_LEFT.wav	1	36	blb_dichoticlistening_ta-ta.mp3	ta	ta	0	left
6.6.1	win	2023-07-13	19:41:14	19:56:35	914859	5fd8c059856120277dec48ef	1	1	main_slash	24	main_slash	31	stimuli_distractor_trianglediamonds.svg	stimuli_distractor_trianglediamonds.svg	34	no	0	1	1996	6	2	antiphase_hc_ios.wav	3	6	3	noise_calib_stim_LEFT.wav	1	36	blb_dichoticlistening_ta-ta.mp3	ta	ta	0	left
6.6.1	win	2023-07-13	19:41:14	19:56:35	914859	5fd8c059856120277dec48ef	1	1	main_slash	24	advance_on_keypress_SLASH	32	stimuli_distractor_trianglediamonds.svg	stimuli_distractor_trianglediamonds.svg	34	no	57	0	641	6	2	antiphase_hc_ios.wav	3	6	3	noise_calib_stim_LEFT.wav	1	36	blb_dichoticlistening_ta-ta.mp3	ta	ta	0	left
6.6.1	win	2023-07-13	19:41:14	19:56:36	916514	5fd8c059856120277dec48ef	1	1	main_slash	24	main_slash	33	stimuli_target_squarediamonds.svg	stimuli_distractor_trianglediamonds.svg	4	yes	53	1	338	6	2	antiphase_hc_ios.wav	3	6	3	noise_calib_stim_LEFT.wav	1	36	blb_dichoticlistening_ta-ta.mp3	ta	ta	0	left
6.6.1	win	2023-07-13	19:41:14	19:56:36	916514	5fd8c059856120277dec48ef	1	1	main_slash	24	advance_on_keypress_SLASH	34	stimuli_target_squarediamonds.svg	stimuli_distractor_trianglediamonds.svg	4	yes	57	0	760	6	2	antiphase_hc_ios.wav	3	6	3	noise_calib_stim_LEFT.wav	1	36	blb_dichoticlistening_ta-ta.mp3	ta	ta	0	left
6.6.1	win	2023-07-13	19:41:14	19:56:38	918240	5fd8c059856120277dec48ef	1	1	main_slash	24	main_slash	35	stimuli_distractor_trianglediamonds.svg	stimuli_target_rectanglediamonds.svg	10	yes	53	1	315	6	2	antiphase_hc_ios.wav	3	6	3	noise_calib_stim_LEFT.wav	1	36	blb_dichoticlistening_ta-ta.mp3	ta	ta	0	left
6.6.1	win	2023-07-13	19:41:14	19:56:38	918240	5fd8c059856120277dec48ef	1	1	main_slash	24	advance_on_keypress_SLASH	36	stimuli_distractor_trianglediamonds.svg	stimuli_target_rectanglediamonds.svg	10	yes	57	0	987	6	2	antiphase_hc_ios.wav	3	6	3	noise_calib_stim_LEFT.wav	1	36	blb_dichoticlistening_ta-ta.mp3	ta	ta	0	left
6.6.1	win	2023-07-13	19:41:14	19:56:40	920129	5fd8c059856120277dec48ef	1	1	main_slash	24	main_slash	37	stimuli_target_trianglerectangles.svg	stimuli_distractor_diamondtriangles.svg	21	yes	53	1	245	6	2	antiphase_hc_ios.wav	3	6	3	noise_calib_stim_LEFT.wav	1	36	blb_dichoticlistening_ta-ta.mp3	ta	ta	0	left
6.6.1	win	2023-07-13	19:41:14	19:56:40	920129	5fd8c059856120277dec48ef	1	1	main_slash	24	advance_on_keypress_SLASH	38	stimuli_target_trianglerectangles.svg	stimuli_distractor_diamondtriangles.svg	21	yes	57	0	821	6	2	antiphase_hc_ios.wav	3	6	3	noise_calib_stim_LEFT.wav	1	36	blb_dichoticlistening_ta-ta.mp3	ta	ta	0	left
6.6.1	win	2023-07-13	19:41:14	19:56:42	922269	5fd8c059856120277dec48ef	1	1	main_slash	24	main_slash	39	stimuli_target_diamondsquares.svg	stimuli_distractor_trianglediamonds.svg	20	yes	53	1	655	6	2	antiphase_hc_ios.wav	3	6	3	noise_calib_stim_LEFT.wav	1	36	blb_dichoticlistening_ta-ta.mp3	ta	ta	0	left
6.6.1	win	2023-07-13	19:41:14	19:56:42	922269	5fd8c059856120277dec48ef	1	1	main_slash	24	advance_on_keypress_SLASH	40	stimuli_target_diamondsquares.svg	stimuli_distractor_trianglediamonds.svg	20	yes	57	0	791	6	2	antiphase_hc_ios.wav	3	6	3	noise_calib_stim_LEFT.wav	1	36	blb_dichoticlistening_ta-ta.mp3	ta	ta	0	left
6.6.1	win	2023-07-13	19:41:14	19:56:44	923967	5fd8c059856120277dec48ef	1	1	main_slash	24	main_slash	41	stimuli_distractor_diamondtriangles.svg	stimuli_distractor_diamondtriangles.svg	39	no	53	0	250	6	2	antiphase_hc_ios.wav	3	6	3	noise_calib_stim_LEFT.wav	1	36	blb_dichoticlistening_ta-ta.mp3	ta	ta	0	left
6.6.1	win	2023-07-13	19:41:14	19:56:44	923967	5fd8c059856120277dec48ef	1	1	main_slash	24	advance_on_keypress_SLASH	42	stimuli_distractor_diamondtriangles.svg	stimuli_distractor_diamondtriangles.svg	39	no	57	0	947	6	2	antiphase_hc_ios.wav	3	6	3	noise_calib_stim_LEFT.wav	1	36	blb_dichoticlistening_ta-ta.mp3	ta	ta	0	left
6.6.1	win	2023-07-13	19:41:14	19:56:46	925956	5fd8c059856120277dec48ef	1	1	main_slash	24	main_slash	43	stimuli_distractor_diamondtriangles.svg	stimuli_target_rectangletriangles.svg	13	yes	53	1	382	6	2	antiphase_hc_ios.wav	3	6	3	noise_calib_stim_LEFT.wav	1	36	blb_dichoticlistening_ta-ta.mp3	ta	ta	0	left
6.6.1	win	2023-07-13	19:41:14	19:56:46	925956	5fd8c059856120277dec48ef	1	1	main_slash	24	advance_on_keypress_SLASH	44	stimuli_distractor_diamondtriangles.svg	stimuli_target_rectangletriangles.svg	13	yes	57	0	567	6	2	antiphase_hc_ios.wav	3	6	3	noise_calib_stim_LEFT.wav	1	36	blb_dichoticlistening_ta-ta.mp3	ta	ta	0	left
6.6.1	win	2023-07-13	19:41:14	19:56:47	927560	5fd8c059856120277dec48ef	1	1	main_slash	24	main_slash	45	stimuli_distractor_diamondtriangles.svg	stimuli_distractor_trianglediamonds.svg	37	no	53	0	384	6	2	antiphase_hc_ios.wav	3	6	3	noise_calib_stim_LEFT.wav	1	36	blb_dichoticlistening_ta-ta.mp3	ta	ta	0	left
6.6.1	win	2023-07-13	19:41:14	19:56:47	927560	5fd8c059856120277dec48ef	1	1	main_slash	24	advance_on_keypress_SLASH	46	stimuli_distractor_diamondtriangles.svg	stimuli_distractor_trianglediamonds.svg	37	no	57	0	834	6	2	antiphase_hc_ios.wav	3	6	3	noise_calib_stim_LEFT.wav	1	36	blb_dichoticlistening_ta-ta.mp3	ta	ta	0	left
6.6.1	win	2023-07-13	19:41:14	19:56:49	929366	5fd8c059856120277dec48ef	1	1	main_slash	24	main_slash	47	stimuli_distractor_trianglediamonds.svg	stimuli_target_squaretriangles.svg	11	yes	53	1	315	6	2	antiphase_hc_ios.wav	3	6	3	noise_calib_stim_LEFT.wav	1	36	blb_dichoticlistening_ta-ta.mp3	ta	ta	0	left
6.6.1	win	2023-07-13	19:41:14	19:56:49	929366	5fd8c059856120277dec48ef	1	1	main_slash	24	advance_on_keypress_SLASH	48	stimuli_distractor_trianglediamonds.svg	stimuli_target_squaretriangles.svg	11	yes	57	0	722	6	2	antiphase_hc_ios.wav	3	6	3	noise_calib_stim_LEFT.wav	1	36	blb_dichoticlistening_ta-ta.mp3	ta	ta	0	left
6.6.1	win	2023-07-13	19:41:14	19:56:51	931129	5fd8c059856120277dec48ef	1	1	main_slash	24	main_slash	49	stimuli_distractor_diamondtriangles.svg	stimuli_target_rectanglediamonds.svg	14	yes	53	1	370	6	2	antiphase_hc_ios.wav	3	6	3	noise_calib_stim_LEFT.wav	1	36	blb_dichoticlistening_ta-ta.mp3	ta	ta	0	left
6.6.1	win	2023-07-13	19:41:14	19:56:51	931129	5fd8c059856120277dec48ef	1	1	main_slash	24	advance_on_keypress_SLASH	50	stimuli_distractor_diamondtriangles.svg	stimuli_target_rectanglediamonds.svg	14	yes	57	0	639	6	2	antiphase_hc_ios.wav	3	6	3	noise_calib_stim_LEFT.wav	1	36	blb_dichoticlistening_ta-ta.mp3	ta	ta	0	left
6.6.1	win	2023-07-13	19:41:14	19:56:54	934443	5fd8c059856120277dec48ef	1	1	main_slash	24	main_slash	51	stimuli_target_diamondrectangles.svg	stimuli_distractor_diamondtriangles.svg	23	yes	0	0	1996	6	2	antiphase_hc_ios.wav	3	6	3	noise_calib_stim_LEFT.wav	1	36	blb_dichoticlistening_ta-ta.mp3	ta	ta	0	left
6.6.1	win	2023-07-13	19:41:14	19:56:54	934443	5fd8c059856120277dec48ef	1	1	main_slash	24	advance_on_keypress_SLASH	52	stimuli_target_diamondrectangles.svg	stimuli_distractor_diamondtriangles.svg	23	yes	57	0	394	6	2	antiphase_hc_ios.wav	3	6	3	noise_calib_stim_LEFT.wav	1	36	blb_dichoticlistening_ta-ta.mp3	ta	ta	0	left
6.6.1	win	2023-07-13	19:41:14	19:56:56	935847	5fd8c059856120277dec48ef	1	1	main_slash	24	main_slash	53	stimuli_target_rectanglediamonds.svg	stimuli_distractor_diamondtriangles.svg	6	yes	53	1	338	6	2	antiphase_hc_ios.wav	3	6	3	noise_calib_stim_LEFT.wav	1	36	blb_dichoticlistening_ta-ta.mp3	ta	ta	0	left
6.6.1	win	2023-07-13	19:41:14	19:56:56	935847	5fd8c059856120277dec48ef	1	1	main_slash	24	advance_on_keypress_SLASH	54	stimuli_target_rectanglediamonds.svg	stimuli_distractor_diamondtriangles.svg	6	yes	57	0	661	6	2	antiphase_hc_ios.wav	3	6	3	noise_calib_stim_LEFT.wav	1	36	blb_dichoticlistening_ta-ta.mp3	ta	ta	0	left
6.6.1	win	2023-07-13	19:41:14	19:56:57	937436	5fd8c059856120277dec48ef	1	1	main_slash	24	main_slash	55	stimuli_distractor_diamondtriangles.svg	stimuli_target_trianglerectangles.svg	29	yes	53	1	260	6	2	antiphase_hc_ios.wav	3	6	3	noise_calib_stim_LEFT.wav	1	36	blb_dichoticlistening_ta-ta.mp3	ta	ta	0	left
6.6.1	win	2023-07-13	19:41:14	19:56:57	937436	5fd8c059856120277dec48ef	1	1	main_slash	24	advance_on_keypress_SLASH	56	stimuli_distractor_diamondtriangles.svg	stimuli_target_trianglerectangles.svg	29	yes	57	0	729	6	2	antiphase_hc_ios.wav	3	6	3	noise_calib_stim_LEFT.wav	1	36	blb_dichoticlistening_ta-ta.mp3	ta	ta	0	left
6.6.1	win	2023-07-13	19:41:14	19:56:59	939085	5fd8c059856120277dec48ef	1	1	main_slash	24	main_slash	57	stimuli_distractor_trianglediamonds.svg	stimuli_target_rectangletriangles.svg	9	yes	53	1	263	6	2	antiphase_hc_ios.wav	3	6	3	noise_calib_stim_LEFT.wav	1	36	blb_dichoticlistening_ta-ta.mp3	ta	ta	0	left
6.6.1	win	2023-07-13	19:41:14	19:56:59	939085	5fd8c059856120277dec48ef	1	1	main_slash	24	advance_on_keypress_SLASH	58	stimuli_distractor_trianglediamonds.svg	stimuli_target_rectangletriangles.svg	9	yes	57	0	733	6	2	antiphase_hc_ios.wav	3	6	3	noise_calib_stim_LEFT.wav	1	36	blb_dichoticlistening_ta-ta.mp3	ta	ta	0	left
6.6.1	win	2023-07-13	19:41:14	19:57:01	940828	5fd8c059856120277dec48ef	1	1	main_slash	24	main_slash	59	stimuli_distractor_trianglediamonds.svg	stimuli_target_trianglerectangles.svg	25	yes	53	1	340	6	2	antiphase_hc_ios.wav	3	6	3	noise_calib_stim_LEFT.wav	1	36	blb_dichoticlistening_ta-ta.mp3	ta	ta	0	left
6.6.1	win	2023-07-13	19:41:14	19:57:01	940828	5fd8c059856120277dec48ef	1	1	main_slash	24	advance_on_keypress_SLASH	60	stimuli_distractor_trianglediamonds.svg	stimuli_target_trianglerectangles.svg	25	yes	57	0	480	6	2	antiphase_hc_ios.wav	3	6	3	noise_calib_stim_LEFT.wav	1	36	blb_dichoticlistening_ta-ta.mp3	ta	ta	0	left
6.6.1	win	2023-07-13	19:41:14	19:57:02	942396	5fd8c059856120277dec48ef	1	1	main_slash	24	main_slash	61	stimuli_distractor_trianglediamonds.svg	stimuli_target_diamondrectangles.svg	27	yes	53	1	429	6	2	antiphase_hc_ios.wav	3	6	3	noise_calib_stim_LEFT.wav	1	36	blb_dichoticlistening_ta-ta.mp3	ta	ta	0	left
6.6.1	win	2023-07-13	19:41:14	19:57:02	942396	5fd8c059856120277dec48ef	1	1	main_slash	24	advance_on_keypress_SLASH	62	stimuli_distractor_trianglediamonds.svg	stimuli_target_diamondrectangles.svg	27	yes	57	0	1092	6	2	antiphase_hc_ios.wav	3	6	3	noise_calib_stim_LEFT.wav	1	36	blb_dichoticlistening_ta-ta.mp3	ta	ta	0	left
6.6.1	win	2023-07-13	19:41:14	19:57:06	946130	5fd8c059856120277dec48ef	1	1	main_slash	24	main_slash	63	stimuli_distractor_trianglediamonds.svg	stimuli_distractor_diamondtriangles.svg	36	no	0	1	1996	6	2	antiphase_hc_ios.wav	3	6	3	noise_calib_stim_LEFT.wav	1	36	blb_dichoticlistening_ta-ta.mp3	ta	ta	0	left
6.6.1	win	2023-07-13	19:41:14	19:57:06	946130	5fd8c059856120277dec48ef	1	1	main_slash	24	advance_on_keypress_SLASH	64	stimuli_distractor_trianglediamonds.svg	stimuli_distractor_diamondtriangles.svg	36	no	57	0	447	6	2	antiphase_hc_ios.wav	3	6	3	noise_calib_stim_LEFT.wav	1	36	blb_dichoticlistening_ta-ta.mp3	ta	ta	0	left
6.6.1	win	2023-07-13	19:41:14	19:57:07	947497	5fd8c059856120277dec48ef	1	1	main_slash	24	main_slash	65	stimuli_target_squaretriangles.svg	stimuli_distractor_diamondtriangles.svg	7	yes	53	1	259	6	2	antiphase_hc_ios.wav	3	6	3	noise_calib_stim_LEFT.wav	1	36	blb_dichoticlistening_ta-ta.mp3	ta	ta	0	left
6.6.1	win	2023-07-13	19:41:14	19:57:07	947497	5fd8c059856120277dec48ef	1	1	main_slash	24	advance_on_keypress_SLASH	66	stimuli_target_squaretriangles.svg	stimuli_distractor_diamondtriangles.svg	7	yes	57	0	654	6	2	antiphase_hc_ios.wav	3	6	3	noise_calib_stim_LEFT.wav	1	36	blb_dichoticlistening_ta-ta.mp3	ta	ta	0	left
6.6.1	win	2023-07-13	19:41:14	19:57:09	949141	5fd8c059856120277dec48ef	1	1	main_slash	24	main_slash	67	stimuli_target_rectangletriangles.svg	stimuli_distractor_diamondtriangles.svg	5	yes	53	1	340	6	2	antiphase_hc_ios.wav	3	6	3	noise_calib_stim_LEFT.wav	1	36	blb_dichoticlistening_ta-ta.mp3	ta	ta	0	left
6.6.1	win	2023-07-13	19:41:14	19:57:09	949141	5fd8c059856120277dec48ef	1	1	main_slash	24	advance_on_keypress_SLASH	68	stimuli_target_rectangletriangles.svg	stimuli_distractor_diamondtriangles.svg	5	yes	57	0	1491	6	2	antiphase_hc_ios.wav	3	6	3	noise_calib_stim_LEFT.wav	1	36	blb_dichoticlistening_ta-ta.mp3	ta	ta	0	left
6.6.1	win	2023-07-13	19:41:14	19:57:11	951497	5fd8c059856120277dec48ef	1	1	main_slash	24	main_slash	69	stimuli_distractor_diamondtriangles.svg	stimuli_target_trianglesquares.svg	30	yes	53	1	217	6	2	antiphase_hc_ios.wav	3	6	3	noise_calib_stim_LEFT.wav	1	36	blb_dichoticlistening_ta-ta.mp3	ta	ta	0	left
6.6.1	win	2023-07-13	19:41:14	19:57:11	951497	5fd8c059856120277dec48ef	1	1	main_slash	24	advance_on_keypress_SLASH	70	stimuli_distractor_diamondtriangles.svg	stimuli_target_trianglesquares.svg	30	yes	57	0	601	6	2	antiphase_hc_ios.wav	3	6	3	noise_calib_stim_LEFT.wav	1	36	blb_dichoticlistening_ta-ta.mp3	ta	ta	0	left
6.6.1	win	2023-07-13	19:41:14	19:57:13	953027	5fd8c059856120277dec48ef	1	1	main_slash	24	main_slash	71	stimuli_distractor_diamondtriangles.svg	stimuli_target_squarediamonds.svg	16	yes	53	1	268	6	2	antiphase_hc_ios.wav	3	6	3	noise_calib_stim_LEFT.wav	1	36	blb_dichoticlistening_ta-ta.mp3	ta	ta	0	left
6.6.1	win	2023-07-13	19:41:14	19:57:13	953027	5fd8c059856120277dec48ef	1	1	main_slash	24	advance_on_keypress_SLASH	72	stimuli_distractor_diamondtriangles.svg	stimuli_target_squarediamonds.svg	16	yes	57	0	454	6	2	antiphase_hc_ios.wav	3	6	3	noise_calib_stim_LEFT.wav	1	36	blb_dichoticlistening_ta-ta.mp3	ta	ta	0	left
6.6.1	win	2023-07-13	19:41:14	19:57:14	954416	5fd8c059856120277dec48ef	1	1	main_slash	24	main_slash	73	stimuli_distractor_trianglediamonds.svg	stimuli_distractor_diamondtriangles.svg	35	no	53	0	261	6	2	antiphase_hc_ios.wav	3	6	3	noise_calib_stim_LEFT.wav	1	36	blb_dichoticlistening_ta-ta.mp3	ta	ta	0	left
6.6.1	win	2023-07-13	19:41:14	19:57:14	954416	5fd8c059856120277dec48ef	1	1	main_slash	24	advance_on_keypress_SLASH	74	stimuli_distractor_trianglediamonds.svg	stimuli_distractor_diamondtriangles.svg	35	no	57	0	880	6	2	antiphase_hc_ios.wav	3	6	3	noise_calib_stim_LEFT.wav	1	36	blb_dichoticlistening_ta-ta.mp3	ta	ta	0	left
6.6.1	win	2023-07-13	19:41:14	19:57:16	956227	5fd8c059856120277dec48ef	1	1	main_slash	24	main_slash	75	stimuli_target_squaretriangles.svg	stimuli_distractor_trianglediamonds.svg	3	yes	53	1	280	6	2	antiphase_hc_ios.wav	3	6	3	noise_calib_stim_LEFT.wav	1	36	blb_dichoticlistening_ta-ta.mp3	ta	ta	0	left
6.6.1	win	2023-07-13	19:41:14	19:57:16	956227	5fd8c059856120277dec48ef	1	1	main_slash	24	advance_on_keypress_SLASH	76	stimuli_target_squaretriangles.svg	stimuli_distractor_trianglediamonds.svg	3	yes	57	0	658	6	2	antiphase_hc_ios.wav	3	6	3	noise_calib_stim_LEFT.wav	1	36	blb_dichoticlistening_ta-ta.mp3	ta	ta	0	left
6.6.1	win	2023-07-13	19:41:14	19:57:19	959526	5fd8c059856120277dec48ef	1	1	main_slash	24	main_slash	77	stimuli_distractor_diamondtriangles.svg	stimuli_distractor_diamondtriangles.svg	40	no	0	1	1996	6	2	antiphase_hc_ios.wav	3	6	3	noise_calib_stim_LEFT.wav	1	36	blb_dichoticlistening_ta-ta.mp3	ta	ta	0	left
6.6.1	win	2023-07-13	19:41:14	19:57:19	959526	5fd8c059856120277dec48ef	1	1	main_slash	24	advance_on_keypress_SLASH	78	stimuli_distractor_diamondtriangles.svg	stimuli_distractor_diamondtriangles.svg	40	no	57	0	383	6	2	antiphase_hc_ios.wav	3	6	3	noise_calib_stim_LEFT.wav	1	36	blb_dichoticlistening_ta-ta.mp3	ta	ta	0	left
6.6.1	win	2023-07-13	19:41:14	19:57:21	960930	5fd8c059856120277dec48ef	1	1	main_slash	24	main_slash	79	stimuli_target_squarediamonds.svg	stimuli_distractor_diamondtriangles.svg	8	yes	53	1	359	6	2	antiphase_hc_ios.wav	3	6	3	noise_calib_stim_LEFT.wav	1	36	blb_dichoticlistening_ta-ta.mp3	ta	ta	0	left
6.6.1	win	2023-07-13	19:41:14	19:57:21	960930	5fd8c059856120277dec48ef	1	1	main_slash	24	advance_on_keypress_SLASH	80	stimuli_target_squarediamonds.svg	stimuli_distractor_diamondtriangles.svg	8	yes	57	0	841	6	2	antiphase_hc_ios.wav	3	6	3	noise_calib_stim_LEFT.wav	1	36	blb_dichoticlistening_ta-ta.mp3	ta	ta	0	left
6.6.1	win	2023-07-13	19:41:14	19:57:23	962676	5fd8c059856120277dec48ef	1	1	main_slash	24	main_slash	81	stimuli_distractor_diamondtriangles.svg	stimuli_target_squarediamonds.svg	16	yes	53	1	251	6	2	antiphase_hc_ios.wav	3	6	3	noise_calib_stim_LEFT.wav	1	36	blb_dichoticlistening_ta-ta.mp3	ta	ta	0	left
6.6.1	win	2023-07-13	19:41:14	19:57:23	962676	5fd8c059856120277dec48ef	1	1	main_slash	24	advance_on_keypress_SLASH	82	stimuli_distractor_diamondtriangles.svg	stimuli_target_squarediamonds.svg	16	yes	57	0	2016	6	2	antiphase_hc_ios.wav	3	6	3	noise_calib_stim_LEFT.wav	1	36	blb_dichoticlistening_ta-ta.mp3	ta	ta	0	left
6.6.1	win	2023-07-13	19:41:14	19:57:26	965617	5fd8c059856120277dec48ef	1	1	main_slash	24	main_slash	83	stimuli_target_squaretriangles.svg	stimuli_distractor_trianglediamonds.svg	3	yes	53	1	255	6	2	antiphase_hc_ios.wav	3	6	3	noise_calib_stim_LEFT.wav	1	36	blb_dichoticlistening_ta-ta.mp3	ta	ta	0	left
6.6.1	win	2023-07-13	19:41:14	19:57:26	965617	5fd8c059856120277dec48ef	1	1	main_slash	24	advance_on_keypress_SLASH	84	stimuli_target_squaretriangles.svg	stimuli_distractor_trianglediamonds.svg	3	yes	57	0	1022	6	2	antiphase_hc_ios.wav	3	6	3	noise_calib_stim_LEFT.wav	1	36	blb_dichoticlistening_ta-ta.mp3	ta	ta	0	left
6.6.1	win	2023-07-13	19:41:14	19:57:27	967559	5fd8c059856120277dec48ef	1	1	main_slash	24	main_slash	85	stimuli_distractor_trianglediamonds.svg	stimuli_distractor_diamondtriangles.svg	35	no	53	0	259	6	2	antiphase_hc_ios.wav	3	6	3	noise_calib_stim_LEFT.wav	1	36	blb_dichoticlistening_ta-ta.mp3	ta	ta	0	left
6.6.1	win	2023-07-13	19:41:14	19:57:27	967559	5fd8c059856120277dec48ef	1	1	main_slash	24	advance_on_keypress_SLASH	86	stimuli_distractor_trianglediamonds.svg	stimuli_distractor_diamondtriangles.svg	35	no	57	0	775	6	2	antiphase_hc_ios.wav	3	6	3	noise_calib_stim_LEFT.wav	1	36	blb_dichoticlistening_ta-ta.mp3	ta	ta	0	left
6.6.1	win	2023-07-13	19:41:14	19:57:29	969357	5fd8c059856120277dec48ef	1	1	main_slash	24	main_slash	87	stimuli_target_squarediamonds.svg	stimuli_distractor_trianglediamonds.svg	4	yes	53	1	369	6	2	antiphase_hc_ios.wav	3	6	3	noise_calib_stim_LEFT.wav	1	36	blb_dichoticlistening_ta-ta.mp3	ta	ta	0	left
6.6.1	win	2023-07-13	19:41:14	19:57:29	969357	5fd8c059856120277dec48ef	1	1	main_slash	24	advance_on_keypress_SLASH	88	stimuli_target_squarediamonds.svg	stimuli_distractor_trianglediamonds.svg	4	yes	57	0	718	6	2	antiphase_hc_ios.wav	3	6	3	noise_calib_stim_LEFT.wav	1	36	blb_dichoticlistening_ta-ta.mp3	ta	ta	0	left
6.6.1	win	2023-07-13	19:41:14	19:57:31	971059	5fd8c059856120277dec48ef	1	1	main_slash	24	main_slash	89	stimuli_distractor_trianglediamonds.svg	stimuli_target_diamondrectangles.svg	27	yes	53	1	321	6	2	antiphase_hc_ios.wav	3	6	3	noise_calib_stim_LEFT.wav	1	36	blb_dichoticlistening_ta-ta.mp3	ta	ta	0	left
6.6.1	win	2023-07-13	19:41:14	19:57:31	971059	5fd8c059856120277dec48ef	1	1	main_slash	24	advance_on_keypress_SLASH	90	stimuli_distractor_trianglediamonds.svg	stimuli_target_diamondrectangles.svg	27	yes	57	0	1045	6	2	antiphase_hc_ios.wav	3	6	3	noise_calib_stim_LEFT.wav	1	36	blb_dichoticlistening_ta-ta.mp3	ta	ta	0	left
6.6.1	win	2023-07-13	19:41:14	19:57:35	974755	5fd8c059856120277dec48ef	1	1	main_slash	24	main_slash	91	stimuli_distractor_diamondtriangles.svg	stimuli_target_trianglesquares.svg	30	yes	0	0	1996	6	2	antiphase_hc_ios.wav	3	6	3	noise_calib_stim_LEFT.wav	1	36	blb_dichoticlistening_ta-ta.mp3	ta	ta	0	left
6.6.1	win	2023-07-13	19:41:14	19:57:35	974755	5fd8c059856120277dec48ef	1	1	main_slash	24	advance_on_keypress_SLASH	92	stimuli_distractor_diamondtriangles.svg	stimuli_target_trianglesquares.svg	30	yes	57	0	589	6	2	antiphase_hc_ios.wav	3	6	3	noise_calib_stim_LEFT.wav	1	36	blb_dichoticlistening_ta-ta.mp3	ta	ta	0	left
6.6.1	win	2023-07-13	19:41:14	19:57:36	976279	5fd8c059856120277dec48ef	1	1	main_slash	24	main_slash	93	stimuli_distractor_trianglediamonds.svg	stimuli_target_rectanglediamonds.svg	10	yes	53	1	269	6	2	antiphase_hc_ios.wav	3	6	3	noise_calib_stim_LEFT.wav	1	36	blb_dichoticlistening_ta-ta.mp3	ta	ta	0	left
6.6.1	win	2023-07-13	19:41:14	19:57:36	976279	5fd8c059856120277dec48ef	1	1	main_slash	24	advance_on_keypress_SLASH	94	stimuli_distractor_trianglediamonds.svg	stimuli_target_rectanglediamonds.svg	10	yes	57	0	537	6	2	antiphase_hc_ios.wav	3	6	3	noise_calib_stim_LEFT.wav	1	36	blb_dichoticlistening_ta-ta.mp3	ta	ta	0	left
6.6.1	win	2023-07-13	19:41:14	19:57:38	977728	5fd8c059856120277dec48ef	1	1	main_slash	24	main_slash	95	stimuli_distractor_diamondtriangles.svg	stimuli_target_diamondsquares.svg	32	yes	53	1	241	6	2	antiphase_hc_ios.wav	3	6	3	noise_calib_stim_LEFT.wav	1	36	blb_dichoticlistening_ta-ta.mp3	ta	ta	0	left
6.6.1	win	2023-07-13	19:41:14	19:57:38	977728	5fd8c059856120277dec48ef	1	1	main_slash	24	advance_on_keypress_SLASH	96	stimuli_distractor_diamondtriangles.svg	stimuli_target_diamondsquares.svg	32	yes	57	0	858	6	2	antiphase_hc_ios.wav	3	6	3	noise_calib_stim_LEFT.wav	1	36	blb_dichoticlistening_ta-ta.mp3	ta	ta	0	left
6.6.1	win	2023-07-13	19:41:14	19:57:41	981235	5fd8c059856120277dec48ef	1	1	main_slash	24	main_slash	97	stimuli_distractor_trianglediamonds.svg	stimuli_distractor_diamondtriangles.svg	36	no	0	1	1996	6	2	antiphase_hc_ios.wav	3	6	3	noise_calib_stim_LEFT.wav	1	36	blb_dichoticlistening_ta-ta.mp3	ta	ta	0	left
6.6.1	win	2023-07-13	19:41:14	19:57:41	981235	5fd8c059856120277dec48ef	1	1	main_slash	24	advance_on_keypress_SLASH	98	stimuli_distractor_trianglediamonds.svg	stimuli_distractor_diamondtriangles.svg	36	no	57	0	763	6	2	antiphase_hc_ios.wav	3	6	3	noise_calib_stim_LEFT.wav	1	36	blb_dichoticlistening_ta-ta.mp3	ta	ta	0	left
6.6.1	win	2023-07-13	19:41:14	19:57:43	982902	5fd8c059856120277dec48ef	1	1	main_slash	24	main_slash	99	stimuli_distractor_diamondtriangles.svg	stimuli_distractor_trianglediamonds.svg	37	no	53	0	247	6	2	antiphase_hc_ios.wav	3	6	3	noise_calib_stim_LEFT.wav	1	36	blb_dichoticlistening_ta-ta.mp3	ta	ta	0	left
6.6.1	win	2023-07-13	19:41:14	19:57:43	982902	5fd8c059856120277dec48ef	1	1	main_slash	24	advance_on_keypress_SLASH	100	stimuli_distractor_diamondtriangles.svg	stimuli_distractor_trianglediamonds.svg	37	no	57	0	669	6	2	antiphase_hc_ios.wav	3	6	3	noise_calib_stim_LEFT.wav	1	36	blb_dichoticlistening_ta-ta.mp3	ta	ta	0	left
6.6.1	win	2023-07-13	19:41:14	19:57:46	986234	5fd8c059856120277dec48ef	1	1	main_slash	24	main_slash	101	stimuli_target_diamondrectangles.svg	stimuli_distractor_trianglediamonds.svg	19	yes	0	0	1996	6	2	antiphase_hc_ios.wav	3	6	3	noise_calib_stim_LEFT.wav	1	36	blb_dichoticlistening_ta-ta.mp3	ta	ta	0	left
6.6.1	win	2023-07-13	19:41:14	19:57:46	986234	5fd8c059856120277dec48ef	1	1	main_slash	24	advance_on_keypress_SLASH	102	stimuli_target_diamondrectangles.svg	stimuli_distractor_trianglediamonds.svg	19	yes	57	0	584	6	2	antiphase_hc_ios.wav	3	6	3	noise_calib_stim_LEFT.wav	1	36	blb_dichoticlistening_ta-ta.mp3	ta	ta	0	left
6.6.1	win	2023-07-13	19:41:14	19:57:49	989484	5fd8c059856120277dec48ef	1	1	main_slash	24	main_slash	103	stimuli_target_trianglesquares.svg	stimuli_distractor_trianglediamonds.svg	18	yes	0	0	1996	6	2	antiphase_hc_ios.wav	3	6	3	noise_calib_stim_LEFT.wav	1	36	blb_dichoticlistening_ta-ta.mp3	ta	ta	0	left
6.6.1	win	2023-07-13	19:41:14	19:57:49	989484	5fd8c059856120277dec48ef	1	1	main_slash	24	advance_on_keypress_SLASH	104	stimuli_target_trianglesquares.svg	stimuli_distractor_trianglediamonds.svg	18	yes	57	0	387	6	2	antiphase_hc_ios.wav	3	6	3	noise_calib_stim_LEFT.wav	1	36	blb_dichoticlistening_ta-ta.mp3	ta	ta	0	left
6.6.1	win	2023-07-13	19:41:14	19:57:51	991238	5fd8c059856120277dec48ef	1	1	main_slash	24	main_slash	105	stimuli_distractor_trianglediamonds.svg	stimuli_target_trianglerectangles.svg	25	yes	53	1	708	6	2	antiphase_hc_ios.wav	3	6	3	noise_calib_stim_LEFT.wav	1	36	blb_dichoticlistening_ta-ta.mp3	ta	ta	0	left
6.6.1	win	2023-07-13	19:41:14	19:57:51	991238	5fd8c059856120277dec48ef	1	1	main_slash	24	advance_on_keypress_SLASH	106	stimuli_distractor_trianglediamonds.svg	stimuli_target_trianglerectangles.svg	25	yes	57	0	628	6	2	antiphase_hc_ios.wav	3	6	3	noise_calib_stim_LEFT.wav	1	36	blb_dichoticlistening_ta-ta.mp3	ta	ta	0	left
6.6.1	win	2023-07-13	19:41:14	19:57:53	993140	5fd8c059856120277dec48ef	1	1	main_slash	24	main_slash	107	stimuli_distractor_diamondtriangles.svg	stimuli_target_trianglerectangles.svg	29	yes	53	1	610	6	2	antiphase_hc_ios.wav	3	6	3	noise_calib_stim_LEFT.wav	1	36	blb_dichoticlistening_ta-ta.mp3	ta	ta	0	left
6.6.1	win	2023-07-13	19:41:14	19:57:53	993140	5fd8c059856120277dec48ef	1	1	main_slash	24	advance_on_keypress_SLASH	108	stimuli_distractor_diamondtriangles.svg	stimuli_target_trianglerectangles.svg	29	yes	57	0	490	6	2	antiphase_hc_ios.wav	3	6	3	noise_calib_stim_LEFT.wav	1	36	blb_dichoticlistening_ta-ta.mp3	ta	ta	0	left
6.6.1	win	2023-07-13	19:41:14	19:57:56	996297	5fd8c059856120277dec48ef	1	1	main_slash	24	main_slash	109	stimuli_target_trianglerectangles.svg	stimuli_distractor_diamondtriangles.svg	21	yes	0	0	1996	6	2	antiphase_hc_ios.wav	3	6	3	noise_calib_stim_LEFT.wav	1	36	blb_dichoticlistening_ta-ta.mp3	ta	ta	0	left
6.6.1	win	2023-07-13	19:41:14	19:57:56	996297	5fd8c059856120277dec48ef	1	1	main_slash	24	advance_on_keypress_SLASH	110	stimuli_target_trianglerectangles.svg	stimuli_distractor_diamondtriangles.svg	21	yes	57	0	498	6	2	antiphase_hc_ios.wav	3	6	3	noise_calib_stim_LEFT.wav	1	36	blb_dichoticlistening_ta-ta.mp3	ta	ta	0	left
6.6.1	win	2023-07-13	19:41:14	19:57:59	999463	5fd8c059856120277dec48ef	1	1	main_slash	24	main_slash	111	stimuli_distractor_diamondtriangles.svg	stimuli_distractor_diamondtriangles.svg	40	no	0	1	1996	6	2	antiphase_hc_ios.wav	3	6	3	noise_calib_stim_LEFT.wav	1	36	blb_dichoticlistening_ta-ta.mp3	ta	ta	0	left
6.6.1	win	2023-07-13	19:41:14	19:57:59	999463	5fd8c059856120277dec48ef	1	1	main_slash	24	advance_on_keypress_SLASH	112	stimuli_distractor_diamondtriangles.svg	stimuli_distractor_diamondtriangles.svg	40	no	57	0	308	6	2	antiphase_hc_ios.wav	3	6	3	noise_calib_stim_LEFT.wav	1	36	blb_dichoticlistening_ta-ta.mp3	ta	ta	0	left
6.6.1	win	2023-07-13	19:41:14	19:58:01	1000758	5fd8c059856120277dec48ef	1	1	main_slash	24	main_slash	113	stimuli_target_squaretriangles.svg	stimuli_distractor_diamondtriangles.svg	7	yes	53	1	311	6	2	antiphase_hc_ios.wav	3	6	3	noise_calib_stim_LEFT.wav	1	36	blb_dichoticlistening_ta-ta.mp3	ta	ta	0	left
6.6.1	win	2023-07-13	19:41:14	19:58:01	1000758	5fd8c059856120277dec48ef	1	1	main_slash	24	advance_on_keypress_SLASH	114	stimuli_target_squaretriangles.svg	stimuli_distractor_diamondtriangles.svg	7	yes	57	0	544	6	2	antiphase_hc_ios.wav	3	6	3	noise_calib_stim_LEFT.wav	1	36	blb_dichoticlistening_ta-ta.mp3	ta	ta	0	left
6.6.1	win	2023-07-13	19:41:14	19:58:02	1002353	5fd8c059856120277dec48ef	1	1	main_slash	24	main_slash	115	stimuli_target_rectangletriangles.svg	stimuli_distractor_diamondtriangles.svg	5	yes	53	1	384	6	2	antiphase_hc_ios.wav	3	6	3	noise_calib_stim_LEFT.wav	1	36	blb_dichoticlistening_ta-ta.mp3	ta	ta	0	left
6.6.1	win	2023-07-13	19:41:14	19:58:02	1002353	5fd8c059856120277dec48ef	1	1	main_slash	24	advance_on_keypress_SLASH	116	stimuli_target_rectangletriangles.svg	stimuli_distractor_diamondtriangles.svg	5	yes	57	0	567	6	2	antiphase_hc_ios.wav	3	6	3	noise_calib_stim_LEFT.wav	1	36	blb_dichoticlistening_ta-ta.mp3	ta	ta	0	left
6.6.1	win	2023-07-13	19:41:14	19:58:04	1003844	5fd8c059856120277dec48ef	1	1	main_slash	24	main_slash	117	stimuli_target_rectanglediamonds.svg	stimuli_distractor_trianglediamonds.svg	2	yes	53	1	272	6	2	antiphase_hc_ios.wav	3	6	3	noise_calib_stim_LEFT.wav	1	36	blb_dichoticlistening_ta-ta.mp3	ta	ta	0	left
6.6.1	win	2023-07-13	19:41:14	19:58:04	1003844	5fd8c059856120277dec48ef	1	1	main_slash	24	advance_on_keypress_SLASH	118	stimuli_target_rectanglediamonds.svg	stimuli_distractor_trianglediamonds.svg	2	yes	57	0	728	6	2	antiphase_hc_ios.wav	3	6	3	noise_calib_stim_LEFT.wav	1	36	blb_dichoticlistening_ta-ta.mp3	ta	ta	0	left
6.6.1	win	2023-07-13	19:41:14	19:58:05	1005528	5fd8c059856120277dec48ef	1	1	main_slash	24	main_slash	119	stimuli_target_rectangletriangles.svg	stimuli_distractor_trianglediamonds.svg	1	yes	53	1	289	6	2	antiphase_hc_ios.wav	3	6	3	noise_calib_stim_LEFT.wav	1	36	blb_dichoticlistening_ta-ta.mp3	ta	ta	0	left
6.6.1	win	2023-07-13	19:41:14	19:58:05	1005528	5fd8c059856120277dec48ef	1	1	main_slash	24	advance_on_keypress_SLASH	120	stimuli_target_rectangletriangles.svg	stimuli_distractor_trianglediamonds.svg	1	yes	57	0	906	6	2	antiphase_hc_ios.wav	3	6	3	noise_calib_stim_LEFT.wav	1	36	blb_dichoticlistening_ta-ta.mp3	ta	ta	0	left
6.6.1	win	2023-07-13	19:41:14	19:58:07	1007601	5fd8c059856120277dec48ef	1	1	main_slash	24	main_slash	121	stimuli_distractor_trianglediamonds.svg	stimuli_target_squaretriangles.svg	11	yes	53	1	504	6	2	antiphase_hc_ios.wav	3	6	3	noise_calib_stim_LEFT.wav	1	36	blb_dichoticlistening_ta-ta.mp3	ta	ta	0	left
6.6.1	win	2023-07-13	19:41:14	19:58:07	1007601	5fd8c059856120277dec48ef	1	1	main_slash	24	advance_on_keypress_SLASH	122	stimuli_distractor_trianglediamonds.svg	stimuli_target_squaretriangles.svg	11	yes	57	0	1073	6	2	antiphase_hc_ios.wav	3	6	3	noise_calib_stim_LEFT.wav	1	36	blb_dichoticlistening_ta-ta.mp3	ta	ta	0	left
6.6.1	win	2023-07-13	19:41:14	19:58:09	1009568	5fd8c059856120277dec48ef	1	1	main_slash	24	main_slash	123	stimuli_target_squarediamonds.svg	stimuli_distractor_diamondtriangles.svg	8	yes	53	1	246	6	2	antiphase_hc_ios.wav	3	6	3	noise_calib_stim_LEFT.wav	1	36	blb_dichoticlistening_ta-ta.mp3	ta	ta	0	left
6.6.1	win	2023-07-13	19:41:14	19:58:09	1009568	5fd8c059856120277dec48ef	1	1	main_slash	24	advance_on_keypress_SLASH	124	stimuli_target_squarediamonds.svg	stimuli_distractor_diamondtriangles.svg	8	yes	57	0	820	6	2	antiphase_hc_ios.wav	3	6	3	noise_calib_stim_LEFT.wav	1	36	blb_dichoticlistening_ta-ta.mp3	ta	ta	0	left
6.6.1	win	2023-07-13	19:41:14	19:58:11	1011311	5fd8c059856120277dec48ef	1	1	main_slash	24	main_slash	125	stimuli_distractor_diamondtriangles.svg	stimuli_target_rectanglediamonds.svg	14	yes	53	1	260	6	2	antiphase_hc_ios.wav	3	6	3	noise_calib_stim_LEFT.wav	1	36	blb_dichoticlistening_ta-ta.mp3	ta	ta	0	left
6.6.1	win	2023-07-13	19:41:14	19:58:11	1011311	5fd8c059856120277dec48ef	1	1	main_slash	24	advance_on_keypress_SLASH	126	stimuli_distractor_diamondtriangles.svg	stimuli_target_rectanglediamonds.svg	14	yes	57	0	1070	6	2	antiphase_hc_ios.wav	3	6	3	noise_calib_stim_LEFT.wav	1	36	blb_dichoticlistening_ta-ta.mp3	ta	ta	0	left
6.6.1	win	2023-07-13	19:41:14	19:58:13	1013304	5fd8c059856120277dec48ef	1	1	main_slash	24	main_slash	127	stimuli_distractor_diamondtriangles.svg	stimuli_target_squaretriangles.svg	15	yes	53	1	273	6	2	antiphase_hc_ios.wav	3	6	3	noise_calib_stim_LEFT.wav	1	36	blb_dichoticlistening_ta-ta.mp3	ta	ta	0	left
6.6.1	win	2023-07-13	19:41:14	19:58:13	1013304	5fd8c059856120277dec48ef	1	1	main_slash	24	advance_on_keypress_SLASH	128	stimuli_distractor_diamondtriangles.svg	stimuli_target_squaretriangles.svg	15	yes	57	0	1087	6	2	antiphase_hc_ios.wav	3	6	3	noise_calib_stim_LEFT.wav	1	36	blb_dichoticlistening_ta-ta.mp3	ta	ta	0	left
6.6.1	win	2023-07-13	19:41:14	19:58:15	1015323	5fd8c059856120277dec48ef	1	1	main_slash	24	main_slash	129	stimuli_target_rectanglediamonds.svg	stimuli_distractor_diamondtriangles.svg	6	yes	53	1	272	6	2	antiphase_hc_ios.wav	3	6	3	noise_calib_stim_LEFT.wav	1	36	blb_dichoticlistening_ta-ta.mp3	ta	ta	0	left
6.6.1	win	2023-07-13	19:41:14	19:58:15	1015323	5fd8c059856120277dec48ef	1	1	main_slash	24	advance_on_keypress_SLASH	130	stimuli_target_rectanglediamonds.svg	stimuli_distractor_diamondtriangles.svg	6	yes	57	0	979	6	2	antiphase_hc_ios.wav	3	6	3	noise_calib_stim_LEFT.wav	1	36	blb_dichoticlistening_ta-ta.mp3	ta	ta	0	left
6.6.1	win	2023-07-13	19:41:14	19:58:17	1017484	5fd8c059856120277dec48ef	1	1	main_slash	24	main_slash	131	stimuli_target_diamondsquares.svg	stimuli_distractor_trianglediamonds.svg	20	yes	53	1	516	6	2	antiphase_hc_ios.wav	3	6	3	noise_calib_stim_LEFT.wav	1	36	blb_dichoticlistening_ta-ta.mp3	ta	ta	0	left
6.6.1	win	2023-07-13	19:41:14	19:58:17	1017484	5fd8c059856120277dec48ef	1	1	main_slash	24	advance_on_keypress_SLASH	132	stimuli_target_diamondsquares.svg	stimuli_distractor_trianglediamonds.svg	20	yes	57	0	648	6	2	antiphase_hc_ios.wav	3	6	3	noise_calib_stim_LEFT.wav	1	36	blb_dichoticlistening_ta-ta.mp3	ta	ta	0	left
6.6.1	win	2023-07-13	19:41:14	19:58:19	1019313	5fd8c059856120277dec48ef	1	1	main_slash	24	main_slash	133	stimuli_distractor_diamondtriangles.svg	stimuli_target_diamondrectangles.svg	31	yes	53	1	513	6	2	antiphase_hc_ios.wav	3	6	3	noise_calib_stim_LEFT.wav	1	36	blb_dichoticlistening_ta-ta.mp3	ta	ta	0	left
6.6.1	win	2023-07-13	19:41:14	19:58:19	1019313	5fd8c059856120277dec48ef	1	1	main_slash	24	advance_on_keypress_SLASH	134	stimuli_distractor_diamondtriangles.svg	stimuli_target_diamondrectangles.svg	31	yes	57	0	658	6	2	antiphase_hc_ios.wav	3	6	3	noise_calib_stim_LEFT.wav	1	36	blb_dichoticlistening_ta-ta.mp3	ta	ta	0	left
6.6.1	win	2023-07-13	19:41:14	19:58:21	1021102	5fd8c059856120277dec48ef	1	1	main_slash	24	main_slash	135	stimuli_target_diamondsquares.svg	stimuli_distractor_diamondtriangles.svg	24	yes	53	1	489	6	2	antiphase_hc_ios.wav	3	6	3	noise_calib_stim_LEFT.wav	1	36	blb_dichoticlistening_ta-ta.mp3	ta	ta	0	left
6.6.1	win	2023-07-13	19:41:14	19:58:21	1021102	5fd8c059856120277dec48ef	1	1	main_slash	24	advance_on_keypress_SLASH	136	stimuli_target_diamondsquares.svg	stimuli_distractor_diamondtriangles.svg	24	yes	57	0	622	6	2	antiphase_hc_ios.wav	3	6	3	noise_calib_stim_LEFT.wav	1	36	blb_dichoticlistening_ta-ta.mp3	ta	ta	0	left
6.6.1	win	2023-07-13	19:41:14	19:58:23	1022676	5fd8c059856120277dec48ef	1	1	main_slash	24	main_slash	137	stimuli_distractor_trianglediamonds.svg	stimuli_target_rectangletriangles.svg	9	yes	53	1	292	6	2	antiphase_hc_ios.wav	3	6	3	noise_calib_stim_LEFT.wav	1	36	blb_dichoticlistening_ta-ta.mp3	ta	ta	0	left
6.6.1	win	2023-07-13	19:41:14	19:58:23	1022676	5fd8c059856120277dec48ef	1	1	main_slash	24	advance_on_keypress_SLASH	138	stimuli_distractor_trianglediamonds.svg	stimuli_target_rectangletriangles.svg	9	yes	57	0	2226	6	2	antiphase_hc_ios.wav	3	6	3	noise_calib_stim_LEFT.wav	1	36	blb_dichoticlistening_ta-ta.mp3	ta	ta	0	left
6.6.1	win	2023-07-13	19:41:14	19:58:26	1026079	5fd8c059856120277dec48ef	1	1	main_slash	24	main_slash	139	stimuli_distractor_trianglediamonds.svg	stimuli_target_diamondsquares.svg	28	yes	53	1	505	6	2	antiphase_hc_ios.wav	3	6	3	noise_calib_stim_LEFT.wav	1	36	blb_dichoticlistening_ta-ta.mp3	ta	ta	0	left
6.6.1	win	2023-07-13	19:41:14	19:58:26	1026079	5fd8c059856120277dec48ef	1	1	main_slash	24	advance_on_keypress_SLASH	140	stimuli_distractor_trianglediamonds.svg	stimuli_target_diamondsquares.svg	28	yes	57	0	858	6	2	antiphase_hc_ios.wav	3	6	3	noise_calib_stim_LEFT.wav	1	36	blb_dichoticlistening_ta-ta.mp3	ta	ta	0	left
6.6.1	win	2023-07-13	19:41:14	19:58:28	1028083	5fd8c059856120277dec48ef	1	1	main_slash	24	main_slash	141	stimuli_distractor_trianglediamonds.svg	stimuli_target_trianglesquares.svg	26	yes	53	1	490	6	2	antiphase_hc_ios.wav	3	6	3	noise_calib_stim_LEFT.wav	1	36	blb_dichoticlistening_ta-ta.mp3	ta	ta	0	left
6.6.1	win	2023-07-13	19:41:14	19:58:28	1028083	5fd8c059856120277dec48ef	1	1	main_slash	24	advance_on_keypress_SLASH	142	stimuli_distractor_trianglediamonds.svg	stimuli_target_trianglesquares.svg	26	yes	57	0	590	6	2	antiphase_hc_ios.wav	3	6	3	noise_calib_stim_LEFT.wav	1	36	blb_dichoticlistening_ta-ta.mp3	ta	ta	0	left
6.6.1	win	2023-07-13	19:41:14	19:58:30	1029818	5fd8c059856120277dec48ef	1	1	main_slash	24	main_slash	143	stimuli_target_diamondrectangles.svg	stimuli_distractor_diamondtriangles.svg	23	yes	53	1	496	6	2	antiphase_hc_ios.wav	3	6	3	noise_calib_stim_LEFT.wav	1	36	blb_dichoticlistening_ta-ta.mp3	ta	ta	0	left
6.6.1	win	2023-07-13	19:41:14	19:58:30	1029818	5fd8c059856120277dec48ef	1	1	main_slash	24	advance_on_keypress_SLASH	144	stimuli_target_diamondrectangles.svg	stimuli_distractor_diamondtriangles.svg	23	yes	57	0	490	6	2	antiphase_hc_ios.wav	3	6	3	noise_calib_stim_LEFT.wav	1	36	blb_dichoticlistening_ta-ta.mp3	ta	ta	0	left
6.6.1	win	2023-07-13	19:41:14	19:58:33	1032964	5fd8c059856120277dec48ef	1	1	main_slash	24	main_slash	145	stimuli_distractor_diamondtriangles.svg	stimuli_distractor_trianglediamonds.svg	38	no	0	1	1996	6	2	antiphase_hc_ios.wav	3	6	3	noise_calib_stim_LEFT.wav	1	36	blb_dichoticlistening_ta-ta.mp3	ta	ta	0	left
6.6.1	win	2023-07-13	19:41:14	19:58:33	1032964	5fd8c059856120277dec48ef	1	1	main_slash	24	advance_on_keypress_SLASH	146	stimuli_distractor_diamondtriangles.svg	stimuli_distractor_trianglediamonds.svg	38	no	57	0	1519	6	2	antiphase_hc_ios.wav	3	6	3	noise_calib_stim_LEFT.wav	1	36	blb_dichoticlistening_ta-ta.mp3	ta	ta	0	left
6.6.1	win	2023-07-13	19:41:14	19:58:36	1035817	5fd8c059856120277dec48ef	1	1	main_slash	24	main_slash	147	stimuli_distractor_trianglediamonds.svg	stimuli_distractor_trianglediamonds.svg	34	no	53	0	662	6	2	antiphase_hc_ios.wav	3	6	3	noise_calib_stim_LEFT.wav	1	36	blb_dichoticlistening_ta-ta.mp3	ta	ta	0	left
6.6.1	win	2023-07-13	19:41:14	19:58:36	1035817	5fd8c059856120277dec48ef	1	1	main_slash	24	advance_on_keypress_SLASH	148	stimuli_distractor_trianglediamonds.svg	stimuli_distractor_trianglediamonds.svg	34	no	57	0	908	6	2	antiphase_hc_ios.wav	3	6	3	noise_calib_stim_LEFT.wav	1	36	blb_dichoticlistening_ta-ta.mp3	ta	ta	0	left
6.6.1	win	2023-07-13	19:41:14	19:58:38	1037748	5fd8c059856120277dec48ef	1	1	main_slash	24	main_slash	149	stimuli_distractor_trianglediamonds.svg	stimuli_target_squarediamonds.svg	12	yes	53	1	363	6	2	antiphase_hc_ios.wav	3	6	3	noise_calib_stim_LEFT.wav	1	36	blb_dichoticlistening_ta-ta.mp3	ta	ta	0	left
6.6.1	win	2023-07-13	19:41:14	19:58:38	1037748	5fd8c059856120277dec48ef	1	1	main_slash	24	advance_on_keypress_SLASH	150	stimuli_distractor_trianglediamonds.svg	stimuli_target_squarediamonds.svg	12	yes	57	0	1409	6	2	antiphase_hc_ios.wav	3	6	3	noise_calib_stim_LEFT.wav	1	36	blb_dichoticlistening_ta-ta.mp3	ta	ta	0	left
6.6.1	win	2023-07-13	19:41:14	19:58:42	1041797	5fd8c059856120277dec48ef	1	1	main_slash	24	main_slash	151	stimuli_distractor_trianglediamonds.svg	stimuli_distractor_trianglediamonds.svg	33	no	0	1	1996	6	2	antiphase_hc_ios.wav	3	6	3	noise_calib_stim_LEFT.wav	1	36	blb_dichoticlistening_ta-ta.mp3	ta	ta	0	left
6.6.1	win	2023-07-13	19:41:14	19:58:42	1041797	5fd8c059856120277dec48ef	1	1	main_slash	24	advance_on_keypress_SLASH	152	stimuli_distractor_trianglediamonds.svg	stimuli_distractor_trianglediamonds.svg	33	no	57	0	707	6	2	antiphase_hc_ios.wav	3	6	3	noise_calib_stim_LEFT.wav	1	36	blb_dichoticlistening_ta-ta.mp3	ta	ta	0	left
6.6.1	win	2023-07-13	19:41:14	19:58:43	1043407	5fd8c059856120277dec48ef	1	1	main_slash	24	main_slash	153	stimuli_target_trianglesquares.svg	stimuli_distractor_diamondtriangles.svg	22	yes	53	1	231	6	2	antiphase_hc_ios.wav	3	6	3	noise_calib_stim_LEFT.wav	1	36	blb_dichoticlistening_ta-ta.mp3	ta	ta	0	left
6.6.1	win	2023-07-13	19:41:14	19:58:43	1043407	5fd8c059856120277dec48ef	1	1	main_slash	24	advance_on_keypress_SLASH	154	stimuli_target_trianglesquares.svg	stimuli_distractor_diamondtriangles.svg	22	yes	57	0	634	6	2	antiphase_hc_ios.wav	3	6	3	noise_calib_stim_LEFT.wav	1	36	blb_dichoticlistening_ta-ta.mp3	ta	ta	0	left
6.6.1	win	2023-07-13	19:41:14	19:58:45	1044952	5fd8c059856120277dec48ef	1	1	main_slash	24	main_slash	155	stimuli_target_trianglerectangles.svg	stimuli_distractor_trianglediamonds.svg	17	yes	53	1	255	6	2	antiphase_hc_ios.wav	3	6	3	noise_calib_stim_LEFT.wav	1	36	blb_dichoticlistening_ta-ta.mp3	ta	ta	0	left
6.6.1	win	2023-07-13	19:41:14	19:58:45	1044952	5fd8c059856120277dec48ef	1	1	main_slash	24	advance_on_keypress_SLASH	156	stimuli_target_trianglerectangles.svg	stimuli_distractor_trianglediamonds.svg	17	yes	57	0	845	6	2	antiphase_hc_ios.wav	3	6	3	noise_calib_stim_LEFT.wav	1	36	blb_dichoticlistening_ta-ta.mp3	ta	ta	0	left
6.6.1	win	2023-07-13	19:41:14	19:58:47	1046657	5fd8c059856120277dec48ef	1	1	main_slash	24	main_slash	157	stimuli_distractor_diamondtriangles.svg	stimuli_target_rectangletriangles.svg	13	yes	53	1	210	6	2	antiphase_hc_ios.wav	3	6	3	noise_calib_stim_LEFT.wav	1	36	blb_dichoticlistening_ta-ta.mp3	ta	ta	0	left
6.6.1	win	2023-07-13	19:41:14	19:58:47	1046657	5fd8c059856120277dec48ef	1	1	main_slash	24	advance_on_keypress_SLASH	158	stimuli_distractor_diamondtriangles.svg	stimuli_target_rectangletriangles.svg	13	yes	57	0	1190	6	2	antiphase_hc_ios.wav	3	6	3	noise_calib_stim_LEFT.wav	1	36	blb_dichoticlistening_ta-ta.mp3	ta	ta	0	left
6.6.1	win	2023-07-13	19:41:14	19:58:49	1048777	5fd8c059856120277dec48ef	1	1	main_slash	24	main_slash	159	stimuli_distractor_diamondtriangles.svg	stimuli_distractor_diamondtriangles.svg	39	no	53	0	267	6	2	antiphase_hc_ios.wav	3	6	3	noise_calib_stim_LEFT.wav	1	36	blb_dichoticlistening_ta-ta.mp3	ta	ta	0	left
6.6.1	win	2023-07-13	19:41:14	19:58:49	1048777	5fd8c059856120277dec48ef	1	1	main_slash	24	advance_on_keypress_SLASH	160	stimuli_distractor_diamondtriangles.svg	stimuli_distractor_diamondtriangles.svg	39	no	57	0	729	6	2	antiphase_hc_ios.wav	3	6	3	noise_calib_stim_LEFT.wav	1	36	blb_dichoticlistening_ta-ta.mp3	ta	ta	0	left
6.6.1	win	2023-07-13	19:41:14	19:59:32	1091854	5fd8c059856120277dec48ef	1	1	practice_z	26	practice_z	1	stimuli_target_squarediamonds.svg	stimuli_distractor_diamondtriangles.svg	2	yes	44	1	341	6	2	antiphase_hc_ios.wav	3	6	3	noise_calib_stim_LEFT.wav	1	36	blb_dichoticlistening_ta-ta.mp3	ta	ta	0	left
6.6.1	win	2023-07-13	19:41:14	19:59:32	1091854	5fd8c059856120277dec48ef	1	1	practice_z	26	advance_on_keypress_ZEE	2	stimuli_target_squarediamonds.svg	stimuli_distractor_diamondtriangles.svg	2	yes	57	0	1681	6	2	antiphase_hc_ios.wav	3	6	3	noise_calib_stim_LEFT.wav	1	36	blb_dichoticlistening_ta-ta.mp3	ta	ta	0	left
6.6.1	win	2023-07-13	19:41:14	19:59:35	1095550	5fd8c059856120277dec48ef	1	1	practice_z	26	practice_z	3	stimuli_target_diamondsquares.svg	stimuli_distractor_trianglediamonds.svg	6	yes	44	1	330	6	2	antiphase_hc_ios.wav	3	6	3	noise_calib_stim_LEFT.wav	1	36	blb_dichoticlistening_ta-ta.mp3	ta	ta	0	left
6.6.1	win	2023-07-13	19:41:14	19:59:35	1095550	5fd8c059856120277dec48ef	1	1	practice_z	26	advance_on_keypress_ZEE	4	stimuli_target_diamondsquares.svg	stimuli_distractor_trianglediamonds.svg	6	yes	57	0	385	6	2	antiphase_hc_ios.wav	3	6	3	noise_calib_stim_LEFT.wav	1	36	blb_dichoticlistening_ta-ta.mp3	ta	ta	0	left
6.6.1	win	2023-07-13	19:41:14	19:59:38	1097852	5fd8c059856120277dec48ef	1	1	practice_z	26	practice_z	5	stimuli_target_squarediamonds.svg	stimuli_distractor_trianglediamonds.svg	5	yes	44	1	257	6	2	antiphase_hc_ios.wav	3	6	3	noise_calib_stim_LEFT.wav	1	36	blb_dichoticlistening_ta-ta.mp3	ta	ta	0	left
6.6.1	win	2023-07-13	19:41:14	19:59:38	1097852	5fd8c059856120277dec48ef	1	1	practice_z	26	advance_on_keypress_ZEE	6	stimuli_target_squarediamonds.svg	stimuli_distractor_trianglediamonds.svg	5	yes	57	0	336	6	2	antiphase_hc_ios.wav	3	6	3	noise_calib_stim_LEFT.wav	1	36	blb_dichoticlistening_ta-ta.mp3	ta	ta	0	left
6.6.1	win	2023-07-13	19:41:14	19:59:40	1100103	5fd8c059856120277dec48ef	1	1	practice_z	26	practice_z	7	stimuli_distractor_diamondtriangles.svg	stimuli_target_diamondrectangles.svg	8	yes	44	1	258	6	2	antiphase_hc_ios.wav	3	6	3	noise_calib_stim_LEFT.wav	1	36	blb_dichoticlistening_ta-ta.mp3	ta	ta	0	left
6.6.1	win	2023-07-13	19:41:14	19:59:40	1100103	5fd8c059856120277dec48ef	1	1	practice_z	26	advance_on_keypress_ZEE	8	stimuli_distractor_diamondtriangles.svg	stimuli_target_diamondrectangles.svg	8	yes	57	0	331	6	2	antiphase_hc_ios.wav	3	6	3	noise_calib_stim_LEFT.wav	1	36	blb_dichoticlistening_ta-ta.mp3	ta	ta	0	left
6.6.1	win	2023-07-13	19:41:14	19:59:42	1102492	5fd8c059856120277dec48ef	1	1	practice_z	26	practice_z	9	stimuli_target_rectanglediamonds.svg	stimuli_distractor_diamondtriangles.svg	1	yes	44	1	397	6	2	antiphase_hc_ios.wav	3	6	3	noise_calib_stim_LEFT.wav	1	36	blb_dichoticlistening_ta-ta.mp3	ta	ta	0	left
6.6.1	win	2023-07-13	19:41:14	19:59:42	1102492	5fd8c059856120277dec48ef	1	1	practice_z	26	advance_on_keypress_ZEE	10	stimuli_target_rectanglediamonds.svg	stimuli_distractor_diamondtriangles.svg	1	yes	57	0	329	6	2	antiphase_hc_ios.wav	3	6	3	noise_calib_stim_LEFT.wav	1	36	blb_dichoticlistening_ta-ta.mp3	ta	ta	0	left
6.6.1	win	2023-07-13	19:41:14	19:59:45	1104876	5fd8c059856120277dec48ef	1	1	practice_z	26	practice_z	11	stimuli_distractor_trianglediamonds.svg	stimuli_target_diamondrectangles.svg	12	yes	44	1	382	6	2	antiphase_hc_ios.wav	3	6	3	noise_calib_stim_LEFT.wav	1	36	blb_dichoticlistening_ta-ta.mp3	ta	ta	0	left
6.6.1	win	2023-07-13	19:41:14	19:59:45	1104876	5fd8c059856120277dec48ef	1	1	practice_z	26	advance_on_keypress_ZEE	12	stimuli_distractor_trianglediamonds.svg	stimuli_target_diamondrectangles.svg	12	yes	57	0	316	6	2	antiphase_hc_ios.wav	3	6	3	noise_calib_stim_LEFT.wav	1	36	blb_dichoticlistening_ta-ta.mp3	ta	ta	0	left
6.6.1	win	2023-07-13	19:41:14	19:59:49	1108842	5fd8c059856120277dec48ef	1	1	practice_z	26	practice_z	13	stimuli_distractor_trianglediamonds.svg	stimuli_distractor_trianglediamonds.svg	15	no	0	1	1996	6	2	antiphase_hc_ios.wav	3	6	3	noise_calib_stim_LEFT.wav	1	36	blb_dichoticlistening_ta-ta.mp3	ta	ta	0	left
6.6.1	win	2023-07-13	19:41:14	19:59:49	1108842	5fd8c059856120277dec48ef	1	1	practice_z	26	advance_on_keypress_ZEE	14	stimuli_distractor_trianglediamonds.svg	stimuli_distractor_trianglediamonds.svg	15	no	57	0	667	6	2	antiphase_hc_ios.wav	3	6	3	noise_calib_stim_LEFT.wav	1	36	blb_dichoticlistening_ta-ta.mp3	ta	ta	0	left
6.6.1	win	2023-07-13	19:41:14	19:59:52	1111606	5fd8c059856120277dec48ef	1	1	practice_z	26	practice_z	15	stimuli_distractor_diamondtriangles.svg	stimuli_target_trianglerectangles.svg	9	yes	44	1	427	6	2	antiphase_hc_ios.wav	3	6	3	noise_calib_stim_LEFT.wav	1	36	blb_dichoticlistening_ta-ta.mp3	ta	ta	0	left
