build	computer.platform	date	time	timestamp	time_elapsed_ms	subject	group	session	blockcode	blocknum	trialcode	trialnum	stimulus_left	stimulus_right	stim_index	target_present	response	correct	latency	headphonecheck_countTestTrials	headphonecheck_index	headphonecheck_testSound	headphonecheck_correctResponse	stereocheck_countTestTrials	stereocheck_index	stereocheck_testSound	stereocheck_correctResponse	DL_index	DL_soundfile	DL_leftSound	DL_rightSound	DL_dualSound	DL_choice
6.6.1	win	2023-07-10	13:28:01	13:30:34	148916	5c2e33e751dcf20001b3204d	4	1	practice_z	5	practice_z	1	stimuli_target_rectanglediamonds.svg	stimuli_distractor_diamondtriangles.svg	1	yes	44	1	480	0	0			0	0			1				0	
6.6.1	win	2023-07-10	13:28:01	13:30:34	148916	5c2e33e751dcf20001b3204d	4	1	practice_z	5	advance_on_keypress_ZEE	2	stimuli_target_rectanglediamonds.svg	stimuli_distractor_diamondtriangles.svg	1	yes	57	0	1331	0	0			0	0			1				0	
6.6.1	win	2023-07-10	13:28:01	13:30:38	152665	5c2e33e751dcf20001b3204d	4	1	practice_z	5	practice_z	3	stimuli_target_diamondsquares.svg	stimuli_distractor_diamondtriangles.svg	3	yes	44	1	765	0	0			0	0			1				0	
6.6.1	win	2023-07-10	13:28:01	13:30:38	152665	5c2e33e751dcf20001b3204d	4	1	practice_z	5	advance_on_keypress_ZEE	4	stimuli_target_diamondsquares.svg	stimuli_distractor_diamondtriangles.svg	3	yes	57	0	789	0	0			0	0			1				0	
6.6.1	win	2023-07-10	13:28:01	13:30:41	155817	5c2e33e751dcf20001b3204d	4	1	practice_z	5	practice_z	5	stimuli_distractor_trianglediamonds.svg	stimuli_target_squarediamonds.svg	11	yes	44	1	717	0	0			0	0			1				0	
6.6.1	win	2023-07-10	13:28:01	13:30:41	155817	5c2e33e751dcf20001b3204d	4	1	practice_z	5	advance_on_keypress_ZEE	6	stimuli_distractor_trianglediamonds.svg	stimuli_target_squarediamonds.svg	11	yes	57	0	903	0	0			0	0			1				0	
6.6.1	win	2023-07-10	13:28:01	13:30:46	160024	5c2e33e751dcf20001b3204d	4	1	practice_z	5	practice_z	7	stimuli_distractor_diamondtriangles.svg	stimuli_distractor_trianglediamonds.svg	14	no	44	0	1658	0	0			0	0			1				0	
6.6.1	win	2023-07-10	13:28:01	13:30:46	160024	5c2e33e751dcf20001b3204d	4	1	practice_z	5	advance_on_keypress_ZEE	8	stimuli_distractor_diamondtriangles.svg	stimuli_distractor_trianglediamonds.svg	14	no	57	0	463	0	0			0	0			1				0	
6.6.1	win	2023-07-10	13:28:01	13:30:48	162960	5c2e33e751dcf20001b3204d	4	1	practice_z	5	practice_z	9	stimuli_target_diamondsquares.svg	stimuli_distractor_trianglediamonds.svg	6	yes	44	1	844	0	0			0	0			1				0	
6.6.1	win	2023-07-10	13:28:01	13:30:48	162960	5c2e33e751dcf20001b3204d	4	1	practice_z	5	advance_on_keypress_ZEE	10	stimuli_target_diamondsquares.svg	stimuli_distractor_trianglediamonds.svg	6	yes	57	0	786	0	0			0	0			1				0	
6.6.1	win	2023-07-10	13:28:01	13:30:53	167383	5c2e33e751dcf20001b3204d	4	1	practice_z	5	practice_z	11	stimuli_target_rectanglediamonds.svg	stimuli_distractor_trianglediamonds.svg	4	yes	0	0	2000	0	0			0	0			1				0	
6.6.1	win	2023-07-10	13:28:01	13:30:53	167383	5c2e33e751dcf20001b3204d	4	1	practice_z	5	advance_on_keypress_ZEE	12	stimuli_target_rectanglediamonds.svg	stimuli_distractor_trianglediamonds.svg	4	yes	57	0	457	0	0			0	0			1				0	
6.6.1	win	2023-07-10	13:28:01	13:30:56	170160	5c2e33e751dcf20001b3204d	4	1	practice_z	5	practice_z	13	stimuli_distractor_trianglediamonds.svg	stimuli_target_rectanglediamonds.svg	10	yes	44	1	677	0	0			0	0			1				0	
6.6.1	win	2023-07-10	13:28:01	13:30:56	170160	5c2e33e751dcf20001b3204d	4	1	practice_z	5	advance_on_keypress_ZEE	14	stimuli_distractor_trianglediamonds.svg	stimuli_target_rectanglediamonds.svg	10	yes	57	0	1026	0	0			0	0			1				0	
6.6.1	win	2023-07-10	13:28:01	13:30:59	173592	5c2e33e751dcf20001b3204d	4	1	practice_z	5	practice_z	15	stimuli_target_squarediamonds.svg	stimuli_distractor_diamondtriangles.svg	2	yes	44	1	776	0	0			0	0			1				0	
6.6.1	win	2023-07-10	13:28:01	13:30:59	173592	5c2e33e751dcf20001b3204d	4	1	practice_z	5	advance_on_keypress_ZEE	16	stimuli_target_squarediamonds.svg	stimuli_distractor_diamondtriangles.svg	2	yes	57	0	681	0	0			0	0			1				0	
6.6.1	win	2023-07-10	13:28:01	13:31:02	176936	5c2e33e751dcf20001b3204d	4	1	practice_z	5	practice_z	17	stimuli_distractor_diamondtriangles.svg	stimuli_target_rectangletriangles.svg	7	yes	44	1	1020	0	0			0	0			1				0	
6.6.1	win	2023-07-10	13:28:01	13:31:02	176936	5c2e33e751dcf20001b3204d	4	1	practice_z	5	advance_on_keypress_ZEE	18	stimuli_distractor_diamondtriangles.svg	stimuli_target_rectangletriangles.svg	7	yes	57	0	651	0	0			0	0			1				0	
6.6.1	win	2023-07-10	13:28:01	13:31:06	180088	5c2e33e751dcf20001b3204d	4	1	practice_z	5	practice_z	19	stimuli_distractor_diamondtriangles.svg	stimuli_target_trianglerectangles.svg	9	yes	44	1	855	0	0			0	0			1				0	
6.6.1	win	2023-07-10	13:28:01	13:31:06	180088	5c2e33e751dcf20001b3204d	4	1	practice_z	5	advance_on_keypress_ZEE	20	stimuli_distractor_diamondtriangles.svg	stimuli_target_trianglerectangles.svg	9	yes	57	0	389	0	0			0	0			1				0	
6.6.1	win	2023-07-10	13:28:01	13:31:10	184116	5c2e33e751dcf20001b3204d	4	1	practice_z	5	practice_z	21	stimuli_distractor_trianglediamonds.svg	stimuli_distractor_diamondtriangles.svg	16	no	0	1	2000	0	0			0	0			1				0	
6.6.1	win	2023-07-10	13:28:01	13:31:10	184116	5c2e33e751dcf20001b3204d	4	1	practice_z	5	advance_on_keypress_ZEE	22	stimuli_distractor_trianglediamonds.svg	stimuli_distractor_diamondtriangles.svg	16	no	57	0	459	0	0			0	0			1				0	
6.6.1	win	2023-07-10	13:28:01	13:31:12	186840	5c2e33e751dcf20001b3204d	4	1	practice_z	5	practice_z	23	stimuli_distractor_trianglediamonds.svg	stimuli_target_diamondrectangles.svg	12	yes	44	1	624	0	0			0	0			1				0	
6.6.1	win	2023-07-10	13:28:01	13:31:12	186840	5c2e33e751dcf20001b3204d	4	1	practice_z	5	advance_on_keypress_ZEE	24	stimuli_distractor_trianglediamonds.svg	stimuli_target_diamondrectangles.svg	12	yes	57	0	935	0	0			0	0			1				0	
6.6.1	win	2023-07-10	13:28:01	13:31:16	190040	5c2e33e751dcf20001b3204d	4	1	practice_z	5	practice_z	25	stimuli_distractor_diamondtriangles.svg	stimuli_target_diamondrectangles.svg	8	yes	44	1	624	0	0			0	0			1				0	
6.6.1	win	2023-07-10	13:28:01	13:31:16	190040	5c2e33e751dcf20001b3204d	4	1	practice_z	5	advance_on_keypress_ZEE	26	stimuli_distractor_diamondtriangles.svg	stimuli_target_diamondrectangles.svg	8	yes	57	0	831	0	0			0	0			1				0	
6.6.1	win	2023-07-10	13:28:01	13:31:20	194516	5c2e33e751dcf20001b3204d	4	1	practice_z	5	practice_z	27	stimuli_distractor_trianglediamonds.svg	stimuli_distractor_trianglediamonds.svg	15	no	0	1	2000	0	0			0	0			1				0	
6.6.1	win	2023-07-10	13:28:01	13:31:20	194516	5c2e33e751dcf20001b3204d	4	1	practice_z	5	advance_on_keypress_ZEE	28	stimuli_distractor_trianglediamonds.svg	stimuli_distractor_trianglediamonds.svg	15	no	57	0	308	0	0			0	0			1				0	
6.6.1	win	2023-07-10	13:28:01	13:31:24	198466	5c2e33e751dcf20001b3204d	4	1	practice_z	5	practice_z	29	stimuli_target_squarediamonds.svg	stimuli_distractor_trianglediamonds.svg	5	yes	0	0	2000	0	0			0	0			1				0	
6.6.1	win	2023-07-10	13:28:01	13:31:24	198466	5c2e33e751dcf20001b3204d	4	1	practice_z	5	advance_on_keypress_ZEE	30	stimuli_target_squarediamonds.svg	stimuli_distractor_trianglediamonds.svg	5	yes	57	0	294	0	0			0	0			1				0	
6.6.1	win	2023-07-10	13:28:01	13:31:28	202399	5c2e33e751dcf20001b3204d	4	1	practice_z	5	practice_z	31	stimuli_distractor_diamondtriangles.svg	stimuli_distractor_diamondtriangles.svg	13	no	0	1	2000	0	0			0	0			1				0	
6.6.1	win	2023-07-10	13:28:01	13:31:28	202399	5c2e33e751dcf20001b3204d	4	1	practice_z	5	advance_on_keypress_ZEE	32	stimuli_distractor_diamondtriangles.svg	stimuli_distractor_diamondtriangles.svg	13	no	57	0	432	0	0			0	0			1				0	
6.6.1	win	2023-07-10	13:28:01	13:31:34	208839	5c2e33e751dcf20001b3204d	4	1	main_z	7	main_z	1	stimuli_target_diamondrectangles.svg	stimuli_distractor_diamondtriangles.svg	23	yes	44	1	775	0	0			0	0			1				0	
6.6.1	win	2023-07-10	13:28:01	13:31:34	208839	5c2e33e751dcf20001b3204d	4	1	main_z	7	advance_on_keypress_ZEE	2	stimuli_target_diamondrectangles.svg	stimuli_distractor_diamondtriangles.svg	23	yes	57	0	2039	0	0			0	0			1				0	
6.6.1	win	2023-07-10	13:28:01	13:31:38	212465	5c2e33e751dcf20001b3204d	4	1	main_z	7	main_z	3	stimuli_target_squaretriangles.svg	stimuli_distractor_trianglediamonds.svg	3	yes	44	1	931	0	0			0	0			1				0	
6.6.1	win	2023-07-10	13:28:01	13:31:38	212465	5c2e33e751dcf20001b3204d	4	1	main_z	7	advance_on_keypress_ZEE	4	stimuli_target_squaretriangles.svg	stimuli_distractor_trianglediamonds.svg	3	yes	57	0	901	0	0			0	0			1				0	
6.6.1	win	2023-07-10	13:28:01	13:31:42	216015	5c2e33e751dcf20001b3204d	4	1	main_z	7	main_z	5	stimuli_distractor_trianglediamonds.svg	stimuli_distractor_trianglediamonds.svg	33	no	0	1	2000	0	0			0	0			1				0	
6.6.1	win	2023-07-10	13:28:01	13:31:42	216015	5c2e33e751dcf20001b3204d	4	1	main_z	7	advance_on_keypress_ZEE	6	stimuli_distractor_trianglediamonds.svg	stimuli_distractor_trianglediamonds.svg	33	no	57	0	400	0	0			0	0			1				0	
6.6.1	win	2023-07-10	13:28:01	13:31:43	217792	5c2e33e751dcf20001b3204d	4	1	main_z	7	main_z	7	stimuli_distractor_diamondtriangles.svg	stimuli_target_trianglesquares.svg	30	yes	44	1	726	0	0			0	0			1				0	
6.6.1	win	2023-07-10	13:28:01	13:31:43	217792	5c2e33e751dcf20001b3204d	4	1	main_z	7	advance_on_keypress_ZEE	8	stimuli_distractor_diamondtriangles.svg	stimuli_target_trianglesquares.svg	30	yes	57	0	825	0	0			0	0			1				0	
6.6.1	win	2023-07-10	13:28:01	13:31:46	220039	5c2e33e751dcf20001b3204d	4	1	main_z	7	main_z	9	stimuli_target_squarediamonds.svg	stimuli_distractor_diamondtriangles.svg	8	yes	44	1	791	0	0			0	0			1				0	
6.6.1	win	2023-07-10	13:28:01	13:31:46	220039	5c2e33e751dcf20001b3204d	4	1	main_z	7	advance_on_keypress_ZEE	10	stimuli_target_squarediamonds.svg	stimuli_distractor_diamondtriangles.svg	8	yes	57	0	367	0	0			0	0			1				0	
6.6.1	win	2023-07-10	13:28:01	13:31:49	223048	5c2e33e751dcf20001b3204d	4	1	main_z	7	main_z	11	stimuli_distractor_trianglediamonds.svg	stimuli_target_squaretriangles.svg	11	yes	0	0	2000	0	0			0	0			1				0	
6.6.1	win	2023-07-10	13:28:01	13:31:49	223048	5c2e33e751dcf20001b3204d	4	1	main_z	7	advance_on_keypress_ZEE	12	stimuli_distractor_trianglediamonds.svg	stimuli_target_squaretriangles.svg	11	yes	57	0	350	0	0			0	0			1				0	
6.6.1	win	2023-07-10	13:28:01	13:31:50	224976	5c2e33e751dcf20001b3204d	4	1	main_z	7	main_z	13	stimuli_distractor_diamondtriangles.svg	stimuli_target_rectangletriangles.svg	13	yes	44	1	927	0	0			0	0			1				0	
6.6.1	win	2023-07-10	13:28:01	13:31:50	224976	5c2e33e751dcf20001b3204d	4	1	main_z	7	advance_on_keypress_ZEE	14	stimuli_distractor_diamondtriangles.svg	stimuli_target_rectangletriangles.svg	13	yes	57	0	1186	0	0			0	0			1				0	
6.6.1	win	2023-07-10	13:28:01	13:31:53	227688	5c2e33e751dcf20001b3204d	4	1	main_z	7	main_z	15	stimuli_target_diamondsquares.svg	stimuli_distractor_trianglediamonds.svg	20	yes	44	1	889	0	0			0	0			1				0	
6.6.1	win	2023-07-10	13:28:01	13:31:53	227688	5c2e33e751dcf20001b3204d	4	1	main_z	7	advance_on_keypress_ZEE	16	stimuli_target_diamondsquares.svg	stimuli_distractor_trianglediamonds.svg	20	yes	57	0	909	0	0			0	0			1				0	
6.6.1	win	2023-07-10	13:28:01	13:31:56	230552	5c2e33e751dcf20001b3204d	4	1	main_z	7	main_z	17	stimuli_distractor_diamondtriangles.svg	stimuli_target_squarediamonds.svg	16	yes	44	1	1321	0	0			0	0			1				0	
6.6.1	win	2023-07-10	13:28:01	13:31:56	230552	5c2e33e751dcf20001b3204d	4	1	main_z	7	advance_on_keypress_ZEE	18	stimuli_distractor_diamondtriangles.svg	stimuli_target_squarediamonds.svg	16	yes	57	0	514	0	0			0	0			1				0	
6.6.1	win	2023-07-10	13:28:01	13:31:58	232503	5c2e33e751dcf20001b3204d	4	1	main_z	7	main_z	19	stimuli_target_diamondsquares.svg	stimuli_distractor_diamondtriangles.svg	24	yes	44	1	788	0	0			0	0			1				0	
6.6.1	win	2023-07-10	13:28:01	13:31:58	232503	5c2e33e751dcf20001b3204d	4	1	main_z	7	advance_on_keypress_ZEE	20	stimuli_target_diamondsquares.svg	stimuli_distractor_diamondtriangles.svg	24	yes	57	0	452	0	0			0	0			1				0	
6.6.1	win	2023-07-10	13:28:01	13:32:00	234256	5c2e33e751dcf20001b3204d	4	1	main_z	7	main_z	21	stimuli_target_trianglesquares.svg	stimuli_distractor_diamondtriangles.svg	22	yes	44	1	658	0	0			0	0			1				0	
6.6.1	win	2023-07-10	13:28:01	13:32:00	234256	5c2e33e751dcf20001b3204d	4	1	main_z	7	advance_on_keypress_ZEE	22	stimuli_target_trianglesquares.svg	stimuli_distractor_diamondtriangles.svg	22	yes	57	0	270	0	0			0	0			1				0	
6.6.1	win	2023-07-10	13:28:01	13:32:03	237165	5c2e33e751dcf20001b3204d	4	1	main_z	7	main_z	23	stimuli_distractor_trianglediamonds.svg	stimuli_distractor_trianglediamonds.svg	34	no	0	1	2000	0	0			0	0			1				0	
6.6.1	win	2023-07-10	13:28:01	13:32:03	237165	5c2e33e751dcf20001b3204d	4	1	main_z	7	advance_on_keypress_ZEE	24	stimuli_distractor_trianglediamonds.svg	stimuli_distractor_trianglediamonds.svg	34	no	57	0	378	0	0			0	0			1				0	
6.6.1	win	2023-07-10	13:28:01	13:32:04	238960	5c2e33e751dcf20001b3204d	4	1	main_z	7	main_z	25	stimuli_target_rectanglediamonds.svg	stimuli_distractor_diamondtriangles.svg	6	yes	44	1	779	0	0			0	0			1				0	
6.6.1	win	2023-07-10	13:28:01	13:32:04	238960	5c2e33e751dcf20001b3204d	4	1	main_z	7	advance_on_keypress_ZEE	26	stimuli_target_rectanglediamonds.svg	stimuli_distractor_diamondtriangles.svg	6	yes	57	0	434	0	0			0	0			1				0	
6.6.1	win	2023-07-10	13:28:01	13:32:07	241000	5c2e33e751dcf20001b3204d	4	1	main_z	7	main_z	27	stimuli_distractor_trianglediamonds.svg	stimuli_target_trianglesquares.svg	26	yes	44	1	968	0	0			0	0			1				0	
6.6.1	win	2023-07-10	13:28:01	13:32:07	241000	5c2e33e751dcf20001b3204d	4	1	main_z	7	advance_on_keypress_ZEE	28	stimuli_distractor_trianglediamonds.svg	stimuli_target_trianglesquares.svg	26	yes	57	0	464	0	0			0	0			1				0	
6.6.1	win	2023-07-10	13:28:01	13:32:09	243232	5c2e33e751dcf20001b3204d	4	1	main_z	7	main_z	29	stimuli_target_trianglerectangles.svg	stimuli_distractor_diamondtriangles.svg	21	yes	44	1	1116	0	0			0	0			1				0	
6.6.1	win	2023-07-10	13:28:01	13:32:09	243232	5c2e33e751dcf20001b3204d	4	1	main_z	7	advance_on_keypress_ZEE	30	stimuli_target_trianglerectangles.svg	stimuli_distractor_diamondtriangles.svg	21	yes	57	0	231	0	0			0	0			1				0	
6.6.1	win	2023-07-10	13:28:01	13:32:12	246115	5c2e33e751dcf20001b3204d	4	1	main_z	7	main_z	31	stimuli_distractor_diamondtriangles.svg	stimuli_target_squaretriangles.svg	15	yes	0	0	2000	0	0			0	0			1				0	
6.6.1	win	2023-07-10	13:28:01	13:32:12	246115	5c2e33e751dcf20001b3204d	4	1	main_z	7	advance_on_keypress_ZEE	32	stimuli_distractor_diamondtriangles.svg	stimuli_target_squaretriangles.svg	15	yes	57	0	252	0	0			0	0			1				0	
6.6.1	win	2023-07-10	13:28:01	13:32:15	249015	5c2e33e751dcf20001b3204d	4	1	main_z	7	main_z	33	stimuli_distractor_diamondtriangles.svg	stimuli_distractor_trianglediamonds.svg	37	no	0	1	2000	0	0			0	0			1				0	
6.6.1	win	2023-07-10	13:28:01	13:32:15	249015	5c2e33e751dcf20001b3204d	4	1	main_z	7	advance_on_keypress_ZEE	34	stimuli_distractor_diamondtriangles.svg	stimuli_distractor_trianglediamonds.svg	37	no	57	0	328	0	0			0	0			1				0	
6.6.1	win	2023-07-10	13:28:01	13:32:17	251576	5c2e33e751dcf20001b3204d	4	1	main_z	7	main_z	35	stimuli_target_rectanglediamonds.svg	stimuli_distractor_trianglediamonds.svg	2	yes	44	1	1594	0	0			0	0			1				0	
6.6.1	win	2023-07-10	13:28:01	13:32:17	251576	5c2e33e751dcf20001b3204d	4	1	main_z	7	advance_on_keypress_ZEE	36	stimuli_target_rectanglediamonds.svg	stimuli_distractor_trianglediamonds.svg	2	yes	57	0	539	0	0			0	0			1				0	
6.6.1	win	2023-07-10	13:28:01	13:32:19	253584	5c2e33e751dcf20001b3204d	4	1	main_z	7	main_z	37	stimuli_target_rectangletriangles.svg	stimuli_distractor_diamondtriangles.svg	5	yes	44	1	835	0	0			0	0			1				0	
6.6.1	win	2023-07-10	13:28:01	13:32:19	253584	5c2e33e751dcf20001b3204d	4	1	main_z	7	advance_on_keypress_ZEE	38	stimuli_target_rectangletriangles.svg	stimuli_distractor_diamondtriangles.svg	5	yes	57	0	337	0	0			0	0			1				0	
6.6.1	win	2023-07-10	13:28:01	13:32:22	256565	5c2e33e751dcf20001b3204d	4	1	main_z	7	main_z	39	stimuli_distractor_trianglediamonds.svg	stimuli_distractor_diamondtriangles.svg	36	no	0	1	2000	0	0			0	0			1				0	
6.6.1	win	2023-07-10	13:28:01	13:32:22	256565	5c2e33e751dcf20001b3204d	4	1	main_z	7	advance_on_keypress_ZEE	40	stimuli_distractor_trianglediamonds.svg	stimuli_distractor_diamondtriangles.svg	36	no	57	0	347	0	0			0	0			1				0	
6.6.1	win	2023-07-10	13:28:01	13:32:24	258856	5c2e33e751dcf20001b3204d	4	1	main_z	7	main_z	41	stimuli_distractor_trianglediamonds.svg	stimuli_target_rectangletriangles.svg	9	yes	44	1	1308	0	0			0	0			1				0	
6.6.1	win	2023-07-10	13:28:01	13:32:24	258856	5c2e33e751dcf20001b3204d	4	1	main_z	7	advance_on_keypress_ZEE	42	stimuli_distractor_trianglediamonds.svg	stimuli_target_rectangletriangles.svg	9	yes	57	0	320	0	0			0	0			1				0	
6.6.1	win	2023-07-10	13:28:01	13:32:27	261815	5c2e33e751dcf20001b3204d	4	1	main_z	7	main_z	43	stimuli_distractor_trianglediamonds.svg	stimuli_distractor_diamondtriangles.svg	35	no	0	1	2000	0	0			0	0			1				0	
6.6.1	win	2023-07-10	13:28:01	13:32:27	261815	5c2e33e751dcf20001b3204d	4	1	main_z	7	advance_on_keypress_ZEE	44	stimuli_distractor_trianglediamonds.svg	stimuli_distractor_diamondtriangles.svg	35	no	57	0	321	0	0			0	0			1				0	
6.6.1	win	2023-07-10	13:28:01	13:32:29	263415	5c2e33e751dcf20001b3204d	4	1	main_z	7	main_z	45	stimuli_distractor_diamondtriangles.svg	stimuli_target_diamondsquares.svg	32	yes	44	1	634	0	0			0	0			1				0	
6.6.1	win	2023-07-10	13:28:01	13:32:29	263415	5c2e33e751dcf20001b3204d	4	1	main_z	7	advance_on_keypress_ZEE	46	stimuli_distractor_diamondtriangles.svg	stimuli_target_diamondsquares.svg	32	yes	57	0	248	0	0			0	0			1				0	
6.6.1	win	2023-07-10	13:28:01	13:32:31	265120	5c2e33e751dcf20001b3204d	4	1	main_z	7	main_z	47	stimuli_target_squaretriangles.svg	stimuli_distractor_diamondtriangles.svg	7	yes	44	1	806	0	0			0	0			1				0	
6.6.1	win	2023-07-10	13:28:01	13:32:31	265120	5c2e33e751dcf20001b3204d	4	1	main_z	7	advance_on_keypress_ZEE	48	stimuli_target_squaretriangles.svg	stimuli_distractor_diamondtriangles.svg	7	yes	57	0	253	0	0			0	0			1				0	
6.6.1	win	2023-07-10	13:28:01	13:32:34	268015	5c2e33e751dcf20001b3204d	4	1	main_z	7	main_z	49	stimuli_distractor_diamondtriangles.svg	stimuli_distractor_trianglediamonds.svg	38	no	0	1	2000	0	0			0	0			1				0	
6.6.1	win	2023-07-10	13:28:01	13:32:34	268015	5c2e33e751dcf20001b3204d	4	1	main_z	7	advance_on_keypress_ZEE	50	stimuli_distractor_diamondtriangles.svg	stimuli_distractor_trianglediamonds.svg	38	no	57	0	392	0	0			0	0			1				0	
6.6.1	win	2023-07-10	13:28:01	13:32:37	271048	5c2e33e751dcf20001b3204d	4	1	main_z	7	main_z	51	stimuli_distractor_diamondtriangles.svg	stimuli_distractor_diamondtriangles.svg	40	no	0	1	2000	0	0			0	0			1				0	
6.6.1	win	2023-07-10	13:28:01	13:32:37	271048	5c2e33e751dcf20001b3204d	4	1	main_z	7	advance_on_keypress_ZEE	52	stimuli_distractor_diamondtriangles.svg	stimuli_distractor_diamondtriangles.svg	40	no	57	0	255	0	0			0	0			1				0	
6.6.1	win	2023-07-10	13:28:01	13:32:38	272599	5c2e33e751dcf20001b3204d	4	1	main_z	7	main_z	53	stimuli_distractor_trianglediamonds.svg	stimuli_target_rectanglediamonds.svg	10	yes	44	1	651	0	0			0	0			1				0	
6.6.1	win	2023-07-10	13:28:01	13:32:38	272599	5c2e33e751dcf20001b3204d	4	1	main_z	7	advance_on_keypress_ZEE	54	stimuli_distractor_trianglediamonds.svg	stimuli_target_rectanglediamonds.svg	10	yes	57	0	297	0	0			0	0			1				0	
6.6.1	win	2023-07-10	13:28:01	13:32:40	274120	5c2e33e751dcf20001b3204d	4	1	main_z	7	main_z	55	stimuli_distractor_trianglediamonds.svg	stimuli_target_diamondrectangles.svg	27	yes	44	1	589	0	0			0	0			1				0	
6.6.1	win	2023-07-10	13:28:01	13:32:40	274120	5c2e33e751dcf20001b3204d	4	1	main_z	7	advance_on_keypress_ZEE	56	stimuli_distractor_trianglediamonds.svg	stimuli_target_diamondrectangles.svg	27	yes	57	0	196	0	0			0	0			1				0	
6.6.1	win	2023-07-10	13:28:01	13:32:41	275528	5c2e33e751dcf20001b3204d	4	1	main_z	7	main_z	57	stimuli_target_trianglesquares.svg	stimuli_distractor_trianglediamonds.svg	18	yes	44	1	580	0	0			0	0			1				0	
6.6.1	win	2023-07-10	13:28:01	13:32:41	275528	5c2e33e751dcf20001b3204d	4	1	main_z	7	advance_on_keypress_ZEE	58	stimuli_target_trianglesquares.svg	stimuli_distractor_trianglediamonds.svg	18	yes	57	0	156	0	0			0	0			1				0	
6.6.1	win	2023-07-10	13:28:01	13:32:43	277080	5c2e33e751dcf20001b3204d	4	1	main_z	7	main_z	59	stimuli_distractor_diamondtriangles.svg	stimuli_target_rectanglediamonds.svg	14	yes	44	1	766	0	0			0	0			1				0	
6.6.1	win	2023-07-10	13:28:01	13:32:43	277080	5c2e33e751dcf20001b3204d	4	1	main_z	7	advance_on_keypress_ZEE	60	stimuli_distractor_diamondtriangles.svg	stimuli_target_rectanglediamonds.svg	14	yes	57	0	142	0	0			0	0			1				0	
6.6.1	win	2023-07-10	13:28:01	13:32:44	278479	5c2e33e751dcf20001b3204d	4	1	main_z	7	main_z	61	stimuli_distractor_trianglediamonds.svg	stimuli_target_diamondsquares.svg	28	yes	44	1	615	0	0			0	0			1				0	
6.6.1	win	2023-07-10	13:28:01	13:32:44	278479	5c2e33e751dcf20001b3204d	4	1	main_z	7	advance_on_keypress_ZEE	62	stimuli_distractor_trianglediamonds.svg	stimuli_target_diamondsquares.svg	28	yes	57	0	77	0	0			0	0			1				0	
6.6.1	win	2023-07-10	13:28:01	13:32:46	280096	5c2e33e751dcf20001b3204d	4	1	main_z	7	main_z	63	stimuli_distractor_trianglediamonds.svg	stimuli_target_squarediamonds.svg	12	yes	44	1	898	0	0			0	0			1				0	
6.6.1	win	2023-07-10	13:28:01	13:32:46	280096	5c2e33e751dcf20001b3204d	4	1	main_z	7	advance_on_keypress_ZEE	64	stimuli_distractor_trianglediamonds.svg	stimuli_target_squarediamonds.svg	12	yes	57	0	102	0	0			0	0			1				0	
6.6.1	win	2023-07-10	13:28:01	13:32:47	281511	5c2e33e751dcf20001b3204d	4	1	main_z	7	main_z	65	stimuli_distractor_diamondtriangles.svg	stimuli_target_diamondrectangles.svg	31	yes	44	1	663	0	0			0	0			1				0	
6.6.1	win	2023-07-10	13:28:01	13:32:47	281511	5c2e33e751dcf20001b3204d	4	1	main_z	7	advance_on_keypress_ZEE	66	stimuli_distractor_diamondtriangles.svg	stimuli_target_diamondrectangles.svg	31	yes	57	0	118	0	0			0	0			1				0	
6.6.1	win	2023-07-10	13:28:01	13:32:49	283048	5c2e33e751dcf20001b3204d	4	1	main_z	7	main_z	67	stimuli_target_rectangletriangles.svg	stimuli_distractor_trianglediamonds.svg	1	yes	44	1	784	0	0			0	0			1				0	
6.6.1	win	2023-07-10	13:28:01	13:32:49	283048	5c2e33e751dcf20001b3204d	4	1	main_z	7	advance_on_keypress_ZEE	68	stimuli_target_rectangletriangles.svg	stimuli_distractor_trianglediamonds.svg	1	yes	57	0	80	0	0			0	0			1				0	
6.6.1	win	2023-07-10	13:28:01	13:32:50	284520	5c2e33e751dcf20001b3204d	4	1	main_z	7	main_z	69	stimuli_distractor_trianglediamonds.svg	stimuli_target_trianglerectangles.svg	25	yes	44	1	756	0	0			0	0			1				0	
6.6.1	win	2023-07-10	13:28:01	13:32:50	284520	5c2e33e751dcf20001b3204d	4	1	main_z	7	advance_on_keypress_ZEE	70	stimuli_distractor_trianglediamonds.svg	stimuli_target_trianglerectangles.svg	25	yes	57	0	61	0	0			0	0			1				0	
6.6.1	win	2023-07-10	13:28:01	13:32:51	285800	5c2e33e751dcf20001b3204d	4	1	main_z	7	main_z	71	stimuli_distractor_diamondtriangles.svg	stimuli_target_trianglerectangles.svg	29	yes	44	1	586	0	0			0	0			1				0	
6.6.1	win	2023-07-10	13:28:01	13:32:51	285800	5c2e33e751dcf20001b3204d	4	1	main_z	7	advance_on_keypress_ZEE	72	stimuli_distractor_diamondtriangles.svg	stimuli_target_trianglerectangles.svg	29	yes	57	0	90	0	0			0	0			1				0	
6.6.1	win	2023-07-10	13:28:01	13:32:53	287024	5c2e33e751dcf20001b3204d	4	1	main_z	7	main_z	73	stimuli_target_squarediamonds.svg	stimuli_distractor_trianglediamonds.svg	4	yes	44	1	492	0	0			0	0			1				0	
6.6.1	win	2023-07-10	13:28:01	13:32:53	287024	5c2e33e751dcf20001b3204d	4	1	main_z	7	advance_on_keypress_ZEE	74	stimuli_target_squarediamonds.svg	stimuli_distractor_trianglediamonds.svg	4	yes	57	0	41	0	0			0	0			1				0	
6.6.1	win	2023-07-10	13:28:01	13:32:54	288448	5c2e33e751dcf20001b3204d	4	1	main_z	7	main_z	75	stimuli_target_diamondrectangles.svg	stimuli_distractor_trianglediamonds.svg	19	yes	44	1	750	0	0			0	0			1				0	
6.6.1	win	2023-07-10	13:28:01	13:32:54	288448	5c2e33e751dcf20001b3204d	4	1	main_z	7	advance_on_keypress_ZEE	76	stimuli_target_diamondrectangles.svg	stimuli_distractor_trianglediamonds.svg	19	yes	57	0	72	0	0			0	0			1				0	
6.6.1	win	2023-07-10	13:28:01	13:32:57	291165	5c2e33e751dcf20001b3204d	4	1	main_z	7	main_z	77	stimuli_distractor_diamondtriangles.svg	stimuli_distractor_diamondtriangles.svg	39	no	0	1	2000	0	0			0	0			1				0	
6.6.1	win	2023-07-10	13:28:01	13:32:57	291165	5c2e33e751dcf20001b3204d	4	1	main_z	7	advance_on_keypress_ZEE	78	stimuli_distractor_diamondtriangles.svg	stimuli_distractor_diamondtriangles.svg	39	no	57	0	330	0	0			0	0			1				0	
6.6.1	win	2023-07-10	13:28:01	13:32:58	292688	5c2e33e751dcf20001b3204d	4	1	main_z	7	main_z	79	stimuli_target_trianglerectangles.svg	stimuli_distractor_trianglediamonds.svg	17	yes	44	1	557	0	0			0	0			1				0	
6.6.1	win	2023-07-10	13:28:01	13:32:58	292688	5c2e33e751dcf20001b3204d	4	1	main_z	7	advance_on_keypress_ZEE	80	stimuli_target_trianglerectangles.svg	stimuli_distractor_trianglediamonds.svg	17	yes	57	0	109	0	0			0	0			1				0	
6.6.1	win	2023-07-10	13:28:01	13:33:00	294064	5c2e33e751dcf20001b3204d	4	1	main_z	7	main_z	81	stimuli_target_trianglerectangles.svg	stimuli_distractor_diamondtriangles.svg	21	yes	44	1	633	0	0			0	0			1				0	
6.6.1	win	2023-07-10	13:28:01	13:33:00	294064	5c2e33e751dcf20001b3204d	4	1	main_z	7	advance_on_keypress_ZEE	82	stimuli_target_trianglerectangles.svg	stimuli_distractor_diamondtriangles.svg	21	yes	57	0	79	0	0			0	0			1				0	
6.6.1	win	2023-07-10	13:28:01	13:33:01	295568	5c2e33e751dcf20001b3204d	4	1	main_z	7	main_z	83	stimuli_distractor_trianglediamonds.svg	stimuli_target_trianglesquares.svg	26	yes	44	1	786	0	0			0	0			1				0	
6.6.1	win	2023-07-10	13:28:01	13:33:01	295568	5c2e33e751dcf20001b3204d	4	1	main_z	7	advance_on_keypress_ZEE	84	stimuli_distractor_trianglediamonds.svg	stimuli_target_trianglesquares.svg	26	yes	57	0	91	0	0			0	0			1				0	
6.6.1	win	2023-07-10	13:28:01	13:33:02	296960	5c2e33e751dcf20001b3204d	4	1	main_z	7	main_z	85	stimuli_target_trianglesquares.svg	stimuli_distractor_trianglediamonds.svg	18	yes	44	1	662	0	0			0	0			1				0	
6.6.1	win	2023-07-10	13:28:01	13:33:02	296960	5c2e33e751dcf20001b3204d	4	1	main_z	7	advance_on_keypress_ZEE	86	stimuli_target_trianglesquares.svg	stimuli_distractor_trianglediamonds.svg	18	yes	57	0	100	0	0			0	0			1				0	
6.6.1	win	2023-07-10	13:28:01	13:33:05	299698	5c2e33e751dcf20001b3204d	4	1	main_z	7	main_z	87	stimuli_distractor_trianglediamonds.svg	stimuli_distractor_trianglediamonds.svg	33	no	0	1	2000	0	0			0	0			1				0	
6.6.1	win	2023-07-10	13:28:01	13:33:05	299698	5c2e33e751dcf20001b3204d	4	1	main_z	7	advance_on_keypress_ZEE	88	stimuli_distractor_trianglediamonds.svg	stimuli_distractor_trianglediamonds.svg	33	no	57	0	294	0	0			0	0			1				0	
6.6.1	win	2023-07-10	13:28:01	13:33:07	301976	5c2e33e751dcf20001b3204d	4	1	main_z	7	main_z	89	stimuli_distractor_diamondtriangles.svg	stimuli_distractor_trianglediamonds.svg	38	no	44	0	1345	0	0			0	0			1				0	
6.6.1	win	2023-07-10	13:28:01	13:33:07	301976	5c2e33e751dcf20001b3204d	4	1	main_z	7	advance_on_keypress_ZEE	90	stimuli_distractor_diamondtriangles.svg	stimuli_distractor_trianglediamonds.svg	38	no	57	0	123	0	0			0	0			1				0	
6.6.1	win	2023-07-10	13:28:01	13:33:09	303352	5c2e33e751dcf20001b3204d	4	1	main_z	7	main_z	91	stimuli_distractor_trianglediamonds.svg	stimuli_target_diamondsquares.svg	28	yes	44	1	621	0	0			0	0			1				0	
6.6.1	win	2023-07-10	13:28:01	13:33:09	303352	5c2e33e751dcf20001b3204d	4	1	main_z	7	advance_on_keypress_ZEE	92	stimuli_distractor_trianglediamonds.svg	stimuli_target_diamondsquares.svg	28	yes	57	0	131	0	0			0	0			1				0	
6.6.1	win	2023-07-10	13:28:01	13:33:10	304896	5c2e33e751dcf20001b3204d	4	1	main_z	7	main_z	93	stimuli_distractor_diamondtriangles.svg	stimuli_target_squarediamonds.svg	16	yes	44	1	764	0	0			0	0			1				0	
6.6.1	win	2023-07-10	13:28:01	13:33:10	304896	5c2e33e751dcf20001b3204d	4	1	main_z	7	advance_on_keypress_ZEE	94	stimuli_distractor_diamondtriangles.svg	stimuli_target_squarediamonds.svg	16	yes	57	0	117	0	0			0	0			1				0	
6.6.1	win	2023-07-10	13:28:01	13:33:12	306255	5c2e33e751dcf20001b3204d	4	1	main_z	7	main_z	95	stimuli_target_trianglesquares.svg	stimuli_distractor_diamondtriangles.svg	22	yes	44	1	591	0	0			0	0			1				0	
6.6.1	win	2023-07-10	13:28:01	13:33:12	306255	5c2e33e751dcf20001b3204d	4	1	main_z	7	advance_on_keypress_ZEE	96	stimuli_target_trianglesquares.svg	stimuli_distractor_diamondtriangles.svg	22	yes	57	0	88	0	0			0	0			1				0	
6.6.1	win	2023-07-10	13:28:01	13:33:13	307728	5c2e33e751dcf20001b3204d	4	1	main_z	7	main_z	97	stimuli_target_squaretriangles.svg	stimuli_distractor_trianglediamonds.svg	3	yes	44	1	746	0	0			0	0			1				0	
6.6.1	win	2023-07-10	13:28:01	13:33:13	307728	5c2e33e751dcf20001b3204d	4	1	main_z	7	advance_on_keypress_ZEE	98	stimuli_target_squaretriangles.svg	stimuli_distractor_trianglediamonds.svg	3	yes	57	0	124	0	0			0	0			1				0	
6.6.1	win	2023-07-10	13:28:01	13:33:15	309231	5c2e33e751dcf20001b3204d	4	1	main_z	7	main_z	99	stimuli_distractor_diamondtriangles.svg	stimuli_target_trianglerectangles.svg	29	yes	44	1	751	0	0			0	0			1				0	
6.6.1	win	2023-07-10	13:28:01	13:33:15	309231	5c2e33e751dcf20001b3204d	4	1	main_z	7	advance_on_keypress_ZEE	100	stimuli_distractor_diamondtriangles.svg	stimuli_target_trianglerectangles.svg	29	yes	57	0	112	0	0			0	0			1				0	
6.6.1	win	2023-07-10	13:28:01	13:33:17	311981	5c2e33e751dcf20001b3204d	4	1	main_z	7	main_z	101	stimuli_distractor_trianglediamonds.svg	stimuli_distractor_diamondtriangles.svg	36	no	0	1	2000	0	0			0	0			1				0	
6.6.1	win	2023-07-10	13:28:01	13:33:17	311981	5c2e33e751dcf20001b3204d	4	1	main_z	7	advance_on_keypress_ZEE	102	stimuli_distractor_trianglediamonds.svg	stimuli_distractor_diamondtriangles.svg	36	no	57	0	267	0	0			0	0			1				0	
6.6.1	win	2023-07-10	13:28:01	13:33:19	313624	5c2e33e751dcf20001b3204d	4	1	main_z	7	main_z	103	stimuli_target_diamondsquares.svg	stimuli_distractor_trianglediamonds.svg	20	yes	44	1	727	0	0			0	0			1				0	
6.6.1	win	2023-07-10	13:28:01	13:33:19	313624	5c2e33e751dcf20001b3204d	4	1	main_z	7	advance_on_keypress_ZEE	104	stimuli_target_diamondsquares.svg	stimuli_distractor_trianglediamonds.svg	20	yes	57	0	120	0	0			0	0			1				0	
6.6.1	win	2023-07-10	13:28:01	13:33:21	315119	5c2e33e751dcf20001b3204d	4	1	main_z	7	main_z	105	stimuli_distractor_trianglediamonds.svg	stimuli_target_squarediamonds.svg	12	yes	44	1	738	0	0			0	0			1				0	
6.6.1	win	2023-07-10	13:28:01	13:33:21	315119	5c2e33e751dcf20001b3204d	4	1	main_z	7	advance_on_keypress_ZEE	106	stimuli_distractor_trianglediamonds.svg	stimuli_target_squarediamonds.svg	12	yes	57	0	109	0	0			0	0			1				0	
6.6.1	win	2023-07-10	13:28:01	13:33:23	317400	5c2e33e751dcf20001b3204d	4	1	main_z	7	main_z	107	stimuli_target_rectanglediamonds.svg	stimuli_distractor_diamondtriangles.svg	6	yes	44	1	1535	0	0			0	0			1				0	
6.6.1	win	2023-07-10	13:28:01	13:33:23	317400	5c2e33e751dcf20001b3204d	4	1	main_z	7	advance_on_keypress_ZEE	108	stimuli_target_rectanglediamonds.svg	stimuli_distractor_diamondtriangles.svg	6	yes	57	0	57	0	0			0	0			1				0	
6.6.1	win	2023-07-10	13:28:01	13:33:24	318719	5c2e33e751dcf20001b3204d	4	1	main_z	7	main_z	109	stimuli_target_rectangletriangles.svg	stimuli_distractor_diamondtriangles.svg	5	yes	44	1	622	0	0			0	0			1				0	
6.6.1	win	2023-07-10	13:28:01	13:33:24	318719	5c2e33e751dcf20001b3204d	4	1	main_z	7	advance_on_keypress_ZEE	110	stimuli_target_rectangletriangles.svg	stimuli_distractor_diamondtriangles.svg	5	yes	57	0	84	0	0			0	0			1				0	
6.6.1	win	2023-07-10	13:28:01	13:33:27	321448	5c2e33e751dcf20001b3204d	4	1	main_z	7	main_z	111	stimuli_distractor_diamondtriangles.svg	stimuli_distractor_diamondtriangles.svg	39	no	0	1	2000	0	0			0	0			1				0	
6.6.1	win	2023-07-10	13:28:01	13:33:27	321448	5c2e33e751dcf20001b3204d	4	1	main_z	7	advance_on_keypress_ZEE	112	stimuli_distractor_diamondtriangles.svg	stimuli_distractor_diamondtriangles.svg	39	no	57	0	248	0	0			0	0			1				0	
6.6.1	win	2023-07-10	13:28:01	13:33:28	322920	5c2e33e751dcf20001b3204d	4	1	main_z	7	main_z	113	stimuli_target_diamondsquares.svg	stimuli_distractor_diamondtriangles.svg	24	yes	44	1	588	0	0			0	0			1				0	
6.6.1	win	2023-07-10	13:28:01	13:33:28	322920	5c2e33e751dcf20001b3204d	4	1	main_z	7	advance_on_keypress_ZEE	114	stimuli_target_diamondsquares.svg	stimuli_distractor_diamondtriangles.svg	24	yes	57	0	141	0	0			0	0			1				0	
6.6.1	win	2023-07-10	13:28:01	13:33:30	324320	5c2e33e751dcf20001b3204d	4	1	main_z	7	main_z	115	stimuli_distractor_diamondtriangles.svg	stimuli_target_rectanglediamonds.svg	14	yes	44	1	623	0	0			0	0			1				0	
6.6.1	win	2023-07-10	13:28:01	13:33:30	324320	5c2e33e751dcf20001b3204d	4	1	main_z	7	advance_on_keypress_ZEE	116	stimuli_distractor_diamondtriangles.svg	stimuli_target_rectanglediamonds.svg	14	yes	57	0	85	0	0			0	0			1				0	
6.6.1	win	2023-07-10	13:28:01	13:33:31	325640	5c2e33e751dcf20001b3204d	4	1	main_z	7	main_z	117	stimuli_distractor_diamondtriangles.svg	stimuli_target_trianglesquares.svg	30	yes	44	1	592	0	0			0	0			1				0	
6.6.1	win	2023-07-10	13:28:01	13:33:31	325640	5c2e33e751dcf20001b3204d	4	1	main_z	7	advance_on_keypress_ZEE	118	stimuli_distractor_diamondtriangles.svg	stimuli_target_trianglesquares.svg	30	yes	57	0	113	0	0			0	0			1				0	
6.6.1	win	2023-07-10	13:28:01	13:33:32	326992	5c2e33e751dcf20001b3204d	4	1	main_z	7	main_z	119	stimuli_target_squaretriangles.svg	stimuli_distractor_diamondtriangles.svg	7	yes	44	1	611	0	0			0	0			1				0	
6.6.1	win	2023-07-10	13:28:01	13:33:32	326992	5c2e33e751dcf20001b3204d	4	1	main_z	7	advance_on_keypress_ZEE	120	stimuli_target_squaretriangles.svg	stimuli_distractor_diamondtriangles.svg	7	yes	57	0	115	0	0			0	0			1				0	
6.6.1	win	2023-07-10	13:28:01	13:33:34	328375	5c2e33e751dcf20001b3204d	4	1	main_z	7	main_z	121	stimuli_distractor_trianglediamonds.svg	stimuli_target_rectangletriangles.svg	9	yes	44	1	645	0	0			0	0			1				0	
6.6.1	win	2023-07-10	13:28:01	13:33:34	328375	5c2e33e751dcf20001b3204d	4	1	main_z	7	advance_on_keypress_ZEE	122	stimuli_distractor_trianglediamonds.svg	stimuli_target_rectangletriangles.svg	9	yes	57	0	91	0	0			0	0			1				0	
6.6.1	win	2023-07-10	13:28:01	13:33:37	331098	5c2e33e751dcf20001b3204d	4	1	main_z	7	main_z	123	stimuli_distractor_diamondtriangles.svg	stimuli_distractor_diamondtriangles.svg	40	no	0	1	2000	0	0			0	0			1				0	
6.6.1	win	2023-07-10	13:28:01	13:33:37	331098	5c2e33e751dcf20001b3204d	4	1	main_z	7	advance_on_keypress_ZEE	124	stimuli_distractor_diamondtriangles.svg	stimuli_distractor_diamondtriangles.svg	40	no	57	0	677	0	0			0	0			1				0	
6.6.1	win	2023-07-10	13:28:01	13:33:38	332896	5c2e33e751dcf20001b3204d	4	1	main_z	7	main_z	125	stimuli_target_rectanglediamonds.svg	stimuli_distractor_trianglediamonds.svg	2	yes	44	1	481	0	0			0	0			1				0	
6.6.1	win	2023-07-10	13:28:01	13:33:38	332896	5c2e33e751dcf20001b3204d	4	1	main_z	7	advance_on_keypress_ZEE	126	stimuli_target_rectanglediamonds.svg	stimuli_distractor_trianglediamonds.svg	2	yes	57	0	69	0	0			0	0			1				0	
6.6.1	win	2023-07-10	13:28:01	13:33:40	334295	5c2e33e751dcf20001b3204d	4	1	main_z	7	main_z	127	stimuli_target_rectangletriangles.svg	stimuli_distractor_trianglediamonds.svg	1	yes	44	1	681	0	0			0	0			1				0	
6.6.1	win	2023-07-10	13:28:01	13:33:40	334295	5c2e33e751dcf20001b3204d	4	1	main_z	7	advance_on_keypress_ZEE	128	stimuli_target_rectangletriangles.svg	stimuli_distractor_trianglediamonds.svg	1	yes	57	0	62	0	0			0	0			1				0	
6.6.1	win	2023-07-10	13:28:01	13:33:41	335752	5c2e33e751dcf20001b3204d	4	1	main_z	7	main_z	129	stimuli_target_diamondrectangles.svg	stimuli_distractor_diamondtriangles.svg	23	yes	44	1	755	0	0			0	0			1				0	
6.6.1	win	2023-07-10	13:28:01	13:33:41	335752	5c2e33e751dcf20001b3204d	4	1	main_z	7	advance_on_keypress_ZEE	130	stimuli_target_diamondrectangles.svg	stimuli_distractor_diamondtriangles.svg	23	yes	57	0	84	0	0			0	0			1				0	
6.6.1	win	2023-07-10	13:28:01	13:33:43	337296	5c2e33e751dcf20001b3204d	4	1	main_z	7	main_z	131	stimuli_distractor_diamondtriangles.svg	stimuli_target_squaretriangles.svg	15	yes	44	1	815	0	0			0	0			1				0	
6.6.1	win	2023-07-10	13:28:01	13:33:43	337296	5c2e33e751dcf20001b3204d	4	1	main_z	7	advance_on_keypress_ZEE	132	stimuli_distractor_diamondtriangles.svg	stimuli_target_squaretriangles.svg	15	yes	57	0	93	0	0			0	0			1				0	
6.6.1	win	2023-07-10	13:28:01	13:33:44	338648	5c2e33e751dcf20001b3204d	4	1	main_z	7	main_z	133	stimuli_distractor_diamondtriangles.svg	stimuli_target_diamondsquares.svg	32	yes	44	1	617	0	0			0	0			1				0	
6.6.1	win	2023-07-10	13:28:01	13:33:44	338648	5c2e33e751dcf20001b3204d	4	1	main_z	7	advance_on_keypress_ZEE	134	stimuli_distractor_diamondtriangles.svg	stimuli_target_diamondsquares.svg	32	yes	57	0	87	0	0			0	0			1				0	
6.6.1	win	2023-07-10	13:28:01	13:33:46	340272	5c2e33e751dcf20001b3204d	4	1	main_z	7	main_z	135	stimuli_target_trianglerectangles.svg	stimuli_distractor_trianglediamonds.svg	17	yes	44	1	890	0	0			0	0			1				0	
6.6.1	win	2023-07-10	13:28:01	13:33:46	340272	5c2e33e751dcf20001b3204d	4	1	main_z	7	advance_on_keypress_ZEE	136	stimuli_target_trianglerectangles.svg	stimuli_distractor_trianglediamonds.svg	17	yes	57	0	110	0	0			0	0			1				0	
6.6.1	win	2023-07-10	13:28:01	13:33:47	341936	5c2e33e751dcf20001b3204d	4	1	main_z	7	main_z	137	stimuli_target_diamondrectangles.svg	stimuli_distractor_trianglediamonds.svg	19	yes	44	1	921	0	0			0	0			1				0	
6.6.1	win	2023-07-10	13:28:01	13:33:47	341936	5c2e33e751dcf20001b3204d	4	1	main_z	7	advance_on_keypress_ZEE	138	stimuli_target_diamondrectangles.svg	stimuli_distractor_trianglediamonds.svg	19	yes	57	0	101	0	0			0	0			1				0	
6.6.1	win	2023-07-10	13:28:01	13:33:49	343472	5c2e33e751dcf20001b3204d	4	1	main_z	7	main_z	139	stimuli_target_squarediamonds.svg	stimuli_distractor_trianglediamonds.svg	4	yes	44	1	791	0	0			0	0			1				0	
6.6.1	win	2023-07-10	13:28:01	13:33:49	343472	5c2e33e751dcf20001b3204d	4	1	main_z	7	advance_on_keypress_ZEE	140	stimuli_target_squarediamonds.svg	stimuli_distractor_trianglediamonds.svg	4	yes	57	0	103	0	0			0	0			1				0	
6.6.1	win	2023-07-10	13:28:01	13:33:50	344848	5c2e33e751dcf20001b3204d	4	1	main_z	7	main_z	141	stimuli_target_squarediamonds.svg	stimuli_distractor_diamondtriangles.svg	8	yes	44	1	633	0	0			0	0			1				0	
6.6.1	win	2023-07-10	13:28:01	13:33:50	344848	5c2e33e751dcf20001b3204d	4	1	main_z	7	advance_on_keypress_ZEE	142	stimuli_target_squarediamonds.svg	stimuli_distractor_diamondtriangles.svg	8	yes	57	0	88	0	0			0	0			1				0	
6.6.1	win	2023-07-10	13:28:01	13:33:53	347581	5c2e33e751dcf20001b3204d	4	1	main_z	7	main_z	143	stimuli_distractor_trianglediamonds.svg	stimuli_distractor_trianglediamonds.svg	34	no	0	1	2000	0	0			0	0			1				0	
6.6.1	win	2023-07-10	13:28:01	13:33:53	347581	5c2e33e751dcf20001b3204d	4	1	main_z	7	advance_on_keypress_ZEE	144	stimuli_distractor_trianglediamonds.svg	stimuli_distractor_trianglediamonds.svg	34	no	57	0	331	0	0			0	0			1				0	
6.6.1	win	2023-07-10	13:28:01	13:33:55	349111	5c2e33e751dcf20001b3204d	4	1	main_z	7	main_z	145	stimuli_distractor_trianglediamonds.svg	stimuli_target_diamondrectangles.svg	27	yes	44	1	564	0	0			0	0			1				0	
6.6.1	win	2023-07-10	13:28:01	13:33:55	349111	5c2e33e751dcf20001b3204d	4	1	main_z	7	advance_on_keypress_ZEE	146	stimuli_distractor_trianglediamonds.svg	stimuli_target_diamondrectangles.svg	27	yes	57	0	62	0	0			0	0			1				0	
6.6.1	win	2023-07-10	13:28:01	13:33:56	350808	5c2e33e751dcf20001b3204d	4	1	main_z	7	main_z	147	stimuli_distractor_trianglediamonds.svg	stimuli_distractor_diamondtriangles.svg	35	no	44	0	1011	0	0			0	0			1				0	
6.6.1	win	2023-07-10	13:28:01	13:33:56	350808	5c2e33e751dcf20001b3204d	4	1	main_z	7	advance_on_keypress_ZEE	148	stimuli_distractor_trianglediamonds.svg	stimuli_distractor_diamondtriangles.svg	35	no	57	0	122	0	0			0	0			1				0	
6.6.1	win	2023-07-10	13:28:01	13:33:58	352176	5c2e33e751dcf20001b3204d	4	1	main_z	7	main_z	149	stimuli_distractor_trianglediamonds.svg	stimuli_target_squaretriangles.svg	11	yes	44	1	612	0	0			0	0			1				0	
6.6.1	win	2023-07-10	13:28:01	13:33:58	352176	5c2e33e751dcf20001b3204d	4	1	main_z	7	advance_on_keypress_ZEE	150	stimuli_distractor_trianglediamonds.svg	stimuli_target_squaretriangles.svg	11	yes	57	0	99	0	0			0	0			1				0	
6.6.1	win	2023-07-10	13:28:01	13:33:59	353472	5c2e33e751dcf20001b3204d	4	1	main_z	7	main_z	151	stimuli_distractor_trianglediamonds.svg	stimuli_target_trianglerectangles.svg	25	yes	44	1	558	0	0			0	0			1				0	
6.6.1	win	2023-07-10	13:28:01	13:33:59	353472	5c2e33e751dcf20001b3204d	4	1	main_z	7	advance_on_keypress_ZEE	152	stimuli_distractor_trianglediamonds.svg	stimuli_target_trianglerectangles.svg	25	yes	57	0	88	0	0			0	0			1				0	
6.6.1	win	2023-07-10	13:28:01	13:34:02	356198	5c2e33e751dcf20001b3204d	4	1	main_z	7	main_z	153	stimuli_distractor_diamondtriangles.svg	stimuli_distractor_trianglediamonds.svg	37	no	0	1	2000	0	0			0	0			1				0	
6.6.1	win	2023-07-10	13:28:01	13:34:02	356198	5c2e33e751dcf20001b3204d	4	1	main_z	7	advance_on_keypress_ZEE	154	stimuli_distractor_diamondtriangles.svg	stimuli_distractor_trianglediamonds.svg	37	no	57	0	290	0	0			0	0			1				0	
6.6.1	win	2023-07-10	13:28:01	13:34:03	357544	5c2e33e751dcf20001b3204d	4	1	main_z	7	main_z	155	stimuli_distractor_diamondtriangles.svg	stimuli_target_diamondrectangles.svg	31	yes	44	1	413	0	0			0	0			1				0	
6.6.1	win	2023-07-10	13:28:01	13:34:03	357544	5c2e33e751dcf20001b3204d	4	1	main_z	7	advance_on_keypress_ZEE	156	stimuli_distractor_diamondtriangles.svg	stimuli_target_diamondrectangles.svg	31	yes	57	0	92	0	0			0	0			1				0	
6.6.1	win	2023-07-10	13:28:01	13:34:04	358952	5c2e33e751dcf20001b3204d	4	1	main_z	7	main_z	157	stimuli_distractor_diamondtriangles.svg	stimuli_target_rectangletriangles.svg	13	yes	44	1	688	0	0			0	0			1				0	
6.6.1	win	2023-07-10	13:28:01	13:34:04	358952	5c2e33e751dcf20001b3204d	4	1	main_z	7	advance_on_keypress_ZEE	158	stimuli_distractor_diamondtriangles.svg	stimuli_target_rectangletriangles.svg	13	yes	57	0	100	0	0			0	0			1				0	
6.6.1	win	2023-07-10	13:28:01	13:34:06	360440	5c2e33e751dcf20001b3204d	4	1	main_z	7	main_z	159	stimuli_distractor_trianglediamonds.svg	stimuli_target_rectanglediamonds.svg	10	yes	44	1	742	0	0			0	0			1				0	
6.6.1	win	2023-07-10	13:28:01	13:34:06	360440	5c2e33e751dcf20001b3204d	4	1	main_z	7	advance_on_keypress_ZEE	160	stimuli_distractor_trianglediamonds.svg	stimuli_target_rectanglediamonds.svg	10	yes	57	0	97	0	0			0	0			1				0	
6.6.1	win	2023-07-10	13:28:01	13:34:35	389199	5c2e33e751dcf20001b3204d	4	1	practice_slash	9	practice_slash	1	stimuli_distractor_trianglediamonds.svg	stimuli_distractor_trianglediamonds.svg	15	no	0	1	2000	0	0			0	0			1				0	
6.6.1	win	2023-07-10	13:28:01	13:34:35	389199	5c2e33e751dcf20001b3204d	4	1	practice_slash	9	advance_on_keypress_SLASH	2	stimuli_distractor_trianglediamonds.svg	stimuli_distractor_trianglediamonds.svg	15	no	57	0	522	0	0			0	0			1				0	
6.6.1	win	2023-07-10	13:28:01	13:34:37	391921	5c2e33e751dcf20001b3204d	4	1	practice_slash	9	practice_slash	3	stimuli_target_squarediamonds.svg	stimuli_distractor_diamondtriangles.svg	2	yes	53	1	556	0	0			0	0			1				0	
6.6.1	win	2023-07-10	13:28:01	13:34:37	391921	5c2e33e751dcf20001b3204d	4	1	practice_slash	9	advance_on_keypress_SLASH	4	stimuli_target_squarediamonds.svg	stimuli_distractor_diamondtriangles.svg	2	yes	57	0	549	0	0			0	0			1				0	
6.6.1	win	2023-07-10	13:28:01	13:34:40	394753	5c2e33e751dcf20001b3204d	4	1	practice_slash	9	practice_slash	5	stimuli_distractor_diamondtriangles.svg	stimuli_target_trianglerectangles.svg	9	yes	53	1	638	0	0			0	0			1				0	
6.6.1	win	2023-07-10	13:28:01	13:34:40	394753	5c2e33e751dcf20001b3204d	4	1	practice_slash	9	advance_on_keypress_SLASH	6	stimuli_distractor_diamondtriangles.svg	stimuli_target_trianglerectangles.svg	9	yes	57	0	452	0	0			0	0			1				0	
6.6.1	win	2023-07-10	13:28:01	13:34:43	397368	5c2e33e751dcf20001b3204d	4	1	practice_slash	9	practice_slash	7	stimuli_distractor_trianglediamonds.svg	stimuli_target_diamondrectangles.svg	12	yes	53	1	521	0	0			0	0			1				0	
6.6.1	win	2023-07-10	13:28:01	13:34:43	397368	5c2e33e751dcf20001b3204d	4	1	practice_slash	9	advance_on_keypress_SLASH	8	stimuli_distractor_trianglediamonds.svg	stimuli_target_diamondrectangles.svg	12	yes	57	0	508	0	0			0	0			1				0	
6.6.1	win	2023-07-10	13:28:01	13:34:47	401515	5c2e33e751dcf20001b3204d	4	1	practice_slash	9	practice_slash	9	stimuli_distractor_trianglediamonds.svg	stimuli_distractor_diamondtriangles.svg	16	no	0	1	2000	0	0			0	0			1				0	
6.6.1	win	2023-07-10	13:28:01	13:34:47	401515	5c2e33e751dcf20001b3204d	4	1	practice_slash	9	advance_on_keypress_SLASH	10	stimuli_distractor_trianglediamonds.svg	stimuli_distractor_diamondtriangles.svg	16	no	57	0	566	0	0			0	0			1				0	
6.6.1	win	2023-07-10	13:28:01	13:34:50	404201	5c2e33e751dcf20001b3204d	4	1	practice_slash	9	practice_slash	11	stimuli_target_rectanglediamonds.svg	stimuli_distractor_trianglediamonds.svg	4	yes	53	1	470	0	0			0	0			1				0	
6.6.1	win	2023-07-10	13:28:01	13:34:50	404201	5c2e33e751dcf20001b3204d	4	1	practice_slash	9	advance_on_keypress_SLASH	12	stimuli_target_rectanglediamonds.svg	stimuli_distractor_trianglediamonds.svg	4	yes	57	0	602	0	0			0	0			1				0	
6.6.1	win	2023-07-10	13:28:01	13:34:54	408448	5c2e33e751dcf20001b3204d	4	1	practice_slash	9	practice_slash	13	stimuli_distractor_diamondtriangles.svg	stimuli_distractor_diamondtriangles.svg	13	no	0	1	2000	0	0			0	0			1				0	
6.6.1	win	2023-07-10	13:28:01	13:34:54	408448	5c2e33e751dcf20001b3204d	4	1	practice_slash	9	advance_on_keypress_SLASH	14	stimuli_distractor_diamondtriangles.svg	stimuli_distractor_diamondtriangles.svg	13	no	57	0	472	0	0			0	0			1				0	
6.6.1	win	2023-07-10	13:28:01	13:34:58	412565	5c2e33e751dcf20001b3204d	4	1	practice_slash	9	practice_slash	15	stimuli_distractor_diamondtriangles.svg	stimuli_distractor_trianglediamonds.svg	14	no	0	1	2000	0	0			0	0			1				0	
6.6.1	win	2023-07-10	13:28:01	13:34:58	412565	5c2e33e751dcf20001b3204d	4	1	practice_slash	9	advance_on_keypress_SLASH	16	stimuli_distractor_diamondtriangles.svg	stimuli_distractor_trianglediamonds.svg	14	no	57	0	412	0	0			0	0			1				0	
6.6.1	win	2023-07-10	13:28:01	13:35:01	415017	5c2e33e751dcf20001b3204d	4	1	practice_slash	9	practice_slash	17	stimuli_target_rectanglediamonds.svg	stimuli_distractor_diamondtriangles.svg	1	yes	53	1	403	0	0			0	0			1				0	
6.6.1	win	2023-07-10	13:28:01	13:35:01	415017	5c2e33e751dcf20001b3204d	4	1	practice_slash	9	advance_on_keypress_SLASH	18	stimuli_target_rectanglediamonds.svg	stimuli_distractor_diamondtriangles.svg	1	yes	57	0	578	0	0			0	0			1				0	
6.6.1	win	2023-07-10	13:28:01	13:35:03	417841	5c2e33e751dcf20001b3204d	4	1	practice_slash	9	practice_slash	19	stimuli_distractor_diamondtriangles.svg	stimuli_target_diamondrectangles.svg	8	yes	53	1	610	0	0			0	0			1				0	
6.6.1	win	2023-07-10	13:28:01	13:35:03	417841	5c2e33e751dcf20001b3204d	4	1	practice_slash	9	advance_on_keypress_SLASH	20	stimuli_distractor_diamondtriangles.svg	stimuli_target_diamondrectangles.svg	8	yes	57	0	481	0	0			0	0			1				0	
6.6.1	win	2023-07-10	13:28:01	13:35:06	420729	5c2e33e751dcf20001b3204d	4	1	practice_slash	9	practice_slash	21	stimuli_target_squarediamonds.svg	stimuli_distractor_trianglediamonds.svg	5	yes	53	1	765	0	0			0	0			1				0	
6.6.1	win	2023-07-10	13:28:01	13:35:06	420729	5c2e33e751dcf20001b3204d	4	1	practice_slash	9	advance_on_keypress_SLASH	22	stimuli_target_squarediamonds.svg	stimuli_distractor_trianglediamonds.svg	5	yes	57	0	549	0	0			0	0			1				0	
6.6.1	win	2023-07-10	13:28:01	13:35:09	423448	5c2e33e751dcf20001b3204d	4	1	practice_slash	9	practice_slash	23	stimuli_distractor_trianglediamonds.svg	stimuli_target_squarediamonds.svg	11	yes	53	1	518	0	0			0	0			1				0	
6.6.1	win	2023-07-10	13:28:01	13:35:09	423448	5c2e33e751dcf20001b3204d	4	1	practice_slash	9	advance_on_keypress_SLASH	24	stimuli_distractor_trianglediamonds.svg	stimuli_target_squarediamonds.svg	11	yes	57	0	921	0	0			0	0			1				0	
6.6.1	win	2023-07-10	13:28:01	13:35:12	426545	5c2e33e751dcf20001b3204d	4	1	practice_slash	9	practice_slash	25	stimuli_distractor_diamondtriangles.svg	stimuli_target_rectangletriangles.svg	7	yes	53	1	531	0	0			0	0			1				0	
6.6.1	win	2023-07-10	13:28:01	13:35:12	426545	5c2e33e751dcf20001b3204d	4	1	practice_slash	9	advance_on_keypress_SLASH	26	stimuli_distractor_diamondtriangles.svg	stimuli_target_rectangletriangles.svg	7	yes	57	0	309	0	0			0	0			1				0	
6.6.1	win	2023-07-10	13:28:01	13:35:15	429121	5c2e33e751dcf20001b3204d	4	1	practice_slash	9	practice_slash	27	stimuli_target_diamondsquares.svg	stimuli_distractor_diamondtriangles.svg	3	yes	53	1	623	0	0			0	0			1				0	
6.6.1	win	2023-07-10	13:28:01	13:35:15	429121	5c2e33e751dcf20001b3204d	4	1	practice_slash	9	advance_on_keypress_SLASH	28	stimuli_target_diamondsquares.svg	stimuli_distractor_diamondtriangles.svg	3	yes	57	0	430	0	0			0	0			1				0	
6.6.1	win	2023-07-10	13:28:01	13:35:17	431648	5c2e33e751dcf20001b3204d	4	1	practice_slash	9	practice_slash	29	stimuli_distractor_trianglediamonds.svg	stimuli_target_rectanglediamonds.svg	10	yes	53	1	468	0	0			0	0			1				0	
6.6.1	win	2023-07-10	13:28:01	13:35:17	431648	5c2e33e751dcf20001b3204d	4	1	practice_slash	9	advance_on_keypress_SLASH	30	stimuli_distractor_trianglediamonds.svg	stimuli_target_rectanglediamonds.svg	10	yes	57	0	617	0	0			0	0			1				0	
6.6.1	win	2023-07-10	13:28:01	13:35:20	434457	5c2e33e751dcf20001b3204d	4	1	practice_slash	9	practice_slash	31	stimuli_target_diamondsquares.svg	stimuli_distractor_trianglediamonds.svg	6	yes	53	1	543	0	0			0	0			1				0	
6.6.1	win	2023-07-10	13:28:01	13:35:20	434457	5c2e33e751dcf20001b3204d	4	1	practice_slash	9	advance_on_keypress_SLASH	32	stimuli_target_diamondsquares.svg	stimuli_distractor_trianglediamonds.svg	6	yes	57	0	257	0	0			0	0			1				0	
6.6.1	win	2023-07-10	13:28:01	13:35:23	437440	5c2e33e751dcf20001b3204d	4	1	main_slash	11	main_slash	1	stimuli_distractor_diamondtriangles.svg	stimuli_target_rectangletriangles.svg	13	yes	53	1	468	0	0			0	0			1				0	
6.6.1	win	2023-07-10	13:28:01	13:35:23	437440	5c2e33e751dcf20001b3204d	4	1	main_slash	11	advance_on_keypress_SLASH	2	stimuli_distractor_diamondtriangles.svg	stimuli_target_rectangletriangles.svg	13	yes	57	0	857	0	0			0	0			1				0	
6.6.1	win	2023-07-10	13:28:01	13:35:25	439520	5c2e33e751dcf20001b3204d	4	1	main_slash	11	main_slash	3	stimuli_target_diamondsquares.svg	stimuli_distractor_trianglediamonds.svg	20	yes	53	1	573	0	0			0	0			1				0	
6.6.1	win	2023-07-10	13:28:01	13:35:25	439520	5c2e33e751dcf20001b3204d	4	1	main_slash	11	advance_on_keypress_SLASH	4	stimuli_target_diamondsquares.svg	stimuli_distractor_trianglediamonds.svg	20	yes	57	0	398	0	0			0	0			1				0	
6.6.1	win	2023-07-10	13:28:01	13:35:27	441488	5c2e33e751dcf20001b3204d	4	1	main_slash	11	main_slash	5	stimuli_distractor_diamondtriangles.svg	stimuli_distractor_trianglediamonds.svg	38	no	53	0	941	0	0			0	0			1				0	
6.6.1	win	2023-07-10	13:28:01	13:35:27	441488	5c2e33e751dcf20001b3204d	4	1	main_slash	11	advance_on_keypress_SLASH	6	stimuli_distractor_diamondtriangles.svg	stimuli_distractor_trianglediamonds.svg	38	no	57	0	527	0	0			0	0			1				0	
6.6.1	win	2023-07-10	13:28:01	13:35:30	444647	5c2e33e751dcf20001b3204d	4	1	main_slash	11	main_slash	7	stimuli_distractor_trianglediamonds.svg	stimuli_distractor_trianglediamonds.svg	34	no	0	1	2000	0	0			0	0			1				0	
6.6.1	win	2023-07-10	13:28:01	13:35:30	444647	5c2e33e751dcf20001b3204d	4	1	main_slash	11	advance_on_keypress_SLASH	8	stimuli_distractor_trianglediamonds.svg	stimuli_distractor_trianglediamonds.svg	34	no	57	0	297	0	0			0	0			1				0	
6.6.1	win	2023-07-10	13:28:01	13:35:32	446144	5c2e33e751dcf20001b3204d	4	1	main_slash	11	main_slash	9	stimuli_distractor_trianglediamonds.svg	stimuli_target_squarediamonds.svg	12	yes	53	1	564	0	0			0	0			1				0	
6.6.1	win	2023-07-10	13:28:01	13:35:32	446144	5c2e33e751dcf20001b3204d	4	1	main_slash	11	advance_on_keypress_SLASH	10	stimuli_distractor_trianglediamonds.svg	stimuli_target_squarediamonds.svg	12	yes	57	0	517	0	0			0	0			1				0	
6.6.1	win	2023-07-10	13:28:01	13:35:35	449297	5c2e33e751dcf20001b3204d	4	1	main_slash	11	main_slash	11	stimuli_distractor_trianglediamonds.svg	stimuli_distractor_diamondtriangles.svg	36	no	0	1	2000	0	0			0	0			1				0	
6.6.1	win	2023-07-10	13:28:01	13:35:35	449297	5c2e33e751dcf20001b3204d	4	1	main_slash	11	advance_on_keypress_SLASH	12	stimuli_distractor_trianglediamonds.svg	stimuli_distractor_diamondtriangles.svg	36	no	57	0	391	0	0			0	0			1				0	
6.6.1	win	2023-07-10	13:28:01	13:35:38	452330	5c2e33e751dcf20001b3204d	4	1	main_slash	11	main_slash	13	stimuli_distractor_diamondtriangles.svg	stimuli_distractor_diamondtriangles.svg	39	no	0	1	2000	0	0			0	0			1				0	
6.6.1	win	2023-07-10	13:28:01	13:35:38	452330	5c2e33e751dcf20001b3204d	4	1	main_slash	11	advance_on_keypress_SLASH	14	stimuli_distractor_diamondtriangles.svg	stimuli_distractor_diamondtriangles.svg	39	no	57	0	461	0	0			0	0			1				0	
6.6.1	win	2023-07-10	13:28:01	13:35:40	454000	5c2e33e751dcf20001b3204d	4	1	main_slash	11	main_slash	15	stimuli_distractor_trianglediamonds.svg	stimuli_target_rectanglediamonds.svg	10	yes	53	1	570	0	0			0	0			1				0	
6.6.1	win	2023-07-10	13:28:01	13:35:40	454000	5c2e33e751dcf20001b3204d	4	1	main_slash	11	advance_on_keypress_SLASH	16	stimuli_distractor_trianglediamonds.svg	stimuli_target_rectanglediamonds.svg	10	yes	57	0	739	0	0			0	0			1				0	
6.6.1	win	2023-07-10	13:28:01	13:35:41	455832	5c2e33e751dcf20001b3204d	4	1	main_slash	11	main_slash	17	stimuli_target_diamondrectangles.svg	stimuli_distractor_trianglediamonds.svg	19	yes	53	1	452	0	0			0	0			1				0	
6.6.1	win	2023-07-10	13:28:01	13:35:41	455832	5c2e33e751dcf20001b3204d	4	1	main_slash	11	advance_on_keypress_SLASH	18	stimuli_target_diamondrectangles.svg	stimuli_distractor_trianglediamonds.svg	19	yes	57	0	369	0	0			0	0			1				0	
6.6.1	win	2023-07-10	13:28:01	13:35:43	457424	5c2e33e751dcf20001b3204d	4	1	main_slash	11	main_slash	19	stimuli_distractor_trianglediamonds.svg	stimuli_target_diamondrectangles.svg	27	yes	53	1	577	0	0			0	0			1				0	
6.6.1	win	2023-07-10	13:28:01	13:35:43	457424	5c2e33e751dcf20001b3204d	4	1	main_slash	11	advance_on_keypress_SLASH	20	stimuli_distractor_trianglediamonds.svg	stimuli_target_diamondrectangles.svg	27	yes	57	0	474	0	0			0	0			1				0	
6.6.1	win	2023-07-10	13:28:01	13:35:45	459048	5c2e33e751dcf20001b3204d	4	1	main_slash	11	main_slash	21	stimuli_distractor_trianglediamonds.svg	stimuli_target_diamondsquares.svg	28	yes	53	1	518	0	0			0	0			1				0	
6.6.1	win	2023-07-10	13:28:01	13:35:45	459048	5c2e33e751dcf20001b3204d	4	1	main_slash	11	advance_on_keypress_SLASH	22	stimuli_distractor_trianglediamonds.svg	stimuli_target_diamondsquares.svg	28	yes	57	0	425	0	0			0	0			1				0	
6.6.1	win	2023-07-10	13:28:01	13:35:47	461304	5c2e33e751dcf20001b3204d	4	1	main_slash	11	main_slash	23	stimuli_distractor_diamondtriangles.svg	stimuli_target_rectanglediamonds.svg	14	yes	53	1	1191	0	0			0	0			1				0	
6.6.1	win	2023-07-10	13:28:01	13:35:47	461304	5c2e33e751dcf20001b3204d	4	1	main_slash	11	advance_on_keypress_SLASH	24	stimuli_distractor_diamondtriangles.svg	stimuli_target_rectanglediamonds.svg	14	yes	57	0	455	0	0			0	0			1				0	
6.6.1	win	2023-07-10	13:28:01	13:35:48	462896	5c2e33e751dcf20001b3204d	4	1	main_slash	11	main_slash	25	stimuli_distractor_diamondtriangles.svg	stimuli_target_trianglerectangles.svg	29	yes	53	1	499	0	0			0	0			1				0	
6.6.1	win	2023-07-10	13:28:01	13:35:48	462896	5c2e33e751dcf20001b3204d	4	1	main_slash	11	advance_on_keypress_SLASH	26	stimuli_distractor_diamondtriangles.svg	stimuli_target_trianglerectangles.svg	29	yes	57	0	231	0	0			0	0			1				0	
6.6.1	win	2023-07-10	13:28:01	13:35:51	465448	5c2e33e751dcf20001b3204d	4	1	main_slash	11	main_slash	27	stimuli_target_rectanglediamonds.svg	stimuli_distractor_diamondtriangles.svg	6	yes	53	1	1668	0	0			0	0			1				0	
6.6.1	win	2023-07-10	13:28:01	13:35:51	465448	5c2e33e751dcf20001b3204d	4	1	main_slash	11	advance_on_keypress_SLASH	28	stimuli_target_rectanglediamonds.svg	stimuli_distractor_diamondtriangles.svg	6	yes	57	0	569	0	0			0	0			1				0	
6.6.1	win	2023-07-10	13:28:01	13:35:53	467832	5c2e33e751dcf20001b3204d	4	1	main_slash	11	main_slash	29	stimuli_distractor_diamondtriangles.svg	stimuli_target_squaretriangles.svg	15	yes	53	1	1169	0	0			0	0			1				0	
6.6.1	win	2023-07-10	13:28:01	13:35:53	467832	5c2e33e751dcf20001b3204d	4	1	main_slash	11	advance_on_keypress_SLASH	30	stimuli_distractor_diamondtriangles.svg	stimuli_target_squaretriangles.svg	15	yes	57	0	234	0	0			0	0			1				0	
6.6.1	win	2023-07-10	13:28:01	13:35:55	469336	5c2e33e751dcf20001b3204d	4	1	main_slash	11	main_slash	31	stimuli_distractor_diamondtriangles.svg	stimuli_target_diamondrectangles.svg	31	yes	53	1	623	0	0			0	0			1				0	
6.6.1	win	2023-07-10	13:28:01	13:35:55	469336	5c2e33e751dcf20001b3204d	4	1	main_slash	11	advance_on_keypress_SLASH	32	stimuli_distractor_diamondtriangles.svg	stimuli_target_diamondrectangles.svg	31	yes	57	0	158	0	0			0	0			1				0	
6.6.1	win	2023-07-10	13:28:01	13:35:56	470656	5c2e33e751dcf20001b3204d	4	1	main_slash	11	main_slash	33	stimuli_target_diamondsquares.svg	stimuli_distractor_diamondtriangles.svg	24	yes	53	1	526	0	0			0	0			1				0	
6.6.1	win	2023-07-10	13:28:01	13:35:56	470656	5c2e33e751dcf20001b3204d	4	1	main_slash	11	advance_on_keypress_SLASH	34	stimuli_target_diamondsquares.svg	stimuli_distractor_diamondtriangles.svg	24	yes	57	0	177	0	0			0	0			1				0	
6.6.1	win	2023-07-10	13:28:01	13:35:59	473464	5c2e33e751dcf20001b3204d	4	1	main_slash	11	main_slash	35	stimuli_distractor_diamondtriangles.svg	stimuli_distractor_trianglediamonds.svg	37	no	0	1	2000	0	0			0	0			1				0	
6.6.1	win	2023-07-10	13:28:01	13:35:59	473464	5c2e33e751dcf20001b3204d	4	1	main_slash	11	advance_on_keypress_SLASH	36	stimuli_distractor_diamondtriangles.svg	stimuli_distractor_trianglediamonds.svg	37	no	57	0	296	0	0			0	0			1				0	
6.6.1	win	2023-07-10	13:28:01	13:36:00	474872	5c2e33e751dcf20001b3204d	4	1	main_slash	11	main_slash	37	stimuli_distractor_trianglediamonds.svg	stimuli_target_trianglesquares.svg	26	yes	53	1	476	0	0			0	0			1				0	
6.6.1	win	2023-07-10	13:28:01	13:36:00	474872	5c2e33e751dcf20001b3204d	4	1	main_slash	11	advance_on_keypress_SLASH	38	stimuli_distractor_trianglediamonds.svg	stimuli_target_trianglesquares.svg	26	yes	57	0	144	0	0			0	0			1				0	
6.6.1	win	2023-07-10	13:28:01	13:36:02	476608	5c2e33e751dcf20001b3204d	4	1	main_slash	11	main_slash	39	stimuli_distractor_trianglediamonds.svg	stimuli_distractor_diamondtriangles.svg	35	no	53	0	961	0	0			0	0			1				0	
6.6.1	win	2023-07-10	13:28:01	13:36:02	476608	5c2e33e751dcf20001b3204d	4	1	main_slash	11	advance_on_keypress_SLASH	40	stimuli_distractor_trianglediamonds.svg	stimuli_distractor_diamondtriangles.svg	35	no	57	0	163	0	0			0	0			1				0	
6.6.1	win	2023-07-10	13:28:01	13:36:04	478104	5c2e33e751dcf20001b3204d	4	1	main_slash	11	main_slash	41	stimuli_target_rectanglediamonds.svg	stimuli_distractor_trianglediamonds.svg	2	yes	53	1	708	0	0			0	0			1				0	
6.6.1	win	2023-07-10	13:28:01	13:36:04	478104	5c2e33e751dcf20001b3204d	4	1	main_slash	11	advance_on_keypress_SLASH	42	stimuli_target_rectanglediamonds.svg	stimuli_distractor_trianglediamonds.svg	2	yes	57	0	183	0	0			0	0			1				0	
6.6.1	win	2023-07-10	13:28:01	13:36:05	479600	5c2e33e751dcf20001b3204d	4	1	main_slash	11	main_slash	43	stimuli_target_trianglerectangles.svg	stimuli_distractor_diamondtriangles.svg	21	yes	53	1	670	0	0			0	0			1				0	
6.6.1	win	2023-07-10	13:28:01	13:36:05	479600	5c2e33e751dcf20001b3204d	4	1	main_slash	11	advance_on_keypress_SLASH	44	stimuli_target_trianglerectangles.svg	stimuli_distractor_diamondtriangles.svg	21	yes	57	0	163	0	0			0	0			1				0	
6.6.1	win	2023-07-10	13:28:01	13:36:07	481752	5c2e33e751dcf20001b3204d	4	1	main_slash	11	main_slash	45	stimuli_target_squarediamonds.svg	stimuli_distractor_trianglediamonds.svg	4	yes	53	1	1356	0	0			0	0			1				0	
6.6.1	win	2023-07-10	13:28:01	13:36:07	481752	5c2e33e751dcf20001b3204d	4	1	main_slash	11	advance_on_keypress_SLASH	46	stimuli_target_squarediamonds.svg	stimuli_distractor_trianglediamonds.svg	4	yes	57	0	205	0	0			0	0			1				0	
6.6.1	win	2023-07-10	13:28:01	13:36:09	483496	5c2e33e751dcf20001b3204d	4	1	main_slash	11	main_slash	47	stimuli_target_trianglesquares.svg	stimuli_distractor_diamondtriangles.svg	22	yes	53	1	900	0	0			0	0			1				0	
6.6.1	win	2023-07-10	13:28:01	13:36:09	483496	5c2e33e751dcf20001b3204d	4	1	main_slash	11	advance_on_keypress_SLASH	48	stimuli_target_trianglesquares.svg	stimuli_distractor_diamondtriangles.svg	22	yes	57	0	159	0	0			0	0			1				0	
6.6.1	win	2023-07-10	13:28:01	13:36:10	484808	5c2e33e751dcf20001b3204d	4	1	main_slash	11	main_slash	49	stimuli_distractor_diamondtriangles.svg	stimuli_target_trianglesquares.svg	30	yes	53	1	512	0	0			0	0			1				0	
6.6.1	win	2023-07-10	13:28:01	13:36:10	484808	5c2e33e751dcf20001b3204d	4	1	main_slash	11	advance_on_keypress_SLASH	50	stimuli_distractor_diamondtriangles.svg	stimuli_target_trianglesquares.svg	30	yes	57	0	59	0	0			0	0			1				0	
6.6.1	win	2023-07-10	13:28:01	13:36:12	486640	5c2e33e751dcf20001b3204d	4	1	main_slash	11	main_slash	51	stimuli_target_squarediamonds.svg	stimuli_distractor_diamondtriangles.svg	8	yes	53	1	1144	0	0			0	0			1				0	
6.6.1	win	2023-07-10	13:28:01	13:36:12	486640	5c2e33e751dcf20001b3204d	4	1	main_slash	11	advance_on_keypress_SLASH	52	stimuli_target_squarediamonds.svg	stimuli_distractor_diamondtriangles.svg	8	yes	57	0	154	0	0			0	0			1				0	
6.6.1	win	2023-07-10	13:28:01	13:36:14	488184	5c2e33e751dcf20001b3204d	4	1	main_slash	11	main_slash	53	stimuli_distractor_trianglediamonds.svg	stimuli_target_rectangletriangles.svg	9	yes	53	1	754	0	0			0	0			1				0	
6.6.1	win	2023-07-10	13:28:01	13:36:14	488184	5c2e33e751dcf20001b3204d	4	1	main_slash	11	advance_on_keypress_SLASH	54	stimuli_distractor_trianglediamonds.svg	stimuli_target_rectangletriangles.svg	9	yes	57	0	140	0	0			0	0			1				0	
6.6.1	win	2023-07-10	13:28:01	13:36:15	489568	5c2e33e751dcf20001b3204d	4	1	main_slash	11	main_slash	55	stimuli_distractor_diamondtriangles.svg	stimuli_target_diamondsquares.svg	32	yes	53	1	605	0	0			0	0			1				0	
6.6.1	win	2023-07-10	13:28:01	13:36:15	489568	5c2e33e751dcf20001b3204d	4	1	main_slash	11	advance_on_keypress_SLASH	56	stimuli_distractor_diamondtriangles.svg	stimuli_target_diamondsquares.svg	32	yes	57	0	108	0	0			0	0			1				0	
6.6.1	win	2023-07-10	13:28:01	13:36:17	491608	5c2e33e751dcf20001b3204d	4	1	main_slash	11	main_slash	57	stimuli_distractor_trianglediamonds.svg	stimuli_target_squaretriangles.svg	11	yes	53	1	1295	0	0			0	0			1				0	
6.6.1	win	2023-07-10	13:28:01	13:36:17	491608	5c2e33e751dcf20001b3204d	4	1	main_slash	11	advance_on_keypress_SLASH	58	stimuli_distractor_trianglediamonds.svg	stimuli_target_squaretriangles.svg	11	yes	57	0	179	0	0			0	0			1				0	
6.6.1	win	2023-07-10	13:28:01	13:36:20	494413	5c2e33e751dcf20001b3204d	4	1	main_slash	11	main_slash	59	stimuli_distractor_trianglediamonds.svg	stimuli_distractor_trianglediamonds.svg	33	no	0	1	2000	0	0			0	0			1				0	
6.6.1	win	2023-07-10	13:28:01	13:36:20	494413	5c2e33e751dcf20001b3204d	4	1	main_slash	11	advance_on_keypress_SLASH	60	stimuli_distractor_trianglediamonds.svg	stimuli_distractor_trianglediamonds.svg	33	no	57	0	322	0	0			0	0			1				0	
6.6.1	win	2023-07-10	13:28:01	13:36:21	495864	5c2e33e751dcf20001b3204d	4	1	main_slash	11	main_slash	61	stimuli_target_squaretriangles.svg	stimuli_distractor_trianglediamonds.svg	3	yes	53	1	484	0	0			0	0			1				0	
6.6.1	win	2023-07-10	13:28:01	13:36:21	495864	5c2e33e751dcf20001b3204d	4	1	main_slash	11	advance_on_keypress_SLASH	62	stimuli_target_squaretriangles.svg	stimuli_distractor_trianglediamonds.svg	3	yes	57	0	160	0	0			0	0			1				0	
6.6.1	win	2023-07-10	13:28:01	13:36:24	498663	5c2e33e751dcf20001b3204d	4	1	main_slash	11	main_slash	63	stimuli_distractor_diamondtriangles.svg	stimuli_distractor_diamondtriangles.svg	40	no	0	1	2000	0	0			0	0			1				0	
6.6.1	win	2023-07-10	13:28:01	13:36:24	498663	5c2e33e751dcf20001b3204d	4	1	main_slash	11	advance_on_keypress_SLASH	64	stimuli_distractor_diamondtriangles.svg	stimuli_distractor_diamondtriangles.svg	40	no	57	0	360	0	0			0	0			1				0	
6.6.1	win	2023-07-10	13:28:01	13:36:26	500120	5c2e33e751dcf20001b3204d	4	1	main_slash	11	main_slash	65	stimuli_target_rectangletriangles.svg	stimuli_distractor_trianglediamonds.svg	1	yes	53	1	457	0	0			0	0			1				0	
6.6.1	win	2023-07-10	13:28:01	13:36:26	500120	5c2e33e751dcf20001b3204d	4	1	main_slash	11	advance_on_keypress_SLASH	66	stimuli_target_rectangletriangles.svg	stimuli_distractor_trianglediamonds.svg	1	yes	57	0	102	0	0			0	0			1				0	
6.6.1	win	2023-07-10	13:28:01	13:36:27	501568	5c2e33e751dcf20001b3204d	4	1	main_slash	11	main_slash	67	stimuli_target_rectangletriangles.svg	stimuli_distractor_diamondtriangles.svg	5	yes	53	1	705	0	0			0	0			1				0	
6.6.1	win	2023-07-10	13:28:01	13:36:27	501568	5c2e33e751dcf20001b3204d	4	1	main_slash	11	advance_on_keypress_SLASH	68	stimuli_target_rectangletriangles.svg	stimuli_distractor_diamondtriangles.svg	5	yes	57	0	124	0	0			0	0			1				0	
6.6.1	win	2023-07-10	13:28:01	13:36:28	502936	5c2e33e751dcf20001b3204d	4	1	main_slash	11	main_slash	69	stimuli_distractor_trianglediamonds.svg	stimuli_target_trianglerectangles.svg	25	yes	53	1	606	0	0			0	0			1				0	
6.6.1	win	2023-07-10	13:28:01	13:36:28	502936	5c2e33e751dcf20001b3204d	4	1	main_slash	11	advance_on_keypress_SLASH	70	stimuli_distractor_trianglediamonds.svg	stimuli_target_trianglerectangles.svg	25	yes	57	0	118	0	0			0	0			1				0	
6.6.1	win	2023-07-10	13:28:01	13:36:30	504208	5c2e33e751dcf20001b3204d	4	1	main_slash	11	main_slash	71	stimuli_target_trianglesquares.svg	stimuli_distractor_trianglediamonds.svg	18	yes	53	1	512	0	0			0	0			1				0	
6.6.1	win	2023-07-10	13:28:01	13:36:30	504208	5c2e33e751dcf20001b3204d	4	1	main_slash	11	advance_on_keypress_SLASH	72	stimuli_target_trianglesquares.svg	stimuli_distractor_trianglediamonds.svg	18	yes	57	0	99	0	0			0	0			1				0	
6.6.1	win	2023-07-10	13:28:01	13:36:31	505536	5c2e33e751dcf20001b3204d	4	1	main_slash	11	main_slash	73	stimuli_distractor_diamondtriangles.svg	stimuli_target_squarediamonds.svg	16	yes	53	1	590	0	0			0	0			1				0	
6.6.1	win	2023-07-10	13:28:01	13:36:31	505536	5c2e33e751dcf20001b3204d	4	1	main_slash	11	advance_on_keypress_SLASH	74	stimuli_distractor_diamondtriangles.svg	stimuli_target_squarediamonds.svg	16	yes	57	0	134	0	0			0	0			1				0	
6.6.1	win	2023-07-10	13:28:01	13:36:33	507440	5c2e33e751dcf20001b3204d	4	1	main_slash	11	main_slash	75	stimuli_target_diamondrectangles.svg	stimuli_distractor_diamondtriangles.svg	23	yes	53	1	1127	0	0			0	0			1				0	
6.6.1	win	2023-07-10	13:28:01	13:36:33	507440	5c2e33e751dcf20001b3204d	4	1	main_slash	11	advance_on_keypress_SLASH	76	stimuli_target_diamondrectangles.svg	stimuli_distractor_diamondtriangles.svg	23	yes	57	0	138	0	0			0	0			1				0	
6.6.1	win	2023-07-10	13:28:01	13:36:34	508984	5c2e33e751dcf20001b3204d	4	1	main_slash	11	main_slash	77	stimuli_target_squaretriangles.svg	stimuli_distractor_diamondtriangles.svg	7	yes	53	1	771	0	0			0	0			1				0	
6.6.1	win	2023-07-10	13:28:01	13:36:34	508984	5c2e33e751dcf20001b3204d	4	1	main_slash	11	advance_on_keypress_SLASH	78	stimuli_target_squaretriangles.svg	stimuli_distractor_diamondtriangles.svg	7	yes	57	0	108	0	0			0	0			1				0	
6.6.1	win	2023-07-10	13:28:01	13:36:36	510352	5c2e33e751dcf20001b3204d	4	1	main_slash	11	main_slash	79	stimuli_target_trianglerectangles.svg	stimuli_distractor_trianglediamonds.svg	17	yes	53	1	622	0	0			0	0			1				0	
6.6.1	win	2023-07-10	13:28:01	13:36:36	510352	5c2e33e751dcf20001b3204d	4	1	main_slash	11	advance_on_keypress_SLASH	80	stimuli_target_trianglerectangles.svg	stimuli_distractor_trianglediamonds.svg	17	yes	57	0	117	0	0			0	0			1				0	
6.6.1	win	2023-07-10	13:28:01	13:36:37	511896	5c2e33e751dcf20001b3204d	4	1	main_slash	11	main_slash	81	stimuli_distractor_diamondtriangles.svg	stimuli_target_squaretriangles.svg	15	yes	53	1	783	0	0			0	0			1				0	
6.6.1	win	2023-07-10	13:28:01	13:36:37	511896	5c2e33e751dcf20001b3204d	4	1	main_slash	11	advance_on_keypress_SLASH	82	stimuli_distractor_diamondtriangles.svg	stimuli_target_squaretriangles.svg	15	yes	57	0	103	0	0			0	0			1				0	
6.6.1	win	2023-07-10	13:28:01	13:36:40	514647	5c2e33e751dcf20001b3204d	4	1	main_slash	11	main_slash	83	stimuli_distractor_diamondtriangles.svg	stimuli_distractor_trianglediamonds.svg	38	no	0	1	2000	0	0			0	0			1				0	
6.6.1	win	2023-07-10	13:28:01	13:36:40	514647	5c2e33e751dcf20001b3204d	4	1	main_slash	11	advance_on_keypress_SLASH	84	stimuli_distractor_diamondtriangles.svg	stimuli_distractor_trianglediamonds.svg	38	no	57	0	345	0	0			0	0			1				0	
6.6.1	win	2023-07-10	13:28:01	13:36:43	517630	5c2e33e751dcf20001b3204d	4	1	main_slash	11	main_slash	85	stimuli_distractor_trianglediamonds.svg	stimuli_distractor_trianglediamonds.svg	33	no	0	1	2000	0	0			0	0			1				0	
6.6.1	win	2023-07-10	13:28:01	13:36:43	517630	5c2e33e751dcf20001b3204d	4	1	main_slash	11	advance_on_keypress_SLASH	86	stimuli_distractor_trianglediamonds.svg	stimuli_distractor_trianglediamonds.svg	33	no	57	0	266	0	0			0	0			1				0	
6.6.1	win	2023-07-10	13:28:01	13:36:45	519184	5c2e33e751dcf20001b3204d	4	1	main_slash	11	main_slash	87	stimuli_distractor_diamondtriangles.svg	stimuli_target_trianglerectangles.svg	29	yes	53	1	638	0	0			0	0			1				0	
6.6.1	win	2023-07-10	13:28:01	13:36:45	519184	5c2e33e751dcf20001b3204d	4	1	main_slash	11	advance_on_keypress_SLASH	88	stimuli_distractor_diamondtriangles.svg	stimuli_target_trianglerectangles.svg	29	yes	57	0	132	0	0			0	0			1				0	
6.6.1	win	2023-07-10	13:28:01	13:36:46	520528	5c2e33e751dcf20001b3204d	4	1	main_slash	11	main_slash	89	stimuli_distractor_diamondtriangles.svg	stimuli_target_trianglesquares.svg	30	yes	53	1	565	0	0			0	0			1				0	
6.6.1	win	2023-07-10	13:28:01	13:36:46	520528	5c2e33e751dcf20001b3204d	4	1	main_slash	11	advance_on_keypress_SLASH	90	stimuli_distractor_diamondtriangles.svg	stimuli_target_trianglesquares.svg	30	yes	57	0	126	0	0			0	0			1				0	
6.6.1	win	2023-07-10	13:28:01	13:36:47	521912	5c2e33e751dcf20001b3204d	4	1	main_slash	11	main_slash	91	stimuli_distractor_diamondtriangles.svg	stimuli_target_diamondrectangles.svg	31	yes	53	1	616	0	0			0	0			1				0	
6.6.1	win	2023-07-10	13:28:01	13:36:47	521912	5c2e33e751dcf20001b3204d	4	1	main_slash	11	advance_on_keypress_SLASH	92	stimuli_distractor_diamondtriangles.svg	stimuli_target_diamondrectangles.svg	31	yes	57	0	95	0	0			0	0			1				0	
6.6.1	win	2023-07-10	13:28:01	13:36:49	523144	5c2e33e751dcf20001b3204d	4	1	main_slash	11	main_slash	93	stimuli_target_rectanglediamonds.svg	stimuli_distractor_diamondtriangles.svg	6	yes	53	1	498	0	0			0	0			1				0	
6.6.1	win	2023-07-10	13:28:01	13:36:49	523144	5c2e33e751dcf20001b3204d	4	1	main_slash	11	advance_on_keypress_SLASH	94	stimuli_target_rectanglediamonds.svg	stimuli_distractor_diamondtriangles.svg	6	yes	57	0	133	0	0			0	0			1				0	
6.6.1	win	2023-07-10	13:28:01	13:36:50	524528	5c2e33e751dcf20001b3204d	4	1	main_slash	11	main_slash	95	stimuli_target_diamondsquares.svg	stimuli_distractor_trianglediamonds.svg	20	yes	53	1	599	0	0			0	0			1				0	
6.6.1	win	2023-07-10	13:28:01	13:36:50	524528	5c2e33e751dcf20001b3204d	4	1	main_slash	11	advance_on_keypress_SLASH	96	stimuli_target_diamondsquares.svg	stimuli_distractor_trianglediamonds.svg	20	yes	57	0	126	0	0			0	0			1				0	
6.6.1	win	2023-07-10	13:28:01	13:36:52	526072	5c2e33e751dcf20001b3204d	4	1	main_slash	11	main_slash	97	stimuli_distractor_trianglediamonds.svg	stimuli_distractor_diamondtriangles.svg	36	no	53	0	776	0	0			0	0			1				0	
6.6.1	win	2023-07-10	13:28:01	13:36:52	526072	5c2e33e751dcf20001b3204d	4	1	main_slash	11	advance_on_keypress_SLASH	98	stimuli_distractor_trianglediamonds.svg	stimuli_distractor_diamondtriangles.svg	36	no	57	0	120	0	0			0	0			1				0	
6.6.1	win	2023-07-10	13:28:01	13:36:53	527392	5c2e33e751dcf20001b3204d	4	1	main_slash	11	main_slash	99	stimuli_distractor_trianglediamonds.svg	stimuli_target_trianglesquares.svg	26	yes	53	1	563	0	0			0	0			1				0	
6.6.1	win	2023-07-10	13:28:01	13:36:53	527392	5c2e33e751dcf20001b3204d	4	1	main_slash	11	advance_on_keypress_SLASH	100	stimuli_distractor_trianglediamonds.svg	stimuli_target_trianglesquares.svg	26	yes	57	0	116	0	0			0	0			1				0	
6.6.1	win	2023-07-10	13:28:01	13:36:54	528720	5c2e33e751dcf20001b3204d	4	1	main_slash	11	main_slash	101	stimuli_target_rectanglediamonds.svg	stimuli_distractor_trianglediamonds.svg	2	yes	53	1	574	0	0			0	0			1				0	
6.6.1	win	2023-07-10	13:28:01	13:36:54	528720	5c2e33e751dcf20001b3204d	4	1	main_slash	11	advance_on_keypress_SLASH	102	stimuli_target_rectanglediamonds.svg	stimuli_distractor_trianglediamonds.svg	2	yes	57	0	127	0	0			0	0			1				0	
6.6.1	win	2023-07-10	13:28:01	13:36:55	529960	5c2e33e751dcf20001b3204d	4	1	main_slash	11	main_slash	103	stimuli_distractor_trianglediamonds.svg	stimuli_target_rectanglediamonds.svg	10	yes	53	1	481	0	0			0	0			1				0	
6.6.1	win	2023-07-10	13:28:01	13:36:55	529960	5c2e33e751dcf20001b3204d	4	1	main_slash	11	advance_on_keypress_SLASH	104	stimuli_distractor_trianglediamonds.svg	stimuli_target_rectanglediamonds.svg	10	yes	57	0	141	0	0			0	0			1				0	
6.6.1	win	2023-07-10	13:28:01	13:36:57	531216	5c2e33e751dcf20001b3204d	4	1	main_slash	11	main_slash	105	stimuli_distractor_diamondtriangles.svg	stimuli_target_squarediamonds.svg	16	yes	53	1	487	0	0			0	0			1				0	
6.6.1	win	2023-07-10	13:28:01	13:36:57	531216	5c2e33e751dcf20001b3204d	4	1	main_slash	11	advance_on_keypress_SLASH	106	stimuli_distractor_diamondtriangles.svg	stimuli_target_squarediamonds.svg	16	yes	57	0	123	0	0			0	0			1				0	
6.6.1	win	2023-07-10	13:28:01	13:36:58	532520	5c2e33e751dcf20001b3204d	4	1	main_slash	11	main_slash	107	stimuli_target_diamondrectangles.svg	stimuli_distractor_diamondtriangles.svg	23	yes	53	1	540	0	0			0	0			1				0	
6.6.1	win	2023-07-10	13:28:01	13:36:58	532520	5c2e33e751dcf20001b3204d	4	1	main_slash	11	advance_on_keypress_SLASH	108	stimuli_target_diamondrectangles.svg	stimuli_distractor_diamondtriangles.svg	23	yes	57	0	111	0	0			0	0			1				0	
6.6.1	win	2023-07-10	13:28:01	13:36:59	533856	5c2e33e751dcf20001b3204d	4	1	main_slash	11	main_slash	109	stimuli_distractor_trianglediamonds.svg	stimuli_target_squarediamonds.svg	12	yes	53	1	593	0	0			0	0			1				0	
6.6.1	win	2023-07-10	13:28:01	13:36:59	533856	5c2e33e751dcf20001b3204d	4	1	main_slash	11	advance_on_keypress_SLASH	110	stimuli_distractor_trianglediamonds.svg	stimuli_target_squarediamonds.svg	12	yes	57	0	97	0	0			0	0			1				0	
6.6.1	win	2023-07-10	13:28:01	13:37:01	535072	5c2e33e751dcf20001b3204d	4	1	main_slash	11	main_slash	111	stimuli_target_rectangletriangles.svg	stimuli_distractor_diamondtriangles.svg	5	yes	53	1	493	0	0			0	0			1				0	
6.6.1	win	2023-07-10	13:28:01	13:37:01	535072	5c2e33e751dcf20001b3204d	4	1	main_slash	11	advance_on_keypress_SLASH	112	stimuli_target_rectangletriangles.svg	stimuli_distractor_diamondtriangles.svg	5	yes	57	0	129	0	0			0	0			1				0	
6.6.1	win	2023-07-10	13:28:01	13:37:02	536184	5c2e33e751dcf20001b3204d	4	1	main_slash	11	main_slash	113	stimuli_target_squaretriangles.svg	stimuli_distractor_trianglediamonds.svg	3	yes	53	1	355	0	0			0	0			1				0	
6.6.1	win	2023-07-10	13:28:01	13:37:02	536184	5c2e33e751dcf20001b3204d	4	1	main_slash	11	advance_on_keypress_SLASH	114	stimuli_target_squaretriangles.svg	stimuli_distractor_trianglediamonds.svg	3	yes	57	0	92	0	0			0	0			1				0	
6.6.1	win	2023-07-10	13:28:01	13:37:03	537328	5c2e33e751dcf20001b3204d	4	1	main_slash	11	main_slash	115	stimuli_distractor_trianglediamonds.svg	stimuli_target_diamondsquares.svg	28	yes	53	1	415	0	0			0	0			1				0	
6.6.1	win	2023-07-10	13:28:01	13:37:03	537328	5c2e33e751dcf20001b3204d	4	1	main_slash	11	advance_on_keypress_SLASH	116	stimuli_distractor_trianglediamonds.svg	stimuli_target_diamondsquares.svg	28	yes	57	0	62	0	0			0	0			1				0	
6.6.1	win	2023-07-10	13:28:01	13:37:04	538456	5c2e33e751dcf20001b3204d	4	1	main_slash	11	main_slash	117	stimuli_target_squarediamonds.svg	stimuli_distractor_trianglediamonds.svg	4	yes	53	1	427	0	0			0	0			1				0	
6.6.1	win	2023-07-10	13:28:01	13:37:04	538456	5c2e33e751dcf20001b3204d	4	1	main_slash	11	advance_on_keypress_SLASH	118	stimuli_target_squarediamonds.svg	stimuli_distractor_trianglediamonds.svg	4	yes	57	0	105	0	0			0	0			1				0	
6.6.1	win	2023-07-10	13:28:01	13:37:05	539792	5c2e33e751dcf20001b3204d	4	1	main_slash	11	main_slash	119	stimuli_distractor_trianglediamonds.svg	stimuli_target_diamondrectangles.svg	27	yes	53	1	596	0	0			0	0			1				0	
6.6.1	win	2023-07-10	13:28:01	13:37:05	539792	5c2e33e751dcf20001b3204d	4	1	main_slash	11	advance_on_keypress_SLASH	120	stimuli_distractor_trianglediamonds.svg	stimuli_target_diamondrectangles.svg	27	yes	57	0	140	0	0			0	0			1				0	
6.6.1	win	2023-07-10	13:28:01	13:37:07	541072	5c2e33e751dcf20001b3204d	4	1	main_slash	11	main_slash	121	stimuli_target_trianglesquares.svg	stimuli_distractor_trianglediamonds.svg	18	yes	53	1	509	0	0			0	0			1				0	
6.6.1	win	2023-07-10	13:28:01	13:37:07	541072	5c2e33e751dcf20001b3204d	4	1	main_slash	11	advance_on_keypress_SLASH	122	stimuli_target_trianglesquares.svg	stimuli_distractor_trianglediamonds.svg	18	yes	57	0	113	0	0			0	0			1				0	
6.6.1	win	2023-07-10	13:28:01	13:37:08	542336	5c2e33e751dcf20001b3204d	4	1	main_slash	11	main_slash	123	stimuli_target_diamondsquares.svg	stimuli_distractor_diamondtriangles.svg	24	yes	53	1	523	0	0			0	0			1				0	
6.6.1	win	2023-07-10	13:28:01	13:37:08	542336	5c2e33e751dcf20001b3204d	4	1	main_slash	11	advance_on_keypress_SLASH	124	stimuli_target_diamondsquares.svg	stimuli_distractor_diamondtriangles.svg	24	yes	57	0	142	0	0			0	0			1				0	
6.6.1	win	2023-07-10	13:28:01	13:37:09	543736	5c2e33e751dcf20001b3204d	4	1	main_slash	11	main_slash	125	stimuli_target_squaretriangles.svg	stimuli_distractor_diamondtriangles.svg	7	yes	53	1	623	0	0			0	0			1				0	
6.6.1	win	2023-07-10	13:28:01	13:37:09	543736	5c2e33e751dcf20001b3204d	4	1	main_slash	11	advance_on_keypress_SLASH	126	stimuli_target_squaretriangles.svg	stimuli_distractor_diamondtriangles.svg	7	yes	57	0	86	0	0			0	0			1				0	
6.6.1	win	2023-07-10	13:28:01	13:37:12	546463	5c2e33e751dcf20001b3204d	4	1	main_slash	11	main_slash	127	stimuli_distractor_trianglediamonds.svg	stimuli_distractor_diamondtriangles.svg	35	no	0	1	2000	0	0			0	0			1				0	
6.6.1	win	2023-07-10	13:28:01	13:37:12	546463	5c2e33e751dcf20001b3204d	4	1	main_slash	11	advance_on_keypress_SLASH	128	stimuli_distractor_trianglediamonds.svg	stimuli_distractor_diamondtriangles.svg	35	no	57	0	281	0	0			0	0			1				0	
6.6.1	win	2023-07-10	13:28:01	13:37:13	547808	5c2e33e751dcf20001b3204d	4	1	main_slash	11	main_slash	129	stimuli_distractor_diamondtriangles.svg	stimuli_target_diamondsquares.svg	32	yes	53	1	429	0	0			0	0			1				0	
6.6.1	win	2023-07-10	13:28:01	13:37:13	547808	5c2e33e751dcf20001b3204d	4	1	main_slash	11	advance_on_keypress_SLASH	130	stimuli_distractor_diamondtriangles.svg	stimuli_target_diamondsquares.svg	32	yes	57	0	115	0	0			0	0			1				0	
6.6.1	win	2023-07-10	13:28:01	13:37:15	549040	5c2e33e751dcf20001b3204d	4	1	main_slash	11	main_slash	131	stimuli_distractor_trianglediamonds.svg	stimuli_target_rectangletriangles.svg	9	yes	53	1	477	0	0			0	0			1				0	
6.6.1	win	2023-07-10	13:28:01	13:37:15	549040	5c2e33e751dcf20001b3204d	4	1	main_slash	11	advance_on_keypress_SLASH	132	stimuli_distractor_trianglediamonds.svg	stimuli_target_rectangletriangles.svg	9	yes	57	0	82	0	0			0	0			1				0	
6.6.1	win	2023-07-10	13:28:01	13:37:16	550384	5c2e33e751dcf20001b3204d	4	1	main_slash	11	main_slash	133	stimuli_distractor_trianglediamonds.svg	stimuli_target_trianglerectangles.svg	25	yes	53	1	621	0	0			0	0			1				0	
6.6.1	win	2023-07-10	13:28:01	13:37:16	550384	5c2e33e751dcf20001b3204d	4	1	main_slash	11	advance_on_keypress_SLASH	134	stimuli_distractor_trianglediamonds.svg	stimuli_target_trianglerectangles.svg	25	yes	57	0	132	0	0			0	0			1				0	
6.6.1	win	2023-07-10	13:28:01	13:37:19	553163	5c2e33e751dcf20001b3204d	4	1	main_slash	11	main_slash	135	stimuli_distractor_diamondtriangles.svg	stimuli_distractor_diamondtriangles.svg	39	no	0	1	2000	0	0			0	0			1				0	
6.6.1	win	2023-07-10	13:28:01	13:37:19	553163	5c2e33e751dcf20001b3204d	4	1	main_slash	11	advance_on_keypress_SLASH	136	stimuli_distractor_diamondtriangles.svg	stimuli_distractor_diamondtriangles.svg	39	no	57	0	253	0	0			0	0			1				0	
6.6.1	win	2023-07-10	13:28:01	13:37:22	556063	5c2e33e751dcf20001b3204d	4	1	main_slash	11	main_slash	137	stimuli_distractor_diamondtriangles.svg	stimuli_distractor_diamondtriangles.svg	40	no	0	1	2000	0	0			0	0			1				0	
6.6.1	win	2023-07-10	13:28:01	13:37:22	556063	5c2e33e751dcf20001b3204d	4	1	main_slash	11	advance_on_keypress_SLASH	138	stimuli_distractor_diamondtriangles.svg	stimuli_distractor_diamondtriangles.svg	40	no	57	0	329	0	0			0	0			1				0	
6.6.1	win	2023-07-10	13:28:01	13:37:23	557568	5c2e33e751dcf20001b3204d	4	1	main_slash	11	main_slash	139	stimuli_target_trianglerectangles.svg	stimuli_distractor_diamondtriangles.svg	21	yes	53	1	539	0	0			0	0			1				0	
6.6.1	win	2023-07-10	13:28:01	13:37:23	557568	5c2e33e751dcf20001b3204d	4	1	main_slash	11	advance_on_keypress_SLASH	140	stimuli_target_trianglerectangles.svg	stimuli_distractor_diamondtriangles.svg	21	yes	57	0	133	0	0			0	0			1				0	
6.6.1	win	2023-07-10	13:28:01	13:37:25	559256	5c2e33e751dcf20001b3204d	4	1	main_slash	11	main_slash	141	stimuli_distractor_trianglediamonds.svg	stimuli_distractor_trianglediamonds.svg	34	no	53	0	910	0	0			0	0			1				0	
6.6.1	win	2023-07-10	13:28:01	13:37:25	559256	5c2e33e751dcf20001b3204d	4	1	main_slash	11	advance_on_keypress_SLASH	142	stimuli_distractor_trianglediamonds.svg	stimuli_distractor_trianglediamonds.svg	34	no	57	0	73	0	0			0	0			1				0	
6.6.1	win	2023-07-10	13:28:01	13:37:26	560408	5c2e33e751dcf20001b3204d	4	1	main_slash	11	main_slash	143	stimuli_target_squarediamonds.svg	stimuli_distractor_diamondtriangles.svg	8	yes	53	1	445	0	0			0	0			1				0	
6.6.1	win	2023-07-10	13:28:01	13:37:26	560408	5c2e33e751dcf20001b3204d	4	1	main_slash	11	advance_on_keypress_SLASH	144	stimuli_target_squarediamonds.svg	stimuli_distractor_diamondtriangles.svg	8	yes	57	0	91	0	0			0	0			1				0	
6.6.1	win	2023-07-10	13:28:01	13:37:27	561560	5c2e33e751dcf20001b3204d	4	1	main_slash	11	main_slash	145	stimuli_distractor_diamondtriangles.svg	stimuli_target_rectanglediamonds.svg	14	yes	53	1	431	0	0			0	0			1				0	
6.6.1	win	2023-07-10	13:28:01	13:37:27	561560	5c2e33e751dcf20001b3204d	4	1	main_slash	11	advance_on_keypress_SLASH	146	stimuli_distractor_diamondtriangles.svg	stimuli_target_rectanglediamonds.svg	14	yes	57	0	101	0	0			0	0			1				0	
6.6.1	win	2023-07-10	13:28:01	13:37:30	564296	5c2e33e751dcf20001b3204d	4	1	main_slash	11	main_slash	147	stimuli_distractor_diamondtriangles.svg	stimuli_distractor_trianglediamonds.svg	37	no	0	1	2000	0	0			0	0			1				0	
6.6.1	win	2023-07-10	13:28:01	13:37:30	564296	5c2e33e751dcf20001b3204d	4	1	main_slash	11	advance_on_keypress_SLASH	148	stimuli_distractor_diamondtriangles.svg	stimuli_distractor_trianglediamonds.svg	37	no	57	0	327	0	0			0	0			1				0	
6.6.1	win	2023-07-10	13:28:01	13:37:31	565832	5c2e33e751dcf20001b3204d	4	1	main_slash	11	main_slash	149	stimuli_target_trianglerectangles.svg	stimuli_distractor_trianglediamonds.svg	17	yes	53	1	569	0	0			0	0			1				0	
6.6.1	win	2023-07-10	13:28:01	13:37:31	565832	5c2e33e751dcf20001b3204d	4	1	main_slash	11	advance_on_keypress_SLASH	150	stimuli_target_trianglerectangles.svg	stimuli_distractor_trianglediamonds.svg	17	yes	57	0	122	0	0			0	0			1				0	
6.6.1	win	2023-07-10	13:28:01	13:37:33	567200	5c2e33e751dcf20001b3204d	4	1	main_slash	11	main_slash	151	stimuli_target_rectangletriangles.svg	stimuli_distractor_trianglediamonds.svg	1	yes	53	1	604	0	0			0	0			1				0	
6.6.1	win	2023-07-10	13:28:01	13:37:33	567200	5c2e33e751dcf20001b3204d	4	1	main_slash	11	advance_on_keypress_SLASH	152	stimuli_target_rectangletriangles.svg	stimuli_distractor_trianglediamonds.svg	1	yes	57	0	115	0	0			0	0			1				0	
6.6.1	win	2023-07-10	13:28:01	13:37:34	568552	5c2e33e751dcf20001b3204d	4	1	main_slash	11	main_slash	153	stimuli_distractor_diamondtriangles.svg	stimuli_target_rectangletriangles.svg	13	yes	53	1	589	0	0			0	0			1				0	
6.6.1	win	2023-07-10	13:28:01	13:37:34	568552	5c2e33e751dcf20001b3204d	4	1	main_slash	11	advance_on_keypress_SLASH	154	stimuli_distractor_diamondtriangles.svg	stimuli_target_rectangletriangles.svg	13	yes	57	0	85	0	0			0	0			1				0	
6.6.1	win	2023-07-10	13:28:01	13:37:35	569856	5c2e33e751dcf20001b3204d	4	1	main_slash	11	main_slash	155	stimuli_distractor_trianglediamonds.svg	stimuli_target_squaretriangles.svg	11	yes	53	1	577	0	0			0	0			1				0	
6.6.1	win	2023-07-10	13:28:01	13:37:35	569856	5c2e33e751dcf20001b3204d	4	1	main_slash	11	advance_on_keypress_SLASH	156	stimuli_distractor_trianglediamonds.svg	stimuli_target_squaretriangles.svg	11	yes	57	0	122	0	0			0	0			1				0	
6.6.1	win	2023-07-10	13:28:01	13:37:37	571136	5c2e33e751dcf20001b3204d	4	1	main_slash	11	main_slash	157	stimuli_target_diamondrectangles.svg	stimuli_distractor_trianglediamonds.svg	19	yes	53	1	523	0	0			0	0			1				0	
6.6.1	win	2023-07-10	13:28:01	13:37:37	571136	5c2e33e751dcf20001b3204d	4	1	main_slash	11	advance_on_keypress_SLASH	158	stimuli_target_diamondrectangles.svg	stimuli_distractor_trianglediamonds.svg	19	yes	57	0	134	0	0			0	0			1				0	
6.6.1	win	2023-07-10	13:28:01	13:37:38	572336	5c2e33e751dcf20001b3204d	4	1	main_slash	11	main_slash	159	stimuli_target_trianglesquares.svg	stimuli_distractor_diamondtriangles.svg	22	yes	53	1	423	0	0			0	0			1				0	
6.6.1	win	2023-07-10	13:28:01	13:37:38	572336	5c2e33e751dcf20001b3204d	4	1	main_slash	11	advance_on_keypress_SLASH	160	stimuli_target_trianglesquares.svg	stimuli_distractor_diamondtriangles.svg	22	yes	57	0	118	0	0			0	0			1				0	
6.6.1	win	2023-07-10	13:28:01	13:37:38	572336	5c2e33e751dcf20001b3204d	4	1	headphonecheck_calibration	14	headphonecheck_calibrationIntro	1	stimuli_target_trianglesquares.svg	stimuli_distractor_diamondtriangles.svg	22	yes	calibrationButton	0	1280	0	0			0	0			1				0	
6.6.1	win	2023-07-10	13:28:01	13:37:38	572336	5c2e33e751dcf20001b3204d	4	1	headphonecheck_testphase	15	test_collectResponse	3	stimuli_target_trianglesquares.svg	stimuli_distractor_diamondtriangles.svg	22	yes	second	1	162	1	5	antiphase_hc_osi.wav	2	0	0			1				0	
6.6.1	win	2023-07-10	13:28:01	13:37:38	572336	5c2e33e751dcf20001b3204d	4	1	headphonecheck_testphase	15	test_collectResponse	6	stimuli_target_trianglesquares.svg	stimuli_distractor_diamondtriangles.svg	22	yes	first	1	325	2	3	antiphase_hc_soi.wav	1	0	0			1				0	
6.6.1	win	2023-07-10	13:28:01	13:37:38	572336	5c2e33e751dcf20001b3204d	4	1	headphonecheck_testphase	15	test_collectResponse	9	stimuli_target_trianglesquares.svg	stimuli_distractor_diamondtriangles.svg	22	yes	first	1	233	3	4	antiphase_hc_sio.wav	1	0	0			1				0	
6.6.1	win	2023-07-10	13:28:01	13:37:38	572336	5c2e33e751dcf20001b3204d	4	1	headphonecheck_testphase	15	test_collectResponse	12	stimuli_target_trianglesquares.svg	stimuli_distractor_diamondtriangles.svg	22	yes	second	1	230	4	1	antiphase_hc_iso.wav	2	0	0			1				0	
6.6.1	win	2023-07-10	13:28:01	13:37:38	572336	5c2e33e751dcf20001b3204d	4	1	headphonecheck_testphase	15	test_collectResponse	15	stimuli_target_trianglesquares.svg	stimuli_distractor_diamondtriangles.svg	22	yes	third	1	260	5	2	antiphase_hc_ios.wav	3	0	0			1				0	
6.6.1	win	2023-07-10	13:28:01	13:37:38	572336	5c2e33e751dcf20001b3204d	4	1	headphonecheck_testphase	15	test_collectResponse	18	stimuli_target_trianglesquares.svg	stimuli_distractor_diamondtriangles.svg	22	yes	third	1	130	6	6	antiphase_hc_ois.wav	3	0	0			1				0	
6.6.1	win	2023-07-10	13:28:01	13:37:38	572336	5c2e33e751dcf20001b3204d	4	1	stereocheck_calibration	17	stereocheck_calibrationIntro	1	stimuli_target_trianglesquares.svg	stimuli_distractor_diamondtriangles.svg	22	yes	stereocheck_calibrationButton	0	1356	6	6	antiphase_hc_ois.wav	3	0	0			1				0	
6.6.1	win	2023-07-10	13:28:01	13:37:38	572336	5c2e33e751dcf20001b3204d	4	1	stereocheck_testphase	18	stereocheck_test_collectResponse	3	stimuli_target_trianglesquares.svg	stimuli_distractor_diamondtriangles.svg	22	yes	stereocheck_left	1	2480	6	6	antiphase_hc_ois.wav	3	1	3	noise_calib_stim_LEFT.wav	1	1				0	
6.6.1	win	2023-07-10	13:28:01	13:37:38	572336	5c2e33e751dcf20001b3204d	4	1	stereocheck_testphase	18	stereocheck_test_collectResponse	6	stimuli_target_trianglesquares.svg	stimuli_distractor_diamondtriangles.svg	22	yes	stereocheck_left	1	602	6	6	antiphase_hc_ois.wav	3	2	1	noise_calib_stim_LEFT.wav	1	1				0	
6.6.1	win	2023-07-10	13:28:01	13:37:38	572336	5c2e33e751dcf20001b3204d	4	1	stereocheck_testphase	18	stereocheck_test_collectResponse	9	stimuli_target_trianglesquares.svg	stimuli_distractor_diamondtriangles.svg	22	yes	stereocheck_right	1	335	6	6	antiphase_hc_ois.wav	3	3	5	noise_calib_stim_RIGHT.wav	2	1				0	
6.6.1	win	2023-07-10	13:28:01	13:37:38	572336	5c2e33e751dcf20001b3204d	4	1	stereocheck_testphase	18	stereocheck_test_collectResponse	12	stimuli_target_trianglesquares.svg	stimuli_distractor_diamondtriangles.svg	22	yes	stereocheck_right	1	429	6	6	antiphase_hc_ois.wav	3	4	6	noise_calib_stim_RIGHT.wav	2	1				0	
6.6.1	win	2023-07-10	13:28:01	13:37:38	572336	5c2e33e751dcf20001b3204d	4	1	stereocheck_testphase	18	stereocheck_test_collectResponse	15	stimuli_target_trianglesquares.svg	stimuli_distractor_diamondtriangles.svg	22	yes	stereocheck_left	1	561	6	6	antiphase_hc_ois.wav	3	5	2	noise_calib_stim_LEFT.wav	1	1				0	
6.6.1	win	2023-07-10	13:28:01	13:37:38	572336	5c2e33e751dcf20001b3204d	4	1	stereocheck_testphase	18	stereocheck_test_collectResponse	18	stimuli_target_trianglesquares.svg	stimuli_distractor_diamondtriangles.svg	22	yes	stereocheck_right	1	451	6	6	antiphase_hc_ois.wav	3	6	4	noise_calib_stim_RIGHT.wav	2	1				0	
6.6.1	win	2023-07-10	13:28:01	13:37:38	572336	5c2e33e751dcf20001b3204d	4	1	DL_practice	21	DL_practice	2	stimuli_target_trianglesquares.svg	stimuli_distractor_diamondtriangles.svg	22	yes	ta	1	1470	6	6	antiphase_hc_ois.wav	3	6	4	noise_calib_stim_RIGHT.wav	2	36	blb_dichoticlistening_ta-ta.mp3	ta	ta	0	left
6.6.1	win	2023-07-10	13:28:01	13:37:38	572336	5c2e33e751dcf20001b3204d	4	1	DL_practice	21	DL_practice	3	stimuli_target_trianglesquares.svg	stimuli_distractor_diamondtriangles.svg	22	yes	ka	0	1688	6	6	antiphase_hc_ois.wav	3	6	4	noise_calib_stim_RIGHT.wav	2	18	blb_dichoticlistening_ga-ta.mp3	ga	ta	1	other
6.6.1	win	2023-07-10	13:28:01	13:37:38	572336	5c2e33e751dcf20001b3204d	4	1	DL_practice	21	DL_practice	4	stimuli_target_trianglesquares.svg	stimuli_distractor_diamondtriangles.svg	22	yes	pa	1	1339	6	6	antiphase_hc_ois.wav	3	6	4	noise_calib_stim_RIGHT.wav	2	29	blb_dichoticlistening_pa-pa.mp3	pa	pa	0	left
6.6.1	win	2023-07-10	13:28:01	13:37:38	572336	5c2e33e751dcf20001b3204d	4	1	DL_practice	21	DL_practice	5	stimuli_target_trianglesquares.svg	stimuli_distractor_diamondtriangles.svg	22	yes	pa	1	1571	6	6	antiphase_hc_ois.wav	3	6	4	noise_calib_stim_RIGHT.wav	2	23	blb_dichoticlistening_ka-pa.mp3	ka	pa	1	right
6.6.1	win	2023-07-10	13:28:01	13:37:38	572336	5c2e33e751dcf20001b3204d	4	1	DL_practice	21	DL_practice	6	stimuli_target_trianglesquares.svg	stimuli_distractor_diamondtriangles.svg	22	yes	da	1	1217	6	6	antiphase_hc_ois.wav	3	6	4	noise_calib_stim_RIGHT.wav	2	7	blb_dichoticlistening_da-ba.mp3	da	ba	1	left
6.6.1	win	2023-07-10	13:28:01	13:37:38	572336	5c2e33e751dcf20001b3204d	4	1	DL_practice	21	DL_practice	7	stimuli_target_trianglesquares.svg	stimuli_distractor_diamondtriangles.svg	22	yes	ka	1	999	6	6	antiphase_hc_ois.wav	3	6	4	noise_calib_stim_RIGHT.wav	2	22	blb_dichoticlistening_ka-ka.mp3	ka	ka	0	left
6.6.1	win	2023-07-10	13:28:01	13:37:38	572336	5c2e33e751dcf20001b3204d	4	1	DL_practice	21	DL_practice	8	stimuli_target_trianglesquares.svg	stimuli_distractor_diamondtriangles.svg	22	yes	da	1	1468	6	6	antiphase_hc_ois.wav	3	6	4	noise_calib_stim_RIGHT.wav	2	8	blb_dichoticlistening_da-da.mp3	da	da	0	left
6.6.1	win	2023-07-10	13:28:01	13:37:38	572336	5c2e33e751dcf20001b3204d	4	1	DL_practice	21	DL_practice	9	stimuli_target_trianglesquares.svg	stimuli_distractor_diamondtriangles.svg	22	yes	ga	1	1214	6	6	antiphase_hc_ois.wav	3	6	4	noise_calib_stim_RIGHT.wav	2	15	blb_dichoticlistening_ga-ga.mp3	ga	ga	0	left
6.6.1	win	2023-07-10	13:28:01	13:37:38	572336	5c2e33e751dcf20001b3204d	4	1	DL_practice	21	DL_practice	10	stimuli_target_trianglesquares.svg	stimuli_distractor_diamondtriangles.svg	22	yes	ba	1	1380	6	6	antiphase_hc_ois.wav	3	6	4	noise_calib_stim_RIGHT.wav	2	1	blb_dichoticlistening_ba-ba.mp3	ba	ba	0	left
6.6.1	win	2023-07-10	13:28:01	13:37:38	572336	5c2e33e751dcf20001b3204d	4	1	DL_test	23	DL_test	1	stimuli_target_trianglesquares.svg	stimuli_distractor_diamondtriangles.svg	22	yes	pa	1	1772	6	6	antiphase_hc_ois.wav	3	6	4	noise_calib_stim_RIGHT.wav	2	23	blb_dichoticlistening_ka-pa.mp3	ka	pa	1	right
6.6.1	win	2023-07-10	13:28:01	13:37:38	572336	5c2e33e751dcf20001b3204d	4	1	DL_test	23	DL_test	2	stimuli_target_trianglesquares.svg	stimuli_distractor_diamondtriangles.svg	22	yes	ka	1	875	6	6	antiphase_hc_ois.wav	3	6	4	noise_calib_stim_RIGHT.wav	2	22	blb_dichoticlistening_ka-ka.mp3	ka	ka	0	left
6.6.1	win	2023-07-10	13:28:01	13:37:38	572336	5c2e33e751dcf20001b3204d	4	1	DL_test	23	DL_test	3	stimuli_target_trianglesquares.svg	stimuli_distractor_diamondtriangles.svg	22	yes	ka	0	1750	6	6	antiphase_hc_ois.wav	3	6	4	noise_calib_stim_RIGHT.wav	2	27	blb_dichoticlistening_pa-ga.mp3	pa	ga	1	other
6.6.1	win	2023-07-10	13:28:01	13:37:38	572336	5c2e33e751dcf20001b3204d	4	1	DL_test	23	DL_test	4	stimuli_target_trianglesquares.svg	stimuli_distractor_diamondtriangles.svg	22	yes	ta	1	1549	6	6	antiphase_hc_ois.wav	3	6	4	noise_calib_stim_RIGHT.wav	2	12	blb_dichoticlistening_da-ta.mp3	da	ta	1	right
6.6.1	win	2023-07-10	13:28:01	13:37:38	572336	5c2e33e751dcf20001b3204d	4	1	DL_test	23	DL_test	5	stimuli_target_trianglesquares.svg	stimuli_distractor_diamondtriangles.svg	22	yes	da	1	916	6	6	antiphase_hc_ois.wav	3	6	4	noise_calib_stim_RIGHT.wav	2	9	blb_dichoticlistening_da-ga.mp3	da	ga	1	left
6.6.1	win	2023-07-10	13:28:01	13:37:38	572336	5c2e33e751dcf20001b3204d	4	1	DL_test	23	DL_test	6	stimuli_target_trianglesquares.svg	stimuli_distractor_diamondtriangles.svg	22	yes	ka	1	1053	6	6	antiphase_hc_ois.wav	3	6	4	noise_calib_stim_RIGHT.wav	2	20	blb_dichoticlistening_ka-da.mp3	ka	da	1	left
6.6.1	win	2023-07-10	13:28:01	13:37:38	572336	5c2e33e751dcf20001b3204d	4	1	DL_test	23	DL_test	7	stimuli_target_trianglesquares.svg	stimuli_distractor_diamondtriangles.svg	22	yes	ka	1	992	6	6	antiphase_hc_ois.wav	3	6	4	noise_calib_stim_RIGHT.wav	2	34	blb_dichoticlistening_ta-ka.mp3	ta	ka	1	right
6.6.1	win	2023-07-10	13:28:01	13:37:38	572336	5c2e33e751dcf20001b3204d	4	1	DL_test	23	DL_test	8	stimuli_target_trianglesquares.svg	stimuli_distractor_diamondtriangles.svg	22	yes	pa	1	1774	6	6	antiphase_hc_ois.wav	3	6	4	noise_calib_stim_RIGHT.wav	2	11	blb_dichoticlistening_da-pa.mp3	da	pa	1	right
6.6.1	win	2023-07-10	13:28:01	13:37:38	572336	5c2e33e751dcf20001b3204d	4	1	DL_test	23	DL_test	9	stimuli_target_trianglesquares.svg	stimuli_distractor_diamondtriangles.svg	22	yes	ka	1	949	6	6	antiphase_hc_ois.wav	3	6	4	noise_calib_stim_RIGHT.wav	2	24	blb_dichoticlistening_ka-ta.mp3	ka	ta	1	left
6.6.1	win	2023-07-10	13:28:01	13:37:38	572336	5c2e33e751dcf20001b3204d	4	1	DL_test	23	DL_test	10	stimuli_target_trianglesquares.svg	stimuli_distractor_diamondtriangles.svg	22	yes	ta	1	1116	6	6	antiphase_hc_ois.wav	3	6	4	noise_calib_stim_RIGHT.wav	2	6	blb_dichoticlistening_ba-ta.mp3	ba	ta	1	right
6.6.1	win	2023-07-10	13:28:01	13:37:38	572336	5c2e33e751dcf20001b3204d	4	1	DL_test	23	DL_test	11	stimuli_target_trianglesquares.svg	stimuli_distractor_diamondtriangles.svg	22	yes	da	1	893	6	6	antiphase_hc_ois.wav	3	6	4	noise_calib_stim_RIGHT.wav	2	2	blb_dichoticlistening_ba-da.mp3	ba	da	1	right
6.6.1	win	2023-07-10	13:28:01	13:37:38	572336	5c2e33e751dcf20001b3204d	4	1	DL_test	23	DL_test	12	stimuli_target_trianglesquares.svg	stimuli_distractor_diamondtriangles.svg	22	yes	ka	1	968	6	6	antiphase_hc_ois.wav	3	6	4	noise_calib_stim_RIGHT.wav	2	4	blb_dichoticlistening_ba-ka.mp3	ba	ka	1	right
6.6.1	win	2023-07-10	13:28:01	13:37:38	572336	5c2e33e751dcf20001b3204d	4	1	DL_test	23	DL_test	13	stimuli_target_trianglesquares.svg	stimuli_distractor_diamondtriangles.svg	22	yes	ta	1	1319	6	6	antiphase_hc_ois.wav	3	6	4	noise_calib_stim_RIGHT.wav	2	30	blb_dichoticlistening_pa-ta.mp3	pa	ta	1	right
6.6.1	win	2023-07-10	13:28:01	13:37:38	572336	5c2e33e751dcf20001b3204d	4	1	DL_test	23	DL_test	14	stimuli_target_trianglesquares.svg	stimuli_distractor_diamondtriangles.svg	22	yes	ka	1	1520	6	6	antiphase_hc_ois.wav	3	6	4	noise_calib_stim_RIGHT.wav	2	21	blb_dichoticlistening_ka-ga.mp3	ka	ga	1	left
6.6.1	win	2023-07-10	13:28:01	13:37:38	572336	5c2e33e751dcf20001b3204d	4	1	DL_test	23	DL_test	15	stimuli_target_trianglesquares.svg	stimuli_distractor_diamondtriangles.svg	22	yes	da	1	954	6	6	antiphase_hc_ois.wav	3	6	4	noise_calib_stim_RIGHT.wav	2	8	blb_dichoticlistening_da-da.mp3	da	da	0	left
6.6.1	win	2023-07-10	13:28:01	13:37:38	572336	5c2e33e751dcf20001b3204d	4	1	DL_test	23	DL_test	16	stimuli_target_trianglesquares.svg	stimuli_distractor_diamondtriangles.svg	22	yes	pa	1	1785	6	6	antiphase_hc_ois.wav	3	6	4	noise_calib_stim_RIGHT.wav	2	35	blb_dichoticlistening_ta-pa.mp3	ta	pa	1	right
6.6.1	win	2023-07-10	13:28:01	13:37:38	572336	5c2e33e751dcf20001b3204d	4	1	DL_test	23	DL_test	17	stimuli_target_trianglesquares.svg	stimuli_distractor_diamondtriangles.svg	22	yes	pa	1	1111	6	6	antiphase_hc_ois.wav	3	6	4	noise_calib_stim_RIGHT.wav	2	5	blb_dichoticlistening_ba-pa.mp3	ba	pa	1	right
6.6.1	win	2023-07-10	13:28:01	13:37:38	572336	5c2e33e751dcf20001b3204d	4	1	DL_test	23	DL_test	18	stimuli_target_trianglesquares.svg	stimuli_distractor_diamondtriangles.svg	22	yes	ba	1	1847	6	6	antiphase_hc_ois.wav	3	6	4	noise_calib_stim_RIGHT.wav	2	13	blb_dichoticlistening_ga-ba.mp3	ga	ba	1	right
6.6.1	win	2023-07-10	13:28:01	13:37:38	572336	5c2e33e751dcf20001b3204d	4	1	DL_test	23	DL_test	19	stimuli_target_trianglesquares.svg	stimuli_distractor_diamondtriangles.svg	22	yes	pa	1	1331	6	6	antiphase_hc_ois.wav	3	6	4	noise_calib_stim_RIGHT.wav	2	29	blb_dichoticlistening_pa-pa.mp3	pa	pa	0	left
6.6.1	win	2023-07-10	13:28:01	13:37:38	572336	5c2e33e751dcf20001b3204d	4	1	DL_test	23	DL_test	20	stimuli_target_trianglesquares.svg	stimuli_distractor_diamondtriangles.svg	22	yes	da	0	906	6	6	antiphase_hc_ois.wav	3	6	4	noise_calib_stim_RIGHT.wav	2	3	blb_dichoticlistening_ba-ga.mp3	ba	ga	1	other
6.6.1	win	2023-07-10	13:28:01	13:37:38	572336	5c2e33e751dcf20001b3204d	4	1	DL_test	23	DL_test	21	stimuli_target_trianglesquares.svg	stimuli_distractor_diamondtriangles.svg	22	yes	da	1	797	6	6	antiphase_hc_ois.wav	3	6	4	noise_calib_stim_RIGHT.wav	2	7	blb_dichoticlistening_da-ba.mp3	da	ba	1	left
6.6.1	win	2023-07-10	13:28:01	13:37:38	572336	5c2e33e751dcf20001b3204d	4	1	DL_test	23	DL_test	22	stimuli_target_trianglesquares.svg	stimuli_distractor_diamondtriangles.svg	22	yes	ta	1	1026	6	6	antiphase_hc_ois.wav	3	6	4	noise_calib_stim_RIGHT.wav	2	36	blb_dichoticlistening_ta-ta.mp3	ta	ta	0	left
6.6.1	win	2023-07-10	13:28:01	13:37:38	572336	5c2e33e751dcf20001b3204d	4	1	DL_test	23	DL_test	23	stimuli_target_trianglesquares.svg	stimuli_distractor_diamondtriangles.svg	22	yes	pa	1	1479	6	6	antiphase_hc_ois.wav	3	6	4	noise_calib_stim_RIGHT.wav	2	25	blb_dichoticlistening_pa-ba.mp3	pa	ba	1	left
6.6.1	win	2023-07-10	13:28:01	13:37:38	572336	5c2e33e751dcf20001b3204d	4	1	DL_test	23	DL_test	24	stimuli_target_trianglesquares.svg	stimuli_distractor_diamondtriangles.svg	22	yes	pa	1	978	6	6	antiphase_hc_ois.wav	3	6	4	noise_calib_stim_RIGHT.wav	2	28	blb_dichoticlistening_pa-ka.mp3	pa	ka	1	left
6.6.1	win	2023-07-10	13:28:01	13:37:38	572336	5c2e33e751dcf20001b3204d	4	1	DL_test	23	DL_test	25	stimuli_target_trianglesquares.svg	stimuli_distractor_diamondtriangles.svg	22	yes	ga	1	792	6	6	antiphase_hc_ois.wav	3	6	4	noise_calib_stim_RIGHT.wav	2	33	blb_dichoticlistening_ta-ga.mp3	ta	ga	1	right
6.6.1	win	2023-07-10	13:28:01	13:37:38	572336	5c2e33e751dcf20001b3204d	4	1	DL_test	23	DL_test	26	stimuli_target_trianglesquares.svg	stimuli_distractor_diamondtriangles.svg	22	yes	ka	1	862	6	6	antiphase_hc_ois.wav	3	6	4	noise_calib_stim_RIGHT.wav	2	16	blb_dichoticlistening_ga-ka.mp3	ga	ka	1	right
