build	computer.platform	date	time	timestamp	time_elapsed_ms	subject	group	session	blockcode	blocknum	trialcode	trialnum	stimulus_left	stimulus_right	stim_index	target_present	response	correct	latency	headphonecheck_countTestTrials	headphonecheck_index	headphonecheck_testSound	headphonecheck_correctResponse	stereocheck_countTestTrials	stereocheck_index	stereocheck_testSound	stereocheck_correctResponse	DL_index	DL_soundfile	DL_leftSound	DL_rightSound	DL_dualSound	DL_choice
6.6.1	win	2023-06-02	00:18:31	00:22:10	214345	628e5f283594e1a48a04886f	3	1	practice_slash	5	practice_slash	1	stimuli_target_diamondsquares.svg	stimuli_distractor_trianglediamonds.svg	6	yes	0	0	2000	0	0			0	0			1				0	
6.6.1	win	2023-06-02	00:18:31	00:22:10	214345	628e5f283594e1a48a04886f	3	1	practice_slash	5	advance_on_keypress_SLASH	2	stimuli_target_diamondsquares.svg	stimuli_distractor_trianglediamonds.svg	6	yes	57	0	1225	0	0			0	0			1				0	
6.6.1	win	2023-06-02	00:18:31	00:22:15	219228	628e5f283594e1a48a04886f	3	1	practice_slash	5	practice_slash	3	stimuli_distractor_diamondtriangles.svg	stimuli_distractor_trianglediamonds.svg	14	no	0	1	2000	0	0			0	0			1				0	
6.6.1	win	2023-06-02	00:18:31	00:22:15	219228	628e5f283594e1a48a04886f	3	1	practice_slash	5	advance_on_keypress_SLASH	4	stimuli_distractor_diamondtriangles.svg	stimuli_distractor_trianglediamonds.svg	14	no	57	0	1643	0	0			0	0			1				0	
6.6.1	win	2023-06-02	00:18:31	00:22:19	223331	628e5f283594e1a48a04886f	3	1	practice_slash	5	practice_slash	5	stimuli_distractor_trianglediamonds.svg	stimuli_target_rectanglediamonds.svg	10	yes	53	1	804	0	0			0	0			1				0	
6.6.1	win	2023-06-02	00:18:31	00:22:19	223331	628e5f283594e1a48a04886f	3	1	practice_slash	5	advance_on_keypress_SLASH	6	stimuli_distractor_trianglediamonds.svg	stimuli_target_rectanglediamonds.svg	10	yes	57	0	2642	0	0			0	0			1				0	
6.6.1	win	2023-06-02	00:18:31	00:22:24	228542	628e5f283594e1a48a04886f	3	1	practice_slash	5	practice_slash	7	stimuli_distractor_diamondtriangles.svg	stimuli_target_trianglerectangles.svg	9	yes	53	1	915	0	0			0	0			1				0	
6.6.1	win	2023-06-02	00:18:31	00:22:24	228542	628e5f283594e1a48a04886f	3	1	practice_slash	5	advance_on_keypress_SLASH	8	stimuli_distractor_diamondtriangles.svg	stimuli_target_trianglerectangles.svg	9	yes	57	0	842	0	0			0	0			1				0	
6.6.1	win	2023-06-02	00:18:31	00:22:27	231560	628e5f283594e1a48a04886f	3	1	practice_slash	5	practice_slash	9	stimuli_target_rectanglediamonds.svg	stimuli_distractor_trianglediamonds.svg	4	yes	53	1	506	0	0			0	0			1				0	
6.6.1	win	2023-06-02	00:18:31	00:22:27	231560	628e5f283594e1a48a04886f	3	1	practice_slash	5	advance_on_keypress_SLASH	10	stimuli_target_rectanglediamonds.svg	stimuli_distractor_trianglediamonds.svg	4	yes	57	0	1194	0	0			0	0			1				0	
6.6.1	win	2023-06-02	00:18:31	00:22:31	235198	628e5f283594e1a48a04886f	3	1	practice_slash	5	practice_slash	11	stimuli_target_rectanglediamonds.svg	stimuli_distractor_diamondtriangles.svg	1	yes	53	1	786	0	0			0	0			1				0	
6.6.1	win	2023-06-02	00:18:31	00:22:31	235198	628e5f283594e1a48a04886f	3	1	practice_slash	5	advance_on_keypress_SLASH	12	stimuli_target_rectanglediamonds.svg	stimuli_distractor_diamondtriangles.svg	1	yes	57	0	385	0	0			0	0			1				0	
6.6.1	win	2023-06-02	00:18:31	00:22:33	238003	628e5f283594e1a48a04886f	3	1	practice_slash	5	practice_slash	13	stimuli_distractor_diamondtriangles.svg	stimuli_target_diamondrectangles.svg	8	yes	53	1	776	0	0			0	0			1				0	
6.6.1	win	2023-06-02	00:18:31	00:22:33	238003	628e5f283594e1a48a04886f	3	1	practice_slash	5	advance_on_keypress_SLASH	14	stimuli_distractor_diamondtriangles.svg	stimuli_target_diamondrectangles.svg	8	yes	57	0	505	0	0			0	0			1				0	
6.6.1	win	2023-06-02	00:18:31	00:22:36	241038	628e5f283594e1a48a04886f	3	1	practice_slash	5	practice_slash	15	stimuli_distractor_diamondtriangles.svg	stimuli_target_rectangletriangles.svg	7	yes	53	1	878	0	0			0	0			1				0	
6.6.1	win	2023-06-02	00:18:31	00:22:36	241038	628e5f283594e1a48a04886f	3	1	practice_slash	5	advance_on_keypress_SLASH	16	stimuli_distractor_diamondtriangles.svg	stimuli_target_rectangletriangles.svg	7	yes	57	0	443	0	0			0	0			1				0	
6.6.1	win	2023-06-02	00:18:31	00:22:39	243950	628e5f283594e1a48a04886f	3	1	practice_slash	5	practice_slash	17	stimuli_distractor_trianglediamonds.svg	stimuli_target_squarediamonds.svg	11	yes	53	1	805	0	0			0	0			1				0	
6.6.1	win	2023-06-02	00:18:31	00:22:39	243950	628e5f283594e1a48a04886f	3	1	practice_slash	5	advance_on_keypress_SLASH	18	stimuli_distractor_trianglediamonds.svg	stimuli_target_squarediamonds.svg	11	yes	57	0	427	0	0			0	0			1				0	
6.6.1	win	2023-06-02	00:18:31	00:22:43	248027	628e5f283594e1a48a04886f	3	1	practice_slash	5	practice_slash	19	stimuli_distractor_trianglediamonds.svg	stimuli_distractor_diamondtriangles.svg	16	no	0	1	2000	0	0			0	0			1				0	
6.6.1	win	2023-06-02	00:18:31	00:22:43	248027	628e5f283594e1a48a04886f	3	1	practice_slash	5	advance_on_keypress_SLASH	20	stimuli_distractor_trianglediamonds.svg	stimuli_distractor_diamondtriangles.svg	16	no	57	0	406	0	0			0	0			1				0	
6.6.1	win	2023-06-02	00:18:31	00:22:46	250593	628e5f283594e1a48a04886f	3	1	practice_slash	5	practice_slash	21	stimuli_target_squarediamonds.svg	stimuli_distractor_diamondtriangles.svg	2	yes	53	1	510	0	0			0	0			1				0	
6.6.1	win	2023-06-02	00:18:31	00:22:46	250593	628e5f283594e1a48a04886f	3	1	practice_slash	5	advance_on_keypress_SLASH	22	stimuli_target_squarediamonds.svg	stimuli_distractor_diamondtriangles.svg	2	yes	57	0	488	0	0			0	0			1				0	
6.6.1	win	2023-06-02	00:18:31	00:22:50	254727	628e5f283594e1a48a04886f	3	1	practice_slash	5	practice_slash	23	stimuli_distractor_trianglediamonds.svg	stimuli_distractor_trianglediamonds.svg	15	no	0	1	2000	0	0			0	0			1				0	
6.6.1	win	2023-06-02	00:18:31	00:22:50	254727	628e5f283594e1a48a04886f	3	1	practice_slash	5	advance_on_keypress_SLASH	24	stimuli_distractor_trianglediamonds.svg	stimuli_distractor_trianglediamonds.svg	15	no	57	0	294	0	0			0	0			1				0	
6.6.1	win	2023-06-02	00:18:31	00:22:54	258089	628e5f283594e1a48a04886f	3	1	practice_slash	5	practice_slash	25	stimuli_target_diamondsquares.svg	stimuli_distractor_diamondtriangles.svg	3	yes	53	1	1412	0	0			0	0			1				0	
6.6.1	win	2023-06-02	00:18:31	00:22:54	258089	628e5f283594e1a48a04886f	3	1	practice_slash	5	advance_on_keypress_SLASH	26	stimuli_target_diamondsquares.svg	stimuli_distractor_diamondtriangles.svg	3	yes	57	0	429	0	0			0	0			1				0	
6.6.1	win	2023-06-02	00:18:31	00:22:57	261075	628e5f283594e1a48a04886f	3	1	practice_slash	5	practice_slash	27	stimuli_distractor_trianglediamonds.svg	stimuli_target_diamondrectangles.svg	12	yes	53	1	899	0	0			0	0			1				0	
6.6.1	win	2023-06-02	00:18:31	00:22:57	261075	628e5f283594e1a48a04886f	3	1	practice_slash	5	advance_on_keypress_SLASH	28	stimuli_distractor_trianglediamonds.svg	stimuli_target_diamondrectangles.svg	12	yes	57	0	364	0	0			0	0			1				0	
6.6.1	win	2023-06-02	00:18:31	00:22:59	263824	628e5f283594e1a48a04886f	3	1	practice_slash	5	practice_slash	29	stimuli_target_squarediamonds.svg	stimuli_distractor_trianglediamonds.svg	5	yes	53	1	731	0	0			0	0			1				0	
6.6.1	win	2023-06-02	00:18:31	00:22:59	263824	628e5f283594e1a48a04886f	3	1	practice_slash	5	advance_on_keypress_SLASH	30	stimuli_target_squarediamonds.svg	stimuli_distractor_trianglediamonds.svg	5	yes	57	0	422	0	0			0	0			1				0	
6.6.1	win	2023-06-02	00:18:31	00:23:03	267893	628e5f283594e1a48a04886f	3	1	practice_slash	5	practice_slash	31	stimuli_distractor_diamondtriangles.svg	stimuli_distractor_diamondtriangles.svg	13	no	0	1	2000	0	0			0	0			1				0	
6.6.1	win	2023-06-02	00:18:31	00:23:03	267893	628e5f283594e1a48a04886f	3	1	practice_slash	5	advance_on_keypress_SLASH	32	stimuli_distractor_diamondtriangles.svg	stimuli_distractor_diamondtriangles.svg	13	no	57	0	518	0	0			0	0			1				0	
6.6.1	win	2023-06-02	00:18:31	00:23:14	278286	628e5f283594e1a48a04886f	3	1	main_slash	7	main_slash	1	stimuli_target_rectanglediamonds.svg	stimuli_distractor_trianglediamonds.svg	2	yes	53	1	546	0	0			0	0			1				0	
6.6.1	win	2023-06-02	00:18:31	00:23:14	278286	628e5f283594e1a48a04886f	3	1	main_slash	7	advance_on_keypress_SLASH	2	stimuli_target_rectanglediamonds.svg	stimuli_distractor_trianglediamonds.svg	2	yes	57	0	1460	0	0			0	0			1				0	
6.6.1	win	2023-06-02	00:18:31	00:23:17	281111	628e5f283594e1a48a04886f	3	1	main_slash	7	main_slash	3	stimuli_distractor_diamondtriangles.svg	stimuli_target_squarediamonds.svg	16	yes	53	1	721	0	0			0	0			1				0	
6.6.1	win	2023-06-02	00:18:31	00:23:17	281111	628e5f283594e1a48a04886f	3	1	main_slash	7	advance_on_keypress_SLASH	4	stimuli_distractor_diamondtriangles.svg	stimuli_target_squarediamonds.svg	16	yes	57	0	706	0	0			0	0			1				0	
6.6.1	win	2023-06-02	00:18:31	00:23:19	283142	628e5f283594e1a48a04886f	3	1	main_slash	7	main_slash	5	stimuli_distractor_trianglediamonds.svg	stimuli_target_trianglerectangles.svg	25	yes	53	1	684	0	0			0	0			1				0	
6.6.1	win	2023-06-02	00:18:31	00:23:19	283142	628e5f283594e1a48a04886f	3	1	main_slash	7	advance_on_keypress_SLASH	6	stimuli_distractor_trianglediamonds.svg	stimuli_target_trianglerectangles.svg	25	yes	57	0	538	0	0			0	0			1				0	
6.6.1	win	2023-06-02	00:18:31	00:23:21	285143	628e5f283594e1a48a04886f	3	1	main_slash	7	main_slash	7	stimuli_target_trianglerectangles.svg	stimuli_distractor_diamondtriangles.svg	21	yes	53	1	819	0	0			0	0			1				0	
6.6.1	win	2023-06-02	00:18:31	00:23:21	285143	628e5f283594e1a48a04886f	3	1	main_slash	7	advance_on_keypress_SLASH	8	stimuli_target_trianglerectangles.svg	stimuli_distractor_diamondtriangles.svg	21	yes	57	0	1270	0	0			0	0			1				0	
6.6.1	win	2023-06-02	00:18:31	00:23:23	287861	628e5f283594e1a48a04886f	3	1	main_slash	7	main_slash	9	stimuli_distractor_trianglediamonds.svg	stimuli_target_squaretriangles.svg	11	yes	53	1	804	0	0			0	0			1				0	
6.6.1	win	2023-06-02	00:18:31	00:23:23	287861	628e5f283594e1a48a04886f	3	1	main_slash	7	advance_on_keypress_SLASH	10	stimuli_distractor_trianglediamonds.svg	stimuli_target_squaretriangles.svg	11	yes	57	0	740	0	0			0	0			1				0	
6.6.1	win	2023-06-02	00:18:31	00:23:26	290550	628e5f283594e1a48a04886f	3	1	main_slash	7	main_slash	11	stimuli_target_diamondrectangles.svg	stimuli_distractor_trianglediamonds.svg	19	yes	53	1	1310	0	0			0	0			1				0	
6.6.1	win	2023-06-02	00:18:31	00:23:26	290550	628e5f283594e1a48a04886f	3	1	main_slash	7	advance_on_keypress_SLASH	12	stimuli_target_diamondrectangles.svg	stimuli_distractor_trianglediamonds.svg	19	yes	57	0	570	0	0			0	0			1				0	
6.6.1	win	2023-06-02	00:18:31	00:23:29	293757	628e5f283594e1a48a04886f	3	1	main_slash	7	main_slash	13	stimuli_distractor_diamondtriangles.svg	stimuli_distractor_diamondtriangles.svg	39	no	0	1	2000	0	0			0	0			1				0	
6.6.1	win	2023-06-02	00:18:31	00:23:29	293757	628e5f283594e1a48a04886f	3	1	main_slash	7	advance_on_keypress_SLASH	14	stimuli_distractor_diamondtriangles.svg	stimuli_distractor_diamondtriangles.svg	39	no	57	0	1223	0	0			0	0			1				0	
6.6.1	win	2023-06-02	00:18:31	00:23:33	297623	628e5f283594e1a48a04886f	3	1	main_slash	7	main_slash	15	stimuli_distractor_diamondtriangles.svg	stimuli_distractor_trianglediamonds.svg	38	no	0	1	2000	0	0			0	0			1				0	
6.6.1	win	2023-06-02	00:18:31	00:23:33	297623	628e5f283594e1a48a04886f	3	1	main_slash	7	advance_on_keypress_SLASH	16	stimuli_distractor_diamondtriangles.svg	stimuli_distractor_trianglediamonds.svg	38	no	57	0	394	0	0			0	0			1				0	
6.6.1	win	2023-06-02	00:18:31	00:23:35	299345	628e5f283594e1a48a04886f	3	1	main_slash	7	main_slash	17	stimuli_target_squaretriangles.svg	stimuli_distractor_diamondtriangles.svg	7	yes	53	1	672	0	0			0	0			1				0	
6.6.1	win	2023-06-02	00:18:31	00:23:35	299345	628e5f283594e1a48a04886f	3	1	main_slash	7	advance_on_keypress_SLASH	18	stimuli_target_squaretriangles.svg	stimuli_distractor_diamondtriangles.svg	7	yes	57	0	527	0	0			0	0			1				0	
6.6.1	win	2023-06-02	00:18:31	00:23:37	301274	628e5f283594e1a48a04886f	3	1	main_slash	7	main_slash	19	stimuli_distractor_diamondtriangles.svg	stimuli_target_rectanglediamonds.svg	14	yes	53	1	767	0	0			0	0			1				0	
6.6.1	win	2023-06-02	00:18:31	00:23:37	301274	628e5f283594e1a48a04886f	3	1	main_slash	7	advance_on_keypress_SLASH	20	stimuli_distractor_diamondtriangles.svg	stimuli_target_rectanglediamonds.svg	14	yes	57	0	325	0	0			0	0			1				0	
6.6.1	win	2023-06-02	00:18:31	00:23:39	303145	628e5f283594e1a48a04886f	3	1	main_slash	7	main_slash	21	stimuli_distractor_trianglediamonds.svg	stimuli_target_diamondrectangles.svg	27	yes	53	1	905	0	0			0	0			1				0	
6.6.1	win	2023-06-02	00:18:31	00:23:39	303145	628e5f283594e1a48a04886f	3	1	main_slash	7	advance_on_keypress_SLASH	22	stimuli_distractor_trianglediamonds.svg	stimuli_target_diamondrectangles.svg	27	yes	57	0	249	0	0			0	0			1				0	
6.6.1	win	2023-06-02	00:18:31	00:23:41	306040	628e5f283594e1a48a04886f	3	1	main_slash	7	main_slash	23	stimuli_target_diamondrectangles.svg	stimuli_distractor_diamondtriangles.svg	23	yes	0	0	2000	0	0			0	0			1				0	
6.6.1	win	2023-06-02	00:18:31	00:23:41	306040	628e5f283594e1a48a04886f	3	1	main_slash	7	advance_on_keypress_SLASH	24	stimuli_target_diamondrectangles.svg	stimuli_distractor_diamondtriangles.svg	23	yes	57	0	391	0	0			0	0			1				0	
6.6.1	win	2023-06-02	00:18:31	00:23:45	309074	628e5f283594e1a48a04886f	3	1	main_slash	7	main_slash	25	stimuli_distractor_trianglediamonds.svg	stimuli_distractor_trianglediamonds.svg	34	no	0	1	2000	0	0			0	0			1				0	
6.6.1	win	2023-06-02	00:18:31	00:23:45	309074	628e5f283594e1a48a04886f	3	1	main_slash	7	advance_on_keypress_SLASH	26	stimuli_distractor_trianglediamonds.svg	stimuli_distractor_trianglediamonds.svg	34	no	57	0	347	0	0			0	0			1				0	
6.6.1	win	2023-06-02	00:18:31	00:23:46	310852	628e5f283594e1a48a04886f	3	1	main_slash	7	main_slash	27	stimuli_target_rectangletriangles.svg	stimuli_distractor_diamondtriangles.svg	5	yes	53	1	778	0	0			0	0			1				0	
6.6.1	win	2023-06-02	00:18:31	00:23:46	310852	628e5f283594e1a48a04886f	3	1	main_slash	7	advance_on_keypress_SLASH	28	stimuli_target_rectangletriangles.svg	stimuli_distractor_diamondtriangles.svg	5	yes	57	0	539	0	0			0	0			1				0	
6.6.1	win	2023-06-02	00:18:31	00:23:48	312751	628e5f283594e1a48a04886f	3	1	main_slash	7	main_slash	29	stimuli_distractor_trianglediamonds.svg	stimuli_target_rectanglediamonds.svg	10	yes	53	1	711	0	0			0	0			1				0	
6.6.1	win	2023-06-02	00:18:31	00:23:48	312751	628e5f283594e1a48a04886f	3	1	main_slash	7	advance_on_keypress_SLASH	30	stimuli_distractor_trianglediamonds.svg	stimuli_target_rectanglediamonds.svg	10	yes	57	0	357	0	0			0	0			1				0	
6.6.1	win	2023-06-02	00:18:31	00:23:50	314666	628e5f283594e1a48a04886f	3	1	main_slash	7	main_slash	31	stimuli_distractor_trianglediamonds.svg	stimuli_target_diamondsquares.svg	28	yes	53	1	910	0	0			0	0			1				0	
6.6.1	win	2023-06-02	00:18:31	00:23:50	314666	628e5f283594e1a48a04886f	3	1	main_slash	7	advance_on_keypress_SLASH	32	stimuli_distractor_trianglediamonds.svg	stimuli_target_diamondsquares.svg	28	yes	57	0	307	0	0			0	0			1				0	
6.6.1	win	2023-06-02	00:18:31	00:23:52	316359	628e5f283594e1a48a04886f	3	1	main_slash	7	main_slash	33	stimuli_distractor_diamondtriangles.svg	stimuli_target_rectangletriangles.svg	13	yes	53	1	753	0	0			0	0			1				0	
6.6.1	win	2023-06-02	00:18:31	00:23:52	316359	628e5f283594e1a48a04886f	3	1	main_slash	7	advance_on_keypress_SLASH	34	stimuli_distractor_diamondtriangles.svg	stimuli_target_rectangletriangles.svg	13	yes	57	0	417	0	0			0	0			1				0	
6.6.1	win	2023-06-02	00:18:31	00:23:54	318313	628e5f283594e1a48a04886f	3	1	main_slash	7	main_slash	35	stimuli_distractor_trianglediamonds.svg	stimuli_target_squarediamonds.svg	12	yes	53	1	889	0	0			0	0			1				0	
6.6.1	win	2023-06-02	00:18:31	00:23:54	318313	628e5f283594e1a48a04886f	3	1	main_slash	7	advance_on_keypress_SLASH	36	stimuli_distractor_trianglediamonds.svg	stimuli_target_squarediamonds.svg	12	yes	57	0	377	0	0			0	0			1				0	
6.6.1	win	2023-06-02	00:18:31	00:23:57	321323	628e5f283594e1a48a04886f	3	1	main_slash	7	main_slash	37	stimuli_distractor_trianglediamonds.svg	stimuli_distractor_diamondtriangles.svg	35	no	0	1	2000	0	0			0	0			1				0	
6.6.1	win	2023-06-02	00:18:31	00:23:57	321323	628e5f283594e1a48a04886f	3	1	main_slash	7	advance_on_keypress_SLASH	38	stimuli_distractor_trianglediamonds.svg	stimuli_distractor_diamondtriangles.svg	35	no	57	0	335	0	0			0	0			1				0	
6.6.1	win	2023-06-02	00:18:31	00:23:59	323153	628e5f283594e1a48a04886f	3	1	main_slash	7	main_slash	39	stimuli_distractor_diamondtriangles.svg	stimuli_target_diamondrectangles.svg	31	yes	53	1	846	0	0			0	0			1				0	
6.6.1	win	2023-06-02	00:18:31	00:23:59	323153	628e5f283594e1a48a04886f	3	1	main_slash	7	advance_on_keypress_SLASH	40	stimuli_distractor_diamondtriangles.svg	stimuli_target_diamondrectangles.svg	31	yes	57	0	819	0	0			0	0			1				0	
6.6.1	win	2023-06-02	00:18:31	00:24:01	325428	628e5f283594e1a48a04886f	3	1	main_slash	7	main_slash	41	stimuli_distractor_trianglediamonds.svg	stimuli_target_rectangletriangles.svg	9	yes	53	1	805	0	0			0	0			1				0	
6.6.1	win	2023-06-02	00:18:31	00:24:01	325428	628e5f283594e1a48a04886f	3	1	main_slash	7	advance_on_keypress_SLASH	42	stimuli_distractor_trianglediamonds.svg	stimuli_target_rectangletriangles.svg	9	yes	57	0	506	0	0			0	0			1				0	
6.6.1	win	2023-06-02	00:18:31	00:24:03	327338	628e5f283594e1a48a04886f	3	1	main_slash	7	main_slash	43	stimuli_distractor_trianglediamonds.svg	stimuli_target_trianglesquares.svg	26	yes	53	1	765	0	0			0	0			1				0	
6.6.1	win	2023-06-02	00:18:31	00:24:03	327338	628e5f283594e1a48a04886f	3	1	main_slash	7	advance_on_keypress_SLASH	44	stimuli_distractor_trianglediamonds.svg	stimuli_target_trianglesquares.svg	26	yes	57	0	308	0	0			0	0			1				0	
6.6.1	win	2023-06-02	00:18:31	00:24:06	330289	628e5f283594e1a48a04886f	3	1	main_slash	7	main_slash	45	stimuli_distractor_diamondtriangles.svg	stimuli_distractor_diamondtriangles.svg	40	no	0	1	2000	0	0			0	0			1				0	
6.6.1	win	2023-06-02	00:18:31	00:24:06	330289	628e5f283594e1a48a04886f	3	1	main_slash	7	advance_on_keypress_SLASH	46	stimuli_distractor_diamondtriangles.svg	stimuli_distractor_diamondtriangles.svg	40	no	57	0	401	0	0			0	0			1				0	
6.6.1	win	2023-06-02	00:18:31	00:24:07	332013	628e5f283594e1a48a04886f	3	1	main_slash	7	main_slash	47	stimuli_target_rectanglediamonds.svg	stimuli_distractor_diamondtriangles.svg	6	yes	53	1	673	0	0			0	0			1				0	
6.6.1	win	2023-06-02	00:18:31	00:24:07	332013	628e5f283594e1a48a04886f	3	1	main_slash	7	advance_on_keypress_SLASH	48	stimuli_target_rectanglediamonds.svg	stimuli_distractor_diamondtriangles.svg	6	yes	57	0	539	0	0			0	0			1				0	
6.6.1	win	2023-06-02	00:18:31	00:24:09	333942	628e5f283594e1a48a04886f	3	1	main_slash	7	main_slash	49	stimuli_target_squaretriangles.svg	stimuli_distractor_trianglediamonds.svg	3	yes	53	1	752	0	0			0	0			1				0	
6.6.1	win	2023-06-02	00:18:31	00:24:09	333942	628e5f283594e1a48a04886f	3	1	main_slash	7	advance_on_keypress_SLASH	50	stimuli_target_squaretriangles.svg	stimuli_distractor_trianglediamonds.svg	3	yes	57	0	428	0	0			0	0			1				0	
6.6.1	win	2023-06-02	00:18:31	00:24:11	335915	628e5f283594e1a48a04886f	3	1	main_slash	7	main_slash	51	stimuli_distractor_diamondtriangles.svg	stimuli_target_diamondsquares.svg	32	yes	53	1	892	0	0			0	0			1				0	
6.6.1	win	2023-06-02	00:18:31	00:24:11	335915	628e5f283594e1a48a04886f	3	1	main_slash	7	advance_on_keypress_SLASH	52	stimuli_distractor_diamondtriangles.svg	stimuli_target_diamondsquares.svg	32	yes	57	0	362	0	0			0	0			1				0	
6.6.1	win	2023-06-02	00:18:31	00:24:13	337673	628e5f283594e1a48a04886f	3	1	main_slash	7	main_slash	53	stimuli_target_squarediamonds.svg	stimuli_distractor_trianglediamonds.svg	4	yes	53	1	751	0	0			0	0			1				0	
6.6.1	win	2023-06-02	00:18:31	00:24:13	337673	628e5f283594e1a48a04886f	3	1	main_slash	7	advance_on_keypress_SLASH	54	stimuli_target_squarediamonds.svg	stimuli_distractor_trianglediamonds.svg	4	yes	57	0	413	0	0			0	0			1				0	
6.6.1	win	2023-06-02	00:18:31	00:24:15	339576	628e5f283594e1a48a04886f	3	1	main_slash	7	main_slash	55	stimuli_distractor_diamondtriangles.svg	stimuli_target_trianglesquares.svg	30	yes	53	1	836	0	0			0	0			1				0	
6.6.1	win	2023-06-02	00:18:31	00:24:15	339576	628e5f283594e1a48a04886f	3	1	main_slash	7	advance_on_keypress_SLASH	56	stimuli_distractor_diamondtriangles.svg	stimuli_target_trianglesquares.svg	30	yes	57	0	247	0	0			0	0			1				0	
6.6.1	win	2023-06-02	00:18:31	00:24:17	341262	628e5f283594e1a48a04886f	3	1	main_slash	7	main_slash	57	stimuli_distractor_diamondtriangles.svg	stimuli_target_trianglerectangles.svg	29	yes	53	1	790	0	0			0	0			1				0	
6.6.1	win	2023-06-02	00:18:31	00:24:17	341262	628e5f283594e1a48a04886f	3	1	main_slash	7	advance_on_keypress_SLASH	58	stimuli_distractor_diamondtriangles.svg	stimuli_target_trianglerectangles.svg	29	yes	57	0	279	0	0			0	0			1				0	
6.6.1	win	2023-06-02	00:18:31	00:24:20	344189	628e5f283594e1a48a04886f	3	1	main_slash	7	main_slash	59	stimuli_target_diamondsquares.svg	stimuli_distractor_trianglediamonds.svg	20	yes	0	0	2000	0	0			0	0			1				0	
6.6.1	win	2023-06-02	00:18:31	00:24:20	344189	628e5f283594e1a48a04886f	3	1	main_slash	7	advance_on_keypress_SLASH	60	stimuli_target_diamondsquares.svg	stimuli_distractor_trianglediamonds.svg	20	yes	57	0	407	0	0			0	0			1				0	
6.6.1	win	2023-06-02	00:18:31	00:24:22	346187	628e5f283594e1a48a04886f	3	1	main_slash	7	main_slash	61	stimuli_target_trianglesquares.svg	stimuli_distractor_diamondtriangles.svg	22	yes	53	1	948	0	0			0	0			1				0	
6.6.1	win	2023-06-02	00:18:31	00:24:22	346187	628e5f283594e1a48a04886f	3	1	main_slash	7	advance_on_keypress_SLASH	62	stimuli_target_trianglesquares.svg	stimuli_distractor_diamondtriangles.svg	22	yes	57	0	783	0	0			0	0			1				0	
6.6.1	win	2023-06-02	00:18:31	00:24:24	348411	628e5f283594e1a48a04886f	3	1	main_slash	7	main_slash	63	stimuli_target_diamondsquares.svg	stimuli_distractor_diamondtriangles.svg	24	yes	53	1	789	0	0			0	0			1				0	
6.6.1	win	2023-06-02	00:18:31	00:24:24	348411	628e5f283594e1a48a04886f	3	1	main_slash	7	advance_on_keypress_SLASH	64	stimuli_target_diamondsquares.svg	stimuli_distractor_diamondtriangles.svg	24	yes	57	0	587	0	0			0	0			1				0	
6.6.1	win	2023-06-02	00:18:31	00:24:26	350507	628e5f283594e1a48a04886f	3	1	main_slash	7	main_slash	65	stimuli_target_rectangletriangles.svg	stimuli_distractor_trianglediamonds.svg	1	yes	53	1	868	0	0			0	0			1				0	
6.6.1	win	2023-06-02	00:18:31	00:24:26	350507	628e5f283594e1a48a04886f	3	1	main_slash	7	advance_on_keypress_SLASH	66	stimuli_target_rectangletriangles.svg	stimuli_distractor_trianglediamonds.svg	1	yes	57	0	258	0	0			0	0			1				0	
6.6.1	win	2023-06-02	00:18:31	00:24:28	352163	628e5f283594e1a48a04886f	3	1	main_slash	7	main_slash	67	stimuli_target_trianglesquares.svg	stimuli_distractor_trianglediamonds.svg	18	yes	53	1	758	0	0			0	0			1				0	
6.6.1	win	2023-06-02	00:18:31	00:24:28	352163	628e5f283594e1a48a04886f	3	1	main_slash	7	advance_on_keypress_SLASH	68	stimuli_target_trianglesquares.svg	stimuli_distractor_trianglediamonds.svg	18	yes	57	0	250	0	0			0	0			1				0	
6.6.1	win	2023-06-02	00:18:31	00:24:30	354064	628e5f283594e1a48a04886f	3	1	main_slash	7	main_slash	69	stimuli_target_trianglerectangles.svg	stimuli_distractor_trianglediamonds.svg	17	yes	53	1	1009	0	0			0	0			1				0	
6.6.1	win	2023-06-02	00:18:31	00:24:30	354064	628e5f283594e1a48a04886f	3	1	main_slash	7	advance_on_keypress_SLASH	70	stimuli_target_trianglerectangles.svg	stimuli_distractor_trianglediamonds.svg	17	yes	57	0	1424	0	0			0	0			1				0	
6.6.1	win	2023-06-02	00:18:31	00:24:32	356929	628e5f283594e1a48a04886f	3	1	main_slash	7	main_slash	71	stimuli_target_squarediamonds.svg	stimuli_distractor_diamondtriangles.svg	8	yes	53	1	807	0	0			0	0			1				0	
6.6.1	win	2023-06-02	00:18:31	00:24:32	356929	628e5f283594e1a48a04886f	3	1	main_slash	7	advance_on_keypress_SLASH	72	stimuli_target_squarediamonds.svg	stimuli_distractor_diamondtriangles.svg	8	yes	57	0	427	0	0			0	0			1				0	
6.6.1	win	2023-06-02	00:18:31	00:24:35	359988	628e5f283594e1a48a04886f	3	1	main_slash	7	main_slash	73	stimuli_distractor_diamondtriangles.svg	stimuli_distractor_trianglediamonds.svg	37	no	0	1	2000	0	0			0	0			1				0	
6.6.1	win	2023-06-02	00:18:31	00:24:35	359988	628e5f283594e1a48a04886f	3	1	main_slash	7	advance_on_keypress_SLASH	74	stimuli_distractor_diamondtriangles.svg	stimuli_distractor_trianglediamonds.svg	37	no	57	0	390	0	0			0	0			1				0	
6.6.1	win	2023-06-02	00:18:31	00:24:38	363021	628e5f283594e1a48a04886f	3	1	main_slash	7	main_slash	75	stimuli_distractor_trianglediamonds.svg	stimuli_distractor_diamondtriangles.svg	36	no	0	1	2000	0	0			0	0			1				0	
6.6.1	win	2023-06-02	00:18:31	00:24:38	363021	628e5f283594e1a48a04886f	3	1	main_slash	7	advance_on_keypress_SLASH	76	stimuli_distractor_trianglediamonds.svg	stimuli_distractor_diamondtriangles.svg	36	no	57	0	294	0	0			0	0			1				0	
6.6.1	win	2023-06-02	00:18:31	00:24:40	364712	628e5f283594e1a48a04886f	3	1	main_slash	7	main_slash	77	stimuli_distractor_diamondtriangles.svg	stimuli_target_squaretriangles.svg	15	yes	53	1	757	0	0			0	0			1				0	
6.6.1	win	2023-06-02	00:18:31	00:24:40	364712	628e5f283594e1a48a04886f	3	1	main_slash	7	advance_on_keypress_SLASH	78	stimuli_distractor_diamondtriangles.svg	stimuli_target_squaretriangles.svg	15	yes	57	0	312	0	0			0	0			1				0	
6.6.1	win	2023-06-02	00:18:31	00:24:43	367672	628e5f283594e1a48a04886f	3	1	main_slash	7	main_slash	79	stimuli_distractor_trianglediamonds.svg	stimuli_distractor_trianglediamonds.svg	33	no	0	1	2000	0	0			0	0			1				0	
6.6.1	win	2023-06-02	00:18:31	00:24:43	367672	628e5f283594e1a48a04886f	3	1	main_slash	7	advance_on_keypress_SLASH	80	stimuli_distractor_trianglediamonds.svg	stimuli_distractor_trianglediamonds.svg	33	no	57	0	350	0	0			0	0			1				0	
6.6.1	win	2023-06-02	00:18:31	00:24:46	370671	628e5f283594e1a48a04886f	3	1	main_slash	7	main_slash	81	stimuli_target_trianglerectangles.svg	stimuli_distractor_diamondtriangles.svg	21	yes	0	0	2000	0	0			0	0			1				0	
6.6.1	win	2023-06-02	00:18:31	00:24:46	370671	628e5f283594e1a48a04886f	3	1	main_slash	7	advance_on_keypress_SLASH	82	stimuli_target_trianglerectangles.svg	stimuli_distractor_diamondtriangles.svg	21	yes	57	0	332	0	0			0	0			1				0	
6.6.1	win	2023-06-02	00:18:31	00:24:49	373655	628e5f283594e1a48a04886f	3	1	main_slash	7	main_slash	83	stimuli_distractor_trianglediamonds.svg	stimuli_distractor_trianglediamonds.svg	34	no	0	1	2000	0	0			0	0			1				0	
6.6.1	win	2023-06-02	00:18:31	00:24:49	373655	628e5f283594e1a48a04886f	3	1	main_slash	7	advance_on_keypress_SLASH	84	stimuli_distractor_trianglediamonds.svg	stimuli_distractor_trianglediamonds.svg	34	no	57	0	275	0	0			0	0			1				0	
6.6.1	win	2023-06-02	00:18:31	00:24:51	375407	628e5f283594e1a48a04886f	3	1	main_slash	7	main_slash	85	stimuli_target_squarediamonds.svg	stimuli_distractor_trianglediamonds.svg	4	yes	53	1	836	0	0			0	0			1				0	
6.6.1	win	2023-06-02	00:18:31	00:24:51	375407	628e5f283594e1a48a04886f	3	1	main_slash	7	advance_on_keypress_SLASH	86	stimuli_target_squarediamonds.svg	stimuli_distractor_trianglediamonds.svg	4	yes	57	0	529	0	0			0	0			1				0	
6.6.1	win	2023-06-02	00:18:31	00:24:53	377751	628e5f283594e1a48a04886f	3	1	main_slash	7	main_slash	87	stimuli_target_squarediamonds.svg	stimuli_distractor_diamondtriangles.svg	8	yes	53	1	1162	0	0			0	0			1				0	
6.6.1	win	2023-06-02	00:18:31	00:24:53	377751	628e5f283594e1a48a04886f	3	1	main_slash	7	advance_on_keypress_SLASH	88	stimuli_target_squarediamonds.svg	stimuli_distractor_diamondtriangles.svg	8	yes	57	0	1057	0	0			0	0			1				0	
6.6.1	win	2023-06-02	00:18:31	00:24:57	381455	628e5f283594e1a48a04886f	3	1	main_slash	7	main_slash	89	stimuli_distractor_diamondtriangles.svg	stimuli_target_diamondrectangles.svg	31	yes	0	0	2000	0	0			0	0			1				0	
6.6.1	win	2023-06-02	00:18:31	00:24:57	381455	628e5f283594e1a48a04886f	3	1	main_slash	7	advance_on_keypress_SLASH	90	stimuli_distractor_diamondtriangles.svg	stimuli_target_diamondrectangles.svg	31	yes	57	0	323	0	0			0	0			1				0	
6.6.1	win	2023-06-02	00:18:31	00:24:59	383134	628e5f283594e1a48a04886f	3	1	main_slash	7	main_slash	91	stimuli_distractor_diamondtriangles.svg	stimuli_target_rectanglediamonds.svg	14	yes	53	1	713	0	0			0	0			1				0	
6.6.1	win	2023-06-02	00:18:31	00:24:59	383134	628e5f283594e1a48a04886f	3	1	main_slash	7	advance_on_keypress_SLASH	92	stimuli_distractor_diamondtriangles.svg	stimuli_target_rectanglediamonds.svg	14	yes	57	0	377	0	0			0	0			1				0	
6.6.1	win	2023-06-02	00:18:31	00:25:02	386154	628e5f283594e1a48a04886f	3	1	main_slash	7	main_slash	93	stimuli_distractor_trianglediamonds.svg	stimuli_distractor_diamondtriangles.svg	35	no	0	1	2000	0	0			0	0			1				0	
6.6.1	win	2023-06-02	00:18:31	00:25:02	386154	628e5f283594e1a48a04886f	3	1	main_slash	7	advance_on_keypress_SLASH	94	stimuli_distractor_trianglediamonds.svg	stimuli_distractor_diamondtriangles.svg	35	no	57	0	424	0	0			0	0			1				0	
6.6.1	win	2023-06-02	00:18:31	00:25:05	389221	628e5f283594e1a48a04886f	3	1	main_slash	7	main_slash	95	stimuli_target_diamondsquares.svg	stimuli_distractor_trianglediamonds.svg	20	yes	0	0	2000	0	0			0	0			1				0	
6.6.1	win	2023-06-02	00:18:31	00:25:05	389221	628e5f283594e1a48a04886f	3	1	main_slash	7	advance_on_keypress_SLASH	96	stimuli_target_diamondsquares.svg	stimuli_distractor_trianglediamonds.svg	20	yes	57	0	278	0	0			0	0			1				0	
6.6.1	win	2023-06-02	00:18:31	00:25:06	390881	628e5f283594e1a48a04886f	3	1	main_slash	7	main_slash	97	stimuli_target_rectanglediamonds.svg	stimuli_distractor_trianglediamonds.svg	2	yes	53	1	744	0	0			0	0			1				0	
6.6.1	win	2023-06-02	00:18:31	00:25:06	390881	628e5f283594e1a48a04886f	3	1	main_slash	7	advance_on_keypress_SLASH	98	stimuli_target_rectanglediamonds.svg	stimuli_distractor_trianglediamonds.svg	2	yes	57	0	468	0	0			0	0			1				0	
6.6.1	win	2023-06-02	00:18:31	00:25:09	393988	628e5f283594e1a48a04886f	3	1	main_slash	7	main_slash	99	stimuli_distractor_diamondtriangles.svg	stimuli_distractor_trianglediamonds.svg	37	no	0	1	2000	0	0			0	0			1				0	
6.6.1	win	2023-06-02	00:18:31	00:25:09	393988	628e5f283594e1a48a04886f	3	1	main_slash	7	advance_on_keypress_SLASH	100	stimuli_distractor_diamondtriangles.svg	stimuli_distractor_trianglediamonds.svg	37	no	57	0	546	0	0			0	0			1				0	
6.6.1	win	2023-06-02	00:18:31	00:25:11	395904	628e5f283594e1a48a04886f	3	1	main_slash	7	main_slash	101	stimuli_distractor_trianglediamonds.svg	stimuli_target_diamondsquares.svg	28	yes	53	1	717	0	0			0	0			1				0	
6.6.1	win	2023-06-02	00:18:31	00:25:11	395904	628e5f283594e1a48a04886f	3	1	main_slash	7	advance_on_keypress_SLASH	102	stimuli_distractor_trianglediamonds.svg	stimuli_target_diamondsquares.svg	28	yes	57	0	406	0	0			0	0			1				0	
6.6.1	win	2023-06-02	00:18:31	00:25:13	397777	628e5f283594e1a48a04886f	3	1	main_slash	7	main_slash	103	stimuli_target_squaretriangles.svg	stimuli_distractor_diamondtriangles.svg	7	yes	53	1	823	0	0			0	0			1				0	
6.6.1	win	2023-06-02	00:18:31	00:25:13	397777	628e5f283594e1a48a04886f	3	1	main_slash	7	advance_on_keypress_SLASH	104	stimuli_target_squaretriangles.svg	stimuli_distractor_diamondtriangles.svg	7	yes	57	0	335	0	0			0	0			1				0	
6.6.1	win	2023-06-02	00:18:31	00:25:15	399566	628e5f283594e1a48a04886f	3	1	main_slash	7	main_slash	105	stimuli_distractor_trianglediamonds.svg	stimuli_target_diamondrectangles.svg	27	yes	53	1	811	0	0			0	0			1				0	
6.6.1	win	2023-06-02	00:18:31	00:25:15	399566	628e5f283594e1a48a04886f	3	1	main_slash	7	advance_on_keypress_SLASH	106	stimuli_distractor_trianglediamonds.svg	stimuli_target_diamondrectangles.svg	27	yes	57	0	268	0	0			0	0			1				0	
6.6.1	win	2023-06-02	00:18:31	00:25:18	402487	628e5f283594e1a48a04886f	3	1	main_slash	7	main_slash	107	stimuli_distractor_trianglediamonds.svg	stimuli_distractor_diamondtriangles.svg	36	no	0	1	2000	0	0			0	0			1				0	
6.6.1	win	2023-06-02	00:18:31	00:25:18	402487	628e5f283594e1a48a04886f	3	1	main_slash	7	advance_on_keypress_SLASH	108	stimuli_distractor_trianglediamonds.svg	stimuli_distractor_diamondtriangles.svg	36	no	57	0	352	0	0			0	0			1				0	
6.6.1	win	2023-06-02	00:18:31	00:25:21	405487	628e5f283594e1a48a04886f	3	1	main_slash	7	main_slash	109	stimuli_distractor_diamondtriangles.svg	stimuli_distractor_trianglediamonds.svg	38	no	0	1	2000	0	0			0	0			1				0	
6.6.1	win	2023-06-02	00:18:31	00:25:21	405487	628e5f283594e1a48a04886f	3	1	main_slash	7	advance_on_keypress_SLASH	110	stimuli_distractor_diamondtriangles.svg	stimuli_distractor_trianglediamonds.svg	38	no	57	0	278	0	0			0	0			1				0	
6.6.1	win	2023-06-02	00:18:31	00:25:23	407320	628e5f283594e1a48a04886f	3	1	main_slash	7	main_slash	111	stimuli_distractor_diamondtriangles.svg	stimuli_target_trianglerectangles.svg	29	yes	53	1	899	0	0			0	0			1				0	
6.6.1	win	2023-06-02	00:18:31	00:25:23	407320	628e5f283594e1a48a04886f	3	1	main_slash	7	advance_on_keypress_SLASH	112	stimuli_distractor_diamondtriangles.svg	stimuli_target_trianglerectangles.svg	29	yes	57	0	390	0	0			0	0			1				0	
6.6.1	win	2023-06-02	00:18:31	00:25:26	410354	628e5f283594e1a48a04886f	3	1	main_slash	7	main_slash	113	stimuli_target_diamondrectangles.svg	stimuli_distractor_trianglediamonds.svg	19	yes	0	0	2000	0	0			0	0			1				0	
6.6.1	win	2023-06-02	00:18:31	00:25:26	410354	628e5f283594e1a48a04886f	3	1	main_slash	7	advance_on_keypress_SLASH	114	stimuli_target_diamondrectangles.svg	stimuli_distractor_trianglediamonds.svg	19	yes	57	0	426	0	0			0	0			1				0	
6.6.1	win	2023-06-02	00:18:31	00:25:28	412246	628e5f283594e1a48a04886f	3	1	main_slash	7	main_slash	115	stimuli_target_trianglesquares.svg	stimuli_distractor_diamondtriangles.svg	22	yes	53	1	826	0	0			0	0			1				0	
6.6.1	win	2023-06-02	00:18:31	00:25:28	412246	628e5f283594e1a48a04886f	3	1	main_slash	7	advance_on_keypress_SLASH	116	stimuli_target_trianglesquares.svg	stimuli_distractor_diamondtriangles.svg	22	yes	57	0	346	0	0			0	0			1				0	
6.6.1	win	2023-06-02	00:18:31	00:25:30	414057	628e5f283594e1a48a04886f	3	1	main_slash	7	main_slash	117	stimuli_target_trianglesquares.svg	stimuli_distractor_trianglediamonds.svg	18	yes	53	1	819	0	0			0	0			1				0	
6.6.1	win	2023-06-02	00:18:31	00:25:30	414057	628e5f283594e1a48a04886f	3	1	main_slash	7	advance_on_keypress_SLASH	118	stimuli_target_trianglesquares.svg	stimuli_distractor_trianglediamonds.svg	18	yes	57	0	342	0	0			0	0			1				0	
6.6.1	win	2023-06-02	00:18:31	00:25:31	415847	628e5f283594e1a48a04886f	3	1	main_slash	7	main_slash	119	stimuli_target_squaretriangles.svg	stimuli_distractor_trianglediamonds.svg	3	yes	53	1	809	0	0			0	0			1				0	
6.6.1	win	2023-06-02	00:18:31	00:25:31	415847	628e5f283594e1a48a04886f	3	1	main_slash	7	advance_on_keypress_SLASH	120	stimuli_target_squaretriangles.svg	stimuli_distractor_trianglediamonds.svg	3	yes	57	0	1096	0	0			0	0			1				0	
6.6.1	win	2023-06-02	00:18:31	00:25:34	418272	628e5f283594e1a48a04886f	3	1	main_slash	7	main_slash	121	stimuli_distractor_diamondtriangles.svg	stimuli_target_squaretriangles.svg	15	yes	53	1	685	0	0			0	0			1				0	
6.6.1	win	2023-06-02	00:18:31	00:25:34	418272	628e5f283594e1a48a04886f	3	1	main_slash	7	advance_on_keypress_SLASH	122	stimuli_distractor_diamondtriangles.svg	stimuli_target_squaretriangles.svg	15	yes	57	0	233	0	0			0	0			1				0	
6.6.1	win	2023-06-02	00:18:31	00:25:35	419971	628e5f283594e1a48a04886f	3	1	main_slash	7	main_slash	123	stimuli_target_rectangletriangles.svg	stimuli_distractor_trianglediamonds.svg	1	yes	53	1	818	0	0			0	0			1				0	
6.6.1	win	2023-06-02	00:18:31	00:25:35	419971	628e5f283594e1a48a04886f	3	1	main_slash	7	advance_on_keypress_SLASH	124	stimuli_target_rectangletriangles.svg	stimuli_distractor_trianglediamonds.svg	1	yes	57	0	263	0	0			0	0			1				0	
6.6.1	win	2023-06-02	00:18:31	00:25:38	422887	628e5f283594e1a48a04886f	3	1	main_slash	7	main_slash	125	stimuli_distractor_trianglediamonds.svg	stimuli_target_squaretriangles.svg	11	yes	0	0	2000	0	0			0	0			1				0	
6.6.1	win	2023-06-02	00:18:31	00:25:38	422887	628e5f283594e1a48a04886f	3	1	main_slash	7	advance_on_keypress_SLASH	126	stimuli_distractor_trianglediamonds.svg	stimuli_target_squaretriangles.svg	11	yes	57	0	433	0	0			0	0			1				0	
6.6.1	win	2023-06-02	00:18:31	00:25:40	424766	628e5f283594e1a48a04886f	3	1	main_slash	7	main_slash	127	stimuli_target_diamondrectangles.svg	stimuli_distractor_diamondtriangles.svg	23	yes	53	1	796	0	0			0	0			1				0	
6.6.1	win	2023-06-02	00:18:31	00:25:40	424766	628e5f283594e1a48a04886f	3	1	main_slash	7	advance_on_keypress_SLASH	128	stimuli_target_diamondrectangles.svg	stimuli_distractor_diamondtriangles.svg	23	yes	57	0	304	0	0			0	0			1				0	
6.6.1	win	2023-06-02	00:18:31	00:25:42	426530	628e5f283594e1a48a04886f	3	1	main_slash	7	main_slash	129	stimuli_distractor_trianglediamonds.svg	stimuli_target_trianglesquares.svg	26	yes	53	1	810	0	0			0	0			1				0	
6.6.1	win	2023-06-02	00:18:31	00:25:42	426530	628e5f283594e1a48a04886f	3	1	main_slash	7	advance_on_keypress_SLASH	130	stimuli_distractor_trianglediamonds.svg	stimuli_target_trianglesquares.svg	26	yes	57	0	278	0	0			0	0			1				0	
6.6.1	win	2023-06-02	00:18:31	00:25:44	428169	628e5f283594e1a48a04886f	3	1	main_slash	7	main_slash	131	stimuli_target_rectanglediamonds.svg	stimuli_distractor_diamondtriangles.svg	6	yes	53	1	715	0	0			0	0			1				0	
6.6.1	win	2023-06-02	00:18:31	00:25:44	428169	628e5f283594e1a48a04886f	3	1	main_slash	7	advance_on_keypress_SLASH	132	stimuli_target_rectanglediamonds.svg	stimuli_distractor_diamondtriangles.svg	6	yes	57	0	406	0	0			0	0			1				0	
6.6.1	win	2023-06-02	00:18:31	00:25:45	429977	628e5f283594e1a48a04886f	3	1	main_slash	7	main_slash	133	stimuli_distractor_diamondtriangles.svg	stimuli_target_diamondsquares.svg	32	yes	53	1	756	0	0			0	0			1				0	
6.6.1	win	2023-06-02	00:18:31	00:25:45	429977	628e5f283594e1a48a04886f	3	1	main_slash	7	advance_on_keypress_SLASH	134	stimuli_distractor_diamondtriangles.svg	stimuli_target_diamondsquares.svg	32	yes	57	0	318	0	0			0	0			1				0	
6.6.1	win	2023-06-02	00:18:31	00:25:47	431916	628e5f283594e1a48a04886f	3	1	main_slash	7	main_slash	135	stimuli_distractor_diamondtriangles.svg	stimuli_target_squarediamonds.svg	16	yes	53	1	979	0	0			0	0			1				0	
6.6.1	win	2023-06-02	00:18:31	00:25:47	431916	628e5f283594e1a48a04886f	3	1	main_slash	7	advance_on_keypress_SLASH	136	stimuli_distractor_diamondtriangles.svg	stimuli_target_squarediamonds.svg	16	yes	57	0	966	0	0			0	0			1				0	
6.6.1	win	2023-06-02	00:18:31	00:25:50	434356	628e5f283594e1a48a04886f	3	1	main_slash	7	main_slash	137	stimuli_distractor_trianglediamonds.svg	stimuli_target_squarediamonds.svg	12	yes	53	1	820	0	0			0	0			1				0	
6.6.1	win	2023-06-02	00:18:31	00:25:50	434356	628e5f283594e1a48a04886f	3	1	main_slash	7	advance_on_keypress_SLASH	138	stimuli_distractor_trianglediamonds.svg	stimuli_target_squarediamonds.svg	12	yes	57	0	225	0	0			0	0			1				0	
6.6.1	win	2023-06-02	00:18:31	00:25:53	437220	628e5f283594e1a48a04886f	3	1	main_slash	7	main_slash	139	stimuli_target_trianglerectangles.svg	stimuli_distractor_trianglediamonds.svg	17	yes	0	0	2000	0	0			0	0			1				0	
6.6.1	win	2023-06-02	00:18:31	00:25:53	437220	628e5f283594e1a48a04886f	3	1	main_slash	7	advance_on_keypress_SLASH	140	stimuli_target_trianglerectangles.svg	stimuli_distractor_trianglediamonds.svg	17	yes	57	0	346	0	0			0	0			1				0	
6.6.1	win	2023-06-02	00:18:31	00:25:54	438923	628e5f283594e1a48a04886f	3	1	main_slash	7	main_slash	141	stimuli_distractor_trianglediamonds.svg	stimuli_target_rectanglediamonds.svg	10	yes	53	1	704	0	0			0	0			1				0	
6.6.1	win	2023-06-02	00:18:31	00:25:54	438923	628e5f283594e1a48a04886f	3	1	main_slash	7	advance_on_keypress_SLASH	142	stimuli_distractor_trianglediamonds.svg	stimuli_target_rectanglediamonds.svg	10	yes	57	0	182	0	0			0	0			1				0	
6.6.1	win	2023-06-02	00:18:31	00:25:56	440401	628e5f283594e1a48a04886f	3	1	main_slash	7	main_slash	143	stimuli_distractor_diamondtriangles.svg	stimuli_target_trianglesquares.svg	30	yes	53	1	648	0	0			0	0			1				0	
6.6.1	win	2023-06-02	00:18:31	00:25:56	440401	628e5f283594e1a48a04886f	3	1	main_slash	7	advance_on_keypress_SLASH	144	stimuli_distractor_diamondtriangles.svg	stimuli_target_trianglesquares.svg	30	yes	57	0	267	0	0			0	0			1				0	
6.6.1	win	2023-06-02	00:18:31	00:25:57	441986	628e5f283594e1a48a04886f	3	1	main_slash	7	main_slash	145	stimuli_distractor_trianglediamonds.svg	stimuli_target_trianglerectangles.svg	25	yes	53	1	667	0	0			0	0			1				0	
6.6.1	win	2023-06-02	00:18:31	00:25:57	441986	628e5f283594e1a48a04886f	3	1	main_slash	7	advance_on_keypress_SLASH	146	stimuli_distractor_trianglediamonds.svg	stimuli_target_trianglerectangles.svg	25	yes	57	0	239	0	0			0	0			1				0	
6.6.1	win	2023-06-02	00:18:31	00:26:00	444870	628e5f283594e1a48a04886f	3	1	main_slash	7	main_slash	147	stimuli_distractor_diamondtriangles.svg	stimuli_distractor_diamondtriangles.svg	39	no	0	1	2000	0	0			0	0			1				0	
6.6.1	win	2023-06-02	00:18:31	00:26:00	444870	628e5f283594e1a48a04886f	3	1	main_slash	7	advance_on_keypress_SLASH	148	stimuli_distractor_diamondtriangles.svg	stimuli_distractor_diamondtriangles.svg	39	no	57	0	417	0	0			0	0			1				0	
6.6.1	win	2023-06-02	00:18:31	00:26:03	447936	628e5f283594e1a48a04886f	3	1	main_slash	7	main_slash	149	stimuli_target_diamondsquares.svg	stimuli_distractor_diamondtriangles.svg	24	yes	0	0	2000	0	0			0	0			1				0	
6.6.1	win	2023-06-02	00:18:31	00:26:03	447936	628e5f283594e1a48a04886f	3	1	main_slash	7	advance_on_keypress_SLASH	150	stimuli_target_diamondsquares.svg	stimuli_distractor_diamondtriangles.svg	24	yes	57	0	354	0	0			0	0			1				0	
6.6.1	win	2023-06-02	00:18:31	00:26:05	449586	628e5f283594e1a48a04886f	3	1	main_slash	7	main_slash	151	stimuli_distractor_trianglediamonds.svg	stimuli_target_rectangletriangles.svg	9	yes	53	1	650	0	0			0	0			1				0	
6.6.1	win	2023-06-02	00:18:31	00:26:05	449586	628e5f283594e1a48a04886f	3	1	main_slash	7	advance_on_keypress_SLASH	152	stimuli_distractor_trianglediamonds.svg	stimuli_target_rectangletriangles.svg	9	yes	57	0	269	0	0			0	0			1				0	
6.6.1	win	2023-06-02	00:18:31	00:26:08	452503	628e5f283594e1a48a04886f	3	1	main_slash	7	main_slash	153	stimuli_distractor_trianglediamonds.svg	stimuli_distractor_trianglediamonds.svg	33	no	0	1	2000	0	0			0	0			1				0	
6.6.1	win	2023-06-02	00:18:31	00:26:08	452503	628e5f283594e1a48a04886f	3	1	main_slash	7	advance_on_keypress_SLASH	154	stimuli_distractor_trianglediamonds.svg	stimuli_distractor_trianglediamonds.svg	33	no	57	0	384	0	0			0	0			1				0	
6.6.1	win	2023-06-02	00:18:31	00:26:10	454202	628e5f283594e1a48a04886f	3	1	main_slash	7	main_slash	155	stimuli_target_rectangletriangles.svg	stimuli_distractor_diamondtriangles.svg	5	yes	53	1	666	0	0			0	0			1				0	
6.6.1	win	2023-06-02	00:18:31	00:26:10	454202	628e5f283594e1a48a04886f	3	1	main_slash	7	advance_on_keypress_SLASH	156	stimuli_target_rectangletriangles.svg	stimuli_distractor_diamondtriangles.svg	5	yes	57	0	157	0	0			0	0			1				0	
6.6.1	win	2023-06-02	00:18:31	00:26:12	457002	628e5f283594e1a48a04886f	3	1	main_slash	7	main_slash	157	stimuli_distractor_diamondtriangles.svg	stimuli_distractor_diamondtriangles.svg	40	no	0	1	2000	0	0			0	0			1				0	
6.6.1	win	2023-06-02	00:18:31	00:26:12	457002	628e5f283594e1a48a04886f	3	1	main_slash	7	advance_on_keypress_SLASH	158	stimuli_distractor_diamondtriangles.svg	stimuli_distractor_diamondtriangles.svg	40	no	57	0	343	0	0			0	0			1				0	
6.6.1	win	2023-06-02	00:18:31	00:26:14	458595	628e5f283594e1a48a04886f	3	1	main_slash	7	main_slash	159	stimuli_distractor_diamondtriangles.svg	stimuli_target_rectangletriangles.svg	13	yes	53	1	610	0	0			0	0			1				0	
6.6.1	win	2023-06-02	00:18:31	00:26:14	458595	628e5f283594e1a48a04886f	3	1	main_slash	7	advance_on_keypress_SLASH	160	stimuli_distractor_diamondtriangles.svg	stimuli_target_rectangletriangles.svg	13	yes	57	0	241	0	0			0	0			1				0	
6.6.1	win	2023-06-02	00:18:31	00:26:39	483571	628e5f283594e1a48a04886f	3	1	practice_z	9	practice_z	1	stimuli_target_diamondsquares.svg	stimuli_distractor_diamondtriangles.svg	3	yes	44	1	700	0	0			0	0			1				0	
6.6.1	win	2023-06-02	00:18:31	00:26:39	483571	628e5f283594e1a48a04886f	3	1	practice_z	9	advance_on_keypress_ZEE	2	stimuli_target_diamondsquares.svg	stimuli_distractor_diamondtriangles.svg	3	yes	57	0	490	0	0			0	0			1				0	
6.6.1	win	2023-06-02	00:18:31	00:26:42	486281	628e5f283594e1a48a04886f	3	1	practice_z	9	practice_z	3	stimuli_distractor_trianglediamonds.svg	stimuli_target_squarediamonds.svg	11	yes	44	1	577	0	0			0	0			1				0	
6.6.1	win	2023-06-02	00:18:31	00:26:42	486281	628e5f283594e1a48a04886f	3	1	practice_z	9	advance_on_keypress_ZEE	4	stimuli_distractor_trianglediamonds.svg	stimuli_target_squarediamonds.svg	11	yes	57	0	416	0	0			0	0			1				0	
6.6.1	win	2023-06-02	00:18:31	00:26:44	489039	628e5f283594e1a48a04886f	3	1	practice_z	9	practice_z	5	stimuli_distractor_diamondtriangles.svg	stimuli_target_diamondrectangles.svg	8	yes	44	1	686	0	0			0	0			1				0	
6.6.1	win	2023-06-02	00:18:31	00:26:44	489039	628e5f283594e1a48a04886f	3	1	practice_z	9	advance_on_keypress_ZEE	6	stimuli_distractor_diamondtriangles.svg	stimuli_target_diamondrectangles.svg	8	yes	57	0	462	0	0			0	0			1				0	
6.6.1	win	2023-06-02	00:18:31	00:26:47	491828	628e5f283594e1a48a04886f	3	1	practice_z	9	practice_z	7	stimuli_target_squarediamonds.svg	stimuli_distractor_trianglediamonds.svg	5	yes	44	1	673	0	0			0	0			1				0	
6.6.1	win	2023-06-02	00:18:31	00:26:47	491828	628e5f283594e1a48a04886f	3	1	practice_z	9	advance_on_keypress_ZEE	8	stimuli_target_squarediamonds.svg	stimuli_distractor_trianglediamonds.svg	5	yes	57	0	692	0	0			0	0			1				0	
6.6.1	win	2023-06-02	00:18:31	00:26:50	494853	628e5f283594e1a48a04886f	3	1	practice_z	9	practice_z	9	stimuli_distractor_trianglediamonds.svg	stimuli_target_rectanglediamonds.svg	10	yes	44	1	700	0	0			0	0			1				0	
6.6.1	win	2023-06-02	00:18:31	00:26:50	494853	628e5f283594e1a48a04886f	3	1	practice_z	9	advance_on_keypress_ZEE	10	stimuli_distractor_trianglediamonds.svg	stimuli_target_rectanglediamonds.svg	10	yes	57	0	308	0	0			0	0			1				0	
6.6.1	win	2023-06-02	00:18:31	00:26:53	497613	628e5f283594e1a48a04886f	3	1	practice_z	9	practice_z	11	stimuli_distractor_diamondtriangles.svg	stimuli_target_rectangletriangles.svg	7	yes	44	1	808	0	0			0	0			1				0	
6.6.1	win	2023-06-02	00:18:31	00:26:53	497613	628e5f283594e1a48a04886f	3	1	practice_z	9	advance_on_keypress_ZEE	12	stimuli_distractor_diamondtriangles.svg	stimuli_target_rectangletriangles.svg	7	yes	57	0	377	0	0			0	0			1				0	
6.6.1	win	2023-06-02	00:18:31	00:26:56	500493	628e5f283594e1a48a04886f	3	1	practice_z	9	practice_z	13	stimuli_target_rectanglediamonds.svg	stimuli_distractor_trianglediamonds.svg	4	yes	44	1	840	0	0			0	0			1				0	
6.6.1	win	2023-06-02	00:18:31	00:26:56	500493	628e5f283594e1a48a04886f	3	1	practice_z	9	advance_on_keypress_ZEE	14	stimuli_target_rectanglediamonds.svg	stimuli_distractor_trianglediamonds.svg	4	yes	57	0	406	0	0			0	0			1				0	
6.6.1	win	2023-06-02	00:18:31	00:26:59	503288	628e5f283594e1a48a04886f	3	1	practice_z	9	practice_z	15	stimuli_target_diamondsquares.svg	stimuli_distractor_trianglediamonds.svg	6	yes	44	1	752	0	0			0	0			1				0	
6.6.1	win	2023-06-02	00:18:31	00:26:59	503288	628e5f283594e1a48a04886f	3	1	practice_z	9	advance_on_keypress_ZEE	16	stimuli_target_diamondsquares.svg	stimuli_distractor_trianglediamonds.svg	6	yes	57	0	426	0	0			0	0			1				0	
6.6.1	win	2023-06-02	00:18:31	00:27:02	506587	628e5f283594e1a48a04886f	3	1	practice_z	9	practice_z	17	stimuli_distractor_diamondtriangles.svg	stimuli_target_trianglerectangles.svg	9	yes	44	1	1217	0	0			0	0			1				0	
6.6.1	win	2023-06-02	00:18:31	00:27:02	506587	628e5f283594e1a48a04886f	3	1	practice_z	9	advance_on_keypress_ZEE	18	stimuli_distractor_diamondtriangles.svg	stimuli_target_trianglerectangles.svg	9	yes	57	0	433	0	0			0	0			1				0	
6.6.1	win	2023-06-02	00:18:31	00:27:06	510670	628e5f283594e1a48a04886f	3	1	practice_z	9	practice_z	19	stimuli_distractor_diamondtriangles.svg	stimuli_distractor_trianglediamonds.svg	14	no	0	1	2000	0	0			0	0			1				0	
6.6.1	win	2023-06-02	00:18:31	00:27:06	510670	628e5f283594e1a48a04886f	3	1	practice_z	9	advance_on_keypress_ZEE	20	stimuli_distractor_diamondtriangles.svg	stimuli_distractor_trianglediamonds.svg	14	no	57	0	404	0	0			0	0			1				0	
6.6.1	win	2023-06-02	00:18:31	00:27:09	513925	628e5f283594e1a48a04886f	3	1	practice_z	9	practice_z	21	stimuli_distractor_trianglediamonds.svg	stimuli_distractor_diamondtriangles.svg	16	no	44	0	1204	0	0			0	0			1				0	
6.6.1	win	2023-06-02	00:18:31	00:27:09	513925	628e5f283594e1a48a04886f	3	1	practice_z	9	advance_on_keypress_ZEE	22	stimuli_distractor_trianglediamonds.svg	stimuli_distractor_diamondtriangles.svg	16	no	57	0	529	0	0			0	0			1				0	
6.6.1	win	2023-06-02	00:18:31	00:27:12	516941	628e5f283594e1a48a04886f	3	1	practice_z	9	practice_z	23	stimuli_distractor_trianglediamonds.svg	stimuli_target_diamondrectangles.svg	12	yes	44	1	838	0	0			0	0			1				0	
6.6.1	win	2023-06-02	00:18:31	00:27:12	516941	628e5f283594e1a48a04886f	3	1	practice_z	9	advance_on_keypress_ZEE	24	stimuli_distractor_trianglediamonds.svg	stimuli_target_diamondrectangles.svg	12	yes	57	0	489	0	0			0	0			1				0	
6.6.1	win	2023-06-02	00:18:31	00:27:15	519704	628e5f283594e1a48a04886f	3	1	practice_z	9	practice_z	25	stimuli_target_squarediamonds.svg	stimuli_distractor_diamondtriangles.svg	2	yes	44	1	634	0	0			0	0			1				0	
6.6.1	win	2023-06-02	00:18:31	00:27:15	519704	628e5f283594e1a48a04886f	3	1	practice_z	9	advance_on_keypress_ZEE	26	stimuli_target_squarediamonds.svg	stimuli_distractor_diamondtriangles.svg	2	yes	57	0	550	0	0			0	0			1				0	
6.6.1	win	2023-06-02	00:18:31	00:27:18	522630	628e5f283594e1a48a04886f	3	1	practice_z	9	practice_z	27	stimuli_target_rectanglediamonds.svg	stimuli_distractor_diamondtriangles.svg	1	yes	44	1	726	0	0			0	0			1				0	
6.6.1	win	2023-06-02	00:18:31	00:27:18	522630	628e5f283594e1a48a04886f	3	1	practice_z	9	advance_on_keypress_ZEE	28	stimuli_target_rectanglediamonds.svg	stimuli_distractor_diamondtriangles.svg	1	yes	57	0	431	0	0			0	0			1				0	
6.6.1	win	2023-06-02	00:18:31	00:27:22	526720	628e5f283594e1a48a04886f	3	1	practice_z	9	practice_z	29	stimuli_distractor_diamondtriangles.svg	stimuli_distractor_diamondtriangles.svg	13	no	0	1	2000	0	0			0	0			1				0	
6.6.1	win	2023-06-02	00:18:31	00:27:22	526720	628e5f283594e1a48a04886f	3	1	practice_z	9	advance_on_keypress_ZEE	30	stimuli_distractor_diamondtriangles.svg	stimuli_distractor_diamondtriangles.svg	13	no	57	0	476	0	0			0	0			1				0	
6.6.1	win	2023-06-02	00:18:31	00:27:26	530836	628e5f283594e1a48a04886f	3	1	practice_z	9	practice_z	31	stimuli_distractor_trianglediamonds.svg	stimuli_distractor_trianglediamonds.svg	15	no	0	1	2000	0	0			0	0			1				0	
6.6.1	win	2023-06-02	00:18:31	00:27:26	530836	628e5f283594e1a48a04886f	3	1	practice_z	9	advance_on_keypress_ZEE	32	stimuli_distractor_trianglediamonds.svg	stimuli_distractor_trianglediamonds.svg	15	no	57	0	333	0	0			0	0			1				0	
6.6.1	win	2023-06-02	00:18:31	00:27:31	535738	628e5f283594e1a48a04886f	3	1	main_z	11	main_z	1	stimuli_target_diamondsquares.svg	stimuli_distractor_diamondtriangles.svg	24	yes	44	1	704	0	0			0	0			1				0	
6.6.1	win	2023-06-02	00:18:31	00:27:31	535738	628e5f283594e1a48a04886f	3	1	main_z	11	advance_on_keypress_ZEE	2	stimuli_target_diamondsquares.svg	stimuli_distractor_diamondtriangles.svg	24	yes	57	0	692	0	0			0	0			1				0	
6.6.1	win	2023-06-02	00:18:31	00:27:33	537800	628e5f283594e1a48a04886f	3	1	main_z	11	main_z	3	stimuli_distractor_diamondtriangles.svg	stimuli_target_rectanglediamonds.svg	14	yes	44	1	733	0	0			0	0			1				0	
6.6.1	win	2023-06-02	00:18:31	00:27:33	537800	628e5f283594e1a48a04886f	3	1	main_z	11	advance_on_keypress_ZEE	4	stimuli_distractor_diamondtriangles.svg	stimuli_target_rectanglediamonds.svg	14	yes	57	0	276	0	0			0	0			1				0	
6.6.1	win	2023-06-02	00:18:31	00:27:35	539563	628e5f283594e1a48a04886f	3	1	main_z	11	main_z	5	stimuli_target_rectanglediamonds.svg	stimuli_distractor_diamondtriangles.svg	6	yes	44	1	847	0	0			0	0			1				0	
6.6.1	win	2023-06-02	00:18:31	00:27:35	539563	628e5f283594e1a48a04886f	3	1	main_z	11	advance_on_keypress_ZEE	6	stimuli_target_rectanglediamonds.svg	stimuli_distractor_diamondtriangles.svg	6	yes	57	0	403	0	0			0	0			1				0	
6.6.1	win	2023-06-02	00:18:31	00:27:37	541349	628e5f283594e1a48a04886f	3	1	main_z	11	main_z	7	stimuli_target_rectangletriangles.svg	stimuli_distractor_trianglediamonds.svg	1	yes	44	1	733	0	0			0	0			1				0	
6.6.1	win	2023-06-02	00:18:31	00:27:37	541349	628e5f283594e1a48a04886f	3	1	main_z	11	advance_on_keypress_ZEE	8	stimuli_target_rectangletriangles.svg	stimuli_distractor_trianglediamonds.svg	1	yes	57	0	418	0	0			0	0			1				0	
6.6.1	win	2023-06-02	00:18:31	00:27:39	543099	628e5f283594e1a48a04886f	3	1	main_z	11	main_z	9	stimuli_target_rectangletriangles.svg	stimuli_distractor_diamondtriangles.svg	5	yes	44	1	682	0	0			0	0			1				0	
6.6.1	win	2023-06-02	00:18:31	00:27:39	543099	628e5f283594e1a48a04886f	3	1	main_z	11	advance_on_keypress_ZEE	10	stimuli_target_rectangletriangles.svg	stimuli_distractor_diamondtriangles.svg	5	yes	57	0	393	0	0			0	0			1				0	
6.6.1	win	2023-06-02	00:18:31	00:27:40	544877	628e5f283594e1a48a04886f	3	1	main_z	11	main_z	11	stimuli_distractor_trianglediamonds.svg	stimuli_target_squaretriangles.svg	11	yes	44	1	744	0	0			0	0			1				0	
6.6.1	win	2023-06-02	00:18:31	00:27:40	544877	628e5f283594e1a48a04886f	3	1	main_z	11	advance_on_keypress_ZEE	12	stimuli_distractor_trianglediamonds.svg	stimuli_target_squaretriangles.svg	11	yes	57	0	283	0	0			0	0			1				0	
6.6.1	win	2023-06-02	00:18:31	00:27:43	547800	628e5f283594e1a48a04886f	3	1	main_z	11	main_z	13	stimuli_distractor_trianglediamonds.svg	stimuli_distractor_trianglediamonds.svg	33	no	0	1	2000	0	0			0	0			1				0	
6.6.1	win	2023-06-02	00:18:31	00:27:43	547800	628e5f283594e1a48a04886f	3	1	main_z	11	advance_on_keypress_ZEE	14	stimuli_distractor_trianglediamonds.svg	stimuli_distractor_trianglediamonds.svg	33	no	57	0	393	0	0			0	0			1				0	
6.6.1	win	2023-06-02	00:18:31	00:27:46	550833	628e5f283594e1a48a04886f	3	1	main_z	11	main_z	15	stimuli_distractor_trianglediamonds.svg	stimuli_distractor_diamondtriangles.svg	36	no	0	1	2000	0	0			0	0			1				0	
6.6.1	win	2023-06-02	00:18:31	00:27:46	550833	628e5f283594e1a48a04886f	3	1	main_z	11	advance_on_keypress_ZEE	16	stimuli_distractor_trianglediamonds.svg	stimuli_distractor_diamondtriangles.svg	36	no	57	0	281	0	0			0	0			1				0	
6.6.1	win	2023-06-02	00:18:31	00:27:48	552875	628e5f283594e1a48a04886f	3	1	main_z	11	main_z	17	stimuli_target_trianglerectangles.svg	stimuli_distractor_trianglediamonds.svg	17	yes	44	1	1109	0	0			0	0			1				0	
6.6.1	win	2023-06-02	00:18:31	00:27:48	552875	628e5f283594e1a48a04886f	3	1	main_z	11	advance_on_keypress_ZEE	18	stimuli_target_trianglerectangles.svg	stimuli_distractor_trianglediamonds.svg	17	yes	57	0	438	0	0			0	0			1				0	
6.6.1	win	2023-06-02	00:18:31	00:27:50	554703	628e5f283594e1a48a04886f	3	1	main_z	11	main_z	19	stimuli_target_squarediamonds.svg	stimuli_distractor_trianglediamonds.svg	4	yes	44	1	754	0	0			0	0			1				0	
6.6.1	win	2023-06-02	00:18:31	00:27:50	554703	628e5f283594e1a48a04886f	3	1	main_z	11	advance_on_keypress_ZEE	20	stimuli_target_squarediamonds.svg	stimuli_distractor_trianglediamonds.svg	4	yes	57	0	344	0	0			0	0			1				0	
6.6.1	win	2023-06-02	00:18:31	00:27:52	556332	628e5f283594e1a48a04886f	3	1	main_z	11	main_z	21	stimuli_target_squaretriangles.svg	stimuli_distractor_trianglediamonds.svg	3	yes	44	1	649	0	0			0	0			1				0	
6.6.1	win	2023-06-02	00:18:31	00:27:52	556332	628e5f283594e1a48a04886f	3	1	main_z	11	advance_on_keypress_ZEE	22	stimuli_target_squaretriangles.svg	stimuli_distractor_trianglediamonds.svg	3	yes	57	0	526	0	0			0	0			1				0	
6.6.1	win	2023-06-02	00:18:31	00:27:54	558324	628e5f283594e1a48a04886f	3	1	main_z	11	main_z	23	stimuli_distractor_diamondtriangles.svg	stimuli_target_diamondsquares.svg	32	yes	44	1	825	0	0			0	0			1				0	
6.6.1	win	2023-06-02	00:18:31	00:27:54	558324	628e5f283594e1a48a04886f	3	1	main_z	11	advance_on_keypress_ZEE	24	stimuli_distractor_diamondtriangles.svg	stimuli_target_diamondsquares.svg	32	yes	57	0	336	0	0			0	0			1				0	
6.6.1	win	2023-06-02	00:18:31	00:27:55	559962	628e5f283594e1a48a04886f	3	1	main_z	11	main_z	25	stimuli_target_rectanglediamonds.svg	stimuli_distractor_trianglediamonds.svg	2	yes	44	1	663	0	0			0	0			1				0	
6.6.1	win	2023-06-02	00:18:31	00:27:55	559962	628e5f283594e1a48a04886f	3	1	main_z	11	advance_on_keypress_ZEE	26	stimuli_target_rectanglediamonds.svg	stimuli_distractor_trianglediamonds.svg	2	yes	57	0	361	0	0			0	0			1				0	
6.6.1	win	2023-06-02	00:18:31	00:27:58	562983	628e5f283594e1a48a04886f	3	1	main_z	11	main_z	27	stimuli_distractor_trianglediamonds.svg	stimuli_distractor_diamondtriangles.svg	35	no	0	1	2000	0	0			0	0			1				0	
6.6.1	win	2023-06-02	00:18:31	00:27:58	562983	628e5f283594e1a48a04886f	3	1	main_z	11	advance_on_keypress_ZEE	28	stimuli_distractor_trianglediamonds.svg	stimuli_distractor_diamondtriangles.svg	35	no	57	0	479	0	0			0	0			1				0	
6.6.1	win	2023-06-02	00:18:31	00:28:00	564838	628e5f283594e1a48a04886f	3	1	main_z	11	main_z	29	stimuli_distractor_diamondtriangles.svg	stimuli_target_squaretriangles.svg	15	yes	44	1	721	0	0			0	0			1				0	
6.6.1	win	2023-06-02	00:18:31	00:28:00	564838	628e5f283594e1a48a04886f	3	1	main_z	11	advance_on_keypress_ZEE	30	stimuli_distractor_diamondtriangles.svg	stimuli_target_squaretriangles.svg	15	yes	57	0	451	0	0			0	0			1				0	
6.6.1	win	2023-06-02	00:18:31	00:28:02	566580	628e5f283594e1a48a04886f	3	1	main_z	11	main_z	31	stimuli_distractor_diamondtriangles.svg	stimuli_target_squarediamonds.svg	16	yes	44	1	647	0	0			0	0			1				0	
6.6.1	win	2023-06-02	00:18:31	00:28:02	566580	628e5f283594e1a48a04886f	3	1	main_z	11	advance_on_keypress_ZEE	32	stimuli_distractor_diamondtriangles.svg	stimuli_target_squarediamonds.svg	16	yes	57	0	290	0	0			0	0			1				0	
6.6.1	win	2023-06-02	00:18:31	00:28:04	568225	628e5f283594e1a48a04886f	3	1	main_z	11	main_z	33	stimuli_distractor_trianglediamonds.svg	stimuli_target_rectangletriangles.svg	9	yes	44	1	709	0	0			0	0			1				0	
6.6.1	win	2023-06-02	00:18:31	00:28:04	568225	628e5f283594e1a48a04886f	3	1	main_z	11	advance_on_keypress_ZEE	34	stimuli_distractor_trianglediamonds.svg	stimuli_target_rectangletriangles.svg	9	yes	57	0	325	0	0			0	0			1				0	
6.6.1	win	2023-06-02	00:18:31	00:28:05	569905	628e5f283594e1a48a04886f	3	1	main_z	11	main_z	35	stimuli_target_diamondsquares.svg	stimuli_distractor_trianglediamonds.svg	20	yes	44	1	722	0	0			0	0			1				0	
6.6.1	win	2023-06-02	00:18:31	00:28:05	569905	628e5f283594e1a48a04886f	3	1	main_z	11	advance_on_keypress_ZEE	36	stimuli_target_diamondsquares.svg	stimuli_distractor_trianglediamonds.svg	20	yes	57	0	293	0	0			0	0			1				0	
6.6.1	win	2023-06-02	00:18:31	00:28:07	571534	628e5f283594e1a48a04886f	3	1	main_z	11	main_z	37	stimuli_distractor_diamondtriangles.svg	stimuli_target_trianglerectangles.svg	29	yes	44	1	700	0	0			0	0			1				0	
6.6.1	win	2023-06-02	00:18:31	00:28:07	571534	628e5f283594e1a48a04886f	3	1	main_z	11	advance_on_keypress_ZEE	38	stimuli_distractor_diamondtriangles.svg	stimuli_target_trianglerectangles.svg	29	yes	57	0	206	0	0			0	0			1				0	
6.6.1	win	2023-06-02	00:18:31	00:28:10	574383	628e5f283594e1a48a04886f	3	1	main_z	11	main_z	39	stimuli_distractor_diamondtriangles.svg	stimuli_distractor_trianglediamonds.svg	37	no	0	1	2000	0	0			0	0			1				0	
6.6.1	win	2023-06-02	00:18:31	00:28:10	574383	628e5f283594e1a48a04886f	3	1	main_z	11	advance_on_keypress_ZEE	40	stimuli_distractor_diamondtriangles.svg	stimuli_distractor_trianglediamonds.svg	37	no	57	0	651	0	0			0	0			1				0	
6.6.1	win	2023-06-02	00:18:31	00:28:13	577682	628e5f283594e1a48a04886f	3	1	main_z	11	main_z	41	stimuli_target_trianglerectangles.svg	stimuli_distractor_diamondtriangles.svg	21	yes	0	0	2000	0	0			0	0			1				0	
6.6.1	win	2023-06-02	00:18:31	00:28:13	577682	628e5f283594e1a48a04886f	3	1	main_z	11	advance_on_keypress_ZEE	42	stimuli_target_trianglerectangles.svg	stimuli_distractor_diamondtriangles.svg	21	yes	57	0	430	0	0			0	0			1				0	
6.6.1	win	2023-06-02	00:18:31	00:28:15	579666	628e5f283594e1a48a04886f	3	1	main_z	11	main_z	43	stimuli_distractor_trianglediamonds.svg	stimuli_target_diamondrectangles.svg	27	yes	44	1	899	0	0			0	0			1				0	
6.6.1	win	2023-06-02	00:18:31	00:28:15	579666	628e5f283594e1a48a04886f	3	1	main_z	11	advance_on_keypress_ZEE	44	stimuli_distractor_trianglediamonds.svg	stimuli_target_diamondrectangles.svg	27	yes	57	0	449	0	0			0	0			1				0	
6.6.1	win	2023-06-02	00:18:31	00:28:18	582766	628e5f283594e1a48a04886f	3	1	main_z	11	main_z	45	stimuli_target_squaretriangles.svg	stimuli_distractor_diamondtriangles.svg	7	yes	0	0	2000	0	0			0	0			1				0	
6.6.1	win	2023-06-02	00:18:31	00:28:18	582766	628e5f283594e1a48a04886f	3	1	main_z	11	advance_on_keypress_ZEE	46	stimuli_target_squaretriangles.svg	stimuli_distractor_diamondtriangles.svg	7	yes	57	0	399	0	0			0	0			1				0	
6.6.1	win	2023-06-02	00:18:31	00:28:20	584504	628e5f283594e1a48a04886f	3	1	main_z	11	main_z	47	stimuli_distractor_trianglediamonds.svg	stimuli_target_squarediamonds.svg	12	yes	44	1	689	0	0			0	0			1				0	
6.6.1	win	2023-06-02	00:18:31	00:28:20	584504	628e5f283594e1a48a04886f	3	1	main_z	11	advance_on_keypress_ZEE	48	stimuli_distractor_trianglediamonds.svg	stimuli_target_squarediamonds.svg	12	yes	57	0	527	0	0			0	0			1				0	
6.6.1	win	2023-06-02	00:18:31	00:28:23	587665	628e5f283594e1a48a04886f	3	1	main_z	11	main_z	49	stimuli_distractor_diamondtriangles.svg	stimuli_distractor_diamondtriangles.svg	39	no	0	1	2000	0	0			0	0			1				0	
6.6.1	win	2023-06-02	00:18:31	00:28:23	587665	628e5f283594e1a48a04886f	3	1	main_z	11	advance_on_keypress_ZEE	50	stimuli_distractor_diamondtriangles.svg	stimuli_distractor_diamondtriangles.svg	39	no	57	0	302	0	0			0	0			1				0	
6.6.1	win	2023-06-02	00:18:31	00:28:26	590615	628e5f283594e1a48a04886f	3	1	main_z	11	main_z	51	stimuli_distractor_diamondtriangles.svg	stimuli_distractor_diamondtriangles.svg	40	no	0	1	2000	0	0			0	0			1				0	
6.6.1	win	2023-06-02	00:18:31	00:28:26	590615	628e5f283594e1a48a04886f	3	1	main_z	11	advance_on_keypress_ZEE	52	stimuli_distractor_diamondtriangles.svg	stimuli_distractor_diamondtriangles.svg	40	no	57	0	295	0	0			0	0			1				0	
6.6.1	win	2023-06-02	00:18:31	00:28:29	593566	628e5f283594e1a48a04886f	3	1	main_z	11	main_z	53	stimuli_distractor_trianglediamonds.svg	stimuli_distractor_trianglediamonds.svg	34	no	0	1	2000	0	0			0	0			1				0	
6.6.1	win	2023-06-02	00:18:31	00:28:29	593566	628e5f283594e1a48a04886f	3	1	main_z	11	advance_on_keypress_ZEE	54	stimuli_distractor_trianglediamonds.svg	stimuli_distractor_trianglediamonds.svg	34	no	57	0	271	0	0			0	0			1				0	
6.6.1	win	2023-06-02	00:18:31	00:28:31	595334	628e5f283594e1a48a04886f	3	1	main_z	11	main_z	55	stimuli_target_trianglesquares.svg	stimuli_distractor_diamondtriangles.svg	22	yes	44	1	852	0	0			0	0			1				0	
6.6.1	win	2023-06-02	00:18:31	00:28:31	595334	628e5f283594e1a48a04886f	3	1	main_z	11	advance_on_keypress_ZEE	56	stimuli_target_trianglesquares.svg	stimuli_distractor_diamondtriangles.svg	22	yes	57	0	432	0	0			0	0			1				0	
6.6.1	win	2023-06-02	00:18:31	00:28:34	598415	628e5f283594e1a48a04886f	3	1	main_z	11	main_z	57	stimuli_distractor_diamondtriangles.svg	stimuli_distractor_trianglediamonds.svg	38	no	0	1	2000	0	0			0	0			1				0	
6.6.1	win	2023-06-02	00:18:31	00:28:34	598415	628e5f283594e1a48a04886f	3	1	main_z	11	advance_on_keypress_ZEE	58	stimuli_distractor_diamondtriangles.svg	stimuli_distractor_trianglediamonds.svg	38	no	57	0	301	0	0			0	0			1				0	
6.6.1	win	2023-06-02	00:18:31	00:28:36	600096	628e5f283594e1a48a04886f	3	1	main_z	11	main_z	59	stimuli_target_squarediamonds.svg	stimuli_distractor_diamondtriangles.svg	8	yes	44	1	730	0	0			0	0			1				0	
6.6.1	win	2023-06-02	00:18:31	00:28:36	600096	628e5f283594e1a48a04886f	3	1	main_z	11	advance_on_keypress_ZEE	60	stimuli_target_squarediamonds.svg	stimuli_distractor_diamondtriangles.svg	8	yes	57	0	325	0	0			0	0			1				0	
6.6.1	win	2023-06-02	00:18:31	00:28:37	601836	628e5f283594e1a48a04886f	3	1	main_z	11	main_z	61	stimuli_target_trianglesquares.svg	stimuli_distractor_trianglediamonds.svg	18	yes	44	1	771	0	0			0	0			1				0	
6.6.1	win	2023-06-02	00:18:31	00:28:37	601836	628e5f283594e1a48a04886f	3	1	main_z	11	advance_on_keypress_ZEE	62	stimuli_target_trianglesquares.svg	stimuli_distractor_trianglediamonds.svg	18	yes	57	0	201	0	0			0	0			1				0	
6.6.1	win	2023-06-02	00:18:31	00:28:39	603550	628e5f283594e1a48a04886f	3	1	main_z	11	main_z	63	stimuli_target_diamondrectangles.svg	stimuli_distractor_diamondtriangles.svg	23	yes	44	1	868	0	0			0	0			1				0	
6.6.1	win	2023-06-02	00:18:31	00:28:39	603550	628e5f283594e1a48a04886f	3	1	main_z	11	advance_on_keypress_ZEE	64	stimuli_target_diamondrectangles.svg	stimuli_distractor_diamondtriangles.svg	23	yes	57	0	281	0	0			0	0			1				0	
6.6.1	win	2023-06-02	00:18:31	00:28:41	605248	628e5f283594e1a48a04886f	3	1	main_z	11	main_z	65	stimuli_distractor_diamondtriangles.svg	stimuli_target_rectangletriangles.svg	13	yes	44	1	766	0	0			0	0			1				0	
6.6.1	win	2023-06-02	00:18:31	00:28:41	605248	628e5f283594e1a48a04886f	3	1	main_z	11	advance_on_keypress_ZEE	66	stimuli_distractor_diamondtriangles.svg	stimuli_target_rectangletriangles.svg	13	yes	57	0	206	0	0			0	0			1				0	
6.6.1	win	2023-06-02	00:18:31	00:28:42	606803	628e5f283594e1a48a04886f	3	1	main_z	11	main_z	67	stimuli_distractor_trianglediamonds.svg	stimuli_target_rectanglediamonds.svg	10	yes	44	1	705	0	0			0	0			1				0	
6.6.1	win	2023-06-02	00:18:31	00:28:42	606803	628e5f283594e1a48a04886f	3	1	main_z	11	advance_on_keypress_ZEE	68	stimuli_distractor_trianglediamonds.svg	stimuli_target_rectanglediamonds.svg	10	yes	57	0	422	0	0			0	0			1				0	
6.6.1	win	2023-06-02	00:18:31	00:28:44	608509	628e5f283594e1a48a04886f	3	1	main_z	11	main_z	69	stimuli_distractor_diamondtriangles.svg	stimuli_target_diamondrectangles.svg	31	yes	44	1	644	0	0			0	0			1				0	
6.6.1	win	2023-06-02	00:18:31	00:28:44	608509	628e5f283594e1a48a04886f	3	1	main_z	11	advance_on_keypress_ZEE	70	stimuli_distractor_diamondtriangles.svg	stimuli_target_diamondrectangles.svg	31	yes	57	0	310	0	0			0	0			1				0	
6.6.1	win	2023-06-02	00:18:31	00:28:46	610102	628e5f283594e1a48a04886f	3	1	main_z	11	main_z	71	stimuli_distractor_trianglediamonds.svg	stimuli_target_trianglerectangles.svg	25	yes	44	1	654	0	0			0	0			1				0	
6.6.1	win	2023-06-02	00:18:31	00:28:46	610102	628e5f283594e1a48a04886f	3	1	main_z	11	advance_on_keypress_ZEE	72	stimuli_distractor_trianglediamonds.svg	stimuli_target_trianglerectangles.svg	25	yes	57	0	240	0	0			0	0			1				0	
6.6.1	win	2023-06-02	00:18:31	00:28:47	611656	628e5f283594e1a48a04886f	3	1	main_z	11	main_z	73	stimuli_target_diamondrectangles.svg	stimuli_distractor_trianglediamonds.svg	19	yes	44	1	675	0	0			0	0			1				0	
6.6.1	win	2023-06-02	00:18:31	00:28:47	611656	628e5f283594e1a48a04886f	3	1	main_z	11	advance_on_keypress_ZEE	74	stimuli_target_diamondrectangles.svg	stimuli_distractor_trianglediamonds.svg	19	yes	57	0	197	0	0			0	0			1				0	
6.6.1	win	2023-06-02	00:18:31	00:28:49	613200	628e5f283594e1a48a04886f	3	1	main_z	11	main_z	75	stimuli_distractor_trianglediamonds.svg	stimuli_target_trianglesquares.svg	26	yes	44	1	702	0	0			0	0			1				0	
6.6.1	win	2023-06-02	00:18:31	00:28:49	613200	628e5f283594e1a48a04886f	3	1	main_z	11	advance_on_keypress_ZEE	76	stimuli_distractor_trianglediamonds.svg	stimuli_target_trianglesquares.svg	26	yes	57	0	232	0	0			0	0			1				0	
6.6.1	win	2023-06-02	00:18:31	00:28:50	614834	628e5f283594e1a48a04886f	3	1	main_z	11	main_z	77	stimuli_distractor_trianglediamonds.svg	stimuli_target_diamondsquares.svg	28	yes	44	1	753	0	0			0	0			1				0	
6.6.1	win	2023-06-02	00:18:31	00:28:50	614834	628e5f283594e1a48a04886f	3	1	main_z	11	advance_on_keypress_ZEE	78	stimuli_distractor_trianglediamonds.svg	stimuli_target_diamondsquares.svg	28	yes	57	0	121	0	0			0	0			1				0	
6.6.1	win	2023-06-02	00:18:31	00:28:52	616199	628e5f283594e1a48a04886f	3	1	main_z	11	main_z	79	stimuli_distractor_diamondtriangles.svg	stimuli_target_trianglesquares.svg	30	yes	44	1	600	0	0			0	0			1				0	
6.6.1	win	2023-06-02	00:18:31	00:28:52	616199	628e5f283594e1a48a04886f	3	1	main_z	11	advance_on_keypress_ZEE	80	stimuli_distractor_diamondtriangles.svg	stimuli_target_trianglesquares.svg	30	yes	57	0	250	0	0			0	0			1				0	
6.6.1	win	2023-06-02	00:18:31	00:28:54	618214	628e5f283594e1a48a04886f	3	1	main_z	11	main_z	81	stimuli_distractor_trianglediamonds.svg	stimuli_target_squaretriangles.svg	11	yes	44	1	1116	0	0			0	0			1				0	
6.6.1	win	2023-06-02	00:18:31	00:28:54	618214	628e5f283594e1a48a04886f	3	1	main_z	11	advance_on_keypress_ZEE	82	stimuli_distractor_trianglediamonds.svg	stimuli_target_squaretriangles.svg	11	yes	57	0	351	0	0			0	0			1				0	
6.6.1	win	2023-06-02	00:18:31	00:28:56	620090	628e5f283594e1a48a04886f	3	1	main_z	11	main_z	83	stimuli_target_rectangletriangles.svg	stimuli_distractor_diamondtriangles.svg	5	yes	44	1	874	0	0			0	0			1				0	
6.6.1	win	2023-06-02	00:18:31	00:28:56	620090	628e5f283594e1a48a04886f	3	1	main_z	11	advance_on_keypress_ZEE	84	stimuli_target_rectangletriangles.svg	stimuli_distractor_diamondtriangles.svg	5	yes	57	0	200	0	0			0	0			1				0	
6.6.1	win	2023-06-02	00:18:31	00:28:57	621713	628e5f283594e1a48a04886f	3	1	main_z	11	main_z	85	stimuli_distractor_trianglediamonds.svg	stimuli_target_trianglerectangles.svg	25	yes	44	1	782	0	0			0	0			1				0	
6.6.1	win	2023-06-02	00:18:31	00:28:57	621713	628e5f283594e1a48a04886f	3	1	main_z	11	advance_on_keypress_ZEE	86	stimuli_distractor_trianglediamonds.svg	stimuli_target_trianglerectangles.svg	25	yes	57	0	244	0	0			0	0			1				0	
6.6.1	win	2023-06-02	00:18:31	00:28:59	623359	628e5f283594e1a48a04886f	3	1	main_z	11	main_z	87	stimuli_target_diamondrectangles.svg	stimuli_distractor_diamondtriangles.svg	23	yes	44	1	745	0	0			0	0			1				0	
6.6.1	win	2023-06-02	00:18:31	00:28:59	623359	628e5f283594e1a48a04886f	3	1	main_z	11	advance_on_keypress_ZEE	88	stimuli_target_diamondrectangles.svg	stimuli_distractor_diamondtriangles.svg	23	yes	57	0	279	0	0			0	0			1				0	
6.6.1	win	2023-06-02	00:18:31	00:29:01	625102	628e5f283594e1a48a04886f	3	1	main_z	11	main_z	89	stimuli_target_trianglerectangles.svg	stimuli_distractor_diamondtriangles.svg	21	yes	44	1	804	0	0			0	0			1				0	
6.6.1	win	2023-06-02	00:18:31	00:29:01	625102	628e5f283594e1a48a04886f	3	1	main_z	11	advance_on_keypress_ZEE	90	stimuli_target_trianglerectangles.svg	stimuli_distractor_diamondtriangles.svg	21	yes	57	0	329	0	0			0	0			1				0	
6.6.1	win	2023-06-02	00:18:31	00:29:02	626862	628e5f283594e1a48a04886f	3	1	main_z	11	main_z	91	stimuli_target_squarediamonds.svg	stimuli_distractor_diamondtriangles.svg	8	yes	44	1	781	0	0			0	0			1				0	
6.6.1	win	2023-06-02	00:18:31	00:29:02	626862	628e5f283594e1a48a04886f	3	1	main_z	11	advance_on_keypress_ZEE	92	stimuli_target_squarediamonds.svg	stimuli_distractor_diamondtriangles.svg	8	yes	57	0	138	0	0			0	0			1				0	
6.6.1	win	2023-06-02	00:18:31	00:29:04	628474	628e5f283594e1a48a04886f	3	1	main_z	11	main_z	93	stimuli_distractor_diamondtriangles.svg	stimuli_distractor_trianglediamonds.svg	38	no	44	0	826	0	0			0	0			1				0	
6.6.1	win	2023-06-02	00:18:31	00:29:04	628474	628e5f283594e1a48a04886f	3	1	main_z	11	advance_on_keypress_ZEE	94	stimuli_distractor_diamondtriangles.svg	stimuli_distractor_trianglediamonds.svg	38	no	57	0	204	0	0			0	0			1				0	
6.6.1	win	2023-06-02	00:18:31	00:29:06	630296	628e5f283594e1a48a04886f	3	1	main_z	11	main_z	95	stimuli_target_trianglerectangles.svg	stimuli_distractor_trianglediamonds.svg	17	yes	44	1	982	0	0			0	0			1				0	
6.6.1	win	2023-06-02	00:18:31	00:29:06	630296	628e5f283594e1a48a04886f	3	1	main_z	11	advance_on_keypress_ZEE	96	stimuli_target_trianglerectangles.svg	stimuli_distractor_trianglediamonds.svg	17	yes	57	0	253	0	0			0	0			1				0	
6.6.1	win	2023-06-02	00:18:31	00:29:09	633198	628e5f283594e1a48a04886f	3	1	main_z	11	main_z	97	stimuli_distractor_trianglediamonds.svg	stimuli_distractor_trianglediamonds.svg	33	no	0	1	2000	0	0			0	0			1				0	
6.6.1	win	2023-06-02	00:18:31	00:29:09	633198	628e5f283594e1a48a04886f	3	1	main_z	11	advance_on_keypress_ZEE	98	stimuli_distractor_trianglediamonds.svg	stimuli_distractor_trianglediamonds.svg	33	no	57	0	390	0	0			0	0			1				0	
6.6.1	win	2023-06-02	00:18:31	00:29:10	635052	628e5f283594e1a48a04886f	3	1	main_z	11	main_z	99	stimuli_distractor_diamondtriangles.svg	stimuli_target_rectanglediamonds.svg	14	yes	44	1	821	0	0			0	0			1				0	
6.6.1	win	2023-06-02	00:18:31	00:29:10	635052	628e5f283594e1a48a04886f	3	1	main_z	11	advance_on_keypress_ZEE	100	stimuli_distractor_diamondtriangles.svg	stimuli_target_rectanglediamonds.svg	14	yes	57	0	160	0	0			0	0			1				0	
6.6.1	win	2023-06-02	00:18:31	00:29:13	637847	628e5f283594e1a48a04886f	3	1	main_z	11	main_z	101	stimuli_distractor_trianglediamonds.svg	stimuli_distractor_diamondtriangles.svg	35	no	0	1	2000	0	0			0	0			1				0	
6.6.1	win	2023-06-02	00:18:31	00:29:13	637847	628e5f283594e1a48a04886f	3	1	main_z	11	advance_on_keypress_ZEE	102	stimuli_distractor_trianglediamonds.svg	stimuli_distractor_diamondtriangles.svg	35	no	57	0	348	0	0			0	0			1				0	
6.6.1	win	2023-06-02	00:18:31	00:29:16	640099	628e5f283594e1a48a04886f	3	1	main_z	11	main_z	103	stimuli_distractor_diamondtriangles.svg	stimuli_distractor_trianglediamonds.svg	37	no	44	0	1252	0	0			0	0			1				0	
6.6.1	win	2023-06-02	00:18:31	00:29:16	640099	628e5f283594e1a48a04886f	3	1	main_z	11	advance_on_keypress_ZEE	104	stimuli_distractor_diamondtriangles.svg	stimuli_distractor_trianglediamonds.svg	37	no	57	0	309	0	0			0	0			1				0	
6.6.1	win	2023-06-02	00:18:31	00:29:17	641869	628e5f283594e1a48a04886f	3	1	main_z	11	main_z	105	stimuli_distractor_diamondtriangles.svg	stimuli_target_trianglesquares.svg	30	yes	44	1	821	0	0			0	0			1				0	
6.6.1	win	2023-06-02	00:18:31	00:29:17	641869	628e5f283594e1a48a04886f	3	1	main_z	11	advance_on_keypress_ZEE	106	stimuli_distractor_diamondtriangles.svg	stimuli_target_trianglesquares.svg	30	yes	57	0	223	0	0			0	0			1				0	
6.6.1	win	2023-06-02	00:18:31	00:29:19	643519	628e5f283594e1a48a04886f	3	1	main_z	11	main_z	107	stimuli_distractor_diamondtriangles.svg	stimuli_target_squarediamonds.svg	16	yes	44	1	790	0	0			0	0			1				0	
6.6.1	win	2023-06-02	00:18:31	00:29:19	643519	628e5f283594e1a48a04886f	3	1	main_z	11	advance_on_keypress_ZEE	108	stimuli_distractor_diamondtriangles.svg	stimuli_target_squarediamonds.svg	16	yes	57	0	168	0	0			0	0			1				0	
6.6.1	win	2023-06-02	00:18:31	00:29:21	645133	628e5f283594e1a48a04886f	3	1	main_z	11	main_z	109	stimuli_distractor_diamondtriangles.svg	stimuli_target_squaretriangles.svg	15	yes	44	1	803	0	0			0	0			1				0	
6.6.1	win	2023-06-02	00:18:31	00:29:21	645133	628e5f283594e1a48a04886f	3	1	main_z	11	advance_on_keypress_ZEE	110	stimuli_distractor_diamondtriangles.svg	stimuli_target_squaretriangles.svg	15	yes	57	0	256	0	0			0	0			1				0	
6.6.1	win	2023-06-02	00:18:31	00:29:22	646794	628e5f283594e1a48a04886f	3	1	main_z	11	main_z	111	stimuli_target_trianglesquares.svg	stimuli_distractor_diamondtriangles.svg	22	yes	44	1	764	0	0			0	0			1				0	
6.6.1	win	2023-06-02	00:18:31	00:29:22	646794	628e5f283594e1a48a04886f	3	1	main_z	11	advance_on_keypress_ZEE	112	stimuli_target_trianglesquares.svg	stimuli_distractor_diamondtriangles.svg	22	yes	57	0	250	0	0			0	0			1				0	
6.6.1	win	2023-06-02	00:18:31	00:29:24	648537	628e5f283594e1a48a04886f	3	1	main_z	11	main_z	113	stimuli_target_diamondrectangles.svg	stimuli_distractor_trianglediamonds.svg	19	yes	44	1	840	0	0			0	0			1				0	
6.6.1	win	2023-06-02	00:18:31	00:29:24	648537	628e5f283594e1a48a04886f	3	1	main_z	11	advance_on_keypress_ZEE	114	stimuli_target_diamondrectangles.svg	stimuli_distractor_trianglediamonds.svg	19	yes	57	0	179	0	0			0	0			1				0	
6.6.1	win	2023-06-02	00:18:31	00:29:27	651363	628e5f283594e1a48a04886f	3	1	main_z	11	main_z	115	stimuli_distractor_trianglediamonds.svg	stimuli_distractor_diamondtriangles.svg	36	no	0	1	2000	0	0			0	0			1				0	
6.6.1	win	2023-06-02	00:18:31	00:29:27	651363	628e5f283594e1a48a04886f	3	1	main_z	11	advance_on_keypress_ZEE	116	stimuli_distractor_trianglediamonds.svg	stimuli_distractor_diamondtriangles.svg	36	no	57	0	508	0	0			0	0			1				0	
6.6.1	win	2023-06-02	00:18:31	00:29:29	653234	628e5f283594e1a48a04886f	3	1	main_z	11	main_z	117	stimuli_target_rectangletriangles.svg	stimuli_distractor_trianglediamonds.svg	1	yes	44	1	721	0	0			0	0			1				0	
6.6.1	win	2023-06-02	00:18:31	00:29:29	653234	628e5f283594e1a48a04886f	3	1	main_z	11	advance_on_keypress_ZEE	118	stimuli_target_rectangletriangles.svg	stimuli_distractor_trianglediamonds.svg	1	yes	57	0	132	0	0			0	0			1				0	
6.6.1	win	2023-06-02	00:18:31	00:29:30	655001	628e5f283594e1a48a04886f	3	1	main_z	11	main_z	119	stimuli_distractor_diamondtriangles.svg	stimuli_target_trianglerectangles.svg	29	yes	44	1	986	0	0			0	0			1				0	
6.6.1	win	2023-06-02	00:18:31	00:29:30	655001	628e5f283594e1a48a04886f	3	1	main_z	11	advance_on_keypress_ZEE	120	stimuli_distractor_diamondtriangles.svg	stimuli_target_trianglerectangles.svg	29	yes	57	0	226	0	0			0	0			1				0	
6.6.1	win	2023-06-02	00:18:31	00:29:32	656666	628e5f283594e1a48a04886f	3	1	main_z	11	main_z	121	stimuli_distractor_diamondtriangles.svg	stimuli_target_diamondsquares.svg	32	yes	44	1	802	0	0			0	0			1				0	
6.6.1	win	2023-06-02	00:18:31	00:29:32	656666	628e5f283594e1a48a04886f	3	1	main_z	11	advance_on_keypress_ZEE	122	stimuli_distractor_diamondtriangles.svg	stimuli_target_diamondsquares.svg	32	yes	57	0	176	0	0			0	0			1				0	
6.6.1	win	2023-06-02	00:18:31	00:29:34	658233	628e5f283594e1a48a04886f	3	1	main_z	11	main_z	123	stimuli_target_squaretriangles.svg	stimuli_distractor_diamondtriangles.svg	7	yes	44	1	753	0	0			0	0			1				0	
6.6.1	win	2023-06-02	00:18:31	00:29:34	658233	628e5f283594e1a48a04886f	3	1	main_z	11	advance_on_keypress_ZEE	124	stimuli_target_squaretriangles.svg	stimuli_distractor_diamondtriangles.svg	7	yes	57	0	151	0	0			0	0			1				0	
6.6.1	win	2023-06-02	00:18:31	00:29:35	659734	628e5f283594e1a48a04886f	3	1	main_z	11	main_z	125	stimuli_target_squarediamonds.svg	stimuli_distractor_trianglediamonds.svg	4	yes	44	1	704	0	0			0	0			1				0	
6.6.1	win	2023-06-02	00:18:31	00:29:35	659734	628e5f283594e1a48a04886f	3	1	main_z	11	advance_on_keypress_ZEE	126	stimuli_target_squarediamonds.svg	stimuli_distractor_trianglediamonds.svg	4	yes	57	0	204	0	0			0	0			1				0	
6.6.1	win	2023-06-02	00:18:31	00:29:37	661298	628e5f283594e1a48a04886f	3	1	main_z	11	main_z	127	stimuli_distractor_trianglediamonds.svg	stimuli_target_squarediamonds.svg	12	yes	44	1	718	0	0			0	0			1				0	
6.6.1	win	2023-06-02	00:18:31	00:29:37	661298	628e5f283594e1a48a04886f	3	1	main_z	11	advance_on_keypress_ZEE	128	stimuli_distractor_trianglediamonds.svg	stimuli_target_squarediamonds.svg	12	yes	57	0	181	0	0			0	0			1				0	
6.6.1	win	2023-06-02	00:18:31	00:29:38	662886	628e5f283594e1a48a04886f	3	1	main_z	11	main_z	129	stimuli_target_diamondsquares.svg	stimuli_distractor_diamondtriangles.svg	24	yes	44	1	756	0	0			0	0			1				0	
6.6.1	win	2023-06-02	00:18:31	00:29:38	662886	628e5f283594e1a48a04886f	3	1	main_z	11	advance_on_keypress_ZEE	130	stimuli_target_diamondsquares.svg	stimuli_distractor_diamondtriangles.svg	24	yes	57	0	188	0	0			0	0			1				0	
6.6.1	win	2023-06-02	00:18:31	00:29:40	664496	628e5f283594e1a48a04886f	3	1	main_z	11	main_z	131	stimuli_target_trianglesquares.svg	stimuli_distractor_trianglediamonds.svg	18	yes	44	1	783	0	0			0	0			1				0	
6.6.1	win	2023-06-02	00:18:31	00:29:40	664496	628e5f283594e1a48a04886f	3	1	main_z	11	advance_on_keypress_ZEE	132	stimuli_target_trianglesquares.svg	stimuli_distractor_trianglediamonds.svg	18	yes	57	0	219	0	0			0	0			1				0	
6.6.1	win	2023-06-02	00:18:31	00:29:42	666146	628e5f283594e1a48a04886f	3	1	main_z	11	main_z	133	stimuli_distractor_trianglediamonds.svg	stimuli_target_diamondsquares.svg	28	yes	44	1	783	0	0			0	0			1				0	
6.6.1	win	2023-06-02	00:18:31	00:29:42	666146	628e5f283594e1a48a04886f	3	1	main_z	11	advance_on_keypress_ZEE	134	stimuli_distractor_trianglediamonds.svg	stimuli_target_diamondsquares.svg	28	yes	57	0	142	0	0			0	0			1				0	
6.6.1	win	2023-06-02	00:18:31	00:29:44	668930	628e5f283594e1a48a04886f	3	1	main_z	11	main_z	135	stimuli_distractor_diamondtriangles.svg	stimuli_distractor_diamondtriangles.svg	40	no	0	1	2000	0	0			0	0			1				0	
6.6.1	win	2023-06-02	00:18:31	00:29:44	668930	628e5f283594e1a48a04886f	3	1	main_z	11	advance_on_keypress_ZEE	136	stimuli_distractor_diamondtriangles.svg	stimuli_distractor_diamondtriangles.svg	40	no	57	0	414	0	0			0	0			1				0	
6.6.1	win	2023-06-02	00:18:31	00:29:46	670679	628e5f283594e1a48a04886f	3	1	main_z	11	main_z	137	stimuli_distractor_trianglediamonds.svg	stimuli_target_trianglesquares.svg	26	yes	44	1	682	0	0			0	0			1				0	
6.6.1	win	2023-06-02	00:18:31	00:29:46	670679	628e5f283594e1a48a04886f	3	1	main_z	11	advance_on_keypress_ZEE	138	stimuli_distractor_trianglediamonds.svg	stimuli_target_trianglesquares.svg	26	yes	57	0	283	0	0			0	0			1				0	
6.6.1	win	2023-06-02	00:18:31	00:29:48	672382	628e5f283594e1a48a04886f	3	1	main_z	11	main_z	139	stimuli_distractor_diamondtriangles.svg	stimuli_target_rectangletriangles.svg	13	yes	44	1	769	0	0			0	0			1				0	
6.6.1	win	2023-06-02	00:18:31	00:29:48	672382	628e5f283594e1a48a04886f	3	1	main_z	11	advance_on_keypress_ZEE	140	stimuli_distractor_diamondtriangles.svg	stimuli_target_rectangletriangles.svg	13	yes	57	0	159	0	0			0	0			1				0	
6.6.1	win	2023-06-02	00:18:31	00:29:49	673900	628e5f283594e1a48a04886f	3	1	main_z	11	main_z	141	stimuli_target_rectanglediamonds.svg	stimuli_distractor_diamondtriangles.svg	6	yes	44	1	719	0	0			0	0			1				0	
6.6.1	win	2023-06-02	00:18:31	00:29:49	673900	628e5f283594e1a48a04886f	3	1	main_z	11	advance_on_keypress_ZEE	142	stimuli_target_rectanglediamonds.svg	stimuli_distractor_diamondtriangles.svg	6	yes	57	0	153	0	0			0	0			1				0	
6.6.1	win	2023-06-02	00:18:31	00:29:51	675411	628e5f283594e1a48a04886f	3	1	main_z	11	main_z	143	stimuli_target_rectanglediamonds.svg	stimuli_distractor_trianglediamonds.svg	2	yes	44	1	714	0	0			0	0			1				0	
6.6.1	win	2023-06-02	00:18:31	00:29:51	675411	628e5f283594e1a48a04886f	3	1	main_z	11	advance_on_keypress_ZEE	144	stimuli_target_rectanglediamonds.svg	stimuli_distractor_trianglediamonds.svg	2	yes	57	0	157	0	0			0	0			1				0	
6.6.1	win	2023-06-02	00:18:31	00:29:53	677079	628e5f283594e1a48a04886f	3	1	main_z	11	main_z	145	stimuli_target_diamondsquares.svg	stimuli_distractor_trianglediamonds.svg	20	yes	44	1	866	0	0			0	0			1				0	
6.6.1	win	2023-06-02	00:18:31	00:29:53	677079	628e5f283594e1a48a04886f	3	1	main_z	11	advance_on_keypress_ZEE	146	stimuli_target_diamondsquares.svg	stimuli_distractor_trianglediamonds.svg	20	yes	57	0	190	0	0			0	0			1				0	
6.6.1	win	2023-06-02	00:18:31	00:29:54	678607	628e5f283594e1a48a04886f	3	1	main_z	11	main_z	147	stimuli_distractor_trianglediamonds.svg	stimuli_target_rectanglediamonds.svg	10	yes	44	1	694	0	0			0	0			1				0	
6.6.1	win	2023-06-02	00:18:31	00:29:54	678607	628e5f283594e1a48a04886f	3	1	main_z	11	advance_on_keypress_ZEE	148	stimuli_distractor_trianglediamonds.svg	stimuli_target_rectanglediamonds.svg	10	yes	57	0	188	0	0			0	0			1				0	
6.6.1	win	2023-06-02	00:18:31	00:29:56	680158	628e5f283594e1a48a04886f	3	1	main_z	11	main_z	149	stimuli_distractor_trianglediamonds.svg	stimuli_target_rectangletriangles.svg	9	yes	44	1	728	0	0			0	0			1				0	
6.6.1	win	2023-06-02	00:18:31	00:29:56	680158	628e5f283594e1a48a04886f	3	1	main_z	11	advance_on_keypress_ZEE	150	stimuli_distractor_trianglediamonds.svg	stimuli_target_rectangletriangles.svg	9	yes	57	0	194	0	0			0	0			1				0	
6.6.1	win	2023-06-02	00:18:31	00:29:57	681771	628e5f283594e1a48a04886f	3	1	main_z	11	main_z	151	stimuli_distractor_diamondtriangles.svg	stimuli_target_diamondrectangles.svg	31	yes	44	1	758	0	0			0	0			1				0	
6.6.1	win	2023-06-02	00:18:31	00:29:57	681771	628e5f283594e1a48a04886f	3	1	main_z	11	advance_on_keypress_ZEE	152	stimuli_distractor_diamondtriangles.svg	stimuli_target_diamondrectangles.svg	31	yes	57	0	248	0	0			0	0			1				0	
6.6.1	win	2023-06-02	00:18:31	00:30:00	684663	628e5f283594e1a48a04886f	3	1	main_z	11	main_z	153	stimuli_distractor_diamondtriangles.svg	stimuli_distractor_diamondtriangles.svg	39	no	0	1	2000	0	0			0	0			1				0	
6.6.1	win	2023-06-02	00:18:31	00:30:00	684663	628e5f283594e1a48a04886f	3	1	main_z	11	advance_on_keypress_ZEE	154	stimuli_distractor_diamondtriangles.svg	stimuli_distractor_diamondtriangles.svg	39	no	57	0	317	0	0			0	0			1				0	
6.6.1	win	2023-06-02	00:18:31	00:30:03	687630	628e5f283594e1a48a04886f	3	1	main_z	11	main_z	155	stimuli_distractor_trianglediamonds.svg	stimuli_distractor_trianglediamonds.svg	34	no	0	1	2000	0	0			0	0			1				0	
6.6.1	win	2023-06-02	00:18:31	00:30:03	687630	628e5f283594e1a48a04886f	3	1	main_z	11	advance_on_keypress_ZEE	156	stimuli_distractor_trianglediamonds.svg	stimuli_distractor_trianglediamonds.svg	34	no	57	0	289	0	0			0	0			1				0	
6.6.1	win	2023-06-02	00:18:31	00:30:05	689443	628e5f283594e1a48a04886f	3	1	main_z	11	main_z	157	stimuli_target_squaretriangles.svg	stimuli_distractor_trianglediamonds.svg	3	yes	44	1	881	0	0			0	0			1				0	
6.6.1	win	2023-06-02	00:18:31	00:30:05	689443	628e5f283594e1a48a04886f	3	1	main_z	11	advance_on_keypress_ZEE	158	stimuli_target_squaretriangles.svg	stimuli_distractor_trianglediamonds.svg	3	yes	57	0	336	0	0			0	0			1				0	
6.6.1	win	2023-06-02	00:18:31	00:30:07	691309	628e5f283594e1a48a04886f	3	1	main_z	11	main_z	159	stimuli_distractor_trianglediamonds.svg	stimuli_target_diamondrectangles.svg	27	yes	44	1	880	0	0			0	0			1				0	
6.6.1	win	2023-06-02	00:18:31	00:30:07	691309	628e5f283594e1a48a04886f	3	1	main_z	11	advance_on_keypress_ZEE	160	stimuli_distractor_trianglediamonds.svg	stimuli_target_diamondrectangles.svg	27	yes	57	0	141	0	0			0	0			1				0	
6.6.1	win	2023-06-02	00:18:31	00:30:07	691309	628e5f283594e1a48a04886f	3	1	headphonecheck_calibration	14	headphonecheck_calibrationIntro	1	stimuli_distractor_trianglediamonds.svg	stimuli_target_diamondrectangles.svg	27	yes	calibrationButton	0	2998	0	0			0	0			1				0	
6.6.1	win	2023-06-02	00:18:31	00:30:07	691309	628e5f283594e1a48a04886f	3	1	headphonecheck_testphase	15	test_collectResponse	3	stimuli_distractor_trianglediamonds.svg	stimuli_target_diamondrectangles.svg	27	yes	third	1	655	1	6	antiphase_hc_ois.wav	3	0	0			1				0	
6.6.1	win	2023-06-02	00:18:31	00:30:07	691309	628e5f283594e1a48a04886f	3	1	headphonecheck_testphase	15	test_collectResponse	6	stimuli_distractor_trianglediamonds.svg	stimuli_target_diamondrectangles.svg	27	yes	first	1	406	2	4	antiphase_hc_sio.wav	1	0	0			1				0	
6.6.1	win	2023-06-02	00:18:31	00:30:07	691309	628e5f283594e1a48a04886f	3	1	headphonecheck_testphase	15	test_collectResponse	9	stimuli_distractor_trianglediamonds.svg	stimuli_target_diamondrectangles.svg	27	yes	second	1	430	3	1	antiphase_hc_iso.wav	2	0	0			1				0	
6.6.1	win	2023-06-02	00:18:31	00:30:07	691309	628e5f283594e1a48a04886f	3	1	headphonecheck_testphase	15	test_collectResponse	12	stimuli_distractor_trianglediamonds.svg	stimuli_target_diamondrectangles.svg	27	yes	second	1	392	4	5	antiphase_hc_osi.wav	2	0	0			1				0	
6.6.1	win	2023-06-02	00:18:31	00:30:07	691309	628e5f283594e1a48a04886f	3	1	headphonecheck_testphase	15	test_collectResponse	15	stimuli_distractor_trianglediamonds.svg	stimuli_target_diamondrectangles.svg	27	yes	first	1	395	5	3	antiphase_hc_soi.wav	1	0	0			1				0	
6.6.1	win	2023-06-02	00:18:31	00:30:07	691309	628e5f283594e1a48a04886f	3	1	headphonecheck_testphase	15	test_collectResponse	18	stimuli_distractor_trianglediamonds.svg	stimuli_target_diamondrectangles.svg	27	yes	third	1	503	6	2	antiphase_hc_ios.wav	3	0	0			1				0	
6.6.1	win	2023-06-02	00:18:31	00:30:07	691309	628e5f283594e1a48a04886f	3	1	stereocheck_calibration	17	stereocheck_calibrationIntro	1	stimuli_distractor_trianglediamonds.svg	stimuli_target_diamondrectangles.svg	27	yes	stereocheck_calibrationButton	0	2682	6	2	antiphase_hc_ios.wav	3	0	0			1				0	
6.6.1	win	2023-06-02	00:18:31	00:30:07	691309	628e5f283594e1a48a04886f	3	1	stereocheck_testphase	18	stereocheck_test_collectResponse	3	stimuli_distractor_trianglediamonds.svg	stimuli_target_diamondrectangles.svg	27	yes	stereocheck_left	1	300	6	2	antiphase_hc_ios.wav	3	1	2	noise_calib_stim_LEFT.wav	1	1				0	
6.6.1	win	2023-06-02	00:18:31	00:30:07	691309	628e5f283594e1a48a04886f	3	1	stereocheck_testphase	18	stereocheck_test_collectResponse	6	stimuli_distractor_trianglediamonds.svg	stimuli_target_diamondrectangles.svg	27	yes	stereocheck_right	1	277	6	2	antiphase_hc_ios.wav	3	2	6	noise_calib_stim_RIGHT.wav	2	1				0	
6.6.1	win	2023-06-02	00:18:31	00:30:07	691309	628e5f283594e1a48a04886f	3	1	stereocheck_testphase	18	stereocheck_test_collectResponse	9	stimuli_distractor_trianglediamonds.svg	stimuli_target_diamondrectangles.svg	27	yes	stereocheck_right	1	421	6	2	antiphase_hc_ios.wav	3	3	5	noise_calib_stim_RIGHT.wav	2	1				0	
6.6.1	win	2023-06-02	00:18:31	00:30:07	691309	628e5f283594e1a48a04886f	3	1	stereocheck_testphase	18	stereocheck_test_collectResponse	12	stimuli_distractor_trianglediamonds.svg	stimuli_target_diamondrectangles.svg	27	yes	stereocheck_left	1	256	6	2	antiphase_hc_ios.wav	3	4	1	noise_calib_stim_LEFT.wav	1	1				0	
6.6.1	win	2023-06-02	00:18:31	00:30:07	691309	628e5f283594e1a48a04886f	3	1	stereocheck_testphase	18	stereocheck_test_collectResponse	15	stimuli_distractor_trianglediamonds.svg	stimuli_target_diamondrectangles.svg	27	yes	stereocheck_left	1	215	6	2	antiphase_hc_ios.wav	3	5	3	noise_calib_stim_LEFT.wav	1	1				0	
6.6.1	win	2023-06-02	00:18:31	00:30:07	691309	628e5f283594e1a48a04886f	3	1	stereocheck_testphase	18	stereocheck_test_collectResponse	18	stimuli_distractor_trianglediamonds.svg	stimuli_target_diamondrectangles.svg	27	yes	stereocheck_right	1	257	6	2	antiphase_hc_ios.wav	3	6	4	noise_calib_stim_RIGHT.wav	2	1				0	
6.6.1	win	2023-06-02	00:18:31	00:30:07	691309	628e5f283594e1a48a04886f	3	1	DL_practice	21	DL_practice	2	stimuli_distractor_trianglediamonds.svg	stimuli_target_diamondrectangles.svg	27	yes	ga	1	870	6	2	antiphase_hc_ios.wav	3	6	4	noise_calib_stim_RIGHT.wav	2	15	blb_dichoticlistening_ga-ga.mp3	ga	ga	0	left
6.6.1	win	2023-06-02	00:18:31	00:30:07	691309	628e5f283594e1a48a04886f	3	1	DL_practice	21	DL_practice	3	stimuli_distractor_trianglediamonds.svg	stimuli_target_diamondrectangles.svg	27	yes	ga	1	1111	6	2	antiphase_hc_ios.wav	3	6	4	noise_calib_stim_RIGHT.wav	2	18	blb_dichoticlistening_ga-ta.mp3	ga	ta	1	left
6.6.1	win	2023-06-02	00:18:31	00:30:07	691309	628e5f283594e1a48a04886f	3	1	DL_practice	21	DL_practice	4	stimuli_distractor_trianglediamonds.svg	stimuli_target_diamondrectangles.svg	27	yes	da	1	704	6	2	antiphase_hc_ios.wav	3	6	4	noise_calib_stim_RIGHT.wav	2	8	blb_dichoticlistening_da-da.mp3	da	da	0	left
6.6.1	win	2023-06-02	00:18:31	00:30:07	691309	628e5f283594e1a48a04886f	3	1	DL_practice	21	DL_practice	5	stimuli_distractor_trianglediamonds.svg	stimuli_target_diamondrectangles.svg	27	yes	ka	1	745	6	2	antiphase_hc_ios.wav	3	6	4	noise_calib_stim_RIGHT.wav	2	22	blb_dichoticlistening_ka-ka.mp3	ka	ka	0	left
6.6.1	win	2023-06-02	00:18:31	00:30:07	691309	628e5f283594e1a48a04886f	3	1	DL_practice	21	DL_practice	6	stimuli_distractor_trianglediamonds.svg	stimuli_target_diamondrectangles.svg	27	yes	ta	1	904	6	2	antiphase_hc_ios.wav	3	6	4	noise_calib_stim_RIGHT.wav	2	36	blb_dichoticlistening_ta-ta.mp3	ta	ta	0	left
6.6.1	win	2023-06-02	00:18:31	00:30:07	691309	628e5f283594e1a48a04886f	3	1	DL_practice	21	DL_practice	7	stimuli_distractor_trianglediamonds.svg	stimuli_target_diamondrectangles.svg	27	yes	ta	0	3385	6	2	antiphase_hc_ios.wav	3	6	4	noise_calib_stim_RIGHT.wav	2	23	blb_dichoticlistening_ka-pa.mp3	ka	pa	1	other
6.6.1	win	2023-06-02	00:18:31	00:30:07	691309	628e5f283594e1a48a04886f	3	1	DL_practice	21	DL_practice	8	stimuli_distractor_trianglediamonds.svg	stimuli_target_diamondrectangles.svg	27	yes	ba	1	1574	6	2	antiphase_hc_ios.wav	3	6	4	noise_calib_stim_RIGHT.wav	2	1	blb_dichoticlistening_ba-ba.mp3	ba	ba	0	left
6.6.1	win	2023-06-02	00:18:31	00:30:07	691309	628e5f283594e1a48a04886f	3	1	DL_practice	21	DL_practice	9	stimuli_distractor_trianglediamonds.svg	stimuli_target_diamondrectangles.svg	27	yes	da	1	836	6	2	antiphase_hc_ios.wav	3	6	4	noise_calib_stim_RIGHT.wav	2	7	blb_dichoticlistening_da-ba.mp3	da	ba	1	left
6.6.1	win	2023-06-02	00:18:31	00:30:07	691309	628e5f283594e1a48a04886f	3	1	DL_practice	21	DL_practice	10	stimuli_distractor_trianglediamonds.svg	stimuli_target_diamondrectangles.svg	27	yes	pa	1	943	6	2	antiphase_hc_ios.wav	3	6	4	noise_calib_stim_RIGHT.wav	2	29	blb_dichoticlistening_pa-pa.mp3	pa	pa	0	left
6.6.1	win	2023-06-02	00:18:31	00:30:07	691309	628e5f283594e1a48a04886f	3	1	DL_test	23	DL_test	1	stimuli_distractor_trianglediamonds.svg	stimuli_target_diamondrectangles.svg	27	yes	da	1	1765	6	2	antiphase_hc_ios.wav	3	6	4	noise_calib_stim_RIGHT.wav	2	32	blb_dichoticlistening_ta-da.mp3	ta	da	1	right
6.6.1	win	2023-06-02	00:18:31	00:30:07	691309	628e5f283594e1a48a04886f	3	1	DL_test	23	DL_test	2	stimuli_distractor_trianglediamonds.svg	stimuli_target_diamondrectangles.svg	27	yes	da	1	1035	6	2	antiphase_hc_ios.wav	3	6	4	noise_calib_stim_RIGHT.wav	2	2	blb_dichoticlistening_ba-da.mp3	ba	da	1	right
6.6.1	win	2023-06-02	00:18:31	00:30:07	691309	628e5f283594e1a48a04886f	3	1	DL_test	23	DL_test	3	stimuli_distractor_trianglediamonds.svg	stimuli_target_diamondrectangles.svg	27	yes	ga	1	2894	6	2	antiphase_hc_ios.wav	3	6	4	noise_calib_stim_RIGHT.wav	2	27	blb_dichoticlistening_pa-ga.mp3	pa	ga	1	right
6.6.1	win	2023-06-02	00:18:31	00:30:07	691309	628e5f283594e1a48a04886f	3	1	DL_test	23	DL_test	4	stimuli_distractor_trianglediamonds.svg	stimuli_target_diamondrectangles.svg	27	yes	ka	1	1047	6	2	antiphase_hc_ios.wav	3	6	4	noise_calib_stim_RIGHT.wav	2	24	blb_dichoticlistening_ka-ta.mp3	ka	ta	1	left
6.6.1	win	2023-06-02	00:18:31	00:30:07	691309	628e5f283594e1a48a04886f	3	1	DL_test	23	DL_test	5	stimuli_distractor_trianglediamonds.svg	stimuli_target_diamondrectangles.svg	27	yes	ga	1	915	6	2	antiphase_hc_ios.wav	3	6	4	noise_calib_stim_RIGHT.wav	2	33	blb_dichoticlistening_ta-ga.mp3	ta	ga	1	right
6.6.1	win	2023-06-02	00:18:31	00:30:07	691309	628e5f283594e1a48a04886f	3	1	DL_test	23	DL_test	6	stimuli_distractor_trianglediamonds.svg	stimuli_target_diamondrectangles.svg	27	yes	da	0	1435	6	2	antiphase_hc_ios.wav	3	6	4	noise_calib_stim_RIGHT.wav	2	3	blb_dichoticlistening_ba-ga.mp3	ba	ga	1	other
6.6.1	win	2023-06-02	00:18:31	00:30:07	691309	628e5f283594e1a48a04886f	3	1	DL_test	23	DL_test	7	stimuli_distractor_trianglediamonds.svg	stimuli_target_diamondrectangles.svg	27	yes	ka	1	1422	6	2	antiphase_hc_ios.wav	3	6	4	noise_calib_stim_RIGHT.wav	2	34	blb_dichoticlistening_ta-ka.mp3	ta	ka	1	right
6.6.1	win	2023-06-02	00:18:31	00:30:07	691309	628e5f283594e1a48a04886f	3	1	DL_test	23	DL_test	8	stimuli_distractor_trianglediamonds.svg	stimuli_target_diamondrectangles.svg	27	yes	ba	1	1336	6	2	antiphase_hc_ios.wav	3	6	4	noise_calib_stim_RIGHT.wav	2	1	blb_dichoticlistening_ba-ba.mp3	ba	ba	0	left
6.6.1	win	2023-06-02	00:18:31	00:30:07	691309	628e5f283594e1a48a04886f	3	1	DL_test	23	DL_test	9	stimuli_distractor_trianglediamonds.svg	stimuli_target_diamondrectangles.svg	27	yes	ga	1	1840	6	2	antiphase_hc_ios.wav	3	6	4	noise_calib_stim_RIGHT.wav	2	21	blb_dichoticlistening_ka-ga.mp3	ka	ga	1	right
6.6.1	win	2023-06-02	00:18:31	00:30:07	691309	628e5f283594e1a48a04886f	3	1	DL_test	23	DL_test	10	stimuli_distractor_trianglediamonds.svg	stimuli_target_diamondrectangles.svg	27	yes	ga	1	1075	6	2	antiphase_hc_ios.wav	3	6	4	noise_calib_stim_RIGHT.wav	2	9	blb_dichoticlistening_da-ga.mp3	da	ga	1	right
6.6.1	win	2023-06-02	00:18:31	00:30:07	691309	628e5f283594e1a48a04886f	3	1	DL_test	23	DL_test	11	stimuli_distractor_trianglediamonds.svg	stimuli_target_diamondrectangles.svg	27	yes	da	1	1029	6	2	antiphase_hc_ios.wav	3	6	4	noise_calib_stim_RIGHT.wav	2	7	blb_dichoticlistening_da-ba.mp3	da	ba	1	left
6.6.1	win	2023-06-02	00:18:31	00:30:07	691309	628e5f283594e1a48a04886f	3	1	DL_test	23	DL_test	12	stimuli_distractor_trianglediamonds.svg	stimuli_target_diamondrectangles.svg	27	yes	pa	1	897	6	2	antiphase_hc_ios.wav	3	6	4	noise_calib_stim_RIGHT.wav	2	29	blb_dichoticlistening_pa-pa.mp3	pa	pa	0	left
6.6.1	win	2023-06-02	00:18:31	00:30:07	691309	628e5f283594e1a48a04886f	3	1	DL_test	23	DL_test	13	stimuli_distractor_trianglediamonds.svg	stimuli_target_diamondrectangles.svg	27	yes	da	1	1322	6	2	antiphase_hc_ios.wav	3	6	4	noise_calib_stim_RIGHT.wav	2	8	blb_dichoticlistening_da-da.mp3	da	da	0	left
6.6.1	win	2023-06-02	00:18:31	00:30:07	691309	628e5f283594e1a48a04886f	3	1	DL_test	23	DL_test	14	stimuli_distractor_trianglediamonds.svg	stimuli_target_diamondrectangles.svg	27	yes	ka	0	2914	6	2	antiphase_hc_ios.wav	3	6	4	noise_calib_stim_RIGHT.wav	2	18	blb_dichoticlistening_ga-ta.mp3	ga	ta	1	other
6.6.1	win	2023-06-02	00:18:31	00:30:07	691309	628e5f283594e1a48a04886f	3	1	DL_test	23	DL_test	15	stimuli_distractor_trianglediamonds.svg	stimuli_target_diamondrectangles.svg	27	yes	ba	1	2362	6	2	antiphase_hc_ios.wav	3	6	4	noise_calib_stim_RIGHT.wav	2	13	blb_dichoticlistening_ga-ba.mp3	ga	ba	1	right
6.6.1	win	2023-06-02	00:18:31	00:30:07	691309	628e5f283594e1a48a04886f	3	1	DL_test	23	DL_test	16	stimuli_distractor_trianglediamonds.svg	stimuli_target_diamondrectangles.svg	27	yes	ka	1	2689	6	2	antiphase_hc_ios.wav	3	6	4	noise_calib_stim_RIGHT.wav	2	20	blb_dichoticlistening_ka-da.mp3	ka	da	1	left
6.6.1	win	2023-06-02	00:18:31	00:30:07	691309	628e5f283594e1a48a04886f	3	1	DL_test	23	DL_test	17	stimuli_distractor_trianglediamonds.svg	stimuli_target_diamondrectangles.svg	27	yes	ka	1	594	6	2	antiphase_hc_ios.wav	3	6	4	noise_calib_stim_RIGHT.wav	2	22	blb_dichoticlistening_ka-ka.mp3	ka	ka	0	left
6.6.1	win	2023-06-02	00:18:31	00:30:07	691309	628e5f283594e1a48a04886f	3	1	DL_test	23	DL_test	18	stimuli_distractor_trianglediamonds.svg	stimuli_target_diamondrectangles.svg	27	yes	ga	1	776	6	2	antiphase_hc_ios.wav	3	6	4	noise_calib_stim_RIGHT.wav	2	15	blb_dichoticlistening_ga-ga.mp3	ga	ga	0	left
6.6.1	win	2023-06-02	00:18:31	00:30:07	691309	628e5f283594e1a48a04886f	3	1	DL_test	23	DL_test	19	stimuli_distractor_trianglediamonds.svg	stimuli_target_diamondrectangles.svg	27	yes	ka	1	1342	6	2	antiphase_hc_ios.wav	3	6	4	noise_calib_stim_RIGHT.wav	2	23	blb_dichoticlistening_ka-pa.mp3	ka	pa	1	left
6.6.1	win	2023-06-02	00:18:31	00:30:07	691309	628e5f283594e1a48a04886f	3	1	DL_test	23	DL_test	20	stimuli_distractor_trianglediamonds.svg	stimuli_target_diamondrectangles.svg	27	yes	ta	1	1637	6	2	antiphase_hc_ios.wav	3	6	4	noise_calib_stim_RIGHT.wav	2	12	blb_dichoticlistening_da-ta.mp3	da	ta	1	right
6.6.1	win	2023-06-02	00:18:31	00:30:07	691309	628e5f283594e1a48a04886f	3	1	DL_test	23	DL_test	21	stimuli_distractor_trianglediamonds.svg	stimuli_target_diamondrectangles.svg	27	yes	ta	1	1128	6	2	antiphase_hc_ios.wav	3	6	4	noise_calib_stim_RIGHT.wav	2	30	blb_dichoticlistening_pa-ta.mp3	pa	ta	1	right
6.6.1	win	2023-06-02	00:18:31	00:30:07	691309	628e5f283594e1a48a04886f	3	1	DL_test	23	DL_test	22	stimuli_distractor_trianglediamonds.svg	stimuli_target_diamondrectangles.svg	27	yes	pa	1	2543	6	2	antiphase_hc_ios.wav	3	6	4	noise_calib_stim_RIGHT.wav	2	17	blb_dichoticlistening_ga-pa.mp3	ga	pa	1	right
6.6.1	win	2023-06-02	00:18:31	00:30:07	691309	628e5f283594e1a48a04886f	3	1	DL_test	23	DL_test	23	stimuli_distractor_trianglediamonds.svg	stimuli_target_diamondrectangles.svg	27	yes	da	1	1707	6	2	antiphase_hc_ios.wav	3	6	4	noise_calib_stim_RIGHT.wav	2	26	blb_dichoticlistening_pa-da.mp3	pa	da	1	right
6.6.1	win	2023-06-02	00:18:31	00:30:07	691309	628e5f283594e1a48a04886f	3	1	DL_test	23	DL_test	24	stimuli_distractor_trianglediamonds.svg	stimuli_target_diamondrectangles.svg	27	yes	ta	1	1324	6	2	antiphase_hc_ios.wav	3	6	4	noise_calib_stim_RIGHT.wav	2	6	blb_dichoticlistening_ba-ta.mp3	ba	ta	1	right
6.6.1	win	2023-06-02	00:18:31	00:30:07	691309	628e5f283594e1a48a04886f	3	1	DL_test	23	DL_test	25	stimuli_distractor_trianglediamonds.svg	stimuli_target_diamondrectangles.svg	27	yes	pa	0	1667	6	2	antiphase_hc_ios.wav	3	6	4	noise_calib_stim_RIGHT.wav	2	19	blb_dichoticlistening_ka-ba.mp3	ka	ba	1	other
6.6.1	win	2023-06-02	00:18:31	00:30:07	691309	628e5f283594e1a48a04886f	3	1	DL_test	23	DL_test	26	stimuli_distractor_trianglediamonds.svg	stimuli_target_diamondrectangles.svg	27	yes	ta	1	1406	6	2	antiphase_hc_ios.wav	3	6	4	noise_calib_stim_RIGHT.wav	2	35	blb_dichoticlistening_ta-pa.mp3	ta	pa	1	left
