build	computer.platform	date	time	timestamp	time_elapsed_ms	subject	group	session	blockcode	blocknum	trialcode	trialnum	stimulus_left	stimulus_right	stim_index	target_present	response	correct	latency	headphonecheck_countTestTrials	headphonecheck_index	headphonecheck_testSound	headphonecheck_correctResponse	stereocheck_countTestTrials	stereocheck_index	stereocheck_testSound	stereocheck_correctResponse	DL_index	DL_soundfile	DL_leftSound	DL_rightSound	DL_dualSound	DL_choice
6.6.3	ios	2023-06-27	00:43:22	00:46:14	149948	5f105b47d36c8701ec112317	4	1	practice_z	5	practice_z	1	stimuli_target_squarediamonds.svg	stimuli_distractor_trianglediamonds.svg	5	yes	44	1	1172	0	0			0	0			1				0	
6.6.3	ios	2023-06-27	00:43:22	00:46:14	149948	5f105b47d36c8701ec112317	4	1	practice_z	5	advance_on_keypress_ZEE	2	stimuli_target_squarediamonds.svg	stimuli_distractor_trianglediamonds.svg	5	yes	57	0	1222	0	0			0	0			1				0	
6.6.3	ios	2023-06-27	00:43:22	00:46:18	154291	5f105b47d36c8701ec112317	4	1	practice_z	5	practice_z	3	stimuli_distractor_diamondtriangles.svg	stimuli_distractor_diamondtriangles.svg	13	no	44	0	1436	0	0			0	0			1				0	
6.6.3	ios	2023-06-27	00:43:22	00:46:18	154291	5f105b47d36c8701ec112317	4	1	practice_z	5	advance_on_keypress_ZEE	4	stimuli_distractor_diamondtriangles.svg	stimuli_distractor_diamondtriangles.svg	13	no	57	0	471	0	0			0	0			1				0	
6.6.3	ios	2023-06-27	00:43:22	00:46:23	158445	5f105b47d36c8701ec112317	4	1	practice_z	5	practice_z	5	stimuli_distractor_diamondtriangles.svg	stimuli_distractor_trianglediamonds.svg	14	no	0	1	2000	0	0			0	0			1				0	
6.6.3	ios	2023-06-27	00:43:22	00:46:23	158445	5f105b47d36c8701ec112317	4	1	practice_z	5	advance_on_keypress_ZEE	6	stimuli_distractor_diamondtriangles.svg	stimuli_distractor_trianglediamonds.svg	14	no	57	0	704	0	0			0	0			1				0	
6.6.3	ios	2023-06-27	00:43:22	00:46:26	161449	5f105b47d36c8701ec112317	4	1	practice_z	5	practice_z	7	stimuli_target_squarediamonds.svg	stimuli_distractor_diamondtriangles.svg	2	yes	44	1	602	0	0			0	0			1				0	
6.6.3	ios	2023-06-27	00:43:22	00:46:26	161449	5f105b47d36c8701ec112317	4	1	practice_z	5	advance_on_keypress_ZEE	8	stimuli_target_squarediamonds.svg	stimuli_distractor_diamondtriangles.svg	2	yes	57	0	721	0	0			0	0			1				0	
6.6.3	ios	2023-06-27	00:43:22	00:46:29	164464	5f105b47d36c8701ec112317	4	1	practice_z	5	practice_z	9	stimuli_distractor_trianglediamonds.svg	stimuli_target_rectanglediamonds.svg	10	yes	44	1	601	0	0			0	0			1				0	
6.6.3	ios	2023-06-27	00:43:22	00:46:29	164464	5f105b47d36c8701ec112317	4	1	practice_z	5	advance_on_keypress_ZEE	10	stimuli_distractor_trianglediamonds.svg	stimuli_target_rectanglediamonds.svg	10	yes	57	0	453	0	0			0	0			1				0	
6.6.3	ios	2023-06-27	00:43:22	00:46:31	167100	5f105b47d36c8701ec112317	4	1	practice_z	5	practice_z	11	stimuli_target_rectanglediamonds.svg	stimuli_distractor_trianglediamonds.svg	4	yes	44	1	471	0	0			0	0			1				0	
6.6.3	ios	2023-06-27	00:43:22	00:46:31	167100	5f105b47d36c8701ec112317	4	1	practice_z	5	advance_on_keypress_ZEE	12	stimuli_target_rectanglediamonds.svg	stimuli_distractor_trianglediamonds.svg	4	yes	57	0	337	0	0			0	0			1				0	
6.6.3	ios	2023-06-27	00:43:22	00:46:34	170141	5f105b47d36c8701ec112317	4	1	practice_z	5	practice_z	13	stimuli_distractor_trianglediamonds.svg	stimuli_target_diamondrectangles.svg	12	yes	44	1	1019	0	0			0	0			1				0	
6.6.3	ios	2023-06-27	00:43:22	00:46:34	170141	5f105b47d36c8701ec112317	4	1	practice_z	5	advance_on_keypress_ZEE	14	stimuli_distractor_trianglediamonds.svg	stimuli_target_diamondrectangles.svg	12	yes	57	0	237	0	0			0	0			1				0	
6.6.3	ios	2023-06-27	00:43:22	00:46:38	174062	5f105b47d36c8701ec112317	4	1	practice_z	5	practice_z	15	stimuli_distractor_trianglediamonds.svg	stimuli_distractor_diamondtriangles.svg	16	no	0	1	2000	0	0			0	0			1				0	
6.6.3	ios	2023-06-27	00:43:22	00:46:38	174062	5f105b47d36c8701ec112317	4	1	practice_z	5	advance_on_keypress_ZEE	16	stimuli_distractor_trianglediamonds.svg	stimuli_distractor_diamondtriangles.svg	16	no	57	0	271	0	0			0	0			1				0	
6.6.3	ios	2023-06-27	00:43:22	00:46:42	177668	5f105b47d36c8701ec112317	4	1	practice_z	5	practice_z	17	stimuli_distractor_diamondtriangles.svg	stimuli_target_trianglerectangles.svg	9	yes	44	1	1639	0	0			0	0			1				0	
6.6.3	ios	2023-06-27	00:43:22	00:46:42	177668	5f105b47d36c8701ec112317	4	1	practice_z	5	advance_on_keypress_ZEE	18	stimuli_distractor_diamondtriangles.svg	stimuli_target_trianglerectangles.svg	9	yes	57	0	1188	0	0			0	0			1				0	
6.6.3	ios	2023-06-27	00:43:22	00:46:45	181098	5f105b47d36c8701ec112317	4	1	practice_z	5	practice_z	19	stimuli_distractor_diamondtriangles.svg	stimuli_target_rectangletriangles.svg	7	yes	44	1	550	0	0			0	0			1				0	
6.6.3	ios	2023-06-27	00:43:22	00:46:45	181098	5f105b47d36c8701ec112317	4	1	practice_z	5	advance_on_keypress_ZEE	20	stimuli_distractor_diamondtriangles.svg	stimuli_target_rectangletriangles.svg	7	yes	57	0	720	0	0			0	0			1				0	
6.6.3	ios	2023-06-27	00:43:22	00:46:48	184271	5f105b47d36c8701ec112317	4	1	practice_z	5	practice_z	21	stimuli_target_diamondsquares.svg	stimuli_distractor_trianglediamonds.svg	6	yes	44	1	755	0	0			0	0			1				0	
6.6.3	ios	2023-06-27	00:43:22	00:46:48	184271	5f105b47d36c8701ec112317	4	1	practice_z	5	advance_on_keypress_ZEE	22	stimuli_target_diamondsquares.svg	stimuli_distractor_trianglediamonds.svg	6	yes	57	0	287	0	0			0	0			1				0	
6.6.3	ios	2023-06-27	00:43:22	00:46:51	186871	5f105b47d36c8701ec112317	4	1	practice_z	5	practice_z	23	stimuli_target_rectanglediamonds.svg	stimuli_distractor_diamondtriangles.svg	1	yes	44	1	618	0	0			0	0			1				0	
6.6.3	ios	2023-06-27	00:43:22	00:46:51	186871	5f105b47d36c8701ec112317	4	1	practice_z	5	advance_on_keypress_ZEE	24	stimuli_target_rectanglediamonds.svg	stimuli_distractor_diamondtriangles.svg	1	yes	57	0	304	0	0			0	0			1				0	
6.6.3	ios	2023-06-27	00:43:22	00:46:54	189526	5f105b47d36c8701ec112317	4	1	practice_z	5	practice_z	25	stimuli_distractor_diamondtriangles.svg	stimuli_target_diamondrectangles.svg	8	yes	44	1	668	0	0			0	0			1				0	
6.6.3	ios	2023-06-27	00:43:22	00:46:54	189526	5f105b47d36c8701ec112317	4	1	practice_z	5	advance_on_keypress_ZEE	26	stimuli_distractor_diamondtriangles.svg	stimuli_target_diamondrectangles.svg	8	yes	57	0	221	0	0			0	0			1				0	
6.6.3	ios	2023-06-27	00:43:22	00:46:58	193446	5f105b47d36c8701ec112317	4	1	practice_z	5	practice_z	27	stimuli_distractor_trianglediamonds.svg	stimuli_distractor_trianglediamonds.svg	15	no	0	1	2000	0	0			0	0			1				0	
6.6.3	ios	2023-06-27	00:43:22	00:46:58	193446	5f105b47d36c8701ec112317	4	1	practice_z	5	advance_on_keypress_ZEE	28	stimuli_distractor_trianglediamonds.svg	stimuli_distractor_trianglediamonds.svg	15	no	57	0	253	0	0			0	0			1				0	
6.6.3	ios	2023-06-27	00:43:22	00:47:00	195882	5f105b47d36c8701ec112317	4	1	practice_z	5	practice_z	29	stimuli_distractor_trianglediamonds.svg	stimuli_target_squarediamonds.svg	11	yes	44	1	484	0	0			0	0			1				0	
6.6.3	ios	2023-06-27	00:43:22	00:47:00	195882	5f105b47d36c8701ec112317	4	1	practice_z	5	advance_on_keypress_ZEE	30	stimuli_distractor_trianglediamonds.svg	stimuli_target_squarediamonds.svg	11	yes	57	0	220	0	0			0	0			1				0	
6.6.3	ios	2023-06-27	00:43:22	00:47:03	198448	5f105b47d36c8701ec112317	4	1	practice_z	5	practice_z	31	stimuli_target_diamondsquares.svg	stimuli_distractor_diamondtriangles.svg	3	yes	44	1	634	0	0			0	0			1				0	
6.6.3	ios	2023-06-27	00:43:22	00:47:03	198448	5f105b47d36c8701ec112317	4	1	practice_z	5	advance_on_keypress_ZEE	32	stimuli_target_diamondsquares.svg	stimuli_distractor_diamondtriangles.svg	3	yes	57	0	1274	0	0			0	0			1				0	
6.6.3	ios	2023-06-27	00:43:22	00:47:15	211162	5f105b47d36c8701ec112317	4	1	main_z	7	main_z	1	stimuli_distractor_diamondtriangles.svg	stimuli_target_diamondsquares.svg	32	yes	44	1	406	0	0			0	0			1				0	
6.6.3	ios	2023-06-27	00:43:22	00:47:15	211162	5f105b47d36c8701ec112317	4	1	main_z	7	advance_on_keypress_ZEE	2	stimuli_distractor_diamondtriangles.svg	stimuli_target_diamondsquares.svg	32	yes	57	0	788	0	0			0	0			1				0	
6.6.3	ios	2023-06-27	00:43:22	00:47:17	213247	5f105b47d36c8701ec112317	4	1	main_z	7	main_z	3	stimuli_target_trianglesquares.svg	stimuli_distractor_trianglediamonds.svg	18	yes	44	1	569	0	0			0	0			1				0	
6.6.3	ios	2023-06-27	00:43:22	00:47:17	213247	5f105b47d36c8701ec112317	4	1	main_z	7	advance_on_keypress_ZEE	4	stimuli_target_trianglesquares.svg	stimuli_distractor_trianglediamonds.svg	18	yes	57	0	570	0	0			0	0			1				0	
6.6.3	ios	2023-06-27	00:43:22	00:47:21	216537	5f105b47d36c8701ec112317	4	1	main_z	7	main_z	5	stimuli_distractor_trianglediamonds.svg	stimuli_distractor_diamondtriangles.svg	35	no	0	1	2000	0	0			0	0			1				0	
6.6.3	ios	2023-06-27	00:43:22	00:47:21	216537	5f105b47d36c8701ec112317	4	1	main_z	7	advance_on_keypress_ZEE	6	stimuli_distractor_trianglediamonds.svg	stimuli_distractor_diamondtriangles.svg	35	no	57	0	505	0	0			0	0			1				0	
6.6.3	ios	2023-06-27	00:43:22	00:47:22	218206	5f105b47d36c8701ec112317	4	1	main_z	7	main_z	7	stimuli_target_rectangletriangles.svg	stimuli_distractor_diamondtriangles.svg	5	yes	44	1	485	0	0			0	0			1				0	
6.6.3	ios	2023-06-27	00:43:22	00:47:22	218206	5f105b47d36c8701ec112317	4	1	main_z	7	advance_on_keypress_ZEE	8	stimuli_target_rectangletriangles.svg	stimuli_distractor_diamondtriangles.svg	5	yes	57	0	604	0	0			0	0			1				0	
6.6.3	ios	2023-06-27	00:43:22	00:47:24	220155	5f105b47d36c8701ec112317	4	1	main_z	7	main_z	9	stimuli_distractor_diamondtriangles.svg	stimuli_target_trianglerectangles.svg	29	yes	44	1	617	0	0			0	0			1				0	
6.6.3	ios	2023-06-27	00:43:22	00:47:24	220155	5f105b47d36c8701ec112317	4	1	main_z	7	advance_on_keypress_ZEE	10	stimuli_distractor_diamondtriangles.svg	stimuli_target_trianglerectangles.svg	29	yes	57	0	538	0	0			0	0			1				0	
6.6.3	ios	2023-06-27	00:43:22	00:47:27	223413	5f105b47d36c8701ec112317	4	1	main_z	7	main_z	11	stimuli_distractor_trianglediamonds.svg	stimuli_distractor_diamondtriangles.svg	36	no	0	1	2000	0	0			0	0			1				0	
6.6.3	ios	2023-06-27	00:43:22	00:47:27	223413	5f105b47d36c8701ec112317	4	1	main_z	7	advance_on_keypress_ZEE	12	stimuli_distractor_trianglediamonds.svg	stimuli_distractor_diamondtriangles.svg	36	no	57	0	454	0	0			0	0			1				0	
6.6.3	ios	2023-06-27	00:43:22	00:47:29	225232	5f105b47d36c8701ec112317	4	1	main_z	7	main_z	13	stimuli_target_trianglerectangles.svg	stimuli_distractor_diamondtriangles.svg	21	yes	44	1	669	0	0			0	0			1				0	
6.6.3	ios	2023-06-27	00:43:22	00:47:29	225232	5f105b47d36c8701ec112317	4	1	main_z	7	advance_on_keypress_ZEE	14	stimuli_target_trianglerectangles.svg	stimuli_distractor_diamondtriangles.svg	21	yes	57	0	537	0	0			0	0			1				0	
6.6.3	ios	2023-06-27	00:43:22	00:47:31	227080	5f105b47d36c8701ec112317	4	1	main_z	7	main_z	15	stimuli_distractor_diamondtriangles.svg	stimuli_distractor_diamondtriangles.svg	39	no	44	0	585	0	0			0	0			1				0	
6.6.3	ios	2023-06-27	00:43:22	00:47:31	227080	5f105b47d36c8701ec112317	4	1	main_z	7	advance_on_keypress_ZEE	16	stimuli_distractor_diamondtriangles.svg	stimuli_distractor_diamondtriangles.svg	39	no	57	0	1208	0	0			0	0			1				0	
6.6.3	ios	2023-06-27	00:43:22	00:47:34	229517	5f105b47d36c8701ec112317	4	1	main_z	7	main_z	17	stimuli_distractor_trianglediamonds.svg	stimuli_target_rectangletriangles.svg	9	yes	44	1	501	0	0			0	0			1				0	
6.6.3	ios	2023-06-27	00:43:22	00:47:34	229517	5f105b47d36c8701ec112317	4	1	main_z	7	advance_on_keypress_ZEE	18	stimuli_distractor_trianglediamonds.svg	stimuli_target_rectangletriangles.svg	9	yes	57	0	404	0	0			0	0			1				0	
6.6.3	ios	2023-06-27	00:43:22	00:47:35	231323	5f105b47d36c8701ec112317	4	1	main_z	7	main_z	19	stimuli_distractor_trianglediamonds.svg	stimuli_distractor_trianglediamonds.svg	33	no	44	0	685	0	0			0	0			1				0	
6.6.3	ios	2023-06-27	00:43:22	00:47:35	231323	5f105b47d36c8701ec112317	4	1	main_z	7	advance_on_keypress_ZEE	20	stimuli_distractor_trianglediamonds.svg	stimuli_distractor_trianglediamonds.svg	33	no	57	0	688	0	0			0	0			1				0	
6.6.3	ios	2023-06-27	00:43:22	00:47:37	233307	5f105b47d36c8701ec112317	4	1	main_z	7	main_z	21	stimuli_target_squarediamonds.svg	stimuli_distractor_diamondtriangles.svg	8	yes	44	1	568	0	0			0	0			1				0	
6.6.3	ios	2023-06-27	00:43:22	00:47:37	233307	5f105b47d36c8701ec112317	4	1	main_z	7	advance_on_keypress_ZEE	22	stimuli_target_squarediamonds.svg	stimuli_distractor_diamondtriangles.svg	8	yes	57	0	371	0	0			0	0			1				0	
6.6.3	ios	2023-06-27	00:43:22	00:47:39	235312	5f105b47d36c8701ec112317	4	1	main_z	7	main_z	23	stimuli_target_diamondsquares.svg	stimuli_distractor_trianglediamonds.svg	20	yes	44	1	919	0	0			0	0			1				0	
6.6.3	ios	2023-06-27	00:43:22	00:47:39	235312	5f105b47d36c8701ec112317	4	1	main_z	7	advance_on_keypress_ZEE	24	stimuli_target_diamondsquares.svg	stimuli_distractor_trianglediamonds.svg	20	yes	57	0	403	0	0			0	0			1				0	
6.6.3	ios	2023-06-27	00:43:22	00:47:43	238432	5f105b47d36c8701ec112317	4	1	main_z	7	main_z	25	stimuli_distractor_diamondtriangles.svg	stimuli_distractor_trianglediamonds.svg	38	no	0	1	2000	0	0			0	0			1				0	
6.6.3	ios	2023-06-27	00:43:22	00:47:43	238432	5f105b47d36c8701ec112317	4	1	main_z	7	advance_on_keypress_ZEE	26	stimuli_distractor_diamondtriangles.svg	stimuli_distractor_trianglediamonds.svg	38	no	57	0	255	0	0			0	0			1				0	
6.6.3	ios	2023-06-27	00:43:22	00:47:44	239965	5f105b47d36c8701ec112317	4	1	main_z	7	main_z	27	stimuli_distractor_diamondtriangles.svg	stimuli_target_rectangletriangles.svg	13	yes	44	1	585	0	0			0	0			1				0	
6.6.3	ios	2023-06-27	00:43:22	00:47:44	239965	5f105b47d36c8701ec112317	4	1	main_z	7	advance_on_keypress_ZEE	28	stimuli_distractor_diamondtriangles.svg	stimuli_target_rectangletriangles.svg	13	yes	57	0	387	0	0			0	0			1				0	
6.6.3	ios	2023-06-27	00:43:22	00:47:46	241567	5f105b47d36c8701ec112317	4	1	main_z	7	main_z	29	stimuli_target_squaretriangles.svg	stimuli_distractor_diamondtriangles.svg	7	yes	44	1	485	0	0			0	0			1				0	
6.6.3	ios	2023-06-27	00:43:22	00:47:46	241567	5f105b47d36c8701ec112317	4	1	main_z	7	advance_on_keypress_ZEE	30	stimuli_target_squaretriangles.svg	stimuli_distractor_diamondtriangles.svg	7	yes	57	0	287	0	0			0	0			1				0	
6.6.3	ios	2023-06-27	00:43:22	00:47:47	242922	5f105b47d36c8701ec112317	4	1	main_z	7	main_z	31	stimuli_target_rectangletriangles.svg	stimuli_distractor_trianglediamonds.svg	1	yes	44	1	351	0	0			0	0			1				0	
6.6.3	ios	2023-06-27	00:43:22	00:47:47	242922	5f105b47d36c8701ec112317	4	1	main_z	7	advance_on_keypress_ZEE	32	stimuli_target_rectangletriangles.svg	stimuli_distractor_trianglediamonds.svg	1	yes	57	0	187	0	0			0	0			1				0	
6.6.3	ios	2023-06-27	00:43:22	00:47:48	244287	5f105b47d36c8701ec112317	4	1	main_z	7	main_z	33	stimuli_distractor_trianglediamonds.svg	stimuli_target_rectanglediamonds.svg	10	yes	44	1	434	0	0			0	0			1				0	
6.6.3	ios	2023-06-27	00:43:22	00:47:48	244287	5f105b47d36c8701ec112317	4	1	main_z	7	advance_on_keypress_ZEE	34	stimuli_distractor_trianglediamonds.svg	stimuli_target_rectanglediamonds.svg	10	yes	57	0	103	0	0			0	0			1				0	
6.6.3	ios	2023-06-27	00:43:22	00:47:50	245555	5f105b47d36c8701ec112317	4	1	main_z	7	main_z	35	stimuli_target_diamondrectangles.svg	stimuli_distractor_diamondtriangles.svg	23	yes	44	1	418	0	0			0	0			1				0	
6.6.3	ios	2023-06-27	00:43:22	00:47:50	245555	5f105b47d36c8701ec112317	4	1	main_z	7	advance_on_keypress_ZEE	36	stimuli_target_diamondrectangles.svg	stimuli_distractor_diamondtriangles.svg	23	yes	57	0	120	0	0			0	0			1				0	
6.6.3	ios	2023-06-27	00:43:22	00:47:52	248412	5f105b47d36c8701ec112317	4	1	main_z	7	main_z	37	stimuli_distractor_trianglediamonds.svg	stimuli_target_diamondsquares.svg	28	yes	0	0	2000	0	0			0	0			1				0	
6.6.3	ios	2023-06-27	00:43:22	00:47:52	248412	5f105b47d36c8701ec112317	4	1	main_z	7	advance_on_keypress_ZEE	38	stimuli_distractor_trianglediamonds.svg	stimuli_target_diamondsquares.svg	28	yes	57	0	254	0	0			0	0			1				0	
6.6.3	ios	2023-06-27	00:43:22	00:47:54	250115	5f105b47d36c8701ec112317	4	1	main_z	7	main_z	39	stimuli_distractor_diamondtriangles.svg	stimuli_target_trianglesquares.svg	30	yes	44	1	769	0	0			0	0			1				0	
6.6.3	ios	2023-06-27	00:43:22	00:47:54	250115	5f105b47d36c8701ec112317	4	1	main_z	7	advance_on_keypress_ZEE	40	stimuli_distractor_diamondtriangles.svg	stimuli_target_trianglesquares.svg	30	yes	57	0	221	0	0			0	0			1				0	
6.6.3	ios	2023-06-27	00:43:22	00:47:56	251480	5f105b47d36c8701ec112317	4	1	main_z	7	main_z	41	stimuli_target_squaretriangles.svg	stimuli_distractor_trianglediamonds.svg	3	yes	44	1	418	0	0			0	0			1				0	
6.6.3	ios	2023-06-27	00:43:22	00:47:56	251480	5f105b47d36c8701ec112317	4	1	main_z	7	advance_on_keypress_ZEE	42	stimuli_target_squaretriangles.svg	stimuli_distractor_trianglediamonds.svg	3	yes	57	0	120	0	0			0	0			1				0	
6.6.3	ios	2023-06-27	00:43:22	00:47:57	252667	5f105b47d36c8701ec112317	4	1	main_z	7	main_z	43	stimuli_distractor_diamondtriangles.svg	stimuli_target_rectanglediamonds.svg	14	yes	44	1	334	0	0			0	0			1				0	
6.6.3	ios	2023-06-27	00:43:22	00:47:57	252667	5f105b47d36c8701ec112317	4	1	main_z	7	advance_on_keypress_ZEE	44	stimuli_distractor_diamondtriangles.svg	stimuli_target_rectanglediamonds.svg	14	yes	57	0	120	0	0			0	0			1				0	
6.6.3	ios	2023-06-27	00:43:22	00:47:58	254100	5f105b47d36c8701ec112317	4	1	main_z	7	main_z	45	stimuli_distractor_trianglediamonds.svg	stimuli_target_squarediamonds.svg	12	yes	44	1	568	0	0			0	0			1				0	
6.6.3	ios	2023-06-27	00:43:22	00:47:58	254100	5f105b47d36c8701ec112317	4	1	main_z	7	advance_on_keypress_ZEE	46	stimuli_distractor_trianglediamonds.svg	stimuli_target_squarediamonds.svg	12	yes	57	0	1657	0	0			0	0			1				0	
6.6.3	ios	2023-06-27	00:43:22	00:48:01	256903	5f105b47d36c8701ec112317	4	1	main_z	7	main_z	47	stimuli_target_squarediamonds.svg	stimuli_distractor_trianglediamonds.svg	4	yes	44	1	418	0	0			0	0			1				0	
6.6.3	ios	2023-06-27	00:43:22	00:48:01	256903	5f105b47d36c8701ec112317	4	1	main_z	7	advance_on_keypress_ZEE	48	stimuli_target_squarediamonds.svg	stimuli_distractor_trianglediamonds.svg	4	yes	57	0	120	0	0			0	0			1				0	
6.6.3	ios	2023-06-27	00:43:22	00:48:03	258524	5f105b47d36c8701ec112317	4	1	main_z	7	main_z	49	stimuli_target_trianglesquares.svg	stimuli_distractor_diamondtriangles.svg	22	yes	44	1	768	0	0			0	0			1				0	
6.6.3	ios	2023-06-27	00:43:22	00:48:03	258524	5f105b47d36c8701ec112317	4	1	main_z	7	advance_on_keypress_ZEE	50	stimuli_target_trianglesquares.svg	stimuli_distractor_diamondtriangles.svg	22	yes	57	0	119	0	0			0	0			1				0	
6.6.3	ios	2023-06-27	00:43:22	00:48:05	261377	5f105b47d36c8701ec112317	4	1	main_z	7	main_z	51	stimuli_distractor_trianglediamonds.svg	stimuli_distractor_trianglediamonds.svg	34	no	0	1	2000	0	0			0	0			1				0	
6.6.3	ios	2023-06-27	00:43:22	00:48:05	261377	5f105b47d36c8701ec112317	4	1	main_z	7	advance_on_keypress_ZEE	52	stimuli_distractor_trianglediamonds.svg	stimuli_distractor_trianglediamonds.svg	34	no	57	0	271	0	0			0	0			1				0	
6.6.3	ios	2023-06-27	00:43:22	00:48:07	262780	5f105b47d36c8701ec112317	4	1	main_z	7	main_z	53	stimuli_target_trianglerectangles.svg	stimuli_distractor_trianglediamonds.svg	17	yes	44	1	452	0	0			0	0			1				0	
6.6.3	ios	2023-06-27	00:43:22	00:48:07	262780	5f105b47d36c8701ec112317	4	1	main_z	7	advance_on_keypress_ZEE	54	stimuli_target_trianglerectangles.svg	stimuli_distractor_trianglediamonds.svg	17	yes	57	0	104	0	0			0	0			1				0	
6.6.3	ios	2023-06-27	00:43:22	00:48:08	264045	5f105b47d36c8701ec112317	4	1	main_z	7	main_z	55	stimuli_distractor_diamondtriangles.svg	stimuli_target_squaretriangles.svg	15	yes	44	1	435	0	0			0	0			1				0	
6.6.3	ios	2023-06-27	00:43:22	00:48:08	264045	5f105b47d36c8701ec112317	4	1	main_z	7	advance_on_keypress_ZEE	56	stimuli_distractor_diamondtriangles.svg	stimuli_target_squaretriangles.svg	15	yes	57	0	104	0	0			0	0			1				0	
6.6.3	ios	2023-06-27	00:43:22	00:48:09	265233	5f105b47d36c8701ec112317	4	1	main_z	7	main_z	57	stimuli_target_rectanglediamonds.svg	stimuli_distractor_diamondtriangles.svg	6	yes	44	1	351	0	0			0	0			1				0	
6.6.3	ios	2023-06-27	00:43:22	00:48:09	265233	5f105b47d36c8701ec112317	4	1	main_z	7	advance_on_keypress_ZEE	58	stimuli_target_rectanglediamonds.svg	stimuli_distractor_diamondtriangles.svg	6	yes	57	0	103	0	0			0	0			1				0	
6.6.3	ios	2023-06-27	00:43:22	00:48:12	268069	5f105b47d36c8701ec112317	4	1	main_z	7	main_z	59	stimuli_distractor_diamondtriangles.svg	stimuli_distractor_diamondtriangles.svg	40	no	0	1	2000	0	0			0	0			1				0	
6.6.3	ios	2023-06-27	00:43:22	00:48:12	268069	5f105b47d36c8701ec112317	4	1	main_z	7	advance_on_keypress_ZEE	60	stimuli_distractor_diamondtriangles.svg	stimuli_distractor_diamondtriangles.svg	40	no	57	0	337	0	0			0	0			1				0	
6.6.3	ios	2023-06-27	00:43:22	00:48:14	269438	5f105b47d36c8701ec112317	4	1	main_z	7	main_z	61	stimuli_target_diamondrectangles.svg	stimuli_distractor_trianglediamonds.svg	19	yes	44	1	351	0	0			0	0			1				0	
6.6.3	ios	2023-06-27	00:43:22	00:48:14	269438	5f105b47d36c8701ec112317	4	1	main_z	7	advance_on_keypress_ZEE	62	stimuli_target_diamondrectangles.svg	stimuli_distractor_trianglediamonds.svg	19	yes	57	0	120	0	0			0	0			1				0	
6.6.3	ios	2023-06-27	00:43:22	00:48:15	270770	5f105b47d36c8701ec112317	4	1	main_z	7	main_z	63	stimuli_distractor_trianglediamonds.svg	stimuli_target_diamondrectangles.svg	27	yes	44	1	469	0	0			0	0			1				0	
6.6.3	ios	2023-06-27	00:43:22	00:48:15	270770	5f105b47d36c8701ec112317	4	1	main_z	7	advance_on_keypress_ZEE	64	stimuli_distractor_trianglediamonds.svg	stimuli_target_diamondrectangles.svg	27	yes	57	0	120	0	0			0	0			1				0	
6.6.3	ios	2023-06-27	00:43:22	00:48:16	272140	5f105b47d36c8701ec112317	4	1	main_z	7	main_z	65	stimuli_distractor_trianglediamonds.svg	stimuli_target_trianglesquares.svg	26	yes	44	1	532	0	0			0	0			1				0	
6.6.3	ios	2023-06-27	00:43:22	00:48:16	272140	5f105b47d36c8701ec112317	4	1	main_z	7	advance_on_keypress_ZEE	66	stimuli_distractor_trianglediamonds.svg	stimuli_target_trianglesquares.svg	26	yes	57	0	120	0	0			0	0			1				0	
6.6.3	ios	2023-06-27	00:43:22	00:48:18	273742	5f105b47d36c8701ec112317	4	1	main_z	7	main_z	67	stimuli_distractor_diamondtriangles.svg	stimuli_target_squarediamonds.svg	16	yes	44	1	768	0	0			0	0			1				0	
6.6.3	ios	2023-06-27	00:43:22	00:48:18	273742	5f105b47d36c8701ec112317	4	1	main_z	7	advance_on_keypress_ZEE	68	stimuli_distractor_diamondtriangles.svg	stimuli_target_squarediamonds.svg	16	yes	57	0	136	0	0			0	0			1				0	
6.6.3	ios	2023-06-27	00:43:22	00:48:21	276614	5f105b47d36c8701ec112317	4	1	main_z	7	main_z	69	stimuli_distractor_trianglediamonds.svg	stimuli_target_trianglerectangles.svg	25	yes	0	0	2000	0	0			0	0			1				0	
6.6.3	ios	2023-06-27	00:43:22	00:48:21	276614	5f105b47d36c8701ec112317	4	1	main_z	7	advance_on_keypress_ZEE	70	stimuli_distractor_trianglediamonds.svg	stimuli_target_trianglerectangles.svg	25	yes	57	0	788	0	0			0	0			1				0	
6.6.3	ios	2023-06-27	00:43:22	00:48:23	278431	5f105b47d36c8701ec112317	4	1	main_z	7	main_z	71	stimuli_target_diamondsquares.svg	stimuli_distractor_diamondtriangles.svg	24	yes	44	1	351	0	0			0	0			1				0	
6.6.3	ios	2023-06-27	00:43:22	00:48:23	278431	5f105b47d36c8701ec112317	4	1	main_z	7	advance_on_keypress_ZEE	72	stimuli_target_diamondsquares.svg	stimuli_distractor_diamondtriangles.svg	24	yes	57	0	553	0	0			0	0			1				0	
6.6.3	ios	2023-06-27	00:43:22	00:48:26	281702	5f105b47d36c8701ec112317	4	1	main_z	7	main_z	73	stimuli_distractor_diamondtriangles.svg	stimuli_distractor_trianglediamonds.svg	37	no	0	1	2000	0	0			0	0			1				0	
6.6.3	ios	2023-06-27	00:43:22	00:48:26	281702	5f105b47d36c8701ec112317	4	1	main_z	7	advance_on_keypress_ZEE	74	stimuli_distractor_diamondtriangles.svg	stimuli_distractor_trianglediamonds.svg	37	no	57	0	338	0	0			0	0			1				0	
6.6.3	ios	2023-06-27	00:43:22	00:48:27	283301	5f105b47d36c8701ec112317	4	1	main_z	7	main_z	75	stimuli_target_rectanglediamonds.svg	stimuli_distractor_trianglediamonds.svg	2	yes	44	1	568	0	0			0	0			1				0	
6.6.3	ios	2023-06-27	00:43:22	00:48:27	283301	5f105b47d36c8701ec112317	4	1	main_z	7	advance_on_keypress_ZEE	76	stimuli_target_rectanglediamonds.svg	stimuli_distractor_trianglediamonds.svg	2	yes	57	0	956	0	0			0	0			1				0	
6.6.3	ios	2023-06-27	00:43:22	00:48:30	286057	5f105b47d36c8701ec112317	4	1	main_z	7	main_z	77	stimuli_distractor_diamondtriangles.svg	stimuli_target_diamondrectangles.svg	31	yes	44	1	1086	0	0			0	0			1				0	
6.6.3	ios	2023-06-27	00:43:22	00:48:30	286057	5f105b47d36c8701ec112317	4	1	main_z	7	advance_on_keypress_ZEE	78	stimuli_distractor_diamondtriangles.svg	stimuli_target_diamondrectangles.svg	31	yes	57	0	165	0	0			0	0			1				0	
6.6.3	ios	2023-06-27	00:43:22	00:48:32	287555	5f105b47d36c8701ec112317	4	1	main_z	7	main_z	79	stimuli_distractor_trianglediamonds.svg	stimuli_target_squaretriangles.svg	11	yes	44	1	600	0	0			0	0			1				0	
6.6.3	ios	2023-06-27	00:43:22	00:48:32	287555	5f105b47d36c8701ec112317	4	1	main_z	7	advance_on_keypress_ZEE	80	stimuli_distractor_trianglediamonds.svg	stimuli_target_squaretriangles.svg	11	yes	57	0	120	0	0			0	0			1				0	
6.6.3	ios	2023-06-27	00:43:22	00:48:33	288727	5f105b47d36c8701ec112317	4	1	main_z	7	main_z	81	stimuli_distractor_diamondtriangles.svg	stimuli_target_squarediamonds.svg	16	yes	44	1	317	0	0			0	0			1				0	
6.6.3	ios	2023-06-27	00:43:22	00:48:33	288727	5f105b47d36c8701ec112317	4	1	main_z	7	advance_on_keypress_ZEE	82	stimuli_distractor_diamondtriangles.svg	stimuli_target_squarediamonds.svg	16	yes	57	0	136	0	0			0	0			1				0	
6.6.3	ios	2023-06-27	00:43:22	00:48:34	290395	5f105b47d36c8701ec112317	4	1	main_z	7	main_z	83	stimuli_target_trianglesquares.svg	stimuli_distractor_trianglediamonds.svg	18	yes	44	1	801	0	0			0	0			1				0	
6.6.3	ios	2023-06-27	00:43:22	00:48:34	290395	5f105b47d36c8701ec112317	4	1	main_z	7	advance_on_keypress_ZEE	84	stimuli_target_trianglesquares.svg	stimuli_distractor_trianglediamonds.svg	18	yes	57	0	137	0	0			0	0			1				0	
6.6.3	ios	2023-06-27	00:43:22	00:48:36	291980	5f105b47d36c8701ec112317	4	1	main_z	7	main_z	85	stimuli_target_diamondrectangles.svg	stimuli_distractor_trianglediamonds.svg	19	yes	44	1	718	0	0			0	0			1				0	
6.6.3	ios	2023-06-27	00:43:22	00:48:36	291980	5f105b47d36c8701ec112317	4	1	main_z	7	advance_on_keypress_ZEE	86	stimuli_target_diamondrectangles.svg	stimuli_distractor_trianglediamonds.svg	19	yes	57	0	186	0	0			0	0			1				0	
6.6.3	ios	2023-06-27	00:43:22	00:48:39	294900	5f105b47d36c8701ec112317	4	1	main_z	7	main_z	87	stimuli_distractor_trianglediamonds.svg	stimuli_target_diamondsquares.svg	28	yes	0	0	2000	0	0			0	0			1				0	
6.6.3	ios	2023-06-27	00:43:22	00:48:39	294900	5f105b47d36c8701ec112317	4	1	main_z	7	advance_on_keypress_ZEE	88	stimuli_distractor_trianglediamonds.svg	stimuli_target_diamondsquares.svg	28	yes	57	0	286	0	0			0	0			1				0	
6.6.3	ios	2023-06-27	00:43:22	00:48:41	296619	5f105b47d36c8701ec112317	4	1	main_z	7	main_z	89	stimuli_distractor_diamondtriangles.svg	stimuli_target_diamondsquares.svg	32	yes	44	1	735	0	0			0	0			1				0	
6.6.3	ios	2023-06-27	00:43:22	00:48:41	296619	5f105b47d36c8701ec112317	4	1	main_z	7	advance_on_keypress_ZEE	90	stimuli_distractor_diamondtriangles.svg	stimuli_target_diamondsquares.svg	32	yes	57	0	104	0	0			0	0			1				0	
6.6.3	ios	2023-06-27	00:43:22	00:48:42	298033	5f105b47d36c8701ec112317	4	1	main_z	7	main_z	91	stimuli_distractor_trianglediamonds.svg	stimuli_target_rectanglediamonds.svg	10	yes	44	1	568	0	0			0	0			1				0	
6.6.3	ios	2023-06-27	00:43:22	00:48:42	298033	5f105b47d36c8701ec112317	4	1	main_z	7	advance_on_keypress_ZEE	92	stimuli_distractor_trianglediamonds.svg	stimuli_target_rectanglediamonds.svg	10	yes	57	0	120	0	0			0	0			1				0	
6.6.3	ios	2023-06-27	00:43:22	00:48:45	300891	5f105b47d36c8701ec112317	4	1	main_z	7	main_z	93	stimuli_distractor_diamondtriangles.svg	stimuli_distractor_diamondtriangles.svg	39	no	0	1	2000	0	0			0	0			1				0	
6.6.3	ios	2023-06-27	00:43:22	00:48:45	300891	5f105b47d36c8701ec112317	4	1	main_z	7	advance_on_keypress_ZEE	94	stimuli_distractor_diamondtriangles.svg	stimuli_distractor_diamondtriangles.svg	39	no	57	0	571	0	0			0	0			1				0	
6.6.3	ios	2023-06-27	00:43:22	00:48:48	304163	5f105b47d36c8701ec112317	4	1	main_z	7	main_z	95	stimuli_distractor_trianglediamonds.svg	stimuli_distractor_diamondtriangles.svg	36	no	0	1	2000	0	0			0	0			1				0	
6.6.3	ios	2023-06-27	00:43:22	00:48:48	304163	5f105b47d36c8701ec112317	4	1	main_z	7	advance_on_keypress_ZEE	96	stimuli_distractor_trianglediamonds.svg	stimuli_distractor_diamondtriangles.svg	36	no	57	0	254	0	0			0	0			1				0	
6.6.3	ios	2023-06-27	00:43:22	00:48:51	307098	5f105b47d36c8701ec112317	4	1	main_z	7	main_z	97	stimuli_distractor_trianglediamonds.svg	stimuli_distractor_diamondtriangles.svg	35	no	0	1	2000	0	0			0	0			1				0	
6.6.3	ios	2023-06-27	00:43:22	00:48:51	307098	5f105b47d36c8701ec112317	4	1	main_z	7	advance_on_keypress_ZEE	98	stimuli_distractor_trianglediamonds.svg	stimuli_distractor_diamondtriangles.svg	35	no	57	0	20	0	0			0	0			1				0	
6.6.3	ios	2023-06-27	00:43:22	00:48:52	308330	5f105b47d36c8701ec112317	4	1	main_z	7	main_z	99	stimuli_target_squarediamonds.svg	stimuli_distractor_trianglediamonds.svg	4	yes	44	1	502	0	0			0	0			1				0	
6.6.3	ios	2023-06-27	00:43:22	00:48:52	308330	5f105b47d36c8701ec112317	4	1	main_z	7	advance_on_keypress_ZEE	100	stimuli_target_squarediamonds.svg	stimuli_distractor_trianglediamonds.svg	4	yes	57	0	120	0	0			0	0			1				0	
6.6.3	ios	2023-06-27	00:43:22	00:48:54	309732	5f105b47d36c8701ec112317	4	1	main_z	7	main_z	101	stimuli_distractor_trianglediamonds.svg	stimuli_target_trianglerectangles.svg	25	yes	44	1	551	0	0			0	0			1				0	
6.6.3	ios	2023-06-27	00:43:22	00:48:54	309732	5f105b47d36c8701ec112317	4	1	main_z	7	advance_on_keypress_ZEE	102	stimuli_distractor_trianglediamonds.svg	stimuli_target_trianglerectangles.svg	25	yes	57	0	137	0	0			0	0			1				0	
6.6.3	ios	2023-06-27	00:43:22	00:48:55	311167	5f105b47d36c8701ec112317	4	1	main_z	7	main_z	103	stimuli_distractor_trianglediamonds.svg	stimuli_target_squarediamonds.svg	12	yes	44	1	551	0	0			0	0			1				0	
6.6.3	ios	2023-06-27	00:43:22	00:48:55	311167	5f105b47d36c8701ec112317	4	1	main_z	7	advance_on_keypress_ZEE	104	stimuli_distractor_trianglediamonds.svg	stimuli_target_squarediamonds.svg	12	yes	57	0	120	0	0			0	0			1				0	
6.6.3	ios	2023-06-27	00:43:22	00:48:58	313472	5f105b47d36c8701ec112317	4	1	main_z	7	main_z	105	stimuli_distractor_diamondtriangles.svg	stimuli_target_diamondrectangles.svg	31	yes	44	1	1452	0	0			0	0			1				0	
6.6.3	ios	2023-06-27	00:43:22	00:48:58	313472	5f105b47d36c8701ec112317	4	1	main_z	7	advance_on_keypress_ZEE	106	stimuli_distractor_diamondtriangles.svg	stimuli_target_diamondrectangles.svg	31	yes	57	0	120	0	0			0	0			1				0	
6.6.3	ios	2023-06-27	00:43:22	00:48:59	314870	5f105b47d36c8701ec112317	4	1	main_z	7	main_z	107	stimuli_target_trianglerectangles.svg	stimuli_distractor_trianglediamonds.svg	17	yes	44	1	551	0	0			0	0			1				0	
6.6.3	ios	2023-06-27	00:43:22	00:48:59	314870	5f105b47d36c8701ec112317	4	1	main_z	7	advance_on_keypress_ZEE	108	stimuli_target_trianglerectangles.svg	stimuli_distractor_trianglediamonds.svg	17	yes	57	0	121	0	0			0	0			1				0	
6.6.3	ios	2023-06-27	00:43:22	00:49:00	316258	5f105b47d36c8701ec112317	4	1	main_z	7	main_z	109	stimuli_distractor_diamondtriangles.svg	stimuli_target_rectanglediamonds.svg	14	yes	44	1	531	0	0			0	0			1				0	
6.6.3	ios	2023-06-27	00:43:22	00:49:00	316258	5f105b47d36c8701ec112317	4	1	main_z	7	advance_on_keypress_ZEE	110	stimuli_distractor_diamondtriangles.svg	stimuli_target_rectanglediamonds.svg	14	yes	57	0	165	0	0			0	0			1				0	
6.6.3	ios	2023-06-27	00:43:22	00:49:02	317623	5f105b47d36c8701ec112317	4	1	main_z	7	main_z	111	stimuli_target_diamondrectangles.svg	stimuli_distractor_diamondtriangles.svg	23	yes	44	1	467	0	0			0	0			1				0	
6.6.3	ios	2023-06-27	00:43:22	00:49:02	317623	5f105b47d36c8701ec112317	4	1	main_z	7	advance_on_keypress_ZEE	112	stimuli_target_diamondrectangles.svg	stimuli_distractor_diamondtriangles.svg	23	yes	57	0	270	0	0			0	0			1				0	
6.6.3	ios	2023-06-27	00:43:22	00:49:03	319124	5f105b47d36c8701ec112317	4	1	main_z	7	main_z	113	stimuli_distractor_diamondtriangles.svg	stimuli_target_rectangletriangles.svg	13	yes	44	1	485	0	0			0	0			1				0	
6.6.3	ios	2023-06-27	00:43:22	00:49:03	319124	5f105b47d36c8701ec112317	4	1	main_z	7	advance_on_keypress_ZEE	114	stimuli_distractor_diamondtriangles.svg	stimuli_target_rectangletriangles.svg	13	yes	57	0	121	0	0			0	0			1				0	
6.6.3	ios	2023-06-27	00:43:22	00:49:05	320459	5f105b47d36c8701ec112317	4	1	main_z	7	main_z	115	stimuli_target_rectangletriangles.svg	stimuli_distractor_trianglediamonds.svg	1	yes	44	1	467	0	0			0	0			1				0	
6.6.3	ios	2023-06-27	00:43:22	00:49:05	320459	5f105b47d36c8701ec112317	4	1	main_z	7	advance_on_keypress_ZEE	116	stimuli_target_rectangletriangles.svg	stimuli_distractor_trianglediamonds.svg	1	yes	57	0	87	0	0			0	0			1				0	
6.6.3	ios	2023-06-27	00:43:22	00:49:06	321744	5f105b47d36c8701ec112317	4	1	main_z	7	main_z	117	stimuli_target_squaretriangles.svg	stimuli_distractor_trianglediamonds.svg	3	yes	44	1	451	0	0			0	0			1				0	
6.6.3	ios	2023-06-27	00:43:22	00:49:06	321744	5f105b47d36c8701ec112317	4	1	main_z	7	advance_on_keypress_ZEE	118	stimuli_target_squaretriangles.svg	stimuli_distractor_trianglediamonds.svg	3	yes	57	0	120	0	0			0	0			1				0	
6.6.3	ios	2023-06-27	00:43:22	00:49:07	323062	5f105b47d36c8701ec112317	4	1	main_z	7	main_z	119	stimuli_distractor_trianglediamonds.svg	stimuli_target_rectangletriangles.svg	9	yes	44	1	452	0	0			0	0			1				0	
6.6.3	ios	2023-06-27	00:43:22	00:49:07	323062	5f105b47d36c8701ec112317	4	1	main_z	7	advance_on_keypress_ZEE	120	stimuli_distractor_trianglediamonds.svg	stimuli_target_rectangletriangles.svg	9	yes	57	0	1742	0	0			0	0			1				0	
6.6.3	ios	2023-06-27	00:43:22	00:49:12	327520	5f105b47d36c8701ec112317	4	1	main_z	7	main_z	121	stimuli_distractor_trianglediamonds.svg	stimuli_distractor_trianglediamonds.svg	33	no	0	1	2000	0	0			0	0			1				0	
6.6.3	ios	2023-06-27	00:43:22	00:49:12	327520	5f105b47d36c8701ec112317	4	1	main_z	7	advance_on_keypress_ZEE	122	stimuli_distractor_trianglediamonds.svg	stimuli_distractor_trianglediamonds.svg	33	no	57	0	271	0	0			0	0			1				0	
6.6.3	ios	2023-06-27	00:43:22	00:49:13	328939	5f105b47d36c8701ec112317	4	1	main_z	7	main_z	123	stimuli_target_rectanglediamonds.svg	stimuli_distractor_trianglediamonds.svg	2	yes	44	1	468	0	0			0	0			1				0	
6.6.3	ios	2023-06-27	00:43:22	00:49:13	328939	5f105b47d36c8701ec112317	4	1	main_z	7	advance_on_keypress_ZEE	124	stimuli_target_rectanglediamonds.svg	stimuli_distractor_trianglediamonds.svg	2	yes	57	0	103	0	0			0	0			1				0	
6.6.3	ios	2023-06-27	00:43:22	00:49:15	331341	5f105b47d36c8701ec112317	4	1	main_z	7	main_z	125	stimuli_distractor_diamondtriangles.svg	stimuli_distractor_trianglediamonds.svg	38	no	44	0	1585	0	0			0	0			1				0	
6.6.3	ios	2023-06-27	00:43:22	00:49:15	331341	5f105b47d36c8701ec112317	4	1	main_z	7	advance_on_keypress_ZEE	126	stimuli_distractor_diamondtriangles.svg	stimuli_distractor_trianglediamonds.svg	38	no	57	0	371	0	0			0	0			1				0	
6.6.3	ios	2023-06-27	00:43:22	00:49:17	333007	5f105b47d36c8701ec112317	4	1	main_z	7	main_z	127	stimuli_distractor_trianglediamonds.svg	stimuli_target_trianglesquares.svg	26	yes	44	1	567	0	0			0	0			1				0	
6.6.3	ios	2023-06-27	00:43:22	00:49:17	333007	5f105b47d36c8701ec112317	4	1	main_z	7	advance_on_keypress_ZEE	128	stimuli_distractor_trianglediamonds.svg	stimuli_target_trianglesquares.svg	26	yes	57	0	120	0	0			0	0			1				0	
6.6.3	ios	2023-06-27	00:43:22	00:49:18	334391	5f105b47d36c8701ec112317	4	1	main_z	7	main_z	129	stimuli_target_rectanglediamonds.svg	stimuli_distractor_diamondtriangles.svg	6	yes	44	1	518	0	0			0	0			1				0	
6.6.3	ios	2023-06-27	00:43:22	00:49:18	334391	5f105b47d36c8701ec112317	4	1	main_z	7	advance_on_keypress_ZEE	130	stimuli_target_rectanglediamonds.svg	stimuli_distractor_diamondtriangles.svg	6	yes	57	0	104	0	0			0	0			1				0	
6.6.3	ios	2023-06-27	00:43:22	00:49:20	336025	5f105b47d36c8701ec112317	4	1	main_z	7	main_z	131	stimuli_distractor_diamondtriangles.svg	stimuli_target_trianglerectangles.svg	29	yes	44	1	784	0	0			0	0			1				0	
6.6.3	ios	2023-06-27	00:43:22	00:49:20	336025	5f105b47d36c8701ec112317	4	1	main_z	7	advance_on_keypress_ZEE	132	stimuli_distractor_diamondtriangles.svg	stimuli_target_trianglerectangles.svg	29	yes	57	0	120	0	0			0	0			1				0	
6.6.3	ios	2023-06-27	00:43:22	00:49:21	337360	5f105b47d36c8701ec112317	4	1	main_z	7	main_z	133	stimuli_target_diamondsquares.svg	stimuli_distractor_trianglediamonds.svg	20	yes	44	1	467	0	0			0	0			1				0	
6.6.3	ios	2023-06-27	00:43:22	00:49:21	337360	5f105b47d36c8701ec112317	4	1	main_z	7	advance_on_keypress_ZEE	134	stimuli_target_diamondsquares.svg	stimuli_distractor_trianglediamonds.svg	20	yes	57	0	737	0	0			0	0			1				0	
6.6.3	ios	2023-06-27	00:43:22	00:49:25	340816	5f105b47d36c8701ec112317	4	1	main_z	7	main_z	135	stimuli_target_trianglerectangles.svg	stimuli_distractor_diamondtriangles.svg	21	yes	0	0	2000	0	0			0	0			1				0	
6.6.3	ios	2023-06-27	00:43:22	00:49:25	340816	5f105b47d36c8701ec112317	4	1	main_z	7	advance_on_keypress_ZEE	136	stimuli_target_trianglerectangles.svg	stimuli_distractor_diamondtriangles.svg	21	yes	57	0	220	0	0			0	0			1				0	
6.6.3	ios	2023-06-27	00:43:22	00:49:28	343718	5f105b47d36c8701ec112317	4	1	main_z	7	main_z	137	stimuli_distractor_trianglediamonds.svg	stimuli_distractor_trianglediamonds.svg	34	no	0	1	2000	0	0			0	0			1				0	
6.6.3	ios	2023-06-27	00:43:22	00:49:28	343718	5f105b47d36c8701ec112317	4	1	main_z	7	advance_on_keypress_ZEE	138	stimuli_distractor_trianglediamonds.svg	stimuli_distractor_trianglediamonds.svg	34	no	57	0	287	0	0			0	0			1				0	
6.6.3	ios	2023-06-27	00:43:22	00:49:31	346689	5f105b47d36c8701ec112317	4	1	main_z	7	main_z	139	stimuli_distractor_diamondtriangles.svg	stimuli_distractor_diamondtriangles.svg	40	no	0	1	2000	0	0			0	0			1				0	
6.6.3	ios	2023-06-27	00:43:22	00:49:31	346689	5f105b47d36c8701ec112317	4	1	main_z	7	advance_on_keypress_ZEE	140	stimuli_distractor_diamondtriangles.svg	stimuli_distractor_diamondtriangles.svg	40	no	57	0	304	0	0			0	0			1				0	
6.6.3	ios	2023-06-27	00:43:22	00:49:32	348123	5f105b47d36c8701ec112317	4	1	main_z	7	main_z	141	stimuli_target_rectangletriangles.svg	stimuli_distractor_diamondtriangles.svg	5	yes	44	1	451	0	0			0	0			1				0	
6.6.3	ios	2023-06-27	00:43:22	00:49:32	348123	5f105b47d36c8701ec112317	4	1	main_z	7	advance_on_keypress_ZEE	142	stimuli_target_rectangletriangles.svg	stimuli_distractor_diamondtriangles.svg	5	yes	57	0	120	0	0			0	0			1				0	
6.6.3	ios	2023-06-27	00:43:22	00:49:33	349421	5f105b47d36c8701ec112317	4	1	main_z	7	main_z	143	stimuli_distractor_diamondtriangles.svg	stimuli_distractor_trianglediamonds.svg	37	no	44	0	451	0	0			0	0			1				0	
6.6.3	ios	2023-06-27	00:43:22	00:49:33	349421	5f105b47d36c8701ec112317	4	1	main_z	7	advance_on_keypress_ZEE	144	stimuli_distractor_diamondtriangles.svg	stimuli_distractor_trianglediamonds.svg	37	no	57	0	137	0	0			0	0			1				0	
6.6.3	ios	2023-06-27	00:43:22	00:49:35	350871	5f105b47d36c8701ec112317	4	1	main_z	7	main_z	145	stimuli_distractor_trianglediamonds.svg	stimuli_target_diamondrectangles.svg	27	yes	44	1	584	0	0			0	0			1				0	
6.6.3	ios	2023-06-27	00:43:22	00:49:35	350871	5f105b47d36c8701ec112317	4	1	main_z	7	advance_on_keypress_ZEE	146	stimuli_distractor_trianglediamonds.svg	stimuli_target_diamondrectangles.svg	27	yes	57	0	1273	0	0			0	0			1				0	
6.6.3	ios	2023-06-27	00:43:22	00:49:37	353357	5f105b47d36c8701ec112317	4	1	main_z	7	main_z	147	stimuli_distractor_diamondtriangles.svg	stimuli_target_squaretriangles.svg	15	yes	44	1	484	0	0			0	0			1				0	
6.6.3	ios	2023-06-27	00:43:22	00:49:37	353357	5f105b47d36c8701ec112317	4	1	main_z	7	advance_on_keypress_ZEE	148	stimuli_distractor_diamondtriangles.svg	stimuli_target_squaretriangles.svg	15	yes	57	0	103	0	0			0	0			1				0	
6.6.3	ios	2023-06-27	00:43:22	00:49:39	354895	5f105b47d36c8701ec112317	4	1	main_z	7	main_z	149	stimuli_target_squarediamonds.svg	stimuli_distractor_diamondtriangles.svg	8	yes	44	1	718	0	0			0	0			1				0	
6.6.3	ios	2023-06-27	00:43:22	00:49:39	354895	5f105b47d36c8701ec112317	4	1	main_z	7	advance_on_keypress_ZEE	150	stimuli_target_squarediamonds.svg	stimuli_distractor_diamondtriangles.svg	8	yes	57	0	120	0	0			0	0			1				0	
6.6.3	ios	2023-06-27	00:43:22	00:49:40	356046	5f105b47d36c8701ec112317	4	1	main_z	7	main_z	151	stimuli_target_squaretriangles.svg	stimuli_distractor_diamondtriangles.svg	7	yes	44	1	301	0	0			0	0			1				0	
6.6.3	ios	2023-06-27	00:43:22	00:49:40	356046	5f105b47d36c8701ec112317	4	1	main_z	7	advance_on_keypress_ZEE	152	stimuli_target_squaretriangles.svg	stimuli_distractor_diamondtriangles.svg	7	yes	57	0	120	0	0			0	0			1				0	
6.6.3	ios	2023-06-27	00:43:22	00:49:42	357747	5f105b47d36c8701ec112317	4	1	main_z	7	main_z	153	stimuli_target_trianglesquares.svg	stimuli_distractor_diamondtriangles.svg	22	yes	44	1	851	0	0			0	0			1				0	
6.6.3	ios	2023-06-27	00:43:22	00:49:42	357747	5f105b47d36c8701ec112317	4	1	main_z	7	advance_on_keypress_ZEE	154	stimuli_target_trianglesquares.svg	stimuli_distractor_diamondtriangles.svg	22	yes	57	0	1356	0	0			0	0			1				0	
6.6.3	ios	2023-06-27	00:43:22	00:49:44	360148	5f105b47d36c8701ec112317	4	1	main_z	7	main_z	155	stimuli_distractor_trianglediamonds.svg	stimuli_target_squaretriangles.svg	11	yes	44	1	334	0	0			0	0			1				0	
6.6.3	ios	2023-06-27	00:43:22	00:49:44	360148	5f105b47d36c8701ec112317	4	1	main_z	7	advance_on_keypress_ZEE	156	stimuli_distractor_trianglediamonds.svg	stimuli_target_squaretriangles.svg	11	yes	57	0	119	0	0			0	0			1				0	
6.6.3	ios	2023-06-27	00:43:22	00:49:47	363002	5f105b47d36c8701ec112317	4	1	main_z	7	main_z	157	stimuli_target_diamondsquares.svg	stimuli_distractor_diamondtriangles.svg	24	yes	0	0	2000	0	0			0	0			1				0	
6.6.3	ios	2023-06-27	00:43:22	00:49:47	363002	5f105b47d36c8701ec112317	4	1	main_z	7	advance_on_keypress_ZEE	158	stimuli_target_diamondsquares.svg	stimuli_distractor_diamondtriangles.svg	24	yes	57	0	637	0	0			0	0			1				0	
6.6.3	ios	2023-06-27	00:43:22	00:49:50	366150	5f105b47d36c8701ec112317	4	1	main_z	7	main_z	159	stimuli_distractor_diamondtriangles.svg	stimuli_target_trianglesquares.svg	30	yes	44	1	1821	0	0			0	0			1				0	
6.6.3	ios	2023-06-27	00:43:22	00:49:50	366150	5f105b47d36c8701ec112317	4	1	main_z	7	advance_on_keypress_ZEE	160	stimuli_distractor_diamondtriangles.svg	stimuli_target_trianglesquares.svg	30	yes	57	0	454	0	0			0	0			1				0	
6.6.3	ios	2023-06-27	00:43:22	00:50:07	383030	5f105b47d36c8701ec112317	4	1	practice_slash	9	practice_slash	1	stimuli_distractor_trianglediamonds.svg	stimuli_distractor_trianglediamonds.svg	15	no	53	0	388	0	0			0	0			1				0	
6.6.3	ios	2023-06-27	00:43:22	00:50:07	383030	5f105b47d36c8701ec112317	4	1	practice_slash	9	advance_on_keypress_SLASH	2	stimuli_distractor_trianglediamonds.svg	stimuli_distractor_trianglediamonds.svg	15	no	57	0	438	0	0			0	0			1				0	
6.6.3	ios	2023-06-27	00:43:22	00:50:10	385498	5f105b47d36c8701ec112317	4	1	practice_slash	9	practice_slash	3	stimuli_distractor_trianglediamonds.svg	stimuli_target_rectanglediamonds.svg	10	yes	53	1	334	0	0			0	0			1				0	
6.6.3	ios	2023-06-27	00:43:22	00:50:10	385498	5f105b47d36c8701ec112317	4	1	practice_slash	9	advance_on_keypress_SLASH	4	stimuli_distractor_trianglediamonds.svg	stimuli_target_rectanglediamonds.svg	10	yes	57	0	554	0	0			0	0			1				0	
6.6.3	ios	2023-06-27	00:43:22	00:50:14	389752	5f105b47d36c8701ec112317	4	1	practice_slash	9	practice_slash	5	stimuli_distractor_trianglediamonds.svg	stimuli_distractor_diamondtriangles.svg	16	no	0	1	2000	0	0			0	0			1				0	
6.6.3	ios	2023-06-27	00:43:22	00:50:14	389752	5f105b47d36c8701ec112317	4	1	practice_slash	9	advance_on_keypress_SLASH	6	stimuli_distractor_trianglediamonds.svg	stimuli_distractor_diamondtriangles.svg	16	no	57	0	420	0	0			0	0			1				0	
6.6.3	ios	2023-06-27	00:43:22	00:50:16	392286	5f105b47d36c8701ec112317	4	1	practice_slash	9	practice_slash	7	stimuli_distractor_diamondtriangles.svg	stimuli_target_rectangletriangles.svg	7	yes	53	1	417	0	0			0	0			1				0	
6.6.3	ios	2023-06-27	00:43:22	00:50:16	392286	5f105b47d36c8701ec112317	4	1	practice_slash	9	advance_on_keypress_SLASH	8	stimuli_distractor_diamondtriangles.svg	stimuli_target_rectangletriangles.svg	7	yes	57	0	587	0	0			0	0			1				0	
6.6.3	ios	2023-06-27	00:43:22	00:50:19	394922	5f105b47d36c8701ec112317	4	1	practice_slash	9	practice_slash	9	stimuli_distractor_diamondtriangles.svg	stimuli_distractor_trianglediamonds.svg	14	no	53	0	367	0	0			0	0			1				0	
6.6.3	ios	2023-06-27	00:43:22	00:50:19	394922	5f105b47d36c8701ec112317	4	1	practice_slash	9	advance_on_keypress_SLASH	10	stimuli_distractor_diamondtriangles.svg	stimuli_distractor_trianglediamonds.svg	14	no	57	0	454	0	0			0	0			1				0	
6.6.3	ios	2023-06-27	00:43:22	00:50:23	399060	5f105b47d36c8701ec112317	4	1	practice_slash	9	practice_slash	11	stimuli_distractor_trianglediamonds.svg	stimuli_target_diamondrectangles.svg	12	yes	0	0	2000	0	0			0	0			1				0	
6.6.3	ios	2023-06-27	00:43:22	00:50:23	399060	5f105b47d36c8701ec112317	4	1	practice_slash	9	advance_on_keypress_SLASH	12	stimuli_distractor_trianglediamonds.svg	stimuli_target_diamondrectangles.svg	12	yes	57	0	487	0	0			0	0			1				0	
6.6.3	ios	2023-06-27	00:43:22	00:50:26	401578	5f105b47d36c8701ec112317	4	1	practice_slash	9	practice_slash	13	stimuli_target_squarediamonds.svg	stimuli_distractor_diamondtriangles.svg	2	yes	53	1	334	0	0			0	0			1				0	
6.6.3	ios	2023-06-27	00:43:22	00:50:26	401578	5f105b47d36c8701ec112317	4	1	practice_slash	9	advance_on_keypress_SLASH	14	stimuli_target_squarediamonds.svg	stimuli_distractor_diamondtriangles.svg	2	yes	57	0	320	0	0			0	0			1				0	
6.6.3	ios	2023-06-27	00:43:22	00:50:30	405599	5f105b47d36c8701ec112317	4	1	practice_slash	9	practice_slash	15	stimuli_distractor_diamondtriangles.svg	stimuli_distractor_diamondtriangles.svg	13	no	0	1	2000	0	0			0	0			1				0	
6.6.3	ios	2023-06-27	00:43:22	00:50:30	405599	5f105b47d36c8701ec112317	4	1	practice_slash	9	advance_on_keypress_SLASH	16	stimuli_distractor_diamondtriangles.svg	stimuli_distractor_diamondtriangles.svg	13	no	57	0	237	0	0			0	0			1				0	
6.6.3	ios	2023-06-27	00:43:22	00:50:32	407982	5f105b47d36c8701ec112317	4	1	practice_slash	9	practice_slash	17	stimuli_target_diamondsquares.svg	stimuli_distractor_trianglediamonds.svg	6	yes	53	1	451	0	0			0	0			1				0	
6.6.3	ios	2023-06-27	00:43:22	00:50:32	407982	5f105b47d36c8701ec112317	4	1	practice_slash	9	advance_on_keypress_SLASH	18	stimuli_target_diamondsquares.svg	stimuli_distractor_trianglediamonds.svg	6	yes	57	0	487	0	0			0	0			1				0	
6.6.3	ios	2023-06-27	00:43:22	00:50:35	410582	5f105b47d36c8701ec112317	4	1	practice_slash	9	practice_slash	19	stimuli_target_rectanglediamonds.svg	stimuli_distractor_trianglediamonds.svg	4	yes	53	1	417	0	0			0	0			1				0	
6.6.3	ios	2023-06-27	00:43:22	00:50:35	410582	5f105b47d36c8701ec112317	4	1	practice_slash	9	advance_on_keypress_SLASH	20	stimuli_target_rectanglediamonds.svg	stimuli_distractor_trianglediamonds.svg	4	yes	57	0	237	0	0			0	0			1				0	
6.6.3	ios	2023-06-27	00:43:22	00:50:37	412869	5f105b47d36c8701ec112317	4	1	practice_slash	9	practice_slash	21	stimuli_distractor_diamondtriangles.svg	stimuli_target_trianglerectangles.svg	9	yes	53	1	351	0	0			0	0			1				0	
6.6.3	ios	2023-06-27	00:43:22	00:50:37	412869	5f105b47d36c8701ec112317	4	1	practice_slash	9	advance_on_keypress_SLASH	22	stimuli_distractor_diamondtriangles.svg	stimuli_target_trianglerectangles.svg	9	yes	57	0	86	0	0			0	0			1				0	
6.6.3	ios	2023-06-27	00:43:22	00:50:39	415167	5f105b47d36c8701ec112317	4	1	practice_slash	9	practice_slash	23	stimuli_target_squarediamonds.svg	stimuli_distractor_trianglediamonds.svg	5	yes	53	1	500	0	0			0	0			1				0	
6.6.3	ios	2023-06-27	00:43:22	00:50:39	415167	5f105b47d36c8701ec112317	4	1	practice_slash	9	advance_on_keypress_SLASH	24	stimuli_target_squarediamonds.svg	stimuli_distractor_trianglediamonds.svg	5	yes	57	0	253	0	0			0	0			1				0	
6.6.3	ios	2023-06-27	00:43:22	00:50:42	417686	5f105b47d36c8701ec112317	4	1	practice_slash	9	practice_slash	25	stimuli_target_diamondsquares.svg	stimuli_distractor_diamondtriangles.svg	3	yes	53	1	550	0	0			0	0			1				0	
6.6.3	ios	2023-06-27	00:43:22	00:50:42	417686	5f105b47d36c8701ec112317	4	1	practice_slash	9	advance_on_keypress_SLASH	26	stimuli_target_diamondsquares.svg	stimuli_distractor_diamondtriangles.svg	3	yes	57	0	20	0	0			0	0			1				0	
6.6.3	ios	2023-06-27	00:43:22	00:50:44	419970	5f105b47d36c8701ec112317	4	1	practice_slash	9	practice_slash	27	stimuli_target_rectanglediamonds.svg	stimuli_distractor_diamondtriangles.svg	1	yes	53	1	551	0	0			0	0			1				0	
6.6.3	ios	2023-06-27	00:43:22	00:50:44	419970	5f105b47d36c8701ec112317	4	1	practice_slash	9	advance_on_keypress_SLASH	28	stimuli_target_rectanglediamonds.svg	stimuli_distractor_diamondtriangles.svg	1	yes	57	0	520	0	0			0	0			1				0	
6.6.3	ios	2023-06-27	00:43:22	00:50:47	422725	5f105b47d36c8701ec112317	4	1	practice_slash	9	practice_slash	29	stimuli_distractor_trianglediamonds.svg	stimuli_target_squarediamonds.svg	11	yes	53	1	530	0	0			0	0			1				0	
6.6.3	ios	2023-06-27	00:43:22	00:50:47	422725	5f105b47d36c8701ec112317	4	1	practice_slash	9	advance_on_keypress_SLASH	30	stimuli_distractor_trianglediamonds.svg	stimuli_target_squarediamonds.svg	11	yes	57	0	187	0	0			0	0			1				0	
6.6.3	ios	2023-06-27	00:43:22	00:50:51	426614	5f105b47d36c8701ec112317	4	1	practice_slash	9	practice_slash	31	stimuli_distractor_diamondtriangles.svg	stimuli_target_diamondrectangles.svg	8	yes	0	0	2000	0	0			0	0			1				0	
6.6.3	ios	2023-06-27	00:43:22	00:50:51	426614	5f105b47d36c8701ec112317	4	1	practice_slash	9	advance_on_keypress_SLASH	32	stimuli_distractor_diamondtriangles.svg	stimuli_target_diamondrectangles.svg	8	yes	57	0	636	0	0			0	0			1				0	
6.6.3	ios	2023-06-27	00:43:22	00:51:00	435686	5f105b47d36c8701ec112317	4	1	main_slash	11	main_slash	1	stimuli_target_trianglesquares.svg	stimuli_distractor_trianglediamonds.svg	18	yes	53	1	531	0	0			0	0			1				0	
6.6.3	ios	2023-06-27	00:43:22	00:51:00	435686	5f105b47d36c8701ec112317	4	1	main_slash	11	advance_on_keypress_SLASH	2	stimuli_target_trianglesquares.svg	stimuli_distractor_trianglediamonds.svg	18	yes	57	0	120	0	0			0	0			1				0	
6.6.3	ios	2023-06-27	00:43:22	00:51:01	437000	5f105b47d36c8701ec112317	4	1	main_slash	11	main_slash	3	stimuli_distractor_trianglediamonds.svg	stimuli_target_squarediamonds.svg	12	yes	53	1	450	0	0			0	0			1				0	
6.6.3	ios	2023-06-27	00:43:22	00:51:01	437000	5f105b47d36c8701ec112317	4	1	main_slash	11	advance_on_keypress_SLASH	4	stimuli_distractor_trianglediamonds.svg	stimuli_target_squarediamonds.svg	12	yes	57	0	70	0	0			0	0			1				0	
6.6.3	ios	2023-06-27	00:43:22	00:51:02	438086	5f105b47d36c8701ec112317	4	1	main_slash	11	main_slash	5	stimuli_distractor_trianglediamonds.svg	stimuli_target_rectanglediamonds.svg	10	yes	53	1	284	0	0			0	0			1				0	
6.6.3	ios	2023-06-27	00:43:22	00:51:02	438086	5f105b47d36c8701ec112317	4	1	main_slash	11	advance_on_keypress_SLASH	6	stimuli_distractor_trianglediamonds.svg	stimuli_target_rectanglediamonds.svg	10	yes	57	0	86	0	0			0	0			1				0	
6.6.3	ios	2023-06-27	00:43:22	00:51:03	439401	5f105b47d36c8701ec112317	4	1	main_slash	11	main_slash	7	stimuli_target_diamondrectangles.svg	stimuli_distractor_trianglediamonds.svg	19	yes	53	1	484	0	0			0	0			1				0	
6.6.3	ios	2023-06-27	00:43:22	00:51:03	439401	5f105b47d36c8701ec112317	4	1	main_slash	11	advance_on_keypress_SLASH	8	stimuli_target_diamondrectangles.svg	stimuli_distractor_trianglediamonds.svg	19	yes	57	0	237	0	0			0	0			1				0	
6.6.3	ios	2023-06-27	00:43:22	00:51:06	442360	5f105b47d36c8701ec112317	4	1	main_slash	11	main_slash	9	stimuli_distractor_diamondtriangles.svg	stimuli_target_diamondrectangles.svg	31	yes	0	0	2000	0	0			0	0			1				0	
6.6.3	ios	2023-06-27	00:43:22	00:51:06	442360	5f105b47d36c8701ec112317	4	1	main_slash	11	advance_on_keypress_SLASH	10	stimuli_distractor_diamondtriangles.svg	stimuli_target_diamondrectangles.svg	31	yes	57	0	321	0	0			0	0			1				0	
6.6.3	ios	2023-06-27	00:43:22	00:51:08	443872	5f105b47d36c8701ec112317	4	1	main_slash	11	main_slash	11	stimuli_distractor_trianglediamonds.svg	stimuli_target_rectangletriangles.svg	9	yes	53	1	484	0	0			0	0			1				0	
6.6.3	ios	2023-06-27	00:43:22	00:51:08	443872	5f105b47d36c8701ec112317	4	1	main_slash	11	advance_on_keypress_SLASH	12	stimuli_distractor_trianglediamonds.svg	stimuli_target_rectangletriangles.svg	9	yes	57	0	87	0	0			0	0			1				0	
6.6.3	ios	2023-06-27	00:43:22	00:51:11	446697	5f105b47d36c8701ec112317	4	1	main_slash	11	main_slash	13	stimuli_distractor_trianglediamonds.svg	stimuli_distractor_trianglediamonds.svg	34	no	0	1	2000	0	0			0	0			1				0	
6.6.3	ios	2023-06-27	00:43:22	00:51:11	446697	5f105b47d36c8701ec112317	4	1	main_slash	11	advance_on_keypress_SLASH	14	stimuli_distractor_trianglediamonds.svg	stimuli_distractor_trianglediamonds.svg	34	no	57	0	637	0	0			0	0			1				0	
6.6.3	ios	2023-06-27	00:43:22	00:51:14	450017	5f105b47d36c8701ec112317	4	1	main_slash	11	main_slash	15	stimuli_target_diamondsquares.svg	stimuli_distractor_diamondtriangles.svg	24	yes	0	0	2000	0	0			0	0			1				0	
6.6.3	ios	2023-06-27	00:43:22	00:51:14	450017	5f105b47d36c8701ec112317	4	1	main_slash	11	advance_on_keypress_SLASH	16	stimuli_target_diamondsquares.svg	stimuli_distractor_diamondtriangles.svg	24	yes	57	0	421	0	0			0	0			1				0	
6.6.3	ios	2023-06-27	00:43:22	00:51:16	451432	5f105b47d36c8701ec112317	4	1	main_slash	11	main_slash	17	stimuli_distractor_diamondtriangles.svg	stimuli_distractor_diamondtriangles.svg	40	no	53	0	318	0	0			0	0			1				0	
6.6.3	ios	2023-06-27	00:43:22	00:51:16	451432	5f105b47d36c8701ec112317	4	1	main_slash	11	advance_on_keypress_SLASH	18	stimuli_distractor_diamondtriangles.svg	stimuli_distractor_diamondtriangles.svg	40	no	57	0	153	0	0			0	0			1				0	
6.6.3	ios	2023-06-27	00:43:22	00:51:17	452833	5f105b47d36c8701ec112317	4	1	main_slash	11	main_slash	19	stimuli_target_squarediamonds.svg	stimuli_distractor_trianglediamonds.svg	4	yes	53	1	531	0	0			0	0			1				0	
6.6.3	ios	2023-06-27	00:43:22	00:51:17	452833	5f105b47d36c8701ec112317	4	1	main_slash	11	advance_on_keypress_SLASH	20	stimuli_target_squarediamonds.svg	stimuli_distractor_trianglediamonds.svg	4	yes	57	0	120	0	0			0	0			1				0	
6.6.3	ios	2023-06-27	00:43:22	00:51:18	454147	5f105b47d36c8701ec112317	4	1	main_slash	11	main_slash	21	stimuli_distractor_trianglediamonds.svg	stimuli_target_diamondsquares.svg	28	yes	53	1	467	0	0			0	0			1				0	
6.6.3	ios	2023-06-27	00:43:22	00:51:18	454147	5f105b47d36c8701ec112317	4	1	main_slash	11	advance_on_keypress_SLASH	22	stimuli_distractor_trianglediamonds.svg	stimuli_target_diamondsquares.svg	28	yes	57	0	387	0	0			0	0			1				0	
6.6.3	ios	2023-06-27	00:43:22	00:51:21	457254	5f105b47d36c8701ec112317	4	1	main_slash	11	main_slash	23	stimuli_distractor_diamondtriangles.svg	stimuli_target_diamondsquares.svg	32	yes	0	0	2000	0	0			0	0			1				0	
6.6.3	ios	2023-06-27	00:43:22	00:51:21	457254	5f105b47d36c8701ec112317	4	1	main_slash	11	advance_on_keypress_SLASH	24	stimuli_distractor_diamondtriangles.svg	stimuli_target_diamondsquares.svg	32	yes	57	0	137	0	0			0	0			1				0	
6.6.3	ios	2023-06-27	00:43:22	00:51:24	460074	5f105b47d36c8701ec112317	4	1	main_slash	11	main_slash	25	stimuli_distractor_trianglediamonds.svg	stimuli_distractor_diamondtriangles.svg	36	no	0	1	2000	0	0			0	0			1				0	
6.6.3	ios	2023-06-27	00:43:22	00:51:24	460074	5f105b47d36c8701ec112317	4	1	main_slash	11	advance_on_keypress_SLASH	26	stimuli_distractor_trianglediamonds.svg	stimuli_distractor_diamondtriangles.svg	36	no	57	0	254	0	0			0	0			1				0	
6.6.3	ios	2023-06-27	00:43:22	00:51:26	461472	5f105b47d36c8701ec112317	4	1	main_slash	11	main_slash	27	stimuli_target_squaretriangles.svg	stimuli_distractor_trianglediamonds.svg	3	yes	53	1	467	0	0			0	0			1				0	
6.6.3	ios	2023-06-27	00:43:22	00:51:26	461472	5f105b47d36c8701ec112317	4	1	main_slash	11	advance_on_keypress_SLASH	28	stimuli_target_squaretriangles.svg	stimuli_distractor_trianglediamonds.svg	3	yes	57	0	103	0	0			0	0			1				0	
6.6.3	ios	2023-06-27	00:43:22	00:51:27	462887	5f105b47d36c8701ec112317	4	1	main_slash	11	main_slash	29	stimuli_target_rectanglediamonds.svg	stimuli_distractor_trianglediamonds.svg	2	yes	53	1	567	0	0			0	0			1				0	
6.6.3	ios	2023-06-27	00:43:22	00:51:27	462887	5f105b47d36c8701ec112317	4	1	main_slash	11	advance_on_keypress_SLASH	30	stimuli_target_rectanglediamonds.svg	stimuli_distractor_trianglediamonds.svg	2	yes	57	0	937	0	0			0	0			1				0	
6.6.3	ios	2023-06-27	00:43:22	00:51:29	465021	5f105b47d36c8701ec112317	4	1	main_slash	11	main_slash	31	stimuli_distractor_trianglediamonds.svg	stimuli_target_squaretriangles.svg	11	yes	53	1	467	0	0			0	0			1				0	
6.6.3	ios	2023-06-27	00:43:22	00:51:29	465021	5f105b47d36c8701ec112317	4	1	main_slash	11	advance_on_keypress_SLASH	32	stimuli_distractor_trianglediamonds.svg	stimuli_target_squaretriangles.svg	11	yes	57	0	86	0	0			0	0			1				0	
6.6.3	ios	2023-06-27	00:43:22	00:51:32	467845	5f105b47d36c8701ec112317	4	1	main_slash	11	main_slash	33	stimuli_distractor_diamondtriangles.svg	stimuli_distractor_trianglediamonds.svg	37	no	0	1	2000	0	0			0	0			1				0	
6.6.3	ios	2023-06-27	00:43:22	00:51:32	467845	5f105b47d36c8701ec112317	4	1	main_slash	11	advance_on_keypress_SLASH	34	stimuli_distractor_diamondtriangles.svg	stimuli_distractor_trianglediamonds.svg	37	no	57	0	370	0	0			0	0			1				0	
6.6.3	ios	2023-06-27	00:43:22	00:51:33	469377	5f105b47d36c8701ec112317	4	1	main_slash	11	main_slash	35	stimuli_target_squarediamonds.svg	stimuli_distractor_diamondtriangles.svg	8	yes	53	1	466	0	0			0	0			1				0	
6.6.3	ios	2023-06-27	00:43:22	00:51:33	469377	5f105b47d36c8701ec112317	4	1	main_slash	11	advance_on_keypress_SLASH	36	stimuli_target_squarediamonds.svg	stimuli_distractor_diamondtriangles.svg	8	yes	57	0	120	0	0			0	0			1				0	
6.6.3	ios	2023-06-27	00:43:22	00:51:36	471997	5f105b47d36c8701ec112317	4	1	main_slash	11	main_slash	37	stimuli_target_diamondrectangles.svg	stimuli_distractor_diamondtriangles.svg	23	yes	53	1	1769	0	0			0	0			1				0	
6.6.3	ios	2023-06-27	00:43:22	00:51:36	471997	5f105b47d36c8701ec112317	4	1	main_slash	11	advance_on_keypress_SLASH	38	stimuli_target_diamondrectangles.svg	stimuli_distractor_diamondtriangles.svg	23	yes	57	0	504	0	0			0	0			1				0	
6.6.3	ios	2023-06-27	00:43:22	00:51:38	473743	5f105b47d36c8701ec112317	4	1	main_slash	11	main_slash	39	stimuli_distractor_diamondtriangles.svg	stimuli_target_squarediamonds.svg	16	yes	53	1	517	0	0			0	0			1				0	
6.6.3	ios	2023-06-27	00:43:22	00:51:38	473743	5f105b47d36c8701ec112317	4	1	main_slash	11	advance_on_keypress_SLASH	40	stimuli_distractor_diamondtriangles.svg	stimuli_target_squarediamonds.svg	16	yes	57	0	103	0	0			0	0			1				0	
6.6.3	ios	2023-06-27	00:43:22	00:51:39	474879	5f105b47d36c8701ec112317	4	1	main_slash	11	main_slash	41	stimuli_distractor_diamondtriangles.svg	stimuli_target_rectanglediamonds.svg	14	yes	53	1	317	0	0			0	0			1				0	
6.6.3	ios	2023-06-27	00:43:22	00:51:39	474879	5f105b47d36c8701ec112317	4	1	main_slash	11	advance_on_keypress_SLASH	42	stimuli_distractor_diamondtriangles.svg	stimuli_target_rectanglediamonds.svg	14	yes	57	0	136	0	0			0	0			1				0	
6.6.3	ios	2023-06-27	00:43:22	00:51:40	476227	5f105b47d36c8701ec112317	4	1	main_slash	11	main_slash	43	stimuli_target_squaretriangles.svg	stimuli_distractor_diamondtriangles.svg	7	yes	53	1	467	0	0			0	0			1				0	
6.6.3	ios	2023-06-27	00:43:22	00:51:40	476227	5f105b47d36c8701ec112317	4	1	main_slash	11	advance_on_keypress_SLASH	44	stimuli_target_squaretriangles.svg	stimuli_distractor_diamondtriangles.svg	7	yes	57	0	254	0	0			0	0			1				0	
6.6.3	ios	2023-06-27	00:43:22	00:51:42	477514	5f105b47d36c8701ec112317	4	1	main_slash	11	main_slash	45	stimuli_target_trianglerectangles.svg	stimuli_distractor_diamondtriangles.svg	21	yes	53	1	316	0	0			0	0			1				0	
6.6.3	ios	2023-06-27	00:43:22	00:51:42	477514	5f105b47d36c8701ec112317	4	1	main_slash	11	advance_on_keypress_SLASH	46	stimuli_target_trianglerectangles.svg	stimuli_distractor_diamondtriangles.svg	21	yes	57	0	536	0	0			0	0			1				0	
6.6.3	ios	2023-06-27	00:43:22	00:51:43	479115	5f105b47d36c8701ec112317	4	1	main_slash	11	main_slash	47	stimuli_distractor_trianglediamonds.svg	stimuli_target_trianglesquares.svg	26	yes	53	1	350	0	0			0	0			1				0	
6.6.3	ios	2023-06-27	00:43:22	00:51:43	479115	5f105b47d36c8701ec112317	4	1	main_slash	11	advance_on_keypress_SLASH	48	stimuli_distractor_trianglediamonds.svg	stimuli_target_trianglesquares.svg	26	yes	57	0	170	0	0			0	0			1				0	
6.6.3	ios	2023-06-27	00:43:22	00:51:45	480462	5f105b47d36c8701ec112317	4	1	main_slash	11	main_slash	49	stimuli_distractor_trianglediamonds.svg	stimuli_distractor_diamondtriangles.svg	35	no	53	0	433	0	0			0	0			1				0	
6.6.3	ios	2023-06-27	00:43:22	00:51:45	480462	5f105b47d36c8701ec112317	4	1	main_slash	11	advance_on_keypress_SLASH	50	stimuli_distractor_trianglediamonds.svg	stimuli_distractor_diamondtriangles.svg	35	no	57	0	954	0	0			0	0			1				0	
6.6.3	ios	2023-06-27	00:43:22	00:51:48	484136	5f105b47d36c8701ec112317	4	1	main_slash	11	main_slash	51	stimuli_distractor_diamondtriangles.svg	stimuli_distractor_diamondtriangles.svg	39	no	0	1	2000	0	0			0	0			1				0	
6.6.3	ios	2023-06-27	00:43:22	00:51:48	484136	5f105b47d36c8701ec112317	4	1	main_slash	11	advance_on_keypress_SLASH	52	stimuli_distractor_diamondtriangles.svg	stimuli_distractor_diamondtriangles.svg	39	no	57	0	254	0	0			0	0			1				0	
6.6.3	ios	2023-06-27	00:43:22	00:51:50	485582	5f105b47d36c8701ec112317	4	1	main_slash	11	main_slash	53	stimuli_distractor_diamondtriangles.svg	stimuli_target_rectangletriangles.svg	13	yes	53	1	501	0	0			0	0			1				0	
6.6.3	ios	2023-06-27	00:43:22	00:51:50	485582	5f105b47d36c8701ec112317	4	1	main_slash	11	advance_on_keypress_SLASH	54	stimuli_distractor_diamondtriangles.svg	stimuli_target_rectangletriangles.svg	13	yes	57	0	103	0	0			0	0			1				0	
6.6.3	ios	2023-06-27	00:43:22	00:51:51	487337	5f105b47d36c8701ec112317	4	1	main_slash	11	main_slash	55	stimuli_distractor_trianglediamonds.svg	stimuli_target_trianglerectangles.svg	25	yes	53	1	918	0	0			0	0			1				0	
6.6.3	ios	2023-06-27	00:43:22	00:51:51	487337	5f105b47d36c8701ec112317	4	1	main_slash	11	advance_on_keypress_SLASH	56	stimuli_distractor_trianglediamonds.svg	stimuli_target_trianglerectangles.svg	25	yes	57	0	136	0	0			0	0			1				0	
6.6.3	ios	2023-06-27	00:43:22	00:51:53	488735	5f105b47d36c8701ec112317	4	1	main_slash	11	main_slash	57	stimuli_target_rectanglediamonds.svg	stimuli_distractor_diamondtriangles.svg	6	yes	53	1	517	0	0			0	0			1				0	
6.6.3	ios	2023-06-27	00:43:22	00:51:53	488735	5f105b47d36c8701ec112317	4	1	main_slash	11	advance_on_keypress_SLASH	58	stimuli_target_rectanglediamonds.svg	stimuli_distractor_diamondtriangles.svg	6	yes	57	0	121	0	0			0	0			1				0	
6.6.3	ios	2023-06-27	00:43:22	00:51:56	491575	5f105b47d36c8701ec112317	4	1	main_slash	11	main_slash	59	stimuli_distractor_diamondtriangles.svg	stimuli_distractor_trianglediamonds.svg	38	no	0	1	2000	0	0			0	0			1				0	
6.6.3	ios	2023-06-27	00:43:22	00:51:56	491575	5f105b47d36c8701ec112317	4	1	main_slash	11	advance_on_keypress_SLASH	60	stimuli_distractor_diamondtriangles.svg	stimuli_distractor_trianglediamonds.svg	38	no	57	0	287	0	0			0	0			1				0	
6.6.3	ios	2023-06-27	00:43:22	00:51:57	493322	5f105b47d36c8701ec112317	4	1	main_slash	11	main_slash	61	stimuli_distractor_diamondtriangles.svg	stimuli_target_trianglerectangles.svg	29	yes	53	1	751	0	0			0	0			1				0	
6.6.3	ios	2023-06-27	00:43:22	00:51:57	493322	5f105b47d36c8701ec112317	4	1	main_slash	11	advance_on_keypress_SLASH	62	stimuli_distractor_diamondtriangles.svg	stimuli_target_trianglerectangles.svg	29	yes	57	0	120	0	0			0	0			1				0	
6.6.3	ios	2023-06-27	00:43:22	00:51:59	494689	5f105b47d36c8701ec112317	4	1	main_slash	11	main_slash	63	stimuli_distractor_diamondtriangles.svg	stimuli_target_trianglesquares.svg	30	yes	53	1	501	0	0			0	0			1				0	
6.6.3	ios	2023-06-27	00:43:22	00:51:59	494689	5f105b47d36c8701ec112317	4	1	main_slash	11	advance_on_keypress_SLASH	64	stimuli_distractor_diamondtriangles.svg	stimuli_target_trianglesquares.svg	30	yes	57	0	137	0	0			0	0			1				0	
6.6.3	ios	2023-06-27	00:43:22	00:52:00	496174	5f105b47d36c8701ec112317	4	1	main_slash	11	main_slash	65	stimuli_target_rectangletriangles.svg	stimuli_distractor_trianglediamonds.svg	1	yes	53	1	617	0	0			0	0			1				0	
6.6.3	ios	2023-06-27	00:43:22	00:52:00	496174	5f105b47d36c8701ec112317	4	1	main_slash	11	advance_on_keypress_SLASH	66	stimuli_target_rectangletriangles.svg	stimuli_distractor_trianglediamonds.svg	1	yes	57	0	120	0	0			0	0			1				0	
6.6.3	ios	2023-06-27	00:43:22	00:52:01	497308	5f105b47d36c8701ec112317	4	1	main_slash	11	main_slash	67	stimuli_target_trianglerectangles.svg	stimuli_distractor_trianglediamonds.svg	17	yes	53	1	267	0	0			0	0			1				0	
6.6.3	ios	2023-06-27	00:43:22	00:52:01	497308	5f105b47d36c8701ec112317	4	1	main_slash	11	advance_on_keypress_SLASH	68	stimuli_target_trianglerectangles.svg	stimuli_distractor_trianglediamonds.svg	17	yes	57	0	1423	0	0			0	0			1				0	
6.6.3	ios	2023-06-27	00:43:22	00:52:04	499942	5f105b47d36c8701ec112317	4	1	main_slash	11	main_slash	69	stimuli_distractor_trianglediamonds.svg	stimuli_target_diamondrectangles.svg	27	yes	53	1	483	0	0			0	0			1				0	
6.6.3	ios	2023-06-27	00:43:22	00:52:04	499942	5f105b47d36c8701ec112317	4	1	main_slash	11	advance_on_keypress_SLASH	70	stimuli_distractor_trianglediamonds.svg	stimuli_target_diamondrectangles.svg	27	yes	57	0	70	0	0			0	0			1				0	
6.6.3	ios	2023-06-27	00:43:22	00:52:05	501096	5f105b47d36c8701ec112317	4	1	main_slash	11	main_slash	71	stimuli_distractor_trianglediamonds.svg	stimuli_distractor_trianglediamonds.svg	33	no	53	0	351	0	0			0	0			1				0	
6.6.3	ios	2023-06-27	00:43:22	00:52:05	501096	5f105b47d36c8701ec112317	4	1	main_slash	11	advance_on_keypress_SLASH	72	stimuli_distractor_trianglediamonds.svg	stimuli_distractor_trianglediamonds.svg	33	no	57	0	638	0	0			0	0			1				0	
6.6.3	ios	2023-06-27	00:43:22	00:52:07	503093	5f105b47d36c8701ec112317	4	1	main_slash	11	main_slash	73	stimuli_distractor_diamondtriangles.svg	stimuli_target_squaretriangles.svg	15	yes	53	1	634	0	0			0	0			1				0	
6.6.3	ios	2023-06-27	00:43:22	00:52:07	503093	5f105b47d36c8701ec112317	4	1	main_slash	11	advance_on_keypress_SLASH	74	stimuli_distractor_diamondtriangles.svg	stimuli_target_squaretriangles.svg	15	yes	57	0	87	0	0			0	0			1				0	
6.6.3	ios	2023-06-27	00:43:22	00:52:09	504897	5f105b47d36c8701ec112317	4	1	main_slash	11	main_slash	75	stimuli_target_trianglesquares.svg	stimuli_distractor_diamondtriangles.svg	22	yes	53	1	984	0	0			0	0			1				0	
6.6.3	ios	2023-06-27	00:43:22	00:52:09	504897	5f105b47d36c8701ec112317	4	1	main_slash	11	advance_on_keypress_SLASH	76	stimuli_target_trianglesquares.svg	stimuli_distractor_diamondtriangles.svg	22	yes	57	0	103	0	0			0	0			1				0	
6.6.3	ios	2023-06-27	00:43:22	00:52:12	507734	5f105b47d36c8701ec112317	4	1	main_slash	11	main_slash	77	stimuli_target_diamondsquares.svg	stimuli_distractor_trianglediamonds.svg	20	yes	0	0	2000	0	0			0	0			1				0	
6.6.3	ios	2023-06-27	00:43:22	00:52:12	507734	5f105b47d36c8701ec112317	4	1	main_slash	11	advance_on_keypress_SLASH	78	stimuli_target_diamondsquares.svg	stimuli_distractor_trianglediamonds.svg	20	yes	57	0	203	0	0			0	0			1				0	
6.6.3	ios	2023-06-27	00:43:22	00:52:13	509118	5f105b47d36c8701ec112317	4	1	main_slash	11	main_slash	79	stimuli_target_rectangletriangles.svg	stimuli_distractor_diamondtriangles.svg	5	yes	53	1	484	0	0			0	0			1				0	
6.6.3	ios	2023-06-27	00:43:22	00:52:13	509118	5f105b47d36c8701ec112317	4	1	main_slash	11	advance_on_keypress_SLASH	80	stimuli_target_rectangletriangles.svg	stimuli_distractor_diamondtriangles.svg	5	yes	57	0	120	0	0			0	0			1				0	
6.6.3	ios	2023-06-27	00:43:22	00:52:15	510448	5f105b47d36c8701ec112317	4	1	main_slash	11	main_slash	81	stimuli_target_squarediamonds.svg	stimuli_distractor_trianglediamonds.svg	4	yes	53	1	466	0	0			0	0			1				0	
6.6.3	ios	2023-06-27	00:43:22	00:52:15	510448	5f105b47d36c8701ec112317	4	1	main_slash	11	advance_on_keypress_SLASH	82	stimuli_target_squarediamonds.svg	stimuli_distractor_trianglediamonds.svg	4	yes	57	0	104	0	0			0	0			1				0	
6.6.3	ios	2023-06-27	00:43:22	00:52:16	511716	5f105b47d36c8701ec112317	4	1	main_slash	11	main_slash	83	stimuli_target_squaretriangles.svg	stimuli_distractor_diamondtriangles.svg	7	yes	53	1	418	0	0			0	0			1				0	
6.6.3	ios	2023-06-27	00:43:22	00:52:16	511716	5f105b47d36c8701ec112317	4	1	main_slash	11	advance_on_keypress_SLASH	84	stimuli_target_squaretriangles.svg	stimuli_distractor_diamondtriangles.svg	7	yes	57	0	120	0	0			0	0			1				0	
6.6.3	ios	2023-06-27	00:43:22	00:52:17	513017	5f105b47d36c8701ec112317	4	1	main_slash	11	main_slash	85	stimuli_distractor_trianglediamonds.svg	stimuli_target_rectanglediamonds.svg	10	yes	53	1	434	0	0			0	0			1				0	
6.6.3	ios	2023-06-27	00:43:22	00:52:17	513017	5f105b47d36c8701ec112317	4	1	main_slash	11	advance_on_keypress_SLASH	86	stimuli_distractor_trianglediamonds.svg	stimuli_target_rectanglediamonds.svg	10	yes	57	0	104	0	0			0	0			1				0	
6.6.3	ios	2023-06-27	00:43:22	00:52:18	514335	5f105b47d36c8701ec112317	4	1	main_slash	11	main_slash	87	stimuli_target_rectanglediamonds.svg	stimuli_distractor_trianglediamonds.svg	2	yes	53	1	467	0	0			0	0			1				0	
6.6.3	ios	2023-06-27	00:43:22	00:52:18	514335	5f105b47d36c8701ec112317	4	1	main_slash	11	advance_on_keypress_SLASH	88	stimuli_target_rectanglediamonds.svg	stimuli_distractor_trianglediamonds.svg	2	yes	57	0	87	0	0			0	0			1				0	
6.6.3	ios	2023-06-27	00:43:22	00:52:20	515586	5f105b47d36c8701ec112317	4	1	main_slash	11	main_slash	89	stimuli_distractor_trianglediamonds.svg	stimuli_target_squarediamonds.svg	12	yes	53	1	417	0	0			0	0			1				0	
6.6.3	ios	2023-06-27	00:43:22	00:52:20	515586	5f105b47d36c8701ec112317	4	1	main_slash	11	advance_on_keypress_SLASH	90	stimuli_distractor_trianglediamonds.svg	stimuli_target_squarediamonds.svg	12	yes	57	0	103	0	0			0	0			1				0	
6.6.3	ios	2023-06-27	00:43:22	00:52:22	517941	5f105b47d36c8701ec112317	4	1	main_slash	11	main_slash	91	stimuli_target_diamondrectangles.svg	stimuli_distractor_trianglediamonds.svg	19	yes	53	1	1518	0	0			0	0			1				0	
6.6.3	ios	2023-06-27	00:43:22	00:52:22	517941	5f105b47d36c8701ec112317	4	1	main_slash	11	advance_on_keypress_SLASH	92	stimuli_target_diamondrectangles.svg	stimuli_distractor_trianglediamonds.svg	19	yes	57	0	370	0	0			0	0			1				0	
6.6.3	ios	2023-06-27	00:43:22	00:52:25	521028	5f105b47d36c8701ec112317	4	1	main_slash	11	main_slash	93	stimuli_target_trianglerectangles.svg	stimuli_distractor_diamondtriangles.svg	21	yes	0	0	2000	0	0			0	0			1				0	
6.6.3	ios	2023-06-27	00:43:22	00:52:25	521028	5f105b47d36c8701ec112317	4	1	main_slash	11	advance_on_keypress_SLASH	94	stimuli_target_trianglerectangles.svg	stimuli_distractor_diamondtriangles.svg	21	yes	57	0	271	0	0			0	0			1				0	
6.6.3	ios	2023-06-27	00:43:22	00:52:27	522979	5f105b47d36c8701ec112317	4	1	main_slash	11	main_slash	95	stimuli_distractor_trianglediamonds.svg	stimuli_target_diamondrectangles.svg	27	yes	53	1	968	0	0			0	0			1				0	
6.6.3	ios	2023-06-27	00:43:22	00:52:27	522979	5f105b47d36c8701ec112317	4	1	main_slash	11	advance_on_keypress_SLASH	96	stimuli_distractor_trianglediamonds.svg	stimuli_target_diamondrectangles.svg	27	yes	57	0	119	0	0			0	0			1				0	
6.6.3	ios	2023-06-27	00:43:22	00:52:30	525831	5f105b47d36c8701ec112317	4	1	main_slash	11	main_slash	97	stimuli_target_trianglerectangles.svg	stimuli_distractor_trianglediamonds.svg	17	yes	0	0	2000	0	0			0	0			1				0	
6.6.3	ios	2023-06-27	00:43:22	00:52:30	525831	5f105b47d36c8701ec112317	4	1	main_slash	11	advance_on_keypress_SLASH	98	stimuli_target_trianglerectangles.svg	stimuli_distractor_trianglediamonds.svg	17	yes	57	0	304	0	0			0	0			1				0	
6.6.3	ios	2023-06-27	00:43:22	00:52:32	527449	5f105b47d36c8701ec112317	4	1	main_slash	11	main_slash	99	stimuli_distractor_trianglediamonds.svg	stimuli_distractor_diamondtriangles.svg	36	no	53	0	618	0	0			0	0			1				0	
6.6.3	ios	2023-06-27	00:43:22	00:52:32	527449	5f105b47d36c8701ec112317	4	1	main_slash	11	advance_on_keypress_SLASH	100	stimuli_distractor_trianglediamonds.svg	stimuli_distractor_diamondtriangles.svg	36	no	57	0	120	0	0			0	0			1				0	
6.6.3	ios	2023-06-27	00:43:22	00:52:33	528879	5f105b47d36c8701ec112317	4	1	main_slash	11	main_slash	101	stimuli_target_rectangletriangles.svg	stimuli_distractor_trianglediamonds.svg	1	yes	53	1	566	0	0			0	0			1				0	
6.6.3	ios	2023-06-27	00:43:22	00:52:33	528879	5f105b47d36c8701ec112317	4	1	main_slash	11	advance_on_keypress_SLASH	102	stimuli_target_rectangletriangles.svg	stimuli_distractor_trianglediamonds.svg	1	yes	57	0	1071	0	0			0	0			1				0	
6.6.3	ios	2023-06-27	00:43:22	00:52:35	531351	5f105b47d36c8701ec112317	4	1	main_slash	11	main_slash	103	stimuli_distractor_trianglediamonds.svg	stimuli_target_trianglesquares.svg	26	yes	53	1	684	0	0			0	0			1				0	
6.6.3	ios	2023-06-27	00:43:22	00:52:35	531351	5f105b47d36c8701ec112317	4	1	main_slash	11	advance_on_keypress_SLASH	104	stimuli_distractor_trianglediamonds.svg	stimuli_target_trianglesquares.svg	26	yes	57	0	147	0	0			0	0			1				0	
6.6.3	ios	2023-06-27	00:43:22	00:52:37	532732	5f105b47d36c8701ec112317	4	1	main_slash	11	main_slash	105	stimuli_target_squarediamonds.svg	stimuli_distractor_diamondtriangles.svg	8	yes	53	1	500	0	0			0	0			1				0	
6.6.3	ios	2023-06-27	00:43:22	00:52:37	532732	5f105b47d36c8701ec112317	4	1	main_slash	11	advance_on_keypress_SLASH	106	stimuli_target_squarediamonds.svg	stimuli_distractor_diamondtriangles.svg	8	yes	57	0	120	0	0			0	0			1				0	
6.6.3	ios	2023-06-27	00:43:22	00:52:38	533835	5f105b47d36c8701ec112317	4	1	main_slash	11	main_slash	107	stimuli_distractor_diamondtriangles.svg	stimuli_distractor_diamondtriangles.svg	39	no	53	0	268	0	0			0	0			1				0	
6.6.3	ios	2023-06-27	00:43:22	00:52:38	533835	5f105b47d36c8701ec112317	4	1	main_slash	11	advance_on_keypress_SLASH	108	stimuli_distractor_diamondtriangles.svg	stimuli_distractor_diamondtriangles.svg	39	no	57	0	1440	0	0			0	0			1				0	
6.6.3	ios	2023-06-27	00:43:22	00:52:41	536584	5f105b47d36c8701ec112317	4	1	main_slash	11	main_slash	109	stimuli_distractor_trianglediamonds.svg	stimuli_distractor_diamondtriangles.svg	35	no	53	0	583	0	0			0	0			1				0	
6.6.3	ios	2023-06-27	00:43:22	00:52:41	536584	5f105b47d36c8701ec112317	4	1	main_slash	11	advance_on_keypress_SLASH	110	stimuli_distractor_trianglediamonds.svg	stimuli_distractor_diamondtriangles.svg	35	no	57	0	638	0	0			0	0			1				0	
6.6.3	ios	2023-06-27	00:43:22	00:52:42	538239	5f105b47d36c8701ec112317	4	1	main_slash	11	main_slash	111	stimuli_target_trianglesquares.svg	stimuli_distractor_diamondtriangles.svg	22	yes	53	1	300	0	0			0	0			1				0	
6.6.3	ios	2023-06-27	00:43:22	00:52:42	538239	5f105b47d36c8701ec112317	4	1	main_slash	11	advance_on_keypress_SLASH	112	stimuli_target_trianglesquares.svg	stimuli_distractor_diamondtriangles.svg	22	yes	57	0	153	0	0			0	0			1				0	
6.6.3	ios	2023-06-27	00:43:22	00:52:44	539620	5f105b47d36c8701ec112317	4	1	main_slash	11	main_slash	113	stimuli_distractor_trianglediamonds.svg	stimuli_target_squaretriangles.svg	11	yes	53	1	484	0	0			0	0			1				0	
6.6.3	ios	2023-06-27	00:43:22	00:52:44	539620	5f105b47d36c8701ec112317	4	1	main_slash	11	advance_on_keypress_SLASH	114	stimuli_distractor_trianglediamonds.svg	stimuli_target_squaretriangles.svg	11	yes	57	0	70	0	0			0	0			1				0	
6.6.3	ios	2023-06-27	00:43:22	00:52:45	540688	5f105b47d36c8701ec112317	4	1	main_slash	11	main_slash	115	stimuli_distractor_diamondtriangles.svg	stimuli_target_squarediamonds.svg	16	yes	53	1	250	0	0			0	0			1				0	
6.6.3	ios	2023-06-27	00:43:22	00:52:45	540688	5f105b47d36c8701ec112317	4	1	main_slash	11	advance_on_keypress_SLASH	116	stimuli_distractor_diamondtriangles.svg	stimuli_target_squarediamonds.svg	16	yes	57	0	103	0	0			0	0			1				0	
6.6.3	ios	2023-06-27	00:43:22	00:52:46	541875	5f105b47d36c8701ec112317	4	1	main_slash	11	main_slash	117	stimuli_target_rectanglediamonds.svg	stimuli_distractor_diamondtriangles.svg	6	yes	53	1	350	0	0			0	0			1				0	
6.6.3	ios	2023-06-27	00:43:22	00:52:46	541875	5f105b47d36c8701ec112317	4	1	main_slash	11	advance_on_keypress_SLASH	118	stimuli_target_rectanglediamonds.svg	stimuli_distractor_diamondtriangles.svg	6	yes	57	0	154	0	0			0	0			1				0	
6.6.3	ios	2023-06-27	00:43:22	00:52:49	544762	5f105b47d36c8701ec112317	4	1	main_slash	11	main_slash	119	stimuli_distractor_diamondtriangles.svg	stimuli_distractor_diamondtriangles.svg	40	no	0	1	2000	0	0			0	0			1				0	
6.6.3	ios	2023-06-27	00:43:22	00:52:49	544762	5f105b47d36c8701ec112317	4	1	main_slash	11	advance_on_keypress_SLASH	120	stimuli_distractor_diamondtriangles.svg	stimuli_distractor_diamondtriangles.svg	40	no	57	0	1050	0	0			0	0			1				0	
6.6.3	ios	2023-06-27	00:43:22	00:52:51	547196	5f105b47d36c8701ec112317	4	1	main_slash	11	main_slash	121	stimuli_distractor_trianglediamonds.svg	stimuli_target_trianglerectangles.svg	25	yes	53	1	700	0	0			0	0			1				0	
6.6.3	ios	2023-06-27	00:43:22	00:52:51	547196	5f105b47d36c8701ec112317	4	1	main_slash	11	advance_on_keypress_SLASH	122	stimuli_distractor_trianglediamonds.svg	stimuli_target_trianglerectangles.svg	25	yes	57	0	103	0	0			0	0			1				0	
6.6.3	ios	2023-06-27	00:43:22	00:52:54	550034	5f105b47d36c8701ec112317	4	1	main_slash	11	main_slash	123	stimuli_distractor_diamondtriangles.svg	stimuli_target_diamondsquares.svg	32	yes	0	0	2000	0	0			0	0			1				0	
6.6.3	ios	2023-06-27	00:43:22	00:52:54	550034	5f105b47d36c8701ec112317	4	1	main_slash	11	advance_on_keypress_SLASH	124	stimuli_distractor_diamondtriangles.svg	stimuli_target_diamondsquares.svg	32	yes	57	0	271	0	0			0	0			1				0	
6.6.3	ios	2023-06-27	00:43:22	00:52:55	551266	5f105b47d36c8701ec112317	4	1	main_slash	11	main_slash	125	stimuli_distractor_trianglediamonds.svg	stimuli_distractor_trianglediamonds.svg	34	no	53	0	284	0	0			0	0			1				0	
6.6.3	ios	2023-06-27	00:43:22	00:52:55	551266	5f105b47d36c8701ec112317	4	1	main_slash	11	advance_on_keypress_SLASH	126	stimuli_distractor_trianglediamonds.svg	stimuli_distractor_trianglediamonds.svg	34	no	57	0	586	0	0			0	0			1				0	
6.6.3	ios	2023-06-27	00:43:22	00:52:59	554437	5f105b47d36c8701ec112317	4	1	main_slash	11	main_slash	127	stimuli_target_diamondsquares.svg	stimuli_distractor_diamondtriangles.svg	24	yes	53	1	1869	0	0			0	0			1				0	
6.6.3	ios	2023-06-27	00:43:22	00:52:59	554437	5f105b47d36c8701ec112317	4	1	main_slash	11	advance_on_keypress_SLASH	128	stimuli_target_diamondsquares.svg	stimuli_distractor_diamondtriangles.svg	24	yes	57	0	571	0	0			0	0			1				0	
6.6.3	ios	2023-06-27	00:43:22	00:53:02	557721	5f105b47d36c8701ec112317	4	1	main_slash	11	main_slash	129	stimuli_distractor_trianglediamonds.svg	stimuli_distractor_trianglediamonds.svg	33	no	0	1	2000	0	0			0	0			1				0	
6.6.3	ios	2023-06-27	00:43:22	00:53:02	557721	5f105b47d36c8701ec112317	4	1	main_slash	11	advance_on_keypress_SLASH	130	stimuli_distractor_trianglediamonds.svg	stimuli_distractor_trianglediamonds.svg	33	no	57	0	287	0	0			0	0			1				0	
6.6.3	ios	2023-06-27	00:43:22	00:53:04	559840	5f105b47d36c8701ec112317	4	1	main_slash	11	main_slash	131	stimuli_target_diamondrectangles.svg	stimuli_distractor_diamondtriangles.svg	23	yes	53	1	1152	0	0			0	0			1				0	
6.6.3	ios	2023-06-27	00:43:22	00:53:04	559840	5f105b47d36c8701ec112317	4	1	main_slash	11	advance_on_keypress_SLASH	132	stimuli_target_diamondrectangles.svg	stimuli_distractor_diamondtriangles.svg	23	yes	57	0	387	0	0			0	0			1				0	
6.6.3	ios	2023-06-27	00:43:22	00:53:06	561807	5f105b47d36c8701ec112317	4	1	main_slash	11	main_slash	133	stimuli_target_diamondsquares.svg	stimuli_distractor_trianglediamonds.svg	20	yes	53	1	869	0	0			0	0			1				0	
6.6.3	ios	2023-06-27	00:43:22	00:53:06	561807	5f105b47d36c8701ec112317	4	1	main_slash	11	advance_on_keypress_SLASH	134	stimuli_target_diamondsquares.svg	stimuli_distractor_trianglediamonds.svg	20	yes	57	0	153	0	0			0	0			1				0	
6.6.3	ios	2023-06-27	00:43:22	00:53:07	563122	5f105b47d36c8701ec112317	4	1	main_slash	11	main_slash	135	stimuli_distractor_diamondtriangles.svg	stimuli_target_trianglesquares.svg	30	yes	53	1	417	0	0			0	0			1				0	
6.6.3	ios	2023-06-27	00:43:22	00:53:07	563122	5f105b47d36c8701ec112317	4	1	main_slash	11	advance_on_keypress_SLASH	136	stimuli_distractor_diamondtriangles.svg	stimuli_target_trianglesquares.svg	30	yes	57	0	120	0	0			0	0			1				0	
6.6.3	ios	2023-06-27	00:43:22	00:53:10	565979	5f105b47d36c8701ec112317	4	1	main_slash	11	main_slash	137	stimuli_distractor_diamondtriangles.svg	stimuli_distractor_trianglediamonds.svg	38	no	0	1	2000	0	0			0	0			1				0	
6.6.3	ios	2023-06-27	00:43:22	00:53:10	565979	5f105b47d36c8701ec112317	4	1	main_slash	11	advance_on_keypress_SLASH	138	stimuli_distractor_diamondtriangles.svg	stimuli_distractor_trianglediamonds.svg	38	no	57	0	237	0	0			0	0			1				0	
6.6.3	ios	2023-06-27	00:43:22	00:53:12	567798	5f105b47d36c8701ec112317	4	1	main_slash	11	main_slash	139	stimuli_distractor_diamondtriangles.svg	stimuli_target_diamondrectangles.svg	31	yes	53	1	885	0	0			0	0			1				0	
6.6.3	ios	2023-06-27	00:43:22	00:53:12	567798	5f105b47d36c8701ec112317	4	1	main_slash	11	advance_on_keypress_SLASH	140	stimuli_distractor_diamondtriangles.svg	stimuli_target_diamondrectangles.svg	31	yes	57	0	153	0	0			0	0			1				0	
6.6.3	ios	2023-06-27	00:43:22	00:53:13	569215	5f105b47d36c8701ec112317	4	1	main_slash	11	main_slash	141	stimuli_target_rectangletriangles.svg	stimuli_distractor_diamondtriangles.svg	5	yes	53	1	531	0	0			0	0			1				0	
6.6.3	ios	2023-06-27	00:43:22	00:53:13	569215	5f105b47d36c8701ec112317	4	1	main_slash	11	advance_on_keypress_SLASH	142	stimuli_target_rectangletriangles.svg	stimuli_distractor_diamondtriangles.svg	5	yes	57	0	120	0	0			0	0			1				0	
6.6.3	ios	2023-06-27	00:43:22	00:53:15	570716	5f105b47d36c8701ec112317	4	1	main_slash	11	main_slash	143	stimuli_target_trianglesquares.svg	stimuli_distractor_trianglediamonds.svg	18	yes	53	1	668	0	0			0	0			1				0	
6.6.3	ios	2023-06-27	00:43:22	00:53:15	570716	5f105b47d36c8701ec112317	4	1	main_slash	11	advance_on_keypress_SLASH	144	stimuli_target_trianglesquares.svg	stimuli_distractor_trianglediamonds.svg	18	yes	57	0	104	0	0			0	0			1				0	
6.6.3	ios	2023-06-27	00:43:22	00:53:16	571981	5f105b47d36c8701ec112317	4	1	main_slash	11	main_slash	145	stimuli_distractor_diamondtriangles.svg	stimuli_distractor_trianglediamonds.svg	37	no	53	0	418	0	0			0	0			1				0	
6.6.3	ios	2023-06-27	00:43:22	00:53:16	571981	5f105b47d36c8701ec112317	4	1	main_slash	11	advance_on_keypress_SLASH	146	stimuli_distractor_diamondtriangles.svg	stimuli_distractor_trianglediamonds.svg	37	no	57	0	654	0	0			0	0			1				0	
6.6.3	ios	2023-06-27	00:43:22	00:53:18	573867	5f105b47d36c8701ec112317	4	1	main_slash	11	main_slash	147	stimuli_distractor_trianglediamonds.svg	stimuli_target_rectangletriangles.svg	9	yes	53	1	501	0	0			0	0			1				0	
6.6.3	ios	2023-06-27	00:43:22	00:53:18	573867	5f105b47d36c8701ec112317	4	1	main_slash	11	advance_on_keypress_SLASH	148	stimuli_distractor_trianglediamonds.svg	stimuli_target_rectangletriangles.svg	9	yes	57	0	86	0	0			0	0			1				0	
6.6.3	ios	2023-06-27	00:43:22	00:53:20	575604	5f105b47d36c8701ec112317	4	1	main_slash	11	main_slash	149	stimuli_target_squaretriangles.svg	stimuli_distractor_trianglediamonds.svg	3	yes	53	1	935	0	0			0	0			1				0	
6.6.3	ios	2023-06-27	00:43:22	00:53:20	575604	5f105b47d36c8701ec112317	4	1	main_slash	11	advance_on_keypress_SLASH	150	stimuli_target_squaretriangles.svg	stimuli_distractor_trianglediamonds.svg	3	yes	57	0	137	0	0			0	0			1				0	
6.6.3	ios	2023-06-27	00:43:22	00:53:21	576839	5f105b47d36c8701ec112317	4	1	main_slash	11	main_slash	151	stimuli_distractor_diamondtriangles.svg	stimuli_target_trianglerectangles.svg	29	yes	53	1	367	0	0			0	0			1				0	
6.6.3	ios	2023-06-27	00:43:22	00:53:21	576839	5f105b47d36c8701ec112317	4	1	main_slash	11	advance_on_keypress_SLASH	152	stimuli_distractor_diamondtriangles.svg	stimuli_target_trianglerectangles.svg	29	yes	57	0	287	0	0			0	0			1				0	
6.6.3	ios	2023-06-27	00:43:22	00:53:22	578157	5f105b47d36c8701ec112317	4	1	main_slash	11	main_slash	153	stimuli_distractor_diamondtriangles.svg	stimuli_target_squaretriangles.svg	15	yes	53	1	317	0	0			0	0			1				0	
6.6.3	ios	2023-06-27	00:43:22	00:53:22	578157	5f105b47d36c8701ec112317	4	1	main_slash	11	advance_on_keypress_SLASH	154	stimuli_distractor_diamondtriangles.svg	stimuli_target_squaretriangles.svg	15	yes	57	0	149	0	0			0	0			1				0	
6.6.3	ios	2023-06-27	00:43:22	00:53:23	579325	5f105b47d36c8701ec112317	4	1	main_slash	11	main_slash	155	stimuli_distractor_trianglediamonds.svg	stimuli_target_diamondsquares.svg	28	yes	53	1	300	0	0			0	0			1				0	
6.6.3	ios	2023-06-27	00:43:22	00:53:23	579325	5f105b47d36c8701ec112317	4	1	main_slash	11	advance_on_keypress_SLASH	156	stimuli_distractor_trianglediamonds.svg	stimuli_target_diamondsquares.svg	28	yes	57	0	371	0	0			0	0			1				0	
6.6.3	ios	2023-06-27	00:43:22	00:53:25	580974	5f105b47d36c8701ec112317	4	1	main_slash	11	main_slash	157	stimuli_distractor_diamondtriangles.svg	stimuli_target_rectangletriangles.svg	13	yes	53	1	551	0	0			0	0			1				0	
6.6.3	ios	2023-06-27	00:43:22	00:53:25	580974	5f105b47d36c8701ec112317	4	1	main_slash	11	advance_on_keypress_SLASH	158	stimuli_distractor_diamondtriangles.svg	stimuli_target_rectangletriangles.svg	13	yes	57	0	738	0	0			0	0			1				0	
6.6.3	ios	2023-06-27	00:43:22	00:53:27	582796	5f105b47d36c8701ec112317	4	1	main_slash	11	main_slash	159	stimuli_distractor_diamondtriangles.svg	stimuli_target_rectanglediamonds.svg	14	yes	53	1	368	0	0			0	0			1				0	
6.6.3	ios	2023-06-27	00:43:22	00:53:27	582796	5f105b47d36c8701ec112317	4	1	main_slash	11	advance_on_keypress_SLASH	160	stimuli_distractor_diamondtriangles.svg	stimuli_target_rectanglediamonds.svg	14	yes	57	0	104	0	0			0	0			1				0	
6.6.3	ios	2023-06-27	00:43:22	00:53:27	582796	5f105b47d36c8701ec112317	4	1	headphonecheck_calibration	14	headphonecheck_calibrationIntro	1	stimuli_distractor_diamondtriangles.svg	stimuli_target_rectanglediamonds.svg	14	yes	calibrationButton	0	23462	0	0			0	0			1				0	
6.6.3	ios	2023-06-27	00:43:22	00:53:27	582796	5f105b47d36c8701ec112317	4	1	headphonecheck_testphase	15	test_collectResponse	3	stimuli_distractor_diamondtriangles.svg	stimuli_target_rectanglediamonds.svg	14	yes	first	0	9703	1	6	antiphase_hc_ois.wav	3	0	0			1				0	
6.6.3	ios	2023-06-27	00:43:22	00:53:27	582796	5f105b47d36c8701ec112317	4	1	headphonecheck_testphase	15	test_collectResponse	6	stimuli_distractor_diamondtriangles.svg	stimuli_target_rectanglediamonds.svg	14	yes	second	1	3028	2	1	antiphase_hc_iso.wav	2	0	0			1				0	
6.6.3	ios	2023-06-27	00:43:22	00:53:27	582796	5f105b47d36c8701ec112317	4	1	headphonecheck_testphase	15	test_collectResponse	9	stimuli_distractor_diamondtriangles.svg	stimuli_target_rectanglediamonds.svg	14	yes	second	0	5093	3	2	antiphase_hc_ios.wav	3	0	0			1				0	
6.6.3	ios	2023-06-27	00:43:22	00:53:27	582796	5f105b47d36c8701ec112317	4	1	headphonecheck_testphase	15	test_collectResponse	12	stimuli_distractor_diamondtriangles.svg	stimuli_target_rectanglediamonds.svg	14	yes	first	0	1793	4	5	antiphase_hc_osi.wav	2	0	0			1				0	
6.6.3	ios	2023-06-27	00:43:22	00:53:27	582796	5f105b47d36c8701ec112317	4	1	headphonecheck_testphase	15	test_collectResponse	15	stimuli_distractor_diamondtriangles.svg	stimuli_target_rectanglediamonds.svg	14	yes	second	0	1150	5	3	antiphase_hc_soi.wav	1	0	0			1				0	
6.6.3	ios	2023-06-27	00:43:22	00:53:27	582796	5f105b47d36c8701ec112317	4	1	headphonecheck_testphase	15	test_collectResponse	18	stimuli_distractor_diamondtriangles.svg	stimuli_target_rectanglediamonds.svg	14	yes	third	0	559	6	4	antiphase_hc_sio.wav	1	0	0			1				0	
6.6.3	ios	2023-06-27	00:43:22	00:53:27	582796	5f105b47d36c8701ec112317	4	1	stereocheck_calibration	17	stereocheck_calibrationIntro	1	stimuli_distractor_diamondtriangles.svg	stimuli_target_rectanglediamonds.svg	14	yes	stereocheck_calibrationButton	0	1918	6	4	antiphase_hc_sio.wav	1	0	0			1				0	
6.6.3	ios	2023-06-27	00:43:22	00:53:27	582796	5f105b47d36c8701ec112317	4	1	stereocheck_testphase	18	stereocheck_test_collectResponse	3	stimuli_distractor_diamondtriangles.svg	stimuli_target_rectanglediamonds.svg	14	yes	stereocheck_right	1	351	6	4	antiphase_hc_sio.wav	1	1	6	noise_calib_stim_RIGHT.wav	2	1				0	
6.6.3	ios	2023-06-27	00:43:22	00:53:27	582796	5f105b47d36c8701ec112317	4	1	stereocheck_testphase	18	stereocheck_test_collectResponse	6	stimuli_distractor_diamondtriangles.svg	stimuli_target_rectanglediamonds.svg	14	yes	stereocheck_right	1	1893	6	4	antiphase_hc_sio.wav	1	2	5	noise_calib_stim_RIGHT.wav	2	1				0	
6.6.3	ios	2023-06-27	00:43:22	00:53:27	582796	5f105b47d36c8701ec112317	4	1	stereocheck_testphase	18	stereocheck_test_collectResponse	9	stimuli_distractor_diamondtriangles.svg	stimuli_target_rectanglediamonds.svg	14	yes	stereocheck_left	1	751	6	4	antiphase_hc_sio.wav	1	3	2	noise_calib_stim_LEFT.wav	1	1				0	
6.6.3	ios	2023-06-27	00:43:22	00:53:27	582796	5f105b47d36c8701ec112317	4	1	stereocheck_testphase	18	stereocheck_test_collectResponse	12	stimuli_distractor_diamondtriangles.svg	stimuli_target_rectanglediamonds.svg	14	yes	stereocheck_right	1	1018	6	4	antiphase_hc_sio.wav	1	4	4	noise_calib_stim_RIGHT.wav	2	1				0	
6.6.3	ios	2023-06-27	00:43:22	00:53:27	582796	5f105b47d36c8701ec112317	4	1	stereocheck_testphase	18	stereocheck_test_collectResponse	15	stimuli_distractor_diamondtriangles.svg	stimuli_target_rectanglediamonds.svg	14	yes	stereocheck_right	0	734	6	4	antiphase_hc_sio.wav	1	5	1	noise_calib_stim_LEFT.wav	1	1				0	
6.6.3	ios	2023-06-27	00:43:22	00:53:27	582796	5f105b47d36c8701ec112317	4	1	stereocheck_testphase	18	stereocheck_test_collectResponse	18	stimuli_distractor_diamondtriangles.svg	stimuli_target_rectanglediamonds.svg	14	yes	stereocheck_right	0	551	6	4	antiphase_hc_sio.wav	1	6	3	noise_calib_stim_LEFT.wav	1	1				0	
6.6.3	ios	2023-06-27	00:43:22	00:53:27	582796	5f105b47d36c8701ec112317	4	1	DL_practice	21	DL_practice	2	stimuli_distractor_diamondtriangles.svg	stimuli_target_rectanglediamonds.svg	14	yes	ga	1	1096	6	4	antiphase_hc_sio.wav	1	6	3	noise_calib_stim_LEFT.wav	1	15	blb_dichoticlistening_ga-ga.mp3	ga	ga	0	left
6.6.3	ios	2023-06-27	00:43:22	00:53:27	582796	5f105b47d36c8701ec112317	4	1	DL_practice	21	DL_practice	3	stimuli_distractor_diamondtriangles.svg	stimuli_target_rectanglediamonds.svg	14	yes	pa	1	920	6	4	antiphase_hc_sio.wav	1	6	3	noise_calib_stim_LEFT.wav	1	29	blb_dichoticlistening_pa-pa.mp3	pa	pa	0	left
6.6.3	ios	2023-06-27	00:43:22	00:53:27	582796	5f105b47d36c8701ec112317	4	1	DL_practice	21	DL_practice	4	stimuli_distractor_diamondtriangles.svg	stimuli_target_rectanglediamonds.svg	14	yes	ga	1	1161	6	4	antiphase_hc_sio.wav	1	6	3	noise_calib_stim_LEFT.wav	1	18	blb_dichoticlistening_ga-ta.mp3	ga	ta	1	left
6.6.3	ios	2023-06-27	00:43:22	00:53:27	582796	5f105b47d36c8701ec112317	4	1	DL_practice	21	DL_practice	5	stimuli_distractor_diamondtriangles.svg	stimuli_target_rectanglediamonds.svg	14	yes	ba	1	2029	6	4	antiphase_hc_sio.wav	1	6	3	noise_calib_stim_LEFT.wav	1	1	blb_dichoticlistening_ba-ba.mp3	ba	ba	0	left
6.6.3	ios	2023-06-27	00:43:22	00:53:27	582796	5f105b47d36c8701ec112317	4	1	DL_practice	21	DL_practice	6	stimuli_distractor_diamondtriangles.svg	stimuli_target_rectanglediamonds.svg	14	yes	da	1	845	6	4	antiphase_hc_sio.wav	1	6	3	noise_calib_stim_LEFT.wav	1	8	blb_dichoticlistening_da-da.mp3	da	da	0	left
6.6.3	ios	2023-06-27	00:43:22	00:53:27	582796	5f105b47d36c8701ec112317	4	1	DL_practice	21	DL_practice	7	stimuli_distractor_diamondtriangles.svg	stimuli_target_rectanglediamonds.svg	14	yes	ka	1	694	6	4	antiphase_hc_sio.wav	1	6	3	noise_calib_stim_LEFT.wav	1	23	blb_dichoticlistening_ka-pa.mp3	ka	pa	1	left
6.6.3	ios	2023-06-27	00:43:22	00:53:27	582796	5f105b47d36c8701ec112317	4	1	DL_practice	21	DL_practice	8	stimuli_distractor_diamondtriangles.svg	stimuli_target_rectanglediamonds.svg	14	yes	da	1	1329	6	4	antiphase_hc_sio.wav	1	6	3	noise_calib_stim_LEFT.wav	1	7	blb_dichoticlistening_da-ba.mp3	da	ba	1	left
6.6.3	ios	2023-06-27	00:43:22	00:53:27	582796	5f105b47d36c8701ec112317	4	1	DL_practice	21	DL_practice	9	stimuli_distractor_diamondtriangles.svg	stimuli_target_rectanglediamonds.svg	14	yes	ka	1	770	6	4	antiphase_hc_sio.wav	1	6	3	noise_calib_stim_LEFT.wav	1	22	blb_dichoticlistening_ka-ka.mp3	ka	ka	0	left
6.6.3	ios	2023-06-27	00:43:22	00:53:27	582796	5f105b47d36c8701ec112317	4	1	DL_practice	21	DL_practice	10	stimuli_distractor_diamondtriangles.svg	stimuli_target_rectanglediamonds.svg	14	yes	ta	1	1111	6	4	antiphase_hc_sio.wav	1	6	3	noise_calib_stim_LEFT.wav	1	36	blb_dichoticlistening_ta-ta.mp3	ta	ta	0	left
6.6.3	ios	2023-06-27	00:43:22	00:53:27	582796	5f105b47d36c8701ec112317	4	1	DL_test	23	DL_test	1	stimuli_distractor_diamondtriangles.svg	stimuli_target_rectanglediamonds.svg	14	yes	da	1	943	6	4	antiphase_hc_sio.wav	1	6	3	noise_calib_stim_LEFT.wav	1	9	blb_dichoticlistening_da-ga.mp3	da	ga	1	left
6.6.3	ios	2023-06-27	00:43:22	00:53:27	582796	5f105b47d36c8701ec112317	4	1	DL_test	23	DL_test	2	stimuli_distractor_diamondtriangles.svg	stimuli_target_rectanglediamonds.svg	14	yes	da	1	752	6	4	antiphase_hc_sio.wav	1	6	3	noise_calib_stim_LEFT.wav	1	32	blb_dichoticlistening_ta-da.mp3	ta	da	1	right
6.6.3	ios	2023-06-27	00:43:22	00:53:27	582796	5f105b47d36c8701ec112317	4	1	DL_test	23	DL_test	3	stimuli_distractor_diamondtriangles.svg	stimuli_target_rectanglediamonds.svg	14	yes	pa	0	1370	6	4	antiphase_hc_sio.wav	1	6	3	noise_calib_stim_LEFT.wav	1	6	blb_dichoticlistening_ba-ta.mp3	ba	ta	1	other
6.6.3	ios	2023-06-27	00:43:22	00:53:27	582796	5f105b47d36c8701ec112317	4	1	DL_test	23	DL_test	4	stimuli_distractor_diamondtriangles.svg	stimuli_target_rectanglediamonds.svg	14	yes	ga	1	704	6	4	antiphase_hc_sio.wav	1	6	3	noise_calib_stim_LEFT.wav	1	17	blb_dichoticlistening_ga-pa.mp3	ga	pa	1	left
6.6.3	ios	2023-06-27	00:43:22	00:53:27	582796	5f105b47d36c8701ec112317	4	1	DL_test	23	DL_test	5	stimuli_distractor_diamondtriangles.svg	stimuli_target_rectanglediamonds.svg	14	yes	ba	1	912	6	4	antiphase_hc_sio.wav	1	6	3	noise_calib_stim_LEFT.wav	1	1	blb_dichoticlistening_ba-ba.mp3	ba	ba	0	left
6.6.3	ios	2023-06-27	00:43:22	00:53:27	582796	5f105b47d36c8701ec112317	4	1	DL_test	23	DL_test	6	stimuli_distractor_diamondtriangles.svg	stimuli_target_rectanglediamonds.svg	14	yes	ka	1	758	6	4	antiphase_hc_sio.wav	1	6	3	noise_calib_stim_LEFT.wav	1	34	blb_dichoticlistening_ta-ka.mp3	ta	ka	1	right
6.6.3	ios	2023-06-27	00:43:22	00:53:27	582796	5f105b47d36c8701ec112317	4	1	DL_test	23	DL_test	7	stimuli_distractor_diamondtriangles.svg	stimuli_target_rectanglediamonds.svg	14	yes	da	1	753	6	4	antiphase_hc_sio.wav	1	6	3	noise_calib_stim_LEFT.wav	1	14	blb_dichoticlistening_ga-da.mp3	ga	da	1	right
6.6.3	ios	2023-06-27	00:43:22	00:53:27	582796	5f105b47d36c8701ec112317	4	1	DL_test	23	DL_test	8	stimuli_distractor_diamondtriangles.svg	stimuli_target_rectanglediamonds.svg	14	yes	ga	1	703	6	4	antiphase_hc_sio.wav	1	6	3	noise_calib_stim_LEFT.wav	1	18	blb_dichoticlistening_ga-ta.mp3	ga	ta	1	left
6.6.3	ios	2023-06-27	00:43:22	00:53:27	582796	5f105b47d36c8701ec112317	4	1	DL_test	23	DL_test	9	stimuli_distractor_diamondtriangles.svg	stimuli_target_rectanglediamonds.svg	14	yes	ka	1	1017	6	4	antiphase_hc_sio.wav	1	6	3	noise_calib_stim_LEFT.wav	1	21	blb_dichoticlistening_ka-ga.mp3	ka	ga	1	left
6.6.3	ios	2023-06-27	00:43:22	00:53:27	582796	5f105b47d36c8701ec112317	4	1	DL_test	23	DL_test	10	stimuli_distractor_diamondtriangles.svg	stimuli_target_rectanglediamonds.svg	14	yes	pa	1	1070	6	4	antiphase_hc_sio.wav	1	6	3	noise_calib_stim_LEFT.wav	1	25	blb_dichoticlistening_pa-ba.mp3	pa	ba	1	left
6.6.3	ios	2023-06-27	00:43:22	00:53:27	582796	5f105b47d36c8701ec112317	4	1	DL_test	23	DL_test	11	stimuli_distractor_diamondtriangles.svg	stimuli_target_rectanglediamonds.svg	14	yes	pa	0	1150	6	4	antiphase_hc_sio.wav	1	6	3	noise_calib_stim_LEFT.wav	1	31	blb_dichoticlistening_ta-ba.mp3	ta	ba	1	other
6.6.3	ios	2023-06-27	00:43:22	00:53:27	582796	5f105b47d36c8701ec112317	4	1	DL_test	23	DL_test	12	stimuli_distractor_diamondtriangles.svg	stimuli_target_rectanglediamonds.svg	14	yes	ba	1	1950	6	4	antiphase_hc_sio.wav	1	6	3	noise_calib_stim_LEFT.wav	1	2	blb_dichoticlistening_ba-da.mp3	ba	da	1	left
6.6.3	ios	2023-06-27	00:43:22	00:53:27	582796	5f105b47d36c8701ec112317	4	1	DL_test	23	DL_test	13	stimuli_distractor_diamondtriangles.svg	stimuli_target_rectanglediamonds.svg	14	yes	da	1	879	6	4	antiphase_hc_sio.wav	1	6	3	noise_calib_stim_LEFT.wav	1	10	blb_dichoticlistening_da-ka.mp3	da	ka	1	left
6.6.3	ios	2023-06-27	00:43:22	00:53:27	582796	5f105b47d36c8701ec112317	4	1	DL_test	23	DL_test	14	stimuli_distractor_diamondtriangles.svg	stimuli_target_rectanglediamonds.svg	14	yes	ka	1	858	6	4	antiphase_hc_sio.wav	1	6	3	noise_calib_stim_LEFT.wav	1	28	blb_dichoticlistening_pa-ka.mp3	pa	ka	1	right
6.6.3	ios	2023-06-27	00:43:22	00:53:27	582796	5f105b47d36c8701ec112317	4	1	DL_test	23	DL_test	15	stimuli_distractor_diamondtriangles.svg	stimuli_target_rectanglediamonds.svg	14	yes	pa	1	717	6	4	antiphase_hc_sio.wav	1	6	3	noise_calib_stim_LEFT.wav	1	29	blb_dichoticlistening_pa-pa.mp3	pa	pa	0	left
6.6.3	ios	2023-06-27	00:43:22	00:53:27	582796	5f105b47d36c8701ec112317	4	1	DL_test	23	DL_test	16	stimuli_distractor_diamondtriangles.svg	stimuli_target_rectanglediamonds.svg	14	yes	da	1	986	6	4	antiphase_hc_sio.wav	1	6	3	noise_calib_stim_LEFT.wav	1	12	blb_dichoticlistening_da-ta.mp3	da	ta	1	left
6.6.3	ios	2023-06-27	00:43:22	00:53:27	582796	5f105b47d36c8701ec112317	4	1	DL_test	23	DL_test	17	stimuli_distractor_diamondtriangles.svg	stimuli_target_rectanglediamonds.svg	14	yes	ta	1	561	6	4	antiphase_hc_sio.wav	1	6	3	noise_calib_stim_LEFT.wav	1	36	blb_dichoticlistening_ta-ta.mp3	ta	ta	0	left
6.6.3	ios	2023-06-27	00:43:22	00:53:27	582796	5f105b47d36c8701ec112317	4	1	DL_test	23	DL_test	18	stimuli_distractor_diamondtriangles.svg	stimuli_target_rectanglediamonds.svg	14	yes	pa	1	1220	6	4	antiphase_hc_sio.wav	1	6	3	noise_calib_stim_LEFT.wav	1	5	blb_dichoticlistening_ba-pa.mp3	ba	pa	1	right
6.6.3	ios	2023-06-27	00:43:22	00:53:27	582796	5f105b47d36c8701ec112317	4	1	DL_test	23	DL_test	19	stimuli_distractor_diamondtriangles.svg	stimuli_target_rectanglediamonds.svg	14	yes	ga	1	744	6	4	antiphase_hc_sio.wav	1	6	3	noise_calib_stim_LEFT.wav	1	15	blb_dichoticlistening_ga-ga.mp3	ga	ga	0	left
6.6.3	ios	2023-06-27	00:43:22	00:53:27	582796	5f105b47d36c8701ec112317	4	1	DL_test	23	DL_test	20	stimuli_distractor_diamondtriangles.svg	stimuli_target_rectanglediamonds.svg	14	yes	da	1	660	6	4	antiphase_hc_sio.wav	1	6	3	noise_calib_stim_LEFT.wav	1	11	blb_dichoticlistening_da-pa.mp3	da	pa	1	left
6.6.3	ios	2023-06-27	00:43:22	00:53:27	582796	5f105b47d36c8701ec112317	4	1	DL_test	23	DL_test	21	stimuli_distractor_diamondtriangles.svg	stimuli_target_rectanglediamonds.svg	14	yes	ka	1	1620	6	4	antiphase_hc_sio.wav	1	6	3	noise_calib_stim_LEFT.wav	1	20	blb_dichoticlistening_ka-da.mp3	ka	da	1	left
6.6.3	ios	2023-06-27	00:43:22	00:53:27	582796	5f105b47d36c8701ec112317	4	1	DL_test	23	DL_test	22	stimuli_distractor_diamondtriangles.svg	stimuli_target_rectanglediamonds.svg	14	yes	da	1	1504	6	4	antiphase_hc_sio.wav	1	6	3	noise_calib_stim_LEFT.wav	1	7	blb_dichoticlistening_da-ba.mp3	da	ba	1	left
6.6.3	ios	2023-06-27	00:43:22	00:53:27	582796	5f105b47d36c8701ec112317	4	1	DL_test	23	DL_test	23	stimuli_distractor_diamondtriangles.svg	stimuli_target_rectanglediamonds.svg	14	yes	ka	1	875	6	4	antiphase_hc_sio.wav	1	6	3	noise_calib_stim_LEFT.wav	1	23	blb_dichoticlistening_ka-pa.mp3	ka	pa	1	left
6.6.3	ios	2023-06-27	00:43:22	00:53:27	582796	5f105b47d36c8701ec112317	4	1	DL_test	23	DL_test	24	stimuli_distractor_diamondtriangles.svg	stimuli_target_rectanglediamonds.svg	14	yes	ta	1	1037	6	4	antiphase_hc_sio.wav	1	6	3	noise_calib_stim_LEFT.wav	1	35	blb_dichoticlistening_ta-pa.mp3	ta	pa	1	left
6.6.3	ios	2023-06-27	00:43:22	00:53:27	582796	5f105b47d36c8701ec112317	4	1	DL_test	23	DL_test	25	stimuli_distractor_diamondtriangles.svg	stimuli_target_rectanglediamonds.svg	14	yes	ka	1	1327	6	4	antiphase_hc_sio.wav	1	6	3	noise_calib_stim_LEFT.wav	1	24	blb_dichoticlistening_ka-ta.mp3	ka	ta	1	left
6.6.3	ios	2023-06-27	00:43:22	00:53:27	582796	5f105b47d36c8701ec112317	4	1	DL_test	23	DL_test	26	stimuli_distractor_diamondtriangles.svg	stimuli_target_rectanglediamonds.svg	14	yes	ta	1	717	6	4	antiphase_hc_sio.wav	1	6	3	noise_calib_stim_LEFT.wav	1	30	blb_dichoticlistening_pa-ta.mp3	pa	ta	1	right
