build	computer.platform	date	time	timestamp	time_elapsed_ms	subject	group	session	blockcode	blocknum	trialcode	trialnum	stimulus_left	stimulus_right	stim_index	target_present	response	correct	latency	headphonecheck_countTestTrials	headphonecheck_index	headphonecheck_testSound	headphonecheck_correctResponse	stereocheck_countTestTrials	stereocheck_index	stereocheck_testSound	stereocheck_correctResponse	DL_index	DL_soundfile	DL_leftSound	DL_rightSound	DL_dualSound	DL_choice
6.6.1	win	2023-06-12	15:32:37	15:37:08	258400	57dab7f721d77800018e42fe	3	1	practice_slash	5	practice_slash	1	stimuli_distractor_trianglediamonds.svg	stimuli_target_squarediamonds.svg	11	yes	53	1	429	0	0			0	0			1				0	
6.6.1	win	2023-06-12	15:32:37	15:37:08	258400	57dab7f721d77800018e42fe	3	1	practice_slash	5	advance_on_keypress_SLASH	2	stimuli_distractor_trianglediamonds.svg	stimuli_target_squarediamonds.svg	11	yes	57	0	1756	0	0			0	0			1				0	
6.6.1	win	2023-06-12	15:32:37	15:37:12	262347	57dab7f721d77800018e42fe	3	1	practice_slash	5	practice_slash	3	stimuli_target_squarediamonds.svg	stimuli_distractor_trianglediamonds.svg	5	yes	53	1	546	0	0			0	0			1				0	
6.6.1	win	2023-06-12	15:32:37	15:37:12	262347	57dab7f721d77800018e42fe	3	1	practice_slash	5	advance_on_keypress_SLASH	4	stimuli_target_squarediamonds.svg	stimuli_distractor_trianglediamonds.svg	5	yes	57	0	427	0	0			0	0			1				0	
6.6.1	win	2023-06-12	15:32:37	15:37:15	265110	57dab7f721d77800018e42fe	3	1	practice_slash	5	practice_slash	5	stimuli_distractor_diamondtriangles.svg	stimuli_target_trianglerectangles.svg	9	yes	53	1	692	0	0			0	0			1				0	
6.6.1	win	2023-06-12	15:32:37	15:37:15	265110	57dab7f721d77800018e42fe	3	1	practice_slash	5	advance_on_keypress_SLASH	6	stimuli_distractor_diamondtriangles.svg	stimuli_target_trianglerectangles.svg	9	yes	57	0	393	0	0			0	0			1				0	
6.6.1	win	2023-06-12	15:32:37	15:37:18	267922	57dab7f721d77800018e42fe	3	1	practice_slash	5	practice_slash	7	stimuli_distractor_trianglediamonds.svg	stimuli_target_diamondrectangles.svg	12	yes	53	1	760	0	0			0	0			1				0	
6.6.1	win	2023-06-12	15:32:37	15:37:18	267922	57dab7f721d77800018e42fe	3	1	practice_slash	5	advance_on_keypress_SLASH	8	stimuli_distractor_trianglediamonds.svg	stimuli_target_diamondrectangles.svg	12	yes	57	0	410	0	0			0	0			1				0	
6.6.1	win	2023-06-12	15:32:37	15:37:21	271052	57dab7f721d77800018e42fe	3	1	practice_slash	5	practice_slash	9	stimuli_target_rectanglediamonds.svg	stimuli_distractor_diamondtriangles.svg	1	yes	53	1	1058	0	0			0	0			1				0	
6.6.1	win	2023-06-12	15:32:37	15:37:21	271052	57dab7f721d77800018e42fe	3	1	practice_slash	5	advance_on_keypress_SLASH	10	stimuli_target_rectanglediamonds.svg	stimuli_distractor_diamondtriangles.svg	1	yes	57	0	380	0	0			0	0			1				0	
6.6.1	win	2023-06-12	15:32:37	15:37:24	273794	57dab7f721d77800018e42fe	3	1	practice_slash	5	practice_slash	11	stimuli_distractor_diamondtriangles.svg	stimuli_target_rectangletriangles.svg	7	yes	53	1	730	0	0			0	0			1				0	
6.6.1	win	2023-06-12	15:32:37	15:37:24	273794	57dab7f721d77800018e42fe	3	1	practice_slash	5	advance_on_keypress_SLASH	12	stimuli_distractor_diamondtriangles.svg	stimuli_target_rectangletriangles.svg	7	yes	57	0	364	0	0			0	0			1				0	
6.6.1	win	2023-06-12	15:32:37	15:37:26	276278	57dab7f721d77800018e42fe	3	1	practice_slash	5	practice_slash	13	stimuli_distractor_trianglediamonds.svg	stimuli_target_rectanglediamonds.svg	10	yes	53	1	485	0	0			0	0			1				0	
6.6.1	win	2023-06-12	15:32:37	15:37:26	276278	57dab7f721d77800018e42fe	3	1	practice_slash	5	advance_on_keypress_SLASH	14	stimuli_distractor_trianglediamonds.svg	stimuli_target_rectanglediamonds.svg	10	yes	57	0	408	0	0			0	0			1				0	
6.6.1	win	2023-06-12	15:32:37	15:37:29	278897	57dab7f721d77800018e42fe	3	1	practice_slash	5	practice_slash	15	stimuli_target_diamondsquares.svg	stimuli_distractor_trianglediamonds.svg	6	yes	53	1	557	0	0			0	0			1				0	
6.6.1	win	2023-06-12	15:32:37	15:37:29	278897	57dab7f721d77800018e42fe	3	1	practice_slash	5	advance_on_keypress_SLASH	16	stimuli_target_diamondsquares.svg	stimuli_distractor_trianglediamonds.svg	6	yes	57	0	422	0	0			0	0			1				0	
6.6.1	win	2023-06-12	15:32:37	15:37:33	282941	57dab7f721d77800018e42fe	3	1	practice_slash	5	practice_slash	17	stimuli_distractor_trianglediamonds.svg	stimuli_distractor_diamondtriangles.svg	16	no	0	1	2003	0	0			0	0			1				0	
6.6.1	win	2023-06-12	15:32:37	15:37:33	282941	57dab7f721d77800018e42fe	3	1	practice_slash	5	advance_on_keypress_SLASH	18	stimuli_distractor_trianglediamonds.svg	stimuli_distractor_diamondtriangles.svg	16	no	57	0	421	0	0			0	0			1				0	
6.6.1	win	2023-06-12	15:32:37	15:37:35	285488	57dab7f721d77800018e42fe	3	1	practice_slash	5	practice_slash	19	stimuli_target_rectanglediamonds.svg	stimuli_distractor_trianglediamonds.svg	4	yes	53	1	508	0	0			0	0			1				0	
6.6.1	win	2023-06-12	15:32:37	15:37:35	285488	57dab7f721d77800018e42fe	3	1	practice_slash	5	advance_on_keypress_SLASH	20	stimuli_target_rectanglediamonds.svg	stimuli_distractor_trianglediamonds.svg	4	yes	57	0	440	0	0			0	0			1				0	
6.6.1	win	2023-06-12	15:32:37	15:37:40	289565	57dab7f721d77800018e42fe	3	1	practice_slash	5	practice_slash	21	stimuli_distractor_diamondtriangles.svg	stimuli_distractor_trianglediamonds.svg	14	no	0	1	2003	0	0			0	0			1				0	
6.6.1	win	2023-06-12	15:32:37	15:37:40	289565	57dab7f721d77800018e42fe	3	1	practice_slash	5	advance_on_keypress_SLASH	22	stimuli_distractor_diamondtriangles.svg	stimuli_distractor_trianglediamonds.svg	14	no	57	0	386	0	0			0	0			1				0	
6.6.1	win	2023-06-12	15:32:37	15:37:42	292165	57dab7f721d77800018e42fe	3	1	practice_slash	5	practice_slash	23	stimuli_distractor_diamondtriangles.svg	stimuli_target_diamondrectangles.svg	8	yes	53	1	566	0	0			0	0			1				0	
6.6.1	win	2023-06-12	15:32:37	15:37:42	292165	57dab7f721d77800018e42fe	3	1	practice_slash	5	advance_on_keypress_SLASH	24	stimuli_distractor_diamondtriangles.svg	stimuli_target_diamondrectangles.svg	8	yes	57	0	478	0	0			0	0			1				0	
6.6.1	win	2023-06-12	15:32:37	15:37:45	294756	57dab7f721d77800018e42fe	3	1	practice_slash	5	practice_slash	25	stimuli_target_diamondsquares.svg	stimuli_distractor_diamondtriangles.svg	3	yes	53	1	476	0	0			0	0			1				0	
6.6.1	win	2023-06-12	15:32:37	15:37:45	294756	57dab7f721d77800018e42fe	3	1	practice_slash	5	advance_on_keypress_SLASH	26	stimuli_target_diamondsquares.svg	stimuli_distractor_diamondtriangles.svg	3	yes	57	0	457	0	0			0	0			1				0	
6.6.1	win	2023-06-12	15:32:37	15:37:49	298877	57dab7f721d77800018e42fe	3	1	practice_slash	5	practice_slash	27	stimuli_distractor_diamondtriangles.svg	stimuli_distractor_diamondtriangles.svg	13	no	0	1	2003	0	0			0	0			1				0	
6.6.1	win	2023-06-12	15:32:37	15:37:49	298877	57dab7f721d77800018e42fe	3	1	practice_slash	5	advance_on_keypress_SLASH	28	stimuli_distractor_diamondtriangles.svg	stimuli_distractor_diamondtriangles.svg	13	no	57	0	360	0	0			0	0			1				0	
6.6.1	win	2023-06-12	15:32:37	15:37:52	301564	57dab7f721d77800018e42fe	3	1	practice_slash	5	practice_slash	29	stimuli_target_squarediamonds.svg	stimuli_distractor_diamondtriangles.svg	2	yes	53	1	692	0	0			0	0			1				0	
6.6.1	win	2023-06-12	15:32:37	15:37:52	301564	57dab7f721d77800018e42fe	3	1	practice_slash	5	advance_on_keypress_SLASH	30	stimuli_target_squarediamonds.svg	stimuli_distractor_diamondtriangles.svg	2	yes	57	0	257	0	0			0	0			1				0	
6.6.1	win	2023-06-12	15:32:37	15:37:55	305457	57dab7f721d77800018e42fe	3	1	practice_slash	5	practice_slash	31	stimuli_distractor_trianglediamonds.svg	stimuli_distractor_trianglediamonds.svg	15	no	0	1	2003	0	0			0	0			1				0	
6.6.1	win	2023-06-12	15:32:37	15:37:55	305457	57dab7f721d77800018e42fe	3	1	practice_slash	5	advance_on_keypress_SLASH	32	stimuli_distractor_trianglediamonds.svg	stimuli_distractor_trianglediamonds.svg	15	no	57	0	387	0	0			0	0			1				0	
6.6.1	win	2023-06-12	15:32:37	15:38:16	326100	57dab7f721d77800018e42fe	3	1	main_slash	7	main_slash	1	stimuli_target_squaretriangles.svg	stimuli_distractor_diamondtriangles.svg	7	yes	53	1	422	0	0			0	0			1				0	
6.6.1	win	2023-06-12	15:32:37	15:38:16	326100	57dab7f721d77800018e42fe	3	1	main_slash	7	advance_on_keypress_SLASH	2	stimuli_target_squaretriangles.svg	stimuli_distractor_diamondtriangles.svg	7	yes	57	0	960	0	0			0	0			1				0	
6.6.1	win	2023-06-12	15:32:37	15:38:18	328175	57dab7f721d77800018e42fe	3	1	main_slash	7	main_slash	3	stimuli_target_trianglesquares.svg	stimuli_distractor_diamondtriangles.svg	22	yes	53	1	466	0	0			0	0			1				0	
6.6.1	win	2023-06-12	15:32:37	15:38:18	328175	57dab7f721d77800018e42fe	3	1	main_slash	7	advance_on_keypress_SLASH	4	stimuli_target_trianglesquares.svg	stimuli_distractor_diamondtriangles.svg	22	yes	57	0	461	0	0			0	0			1				0	
6.6.1	win	2023-06-12	15:32:37	15:38:20	330056	57dab7f721d77800018e42fe	3	1	main_slash	7	main_slash	5	stimuli_distractor_diamondtriangles.svg	stimuli_target_trianglerectangles.svg	29	yes	53	1	793	0	0			0	0			1				0	
6.6.1	win	2023-06-12	15:32:37	15:38:20	330056	57dab7f721d77800018e42fe	3	1	main_slash	7	advance_on_keypress_SLASH	6	stimuli_distractor_diamondtriangles.svg	stimuli_target_trianglerectangles.svg	29	yes	57	0	359	0	0			0	0			1				0	
6.6.1	win	2023-06-12	15:32:37	15:38:22	331635	57dab7f721d77800018e42fe	3	1	main_slash	7	main_slash	7	stimuli_distractor_diamondtriangles.svg	stimuli_target_diamondsquares.svg	32	yes	53	1	601	0	0			0	0			1				0	
6.6.1	win	2023-06-12	15:32:37	15:38:22	331635	57dab7f721d77800018e42fe	3	1	main_slash	7	advance_on_keypress_SLASH	8	stimuli_distractor_diamondtriangles.svg	stimuli_target_diamondsquares.svg	32	yes	57	0	299	0	0			0	0			1				0	
6.6.1	win	2023-06-12	15:32:37	15:38:25	334553	57dab7f721d77800018e42fe	3	1	main_slash	7	main_slash	9	stimuli_distractor_trianglediamonds.svg	stimuli_distractor_diamondtriangles.svg	35	no	0	1	2003	0	0			0	0			1				0	
6.6.1	win	2023-06-12	15:32:37	15:38:25	334553	57dab7f721d77800018e42fe	3	1	main_slash	7	advance_on_keypress_SLASH	10	stimuli_distractor_trianglediamonds.svg	stimuli_distractor_diamondtriangles.svg	35	no	57	0	333	0	0			0	0			1				0	
6.6.1	win	2023-06-12	15:32:37	15:38:26	336293	57dab7f721d77800018e42fe	3	1	main_slash	7	main_slash	11	stimuli_distractor_trianglediamonds.svg	stimuli_target_diamondsquares.svg	28	yes	53	1	765	0	0			0	0			1				0	
6.6.1	win	2023-06-12	15:32:37	15:38:26	336293	57dab7f721d77800018e42fe	3	1	main_slash	7	advance_on_keypress_SLASH	12	stimuli_distractor_trianglediamonds.svg	stimuli_target_diamondsquares.svg	28	yes	57	0	325	0	0			0	0			1				0	
6.6.1	win	2023-06-12	15:32:37	15:38:29	339245	57dab7f721d77800018e42fe	3	1	main_slash	7	main_slash	13	stimuli_distractor_diamondtriangles.svg	stimuli_distractor_trianglediamonds.svg	38	no	0	1	2003	0	0			0	0			1				0	
6.6.1	win	2023-06-12	15:32:37	15:38:29	339245	57dab7f721d77800018e42fe	3	1	main_slash	7	advance_on_keypress_SLASH	14	stimuli_distractor_diamondtriangles.svg	stimuli_distractor_trianglediamonds.svg	38	no	57	0	335	0	0			0	0			1				0	
6.6.1	win	2023-06-12	15:32:37	15:38:31	340684	57dab7f721d77800018e42fe	3	1	main_slash	7	main_slash	15	stimuli_target_trianglesquares.svg	stimuli_distractor_trianglediamonds.svg	18	yes	53	1	475	0	0			0	0			1				0	
6.6.1	win	2023-06-12	15:32:37	15:38:31	340684	57dab7f721d77800018e42fe	3	1	main_slash	7	advance_on_keypress_SLASH	16	stimuli_target_trianglesquares.svg	stimuli_distractor_trianglediamonds.svg	18	yes	57	0	346	0	0			0	0			1				0	
6.6.1	win	2023-06-12	15:32:37	15:38:32	342329	57dab7f721d77800018e42fe	3	1	main_slash	7	main_slash	17	stimuli_distractor_trianglediamonds.svg	stimuli_target_rectanglediamonds.svg	10	yes	53	1	661	0	0			0	0			1				0	
6.6.1	win	2023-06-12	15:32:37	15:38:32	342329	57dab7f721d77800018e42fe	3	1	main_slash	7	advance_on_keypress_SLASH	18	stimuli_distractor_trianglediamonds.svg	stimuli_target_rectanglediamonds.svg	10	yes	57	0	227	0	0			0	0			1				0	
6.6.1	win	2023-06-12	15:32:37	15:38:34	343847	57dab7f721d77800018e42fe	3	1	main_slash	7	main_slash	19	stimuli_target_rectangletriangles.svg	stimuli_distractor_trianglediamonds.svg	1	yes	53	1	666	0	0			0	0			1				0	
6.6.1	win	2023-06-12	15:32:37	15:38:34	343847	57dab7f721d77800018e42fe	3	1	main_slash	7	advance_on_keypress_SLASH	20	stimuli_target_rectangletriangles.svg	stimuli_distractor_trianglediamonds.svg	1	yes	57	0	188	0	0			0	0			1				0	
6.6.1	win	2023-06-12	15:32:37	15:38:35	345172	57dab7f721d77800018e42fe	3	1	main_slash	7	main_slash	21	stimuli_target_diamondsquares.svg	stimuli_distractor_trianglediamonds.svg	20	yes	53	1	497	0	0			0	0			1				0	
6.6.1	win	2023-06-12	15:32:37	15:38:35	345172	57dab7f721d77800018e42fe	3	1	main_slash	7	advance_on_keypress_SLASH	22	stimuli_target_diamondsquares.svg	stimuli_distractor_trianglediamonds.svg	20	yes	57	0	102	0	0			0	0			1				0	
6.6.1	win	2023-06-12	15:32:37	15:38:38	347906	57dab7f721d77800018e42fe	3	1	main_slash	7	main_slash	23	stimuli_distractor_trianglediamonds.svg	stimuli_distractor_trianglediamonds.svg	34	no	0	1	2003	0	0			0	0			1				0	
6.6.1	win	2023-06-12	15:32:37	15:38:38	347906	57dab7f721d77800018e42fe	3	1	main_slash	7	advance_on_keypress_SLASH	24	stimuli_distractor_trianglediamonds.svg	stimuli_distractor_trianglediamonds.svg	34	no	57	0	361	0	0			0	0			1				0	
6.6.1	win	2023-06-12	15:32:37	15:38:40	349604	57dab7f721d77800018e42fe	3	1	main_slash	7	main_slash	25	stimuli_distractor_diamondtriangles.svg	stimuli_target_squaretriangles.svg	15	yes	53	1	717	0	0			0	0			1				0	
6.6.1	win	2023-06-12	15:32:37	15:38:40	349604	57dab7f721d77800018e42fe	3	1	main_slash	7	advance_on_keypress_SLASH	26	stimuli_distractor_diamondtriangles.svg	stimuli_target_squaretriangles.svg	15	yes	57	0	215	0	0			0	0			1				0	
6.6.1	win	2023-06-12	15:32:37	15:38:41	350935	57dab7f721d77800018e42fe	3	1	main_slash	7	main_slash	27	stimuli_distractor_diamondtriangles.svg	stimuli_target_rectanglediamonds.svg	14	yes	53	1	485	0	0			0	0			1				0	
6.6.1	win	2023-06-12	15:32:37	15:38:41	350935	57dab7f721d77800018e42fe	3	1	main_slash	7	advance_on_keypress_SLASH	28	stimuli_distractor_diamondtriangles.svg	stimuli_target_rectanglediamonds.svg	14	yes	57	0	78	0	0			0	0			1				0	
6.6.1	win	2023-06-12	15:32:37	15:38:42	352214	57dab7f721d77800018e42fe	3	1	main_slash	7	main_slash	29	stimuli_distractor_diamondtriangles.svg	stimuli_target_rectangletriangles.svg	13	yes	53	1	564	0	0			0	0			1				0	
6.6.1	win	2023-06-12	15:32:37	15:38:42	352214	57dab7f721d77800018e42fe	3	1	main_slash	7	advance_on_keypress_SLASH	30	stimuli_distractor_diamondtriangles.svg	stimuli_target_rectangletriangles.svg	13	yes	57	0	54	0	0			0	0			1				0	
6.6.1	win	2023-06-12	15:32:37	15:38:43	353381	57dab7f721d77800018e42fe	3	1	main_slash	7	main_slash	31	stimuli_target_squarediamonds.svg	stimuli_distractor_trianglediamonds.svg	4	yes	53	1	484	0	0			0	0			1				0	
6.6.1	win	2023-06-12	15:32:37	15:38:43	353381	57dab7f721d77800018e42fe	3	1	main_slash	7	advance_on_keypress_SLASH	32	stimuli_target_squarediamonds.svg	stimuli_distractor_trianglediamonds.svg	4	yes	57	0	61	0	0			0	0			1				0	
6.6.1	win	2023-06-12	15:32:37	15:38:45	354512	57dab7f721d77800018e42fe	3	1	main_slash	7	main_slash	33	stimuli_distractor_trianglediamonds.svg	stimuli_target_squarediamonds.svg	12	yes	53	1	439	0	0			0	0			1				0	
6.6.1	win	2023-06-12	15:32:37	15:38:45	354512	57dab7f721d77800018e42fe	3	1	main_slash	7	advance_on_keypress_SLASH	34	stimuli_distractor_trianglediamonds.svg	stimuli_target_squarediamonds.svg	12	yes	57	0	64	0	0			0	0			1				0	
6.6.1	win	2023-06-12	15:32:37	15:38:47	357212	57dab7f721d77800018e42fe	3	1	main_slash	7	main_slash	35	stimuli_distractor_diamondtriangles.svg	stimuli_distractor_diamondtriangles.svg	40	no	0	1	2003	0	0			0	0			1				0	
6.6.1	win	2023-06-12	15:32:37	15:38:47	357212	57dab7f721d77800018e42fe	3	1	main_slash	7	advance_on_keypress_SLASH	36	stimuli_distractor_diamondtriangles.svg	stimuli_distractor_diamondtriangles.svg	40	no	57	0	354	0	0			0	0			1				0	
6.6.1	win	2023-06-12	15:32:37	15:38:49	358650	57dab7f721d77800018e42fe	3	1	main_slash	7	main_slash	37	stimuli_distractor_trianglediamonds.svg	stimuli_target_squaretriangles.svg	11	yes	53	1	453	0	0			0	0			1				0	
6.6.1	win	2023-06-12	15:32:37	15:38:49	358650	57dab7f721d77800018e42fe	3	1	main_slash	7	advance_on_keypress_SLASH	38	stimuli_distractor_trianglediamonds.svg	stimuli_target_squaretriangles.svg	11	yes	57	0	48	0	0			0	0			1				0	
6.6.1	win	2023-06-12	15:32:37	15:38:50	359704	57dab7f721d77800018e42fe	3	1	main_slash	7	main_slash	39	stimuli_distractor_diamondtriangles.svg	stimuli_target_squarediamonds.svg	16	yes	53	1	379	0	0			0	0			1				0	
6.6.1	win	2023-06-12	15:32:37	15:38:50	359704	57dab7f721d77800018e42fe	3	1	main_slash	7	advance_on_keypress_SLASH	40	stimuli_distractor_diamondtriangles.svg	stimuli_target_squarediamonds.svg	16	yes	57	0	66	0	0			0	0			1				0	
6.6.1	win	2023-06-12	15:32:37	15:38:51	360982	57dab7f721d77800018e42fe	3	1	main_slash	7	main_slash	41	stimuli_target_diamondsquares.svg	stimuli_distractor_diamondtriangles.svg	24	yes	53	1	576	0	0			0	0			1				0	
6.6.1	win	2023-06-12	15:32:37	15:38:51	360982	57dab7f721d77800018e42fe	3	1	main_slash	7	advance_on_keypress_SLASH	42	stimuli_target_diamondsquares.svg	stimuli_distractor_diamondtriangles.svg	24	yes	57	0	64	0	0			0	0			1				0	
6.6.1	win	2023-06-12	15:32:37	15:38:52	362098	57dab7f721d77800018e42fe	3	1	main_slash	7	main_slash	43	stimuli_target_squaretriangles.svg	stimuli_distractor_trianglediamonds.svg	3	yes	53	1	411	0	0			0	0			1				0	
6.6.1	win	2023-06-12	15:32:37	15:38:52	362098	57dab7f721d77800018e42fe	3	1	main_slash	7	advance_on_keypress_SLASH	44	stimuli_target_squaretriangles.svg	stimuli_distractor_trianglediamonds.svg	3	yes	57	0	49	0	0			0	0			1				0	
6.6.1	win	2023-06-12	15:32:37	15:38:53	363201	57dab7f721d77800018e42fe	3	1	main_slash	7	main_slash	45	stimuli_target_squarediamonds.svg	stimuli_distractor_diamondtriangles.svg	8	yes	53	1	421	0	0			0	0			1				0	
6.6.1	win	2023-06-12	15:32:37	15:38:53	363201	57dab7f721d77800018e42fe	3	1	main_slash	7	advance_on_keypress_SLASH	46	stimuli_target_squarediamonds.svg	stimuli_distractor_diamondtriangles.svg	8	yes	57	0	43	0	0			0	0			1				0	
6.6.1	win	2023-06-12	15:32:37	15:38:55	364527	57dab7f721d77800018e42fe	3	1	main_slash	7	main_slash	47	stimuli_target_trianglerectangles.svg	stimuli_distractor_diamondtriangles.svg	21	yes	53	1	652	0	0			0	0			1				0	
6.6.1	win	2023-06-12	15:32:37	15:38:55	364527	57dab7f721d77800018e42fe	3	1	main_slash	7	advance_on_keypress_SLASH	48	stimuli_target_trianglerectangles.svg	stimuli_distractor_diamondtriangles.svg	21	yes	57	0	75	0	0			0	0			1				0	
6.6.1	win	2023-06-12	15:32:37	15:38:57	367223	57dab7f721d77800018e42fe	3	1	main_slash	7	main_slash	49	stimuli_distractor_trianglediamonds.svg	stimuli_distractor_diamondtriangles.svg	36	no	0	1	2003	0	0			0	0			1				0	
6.6.1	win	2023-06-12	15:32:37	15:38:57	367223	57dab7f721d77800018e42fe	3	1	main_slash	7	advance_on_keypress_SLASH	50	stimuli_distractor_trianglediamonds.svg	stimuli_distractor_diamondtriangles.svg	36	no	57	0	353	0	0			0	0			1				0	
6.6.1	win	2023-06-12	15:32:37	15:38:59	368829	57dab7f721d77800018e42fe	3	1	main_slash	7	main_slash	51	stimuli_distractor_trianglediamonds.svg	stimuli_target_diamondrectangles.svg	27	yes	53	1	620	0	0			0	0			1				0	
6.6.1	win	2023-06-12	15:32:37	15:38:59	368829	57dab7f721d77800018e42fe	3	1	main_slash	7	advance_on_keypress_SLASH	52	stimuli_distractor_trianglediamonds.svg	stimuli_target_diamondrectangles.svg	27	yes	57	0	48	0	0			0	0			1				0	
6.6.1	win	2023-06-12	15:32:37	15:39:00	370010	57dab7f721d77800018e42fe	3	1	main_slash	7	main_slash	53	stimuli_target_rectanglediamonds.svg	stimuli_distractor_diamondtriangles.svg	6	yes	53	1	489	0	0			0	0			1				0	
6.6.1	win	2023-06-12	15:32:37	15:39:00	370010	57dab7f721d77800018e42fe	3	1	main_slash	7	advance_on_keypress_SLASH	54	stimuli_target_rectanglediamonds.svg	stimuli_distractor_diamondtriangles.svg	6	yes	57	0	59	0	0			0	0			1				0	
6.6.1	win	2023-06-12	15:32:37	15:39:01	371352	57dab7f721d77800018e42fe	3	1	main_slash	7	main_slash	55	stimuli_distractor_trianglediamonds.svg	stimuli_target_trianglerectangles.svg	25	yes	53	1	637	0	0			0	0			1				0	
6.6.1	win	2023-06-12	15:32:37	15:39:01	371352	57dab7f721d77800018e42fe	3	1	main_slash	7	advance_on_keypress_SLASH	56	stimuli_distractor_trianglediamonds.svg	stimuli_target_trianglerectangles.svg	25	yes	57	0	51	0	0			0	0			1				0	
6.6.1	win	2023-06-12	15:32:37	15:39:04	374032	57dab7f721d77800018e42fe	3	1	main_slash	7	main_slash	57	stimuli_distractor_diamondtriangles.svg	stimuli_distractor_trianglediamonds.svg	37	no	0	1	2003	0	0			0	0			1				0	
6.6.1	win	2023-06-12	15:32:37	15:39:04	374032	57dab7f721d77800018e42fe	3	1	main_slash	7	advance_on_keypress_SLASH	58	stimuli_distractor_diamondtriangles.svg	stimuli_distractor_trianglediamonds.svg	37	no	57	0	327	0	0			0	0			1				0	
6.6.1	win	2023-06-12	15:32:37	15:39:06	375712	57dab7f721d77800018e42fe	3	1	main_slash	7	main_slash	59	stimuli_distractor_trianglediamonds.svg	stimuli_target_rectangletriangles.svg	9	yes	53	1	728	0	0			0	0			1				0	
6.6.1	win	2023-06-12	15:32:37	15:39:06	375712	57dab7f721d77800018e42fe	3	1	main_slash	7	advance_on_keypress_SLASH	60	stimuli_distractor_trianglediamonds.svg	stimuli_target_rectangletriangles.svg	9	yes	57	0	49	0	0			0	0			1				0	
6.6.1	win	2023-06-12	15:32:37	15:39:07	376894	57dab7f721d77800018e42fe	3	1	main_slash	7	main_slash	61	stimuli_distractor_diamondtriangles.svg	stimuli_target_diamondrectangles.svg	31	yes	53	1	505	0	0			0	0			1				0	
6.6.1	win	2023-06-12	15:32:37	15:39:07	376894	57dab7f721d77800018e42fe	3	1	main_slash	7	advance_on_keypress_SLASH	62	stimuli_distractor_diamondtriangles.svg	stimuli_target_diamondrectangles.svg	31	yes	57	0	44	0	0			0	0			1				0	
6.6.1	win	2023-06-12	15:32:37	15:39:08	378046	57dab7f721d77800018e42fe	3	1	main_slash	7	main_slash	63	stimuli_target_trianglerectangles.svg	stimuli_distractor_trianglediamonds.svg	17	yes	53	1	485	0	0			0	0			1				0	
6.6.1	win	2023-06-12	15:32:37	15:39:08	378046	57dab7f721d77800018e42fe	3	1	main_slash	7	advance_on_keypress_SLASH	64	stimuli_target_trianglerectangles.svg	stimuli_distractor_trianglediamonds.svg	17	yes	57	0	63	0	0			0	0			1				0	
6.6.1	win	2023-06-12	15:32:37	15:39:09	379258	57dab7f721d77800018e42fe	3	1	main_slash	7	main_slash	65	stimuli_target_diamondrectangles.svg	stimuli_distractor_diamondtriangles.svg	23	yes	53	1	511	0	0			0	0			1				0	
6.6.1	win	2023-06-12	15:32:37	15:39:09	379258	57dab7f721d77800018e42fe	3	1	main_slash	7	advance_on_keypress_SLASH	66	stimuli_target_diamondrectangles.svg	stimuli_distractor_diamondtriangles.svg	23	yes	57	0	54	0	0			0	0			1				0	
6.6.1	win	2023-06-12	15:32:37	15:39:12	381942	57dab7f721d77800018e42fe	3	1	main_slash	7	main_slash	67	stimuli_distractor_trianglediamonds.svg	stimuli_distractor_trianglediamonds.svg	33	no	0	1	2003	0	0			0	0			1				0	
6.6.1	win	2023-06-12	15:32:37	15:39:12	381942	57dab7f721d77800018e42fe	3	1	main_slash	7	advance_on_keypress_SLASH	68	stimuli_distractor_trianglediamonds.svg	stimuli_distractor_trianglediamonds.svg	33	no	57	0	376	0	0			0	0			1				0	
6.6.1	win	2023-06-12	15:32:37	15:39:13	383364	57dab7f721d77800018e42fe	3	1	main_slash	7	main_slash	69	stimuli_target_diamondrectangles.svg	stimuli_distractor_trianglediamonds.svg	19	yes	53	1	426	0	0			0	0			1				0	
6.6.1	win	2023-06-12	15:32:37	15:39:13	383364	57dab7f721d77800018e42fe	3	1	main_slash	7	advance_on_keypress_SLASH	70	stimuli_target_diamondrectangles.svg	stimuli_distractor_trianglediamonds.svg	19	yes	57	0	55	0	0			0	0			1				0	
6.6.1	win	2023-06-12	15:32:37	15:39:15	384513	57dab7f721d77800018e42fe	3	1	main_slash	7	main_slash	71	stimuli_distractor_trianglediamonds.svg	stimuli_target_trianglesquares.svg	26	yes	53	1	451	0	0			0	0			1				0	
6.6.1	win	2023-06-12	15:32:37	15:39:15	384513	57dab7f721d77800018e42fe	3	1	main_slash	7	advance_on_keypress_SLASH	72	stimuli_distractor_trianglediamonds.svg	stimuli_target_trianglesquares.svg	26	yes	57	0	62	0	0			0	0			1				0	
6.6.1	win	2023-06-12	15:32:37	15:39:16	385661	57dab7f721d77800018e42fe	3	1	main_slash	7	main_slash	73	stimuli_target_rectanglediamonds.svg	stimuli_distractor_trianglediamonds.svg	2	yes	53	1	430	0	0			0	0			1				0	
6.6.1	win	2023-06-12	15:32:37	15:39:16	385661	57dab7f721d77800018e42fe	3	1	main_slash	7	advance_on_keypress_SLASH	74	stimuli_target_rectanglediamonds.svg	stimuli_distractor_trianglediamonds.svg	2	yes	57	0	61	0	0			0	0			1				0	
6.6.1	win	2023-06-12	15:32:37	15:39:17	386812	57dab7f721d77800018e42fe	3	1	main_slash	7	main_slash	75	stimuli_target_rectangletriangles.svg	stimuli_distractor_diamondtriangles.svg	5	yes	53	1	458	0	0			0	0			1				0	
6.6.1	win	2023-06-12	15:32:37	15:39:17	386812	57dab7f721d77800018e42fe	3	1	main_slash	7	advance_on_keypress_SLASH	76	stimuli_target_rectangletriangles.svg	stimuli_distractor_diamondtriangles.svg	5	yes	57	0	49	0	0			0	0			1				0	
6.6.1	win	2023-06-12	15:32:37	15:39:19	389496	57dab7f721d77800018e42fe	3	1	main_slash	7	main_slash	77	stimuli_distractor_diamondtriangles.svg	stimuli_distractor_diamondtriangles.svg	39	no	0	1	2003	0	0			0	0			1				0	
6.6.1	win	2023-06-12	15:32:37	15:39:19	389496	57dab7f721d77800018e42fe	3	1	main_slash	7	advance_on_keypress_SLASH	78	stimuli_distractor_diamondtriangles.svg	stimuli_distractor_diamondtriangles.svg	39	no	57	0	330	0	0			0	0			1				0	
6.6.1	win	2023-06-12	15:32:37	15:39:21	390899	57dab7f721d77800018e42fe	3	1	main_slash	7	main_slash	79	stimuli_distractor_diamondtriangles.svg	stimuli_target_trianglesquares.svg	30	yes	53	1	434	0	0			0	0			1				0	
6.6.1	win	2023-06-12	15:32:37	15:39:21	390899	57dab7f721d77800018e42fe	3	1	main_slash	7	advance_on_keypress_SLASH	80	stimuli_distractor_diamondtriangles.svg	stimuli_target_trianglesquares.svg	30	yes	57	0	45	0	0			0	0			1				0	
6.6.1	win	2023-06-12	15:32:37	15:39:22	391985	57dab7f721d77800018e42fe	3	1	main_slash	7	main_slash	81	stimuli_distractor_trianglediamonds.svg	stimuli_target_rectanglediamonds.svg	10	yes	53	1	409	0	0			0	0			1				0	
6.6.1	win	2023-06-12	15:32:37	15:39:22	391985	57dab7f721d77800018e42fe	3	1	main_slash	7	advance_on_keypress_SLASH	82	stimuli_distractor_trianglediamonds.svg	stimuli_target_rectanglediamonds.svg	10	yes	57	0	42	0	0			0	0			1				0	
6.6.1	win	2023-06-12	15:32:37	15:39:25	394646	57dab7f721d77800018e42fe	3	1	main_slash	7	main_slash	83	stimuli_distractor_diamondtriangles.svg	stimuli_distractor_diamondtriangles.svg	39	no	0	1	2003	0	0			0	0			1				0	
6.6.1	win	2023-06-12	15:32:37	15:39:25	394646	57dab7f721d77800018e42fe	3	1	main_slash	7	advance_on_keypress_SLASH	84	stimuli_distractor_diamondtriangles.svg	stimuli_distractor_diamondtriangles.svg	39	no	57	0	334	0	0			0	0			1				0	
6.6.1	win	2023-06-12	15:32:37	15:39:26	395989	57dab7f721d77800018e42fe	3	1	main_slash	7	main_slash	85	stimuli_target_rectanglediamonds.svg	stimuli_distractor_trianglediamonds.svg	2	yes	53	1	381	0	0			0	0			1				0	
6.6.1	win	2023-06-12	15:32:37	15:39:26	395989	57dab7f721d77800018e42fe	3	1	main_slash	7	advance_on_keypress_SLASH	86	stimuli_target_rectanglediamonds.svg	stimuli_distractor_trianglediamonds.svg	2	yes	57	0	36	0	0			0	0			1				0	
6.6.1	win	2023-06-12	15:32:37	15:39:27	397077	57dab7f721d77800018e42fe	3	1	main_slash	7	main_slash	87	stimuli_distractor_diamondtriangles.svg	stimuli_target_trianglesquares.svg	30	yes	53	1	400	0	0			0	0			1				0	
6.6.1	win	2023-06-12	15:32:37	15:39:27	397077	57dab7f721d77800018e42fe	3	1	main_slash	7	advance_on_keypress_SLASH	88	stimuli_distractor_diamondtriangles.svg	stimuli_target_trianglesquares.svg	30	yes	57	0	22	0	0			0	0			1				0	
6.6.1	win	2023-06-12	15:32:37	15:39:28	398178	57dab7f721d77800018e42fe	3	1	main_slash	7	main_slash	89	stimuli_distractor_diamondtriangles.svg	stimuli_target_diamondsquares.svg	32	yes	53	1	428	0	0			0	0			1				0	
6.6.1	win	2023-06-12	15:32:37	15:39:28	398178	57dab7f721d77800018e42fe	3	1	main_slash	7	advance_on_keypress_SLASH	90	stimuli_distractor_diamondtriangles.svg	stimuli_target_diamondsquares.svg	32	yes	57	0	27	0	0			0	0			1				0	
6.6.1	win	2023-06-12	15:32:37	15:39:29	399270	57dab7f721d77800018e42fe	3	1	main_slash	7	main_slash	91	stimuli_target_squarediamonds.svg	stimuli_distractor_trianglediamonds.svg	4	yes	53	1	432	0	0			0	0			1				0	
6.6.1	win	2023-06-12	15:32:37	15:39:29	399270	57dab7f721d77800018e42fe	3	1	main_slash	7	advance_on_keypress_SLASH	92	stimuli_target_squarediamonds.svg	stimuli_distractor_trianglediamonds.svg	4	yes	57	0	49	0	0			0	0			1				0	
6.6.1	win	2023-06-12	15:32:37	15:39:30	400378	57dab7f721d77800018e42fe	3	1	main_slash	7	main_slash	93	stimuli_target_diamondrectangles.svg	stimuli_distractor_trianglediamonds.svg	19	yes	53	1	443	0	0			0	0			1				0	
6.6.1	win	2023-06-12	15:32:37	15:39:30	400378	57dab7f721d77800018e42fe	3	1	main_slash	7	advance_on_keypress_SLASH	94	stimuli_target_diamondrectangles.svg	stimuli_distractor_trianglediamonds.svg	19	yes	57	0	45	0	0			0	0			1				0	
6.6.1	win	2023-06-12	15:32:37	15:39:31	401482	57dab7f721d77800018e42fe	3	1	main_slash	7	main_slash	95	stimuli_distractor_trianglediamonds.svg	stimuli_target_diamondrectangles.svg	27	yes	53	1	429	0	0			0	0			1				0	
6.6.1	win	2023-06-12	15:32:37	15:39:31	401482	57dab7f721d77800018e42fe	3	1	main_slash	7	advance_on_keypress_SLASH	96	stimuli_distractor_trianglediamonds.svg	stimuli_target_diamondrectangles.svg	27	yes	57	0	49	0	0			0	0			1				0	
6.6.1	win	2023-06-12	15:32:37	15:39:34	404166	57dab7f721d77800018e42fe	3	1	main_slash	7	main_slash	97	stimuli_target_trianglerectangles.svg	stimuli_distractor_diamondtriangles.svg	21	yes	0	0	2003	0	0			0	0			1				0	
6.6.1	win	2023-06-12	15:32:37	15:39:34	404166	57dab7f721d77800018e42fe	3	1	main_slash	7	advance_on_keypress_SLASH	98	stimuli_target_trianglerectangles.svg	stimuli_distractor_diamondtriangles.svg	21	yes	57	0	421	0	0			0	0			1				0	
6.6.1	win	2023-06-12	15:32:37	15:39:37	407214	57dab7f721d77800018e42fe	3	1	main_slash	7	main_slash	99	stimuli_distractor_diamondtriangles.svg	stimuli_distractor_trianglediamonds.svg	38	no	0	1	2003	0	0			0	0			1				0	
6.6.1	win	2023-06-12	15:32:37	15:39:37	407214	57dab7f721d77800018e42fe	3	1	main_slash	7	advance_on_keypress_SLASH	100	stimuli_distractor_diamondtriangles.svg	stimuli_distractor_trianglediamonds.svg	38	no	57	0	357	0	0			0	0			1				0	
6.6.1	win	2023-06-12	15:32:37	15:39:39	408651	57dab7f721d77800018e42fe	3	1	main_slash	7	main_slash	101	stimuli_distractor_trianglediamonds.svg	stimuli_target_squarediamonds.svg	12	yes	53	1	451	0	0			0	0			1				0	
6.6.1	win	2023-06-12	15:32:37	15:39:39	408651	57dab7f721d77800018e42fe	3	1	main_slash	7	advance_on_keypress_SLASH	102	stimuli_distractor_trianglediamonds.svg	stimuli_target_squarediamonds.svg	12	yes	57	0	41	0	0			0	0			1				0	
6.6.1	win	2023-06-12	15:32:37	15:39:40	409718	57dab7f721d77800018e42fe	3	1	main_slash	7	main_slash	103	stimuli_target_trianglesquares.svg	stimuli_distractor_trianglediamonds.svg	18	yes	53	1	388	0	0			0	0			1				0	
6.6.1	win	2023-06-12	15:32:37	15:39:40	409718	57dab7f721d77800018e42fe	3	1	main_slash	7	advance_on_keypress_SLASH	104	stimuli_target_trianglesquares.svg	stimuli_distractor_trianglediamonds.svg	18	yes	57	0	39	0	0			0	0			1				0	
6.6.1	win	2023-06-12	15:32:37	15:39:42	412382	57dab7f721d77800018e42fe	3	1	main_slash	7	main_slash	105	stimuli_distractor_trianglediamonds.svg	stimuli_distractor_diamondtriangles.svg	35	no	0	1	2003	0	0			0	0			1				0	
6.6.1	win	2023-06-12	15:32:37	15:39:42	412382	57dab7f721d77800018e42fe	3	1	main_slash	7	advance_on_keypress_SLASH	106	stimuli_distractor_trianglediamonds.svg	stimuli_distractor_diamondtriangles.svg	35	no	57	0	358	0	0			0	0			1				0	
6.6.1	win	2023-06-12	15:32:37	15:39:44	413829	57dab7f721d77800018e42fe	3	1	main_slash	7	main_slash	107	stimuli_target_diamondsquares.svg	stimuli_distractor_diamondtriangles.svg	24	yes	53	1	460	0	0			0	0			1				0	
6.6.1	win	2023-06-12	15:32:37	15:39:44	413829	57dab7f721d77800018e42fe	3	1	main_slash	7	advance_on_keypress_SLASH	108	stimuli_target_diamondsquares.svg	stimuli_distractor_diamondtriangles.svg	24	yes	57	0	57	0	0			0	0			1				0	
6.6.1	win	2023-06-12	15:32:37	15:39:45	415137	57dab7f721d77800018e42fe	3	1	main_slash	7	main_slash	109	stimuli_distractor_diamondtriangles.svg	stimuli_target_rectanglediamonds.svg	14	yes	53	1	607	0	0			0	0			1				0	
6.6.1	win	2023-06-12	15:32:37	15:39:45	415137	57dab7f721d77800018e42fe	3	1	main_slash	7	advance_on_keypress_SLASH	110	stimuli_distractor_diamondtriangles.svg	stimuli_target_rectanglediamonds.svg	14	yes	57	0	38	0	0			0	0			1				0	
6.6.1	win	2023-06-12	15:32:37	15:39:48	417803	57dab7f721d77800018e42fe	3	1	main_slash	7	main_slash	111	stimuli_distractor_trianglediamonds.svg	stimuli_distractor_trianglediamonds.svg	33	no	0	1	2003	0	0			0	0			1				0	
6.6.1	win	2023-06-12	15:32:37	15:39:48	417803	57dab7f721d77800018e42fe	3	1	main_slash	7	advance_on_keypress_SLASH	112	stimuli_distractor_trianglediamonds.svg	stimuli_distractor_trianglediamonds.svg	33	no	57	0	335	0	0			0	0			1				0	
6.6.1	win	2023-06-12	15:32:37	15:39:49	419292	57dab7f721d77800018e42fe	3	1	main_slash	7	main_slash	113	stimuli_distractor_trianglediamonds.svg	stimuli_target_trianglesquares.svg	26	yes	53	1	516	0	0			0	0			1				0	
6.6.1	win	2023-06-12	15:32:37	15:39:49	419292	57dab7f721d77800018e42fe	3	1	main_slash	7	advance_on_keypress_SLASH	114	stimuli_distractor_trianglediamonds.svg	stimuli_target_trianglesquares.svg	26	yes	57	0	17	0	0			0	0			1				0	
6.6.1	win	2023-06-12	15:32:37	15:39:50	420425	57dab7f721d77800018e42fe	3	1	main_slash	7	main_slash	115	stimuli_distractor_diamondtriangles.svg	stimuli_target_squarediamonds.svg	16	yes	53	1	488	0	0			0	0			1				0	
6.6.1	win	2023-06-12	15:32:37	15:39:50	420425	57dab7f721d77800018e42fe	3	1	main_slash	7	advance_on_keypress_SLASH	116	stimuli_distractor_diamondtriangles.svg	stimuli_target_squarediamonds.svg	16	yes	57	0	59	0	0			0	0			1				0	
6.6.1	win	2023-06-12	15:32:37	15:39:52	422075	57dab7f721d77800018e42fe	3	1	main_slash	7	main_slash	117	stimuli_target_trianglerectangles.svg	stimuli_distractor_trianglediamonds.svg	17	yes	53	1	974	0	0			0	0			1				0	
6.6.1	win	2023-06-12	15:32:37	15:39:52	422075	57dab7f721d77800018e42fe	3	1	main_slash	7	advance_on_keypress_SLASH	118	stimuli_target_trianglerectangles.svg	stimuli_distractor_trianglediamonds.svg	17	yes	57	0	100	0	0			0	0			1				0	
6.6.1	win	2023-06-12	15:32:37	15:39:53	423230	57dab7f721d77800018e42fe	3	1	main_slash	7	main_slash	119	stimuli_target_squaretriangles.svg	stimuli_distractor_diamondtriangles.svg	7	yes	53	1	414	0	0			0	0			1				0	
6.6.1	win	2023-06-12	15:32:37	15:39:53	423230	57dab7f721d77800018e42fe	3	1	main_slash	7	advance_on_keypress_SLASH	120	stimuli_target_squaretriangles.svg	stimuli_distractor_diamondtriangles.svg	7	yes	57	0	37	0	0			0	0			1				0	
6.6.1	win	2023-06-12	15:32:37	15:39:54	424381	57dab7f721d77800018e42fe	3	1	main_slash	7	main_slash	121	stimuli_distractor_diamondtriangles.svg	stimuli_target_rectangletriangles.svg	13	yes	53	1	490	0	0			0	0			1				0	
6.6.1	win	2023-06-12	15:32:37	15:39:54	424381	57dab7f721d77800018e42fe	3	1	main_slash	7	advance_on_keypress_SLASH	122	stimuli_distractor_diamondtriangles.svg	stimuli_target_rectangletriangles.svg	13	yes	57	0	46	0	0			0	0			1				0	
6.6.1	win	2023-06-12	15:32:37	15:39:56	425529	57dab7f721d77800018e42fe	3	1	main_slash	7	main_slash	123	stimuli_target_rectangletriangles.svg	stimuli_distractor_diamondtriangles.svg	5	yes	53	1	462	0	0			0	0			1				0	
6.6.1	win	2023-06-12	15:32:37	15:39:56	425529	57dab7f721d77800018e42fe	3	1	main_slash	7	advance_on_keypress_SLASH	124	stimuli_target_rectangletriangles.svg	stimuli_distractor_diamondtriangles.svg	5	yes	57	0	33	0	0			0	0			1				0	
6.6.1	win	2023-06-12	15:32:37	15:39:57	426682	57dab7f721d77800018e42fe	3	1	main_slash	7	main_slash	125	stimuli_distractor_diamondtriangles.svg	stimuli_target_trianglerectangles.svg	29	yes	53	1	481	0	0			0	0			1				0	
6.6.1	win	2023-06-12	15:32:37	15:39:57	426682	57dab7f721d77800018e42fe	3	1	main_slash	7	advance_on_keypress_SLASH	126	stimuli_distractor_diamondtriangles.svg	stimuli_target_trianglerectangles.svg	29	yes	57	0	48	0	0			0	0			1				0	
6.6.1	win	2023-06-12	15:32:37	15:39:59	429361	57dab7f721d77800018e42fe	3	1	main_slash	7	main_slash	127	stimuli_distractor_trianglediamonds.svg	stimuli_distractor_diamondtriangles.svg	36	no	0	1	2003	0	0			0	0			1				0	
6.6.1	win	2023-06-12	15:32:37	15:39:59	429361	57dab7f721d77800018e42fe	3	1	main_slash	7	advance_on_keypress_SLASH	128	stimuli_distractor_trianglediamonds.svg	stimuli_distractor_diamondtriangles.svg	36	no	57	0	326	0	0			0	0			1				0	
6.6.1	win	2023-06-12	15:32:37	15:40:01	431033	57dab7f721d77800018e42fe	3	1	main_slash	7	main_slash	129	stimuli_distractor_trianglediamonds.svg	stimuli_target_trianglerectangles.svg	25	yes	53	1	724	0	0			0	0			1				0	
6.6.1	win	2023-06-12	15:32:37	15:40:01	431033	57dab7f721d77800018e42fe	3	1	main_slash	7	advance_on_keypress_SLASH	130	stimuli_distractor_trianglediamonds.svg	stimuli_target_trianglerectangles.svg	25	yes	57	0	57	0	0			0	0			1				0	
6.6.1	win	2023-06-12	15:32:37	15:40:02	432182	57dab7f721d77800018e42fe	3	1	main_slash	7	main_slash	131	stimuli_distractor_diamondtriangles.svg	stimuli_target_squaretriangles.svg	15	yes	53	1	469	0	0			0	0			1				0	
6.6.1	win	2023-06-12	15:32:37	15:40:02	432182	57dab7f721d77800018e42fe	3	1	main_slash	7	advance_on_keypress_SLASH	132	stimuli_distractor_diamondtriangles.svg	stimuli_target_squaretriangles.svg	15	yes	57	0	46	0	0			0	0			1				0	
6.6.1	win	2023-06-12	15:32:37	15:40:03	433338	57dab7f721d77800018e42fe	3	1	main_slash	7	main_slash	133	stimuli_target_squarediamonds.svg	stimuli_distractor_diamondtriangles.svg	8	yes	53	1	469	0	0			0	0			1				0	
6.6.1	win	2023-06-12	15:32:37	15:40:03	433338	57dab7f721d77800018e42fe	3	1	main_slash	7	advance_on_keypress_SLASH	134	stimuli_target_squarediamonds.svg	stimuli_distractor_diamondtriangles.svg	8	yes	57	0	56	0	0			0	0			1				0	
6.6.1	win	2023-06-12	15:32:37	15:40:04	434470	57dab7f721d77800018e42fe	3	1	main_slash	7	main_slash	135	stimuli_distractor_trianglediamonds.svg	stimuli_target_diamondsquares.svg	28	yes	53	1	455	0	0			0	0			1				0	
6.6.1	win	2023-06-12	15:32:37	15:40:04	434470	57dab7f721d77800018e42fe	3	1	main_slash	7	advance_on_keypress_SLASH	136	stimuli_distractor_trianglediamonds.svg	stimuli_target_diamondsquares.svg	28	yes	57	0	64	0	0			0	0			1				0	
6.6.1	win	2023-06-12	15:32:37	15:40:06	435654	57dab7f721d77800018e42fe	3	1	main_slash	7	main_slash	137	stimuli_target_diamondsquares.svg	stimuli_distractor_trianglediamonds.svg	20	yes	53	1	472	0	0			0	0			1				0	
6.6.1	win	2023-06-12	15:32:37	15:40:06	435654	57dab7f721d77800018e42fe	3	1	main_slash	7	advance_on_keypress_SLASH	138	stimuli_target_diamondsquares.svg	stimuli_distractor_trianglediamonds.svg	20	yes	57	0	51	0	0			0	0			1				0	
6.6.1	win	2023-06-12	15:32:37	15:40:07	436787	57dab7f721d77800018e42fe	3	1	main_slash	7	main_slash	139	stimuli_target_rectangletriangles.svg	stimuli_distractor_trianglediamonds.svg	1	yes	53	1	457	0	0			0	0			1				0	
6.6.1	win	2023-06-12	15:32:37	15:40:07	436787	57dab7f721d77800018e42fe	3	1	main_slash	7	advance_on_keypress_SLASH	140	stimuli_target_rectangletriangles.svg	stimuli_distractor_trianglediamonds.svg	1	yes	57	0	58	0	0			0	0			1				0	
6.6.1	win	2023-06-12	15:32:37	15:40:08	438144	57dab7f721d77800018e42fe	3	1	main_slash	7	main_slash	141	stimuli_target_trianglesquares.svg	stimuli_distractor_diamondtriangles.svg	22	yes	53	1	658	0	0			0	0			1				0	
6.6.1	win	2023-06-12	15:32:37	15:40:08	438144	57dab7f721d77800018e42fe	3	1	main_slash	7	advance_on_keypress_SLASH	142	stimuli_target_trianglesquares.svg	stimuli_distractor_diamondtriangles.svg	22	yes	57	0	74	0	0			0	0			1				0	
6.6.1	win	2023-06-12	15:32:37	15:40:11	440891	57dab7f721d77800018e42fe	3	1	main_slash	7	main_slash	143	stimuli_distractor_diamondtriangles.svg	stimuli_distractor_diamondtriangles.svg	40	no	0	1	2003	0	0			0	0			1				0	
6.6.1	win	2023-06-12	15:32:37	15:40:11	440891	57dab7f721d77800018e42fe	3	1	main_slash	7	advance_on_keypress_SLASH	144	stimuli_distractor_diamondtriangles.svg	stimuli_distractor_diamondtriangles.svg	40	no	57	0	387	0	0			0	0			1				0	
6.6.1	win	2023-06-12	15:32:37	15:40:12	442361	57dab7f721d77800018e42fe	3	1	main_slash	7	main_slash	145	stimuli_distractor_diamondtriangles.svg	stimuli_target_diamondrectangles.svg	31	yes	53	1	460	0	0			0	0			1				0	
6.6.1	win	2023-06-12	15:32:37	15:40:12	442361	57dab7f721d77800018e42fe	3	1	main_slash	7	advance_on_keypress_SLASH	146	stimuli_distractor_diamondtriangles.svg	stimuli_target_diamondrectangles.svg	31	yes	57	0	59	0	0			0	0			1				0	
6.6.1	win	2023-06-12	15:32:37	15:40:14	443511	57dab7f721d77800018e42fe	3	1	main_slash	7	main_slash	147	stimuli_target_diamondrectangles.svg	stimuli_distractor_diamondtriangles.svg	23	yes	53	1	450	0	0			0	0			1				0	
6.6.1	win	2023-06-12	15:32:37	15:40:14	443511	57dab7f721d77800018e42fe	3	1	main_slash	7	advance_on_keypress_SLASH	148	stimuli_target_diamondrectangles.svg	stimuli_distractor_diamondtriangles.svg	23	yes	57	0	42	0	0			0	0			1				0	
6.6.1	win	2023-06-12	15:32:37	15:40:15	444645	57dab7f721d77800018e42fe	3	1	main_slash	7	main_slash	149	stimuli_target_squaretriangles.svg	stimuli_distractor_trianglediamonds.svg	3	yes	53	1	451	0	0			0	0			1				0	
6.6.1	win	2023-06-12	15:32:37	15:40:15	444645	57dab7f721d77800018e42fe	3	1	main_slash	7	advance_on_keypress_SLASH	150	stimuli_target_squaretriangles.svg	stimuli_distractor_trianglediamonds.svg	3	yes	57	0	52	0	0			0	0			1				0	
6.6.1	win	2023-06-12	15:32:37	15:40:17	447325	57dab7f721d77800018e42fe	3	1	main_slash	7	main_slash	151	stimuli_distractor_diamondtriangles.svg	stimuli_distractor_trianglediamonds.svg	37	no	0	1	2003	0	0			0	0			1				0	
6.6.1	win	2023-06-12	15:32:37	15:40:17	447325	57dab7f721d77800018e42fe	3	1	main_slash	7	advance_on_keypress_SLASH	152	stimuli_distractor_diamondtriangles.svg	stimuli_distractor_trianglediamonds.svg	37	no	57	0	434	0	0			0	0			1				0	
6.6.1	win	2023-06-12	15:32:37	15:40:19	448841	57dab7f721d77800018e42fe	3	1	main_slash	7	main_slash	153	stimuli_distractor_trianglediamonds.svg	stimuli_target_squaretriangles.svg	11	yes	53	1	430	0	0			0	0			1				0	
6.6.1	win	2023-06-12	15:32:37	15:40:19	448841	57dab7f721d77800018e42fe	3	1	main_slash	7	advance_on_keypress_SLASH	154	stimuli_distractor_trianglediamonds.svg	stimuli_target_squaretriangles.svg	11	yes	57	0	59	0	0			0	0			1				0	
6.6.1	win	2023-06-12	15:32:37	15:40:20	449960	57dab7f721d77800018e42fe	3	1	main_slash	7	main_slash	155	stimuli_target_rectanglediamonds.svg	stimuli_distractor_diamondtriangles.svg	6	yes	53	1	436	0	0			0	0			1				0	
6.6.1	win	2023-06-12	15:32:37	15:40:20	449960	57dab7f721d77800018e42fe	3	1	main_slash	7	advance_on_keypress_SLASH	156	stimuli_target_rectanglediamonds.svg	stimuli_distractor_diamondtriangles.svg	6	yes	57	0	55	0	0			0	0			1				0	
6.6.1	win	2023-06-12	15:32:37	15:40:21	451059	57dab7f721d77800018e42fe	3	1	main_slash	7	main_slash	157	stimuli_distractor_trianglediamonds.svg	stimuli_target_rectangletriangles.svg	9	yes	53	1	401	0	0			0	0			1				0	
6.6.1	win	2023-06-12	15:32:37	15:40:21	451059	57dab7f721d77800018e42fe	3	1	main_slash	7	advance_on_keypress_SLASH	158	stimuli_distractor_trianglediamonds.svg	stimuli_target_rectangletriangles.svg	9	yes	57	0	60	0	0			0	0			1				0	
6.6.1	win	2023-06-12	15:32:37	15:40:24	453756	57dab7f721d77800018e42fe	3	1	main_slash	7	main_slash	159	stimuli_distractor_trianglediamonds.svg	stimuli_distractor_trianglediamonds.svg	34	no	0	1	2003	0	0			0	0			1				0	
6.6.1	win	2023-06-12	15:32:37	15:40:24	453756	57dab7f721d77800018e42fe	3	1	main_slash	7	advance_on_keypress_SLASH	160	stimuli_distractor_trianglediamonds.svg	stimuli_distractor_trianglediamonds.svg	34	no	57	0	392	0	0			0	0			1				0	
6.6.1	win	2023-06-12	15:32:37	15:40:51	480685	57dab7f721d77800018e42fe	3	1	practice_z	9	practice_z	1	stimuli_target_squarediamonds.svg	stimuli_distractor_trianglediamonds.svg	5	yes	44	1	491	0	0			0	0			1				0	
6.6.1	win	2023-06-12	15:32:37	15:40:51	480685	57dab7f721d77800018e42fe	3	1	practice_z	9	advance_on_keypress_ZEE	2	stimuli_target_squarediamonds.svg	stimuli_distractor_trianglediamonds.svg	5	yes	57	0	572	0	0			0	0			1				0	
6.6.1	win	2023-06-12	15:32:37	15:40:53	483388	57dab7f721d77800018e42fe	3	1	practice_z	9	practice_z	3	stimuli_target_diamondsquares.svg	stimuli_distractor_trianglediamonds.svg	6	yes	44	1	486	0	0			0	0			1				0	
6.6.1	win	2023-06-12	15:32:37	15:40:53	483388	57dab7f721d77800018e42fe	3	1	practice_z	9	advance_on_keypress_ZEE	4	stimuli_target_diamondsquares.svg	stimuli_distractor_trianglediamonds.svg	6	yes	57	0	397	0	0			0	0			1				0	
6.6.1	win	2023-06-12	15:32:37	15:40:57	487430	57dab7f721d77800018e42fe	3	1	practice_z	9	practice_z	5	stimuli_distractor_diamondtriangles.svg	stimuli_distractor_trianglediamonds.svg	14	no	0	1	2003	0	0			0	0			1				0	
6.6.1	win	2023-06-12	15:32:37	15:40:57	487430	57dab7f721d77800018e42fe	3	1	practice_z	9	advance_on_keypress_ZEE	6	stimuli_distractor_diamondtriangles.svg	stimuli_distractor_trianglediamonds.svg	14	no	57	0	415	0	0			0	0			1				0	
6.6.1	win	2023-06-12	15:32:37	15:41:01	491486	57dab7f721d77800018e42fe	3	1	practice_z	9	practice_z	7	stimuli_distractor_trianglediamonds.svg	stimuli_distractor_diamondtriangles.svg	16	no	0	1	2003	0	0			0	0			1				0	
6.6.1	win	2023-06-12	15:32:37	15:41:01	491486	57dab7f721d77800018e42fe	3	1	practice_z	9	advance_on_keypress_ZEE	8	stimuli_distractor_trianglediamonds.svg	stimuli_distractor_diamondtriangles.svg	16	no	57	0	366	0	0			0	0			1				0	
6.6.1	win	2023-06-12	15:32:37	15:41:04	493944	57dab7f721d77800018e42fe	3	1	practice_z	9	practice_z	9	stimuli_target_diamondsquares.svg	stimuli_distractor_diamondtriangles.svg	3	yes	44	1	460	0	0			0	0			1				0	
6.6.1	win	2023-06-12	15:32:37	15:41:04	493944	57dab7f721d77800018e42fe	3	1	practice_z	9	advance_on_keypress_ZEE	10	stimuli_target_diamondsquares.svg	stimuli_distractor_diamondtriangles.svg	3	yes	57	0	367	0	0			0	0			1				0	
6.6.1	win	2023-06-12	15:32:37	15:41:06	496484	57dab7f721d77800018e42fe	3	1	practice_z	9	practice_z	11	stimuli_distractor_trianglediamonds.svg	stimuli_target_squarediamonds.svg	11	yes	44	1	531	0	0			0	0			1				0	
6.6.1	win	2023-06-12	15:32:37	15:41:06	496484	57dab7f721d77800018e42fe	3	1	practice_z	9	advance_on_keypress_ZEE	12	stimuli_distractor_trianglediamonds.svg	stimuli_target_squarediamonds.svg	11	yes	57	0	388	0	0			0	0			1				0	
6.6.1	win	2023-06-12	15:32:37	15:41:09	498944	57dab7f721d77800018e42fe	3	1	practice_z	9	practice_z	13	stimuli_target_rectanglediamonds.svg	stimuli_distractor_trianglediamonds.svg	4	yes	44	1	423	0	0			0	0			1				0	
6.6.1	win	2023-06-12	15:32:37	15:41:09	498944	57dab7f721d77800018e42fe	3	1	practice_z	9	advance_on_keypress_ZEE	14	stimuli_target_rectanglediamonds.svg	stimuli_distractor_trianglediamonds.svg	4	yes	57	0	334	0	0			0	0			1				0	
6.6.1	win	2023-06-12	15:32:37	15:41:11	501330	57dab7f721d77800018e42fe	3	1	practice_z	9	practice_z	15	stimuli_distractor_trianglediamonds.svg	stimuli_target_diamondrectangles.svg	12	yes	44	1	423	0	0			0	0			1				0	
6.6.1	win	2023-06-12	15:32:37	15:41:11	501330	57dab7f721d77800018e42fe	3	1	practice_z	9	advance_on_keypress_ZEE	16	stimuli_distractor_trianglediamonds.svg	stimuli_target_diamondrectangles.svg	12	yes	57	0	264	0	0			0	0			1				0	
6.6.1	win	2023-06-12	15:32:37	15:41:14	503716	57dab7f721d77800018e42fe	3	1	practice_z	9	practice_z	17	stimuli_distractor_trianglediamonds.svg	stimuli_target_rectanglediamonds.svg	10	yes	44	1	479	0	0			0	0			1				0	
6.6.1	win	2023-06-12	15:32:37	15:41:14	503716	57dab7f721d77800018e42fe	3	1	practice_z	9	advance_on_keypress_ZEE	18	stimuli_distractor_trianglediamonds.svg	stimuli_target_rectanglediamonds.svg	10	yes	57	0	234	0	0			0	0			1				0	
6.6.1	win	2023-06-12	15:32:37	15:41:16	506030	57dab7f721d77800018e42fe	3	1	practice_z	9	practice_z	19	stimuli_distractor_diamondtriangles.svg	stimuli_target_rectangletriangles.svg	7	yes	44	1	432	0	0			0	0			1				0	
6.6.1	win	2023-06-12	15:32:37	15:41:16	506030	57dab7f721d77800018e42fe	3	1	practice_z	9	advance_on_keypress_ZEE	20	stimuli_distractor_diamondtriangles.svg	stimuli_target_rectangletriangles.svg	7	yes	57	0	366	0	0			0	0			1				0	
6.6.1	win	2023-06-12	15:32:37	15:41:20	510044	57dab7f721d77800018e42fe	3	1	practice_z	9	practice_z	21	stimuli_distractor_diamondtriangles.svg	stimuli_distractor_diamondtriangles.svg	13	no	0	1	2003	0	0			0	0			1				0	
6.6.1	win	2023-06-12	15:32:37	15:41:20	510044	57dab7f721d77800018e42fe	3	1	practice_z	9	advance_on_keypress_ZEE	22	stimuli_distractor_diamondtriangles.svg	stimuli_distractor_diamondtriangles.svg	13	no	57	0	447	0	0			0	0			1				0	
6.6.1	win	2023-06-12	15:32:37	15:41:23	512536	57dab7f721d77800018e42fe	3	1	practice_z	9	practice_z	23	stimuli_target_squarediamonds.svg	stimuli_distractor_diamondtriangles.svg	2	yes	44	1	385	0	0			0	0			1				0	
6.6.1	win	2023-06-12	15:32:37	15:41:23	512536	57dab7f721d77800018e42fe	3	1	practice_z	9	advance_on_keypress_ZEE	24	stimuli_target_squarediamonds.svg	stimuli_distractor_diamondtriangles.svg	2	yes	57	0	383	0	0			0	0			1				0	
6.6.1	win	2023-06-12	15:32:37	15:41:27	516565	57dab7f721d77800018e42fe	3	1	practice_z	9	practice_z	25	stimuli_distractor_trianglediamonds.svg	stimuli_distractor_trianglediamonds.svg	15	no	0	1	2003	0	0			0	0			1				0	
6.6.1	win	2023-06-12	15:32:37	15:41:27	516565	57dab7f721d77800018e42fe	3	1	practice_z	9	advance_on_keypress_ZEE	26	stimuli_distractor_trianglediamonds.svg	stimuli_distractor_trianglediamonds.svg	15	no	57	0	404	0	0			0	0			1				0	
6.6.1	win	2023-06-12	15:32:37	15:41:29	519092	57dab7f721d77800018e42fe	3	1	practice_z	9	practice_z	27	stimuli_distractor_diamondtriangles.svg	stimuli_target_trianglerectangles.svg	9	yes	44	1	485	0	0			0	0			1				0	
6.6.1	win	2023-06-12	15:32:37	15:41:29	519092	57dab7f721d77800018e42fe	3	1	practice_z	9	advance_on_keypress_ZEE	28	stimuli_distractor_diamondtriangles.svg	stimuli_target_trianglerectangles.svg	9	yes	57	0	382	0	0			0	0			1				0	
6.6.1	win	2023-06-12	15:32:37	15:41:32	521523	57dab7f721d77800018e42fe	3	1	practice_z	9	practice_z	29	stimuli_target_rectanglediamonds.svg	stimuli_distractor_diamondtriangles.svg	1	yes	44	1	394	0	0			0	0			1				0	
6.6.1	win	2023-06-12	15:32:37	15:41:32	521523	57dab7f721d77800018e42fe	3	1	practice_z	9	advance_on_keypress_ZEE	30	stimuli_target_rectanglediamonds.svg	stimuli_distractor_diamondtriangles.svg	1	yes	57	0	406	0	0			0	0			1				0	
6.6.1	win	2023-06-12	15:32:37	15:41:34	523962	57dab7f721d77800018e42fe	3	1	practice_z	9	practice_z	31	stimuli_distractor_diamondtriangles.svg	stimuli_target_diamondrectangles.svg	8	yes	44	1	408	0	0			0	0			1				0	
6.6.1	win	2023-06-12	15:32:37	15:41:34	523962	57dab7f721d77800018e42fe	3	1	practice_z	9	advance_on_keypress_ZEE	32	stimuli_distractor_diamondtriangles.svg	stimuli_target_diamondrectangles.svg	8	yes	57	0	344	0	0			0	0			1				0	
6.6.1	win	2023-06-12	15:32:37	15:41:44	533924	57dab7f721d77800018e42fe	3	1	main_z	11	main_z	1	stimuli_distractor_trianglediamonds.svg	stimuli_target_trianglerectangles.svg	25	yes	44	1	409	0	0			0	0			1				0	
6.6.1	win	2023-06-12	15:32:37	15:41:44	533924	57dab7f721d77800018e42fe	3	1	main_z	11	advance_on_keypress_ZEE	2	stimuli_distractor_trianglediamonds.svg	stimuli_target_trianglerectangles.svg	25	yes	57	0	451	0	0			0	0			1				0	
6.6.1	win	2023-06-12	15:32:37	15:41:47	536998	57dab7f721d77800018e42fe	3	1	main_z	11	main_z	3	stimuli_distractor_diamondtriangles.svg	stimuli_distractor_diamondtriangles.svg	40	no	0	1	2003	0	0			0	0			1				0	
6.6.1	win	2023-06-12	15:32:37	15:41:47	536998	57dab7f721d77800018e42fe	3	1	main_z	11	advance_on_keypress_ZEE	4	stimuli_distractor_diamondtriangles.svg	stimuli_distractor_diamondtriangles.svg	40	no	57	0	246	0	0			0	0			1				0	
6.6.1	win	2023-06-12	15:32:37	15:41:48	538241	57dab7f721d77800018e42fe	3	1	main_z	11	main_z	5	stimuli_target_squarediamonds.svg	stimuli_distractor_trianglediamonds.svg	4	yes	44	1	369	0	0			0	0			1				0	
6.6.1	win	2023-06-12	15:32:37	15:41:48	538241	57dab7f721d77800018e42fe	3	1	main_z	11	advance_on_keypress_ZEE	6	stimuli_target_squarediamonds.svg	stimuli_distractor_trianglediamonds.svg	4	yes	57	0	314	0	0			0	0			1				0	
6.6.1	win	2023-06-12	15:32:37	15:41:50	539566	57dab7f721d77800018e42fe	3	1	main_z	11	main_z	7	stimuli_target_rectangletriangles.svg	stimuli_distractor_trianglediamonds.svg	1	yes	44	1	369	0	0			0	0			1				0	
6.6.1	win	2023-06-12	15:32:37	15:41:50	539566	57dab7f721d77800018e42fe	3	1	main_z	11	advance_on_keypress_ZEE	8	stimuli_target_rectangletriangles.svg	stimuli_distractor_trianglediamonds.svg	1	yes	57	0	266	0	0			0	0			1				0	
6.6.1	win	2023-06-12	15:32:37	15:41:51	540908	57dab7f721d77800018e42fe	3	1	main_z	11	main_z	9	stimuli_target_rectanglediamonds.svg	stimuli_distractor_diamondtriangles.svg	6	yes	44	1	441	0	0			0	0			1				0	
6.6.1	win	2023-06-12	15:32:37	15:41:51	540908	57dab7f721d77800018e42fe	3	1	main_z	11	advance_on_keypress_ZEE	10	stimuli_target_rectanglediamonds.svg	stimuli_distractor_diamondtriangles.svg	6	yes	57	0	212	0	0			0	0			1				0	
6.6.1	win	2023-06-12	15:32:37	15:41:52	542266	57dab7f721d77800018e42fe	3	1	main_z	11	main_z	11	stimuli_target_diamondsquares.svg	stimuli_distractor_diamondtriangles.svg	24	yes	44	1	498	0	0			0	0			1				0	
6.6.1	win	2023-06-12	15:32:37	15:41:52	542266	57dab7f721d77800018e42fe	3	1	main_z	11	advance_on_keypress_ZEE	12	stimuli_target_diamondsquares.svg	stimuli_distractor_diamondtriangles.svg	24	yes	57	0	185	0	0			0	0			1				0	
6.6.1	win	2023-06-12	15:32:37	15:41:54	543531	57dab7f721d77800018e42fe	3	1	main_z	11	main_z	13	stimuli_target_rectanglediamonds.svg	stimuli_distractor_trianglediamonds.svg	2	yes	44	1	444	0	0			0	0			1				0	
6.6.1	win	2023-06-12	15:32:37	15:41:54	543531	57dab7f721d77800018e42fe	3	1	main_z	11	advance_on_keypress_ZEE	14	stimuli_target_rectanglediamonds.svg	stimuli_distractor_trianglediamonds.svg	2	yes	57	0	97	0	0			0	0			1				0	
6.6.1	win	2023-06-12	15:32:37	15:41:55	544677	57dab7f721d77800018e42fe	3	1	main_z	11	main_z	15	stimuli_distractor_diamondtriangles.svg	stimuli_target_squarediamonds.svg	16	yes	44	1	431	0	0			0	0			1				0	
6.6.1	win	2023-06-12	15:32:37	15:41:55	544677	57dab7f721d77800018e42fe	3	1	main_z	11	advance_on_keypress_ZEE	16	stimuli_distractor_diamondtriangles.svg	stimuli_target_squarediamonds.svg	16	yes	57	0	100	0	0			0	0			1				0	
6.6.1	win	2023-06-12	15:32:37	15:41:56	545812	57dab7f721d77800018e42fe	3	1	main_z	11	main_z	17	stimuli_distractor_diamondtriangles.svg	stimuli_target_rectanglediamonds.svg	14	yes	44	1	401	0	0			0	0			1				0	
6.6.1	win	2023-06-12	15:32:37	15:41:56	545812	57dab7f721d77800018e42fe	3	1	main_z	11	advance_on_keypress_ZEE	18	stimuli_distractor_diamondtriangles.svg	stimuli_target_rectanglediamonds.svg	14	yes	57	0	82	0	0			0	0			1				0	
6.6.1	win	2023-06-12	15:32:37	15:41:57	546927	57dab7f721d77800018e42fe	3	1	main_z	11	main_z	19	stimuli_distractor_trianglediamonds.svg	stimuli_target_rectanglediamonds.svg	10	yes	44	1	396	0	0			0	0			1				0	
6.6.1	win	2023-06-12	15:32:37	15:41:57	546927	57dab7f721d77800018e42fe	3	1	main_z	11	advance_on_keypress_ZEE	20	stimuli_distractor_trianglediamonds.svg	stimuli_target_rectanglediamonds.svg	10	yes	57	0	39	0	0			0	0			1				0	
6.6.1	win	2023-06-12	15:32:37	15:41:58	548014	57dab7f721d77800018e42fe	3	1	main_z	11	main_z	21	stimuli_distractor_trianglediamonds.svg	stimuli_target_squarediamonds.svg	12	yes	44	1	412	0	0			0	0			1				0	
6.6.1	win	2023-06-12	15:32:37	15:41:58	548014	57dab7f721d77800018e42fe	3	1	main_z	11	advance_on_keypress_ZEE	22	stimuli_distractor_trianglediamonds.svg	stimuli_target_squarediamonds.svg	12	yes	57	0	71	0	0			0	0			1				0	
6.6.1	win	2023-06-12	15:32:37	15:41:59	549122	57dab7f721d77800018e42fe	3	1	main_z	11	main_z	23	stimuli_target_squaretriangles.svg	stimuli_distractor_diamondtriangles.svg	7	yes	44	1	416	0	0			0	0			1				0	
6.6.1	win	2023-06-12	15:32:37	15:41:59	549122	57dab7f721d77800018e42fe	3	1	main_z	11	advance_on_keypress_ZEE	24	stimuli_target_squaretriangles.svg	stimuli_distractor_diamondtriangles.svg	7	yes	57	0	74	0	0			0	0			1				0	
6.6.1	win	2023-06-12	15:32:37	15:42:01	550602	57dab7f721d77800018e42fe	3	1	main_z	11	main_z	25	stimuli_distractor_diamondtriangles.svg	stimuli_target_trianglerectangles.svg	29	yes	44	1	768	0	0			0	0			1				0	
6.6.1	win	2023-06-12	15:32:37	15:42:01	550602	57dab7f721d77800018e42fe	3	1	main_z	11	advance_on_keypress_ZEE	26	stimuli_distractor_diamondtriangles.svg	stimuli_target_trianglerectangles.svg	29	yes	57	0	73	0	0			0	0			1				0	
6.6.1	win	2023-06-12	15:32:37	15:42:02	551722	57dab7f721d77800018e42fe	3	1	main_z	11	main_z	27	stimuli_distractor_trianglediamonds.svg	stimuli_target_rectangletriangles.svg	9	yes	44	1	427	0	0			0	0			1				0	
6.6.1	win	2023-06-12	15:32:37	15:42:02	551722	57dab7f721d77800018e42fe	3	1	main_z	11	advance_on_keypress_ZEE	28	stimuli_distractor_trianglediamonds.svg	stimuli_target_rectangletriangles.svg	9	yes	57	0	79	0	0			0	0			1				0	
6.6.1	win	2023-06-12	15:32:37	15:42:03	552998	57dab7f721d77800018e42fe	3	1	main_z	11	main_z	29	stimuli_distractor_diamondtriangles.svg	stimuli_target_diamondrectangles.svg	31	yes	44	1	568	0	0			0	0			1				0	
6.6.1	win	2023-06-12	15:32:37	15:42:03	552998	57dab7f721d77800018e42fe	3	1	main_z	11	advance_on_keypress_ZEE	30	stimuli_distractor_diamondtriangles.svg	stimuli_target_diamondrectangles.svg	31	yes	57	0	79	0	0			0	0			1				0	
6.6.1	win	2023-06-12	15:32:37	15:42:04	554165	57dab7f721d77800018e42fe	3	1	main_z	11	main_z	31	stimuli_target_squarediamonds.svg	stimuli_distractor_diamondtriangles.svg	8	yes	44	1	444	0	0			0	0			1				0	
6.6.1	win	2023-06-12	15:32:37	15:42:04	554165	57dab7f721d77800018e42fe	3	1	main_z	11	advance_on_keypress_ZEE	32	stimuli_target_squarediamonds.svg	stimuli_distractor_diamondtriangles.svg	8	yes	57	0	57	0	0			0	0			1				0	
6.6.1	win	2023-06-12	15:32:37	15:42:05	555298	57dab7f721d77800018e42fe	3	1	main_z	11	main_z	33	stimuli_target_trianglesquares.svg	stimuli_distractor_diamondtriangles.svg	22	yes	44	1	444	0	0			0	0			1				0	
6.6.1	win	2023-06-12	15:32:37	15:42:05	555298	57dab7f721d77800018e42fe	3	1	main_z	11	advance_on_keypress_ZEE	34	stimuli_target_trianglesquares.svg	stimuli_distractor_diamondtriangles.svg	22	yes	57	0	87	0	0			0	0			1				0	
6.6.1	win	2023-06-12	15:32:37	15:42:06	556434	57dab7f721d77800018e42fe	3	1	main_z	11	main_z	35	stimuli_target_trianglesquares.svg	stimuli_distractor_trianglediamonds.svg	18	yes	44	1	408	0	0			0	0			1				0	
6.6.1	win	2023-06-12	15:32:37	15:42:06	556434	57dab7f721d77800018e42fe	3	1	main_z	11	advance_on_keypress_ZEE	36	stimuli_target_trianglesquares.svg	stimuli_distractor_trianglediamonds.svg	18	yes	57	0	61	0	0			0	0			1				0	
6.6.1	win	2023-06-12	15:32:37	15:42:09	559150	57dab7f721d77800018e42fe	3	1	main_z	11	main_z	37	stimuli_distractor_trianglediamonds.svg	stimuli_distractor_diamondtriangles.svg	35	no	0	1	2003	0	0			0	0			1				0	
6.6.1	win	2023-06-12	15:32:37	15:42:09	559150	57dab7f721d77800018e42fe	3	1	main_z	11	advance_on_keypress_ZEE	38	stimuli_distractor_trianglediamonds.svg	stimuli_distractor_diamondtriangles.svg	35	no	57	0	280	0	0			0	0			1				0	
6.6.1	win	2023-06-12	15:32:37	15:42:10	560489	57dab7f721d77800018e42fe	3	1	main_z	11	main_z	39	stimuli_target_rectangletriangles.svg	stimuli_distractor_diamondtriangles.svg	5	yes	44	1	427	0	0			0	0			1				0	
6.6.1	win	2023-06-12	15:32:37	15:42:10	560489	57dab7f721d77800018e42fe	3	1	main_z	11	advance_on_keypress_ZEE	40	stimuli_target_rectangletriangles.svg	stimuli_distractor_diamondtriangles.svg	5	yes	57	0	64	0	0			0	0			1				0	
6.6.1	win	2023-06-12	15:32:37	15:42:12	561579	57dab7f721d77800018e42fe	3	1	main_z	11	main_z	41	stimuli_distractor_trianglediamonds.svg	stimuli_target_diamondsquares.svg	28	yes	44	1	398	0	0			0	0			1				0	
6.6.1	win	2023-06-12	15:32:37	15:42:12	561579	57dab7f721d77800018e42fe	3	1	main_z	11	advance_on_keypress_ZEE	42	stimuli_distractor_trianglediamonds.svg	stimuli_target_diamondsquares.svg	28	yes	57	0	97	0	0			0	0			1				0	
6.6.1	win	2023-06-12	15:32:37	15:42:14	564316	57dab7f721d77800018e42fe	3	1	main_z	11	main_z	43	stimuli_distractor_diamondtriangles.svg	stimuli_distractor_trianglediamonds.svg	37	no	0	1	2003	0	0			0	0			1				0	
6.6.1	win	2023-06-12	15:32:37	15:42:14	564316	57dab7f721d77800018e42fe	3	1	main_z	11	advance_on_keypress_ZEE	44	stimuli_distractor_diamondtriangles.svg	stimuli_distractor_trianglediamonds.svg	37	no	57	0	340	0	0			0	0			1				0	
6.6.1	win	2023-06-12	15:32:37	15:42:17	567282	57dab7f721d77800018e42fe	3	1	main_z	11	main_z	45	stimuli_distractor_trianglediamonds.svg	stimuli_distractor_trianglediamonds.svg	34	no	0	1	2003	0	0			0	0			1				0	
6.6.1	win	2023-06-12	15:32:37	15:42:17	567282	57dab7f721d77800018e42fe	3	1	main_z	11	advance_on_keypress_ZEE	46	stimuli_distractor_trianglediamonds.svg	stimuli_distractor_trianglediamonds.svg	34	no	57	0	391	0	0			0	0			1				0	
6.6.1	win	2023-06-12	15:32:37	15:42:20	570296	57dab7f721d77800018e42fe	3	1	main_z	11	main_z	47	stimuli_distractor_trianglediamonds.svg	stimuli_target_squaretriangles.svg	11	yes	0	0	2003	0	0			0	0			1				0	
6.6.1	win	2023-06-12	15:32:37	15:42:20	570296	57dab7f721d77800018e42fe	3	1	main_z	11	advance_on_keypress_ZEE	48	stimuli_distractor_trianglediamonds.svg	stimuli_target_squaretriangles.svg	11	yes	57	0	294	0	0			0	0			1				0	
6.6.1	win	2023-06-12	15:32:37	15:42:23	573224	57dab7f721d77800018e42fe	3	1	main_z	11	main_z	49	stimuli_distractor_diamondtriangles.svg	stimuli_distractor_diamondtriangles.svg	39	no	0	1	2003	0	0			0	0			1				0	
6.6.1	win	2023-06-12	15:32:37	15:42:23	573224	57dab7f721d77800018e42fe	3	1	main_z	11	advance_on_keypress_ZEE	50	stimuli_distractor_diamondtriangles.svg	stimuli_distractor_diamondtriangles.svg	39	no	57	0	277	0	0			0	0			1				0	
6.6.1	win	2023-06-12	15:32:37	15:42:25	574615	57dab7f721d77800018e42fe	3	1	main_z	11	main_z	51	stimuli_target_diamondrectangles.svg	stimuli_distractor_trianglediamonds.svg	19	yes	44	1	493	0	0			0	0			1				0	
6.6.1	win	2023-06-12	15:32:37	15:42:25	574615	57dab7f721d77800018e42fe	3	1	main_z	11	advance_on_keypress_ZEE	52	stimuli_target_diamondrectangles.svg	stimuli_distractor_trianglediamonds.svg	19	yes	57	0	64	0	0			0	0			1				0	
6.6.1	win	2023-06-12	15:32:37	15:42:26	575698	57dab7f721d77800018e42fe	3	1	main_z	11	main_z	53	stimuli_target_diamondsquares.svg	stimuli_distractor_trianglediamonds.svg	20	yes	44	1	386	0	0			0	0			1				0	
6.6.1	win	2023-06-12	15:32:37	15:42:26	575698	57dab7f721d77800018e42fe	3	1	main_z	11	advance_on_keypress_ZEE	54	stimuli_target_diamondsquares.svg	stimuli_distractor_trianglediamonds.svg	20	yes	57	0	58	0	0			0	0			1				0	
6.6.1	win	2023-06-12	15:32:37	15:42:27	576816	57dab7f721d77800018e42fe	3	1	main_z	11	main_z	55	stimuli_distractor_trianglediamonds.svg	stimuli_target_trianglesquares.svg	26	yes	44	1	425	0	0			0	0			1				0	
6.6.1	win	2023-06-12	15:32:37	15:42:27	576816	57dab7f721d77800018e42fe	3	1	main_z	11	advance_on_keypress_ZEE	56	stimuli_distractor_trianglediamonds.svg	stimuli_target_trianglesquares.svg	26	yes	57	0	55	0	0			0	0			1				0	
6.6.1	win	2023-06-12	15:32:37	15:42:30	579502	57dab7f721d77800018e42fe	3	1	main_z	11	main_z	57	stimuli_distractor_trianglediamonds.svg	stimuli_distractor_diamondtriangles.svg	36	no	0	1	2003	0	0			0	0			1				0	
6.6.1	win	2023-06-12	15:32:37	15:42:30	579502	57dab7f721d77800018e42fe	3	1	main_z	11	advance_on_keypress_ZEE	58	stimuli_distractor_trianglediamonds.svg	stimuli_distractor_diamondtriangles.svg	36	no	57	0	478	0	0			0	0			1				0	
6.6.1	win	2023-06-12	15:32:37	15:42:31	581148	57dab7f721d77800018e42fe	3	1	main_z	11	main_z	59	stimuli_target_trianglerectangles.svg	stimuli_distractor_diamondtriangles.svg	21	yes	44	1	528	0	0			0	0			1				0	
6.6.1	win	2023-06-12	15:32:37	15:42:31	581148	57dab7f721d77800018e42fe	3	1	main_z	11	advance_on_keypress_ZEE	60	stimuli_target_trianglerectangles.svg	stimuli_distractor_diamondtriangles.svg	21	yes	57	0	56	0	0			0	0			1				0	
6.6.1	win	2023-06-12	15:32:37	15:42:32	582314	57dab7f721d77800018e42fe	3	1	main_z	11	main_z	61	stimuli_target_trianglerectangles.svg	stimuli_distractor_trianglediamonds.svg	17	yes	44	1	488	0	0			0	0			1				0	
6.6.1	win	2023-06-12	15:32:37	15:42:32	582314	57dab7f721d77800018e42fe	3	1	main_z	11	advance_on_keypress_ZEE	62	stimuli_target_trianglerectangles.svg	stimuli_distractor_trianglediamonds.svg	17	yes	57	0	56	0	0			0	0			1				0	
6.6.1	win	2023-06-12	15:32:37	15:42:35	584998	57dab7f721d77800018e42fe	3	1	main_z	11	main_z	63	stimuli_distractor_trianglediamonds.svg	stimuli_distractor_trianglediamonds.svg	33	no	0	1	2003	0	0			0	0			1				0	
6.6.1	win	2023-06-12	15:32:37	15:42:35	584998	57dab7f721d77800018e42fe	3	1	main_z	11	advance_on_keypress_ZEE	64	stimuli_distractor_trianglediamonds.svg	stimuli_distractor_trianglediamonds.svg	33	no	57	0	354	0	0			0	0			1				0	
6.6.1	win	2023-06-12	15:32:37	15:42:37	587142	57dab7f721d77800018e42fe	3	1	main_z	11	main_z	65	stimuli_target_squaretriangles.svg	stimuli_distractor_trianglediamonds.svg	3	yes	44	1	1157	0	0			0	0			1				0	
6.6.1	win	2023-06-12	15:32:37	15:42:37	587142	57dab7f721d77800018e42fe	3	1	main_z	11	advance_on_keypress_ZEE	66	stimuli_target_squaretriangles.svg	stimuli_distractor_trianglediamonds.svg	3	yes	57	0	25	0	0			0	0			1				0	
6.6.1	win	2023-06-12	15:32:37	15:42:38	588260	57dab7f721d77800018e42fe	3	1	main_z	11	main_z	67	stimuli_distractor_diamondtriangles.svg	stimuli_target_trianglesquares.svg	30	yes	44	1	451	0	0			0	0			1				0	
6.6.1	win	2023-06-12	15:32:37	15:42:38	588260	57dab7f721d77800018e42fe	3	1	main_z	11	advance_on_keypress_ZEE	68	stimuli_distractor_diamondtriangles.svg	stimuli_target_trianglesquares.svg	30	yes	57	0	61	0	0			0	0			1				0	
6.6.1	win	2023-06-12	15:32:37	15:42:39	589441	57dab7f721d77800018e42fe	3	1	main_z	11	main_z	69	stimuli_distractor_diamondtriangles.svg	stimuli_target_diamondsquares.svg	32	yes	44	1	468	0	0			0	0			1				0	
6.6.1	win	2023-06-12	15:32:37	15:42:39	589441	57dab7f721d77800018e42fe	3	1	main_z	11	advance_on_keypress_ZEE	70	stimuli_distractor_diamondtriangles.svg	stimuli_target_diamondsquares.svg	32	yes	57	0	52	0	0			0	0			1				0	
6.6.1	win	2023-06-12	15:32:37	15:42:42	592122	57dab7f721d77800018e42fe	3	1	main_z	11	main_z	71	stimuli_distractor_diamondtriangles.svg	stimuli_target_rectangletriangles.svg	13	yes	0	0	2003	0	0			0	0			1				0	
6.6.1	win	2023-06-12	15:32:37	15:42:42	592122	57dab7f721d77800018e42fe	3	1	main_z	11	advance_on_keypress_ZEE	72	stimuli_distractor_diamondtriangles.svg	stimuli_target_rectangletriangles.svg	13	yes	57	0	307	0	0			0	0			1				0	
6.6.1	win	2023-06-12	15:32:37	15:42:44	593578	57dab7f721d77800018e42fe	3	1	main_z	11	main_z	73	stimuli_distractor_diamondtriangles.svg	stimuli_target_squaretriangles.svg	15	yes	44	1	512	0	0			0	0			1				0	
6.6.1	win	2023-06-12	15:32:37	15:42:44	593578	57dab7f721d77800018e42fe	3	1	main_z	11	advance_on_keypress_ZEE	74	stimuli_distractor_diamondtriangles.svg	stimuli_target_squaretriangles.svg	15	yes	57	0	44	0	0			0	0			1				0	
6.6.1	win	2023-06-12	15:32:37	15:42:46	596256	57dab7f721d77800018e42fe	3	1	main_z	11	main_z	75	stimuli_distractor_diamondtriangles.svg	stimuli_distractor_trianglediamonds.svg	38	no	0	1	2003	0	0			0	0			1				0	
6.6.1	win	2023-06-12	15:32:37	15:42:46	596256	57dab7f721d77800018e42fe	3	1	main_z	11	advance_on_keypress_ZEE	76	stimuli_distractor_diamondtriangles.svg	stimuli_distractor_trianglediamonds.svg	38	no	57	0	291	0	0			0	0			1				0	
6.6.1	win	2023-06-12	15:32:37	15:42:48	597678	57dab7f721d77800018e42fe	3	1	main_z	11	main_z	77	stimuli_target_diamondrectangles.svg	stimuli_distractor_diamondtriangles.svg	23	yes	44	1	508	0	0			0	0			1				0	
6.6.1	win	2023-06-12	15:32:37	15:42:48	597678	57dab7f721d77800018e42fe	3	1	main_z	11	advance_on_keypress_ZEE	78	stimuli_target_diamondrectangles.svg	stimuli_distractor_diamondtriangles.svg	23	yes	57	0	55	0	0			0	0			1				0	
6.6.1	win	2023-06-12	15:32:37	15:42:49	598766	57dab7f721d77800018e42fe	3	1	main_z	11	main_z	79	stimuli_distractor_trianglediamonds.svg	stimuli_target_diamondrectangles.svg	27	yes	44	1	406	0	0			0	0			1				0	
6.6.1	win	2023-06-12	15:32:37	15:42:49	598766	57dab7f721d77800018e42fe	3	1	main_z	11	advance_on_keypress_ZEE	80	stimuli_distractor_trianglediamonds.svg	stimuli_target_diamondrectangles.svg	27	yes	57	0	52	0	0			0	0			1				0	
6.6.1	win	2023-06-12	15:32:37	15:42:51	601446	57dab7f721d77800018e42fe	3	1	main_z	11	main_z	81	stimuli_distractor_trianglediamonds.svg	stimuli_distractor_diamondtriangles.svg	35	no	0	1	2003	0	0			0	0			1				0	
6.6.1	win	2023-06-12	15:32:37	15:42:51	601446	57dab7f721d77800018e42fe	3	1	main_z	11	advance_on_keypress_ZEE	82	stimuli_distractor_trianglediamonds.svg	stimuli_distractor_diamondtriangles.svg	35	no	57	0	369	0	0			0	0			1				0	
6.6.1	win	2023-06-12	15:32:37	15:42:53	602978	57dab7f721d77800018e42fe	3	1	main_z	11	main_z	83	stimuli_distractor_diamondtriangles.svg	stimuli_target_diamondsquares.svg	32	yes	44	1	529	0	0			0	0			1				0	
6.6.1	win	2023-06-12	15:32:37	15:42:53	602978	57dab7f721d77800018e42fe	3	1	main_z	11	advance_on_keypress_ZEE	84	stimuli_distractor_diamondtriangles.svg	stimuli_target_diamondsquares.svg	32	yes	57	0	57	0	0			0	0			1				0	
6.6.1	win	2023-06-12	15:32:37	15:42:54	604290	57dab7f721d77800018e42fe	3	1	main_z	11	main_z	85	stimuli_distractor_diamondtriangles.svg	stimuli_target_squarediamonds.svg	16	yes	44	1	616	0	0			0	0			1				0	
6.6.1	win	2023-06-12	15:32:37	15:42:54	604290	57dab7f721d77800018e42fe	3	1	main_z	11	advance_on_keypress_ZEE	86	stimuli_distractor_diamondtriangles.svg	stimuli_target_squarediamonds.svg	16	yes	57	0	58	0	0			0	0			1				0	
6.6.1	win	2023-06-12	15:32:37	15:42:57	606970	57dab7f721d77800018e42fe	3	1	main_z	11	main_z	87	stimuli_distractor_trianglediamonds.svg	stimuli_distractor_diamondtriangles.svg	36	no	0	1	2003	0	0			0	0			1				0	
6.6.1	win	2023-06-12	15:32:37	15:42:57	606970	57dab7f721d77800018e42fe	3	1	main_z	11	advance_on_keypress_ZEE	88	stimuli_distractor_trianglediamonds.svg	stimuli_distractor_diamondtriangles.svg	36	no	57	0	334	0	0			0	0			1				0	
6.6.1	win	2023-06-12	15:32:37	15:42:58	608425	57dab7f721d77800018e42fe	3	1	main_z	11	main_z	89	stimuli_target_rectangletriangles.svg	stimuli_distractor_diamondtriangles.svg	5	yes	44	1	483	0	0			0	0			1				0	
6.6.1	win	2023-06-12	15:32:37	15:42:58	608425	57dab7f721d77800018e42fe	3	1	main_z	11	advance_on_keypress_ZEE	90	stimuli_target_rectangletriangles.svg	stimuli_distractor_diamondtriangles.svg	5	yes	57	0	58	0	0			0	0			1				0	
6.6.1	win	2023-06-12	15:32:37	15:43:00	609572	57dab7f721d77800018e42fe	3	1	main_z	11	main_z	91	stimuli_distractor_diamondtriangles.svg	stimuli_target_rectangletriangles.svg	13	yes	44	1	448	0	0			0	0			1				0	
6.6.1	win	2023-06-12	15:32:37	15:43:00	609572	57dab7f721d77800018e42fe	3	1	main_z	11	advance_on_keypress_ZEE	92	stimuli_distractor_diamondtriangles.svg	stimuli_target_rectangletriangles.svg	13	yes	57	0	52	0	0			0	0			1				0	
6.6.1	win	2023-06-12	15:32:37	15:43:01	610710	57dab7f721d77800018e42fe	3	1	main_z	11	main_z	93	stimuli_target_squarediamonds.svg	stimuli_distractor_trianglediamonds.svg	4	yes	44	1	451	0	0			0	0			1				0	
6.6.1	win	2023-06-12	15:32:37	15:43:01	610710	57dab7f721d77800018e42fe	3	1	main_z	11	advance_on_keypress_ZEE	94	stimuli_target_squarediamonds.svg	stimuli_distractor_trianglediamonds.svg	4	yes	57	0	57	0	0			0	0			1				0	
6.6.1	win	2023-06-12	15:32:37	15:43:02	611893	57dab7f721d77800018e42fe	3	1	main_z	11	main_z	95	stimuli_target_squaretriangles.svg	stimuli_distractor_diamondtriangles.svg	7	yes	44	1	509	0	0			0	0			1				0	
6.6.1	win	2023-06-12	15:32:37	15:43:02	611893	57dab7f721d77800018e42fe	3	1	main_z	11	advance_on_keypress_ZEE	96	stimuli_target_squaretriangles.svg	stimuli_distractor_diamondtriangles.svg	7	yes	57	0	66	0	0			0	0			1				0	
6.6.1	win	2023-06-12	15:32:37	15:43:05	614604	57dab7f721d77800018e42fe	3	1	main_z	11	main_z	97	stimuli_distractor_diamondtriangles.svg	stimuli_distractor_diamondtriangles.svg	40	no	0	1	2003	0	0			0	0			1				0	
6.6.1	win	2023-06-12	15:32:37	15:43:05	614604	57dab7f721d77800018e42fe	3	1	main_z	11	advance_on_keypress_ZEE	98	stimuli_distractor_diamondtriangles.svg	stimuli_distractor_diamondtriangles.svg	40	no	57	0	381	0	0			0	0			1				0	
6.6.1	win	2023-06-12	15:32:37	15:43:06	616329	57dab7f721d77800018e42fe	3	1	main_z	11	main_z	99	stimuli_target_trianglesquares.svg	stimuli_distractor_diamondtriangles.svg	22	yes	44	1	703	0	0			0	0			1				0	
6.6.1	win	2023-06-12	15:32:37	15:43:06	616329	57dab7f721d77800018e42fe	3	1	main_z	11	advance_on_keypress_ZEE	100	stimuli_target_trianglesquares.svg	stimuli_distractor_diamondtriangles.svg	22	yes	57	0	25	0	0			0	0			1				0	
6.6.1	win	2023-06-12	15:32:37	15:43:07	617401	57dab7f721d77800018e42fe	3	1	main_z	11	main_z	101	stimuli_target_squaretriangles.svg	stimuli_distractor_trianglediamonds.svg	3	yes	44	1	419	0	0			0	0			1				0	
6.6.1	win	2023-06-12	15:32:37	15:43:07	617401	57dab7f721d77800018e42fe	3	1	main_z	11	advance_on_keypress_ZEE	102	stimuli_target_squaretriangles.svg	stimuli_distractor_trianglediamonds.svg	3	yes	57	0	56	0	0			0	0			1				0	
6.6.1	win	2023-06-12	15:32:37	15:43:08	618499	57dab7f721d77800018e42fe	3	1	main_z	11	main_z	103	stimuli_target_rectanglediamonds.svg	stimuli_distractor_trianglediamonds.svg	2	yes	44	1	398	0	0			0	0			1				0	
6.6.1	win	2023-06-12	15:32:37	15:43:08	618499	57dab7f721d77800018e42fe	3	1	main_z	11	advance_on_keypress_ZEE	104	stimuli_target_rectanglediamonds.svg	stimuli_distractor_trianglediamonds.svg	2	yes	57	0	55	0	0			0	0			1				0	
6.6.1	win	2023-06-12	15:32:37	15:43:10	619600	57dab7f721d77800018e42fe	3	1	main_z	11	main_z	105	stimuli_target_rectangletriangles.svg	stimuli_distractor_trianglediamonds.svg	1	yes	44	1	399	0	0			0	0			1				0	
6.6.1	win	2023-06-12	15:32:37	15:43:10	619600	57dab7f721d77800018e42fe	3	1	main_z	11	advance_on_keypress_ZEE	106	stimuli_target_rectangletriangles.svg	stimuli_distractor_trianglediamonds.svg	1	yes	57	0	41	0	0			0	0			1				0	
6.6.1	win	2023-06-12	15:32:37	15:43:11	620724	57dab7f721d77800018e42fe	3	1	main_z	11	main_z	107	stimuli_target_trianglerectangles.svg	stimuli_distractor_diamondtriangles.svg	21	yes	44	1	465	0	0			0	0			1				0	
6.6.1	win	2023-06-12	15:32:37	15:43:11	620724	57dab7f721d77800018e42fe	3	1	main_z	11	advance_on_keypress_ZEE	108	stimuli_target_trianglerectangles.svg	stimuli_distractor_diamondtriangles.svg	21	yes	57	0	78	0	0			0	0			1				0	
6.6.1	win	2023-06-12	15:32:37	15:43:13	623420	57dab7f721d77800018e42fe	3	1	main_z	11	main_z	109	stimuli_distractor_diamondtriangles.svg	stimuli_distractor_trianglediamonds.svg	38	no	0	1	2003	0	0			0	0			1				0	
6.6.1	win	2023-06-12	15:32:37	15:43:13	623420	57dab7f721d77800018e42fe	3	1	main_z	11	advance_on_keypress_ZEE	110	stimuli_distractor_diamondtriangles.svg	stimuli_distractor_trianglediamonds.svg	38	no	57	0	423	0	0			0	0			1				0	
6.6.1	win	2023-06-12	15:32:37	15:43:15	624975	57dab7f721d77800018e42fe	3	1	main_z	11	main_z	111	stimuli_distractor_trianglediamonds.svg	stimuli_target_diamondrectangles.svg	27	yes	44	1	492	0	0			0	0			1				0	
6.6.1	win	2023-06-12	15:32:37	15:43:15	624975	57dab7f721d77800018e42fe	3	1	main_z	11	advance_on_keypress_ZEE	112	stimuli_distractor_trianglediamonds.svg	stimuli_target_diamondrectangles.svg	27	yes	57	0	36	0	0			0	0			1				0	
6.6.1	win	2023-06-12	15:32:37	15:43:16	626316	57dab7f721d77800018e42fe	3	1	main_z	11	main_z	113	stimuli_distractor_diamondtriangles.svg	stimuli_target_squaretriangles.svg	15	yes	44	1	663	0	0			0	0			1				0	
6.6.1	win	2023-06-12	15:32:37	15:43:16	626316	57dab7f721d77800018e42fe	3	1	main_z	11	advance_on_keypress_ZEE	114	stimuli_distractor_diamondtriangles.svg	stimuli_target_squaretriangles.svg	15	yes	57	0	36	0	0			0	0			1				0	
6.6.1	win	2023-06-12	15:32:37	15:43:17	627401	57dab7f721d77800018e42fe	3	1	main_z	11	main_z	115	stimuli_distractor_diamondtriangles.svg	stimuli_target_trianglerectangles.svg	29	yes	44	1	428	0	0			0	0			1				0	
6.6.1	win	2023-06-12	15:32:37	15:43:17	627401	57dab7f721d77800018e42fe	3	1	main_z	11	advance_on_keypress_ZEE	116	stimuli_distractor_diamondtriangles.svg	stimuli_target_trianglerectangles.svg	29	yes	57	0	35	0	0			0	0			1				0	
6.6.1	win	2023-06-12	15:32:37	15:43:18	628469	57dab7f721d77800018e42fe	3	1	main_z	11	main_z	117	stimuli_distractor_diamondtriangles.svg	stimuli_target_diamondrectangles.svg	31	yes	44	1	399	0	0			0	0			1				0	
6.6.1	win	2023-06-12	15:32:37	15:43:18	628469	57dab7f721d77800018e42fe	3	1	main_z	11	advance_on_keypress_ZEE	118	stimuli_distractor_diamondtriangles.svg	stimuli_target_diamondrectangles.svg	31	yes	57	0	26	0	0			0	0			1				0	
6.6.1	win	2023-06-12	15:32:37	15:43:20	629516	57dab7f721d77800018e42fe	3	1	main_z	11	main_z	119	stimuli_target_diamondsquares.svg	stimuli_distractor_diamondtriangles.svg	24	yes	44	1	407	0	0			0	0			1				0	
6.6.1	win	2023-06-12	15:32:37	15:43:20	629516	57dab7f721d77800018e42fe	3	1	main_z	11	advance_on_keypress_ZEE	120	stimuli_target_diamondsquares.svg	stimuli_distractor_diamondtriangles.svg	24	yes	57	0	55	0	0			0	0			1				0	
6.6.1	win	2023-06-12	15:32:37	15:43:21	630641	57dab7f721d77800018e42fe	3	1	main_z	11	main_z	121	stimuli_distractor_trianglediamonds.svg	stimuli_target_rectangletriangles.svg	9	yes	44	1	431	0	0			0	0			1				0	
6.6.1	win	2023-06-12	15:32:37	15:43:21	630641	57dab7f721d77800018e42fe	3	1	main_z	11	advance_on_keypress_ZEE	122	stimuli_distractor_trianglediamonds.svg	stimuli_target_rectangletriangles.svg	9	yes	57	0	81	0	0			0	0			1				0	
6.6.1	win	2023-06-12	15:32:37	15:43:23	633358	57dab7f721d77800018e42fe	3	1	main_z	11	main_z	123	stimuli_distractor_trianglediamonds.svg	stimuli_distractor_trianglediamonds.svg	34	no	0	1	2003	0	0			0	0			1				0	
6.6.1	win	2023-06-12	15:32:37	15:43:23	633358	57dab7f721d77800018e42fe	3	1	main_z	11	advance_on_keypress_ZEE	124	stimuli_distractor_trianglediamonds.svg	stimuli_distractor_trianglediamonds.svg	34	no	57	0	358	0	0			0	0			1				0	
6.6.1	win	2023-06-12	15:32:37	15:43:26	636343	57dab7f721d77800018e42fe	3	1	main_z	11	main_z	125	stimuli_distractor_trianglediamonds.svg	stimuli_distractor_trianglediamonds.svg	33	no	0	1	2003	0	0			0	0			1				0	
6.6.1	win	2023-06-12	15:32:37	15:43:26	636343	57dab7f721d77800018e42fe	3	1	main_z	11	advance_on_keypress_ZEE	126	stimuli_distractor_trianglediamonds.svg	stimuli_distractor_trianglediamonds.svg	33	no	57	0	319	0	0			0	0			1				0	
6.6.1	win	2023-06-12	15:32:37	15:43:29	639297	57dab7f721d77800018e42fe	3	1	main_z	11	main_z	127	stimuli_distractor_diamondtriangles.svg	stimuli_distractor_trianglediamonds.svg	37	no	0	1	2003	0	0			0	0			1				0	
6.6.1	win	2023-06-12	15:32:37	15:43:29	639297	57dab7f721d77800018e42fe	3	1	main_z	11	advance_on_keypress_ZEE	128	stimuli_distractor_diamondtriangles.svg	stimuli_distractor_trianglediamonds.svg	37	no	57	0	291	0	0			0	0			1				0	
6.6.1	win	2023-06-12	15:32:37	15:43:31	640734	57dab7f721d77800018e42fe	3	1	main_z	11	main_z	129	stimuli_target_trianglerectangles.svg	stimuli_distractor_trianglediamonds.svg	17	yes	44	1	509	0	0			0	0			1				0	
6.6.1	win	2023-06-12	15:32:37	15:43:31	640734	57dab7f721d77800018e42fe	3	1	main_z	11	advance_on_keypress_ZEE	130	stimuli_target_trianglerectangles.svg	stimuli_distractor_trianglediamonds.svg	17	yes	57	0	38	0	0			0	0			1				0	
6.6.1	win	2023-06-12	15:32:37	15:43:32	641802	57dab7f721d77800018e42fe	3	1	main_z	11	main_z	131	stimuli_target_diamondrectangles.svg	stimuli_distractor_trianglediamonds.svg	19	yes	44	1	399	0	0			0	0			1				0	
6.6.1	win	2023-06-12	15:32:37	15:43:32	641802	57dab7f721d77800018e42fe	3	1	main_z	11	advance_on_keypress_ZEE	132	stimuli_target_diamondrectangles.svg	stimuli_distractor_trianglediamonds.svg	19	yes	57	0	34	0	0			0	0			1				0	
6.6.1	win	2023-06-12	15:32:37	15:43:33	642952	57dab7f721d77800018e42fe	3	1	main_z	11	main_z	133	stimuli_distractor_diamondtriangles.svg	stimuli_distractor_diamondtriangles.svg	39	no	44	0	483	0	0			0	0			1				0	
6.6.1	win	2023-06-12	15:32:37	15:43:33	642952	57dab7f721d77800018e42fe	3	1	main_z	11	advance_on_keypress_ZEE	134	stimuli_distractor_diamondtriangles.svg	stimuli_distractor_diamondtriangles.svg	39	no	57	0	611	0	0			0	0			1				0	
6.6.1	win	2023-06-12	15:32:37	15:43:35	644612	57dab7f721d77800018e42fe	3	1	main_z	11	main_z	135	stimuli_distractor_trianglediamonds.svg	stimuli_target_squarediamonds.svg	12	yes	44	1	406	0	0			0	0			1				0	
6.6.1	win	2023-06-12	15:32:37	15:43:35	644612	57dab7f721d77800018e42fe	3	1	main_z	11	advance_on_keypress_ZEE	136	stimuli_distractor_trianglediamonds.svg	stimuli_target_squarediamonds.svg	12	yes	57	0	44	0	0			0	0			1				0	
6.6.1	win	2023-06-12	15:32:37	15:43:36	645763	57dab7f721d77800018e42fe	3	1	main_z	11	main_z	137	stimuli_target_diamondsquares.svg	stimuli_distractor_trianglediamonds.svg	20	yes	44	1	477	0	0			0	0			1				0	
6.6.1	win	2023-06-12	15:32:37	15:43:36	645763	57dab7f721d77800018e42fe	3	1	main_z	11	advance_on_keypress_ZEE	138	stimuli_target_diamondsquares.svg	stimuli_distractor_trianglediamonds.svg	20	yes	57	0	36	0	0			0	0			1				0	
6.6.1	win	2023-06-12	15:32:37	15:43:37	646835	57dab7f721d77800018e42fe	3	1	main_z	11	main_z	139	stimuli_target_squarediamonds.svg	stimuli_distractor_diamondtriangles.svg	8	yes	44	1	403	0	0			0	0			1				0	
6.6.1	win	2023-06-12	15:32:37	15:43:37	646835	57dab7f721d77800018e42fe	3	1	main_z	11	advance_on_keypress_ZEE	140	stimuli_target_squarediamonds.svg	stimuli_distractor_diamondtriangles.svg	8	yes	57	0	26	0	0			0	0			1				0	
6.6.1	win	2023-06-12	15:32:37	15:43:38	647839	57dab7f721d77800018e42fe	3	1	main_z	11	main_z	141	stimuli_distractor_trianglediamonds.svg	stimuli_target_rectanglediamonds.svg	10	yes	44	1	360	0	0			0	0			1				0	
6.6.1	win	2023-06-12	15:32:37	15:43:38	647839	57dab7f721d77800018e42fe	3	1	main_z	11	advance_on_keypress_ZEE	142	stimuli_distractor_trianglediamonds.svg	stimuli_target_rectanglediamonds.svg	10	yes	57	0	21	0	0			0	0			1				0	
6.6.1	win	2023-06-12	15:32:37	15:43:39	648860	57dab7f721d77800018e42fe	3	1	main_z	11	main_z	143	stimuli_distractor_trianglediamonds.svg	stimuli_target_trianglesquares.svg	26	yes	44	1	380	0	0			0	0			1				0	
6.6.1	win	2023-06-12	15:32:37	15:43:39	648860	57dab7f721d77800018e42fe	3	1	main_z	11	advance_on_keypress_ZEE	144	stimuli_distractor_trianglediamonds.svg	stimuli_target_trianglesquares.svg	26	yes	57	0	26	0	0			0	0			1				0	
6.6.1	win	2023-06-12	15:32:37	15:43:40	649991	57dab7f721d77800018e42fe	3	1	main_z	11	main_z	145	stimuli_target_diamondrectangles.svg	stimuli_distractor_diamondtriangles.svg	23	yes	44	1	484	0	0			0	0			1				0	
6.6.1	win	2023-06-12	15:32:37	15:43:40	649991	57dab7f721d77800018e42fe	3	1	main_z	11	advance_on_keypress_ZEE	146	stimuli_target_diamondrectangles.svg	stimuli_distractor_diamondtriangles.svg	23	yes	57	0	28	0	0			0	0			1				0	
6.6.1	win	2023-06-12	15:32:37	15:43:41	651022	57dab7f721d77800018e42fe	3	1	main_z	11	main_z	147	stimuli_distractor_trianglediamonds.svg	stimuli_target_diamondsquares.svg	28	yes	44	1	375	0	0			0	0			1				0	
6.6.1	win	2023-06-12	15:32:37	15:43:41	651022	57dab7f721d77800018e42fe	3	1	main_z	11	advance_on_keypress_ZEE	148	stimuli_distractor_trianglediamonds.svg	stimuli_target_diamondsquares.svg	28	yes	57	0	17	0	0			0	0			1				0	
6.6.1	win	2023-06-12	15:32:37	15:43:42	652317	57dab7f721d77800018e42fe	3	1	main_z	11	main_z	149	stimuli_distractor_trianglediamonds.svg	stimuli_target_trianglerectangles.svg	25	yes	44	1	640	0	0			0	0			1				0	
6.6.1	win	2023-06-12	15:32:37	15:43:42	652317	57dab7f721d77800018e42fe	3	1	main_z	11	advance_on_keypress_ZEE	150	stimuli_distractor_trianglediamonds.svg	stimuli_target_trianglerectangles.svg	25	yes	57	0	23	0	0			0	0			1				0	
6.6.1	win	2023-06-12	15:32:37	15:43:44	653527	57dab7f721d77800018e42fe	3	1	main_z	11	main_z	151	stimuli_distractor_trianglediamonds.svg	stimuli_target_squaretriangles.svg	11	yes	44	1	551	0	0			0	0			1				0	
6.6.1	win	2023-06-12	15:32:37	15:43:44	653527	57dab7f721d77800018e42fe	3	1	main_z	11	advance_on_keypress_ZEE	152	stimuli_distractor_trianglediamonds.svg	stimuli_target_squaretriangles.svg	11	yes	57	0	25	0	0			0	0			1				0	
6.6.1	win	2023-06-12	15:32:37	15:43:45	654608	57dab7f721d77800018e42fe	3	1	main_z	11	main_z	153	stimuli_distractor_diamondtriangles.svg	stimuli_target_rectanglediamonds.svg	14	yes	44	1	412	0	0			0	0			1				0	
6.6.1	win	2023-06-12	15:32:37	15:43:45	654608	57dab7f721d77800018e42fe	3	1	main_z	11	advance_on_keypress_ZEE	154	stimuli_distractor_diamondtriangles.svg	stimuli_target_rectanglediamonds.svg	14	yes	57	0	41	0	0			0	0			1				0	
6.6.1	win	2023-06-12	15:32:37	15:43:46	655700	57dab7f721d77800018e42fe	3	1	main_z	11	main_z	155	stimuli_target_trianglesquares.svg	stimuli_distractor_trianglediamonds.svg	18	yes	44	1	417	0	0			0	0			1				0	
6.6.1	win	2023-06-12	15:32:37	15:43:46	655700	57dab7f721d77800018e42fe	3	1	main_z	11	advance_on_keypress_ZEE	156	stimuli_target_trianglesquares.svg	stimuli_distractor_trianglediamonds.svg	18	yes	57	0	21	0	0			0	0			1				0	
6.6.1	win	2023-06-12	15:32:37	15:43:47	656722	57dab7f721d77800018e42fe	3	1	main_z	11	main_z	157	stimuli_target_rectanglediamonds.svg	stimuli_distractor_diamondtriangles.svg	6	yes	44	1	379	0	0			0	0			1				0	
6.6.1	win	2023-06-12	15:32:37	15:43:47	656722	57dab7f721d77800018e42fe	3	1	main_z	11	advance_on_keypress_ZEE	158	stimuli_target_rectanglediamonds.svg	stimuli_distractor_diamondtriangles.svg	6	yes	57	0	19	0	0			0	0			1				0	
6.6.1	win	2023-06-12	15:32:37	15:43:48	657760	57dab7f721d77800018e42fe	3	1	main_z	11	main_z	159	stimuli_distractor_diamondtriangles.svg	stimuli_target_trianglesquares.svg	30	yes	44	1	374	0	0			0	0			1				0	
6.6.1	win	2023-06-12	15:32:37	15:43:48	657760	57dab7f721d77800018e42fe	3	1	main_z	11	advance_on_keypress_ZEE	160	stimuli_distractor_diamondtriangles.svg	stimuli_target_trianglesquares.svg	30	yes	57	0	13	0	0			0	0			1				0	
6.6.1	win	2023-06-12	15:32:37	15:43:48	657760	57dab7f721d77800018e42fe	3	1	headphonecheck_calibration	14	headphonecheck_calibrationIntro	1	stimuli_distractor_diamondtriangles.svg	stimuli_target_trianglesquares.svg	30	yes	calibrationButton	0	3549	0	0			0	0			1				0	
6.6.1	win	2023-06-12	15:32:37	15:43:48	657760	57dab7f721d77800018e42fe	3	1	headphonecheck_testphase	15	test_collectResponse	3	stimuli_distractor_diamondtriangles.svg	stimuli_target_trianglesquares.svg	30	yes	second	1	2791	1	1	antiphase_hc_iso.wav	2	0	0			1				0	
6.6.1	win	2023-06-12	15:32:37	15:43:48	657760	57dab7f721d77800018e42fe	3	1	headphonecheck_testphase	15	test_collectResponse	6	stimuli_distractor_diamondtriangles.svg	stimuli_target_trianglesquares.svg	30	yes	third	1	453	2	2	antiphase_hc_ios.wav	3	0	0			1				0	
6.6.1	win	2023-06-12	15:32:37	15:43:48	657760	57dab7f721d77800018e42fe	3	1	headphonecheck_testphase	15	test_collectResponse	9	stimuli_distractor_diamondtriangles.svg	stimuli_target_trianglesquares.svg	30	yes	first	1	373	3	4	antiphase_hc_sio.wav	1	0	0			1				0	
6.6.1	win	2023-06-12	15:32:37	15:43:48	657760	57dab7f721d77800018e42fe	3	1	headphonecheck_testphase	15	test_collectResponse	12	stimuli_distractor_diamondtriangles.svg	stimuli_target_trianglesquares.svg	30	yes	second	1	352	4	5	antiphase_hc_osi.wav	2	0	0			1				0	
6.6.1	win	2023-06-12	15:32:37	15:43:48	657760	57dab7f721d77800018e42fe	3	1	headphonecheck_testphase	15	test_collectResponse	15	stimuli_distractor_diamondtriangles.svg	stimuli_target_trianglesquares.svg	30	yes	first	1	354	5	3	antiphase_hc_soi.wav	1	0	0			1				0	
6.6.1	win	2023-06-12	15:32:37	15:43:48	657760	57dab7f721d77800018e42fe	3	1	headphonecheck_testphase	15	test_collectResponse	18	stimuli_distractor_diamondtriangles.svg	stimuli_target_trianglesquares.svg	30	yes	third	1	399	6	6	antiphase_hc_ois.wav	3	0	0			1				0	
6.6.1	win	2023-06-12	15:32:37	15:43:48	657760	57dab7f721d77800018e42fe	3	1	stereocheck_calibration	17	stereocheck_calibrationIntro	1	stimuli_distractor_diamondtriangles.svg	stimuli_target_trianglesquares.svg	30	yes	stereocheck_calibrationButton	0	6256	6	6	antiphase_hc_ois.wav	3	0	0			1				0	
6.6.1	win	2023-06-12	15:32:37	15:43:48	657760	57dab7f721d77800018e42fe	3	1	stereocheck_testphase	18	stereocheck_test_collectResponse	3	stimuli_distractor_diamondtriangles.svg	stimuli_target_trianglesquares.svg	30	yes	stereocheck_left	1	351	6	6	antiphase_hc_ois.wav	3	1	3	noise_calib_stim_LEFT.wav	1	1				0	
6.6.1	win	2023-06-12	15:32:37	15:43:48	657760	57dab7f721d77800018e42fe	3	1	stereocheck_testphase	18	stereocheck_test_collectResponse	6	stimuli_distractor_diamondtriangles.svg	stimuli_target_trianglesquares.svg	30	yes	stereocheck_left	1	729	6	6	antiphase_hc_ois.wav	3	2	2	noise_calib_stim_LEFT.wav	1	1				0	
6.6.1	win	2023-06-12	15:32:37	15:43:48	657760	57dab7f721d77800018e42fe	3	1	stereocheck_testphase	18	stereocheck_test_collectResponse	9	stimuli_distractor_diamondtriangles.svg	stimuli_target_trianglesquares.svg	30	yes	stereocheck_right	1	440	6	6	antiphase_hc_ois.wav	3	3	5	noise_calib_stim_RIGHT.wav	2	1				0	
6.6.1	win	2023-06-12	15:32:37	15:43:48	657760	57dab7f721d77800018e42fe	3	1	stereocheck_testphase	18	stereocheck_test_collectResponse	12	stimuli_distractor_diamondtriangles.svg	stimuli_target_trianglesquares.svg	30	yes	stereocheck_left	1	374	6	6	antiphase_hc_ois.wav	3	4	1	noise_calib_stim_LEFT.wav	1	1				0	
6.6.1	win	2023-06-12	15:32:37	15:43:48	657760	57dab7f721d77800018e42fe	3	1	stereocheck_testphase	18	stereocheck_test_collectResponse	15	stimuli_distractor_diamondtriangles.svg	stimuli_target_trianglesquares.svg	30	yes	stereocheck_right	1	377	6	6	antiphase_hc_ois.wav	3	5	6	noise_calib_stim_RIGHT.wav	2	1				0	
6.6.1	win	2023-06-12	15:32:37	15:43:48	657760	57dab7f721d77800018e42fe	3	1	stereocheck_testphase	18	stereocheck_test_collectResponse	18	stimuli_distractor_diamondtriangles.svg	stimuli_target_trianglesquares.svg	30	yes	stereocheck_right	1	1033	6	6	antiphase_hc_ois.wav	3	6	4	noise_calib_stim_RIGHT.wav	2	1				0	
6.6.1	win	2023-06-12	15:32:37	15:43:48	657760	57dab7f721d77800018e42fe	3	1	DL_practice	21	DL_practice	2	stimuli_distractor_diamondtriangles.svg	stimuli_target_trianglesquares.svg	30	yes	ga	1	1854	6	6	antiphase_hc_ois.wav	3	6	4	noise_calib_stim_RIGHT.wav	2	18	blb_dichoticlistening_ga-ta.mp3	ga	ta	1	left
6.6.1	win	2023-06-12	15:32:37	15:43:48	657760	57dab7f721d77800018e42fe	3	1	DL_practice	21	DL_practice	3	stimuli_distractor_diamondtriangles.svg	stimuli_target_trianglesquares.svg	30	yes	ga	1	1152	6	6	antiphase_hc_ois.wav	3	6	4	noise_calib_stim_RIGHT.wav	2	15	blb_dichoticlistening_ga-ga.mp3	ga	ga	0	left
6.6.1	win	2023-06-12	15:32:37	15:43:48	657760	57dab7f721d77800018e42fe	3	1	DL_practice	21	DL_practice	4	stimuli_distractor_diamondtriangles.svg	stimuli_target_trianglesquares.svg	30	yes	da	1	1152	6	6	antiphase_hc_ois.wav	3	6	4	noise_calib_stim_RIGHT.wav	2	8	blb_dichoticlistening_da-da.mp3	da	da	0	left
6.6.1	win	2023-06-12	15:32:37	15:43:48	657760	57dab7f721d77800018e42fe	3	1	DL_practice	21	DL_practice	5	stimuli_distractor_diamondtriangles.svg	stimuli_target_trianglesquares.svg	30	yes	ba	1	1334	6	6	antiphase_hc_ois.wav	3	6	4	noise_calib_stim_RIGHT.wav	2	1	blb_dichoticlistening_ba-ba.mp3	ba	ba	0	left
6.6.1	win	2023-06-12	15:32:37	15:43:48	657760	57dab7f721d77800018e42fe	3	1	DL_practice	21	DL_practice	6	stimuli_distractor_diamondtriangles.svg	stimuli_target_trianglesquares.svg	30	yes	da	1	1884	6	6	antiphase_hc_ois.wav	3	6	4	noise_calib_stim_RIGHT.wav	2	7	blb_dichoticlistening_da-ba.mp3	da	ba	1	left
6.6.1	win	2023-06-12	15:32:37	15:43:48	657760	57dab7f721d77800018e42fe	3	1	DL_practice	21	DL_practice	7	stimuli_distractor_diamondtriangles.svg	stimuli_target_trianglesquares.svg	30	yes	pa	1	1601	6	6	antiphase_hc_ois.wav	3	6	4	noise_calib_stim_RIGHT.wav	2	23	blb_dichoticlistening_ka-pa.mp3	ka	pa	1	right
6.6.1	win	2023-06-12	15:32:37	15:43:48	657760	57dab7f721d77800018e42fe	3	1	DL_practice	21	DL_practice	8	stimuli_distractor_diamondtriangles.svg	stimuli_target_trianglesquares.svg	30	yes	ka	1	1273	6	6	antiphase_hc_ois.wav	3	6	4	noise_calib_stim_RIGHT.wav	2	22	blb_dichoticlistening_ka-ka.mp3	ka	ka	0	left
6.6.1	win	2023-06-12	15:32:37	15:43:48	657760	57dab7f721d77800018e42fe	3	1	DL_practice	21	DL_practice	9	stimuli_distractor_diamondtriangles.svg	stimuli_target_trianglesquares.svg	30	yes	pa	1	1604	6	6	antiphase_hc_ois.wav	3	6	4	noise_calib_stim_RIGHT.wav	2	29	blb_dichoticlistening_pa-pa.mp3	pa	pa	0	left
6.6.1	win	2023-06-12	15:32:37	15:43:48	657760	57dab7f721d77800018e42fe	3	1	DL_practice	21	DL_practice	10	stimuli_distractor_diamondtriangles.svg	stimuli_target_trianglesquares.svg	30	yes	ta	1	1616	6	6	antiphase_hc_ois.wav	3	6	4	noise_calib_stim_RIGHT.wav	2	36	blb_dichoticlistening_ta-ta.mp3	ta	ta	0	left
6.6.1	win	2023-06-12	15:32:37	15:43:48	657760	57dab7f721d77800018e42fe	3	1	DL_test	23	DL_test	1	stimuli_distractor_diamondtriangles.svg	stimuli_target_trianglesquares.svg	30	yes	ta	0	2705	6	6	antiphase_hc_ois.wav	3	6	4	noise_calib_stim_RIGHT.wav	2	28	blb_dichoticlistening_pa-ka.mp3	pa	ka	1	other
6.6.1	win	2023-06-12	15:32:37	15:43:48	657760	57dab7f721d77800018e42fe	3	1	DL_test	23	DL_test	2	stimuli_distractor_diamondtriangles.svg	stimuli_target_trianglesquares.svg	30	yes	pa	1	2105	6	6	antiphase_hc_ois.wav	3	6	4	noise_calib_stim_RIGHT.wav	2	26	blb_dichoticlistening_pa-da.mp3	pa	da	1	left
6.6.1	win	2023-06-12	15:32:37	15:43:48	657760	57dab7f721d77800018e42fe	3	1	DL_test	23	DL_test	3	stimuli_distractor_diamondtriangles.svg	stimuli_target_trianglesquares.svg	30	yes	ka	0	2199	6	6	antiphase_hc_ois.wav	3	6	4	noise_calib_stim_RIGHT.wav	2	33	blb_dichoticlistening_ta-ga.mp3	ta	ga	1	other
6.6.1	win	2023-06-12	15:32:37	15:43:48	657760	57dab7f721d77800018e42fe	3	1	DL_test	23	DL_test	4	stimuli_distractor_diamondtriangles.svg	stimuli_target_trianglesquares.svg	30	yes	ta	1	2006	6	6	antiphase_hc_ois.wav	3	6	4	noise_calib_stim_RIGHT.wav	2	12	blb_dichoticlistening_da-ta.mp3	da	ta	1	right
6.6.1	win	2023-06-12	15:32:37	15:43:48	657760	57dab7f721d77800018e42fe	3	1	DL_test	23	DL_test	5	stimuli_distractor_diamondtriangles.svg	stimuli_target_trianglesquares.svg	30	yes	ta	0	1525	6	6	antiphase_hc_ois.wav	3	6	4	noise_calib_stim_RIGHT.wav	2	10	blb_dichoticlistening_da-ka.mp3	da	ka	1	other
6.6.1	win	2023-06-12	15:32:37	15:43:48	657760	57dab7f721d77800018e42fe	3	1	DL_test	23	DL_test	6	stimuli_distractor_diamondtriangles.svg	stimuli_target_trianglesquares.svg	30	yes	pa	1	2565	6	6	antiphase_hc_ois.wav	3	6	4	noise_calib_stim_RIGHT.wav	2	23	blb_dichoticlistening_ka-pa.mp3	ka	pa	1	right
6.6.1	win	2023-06-12	15:32:37	15:43:48	657760	57dab7f721d77800018e42fe	3	1	DL_test	23	DL_test	7	stimuli_distractor_diamondtriangles.svg	stimuli_target_trianglesquares.svg	30	yes	pa	1	1281	6	6	antiphase_hc_ois.wav	3	6	4	noise_calib_stim_RIGHT.wav	2	11	blb_dichoticlistening_da-pa.mp3	da	pa	1	right
6.6.1	win	2023-06-12	15:32:37	15:43:48	657760	57dab7f721d77800018e42fe	3	1	DL_test	23	DL_test	8	stimuli_distractor_diamondtriangles.svg	stimuli_target_trianglesquares.svg	30	yes	ta	1	1588	6	6	antiphase_hc_ois.wav	3	6	4	noise_calib_stim_RIGHT.wav	2	30	blb_dichoticlistening_pa-ta.mp3	pa	ta	1	right
6.6.1	win	2023-06-12	15:32:37	15:43:48	657760	57dab7f721d77800018e42fe	3	1	DL_test	23	DL_test	9	stimuli_distractor_diamondtriangles.svg	stimuli_target_trianglesquares.svg	30	yes	pa	0	2916	6	6	antiphase_hc_ois.wav	3	6	4	noise_calib_stim_RIGHT.wav	2	19	blb_dichoticlistening_ka-ba.mp3	ka	ba	1	other
6.6.1	win	2023-06-12	15:32:37	15:43:48	657760	57dab7f721d77800018e42fe	3	1	DL_test	23	DL_test	10	stimuli_distractor_diamondtriangles.svg	stimuli_target_trianglesquares.svg	30	yes	ka	1	1800	6	6	antiphase_hc_ois.wav	3	6	4	noise_calib_stim_RIGHT.wav	2	20	blb_dichoticlistening_ka-da.mp3	ka	da	1	left
6.6.1	win	2023-06-12	15:32:37	15:43:48	657760	57dab7f721d77800018e42fe	3	1	DL_test	23	DL_test	11	stimuli_distractor_diamondtriangles.svg	stimuli_target_trianglesquares.svg	30	yes	da	1	1318	6	6	antiphase_hc_ois.wav	3	6	4	noise_calib_stim_RIGHT.wav	2	14	blb_dichoticlistening_ga-da.mp3	ga	da	1	right
6.6.1	win	2023-06-12	15:32:37	15:43:48	657760	57dab7f721d77800018e42fe	3	1	DL_test	23	DL_test	12	stimuli_distractor_diamondtriangles.svg	stimuli_target_trianglesquares.svg	30	yes	ta	1	1408	6	6	antiphase_hc_ois.wav	3	6	4	noise_calib_stim_RIGHT.wav	2	34	blb_dichoticlistening_ta-ka.mp3	ta	ka	1	left
6.6.1	win	2023-06-12	15:32:37	15:43:48	657760	57dab7f721d77800018e42fe	3	1	DL_test	23	DL_test	13	stimuli_distractor_diamondtriangles.svg	stimuli_target_trianglesquares.svg	30	yes	ta	1	1679	6	6	antiphase_hc_ois.wav	3	6	4	noise_calib_stim_RIGHT.wav	2	18	blb_dichoticlistening_ga-ta.mp3	ga	ta	1	right
6.6.1	win	2023-06-12	15:32:37	15:43:48	657760	57dab7f721d77800018e42fe	3	1	DL_test	23	DL_test	14	stimuli_distractor_diamondtriangles.svg	stimuli_target_trianglesquares.svg	30	yes	ba	1	1448	6	6	antiphase_hc_ois.wav	3	6	4	noise_calib_stim_RIGHT.wav	2	1	blb_dichoticlistening_ba-ba.mp3	ba	ba	0	left
6.6.1	win	2023-06-12	15:32:37	15:43:48	657760	57dab7f721d77800018e42fe	3	1	DL_test	23	DL_test	15	stimuli_distractor_diamondtriangles.svg	stimuli_target_trianglesquares.svg	30	yes	ta	1	1318	6	6	antiphase_hc_ois.wav	3	6	4	noise_calib_stim_RIGHT.wav	2	36	blb_dichoticlistening_ta-ta.mp3	ta	ta	0	left
6.6.1	win	2023-06-12	15:32:37	15:43:48	657760	57dab7f721d77800018e42fe	3	1	DL_test	23	DL_test	16	stimuli_distractor_diamondtriangles.svg	stimuli_target_trianglesquares.svg	30	yes	ga	1	1568	6	6	antiphase_hc_ois.wav	3	6	4	noise_calib_stim_RIGHT.wav	2	13	blb_dichoticlistening_ga-ba.mp3	ga	ba	1	left
6.6.1	win	2023-06-12	15:32:37	15:43:48	657760	57dab7f721d77800018e42fe	3	1	DL_test	23	DL_test	17	stimuli_distractor_diamondtriangles.svg	stimuli_target_trianglesquares.svg	30	yes	ga	1	1221	6	6	antiphase_hc_ois.wav	3	6	4	noise_calib_stim_RIGHT.wav	2	15	blb_dichoticlistening_ga-ga.mp3	ga	ga	0	left
6.6.1	win	2023-06-12	15:32:37	15:43:48	657760	57dab7f721d77800018e42fe	3	1	DL_test	23	DL_test	18	stimuli_distractor_diamondtriangles.svg	stimuli_target_trianglesquares.svg	30	yes	da	1	1282	6	6	antiphase_hc_ois.wav	3	6	4	noise_calib_stim_RIGHT.wav	2	9	blb_dichoticlistening_da-ga.mp3	da	ga	1	left
6.6.1	win	2023-06-12	15:32:37	15:43:48	657760	57dab7f721d77800018e42fe	3	1	DL_test	23	DL_test	19	stimuli_distractor_diamondtriangles.svg	stimuli_target_trianglesquares.svg	30	yes	ta	1	1549	6	6	antiphase_hc_ois.wav	3	6	4	noise_calib_stim_RIGHT.wav	2	32	blb_dichoticlistening_ta-da.mp3	ta	da	1	left
6.6.1	win	2023-06-12	15:32:37	15:43:48	657760	57dab7f721d77800018e42fe	3	1	DL_test	23	DL_test	20	stimuli_distractor_diamondtriangles.svg	stimuli_target_trianglesquares.svg	30	yes	pa	1	1902	6	6	antiphase_hc_ois.wav	3	6	4	noise_calib_stim_RIGHT.wav	2	29	blb_dichoticlistening_pa-pa.mp3	pa	pa	0	left
6.6.1	win	2023-06-12	15:32:37	15:43:48	657760	57dab7f721d77800018e42fe	3	1	DL_test	23	DL_test	21	stimuli_distractor_diamondtriangles.svg	stimuli_target_trianglesquares.svg	30	yes	da	1	1150	6	6	antiphase_hc_ois.wav	3	6	4	noise_calib_stim_RIGHT.wav	2	2	blb_dichoticlistening_ba-da.mp3	ba	da	1	right
6.6.1	win	2023-06-12	15:32:37	15:43:48	657760	57dab7f721d77800018e42fe	3	1	DL_test	23	DL_test	22	stimuli_distractor_diamondtriangles.svg	stimuli_target_trianglesquares.svg	30	yes	ta	1	1169	6	6	antiphase_hc_ois.wav	3	6	4	noise_calib_stim_RIGHT.wav	2	24	blb_dichoticlistening_ka-ta.mp3	ka	ta	1	right
6.6.1	win	2023-06-12	15:32:37	15:43:48	657760	57dab7f721d77800018e42fe	3	1	DL_test	23	DL_test	23	stimuli_distractor_diamondtriangles.svg	stimuli_target_trianglesquares.svg	30	yes	pa	1	1837	6	6	antiphase_hc_ois.wav	3	6	4	noise_calib_stim_RIGHT.wav	2	17	blb_dichoticlistening_ga-pa.mp3	ga	pa	1	right
6.6.1	win	2023-06-12	15:32:37	15:43:48	657760	57dab7f721d77800018e42fe	3	1	DL_test	23	DL_test	24	stimuli_distractor_diamondtriangles.svg	stimuli_target_trianglesquares.svg	30	yes	da	1	1284	6	6	antiphase_hc_ois.wav	3	6	4	noise_calib_stim_RIGHT.wav	2	7	blb_dichoticlistening_da-ba.mp3	da	ba	1	left
6.6.1	win	2023-06-12	15:32:37	15:43:48	657760	57dab7f721d77800018e42fe	3	1	DL_test	23	DL_test	25	stimuli_distractor_diamondtriangles.svg	stimuli_target_trianglesquares.svg	30	yes	ta	1	1282	6	6	antiphase_hc_ois.wav	3	6	4	noise_calib_stim_RIGHT.wav	2	31	blb_dichoticlistening_ta-ba.mp3	ta	ba	1	left
6.6.1	win	2023-06-12	15:32:37	15:43:48	657760	57dab7f721d77800018e42fe	3	1	DL_test	23	DL_test	26	stimuli_distractor_diamondtriangles.svg	stimuli_target_trianglesquares.svg	30	yes	pa	1	2216	6	6	antiphase_hc_ois.wav	3	6	4	noise_calib_stim_RIGHT.wav	2	27	blb_dichoticlistening_pa-ga.mp3	pa	ga	1	left
