build	computer.platform	date	time	timestamp	time_elapsed_ms	subject	group	session	blockcode	blocknum	trialcode	trialnum	stimulus_left	stimulus_right	stim_index	target_present	response	correct	latency	headphonecheck_countTestTrials	headphonecheck_index	headphonecheck_testSound	headphonecheck_correctResponse	stereocheck_countTestTrials	stereocheck_index	stereocheck_testSound	stereocheck_correctResponse	DL_index	DL_soundfile	DL_leftSound	DL_rightSound	DL_dualSound	DL_choice
6.6.1	mac	2023-06-27	10:16:42	10:19:45	179101	60d2c59451b12e36fb281477	4	1	practice_z	5	practice_z	1	stimuli_distractor_trianglediamonds.svg	stimuli_target_diamondrectangles.svg	12	yes	0	0	2000	0	0			0	0			1				0	
6.6.1	mac	2023-06-27	10:16:42	10:19:45	179101	60d2c59451b12e36fb281477	4	1	practice_z	5	advance_on_keypress_ZEE	2	stimuli_distractor_trianglediamonds.svg	stimuli_target_diamondrectangles.svg	12	yes	57	0	1657	0	0			0	0			1				0	
6.6.1	mac	2023-06-27	10:16:42	10:19:50	184404	60d2c59451b12e36fb281477	4	1	practice_z	5	practice_z	3	stimuli_distractor_diamondtriangles.svg	stimuli_distractor_trianglediamonds.svg	14	no	0	1	2000	0	0			0	0			1				0	
6.6.1	mac	2023-06-27	10:16:42	10:19:50	184404	60d2c59451b12e36fb281477	4	1	practice_z	5	advance_on_keypress_ZEE	4	stimuli_distractor_diamondtriangles.svg	stimuli_distractor_trianglediamonds.svg	14	no	57	0	587	0	0			0	0			1				0	
6.6.1	mac	2023-06-27	10:16:42	10:19:53	187034	60d2c59451b12e36fb281477	4	1	practice_z	5	practice_z	5	stimuli_target_rectanglediamonds.svg	stimuli_distractor_trianglediamonds.svg	4	yes	44	1	422	0	0			0	0			1				0	
6.6.1	mac	2023-06-27	10:16:42	10:19:53	187034	60d2c59451b12e36fb281477	4	1	practice_z	5	advance_on_keypress_ZEE	6	stimuli_target_rectanglediamonds.svg	stimuli_distractor_trianglediamonds.svg	4	yes	57	0	636	0	0			0	0			1				0	
6.6.1	mac	2023-06-27	10:16:42	10:19:55	189759	60d2c59451b12e36fb281477	4	1	practice_z	5	practice_z	7	stimuli_distractor_trianglediamonds.svg	stimuli_target_rectanglediamonds.svg	10	yes	44	1	461	0	0			0	0			1				0	
6.6.1	mac	2023-06-27	10:16:42	10:19:55	189759	60d2c59451b12e36fb281477	4	1	practice_z	5	advance_on_keypress_ZEE	8	stimuli_distractor_trianglediamonds.svg	stimuli_target_rectanglediamonds.svg	10	yes	57	0	465	0	0			0	0			1				0	
6.6.1	mac	2023-06-27	10:16:42	10:19:59	193866	60d2c59451b12e36fb281477	4	1	practice_z	5	practice_z	9	stimuli_distractor_trianglediamonds.svg	stimuli_distractor_trianglediamonds.svg	15	no	0	1	2000	0	0			0	0			1				0	
6.6.1	mac	2023-06-27	10:16:42	10:19:59	193866	60d2c59451b12e36fb281477	4	1	practice_z	5	advance_on_keypress_ZEE	10	stimuli_distractor_trianglediamonds.svg	stimuli_distractor_trianglediamonds.svg	15	no	57	0	1496	0	0			0	0			1				0	
6.6.1	mac	2023-06-27	10:16:42	10:20:03	197558	60d2c59451b12e36fb281477	4	1	practice_z	5	practice_z	11	stimuli_distractor_diamondtriangles.svg	stimuli_target_trianglerectangles.svg	9	yes	44	1	558	0	0			0	0			1				0	
6.6.1	mac	2023-06-27	10:16:42	10:20:03	197558	60d2c59451b12e36fb281477	4	1	practice_z	5	advance_on_keypress_ZEE	12	stimuli_distractor_diamondtriangles.svg	stimuli_target_trianglerectangles.svg	9	yes	57	0	335	0	0			0	0			1				0	
6.6.1	mac	2023-06-27	10:16:42	10:20:06	200206	60d2c59451b12e36fb281477	4	1	practice_z	5	practice_z	13	stimuli_target_squarediamonds.svg	stimuli_distractor_trianglediamonds.svg	5	yes	44	1	669	0	0			0	0			1				0	
6.6.1	mac	2023-06-27	10:16:42	10:20:06	200206	60d2c59451b12e36fb281477	4	1	practice_z	5	advance_on_keypress_ZEE	14	stimuli_target_squarediamonds.svg	stimuli_distractor_trianglediamonds.svg	5	yes	57	0	459	0	0			0	0			1				0	
6.6.1	mac	2023-06-27	10:16:42	10:20:10	204320	60d2c59451b12e36fb281477	4	1	practice_z	5	practice_z	15	stimuli_distractor_diamondtriangles.svg	stimuli_distractor_diamondtriangles.svg	13	no	0	1	2000	0	0			0	0			1				0	
6.6.1	mac	2023-06-27	10:16:42	10:20:10	204320	60d2c59451b12e36fb281477	4	1	practice_z	5	advance_on_keypress_ZEE	16	stimuli_distractor_diamondtriangles.svg	stimuli_distractor_diamondtriangles.svg	13	no	57	0	591	0	0			0	0			1				0	
6.6.1	mac	2023-06-27	10:16:42	10:20:13	207240	60d2c59451b12e36fb281477	4	1	practice_z	5	practice_z	17	stimuli_target_diamondsquares.svg	stimuli_distractor_trianglediamonds.svg	6	yes	44	1	678	0	0			0	0			1				0	
6.6.1	mac	2023-06-27	10:16:42	10:20:13	207240	60d2c59451b12e36fb281477	4	1	practice_z	5	advance_on_keypress_ZEE	18	stimuli_target_diamondsquares.svg	stimuli_distractor_trianglediamonds.svg	6	yes	57	0	310	0	0			0	0			1				0	
6.6.1	mac	2023-06-27	10:16:42	10:20:15	209785	60d2c59451b12e36fb281477	4	1	practice_z	5	practice_z	19	stimuli_distractor_diamondtriangles.svg	stimuli_target_diamondrectangles.svg	8	yes	44	1	588	0	0			0	0			1				0	
6.6.1	mac	2023-06-27	10:16:42	10:20:15	209785	60d2c59451b12e36fb281477	4	1	practice_z	5	advance_on_keypress_ZEE	20	stimuli_distractor_diamondtriangles.svg	stimuli_target_diamondrectangles.svg	8	yes	57	0	384	0	0			0	0			1				0	
6.6.1	mac	2023-06-27	10:16:42	10:20:18	212307	60d2c59451b12e36fb281477	4	1	practice_z	5	practice_z	21	stimuli_distractor_diamondtriangles.svg	stimuli_target_rectangletriangles.svg	7	yes	44	1	507	0	0			0	0			1				0	
6.6.1	mac	2023-06-27	10:16:42	10:20:18	212307	60d2c59451b12e36fb281477	4	1	practice_z	5	advance_on_keypress_ZEE	22	stimuli_distractor_diamondtriangles.svg	stimuli_target_rectangletriangles.svg	7	yes	57	0	277	0	0			0	0			1				0	
6.6.1	mac	2023-06-27	10:16:42	10:20:20	214814	60d2c59451b12e36fb281477	4	1	practice_z	5	practice_z	23	stimuli_target_diamondsquares.svg	stimuli_distractor_diamondtriangles.svg	3	yes	44	1	583	0	0			0	0			1				0	
6.6.1	mac	2023-06-27	10:16:42	10:20:20	214814	60d2c59451b12e36fb281477	4	1	practice_z	5	advance_on_keypress_ZEE	24	stimuli_target_diamondsquares.svg	stimuli_distractor_diamondtriangles.svg	3	yes	57	0	211	0	0			0	0			1				0	
6.6.1	mac	2023-06-27	10:16:42	10:20:23	217258	60d2c59451b12e36fb281477	4	1	practice_z	5	practice_z	25	stimuli_target_rectanglediamonds.svg	stimuli_distractor_diamondtriangles.svg	1	yes	44	1	592	0	0			0	0			1				0	
6.6.1	mac	2023-06-27	10:16:42	10:20:23	217258	60d2c59451b12e36fb281477	4	1	practice_z	5	advance_on_keypress_ZEE	26	stimuli_target_rectanglediamonds.svg	stimuli_distractor_diamondtriangles.svg	1	yes	57	0	222	0	0			0	0			1				0	
6.6.1	mac	2023-06-27	10:16:42	10:20:27	221112	60d2c59451b12e36fb281477	4	1	practice_z	5	practice_z	27	stimuli_distractor_trianglediamonds.svg	stimuli_distractor_diamondtriangles.svg	16	no	0	1	2000	0	0			0	0			1				0	
6.6.1	mac	2023-06-27	10:16:42	10:20:27	221112	60d2c59451b12e36fb281477	4	1	practice_z	5	advance_on_keypress_ZEE	28	stimuli_distractor_trianglediamonds.svg	stimuli_distractor_diamondtriangles.svg	16	no	57	0	548	0	0			0	0			1				0	
6.6.1	mac	2023-06-27	10:16:42	10:20:29	223736	60d2c59451b12e36fb281477	4	1	practice_z	5	practice_z	29	stimuli_target_squarediamonds.svg	stimuli_distractor_diamondtriangles.svg	2	yes	44	1	436	0	0			0	0			1				0	
6.6.1	mac	2023-06-27	10:16:42	10:20:29	223736	60d2c59451b12e36fb281477	4	1	practice_z	5	advance_on_keypress_ZEE	30	stimuli_target_squarediamonds.svg	stimuli_distractor_diamondtriangles.svg	2	yes	57	0	551	0	0			0	0			1				0	
6.6.1	mac	2023-06-27	10:16:42	10:20:32	226433	60d2c59451b12e36fb281477	4	1	practice_z	5	practice_z	31	stimuli_distractor_trianglediamonds.svg	stimuli_target_squarediamonds.svg	11	yes	44	1	520	0	0			0	0			1				0	
6.6.1	mac	2023-06-27	10:16:42	10:20:32	226433	60d2c59451b12e36fb281477	4	1	practice_z	5	advance_on_keypress_ZEE	32	stimuli_distractor_trianglediamonds.svg	stimuli_target_squarediamonds.svg	11	yes	57	0	270	0	0			0	0			1				0	
6.6.1	mac	2023-06-27	10:16:42	10:20:41	235243	60d2c59451b12e36fb281477	4	1	main_z	7	main_z	1	stimuli_target_trianglerectangles.svg	stimuli_distractor_diamondtriangles.svg	21	yes	44	1	515	0	0			0	0			1				0	
6.6.1	mac	2023-06-27	10:16:42	10:20:41	235243	60d2c59451b12e36fb281477	4	1	main_z	7	advance_on_keypress_ZEE	2	stimuli_target_trianglerectangles.svg	stimuli_distractor_diamondtriangles.svg	21	yes	57	0	521	0	0			0	0			1				0	
6.6.1	mac	2023-06-27	10:16:42	10:20:42	236794	60d2c59451b12e36fb281477	4	1	main_z	7	main_z	3	stimuli_target_diamondrectangles.svg	stimuli_distractor_diamondtriangles.svg	23	yes	44	1	399	0	0			0	0			1				0	
6.6.1	mac	2023-06-27	10:16:42	10:20:42	236794	60d2c59451b12e36fb281477	4	1	main_z	7	advance_on_keypress_ZEE	4	stimuli_target_diamondrectangles.svg	stimuli_distractor_diamondtriangles.svg	23	yes	57	0	345	0	0			0	0			1				0	
6.6.1	mac	2023-06-27	10:16:42	10:20:44	238234	60d2c59451b12e36fb281477	4	1	main_z	7	main_z	5	stimuli_distractor_trianglediamonds.svg	stimuli_target_trianglerectangles.svg	25	yes	44	1	457	0	0			0	0			1				0	
6.6.1	mac	2023-06-27	10:16:42	10:20:44	238234	60d2c59451b12e36fb281477	4	1	main_z	7	advance_on_keypress_ZEE	6	stimuli_distractor_trianglediamonds.svg	stimuli_target_trianglerectangles.svg	25	yes	57	0	487	0	0			0	0			1				0	
6.6.1	mac	2023-06-27	10:16:42	10:20:47	241344	60d2c59451b12e36fb281477	4	1	main_z	7	main_z	7	stimuli_distractor_trianglediamonds.svg	stimuli_distractor_diamondtriangles.svg	36	no	0	1	2000	0	0			0	0			1				0	
6.6.1	mac	2023-06-27	10:16:42	10:20:47	241344	60d2c59451b12e36fb281477	4	1	main_z	7	advance_on_keypress_ZEE	8	stimuli_distractor_trianglediamonds.svg	stimuli_distractor_diamondtriangles.svg	36	no	57	0	496	0	0			0	0			1				0	
6.6.1	mac	2023-06-27	10:16:42	10:20:49	243008	60d2c59451b12e36fb281477	4	1	main_z	7	main_z	9	stimuli_target_squarediamonds.svg	stimuli_distractor_trianglediamonds.svg	4	yes	44	1	531	0	0			0	0			1				0	
6.6.1	mac	2023-06-27	10:16:42	10:20:49	243008	60d2c59451b12e36fb281477	4	1	main_z	7	advance_on_keypress_ZEE	10	stimuli_target_squarediamonds.svg	stimuli_distractor_trianglediamonds.svg	4	yes	57	0	450	0	0			0	0			1				0	
6.6.1	mac	2023-06-27	10:16:42	10:20:50	244625	60d2c59451b12e36fb281477	4	1	main_z	7	main_z	11	stimuli_distractor_trianglediamonds.svg	stimuli_target_squaretriangles.svg	11	yes	44	1	530	0	0			0	0			1				0	
6.6.1	mac	2023-06-27	10:16:42	10:20:50	244625	60d2c59451b12e36fb281477	4	1	main_z	7	advance_on_keypress_ZEE	12	stimuli_distractor_trianglediamonds.svg	stimuli_target_squaretriangles.svg	11	yes	57	0	522	0	0			0	0			1				0	
6.6.1	mac	2023-06-27	10:16:42	10:20:52	246202	60d2c59451b12e36fb281477	4	1	main_z	7	main_z	13	stimuli_distractor_trianglediamonds.svg	stimuli_target_diamondrectangles.svg	27	yes	44	1	423	0	0			0	0			1				0	
6.6.1	mac	2023-06-27	10:16:42	10:20:52	246202	60d2c59451b12e36fb281477	4	1	main_z	7	advance_on_keypress_ZEE	14	stimuli_distractor_trianglediamonds.svg	stimuli_target_diamondrectangles.svg	27	yes	57	0	507	0	0			0	0			1				0	
6.6.1	mac	2023-06-27	10:16:42	10:20:53	247752	60d2c59451b12e36fb281477	4	1	main_z	7	main_z	15	stimuli_target_diamondrectangles.svg	stimuli_distractor_trianglediamonds.svg	19	yes	44	1	423	0	0			0	0			1				0	
6.6.1	mac	2023-06-27	10:16:42	10:20:53	247752	60d2c59451b12e36fb281477	4	1	main_z	7	advance_on_keypress_ZEE	16	stimuli_target_diamondrectangles.svg	stimuli_distractor_trianglediamonds.svg	19	yes	57	0	1093	0	0			0	0			1				0	
6.6.1	mac	2023-06-27	10:16:42	10:20:56	249957	60d2c59451b12e36fb281477	4	1	main_z	7	main_z	17	stimuli_distractor_diamondtriangles.svg	stimuli_target_rectangletriangles.svg	13	yes	44	1	479	0	0			0	0			1				0	
6.6.1	mac	2023-06-27	10:16:42	10:20:56	249957	60d2c59451b12e36fb281477	4	1	main_z	7	advance_on_keypress_ZEE	18	stimuli_distractor_diamondtriangles.svg	stimuli_target_rectangletriangles.svg	13	yes	57	0	633	0	0			0	0			1				0	
6.6.1	mac	2023-06-27	10:16:42	10:20:57	251646	60d2c59451b12e36fb281477	4	1	main_z	7	main_z	19	stimuli_target_squarediamonds.svg	stimuli_distractor_diamondtriangles.svg	8	yes	44	1	416	0	0			0	0			1				0	
6.6.1	mac	2023-06-27	10:16:42	10:20:57	251646	60d2c59451b12e36fb281477	4	1	main_z	7	advance_on_keypress_ZEE	20	stimuli_target_squarediamonds.svg	stimuli_distractor_diamondtriangles.svg	8	yes	57	0	502	0	0			0	0			1				0	
6.6.1	mac	2023-06-27	10:16:42	10:20:59	253156	60d2c59451b12e36fb281477	4	1	main_z	7	main_z	21	stimuli_target_rectangletriangles.svg	stimuli_distractor_diamondtriangles.svg	5	yes	44	1	375	0	0			0	0			1				0	
6.6.1	mac	2023-06-27	10:16:42	10:20:59	253156	60d2c59451b12e36fb281477	4	1	main_z	7	advance_on_keypress_ZEE	22	stimuli_target_rectangletriangles.svg	stimuli_distractor_diamondtriangles.svg	5	yes	57	0	449	0	0			0	0			1				0	
6.6.1	mac	2023-06-27	10:16:42	10:21:01	255182	60d2c59451b12e36fb281477	4	1	main_z	7	main_z	23	stimuli_distractor_trianglediamonds.svg	stimuli_target_trianglesquares.svg	26	yes	44	1	937	0	0			0	0			1				0	
6.6.1	mac	2023-06-27	10:16:42	10:21:01	255182	60d2c59451b12e36fb281477	4	1	main_z	7	advance_on_keypress_ZEE	24	stimuli_distractor_trianglediamonds.svg	stimuli_target_trianglesquares.svg	26	yes	57	0	1423	0	0			0	0			1				0	
6.6.1	mac	2023-06-27	10:16:42	10:21:05	259230	60d2c59451b12e36fb281477	4	1	main_z	7	main_z	25	stimuli_distractor_trianglediamonds.svg	stimuli_target_diamondsquares.svg	28	yes	0	0	2000	0	0			0	0			1				0	
6.6.1	mac	2023-06-27	10:16:42	10:21:05	259230	60d2c59451b12e36fb281477	4	1	main_z	7	advance_on_keypress_ZEE	26	stimuli_distractor_trianglediamonds.svg	stimuli_target_diamondsquares.svg	28	yes	57	0	659	0	0			0	0			1				0	
6.6.1	mac	2023-06-27	10:16:42	10:21:07	261007	60d2c59451b12e36fb281477	4	1	main_z	7	main_z	27	stimuli_distractor_diamondtriangles.svg	stimuli_target_diamondsquares.svg	32	yes	44	1	478	0	0			0	0			1				0	
6.6.1	mac	2023-06-27	10:16:42	10:21:07	261007	60d2c59451b12e36fb281477	4	1	main_z	7	advance_on_keypress_ZEE	28	stimuli_distractor_diamondtriangles.svg	stimuli_target_diamondsquares.svg	32	yes	57	0	631	0	0			0	0			1				0	
6.6.1	mac	2023-06-27	10:16:42	10:21:10	264283	60d2c59451b12e36fb281477	4	1	main_z	7	main_z	29	stimuli_distractor_diamondtriangles.svg	stimuli_distractor_trianglediamonds.svg	38	no	0	1	2000	0	0			0	0			1				0	
6.6.1	mac	2023-06-27	10:16:42	10:21:10	264283	60d2c59451b12e36fb281477	4	1	main_z	7	advance_on_keypress_ZEE	30	stimuli_distractor_diamondtriangles.svg	stimuli_distractor_trianglediamonds.svg	38	no	57	0	499	0	0			0	0			1				0	
6.6.1	mac	2023-06-27	10:16:42	10:21:13	267427	60d2c59451b12e36fb281477	4	1	main_z	7	main_z	31	stimuli_distractor_trianglediamonds.svg	stimuli_distractor_diamondtriangles.svg	35	no	0	1	2000	0	0			0	0			1				0	
6.6.1	mac	2023-06-27	10:16:42	10:21:13	267427	60d2c59451b12e36fb281477	4	1	main_z	7	advance_on_keypress_ZEE	32	stimuli_distractor_trianglediamonds.svg	stimuli_distractor_diamondtriangles.svg	35	no	57	0	572	0	0			0	0			1				0	
6.6.1	mac	2023-06-27	10:16:42	10:21:16	270626	60d2c59451b12e36fb281477	4	1	main_z	7	main_z	33	stimuli_distractor_trianglediamonds.svg	stimuli_distractor_trianglediamonds.svg	33	no	0	1	2000	0	0			0	0			1				0	
6.6.1	mac	2023-06-27	10:16:42	10:21:16	270626	60d2c59451b12e36fb281477	4	1	main_z	7	advance_on_keypress_ZEE	34	stimuli_distractor_trianglediamonds.svg	stimuli_distractor_trianglediamonds.svg	33	no	57	0	305	0	0			0	0			1				0	
6.6.1	mac	2023-06-27	10:16:42	10:21:18	272188	60d2c59451b12e36fb281477	4	1	main_z	7	main_z	35	stimuli_distractor_trianglediamonds.svg	stimuli_target_rectangletriangles.svg	9	yes	44	1	628	0	0			0	0			1				0	
6.6.1	mac	2023-06-27	10:16:42	10:21:18	272188	60d2c59451b12e36fb281477	4	1	main_z	7	advance_on_keypress_ZEE	36	stimuli_distractor_trianglediamonds.svg	stimuli_target_rectangletriangles.svg	9	yes	57	0	562	0	0			0	0			1				0	
6.6.1	mac	2023-06-27	10:16:42	10:21:21	275393	60d2c59451b12e36fb281477	4	1	main_z	7	main_z	37	stimuli_distractor_diamondtriangles.svg	stimuli_distractor_diamondtriangles.svg	40	no	0	1	2000	0	0			0	0			1				0	
6.6.1	mac	2023-06-27	10:16:42	10:21:21	275393	60d2c59451b12e36fb281477	4	1	main_z	7	advance_on_keypress_ZEE	38	stimuli_distractor_diamondtriangles.svg	stimuli_distractor_diamondtriangles.svg	40	no	57	0	308	0	0			0	0			1				0	
6.6.1	mac	2023-06-27	10:16:42	10:21:24	278347	60d2c59451b12e36fb281477	4	1	main_z	7	main_z	39	stimuli_distractor_diamondtriangles.svg	stimuli_distractor_trianglediamonds.svg	37	no	0	1	2000	0	0			0	0			1				0	
6.6.1	mac	2023-06-27	10:16:42	10:21:24	278347	60d2c59451b12e36fb281477	4	1	main_z	7	advance_on_keypress_ZEE	40	stimuli_distractor_diamondtriangles.svg	stimuli_distractor_trianglediamonds.svg	37	no	57	0	349	0	0			0	0			1				0	
6.6.1	mac	2023-06-27	10:16:42	10:21:25	279841	60d2c59451b12e36fb281477	4	1	main_z	7	main_z	41	stimuli_target_squaretriangles.svg	stimuli_distractor_diamondtriangles.svg	7	yes	44	1	509	0	0			0	0			1				0	
6.6.1	mac	2023-06-27	10:16:42	10:21:25	279841	60d2c59451b12e36fb281477	4	1	main_z	7	advance_on_keypress_ZEE	42	stimuli_target_squaretriangles.svg	stimuli_distractor_diamondtriangles.svg	7	yes	57	0	8300	0	0			0	0			1				0	
6.6.1	mac	2023-06-27	10:16:42	10:21:35	289388	60d2c59451b12e36fb281477	4	1	main_z	7	main_z	43	stimuli_distractor_trianglediamonds.svg	stimuli_target_squarediamonds.svg	12	yes	44	1	609	0	0			0	0			1				0	
6.6.1	mac	2023-06-27	10:16:42	10:21:35	289388	60d2c59451b12e36fb281477	4	1	main_z	7	advance_on_keypress_ZEE	44	stimuli_distractor_trianglediamonds.svg	stimuli_target_squarediamonds.svg	12	yes	57	0	364	0	0			0	0			1				0	
6.6.1	mac	2023-06-27	10:16:42	10:21:37	290979	60d2c59451b12e36fb281477	4	1	main_z	7	main_z	45	stimuli_target_diamondsquares.svg	stimuli_distractor_trianglediamonds.svg	20	yes	44	1	596	0	0			0	0			1				0	
6.6.1	mac	2023-06-27	10:16:42	10:21:37	290979	60d2c59451b12e36fb281477	4	1	main_z	7	advance_on_keypress_ZEE	46	stimuli_target_diamondsquares.svg	stimuli_distractor_trianglediamonds.svg	20	yes	57	0	388	0	0			0	0			1				0	
6.6.1	mac	2023-06-27	10:16:42	10:21:40	293996	60d2c59451b12e36fb281477	4	1	main_z	7	main_z	47	stimuli_distractor_diamondtriangles.svg	stimuli_distractor_diamondtriangles.svg	39	no	0	1	2000	0	0			0	0			1				0	
6.6.1	mac	2023-06-27	10:16:42	10:21:40	293996	60d2c59451b12e36fb281477	4	1	main_z	7	advance_on_keypress_ZEE	48	stimuli_distractor_diamondtriangles.svg	stimuli_distractor_diamondtriangles.svg	39	no	57	0	317	0	0			0	0			1				0	
6.6.1	mac	2023-06-27	10:16:42	10:21:41	295488	60d2c59451b12e36fb281477	4	1	main_z	7	main_z	49	stimuli_distractor_diamondtriangles.svg	stimuli_target_trianglerectangles.svg	29	yes	44	1	540	0	0			0	0			1				0	
6.6.1	mac	2023-06-27	10:16:42	10:21:41	295488	60d2c59451b12e36fb281477	4	1	main_z	7	advance_on_keypress_ZEE	50	stimuli_distractor_diamondtriangles.svg	stimuli_target_trianglerectangles.svg	29	yes	57	0	481	0	0			0	0			1				0	
6.6.1	mac	2023-06-27	10:16:42	10:21:43	297253	60d2c59451b12e36fb281477	4	1	main_z	7	main_z	51	stimuli_distractor_trianglediamonds.svg	stimuli_target_rectanglediamonds.svg	10	yes	44	1	641	0	0			0	0			1				0	
6.6.1	mac	2023-06-27	10:16:42	10:21:43	297253	60d2c59451b12e36fb281477	4	1	main_z	7	advance_on_keypress_ZEE	52	stimuli_distractor_trianglediamonds.svg	stimuli_target_rectanglediamonds.svg	10	yes	57	0	397	0	0			0	0			1				0	
6.6.1	mac	2023-06-27	10:16:42	10:21:44	298726	60d2c59451b12e36fb281477	4	1	main_z	7	main_z	53	stimuli_target_squaretriangles.svg	stimuli_distractor_trianglediamonds.svg	3	yes	44	1	448	0	0			0	0			1				0	
6.6.1	mac	2023-06-27	10:16:42	10:21:44	298726	60d2c59451b12e36fb281477	4	1	main_z	7	advance_on_keypress_ZEE	54	stimuli_target_squaretriangles.svg	stimuli_distractor_trianglediamonds.svg	3	yes	57	0	354	0	0			0	0			1				0	
6.6.1	mac	2023-06-27	10:16:42	10:21:46	300178	60d2c59451b12e36fb281477	4	1	main_z	7	main_z	55	stimuli_target_trianglesquares.svg	stimuli_distractor_diamondtriangles.svg	22	yes	44	1	466	0	0			0	0			1				0	
6.6.1	mac	2023-06-27	10:16:42	10:21:46	300178	60d2c59451b12e36fb281477	4	1	main_z	7	advance_on_keypress_ZEE	56	stimuli_target_trianglesquares.svg	stimuli_distractor_diamondtriangles.svg	22	yes	57	0	344	0	0			0	0			1				0	
6.6.1	mac	2023-06-27	10:16:42	10:21:47	301845	60d2c59451b12e36fb281477	4	1	main_z	7	main_z	57	stimuli_distractor_diamondtriangles.svg	stimuli_target_trianglesquares.svg	30	yes	44	1	680	0	0			0	0			1				0	
6.6.1	mac	2023-06-27	10:16:42	10:21:47	301845	60d2c59451b12e36fb281477	4	1	main_z	7	advance_on_keypress_ZEE	58	stimuli_distractor_diamondtriangles.svg	stimuli_target_trianglesquares.svg	30	yes	57	0	431	0	0			0	0			1				0	
6.6.1	mac	2023-06-27	10:16:42	10:21:49	303437	60d2c59451b12e36fb281477	4	1	main_z	7	main_z	59	stimuli_target_rectangletriangles.svg	stimuli_distractor_trianglediamonds.svg	1	yes	44	1	525	0	0			0	0			1				0	
6.6.1	mac	2023-06-27	10:16:42	10:21:49	303437	60d2c59451b12e36fb281477	4	1	main_z	7	advance_on_keypress_ZEE	60	stimuli_target_rectangletriangles.svg	stimuli_distractor_trianglediamonds.svg	1	yes	57	0	347	0	0			0	0			1				0	
6.6.1	mac	2023-06-27	10:16:42	10:21:50	304834	60d2c59451b12e36fb281477	4	1	main_z	7	main_z	61	stimuli_target_rectanglediamonds.svg	stimuli_distractor_diamondtriangles.svg	6	yes	44	1	422	0	0			0	0			1				0	
6.6.1	mac	2023-06-27	10:16:42	10:21:50	304834	60d2c59451b12e36fb281477	4	1	main_z	7	advance_on_keypress_ZEE	62	stimuli_target_rectanglediamonds.svg	stimuli_distractor_diamondtriangles.svg	6	yes	57	0	351	0	0			0	0			1				0	
6.6.1	mac	2023-06-27	10:16:42	10:21:53	307811	60d2c59451b12e36fb281477	4	1	main_z	7	main_z	63	stimuli_distractor_trianglediamonds.svg	stimuli_distractor_trianglediamonds.svg	34	no	0	1	2000	0	0			0	0			1				0	
6.6.1	mac	2023-06-27	10:16:42	10:21:53	307811	60d2c59451b12e36fb281477	4	1	main_z	7	advance_on_keypress_ZEE	64	stimuli_distractor_trianglediamonds.svg	stimuli_distractor_trianglediamonds.svg	34	no	57	0	316	0	0			0	0			1				0	
6.6.1	mac	2023-06-27	10:16:42	10:21:55	309608	60d2c59451b12e36fb281477	4	1	main_z	7	main_z	65	stimuli_distractor_diamondtriangles.svg	stimuli_target_squaretriangles.svg	15	yes	44	1	844	0	0			0	0			1				0	
6.6.1	mac	2023-06-27	10:16:42	10:21:55	309608	60d2c59451b12e36fb281477	4	1	main_z	7	advance_on_keypress_ZEE	66	stimuli_distractor_diamondtriangles.svg	stimuli_target_squaretriangles.svg	15	yes	57	0	787	0	0			0	0			1				0	
6.6.1	mac	2023-06-27	10:16:42	10:21:57	311495	60d2c59451b12e36fb281477	4	1	main_z	7	main_z	67	stimuli_target_rectanglediamonds.svg	stimuli_distractor_trianglediamonds.svg	2	yes	44	1	468	0	0			0	0			1				0	
6.6.1	mac	2023-06-27	10:16:42	10:21:57	311495	60d2c59451b12e36fb281477	4	1	main_z	7	advance_on_keypress_ZEE	68	stimuli_target_rectanglediamonds.svg	stimuli_distractor_trianglediamonds.svg	2	yes	57	0	434	0	0			0	0			1				0	
6.6.1	mac	2023-06-27	10:16:42	10:21:59	313114	60d2c59451b12e36fb281477	4	1	main_z	7	main_z	69	stimuli_target_trianglesquares.svg	stimuli_distractor_trianglediamonds.svg	18	yes	44	1	553	0	0			0	0			1				0	
6.6.1	mac	2023-06-27	10:16:42	10:21:59	313114	60d2c59451b12e36fb281477	4	1	main_z	7	advance_on_keypress_ZEE	70	stimuli_target_trianglesquares.svg	stimuli_distractor_trianglediamonds.svg	18	yes	57	0	417	0	0			0	0			1				0	
6.6.1	mac	2023-06-27	10:16:42	10:22:00	314621	60d2c59451b12e36fb281477	4	1	main_z	7	main_z	71	stimuli_target_trianglerectangles.svg	stimuli_distractor_trianglediamonds.svg	17	yes	44	1	460	0	0			0	0			1				0	
6.6.1	mac	2023-06-27	10:16:42	10:22:00	314621	60d2c59451b12e36fb281477	4	1	main_z	7	advance_on_keypress_ZEE	72	stimuli_target_trianglerectangles.svg	stimuli_distractor_trianglediamonds.svg	17	yes	57	0	374	0	0			0	0			1				0	
6.6.1	mac	2023-06-27	10:16:42	10:22:02	316177	60d2c59451b12e36fb281477	4	1	main_z	7	main_z	73	stimuli_distractor_diamondtriangles.svg	stimuli_target_rectanglediamonds.svg	14	yes	44	1	547	0	0			0	0			1				0	
6.6.1	mac	2023-06-27	10:16:42	10:22:02	316177	60d2c59451b12e36fb281477	4	1	main_z	7	advance_on_keypress_ZEE	74	stimuli_distractor_diamondtriangles.svg	stimuli_target_rectanglediamonds.svg	14	yes	57	0	431	0	0			0	0			1				0	
6.6.1	mac	2023-06-27	10:16:42	10:22:03	317862	60d2c59451b12e36fb281477	4	1	main_z	7	main_z	75	stimuli_distractor_diamondtriangles.svg	stimuli_target_diamondrectangles.svg	31	yes	44	1	617	0	0			0	0			1				0	
6.6.1	mac	2023-06-27	10:16:42	10:22:03	317862	60d2c59451b12e36fb281477	4	1	main_z	7	advance_on_keypress_ZEE	76	stimuli_distractor_diamondtriangles.svg	stimuli_target_diamondrectangles.svg	31	yes	57	0	459	0	0			0	0			1				0	
6.6.1	mac	2023-06-27	10:16:42	10:22:05	319416	60d2c59451b12e36fb281477	4	1	main_z	7	main_z	77	stimuli_target_diamondsquares.svg	stimuli_distractor_diamondtriangles.svg	24	yes	44	1	455	0	0			0	0			1				0	
6.6.1	mac	2023-06-27	10:16:42	10:22:05	319416	60d2c59451b12e36fb281477	4	1	main_z	7	advance_on_keypress_ZEE	78	stimuli_target_diamondsquares.svg	stimuli_distractor_diamondtriangles.svg	24	yes	57	0	438	0	0			0	0			1				0	
6.6.1	mac	2023-06-27	10:16:42	10:22:07	320991	60d2c59451b12e36fb281477	4	1	main_z	7	main_z	79	stimuli_distractor_diamondtriangles.svg	stimuli_target_squarediamonds.svg	16	yes	44	1	512	0	0			0	0			1				0	
6.6.1	mac	2023-06-27	10:16:42	10:22:07	320991	60d2c59451b12e36fb281477	4	1	main_z	7	advance_on_keypress_ZEE	80	stimuli_distractor_diamondtriangles.svg	stimuli_target_squarediamonds.svg	16	yes	57	0	338	0	0			0	0			1				0	
6.6.1	mac	2023-06-27	10:16:42	10:22:08	322361	60d2c59451b12e36fb281477	4	1	main_z	7	main_z	81	stimuli_target_squarediamonds.svg	stimuli_distractor_trianglediamonds.svg	4	yes	44	1	399	0	0			0	0			1				0	
6.6.1	mac	2023-06-27	10:16:42	10:22:08	322361	60d2c59451b12e36fb281477	4	1	main_z	7	advance_on_keypress_ZEE	82	stimuli_target_squarediamonds.svg	stimuli_distractor_trianglediamonds.svg	4	yes	57	0	345	0	0			0	0			1				0	
6.6.1	mac	2023-06-27	10:16:42	10:22:11	325345	60d2c59451b12e36fb281477	4	1	main_z	7	main_z	83	stimuli_distractor_diamondtriangles.svg	stimuli_distractor_trianglediamonds.svg	38	no	0	1	2000	0	0			0	0			1				0	
6.6.1	mac	2023-06-27	10:16:42	10:22:11	325345	60d2c59451b12e36fb281477	4	1	main_z	7	advance_on_keypress_ZEE	84	stimuli_distractor_diamondtriangles.svg	stimuli_distractor_trianglediamonds.svg	38	no	57	0	91346	0	0			0	0			1				0	
6.6.1	mac	2023-06-27	10:16:42	10:23:44	418644	60d2c59451b12e36fb281477	4	1	main_z	7	main_z	85	stimuli_distractor_trianglediamonds.svg	stimuli_target_diamondrectangles.svg	27	yes	44	1	1311	0	0			0	0			1				0	
6.6.1	mac	2023-06-27	10:16:42	10:23:44	418644	60d2c59451b12e36fb281477	4	1	main_z	7	advance_on_keypress_ZEE	86	stimuli_distractor_trianglediamonds.svg	stimuli_target_diamondrectangles.svg	27	yes	57	0	676	0	0			0	0			1				0	
6.6.1	mac	2023-06-27	10:16:42	10:23:46	420439	60d2c59451b12e36fb281477	4	1	main_z	7	main_z	87	stimuli_distractor_trianglediamonds.svg	stimuli_target_rectanglediamonds.svg	10	yes	44	1	478	0	0			0	0			1				0	
6.6.1	mac	2023-06-27	10:16:42	10:23:46	420439	60d2c59451b12e36fb281477	4	1	main_z	7	advance_on_keypress_ZEE	88	stimuli_distractor_trianglediamonds.svg	stimuli_target_rectanglediamonds.svg	10	yes	57	0	338	0	0			0	0			1				0	
6.6.1	mac	2023-06-27	10:16:42	10:23:47	421862	60d2c59451b12e36fb281477	4	1	main_z	7	main_z	89	stimuli_distractor_trianglediamonds.svg	stimuli_target_trianglesquares.svg	26	yes	44	1	446	0	0			0	0			1				0	
6.6.1	mac	2023-06-27	10:16:42	10:23:47	421862	60d2c59451b12e36fb281477	4	1	main_z	7	advance_on_keypress_ZEE	90	stimuli_distractor_trianglediamonds.svg	stimuli_target_trianglesquares.svg	26	yes	57	0	227	0	0			0	0			1				0	
6.6.1	mac	2023-06-27	10:16:42	10:23:50	424711	60d2c59451b12e36fb281477	4	1	main_z	7	main_z	91	stimuli_distractor_diamondtriangles.svg	stimuli_distractor_diamondtriangles.svg	40	no	0	1	2000	0	0			0	0			1				0	
6.6.1	mac	2023-06-27	10:16:42	10:23:50	424711	60d2c59451b12e36fb281477	4	1	main_z	7	advance_on_keypress_ZEE	92	stimuli_distractor_diamondtriangles.svg	stimuli_distractor_diamondtriangles.svg	40	no	57	0	499	0	0			0	0			1				0	
6.6.1	mac	2023-06-27	10:16:42	10:23:52	426270	60d2c59451b12e36fb281477	4	1	main_z	7	main_z	93	stimuli_distractor_trianglediamonds.svg	stimuli_target_rectangletriangles.svg	9	yes	44	1	423	0	0			0	0			1				0	
6.6.1	mac	2023-06-27	10:16:42	10:23:52	426270	60d2c59451b12e36fb281477	4	1	main_z	7	advance_on_keypress_ZEE	94	stimuli_distractor_trianglediamonds.svg	stimuli_target_rectangletriangles.svg	9	yes	57	0	325	0	0			0	0			1				0	
6.6.1	mac	2023-06-27	10:16:42	10:23:55	429232	60d2c59451b12e36fb281477	4	1	main_z	7	main_z	95	stimuli_distractor_diamondtriangles.svg	stimuli_distractor_trianglediamonds.svg	37	no	0	1	2000	0	0			0	0			1				0	
6.6.1	mac	2023-06-27	10:16:42	10:23:55	429232	60d2c59451b12e36fb281477	4	1	main_z	7	advance_on_keypress_ZEE	96	stimuli_distractor_diamondtriangles.svg	stimuli_distractor_trianglediamonds.svg	37	no	57	0	430	0	0			0	0			1				0	
6.6.1	mac	2023-06-27	10:16:42	10:23:56	430698	60d2c59451b12e36fb281477	4	1	main_z	7	main_z	97	stimuli_target_rectanglediamonds.svg	stimuli_distractor_trianglediamonds.svg	2	yes	44	1	386	0	0			0	0			1				0	
6.6.1	mac	2023-06-27	10:16:42	10:23:56	430698	60d2c59451b12e36fb281477	4	1	main_z	7	advance_on_keypress_ZEE	98	stimuli_target_rectanglediamonds.svg	stimuli_distractor_trianglediamonds.svg	2	yes	57	0	298	0	0			0	0			1				0	
6.6.1	mac	2023-06-27	10:16:42	10:23:58	432046	60d2c59451b12e36fb281477	4	1	main_z	7	main_z	99	stimuli_target_diamondsquares.svg	stimuli_distractor_diamondtriangles.svg	24	yes	44	1	420	0	0			0	0			1				0	
6.6.1	mac	2023-06-27	10:16:42	10:23:58	432046	60d2c59451b12e36fb281477	4	1	main_z	7	advance_on_keypress_ZEE	100	stimuli_target_diamondsquares.svg	stimuli_distractor_diamondtriangles.svg	24	yes	57	0	281	0	0			0	0			1				0	
6.6.1	mac	2023-06-27	10:16:42	10:23:59	433489	60d2c59451b12e36fb281477	4	1	main_z	7	main_z	101	stimuli_target_squaretriangles.svg	stimuli_distractor_trianglediamonds.svg	3	yes	44	1	528	0	0			0	0			1				0	
6.6.1	mac	2023-06-27	10:16:42	10:23:59	433489	60d2c59451b12e36fb281477	4	1	main_z	7	advance_on_keypress_ZEE	102	stimuli_target_squaretriangles.svg	stimuli_distractor_trianglediamonds.svg	3	yes	57	0	315	0	0			0	0			1				0	
6.6.1	mac	2023-06-27	10:16:42	10:24:02	436444	60d2c59451b12e36fb281477	4	1	main_z	7	main_z	103	stimuli_distractor_trianglediamonds.svg	stimuli_distractor_diamondtriangles.svg	36	no	0	1	2000	0	0			0	0			1				0	
6.6.1	mac	2023-06-27	10:16:42	10:24:02	436444	60d2c59451b12e36fb281477	4	1	main_z	7	advance_on_keypress_ZEE	104	stimuli_distractor_trianglediamonds.svg	stimuli_distractor_diamondtriangles.svg	36	no	57	0	312	0	0			0	0			1				0	
6.6.1	mac	2023-06-27	10:16:42	10:24:03	437788	60d2c59451b12e36fb281477	4	1	main_z	7	main_z	105	stimuli_target_rectangletriangles.svg	stimuli_distractor_diamondtriangles.svg	5	yes	44	1	393	0	0			0	0			1				0	
6.6.1	mac	2023-06-27	10:16:42	10:24:03	437788	60d2c59451b12e36fb281477	4	1	main_z	7	advance_on_keypress_ZEE	106	stimuli_target_rectangletriangles.svg	stimuli_distractor_diamondtriangles.svg	5	yes	57	0	312	0	0			0	0			1				0	
6.6.1	mac	2023-06-27	10:16:42	10:24:05	439317	60d2c59451b12e36fb281477	4	1	main_z	7	main_z	107	stimuli_distractor_trianglediamonds.svg	stimuli_target_squarediamonds.svg	12	yes	44	1	569	0	0			0	0			1				0	
6.6.1	mac	2023-06-27	10:16:42	10:24:05	439317	60d2c59451b12e36fb281477	4	1	main_z	7	advance_on_keypress_ZEE	108	stimuli_distractor_trianglediamonds.svg	stimuli_target_squarediamonds.svg	12	yes	57	0	261	0	0			0	0			1				0	
6.6.1	mac	2023-06-27	10:16:42	10:24:08	442210	60d2c59451b12e36fb281477	4	1	main_z	7	main_z	109	stimuli_distractor_trianglediamonds.svg	stimuli_target_trianglerectangles.svg	25	yes	0	0	2000	0	0			0	0			1				0	
6.6.1	mac	2023-06-27	10:16:42	10:24:08	442210	60d2c59451b12e36fb281477	4	1	main_z	7	advance_on_keypress_ZEE	110	stimuli_distractor_trianglediamonds.svg	stimuli_target_trianglerectangles.svg	25	yes	57	0	372	0	0			0	0			1				0	
6.6.1	mac	2023-06-27	10:16:42	10:24:09	443636	60d2c59451b12e36fb281477	4	1	main_z	7	main_z	111	stimuli_distractor_diamondtriangles.svg	stimuli_target_rectangletriangles.svg	13	yes	44	1	425	0	0			0	0			1				0	
6.6.1	mac	2023-06-27	10:16:42	10:24:09	443636	60d2c59451b12e36fb281477	4	1	main_z	7	advance_on_keypress_ZEE	112	stimuli_distractor_diamondtriangles.svg	stimuli_target_rectangletriangles.svg	13	yes	57	0	240	0	0			0	0			1				0	
6.6.1	mac	2023-06-27	10:16:42	10:24:11	445100	60d2c59451b12e36fb281477	4	1	main_z	7	main_z	113	stimuli_distractor_trianglediamonds.svg	stimuli_target_diamondsquares.svg	28	yes	44	1	604	0	0			0	0			1				0	
6.6.1	mac	2023-06-27	10:16:42	10:24:11	445100	60d2c59451b12e36fb281477	4	1	main_z	7	advance_on_keypress_ZEE	114	stimuli_distractor_trianglediamonds.svg	stimuli_target_diamondsquares.svg	28	yes	57	0	304	0	0			0	0			1				0	
6.6.1	mac	2023-06-27	10:16:42	10:24:12	446406	60d2c59451b12e36fb281477	4	1	main_z	7	main_z	115	stimuli_target_diamondrectangles.svg	stimuli_distractor_diamondtriangles.svg	23	yes	44	1	377	0	0			0	0			1				0	
6.6.1	mac	2023-06-27	10:16:42	10:24:12	446406	60d2c59451b12e36fb281477	4	1	main_z	7	advance_on_keypress_ZEE	116	stimuli_target_diamondrectangles.svg	stimuli_distractor_diamondtriangles.svg	23	yes	57	0	248	0	0			0	0			1				0	
6.6.1	mac	2023-06-27	10:16:42	10:24:15	449298	60d2c59451b12e36fb281477	4	1	main_z	7	main_z	117	stimuli_distractor_trianglediamonds.svg	stimuli_distractor_diamondtriangles.svg	35	no	0	1	2000	0	0			0	0			1				0	
6.6.1	mac	2023-06-27	10:16:42	10:24:15	449298	60d2c59451b12e36fb281477	4	1	main_z	7	advance_on_keypress_ZEE	118	stimuli_distractor_trianglediamonds.svg	stimuli_distractor_diamondtriangles.svg	35	no	57	0	296	0	0			0	0			1				0	
6.6.1	mac	2023-06-27	10:16:42	10:24:16	450679	60d2c59451b12e36fb281477	4	1	main_z	7	main_z	119	stimuli_target_trianglerectangles.svg	stimuli_distractor_diamondtriangles.svg	21	yes	44	1	450	0	0			0	0			1				0	
6.6.1	mac	2023-06-27	10:16:42	10:24:16	450679	60d2c59451b12e36fb281477	4	1	main_z	7	advance_on_keypress_ZEE	120	stimuli_target_trianglerectangles.svg	stimuli_distractor_diamondtriangles.svg	21	yes	57	0	256	0	0			0	0			1				0	
6.6.1	mac	2023-06-27	10:16:42	10:24:18	452028	60d2c59451b12e36fb281477	4	1	main_z	7	main_z	121	stimuli_target_diamondsquares.svg	stimuli_distractor_trianglediamonds.svg	20	yes	44	1	466	0	0			0	0			1				0	
6.6.1	mac	2023-06-27	10:16:42	10:24:18	452028	60d2c59451b12e36fb281477	4	1	main_z	7	advance_on_keypress_ZEE	122	stimuli_target_diamondsquares.svg	stimuli_distractor_trianglediamonds.svg	20	yes	57	0	232	0	0			0	0			1				0	
6.6.1	mac	2023-06-27	10:16:42	10:24:19	453356	60d2c59451b12e36fb281477	4	1	main_z	7	main_z	123	stimuli_distractor_diamondtriangles.svg	stimuli_target_diamondrectangles.svg	31	yes	44	1	461	0	0			0	0			1				0	
6.6.1	mac	2023-06-27	10:16:42	10:24:19	453356	60d2c59451b12e36fb281477	4	1	main_z	7	advance_on_keypress_ZEE	124	stimuli_distractor_diamondtriangles.svg	stimuli_target_diamondrectangles.svg	31	yes	57	0	192	0	0			0	0			1				0	
6.6.1	mac	2023-06-27	10:16:42	10:24:20	454642	60d2c59451b12e36fb281477	4	1	main_z	7	main_z	125	stimuli_distractor_diamondtriangles.svg	stimuli_target_squarediamonds.svg	16	yes	44	1	445	0	0			0	0			1				0	
6.6.1	mac	2023-06-27	10:16:42	10:24:20	454642	60d2c59451b12e36fb281477	4	1	main_z	7	advance_on_keypress_ZEE	126	stimuli_distractor_diamondtriangles.svg	stimuli_target_squarediamonds.svg	16	yes	57	0	158	0	0			0	0			1				0	
6.6.1	mac	2023-06-27	10:16:42	10:24:23	457426	60d2c59451b12e36fb281477	4	1	main_z	7	main_z	127	stimuli_distractor_trianglediamonds.svg	stimuli_distractor_trianglediamonds.svg	34	no	0	1	2000	0	0			0	0			1				0	
6.6.1	mac	2023-06-27	10:16:42	10:24:23	457426	60d2c59451b12e36fb281477	4	1	main_z	7	advance_on_keypress_ZEE	128	stimuli_distractor_trianglediamonds.svg	stimuli_distractor_trianglediamonds.svg	34	no	57	0	346	0	0			0	0			1				0	
6.6.1	mac	2023-06-27	10:16:42	10:24:26	460409	60d2c59451b12e36fb281477	4	1	main_z	7	main_z	129	stimuli_distractor_trianglediamonds.svg	stimuli_distractor_trianglediamonds.svg	33	no	0	1	2000	0	0			0	0			1				0	
6.6.1	mac	2023-06-27	10:16:42	10:24:26	460409	60d2c59451b12e36fb281477	4	1	main_z	7	advance_on_keypress_ZEE	130	stimuli_distractor_trianglediamonds.svg	stimuli_distractor_trianglediamonds.svg	33	no	57	0	354	0	0			0	0			1				0	
6.6.1	mac	2023-06-27	10:16:42	10:24:27	461774	60d2c59451b12e36fb281477	4	1	main_z	7	main_z	131	stimuli_target_trianglesquares.svg	stimuli_distractor_diamondtriangles.svg	22	yes	44	1	377	0	0			0	0			1				0	
6.6.1	mac	2023-06-27	10:16:42	10:24:27	461774	60d2c59451b12e36fb281477	4	1	main_z	7	advance_on_keypress_ZEE	132	stimuli_target_trianglesquares.svg	stimuli_distractor_diamondtriangles.svg	22	yes	57	0	225	0	0			0	0			1				0	
6.6.1	mac	2023-06-27	10:16:42	10:24:30	464629	60d2c59451b12e36fb281477	4	1	main_z	7	main_z	133	stimuli_distractor_diamondtriangles.svg	stimuli_distractor_diamondtriangles.svg	39	no	0	1	2000	0	0			0	0			1				0	
6.6.1	mac	2023-06-27	10:16:42	10:24:30	464629	60d2c59451b12e36fb281477	4	1	main_z	7	advance_on_keypress_ZEE	134	stimuli_distractor_diamondtriangles.svg	stimuli_distractor_diamondtriangles.svg	39	no	57	0	233	0	0			0	0			1				0	
6.6.1	mac	2023-06-27	10:16:42	10:24:32	465981	60d2c59451b12e36fb281477	4	1	main_z	7	main_z	135	stimuli_distractor_diamondtriangles.svg	stimuli_target_rectanglediamonds.svg	14	yes	44	1	486	0	0			0	0			1				0	
6.6.1	mac	2023-06-27	10:16:42	10:24:32	465981	60d2c59451b12e36fb281477	4	1	main_z	7	advance_on_keypress_ZEE	136	stimuli_distractor_diamondtriangles.svg	stimuli_target_rectanglediamonds.svg	14	yes	57	0	278	0	0			0	0			1				0	
6.6.1	mac	2023-06-27	10:16:42	10:24:33	467331	60d2c59451b12e36fb281477	4	1	main_z	7	main_z	137	stimuli_distractor_diamondtriangles.svg	stimuli_target_trianglesquares.svg	30	yes	44	1	434	0	0			0	0			1				0	
6.6.1	mac	2023-06-27	10:16:42	10:24:33	467331	60d2c59451b12e36fb281477	4	1	main_z	7	advance_on_keypress_ZEE	138	stimuli_distractor_diamondtriangles.svg	stimuli_target_trianglesquares.svg	30	yes	57	0	278	0	0			0	0			1				0	
6.6.1	mac	2023-06-27	10:16:42	10:24:34	468743	60d2c59451b12e36fb281477	4	1	main_z	7	main_z	139	stimuli_distractor_trianglediamonds.svg	stimuli_target_squaretriangles.svg	11	yes	44	1	495	0	0			0	0			1				0	
6.6.1	mac	2023-06-27	10:16:42	10:24:34	468743	60d2c59451b12e36fb281477	4	1	main_z	7	advance_on_keypress_ZEE	140	stimuli_distractor_trianglediamonds.svg	stimuli_target_squaretriangles.svg	11	yes	57	0	212	0	0			0	0			1				0	
6.6.1	mac	2023-06-27	10:16:42	10:24:36	470123	60d2c59451b12e36fb281477	4	1	main_z	7	main_z	141	stimuli_target_rectangletriangles.svg	stimuli_distractor_trianglediamonds.svg	1	yes	44	1	525	0	0			0	0			1				0	
6.6.1	mac	2023-06-27	10:16:42	10:24:36	470123	60d2c59451b12e36fb281477	4	1	main_z	7	advance_on_keypress_ZEE	142	stimuli_target_rectangletriangles.svg	stimuli_distractor_trianglediamonds.svg	1	yes	57	0	268	0	0			0	0			1				0	
6.6.1	mac	2023-06-27	10:16:42	10:24:37	471404	60d2c59451b12e36fb281477	4	1	main_z	7	main_z	143	stimuli_target_trianglerectangles.svg	stimuli_distractor_trianglediamonds.svg	17	yes	44	1	374	0	0			0	0			1				0	
6.6.1	mac	2023-06-27	10:16:42	10:24:37	471404	60d2c59451b12e36fb281477	4	1	main_z	7	advance_on_keypress_ZEE	144	stimuli_target_trianglerectangles.svg	stimuli_distractor_trianglediamonds.svg	17	yes	57	0	218	0	0			0	0			1				0	
6.6.1	mac	2023-06-27	10:16:42	10:24:38	472619	60d2c59451b12e36fb281477	4	1	main_z	7	main_z	145	stimuli_target_squarediamonds.svg	stimuli_distractor_diamondtriangles.svg	8	yes	44	1	373	0	0			0	0			1				0	
6.6.1	mac	2023-06-27	10:16:42	10:24:38	472619	60d2c59451b12e36fb281477	4	1	main_z	7	advance_on_keypress_ZEE	146	stimuli_target_squarediamonds.svg	stimuli_distractor_diamondtriangles.svg	8	yes	57	0	170	0	0			0	0			1				0	
6.6.1	mac	2023-06-27	10:16:42	10:24:39	473898	60d2c59451b12e36fb281477	4	1	main_z	7	main_z	147	stimuli_distractor_diamondtriangles.svg	stimuli_target_diamondsquares.svg	32	yes	44	1	487	0	0			0	0			1				0	
6.6.1	mac	2023-06-27	10:16:42	10:24:39	473898	60d2c59451b12e36fb281477	4	1	main_z	7	advance_on_keypress_ZEE	148	stimuli_distractor_diamondtriangles.svg	stimuli_target_diamondsquares.svg	32	yes	57	0	216	0	0			0	0			1				0	
6.6.1	mac	2023-06-27	10:16:42	10:24:41	475181	60d2c59451b12e36fb281477	4	1	main_z	7	main_z	149	stimuli_target_rectanglediamonds.svg	stimuli_distractor_diamondtriangles.svg	6	yes	44	1	436	0	0			0	0			1				0	
6.6.1	mac	2023-06-27	10:16:42	10:24:41	475181	60d2c59451b12e36fb281477	4	1	main_z	7	advance_on_keypress_ZEE	150	stimuli_target_rectanglediamonds.svg	stimuli_distractor_diamondtriangles.svg	6	yes	57	0	257	0	0			0	0			1				0	
6.6.1	mac	2023-06-27	10:16:42	10:24:42	476465	60d2c59451b12e36fb281477	4	1	main_z	7	main_z	151	stimuli_distractor_diamondtriangles.svg	stimuli_target_squaretriangles.svg	15	yes	44	1	403	0	0			0	0			1				0	
6.6.1	mac	2023-06-27	10:16:42	10:24:42	476465	60d2c59451b12e36fb281477	4	1	main_z	7	advance_on_keypress_ZEE	152	stimuli_distractor_diamondtriangles.svg	stimuli_target_squaretriangles.svg	15	yes	57	0	178	0	0			0	0			1				0	
6.6.1	mac	2023-06-27	10:16:42	10:24:43	477659	60d2c59451b12e36fb281477	4	1	main_z	7	main_z	153	stimuli_target_squaretriangles.svg	stimuli_distractor_diamondtriangles.svg	7	yes	44	1	378	0	0			0	0			1				0	
6.6.1	mac	2023-06-27	10:16:42	10:24:43	477659	60d2c59451b12e36fb281477	4	1	main_z	7	advance_on_keypress_ZEE	154	stimuli_target_squaretriangles.svg	stimuli_distractor_diamondtriangles.svg	7	yes	57	0	214	0	0			0	0			1				0	
6.6.1	mac	2023-06-27	10:16:42	10:24:44	478876	60d2c59451b12e36fb281477	4	1	main_z	7	main_z	155	stimuli_target_trianglesquares.svg	stimuli_distractor_trianglediamonds.svg	18	yes	44	1	361	0	0			0	0			1				0	
6.6.1	mac	2023-06-27	10:16:42	10:24:44	478876	60d2c59451b12e36fb281477	4	1	main_z	7	advance_on_keypress_ZEE	156	stimuli_target_trianglesquares.svg	stimuli_distractor_trianglediamonds.svg	18	yes	57	0	148	0	0			0	0			1				0	
6.6.1	mac	2023-06-27	10:16:42	10:24:46	479999	60d2c59451b12e36fb281477	4	1	main_z	7	main_z	157	stimuli_target_diamondrectangles.svg	stimuli_distractor_trianglediamonds.svg	19	yes	44	1	336	0	0			0	0			1				0	
6.6.1	mac	2023-06-27	10:16:42	10:24:46	479999	60d2c59451b12e36fb281477	4	1	main_z	7	advance_on_keypress_ZEE	158	stimuli_target_diamondrectangles.svg	stimuli_distractor_trianglediamonds.svg	19	yes	57	0	144	0	0			0	0			1				0	
6.6.1	mac	2023-06-27	10:16:42	10:24:47	481257	60d2c59451b12e36fb281477	4	1	main_z	7	main_z	159	stimuli_distractor_diamondtriangles.svg	stimuli_target_trianglerectangles.svg	29	yes	44	1	479	0	0			0	0			1				0	
6.6.1	mac	2023-06-27	10:16:42	10:24:47	481257	60d2c59451b12e36fb281477	4	1	main_z	7	advance_on_keypress_ZEE	160	stimuli_distractor_diamondtriangles.svg	stimuli_target_trianglerectangles.svg	29	yes	57	0	194	0	0			0	0			1				0	
6.6.1	mac	2023-06-27	10:16:42	10:25:12	506739	60d2c59451b12e36fb281477	4	1	practice_slash	9	practice_slash	1	stimuli_target_diamondsquares.svg	stimuli_distractor_diamondtriangles.svg	3	yes	53	1	441	0	0			0	0			1				0	
6.6.1	mac	2023-06-27	10:16:42	10:25:12	506739	60d2c59451b12e36fb281477	4	1	practice_slash	9	advance_on_keypress_SLASH	2	stimuli_target_diamondsquares.svg	stimuli_distractor_diamondtriangles.svg	3	yes	57	0	462	0	0			0	0			1				0	
6.6.1	mac	2023-06-27	10:16:42	10:25:15	509326	60d2c59451b12e36fb281477	4	1	practice_slash	9	practice_slash	3	stimuli_distractor_trianglediamonds.svg	stimuli_target_rectanglediamonds.svg	10	yes	53	1	478	0	0			0	0			1				0	
6.6.1	mac	2023-06-27	10:16:42	10:25:15	509326	60d2c59451b12e36fb281477	4	1	practice_slash	9	advance_on_keypress_SLASH	4	stimuli_distractor_trianglediamonds.svg	stimuli_target_rectanglediamonds.svg	10	yes	57	0	374	0	0			0	0			1				0	
6.6.1	mac	2023-06-27	10:16:42	10:25:17	511714	60d2c59451b12e36fb281477	4	1	practice_slash	9	practice_slash	5	stimuli_target_rectanglediamonds.svg	stimuli_distractor_diamondtriangles.svg	1	yes	53	1	381	0	0			0	0			1				0	
6.6.1	mac	2023-06-27	10:16:42	10:25:17	511714	60d2c59451b12e36fb281477	4	1	practice_slash	9	advance_on_keypress_SLASH	6	stimuli_target_rectanglediamonds.svg	stimuli_distractor_diamondtriangles.svg	1	yes	57	0	354	0	0			0	0			1				0	
6.6.1	mac	2023-06-27	10:16:42	10:25:20	514207	60d2c59451b12e36fb281477	4	1	practice_slash	9	practice_slash	7	stimuli_distractor_diamondtriangles.svg	stimuli_target_trianglerectangles.svg	9	yes	53	1	513	0	0			0	0			1				0	
6.6.1	mac	2023-06-27	10:16:42	10:25:20	514207	60d2c59451b12e36fb281477	4	1	practice_slash	9	advance_on_keypress_SLASH	8	stimuli_distractor_diamondtriangles.svg	stimuli_target_trianglerectangles.svg	9	yes	57	0	308	0	0			0	0			1				0	
6.6.1	mac	2023-06-27	10:16:42	10:25:22	516617	60d2c59451b12e36fb281477	4	1	practice_slash	9	practice_slash	9	stimuli_distractor_trianglediamonds.svg	stimuli_distractor_diamondtriangles.svg	16	no	53	0	453	0	0			0	0			1				0	
6.6.1	mac	2023-06-27	10:16:42	10:25:22	516617	60d2c59451b12e36fb281477	4	1	practice_slash	9	advance_on_keypress_SLASH	10	stimuli_distractor_trianglediamonds.svg	stimuli_distractor_diamondtriangles.svg	16	no	57	0	474	0	0			0	0			1				0	
6.6.1	mac	2023-06-27	10:16:42	10:25:26	520711	60d2c59451b12e36fb281477	4	1	practice_slash	9	practice_slash	11	stimuli_distractor_diamondtriangles.svg	stimuli_distractor_trianglediamonds.svg	14	no	0	1	2000	0	0			0	0			1				0	
6.6.1	mac	2023-06-27	10:16:42	10:25:26	520711	60d2c59451b12e36fb281477	4	1	practice_slash	9	advance_on_keypress_SLASH	12	stimuli_distractor_diamondtriangles.svg	stimuli_distractor_trianglediamonds.svg	14	no	57	0	331	0	0			0	0			1				0	
6.6.1	mac	2023-06-27	10:16:42	10:25:29	523073	60d2c59451b12e36fb281477	4	1	practice_slash	9	practice_slash	13	stimuli_target_squarediamonds.svg	stimuli_distractor_trianglediamonds.svg	5	yes	53	1	395	0	0			0	0			1				0	
6.6.1	mac	2023-06-27	10:16:42	10:25:29	523073	60d2c59451b12e36fb281477	4	1	practice_slash	9	advance_on_keypress_SLASH	14	stimuli_target_squarediamonds.svg	stimuli_distractor_trianglediamonds.svg	5	yes	57	0	308	0	0			0	0			1				0	
6.6.1	mac	2023-06-27	10:16:42	10:25:31	525501	60d2c59451b12e36fb281477	4	1	practice_slash	9	practice_slash	15	stimuli_distractor_diamondtriangles.svg	stimuli_target_diamondrectangles.svg	8	yes	53	1	472	0	0			0	0			1				0	
6.6.1	mac	2023-06-27	10:16:42	10:25:31	525501	60d2c59451b12e36fb281477	4	1	practice_slash	9	advance_on_keypress_SLASH	16	stimuli_distractor_diamondtriangles.svg	stimuli_target_diamondrectangles.svg	8	yes	57	0	251	0	0			0	0			1				0	
6.6.1	mac	2023-06-27	10:16:42	10:25:33	527844	60d2c59451b12e36fb281477	4	1	practice_slash	9	practice_slash	17	stimuli_distractor_diamondtriangles.svg	stimuli_target_rectangletriangles.svg	7	yes	53	1	463	0	0			0	0			1				0	
6.6.1	mac	2023-06-27	10:16:42	10:25:33	527844	60d2c59451b12e36fb281477	4	1	practice_slash	9	advance_on_keypress_SLASH	18	stimuli_distractor_diamondtriangles.svg	stimuli_target_rectangletriangles.svg	7	yes	57	0	353	0	0			0	0			1				0	
6.6.1	mac	2023-06-27	10:16:42	10:25:36	530344	60d2c59451b12e36fb281477	4	1	practice_slash	9	practice_slash	19	stimuli_distractor_trianglediamonds.svg	stimuli_target_diamondrectangles.svg	12	yes	53	1	511	0	0			0	0			1				0	
6.6.1	mac	2023-06-27	10:16:42	10:25:36	530344	60d2c59451b12e36fb281477	4	1	practice_slash	9	advance_on_keypress_SLASH	20	stimuli_distractor_trianglediamonds.svg	stimuli_target_diamondrectangles.svg	12	yes	57	0	329	0	0			0	0			1				0	
6.6.1	mac	2023-06-27	10:16:42	10:25:38	532749	60d2c59451b12e36fb281477	4	1	practice_slash	9	practice_slash	21	stimuli_target_squarediamonds.svg	stimuli_distractor_diamondtriangles.svg	2	yes	53	1	434	0	0			0	0			1				0	
6.6.1	mac	2023-06-27	10:16:42	10:25:38	532749	60d2c59451b12e36fb281477	4	1	practice_slash	9	advance_on_keypress_SLASH	22	stimuli_target_squarediamonds.svg	stimuli_distractor_diamondtriangles.svg	2	yes	57	0	356	0	0			0	0			1				0	
6.6.1	mac	2023-06-27	10:16:42	10:25:42	536727	60d2c59451b12e36fb281477	4	1	practice_slash	9	practice_slash	23	stimuli_distractor_trianglediamonds.svg	stimuli_distractor_trianglediamonds.svg	15	no	0	1	2000	0	0			0	0			1				0	
6.6.1	mac	2023-06-27	10:16:42	10:25:42	536727	60d2c59451b12e36fb281477	4	1	practice_slash	9	advance_on_keypress_SLASH	24	stimuli_distractor_trianglediamonds.svg	stimuli_distractor_trianglediamonds.svg	15	no	57	0	246	0	0			0	0			1				0	
6.6.1	mac	2023-06-27	10:16:42	10:25:46	540612	60d2c59451b12e36fb281477	4	1	practice_slash	9	practice_slash	25	stimuli_distractor_diamondtriangles.svg	stimuli_distractor_diamondtriangles.svg	13	no	0	1	2000	0	0			0	0			1				0	
6.6.1	mac	2023-06-27	10:16:42	10:25:46	540612	60d2c59451b12e36fb281477	4	1	practice_slash	9	advance_on_keypress_SLASH	26	stimuli_distractor_diamondtriangles.svg	stimuli_distractor_diamondtriangles.svg	13	no	57	0	344	0	0			0	0			1				0	
6.6.1	mac	2023-06-27	10:16:42	10:25:49	542990	60d2c59451b12e36fb281477	4	1	practice_slash	9	practice_slash	27	stimuli_target_rectanglediamonds.svg	stimuli_distractor_trianglediamonds.svg	4	yes	53	1	390	0	0			0	0			1				0	
6.6.1	mac	2023-06-27	10:16:42	10:25:49	542990	60d2c59451b12e36fb281477	4	1	practice_slash	9	advance_on_keypress_SLASH	28	stimuli_target_rectanglediamonds.svg	stimuli_distractor_trianglediamonds.svg	4	yes	57	0	368	0	0			0	0			1				0	
6.6.1	mac	2023-06-27	10:16:42	10:25:51	545464	60d2c59451b12e36fb281477	4	1	practice_slash	9	practice_slash	29	stimuli_target_diamondsquares.svg	stimuli_distractor_trianglediamonds.svg	6	yes	53	1	466	0	0			0	0			1				0	
6.6.1	mac	2023-06-27	10:16:42	10:25:51	545464	60d2c59451b12e36fb281477	4	1	practice_slash	9	advance_on_keypress_SLASH	30	stimuli_target_diamondsquares.svg	stimuli_distractor_trianglediamonds.svg	6	yes	57	0	376	0	0			0	0			1				0	
6.6.1	mac	2023-06-27	10:16:42	10:25:54	548072	60d2c59451b12e36fb281477	4	1	practice_slash	9	practice_slash	31	stimuli_distractor_trianglediamonds.svg	stimuli_target_squarediamonds.svg	11	yes	53	1	592	0	0			0	0			1				0	
6.6.1	mac	2023-06-27	10:16:42	10:25:54	548072	60d2c59451b12e36fb281477	4	1	practice_slash	9	advance_on_keypress_SLASH	32	stimuli_distractor_trianglediamonds.svg	stimuli_target_squarediamonds.svg	11	yes	57	0	372	0	0			0	0			1				0	
6.6.1	mac	2023-06-27	10:16:42	10:25:58	552661	60d2c59451b12e36fb281477	4	1	main_slash	11	main_slash	1	stimuli_distractor_trianglediamonds.svg	stimuli_target_diamondrectangles.svg	27	yes	53	1	548	0	0			0	0			1				0	
6.6.1	mac	2023-06-27	10:16:42	10:25:58	552661	60d2c59451b12e36fb281477	4	1	main_slash	11	advance_on_keypress_SLASH	2	stimuli_distractor_trianglediamonds.svg	stimuli_target_diamondrectangles.svg	27	yes	57	0	647	0	0			0	0			1				0	
6.6.1	mac	2023-06-27	10:16:42	10:26:00	554318	60d2c59451b12e36fb281477	4	1	main_slash	11	main_slash	3	stimuli_target_rectangletriangles.svg	stimuli_distractor_trianglediamonds.svg	1	yes	53	1	369	0	0			0	0			1				0	
6.6.1	mac	2023-06-27	10:16:42	10:26:00	554318	60d2c59451b12e36fb281477	4	1	main_slash	11	advance_on_keypress_SLASH	4	stimuli_target_rectangletriangles.svg	stimuli_distractor_trianglediamonds.svg	1	yes	57	0	404	0	0			0	0			1				0	
6.6.1	mac	2023-06-27	10:16:42	10:26:02	556026	60d2c59451b12e36fb281477	4	1	main_slash	11	main_slash	5	stimuli_target_trianglerectangles.svg	stimuli_distractor_trianglediamonds.svg	17	yes	53	1	681	0	0			0	0			1				0	
6.6.1	mac	2023-06-27	10:16:42	10:26:02	556026	60d2c59451b12e36fb281477	4	1	main_slash	11	advance_on_keypress_SLASH	6	stimuli_target_trianglerectangles.svg	stimuli_distractor_trianglediamonds.svg	17	yes	57	0	453	0	0			0	0			1				0	
6.6.1	mac	2023-06-27	10:16:42	10:26:03	557691	60d2c59451b12e36fb281477	4	1	main_slash	11	main_slash	7	stimuli_distractor_diamondtriangles.svg	stimuli_target_rectanglediamonds.svg	14	yes	53	1	577	0	0			0	0			1				0	
6.6.1	mac	2023-06-27	10:16:42	10:26:03	557691	60d2c59451b12e36fb281477	4	1	main_slash	11	advance_on_keypress_SLASH	8	stimuli_distractor_diamondtriangles.svg	stimuli_target_rectanglediamonds.svg	14	yes	57	0	473	0	0			0	0			1				0	
6.6.1	mac	2023-06-27	10:16:42	10:26:05	559172	60d2c59451b12e36fb281477	4	1	main_slash	11	main_slash	9	stimuli_target_squaretriangles.svg	stimuli_distractor_trianglediamonds.svg	3	yes	53	1	379	0	0			0	0			1				0	
6.6.1	mac	2023-06-27	10:16:42	10:26:05	559172	60d2c59451b12e36fb281477	4	1	main_slash	11	advance_on_keypress_SLASH	10	stimuli_target_squaretriangles.svg	stimuli_distractor_trianglediamonds.svg	3	yes	57	0	477	0	0			0	0			1				0	
6.6.1	mac	2023-06-27	10:16:42	10:26:06	560793	60d2c59451b12e36fb281477	4	1	main_slash	11	main_slash	11	stimuli_distractor_diamondtriangles.svg	stimuli_target_trianglerectangles.svg	29	yes	53	1	498	0	0			0	0			1				0	
6.6.1	mac	2023-06-27	10:16:42	10:26:06	560793	60d2c59451b12e36fb281477	4	1	main_slash	11	advance_on_keypress_SLASH	12	stimuli_distractor_diamondtriangles.svg	stimuli_target_trianglerectangles.svg	29	yes	57	0	545	0	0			0	0			1				0	
6.6.1	mac	2023-06-27	10:16:42	10:26:08	562350	60d2c59451b12e36fb281477	4	1	main_slash	11	main_slash	13	stimuli_target_trianglesquares.svg	stimuli_distractor_diamondtriangles.svg	22	yes	53	1	369	0	0			0	0			1				0	
6.6.1	mac	2023-06-27	10:16:42	10:26:08	562350	60d2c59451b12e36fb281477	4	1	main_slash	11	advance_on_keypress_SLASH	14	stimuli_target_trianglesquares.svg	stimuli_distractor_diamondtriangles.svg	22	yes	57	0	369	0	0			0	0			1				0	
6.6.1	mac	2023-06-27	10:16:42	10:26:09	563724	60d2c59451b12e36fb281477	4	1	main_slash	11	main_slash	15	stimuli_target_rectanglediamonds.svg	stimuli_distractor_trianglediamonds.svg	2	yes	53	1	376	0	0			0	0			1				0	
6.6.1	mac	2023-06-27	10:16:42	10:26:09	563724	60d2c59451b12e36fb281477	4	1	main_slash	11	advance_on_keypress_SLASH	16	stimuli_target_rectanglediamonds.svg	stimuli_distractor_trianglediamonds.svg	2	yes	57	0	403	0	0			0	0			1				0	
6.6.1	mac	2023-06-27	10:16:42	10:26:11	565139	60d2c59451b12e36fb281477	4	1	main_slash	11	main_slash	17	stimuli_distractor_trianglediamonds.svg	stimuli_target_trianglerectangles.svg	25	yes	53	1	376	0	0			0	0			1				0	
6.6.1	mac	2023-06-27	10:16:42	10:26:11	565139	60d2c59451b12e36fb281477	4	1	main_slash	11	advance_on_keypress_SLASH	18	stimuli_distractor_trianglediamonds.svg	stimuli_target_trianglerectangles.svg	25	yes	57	0	291	0	0			0	0			1				0	
6.6.1	mac	2023-06-27	10:16:42	10:26:12	566467	60d2c59451b12e36fb281477	4	1	main_slash	11	main_slash	19	stimuli_target_diamondsquares.svg	stimuli_distractor_trianglediamonds.svg	20	yes	53	1	404	0	0			0	0			1				0	
6.6.1	mac	2023-06-27	10:16:42	10:26:12	566467	60d2c59451b12e36fb281477	4	1	main_slash	11	advance_on_keypress_SLASH	20	stimuli_target_diamondsquares.svg	stimuli_distractor_trianglediamonds.svg	20	yes	57	0	391	0	0			0	0			1				0	
6.6.1	mac	2023-06-27	10:16:42	10:26:13	567904	60d2c59451b12e36fb281477	4	1	main_slash	11	main_slash	21	stimuli_distractor_trianglediamonds.svg	stimuli_target_trianglesquares.svg	26	yes	53	1	426	0	0			0	0			1				0	
6.6.1	mac	2023-06-27	10:16:42	10:26:13	567904	60d2c59451b12e36fb281477	4	1	main_slash	11	advance_on_keypress_SLASH	22	stimuli_distractor_trianglediamonds.svg	stimuli_target_trianglesquares.svg	26	yes	57	0	601	0	0			0	0			1				0	
6.6.1	mac	2023-06-27	10:16:42	10:26:15	569506	60d2c59451b12e36fb281477	4	1	main_slash	11	main_slash	23	stimuli_target_trianglerectangles.svg	stimuli_distractor_diamondtriangles.svg	21	yes	53	1	374	0	0			0	0			1				0	
6.6.1	mac	2023-06-27	10:16:42	10:26:15	569506	60d2c59451b12e36fb281477	4	1	main_slash	11	advance_on_keypress_SLASH	24	stimuli_target_trianglerectangles.svg	stimuli_distractor_diamondtriangles.svg	21	yes	57	0	335	0	0			0	0			1				0	
6.6.1	mac	2023-06-27	10:16:42	10:26:16	570942	60d2c59451b12e36fb281477	4	1	main_slash	11	main_slash	25	stimuli_distractor_diamondtriangles.svg	stimuli_target_rectangletriangles.svg	13	yes	53	1	464	0	0			0	0			1				0	
6.6.1	mac	2023-06-27	10:16:42	10:26:16	570942	60d2c59451b12e36fb281477	4	1	main_slash	11	advance_on_keypress_SLASH	26	stimuli_distractor_diamondtriangles.svg	stimuli_target_rectangletriangles.svg	13	yes	57	0	364	0	0			0	0			1				0	
6.6.1	mac	2023-06-27	10:16:42	10:26:18	572340	60d2c59451b12e36fb281477	4	1	main_slash	11	main_slash	27	stimuli_distractor_trianglediamonds.svg	stimuli_target_rectangletriangles.svg	9	yes	53	1	396	0	0			0	0			1				0	
6.6.1	mac	2023-06-27	10:16:42	10:26:18	572340	60d2c59451b12e36fb281477	4	1	main_slash	11	advance_on_keypress_SLASH	28	stimuli_distractor_trianglediamonds.svg	stimuli_target_rectangletriangles.svg	9	yes	57	0	363	0	0			0	0			1				0	
6.6.1	mac	2023-06-27	10:16:42	10:26:19	573691	60d2c59451b12e36fb281477	4	1	main_slash	11	main_slash	29	stimuli_target_rectanglediamonds.svg	stimuli_distractor_diamondtriangles.svg	6	yes	53	1	344	0	0			0	0			1				0	
6.6.1	mac	2023-06-27	10:16:42	10:26:19	573691	60d2c59451b12e36fb281477	4	1	main_slash	11	advance_on_keypress_SLASH	30	stimuli_target_rectanglediamonds.svg	stimuli_distractor_diamondtriangles.svg	6	yes	57	0	291	0	0			0	0			1				0	
6.6.1	mac	2023-06-27	10:16:42	10:26:21	575035	60d2c59451b12e36fb281477	4	1	main_slash	11	main_slash	31	stimuli_distractor_diamondtriangles.svg	stimuli_target_diamondrectangles.svg	31	yes	53	1	424	0	0			0	0			1				0	
6.6.1	mac	2023-06-27	10:16:42	10:26:21	575035	60d2c59451b12e36fb281477	4	1	main_slash	11	advance_on_keypress_SLASH	32	stimuli_distractor_diamondtriangles.svg	stimuli_target_diamondrectangles.svg	31	yes	57	0	263	0	0			0	0			1				0	
6.6.1	mac	2023-06-27	10:16:42	10:26:22	576299	60d2c59451b12e36fb281477	4	1	main_slash	11	main_slash	33	stimuli_target_diamondrectangles.svg	stimuli_distractor_trianglediamonds.svg	19	yes	53	1	367	0	0			0	0			1				0	
6.6.1	mac	2023-06-27	10:16:42	10:26:22	576299	60d2c59451b12e36fb281477	4	1	main_slash	11	advance_on_keypress_SLASH	34	stimuli_target_diamondrectangles.svg	stimuli_distractor_trianglediamonds.svg	19	yes	57	0	232	0	0			0	0			1				0	
6.6.1	mac	2023-06-27	10:16:42	10:26:23	577487	60d2c59451b12e36fb281477	4	1	main_slash	11	main_slash	35	stimuli_target_diamondrectangles.svg	stimuli_distractor_diamondtriangles.svg	23	yes	53	1	324	0	0			0	0			1				0	
6.6.1	mac	2023-06-27	10:16:42	10:26:23	577487	60d2c59451b12e36fb281477	4	1	main_slash	11	advance_on_keypress_SLASH	36	stimuli_target_diamondrectangles.svg	stimuli_distractor_diamondtriangles.svg	23	yes	57	0	265	0	0			0	0			1				0	
6.6.1	mac	2023-06-27	10:16:42	10:26:24	578752	60d2c59451b12e36fb281477	4	1	main_slash	11	main_slash	37	stimuli_target_squarediamonds.svg	stimuli_distractor_trianglediamonds.svg	4	yes	53	1	370	0	0			0	0			1				0	
6.6.1	mac	2023-06-27	10:16:42	10:26:24	578752	60d2c59451b12e36fb281477	4	1	main_slash	11	advance_on_keypress_SLASH	38	stimuli_target_squarediamonds.svg	stimuli_distractor_trianglediamonds.svg	4	yes	57	0	438	0	0			0	0			1				0	
6.6.1	mac	2023-06-27	10:16:42	10:26:26	580255	60d2c59451b12e36fb281477	4	1	main_slash	11	main_slash	39	stimuli_distractor_diamondtriangles.svg	stimuli_target_diamondsquares.svg	32	yes	53	1	443	0	0			0	0			1				0	
6.6.1	mac	2023-06-27	10:16:42	10:26:26	580255	60d2c59451b12e36fb281477	4	1	main_slash	11	advance_on_keypress_SLASH	40	stimuli_distractor_diamondtriangles.svg	stimuli_target_diamondsquares.svg	32	yes	57	0	610	0	0			0	0			1				0	
6.6.1	mac	2023-06-27	10:16:42	10:26:29	583516	60d2c59451b12e36fb281477	4	1	main_slash	11	main_slash	41	stimuli_distractor_diamondtriangles.svg	stimuli_distractor_trianglediamonds.svg	37	no	0	1	2000	0	0			0	0			1				0	
6.6.1	mac	2023-06-27	10:16:42	10:26:29	583516	60d2c59451b12e36fb281477	4	1	main_slash	11	advance_on_keypress_SLASH	42	stimuli_distractor_diamondtriangles.svg	stimuli_distractor_trianglediamonds.svg	37	no	57	0	349	0	0			0	0			1				0	
6.6.1	mac	2023-06-27	10:16:42	10:26:30	584915	60d2c59451b12e36fb281477	4	1	main_slash	11	main_slash	43	stimuli_target_rectangletriangles.svg	stimuli_distractor_diamondtriangles.svg	5	yes	53	1	420	0	0			0	0			1				0	
6.6.1	mac	2023-06-27	10:16:42	10:26:30	584915	60d2c59451b12e36fb281477	4	1	main_slash	11	advance_on_keypress_SLASH	44	stimuli_target_rectangletriangles.svg	stimuli_distractor_diamondtriangles.svg	5	yes	57	0	302	0	0			0	0			1				0	
6.6.1	mac	2023-06-27	10:16:42	10:26:33	587844	60d2c59451b12e36fb281477	4	1	main_slash	11	main_slash	45	stimuli_distractor_diamondtriangles.svg	stimuli_distractor_diamondtriangles.svg	39	no	0	1	2000	0	0			0	0			1				0	
6.6.1	mac	2023-06-27	10:16:42	10:26:33	587844	60d2c59451b12e36fb281477	4	1	main_slash	11	advance_on_keypress_SLASH	46	stimuli_distractor_diamondtriangles.svg	stimuli_distractor_diamondtriangles.svg	39	no	57	0	250	0	0			0	0			1				0	
6.6.1	mac	2023-06-27	10:16:42	10:26:36	590726	60d2c59451b12e36fb281477	4	1	main_slash	11	main_slash	47	stimuli_distractor_diamondtriangles.svg	stimuli_distractor_diamondtriangles.svg	40	no	0	1	2000	0	0			0	0			1				0	
6.6.1	mac	2023-06-27	10:16:42	10:26:36	590726	60d2c59451b12e36fb281477	4	1	main_slash	11	advance_on_keypress_SLASH	48	stimuli_distractor_diamondtriangles.svg	stimuli_distractor_diamondtriangles.svg	40	no	57	0	268	0	0			0	0			1				0	
6.6.1	mac	2023-06-27	10:16:42	10:26:38	592068	60d2c59451b12e36fb281477	4	1	main_slash	11	main_slash	49	stimuli_distractor_trianglediamonds.svg	stimuli_target_squaretriangles.svg	11	yes	53	1	441	0	0			0	0			1				0	
6.6.1	mac	2023-06-27	10:16:42	10:26:38	592068	60d2c59451b12e36fb281477	4	1	main_slash	11	advance_on_keypress_SLASH	50	stimuli_distractor_trianglediamonds.svg	stimuli_target_squaretriangles.svg	11	yes	57	0	306	0	0			0	0			1				0	
6.6.1	mac	2023-06-27	10:16:42	10:26:39	593417	60d2c59451b12e36fb281477	4	1	main_slash	11	main_slash	51	stimuli_distractor_diamondtriangles.svg	stimuli_target_squarediamonds.svg	16	yes	53	1	424	0	0			0	0			1				0	
6.6.1	mac	2023-06-27	10:16:42	10:26:39	593417	60d2c59451b12e36fb281477	4	1	main_slash	11	advance_on_keypress_SLASH	52	stimuli_distractor_diamondtriangles.svg	stimuli_target_squarediamonds.svg	16	yes	57	0	308	0	0			0	0			1				0	
6.6.1	mac	2023-06-27	10:16:42	10:26:42	596345	60d2c59451b12e36fb281477	4	1	main_slash	11	main_slash	53	stimuli_distractor_trianglediamonds.svg	stimuli_distractor_diamondtriangles.svg	36	no	0	1	2000	0	0			0	0			1				0	
6.6.1	mac	2023-06-27	10:16:42	10:26:42	596345	60d2c59451b12e36fb281477	4	1	main_slash	11	advance_on_keypress_SLASH	54	stimuli_distractor_trianglediamonds.svg	stimuli_distractor_diamondtriangles.svg	36	no	57	0	467	0	0			0	0			1				0	
6.6.1	mac	2023-06-27	10:16:42	10:26:44	598390	60d2c59451b12e36fb281477	4	1	main_slash	11	main_slash	55	stimuli_distractor_trianglediamonds.svg	stimuli_target_diamondsquares.svg	28	yes	53	1	946	0	0			0	0			1				0	
6.6.1	mac	2023-06-27	10:16:42	10:26:44	598390	60d2c59451b12e36fb281477	4	1	main_slash	11	advance_on_keypress_SLASH	56	stimuli_distractor_trianglediamonds.svg	stimuli_target_diamondsquares.svg	28	yes	57	0	1374	0	0			0	0			1				0	
6.6.1	mac	2023-06-27	10:16:42	10:26:48	602429	60d2c59451b12e36fb281477	4	1	main_slash	11	main_slash	57	stimuli_distractor_trianglediamonds.svg	stimuli_distractor_diamondtriangles.svg	35	no	0	1	2000	0	0			0	0			1				0	
6.6.1	mac	2023-06-27	10:16:42	10:26:48	602429	60d2c59451b12e36fb281477	4	1	main_slash	11	advance_on_keypress_SLASH	58	stimuli_distractor_trianglediamonds.svg	stimuli_distractor_diamondtriangles.svg	35	no	57	0	314	0	0			0	0			1				0	
6.6.1	mac	2023-06-27	10:16:42	10:26:49	603834	60d2c59451b12e36fb281477	4	1	main_slash	11	main_slash	59	stimuli_distractor_diamondtriangles.svg	stimuli_distractor_trianglediamonds.svg	38	no	53	0	456	0	0			0	0			1				0	
6.6.1	mac	2023-06-27	10:16:42	10:26:49	603834	60d2c59451b12e36fb281477	4	1	main_slash	11	advance_on_keypress_SLASH	60	stimuli_distractor_diamondtriangles.svg	stimuli_distractor_trianglediamonds.svg	38	no	57	0	510	0	0			0	0			1				0	
6.6.1	mac	2023-06-27	10:16:42	10:26:51	605570	60d2c59451b12e36fb281477	4	1	main_slash	11	main_slash	61	stimuli_target_squarediamonds.svg	stimuli_distractor_diamondtriangles.svg	8	yes	53	1	591	0	0			0	0			1				0	
6.6.1	mac	2023-06-27	10:16:42	10:26:51	605570	60d2c59451b12e36fb281477	4	1	main_slash	11	advance_on_keypress_SLASH	62	stimuli_target_squarediamonds.svg	stimuli_distractor_diamondtriangles.svg	8	yes	57	0	509	0	0			0	0			1				0	
6.6.1	mac	2023-06-27	10:16:42	10:26:53	607214	60d2c59451b12e36fb281477	4	1	main_slash	11	main_slash	63	stimuli_distractor_trianglediamonds.svg	stimuli_target_squarediamonds.svg	12	yes	53	1	500	0	0			0	0			1				0	
6.6.1	mac	2023-06-27	10:16:42	10:26:53	607214	60d2c59451b12e36fb281477	4	1	main_slash	11	advance_on_keypress_SLASH	64	stimuli_distractor_trianglediamonds.svg	stimuli_target_squarediamonds.svg	12	yes	57	0	321	0	0			0	0			1				0	
6.6.1	mac	2023-06-27	10:16:42	10:26:54	608650	60d2c59451b12e36fb281477	4	1	main_slash	11	main_slash	65	stimuli_distractor_trianglediamonds.svg	stimuli_target_rectanglediamonds.svg	10	yes	53	1	489	0	0			0	0			1				0	
6.6.1	mac	2023-06-27	10:16:42	10:26:54	608650	60d2c59451b12e36fb281477	4	1	main_slash	11	advance_on_keypress_SLASH	66	stimuli_distractor_trianglediamonds.svg	stimuli_target_rectanglediamonds.svg	10	yes	57	0	484	0	0			0	0			1				0	
6.6.1	mac	2023-06-27	10:16:42	10:26:56	610163	60d2c59451b12e36fb281477	4	1	main_slash	11	main_slash	67	stimuli_target_squaretriangles.svg	stimuli_distractor_diamondtriangles.svg	7	yes	53	1	401	0	0			0	0			1				0	
6.6.1	mac	2023-06-27	10:16:42	10:26:56	610163	60d2c59451b12e36fb281477	4	1	main_slash	11	advance_on_keypress_SLASH	68	stimuli_target_squaretriangles.svg	stimuli_distractor_diamondtriangles.svg	7	yes	57	0	297	0	0			0	0			1				0	
6.6.1	mac	2023-06-27	10:16:42	10:26:59	613102	60d2c59451b12e36fb281477	4	1	main_slash	11	main_slash	69	stimuli_distractor_trianglediamonds.svg	stimuli_distractor_trianglediamonds.svg	34	no	0	1	2000	0	0			0	0			1				0	
6.6.1	mac	2023-06-27	10:16:42	10:26:59	613102	60d2c59451b12e36fb281477	4	1	main_slash	11	advance_on_keypress_SLASH	70	stimuli_distractor_trianglediamonds.svg	stimuli_distractor_trianglediamonds.svg	34	no	57	0	323	0	0			0	0			1				0	
6.6.1	mac	2023-06-27	10:16:42	10:27:02	616061	60d2c59451b12e36fb281477	4	1	main_slash	11	main_slash	71	stimuli_distractor_trianglediamonds.svg	stimuli_distractor_trianglediamonds.svg	33	no	0	1	2000	0	0			0	0			1				0	
6.6.1	mac	2023-06-27	10:16:42	10:27:02	616061	60d2c59451b12e36fb281477	4	1	main_slash	11	advance_on_keypress_SLASH	72	stimuli_distractor_trianglediamonds.svg	stimuli_distractor_trianglediamonds.svg	33	no	57	0	270	0	0			0	0			1				0	
6.6.1	mac	2023-06-27	10:16:42	10:27:03	617357	60d2c59451b12e36fb281477	4	1	main_slash	11	main_slash	73	stimuli_target_trianglesquares.svg	stimuli_distractor_trianglediamonds.svg	18	yes	53	1	397	0	0			0	0			1				0	
6.6.1	mac	2023-06-27	10:16:42	10:27:03	617357	60d2c59451b12e36fb281477	4	1	main_slash	11	advance_on_keypress_SLASH	74	stimuli_target_trianglesquares.svg	stimuli_distractor_trianglediamonds.svg	18	yes	57	0	577	0	0			0	0			1				0	
6.6.1	mac	2023-06-27	10:16:42	10:27:05	618977	60d2c59451b12e36fb281477	4	1	main_slash	11	main_slash	75	stimuli_distractor_diamondtriangles.svg	stimuli_target_squaretriangles.svg	15	yes	53	1	416	0	0			0	0			1				0	
6.6.1	mac	2023-06-27	10:16:42	10:27:05	618977	60d2c59451b12e36fb281477	4	1	main_slash	11	advance_on_keypress_SLASH	76	stimuli_distractor_diamondtriangles.svg	stimuli_target_squaretriangles.svg	15	yes	57	0	300	0	0			0	0			1				0	
6.6.1	mac	2023-06-27	10:16:42	10:27:06	620329	60d2c59451b12e36fb281477	4	1	main_slash	11	main_slash	77	stimuli_target_diamondsquares.svg	stimuli_distractor_diamondtriangles.svg	24	yes	53	1	418	0	0			0	0			1				0	
6.6.1	mac	2023-06-27	10:16:42	10:27:06	620329	60d2c59451b12e36fb281477	4	1	main_slash	11	advance_on_keypress_SLASH	78	stimuli_target_diamondsquares.svg	stimuli_distractor_diamondtriangles.svg	24	yes	57	0	301	0	0			0	0			1				0	
6.6.1	mac	2023-06-27	10:16:42	10:27:07	621772	60d2c59451b12e36fb281477	4	1	main_slash	11	main_slash	79	stimuli_distractor_diamondtriangles.svg	stimuli_target_trianglesquares.svg	30	yes	53	1	507	0	0			0	0			1				0	
6.6.1	mac	2023-06-27	10:16:42	10:27:07	621772	60d2c59451b12e36fb281477	4	1	main_slash	11	advance_on_keypress_SLASH	80	stimuli_distractor_diamondtriangles.svg	stimuli_target_trianglesquares.svg	30	yes	57	0	314	0	0			0	0			1				0	
6.6.1	mac	2023-06-27	10:16:42	10:27:09	623379	60d2c59451b12e36fb281477	4	1	main_slash	11	main_slash	81	stimuli_target_diamondrectangles.svg	stimuli_distractor_trianglediamonds.svg	19	yes	53	1	650	0	0			0	0			1				0	
6.6.1	mac	2023-06-27	10:16:42	10:27:09	623379	60d2c59451b12e36fb281477	4	1	main_slash	11	advance_on_keypress_SLASH	82	stimuli_target_diamondrectangles.svg	stimuli_distractor_trianglediamonds.svg	19	yes	57	0	310	0	0			0	0			1				0	
6.6.1	mac	2023-06-27	10:16:42	10:27:10	624762	60d2c59451b12e36fb281477	4	1	main_slash	11	main_slash	83	stimuli_target_diamondrectangles.svg	stimuli_distractor_diamondtriangles.svg	23	yes	53	1	435	0	0			0	0			1				0	
6.6.1	mac	2023-06-27	10:16:42	10:27:10	624762	60d2c59451b12e36fb281477	4	1	main_slash	11	advance_on_keypress_SLASH	84	stimuli_target_diamondrectangles.svg	stimuli_distractor_diamondtriangles.svg	23	yes	57	0	298	0	0			0	0			1				0	
6.6.1	mac	2023-06-27	10:16:42	10:27:13	627692	60d2c59451b12e36fb281477	4	1	main_slash	11	main_slash	85	stimuli_distractor_diamondtriangles.svg	stimuli_distractor_trianglediamonds.svg	37	no	0	1	2000	0	0			0	0			1				0	
6.6.1	mac	2023-06-27	10:16:42	10:27:13	627692	60d2c59451b12e36fb281477	4	1	main_slash	11	advance_on_keypress_SLASH	86	stimuli_distractor_diamondtriangles.svg	stimuli_distractor_trianglediamonds.svg	37	no	57	0	291	0	0			0	0			1				0	
6.6.1	mac	2023-06-27	10:16:42	10:27:15	629036	60d2c59451b12e36fb281477	4	1	main_slash	11	main_slash	87	stimuli_distractor_diamondtriangles.svg	stimuli_target_diamondrectangles.svg	31	yes	53	1	424	0	0			0	0			1				0	
6.6.1	mac	2023-06-27	10:16:42	10:27:15	629036	60d2c59451b12e36fb281477	4	1	main_slash	11	advance_on_keypress_SLASH	88	stimuli_distractor_diamondtriangles.svg	stimuli_target_diamondrectangles.svg	31	yes	57	0	287	0	0			0	0			1				0	
6.6.1	mac	2023-06-27	10:16:42	10:27:17	631955	60d2c59451b12e36fb281477	4	1	main_slash	11	main_slash	89	stimuli_distractor_diamondtriangles.svg	stimuli_distractor_diamondtriangles.svg	40	no	0	1	2000	0	0			0	0			1				0	
6.6.1	mac	2023-06-27	10:16:42	10:27:17	631955	60d2c59451b12e36fb281477	4	1	main_slash	11	advance_on_keypress_SLASH	90	stimuli_distractor_diamondtriangles.svg	stimuli_distractor_diamondtriangles.svg	40	no	57	0	162	0	0			0	0			1				0	
6.6.1	mac	2023-06-27	10:16:42	10:27:20	634760	60d2c59451b12e36fb281477	4	1	main_slash	11	main_slash	91	stimuli_distractor_diamondtriangles.svg	stimuli_distractor_trianglediamonds.svg	38	no	0	1	2000	0	0			0	0			1				0	
6.6.1	mac	2023-06-27	10:16:42	10:27:20	634760	60d2c59451b12e36fb281477	4	1	main_slash	11	advance_on_keypress_SLASH	92	stimuli_distractor_diamondtriangles.svg	stimuli_distractor_trianglediamonds.svg	38	no	57	0	244	0	0			0	0			1				0	
6.6.1	mac	2023-06-27	10:16:42	10:27:22	636015	60d2c59451b12e36fb281477	4	1	main_slash	11	main_slash	93	stimuli_target_diamondsquares.svg	stimuli_distractor_diamondtriangles.svg	24	yes	53	1	369	0	0			0	0			1				0	
6.6.1	mac	2023-06-27	10:16:42	10:27:22	636015	60d2c59451b12e36fb281477	4	1	main_slash	11	advance_on_keypress_SLASH	94	stimuli_target_diamondsquares.svg	stimuli_distractor_diamondtriangles.svg	24	yes	57	0	277	0	0			0	0			1				0	
6.6.1	mac	2023-06-27	10:16:42	10:27:23	637407	60d2c59451b12e36fb281477	4	1	main_slash	11	main_slash	95	stimuli_distractor_trianglediamonds.svg	stimuli_target_squarediamonds.svg	12	yes	53	1	478	0	0			0	0			1				0	
6.6.1	mac	2023-06-27	10:16:42	10:27:23	637407	60d2c59451b12e36fb281477	4	1	main_slash	11	advance_on_keypress_SLASH	96	stimuli_distractor_trianglediamonds.svg	stimuli_target_squarediamonds.svg	12	yes	57	0	250	0	0			0	0			1				0	
6.6.1	mac	2023-06-27	10:16:42	10:27:24	638776	60d2c59451b12e36fb281477	4	1	main_slash	11	main_slash	97	stimuli_distractor_trianglediamonds.svg	stimuli_target_squaretriangles.svg	11	yes	53	1	481	0	0			0	0			1				0	
6.6.1	mac	2023-06-27	10:16:42	10:27:24	638776	60d2c59451b12e36fb281477	4	1	main_slash	11	advance_on_keypress_SLASH	98	stimuli_distractor_trianglediamonds.svg	stimuli_target_squaretriangles.svg	11	yes	57	0	277	0	0			0	0			1				0	
6.6.1	mac	2023-06-27	10:16:42	10:27:26	640041	60d2c59451b12e36fb281477	4	1	main_slash	11	main_slash	99	stimuli_target_squarediamonds.svg	stimuli_distractor_trianglediamonds.svg	4	yes	53	1	342	0	0			0	0			1				0	
6.6.1	mac	2023-06-27	10:16:42	10:27:26	640041	60d2c59451b12e36fb281477	4	1	main_slash	11	advance_on_keypress_SLASH	100	stimuli_target_squarediamonds.svg	stimuli_distractor_trianglediamonds.svg	4	yes	57	0	271	0	0			0	0			1				0	
6.6.1	mac	2023-06-27	10:16:42	10:27:27	641276	60d2c59451b12e36fb281477	4	1	main_slash	11	main_slash	101	stimuli_target_rectangletriangles.svg	stimuli_distractor_trianglediamonds.svg	1	yes	53	1	330	0	0			0	0			1				0	
6.6.1	mac	2023-06-27	10:16:42	10:27:27	641276	60d2c59451b12e36fb281477	4	1	main_slash	11	advance_on_keypress_SLASH	102	stimuli_target_rectangletriangles.svg	stimuli_distractor_trianglediamonds.svg	1	yes	57	0	255	0	0			0	0			1				0	
6.6.1	mac	2023-06-27	10:16:42	10:27:28	642579	60d2c59451b12e36fb281477	4	1	main_slash	11	main_slash	103	stimuli_target_squaretriangles.svg	stimuli_distractor_trianglediamonds.svg	3	yes	53	1	418	0	0			0	0			1				0	
6.6.1	mac	2023-06-27	10:16:42	10:27:28	642579	60d2c59451b12e36fb281477	4	1	main_slash	11	advance_on_keypress_SLASH	104	stimuli_target_squaretriangles.svg	stimuli_distractor_trianglediamonds.svg	3	yes	57	0	303	0	0			0	0			1				0	
6.6.1	mac	2023-06-27	10:16:42	10:27:29	643865	60d2c59451b12e36fb281477	4	1	main_slash	11	main_slash	105	stimuli_target_rectanglediamonds.svg	stimuli_distractor_diamondtriangles.svg	6	yes	53	1	352	0	0			0	0			1				0	
6.6.1	mac	2023-06-27	10:16:42	10:27:29	643865	60d2c59451b12e36fb281477	4	1	main_slash	11	advance_on_keypress_SLASH	106	stimuli_target_rectanglediamonds.svg	stimuli_distractor_diamondtriangles.svg	6	yes	57	0	280	0	0			0	0			1				0	
6.6.1	mac	2023-06-27	10:16:42	10:27:31	645351	60d2c59451b12e36fb281477	4	1	main_slash	11	main_slash	107	stimuli_target_diamondsquares.svg	stimuli_distractor_trianglediamonds.svg	20	yes	53	1	572	0	0			0	0			1				0	
6.6.1	mac	2023-06-27	10:16:42	10:27:31	645351	60d2c59451b12e36fb281477	4	1	main_slash	11	advance_on_keypress_SLASH	108	stimuli_target_diamondsquares.svg	stimuli_distractor_trianglediamonds.svg	20	yes	57	0	256	0	0			0	0			1				0	
6.6.1	mac	2023-06-27	10:16:42	10:27:32	646610	60d2c59451b12e36fb281477	4	1	main_slash	11	main_slash	109	stimuli_distractor_diamondtriangles.svg	stimuli_target_diamondsquares.svg	32	yes	53	1	380	0	0			0	0			1				0	
6.6.1	mac	2023-06-27	10:16:42	10:27:32	646610	60d2c59451b12e36fb281477	4	1	main_slash	11	advance_on_keypress_SLASH	110	stimuli_distractor_diamondtriangles.svg	stimuli_target_diamondsquares.svg	32	yes	57	0	317	0	0			0	0			1				0	
6.6.1	mac	2023-06-27	10:16:42	10:27:34	648048	60d2c59451b12e36fb281477	4	1	main_slash	11	main_slash	111	stimuli_target_trianglerectangles.svg	stimuli_distractor_diamondtriangles.svg	21	yes	53	1	483	0	0			0	0			1				0	
6.6.1	mac	2023-06-27	10:16:42	10:27:34	648048	60d2c59451b12e36fb281477	4	1	main_slash	11	advance_on_keypress_SLASH	112	stimuli_target_trianglerectangles.svg	stimuli_distractor_diamondtriangles.svg	21	yes	57	0	416	0	0			0	0			1				0	
6.6.1	mac	2023-06-27	10:16:42	10:27:36	649960	60d2c59451b12e36fb281477	4	1	main_slash	11	main_slash	113	stimuli_distractor_diamondtriangles.svg	stimuli_target_rectanglediamonds.svg	14	yes	53	1	864	0	0			0	0			1				0	
6.6.1	mac	2023-06-27	10:16:42	10:27:36	649960	60d2c59451b12e36fb281477	4	1	main_slash	11	advance_on_keypress_SLASH	114	stimuli_distractor_diamondtriangles.svg	stimuli_target_rectanglediamonds.svg	14	yes	57	0	390	0	0			0	0			1				0	
6.6.1	mac	2023-06-27	10:16:42	10:27:39	652979	60d2c59451b12e36fb281477	4	1	main_slash	11	main_slash	115	stimuli_distractor_diamondtriangles.svg	stimuli_target_trianglesquares.svg	30	yes	0	0	2000	0	0			0	0			1				0	
6.6.1	mac	2023-06-27	10:16:42	10:27:39	652979	60d2c59451b12e36fb281477	4	1	main_slash	11	advance_on_keypress_SLASH	116	stimuli_distractor_diamondtriangles.svg	stimuli_target_trianglesquares.svg	30	yes	57	0	347	0	0			0	0			1				0	
6.6.1	mac	2023-06-27	10:16:42	10:27:40	654349	60d2c59451b12e36fb281477	4	1	main_slash	11	main_slash	117	stimuli_target_squarediamonds.svg	stimuli_distractor_diamondtriangles.svg	8	yes	53	1	389	0	0			0	0			1				0	
6.6.1	mac	2023-06-27	10:16:42	10:27:40	654349	60d2c59451b12e36fb281477	4	1	main_slash	11	advance_on_keypress_SLASH	118	stimuli_target_squarediamonds.svg	stimuli_distractor_diamondtriangles.svg	8	yes	57	0	294	0	0			0	0			1				0	
6.6.1	mac	2023-06-27	10:16:42	10:27:41	655722	60d2c59451b12e36fb281477	4	1	main_slash	11	main_slash	119	stimuli_distractor_trianglediamonds.svg	stimuli_target_rectanglediamonds.svg	10	yes	53	1	442	0	0			0	0			1				0	
6.6.1	mac	2023-06-27	10:16:42	10:27:41	655722	60d2c59451b12e36fb281477	4	1	main_slash	11	advance_on_keypress_SLASH	120	stimuli_distractor_trianglediamonds.svg	stimuli_target_rectanglediamonds.svg	10	yes	57	0	337	0	0			0	0			1				0	
6.6.1	mac	2023-06-27	10:16:42	10:27:44	658695	60d2c59451b12e36fb281477	4	1	main_slash	11	main_slash	121	stimuli_distractor_diamondtriangles.svg	stimuli_distractor_diamondtriangles.svg	39	no	0	1	2000	0	0			0	0			1				0	
6.6.1	mac	2023-06-27	10:16:42	10:27:44	658695	60d2c59451b12e36fb281477	4	1	main_slash	11	advance_on_keypress_SLASH	122	stimuli_distractor_diamondtriangles.svg	stimuli_distractor_diamondtriangles.svg	39	no	57	0	250	0	0			0	0			1				0	
6.6.1	mac	2023-06-27	10:16:42	10:27:46	659974	60d2c59451b12e36fb281477	4	1	main_slash	11	main_slash	123	stimuli_distractor_diamondtriangles.svg	stimuli_target_squaretriangles.svg	15	yes	53	1	397	0	0			0	0			1				0	
6.6.1	mac	2023-06-27	10:16:42	10:27:46	659974	60d2c59451b12e36fb281477	4	1	main_slash	11	advance_on_keypress_SLASH	124	stimuli_distractor_diamondtriangles.svg	stimuli_target_squaretriangles.svg	15	yes	57	0	247	0	0			0	0			1				0	
6.6.1	mac	2023-06-27	10:16:42	10:27:47	661278	60d2c59451b12e36fb281477	4	1	main_slash	11	main_slash	125	stimuli_target_trianglesquares.svg	stimuli_distractor_trianglediamonds.svg	18	yes	53	1	415	0	0			0	0			1				0	
6.6.1	mac	2023-06-27	10:16:42	10:27:47	661278	60d2c59451b12e36fb281477	4	1	main_slash	11	advance_on_keypress_SLASH	126	stimuli_target_trianglesquares.svg	stimuli_distractor_trianglediamonds.svg	18	yes	57	0	299	0	0			0	0			1				0	
6.6.1	mac	2023-06-27	10:16:42	10:27:50	664213	60d2c59451b12e36fb281477	4	1	main_slash	11	main_slash	127	stimuli_distractor_trianglediamonds.svg	stimuli_distractor_diamondtriangles.svg	35	no	0	1	2000	0	0			0	0			1				0	
6.6.1	mac	2023-06-27	10:16:42	10:27:50	664213	60d2c59451b12e36fb281477	4	1	main_slash	11	advance_on_keypress_SLASH	128	stimuli_distractor_trianglediamonds.svg	stimuli_distractor_diamondtriangles.svg	35	no	57	0	246	0	0			0	0			1				0	
6.6.1	mac	2023-06-27	10:16:42	10:27:53	667095	60d2c59451b12e36fb281477	4	1	main_slash	11	main_slash	129	stimuli_distractor_trianglediamonds.svg	stimuli_target_trianglerectangles.svg	25	yes	0	0	2000	0	0			0	0			1				0	
6.6.1	mac	2023-06-27	10:16:42	10:27:53	667095	60d2c59451b12e36fb281477	4	1	main_slash	11	advance_on_keypress_SLASH	130	stimuli_distractor_trianglediamonds.svg	stimuli_target_trianglerectangles.svg	25	yes	57	0	289	0	0			0	0			1				0	
6.6.1	mac	2023-06-27	10:16:42	10:27:54	668524	60d2c59451b12e36fb281477	4	1	main_slash	11	main_slash	131	stimuli_target_trianglerectangles.svg	stimuli_distractor_trianglediamonds.svg	17	yes	53	1	513	0	0			0	0			1				0	
6.6.1	mac	2023-06-27	10:16:42	10:27:54	668524	60d2c59451b12e36fb281477	4	1	main_slash	11	advance_on_keypress_SLASH	132	stimuli_target_trianglerectangles.svg	stimuli_distractor_trianglediamonds.svg	17	yes	57	0	432	0	0			0	0			1				0	
6.6.1	mac	2023-06-27	10:16:42	10:27:56	670171	60d2c59451b12e36fb281477	4	1	main_slash	11	main_slash	133	stimuli_target_rectangletriangles.svg	stimuli_distractor_diamondtriangles.svg	5	yes	53	1	574	0	0			0	0			1				0	
6.6.1	mac	2023-06-27	10:16:42	10:27:56	670171	60d2c59451b12e36fb281477	4	1	main_slash	11	advance_on_keypress_SLASH	134	stimuli_target_rectangletriangles.svg	stimuli_distractor_diamondtriangles.svg	5	yes	57	0	310	0	0			0	0			1				0	
6.6.1	mac	2023-06-27	10:16:42	10:27:59	673130	60d2c59451b12e36fb281477	4	1	main_slash	11	main_slash	135	stimuli_distractor_trianglediamonds.svg	stimuli_distractor_trianglediamonds.svg	34	no	0	1	2000	0	0			0	0			1				0	
6.6.1	mac	2023-06-27	10:16:42	10:27:59	673130	60d2c59451b12e36fb281477	4	1	main_slash	11	advance_on_keypress_SLASH	136	stimuli_distractor_trianglediamonds.svg	stimuli_distractor_trianglediamonds.svg	34	no	57	0	285	0	0			0	0			1				0	
6.6.1	mac	2023-06-27	10:16:42	10:28:00	674491	60d2c59451b12e36fb281477	4	1	main_slash	11	main_slash	137	stimuli_target_rectanglediamonds.svg	stimuli_distractor_trianglediamonds.svg	2	yes	53	1	442	0	0			0	0			1				0	
6.6.1	mac	2023-06-27	10:16:42	10:28:00	674491	60d2c59451b12e36fb281477	4	1	main_slash	11	advance_on_keypress_SLASH	138	stimuli_target_rectanglediamonds.svg	stimuli_distractor_trianglediamonds.svg	2	yes	57	0	291	0	0			0	0			1				0	
6.6.1	mac	2023-06-27	10:16:42	10:28:03	677426	60d2c59451b12e36fb281477	4	1	main_slash	11	main_slash	139	stimuli_distractor_trianglediamonds.svg	stimuli_distractor_diamondtriangles.svg	36	no	0	1	2000	0	0			0	0			1				0	
6.6.1	mac	2023-06-27	10:16:42	10:28:03	677426	60d2c59451b12e36fb281477	4	1	main_slash	11	advance_on_keypress_SLASH	140	stimuli_distractor_trianglediamonds.svg	stimuli_distractor_diamondtriangles.svg	36	no	57	0	238	0	0			0	0			1				0	
6.6.1	mac	2023-06-27	10:16:42	10:28:04	678785	60d2c59451b12e36fb281477	4	1	main_slash	11	main_slash	141	stimuli_distractor_diamondtriangles.svg	stimuli_target_squarediamonds.svg	16	yes	53	1	489	0	0			0	0			1				0	
6.6.1	mac	2023-06-27	10:16:42	10:28:04	678785	60d2c59451b12e36fb281477	4	1	main_slash	11	advance_on_keypress_SLASH	142	stimuli_distractor_diamondtriangles.svg	stimuli_target_squarediamonds.svg	16	yes	57	0	306	0	0			0	0			1				0	
6.6.1	mac	2023-06-27	10:16:42	10:28:06	680181	60d2c59451b12e36fb281477	4	1	main_slash	11	main_slash	143	stimuli_target_trianglesquares.svg	stimuli_distractor_diamondtriangles.svg	22	yes	53	1	469	0	0			0	0			1				0	
6.6.1	mac	2023-06-27	10:16:42	10:28:06	680181	60d2c59451b12e36fb281477	4	1	main_slash	11	advance_on_keypress_SLASH	144	stimuli_target_trianglesquares.svg	stimuli_distractor_diamondtriangles.svg	22	yes	57	0	300	0	0			0	0			1				0	
6.6.1	mac	2023-06-27	10:16:42	10:28:07	681529	60d2c59451b12e36fb281477	4	1	main_slash	11	main_slash	145	stimuli_distractor_diamondtriangles.svg	stimuli_target_trianglerectangles.svg	29	yes	53	1	417	0	0			0	0			1				0	
6.6.1	mac	2023-06-27	10:16:42	10:28:07	681529	60d2c59451b12e36fb281477	4	1	main_slash	11	advance_on_keypress_SLASH	146	stimuli_distractor_diamondtriangles.svg	stimuli_target_trianglerectangles.svg	29	yes	57	0	345	0	0			0	0			1				0	
6.6.1	mac	2023-06-27	10:16:42	10:28:09	683038	60d2c59451b12e36fb281477	4	1	main_slash	11	main_slash	147	stimuli_distractor_trianglediamonds.svg	stimuli_target_rectangletriangles.svg	9	yes	53	1	528	0	0			0	0			1				0	
6.6.1	mac	2023-06-27	10:16:42	10:28:09	683038	60d2c59451b12e36fb281477	4	1	main_slash	11	advance_on_keypress_SLASH	148	stimuli_distractor_trianglediamonds.svg	stimuli_target_rectangletriangles.svg	9	yes	57	0	291	0	0			0	0			1				0	
6.6.1	mac	2023-06-27	10:16:42	10:28:10	684523	60d2c59451b12e36fb281477	4	1	main_slash	11	main_slash	149	stimuli_distractor_trianglediamonds.svg	stimuli_target_diamondsquares.svg	28	yes	53	1	544	0	0			0	0			1				0	
6.6.1	mac	2023-06-27	10:16:42	10:28:10	684523	60d2c59451b12e36fb281477	4	1	main_slash	11	advance_on_keypress_SLASH	150	stimuli_distractor_trianglediamonds.svg	stimuli_target_diamondsquares.svg	28	yes	57	0	316	0	0			0	0			1				0	
6.6.1	mac	2023-06-27	10:16:42	10:28:13	687479	60d2c59451b12e36fb281477	4	1	main_slash	11	main_slash	151	stimuli_distractor_trianglediamonds.svg	stimuli_target_diamondrectangles.svg	27	yes	0	0	2000	0	0			0	0			1				0	
6.6.1	mac	2023-06-27	10:16:42	10:28:13	687479	60d2c59451b12e36fb281477	4	1	main_slash	11	advance_on_keypress_SLASH	152	stimuli_distractor_trianglediamonds.svg	stimuli_target_diamondrectangles.svg	27	yes	57	0	290	0	0			0	0			1				0	
6.6.1	mac	2023-06-27	10:16:42	10:28:15	688977	60d2c59451b12e36fb281477	4	1	main_slash	11	main_slash	153	stimuli_distractor_diamondtriangles.svg	stimuli_target_rectangletriangles.svg	13	yes	53	1	583	0	0			0	0			1				0	
6.6.1	mac	2023-06-27	10:16:42	10:28:15	688977	60d2c59451b12e36fb281477	4	1	main_slash	11	advance_on_keypress_SLASH	154	stimuli_distractor_diamondtriangles.svg	stimuli_target_rectangletriangles.svg	13	yes	57	0	252	0	0			0	0			1				0	
6.6.1	mac	2023-06-27	10:16:42	10:28:16	690259	60d2c59451b12e36fb281477	4	1	main_slash	11	main_slash	155	stimuli_target_squaretriangles.svg	stimuli_distractor_diamondtriangles.svg	7	yes	53	1	397	0	0			0	0			1				0	
6.6.1	mac	2023-06-27	10:16:42	10:28:16	690259	60d2c59451b12e36fb281477	4	1	main_slash	11	advance_on_keypress_SLASH	156	stimuli_target_squaretriangles.svg	stimuli_distractor_diamondtriangles.svg	7	yes	57	0	252	0	0			0	0			1				0	
6.6.1	mac	2023-06-27	10:16:42	10:28:19	693145	60d2c59451b12e36fb281477	4	1	main_slash	11	main_slash	157	stimuli_distractor_trianglediamonds.svg	stimuli_distractor_trianglediamonds.svg	33	no	0	1	2000	0	0			0	0			1				0	
6.6.1	mac	2023-06-27	10:16:42	10:28:19	693145	60d2c59451b12e36fb281477	4	1	main_slash	11	advance_on_keypress_SLASH	158	stimuli_distractor_trianglediamonds.svg	stimuli_distractor_trianglediamonds.svg	33	no	57	0	338	0	0			0	0			1				0	
6.6.1	mac	2023-06-27	10:16:42	10:28:20	694647	60d2c59451b12e36fb281477	4	1	main_slash	11	main_slash	159	stimuli_distractor_trianglediamonds.svg	stimuli_target_trianglesquares.svg	26	yes	53	1	534	0	0			0	0			1				0	
6.6.1	mac	2023-06-27	10:16:42	10:28:20	694647	60d2c59451b12e36fb281477	4	1	main_slash	11	advance_on_keypress_SLASH	160	stimuli_distractor_trianglediamonds.svg	stimuli_target_trianglesquares.svg	26	yes	57	0	233	0	0			0	0			1				0	
6.6.1	mac	2023-06-27	10:16:42	10:28:20	694647	60d2c59451b12e36fb281477	4	1	headphonecheck_calibration	14	headphonecheck_calibrationIntro	1	stimuli_distractor_trianglediamonds.svg	stimuli_target_trianglesquares.svg	26	yes	calibrationButton	0	2529	0	0			0	0			1				0	
6.6.1	mac	2023-06-27	10:16:42	10:28:20	694647	60d2c59451b12e36fb281477	4	1	headphonecheck_testphase	15	test_collectResponse	3	stimuli_distractor_trianglediamonds.svg	stimuli_target_trianglesquares.svg	26	yes	first	1	705	1	4	antiphase_hc_sio.wav	1	0	0			1				0	
6.6.1	mac	2023-06-27	10:16:42	10:28:20	694647	60d2c59451b12e36fb281477	4	1	headphonecheck_testphase	15	test_collectResponse	6	stimuli_distractor_trianglediamonds.svg	stimuli_target_trianglesquares.svg	26	yes	second	1	661	2	1	antiphase_hc_iso.wav	2	0	0			1				0	
6.6.1	mac	2023-06-27	10:16:42	10:28:20	694647	60d2c59451b12e36fb281477	4	1	headphonecheck_testphase	15	test_collectResponse	9	stimuli_distractor_trianglediamonds.svg	stimuli_target_trianglesquares.svg	26	yes	second	1	403	3	5	antiphase_hc_osi.wav	2	0	0			1				0	
6.6.1	mac	2023-06-27	10:16:42	10:28:20	694647	60d2c59451b12e36fb281477	4	1	headphonecheck_testphase	15	test_collectResponse	12	stimuli_distractor_trianglediamonds.svg	stimuli_target_trianglesquares.svg	26	yes	first	1	1075	4	3	antiphase_hc_soi.wav	1	0	0			1				0	
6.6.1	mac	2023-06-27	10:16:42	10:28:20	694647	60d2c59451b12e36fb281477	4	1	headphonecheck_testphase	15	test_collectResponse	15	stimuli_distractor_trianglediamonds.svg	stimuli_target_trianglesquares.svg	26	yes	third	1	673	5	6	antiphase_hc_ois.wav	3	0	0			1				0	
6.6.1	mac	2023-06-27	10:16:42	10:28:20	694647	60d2c59451b12e36fb281477	4	1	headphonecheck_testphase	15	test_collectResponse	18	stimuli_distractor_trianglediamonds.svg	stimuli_target_trianglesquares.svg	26	yes	third	1	702	6	2	antiphase_hc_ios.wav	3	0	0			1				0	
6.6.1	mac	2023-06-27	10:16:42	10:28:20	694647	60d2c59451b12e36fb281477	4	1	stereocheck_calibration	17	stereocheck_calibrationIntro	1	stimuli_distractor_trianglediamonds.svg	stimuli_target_trianglesquares.svg	26	yes	stereocheck_calibrationButton	0	2912	6	2	antiphase_hc_ios.wav	3	0	0			1				0	
6.6.1	mac	2023-06-27	10:16:42	10:28:20	694647	60d2c59451b12e36fb281477	4	1	stereocheck_testphase	18	stereocheck_test_collectResponse	3	stimuli_distractor_trianglediamonds.svg	stimuli_target_trianglesquares.svg	26	yes	stereocheck_right	1	366	6	2	antiphase_hc_ios.wav	3	1	6	noise_calib_stim_RIGHT.wav	2	1				0	
6.6.1	mac	2023-06-27	10:16:42	10:28:20	694647	60d2c59451b12e36fb281477	4	1	stereocheck_testphase	18	stereocheck_test_collectResponse	6	stimuli_distractor_trianglediamonds.svg	stimuli_target_trianglesquares.svg	26	yes	stereocheck_left	1	250	6	2	antiphase_hc_ios.wav	3	2	1	noise_calib_stim_LEFT.wav	1	1				0	
6.6.1	mac	2023-06-27	10:16:42	10:28:20	694647	60d2c59451b12e36fb281477	4	1	stereocheck_testphase	18	stereocheck_test_collectResponse	9	stimuli_distractor_trianglediamonds.svg	stimuli_target_trianglesquares.svg	26	yes	stereocheck_right	1	277	6	2	antiphase_hc_ios.wav	3	3	4	noise_calib_stim_RIGHT.wav	2	1				0	
6.6.1	mac	2023-06-27	10:16:42	10:28:20	694647	60d2c59451b12e36fb281477	4	1	stereocheck_testphase	18	stereocheck_test_collectResponse	12	stimuli_distractor_trianglediamonds.svg	stimuli_target_trianglesquares.svg	26	yes	stereocheck_left	0	305	6	2	antiphase_hc_ios.wav	3	4	5	noise_calib_stim_RIGHT.wav	2	1				0	
6.6.1	mac	2023-06-27	10:16:42	10:28:20	694647	60d2c59451b12e36fb281477	4	1	stereocheck_testphase	18	stereocheck_test_collectResponse	15	stimuli_distractor_trianglediamonds.svg	stimuli_target_trianglesquares.svg	26	yes	stereocheck_left	1	519	6	2	antiphase_hc_ios.wav	3	5	3	noise_calib_stim_LEFT.wav	1	1				0	
6.6.1	mac	2023-06-27	10:16:42	10:28:20	694647	60d2c59451b12e36fb281477	4	1	stereocheck_testphase	18	stereocheck_test_collectResponse	18	stimuli_distractor_trianglediamonds.svg	stimuli_target_trianglesquares.svg	26	yes	stereocheck_left	1	369	6	2	antiphase_hc_ios.wav	3	6	2	noise_calib_stim_LEFT.wav	1	1				0	
6.6.1	mac	2023-06-27	10:16:42	10:28:20	694647	60d2c59451b12e36fb281477	4	1	DL_practice	21	DL_practice	2	stimuli_distractor_trianglediamonds.svg	stimuli_target_trianglesquares.svg	26	yes	ka	0	1845	6	2	antiphase_hc_ios.wav	3	6	2	noise_calib_stim_LEFT.wav	1	18	blb_dichoticlistening_ga-ta.mp3	ga	ta	1	other
6.6.1	mac	2023-06-27	10:16:42	10:28:20	694647	60d2c59451b12e36fb281477	4	1	DL_practice	21	DL_practice	3	stimuli_distractor_trianglediamonds.svg	stimuli_target_trianglesquares.svg	26	yes	pa	1	1283	6	2	antiphase_hc_ios.wav	3	6	2	noise_calib_stim_LEFT.wav	1	23	blb_dichoticlistening_ka-pa.mp3	ka	pa	1	right
6.6.1	mac	2023-06-27	10:16:42	10:28:20	694647	60d2c59451b12e36fb281477	4	1	DL_practice	21	DL_practice	4	stimuli_distractor_trianglediamonds.svg	stimuli_target_trianglesquares.svg	26	yes	ba	1	1450	6	2	antiphase_hc_ios.wav	3	6	2	noise_calib_stim_LEFT.wav	1	1	blb_dichoticlistening_ba-ba.mp3	ba	ba	0	left
6.6.1	mac	2023-06-27	10:16:42	10:28:20	694647	60d2c59451b12e36fb281477	4	1	DL_practice	21	DL_practice	5	stimuli_distractor_trianglediamonds.svg	stimuli_target_trianglesquares.svg	26	yes	pa	1	1574	6	2	antiphase_hc_ios.wav	3	6	2	noise_calib_stim_LEFT.wav	1	29	blb_dichoticlistening_pa-pa.mp3	pa	pa	0	left
6.6.1	mac	2023-06-27	10:16:42	10:28:20	694647	60d2c59451b12e36fb281477	4	1	DL_practice	21	DL_practice	6	stimuli_distractor_trianglediamonds.svg	stimuli_target_trianglesquares.svg	26	yes	ta	1	1216	6	2	antiphase_hc_ios.wav	3	6	2	noise_calib_stim_LEFT.wav	1	36	blb_dichoticlistening_ta-ta.mp3	ta	ta	0	left
6.6.1	mac	2023-06-27	10:16:42	10:28:20	694647	60d2c59451b12e36fb281477	4	1	DL_practice	21	DL_practice	7	stimuli_distractor_trianglediamonds.svg	stimuli_target_trianglesquares.svg	26	yes	da	1	1494	6	2	antiphase_hc_ios.wav	3	6	2	noise_calib_stim_LEFT.wav	1	8	blb_dichoticlistening_da-da.mp3	da	da	0	left
6.6.1	mac	2023-06-27	10:16:42	10:28:20	694647	60d2c59451b12e36fb281477	4	1	DL_practice	21	DL_practice	8	stimuli_distractor_trianglediamonds.svg	stimuli_target_trianglesquares.svg	26	yes	da	1	1757	6	2	antiphase_hc_ios.wav	3	6	2	noise_calib_stim_LEFT.wav	1	7	blb_dichoticlistening_da-ba.mp3	da	ba	1	left
6.6.1	mac	2023-06-27	10:16:42	10:28:20	694647	60d2c59451b12e36fb281477	4	1	DL_practice	21	DL_practice	9	stimuli_distractor_trianglediamonds.svg	stimuli_target_trianglesquares.svg	26	yes	ga	1	1116	6	2	antiphase_hc_ios.wav	3	6	2	noise_calib_stim_LEFT.wav	1	15	blb_dichoticlistening_ga-ga.mp3	ga	ga	0	left
6.6.1	mac	2023-06-27	10:16:42	10:28:20	694647	60d2c59451b12e36fb281477	4	1	DL_practice	21	DL_practice	10	stimuli_distractor_trianglediamonds.svg	stimuli_target_trianglesquares.svg	26	yes	ka	1	1004	6	2	antiphase_hc_ios.wav	3	6	2	noise_calib_stim_LEFT.wav	1	22	blb_dichoticlistening_ka-ka.mp3	ka	ka	0	left
6.6.1	mac	2023-06-27	10:16:42	10:28:20	694647	60d2c59451b12e36fb281477	4	1	DL_test	23	DL_test	1	stimuli_distractor_trianglediamonds.svg	stimuli_target_trianglesquares.svg	26	yes	ka	0	1501	6	2	antiphase_hc_ios.wav	3	6	2	noise_calib_stim_LEFT.wav	1	27	blb_dichoticlistening_pa-ga.mp3	pa	ga	1	other
6.6.1	mac	2023-06-27	10:16:42	10:28:20	694647	60d2c59451b12e36fb281477	4	1	DL_test	23	DL_test	2	stimuli_distractor_trianglediamonds.svg	stimuli_target_trianglesquares.svg	26	yes	ka	1	1058	6	2	antiphase_hc_ios.wav	3	6	2	noise_calib_stim_LEFT.wav	1	4	blb_dichoticlistening_ba-ka.mp3	ba	ka	1	right
6.6.1	mac	2023-06-27	10:16:42	10:28:20	694647	60d2c59451b12e36fb281477	4	1	DL_test	23	DL_test	3	stimuli_distractor_trianglediamonds.svg	stimuli_target_trianglesquares.svg	26	yes	ka	0	1003	6	2	antiphase_hc_ios.wav	3	6	2	noise_calib_stim_LEFT.wav	1	18	blb_dichoticlistening_ga-ta.mp3	ga	ta	1	other
6.6.1	mac	2023-06-27	10:16:42	10:28:20	694647	60d2c59451b12e36fb281477	4	1	DL_test	23	DL_test	4	stimuli_distractor_trianglediamonds.svg	stimuli_target_trianglesquares.svg	26	yes	ka	1	919	6	2	antiphase_hc_ios.wav	3	6	2	noise_calib_stim_LEFT.wav	1	20	blb_dichoticlistening_ka-da.mp3	ka	da	1	left
6.6.1	mac	2023-06-27	10:16:42	10:28:20	694647	60d2c59451b12e36fb281477	4	1	DL_test	23	DL_test	5	stimuli_distractor_trianglediamonds.svg	stimuli_target_trianglesquares.svg	26	yes	da	1	1235	6	2	antiphase_hc_ios.wav	3	6	2	noise_calib_stim_LEFT.wav	1	8	blb_dichoticlistening_da-da.mp3	da	da	0	left
6.6.1	mac	2023-06-27	10:16:42	10:28:20	694647	60d2c59451b12e36fb281477	4	1	DL_test	23	DL_test	6	stimuli_distractor_trianglediamonds.svg	stimuli_target_trianglesquares.svg	26	yes	ka	1	999	6	2	antiphase_hc_ios.wav	3	6	2	noise_calib_stim_LEFT.wav	1	22	blb_dichoticlistening_ka-ka.mp3	ka	ka	0	left
6.6.1	mac	2023-06-27	10:16:42	10:28:20	694647	60d2c59451b12e36fb281477	4	1	DL_test	23	DL_test	7	stimuli_distractor_trianglediamonds.svg	stimuli_target_trianglesquares.svg	26	yes	ka	0	1132	6	2	antiphase_hc_ios.wav	3	6	2	noise_calib_stim_LEFT.wav	1	6	blb_dichoticlistening_ba-ta.mp3	ba	ta	1	other
6.6.1	mac	2023-06-27	10:16:42	10:28:20	694647	60d2c59451b12e36fb281477	4	1	DL_test	23	DL_test	8	stimuli_distractor_trianglediamonds.svg	stimuli_target_trianglesquares.svg	26	yes	ka	1	945	6	2	antiphase_hc_ios.wav	3	6	2	noise_calib_stim_LEFT.wav	1	34	blb_dichoticlistening_ta-ka.mp3	ta	ka	1	right
6.6.1	mac	2023-06-27	10:16:42	10:28:20	694647	60d2c59451b12e36fb281477	4	1	DL_test	23	DL_test	9	stimuli_distractor_trianglediamonds.svg	stimuli_target_trianglesquares.svg	26	yes	pa	1	1636	6	2	antiphase_hc_ios.wav	3	6	2	noise_calib_stim_LEFT.wav	1	11	blb_dichoticlistening_da-pa.mp3	da	pa	1	right
6.6.1	mac	2023-06-27	10:16:42	10:28:20	694647	60d2c59451b12e36fb281477	4	1	DL_test	23	DL_test	10	stimuli_distractor_trianglediamonds.svg	stimuli_target_trianglesquares.svg	26	yes	ka	0	1033	6	2	antiphase_hc_ios.wav	3	6	2	noise_calib_stim_LEFT.wav	1	32	blb_dichoticlistening_ta-da.mp3	ta	da	1	other
6.6.1	mac	2023-06-27	10:16:42	10:28:20	694647	60d2c59451b12e36fb281477	4	1	DL_test	23	DL_test	11	stimuli_distractor_trianglediamonds.svg	stimuli_target_trianglesquares.svg	26	yes	ta	0	1399	6	2	antiphase_hc_ios.wav	3	6	2	noise_calib_stim_LEFT.wav	1	10	blb_dichoticlistening_da-ka.mp3	da	ka	1	other
6.6.1	mac	2023-06-27	10:16:42	10:28:20	694647	60d2c59451b12e36fb281477	4	1	DL_test	23	DL_test	12	stimuli_distractor_trianglediamonds.svg	stimuli_target_trianglesquares.svg	26	yes	pa	1	1833	6	2	antiphase_hc_ios.wav	3	6	2	noise_calib_stim_LEFT.wav	1	23	blb_dichoticlistening_ka-pa.mp3	ka	pa	1	right
6.6.1	mac	2023-06-27	10:16:42	10:28:20	694647	60d2c59451b12e36fb281477	4	1	DL_test	23	DL_test	13	stimuli_distractor_trianglediamonds.svg	stimuli_target_trianglesquares.svg	26	yes	ka	0	1303	6	2	antiphase_hc_ios.wav	3	6	2	noise_calib_stim_LEFT.wav	1	30	blb_dichoticlistening_pa-ta.mp3	pa	ta	1	other
6.6.1	mac	2023-06-27	10:16:42	10:28:20	694647	60d2c59451b12e36fb281477	4	1	DL_test	23	DL_test	14	stimuli_distractor_trianglediamonds.svg	stimuli_target_trianglesquares.svg	26	yes	ga	1	1024	6	2	antiphase_hc_ios.wav	3	6	2	noise_calib_stim_LEFT.wav	1	15	blb_dichoticlistening_ga-ga.mp3	ga	ga	0	left
6.6.1	mac	2023-06-27	10:16:42	10:28:20	694647	60d2c59451b12e36fb281477	4	1	DL_test	23	DL_test	15	stimuli_distractor_trianglediamonds.svg	stimuli_target_trianglesquares.svg	26	yes	ka	0	2227	6	2	antiphase_hc_ios.wav	3	6	2	noise_calib_stim_LEFT.wav	1	35	blb_dichoticlistening_ta-pa.mp3	ta	pa	1	other
6.6.1	mac	2023-06-27	10:16:42	10:28:20	694647	60d2c59451b12e36fb281477	4	1	DL_test	23	DL_test	16	stimuli_distractor_trianglediamonds.svg	stimuli_target_trianglesquares.svg	26	yes	pa	1	1003	6	2	antiphase_hc_ios.wav	3	6	2	noise_calib_stim_LEFT.wav	1	5	blb_dichoticlistening_ba-pa.mp3	ba	pa	1	right
6.6.1	mac	2023-06-27	10:16:42	10:28:20	694647	60d2c59451b12e36fb281477	4	1	DL_test	23	DL_test	17	stimuli_distractor_trianglediamonds.svg	stimuli_target_trianglesquares.svg	26	yes	ga	1	1685	6	2	antiphase_hc_ios.wav	3	6	2	noise_calib_stim_LEFT.wav	1	3	blb_dichoticlistening_ba-ga.mp3	ba	ga	1	right
6.6.1	mac	2023-06-27	10:16:42	10:28:20	694647	60d2c59451b12e36fb281477	4	1	DL_test	23	DL_test	18	stimuli_distractor_trianglediamonds.svg	stimuli_target_trianglesquares.svg	26	yes	ba	1	1867	6	2	antiphase_hc_ios.wav	3	6	2	noise_calib_stim_LEFT.wav	1	1	blb_dichoticlistening_ba-ba.mp3	ba	ba	0	left
6.6.1	mac	2023-06-27	10:16:42	10:28:20	694647	60d2c59451b12e36fb281477	4	1	DL_test	23	DL_test	19	stimuli_distractor_trianglediamonds.svg	stimuli_target_trianglesquares.svg	26	yes	ka	1	1066	6	2	antiphase_hc_ios.wav	3	6	2	noise_calib_stim_LEFT.wav	1	21	blb_dichoticlistening_ka-ga.mp3	ka	ga	1	left
6.6.1	mac	2023-06-27	10:16:42	10:28:20	694647	60d2c59451b12e36fb281477	4	1	DL_test	23	DL_test	20	stimuli_distractor_trianglediamonds.svg	stimuli_target_trianglesquares.svg	26	yes	pa	1	1134	6	2	antiphase_hc_ios.wav	3	6	2	noise_calib_stim_LEFT.wav	1	29	blb_dichoticlistening_pa-pa.mp3	pa	pa	0	left
6.6.1	mac	2023-06-27	10:16:42	10:28:20	694647	60d2c59451b12e36fb281477	4	1	DL_test	23	DL_test	21	stimuli_distractor_trianglediamonds.svg	stimuli_target_trianglesquares.svg	26	yes	ba	1	3312	6	2	antiphase_hc_ios.wav	3	6	2	noise_calib_stim_LEFT.wav	1	13	blb_dichoticlistening_ga-ba.mp3	ga	ba	1	right
6.6.1	mac	2023-06-27	10:16:42	10:28:20	694647	60d2c59451b12e36fb281477	4	1	DL_test	23	DL_test	22	stimuli_distractor_trianglediamonds.svg	stimuli_target_trianglesquares.svg	26	yes	da	1	1361	6	2	antiphase_hc_ios.wav	3	6	2	noise_calib_stim_LEFT.wav	1	9	blb_dichoticlistening_da-ga.mp3	da	ga	1	left
6.6.1	mac	2023-06-27	10:16:42	10:28:20	694647	60d2c59451b12e36fb281477	4	1	DL_test	23	DL_test	23	stimuli_distractor_trianglediamonds.svg	stimuli_target_trianglesquares.svg	26	yes	ka	1	1366	6	2	antiphase_hc_ios.wav	3	6	2	noise_calib_stim_LEFT.wav	1	28	blb_dichoticlistening_pa-ka.mp3	pa	ka	1	right
6.6.1	mac	2023-06-27	10:16:42	10:28:20	694647	60d2c59451b12e36fb281477	4	1	DL_test	23	DL_test	24	stimuli_distractor_trianglediamonds.svg	stimuli_target_trianglesquares.svg	26	yes	da	1	907	6	2	antiphase_hc_ios.wav	3	6	2	noise_calib_stim_LEFT.wav	1	7	blb_dichoticlistening_da-ba.mp3	da	ba	1	left
6.6.1	mac	2023-06-27	10:16:42	10:28:20	694647	60d2c59451b12e36fb281477	4	1	DL_test	23	DL_test	25	stimuli_distractor_trianglediamonds.svg	stimuli_target_trianglesquares.svg	26	yes	pa	1	1307	6	2	antiphase_hc_ios.wav	3	6	2	noise_calib_stim_LEFT.wav	1	17	blb_dichoticlistening_ga-pa.mp3	ga	pa	1	right
6.6.1	mac	2023-06-27	10:16:42	10:28:20	694647	60d2c59451b12e36fb281477	4	1	DL_test	23	DL_test	26	stimuli_distractor_trianglediamonds.svg	stimuli_target_trianglesquares.svg	26	yes	ka	1	1001	6	2	antiphase_hc_ios.wav	3	6	2	noise_calib_stim_LEFT.wav	1	24	blb_dichoticlistening_ka-ta.mp3	ka	ta	1	left
