build	computer.platform	date	time	timestamp	time_elapsed_ms	subject	group	session	blockcode	blocknum	trialcode	trialnum	stimulus_left	stimulus_right	stim_index	target_present	response	correct	latency	headphonecheck_countTestTrials	headphonecheck_index	headphonecheck_testSound	headphonecheck_correctResponse	stereocheck_countTestTrials	stereocheck_index	stereocheck_testSound	stereocheck_correctResponse	DL_index	DL_soundfile	DL_leftSound	DL_rightSound	DL_dualSound	DL_choice
6.6.0	win	2023-06-27	16:26:54	0	0	6277fb597942c07d74b16b98	1	1	headphonecheck_calibration	4	headphonecheck_calibrationIntro	1			0		calibrationButton	0	2985	0	0			0	0			1				0	
6.6.0	win	2023-06-27	16:26:54	0	0	6277fb597942c07d74b16b98	1	1	headphonecheck_testphase	5	test_collectResponse	3			0		third	1	154	1	6	antiphase_hc_ois.wav	3	0	0			1				0	
6.6.0	win	2023-06-27	16:26:54	0	0	6277fb597942c07d74b16b98	1	1	headphonecheck_testphase	5	test_collectResponse	6			0		second	1	0	2	1	antiphase_hc_iso.wav	2	0	0			1				0	
6.6.0	win	2023-06-27	16:26:54	0	0	6277fb597942c07d74b16b98	1	1	headphonecheck_testphase	5	test_collectResponse	9			0		third	1	3587	3	2	antiphase_hc_ios.wav	3	0	0			1				0	
6.6.0	win	2023-06-27	16:26:54	0	0	6277fb597942c07d74b16b98	1	1	headphonecheck_testphase	5	test_collectResponse	12			0		second	1	355	4	5	antiphase_hc_osi.wav	2	0	0			1				0	
6.6.0	win	2023-06-27	16:26:54	0	0	6277fb597942c07d74b16b98	1	1	headphonecheck_testphase	5	test_collectResponse	15			0		first	1	318	5	3	antiphase_hc_soi.wav	1	0	0			1				0	
6.6.0	win	2023-06-27	16:26:54	0	0	6277fb597942c07d74b16b98	1	1	headphonecheck_testphase	5	test_collectResponse	18			0		first	1	281	6	4	antiphase_hc_sio.wav	1	0	0			1				0	
6.6.0	win	2023-06-27	16:26:54	0	0	6277fb597942c07d74b16b98	1	1	stereocheck_calibration	7	stereocheck_calibrationIntro	1			0		stereocheck_calibrationButton	0	13298	6	4	antiphase_hc_sio.wav	1	0	0			1				0	
6.6.0	win	2023-06-27	16:26:54	0	0	6277fb597942c07d74b16b98	1	1	stereocheck_testphase	8	stereocheck_test_collectResponse	3			0		stereocheck_right	1	668	6	4	antiphase_hc_sio.wav	1	1	6	noise_calib_stim_RIGHT.wav	2	1				0	
6.6.0	win	2023-06-27	16:26:54	0	0	6277fb597942c07d74b16b98	1	1	stereocheck_testphase	8	stereocheck_test_collectResponse	6			0		stereocheck_left	1	312	6	4	antiphase_hc_sio.wav	1	2	2	noise_calib_stim_LEFT.wav	1	1				0	
6.6.0	win	2023-06-27	16:26:54	0	0	6277fb597942c07d74b16b98	1	1	stereocheck_testphase	8	stereocheck_test_collectResponse	9			0		stereocheck_left	1	292	6	4	antiphase_hc_sio.wav	1	3	3	noise_calib_stim_LEFT.wav	1	1				0	
6.6.0	win	2023-06-27	16:26:54	0	0	6277fb597942c07d74b16b98	1	1	stereocheck_testphase	8	stereocheck_test_collectResponse	12			0		stereocheck_right	1	387	6	4	antiphase_hc_sio.wav	1	4	4	noise_calib_stim_RIGHT.wav	2	1				0	
6.6.0	win	2023-06-27	16:26:54	0	0	6277fb597942c07d74b16b98	1	1	stereocheck_testphase	8	stereocheck_test_collectResponse	15			0		stereocheck_left	1	329	6	4	antiphase_hc_sio.wav	1	5	1	noise_calib_stim_LEFT.wav	1	1				0	
6.6.0	win	2023-06-27	16:26:54	0	0	6277fb597942c07d74b16b98	1	1	stereocheck_testphase	8	stereocheck_test_collectResponse	18			0		stereocheck_right	1	371	6	4	antiphase_hc_sio.wav	1	6	5	noise_calib_stim_RIGHT.wav	2	1				0	
6.6.0	win	2023-06-27	16:26:54	0	0	6277fb597942c07d74b16b98	1	1	DL_practice	11	DL_practice	2			0		ga	1	3329	6	4	antiphase_hc_sio.wav	1	6	5	noise_calib_stim_RIGHT.wav	2	18	blb_dichoticlistening_ga-ta.mp3	ga	ta	1	left
6.6.0	win	2023-06-27	16:26:54	0	0	6277fb597942c07d74b16b98	1	1	DL_practice	11	DL_practice	3			0		ta	1	1322	6	4	antiphase_hc_sio.wav	1	6	5	noise_calib_stim_RIGHT.wav	2	36	blb_dichoticlistening_ta-ta.mp3	ta	ta	0	left
6.6.0	win	2023-06-27	16:26:54	0	0	6277fb597942c07d74b16b98	1	1	DL_practice	11	DL_practice	4			0		da	1	1412	6	4	antiphase_hc_sio.wav	1	6	5	noise_calib_stim_RIGHT.wav	2	8	blb_dichoticlistening_da-da.mp3	da	da	0	left
6.6.0	win	2023-06-27	16:26:54	0	0	6277fb597942c07d74b16b98	1	1	DL_practice	11	DL_practice	5			0		pa	1	984	6	4	antiphase_hc_sio.wav	1	6	5	noise_calib_stim_RIGHT.wav	2	29	blb_dichoticlistening_pa-pa.mp3	pa	pa	0	left
6.6.0	win	2023-06-27	16:26:54	0	0	6277fb597942c07d74b16b98	1	1	DL_practice	11	DL_practice	6			0		pa	1	1480	6	4	antiphase_hc_sio.wav	1	6	5	noise_calib_stim_RIGHT.wav	2	23	blb_dichoticlistening_ka-pa.mp3	ka	pa	1	right
6.6.0	win	2023-06-27	16:26:54	0	0	6277fb597942c07d74b16b98	1	1	DL_practice	11	DL_practice	7			0		ba	1	1088	6	4	antiphase_hc_sio.wav	1	6	5	noise_calib_stim_RIGHT.wav	2	7	blb_dichoticlistening_da-ba.mp3	da	ba	1	right
6.6.0	win	2023-06-27	16:26:54	0	0	6277fb597942c07d74b16b98	1	1	DL_practice	11	DL_practice	8			0		ka	1	781	6	4	antiphase_hc_sio.wav	1	6	5	noise_calib_stim_RIGHT.wav	2	22	blb_dichoticlistening_ka-ka.mp3	ka	ka	0	left
6.6.0	win	2023-06-27	16:26:54	0	0	6277fb597942c07d74b16b98	1	1	DL_practice	11	DL_practice	9			0		ba	1	885	6	4	antiphase_hc_sio.wav	1	6	5	noise_calib_stim_RIGHT.wav	2	1	blb_dichoticlistening_ba-ba.mp3	ba	ba	0	left
6.6.0	win	2023-06-27	16:26:54	0	0	6277fb597942c07d74b16b98	1	1	DL_practice	11	DL_practice	10			0		ga	1	1075	6	4	antiphase_hc_sio.wav	1	6	5	noise_calib_stim_RIGHT.wav	2	15	blb_dichoticlistening_ga-ga.mp3	ga	ga	0	left
6.6.0	win	2023-06-27	16:26:54	0	0	6277fb597942c07d74b16b98	1	1	DL_test	13	DL_test	1			0		ka	0	1252	6	4	antiphase_hc_sio.wav	1	6	5	noise_calib_stim_RIGHT.wav	2	18	blb_dichoticlistening_ga-ta.mp3	ga	ta	1	other
6.6.0	win	2023-06-27	16:26:54	0	0	6277fb597942c07d74b16b98	1	1	DL_test	13	DL_test	2			0		pa	1	1393	6	4	antiphase_hc_sio.wav	1	6	5	noise_calib_stim_RIGHT.wav	2	17	blb_dichoticlistening_ga-pa.mp3	ga	pa	1	right
6.6.0	win	2023-06-27	16:26:54	0	0	6277fb597942c07d74b16b98	1	1	DL_test	13	DL_test	3			0		ka	0	1504	6	4	antiphase_hc_sio.wav	1	6	5	noise_calib_stim_RIGHT.wav	2	32	blb_dichoticlistening_ta-da.mp3	ta	da	1	other
6.6.0	win	2023-06-27	16:26:54	0	0	6277fb597942c07d74b16b98	1	1	DL_test	13	DL_test	4			0		ga	1	813	6	4	antiphase_hc_sio.wav	1	6	5	noise_calib_stim_RIGHT.wav	2	15	blb_dichoticlistening_ga-ga.mp3	ga	ga	0	left
6.6.0	win	2023-06-27	16:26:54	0	0	6277fb597942c07d74b16b98	1	1	DL_test	13	DL_test	5			0		ka	1	1344	6	4	antiphase_hc_sio.wav	1	6	5	noise_calib_stim_RIGHT.wav	2	21	blb_dichoticlistening_ka-ga.mp3	ka	ga	1	left
6.6.0	win	2023-06-27	16:26:54	0	0	6277fb597942c07d74b16b98	1	1	DL_test	13	DL_test	6			0		ka	0	797	6	4	antiphase_hc_sio.wav	1	6	5	noise_calib_stim_RIGHT.wav	2	33	blb_dichoticlistening_ta-ga.mp3	ta	ga	1	other
6.6.0	win	2023-06-27	16:26:54	0	0	6277fb597942c07d74b16b98	1	1	DL_test	13	DL_test	7			0		ka	0	948	6	4	antiphase_hc_sio.wav	1	6	5	noise_calib_stim_RIGHT.wav	2	12	blb_dichoticlistening_da-ta.mp3	da	ta	1	other
6.6.0	win	2023-06-27	16:26:54	0	0	6277fb597942c07d74b16b98	1	1	DL_test	13	DL_test	8			0		ba	1	1111	6	4	antiphase_hc_sio.wav	1	6	5	noise_calib_stim_RIGHT.wav	2	1	blb_dichoticlistening_ba-ba.mp3	ba	ba	0	left
6.6.0	win	2023-06-27	16:26:54	0	0	6277fb597942c07d74b16b98	1	1	DL_test	13	DL_test	9			0		ka	1	1411	6	4	antiphase_hc_sio.wav	1	6	5	noise_calib_stim_RIGHT.wav	2	19	blb_dichoticlistening_ka-ba.mp3	ka	ba	1	left
6.6.0	win	2023-06-27	16:26:54	0	0	6277fb597942c07d74b16b98	1	1	DL_test	13	DL_test	10			0		ta	0	1469	6	4	antiphase_hc_sio.wav	1	6	5	noise_calib_stim_RIGHT.wav	2	11	blb_dichoticlistening_da-pa.mp3	da	pa	1	other
6.6.0	win	2023-06-27	16:26:54	0	0	6277fb597942c07d74b16b98	1	1	DL_test	13	DL_test	11			0		ba	1	1181	6	4	antiphase_hc_sio.wav	1	6	5	noise_calib_stim_RIGHT.wav	2	13	blb_dichoticlistening_ga-ba.mp3	ga	ba	1	right
6.6.0	win	2023-06-27	16:26:54	0	0	6277fb597942c07d74b16b98	1	1	DL_test	13	DL_test	12			0		pa	1	1089	6	4	antiphase_hc_sio.wav	1	6	5	noise_calib_stim_RIGHT.wav	2	29	blb_dichoticlistening_pa-pa.mp3	pa	pa	0	left
6.6.0	win	2023-06-27	16:26:54	0	0	6277fb597942c07d74b16b98	1	1	DL_test	13	DL_test	13			0		pa	1	867	6	4	antiphase_hc_sio.wav	1	6	5	noise_calib_stim_RIGHT.wav	2	5	blb_dichoticlistening_ba-pa.mp3	ba	pa	1	right
6.6.0	win	2023-06-27	16:26:54	0	0	6277fb597942c07d74b16b98	1	1	DL_test	13	DL_test	14			0		ka	1	893	6	4	antiphase_hc_sio.wav	1	6	5	noise_calib_stim_RIGHT.wav	2	22	blb_dichoticlistening_ka-ka.mp3	ka	ka	0	left
6.6.0	win	2023-06-27	16:26:54	0	0	6277fb597942c07d74b16b98	1	1	DL_test	13	DL_test	15			0		ga	1	1021	6	4	antiphase_hc_sio.wav	1	6	5	noise_calib_stim_RIGHT.wav	2	27	blb_dichoticlistening_pa-ga.mp3	pa	ga	1	right
6.6.0	win	2023-06-27	16:26:54	0	0	6277fb597942c07d74b16b98	1	1	DL_test	13	DL_test	16			0		ka	1	948	6	4	antiphase_hc_sio.wav	1	6	5	noise_calib_stim_RIGHT.wav	2	28	blb_dichoticlistening_pa-ka.mp3	pa	ka	1	right
6.6.0	win	2023-06-27	16:26:54	0	0	6277fb597942c07d74b16b98	1	1	DL_test	13	DL_test	17			0		ka	1	716	6	4	antiphase_hc_sio.wav	1	6	5	noise_calib_stim_RIGHT.wav	2	20	blb_dichoticlistening_ka-da.mp3	ka	da	1	left
6.6.0	win	2023-06-27	16:26:54	0	0	6277fb597942c07d74b16b98	1	1	DL_test	13	DL_test	18			0		ba	1	920	6	4	antiphase_hc_sio.wav	1	6	5	noise_calib_stim_RIGHT.wav	2	2	blb_dichoticlistening_ba-da.mp3	ba	da	1	left
6.6.0	win	2023-06-27	16:26:54	0	0	6277fb597942c07d74b16b98	1	1	DL_test	13	DL_test	19			0		ga	1	743	6	4	antiphase_hc_sio.wav	1	6	5	noise_calib_stim_RIGHT.wav	2	14	blb_dichoticlistening_ga-da.mp3	ga	da	1	left
6.6.0	win	2023-06-27	16:26:54	0	0	6277fb597942c07d74b16b98	1	1	DL_test	13	DL_test	20			0		ta	0	1338	6	4	antiphase_hc_sio.wav	1	6	5	noise_calib_stim_RIGHT.wav	2	26	blb_dichoticlistening_pa-da.mp3	pa	da	1	other
6.6.0	win	2023-06-27	16:26:54	0	0	6277fb597942c07d74b16b98	1	1	DL_test	13	DL_test	21			0		ta	1	857	6	4	antiphase_hc_sio.wav	1	6	5	noise_calib_stim_RIGHT.wav	2	30	blb_dichoticlistening_pa-ta.mp3	pa	ta	1	right
6.6.0	win	2023-06-27	16:26:54	0	0	6277fb597942c07d74b16b98	1	1	DL_test	13	DL_test	22			0		ga	1	1987	6	4	antiphase_hc_sio.wav	1	6	5	noise_calib_stim_RIGHT.wav	2	9	blb_dichoticlistening_da-ga.mp3	da	ga	1	right
6.6.0	win	2023-06-27	16:26:54	0	0	6277fb597942c07d74b16b98	1	1	DL_test	13	DL_test	23			0		ga	0	1021	6	4	antiphase_hc_sio.wav	1	6	5	noise_calib_stim_RIGHT.wav	2	8	blb_dichoticlistening_da-da.mp3	da	da	0	other
6.6.0	win	2023-06-27	16:26:54	0	0	6277fb597942c07d74b16b98	1	1	DL_test	13	DL_test	24			0		ka	1	915	6	4	antiphase_hc_sio.wav	1	6	5	noise_calib_stim_RIGHT.wav	2	16	blb_dichoticlistening_ga-ka.mp3	ga	ka	1	right
6.6.0	win	2023-06-27	16:26:54	0	0	6277fb597942c07d74b16b98	1	1	DL_test	13	DL_test	25			0		ka	1	753	6	4	antiphase_hc_sio.wav	1	6	5	noise_calib_stim_RIGHT.wav	2	34	blb_dichoticlistening_ta-ka.mp3	ta	ka	1	right
6.6.0	win	2023-06-27	16:26:54	0	0	6277fb597942c07d74b16b98	1	1	DL_test	13	DL_test	26			0		pa	0	1820	6	4	antiphase_hc_sio.wav	1	6	5	noise_calib_stim_RIGHT.wav	2	31	blb_dichoticlistening_ta-ba.mp3	ta	ba	1	other
6.6.0	win	2023-06-27	16:26:54	0	0	6277fb597942c07d74b16b98	1	1	DL_test	13	DL_test	27			0		ka	1	1089	6	4	antiphase_hc_sio.wav	1	6	5	noise_calib_stim_RIGHT.wav	2	24	blb_dichoticlistening_ka-ta.mp3	ka	ta	1	left
6.6.0	win	2023-06-27	16:26:54	0	0	6277fb597942c07d74b16b98	1	1	DL_test	13	DL_test	28			0		ba	1	1375	6	4	antiphase_hc_sio.wav	1	6	5	noise_calib_stim_RIGHT.wav	2	7	blb_dichoticlistening_da-ba.mp3	da	ba	1	right
6.6.0	win	2023-06-27	16:26:54	0	0	6277fb597942c07d74b16b98	1	1	DL_test	13	DL_test	29			0		ta	1	1768	6	4	antiphase_hc_sio.wav	1	6	5	noise_calib_stim_RIGHT.wav	2	35	blb_dichoticlistening_ta-pa.mp3	ta	pa	1	left
6.6.0	win	2023-06-27	16:26:54	0	0	6277fb597942c07d74b16b98	1	1	DL_test	13	DL_test	30			0		ka	0	2071	6	4	antiphase_hc_sio.wav	1	6	5	noise_calib_stim_RIGHT.wav	2	6	blb_dichoticlistening_ba-ta.mp3	ba	ta	1	other
6.6.0	win	2023-06-27	16:26:54	0	0	6277fb597942c07d74b16b98	1	1	DL_test	13	DL_test	31			0		ka	1	920	6	4	antiphase_hc_sio.wav	1	6	5	noise_calib_stim_RIGHT.wav	2	4	blb_dichoticlistening_ba-ka.mp3	ba	ka	1	right
6.6.0	win	2023-06-27	16:26:54	0	0	6277fb597942c07d74b16b98	1	1	DL_test	13	DL_test	32			0		ta	1	1873	6	4	antiphase_hc_sio.wav	1	6	5	noise_calib_stim_RIGHT.wav	2	36	blb_dichoticlistening_ta-ta.mp3	ta	ta	0	left
6.6.0	win	2023-06-27	16:26:54	0	0	6277fb597942c07d74b16b98	1	1	DL_test	13	DL_test	33			0		pa	1	1167	6	4	antiphase_hc_sio.wav	1	6	5	noise_calib_stim_RIGHT.wav	2	25	blb_dichoticlistening_pa-ba.mp3	pa	ba	1	left
6.6.0	win	2023-06-27	16:26:54	0	0	6277fb597942c07d74b16b98	1	1	DL_test	13	DL_test	34			0		pa	1	1344	6	4	antiphase_hc_sio.wav	1	6	5	noise_calib_stim_RIGHT.wav	2	23	blb_dichoticlistening_ka-pa.mp3	ka	pa	1	right
6.6.0	win	2023-06-27	16:26:54	0	0	6277fb597942c07d74b16b98	1	1	DL_test	13	DL_test	35			0		ga	1	1591	6	4	antiphase_hc_sio.wav	1	6	5	noise_calib_stim_RIGHT.wav	2	3	blb_dichoticlistening_ba-ga.mp3	ba	ga	1	right
6.6.0	win	2023-06-27	16:26:54	0	0	6277fb597942c07d74b16b98	1	1	DL_test	13	DL_test	36			0		ga	0	2033	6	4	antiphase_hc_sio.wav	1	6	5	noise_calib_stim_RIGHT.wav	2	10	blb_dichoticlistening_da-ka.mp3	da	ka	1	other
6.6.0	win	2023-06-27	16:26:54	0	0	6277fb597942c07d74b16b98	1	1	DL_test	14	DL_test	1			0		ka	0	914	6	4	antiphase_hc_sio.wav	1	6	5	noise_calib_stim_RIGHT.wav	2	12	blb_dichoticlistening_da-ta.mp3	da	ta	1	other
6.6.0	win	2023-06-27	16:26:54	0	0	6277fb597942c07d74b16b98	1	1	DL_test	14	DL_test	2			0		ka	0	800	6	4	antiphase_hc_sio.wav	1	6	5	noise_calib_stim_RIGHT.wav	2	36	blb_dichoticlistening_ta-ta.mp3	ta	ta	0	other
6.6.0	win	2023-06-27	16:26:54	0	0	6277fb597942c07d74b16b98	1	1	DL_test	14	DL_test	3			0		ba	1	1203	6	4	antiphase_hc_sio.wav	1	6	5	noise_calib_stim_RIGHT.wav	2	1	blb_dichoticlistening_ba-ba.mp3	ba	ba	0	left
6.6.0	win	2023-06-27	16:26:54	0	0	6277fb597942c07d74b16b98	1	1	DL_test	14	DL_test	4			0		ga	1	1171	6	4	antiphase_hc_sio.wav	1	6	5	noise_calib_stim_RIGHT.wav	2	18	blb_dichoticlistening_ga-ta.mp3	ga	ta	1	left
6.6.0	win	2023-06-27	16:26:54	0	0	6277fb597942c07d74b16b98	1	1	DL_test	14	DL_test	5			0		ga	0	980	6	4	antiphase_hc_sio.wav	1	6	5	noise_calib_stim_RIGHT.wav	2	11	blb_dichoticlistening_da-pa.mp3	da	pa	1	other
6.6.0	win	2023-06-27	16:26:54	0	0	6277fb597942c07d74b16b98	1	1	DL_test	14	DL_test	6			0		ga	1	862	6	4	antiphase_hc_sio.wav	1	6	5	noise_calib_stim_RIGHT.wav	2	27	blb_dichoticlistening_pa-ga.mp3	pa	ga	1	right
6.6.0	win	2023-06-27	16:26:54	0	0	6277fb597942c07d74b16b98	1	1	DL_test	14	DL_test	7			0		ka	1	1107	6	4	antiphase_hc_sio.wav	1	6	5	noise_calib_stim_RIGHT.wav	2	23	blb_dichoticlistening_ka-pa.mp3	ka	pa	1	left
6.6.0	win	2023-06-27	16:26:54	0	0	6277fb597942c07d74b16b98	1	1	DL_test	14	DL_test	8			0		pa	1	717	6	4	antiphase_hc_sio.wav	1	6	5	noise_calib_stim_RIGHT.wav	2	29	blb_dichoticlistening_pa-pa.mp3	pa	pa	0	left
6.6.0	win	2023-06-27	16:26:54	0	0	6277fb597942c07d74b16b98	1	1	DL_test	14	DL_test	9			0		ka	1	930	6	4	antiphase_hc_sio.wav	1	6	5	noise_calib_stim_RIGHT.wav	2	20	blb_dichoticlistening_ka-da.mp3	ka	da	1	left
6.6.0	win	2023-06-27	16:26:54	0	0	6277fb597942c07d74b16b98	1	1	DL_test	14	DL_test	10			0		ga	1	1431	6	4	antiphase_hc_sio.wav	1	6	5	noise_calib_stim_RIGHT.wav	2	17	blb_dichoticlistening_ga-pa.mp3	ga	pa	1	left
6.6.0	win	2023-06-27	16:26:54	0	0	6277fb597942c07d74b16b98	1	1	DL_test	14	DL_test	11			0		ga	1	1105	6	4	antiphase_hc_sio.wav	1	6	5	noise_calib_stim_RIGHT.wav	2	15	blb_dichoticlistening_ga-ga.mp3	ga	ga	0	left
6.6.0	win	2023-06-27	16:26:54	0	0	6277fb597942c07d74b16b98	1	1	DL_test	14	DL_test	12			0		ka	1	939	6	4	antiphase_hc_sio.wav	1	6	5	noise_calib_stim_RIGHT.wav	2	21	blb_dichoticlistening_ka-ga.mp3	ka	ga	1	left
6.6.0	win	2023-06-27	16:26:54	0	0	6277fb597942c07d74b16b98	1	1	DL_test	14	DL_test	13			0		ka	1	731	6	4	antiphase_hc_sio.wav	1	6	5	noise_calib_stim_RIGHT.wav	2	28	blb_dichoticlistening_pa-ka.mp3	pa	ka	1	right
6.6.0	win	2023-06-27	16:26:54	0	0	6277fb597942c07d74b16b98	1	1	DL_test	14	DL_test	14			0		ba	1	1280	6	4	antiphase_hc_sio.wav	1	6	5	noise_calib_stim_RIGHT.wav	2	13	blb_dichoticlistening_ga-ba.mp3	ga	ba	1	right
6.6.0	win	2023-06-27	16:26:54	0	0	6277fb597942c07d74b16b98	1	1	DL_test	14	DL_test	15			0		ka	1	909	6	4	antiphase_hc_sio.wav	1	6	5	noise_calib_stim_RIGHT.wav	2	10	blb_dichoticlistening_da-ka.mp3	da	ka	1	right
6.6.0	win	2023-06-27	16:26:54	0	0	6277fb597942c07d74b16b98	1	1	DL_test	14	DL_test	16			0		ba	1	1150	6	4	antiphase_hc_sio.wav	1	6	5	noise_calib_stim_RIGHT.wav	2	3	blb_dichoticlistening_ba-ga.mp3	ba	ga	1	left
6.6.0	win	2023-06-27	16:26:54	0	0	6277fb597942c07d74b16b98	1	1	DL_test	14	DL_test	17			0		pa	1	971	6	4	antiphase_hc_sio.wav	1	6	5	noise_calib_stim_RIGHT.wav	2	25	blb_dichoticlistening_pa-ba.mp3	pa	ba	1	left
6.6.0	win	2023-06-27	16:26:54	0	0	6277fb597942c07d74b16b98	1	1	DL_test	14	DL_test	18			0		ka	1	1894	6	4	antiphase_hc_sio.wav	1	6	5	noise_calib_stim_RIGHT.wav	2	4	blb_dichoticlistening_ba-ka.mp3	ba	ka	1	right
6.6.0	win	2023-06-27	16:26:54	0	0	6277fb597942c07d74b16b98	1	1	DL_test	14	DL_test	19			0		ka	1	934	6	4	antiphase_hc_sio.wav	1	6	5	noise_calib_stim_RIGHT.wav	2	34	blb_dichoticlistening_ta-ka.mp3	ta	ka	1	right
6.6.0	win	2023-06-27	16:26:54	0	0	6277fb597942c07d74b16b98	1	1	DL_test	14	DL_test	20			0		ba	1	1649	6	4	antiphase_hc_sio.wav	1	6	5	noise_calib_stim_RIGHT.wav	2	31	blb_dichoticlistening_ta-ba.mp3	ta	ba	1	right
6.6.0	win	2023-06-27	16:26:54	0	0	6277fb597942c07d74b16b98	1	1	DL_test	14	DL_test	21			0		ka	1	867	6	4	antiphase_hc_sio.wav	1	6	5	noise_calib_stim_RIGHT.wav	2	22	blb_dichoticlistening_ka-ka.mp3	ka	ka	0	left
6.6.0	win	2023-06-27	16:26:54	0	0	6277fb597942c07d74b16b98	1	1	DL_test	14	DL_test	22			0		ba	1	1334	6	4	antiphase_hc_sio.wav	1	6	5	noise_calib_stim_RIGHT.wav	2	2	blb_dichoticlistening_ba-da.mp3	ba	da	1	left
6.6.0	win	2023-06-27	16:26:54	0	0	6277fb597942c07d74b16b98	1	1	DL_test	14	DL_test	23			0		ga	1	1021	6	4	antiphase_hc_sio.wav	1	6	5	noise_calib_stim_RIGHT.wav	2	9	blb_dichoticlistening_da-ga.mp3	da	ga	1	right
6.6.0	win	2023-06-27	16:26:54	0	0	6277fb597942c07d74b16b98	1	1	DL_test	14	DL_test	24			0		pa	1	981	6	4	antiphase_hc_sio.wav	1	6	5	noise_calib_stim_RIGHT.wav	2	5	blb_dichoticlistening_ba-pa.mp3	ba	pa	1	right
6.6.0	win	2023-06-27	16:26:54	0	0	6277fb597942c07d74b16b98	1	1	DL_test	14	DL_test	25			0		ka	0	864	6	4	antiphase_hc_sio.wav	1	6	5	noise_calib_stim_RIGHT.wav	2	33	blb_dichoticlistening_ta-ga.mp3	ta	ga	1	other
6.6.0	win	2023-06-27	16:26:54	0	0	6277fb597942c07d74b16b98	1	1	DL_test	14	DL_test	26			0		ta	1	1354	6	4	antiphase_hc_sio.wav	1	6	5	noise_calib_stim_RIGHT.wav	2	35	blb_dichoticlistening_ta-pa.mp3	ta	pa	1	left
6.6.0	win	2023-06-27	16:26:54	0	0	6277fb597942c07d74b16b98	1	1	DL_test	14	DL_test	27			0		ka	0	1730	6	4	antiphase_hc_sio.wav	1	6	5	noise_calib_stim_RIGHT.wav	2	32	blb_dichoticlistening_ta-da.mp3	ta	da	1	other
6.6.0	win	2023-06-27	16:26:54	0	0	6277fb597942c07d74b16b98	1	1	DL_test	14	DL_test	28			0		ta	1	2413	6	4	antiphase_hc_sio.wav	1	6	5	noise_calib_stim_RIGHT.wav	2	30	blb_dichoticlistening_pa-ta.mp3	pa	ta	1	right
6.6.0	win	2023-06-27	16:26:54	0	0	6277fb597942c07d74b16b98	1	1	DL_test	14	DL_test	29			0		ka	1	1264	6	4	antiphase_hc_sio.wav	1	6	5	noise_calib_stim_RIGHT.wav	2	24	blb_dichoticlistening_ka-ta.mp3	ka	ta	1	left
6.6.0	win	2023-06-27	16:26:54	0	0	6277fb597942c07d74b16b98	1	1	DL_test	14	DL_test	30			0		ga	0	975	6	4	antiphase_hc_sio.wav	1	6	5	noise_calib_stim_RIGHT.wav	2	26	blb_dichoticlistening_pa-da.mp3	pa	da	1	other
6.6.0	win	2023-06-27	16:26:54	0	0	6277fb597942c07d74b16b98	1	1	DL_test	14	DL_test	31			0		ta	1	1503	6	4	antiphase_hc_sio.wav	1	6	5	noise_calib_stim_RIGHT.wav	2	6	blb_dichoticlistening_ba-ta.mp3	ba	ta	1	right
6.6.0	win	2023-06-27	16:26:54	0	0	6277fb597942c07d74b16b98	1	1	DL_test	14	DL_test	32			0		ga	1	1139	6	4	antiphase_hc_sio.wav	1	6	5	noise_calib_stim_RIGHT.wav	2	14	blb_dichoticlistening_ga-da.mp3	ga	da	1	left
6.6.0	win	2023-06-27	16:26:54	0	0	6277fb597942c07d74b16b98	1	1	DL_test	14	DL_test	33			0		ka	1	1065	6	4	antiphase_hc_sio.wav	1	6	5	noise_calib_stim_RIGHT.wav	2	19	blb_dichoticlistening_ka-ba.mp3	ka	ba	1	left
6.6.0	win	2023-06-27	16:26:54	0	0	6277fb597942c07d74b16b98	1	1	DL_test	14	DL_test	34			0		ka	1	850	6	4	antiphase_hc_sio.wav	1	6	5	noise_calib_stim_RIGHT.wav	2	16	blb_dichoticlistening_ga-ka.mp3	ga	ka	1	right
6.6.0	win	2023-06-27	16:26:54	0	0	6277fb597942c07d74b16b98	1	1	DL_test	14	DL_test	35			0		ba	1	913	6	4	antiphase_hc_sio.wav	1	6	5	noise_calib_stim_RIGHT.wav	2	7	blb_dichoticlistening_da-ba.mp3	da	ba	1	right
6.6.0	win	2023-06-27	16:26:54	0	0	6277fb597942c07d74b16b98	1	1	DL_test	14	DL_test	36			0		da	1	830	6	4	antiphase_hc_sio.wav	1	6	5	noise_calib_stim_RIGHT.wav	2	8	blb_dichoticlistening_da-da.mp3	da	da	0	left
6.6.0	win	2023-06-27	16:26:54	0	0	6277fb597942c07d74b16b98	1	1	DL_test	15	DL_test	1			0		ba	1	1204	6	4	antiphase_hc_sio.wav	1	6	5	noise_calib_stim_RIGHT.wav	2	13	blb_dichoticlistening_ga-ba.mp3	ga	ba	1	right
6.6.0	win	2023-06-27	16:26:54	0	0	6277fb597942c07d74b16b98	1	1	DL_test	15	DL_test	2			0		ka	1	776	6	4	antiphase_hc_sio.wav	1	6	5	noise_calib_stim_RIGHT.wav	2	21	blb_dichoticlistening_ka-ga.mp3	ka	ga	1	left
6.6.0	win	2023-06-27	16:26:54	0	0	6277fb597942c07d74b16b98	1	1	DL_test	15	DL_test	3			0		ba	1	936	6	4	antiphase_hc_sio.wav	1	6	5	noise_calib_stim_RIGHT.wav	2	3	blb_dichoticlistening_ba-ga.mp3	ba	ga	1	left
6.6.0	win	2023-06-27	16:26:54	0	0	6277fb597942c07d74b16b98	1	1	DL_test	15	DL_test	4			0		pa	1	795	6	4	antiphase_hc_sio.wav	1	6	5	noise_calib_stim_RIGHT.wav	2	29	blb_dichoticlistening_pa-pa.mp3	pa	pa	0	left
6.6.0	win	2023-06-27	16:26:54	0	0	6277fb597942c07d74b16b98	1	1	DL_test	15	DL_test	5			0		ta	1	1092	6	4	antiphase_hc_sio.wav	1	6	5	noise_calib_stim_RIGHT.wav	2	12	blb_dichoticlistening_da-ta.mp3	da	ta	1	right
6.6.0	win	2023-06-27	16:26:54	0	0	6277fb597942c07d74b16b98	1	1	DL_test	15	DL_test	6			0		ka	0	888	6	4	antiphase_hc_sio.wav	1	6	5	noise_calib_stim_RIGHT.wav	2	33	blb_dichoticlistening_ta-ga.mp3	ta	ga	1	other
6.6.0	win	2023-06-27	16:26:54	0	0	6277fb597942c07d74b16b98	1	1	DL_test	15	DL_test	7			0		pa	1	1266	6	4	antiphase_hc_sio.wav	1	6	5	noise_calib_stim_RIGHT.wav	2	5	blb_dichoticlistening_ba-pa.mp3	ba	pa	1	right
6.6.0	win	2023-06-27	16:26:54	0	0	6277fb597942c07d74b16b98	1	1	DL_test	15	DL_test	8			0		ga	0	744	6	4	antiphase_hc_sio.wav	1	6	5	noise_calib_stim_RIGHT.wav	2	8	blb_dichoticlistening_da-da.mp3	da	da	0	other
6.6.0	win	2023-06-27	16:26:54	0	0	6277fb597942c07d74b16b98	1	1	DL_test	15	DL_test	9			0		ta	1	1494	6	4	antiphase_hc_sio.wav	1	6	5	noise_calib_stim_RIGHT.wav	2	6	blb_dichoticlistening_ba-ta.mp3	ba	ta	1	right
6.6.0	win	2023-06-27	16:26:54	0	0	6277fb597942c07d74b16b98	1	1	DL_test	15	DL_test	10			0		ba	1	1023	6	4	antiphase_hc_sio.wav	1	6	5	noise_calib_stim_RIGHT.wav	2	2	blb_dichoticlistening_ba-da.mp3	ba	da	1	left
6.6.0	win	2023-06-27	16:26:54	0	0	6277fb597942c07d74b16b98	1	1	DL_test	15	DL_test	11			0		pa	1	1217	6	4	antiphase_hc_sio.wav	1	6	5	noise_calib_stim_RIGHT.wav	2	25	blb_dichoticlistening_pa-ba.mp3	pa	ba	1	left
6.6.0	win	2023-06-27	16:26:54	0	0	6277fb597942c07d74b16b98	1	1	DL_test	15	DL_test	12			0		ga	1	965	6	4	antiphase_hc_sio.wav	1	6	5	noise_calib_stim_RIGHT.wav	2	14	blb_dichoticlistening_ga-da.mp3	ga	da	1	left
6.6.0	win	2023-06-27	16:26:54	0	0	6277fb597942c07d74b16b98	1	1	DL_test	15	DL_test	13			0		ba	1	1575	6	4	antiphase_hc_sio.wav	1	6	5	noise_calib_stim_RIGHT.wav	2	1	blb_dichoticlistening_ba-ba.mp3	ba	ba	0	left
6.6.0	win	2023-06-27	16:26:54	0	0	6277fb597942c07d74b16b98	1	1	DL_test	15	DL_test	14			0		ta	0	1649	6	4	antiphase_hc_sio.wav	1	6	5	noise_calib_stim_RIGHT.wav	2	10	blb_dichoticlistening_da-ka.mp3	da	ka	1	other
6.6.0	win	2023-06-27	16:26:54	0	0	6277fb597942c07d74b16b98	1	1	DL_test	15	DL_test	15			0		ta	1	854	6	4	antiphase_hc_sio.wav	1	6	5	noise_calib_stim_RIGHT.wav	2	30	blb_dichoticlistening_pa-ta.mp3	pa	ta	1	right
6.6.0	win	2023-06-27	16:26:54	0	0	6277fb597942c07d74b16b98	1	1	DL_test	15	DL_test	16			0		ka	1	837	6	4	antiphase_hc_sio.wav	1	6	5	noise_calib_stim_RIGHT.wav	2	28	blb_dichoticlistening_pa-ka.mp3	pa	ka	1	right
6.6.0	win	2023-06-27	16:26:54	0	0	6277fb597942c07d74b16b98	1	1	DL_test	15	DL_test	17			0		ga	1	932	6	4	antiphase_hc_sio.wav	1	6	5	noise_calib_stim_RIGHT.wav	2	18	blb_dichoticlistening_ga-ta.mp3	ga	ta	1	left
6.6.0	win	2023-06-27	16:26:54	0	0	6277fb597942c07d74b16b98	1	1	DL_test	15	DL_test	18			0		ga	0	1277	6	4	antiphase_hc_sio.wav	1	6	5	noise_calib_stim_RIGHT.wav	2	11	blb_dichoticlistening_da-pa.mp3	da	pa	1	other
6.6.0	win	2023-06-27	16:26:54	0	0	6277fb597942c07d74b16b98	1	1	DL_test	15	DL_test	19			0		ka	0	1255	6	4	antiphase_hc_sio.wav	1	6	5	noise_calib_stim_RIGHT.wav	2	32	blb_dichoticlistening_ta-da.mp3	ta	da	1	other
6.6.0	win	2023-06-27	16:26:54	0	0	6277fb597942c07d74b16b98	1	1	DL_test	15	DL_test	20			0		ka	1	911	6	4	antiphase_hc_sio.wav	1	6	5	noise_calib_stim_RIGHT.wav	2	22	blb_dichoticlistening_ka-ka.mp3	ka	ka	0	left
6.6.0	win	2023-06-27	16:26:54	0	0	6277fb597942c07d74b16b98	1	1	DL_test	15	DL_test	21			0		ka	1	1098	6	4	antiphase_hc_sio.wav	1	6	5	noise_calib_stim_RIGHT.wav	2	16	blb_dichoticlistening_ga-ka.mp3	ga	ka	1	right
6.6.0	win	2023-06-27	16:26:54	0	0	6277fb597942c07d74b16b98	1	1	DL_test	15	DL_test	22			0		ga	1	809	6	4	antiphase_hc_sio.wav	1	6	5	noise_calib_stim_RIGHT.wav	2	15	blb_dichoticlistening_ga-ga.mp3	ga	ga	0	left
6.6.0	win	2023-06-27	16:26:54	0	0	6277fb597942c07d74b16b98	1	1	DL_test	15	DL_test	23			0		ka	1	840	6	4	antiphase_hc_sio.wav	1	6	5	noise_calib_stim_RIGHT.wav	2	24	blb_dichoticlistening_ka-ta.mp3	ka	ta	1	left
6.6.0	win	2023-06-27	16:26:54	0	0	6277fb597942c07d74b16b98	1	1	DL_test	15	DL_test	24			0		pa	1	873	6	4	antiphase_hc_sio.wav	1	6	5	noise_calib_stim_RIGHT.wav	2	17	blb_dichoticlistening_ga-pa.mp3	ga	pa	1	right
6.6.0	win	2023-06-27	16:26:54	0	0	6277fb597942c07d74b16b98	1	1	DL_test	15	DL_test	25			0		ga	1	1800	6	4	antiphase_hc_sio.wav	1	6	5	noise_calib_stim_RIGHT.wav	2	27	blb_dichoticlistening_pa-ga.mp3	pa	ga	1	right
6.6.0	win	2023-06-27	16:26:54	0	0	6277fb597942c07d74b16b98	1	1	DL_test	15	DL_test	26			0		ka	1	940	6	4	antiphase_hc_sio.wav	1	6	5	noise_calib_stim_RIGHT.wav	2	23	blb_dichoticlistening_ka-pa.mp3	ka	pa	1	left
6.6.0	win	2023-06-27	16:26:54	0	0	6277fb597942c07d74b16b98	1	1	DL_test	15	DL_test	27			0		ta	1	1066	6	4	antiphase_hc_sio.wav	1	6	5	noise_calib_stim_RIGHT.wav	2	36	blb_dichoticlistening_ta-ta.mp3	ta	ta	0	left
6.6.0	win	2023-06-27	16:26:54	0	0	6277fb597942c07d74b16b98	1	1	DL_test	15	DL_test	28			0		ka	1	2235	6	4	antiphase_hc_sio.wav	1	6	5	noise_calib_stim_RIGHT.wav	2	4	blb_dichoticlistening_ba-ka.mp3	ba	ka	1	right
6.6.0	win	2023-06-27	16:26:54	0	0	6277fb597942c07d74b16b98	1	1	DL_test	15	DL_test	29			0		ga	1	746	6	4	antiphase_hc_sio.wav	1	6	5	noise_calib_stim_RIGHT.wav	2	9	blb_dichoticlistening_da-ga.mp3	da	ga	1	right
6.6.0	win	2023-06-27	16:26:54	0	0	6277fb597942c07d74b16b98	1	1	DL_test	15	DL_test	30			0		ta	1	1459	6	4	antiphase_hc_sio.wav	1	6	5	noise_calib_stim_RIGHT.wav	2	35	blb_dichoticlistening_ta-pa.mp3	ta	pa	1	left
6.6.0	win	2023-06-27	16:26:54	0	0	6277fb597942c07d74b16b98	1	1	DL_test	15	DL_test	31			0		ta	0	980	6	4	antiphase_hc_sio.wav	1	6	5	noise_calib_stim_RIGHT.wav	2	26	blb_dichoticlistening_pa-da.mp3	pa	da	1	other
6.6.0	win	2023-06-27	16:26:54	0	0	6277fb597942c07d74b16b98	1	1	DL_test	15	DL_test	32			0		ba	1	1313	6	4	antiphase_hc_sio.wav	1	6	5	noise_calib_stim_RIGHT.wav	2	7	blb_dichoticlistening_da-ba.mp3	da	ba	1	right
6.6.0	win	2023-06-27	16:26:54	0	0	6277fb597942c07d74b16b98	1	1	DL_test	15	DL_test	33			0		ka	1	784	6	4	antiphase_hc_sio.wav	1	6	5	noise_calib_stim_RIGHT.wav	2	34	blb_dichoticlistening_ta-ka.mp3	ta	ka	1	right
6.6.0	win	2023-06-27	16:26:54	0	0	6277fb597942c07d74b16b98	1	1	DL_test	15	DL_test	34			0		ka	1	1337	6	4	antiphase_hc_sio.wav	1	6	5	noise_calib_stim_RIGHT.wav	2	20	blb_dichoticlistening_ka-da.mp3	ka	da	1	left
6.6.0	win	2023-06-27	16:26:54	0	0	6277fb597942c07d74b16b98	1	1	DL_test	15	DL_test	35			0		ba	1	1157	6	4	antiphase_hc_sio.wav	1	6	5	noise_calib_stim_RIGHT.wav	2	19	blb_dichoticlistening_ka-ba.mp3	ka	ba	1	right
6.6.0	win	2023-06-27	16:26:54	0	0	6277fb597942c07d74b16b98	1	1	DL_test	15	DL_test	36			0		ta	1	1386	6	4	antiphase_hc_sio.wav	1	6	5	noise_calib_stim_RIGHT.wav	2	31	blb_dichoticlistening_ta-ba.mp3	ta	ba	1	left
6.6.0	win	2023-06-27	16:26:54	0	0	6277fb597942c07d74b16b98	1	1	DL_test	16	DL_test	1			0		pa	1	959	6	4	antiphase_hc_sio.wav	1	6	5	noise_calib_stim_RIGHT.wav	2	5	blb_dichoticlistening_ba-pa.mp3	ba	pa	1	right
6.6.0	win	2023-06-27	16:26:54	0	0	6277fb597942c07d74b16b98	1	1	DL_test	16	DL_test	2			0		ta	1	1064	6	4	antiphase_hc_sio.wav	1	6	5	noise_calib_stim_RIGHT.wav	2	6	blb_dichoticlistening_ba-ta.mp3	ba	ta	1	right
6.6.0	win	2023-06-27	16:26:54	0	0	6277fb597942c07d74b16b98	1	1	DL_test	16	DL_test	3			0		ga	0	907	6	4	antiphase_hc_sio.wav	1	6	5	noise_calib_stim_RIGHT.wav	2	8	blb_dichoticlistening_da-da.mp3	da	da	0	other
6.6.0	win	2023-06-27	16:26:54	0	0	6277fb597942c07d74b16b98	1	1	DL_test	16	DL_test	4			0		ba	1	1049	6	4	antiphase_hc_sio.wav	1	6	5	noise_calib_stim_RIGHT.wav	2	13	blb_dichoticlistening_ga-ba.mp3	ga	ba	1	right
6.6.0	win	2023-06-27	16:26:54	0	0	6277fb597942c07d74b16b98	1	1	DL_test	16	DL_test	5			0		ta	1	953	6	4	antiphase_hc_sio.wav	1	6	5	noise_calib_stim_RIGHT.wav	2	35	blb_dichoticlistening_ta-pa.mp3	ta	pa	1	left
6.6.0	win	2023-06-27	16:26:54	0	0	6277fb597942c07d74b16b98	1	1	DL_test	16	DL_test	6			0		ga	1	678	6	4	antiphase_hc_sio.wav	1	6	5	noise_calib_stim_RIGHT.wav	2	9	blb_dichoticlistening_da-ga.mp3	da	ga	1	right
6.6.0	win	2023-06-27	16:26:54	0	0	6277fb597942c07d74b16b98	1	1	DL_test	16	DL_test	7			0		ka	1	1445	6	4	antiphase_hc_sio.wav	1	6	5	noise_calib_stim_RIGHT.wav	2	19	blb_dichoticlistening_ka-ba.mp3	ka	ba	1	left
6.6.0	win	2023-06-27	16:26:54	0	0	6277fb597942c07d74b16b98	1	1	DL_test	16	DL_test	8			0		ta	1	1148	6	4	antiphase_hc_sio.wav	1	6	5	noise_calib_stim_RIGHT.wav	2	30	blb_dichoticlistening_pa-ta.mp3	pa	ta	1	right
6.6.0	win	2023-06-27	16:26:54	0	0	6277fb597942c07d74b16b98	1	1	DL_test	16	DL_test	9			0		ba	1	1023	6	4	antiphase_hc_sio.wav	1	6	5	noise_calib_stim_RIGHT.wav	2	7	blb_dichoticlistening_da-ba.mp3	da	ba	1	right
6.6.0	win	2023-06-27	16:26:54	0	0	6277fb597942c07d74b16b98	1	1	DL_test	16	DL_test	10			0		ta	1	1091	6	4	antiphase_hc_sio.wav	1	6	5	noise_calib_stim_RIGHT.wav	2	12	blb_dichoticlistening_da-ta.mp3	da	ta	1	right
6.6.0	win	2023-06-27	16:26:54	0	0	6277fb597942c07d74b16b98	1	1	DL_test	16	DL_test	11			0		ga	1	959	6	4	antiphase_hc_sio.wav	1	6	5	noise_calib_stim_RIGHT.wav	2	15	blb_dichoticlistening_ga-ga.mp3	ga	ga	0	left
6.6.0	win	2023-06-27	16:26:54	0	0	6277fb597942c07d74b16b98	1	1	DL_test	16	DL_test	12			0		ta	1	1058	6	4	antiphase_hc_sio.wav	1	6	5	noise_calib_stim_RIGHT.wav	2	36	blb_dichoticlistening_ta-ta.mp3	ta	ta	0	left
6.6.0	win	2023-06-27	16:26:54	0	0	6277fb597942c07d74b16b98	1	1	DL_test	16	DL_test	13			0		ta	0	1355	6	4	antiphase_hc_sio.wav	1	6	5	noise_calib_stim_RIGHT.wav	2	26	blb_dichoticlistening_pa-da.mp3	pa	da	1	other
6.6.0	win	2023-06-27	16:26:54	0	0	6277fb597942c07d74b16b98	1	1	DL_test	16	DL_test	14			0		ka	1	819	6	4	antiphase_hc_sio.wav	1	6	5	noise_calib_stim_RIGHT.wav	2	22	blb_dichoticlistening_ka-ka.mp3	ka	ka	0	left
6.6.0	win	2023-06-27	16:26:54	0	0	6277fb597942c07d74b16b98	1	1	DL_test	16	DL_test	15			0		pa	0	939	6	4	antiphase_hc_sio.wav	1	6	5	noise_calib_stim_RIGHT.wav	2	10	blb_dichoticlistening_da-ka.mp3	da	ka	1	other
6.6.0	win	2023-06-27	16:26:54	0	0	6277fb597942c07d74b16b98	1	1	DL_test	16	DL_test	16			0		ka	1	1109	6	4	antiphase_hc_sio.wav	1	6	5	noise_calib_stim_RIGHT.wav	2	20	blb_dichoticlistening_ka-da.mp3	ka	da	1	left
6.6.0	win	2023-06-27	16:26:54	0	0	6277fb597942c07d74b16b98	1	1	DL_test	16	DL_test	17			0		ga	1	1112	6	4	antiphase_hc_sio.wav	1	6	5	noise_calib_stim_RIGHT.wav	2	14	blb_dichoticlistening_ga-da.mp3	ga	da	1	left
6.6.0	win	2023-06-27	16:26:54	0	0	6277fb597942c07d74b16b98	1	1	DL_test	16	DL_test	18			0		ka	1	1176	6	4	antiphase_hc_sio.wav	1	6	5	noise_calib_stim_RIGHT.wav	2	28	blb_dichoticlistening_pa-ka.mp3	pa	ka	1	right
6.6.0	win	2023-06-27	16:26:54	0	0	6277fb597942c07d74b16b98	1	1	DL_test	16	DL_test	19			0		ga	1	1312	6	4	antiphase_hc_sio.wav	1	6	5	noise_calib_stim_RIGHT.wav	2	18	blb_dichoticlistening_ga-ta.mp3	ga	ta	1	left
6.6.0	win	2023-06-27	16:26:54	0	0	6277fb597942c07d74b16b98	1	1	DL_test	16	DL_test	20			0		ga	0	2070	6	4	antiphase_hc_sio.wav	1	6	5	noise_calib_stim_RIGHT.wav	2	32	blb_dichoticlistening_ta-da.mp3	ta	da	1	other
6.6.0	win	2023-06-27	16:26:54	0	0	6277fb597942c07d74b16b98	1	1	DL_test	16	DL_test	21			0		ka	0	1462	6	4	antiphase_hc_sio.wav	1	6	5	noise_calib_stim_RIGHT.wav	2	33	blb_dichoticlistening_ta-ga.mp3	ta	ga	1	other
6.6.0	win	2023-06-27	16:26:54	0	0	6277fb597942c07d74b16b98	1	1	DL_test	16	DL_test	22			0		ba	1	929	6	4	antiphase_hc_sio.wav	1	6	5	noise_calib_stim_RIGHT.wav	2	1	blb_dichoticlistening_ba-ba.mp3	ba	ba	0	left
6.6.0	win	2023-06-27	16:26:54	0	0	6277fb597942c07d74b16b98	1	1	DL_test	16	DL_test	23			0		ka	1	898	6	4	antiphase_hc_sio.wav	1	6	5	noise_calib_stim_RIGHT.wav	2	21	blb_dichoticlistening_ka-ga.mp3	ka	ga	1	left
6.6.0	win	2023-06-27	16:26:54	0	0	6277fb597942c07d74b16b98	1	1	DL_test	16	DL_test	24			0		pa	1	1085	6	4	antiphase_hc_sio.wav	1	6	5	noise_calib_stim_RIGHT.wav	2	17	blb_dichoticlistening_ga-pa.mp3	ga	pa	1	right
6.6.0	win	2023-06-27	16:26:54	0	0	6277fb597942c07d74b16b98	1	1	DL_test	16	DL_test	25			0		ka	1	1169	6	4	antiphase_hc_sio.wav	1	6	5	noise_calib_stim_RIGHT.wav	2	34	blb_dichoticlistening_ta-ka.mp3	ta	ka	1	right
6.6.0	win	2023-06-27	16:26:54	0	0	6277fb597942c07d74b16b98	1	1	DL_test	16	DL_test	26			0		ba	1	1355	6	4	antiphase_hc_sio.wav	1	6	5	noise_calib_stim_RIGHT.wav	2	3	blb_dichoticlistening_ba-ga.mp3	ba	ga	1	left
6.6.0	win	2023-06-27	16:26:54	0	0	6277fb597942c07d74b16b98	1	1	DL_test	16	DL_test	27			0		ga	1	1017	6	4	antiphase_hc_sio.wav	1	6	5	noise_calib_stim_RIGHT.wav	2	27	blb_dichoticlistening_pa-ga.mp3	pa	ga	1	right
6.6.0	win	2023-06-27	16:26:54	0	0	6277fb597942c07d74b16b98	1	1	DL_test	16	DL_test	28			0		pa	1	1109	6	4	antiphase_hc_sio.wav	1	6	5	noise_calib_stim_RIGHT.wav	2	23	blb_dichoticlistening_ka-pa.mp3	ka	pa	1	right
6.6.0	win	2023-06-27	16:26:54	0	0	6277fb597942c07d74b16b98	1	1	DL_test	16	DL_test	29			0		ka	1	887	6	4	antiphase_hc_sio.wav	1	6	5	noise_calib_stim_RIGHT.wav	2	16	blb_dichoticlistening_ga-ka.mp3	ga	ka	1	right
6.6.0	win	2023-06-27	16:26:54	0	0	6277fb597942c07d74b16b98	1	1	DL_test	16	DL_test	30			0		ba	1	1372	6	4	antiphase_hc_sio.wav	1	6	5	noise_calib_stim_RIGHT.wav	2	25	blb_dichoticlistening_pa-ba.mp3	pa	ba	1	right
6.6.0	win	2023-06-27	16:26:54	0	0	6277fb597942c07d74b16b98	1	1	DL_test	16	DL_test	31			0		da	1	1843	6	4	antiphase_hc_sio.wav	1	6	5	noise_calib_stim_RIGHT.wav	2	2	blb_dichoticlistening_ba-da.mp3	ba	da	1	right
6.6.0	win	2023-06-27	16:26:54	0	0	6277fb597942c07d74b16b98	1	1	DL_test	16	DL_test	32			0		ka	1	747	6	4	antiphase_hc_sio.wav	1	6	5	noise_calib_stim_RIGHT.wav	2	24	blb_dichoticlistening_ka-ta.mp3	ka	ta	1	left
6.6.0	win	2023-06-27	16:26:54	0	0	6277fb597942c07d74b16b98	1	1	DL_test	16	DL_test	33			0		pa	1	1097	6	4	antiphase_hc_sio.wav	1	6	5	noise_calib_stim_RIGHT.wav	2	11	blb_dichoticlistening_da-pa.mp3	da	pa	1	right
6.6.0	win	2023-06-27	16:26:54	0	0	6277fb597942c07d74b16b98	1	1	DL_test	16	DL_test	34			0		ka	1	966	6	4	antiphase_hc_sio.wav	1	6	5	noise_calib_stim_RIGHT.wav	2	4	blb_dichoticlistening_ba-ka.mp3	ba	ka	1	right
6.6.0	win	2023-06-27	16:26:54	0	0	6277fb597942c07d74b16b98	1	1	DL_test	16	DL_test	35			0		pa	1	1062	6	4	antiphase_hc_sio.wav	1	6	5	noise_calib_stim_RIGHT.wav	2	29	blb_dichoticlistening_pa-pa.mp3	pa	pa	0	left
6.6.0	win	2023-06-27	16:26:54	0	0	6277fb597942c07d74b16b98	1	1	DL_test	16	DL_test	36			0		ba	1	1859	6	4	antiphase_hc_sio.wav	1	6	5	noise_calib_stim_RIGHT.wav	2	31	blb_dichoticlistening_ta-ba.mp3	ta	ba	1	right
6.6.0	win	2023-06-27	16:26:54	16:40:56	835074	6277fb597942c07d74b16b98	1	1	practice_slash	22	practice_slash	1	stimuli_target_squarediamonds.svg	stimuli_distractor_trianglediamonds.svg	5	yes	53	1	538	6	4	antiphase_hc_sio.wav	1	6	5	noise_calib_stim_RIGHT.wav	2	31	blb_dichoticlistening_ta-ba.mp3	ta	ba	1	right
6.6.0	win	2023-06-27	16:26:54	16:40:56	835074	6277fb597942c07d74b16b98	1	1	practice_slash	22	advance_on_keypress_SLASH	2	stimuli_target_squarediamonds.svg	stimuli_distractor_trianglediamonds.svg	5	yes	57	0	1220	6	4	antiphase_hc_sio.wav	1	6	5	noise_calib_stim_RIGHT.wav	2	31	blb_dichoticlistening_ta-ba.mp3	ta	ba	1	right
6.6.0	win	2023-06-27	16:26:54	16:40:59	838421	6277fb597942c07d74b16b98	1	1	practice_slash	22	practice_slash	3	stimuli_distractor_trianglediamonds.svg	stimuli_target_rectanglediamonds.svg	10	yes	53	1	471	6	4	antiphase_hc_sio.wav	1	6	5	noise_calib_stim_RIGHT.wav	2	31	blb_dichoticlistening_ta-ba.mp3	ta	ba	1	right
6.6.0	win	2023-06-27	16:26:54	16:40:59	838421	6277fb597942c07d74b16b98	1	1	practice_slash	22	advance_on_keypress_SLASH	4	stimuli_distractor_trianglediamonds.svg	stimuli_target_rectanglediamonds.svg	10	yes	57	0	723	6	4	antiphase_hc_sio.wav	1	6	5	noise_calib_stim_RIGHT.wav	2	31	blb_dichoticlistening_ta-ba.mp3	ta	ba	1	right
6.6.0	win	2023-06-27	16:26:54	16:41:02	841831	6277fb597942c07d74b16b98	1	1	practice_slash	22	practice_slash	5	stimuli_distractor_diamondtriangles.svg	stimuli_target_trianglerectangles.svg	9	yes	53	1	1046	6	4	antiphase_hc_sio.wav	1	6	5	noise_calib_stim_RIGHT.wav	2	31	blb_dichoticlistening_ta-ba.mp3	ta	ba	1	right
6.6.0	win	2023-06-27	16:26:54	16:41:02	841831	6277fb597942c07d74b16b98	1	1	practice_slash	22	advance_on_keypress_SLASH	6	stimuli_distractor_diamondtriangles.svg	stimuli_target_trianglerectangles.svg	9	yes	57	0	636	6	4	antiphase_hc_sio.wav	1	6	5	noise_calib_stim_RIGHT.wav	2	31	blb_dichoticlistening_ta-ba.mp3	ta	ba	1	right
6.6.0	win	2023-06-27	16:26:54	16:41:05	844621	6277fb597942c07d74b16b98	1	1	practice_slash	22	practice_slash	7	stimuli_distractor_diamondtriangles.svg	stimuli_target_rectangletriangles.svg	7	yes	53	1	494	6	4	antiphase_hc_sio.wav	1	6	5	noise_calib_stim_RIGHT.wav	2	31	blb_dichoticlistening_ta-ba.mp3	ta	ba	1	right
6.6.0	win	2023-06-27	16:26:54	16:41:05	844621	6277fb597942c07d74b16b98	1	1	practice_slash	22	advance_on_keypress_SLASH	8	stimuli_distractor_diamondtriangles.svg	stimuli_target_rectangletriangles.svg	7	yes	57	0	502	6	4	antiphase_hc_sio.wav	1	6	5	noise_calib_stim_RIGHT.wav	2	31	blb_dichoticlistening_ta-ba.mp3	ta	ba	1	right
6.6.0	win	2023-06-27	16:26:54	16:41:08	847287	6277fb597942c07d74b16b98	1	1	practice_slash	22	practice_slash	9	stimuli_distractor_trianglediamonds.svg	stimuli_target_squarediamonds.svg	11	yes	53	1	498	6	4	antiphase_hc_sio.wav	1	6	5	noise_calib_stim_RIGHT.wav	2	31	blb_dichoticlistening_ta-ba.mp3	ta	ba	1	right
6.6.0	win	2023-06-27	16:26:54	16:41:08	847287	6277fb597942c07d74b16b98	1	1	practice_slash	22	advance_on_keypress_SLASH	10	stimuli_distractor_trianglediamonds.svg	stimuli_target_squarediamonds.svg	11	yes	57	0	517	6	4	antiphase_hc_sio.wav	1	6	5	noise_calib_stim_RIGHT.wav	2	31	blb_dichoticlistening_ta-ba.mp3	ta	ba	1	right
6.6.0	win	2023-06-27	16:26:54	16:41:11	850002	6277fb597942c07d74b16b98	1	1	practice_slash	22	practice_slash	11	stimuli_distractor_diamondtriangles.svg	stimuli_target_diamondrectangles.svg	8	yes	53	1	547	6	4	antiphase_hc_sio.wav	1	6	5	noise_calib_stim_RIGHT.wav	2	31	blb_dichoticlistening_ta-ba.mp3	ta	ba	1	right
6.6.0	win	2023-06-27	16:26:54	16:41:11	850002	6277fb597942c07d74b16b98	1	1	practice_slash	22	advance_on_keypress_SLASH	12	stimuli_distractor_diamondtriangles.svg	stimuli_target_diamondrectangles.svg	8	yes	57	0	869	6	4	antiphase_hc_sio.wav	1	6	5	noise_calib_stim_RIGHT.wav	2	31	blb_dichoticlistening_ta-ba.mp3	ta	ba	1	right
6.6.0	win	2023-06-27	16:26:54	16:41:15	854515	6277fb597942c07d74b16b98	1	1	practice_slash	22	practice_slash	13	stimuli_distractor_trianglediamonds.svg	stimuli_distractor_trianglediamonds.svg	15	no	0	1	2000	6	4	antiphase_hc_sio.wav	1	6	5	noise_calib_stim_RIGHT.wav	2	31	blb_dichoticlistening_ta-ba.mp3	ta	ba	1	right
6.6.0	win	2023-06-27	16:26:54	16:41:15	854515	6277fb597942c07d74b16b98	1	1	practice_slash	22	advance_on_keypress_SLASH	14	stimuli_distractor_trianglediamonds.svg	stimuli_distractor_trianglediamonds.svg	15	no	57	0	713	6	4	antiphase_hc_sio.wav	1	6	5	noise_calib_stim_RIGHT.wav	2	31	blb_dichoticlistening_ta-ba.mp3	ta	ba	1	right
6.6.0	win	2023-06-27	16:26:54	16:41:18	857549	6277fb597942c07d74b16b98	1	1	practice_slash	22	practice_slash	15	stimuli_target_squarediamonds.svg	stimuli_distractor_diamondtriangles.svg	2	yes	53	1	673	6	4	antiphase_hc_sio.wav	1	6	5	noise_calib_stim_RIGHT.wav	2	31	blb_dichoticlistening_ta-ba.mp3	ta	ba	1	right
6.6.0	win	2023-06-27	16:26:54	16:41:18	857549	6277fb597942c07d74b16b98	1	1	practice_slash	22	advance_on_keypress_SLASH	16	stimuli_target_squarediamonds.svg	stimuli_distractor_diamondtriangles.svg	2	yes	57	0	555	6	4	antiphase_hc_sio.wav	1	6	5	noise_calib_stim_RIGHT.wav	2	31	blb_dichoticlistening_ta-ba.mp3	ta	ba	1	right
6.6.0	win	2023-06-27	16:26:54	16:41:21	860516	6277fb597942c07d74b16b98	1	1	practice_slash	22	practice_slash	17	stimuli_distractor_trianglediamonds.svg	stimuli_distractor_diamondtriangles.svg	16	no	53	0	755	6	4	antiphase_hc_sio.wav	1	6	5	noise_calib_stim_RIGHT.wav	2	31	blb_dichoticlistening_ta-ba.mp3	ta	ba	1	right
6.6.0	win	2023-06-27	16:26:54	16:41:21	860516	6277fb597942c07d74b16b98	1	1	practice_slash	22	advance_on_keypress_SLASH	18	stimuli_distractor_trianglediamonds.svg	stimuli_distractor_diamondtriangles.svg	16	no	57	0	1207	6	4	antiphase_hc_sio.wav	1	6	5	noise_calib_stim_RIGHT.wav	2	31	blb_dichoticlistening_ta-ba.mp3	ta	ba	1	right
6.6.0	win	2023-06-27	16:26:54	16:41:24	863851	6277fb597942c07d74b16b98	1	1	practice_slash	22	practice_slash	19	stimuli_target_rectanglediamonds.svg	stimuli_distractor_diamondtriangles.svg	1	yes	53	1	481	6	4	antiphase_hc_sio.wav	1	6	5	noise_calib_stim_RIGHT.wav	2	31	blb_dichoticlistening_ta-ba.mp3	ta	ba	1	right
6.6.0	win	2023-06-27	16:26:54	16:41:24	863851	6277fb597942c07d74b16b98	1	1	practice_slash	22	advance_on_keypress_SLASH	20	stimuli_target_rectanglediamonds.svg	stimuli_distractor_diamondtriangles.svg	1	yes	57	0	1055	6	4	antiphase_hc_sio.wav	1	6	5	noise_calib_stim_RIGHT.wav	2	31	blb_dichoticlistening_ta-ba.mp3	ta	ba	1	right
6.6.0	win	2023-06-27	16:26:54	16:41:29	868548	6277fb597942c07d74b16b98	1	1	practice_slash	22	practice_slash	21	stimuli_distractor_diamondtriangles.svg	stimuli_distractor_diamondtriangles.svg	13	no	0	1	2000	6	4	antiphase_hc_sio.wav	1	6	5	noise_calib_stim_RIGHT.wav	2	31	blb_dichoticlistening_ta-ba.mp3	ta	ba	1	right
6.6.0	win	2023-06-27	16:26:54	16:41:29	868548	6277fb597942c07d74b16b98	1	1	practice_slash	22	advance_on_keypress_SLASH	22	stimuli_distractor_diamondtriangles.svg	stimuli_distractor_diamondtriangles.svg	13	no	57	0	451	6	4	antiphase_hc_sio.wav	1	6	5	noise_calib_stim_RIGHT.wav	2	31	blb_dichoticlistening_ta-ba.mp3	ta	ba	1	right
6.6.0	win	2023-06-27	16:26:54	16:41:32	871238	6277fb597942c07d74b16b98	1	1	practice_slash	22	practice_slash	23	stimuli_distractor_trianglediamonds.svg	stimuli_target_diamondrectangles.svg	12	yes	53	1	587	6	4	antiphase_hc_sio.wav	1	6	5	noise_calib_stim_RIGHT.wav	2	31	blb_dichoticlistening_ta-ba.mp3	ta	ba	1	right
6.6.0	win	2023-06-27	16:26:54	16:41:32	871238	6277fb597942c07d74b16b98	1	1	practice_slash	22	advance_on_keypress_SLASH	24	stimuli_distractor_trianglediamonds.svg	stimuli_target_diamondrectangles.svg	12	yes	57	0	481	6	4	antiphase_hc_sio.wav	1	6	5	noise_calib_stim_RIGHT.wav	2	31	blb_dichoticlistening_ta-ba.mp3	ta	ba	1	right
6.6.0	win	2023-06-27	16:26:54	16:41:36	875380	6277fb597942c07d74b16b98	1	1	practice_slash	22	practice_slash	25	stimuli_distractor_diamondtriangles.svg	stimuli_distractor_trianglediamonds.svg	14	no	0	1	2000	6	4	antiphase_hc_sio.wav	1	6	5	noise_calib_stim_RIGHT.wav	2	31	blb_dichoticlistening_ta-ba.mp3	ta	ba	1	right
6.6.0	win	2023-06-27	16:26:54	16:41:36	875380	6277fb597942c07d74b16b98	1	1	practice_slash	22	advance_on_keypress_SLASH	26	stimuli_distractor_diamondtriangles.svg	stimuli_distractor_trianglediamonds.svg	14	no	57	0	510	6	4	antiphase_hc_sio.wav	1	6	5	noise_calib_stim_RIGHT.wav	2	31	blb_dichoticlistening_ta-ba.mp3	ta	ba	1	right
6.6.0	win	2023-06-27	16:26:54	16:41:40	879559	6277fb597942c07d74b16b98	1	1	practice_slash	22	practice_slash	27	stimuli_target_diamondsquares.svg	stimuli_distractor_trianglediamonds.svg	6	yes	0	0	2000	6	4	antiphase_hc_sio.wav	1	6	5	noise_calib_stim_RIGHT.wav	2	31	blb_dichoticlistening_ta-ba.mp3	ta	ba	1	right
6.6.0	win	2023-06-27	16:26:54	16:41:40	879559	6277fb597942c07d74b16b98	1	1	practice_slash	22	advance_on_keypress_SLASH	28	stimuli_target_diamondsquares.svg	stimuli_distractor_trianglediamonds.svg	6	yes	57	0	472	6	4	antiphase_hc_sio.wav	1	6	5	noise_calib_stim_RIGHT.wav	2	31	blb_dichoticlistening_ta-ba.mp3	ta	ba	1	right
6.6.0	win	2023-06-27	16:26:54	16:41:43	882208	6277fb597942c07d74b16b98	1	1	practice_slash	22	practice_slash	29	stimuli_target_rectanglediamonds.svg	stimuli_distractor_trianglediamonds.svg	4	yes	53	1	515	6	4	antiphase_hc_sio.wav	1	6	5	noise_calib_stim_RIGHT.wav	2	31	blb_dichoticlistening_ta-ba.mp3	ta	ba	1	right
6.6.0	win	2023-06-27	16:26:54	16:41:43	882208	6277fb597942c07d74b16b98	1	1	practice_slash	22	advance_on_keypress_SLASH	30	stimuli_target_rectanglediamonds.svg	stimuli_distractor_trianglediamonds.svg	4	yes	57	0	543	6	4	antiphase_hc_sio.wav	1	6	5	noise_calib_stim_RIGHT.wav	2	31	blb_dichoticlistening_ta-ba.mp3	ta	ba	1	right
6.6.0	win	2023-06-27	16:26:54	16:41:46	885202	6277fb597942c07d74b16b98	1	1	practice_slash	22	practice_slash	31	stimuli_target_diamondsquares.svg	stimuli_distractor_diamondtriangles.svg	3	yes	53	1	785	6	4	antiphase_hc_sio.wav	1	6	5	noise_calib_stim_RIGHT.wav	2	31	blb_dichoticlistening_ta-ba.mp3	ta	ba	1	right
6.6.0	win	2023-06-27	16:26:54	16:41:46	885202	6277fb597942c07d74b16b98	1	1	practice_slash	22	advance_on_keypress_SLASH	32	stimuli_target_diamondsquares.svg	stimuli_distractor_diamondtriangles.svg	3	yes	57	0	1361	6	4	antiphase_hc_sio.wav	1	6	5	noise_calib_stim_RIGHT.wav	2	31	blb_dichoticlistening_ta-ba.mp3	ta	ba	1	right
6.6.0	win	2023-06-27	16:26:54	16:41:53	892949	6277fb597942c07d74b16b98	1	1	main_slash	24	main_slash	1	stimuli_target_trianglesquares.svg	stimuli_distractor_trianglediamonds.svg	18	yes	53	1	642	6	4	antiphase_hc_sio.wav	1	6	5	noise_calib_stim_RIGHT.wav	2	31	blb_dichoticlistening_ta-ba.mp3	ta	ba	1	right
6.6.0	win	2023-06-27	16:26:54	16:41:53	892949	6277fb597942c07d74b16b98	1	1	main_slash	24	advance_on_keypress_SLASH	2	stimuli_target_trianglesquares.svg	stimuli_distractor_trianglediamonds.svg	18	yes	57	0	1303	6	4	antiphase_hc_sio.wav	1	6	5	noise_calib_stim_RIGHT.wav	2	31	blb_dichoticlistening_ta-ba.mp3	ta	ba	1	right
6.6.0	win	2023-06-27	16:26:54	16:41:56	895321	6277fb597942c07d74b16b98	1	1	main_slash	24	main_slash	3	stimuli_distractor_diamondtriangles.svg	stimuli_target_rectangletriangles.svg	13	yes	53	1	410	6	4	antiphase_hc_sio.wav	1	6	5	noise_calib_stim_RIGHT.wav	2	31	blb_dichoticlistening_ta-ba.mp3	ta	ba	1	right
6.6.0	win	2023-06-27	16:26:54	16:41:56	895321	6277fb597942c07d74b16b98	1	1	main_slash	24	advance_on_keypress_SLASH	4	stimuli_distractor_diamondtriangles.svg	stimuli_target_rectangletriangles.svg	13	yes	57	0	679	6	4	antiphase_hc_sio.wav	1	6	5	noise_calib_stim_RIGHT.wav	2	31	blb_dichoticlistening_ta-ba.mp3	ta	ba	1	right
6.6.0	win	2023-06-27	16:26:54	16:41:58	897050	6277fb597942c07d74b16b98	1	1	main_slash	24	main_slash	5	stimuli_distractor_trianglediamonds.svg	stimuli_target_squarediamonds.svg	12	yes	53	1	407	6	4	antiphase_hc_sio.wav	1	6	5	noise_calib_stim_RIGHT.wav	2	31	blb_dichoticlistening_ta-ba.mp3	ta	ba	1	right
6.6.0	win	2023-06-27	16:26:54	16:41:58	897050	6277fb597942c07d74b16b98	1	1	main_slash	24	advance_on_keypress_SLASH	6	stimuli_distractor_trianglediamonds.svg	stimuli_target_squarediamonds.svg	12	yes	57	0	537	6	4	antiphase_hc_sio.wav	1	6	5	noise_calib_stim_RIGHT.wav	2	31	blb_dichoticlistening_ta-ba.mp3	ta	ba	1	right
6.6.0	win	2023-06-27	16:26:54	16:42:01	900231	6277fb597942c07d74b16b98	1	1	main_slash	24	main_slash	7	stimuli_distractor_trianglediamonds.svg	stimuli_distractor_trianglediamonds.svg	34	no	0	1	2000	6	4	antiphase_hc_sio.wav	1	6	5	noise_calib_stim_RIGHT.wav	2	31	blb_dichoticlistening_ta-ba.mp3	ta	ba	1	right
6.6.0	win	2023-06-27	16:26:54	16:42:01	900231	6277fb597942c07d74b16b98	1	1	main_slash	24	advance_on_keypress_SLASH	8	stimuli_distractor_trianglediamonds.svg	stimuli_distractor_trianglediamonds.svg	34	no	57	0	594	6	4	antiphase_hc_sio.wav	1	6	5	noise_calib_stim_RIGHT.wav	2	31	blb_dichoticlistening_ta-ba.mp3	ta	ba	1	right
6.6.0	win	2023-06-27	16:26:54	16:42:02	901929	6277fb597942c07d74b16b98	1	1	main_slash	24	main_slash	9	stimuli_distractor_trianglediamonds.svg	stimuli_target_trianglerectangles.svg	25	yes	53	1	465	6	4	antiphase_hc_sio.wav	1	6	5	noise_calib_stim_RIGHT.wav	2	31	blb_dichoticlistening_ta-ba.mp3	ta	ba	1	right
6.6.0	win	2023-06-27	16:26:54	16:42:02	901929	6277fb597942c07d74b16b98	1	1	main_slash	24	advance_on_keypress_SLASH	10	stimuli_distractor_trianglediamonds.svg	stimuli_target_trianglerectangles.svg	25	yes	57	0	922	6	4	antiphase_hc_sio.wav	1	6	5	noise_calib_stim_RIGHT.wav	2	31	blb_dichoticlistening_ta-ba.mp3	ta	ba	1	right
6.6.0	win	2023-06-27	16:26:54	16:42:05	904238	6277fb597942c07d74b16b98	1	1	main_slash	24	main_slash	11	stimuli_distractor_trianglediamonds.svg	stimuli_target_diamondrectangles.svg	27	yes	53	1	743	6	4	antiphase_hc_sio.wav	1	6	5	noise_calib_stim_RIGHT.wav	2	31	blb_dichoticlistening_ta-ba.mp3	ta	ba	1	right
6.6.0	win	2023-06-27	16:26:54	16:42:05	904238	6277fb597942c07d74b16b98	1	1	main_slash	24	advance_on_keypress_SLASH	12	stimuli_distractor_trianglediamonds.svg	stimuli_target_diamondrectangles.svg	27	yes	57	0	565	6	4	antiphase_hc_sio.wav	1	6	5	noise_calib_stim_RIGHT.wav	2	31	blb_dichoticlistening_ta-ba.mp3	ta	ba	1	right
6.6.0	win	2023-06-27	16:26:54	16:42:07	906235	6277fb597942c07d74b16b98	1	1	main_slash	24	main_slash	13	stimuli_distractor_diamondtriangles.svg	stimuli_distractor_trianglediamonds.svg	38	no	53	0	775	6	4	antiphase_hc_sio.wav	1	6	5	noise_calib_stim_RIGHT.wav	2	31	blb_dichoticlistening_ta-ba.mp3	ta	ba	1	right
6.6.0	win	2023-06-27	16:26:54	16:42:07	906235	6277fb597942c07d74b16b98	1	1	main_slash	24	advance_on_keypress_SLASH	14	stimuli_distractor_diamondtriangles.svg	stimuli_distractor_trianglediamonds.svg	38	no	57	0	693	6	4	antiphase_hc_sio.wav	1	6	5	noise_calib_stim_RIGHT.wav	2	31	blb_dichoticlistening_ta-ba.mp3	ta	ba	1	right
6.6.0	win	2023-06-27	16:26:54	16:42:09	908143	6277fb597942c07d74b16b98	1	1	main_slash	24	main_slash	15	stimuli_target_diamondsquares.svg	stimuli_distractor_diamondtriangles.svg	24	yes	53	1	561	6	4	antiphase_hc_sio.wav	1	6	5	noise_calib_stim_RIGHT.wav	2	31	blb_dichoticlistening_ta-ba.mp3	ta	ba	1	right
6.6.0	win	2023-06-27	16:26:54	16:42:09	908143	6277fb597942c07d74b16b98	1	1	main_slash	24	advance_on_keypress_SLASH	16	stimuli_target_diamondsquares.svg	stimuli_distractor_diamondtriangles.svg	24	yes	57	0	523	6	4	antiphase_hc_sio.wav	1	6	5	noise_calib_stim_RIGHT.wav	2	31	blb_dichoticlistening_ta-ba.mp3	ta	ba	1	right
6.6.0	win	2023-06-27	16:26:54	16:42:12	911303	6277fb597942c07d74b16b98	1	1	main_slash	24	main_slash	17	stimuli_distractor_trianglediamonds.svg	stimuli_distractor_diamondtriangles.svg	36	no	0	1	2000	6	4	antiphase_hc_sio.wav	1	6	5	noise_calib_stim_RIGHT.wav	2	31	blb_dichoticlistening_ta-ba.mp3	ta	ba	1	right
6.6.0	win	2023-06-27	16:26:54	16:42:12	911303	6277fb597942c07d74b16b98	1	1	main_slash	24	advance_on_keypress_SLASH	18	stimuli_distractor_trianglediamonds.svg	stimuli_distractor_diamondtriangles.svg	36	no	57	0	505	6	4	antiphase_hc_sio.wav	1	6	5	noise_calib_stim_RIGHT.wav	2	31	blb_dichoticlistening_ta-ba.mp3	ta	ba	1	right
6.6.0	win	2023-06-27	16:26:54	16:42:13	912913	6277fb597942c07d74b16b98	1	1	main_slash	24	main_slash	19	stimuli_target_diamondrectangles.svg	stimuli_distractor_diamondtriangles.svg	23	yes	53	1	462	6	4	antiphase_hc_sio.wav	1	6	5	noise_calib_stim_RIGHT.wav	2	31	blb_dichoticlistening_ta-ba.mp3	ta	ba	1	right
6.6.0	win	2023-06-27	16:26:54	16:42:13	912913	6277fb597942c07d74b16b98	1	1	main_slash	24	advance_on_keypress_SLASH	20	stimuli_target_diamondrectangles.svg	stimuli_distractor_diamondtriangles.svg	23	yes	57	0	588	6	4	antiphase_hc_sio.wav	1	6	5	noise_calib_stim_RIGHT.wav	2	31	blb_dichoticlistening_ta-ba.mp3	ta	ba	1	right
6.6.0	win	2023-06-27	16:26:54	16:42:15	914606	6277fb597942c07d74b16b98	1	1	main_slash	24	main_slash	21	stimuli_distractor_trianglediamonds.svg	stimuli_target_squaretriangles.svg	11	yes	53	1	453	6	4	antiphase_hc_sio.wav	1	6	5	noise_calib_stim_RIGHT.wav	2	31	blb_dichoticlistening_ta-ba.mp3	ta	ba	1	right
6.6.0	win	2023-06-27	16:26:54	16:42:15	914606	6277fb597942c07d74b16b98	1	1	main_slash	24	advance_on_keypress_SLASH	22	stimuli_distractor_trianglediamonds.svg	stimuli_target_squaretriangles.svg	11	yes	57	0	512	6	4	antiphase_hc_sio.wav	1	6	5	noise_calib_stim_RIGHT.wav	2	31	blb_dichoticlistening_ta-ba.mp3	ta	ba	1	right
6.6.0	win	2023-06-27	16:26:54	16:42:17	916365	6277fb597942c07d74b16b98	1	1	main_slash	24	main_slash	23	stimuli_target_trianglesquares.svg	stimuli_distractor_diamondtriangles.svg	22	yes	53	1	597	6	4	antiphase_hc_sio.wav	1	6	5	noise_calib_stim_RIGHT.wav	2	31	blb_dichoticlistening_ta-ba.mp3	ta	ba	1	right
6.6.0	win	2023-06-27	16:26:54	16:42:17	916365	6277fb597942c07d74b16b98	1	1	main_slash	24	advance_on_keypress_SLASH	24	stimuli_target_trianglesquares.svg	stimuli_distractor_diamondtriangles.svg	22	yes	57	0	607	6	4	antiphase_hc_sio.wav	1	6	5	noise_calib_stim_RIGHT.wav	2	31	blb_dichoticlistening_ta-ba.mp3	ta	ba	1	right
6.6.0	win	2023-06-27	16:26:54	16:42:20	919622	6277fb597942c07d74b16b98	1	1	main_slash	24	main_slash	25	stimuli_distractor_diamondtriangles.svg	stimuli_distractor_diamondtriangles.svg	39	no	0	1	2000	6	4	antiphase_hc_sio.wav	1	6	5	noise_calib_stim_RIGHT.wav	2	31	blb_dichoticlistening_ta-ba.mp3	ta	ba	1	right
6.6.0	win	2023-06-27	16:26:54	16:42:20	919622	6277fb597942c07d74b16b98	1	1	main_slash	24	advance_on_keypress_SLASH	26	stimuli_distractor_diamondtriangles.svg	stimuli_distractor_diamondtriangles.svg	39	no	57	0	456	6	4	antiphase_hc_sio.wav	1	6	5	noise_calib_stim_RIGHT.wav	2	31	blb_dichoticlistening_ta-ba.mp3	ta	ba	1	right
6.6.0	win	2023-06-27	16:26:54	16:42:22	921233	6277fb597942c07d74b16b98	1	1	main_slash	24	main_slash	27	stimuli_target_rectangletriangles.svg	stimuli_distractor_trianglediamonds.svg	1	yes	53	1	492	6	4	antiphase_hc_sio.wav	1	6	5	noise_calib_stim_RIGHT.wav	2	31	blb_dichoticlistening_ta-ba.mp3	ta	ba	1	right
6.6.0	win	2023-06-27	16:26:54	16:42:22	921233	6277fb597942c07d74b16b98	1	1	main_slash	24	advance_on_keypress_SLASH	28	stimuli_target_rectangletriangles.svg	stimuli_distractor_trianglediamonds.svg	1	yes	57	0	1344	6	4	antiphase_hc_sio.wav	1	6	5	noise_calib_stim_RIGHT.wav	2	31	blb_dichoticlistening_ta-ba.mp3	ta	ba	1	right
6.6.0	win	2023-06-27	16:26:54	16:42:24	923726	6277fb597942c07d74b16b98	1	1	main_slash	24	main_slash	29	stimuli_distractor_diamondtriangles.svg	stimuli_distractor_trianglediamonds.svg	37	no	53	0	497	6	4	antiphase_hc_sio.wav	1	6	5	noise_calib_stim_RIGHT.wav	2	31	blb_dichoticlistening_ta-ba.mp3	ta	ba	1	right
6.6.0	win	2023-06-27	16:26:54	16:42:24	923726	6277fb597942c07d74b16b98	1	1	main_slash	24	advance_on_keypress_SLASH	30	stimuli_distractor_diamondtriangles.svg	stimuli_distractor_trianglediamonds.svg	37	no	57	0	1018	6	4	antiphase_hc_sio.wav	1	6	5	noise_calib_stim_RIGHT.wav	2	31	blb_dichoticlistening_ta-ba.mp3	ta	ba	1	right
6.6.0	win	2023-06-27	16:26:54	16:42:26	925916	6277fb597942c07d74b16b98	1	1	main_slash	24	main_slash	31	stimuli_target_diamondsquares.svg	stimuli_distractor_trianglediamonds.svg	20	yes	53	1	538	6	4	antiphase_hc_sio.wav	1	6	5	noise_calib_stim_RIGHT.wav	2	31	blb_dichoticlistening_ta-ba.mp3	ta	ba	1	right
6.6.0	win	2023-06-27	16:26:54	16:42:26	925916	6277fb597942c07d74b16b98	1	1	main_slash	24	advance_on_keypress_SLASH	32	stimuli_target_diamondsquares.svg	stimuli_distractor_trianglediamonds.svg	20	yes	57	0	912	6	4	antiphase_hc_sio.wav	1	6	5	noise_calib_stim_RIGHT.wav	2	31	blb_dichoticlistening_ta-ba.mp3	ta	ba	1	right
6.6.0	win	2023-06-27	16:26:54	16:42:29	928009	6277fb597942c07d74b16b98	1	1	main_slash	24	main_slash	33	stimuli_distractor_diamondtriangles.svg	stimuli_target_trianglesquares.svg	30	yes	53	1	500	6	4	antiphase_hc_sio.wav	1	6	5	noise_calib_stim_RIGHT.wav	2	31	blb_dichoticlistening_ta-ba.mp3	ta	ba	1	right
6.6.0	win	2023-06-27	16:26:54	16:42:29	928009	6277fb597942c07d74b16b98	1	1	main_slash	24	advance_on_keypress_SLASH	34	stimuli_distractor_diamondtriangles.svg	stimuli_target_trianglesquares.svg	30	yes	57	0	824	6	4	antiphase_hc_sio.wav	1	6	5	noise_calib_stim_RIGHT.wav	2	31	blb_dichoticlistening_ta-ba.mp3	ta	ba	1	right
6.6.0	win	2023-06-27	16:26:54	16:42:31	929990	6277fb597942c07d74b16b98	1	1	main_slash	24	main_slash	35	stimuli_distractor_diamondtriangles.svg	stimuli_target_trianglerectangles.svg	29	yes	53	1	505	6	4	antiphase_hc_sio.wav	1	6	5	noise_calib_stim_RIGHT.wav	2	31	blb_dichoticlistening_ta-ba.mp3	ta	ba	1	right
6.6.0	win	2023-06-27	16:26:54	16:42:31	929990	6277fb597942c07d74b16b98	1	1	main_slash	24	advance_on_keypress_SLASH	36	stimuli_distractor_diamondtriangles.svg	stimuli_target_trianglerectangles.svg	29	yes	57	0	516	6	4	antiphase_hc_sio.wav	1	6	5	noise_calib_stim_RIGHT.wav	2	31	blb_dichoticlistening_ta-ba.mp3	ta	ba	1	right
6.6.0	win	2023-06-27	16:26:54	16:42:33	932119	6277fb597942c07d74b16b98	1	1	main_slash	24	main_slash	37	stimuli_distractor_diamondtriangles.svg	stimuli_target_diamondsquares.svg	32	yes	53	1	964	6	4	antiphase_hc_sio.wav	1	6	5	noise_calib_stim_RIGHT.wav	2	31	blb_dichoticlistening_ta-ba.mp3	ta	ba	1	right
6.6.0	win	2023-06-27	16:26:54	16:42:33	932119	6277fb597942c07d74b16b98	1	1	main_slash	24	advance_on_keypress_SLASH	38	stimuli_distractor_diamondtriangles.svg	stimuli_target_diamondsquares.svg	32	yes	57	0	497	6	4	antiphase_hc_sio.wav	1	6	5	noise_calib_stim_RIGHT.wav	2	31	blb_dichoticlistening_ta-ba.mp3	ta	ba	1	right
6.6.0	win	2023-06-27	16:26:54	16:42:34	933704	6277fb597942c07d74b16b98	1	1	main_slash	24	main_slash	39	stimuli_target_rectanglediamonds.svg	stimuli_distractor_trianglediamonds.svg	2	yes	53	1	440	6	4	antiphase_hc_sio.wav	1	6	5	noise_calib_stim_RIGHT.wav	2	31	blb_dichoticlistening_ta-ba.mp3	ta	ba	1	right
6.6.0	win	2023-06-27	16:26:54	16:42:34	933704	6277fb597942c07d74b16b98	1	1	main_slash	24	advance_on_keypress_SLASH	40	stimuli_target_rectanglediamonds.svg	stimuli_distractor_trianglediamonds.svg	2	yes	57	0	514	6	4	antiphase_hc_sio.wav	1	6	5	noise_calib_stim_RIGHT.wav	2	31	blb_dichoticlistening_ta-ba.mp3	ta	ba	1	right
6.6.0	win	2023-06-27	16:26:54	16:42:36	935246	6277fb597942c07d74b16b98	1	1	main_slash	24	main_slash	41	stimuli_distractor_trianglediamonds.svg	stimuli_target_diamondsquares.svg	28	yes	53	1	376	6	4	antiphase_hc_sio.wav	1	6	5	noise_calib_stim_RIGHT.wav	2	31	blb_dichoticlistening_ta-ba.mp3	ta	ba	1	right
6.6.0	win	2023-06-27	16:26:54	16:42:36	935246	6277fb597942c07d74b16b98	1	1	main_slash	24	advance_on_keypress_SLASH	42	stimuli_distractor_trianglediamonds.svg	stimuli_target_diamondsquares.svg	28	yes	57	0	793	6	4	antiphase_hc_sio.wav	1	6	5	noise_calib_stim_RIGHT.wav	2	31	blb_dichoticlistening_ta-ba.mp3	ta	ba	1	right
6.6.0	win	2023-06-27	16:26:54	16:42:38	937114	6277fb597942c07d74b16b98	1	1	main_slash	24	main_slash	43	stimuli_distractor_trianglediamonds.svg	stimuli_target_trianglesquares.svg	26	yes	53	1	416	6	4	antiphase_hc_sio.wav	1	6	5	noise_calib_stim_RIGHT.wav	2	31	blb_dichoticlistening_ta-ba.mp3	ta	ba	1	right
6.6.0	win	2023-06-27	16:26:54	16:42:38	937114	6277fb597942c07d74b16b98	1	1	main_slash	24	advance_on_keypress_SLASH	44	stimuli_distractor_trianglediamonds.svg	stimuli_target_trianglesquares.svg	26	yes	57	0	535	6	4	antiphase_hc_sio.wav	1	6	5	noise_calib_stim_RIGHT.wav	2	31	blb_dichoticlistening_ta-ba.mp3	ta	ba	1	right
6.6.0	win	2023-06-27	16:26:54	16:42:39	938738	6277fb597942c07d74b16b98	1	1	main_slash	24	main_slash	45	stimuli_distractor_diamondtriangles.svg	stimuli_target_diamondrectangles.svg	31	yes	53	1	440	6	4	antiphase_hc_sio.wav	1	6	5	noise_calib_stim_RIGHT.wav	2	31	blb_dichoticlistening_ta-ba.mp3	ta	ba	1	right
6.6.0	win	2023-06-27	16:26:54	16:42:39	938738	6277fb597942c07d74b16b98	1	1	main_slash	24	advance_on_keypress_SLASH	46	stimuli_distractor_diamondtriangles.svg	stimuli_target_diamondrectangles.svg	31	yes	57	0	392	6	4	antiphase_hc_sio.wav	1	6	5	noise_calib_stim_RIGHT.wav	2	31	blb_dichoticlistening_ta-ba.mp3	ta	ba	1	right
6.6.0	win	2023-06-27	16:26:54	16:42:41	940180	6277fb597942c07d74b16b98	1	1	main_slash	24	main_slash	47	stimuli_distractor_diamondtriangles.svg	stimuli_target_rectanglediamonds.svg	14	yes	53	1	397	6	4	antiphase_hc_sio.wav	1	6	5	noise_calib_stim_RIGHT.wav	2	31	blb_dichoticlistening_ta-ba.mp3	ta	ba	1	right
6.6.0	win	2023-06-27	16:26:54	16:42:41	940180	6277fb597942c07d74b16b98	1	1	main_slash	24	advance_on_keypress_SLASH	48	stimuli_distractor_diamondtriangles.svg	stimuli_target_rectanglediamonds.svg	14	yes	57	0	383	6	4	antiphase_hc_sio.wav	1	6	5	noise_calib_stim_RIGHT.wav	2	31	blb_dichoticlistening_ta-ba.mp3	ta	ba	1	right
6.6.0	win	2023-06-27	16:26:54	16:42:42	941667	6277fb597942c07d74b16b98	1	1	main_slash	24	main_slash	49	stimuli_target_trianglerectangles.svg	stimuli_distractor_trianglediamonds.svg	17	yes	53	1	457	6	4	antiphase_hc_sio.wav	1	6	5	noise_calib_stim_RIGHT.wav	2	31	blb_dichoticlistening_ta-ba.mp3	ta	ba	1	right
6.6.0	win	2023-06-27	16:26:54	16:42:42	941667	6277fb597942c07d74b16b98	1	1	main_slash	24	advance_on_keypress_SLASH	50	stimuli_target_trianglerectangles.svg	stimuli_distractor_trianglediamonds.svg	17	yes	57	0	765	6	4	antiphase_hc_sio.wav	1	6	5	noise_calib_stim_RIGHT.wav	2	31	blb_dichoticlistening_ta-ba.mp3	ta	ba	1	right
6.6.0	win	2023-06-27	16:26:54	16:42:44	943498	6277fb597942c07d74b16b98	1	1	main_slash	24	main_slash	51	stimuli_target_rectangletriangles.svg	stimuli_distractor_diamondtriangles.svg	5	yes	53	1	434	6	4	antiphase_hc_sio.wav	1	6	5	noise_calib_stim_RIGHT.wav	2	31	blb_dichoticlistening_ta-ba.mp3	ta	ba	1	right
6.6.0	win	2023-06-27	16:26:54	16:42:44	943498	6277fb597942c07d74b16b98	1	1	main_slash	24	advance_on_keypress_SLASH	52	stimuli_target_rectangletriangles.svg	stimuli_distractor_diamondtriangles.svg	5	yes	57	0	473	6	4	antiphase_hc_sio.wav	1	6	5	noise_calib_stim_RIGHT.wav	2	31	blb_dichoticlistening_ta-ba.mp3	ta	ba	1	right
6.6.0	win	2023-06-27	16:26:54	16:42:47	946618	6277fb597942c07d74b16b98	1	1	main_slash	24	main_slash	53	stimuli_distractor_trianglediamonds.svg	stimuli_distractor_trianglediamonds.svg	33	no	0	1	2000	6	4	antiphase_hc_sio.wav	1	6	5	noise_calib_stim_RIGHT.wav	2	31	blb_dichoticlistening_ta-ba.mp3	ta	ba	1	right
6.6.0	win	2023-06-27	16:26:54	16:42:47	946618	6277fb597942c07d74b16b98	1	1	main_slash	24	advance_on_keypress_SLASH	54	stimuli_distractor_trianglediamonds.svg	stimuli_distractor_trianglediamonds.svg	33	no	57	0	572	6	4	antiphase_hc_sio.wav	1	6	5	noise_calib_stim_RIGHT.wav	2	31	blb_dichoticlistening_ta-ba.mp3	ta	ba	1	right
6.6.0	win	2023-06-27	16:26:54	16:42:49	948185	6277fb597942c07d74b16b98	1	1	main_slash	24	main_slash	55	stimuli_target_rectanglediamonds.svg	stimuli_distractor_diamondtriangles.svg	6	yes	53	1	362	6	4	antiphase_hc_sio.wav	1	6	5	noise_calib_stim_RIGHT.wav	2	31	blb_dichoticlistening_ta-ba.mp3	ta	ba	1	right
6.6.0	win	2023-06-27	16:26:54	16:42:49	948185	6277fb597942c07d74b16b98	1	1	main_slash	24	advance_on_keypress_SLASH	56	stimuli_target_rectanglediamonds.svg	stimuli_distractor_diamondtriangles.svg	6	yes	57	0	609	6	4	antiphase_hc_sio.wav	1	6	5	noise_calib_stim_RIGHT.wav	2	31	blb_dichoticlistening_ta-ba.mp3	ta	ba	1	right
6.6.0	win	2023-06-27	16:26:54	16:42:52	951442	6277fb597942c07d74b16b98	1	1	main_slash	24	main_slash	57	stimuli_target_trianglerectangles.svg	stimuli_distractor_diamondtriangles.svg	21	yes	0	0	2000	6	4	antiphase_hc_sio.wav	1	6	5	noise_calib_stim_RIGHT.wav	2	31	blb_dichoticlistening_ta-ba.mp3	ta	ba	1	right
6.6.0	win	2023-06-27	16:26:54	16:42:52	951442	6277fb597942c07d74b16b98	1	1	main_slash	24	advance_on_keypress_SLASH	58	stimuli_target_trianglerectangles.svg	stimuli_distractor_diamondtriangles.svg	21	yes	57	0	440	6	4	antiphase_hc_sio.wav	1	6	5	noise_calib_stim_RIGHT.wav	2	31	blb_dichoticlistening_ta-ba.mp3	ta	ba	1	right
6.6.0	win	2023-06-27	16:26:54	16:42:54	952977	6277fb597942c07d74b16b98	1	1	main_slash	24	main_slash	59	stimuli_distractor_trianglediamonds.svg	stimuli_distractor_diamondtriangles.svg	35	no	53	0	434	6	4	antiphase_hc_sio.wav	1	6	5	noise_calib_stim_RIGHT.wav	2	31	blb_dichoticlistening_ta-ba.mp3	ta	ba	1	right
6.6.0	win	2023-06-27	16:26:54	16:42:54	952977	6277fb597942c07d74b16b98	1	1	main_slash	24	advance_on_keypress_SLASH	60	stimuli_distractor_trianglediamonds.svg	stimuli_distractor_diamondtriangles.svg	35	no	57	0	702	6	4	antiphase_hc_sio.wav	1	6	5	noise_calib_stim_RIGHT.wav	2	31	blb_dichoticlistening_ta-ba.mp3	ta	ba	1	right
6.6.0	win	2023-06-27	16:26:54	16:42:55	954763	6277fb597942c07d74b16b98	1	1	main_slash	24	main_slash	61	stimuli_distractor_trianglediamonds.svg	stimuli_target_rectangletriangles.svg	9	yes	53	1	446	6	4	antiphase_hc_sio.wav	1	6	5	noise_calib_stim_RIGHT.wav	2	31	blb_dichoticlistening_ta-ba.mp3	ta	ba	1	right
6.6.0	win	2023-06-27	16:26:54	16:42:55	954763	6277fb597942c07d74b16b98	1	1	main_slash	24	advance_on_keypress_SLASH	62	stimuli_distractor_trianglediamonds.svg	stimuli_target_rectangletriangles.svg	9	yes	57	0	489	6	4	antiphase_hc_sio.wav	1	6	5	noise_calib_stim_RIGHT.wav	2	31	blb_dichoticlistening_ta-ba.mp3	ta	ba	1	right
6.6.0	win	2023-06-27	16:26:54	16:42:57	956425	6277fb597942c07d74b16b98	1	1	main_slash	24	main_slash	63	stimuli_target_squaretriangles.svg	stimuli_distractor_diamondtriangles.svg	7	yes	53	1	525	6	4	antiphase_hc_sio.wav	1	6	5	noise_calib_stim_RIGHT.wav	2	31	blb_dichoticlistening_ta-ba.mp3	ta	ba	1	right
6.6.0	win	2023-06-27	16:26:54	16:42:57	956425	6277fb597942c07d74b16b98	1	1	main_slash	24	advance_on_keypress_SLASH	64	stimuli_target_squaretriangles.svg	stimuli_distractor_diamondtriangles.svg	7	yes	57	0	348	6	4	antiphase_hc_sio.wav	1	6	5	noise_calib_stim_RIGHT.wav	2	31	blb_dichoticlistening_ta-ba.mp3	ta	ba	1	right
6.6.0	win	2023-06-27	16:26:54	16:42:58	957893	6277fb597942c07d74b16b98	1	1	main_slash	24	main_slash	65	stimuli_target_squarediamonds.svg	stimuli_distractor_diamondtriangles.svg	8	yes	53	1	483	6	4	antiphase_hc_sio.wav	1	6	5	noise_calib_stim_RIGHT.wav	2	31	blb_dichoticlistening_ta-ba.mp3	ta	ba	1	right
6.6.0	win	2023-06-27	16:26:54	16:42:58	957893	6277fb597942c07d74b16b98	1	1	main_slash	24	advance_on_keypress_SLASH	66	stimuli_target_squarediamonds.svg	stimuli_distractor_diamondtriangles.svg	8	yes	57	0	1178	6	4	antiphase_hc_sio.wav	1	6	5	noise_calib_stim_RIGHT.wav	2	31	blb_dichoticlistening_ta-ba.mp3	ta	ba	1	right
6.6.0	win	2023-06-27	16:26:54	16:43:01	960068	6277fb597942c07d74b16b98	1	1	main_slash	24	main_slash	67	stimuli_target_squaretriangles.svg	stimuli_distractor_trianglediamonds.svg	3	yes	53	1	345	6	4	antiphase_hc_sio.wav	1	6	5	noise_calib_stim_RIGHT.wav	2	31	blb_dichoticlistening_ta-ba.mp3	ta	ba	1	right
6.6.0	win	2023-06-27	16:26:54	16:43:01	960068	6277fb597942c07d74b16b98	1	1	main_slash	24	advance_on_keypress_SLASH	68	stimuli_target_squaretriangles.svg	stimuli_distractor_trianglediamonds.svg	3	yes	57	0	771	6	4	antiphase_hc_sio.wav	1	6	5	noise_calib_stim_RIGHT.wav	2	31	blb_dichoticlistening_ta-ba.mp3	ta	ba	1	right
6.6.0	win	2023-06-27	16:26:54	16:43:02	961879	6277fb597942c07d74b16b98	1	1	main_slash	24	main_slash	69	stimuli_target_diamondrectangles.svg	stimuli_distractor_trianglediamonds.svg	19	yes	53	1	399	6	4	antiphase_hc_sio.wav	1	6	5	noise_calib_stim_RIGHT.wav	2	31	blb_dichoticlistening_ta-ba.mp3	ta	ba	1	right
6.6.0	win	2023-06-27	16:26:54	16:43:02	961879	6277fb597942c07d74b16b98	1	1	main_slash	24	advance_on_keypress_SLASH	70	stimuli_target_diamondrectangles.svg	stimuli_distractor_trianglediamonds.svg	19	yes	57	0	917	6	4	antiphase_hc_sio.wav	1	6	5	noise_calib_stim_RIGHT.wav	2	31	blb_dichoticlistening_ta-ba.mp3	ta	ba	1	right
6.6.0	win	2023-06-27	16:26:54	16:43:04	963870	6277fb597942c07d74b16b98	1	1	main_slash	24	main_slash	71	stimuli_distractor_trianglediamonds.svg	stimuli_target_rectanglediamonds.svg	10	yes	53	1	424	6	4	antiphase_hc_sio.wav	1	6	5	noise_calib_stim_RIGHT.wav	2	31	blb_dichoticlistening_ta-ba.mp3	ta	ba	1	right
6.6.0	win	2023-06-27	16:26:54	16:43:04	963870	6277fb597942c07d74b16b98	1	1	main_slash	24	advance_on_keypress_SLASH	72	stimuli_distractor_trianglediamonds.svg	stimuli_target_rectanglediamonds.svg	10	yes	57	0	571	6	4	antiphase_hc_sio.wav	1	6	5	noise_calib_stim_RIGHT.wav	2	31	blb_dichoticlistening_ta-ba.mp3	ta	ba	1	right
6.6.0	win	2023-06-27	16:26:54	16:43:06	965508	6277fb597942c07d74b16b98	1	1	main_slash	24	main_slash	73	stimuli_distractor_diamondtriangles.svg	stimuli_target_squarediamonds.svg	16	yes	53	1	420	6	4	antiphase_hc_sio.wav	1	6	5	noise_calib_stim_RIGHT.wav	2	31	blb_dichoticlistening_ta-ba.mp3	ta	ba	1	right
6.6.0	win	2023-06-27	16:26:54	16:43:06	965508	6277fb597942c07d74b16b98	1	1	main_slash	24	advance_on_keypress_SLASH	74	stimuli_distractor_diamondtriangles.svg	stimuli_target_squarediamonds.svg	16	yes	57	0	470	6	4	antiphase_hc_sio.wav	1	6	5	noise_calib_stim_RIGHT.wav	2	31	blb_dichoticlistening_ta-ba.mp3	ta	ba	1	right
6.6.0	win	2023-06-27	16:26:54	16:43:08	967024	6277fb597942c07d74b16b98	1	1	main_slash	24	main_slash	75	stimuli_distractor_diamondtriangles.svg	stimuli_distractor_diamondtriangles.svg	40	no	53	0	394	6	4	antiphase_hc_sio.wav	1	6	5	noise_calib_stim_RIGHT.wav	2	31	blb_dichoticlistening_ta-ba.mp3	ta	ba	1	right
6.6.0	win	2023-06-27	16:26:54	16:43:08	967024	6277fb597942c07d74b16b98	1	1	main_slash	24	advance_on_keypress_SLASH	76	stimuli_distractor_diamondtriangles.svg	stimuli_distractor_diamondtriangles.svg	40	no	57	0	887	6	4	antiphase_hc_sio.wav	1	6	5	noise_calib_stim_RIGHT.wav	2	31	blb_dichoticlistening_ta-ba.mp3	ta	ba	1	right
6.6.0	win	2023-06-27	16:26:54	16:43:10	969021	6277fb597942c07d74b16b98	1	1	main_slash	24	main_slash	77	stimuli_target_squarediamonds.svg	stimuli_distractor_trianglediamonds.svg	4	yes	53	1	472	6	4	antiphase_hc_sio.wav	1	6	5	noise_calib_stim_RIGHT.wav	2	31	blb_dichoticlistening_ta-ba.mp3	ta	ba	1	right
6.6.0	win	2023-06-27	16:26:54	16:43:10	969021	6277fb597942c07d74b16b98	1	1	main_slash	24	advance_on_keypress_SLASH	78	stimuli_target_squarediamonds.svg	stimuli_distractor_trianglediamonds.svg	4	yes	57	0	529	6	4	antiphase_hc_sio.wav	1	6	5	noise_calib_stim_RIGHT.wav	2	31	blb_dichoticlistening_ta-ba.mp3	ta	ba	1	right
6.6.0	win	2023-06-27	16:26:54	16:43:11	970673	6277fb597942c07d74b16b98	1	1	main_slash	24	main_slash	79	stimuli_distractor_diamondtriangles.svg	stimuli_target_squaretriangles.svg	15	yes	53	1	472	6	4	antiphase_hc_sio.wav	1	6	5	noise_calib_stim_RIGHT.wav	2	31	blb_dichoticlistening_ta-ba.mp3	ta	ba	1	right
6.6.0	win	2023-06-27	16:26:54	16:43:11	970673	6277fb597942c07d74b16b98	1	1	main_slash	24	advance_on_keypress_SLASH	80	stimuli_distractor_diamondtriangles.svg	stimuli_target_squaretriangles.svg	15	yes	57	0	1395	6	4	antiphase_hc_sio.wav	1	6	5	noise_calib_stim_RIGHT.wav	2	31	blb_dichoticlistening_ta-ba.mp3	ta	ba	1	right
6.6.0	win	2023-06-27	16:26:54	16:43:14	973133	6277fb597942c07d74b16b98	1	1	main_slash	24	main_slash	81	stimuli_distractor_diamondtriangles.svg	stimuli_distractor_trianglediamonds.svg	37	no	53	0	418	6	4	antiphase_hc_sio.wav	1	6	5	noise_calib_stim_RIGHT.wav	2	31	blb_dichoticlistening_ta-ba.mp3	ta	ba	1	right
6.6.0	win	2023-06-27	16:26:54	16:43:14	973133	6277fb597942c07d74b16b98	1	1	main_slash	24	advance_on_keypress_SLASH	82	stimuli_distractor_diamondtriangles.svg	stimuli_distractor_trianglediamonds.svg	37	no	57	0	544	6	4	antiphase_hc_sio.wav	1	6	5	noise_calib_stim_RIGHT.wav	2	31	blb_dichoticlistening_ta-ba.mp3	ta	ba	1	right
6.6.0	win	2023-06-27	16:26:54	16:43:15	974726	6277fb597942c07d74b16b98	1	1	main_slash	24	main_slash	83	stimuli_target_diamondsquares.svg	stimuli_distractor_diamondtriangles.svg	24	yes	53	1	401	6	4	antiphase_hc_sio.wav	1	6	5	noise_calib_stim_RIGHT.wav	2	31	blb_dichoticlistening_ta-ba.mp3	ta	ba	1	right
6.6.0	win	2023-06-27	16:26:54	16:43:15	974726	6277fb597942c07d74b16b98	1	1	main_slash	24	advance_on_keypress_SLASH	84	stimuli_target_diamondsquares.svg	stimuli_distractor_diamondtriangles.svg	24	yes	57	0	419	6	4	antiphase_hc_sio.wav	1	6	5	noise_calib_stim_RIGHT.wav	2	31	blb_dichoticlistening_ta-ba.mp3	ta	ba	1	right
6.6.0	win	2023-06-27	16:26:54	16:43:18	977797	6277fb597942c07d74b16b98	1	1	main_slash	24	main_slash	85	stimuli_distractor_trianglediamonds.svg	stimuli_distractor_diamondtriangles.svg	35	no	0	1	2000	6	4	antiphase_hc_sio.wav	1	6	5	noise_calib_stim_RIGHT.wav	2	31	blb_dichoticlistening_ta-ba.mp3	ta	ba	1	right
6.6.0	win	2023-06-27	16:26:54	16:43:18	977797	6277fb597942c07d74b16b98	1	1	main_slash	24	advance_on_keypress_SLASH	86	stimuli_distractor_trianglediamonds.svg	stimuli_distractor_diamondtriangles.svg	35	no	57	0	484	6	4	antiphase_hc_sio.wav	1	6	5	noise_calib_stim_RIGHT.wav	2	31	blb_dichoticlistening_ta-ba.mp3	ta	ba	1	right
6.6.0	win	2023-06-27	16:26:54	16:43:20	979751	6277fb597942c07d74b16b98	1	1	main_slash	24	main_slash	87	stimuli_distractor_diamondtriangles.svg	stimuli_target_diamondsquares.svg	32	yes	53	1	834	6	4	antiphase_hc_sio.wav	1	6	5	noise_calib_stim_RIGHT.wav	2	31	blb_dichoticlistening_ta-ba.mp3	ta	ba	1	right
6.6.0	win	2023-06-27	16:26:54	16:43:20	979751	6277fb597942c07d74b16b98	1	1	main_slash	24	advance_on_keypress_SLASH	88	stimuli_distractor_diamondtriangles.svg	stimuli_target_diamondsquares.svg	32	yes	57	0	600	6	4	antiphase_hc_sio.wav	1	6	5	noise_calib_stim_RIGHT.wav	2	31	blb_dichoticlistening_ta-ba.mp3	ta	ba	1	right
6.6.0	win	2023-06-27	16:26:54	16:43:22	981544	6277fb597942c07d74b16b98	1	1	main_slash	24	main_slash	89	stimuli_distractor_diamondtriangles.svg	stimuli_target_rectanglediamonds.svg	14	yes	53	1	547	6	4	antiphase_hc_sio.wav	1	6	5	noise_calib_stim_RIGHT.wav	2	31	blb_dichoticlistening_ta-ba.mp3	ta	ba	1	right
6.6.0	win	2023-06-27	16:26:54	16:43:22	981544	6277fb597942c07d74b16b98	1	1	main_slash	24	advance_on_keypress_SLASH	90	stimuli_distractor_diamondtriangles.svg	stimuli_target_rectanglediamonds.svg	14	yes	57	0	906	6	4	antiphase_hc_sio.wav	1	6	5	noise_calib_stim_RIGHT.wav	2	31	blb_dichoticlistening_ta-ba.mp3	ta	ba	1	right
6.6.0	win	2023-06-27	16:26:54	16:43:26	985085	6277fb597942c07d74b16b98	1	1	main_slash	24	main_slash	91	stimuli_distractor_trianglediamonds.svg	stimuli_distractor_trianglediamonds.svg	33	no	0	1	2000	6	4	antiphase_hc_sio.wav	1	6	5	noise_calib_stim_RIGHT.wav	2	31	blb_dichoticlistening_ta-ba.mp3	ta	ba	1	right
6.6.0	win	2023-06-27	16:26:54	16:43:26	985085	6277fb597942c07d74b16b98	1	1	main_slash	24	advance_on_keypress_SLASH	92	stimuli_distractor_trianglediamonds.svg	stimuli_distractor_trianglediamonds.svg	33	no	57	0	643	6	4	antiphase_hc_sio.wav	1	6	5	noise_calib_stim_RIGHT.wav	2	31	blb_dichoticlistening_ta-ba.mp3	ta	ba	1	right
6.6.0	win	2023-06-27	16:26:54	16:43:27	986828	6277fb597942c07d74b16b98	1	1	main_slash	24	main_slash	93	stimuli_target_rectangletriangles.svg	stimuli_distractor_diamondtriangles.svg	5	yes	53	1	451	6	4	antiphase_hc_sio.wav	1	6	5	noise_calib_stim_RIGHT.wav	2	31	blb_dichoticlistening_ta-ba.mp3	ta	ba	1	right
6.6.0	win	2023-06-27	16:26:54	16:43:27	986828	6277fb597942c07d74b16b98	1	1	main_slash	24	advance_on_keypress_SLASH	94	stimuli_target_rectangletriangles.svg	stimuli_distractor_diamondtriangles.svg	5	yes	57	0	789	6	4	antiphase_hc_sio.wav	1	6	5	noise_calib_stim_RIGHT.wav	2	31	blb_dichoticlistening_ta-ba.mp3	ta	ba	1	right
6.6.0	win	2023-06-27	16:26:54	16:43:29	988735	6277fb597942c07d74b16b98	1	1	main_slash	24	main_slash	95	stimuli_distractor_diamondtriangles.svg	stimuli_target_squaretriangles.svg	15	yes	53	1	471	6	4	antiphase_hc_sio.wav	1	6	5	noise_calib_stim_RIGHT.wav	2	31	blb_dichoticlistening_ta-ba.mp3	ta	ba	1	right
6.6.0	win	2023-06-27	16:26:54	16:43:29	988735	6277fb597942c07d74b16b98	1	1	main_slash	24	advance_on_keypress_SLASH	96	stimuli_distractor_diamondtriangles.svg	stimuli_target_squaretriangles.svg	15	yes	57	0	558	6	4	antiphase_hc_sio.wav	1	6	5	noise_calib_stim_RIGHT.wav	2	31	blb_dichoticlistening_ta-ba.mp3	ta	ba	1	right
6.6.0	win	2023-06-27	16:26:54	16:43:31	990818	6277fb597942c07d74b16b98	1	1	main_slash	24	main_slash	97	stimuli_distractor_diamondtriangles.svg	stimuli_target_trianglesquares.svg	30	yes	53	1	875	6	4	antiphase_hc_sio.wav	1	6	5	noise_calib_stim_RIGHT.wav	2	31	blb_dichoticlistening_ta-ba.mp3	ta	ba	1	right
6.6.0	win	2023-06-27	16:26:54	16:43:31	990818	6277fb597942c07d74b16b98	1	1	main_slash	24	advance_on_keypress_SLASH	98	stimuli_distractor_diamondtriangles.svg	stimuli_target_trianglesquares.svg	30	yes	57	0	558	6	4	antiphase_hc_sio.wav	1	6	5	noise_calib_stim_RIGHT.wav	2	31	blb_dichoticlistening_ta-ba.mp3	ta	ba	1	right
6.6.0	win	2023-06-27	16:26:54	16:43:33	992725	6277fb597942c07d74b16b98	1	1	main_slash	24	main_slash	99	stimuli_target_trianglesquares.svg	stimuli_distractor_trianglediamonds.svg	18	yes	53	1	715	6	4	antiphase_hc_sio.wav	1	6	5	noise_calib_stim_RIGHT.wav	2	31	blb_dichoticlistening_ta-ba.mp3	ta	ba	1	right
6.6.0	win	2023-06-27	16:26:54	16:43:33	992725	6277fb597942c07d74b16b98	1	1	main_slash	24	advance_on_keypress_SLASH	100	stimuli_target_trianglesquares.svg	stimuli_distractor_trianglediamonds.svg	18	yes	57	0	568	6	4	antiphase_hc_sio.wav	1	6	5	noise_calib_stim_RIGHT.wav	2	31	blb_dichoticlistening_ta-ba.mp3	ta	ba	1	right
6.6.0	win	2023-06-27	16:26:54	16:43:36	995938	6277fb597942c07d74b16b98	1	1	main_slash	24	main_slash	101	stimuli_distractor_diamondtriangles.svg	stimuli_distractor_trianglediamonds.svg	38	no	0	1	2000	6	4	antiphase_hc_sio.wav	1	6	5	noise_calib_stim_RIGHT.wav	2	31	blb_dichoticlistening_ta-ba.mp3	ta	ba	1	right
6.6.0	win	2023-06-27	16:26:54	16:43:36	995938	6277fb597942c07d74b16b98	1	1	main_slash	24	advance_on_keypress_SLASH	102	stimuli_distractor_diamondtriangles.svg	stimuli_distractor_trianglediamonds.svg	38	no	57	0	438	6	4	antiphase_hc_sio.wav	1	6	5	noise_calib_stim_RIGHT.wav	2	31	blb_dichoticlistening_ta-ba.mp3	ta	ba	1	right
6.6.0	win	2023-06-27	16:26:54	16:43:40	999032	6277fb597942c07d74b16b98	1	1	main_slash	24	main_slash	103	stimuli_distractor_trianglediamonds.svg	stimuli_distractor_trianglediamonds.svg	34	no	0	1	2000	6	4	antiphase_hc_sio.wav	1	6	5	noise_calib_stim_RIGHT.wav	2	31	blb_dichoticlistening_ta-ba.mp3	ta	ba	1	right
6.6.0	win	2023-06-27	16:26:54	16:43:40	999032	6277fb597942c07d74b16b98	1	1	main_slash	24	advance_on_keypress_SLASH	104	stimuli_distractor_trianglediamonds.svg	stimuli_distractor_trianglediamonds.svg	34	no	57	0	444	6	4	antiphase_hc_sio.wav	1	6	5	noise_calib_stim_RIGHT.wav	2	31	blb_dichoticlistening_ta-ba.mp3	ta	ba	1	right
6.6.0	win	2023-06-27	16:26:54	16:43:41	1000610	6277fb597942c07d74b16b98	1	1	main_slash	24	main_slash	105	stimuli_distractor_trianglediamonds.svg	stimuli_target_diamondrectangles.svg	27	yes	53	1	485	6	4	antiphase_hc_sio.wav	1	6	5	noise_calib_stim_RIGHT.wav	2	31	blb_dichoticlistening_ta-ba.mp3	ta	ba	1	right
6.6.0	win	2023-06-27	16:26:54	16:43:41	1000610	6277fb597942c07d74b16b98	1	1	main_slash	24	advance_on_keypress_SLASH	106	stimuli_distractor_trianglediamonds.svg	stimuli_target_diamondrectangles.svg	27	yes	57	0	622	6	4	antiphase_hc_sio.wav	1	6	5	noise_calib_stim_RIGHT.wav	2	31	blb_dichoticlistening_ta-ba.mp3	ta	ba	1	right
6.6.0	win	2023-06-27	16:26:54	16:43:43	1002377	6277fb597942c07d74b16b98	1	1	main_slash	24	main_slash	107	stimuli_target_squaretriangles.svg	stimuli_distractor_diamondtriangles.svg	7	yes	53	1	493	6	4	antiphase_hc_sio.wav	1	6	5	noise_calib_stim_RIGHT.wav	2	31	blb_dichoticlistening_ta-ba.mp3	ta	ba	1	right
6.6.0	win	2023-06-27	16:26:54	16:43:43	1002377	6277fb597942c07d74b16b98	1	1	main_slash	24	advance_on_keypress_SLASH	108	stimuli_target_squaretriangles.svg	stimuli_distractor_diamondtriangles.svg	7	yes	57	0	457	6	4	antiphase_hc_sio.wav	1	6	5	noise_calib_stim_RIGHT.wav	2	31	blb_dichoticlistening_ta-ba.mp3	ta	ba	1	right
6.6.0	win	2023-06-27	16:26:54	16:43:44	1003939	6277fb597942c07d74b16b98	1	1	main_slash	24	main_slash	109	stimuli_distractor_trianglediamonds.svg	stimuli_target_squaretriangles.svg	11	yes	53	1	465	6	4	antiphase_hc_sio.wav	1	6	5	noise_calib_stim_RIGHT.wav	2	31	blb_dichoticlistening_ta-ba.mp3	ta	ba	1	right
6.6.0	win	2023-06-27	16:26:54	16:43:44	1003939	6277fb597942c07d74b16b98	1	1	main_slash	24	advance_on_keypress_SLASH	110	stimuli_distractor_trianglediamonds.svg	stimuli_target_squaretriangles.svg	11	yes	57	0	464	6	4	antiphase_hc_sio.wav	1	6	5	noise_calib_stim_RIGHT.wav	2	31	blb_dichoticlistening_ta-ba.mp3	ta	ba	1	right
6.6.0	win	2023-06-27	16:26:54	16:43:46	1005620	6277fb597942c07d74b16b98	1	1	main_slash	24	main_slash	111	stimuli_target_trianglerectangles.svg	stimuli_distractor_trianglediamonds.svg	17	yes	53	1	570	6	4	antiphase_hc_sio.wav	1	6	5	noise_calib_stim_RIGHT.wav	2	31	blb_dichoticlistening_ta-ba.mp3	ta	ba	1	right
6.6.0	win	2023-06-27	16:26:54	16:43:46	1005620	6277fb597942c07d74b16b98	1	1	main_slash	24	advance_on_keypress_SLASH	112	stimuli_target_trianglerectangles.svg	stimuli_distractor_trianglediamonds.svg	17	yes	57	0	608	6	4	antiphase_hc_sio.wav	1	6	5	noise_calib_stim_RIGHT.wav	2	31	blb_dichoticlistening_ta-ba.mp3	ta	ba	1	right
6.6.0	win	2023-06-27	16:26:54	16:43:48	1007375	6277fb597942c07d74b16b98	1	1	main_slash	24	main_slash	113	stimuli_target_squaretriangles.svg	stimuli_distractor_trianglediamonds.svg	3	yes	53	1	494	6	4	antiphase_hc_sio.wav	1	6	5	noise_calib_stim_RIGHT.wav	2	31	blb_dichoticlistening_ta-ba.mp3	ta	ba	1	right
6.6.0	win	2023-06-27	16:26:54	16:43:48	1007375	6277fb597942c07d74b16b98	1	1	main_slash	24	advance_on_keypress_SLASH	114	stimuli_target_squaretriangles.svg	stimuli_distractor_trianglediamonds.svg	3	yes	57	0	927	6	4	antiphase_hc_sio.wav	1	6	5	noise_calib_stim_RIGHT.wav	2	31	blb_dichoticlistening_ta-ba.mp3	ta	ba	1	right
6.6.0	win	2023-06-27	16:26:54	16:43:52	1010963	6277fb597942c07d74b16b98	1	1	main_slash	24	main_slash	115	stimuli_distractor_diamondtriangles.svg	stimuli_distractor_diamondtriangles.svg	39	no	0	1	2000	6	4	antiphase_hc_sio.wav	1	6	5	noise_calib_stim_RIGHT.wav	2	31	blb_dichoticlistening_ta-ba.mp3	ta	ba	1	right
6.6.0	win	2023-06-27	16:26:54	16:43:52	1010963	6277fb597942c07d74b16b98	1	1	main_slash	24	advance_on_keypress_SLASH	116	stimuli_distractor_diamondtriangles.svg	stimuli_distractor_diamondtriangles.svg	39	no	57	0	577	6	4	antiphase_hc_sio.wav	1	6	5	noise_calib_stim_RIGHT.wav	2	31	blb_dichoticlistening_ta-ba.mp3	ta	ba	1	right
6.6.0	win	2023-06-27	16:26:54	16:43:53	1012592	6277fb597942c07d74b16b98	1	1	main_slash	24	main_slash	117	stimuli_target_trianglesquares.svg	stimuli_distractor_diamondtriangles.svg	22	yes	53	1	401	6	4	antiphase_hc_sio.wav	1	6	5	noise_calib_stim_RIGHT.wav	2	31	blb_dichoticlistening_ta-ba.mp3	ta	ba	1	right
6.6.0	win	2023-06-27	16:26:54	16:43:53	1012592	6277fb597942c07d74b16b98	1	1	main_slash	24	advance_on_keypress_SLASH	118	stimuli_target_trianglesquares.svg	stimuli_distractor_diamondtriangles.svg	22	yes	57	0	588	6	4	antiphase_hc_sio.wav	1	6	5	noise_calib_stim_RIGHT.wav	2	31	blb_dichoticlistening_ta-ba.mp3	ta	ba	1	right
6.6.0	win	2023-06-27	16:26:54	16:43:55	1014785	6277fb597942c07d74b16b98	1	1	main_slash	24	main_slash	119	stimuli_target_diamondrectangles.svg	stimuli_distractor_diamondtriangles.svg	23	yes	53	1	969	6	4	antiphase_hc_sio.wav	1	6	5	noise_calib_stim_RIGHT.wav	2	31	blb_dichoticlistening_ta-ba.mp3	ta	ba	1	right
6.6.0	win	2023-06-27	16:26:54	16:43:55	1014785	6277fb597942c07d74b16b98	1	1	main_slash	24	advance_on_keypress_SLASH	120	stimuli_target_diamondrectangles.svg	stimuli_distractor_diamondtriangles.svg	23	yes	57	0	642	6	4	antiphase_hc_sio.wav	1	6	5	noise_calib_stim_RIGHT.wav	2	31	blb_dichoticlistening_ta-ba.mp3	ta	ba	1	right
6.6.0	win	2023-06-27	16:26:54	16:43:57	1016681	6277fb597942c07d74b16b98	1	1	main_slash	24	main_slash	121	stimuli_distractor_trianglediamonds.svg	stimuli_distractor_diamondtriangles.svg	36	no	53	0	594	6	4	antiphase_hc_sio.wav	1	6	5	noise_calib_stim_RIGHT.wav	2	31	blb_dichoticlistening_ta-ba.mp3	ta	ba	1	right
6.6.0	win	2023-06-27	16:26:54	16:43:57	1016681	6277fb597942c07d74b16b98	1	1	main_slash	24	advance_on_keypress_SLASH	122	stimuli_distractor_trianglediamonds.svg	stimuli_distractor_diamondtriangles.svg	36	no	57	0	1474	6	4	antiphase_hc_sio.wav	1	6	5	noise_calib_stim_RIGHT.wav	2	31	blb_dichoticlistening_ta-ba.mp3	ta	ba	1	right
6.6.0	win	2023-06-27	16:26:54	16:44:00	1019244	6277fb597942c07d74b16b98	1	1	main_slash	24	main_slash	123	stimuli_target_rectanglediamonds.svg	stimuli_distractor_trianglediamonds.svg	2	yes	53	1	419	6	4	antiphase_hc_sio.wav	1	6	5	noise_calib_stim_RIGHT.wav	2	31	blb_dichoticlistening_ta-ba.mp3	ta	ba	1	right
6.6.0	win	2023-06-27	16:26:54	16:44:00	1019244	6277fb597942c07d74b16b98	1	1	main_slash	24	advance_on_keypress_SLASH	124	stimuli_target_rectanglediamonds.svg	stimuli_distractor_trianglediamonds.svg	2	yes	57	0	540	6	4	antiphase_hc_sio.wav	1	6	5	noise_calib_stim_RIGHT.wav	2	31	blb_dichoticlistening_ta-ba.mp3	ta	ba	1	right
6.6.0	win	2023-06-27	16:26:54	16:44:02	1021450	6277fb597942c07d74b16b98	1	1	main_slash	24	main_slash	125	stimuli_distractor_trianglediamonds.svg	stimuli_target_diamondsquares.svg	28	yes	53	1	1027	6	4	antiphase_hc_sio.wav	1	6	5	noise_calib_stim_RIGHT.wav	2	31	blb_dichoticlistening_ta-ba.mp3	ta	ba	1	right
6.6.0	win	2023-06-27	16:26:54	16:44:02	1021450	6277fb597942c07d74b16b98	1	1	main_slash	24	advance_on_keypress_SLASH	126	stimuli_distractor_trianglediamonds.svg	stimuli_target_diamondsquares.svg	28	yes	57	0	712	6	4	antiphase_hc_sio.wav	1	6	5	noise_calib_stim_RIGHT.wav	2	31	blb_dichoticlistening_ta-ba.mp3	ta	ba	1	right
6.6.0	win	2023-06-27	16:26:54	16:44:04	1023323	6277fb597942c07d74b16b98	1	1	main_slash	24	main_slash	127	stimuli_target_squarediamonds.svg	stimuli_distractor_trianglediamonds.svg	4	yes	53	1	504	6	4	antiphase_hc_sio.wav	1	6	5	noise_calib_stim_RIGHT.wav	2	31	blb_dichoticlistening_ta-ba.mp3	ta	ba	1	right
6.6.0	win	2023-06-27	16:26:54	16:44:04	1023323	6277fb597942c07d74b16b98	1	1	main_slash	24	advance_on_keypress_SLASH	128	stimuli_target_squarediamonds.svg	stimuli_distractor_trianglediamonds.svg	4	yes	57	0	477	6	4	antiphase_hc_sio.wav	1	6	5	noise_calib_stim_RIGHT.wav	2	31	blb_dichoticlistening_ta-ba.mp3	ta	ba	1	right
6.6.0	win	2023-06-27	16:26:54	16:44:05	1024870	6277fb597942c07d74b16b98	1	1	main_slash	24	main_slash	129	stimuli_distractor_trianglediamonds.svg	stimuli_target_trianglerectangles.svg	25	yes	53	1	424	6	4	antiphase_hc_sio.wav	1	6	5	noise_calib_stim_RIGHT.wav	2	31	blb_dichoticlistening_ta-ba.mp3	ta	ba	1	right
6.6.0	win	2023-06-27	16:26:54	16:44:05	1024870	6277fb597942c07d74b16b98	1	1	main_slash	24	advance_on_keypress_SLASH	130	stimuli_distractor_trianglediamonds.svg	stimuli_target_trianglerectangles.svg	25	yes	57	0	605	6	4	antiphase_hc_sio.wav	1	6	5	noise_calib_stim_RIGHT.wav	2	31	blb_dichoticlistening_ta-ba.mp3	ta	ba	1	right
6.6.0	win	2023-06-27	16:26:54	16:44:07	1026540	6277fb597942c07d74b16b98	1	1	main_slash	24	main_slash	131	stimuli_target_trianglerectangles.svg	stimuli_distractor_diamondtriangles.svg	21	yes	53	1	427	6	4	antiphase_hc_sio.wav	1	6	5	noise_calib_stim_RIGHT.wav	2	31	blb_dichoticlistening_ta-ba.mp3	ta	ba	1	right
6.6.0	win	2023-06-27	16:26:54	16:44:07	1026540	6277fb597942c07d74b16b98	1	1	main_slash	24	advance_on_keypress_SLASH	132	stimuli_target_trianglerectangles.svg	stimuli_distractor_diamondtriangles.svg	21	yes	57	0	419	6	4	antiphase_hc_sio.wav	1	6	5	noise_calib_stim_RIGHT.wav	2	31	blb_dichoticlistening_ta-ba.mp3	ta	ba	1	right
6.6.0	win	2023-06-27	16:26:54	16:44:09	1028011	6277fb597942c07d74b16b98	1	1	main_slash	24	main_slash	133	stimuli_distractor_trianglediamonds.svg	stimuli_target_rectanglediamonds.svg	10	yes	53	1	400	6	4	antiphase_hc_sio.wav	1	6	5	noise_calib_stim_RIGHT.wav	2	31	blb_dichoticlistening_ta-ba.mp3	ta	ba	1	right
6.6.0	win	2023-06-27	16:26:54	16:44:09	1028011	6277fb597942c07d74b16b98	1	1	main_slash	24	advance_on_keypress_SLASH	134	stimuli_distractor_trianglediamonds.svg	stimuli_target_rectanglediamonds.svg	10	yes	57	0	381	6	4	antiphase_hc_sio.wav	1	6	5	noise_calib_stim_RIGHT.wav	2	31	blb_dichoticlistening_ta-ba.mp3	ta	ba	1	right
6.6.0	win	2023-06-27	16:26:54	16:44:10	1029455	6277fb597942c07d74b16b98	1	1	main_slash	24	main_slash	135	stimuli_target_rectanglediamonds.svg	stimuli_distractor_diamondtriangles.svg	6	yes	53	1	410	6	4	antiphase_hc_sio.wav	1	6	5	noise_calib_stim_RIGHT.wav	2	31	blb_dichoticlistening_ta-ba.mp3	ta	ba	1	right
6.6.0	win	2023-06-27	16:26:54	16:44:10	1029455	6277fb597942c07d74b16b98	1	1	main_slash	24	advance_on_keypress_SLASH	136	stimuli_target_rectanglediamonds.svg	stimuli_distractor_diamondtriangles.svg	6	yes	57	0	385	6	4	antiphase_hc_sio.wav	1	6	5	noise_calib_stim_RIGHT.wav	2	31	blb_dichoticlistening_ta-ba.mp3	ta	ba	1	right
6.6.0	win	2023-06-27	16:26:54	16:44:11	1030891	6277fb597942c07d74b16b98	1	1	main_slash	24	main_slash	137	stimuli_distractor_diamondtriangles.svg	stimuli_target_squarediamonds.svg	16	yes	53	1	398	6	4	antiphase_hc_sio.wav	1	6	5	noise_calib_stim_RIGHT.wav	2	31	blb_dichoticlistening_ta-ba.mp3	ta	ba	1	right
6.6.0	win	2023-06-27	16:26:54	16:44:11	1030891	6277fb597942c07d74b16b98	1	1	main_slash	24	advance_on_keypress_SLASH	138	stimuli_distractor_diamondtriangles.svg	stimuli_target_squarediamonds.svg	16	yes	57	0	328	6	4	antiphase_hc_sio.wav	1	6	5	noise_calib_stim_RIGHT.wav	2	31	blb_dichoticlistening_ta-ba.mp3	ta	ba	1	right
6.6.0	win	2023-06-27	16:26:54	16:44:13	1032260	6277fb597942c07d74b16b98	1	1	main_slash	24	main_slash	139	stimuli_target_diamondrectangles.svg	stimuli_distractor_trianglediamonds.svg	19	yes	53	1	372	6	4	antiphase_hc_sio.wav	1	6	5	noise_calib_stim_RIGHT.wav	2	31	blb_dichoticlistening_ta-ba.mp3	ta	ba	1	right
6.6.0	win	2023-06-27	16:26:54	16:44:13	1032260	6277fb597942c07d74b16b98	1	1	main_slash	24	advance_on_keypress_SLASH	140	stimuli_target_diamondrectangles.svg	stimuli_distractor_trianglediamonds.svg	19	yes	57	0	1331	6	4	antiphase_hc_sio.wav	1	6	5	noise_calib_stim_RIGHT.wav	2	31	blb_dichoticlistening_ta-ba.mp3	ta	ba	1	right
6.6.0	win	2023-06-27	16:26:54	16:44:15	1034620	6277fb597942c07d74b16b98	1	1	main_slash	24	main_slash	141	stimuli_distractor_diamondtriangles.svg	stimuli_target_trianglerectangles.svg	29	yes	53	1	388	6	4	antiphase_hc_sio.wav	1	6	5	noise_calib_stim_RIGHT.wav	2	31	blb_dichoticlistening_ta-ba.mp3	ta	ba	1	right
6.6.0	win	2023-06-27	16:26:54	16:44:15	1034620	6277fb597942c07d74b16b98	1	1	main_slash	24	advance_on_keypress_SLASH	142	stimuli_distractor_diamondtriangles.svg	stimuli_target_trianglerectangles.svg	29	yes	57	0	701	6	4	antiphase_hc_sio.wav	1	6	5	noise_calib_stim_RIGHT.wav	2	31	blb_dichoticlistening_ta-ba.mp3	ta	ba	1	right
6.6.0	win	2023-06-27	16:26:54	16:44:17	1036357	6277fb597942c07d74b16b98	1	1	main_slash	24	main_slash	143	stimuli_distractor_diamondtriangles.svg	stimuli_target_rectangletriangles.svg	13	yes	53	1	382	6	4	antiphase_hc_sio.wav	1	6	5	noise_calib_stim_RIGHT.wav	2	31	blb_dichoticlistening_ta-ba.mp3	ta	ba	1	right
6.6.0	win	2023-06-27	16:26:54	16:44:17	1036357	6277fb597942c07d74b16b98	1	1	main_slash	24	advance_on_keypress_SLASH	144	stimuli_distractor_diamondtriangles.svg	stimuli_target_rectangletriangles.svg	13	yes	57	0	694	6	4	antiphase_hc_sio.wav	1	6	5	noise_calib_stim_RIGHT.wav	2	31	blb_dichoticlistening_ta-ba.mp3	ta	ba	1	right
6.6.0	win	2023-06-27	16:26:54	16:44:19	1038123	6277fb597942c07d74b16b98	1	1	main_slash	24	main_slash	145	stimuli_distractor_trianglediamonds.svg	stimuli_target_trianglesquares.svg	26	yes	53	1	427	6	4	antiphase_hc_sio.wav	1	6	5	noise_calib_stim_RIGHT.wav	2	31	blb_dichoticlistening_ta-ba.mp3	ta	ba	1	right
6.6.0	win	2023-06-27	16:26:54	16:44:19	1038123	6277fb597942c07d74b16b98	1	1	main_slash	24	advance_on_keypress_SLASH	146	stimuli_distractor_trianglediamonds.svg	stimuli_target_trianglesquares.svg	26	yes	57	0	765	6	4	antiphase_hc_sio.wav	1	6	5	noise_calib_stim_RIGHT.wav	2	31	blb_dichoticlistening_ta-ba.mp3	ta	ba	1	right
6.6.0	win	2023-06-27	16:26:54	16:44:21	1039998	6277fb597942c07d74b16b98	1	1	main_slash	24	main_slash	147	stimuli_distractor_trianglediamonds.svg	stimuli_target_rectangletriangles.svg	9	yes	53	1	455	6	4	antiphase_hc_sio.wav	1	6	5	noise_calib_stim_RIGHT.wav	2	31	blb_dichoticlistening_ta-ba.mp3	ta	ba	1	right
6.6.0	win	2023-06-27	16:26:54	16:44:21	1039998	6277fb597942c07d74b16b98	1	1	main_slash	24	advance_on_keypress_SLASH	148	stimuli_distractor_trianglediamonds.svg	stimuli_target_rectangletriangles.svg	9	yes	57	0	534	6	4	antiphase_hc_sio.wav	1	6	5	noise_calib_stim_RIGHT.wav	2	31	blb_dichoticlistening_ta-ba.mp3	ta	ba	1	right
6.6.0	win	2023-06-27	16:26:54	16:44:22	1041594	6277fb597942c07d74b16b98	1	1	main_slash	24	main_slash	149	stimuli_target_rectangletriangles.svg	stimuli_distractor_trianglediamonds.svg	1	yes	53	1	416	6	4	antiphase_hc_sio.wav	1	6	5	noise_calib_stim_RIGHT.wav	2	31	blb_dichoticlistening_ta-ba.mp3	ta	ba	1	right
6.6.0	win	2023-06-27	16:26:54	16:44:22	1041594	6277fb597942c07d74b16b98	1	1	main_slash	24	advance_on_keypress_SLASH	150	stimuli_target_rectangletriangles.svg	stimuli_distractor_trianglediamonds.svg	1	yes	57	0	486	6	4	antiphase_hc_sio.wav	1	6	5	noise_calib_stim_RIGHT.wav	2	31	blb_dichoticlistening_ta-ba.mp3	ta	ba	1	right
6.6.0	win	2023-06-27	16:26:54	16:44:24	1043140	6277fb597942c07d74b16b98	1	1	main_slash	24	main_slash	151	stimuli_target_squarediamonds.svg	stimuli_distractor_diamondtriangles.svg	8	yes	53	1	402	6	4	antiphase_hc_sio.wav	1	6	5	noise_calib_stim_RIGHT.wav	2	31	blb_dichoticlistening_ta-ba.mp3	ta	ba	1	right
6.6.0	win	2023-06-27	16:26:54	16:44:24	1043140	6277fb597942c07d74b16b98	1	1	main_slash	24	advance_on_keypress_SLASH	152	stimuli_target_squarediamonds.svg	stimuli_distractor_diamondtriangles.svg	8	yes	57	0	1215	6	4	antiphase_hc_sio.wav	1	6	5	noise_calib_stim_RIGHT.wav	2	31	blb_dichoticlistening_ta-ba.mp3	ta	ba	1	right
6.6.0	win	2023-06-27	16:26:54	16:44:26	1045349	6277fb597942c07d74b16b98	1	1	main_slash	24	main_slash	153	stimuli_distractor_diamondtriangles.svg	stimuli_target_diamondrectangles.svg	31	yes	53	1	355	6	4	antiphase_hc_sio.wav	1	6	5	noise_calib_stim_RIGHT.wav	2	31	blb_dichoticlistening_ta-ba.mp3	ta	ba	1	right
6.6.0	win	2023-06-27	16:26:54	16:44:26	1045349	6277fb597942c07d74b16b98	1	1	main_slash	24	advance_on_keypress_SLASH	154	stimuli_distractor_diamondtriangles.svg	stimuli_target_diamondrectangles.svg	31	yes	57	0	560	6	4	antiphase_hc_sio.wav	1	6	5	noise_calib_stim_RIGHT.wav	2	31	blb_dichoticlistening_ta-ba.mp3	ta	ba	1	right
6.6.0	win	2023-06-27	16:26:54	16:44:28	1046993	6277fb597942c07d74b16b98	1	1	main_slash	24	main_slash	155	stimuli_target_diamondsquares.svg	stimuli_distractor_trianglediamonds.svg	20	yes	53	1	434	6	4	antiphase_hc_sio.wav	1	6	5	noise_calib_stim_RIGHT.wav	2	31	blb_dichoticlistening_ta-ba.mp3	ta	ba	1	right
6.6.0	win	2023-06-27	16:26:54	16:44:28	1046993	6277fb597942c07d74b16b98	1	1	main_slash	24	advance_on_keypress_SLASH	156	stimuli_target_diamondsquares.svg	stimuli_distractor_trianglediamonds.svg	20	yes	57	0	412	6	4	antiphase_hc_sio.wav	1	6	5	noise_calib_stim_RIGHT.wav	2	31	blb_dichoticlistening_ta-ba.mp3	ta	ba	1	right
6.6.0	win	2023-06-27	16:26:54	16:44:29	1048475	6277fb597942c07d74b16b98	1	1	main_slash	24	main_slash	157	stimuli_distractor_diamondtriangles.svg	stimuli_distractor_diamondtriangles.svg	40	no	53	0	416	6	4	antiphase_hc_sio.wav	1	6	5	noise_calib_stim_RIGHT.wav	2	31	blb_dichoticlistening_ta-ba.mp3	ta	ba	1	right
6.6.0	win	2023-06-27	16:26:54	16:44:29	1048475	6277fb597942c07d74b16b98	1	1	main_slash	24	advance_on_keypress_SLASH	158	stimuli_distractor_diamondtriangles.svg	stimuli_distractor_diamondtriangles.svg	40	no	57	0	490	6	4	antiphase_hc_sio.wav	1	6	5	noise_calib_stim_RIGHT.wav	2	31	blb_dichoticlistening_ta-ba.mp3	ta	ba	1	right
6.6.0	win	2023-06-27	16:26:54	16:44:31	1050139	6277fb597942c07d74b16b98	1	1	main_slash	24	main_slash	159	stimuli_distractor_trianglediamonds.svg	stimuli_target_squarediamonds.svg	12	yes	53	1	505	6	4	antiphase_hc_sio.wav	1	6	5	noise_calib_stim_RIGHT.wav	2	31	blb_dichoticlistening_ta-ba.mp3	ta	ba	1	right
6.6.0	win	2023-06-27	16:26:54	16:44:31	1050139	6277fb597942c07d74b16b98	1	1	main_slash	24	advance_on_keypress_SLASH	160	stimuli_distractor_trianglediamonds.svg	stimuli_target_squarediamonds.svg	12	yes	57	0	449	6	4	antiphase_hc_sio.wav	1	6	5	noise_calib_stim_RIGHT.wav	2	31	blb_dichoticlistening_ta-ba.mp3	ta	ba	1	right
6.6.0	win	2023-06-27	16:26:54	16:44:41	1060259	6277fb597942c07d74b16b98	1	1	practice_z	26	practice_z	1	stimuli_distractor_trianglediamonds.svg	stimuli_target_rectanglediamonds.svg	10	yes	44	1	546	6	4	antiphase_hc_sio.wav	1	6	5	noise_calib_stim_RIGHT.wav	2	31	blb_dichoticlistening_ta-ba.mp3	ta	ba	1	right
6.6.0	win	2023-06-27	16:26:54	16:44:41	1060259	6277fb597942c07d74b16b98	1	1	practice_z	26	advance_on_keypress_ZEE	2	stimuli_distractor_trianglediamonds.svg	stimuli_target_rectanglediamonds.svg	10	yes	57	0	526	6	4	antiphase_hc_sio.wav	1	6	5	noise_calib_stim_RIGHT.wav	2	31	blb_dichoticlistening_ta-ba.mp3	ta	ba	1	right
6.6.0	win	2023-06-27	16:26:54	16:44:43	1062822	6277fb597942c07d74b16b98	1	1	practice_z	26	practice_z	3	stimuli_target_squarediamonds.svg	stimuli_distractor_diamondtriangles.svg	2	yes	44	1	383	6	4	antiphase_hc_sio.wav	1	6	5	noise_calib_stim_RIGHT.wav	2	31	blb_dichoticlistening_ta-ba.mp3	ta	ba	1	right
6.6.0	win	2023-06-27	16:26:54	16:44:43	1062822	6277fb597942c07d74b16b98	1	1	practice_z	26	advance_on_keypress_ZEE	4	stimuli_target_squarediamonds.svg	stimuli_distractor_diamondtriangles.svg	2	yes	57	0	513	6	4	antiphase_hc_sio.wav	1	6	5	noise_calib_stim_RIGHT.wav	2	31	blb_dichoticlistening_ta-ba.mp3	ta	ba	1	right
6.6.0	win	2023-06-27	16:26:54	16:44:46	1065506	6277fb597942c07d74b16b98	1	1	practice_z	26	practice_z	5	stimuli_distractor_diamondtriangles.svg	stimuli_target_trianglerectangles.svg	9	yes	44	1	518	6	4	antiphase_hc_sio.wav	1	6	5	noise_calib_stim_RIGHT.wav	2	31	blb_dichoticlistening_ta-ba.mp3	ta	ba	1	right
6.6.0	win	2023-06-27	16:26:54	16:44:46	1065506	6277fb597942c07d74b16b98	1	1	practice_z	26	advance_on_keypress_ZEE	6	stimuli_distractor_diamondtriangles.svg	stimuli_target_trianglerectangles.svg	9	yes	57	0	478	6	4	antiphase_hc_sio.wav	1	6	5	noise_calib_stim_RIGHT.wav	2	31	blb_dichoticlistening_ta-ba.mp3	ta	ba	1	right
6.6.0	win	2023-06-27	16:26:54	16:44:49	1068047	6277fb597942c07d74b16b98	1	1	practice_z	26	practice_z	7	stimuli_distractor_diamondtriangles.svg	stimuli_distractor_diamondtriangles.svg	13	no	44	0	403	6	4	antiphase_hc_sio.wav	1	6	5	noise_calib_stim_RIGHT.wav	2	31	blb_dichoticlistening_ta-ba.mp3	ta	ba	1	right
6.6.0	win	2023-06-27	16:26:54	16:44:49	1068047	6277fb597942c07d74b16b98	1	1	practice_z	26	advance_on_keypress_ZEE	8	stimuli_distractor_diamondtriangles.svg	stimuli_distractor_diamondtriangles.svg	13	no	57	0	462	6	4	antiphase_hc_sio.wav	1	6	5	noise_calib_stim_RIGHT.wav	2	31	blb_dichoticlistening_ta-ba.mp3	ta	ba	1	right
6.6.0	win	2023-06-27	16:26:54	16:44:52	1071113	6277fb597942c07d74b16b98	1	1	practice_z	26	practice_z	9	stimuli_distractor_diamondtriangles.svg	stimuli_target_diamondrectangles.svg	8	yes	44	1	965	6	4	antiphase_hc_sio.wav	1	6	5	noise_calib_stim_RIGHT.wav	2	31	blb_dichoticlistening_ta-ba.mp3	ta	ba	1	right
6.6.0	win	2023-06-27	16:26:54	16:44:52	1071113	6277fb597942c07d74b16b98	1	1	practice_z	26	advance_on_keypress_ZEE	10	stimuli_distractor_diamondtriangles.svg	stimuli_target_diamondrectangles.svg	8	yes	57	0	672	6	4	antiphase_hc_sio.wav	1	6	5	noise_calib_stim_RIGHT.wav	2	31	blb_dichoticlistening_ta-ba.mp3	ta	ba	1	right
6.6.0	win	2023-06-27	16:26:54	16:44:55	1074744	6277fb597942c07d74b16b98	1	1	practice_z	26	practice_z	11	stimuli_distractor_diamondtriangles.svg	stimuli_target_rectangletriangles.svg	7	yes	44	1	1299	6	4	antiphase_hc_sio.wav	1	6	5	noise_calib_stim_RIGHT.wav	2	31	blb_dichoticlistening_ta-ba.mp3	ta	ba	1	right
6.6.0	win	2023-06-27	16:26:54	16:44:55	1074744	6277fb597942c07d74b16b98	1	1	practice_z	26	advance_on_keypress_ZEE	12	stimuli_distractor_diamondtriangles.svg	stimuli_target_rectangletriangles.svg	7	yes	57	0	620	6	4	antiphase_hc_sio.wav	1	6	5	noise_calib_stim_RIGHT.wav	2	31	blb_dichoticlistening_ta-ba.mp3	ta	ba	1	right
6.6.0	win	2023-06-27	16:26:54	16:44:58	1077547	6277fb597942c07d74b16b98	1	1	practice_z	26	practice_z	13	stimuli_target_squarediamonds.svg	stimuli_distractor_trianglediamonds.svg	5	yes	44	1	526	6	4	antiphase_hc_sio.wav	1	6	5	noise_calib_stim_RIGHT.wav	2	31	blb_dichoticlistening_ta-ba.mp3	ta	ba	1	right
6.6.0	win	2023-06-27	16:26:54	16:44:58	1077547	6277fb597942c07d74b16b98	1	1	practice_z	26	advance_on_keypress_ZEE	14	stimuli_target_squarediamonds.svg	stimuli_distractor_trianglediamonds.svg	5	yes	57	0	670	6	4	antiphase_hc_sio.wav	1	6	5	noise_calib_stim_RIGHT.wav	2	31	blb_dichoticlistening_ta-ba.mp3	ta	ba	1	right
