build	computer.platform	date	time	timestamp	time_elapsed_ms	subject	group	session	blockcode	blocknum	trialcode	trialnum	stimulus_left	stimulus_right	stim_index	target_present	response	correct	latency	headphonecheck_countTestTrials	headphonecheck_index	headphonecheck_testSound	headphonecheck_correctResponse	stereocheck_countTestTrials	stereocheck_index	stereocheck_testSound	stereocheck_correctResponse	DL_index	DL_soundfile	DL_leftSound	DL_rightSound	DL_dualSound	DL_choice
6.6.1	win	2023-06-26	23:07:56	23:11:58	236139	5c9d88bb2b3c77001744ec1c	4	1	practice_z	5	practice_z	1	stimuli_distractor_trianglediamonds.svg	stimuli_distractor_trianglediamonds.svg	15	no	0	1	2000	0	0			0	0			1				0	
6.6.1	win	2023-06-26	23:07:56	23:11:58	236139	5c9d88bb2b3c77001744ec1c	4	1	practice_z	5	advance_on_keypress_ZEE	2	stimuli_distractor_trianglediamonds.svg	stimuli_distractor_trianglediamonds.svg	15	no	57	0	1469	0	0			0	0			1				0	
6.6.1	win	2023-06-26	23:07:56	23:12:02	240224	5c9d88bb2b3c77001744ec1c	4	1	practice_z	5	practice_z	3	stimuli_distractor_diamondtriangles.svg	stimuli_target_rectangletriangles.svg	7	yes	44	1	963	0	0			0	0			1				0	
6.6.1	win	2023-06-26	23:07:56	23:12:02	240224	5c9d88bb2b3c77001744ec1c	4	1	practice_z	5	advance_on_keypress_ZEE	4	stimuli_distractor_diamondtriangles.svg	stimuli_target_rectangletriangles.svg	7	yes	57	0	1101	0	0			0	0			1				0	
6.6.1	win	2023-06-26	23:07:56	23:12:06	244981	5c9d88bb2b3c77001744ec1c	4	1	practice_z	5	practice_z	5	stimuli_distractor_trianglediamonds.svg	stimuli_target_diamondrectangles.svg	12	yes	0	0	2000	0	0			0	0			1				0	
6.6.1	win	2023-06-26	23:07:56	23:12:06	244981	5c9d88bb2b3c77001744ec1c	4	1	practice_z	5	advance_on_keypress_ZEE	6	stimuli_distractor_trianglediamonds.svg	stimuli_target_diamondrectangles.svg	12	yes	57	0	1869	0	0			0	0			1				0	
6.6.1	win	2023-06-26	23:07:56	23:12:12	250421	5c9d88bb2b3c77001744ec1c	4	1	practice_z	5	practice_z	7	stimuli_target_rectanglediamonds.svg	stimuli_distractor_diamondtriangles.svg	1	yes	44	1	1917	0	0			0	0			1				0	
6.6.1	win	2023-06-26	23:07:56	23:12:12	250421	5c9d88bb2b3c77001744ec1c	4	1	practice_z	5	advance_on_keypress_ZEE	8	stimuli_target_rectanglediamonds.svg	stimuli_distractor_diamondtriangles.svg	1	yes	57	0	616	0	0			0	0			1				0	
6.6.1	win	2023-06-26	23:07:56	23:12:15	254042	5c9d88bb2b3c77001744ec1c	4	1	practice_z	5	practice_z	9	stimuli_target_diamondsquares.svg	stimuli_distractor_trianglediamonds.svg	6	yes	44	1	1348	0	0			0	0			1				0	
6.6.1	win	2023-06-26	23:07:56	23:12:15	254042	5c9d88bb2b3c77001744ec1c	4	1	practice_z	5	advance_on_keypress_ZEE	10	stimuli_target_diamondsquares.svg	stimuli_distractor_trianglediamonds.svg	6	yes	57	0	1314	0	0			0	0			1				0	
6.6.1	win	2023-06-26	23:07:56	23:12:20	259012	5c9d88bb2b3c77001744ec1c	4	1	practice_z	5	practice_z	11	stimuli_distractor_diamondtriangles.svg	stimuli_distractor_diamondtriangles.svg	13	no	0	1	2000	0	0			0	0			1				0	
6.6.1	win	2023-06-26	23:07:56	23:12:20	259012	5c9d88bb2b3c77001744ec1c	4	1	practice_z	5	advance_on_keypress_ZEE	12	stimuli_distractor_diamondtriangles.svg	stimuli_distractor_diamondtriangles.svg	13	no	57	0	993	0	0			0	0			1				0	
6.6.1	win	2023-06-26	23:07:56	23:12:24	262701	5c9d88bb2b3c77001744ec1c	4	1	practice_z	5	practice_z	13	stimuli_distractor_diamondtriangles.svg	stimuli_target_diamondrectangles.svg	8	yes	44	1	1034	0	0			0	0			1				0	
6.6.1	win	2023-06-26	23:07:56	23:12:24	262701	5c9d88bb2b3c77001744ec1c	4	1	practice_z	5	advance_on_keypress_ZEE	14	stimuli_distractor_diamondtriangles.svg	stimuli_target_diamondrectangles.svg	8	yes	57	0	713	0	0			0	0			1				0	
6.6.1	win	2023-06-26	23:07:56	23:12:27	266014	5c9d88bb2b3c77001744ec1c	4	1	practice_z	5	practice_z	15	stimuli_target_diamondsquares.svg	stimuli_distractor_diamondtriangles.svg	3	yes	44	1	944	0	0			0	0			1				0	
6.6.1	win	2023-06-26	23:07:56	23:12:27	266014	5c9d88bb2b3c77001744ec1c	4	1	practice_z	5	advance_on_keypress_ZEE	16	stimuli_target_diamondsquares.svg	stimuli_distractor_diamondtriangles.svg	3	yes	57	0	508	0	0			0	0			1				0	
6.6.1	win	2023-06-26	23:07:56	23:12:31	269215	5c9d88bb2b3c77001744ec1c	4	1	practice_z	5	practice_z	17	stimuli_distractor_trianglediamonds.svg	stimuli_target_rectanglediamonds.svg	10	yes	44	1	1025	0	0			0	0			1				0	
6.6.1	win	2023-06-26	23:07:56	23:12:31	269215	5c9d88bb2b3c77001744ec1c	4	1	practice_z	5	advance_on_keypress_ZEE	18	stimuli_distractor_trianglediamonds.svg	stimuli_target_rectanglediamonds.svg	10	yes	57	0	1421	0	0			0	0			1				0	
6.6.1	win	2023-06-26	23:07:56	23:12:36	274277	5c9d88bb2b3c77001744ec1c	4	1	practice_z	5	practice_z	19	stimuli_distractor_trianglediamonds.svg	stimuli_distractor_diamondtriangles.svg	16	no	0	1	2000	0	0			0	0			1				0	
6.6.1	win	2023-06-26	23:07:56	23:12:36	274277	5c9d88bb2b3c77001744ec1c	4	1	practice_z	5	advance_on_keypress_ZEE	20	stimuli_distractor_trianglediamonds.svg	stimuli_distractor_diamondtriangles.svg	16	no	57	0	937	0	0			0	0			1				0	
6.6.1	win	2023-06-26	23:07:56	23:12:40	278865	5c9d88bb2b3c77001744ec1c	4	1	practice_z	5	practice_z	21	stimuli_distractor_diamondtriangles.svg	stimuli_distractor_trianglediamonds.svg	14	no	0	1	2000	0	0			0	0			1				0	
6.6.1	win	2023-06-26	23:07:56	23:12:40	278865	5c9d88bb2b3c77001744ec1c	4	1	practice_z	5	advance_on_keypress_ZEE	22	stimuli_distractor_diamondtriangles.svg	stimuli_distractor_trianglediamonds.svg	14	no	57	0	841	0	0			0	0			1				0	
6.6.1	win	2023-06-26	23:07:56	23:12:44	282120	5c9d88bb2b3c77001744ec1c	4	1	practice_z	5	practice_z	23	stimuli_distractor_trianglediamonds.svg	stimuli_target_squarediamonds.svg	11	yes	44	1	749	0	0			0	0			1				0	
6.6.1	win	2023-06-26	23:07:56	23:12:44	282120	5c9d88bb2b3c77001744ec1c	4	1	practice_z	5	advance_on_keypress_ZEE	24	stimuli_distractor_trianglediamonds.svg	stimuli_target_squarediamonds.svg	11	yes	57	0	506	0	0			0	0			1				0	
6.6.1	win	2023-06-26	23:07:56	23:12:47	285322	5c9d88bb2b3c77001744ec1c	4	1	practice_z	5	practice_z	25	stimuli_target_rectanglediamonds.svg	stimuli_distractor_trianglediamonds.svg	4	yes	44	1	1048	0	0			0	0			1				0	
6.6.1	win	2023-06-26	23:07:56	23:12:47	285322	5c9d88bb2b3c77001744ec1c	4	1	practice_z	5	advance_on_keypress_ZEE	26	stimuli_target_rectanglediamonds.svg	stimuli_distractor_trianglediamonds.svg	4	yes	57	0	395	0	0			0	0			1				0	
6.6.1	win	2023-06-26	23:07:56	23:12:50	288508	5c9d88bb2b3c77001744ec1c	4	1	practice_z	5	practice_z	27	stimuli_target_squarediamonds.svg	stimuli_distractor_trianglediamonds.svg	5	yes	44	1	1131	0	0			0	0			1				0	
6.6.1	win	2023-06-26	23:07:56	23:12:50	288508	5c9d88bb2b3c77001744ec1c	4	1	practice_z	5	advance_on_keypress_ZEE	28	stimuli_target_squarediamonds.svg	stimuli_distractor_trianglediamonds.svg	5	yes	57	0	560	0	0			0	0			1				0	
6.6.1	win	2023-06-26	23:07:56	23:12:53	291734	5c9d88bb2b3c77001744ec1c	4	1	practice_z	5	practice_z	29	stimuli_distractor_diamondtriangles.svg	stimuli_target_trianglerectangles.svg	9	yes	44	1	1005	0	0			0	0			1				0	
6.6.1	win	2023-06-26	23:07:56	23:12:53	291734	5c9d88bb2b3c77001744ec1c	4	1	practice_z	5	advance_on_keypress_ZEE	30	stimuli_distractor_diamondtriangles.svg	stimuli_target_trianglerectangles.svg	9	yes	57	0	2604	0	0			0	0			1				0	
6.6.1	win	2023-06-26	23:07:56	23:12:58	296839	5c9d88bb2b3c77001744ec1c	4	1	practice_z	5	practice_z	31	stimuli_target_squarediamonds.svg	stimuli_distractor_diamondtriangles.svg	2	yes	44	1	855	0	0			0	0			1				0	
6.6.1	win	2023-06-26	23:07:56	23:12:58	296839	5c9d88bb2b3c77001744ec1c	4	1	practice_z	5	advance_on_keypress_ZEE	32	stimuli_target_squarediamonds.svg	stimuli_distractor_diamondtriangles.svg	2	yes	57	0	410	0	0			0	0			1				0	
6.6.1	win	2023-06-26	23:07:56	23:13:15	313458	5c9d88bb2b3c77001744ec1c	4	1	main_z	7	main_z	1	stimuli_target_squaretriangles.svg	stimuli_distractor_trianglediamonds.svg	3	yes	44	1	891	0	0			0	0			1				0	
6.6.1	win	2023-06-26	23:07:56	23:13:15	313458	5c9d88bb2b3c77001744ec1c	4	1	main_z	7	advance_on_keypress_ZEE	2	stimuli_target_squaretriangles.svg	stimuli_distractor_trianglediamonds.svg	3	yes	57	0	3268	0	0			0	0			1				0	
6.6.1	win	2023-06-26	23:07:56	23:13:20	318579	5c9d88bb2b3c77001744ec1c	4	1	main_z	7	main_z	3	stimuli_distractor_trianglediamonds.svg	stimuli_target_squaretriangles.svg	11	yes	44	1	1190	0	0			0	0			1				0	
6.6.1	win	2023-06-26	23:07:56	23:13:20	318579	5c9d88bb2b3c77001744ec1c	4	1	main_z	7	advance_on_keypress_ZEE	4	stimuli_distractor_trianglediamonds.svg	stimuli_target_squaretriangles.svg	11	yes	57	0	1050	0	0			0	0			1				0	
6.6.1	win	2023-06-26	23:07:56	23:13:23	321224	5c9d88bb2b3c77001744ec1c	4	1	main_z	7	main_z	5	stimuli_distractor_diamondtriangles.svg	stimuli_target_rectangletriangles.svg	13	yes	44	1	948	0	0			0	0			1				0	
6.6.1	win	2023-06-26	23:07:56	23:13:23	321224	5c9d88bb2b3c77001744ec1c	4	1	main_z	7	advance_on_keypress_ZEE	6	stimuli_distractor_diamondtriangles.svg	stimuli_target_rectangletriangles.svg	13	yes	57	0	963	0	0			0	0			1				0	
6.6.1	win	2023-06-26	23:07:56	23:13:25	323685	5c9d88bb2b3c77001744ec1c	4	1	main_z	7	main_z	7	stimuli_target_squarediamonds.svg	stimuli_distractor_diamondtriangles.svg	8	yes	44	1	841	0	0			0	0			1				0	
6.6.1	win	2023-06-26	23:07:56	23:13:25	323685	5c9d88bb2b3c77001744ec1c	4	1	main_z	7	advance_on_keypress_ZEE	8	stimuli_target_squarediamonds.svg	stimuli_distractor_diamondtriangles.svg	8	yes	57	0	1247	0	0			0	0			1				0	
6.6.1	win	2023-06-26	23:07:56	23:13:29	327579	5c9d88bb2b3c77001744ec1c	4	1	main_z	7	main_z	9	stimuli_distractor_diamondtriangles.svg	stimuli_distractor_trianglediamonds.svg	38	no	0	1	2000	0	0			0	0			1				0	
6.6.1	win	2023-06-26	23:07:56	23:13:29	327579	5c9d88bb2b3c77001744ec1c	4	1	main_z	7	advance_on_keypress_ZEE	10	stimuli_distractor_diamondtriangles.svg	stimuli_distractor_trianglediamonds.svg	38	no	57	0	696	0	0			0	0			1				0	
6.6.1	win	2023-06-26	23:07:56	23:13:32	330482	5c9d88bb2b3c77001744ec1c	4	1	main_z	7	main_z	11	stimuli_distractor_trianglediamonds.svg	stimuli_target_trianglerectangles.svg	25	yes	44	1	1548	0	0			0	0			1				0	
6.6.1	win	2023-06-26	23:07:56	23:13:32	330482	5c9d88bb2b3c77001744ec1c	4	1	main_z	7	advance_on_keypress_ZEE	12	stimuli_distractor_trianglediamonds.svg	stimuli_target_trianglerectangles.svg	25	yes	57	0	1450	0	0			0	0			1				0	
6.6.1	win	2023-06-26	23:07:56	23:13:35	333637	5c9d88bb2b3c77001744ec1c	4	1	main_z	7	main_z	13	stimuli_target_rectanglediamonds.svg	stimuli_distractor_trianglediamonds.svg	2	yes	44	1	1049	0	0			0	0			1				0	
6.6.1	win	2023-06-26	23:07:56	23:13:35	333637	5c9d88bb2b3c77001744ec1c	4	1	main_z	7	advance_on_keypress_ZEE	14	stimuli_target_rectanglediamonds.svg	stimuli_distractor_trianglediamonds.svg	2	yes	57	0	1546	0	0			0	0			1				0	
6.6.1	win	2023-06-26	23:07:56	23:13:38	336925	5c9d88bb2b3c77001744ec1c	4	1	main_z	7	main_z	15	stimuli_distractor_diamondtriangles.svg	stimuli_target_squaretriangles.svg	15	yes	44	1	1083	0	0			0	0			1				0	
6.6.1	win	2023-06-26	23:07:56	23:13:38	336925	5c9d88bb2b3c77001744ec1c	4	1	main_z	7	advance_on_keypress_ZEE	16	stimuli_distractor_diamondtriangles.svg	stimuli_target_squaretriangles.svg	15	yes	57	0	823	0	0			0	0			1				0	
6.6.1	win	2023-06-26	23:07:56	23:13:41	339481	5c9d88bb2b3c77001744ec1c	4	1	main_z	7	main_z	17	stimuli_distractor_trianglediamonds.svg	stimuli_target_rectangletriangles.svg	9	yes	44	1	1088	0	0			0	0			1				0	
6.6.1	win	2023-06-26	23:07:56	23:13:41	339481	5c9d88bb2b3c77001744ec1c	4	1	main_z	7	advance_on_keypress_ZEE	18	stimuli_distractor_trianglediamonds.svg	stimuli_target_rectangletriangles.svg	9	yes	57	0	812	0	0			0	0			1				0	
6.6.1	win	2023-06-26	23:07:56	23:13:43	341935	5c9d88bb2b3c77001744ec1c	4	1	main_z	7	main_z	19	stimuli_target_trianglesquares.svg	stimuli_distractor_trianglediamonds.svg	18	yes	44	1	989	0	0			0	0			1				0	
6.6.1	win	2023-06-26	23:07:56	23:13:43	341935	5c9d88bb2b3c77001744ec1c	4	1	main_z	7	advance_on_keypress_ZEE	20	stimuli_target_trianglesquares.svg	stimuli_distractor_trianglediamonds.svg	18	yes	57	0	781	0	0			0	0			1				0	
6.6.1	win	2023-06-26	23:07:56	23:13:47	345364	5c9d88bb2b3c77001744ec1c	4	1	main_z	7	main_z	21	stimuli_distractor_trianglediamonds.svg	stimuli_distractor_diamondtriangles.svg	36	no	0	1	2000	0	0			0	0			1				0	
6.6.1	win	2023-06-26	23:07:56	23:13:47	345364	5c9d88bb2b3c77001744ec1c	4	1	main_z	7	advance_on_keypress_ZEE	22	stimuli_distractor_trianglediamonds.svg	stimuli_distractor_diamondtriangles.svg	36	no	57	0	1050	0	0			0	0			1				0	
6.6.1	win	2023-06-26	23:07:56	23:13:51	349068	5c9d88bb2b3c77001744ec1c	4	1	main_z	7	main_z	23	stimuli_distractor_diamondtriangles.svg	stimuli_target_trianglesquares.svg	30	yes	0	0	2000	0	0			0	0			1				0	
6.6.1	win	2023-06-26	23:07:56	23:13:51	349068	5c9d88bb2b3c77001744ec1c	4	1	main_z	7	advance_on_keypress_ZEE	24	stimuli_distractor_diamondtriangles.svg	stimuli_target_trianglesquares.svg	30	yes	57	0	1484	0	0			0	0			1				0	
6.6.1	win	2023-06-26	23:07:56	23:13:54	352113	5c9d88bb2b3c77001744ec1c	4	1	main_z	7	main_z	25	stimuli_target_rectangletriangles.svg	stimuli_distractor_diamondtriangles.svg	5	yes	44	1	908	0	0			0	0			1				0	
6.6.1	win	2023-06-26	23:07:56	23:13:54	352113	5c9d88bb2b3c77001744ec1c	4	1	main_z	7	advance_on_keypress_ZEE	26	stimuli_target_rectangletriangles.svg	stimuli_distractor_diamondtriangles.svg	5	yes	57	0	892	0	0			0	0			1				0	
6.6.1	win	2023-06-26	23:07:56	23:13:56	354638	5c9d88bb2b3c77001744ec1c	4	1	main_z	7	main_z	27	stimuli_target_trianglesquares.svg	stimuli_distractor_diamondtriangles.svg	22	yes	44	1	980	0	0			0	0			1				0	
6.6.1	win	2023-06-26	23:07:56	23:13:56	354638	5c9d88bb2b3c77001744ec1c	4	1	main_z	7	advance_on_keypress_ZEE	28	stimuli_target_trianglesquares.svg	stimuli_distractor_diamondtriangles.svg	22	yes	57	0	882	0	0			0	0			1				0	
6.6.1	win	2023-06-26	23:07:56	23:13:59	357368	5c9d88bb2b3c77001744ec1c	4	1	main_z	7	main_z	29	stimuli_distractor_trianglediamonds.svg	stimuli_target_rectanglediamonds.svg	10	yes	44	1	1191	0	0			0	0			1				0	
6.6.1	win	2023-06-26	23:07:56	23:13:59	357368	5c9d88bb2b3c77001744ec1c	4	1	main_z	7	advance_on_keypress_ZEE	30	stimuli_distractor_trianglediamonds.svg	stimuli_target_rectanglediamonds.svg	10	yes	57	0	697	0	0			0	0			1				0	
6.6.1	win	2023-06-26	23:07:56	23:14:02	360713	5c9d88bb2b3c77001744ec1c	4	1	main_z	7	main_z	31	stimuli_distractor_trianglediamonds.svg	stimuli_distractor_trianglediamonds.svg	33	no	0	1	2000	0	0			0	0			1				0	
6.6.1	win	2023-06-26	23:07:56	23:14:02	360713	5c9d88bb2b3c77001744ec1c	4	1	main_z	7	advance_on_keypress_ZEE	32	stimuli_distractor_trianglediamonds.svg	stimuli_distractor_trianglediamonds.svg	33	no	57	0	768	0	0			0	0			1				0	
6.6.1	win	2023-06-26	23:07:56	23:14:05	363159	5c9d88bb2b3c77001744ec1c	4	1	main_z	7	main_z	33	stimuli_distractor_diamondtriangles.svg	stimuli_target_diamondrectangles.svg	31	yes	44	1	1026	0	0			0	0			1				0	
6.6.1	win	2023-06-26	23:07:56	23:14:05	363159	5c9d88bb2b3c77001744ec1c	4	1	main_z	7	advance_on_keypress_ZEE	34	stimuli_distractor_diamondtriangles.svg	stimuli_target_diamondrectangles.svg	31	yes	57	0	1037	0	0			0	0			1				0	
6.6.1	win	2023-06-26	23:07:56	23:14:07	365866	5c9d88bb2b3c77001744ec1c	4	1	main_z	7	main_z	35	stimuli_target_squarediamonds.svg	stimuli_distractor_trianglediamonds.svg	4	yes	44	1	1030	0	0			0	0			1				0	
6.6.1	win	2023-06-26	23:07:56	23:14:07	365866	5c9d88bb2b3c77001744ec1c	4	1	main_z	7	advance_on_keypress_ZEE	36	stimuli_target_squarediamonds.svg	stimuli_distractor_trianglediamonds.svg	4	yes	57	0	781	0	0			0	0			1				0	
6.6.1	win	2023-06-26	23:07:56	23:14:10	368462	5c9d88bb2b3c77001744ec1c	4	1	main_z	7	main_z	37	stimuli_distractor_trianglediamonds.svg	stimuli_target_diamondsquares.svg	28	yes	44	1	1157	0	0			0	0			1				0	
6.6.1	win	2023-06-26	23:07:56	23:14:10	368462	5c9d88bb2b3c77001744ec1c	4	1	main_z	7	advance_on_keypress_ZEE	38	stimuli_distractor_trianglediamonds.svg	stimuli_target_diamondsquares.svg	28	yes	57	0	1082	0	0			0	0			1				0	
6.6.1	win	2023-06-26	23:07:56	23:14:13	371820	5c9d88bb2b3c77001744ec1c	4	1	main_z	7	main_z	39	stimuli_target_trianglerectangles.svg	stimuli_distractor_diamondtriangles.svg	21	yes	44	1	1629	0	0			0	0			1				0	
6.6.1	win	2023-06-26	23:07:56	23:14:13	371820	5c9d88bb2b3c77001744ec1c	4	1	main_z	7	advance_on_keypress_ZEE	40	stimuli_target_trianglerectangles.svg	stimuli_distractor_diamondtriangles.svg	21	yes	57	0	732	0	0			0	0			1				0	
6.6.1	win	2023-06-26	23:07:56	23:14:16	374440	5c9d88bb2b3c77001744ec1c	4	1	main_z	7	main_z	41	stimuli_target_squaretriangles.svg	stimuli_distractor_diamondtriangles.svg	7	yes	44	1	1230	0	0			0	0			1				0	
6.6.1	win	2023-06-26	23:07:56	23:14:16	374440	5c9d88bb2b3c77001744ec1c	4	1	main_z	7	advance_on_keypress_ZEE	42	stimuli_target_squaretriangles.svg	stimuli_distractor_diamondtriangles.svg	7	yes	57	0	638	0	0			0	0			1				0	
6.6.1	win	2023-06-26	23:07:56	23:14:19	377730	5c9d88bb2b3c77001744ec1c	4	1	main_z	7	main_z	43	stimuli_distractor_trianglediamonds.svg	stimuli_distractor_trianglediamonds.svg	34	no	0	1	2000	0	0			0	0			1				0	
6.6.1	win	2023-06-26	23:07:56	23:14:19	377730	5c9d88bb2b3c77001744ec1c	4	1	main_z	7	advance_on_keypress_ZEE	44	stimuli_distractor_trianglediamonds.svg	stimuli_distractor_trianglediamonds.svg	34	no	57	0	639	0	0			0	0			1				0	
6.6.1	win	2023-06-26	23:07:56	23:14:22	380292	5c9d88bb2b3c77001744ec1c	4	1	main_z	7	main_z	45	stimuli_target_diamondsquares.svg	stimuli_distractor_diamondtriangles.svg	24	yes	44	1	1276	0	0			0	0			1				0	
6.6.1	win	2023-06-26	23:07:56	23:14:22	380292	5c9d88bb2b3c77001744ec1c	4	1	main_z	7	advance_on_keypress_ZEE	46	stimuli_target_diamondsquares.svg	stimuli_distractor_diamondtriangles.svg	24	yes	57	0	1085	0	0			0	0			1				0	
6.6.1	win	2023-06-26	23:07:56	23:14:25	383199	5c9d88bb2b3c77001744ec1c	4	1	main_z	7	main_z	47	stimuli_distractor_diamondtriangles.svg	stimuli_target_rectanglediamonds.svg	14	yes	44	1	1178	0	0			0	0			1				0	
6.6.1	win	2023-06-26	23:07:56	23:14:25	383199	5c9d88bb2b3c77001744ec1c	4	1	main_z	7	advance_on_keypress_ZEE	48	stimuli_distractor_diamondtriangles.svg	stimuli_target_rectanglediamonds.svg	14	yes	57	0	721	0	0			0	0			1				0	
6.6.1	win	2023-06-26	23:07:56	23:14:28	386572	5c9d88bb2b3c77001744ec1c	4	1	main_z	7	main_z	49	stimuli_distractor_diamondtriangles.svg	stimuli_distractor_diamondtriangles.svg	40	no	0	1	2000	0	0			0	0			1				0	
6.6.1	win	2023-06-26	23:07:56	23:14:28	386572	5c9d88bb2b3c77001744ec1c	4	1	main_z	7	advance_on_keypress_ZEE	50	stimuli_distractor_diamondtriangles.svg	stimuli_distractor_diamondtriangles.svg	40	no	57	0	907	0	0			0	0			1				0	
6.6.1	win	2023-06-26	23:07:56	23:14:31	389347	5c9d88bb2b3c77001744ec1c	4	1	main_z	7	main_z	51	stimuli_distractor_trianglediamonds.svg	stimuli_target_diamondrectangles.svg	27	yes	44	1	1222	0	0			0	0			1				0	
6.6.1	win	2023-06-26	23:07:56	23:14:31	389347	5c9d88bb2b3c77001744ec1c	4	1	main_z	7	advance_on_keypress_ZEE	52	stimuli_distractor_trianglediamonds.svg	stimuli_target_diamondrectangles.svg	27	yes	57	0	1041	0	0			0	0			1				0	
6.6.1	win	2023-06-26	23:07:56	23:14:34	392369	5c9d88bb2b3c77001744ec1c	4	1	main_z	7	main_z	53	stimuli_distractor_trianglediamonds.svg	stimuli_target_squarediamonds.svg	12	yes	44	1	1341	0	0			0	0			1				0	
6.6.1	win	2023-06-26	23:07:56	23:14:34	392369	5c9d88bb2b3c77001744ec1c	4	1	main_z	7	advance_on_keypress_ZEE	54	stimuli_distractor_trianglediamonds.svg	stimuli_target_squarediamonds.svg	12	yes	57	0	956	0	0			0	0			1				0	
6.6.1	win	2023-06-26	23:07:56	23:14:37	395596	5c9d88bb2b3c77001744ec1c	4	1	main_z	7	main_z	55	stimuli_distractor_diamondtriangles.svg	stimuli_target_trianglerectangles.svg	29	yes	44	1	1631	0	0			0	0			1				0	
6.6.1	win	2023-06-26	23:07:56	23:14:37	395596	5c9d88bb2b3c77001744ec1c	4	1	main_z	7	advance_on_keypress_ZEE	56	stimuli_distractor_diamondtriangles.svg	stimuli_target_trianglerectangles.svg	29	yes	57	0	1457	0	0			0	0			1				0	
6.6.1	win	2023-06-26	23:07:56	23:14:41	399701	5c9d88bb2b3c77001744ec1c	4	1	main_z	7	main_z	57	stimuli_distractor_diamondtriangles.svg	stimuli_distractor_diamondtriangles.svg	39	no	0	1	2000	0	0			0	0			1				0	
6.6.1	win	2023-06-26	23:07:56	23:14:41	399701	5c9d88bb2b3c77001744ec1c	4	1	main_z	7	advance_on_keypress_ZEE	58	stimuli_distractor_diamondtriangles.svg	stimuli_distractor_diamondtriangles.svg	39	no	57	0	980	0	0			0	0			1				0	
6.6.1	win	2023-06-26	23:07:56	23:14:44	402605	5c9d88bb2b3c77001744ec1c	4	1	main_z	7	main_z	59	stimuli_target_rectangletriangles.svg	stimuli_distractor_trianglediamonds.svg	1	yes	44	1	1266	0	0			0	0			1				0	
6.6.1	win	2023-06-26	23:07:56	23:14:44	402605	5c9d88bb2b3c77001744ec1c	4	1	main_z	7	advance_on_keypress_ZEE	60	stimuli_target_rectangletriangles.svg	stimuli_distractor_trianglediamonds.svg	1	yes	57	0	752	0	0			0	0			1				0	
6.6.1	win	2023-06-26	23:07:56	23:14:47	405099	5c9d88bb2b3c77001744ec1c	4	1	main_z	7	main_z	61	stimuli_distractor_trianglediamonds.svg	stimuli_target_trianglesquares.svg	26	yes	44	1	1090	0	0			0	0			1				0	
6.6.1	win	2023-06-26	23:07:56	23:14:47	405099	5c9d88bb2b3c77001744ec1c	4	1	main_z	7	advance_on_keypress_ZEE	62	stimuli_distractor_trianglediamonds.svg	stimuli_target_trianglesquares.svg	26	yes	57	0	633	0	0			0	0			1				0	
6.6.1	win	2023-06-26	23:07:56	23:14:49	407483	5c9d88bb2b3c77001744ec1c	4	1	main_z	7	main_z	63	stimuli_target_diamondrectangles.svg	stimuli_distractor_trianglediamonds.svg	19	yes	44	1	1105	0	0			0	0			1				0	
6.6.1	win	2023-06-26	23:07:56	23:14:49	407483	5c9d88bb2b3c77001744ec1c	4	1	main_z	7	advance_on_keypress_ZEE	64	stimuli_target_diamondrectangles.svg	stimuli_distractor_trianglediamonds.svg	19	yes	57	0	852	0	0			0	0			1				0	
6.6.1	win	2023-06-26	23:07:56	23:14:52	410495	5c9d88bb2b3c77001744ec1c	4	1	main_z	7	main_z	65	stimuli_target_diamondsquares.svg	stimuli_distractor_trianglediamonds.svg	20	yes	44	1	1516	0	0			0	0			1				0	
6.6.1	win	2023-06-26	23:07:56	23:14:52	410495	5c9d88bb2b3c77001744ec1c	4	1	main_z	7	advance_on_keypress_ZEE	66	stimuli_target_diamondsquares.svg	stimuli_distractor_trianglediamonds.svg	20	yes	57	0	1207	0	0			0	0			1				0	
6.6.1	win	2023-06-26	23:07:56	23:14:56	414351	5c9d88bb2b3c77001744ec1c	4	1	main_z	7	main_z	67	stimuli_distractor_trianglediamonds.svg	stimuli_distractor_diamondtriangles.svg	35	no	0	1	2000	0	0			0	0			1				0	
6.6.1	win	2023-06-26	23:07:56	23:14:56	414351	5c9d88bb2b3c77001744ec1c	4	1	main_z	7	advance_on_keypress_ZEE	68	stimuli_distractor_trianglediamonds.svg	stimuli_distractor_diamondtriangles.svg	35	no	57	0	1066	0	0			0	0			1				0	
6.6.1	win	2023-06-26	23:07:56	23:14:59	417355	5c9d88bb2b3c77001744ec1c	4	1	main_z	7	main_z	69	stimuli_target_trianglerectangles.svg	stimuli_distractor_trianglediamonds.svg	17	yes	44	1	1284	0	0			0	0			1				0	
6.6.1	win	2023-06-26	23:07:56	23:14:59	417355	5c9d88bb2b3c77001744ec1c	4	1	main_z	7	advance_on_keypress_ZEE	70	stimuli_target_trianglerectangles.svg	stimuli_distractor_trianglediamonds.svg	17	yes	57	0	856	0	0			0	0			1				0	
6.6.1	win	2023-06-26	23:07:56	23:15:02	420179	5c9d88bb2b3c77001744ec1c	4	1	main_z	7	main_z	71	stimuli_target_rectanglediamonds.svg	stimuli_distractor_diamondtriangles.svg	6	yes	44	1	1323	0	0			0	0			1				0	
6.6.1	win	2023-06-26	23:07:56	23:15:02	420179	5c9d88bb2b3c77001744ec1c	4	1	main_z	7	advance_on_keypress_ZEE	72	stimuli_target_rectanglediamonds.svg	stimuli_distractor_diamondtriangles.svg	6	yes	57	0	750	0	0			0	0			1				0	
6.6.1	win	2023-06-26	23:07:56	23:15:04	422657	5c9d88bb2b3c77001744ec1c	4	1	main_z	7	main_z	73	stimuli_distractor_diamondtriangles.svg	stimuli_target_diamondsquares.svg	32	yes	44	1	1081	0	0			0	0			1				0	
6.6.1	win	2023-06-26	23:07:56	23:15:04	422657	5c9d88bb2b3c77001744ec1c	4	1	main_z	7	advance_on_keypress_ZEE	74	stimuli_distractor_diamondtriangles.svg	stimuli_target_diamondsquares.svg	32	yes	57	0	868	0	0			0	0			1				0	
6.6.1	win	2023-06-26	23:07:56	23:15:07	425324	5c9d88bb2b3c77001744ec1c	4	1	main_z	7	main_z	75	stimuli_target_diamondrectangles.svg	stimuli_distractor_diamondtriangles.svg	23	yes	44	1	1145	0	0			0	0			1				0	
6.6.1	win	2023-06-26	23:07:56	23:15:07	425324	5c9d88bb2b3c77001744ec1c	4	1	main_z	7	advance_on_keypress_ZEE	76	stimuli_target_diamondrectangles.svg	stimuli_distractor_diamondtriangles.svg	23	yes	57	0	975	0	0			0	0			1				0	
6.6.1	win	2023-06-26	23:07:56	23:15:10	428947	5c9d88bb2b3c77001744ec1c	4	1	main_z	7	main_z	77	stimuli_distractor_diamondtriangles.svg	stimuli_distractor_trianglediamonds.svg	37	no	0	1	2000	0	0			0	0			1				0	
6.6.1	win	2023-06-26	23:07:56	23:15:10	428947	5c9d88bb2b3c77001744ec1c	4	1	main_z	7	advance_on_keypress_ZEE	78	stimuli_distractor_diamondtriangles.svg	stimuli_distractor_trianglediamonds.svg	37	no	57	0	786	0	0			0	0			1				0	
6.6.1	win	2023-06-26	23:07:56	23:15:13	431556	5c9d88bb2b3c77001744ec1c	4	1	main_z	7	main_z	79	stimuli_distractor_diamondtriangles.svg	stimuli_target_squarediamonds.svg	16	yes	44	1	1171	0	0			0	0			1				0	
6.6.1	win	2023-06-26	23:07:56	23:15:13	431556	5c9d88bb2b3c77001744ec1c	4	1	main_z	7	advance_on_keypress_ZEE	80	stimuli_distractor_diamondtriangles.svg	stimuli_target_squarediamonds.svg	16	yes	57	0	795	0	0			0	0			1				0	
6.6.1	win	2023-06-26	23:07:56	23:15:16	434876	5c9d88bb2b3c77001744ec1c	4	1	main_z	7	main_z	81	stimuli_target_squarediamonds.svg	stimuli_distractor_trianglediamonds.svg	4	yes	44	1	1872	0	0			0	0			1				0	
6.6.1	win	2023-06-26	23:07:56	23:15:16	434876	5c9d88bb2b3c77001744ec1c	4	1	main_z	7	advance_on_keypress_ZEE	82	stimuli_target_squarediamonds.svg	stimuli_distractor_trianglediamonds.svg	4	yes	57	0	920	0	0			0	0			1				0	
6.6.1	win	2023-06-26	23:07:56	23:15:19	437597	5c9d88bb2b3c77001744ec1c	4	1	main_z	7	main_z	83	stimuli_distractor_trianglediamonds.svg	stimuli_target_rectangletriangles.svg	9	yes	44	1	1156	0	0			0	0			1				0	
6.6.1	win	2023-06-26	23:07:56	23:15:19	437597	5c9d88bb2b3c77001744ec1c	4	1	main_z	7	advance_on_keypress_ZEE	84	stimuli_distractor_trianglediamonds.svg	stimuli_target_rectangletriangles.svg	9	yes	57	0	790	0	0			0	0			1				0	
6.6.1	win	2023-06-26	23:07:56	23:15:22	440422	5c9d88bb2b3c77001744ec1c	4	1	main_z	7	main_z	85	stimuli_distractor_diamondtriangles.svg	stimuli_target_trianglerectangles.svg	29	yes	44	1	1395	0	0			0	0			1				0	
6.6.1	win	2023-06-26	23:07:56	23:15:22	440422	5c9d88bb2b3c77001744ec1c	4	1	main_z	7	advance_on_keypress_ZEE	86	stimuli_distractor_diamondtriangles.svg	stimuli_target_trianglerectangles.svg	29	yes	57	0	1353	0	0			0	0			1				0	
6.6.1	win	2023-06-26	23:07:56	23:15:25	443679	5c9d88bb2b3c77001744ec1c	4	1	main_z	7	main_z	87	stimuli_target_diamondrectangles.svg	stimuli_distractor_diamondtriangles.svg	23	yes	44	1	1249	0	0			0	0			1				0	
6.6.1	win	2023-06-26	23:07:56	23:15:25	443679	5c9d88bb2b3c77001744ec1c	4	1	main_z	7	advance_on_keypress_ZEE	88	stimuli_target_diamondrectangles.svg	stimuli_distractor_diamondtriangles.svg	23	yes	57	0	830	0	0			0	0			1				0	
6.6.1	win	2023-06-26	23:07:56	23:15:28	446290	5c9d88bb2b3c77001744ec1c	4	1	main_z	7	main_z	89	stimuli_distractor_diamondtriangles.svg	stimuli_target_trianglesquares.svg	30	yes	44	1	1125	0	0			0	0			1				0	
6.6.1	win	2023-06-26	23:07:56	23:15:28	446290	5c9d88bb2b3c77001744ec1c	4	1	main_z	7	advance_on_keypress_ZEE	90	stimuli_distractor_diamondtriangles.svg	stimuli_target_trianglesquares.svg	30	yes	57	0	791	0	0			0	0			1				0	
6.6.1	win	2023-06-26	23:07:56	23:15:30	448933	5c9d88bb2b3c77001744ec1c	4	1	main_z	7	main_z	91	stimuli_distractor_diamondtriangles.svg	stimuli_target_squarediamonds.svg	16	yes	44	1	1215	0	0			0	0			1				0	
6.6.1	win	2023-06-26	23:07:56	23:15:30	448933	5c9d88bb2b3c77001744ec1c	4	1	main_z	7	advance_on_keypress_ZEE	92	stimuli_distractor_diamondtriangles.svg	stimuli_target_squarediamonds.svg	16	yes	57	0	813	0	0			0	0			1				0	
6.6.1	win	2023-06-26	23:07:56	23:15:33	451648	5c9d88bb2b3c77001744ec1c	4	1	main_z	7	main_z	93	stimuli_target_trianglerectangles.svg	stimuli_distractor_trianglediamonds.svg	17	yes	44	1	1243	0	0			0	0			1				0	
6.6.1	win	2023-06-26	23:07:56	23:15:33	451648	5c9d88bb2b3c77001744ec1c	4	1	main_z	7	advance_on_keypress_ZEE	94	stimuli_target_trianglerectangles.svg	stimuli_distractor_trianglediamonds.svg	17	yes	57	0	817	0	0			0	0			1				0	
6.6.1	win	2023-06-26	23:07:56	23:15:36	454842	5c9d88bb2b3c77001744ec1c	4	1	main_z	7	main_z	95	stimuli_distractor_trianglediamonds.svg	stimuli_target_squaretriangles.svg	11	yes	44	1	1734	0	0			0	0			1				0	
6.6.1	win	2023-06-26	23:07:56	23:15:36	454842	5c9d88bb2b3c77001744ec1c	4	1	main_z	7	advance_on_keypress_ZEE	96	stimuli_distractor_trianglediamonds.svg	stimuli_target_squaretriangles.svg	11	yes	57	0	728	0	0			0	0			1				0	
6.6.1	win	2023-06-26	23:07:56	23:15:39	457806	5c9d88bb2b3c77001744ec1c	4	1	main_z	7	main_z	97	stimuli_distractor_diamondtriangles.svg	stimuli_target_squaretriangles.svg	15	yes	44	1	1579	0	0			0	0			1				0	
6.6.1	win	2023-06-26	23:07:56	23:15:39	457806	5c9d88bb2b3c77001744ec1c	4	1	main_z	7	advance_on_keypress_ZEE	98	stimuli_distractor_diamondtriangles.svg	stimuli_target_squaretriangles.svg	15	yes	57	0	1393	0	0			0	0			1				0	
6.6.1	win	2023-06-26	23:07:56	23:15:43	461418	5c9d88bb2b3c77001744ec1c	4	1	main_z	7	main_z	99	stimuli_target_rectangletriangles.svg	stimuli_distractor_trianglediamonds.svg	1	yes	44	1	1554	0	0			0	0			1				0	
6.6.1	win	2023-06-26	23:07:56	23:15:43	461418	5c9d88bb2b3c77001744ec1c	4	1	main_z	7	advance_on_keypress_ZEE	100	stimuli_target_rectangletriangles.svg	stimuli_distractor_trianglediamonds.svg	1	yes	57	0	778	0	0			0	0			1				0	
6.6.1	win	2023-06-26	23:07:56	23:15:46	464170	5c9d88bb2b3c77001744ec1c	4	1	main_z	7	main_z	101	stimuli_target_rectanglediamonds.svg	stimuli_distractor_trianglediamonds.svg	2	yes	44	1	1320	0	0			0	0			1				0	
6.6.1	win	2023-06-26	23:07:56	23:15:46	464170	5c9d88bb2b3c77001744ec1c	4	1	main_z	7	advance_on_keypress_ZEE	102	stimuli_target_rectanglediamonds.svg	stimuli_distractor_trianglediamonds.svg	2	yes	57	0	920	0	0			0	0			1				0	
6.6.1	win	2023-06-26	23:07:56	23:15:49	467207	5c9d88bb2b3c77001744ec1c	4	1	main_z	7	main_z	103	stimuli_distractor_diamondtriangles.svg	stimuli_target_diamondsquares.svg	32	yes	44	1	1471	0	0			0	0			1				0	
6.6.1	win	2023-06-26	23:07:56	23:15:49	467207	5c9d88bb2b3c77001744ec1c	4	1	main_z	7	advance_on_keypress_ZEE	104	stimuli_distractor_diamondtriangles.svg	stimuli_target_diamondsquares.svg	32	yes	57	0	834	0	0			0	0			1				0	
6.6.1	win	2023-06-26	23:07:56	23:15:52	470340	5c9d88bb2b3c77001744ec1c	4	1	main_z	7	main_z	105	stimuli_target_trianglesquares.svg	stimuli_distractor_diamondtriangles.svg	22	yes	44	1	1649	0	0			0	0			1				0	
6.6.1	win	2023-06-26	23:07:56	23:15:52	470340	5c9d88bb2b3c77001744ec1c	4	1	main_z	7	advance_on_keypress_ZEE	106	stimuli_target_trianglesquares.svg	stimuli_distractor_diamondtriangles.svg	22	yes	57	0	696	0	0			0	0			1				0	
6.6.1	win	2023-06-26	23:07:56	23:15:55	473587	5c9d88bb2b3c77001744ec1c	4	1	main_z	7	main_z	107	stimuli_target_rectanglediamonds.svg	stimuli_distractor_diamondtriangles.svg	6	yes	44	1	1895	0	0			0	0			1				0	
6.6.1	win	2023-06-26	23:07:56	23:15:55	473587	5c9d88bb2b3c77001744ec1c	4	1	main_z	7	advance_on_keypress_ZEE	108	stimuli_target_rectanglediamonds.svg	stimuli_distractor_diamondtriangles.svg	6	yes	57	0	983	0	0			0	0			1				0	
6.6.1	win	2023-06-26	23:07:56	23:15:59	477229	5c9d88bb2b3c77001744ec1c	4	1	main_z	7	main_z	109	stimuli_distractor_diamondtriangles.svg	stimuli_distractor_diamondtriangles.svg	39	no	0	1	2000	0	0			0	0			1				0	
6.6.1	win	2023-06-26	23:07:56	23:15:59	477229	5c9d88bb2b3c77001744ec1c	4	1	main_z	7	advance_on_keypress_ZEE	110	stimuli_distractor_diamondtriangles.svg	stimuli_distractor_diamondtriangles.svg	39	no	57	0	1580	0	0			0	0			1				0	
6.6.1	win	2023-06-26	23:07:56	23:16:03	481467	5c9d88bb2b3c77001744ec1c	4	1	main_z	7	main_z	111	stimuli_distractor_diamondtriangles.svg	stimuli_distractor_diamondtriangles.svg	40	no	0	1	2000	0	0			0	0			1				0	
6.6.1	win	2023-06-26	23:07:56	23:16:03	481467	5c9d88bb2b3c77001744ec1c	4	1	main_z	7	advance_on_keypress_ZEE	112	stimuli_distractor_diamondtriangles.svg	stimuli_distractor_diamondtriangles.svg	40	no	57	0	749	0	0			0	0			1				0	
6.6.1	win	2023-06-26	23:07:56	23:16:06	484870	5c9d88bb2b3c77001744ec1c	4	1	main_z	7	main_z	113	stimuli_distractor_trianglediamonds.svg	stimuli_distractor_trianglediamonds.svg	34	no	0	1	2000	0	0			0	0			1				0	
6.6.1	win	2023-06-26	23:07:56	23:16:06	484870	5c9d88bb2b3c77001744ec1c	4	1	main_z	7	advance_on_keypress_ZEE	114	stimuli_distractor_trianglediamonds.svg	stimuli_distractor_trianglediamonds.svg	34	no	57	0	737	0	0			0	0			1				0	
6.6.1	win	2023-06-26	23:07:56	23:16:10	488257	5c9d88bb2b3c77001744ec1c	4	1	main_z	7	main_z	115	stimuli_distractor_diamondtriangles.svg	stimuli_distractor_trianglediamonds.svg	38	no	0	1	2000	0	0			0	0			1				0	
6.6.1	win	2023-06-26	23:07:56	23:16:10	488257	5c9d88bb2b3c77001744ec1c	4	1	main_z	7	advance_on_keypress_ZEE	116	stimuli_distractor_diamondtriangles.svg	stimuli_distractor_trianglediamonds.svg	38	no	57	0	1379	0	0			0	0			1				0	
6.6.1	win	2023-06-26	23:07:56	23:16:13	491497	5c9d88bb2b3c77001744ec1c	4	1	main_z	7	main_z	117	stimuli_distractor_trianglediamonds.svg	stimuli_target_trianglesquares.svg	26	yes	44	1	1203	0	0			0	0			1				0	
6.6.1	win	2023-06-26	23:07:56	23:16:13	491497	5c9d88bb2b3c77001744ec1c	4	1	main_z	7	advance_on_keypress_ZEE	118	stimuli_distractor_trianglediamonds.svg	stimuli_target_trianglesquares.svg	26	yes	57	0	722	0	0			0	0			1				0	
6.6.1	win	2023-06-26	23:07:56	23:16:16	494198	5c9d88bb2b3c77001744ec1c	4	1	main_z	7	main_z	119	stimuli_target_rectangletriangles.svg	stimuli_distractor_diamondtriangles.svg	5	yes	44	1	1334	0	0			0	0			1				0	
6.6.1	win	2023-06-26	23:07:56	23:16:16	494198	5c9d88bb2b3c77001744ec1c	4	1	main_z	7	advance_on_keypress_ZEE	120	stimuli_target_rectangletriangles.svg	stimuli_distractor_diamondtriangles.svg	5	yes	57	0	656	0	0			0	0			1				0	
6.6.1	win	2023-06-26	23:07:56	23:16:18	496909	5c9d88bb2b3c77001744ec1c	4	1	main_z	7	main_z	121	stimuli_target_squarediamonds.svg	stimuli_distractor_diamondtriangles.svg	8	yes	44	1	1409	0	0			0	0			1				0	
6.6.1	win	2023-06-26	23:07:56	23:16:18	496909	5c9d88bb2b3c77001744ec1c	4	1	main_z	7	advance_on_keypress_ZEE	122	stimuli_target_squarediamonds.svg	stimuli_distractor_diamondtriangles.svg	8	yes	57	0	722	0	0			0	0			1				0	
6.6.1	win	2023-06-26	23:07:56	23:16:21	499811	5c9d88bb2b3c77001744ec1c	4	1	main_z	7	main_z	123	stimuli_distractor_trianglediamonds.svg	stimuli_target_diamondrectangles.svg	27	yes	44	1	1542	0	0			0	0			1				0	
6.6.1	win	2023-06-26	23:07:56	23:16:21	499811	5c9d88bb2b3c77001744ec1c	4	1	main_z	7	advance_on_keypress_ZEE	124	stimuli_distractor_trianglediamonds.svg	stimuli_target_diamondrectangles.svg	27	yes	57	0	730	0	0			0	0			1				0	
6.6.1	win	2023-06-26	23:07:56	23:16:24	502557	5c9d88bb2b3c77001744ec1c	4	1	main_z	7	main_z	125	stimuli_target_squaretriangles.svg	stimuli_distractor_diamondtriangles.svg	7	yes	44	1	1368	0	0			0	0			1				0	
6.6.1	win	2023-06-26	23:07:56	23:16:24	502557	5c9d88bb2b3c77001744ec1c	4	1	main_z	7	advance_on_keypress_ZEE	126	stimuli_target_squaretriangles.svg	stimuli_distractor_diamondtriangles.svg	7	yes	57	0	1587	0	0			0	0			1				0	
6.6.1	win	2023-06-26	23:07:56	23:16:28	506340	5c9d88bb2b3c77001744ec1c	4	1	main_z	7	main_z	127	stimuli_target_diamondrectangles.svg	stimuli_distractor_trianglediamonds.svg	19	yes	44	1	1548	0	0			0	0			1				0	
6.6.1	win	2023-06-26	23:07:56	23:16:28	506340	5c9d88bb2b3c77001744ec1c	4	1	main_z	7	advance_on_keypress_ZEE	128	stimuli_target_diamondrectangles.svg	stimuli_distractor_trianglediamonds.svg	19	yes	57	0	876	0	0			0	0			1				0	
6.6.1	win	2023-06-26	23:07:56	23:16:31	509141	5c9d88bb2b3c77001744ec1c	4	1	main_z	7	main_z	129	stimuli_target_squaretriangles.svg	stimuli_distractor_trianglediamonds.svg	3	yes	44	1	1280	0	0			0	0			1				0	
6.6.1	win	2023-06-26	23:07:56	23:16:31	509141	5c9d88bb2b3c77001744ec1c	4	1	main_z	7	advance_on_keypress_ZEE	130	stimuli_target_squaretriangles.svg	stimuli_distractor_trianglediamonds.svg	3	yes	57	0	811	0	0			0	0			1				0	
6.6.1	win	2023-06-26	23:07:56	23:16:34	512598	5c9d88bb2b3c77001744ec1c	4	1	main_z	7	main_z	131	stimuli_distractor_diamondtriangles.svg	stimuli_distractor_trianglediamonds.svg	37	no	0	1	2000	0	0			0	0			1				0	
6.6.1	win	2023-06-26	23:07:56	23:16:34	512598	5c9d88bb2b3c77001744ec1c	4	1	main_z	7	advance_on_keypress_ZEE	132	stimuli_distractor_diamondtriangles.svg	stimuli_distractor_trianglediamonds.svg	37	no	57	0	875	0	0			0	0			1				0	
6.6.1	win	2023-06-26	23:07:56	23:16:37	515271	5c9d88bb2b3c77001744ec1c	4	1	main_z	7	main_z	133	stimuli_target_trianglesquares.svg	stimuli_distractor_trianglediamonds.svg	18	yes	44	1	1153	0	0			0	0			1				0	
6.6.1	win	2023-06-26	23:07:56	23:16:37	515271	5c9d88bb2b3c77001744ec1c	4	1	main_z	7	advance_on_keypress_ZEE	134	stimuli_target_trianglesquares.svg	stimuli_distractor_trianglediamonds.svg	18	yes	57	0	661	0	0			0	0			1				0	
6.6.1	win	2023-06-26	23:07:56	23:16:40	518057	5c9d88bb2b3c77001744ec1c	4	1	main_z	7	main_z	135	stimuli_distractor_trianglediamonds.svg	stimuli_target_rectanglediamonds.svg	10	yes	44	1	1470	0	0			0	0			1				0	
6.6.1	win	2023-06-26	23:07:56	23:16:40	518057	5c9d88bb2b3c77001744ec1c	4	1	main_z	7	advance_on_keypress_ZEE	136	stimuli_distractor_trianglediamonds.svg	stimuli_target_rectanglediamonds.svg	10	yes	57	0	786	0	0			0	0			1				0	
6.6.1	win	2023-06-26	23:07:56	23:16:42	520897	5c9d88bb2b3c77001744ec1c	4	1	main_z	7	main_z	137	stimuli_target_diamondsquares.svg	stimuli_distractor_diamondtriangles.svg	24	yes	44	1	1407	0	0			0	0			1				0	
6.6.1	win	2023-06-26	23:07:56	23:16:42	520897	5c9d88bb2b3c77001744ec1c	4	1	main_z	7	advance_on_keypress_ZEE	138	stimuli_target_diamondsquares.svg	stimuli_distractor_diamondtriangles.svg	24	yes	57	0	704	0	0			0	0			1				0	
6.6.1	win	2023-06-26	23:07:56	23:16:45	523737	5c9d88bb2b3c77001744ec1c	4	1	main_z	7	main_z	139	stimuli_distractor_diamondtriangles.svg	stimuli_target_rectanglediamonds.svg	14	yes	44	1	1495	0	0			0	0			1				0	
6.6.1	win	2023-06-26	23:07:56	23:16:45	523737	5c9d88bb2b3c77001744ec1c	4	1	main_z	7	advance_on_keypress_ZEE	140	stimuli_distractor_diamondtriangles.svg	stimuli_target_rectanglediamonds.svg	14	yes	57	0	699	0	0			0	0			1				0	
6.6.1	win	2023-06-26	23:07:56	23:16:49	527095	5c9d88bb2b3c77001744ec1c	4	1	main_z	7	main_z	141	stimuli_distractor_trianglediamonds.svg	stimuli_distractor_diamondtriangles.svg	36	no	0	1	2000	0	0			0	0			1				0	
6.6.1	win	2023-06-26	23:07:56	23:16:49	527095	5c9d88bb2b3c77001744ec1c	4	1	main_z	7	advance_on_keypress_ZEE	142	stimuli_distractor_trianglediamonds.svg	stimuli_distractor_diamondtriangles.svg	36	no	57	0	800	0	0			0	0			1				0	
6.6.1	win	2023-06-26	23:07:56	23:16:51	529781	5c9d88bb2b3c77001744ec1c	4	1	main_z	7	main_z	143	stimuli_distractor_trianglediamonds.svg	stimuli_target_squarediamonds.svg	12	yes	44	1	1231	0	0			0	0			1				0	
6.6.1	win	2023-06-26	23:07:56	23:16:51	529781	5c9d88bb2b3c77001744ec1c	4	1	main_z	7	advance_on_keypress_ZEE	144	stimuli_distractor_trianglediamonds.svg	stimuli_target_squarediamonds.svg	12	yes	57	0	781	0	0			0	0			1				0	
6.6.1	win	2023-06-26	23:07:56	23:16:55	533218	5c9d88bb2b3c77001744ec1c	4	1	main_z	7	main_z	145	stimuli_distractor_trianglediamonds.svg	stimuli_distractor_diamondtriangles.svg	35	no	0	1	2000	0	0			0	0			1				0	
6.6.1	win	2023-06-26	23:07:56	23:16:55	533218	5c9d88bb2b3c77001744ec1c	4	1	main_z	7	advance_on_keypress_ZEE	146	stimuli_distractor_trianglediamonds.svg	stimuli_distractor_diamondtriangles.svg	35	no	57	0	941	0	0			0	0			1				0	
6.6.1	win	2023-06-26	23:07:56	23:16:58	536098	5c9d88bb2b3c77001744ec1c	4	1	main_z	7	main_z	147	stimuli_distractor_diamondtriangles.svg	stimuli_target_rectangletriangles.svg	13	yes	44	1	1293	0	0			0	0			1				0	
6.6.1	win	2023-06-26	23:07:56	23:16:58	536098	5c9d88bb2b3c77001744ec1c	4	1	main_z	7	advance_on_keypress_ZEE	148	stimuli_distractor_diamondtriangles.svg	stimuli_target_rectangletriangles.svg	13	yes	57	0	739	0	0			0	0			1				0	
6.6.1	win	2023-06-26	23:07:56	23:17:00	538737	5c9d88bb2b3c77001744ec1c	4	1	main_z	7	main_z	149	stimuli_target_diamondsquares.svg	stimuli_distractor_trianglediamonds.svg	20	yes	44	1	1261	0	0			0	0			1				0	
6.6.1	win	2023-06-26	23:07:56	23:17:00	538737	5c9d88bb2b3c77001744ec1c	4	1	main_z	7	advance_on_keypress_ZEE	150	stimuli_target_diamondsquares.svg	stimuli_distractor_trianglediamonds.svg	20	yes	57	0	927	0	0			0	0			1				0	
6.6.1	win	2023-06-26	23:07:56	23:17:03	541554	5c9d88bb2b3c77001744ec1c	4	1	main_z	7	main_z	151	stimuli_distractor_diamondtriangles.svg	stimuli_target_diamondrectangles.svg	31	yes	44	1	1225	0	0			0	0			1				0	
6.6.1	win	2023-06-26	23:07:56	23:17:03	541554	5c9d88bb2b3c77001744ec1c	4	1	main_z	7	advance_on_keypress_ZEE	152	stimuli_distractor_diamondtriangles.svg	stimuli_target_diamondrectangles.svg	31	yes	57	0	1398	0	0			0	0			1				0	
6.6.1	win	2023-06-26	23:07:56	23:17:07	545597	5c9d88bb2b3c77001744ec1c	4	1	main_z	7	main_z	153	stimuli_distractor_trianglediamonds.svg	stimuli_distractor_trianglediamonds.svg	33	no	0	1	2000	0	0			0	0			1				0	
6.6.1	win	2023-06-26	23:07:56	23:17:07	545597	5c9d88bb2b3c77001744ec1c	4	1	main_z	7	advance_on_keypress_ZEE	154	stimuli_distractor_trianglediamonds.svg	stimuli_distractor_trianglediamonds.svg	33	no	57	0	665	0	0			0	0			1				0	
6.6.1	win	2023-06-26	23:07:56	23:17:10	548367	5c9d88bb2b3c77001744ec1c	4	1	main_z	7	main_z	155	stimuli_target_trianglerectangles.svg	stimuli_distractor_diamondtriangles.svg	21	yes	44	1	1449	0	0			0	0			1				0	
6.6.1	win	2023-06-26	23:07:56	23:17:10	548367	5c9d88bb2b3c77001744ec1c	4	1	main_z	7	advance_on_keypress_ZEE	156	stimuli_target_trianglerectangles.svg	stimuli_distractor_diamondtriangles.svg	21	yes	57	0	649	0	0			0	0			1				0	
6.6.1	win	2023-06-26	23:07:56	23:17:13	551208	5c9d88bb2b3c77001744ec1c	4	1	main_z	7	main_z	157	stimuli_distractor_trianglediamonds.svg	stimuli_target_trianglerectangles.svg	25	yes	44	1	1538	0	0			0	0			1				0	
6.6.1	win	2023-06-26	23:07:56	23:17:13	551208	5c9d88bb2b3c77001744ec1c	4	1	main_z	7	advance_on_keypress_ZEE	158	stimuli_distractor_trianglediamonds.svg	stimuli_target_trianglerectangles.svg	25	yes	57	0	597	0	0			0	0			1				0	
6.6.1	win	2023-06-26	23:07:56	23:17:15	553537	5c9d88bb2b3c77001744ec1c	4	1	main_z	7	main_z	159	stimuli_distractor_trianglediamonds.svg	stimuli_target_diamondsquares.svg	28	yes	44	1	1080	0	0			0	0			1				0	
6.6.1	win	2023-06-26	23:07:56	23:17:15	553537	5c9d88bb2b3c77001744ec1c	4	1	main_z	7	advance_on_keypress_ZEE	160	stimuli_distractor_trianglediamonds.svg	stimuli_target_diamondsquares.svg	28	yes	57	0	561	0	0			0	0			1				0	
6.6.1	win	2023-06-26	23:07:56	23:18:12	610748	5c9d88bb2b3c77001744ec1c	4	1	practice_slash	9	practice_slash	1	stimuli_distractor_trianglediamonds.svg	stimuli_distractor_trianglediamonds.svg	15	no	0	1	2000	0	0			0	0			1				0	
6.6.1	win	2023-06-26	23:07:56	23:18:12	610748	5c9d88bb2b3c77001744ec1c	4	1	practice_slash	9	advance_on_keypress_SLASH	2	stimuli_distractor_trianglediamonds.svg	stimuli_distractor_trianglediamonds.svg	15	no	57	0	1480	0	0			0	0			1				0	
6.6.1	win	2023-06-26	23:07:56	23:18:17	615885	5c9d88bb2b3c77001744ec1c	4	1	practice_slash	9	practice_slash	3	stimuli_distractor_trianglediamonds.svg	stimuli_distractor_diamondtriangles.svg	16	no	0	1	2000	0	0			0	0			1				0	
6.6.1	win	2023-06-26	23:07:56	23:18:17	615885	5c9d88bb2b3c77001744ec1c	4	1	practice_slash	9	advance_on_keypress_SLASH	4	stimuli_distractor_trianglediamonds.svg	stimuli_distractor_diamondtriangles.svg	16	no	57	0	1455	0	0			0	0			1				0	
6.6.1	win	2023-06-26	23:07:56	23:18:22	620990	5c9d88bb2b3c77001744ec1c	4	1	practice_slash	9	practice_slash	5	stimuli_distractor_diamondtriangles.svg	stimuli_distractor_diamondtriangles.svg	13	no	0	1	2000	0	0			0	0			1				0	
6.6.1	win	2023-06-26	23:07:56	23:18:22	620990	5c9d88bb2b3c77001744ec1c	4	1	practice_slash	9	advance_on_keypress_SLASH	6	stimuli_distractor_diamondtriangles.svg	stimuli_distractor_diamondtriangles.svg	13	no	57	0	1542	0	0			0	0			1				0	
6.6.1	win	2023-06-26	23:07:56	23:18:27	625449	5c9d88bb2b3c77001744ec1c	4	1	practice_slash	9	practice_slash	7	stimuli_target_diamondsquares.svg	stimuli_distractor_trianglediamonds.svg	6	yes	53	1	1253	0	0			0	0			1				0	
6.6.1	win	2023-06-26	23:07:56	23:18:27	625449	5c9d88bb2b3c77001744ec1c	4	1	practice_slash	9	advance_on_keypress_SLASH	8	stimuli_target_diamondsquares.svg	stimuli_distractor_trianglediamonds.svg	6	yes	57	0	211	0	0			0	0			1				0	
6.6.1	win	2023-06-26	23:07:56	23:18:30	628282	5c9d88bb2b3c77001744ec1c	4	1	practice_slash	9	practice_slash	9	stimuli_target_diamondsquares.svg	stimuli_distractor_diamondtriangles.svg	3	yes	53	1	966	0	0			0	0			1				0	
6.6.1	win	2023-06-26	23:07:56	23:18:30	628282	5c9d88bb2b3c77001744ec1c	4	1	practice_slash	9	advance_on_keypress_SLASH	10	stimuli_target_diamondsquares.svg	stimuli_distractor_diamondtriangles.svg	3	yes	57	0	247	0	0			0	0			1				0	
6.6.1	win	2023-06-26	23:07:56	23:18:34	632185	5c9d88bb2b3c77001744ec1c	4	1	practice_slash	9	practice_slash	11	stimuli_distractor_diamondtriangles.svg	stimuli_target_trianglerectangles.svg	9	yes	0	0	2000	0	0			0	0			1				0	
6.6.1	win	2023-06-26	23:07:56	23:18:34	632185	5c9d88bb2b3c77001744ec1c	4	1	practice_slash	9	advance_on_keypress_SLASH	12	stimuli_distractor_diamondtriangles.svg	stimuli_target_trianglerectangles.svg	9	yes	57	0	1142	0	0			0	0			1				0	
6.6.1	win	2023-06-26	23:07:56	23:18:37	636000	5c9d88bb2b3c77001744ec1c	4	1	practice_slash	9	practice_slash	13	stimuli_distractor_trianglediamonds.svg	stimuli_target_rectanglediamonds.svg	10	yes	53	1	1009	0	0			0	0			1				0	
6.6.1	win	2023-06-26	23:07:56	23:18:37	636000	5c9d88bb2b3c77001744ec1c	4	1	practice_slash	9	advance_on_keypress_SLASH	14	stimuli_distractor_trianglediamonds.svg	stimuli_target_rectanglediamonds.svg	10	yes	57	0	4449	0	0			0	0			1				0	
6.6.1	win	2023-06-26	23:07:56	23:18:44	642866	5c9d88bb2b3c77001744ec1c	4	1	practice_slash	9	practice_slash	15	stimuli_distractor_trianglediamonds.svg	stimuli_target_diamondrectangles.svg	12	yes	53	1	769	0	0			0	0			1				0	
6.6.1	win	2023-06-26	23:07:56	23:18:44	642866	5c9d88bb2b3c77001744ec1c	4	1	practice_slash	9	advance_on_keypress_SLASH	16	stimuli_distractor_trianglediamonds.svg	stimuli_target_diamondrectangles.svg	12	yes	57	0	518	0	0			0	0			1				0	
6.6.1	win	2023-06-26	23:07:56	23:18:47	645801	5c9d88bb2b3c77001744ec1c	4	1	practice_slash	9	practice_slash	17	stimuli_target_rectanglediamonds.svg	stimuli_distractor_trianglediamonds.svg	4	yes	53	1	767	0	0			0	0			1				0	
6.6.1	win	2023-06-26	23:07:56	23:18:47	645801	5c9d88bb2b3c77001744ec1c	4	1	practice_slash	9	advance_on_keypress_SLASH	18	stimuli_target_rectanglediamonds.svg	stimuli_distractor_trianglediamonds.svg	4	yes	57	0	2222	0	0			0	0			1				0	
6.6.1	win	2023-06-26	23:07:56	23:18:52	650867	5c9d88bb2b3c77001744ec1c	4	1	practice_slash	9	practice_slash	19	stimuli_distractor_diamondtriangles.svg	stimuli_target_rectangletriangles.svg	7	yes	53	1	1195	0	0			0	0			1				0	
6.6.1	win	2023-06-26	23:07:56	23:18:52	650867	5c9d88bb2b3c77001744ec1c	4	1	practice_slash	9	advance_on_keypress_SLASH	20	stimuli_distractor_diamondtriangles.svg	stimuli_target_rectangletriangles.svg	7	yes	57	0	1927	0	0			0	0			1				0	
6.6.1	win	2023-06-26	23:07:56	23:18:57	655265	5c9d88bb2b3c77001744ec1c	4	1	practice_slash	9	practice_slash	21	stimuli_target_squarediamonds.svg	stimuli_distractor_diamondtriangles.svg	2	yes	53	1	805	0	0			0	0			1				0	
6.6.1	win	2023-06-26	23:07:56	23:18:57	655265	5c9d88bb2b3c77001744ec1c	4	1	practice_slash	9	advance_on_keypress_SLASH	22	stimuli_target_squarediamonds.svg	stimuli_distractor_diamondtriangles.svg	2	yes	57	0	1173	0	0			0	0			1				0	
6.6.1	win	2023-06-26	23:07:56	23:19:01	659121	5c9d88bb2b3c77001744ec1c	4	1	practice_slash	9	practice_slash	23	stimuli_distractor_diamondtriangles.svg	stimuli_target_diamondrectangles.svg	8	yes	53	1	1039	0	0			0	0			1				0	
6.6.1	win	2023-06-26	23:07:56	23:19:01	659121	5c9d88bb2b3c77001744ec1c	4	1	practice_slash	9	advance_on_keypress_SLASH	24	stimuli_distractor_diamondtriangles.svg	stimuli_target_diamondrectangles.svg	8	yes	57	0	592	0	0			0	0			1				0	
6.6.1	win	2023-06-26	23:07:56	23:19:04	662087	5c9d88bb2b3c77001744ec1c	4	1	practice_slash	9	practice_slash	25	stimuli_target_squarediamonds.svg	stimuli_distractor_trianglediamonds.svg	5	yes	53	1	720	0	0			0	0			1				0	
6.6.1	win	2023-06-26	23:07:56	23:19:04	662087	5c9d88bb2b3c77001744ec1c	4	1	practice_slash	9	advance_on_keypress_SLASH	26	stimuli_target_squarediamonds.svg	stimuli_distractor_trianglediamonds.svg	5	yes	57	0	566	0	0			0	0			1				0	
6.6.1	win	2023-06-26	23:07:56	23:19:07	665076	5c9d88bb2b3c77001744ec1c	4	1	practice_slash	9	practice_slash	27	stimuli_target_rectanglediamonds.svg	stimuli_distractor_diamondtriangles.svg	1	yes	53	1	773	0	0			0	0			1				0	
6.6.1	win	2023-06-26	23:07:56	23:19:07	665076	5c9d88bb2b3c77001744ec1c	4	1	practice_slash	9	advance_on_keypress_SLASH	28	stimuli_target_rectanglediamonds.svg	stimuli_distractor_diamondtriangles.svg	1	yes	57	0	608	0	0			0	0			1				0	
6.6.1	win	2023-06-26	23:07:56	23:19:11	669339	5c9d88bb2b3c77001744ec1c	4	1	practice_slash	9	practice_slash	29	stimuli_distractor_diamondtriangles.svg	stimuli_distractor_trianglediamonds.svg	14	no	0	1	2000	0	0			0	0			1				0	
6.6.1	win	2023-06-26	23:07:56	23:19:11	669339	5c9d88bb2b3c77001744ec1c	4	1	practice_slash	9	advance_on_keypress_SLASH	30	stimuli_distractor_diamondtriangles.svg	stimuli_distractor_trianglediamonds.svg	14	no	57	0	727	0	0			0	0			1				0	
6.6.1	win	2023-06-26	23:07:56	23:19:14	672958	5c9d88bb2b3c77001744ec1c	4	1	practice_slash	9	practice_slash	31	stimuli_distractor_trianglediamonds.svg	stimuli_target_squarediamonds.svg	11	yes	53	1	1232	0	0			0	0			1				0	
6.6.1	win	2023-06-26	23:07:56	23:19:14	672958	5c9d88bb2b3c77001744ec1c	4	1	practice_slash	9	advance_on_keypress_SLASH	32	stimuli_distractor_trianglediamonds.svg	stimuli_target_squarediamonds.svg	11	yes	57	0	2167	0	0			0	0			1				0	
6.6.1	win	2023-06-26	23:07:56	23:19:25	683669	5c9d88bb2b3c77001744ec1c	4	1	main_slash	11	main_slash	1	stimuli_distractor_diamondtriangles.svg	stimuli_distractor_diamondtriangles.svg	40	no	0	1	2000	0	0			0	0			1				0	
6.6.1	win	2023-06-26	23:07:56	23:19:25	683669	5c9d88bb2b3c77001744ec1c	4	1	main_slash	11	advance_on_keypress_SLASH	2	stimuli_distractor_diamondtriangles.svg	stimuli_distractor_diamondtriangles.svg	40	no	57	0	1188	0	0			0	0			1				0	
6.6.1	win	2023-06-26	23:07:56	23:19:28	686428	5c9d88bb2b3c77001744ec1c	4	1	main_slash	11	main_slash	3	stimuli_distractor_trianglediamonds.svg	stimuli_target_trianglesquares.svg	26	yes	53	1	921	0	0			0	0			1				0	
6.6.1	win	2023-06-26	23:07:56	23:19:28	686428	5c9d88bb2b3c77001744ec1c	4	1	main_slash	11	advance_on_keypress_SLASH	4	stimuli_distractor_trianglediamonds.svg	stimuli_target_trianglesquares.svg	26	yes	57	0	796	0	0			0	0			1				0	
6.6.1	win	2023-06-26	23:07:56	23:19:30	688694	5c9d88bb2b3c77001744ec1c	4	1	main_slash	11	main_slash	5	stimuli_distractor_diamondtriangles.svg	stimuli_target_diamondrectangles.svg	31	yes	53	1	818	0	0			0	0			1				0	
6.6.1	win	2023-06-26	23:07:56	23:19:30	688694	5c9d88bb2b3c77001744ec1c	4	1	main_slash	11	advance_on_keypress_SLASH	6	stimuli_distractor_diamondtriangles.svg	stimuli_target_diamondrectangles.svg	31	yes	57	0	747	0	0			0	0			1				0	
6.6.1	win	2023-06-26	23:07:56	23:19:33	691085	5c9d88bb2b3c77001744ec1c	4	1	main_slash	11	main_slash	7	stimuli_distractor_trianglediamonds.svg	stimuli_target_trianglerectangles.svg	25	yes	53	1	992	0	0			0	0			1				0	
6.6.1	win	2023-06-26	23:07:56	23:19:33	691085	5c9d88bb2b3c77001744ec1c	4	1	main_slash	11	advance_on_keypress_SLASH	8	stimuli_distractor_trianglediamonds.svg	stimuli_target_trianglerectangles.svg	25	yes	57	0	659	0	0			0	0			1				0	
6.6.1	win	2023-06-26	23:07:56	23:19:35	693234	5c9d88bb2b3c77001744ec1c	4	1	main_slash	11	main_slash	9	stimuli_distractor_diamondtriangles.svg	stimuli_target_diamondsquares.svg	32	yes	53	1	855	0	0			0	0			1				0	
6.6.1	win	2023-06-26	23:07:56	23:19:35	693234	5c9d88bb2b3c77001744ec1c	4	1	main_slash	11	advance_on_keypress_SLASH	10	stimuli_distractor_diamondtriangles.svg	stimuli_target_diamondsquares.svg	32	yes	57	0	853	0	0			0	0			1				0	
6.6.1	win	2023-06-26	23:07:56	23:19:37	695502	5c9d88bb2b3c77001744ec1c	4	1	main_slash	11	main_slash	11	stimuli_target_squarediamonds.svg	stimuli_distractor_trianglediamonds.svg	4	yes	53	1	770	0	0			0	0			1				0	
6.6.1	win	2023-06-26	23:07:56	23:19:37	695502	5c9d88bb2b3c77001744ec1c	4	1	main_slash	11	advance_on_keypress_SLASH	12	stimuli_target_squarediamonds.svg	stimuli_distractor_trianglediamonds.svg	4	yes	57	0	779	0	0			0	0			1				0	
6.6.1	win	2023-06-26	23:07:56	23:19:40	698218	5c9d88bb2b3c77001744ec1c	4	1	main_slash	11	main_slash	13	stimuli_target_diamondsquares.svg	stimuli_distractor_diamondtriangles.svg	24	yes	53	1	1282	0	0			0	0			1				0	
6.6.1	win	2023-06-26	23:07:56	23:19:40	698218	5c9d88bb2b3c77001744ec1c	4	1	main_slash	11	advance_on_keypress_SLASH	14	stimuli_target_diamondsquares.svg	stimuli_distractor_diamondtriangles.svg	24	yes	57	0	492	0	0			0	0			1				0	
6.6.1	win	2023-06-26	23:07:56	23:19:42	700445	5c9d88bb2b3c77001744ec1c	4	1	main_slash	11	main_slash	15	stimuli_distractor_trianglediamonds.svg	stimuli_target_diamondrectangles.svg	27	yes	53	1	1073	0	0			0	0			1				0	
6.6.1	win	2023-06-26	23:07:56	23:19:42	700445	5c9d88bb2b3c77001744ec1c	4	1	main_slash	11	advance_on_keypress_SLASH	16	stimuli_distractor_trianglediamonds.svg	stimuli_target_diamondrectangles.svg	27	yes	57	0	689	0	0			0	0			1				0	
6.6.1	win	2023-06-26	23:07:56	23:19:45	703237	5c9d88bb2b3c77001744ec1c	4	1	main_slash	11	main_slash	17	stimuli_target_trianglesquares.svg	stimuli_distractor_trianglediamonds.svg	18	yes	53	1	1465	0	0			0	0			1				0	
6.6.1	win	2023-06-26	23:07:56	23:19:45	703237	5c9d88bb2b3c77001744ec1c	4	1	main_slash	11	advance_on_keypress_SLASH	18	stimuli_target_trianglesquares.svg	stimuli_distractor_trianglediamonds.svg	18	yes	57	0	577	0	0			0	0			1				0	
6.6.1	win	2023-06-26	23:07:56	23:19:48	706252	5c9d88bb2b3c77001744ec1c	4	1	main_slash	11	main_slash	19	stimuli_distractor_trianglediamonds.svg	stimuli_target_squarediamonds.svg	12	yes	53	1	1776	0	0			0	0			1				0	
6.6.1	win	2023-06-26	23:07:56	23:19:48	706252	5c9d88bb2b3c77001744ec1c	4	1	main_slash	11	advance_on_keypress_SLASH	20	stimuli_distractor_trianglediamonds.svg	stimuli_target_squarediamonds.svg	12	yes	57	0	612	0	0			0	0			1				0	
6.6.1	win	2023-06-26	23:07:56	23:19:50	708604	5c9d88bb2b3c77001744ec1c	4	1	main_slash	11	main_slash	21	stimuli_target_trianglesquares.svg	stimuli_distractor_diamondtriangles.svg	22	yes	53	1	1076	0	0			0	0			1				0	
6.6.1	win	2023-06-26	23:07:56	23:19:50	708604	5c9d88bb2b3c77001744ec1c	4	1	main_slash	11	advance_on_keypress_SLASH	22	stimuli_target_trianglesquares.svg	stimuli_distractor_diamondtriangles.svg	22	yes	57	0	558	0	0			0	0			1				0	
6.6.1	win	2023-06-26	23:07:56	23:19:53	711163	5c9d88bb2b3c77001744ec1c	4	1	main_slash	11	main_slash	23	stimuli_target_trianglerectangles.svg	stimuli_distractor_diamondtriangles.svg	21	yes	53	1	1365	0	0			0	0			1				0	
6.6.1	win	2023-06-26	23:07:56	23:19:53	711163	5c9d88bb2b3c77001744ec1c	4	1	main_slash	11	advance_on_keypress_SLASH	24	stimuli_target_trianglerectangles.svg	stimuli_distractor_diamondtriangles.svg	21	yes	57	0	688	0	0			0	0			1				0	
6.6.1	win	2023-06-26	23:07:56	23:19:56	714083	5c9d88bb2b3c77001744ec1c	4	1	main_slash	11	main_slash	25	stimuli_distractor_diamondtriangles.svg	stimuli_target_rectangletriangles.svg	13	yes	53	1	1583	0	0			0	0			1				0	
6.6.1	win	2023-06-26	23:07:56	23:19:56	714083	5c9d88bb2b3c77001744ec1c	4	1	main_slash	11	advance_on_keypress_SLASH	26	stimuli_distractor_diamondtriangles.svg	stimuli_target_rectangletriangles.svg	13	yes	57	0	530	0	0			0	0			1				0	
6.6.1	win	2023-06-26	23:07:56	23:19:58	717048	5c9d88bb2b3c77001744ec1c	4	1	main_slash	11	main_slash	27	stimuli_distractor_diamondtriangles.svg	stimuli_target_squaretriangles.svg	15	yes	53	1	1779	0	0			0	0			1				0	
6.6.1	win	2023-06-26	23:07:56	23:19:58	717048	5c9d88bb2b3c77001744ec1c	4	1	main_slash	11	advance_on_keypress_SLASH	28	stimuli_distractor_diamondtriangles.svg	stimuli_target_squaretriangles.svg	15	yes	57	0	661	0	0			0	0			1				0	
6.6.1	win	2023-06-26	23:07:56	23:20:01	719913	5c9d88bb2b3c77001744ec1c	4	1	main_slash	11	main_slash	29	stimuli_distractor_diamondtriangles.svg	stimuli_distractor_trianglediamonds.svg	37	no	53	0	1541	0	0			0	0			1				0	
6.6.1	win	2023-06-26	23:07:56	23:20:01	719913	5c9d88bb2b3c77001744ec1c	4	1	main_slash	11	advance_on_keypress_SLASH	30	stimuli_distractor_diamondtriangles.svg	stimuli_distractor_trianglediamonds.svg	37	no	57	0	586	0	0			0	0			1				0	
6.6.1	win	2023-06-26	23:07:56	23:20:04	722416	5c9d88bb2b3c77001744ec1c	4	1	main_slash	11	main_slash	31	stimuli_target_trianglerectangles.svg	stimuli_distractor_trianglediamonds.svg	17	yes	53	1	1274	0	0			0	0			1				0	
6.6.1	win	2023-06-26	23:07:56	23:20:04	722416	5c9d88bb2b3c77001744ec1c	4	1	main_slash	11	advance_on_keypress_SLASH	32	stimuli_target_trianglerectangles.svg	stimuli_distractor_trianglediamonds.svg	17	yes	57	0	673	0	0			0	0			1				0	
6.6.1	win	2023-06-26	23:07:56	23:20:07	725061	5c9d88bb2b3c77001744ec1c	4	1	main_slash	11	main_slash	33	stimuli_distractor_trianglediamonds.svg	stimuli_target_rectangletriangles.svg	9	yes	53	1	1333	0	0			0	0			1				0	
6.6.1	win	2023-06-26	23:07:56	23:20:07	725061	5c9d88bb2b3c77001744ec1c	4	1	main_slash	11	advance_on_keypress_SLASH	34	stimuli_distractor_trianglediamonds.svg	stimuli_target_rectangletriangles.svg	9	yes	57	0	477	0	0			0	0			1				0	
6.6.1	win	2023-06-26	23:07:56	23:20:10	728197	5c9d88bb2b3c77001744ec1c	4	1	main_slash	11	main_slash	35	stimuli_target_diamondsquares.svg	stimuli_distractor_trianglediamonds.svg	20	yes	0	0	2000	0	0			0	0			1				0	
6.6.1	win	2023-06-26	23:07:56	23:20:10	728197	5c9d88bb2b3c77001744ec1c	4	1	main_slash	11	advance_on_keypress_SLASH	36	stimuli_target_diamondsquares.svg	stimuli_distractor_trianglediamonds.svg	20	yes	57	0	897	0	0			0	0			1				0	
6.6.1	win	2023-06-26	23:07:56	23:20:12	730540	5c9d88bb2b3c77001744ec1c	4	1	main_slash	11	main_slash	37	stimuli_target_rectanglediamonds.svg	stimuli_distractor_trianglediamonds.svg	2	yes	53	1	788	0	0			0	0			1				0	
6.6.1	win	2023-06-26	23:07:56	23:20:12	730540	5c9d88bb2b3c77001744ec1c	4	1	main_slash	11	advance_on_keypress_SLASH	38	stimuli_target_rectanglediamonds.svg	stimuli_distractor_trianglediamonds.svg	2	yes	57	0	679	0	0			0	0			1				0	
6.6.1	win	2023-06-26	23:07:56	23:20:14	732759	5c9d88bb2b3c77001744ec1c	4	1	main_slash	11	main_slash	39	stimuli_target_squaretriangles.svg	stimuli_distractor_trianglediamonds.svg	3	yes	53	1	889	0	0			0	0			1				0	
6.6.1	win	2023-06-26	23:07:56	23:20:14	732759	5c9d88bb2b3c77001744ec1c	4	1	main_slash	11	advance_on_keypress_SLASH	40	stimuli_target_squaretriangles.svg	stimuli_distractor_trianglediamonds.svg	3	yes	57	0	695	0	0			0	0			1				0	
6.6.1	win	2023-06-26	23:07:56	23:20:16	734836	5c9d88bb2b3c77001744ec1c	4	1	main_slash	11	main_slash	41	stimuli_distractor_trianglediamonds.svg	stimuli_target_rectanglediamonds.svg	10	yes	53	1	732	0	0			0	0			1				0	
6.6.1	win	2023-06-26	23:07:56	23:20:16	734836	5c9d88bb2b3c77001744ec1c	4	1	main_slash	11	advance_on_keypress_SLASH	42	stimuli_distractor_trianglediamonds.svg	stimuli_target_rectanglediamonds.svg	10	yes	57	0	1263	0	0			0	0			1				0	
6.6.1	win	2023-06-26	23:07:56	23:20:20	738757	5c9d88bb2b3c77001744ec1c	4	1	main_slash	11	main_slash	43	stimuli_distractor_trianglediamonds.svg	stimuli_distractor_trianglediamonds.svg	33	no	0	1	2000	0	0			0	0			1				0	
6.6.1	win	2023-06-26	23:07:56	23:20:20	738757	5c9d88bb2b3c77001744ec1c	4	1	main_slash	11	advance_on_keypress_SLASH	44	stimuli_distractor_trianglediamonds.svg	stimuli_distractor_trianglediamonds.svg	33	no	57	0	459	0	0			0	0			1				0	
6.6.1	win	2023-06-26	23:07:56	23:20:23	741877	5c9d88bb2b3c77001744ec1c	4	1	main_slash	11	main_slash	45	stimuli_distractor_trianglediamonds.svg	stimuli_distractor_diamondtriangles.svg	36	no	0	1	2000	0	0			0	0			1				0	
6.6.1	win	2023-06-26	23:07:56	23:20:23	741877	5c9d88bb2b3c77001744ec1c	4	1	main_slash	11	advance_on_keypress_SLASH	46	stimuli_distractor_trianglediamonds.svg	stimuli_distractor_diamondtriangles.svg	36	no	57	0	401	0	0			0	0			1				0	
6.6.1	win	2023-06-26	23:07:56	23:20:26	744225	5c9d88bb2b3c77001744ec1c	4	1	main_slash	11	main_slash	47	stimuli_target_diamondrectangles.svg	stimuli_distractor_diamondtriangles.svg	23	yes	53	1	1295	0	0			0	0			1				0	
6.6.1	win	2023-06-26	23:07:56	23:20:26	744225	5c9d88bb2b3c77001744ec1c	4	1	main_slash	11	advance_on_keypress_SLASH	48	stimuli_target_diamondrectangles.svg	stimuli_distractor_diamondtriangles.svg	23	yes	57	0	771	0	0			0	0			1				0	
6.6.1	win	2023-06-26	23:07:56	23:20:28	746288	5c9d88bb2b3c77001744ec1c	4	1	main_slash	11	main_slash	49	stimuli_target_rectangletriangles.svg	stimuli_distractor_diamondtriangles.svg	5	yes	53	1	638	0	0			0	0			1				0	
6.6.1	win	2023-06-26	23:07:56	23:20:28	746288	5c9d88bb2b3c77001744ec1c	4	1	main_slash	11	advance_on_keypress_SLASH	50	stimuli_target_rectangletriangles.svg	stimuli_distractor_diamondtriangles.svg	5	yes	57	0	703	0	0			0	0			1				0	
6.6.1	win	2023-06-26	23:07:56	23:20:30	748680	5c9d88bb2b3c77001744ec1c	4	1	main_slash	11	main_slash	51	stimuli_distractor_trianglediamonds.svg	stimuli_target_diamondsquares.svg	28	yes	53	1	1046	0	0			0	0			1				0	
6.6.1	win	2023-06-26	23:07:56	23:20:30	748680	5c9d88bb2b3c77001744ec1c	4	1	main_slash	11	advance_on_keypress_SLASH	52	stimuli_distractor_trianglediamonds.svg	stimuli_target_diamondsquares.svg	28	yes	57	0	756	0	0			0	0			1				0	
6.6.1	win	2023-06-26	23:07:56	23:20:32	750812	5c9d88bb2b3c77001744ec1c	4	1	main_slash	11	main_slash	53	stimuli_target_rectangletriangles.svg	stimuli_distractor_trianglediamonds.svg	1	yes	53	1	725	0	0			0	0			1				0	
6.6.1	win	2023-06-26	23:07:56	23:20:32	750812	5c9d88bb2b3c77001744ec1c	4	1	main_slash	11	advance_on_keypress_SLASH	54	stimuli_target_rectangletriangles.svg	stimuli_distractor_trianglediamonds.svg	1	yes	57	0	675	0	0			0	0			1				0	
6.6.1	win	2023-06-26	23:07:56	23:20:35	753692	5c9d88bb2b3c77001744ec1c	4	1	main_slash	11	main_slash	55	stimuli_distractor_diamondtriangles.svg	stimuli_distractor_trianglediamonds.svg	38	no	53	0	1570	0	0			0	0			1				0	
6.6.1	win	2023-06-26	23:07:56	23:20:35	753692	5c9d88bb2b3c77001744ec1c	4	1	main_slash	11	advance_on_keypress_SLASH	56	stimuli_distractor_diamondtriangles.svg	stimuli_distractor_trianglediamonds.svg	38	no	57	0	543	0	0			0	0			1				0	
6.6.1	win	2023-06-26	23:07:56	23:20:37	755848	5c9d88bb2b3c77001744ec1c	4	1	main_slash	11	main_slash	57	stimuli_target_squarediamonds.svg	stimuli_distractor_diamondtriangles.svg	8	yes	53	1	956	0	0			0	0			1				0	
6.6.1	win	2023-06-26	23:07:56	23:20:37	755848	5c9d88bb2b3c77001744ec1c	4	1	main_slash	11	advance_on_keypress_SLASH	58	stimuli_target_squarediamonds.svg	stimuli_distractor_diamondtriangles.svg	8	yes	57	0	578	0	0			0	0			1				0	
6.6.1	win	2023-06-26	23:07:56	23:20:39	757816	5c9d88bb2b3c77001744ec1c	4	1	main_slash	11	main_slash	59	stimuli_distractor_trianglediamonds.svg	stimuli_target_squaretriangles.svg	11	yes	53	1	739	0	0			0	0			1				0	
6.6.1	win	2023-06-26	23:07:56	23:20:39	757816	5c9d88bb2b3c77001744ec1c	4	1	main_slash	11	advance_on_keypress_SLASH	60	stimuli_distractor_trianglediamonds.svg	stimuli_target_squaretriangles.svg	11	yes	57	0	640	0	0			0	0			1				0	
6.6.1	win	2023-06-26	23:07:56	23:20:41	759721	5c9d88bb2b3c77001744ec1c	4	1	main_slash	11	main_slash	61	stimuli_distractor_diamondtriangles.svg	stimuli_target_squarediamonds.svg	16	yes	53	1	624	0	0			0	0			1				0	
6.6.1	win	2023-06-26	23:07:56	23:20:41	759721	5c9d88bb2b3c77001744ec1c	4	1	main_slash	11	advance_on_keypress_SLASH	62	stimuli_distractor_diamondtriangles.svg	stimuli_target_squarediamonds.svg	16	yes	57	0	736	0	0			0	0			1				0	
6.6.1	win	2023-06-26	23:07:56	23:20:43	761783	5c9d88bb2b3c77001744ec1c	4	1	main_slash	11	main_slash	63	stimuli_distractor_diamondtriangles.svg	stimuli_target_trianglesquares.svg	30	yes	53	1	668	0	0			0	0			1				0	
6.6.1	win	2023-06-26	23:07:56	23:20:43	761783	5c9d88bb2b3c77001744ec1c	4	1	main_slash	11	advance_on_keypress_SLASH	64	stimuli_distractor_diamondtriangles.svg	stimuli_target_trianglesquares.svg	30	yes	57	0	612	0	0			0	0			1				0	
6.6.1	win	2023-06-26	23:07:56	23:20:45	764033	5c9d88bb2b3c77001744ec1c	4	1	main_slash	11	main_slash	65	stimuli_distractor_diamondtriangles.svg	stimuli_target_rectanglediamonds.svg	14	yes	53	1	983	0	0			0	0			1				0	
6.6.1	win	2023-06-26	23:07:56	23:20:45	764033	5c9d88bb2b3c77001744ec1c	4	1	main_slash	11	advance_on_keypress_SLASH	66	stimuli_distractor_diamondtriangles.svg	stimuli_target_rectanglediamonds.svg	14	yes	57	0	1012	0	0			0	0			1				0	
6.6.1	win	2023-06-26	23:07:56	23:20:49	767702	5c9d88bb2b3c77001744ec1c	4	1	main_slash	11	main_slash	67	stimuli_distractor_trianglediamonds.svg	stimuli_distractor_trianglediamonds.svg	34	no	0	1	2000	0	0			0	0			1				0	
6.6.1	win	2023-06-26	23:07:56	23:20:49	767702	5c9d88bb2b3c77001744ec1c	4	1	main_slash	11	advance_on_keypress_SLASH	68	stimuli_distractor_trianglediamonds.svg	stimuli_distractor_trianglediamonds.svg	34	no	57	0	907	0	0			0	0			1				0	
6.6.1	win	2023-06-26	23:07:56	23:20:51	769896	5c9d88bb2b3c77001744ec1c	4	1	main_slash	11	main_slash	69	stimuli_target_squaretriangles.svg	stimuli_distractor_diamondtriangles.svg	7	yes	53	1	640	0	0			0	0			1				0	
6.6.1	win	2023-06-26	23:07:56	23:20:51	769896	5c9d88bb2b3c77001744ec1c	4	1	main_slash	11	advance_on_keypress_SLASH	70	stimuli_target_squaretriangles.svg	stimuli_distractor_diamondtriangles.svg	7	yes	57	0	862	0	0			0	0			1				0	
6.6.1	win	2023-06-26	23:07:56	23:20:55	773408	5c9d88bb2b3c77001744ec1c	4	1	main_slash	11	main_slash	71	stimuli_distractor_trianglediamonds.svg	stimuli_distractor_diamondtriangles.svg	35	no	0	1	2000	0	0			0	0			1				0	
6.6.1	win	2023-06-26	23:07:56	23:20:55	773408	5c9d88bb2b3c77001744ec1c	4	1	main_slash	11	advance_on_keypress_SLASH	72	stimuli_distractor_trianglediamonds.svg	stimuli_distractor_diamondtriangles.svg	35	no	57	0	429	0	0			0	0			1				0	
6.6.1	win	2023-06-26	23:07:56	23:20:57	775612	5c9d88bb2b3c77001744ec1c	4	1	main_slash	11	main_slash	73	stimuli_target_diamondrectangles.svg	stimuli_distractor_trianglediamonds.svg	19	yes	53	1	1117	0	0			0	0			1				0	
6.6.1	win	2023-06-26	23:07:56	23:20:57	775612	5c9d88bb2b3c77001744ec1c	4	1	main_slash	11	advance_on_keypress_SLASH	74	stimuli_target_diamondrectangles.svg	stimuli_distractor_trianglediamonds.svg	19	yes	57	0	650	0	0			0	0			1				0	
6.6.1	win	2023-06-26	23:07:56	23:21:00	778139	5c9d88bb2b3c77001744ec1c	4	1	main_slash	11	main_slash	75	stimuli_distractor_diamondtriangles.svg	stimuli_target_trianglerectangles.svg	29	yes	53	1	1224	0	0			0	0			1				0	
6.6.1	win	2023-06-26	23:07:56	23:21:00	778139	5c9d88bb2b3c77001744ec1c	4	1	main_slash	11	advance_on_keypress_SLASH	76	stimuli_distractor_diamondtriangles.svg	stimuli_target_trianglerectangles.svg	29	yes	57	0	1704	0	0			0	0			1				0	
6.6.1	win	2023-06-26	23:07:56	23:21:03	781682	5c9d88bb2b3c77001744ec1c	4	1	main_slash	11	main_slash	77	stimuli_target_rectanglediamonds.svg	stimuli_distractor_diamondtriangles.svg	6	yes	53	1	1181	0	0			0	0			1				0	
6.6.1	win	2023-06-26	23:07:56	23:21:03	781682	5c9d88bb2b3c77001744ec1c	4	1	main_slash	11	advance_on_keypress_SLASH	78	stimuli_target_rectanglediamonds.svg	stimuli_distractor_diamondtriangles.svg	6	yes	57	0	576	0	0			0	0			1				0	
6.6.1	win	2023-06-26	23:07:56	23:21:06	784920	5c9d88bb2b3c77001744ec1c	4	1	main_slash	11	main_slash	79	stimuli_distractor_diamondtriangles.svg	stimuli_distractor_diamondtriangles.svg	39	no	0	1	2000	0	0			0	0			1				0	
6.6.1	win	2023-06-26	23:07:56	23:21:06	784920	5c9d88bb2b3c77001744ec1c	4	1	main_slash	11	advance_on_keypress_SLASH	80	stimuli_distractor_diamondtriangles.svg	stimuli_distractor_diamondtriangles.svg	39	no	57	0	465	0	0			0	0			1				0	
6.6.1	win	2023-06-26	23:07:56	23:21:09	787262	5c9d88bb2b3c77001744ec1c	4	1	main_slash	11	main_slash	81	stimuli_target_trianglerectangles.svg	stimuli_distractor_diamondtriangles.svg	21	yes	53	1	1223	0	0			0	0			1				0	
6.6.1	win	2023-06-26	23:07:56	23:21:09	787262	5c9d88bb2b3c77001744ec1c	4	1	main_slash	11	advance_on_keypress_SLASH	82	stimuli_target_trianglerectangles.svg	stimuli_distractor_diamondtriangles.svg	21	yes	57	0	876	0	0			0	0			1				0	
6.6.1	win	2023-06-26	23:07:56	23:21:12	790198	5c9d88bb2b3c77001744ec1c	4	1	main_slash	11	main_slash	83	stimuli_distractor_diamondtriangles.svg	stimuli_target_squarediamonds.svg	16	yes	53	1	1406	0	0			0	0			1				0	
6.6.1	win	2023-06-26	23:07:56	23:21:12	790198	5c9d88bb2b3c77001744ec1c	4	1	main_slash	11	advance_on_keypress_SLASH	84	stimuli_distractor_diamondtriangles.svg	stimuli_target_squarediamonds.svg	16	yes	57	0	836	0	0			0	0			1				0	
6.6.1	win	2023-06-26	23:07:56	23:21:15	793678	5c9d88bb2b3c77001744ec1c	4	1	main_slash	11	main_slash	85	stimuli_distractor_trianglediamonds.svg	stimuli_distractor_diamondtriangles.svg	35	no	0	1	2000	0	0			0	0			1				0	
6.6.1	win	2023-06-26	23:07:56	23:21:15	793678	5c9d88bb2b3c77001744ec1c	4	1	main_slash	11	advance_on_keypress_SLASH	86	stimuli_distractor_trianglediamonds.svg	stimuli_distractor_diamondtriangles.svg	35	no	57	0	837	0	0			0	0			1				0	
6.6.1	win	2023-06-26	23:07:56	23:21:18	796322	5c9d88bb2b3c77001744ec1c	4	1	main_slash	11	main_slash	87	stimuli_distractor_trianglediamonds.svg	stimuli_target_trianglesquares.svg	26	yes	53	1	1156	0	0			0	0			1				0	
6.6.1	win	2023-06-26	23:07:56	23:21:18	796322	5c9d88bb2b3c77001744ec1c	4	1	main_slash	11	advance_on_keypress_SLASH	88	stimuli_distractor_trianglediamonds.svg	stimuli_target_trianglesquares.svg	26	yes	57	0	578	0	0			0	0			1				0	
6.6.1	win	2023-06-26	23:07:56	23:21:20	798369	5c9d88bb2b3c77001744ec1c	4	1	main_slash	11	main_slash	89	stimuli_distractor_trianglediamonds.svg	stimuli_target_trianglerectangles.svg	25	yes	53	1	817	0	0			0	0			1				0	
6.6.1	win	2023-06-26	23:07:56	23:21:20	798369	5c9d88bb2b3c77001744ec1c	4	1	main_slash	11	advance_on_keypress_SLASH	90	stimuli_distractor_trianglediamonds.svg	stimuli_target_trianglerectangles.svg	25	yes	57	0	668	0	0			0	0			1				0	
6.6.1	win	2023-06-26	23:07:56	23:21:22	800589	5c9d88bb2b3c77001744ec1c	4	1	main_slash	11	main_slash	91	stimuli_target_rectangletriangles.svg	stimuli_distractor_diamondtriangles.svg	5	yes	53	1	902	0	0			0	0			1				0	
6.6.1	win	2023-06-26	23:07:56	23:21:22	800589	5c9d88bb2b3c77001744ec1c	4	1	main_slash	11	advance_on_keypress_SLASH	92	stimuli_target_rectangletriangles.svg	stimuli_distractor_diamondtriangles.svg	5	yes	57	0	637	0	0			0	0			1				0	
6.6.1	win	2023-06-26	23:07:56	23:21:24	802809	5c9d88bb2b3c77001744ec1c	4	1	main_slash	11	main_slash	93	stimuli_target_trianglesquares.svg	stimuli_distractor_trianglediamonds.svg	18	yes	53	1	936	0	0			0	0			1				0	
6.6.1	win	2023-06-26	23:07:56	23:21:24	802809	5c9d88bb2b3c77001744ec1c	4	1	main_slash	11	advance_on_keypress_SLASH	94	stimuli_target_trianglesquares.svg	stimuli_distractor_trianglediamonds.svg	18	yes	57	0	574	0	0			0	0			1				0	
6.6.1	win	2023-06-26	23:07:56	23:21:26	804665	5c9d88bb2b3c77001744ec1c	4	1	main_slash	11	main_slash	95	stimuli_distractor_diamondtriangles.svg	stimuli_target_trianglesquares.svg	30	yes	53	1	641	0	0			0	0			1				0	
6.6.1	win	2023-06-26	23:07:56	23:21:26	804665	5c9d88bb2b3c77001744ec1c	4	1	main_slash	11	advance_on_keypress_SLASH	96	stimuli_distractor_diamondtriangles.svg	stimuli_target_trianglesquares.svg	30	yes	57	0	644	0	0			0	0			1				0	
6.6.1	win	2023-06-26	23:07:56	23:21:29	807959	5c9d88bb2b3c77001744ec1c	4	1	main_slash	11	main_slash	97	stimuli_distractor_trianglediamonds.svg	stimuli_distractor_trianglediamonds.svg	34	no	0	1	2000	0	0			0	0			1				0	
6.6.1	win	2023-06-26	23:07:56	23:21:29	807959	5c9d88bb2b3c77001744ec1c	4	1	main_slash	11	advance_on_keypress_SLASH	98	stimuli_distractor_trianglediamonds.svg	stimuli_distractor_trianglediamonds.svg	34	no	57	0	402	0	0			0	0			1				0	
6.6.1	win	2023-06-26	23:07:56	23:21:32	810263	5c9d88bb2b3c77001744ec1c	4	1	main_slash	11	main_slash	99	stimuli_target_trianglerectangles.svg	stimuli_distractor_trianglediamonds.svg	17	yes	53	1	1250	0	0			0	0			1				0	
6.6.1	win	2023-06-26	23:07:56	23:21:32	810263	5c9d88bb2b3c77001744ec1c	4	1	main_slash	11	advance_on_keypress_SLASH	100	stimuli_target_trianglerectangles.svg	stimuli_distractor_trianglediamonds.svg	17	yes	57	0	532	0	0			0	0			1				0	
6.6.1	win	2023-06-26	23:07:56	23:21:35	813448	5c9d88bb2b3c77001744ec1c	4	1	main_slash	11	main_slash	101	stimuli_distractor_diamondtriangles.svg	stimuli_distractor_trianglediamonds.svg	37	no	0	1	2000	0	0			0	0			1				0	
6.6.1	win	2023-06-26	23:07:56	23:21:35	813448	5c9d88bb2b3c77001744ec1c	4	1	main_slash	11	advance_on_keypress_SLASH	102	stimuli_distractor_diamondtriangles.svg	stimuli_distractor_trianglediamonds.svg	37	no	57	0	463	0	0			0	0			1				0	
6.6.1	win	2023-06-26	23:07:56	23:21:37	815638	5c9d88bb2b3c77001744ec1c	4	1	main_slash	11	main_slash	103	stimuli_target_rectanglediamonds.svg	stimuli_distractor_diamondtriangles.svg	6	yes	53	1	1069	0	0			0	0			1				0	
6.6.1	win	2023-06-26	23:07:56	23:21:37	815638	5c9d88bb2b3c77001744ec1c	4	1	main_slash	11	advance_on_keypress_SLASH	104	stimuli_target_rectanglediamonds.svg	stimuli_distractor_diamondtriangles.svg	6	yes	57	0	567	0	0			0	0			1				0	
6.6.1	win	2023-06-26	23:07:56	23:21:39	817818	5c9d88bb2b3c77001744ec1c	4	1	main_slash	11	main_slash	105	stimuli_target_squaretriangles.svg	stimuli_distractor_diamondtriangles.svg	7	yes	53	1	964	0	0			0	0			1				0	
6.6.1	win	2023-06-26	23:07:56	23:21:39	817818	5c9d88bb2b3c77001744ec1c	4	1	main_slash	11	advance_on_keypress_SLASH	106	stimuli_target_squaretriangles.svg	stimuli_distractor_diamondtriangles.svg	7	yes	57	0	647	0	0			0	0			1				0	
6.6.1	win	2023-06-26	23:07:56	23:21:42	820329	5c9d88bb2b3c77001744ec1c	4	1	main_slash	11	main_slash	107	stimuli_distractor_diamondtriangles.svg	stimuli_target_squaretriangles.svg	15	yes	53	1	1206	0	0			0	0			1				0	
6.6.1	win	2023-06-26	23:07:56	23:21:42	820329	5c9d88bb2b3c77001744ec1c	4	1	main_slash	11	advance_on_keypress_SLASH	108	stimuli_distractor_diamondtriangles.svg	stimuli_target_squaretriangles.svg	15	yes	57	0	435	0	0			0	0			1				0	
6.6.1	win	2023-06-26	23:07:56	23:21:45	823408	5c9d88bb2b3c77001744ec1c	4	1	main_slash	11	main_slash	109	stimuli_distractor_diamondtriangles.svg	stimuli_distractor_trianglediamonds.svg	38	no	0	1	2000	0	0			0	0			1				0	
6.6.1	win	2023-06-26	23:07:56	23:21:45	823408	5c9d88bb2b3c77001744ec1c	4	1	main_slash	11	advance_on_keypress_SLASH	110	stimuli_distractor_diamondtriangles.svg	stimuli_distractor_trianglediamonds.svg	38	no	57	0	1143	0	0			0	0			1				0	
6.6.1	win	2023-06-26	23:07:56	23:21:48	826965	5c9d88bb2b3c77001744ec1c	4	1	main_slash	11	main_slash	111	stimuli_distractor_diamondtriangles.svg	stimuli_target_rectanglediamonds.svg	14	yes	53	1	885	0	0			0	0			1				0	
6.6.1	win	2023-06-26	23:07:56	23:21:48	826965	5c9d88bb2b3c77001744ec1c	4	1	main_slash	11	advance_on_keypress_SLASH	112	stimuli_distractor_diamondtriangles.svg	stimuli_target_rectanglediamonds.svg	14	yes	57	0	849	0	0			0	0			1				0	
6.6.1	win	2023-06-26	23:07:56	23:21:51	829545	5c9d88bb2b3c77001744ec1c	4	1	main_slash	11	main_slash	113	stimuli_target_diamondsquares.svg	stimuli_distractor_diamondtriangles.svg	24	yes	53	1	1080	0	0			0	0			1				0	
6.6.1	win	2023-06-26	23:07:56	23:21:51	829545	5c9d88bb2b3c77001744ec1c	4	1	main_slash	11	advance_on_keypress_SLASH	114	stimuli_target_diamondsquares.svg	stimuli_distractor_diamondtriangles.svg	24	yes	57	0	545	0	0			0	0			1				0	
6.6.1	win	2023-06-26	23:07:56	23:21:53	831631	5c9d88bb2b3c77001744ec1c	4	1	main_slash	11	main_slash	115	stimuli_target_squarediamonds.svg	stimuli_distractor_diamondtriangles.svg	8	yes	53	1	880	0	0			0	0			1				0	
6.6.1	win	2023-06-26	23:07:56	23:21:53	831631	5c9d88bb2b3c77001744ec1c	4	1	main_slash	11	advance_on_keypress_SLASH	116	stimuli_target_squarediamonds.svg	stimuli_distractor_diamondtriangles.svg	8	yes	57	0	608	0	0			0	0			1				0	
6.6.1	win	2023-06-26	23:07:56	23:21:55	833543	5c9d88bb2b3c77001744ec1c	4	1	main_slash	11	main_slash	117	stimuli_target_diamondrectangles.svg	stimuli_distractor_trianglediamonds.svg	19	yes	53	1	657	0	0			0	0			1				0	
6.6.1	win	2023-06-26	23:07:56	23:21:55	833543	5c9d88bb2b3c77001744ec1c	4	1	main_slash	11	advance_on_keypress_SLASH	118	stimuli_target_diamondrectangles.svg	stimuli_distractor_trianglediamonds.svg	19	yes	57	0	1208	0	0			0	0			1				0	
6.6.1	win	2023-06-26	23:07:56	23:21:57	836007	5c9d88bb2b3c77001744ec1c	4	1	main_slash	11	main_slash	119	stimuli_distractor_diamondtriangles.svg	stimuli_target_diamondsquares.svg	32	yes	53	1	618	0	0			0	0			1				0	
6.6.1	win	2023-06-26	23:07:56	23:21:57	836007	5c9d88bb2b3c77001744ec1c	4	1	main_slash	11	advance_on_keypress_SLASH	120	stimuli_distractor_diamondtriangles.svg	stimuli_target_diamondsquares.svg	32	yes	57	0	651	0	0			0	0			1				0	
6.6.1	win	2023-06-26	23:07:56	23:22:00	838331	5c9d88bb2b3c77001744ec1c	4	1	main_slash	11	main_slash	121	stimuli_target_squaretriangles.svg	stimuli_distractor_trianglediamonds.svg	3	yes	53	1	1024	0	0			0	0			1				0	
6.6.1	win	2023-06-26	23:07:56	23:22:00	838331	5c9d88bb2b3c77001744ec1c	4	1	main_slash	11	advance_on_keypress_SLASH	122	stimuli_target_squaretriangles.svg	stimuli_distractor_trianglediamonds.svg	3	yes	57	0	577	0	0			0	0			1				0	
6.6.1	win	2023-06-26	23:07:56	23:22:03	841560	5c9d88bb2b3c77001744ec1c	4	1	main_slash	11	main_slash	123	stimuli_distractor_diamondtriangles.svg	stimuli_distractor_diamondtriangles.svg	39	no	0	1	2000	0	0			0	0			1				0	
6.6.1	win	2023-06-26	23:07:56	23:22:03	841560	5c9d88bb2b3c77001744ec1c	4	1	main_slash	11	advance_on_keypress_SLASH	124	stimuli_distractor_diamondtriangles.svg	stimuli_distractor_diamondtriangles.svg	39	no	57	0	474	0	0			0	0			1				0	
6.6.1	win	2023-06-26	23:07:56	23:22:05	843778	5c9d88bb2b3c77001744ec1c	4	1	main_slash	11	main_slash	125	stimuli_distractor_trianglediamonds.svg	stimuli_target_diamondrectangles.svg	27	yes	53	1	1098	0	0			0	0			1				0	
6.6.1	win	2023-06-26	23:07:56	23:22:05	843778	5c9d88bb2b3c77001744ec1c	4	1	main_slash	11	advance_on_keypress_SLASH	126	stimuli_distractor_trianglediamonds.svg	stimuli_target_diamondrectangles.svg	27	yes	57	0	530	0	0			0	0			1				0	
6.6.1	win	2023-06-26	23:07:56	23:22:08	846367	5c9d88bb2b3c77001744ec1c	4	1	main_slash	11	main_slash	127	stimuli_distractor_trianglediamonds.svg	stimuli_target_rectanglediamonds.svg	10	yes	53	1	1401	0	0			0	0			1				0	
6.6.1	win	2023-06-26	23:07:56	23:22:08	846367	5c9d88bb2b3c77001744ec1c	4	1	main_slash	11	advance_on_keypress_SLASH	128	stimuli_distractor_trianglediamonds.svg	stimuli_target_rectanglediamonds.svg	10	yes	57	0	478	0	0			0	0			1				0	
6.6.1	win	2023-06-26	23:07:56	23:22:10	848602	5c9d88bb2b3c77001744ec1c	4	1	main_slash	11	main_slash	129	stimuli_distractor_trianglediamonds.svg	stimuli_target_rectangletriangles.svg	9	yes	53	1	1100	0	0			0	0			1				0	
6.6.1	win	2023-06-26	23:07:56	23:22:10	848602	5c9d88bb2b3c77001744ec1c	4	1	main_slash	11	advance_on_keypress_SLASH	130	stimuli_distractor_trianglediamonds.svg	stimuli_target_rectangletriangles.svg	9	yes	57	0	1453	0	0			0	0			1				0	
6.6.1	win	2023-06-26	23:07:56	23:22:13	851837	5c9d88bb2b3c77001744ec1c	4	1	main_slash	11	main_slash	131	stimuli_target_rectangletriangles.svg	stimuli_distractor_trianglediamonds.svg	1	yes	53	1	1132	0	0			0	0			1				0	
6.6.1	win	2023-06-26	23:07:56	23:22:13	851837	5c9d88bb2b3c77001744ec1c	4	1	main_slash	11	advance_on_keypress_SLASH	132	stimuli_target_rectangletriangles.svg	stimuli_distractor_trianglediamonds.svg	1	yes	57	0	1153	0	0			0	0			1				0	
6.6.1	win	2023-06-26	23:07:56	23:22:17	855641	5c9d88bb2b3c77001744ec1c	4	1	main_slash	11	main_slash	133	stimuli_target_trianglesquares.svg	stimuli_distractor_diamondtriangles.svg	22	yes	0	0	2000	0	0			0	0			1				0	
6.6.1	win	2023-06-26	23:07:56	23:22:17	855641	5c9d88bb2b3c77001744ec1c	4	1	main_slash	11	advance_on_keypress_SLASH	134	stimuli_target_trianglesquares.svg	stimuli_distractor_diamondtriangles.svg	22	yes	57	0	614	0	0			0	0			1				0	
6.6.1	win	2023-06-26	23:07:56	23:22:19	857630	5c9d88bb2b3c77001744ec1c	4	1	main_slash	11	main_slash	135	stimuli_target_diamondsquares.svg	stimuli_distractor_trianglediamonds.svg	20	yes	53	1	719	0	0			0	0			1				0	
6.6.1	win	2023-06-26	23:07:56	23:22:19	857630	5c9d88bb2b3c77001744ec1c	4	1	main_slash	11	advance_on_keypress_SLASH	136	stimuli_target_diamondsquares.svg	stimuli_distractor_trianglediamonds.svg	20	yes	57	0	700	0	0			0	0			1				0	
6.6.1	win	2023-06-26	23:07:56	23:22:22	860053	5c9d88bb2b3c77001744ec1c	4	1	main_slash	11	main_slash	137	stimuli_target_rectanglediamonds.svg	stimuli_distractor_trianglediamonds.svg	2	yes	53	1	1074	0	0			0	0			1				0	
6.6.1	win	2023-06-26	23:07:56	23:22:22	860053	5c9d88bb2b3c77001744ec1c	4	1	main_slash	11	advance_on_keypress_SLASH	138	stimuli_target_rectanglediamonds.svg	stimuli_distractor_trianglediamonds.svg	2	yes	57	0	1115	0	0			0	0			1				0	
6.6.1	win	2023-06-26	23:07:56	23:22:24	862533	5c9d88bb2b3c77001744ec1c	4	1	main_slash	11	main_slash	139	stimuli_distractor_diamondtriangles.svg	stimuli_target_diamondrectangles.svg	31	yes	53	1	717	0	0			0	0			1				0	
6.6.1	win	2023-06-26	23:07:56	23:22:24	862533	5c9d88bb2b3c77001744ec1c	4	1	main_slash	11	advance_on_keypress_SLASH	140	stimuli_distractor_diamondtriangles.svg	stimuli_target_diamondrectangles.svg	31	yes	57	0	691	0	0			0	0			1				0	
6.6.1	win	2023-06-26	23:07:56	23:22:26	864485	5c9d88bb2b3c77001744ec1c	4	1	main_slash	11	main_slash	141	stimuli_target_diamondrectangles.svg	stimuli_distractor_diamondtriangles.svg	23	yes	53	1	617	0	0			0	0			1				0	
6.6.1	win	2023-06-26	23:07:56	23:22:26	864485	5c9d88bb2b3c77001744ec1c	4	1	main_slash	11	advance_on_keypress_SLASH	142	stimuli_target_diamondrectangles.svg	stimuli_distractor_diamondtriangles.svg	23	yes	57	0	643	0	0			0	0			1				0	
6.6.1	win	2023-06-26	23:07:56	23:22:29	867786	5c9d88bb2b3c77001744ec1c	4	1	main_slash	11	main_slash	143	stimuli_distractor_trianglediamonds.svg	stimuli_distractor_diamondtriangles.svg	36	no	0	1	2000	0	0			0	0			1				0	
6.6.1	win	2023-06-26	23:07:56	23:22:29	867786	5c9d88bb2b3c77001744ec1c	4	1	main_slash	11	advance_on_keypress_SLASH	144	stimuli_distractor_trianglediamonds.svg	stimuli_distractor_diamondtriangles.svg	36	no	57	0	425	0	0			0	0			1				0	
6.6.1	win	2023-06-26	23:07:56	23:22:32	870856	5c9d88bb2b3c77001744ec1c	4	1	main_slash	11	main_slash	145	stimuli_distractor_trianglediamonds.svg	stimuli_distractor_trianglediamonds.svg	33	no	0	1	2000	0	0			0	0			1				0	
6.6.1	win	2023-06-26	23:07:56	23:22:32	870856	5c9d88bb2b3c77001744ec1c	4	1	main_slash	11	advance_on_keypress_SLASH	146	stimuli_distractor_trianglediamonds.svg	stimuli_distractor_trianglediamonds.svg	33	no	57	0	550	0	0			0	0			1				0	
6.6.1	win	2023-06-26	23:07:56	23:22:35	873180	5c9d88bb2b3c77001744ec1c	4	1	main_slash	11	main_slash	147	stimuli_distractor_diamondtriangles.svg	stimuli_target_trianglerectangles.svg	29	yes	53	1	1121	0	0			0	0			1				0	
6.6.1	win	2023-06-26	23:07:56	23:22:35	873180	5c9d88bb2b3c77001744ec1c	4	1	main_slash	11	advance_on_keypress_SLASH	148	stimuli_distractor_diamondtriangles.svg	stimuli_target_trianglerectangles.svg	29	yes	57	0	513	0	0			0	0			1				0	
6.6.1	win	2023-06-26	23:07:56	23:22:38	876344	5c9d88bb2b3c77001744ec1c	4	1	main_slash	11	main_slash	149	stimuli_distractor_diamondtriangles.svg	stimuli_distractor_diamondtriangles.svg	40	no	0	1	2000	0	0			0	0			1				0	
6.6.1	win	2023-06-26	23:07:56	23:22:38	876344	5c9d88bb2b3c77001744ec1c	4	1	main_slash	11	advance_on_keypress_SLASH	150	stimuli_distractor_diamondtriangles.svg	stimuli_distractor_diamondtriangles.svg	40	no	57	0	396	0	0			0	0			1				0	
6.6.1	win	2023-06-26	23:07:56	23:22:40	878909	5c9d88bb2b3c77001744ec1c	4	1	main_slash	11	main_slash	151	stimuli_distractor_diamondtriangles.svg	stimuli_target_rectangletriangles.svg	13	yes	53	1	1511	0	0			0	0			1				0	
6.6.1	win	2023-06-26	23:07:56	23:22:40	878909	5c9d88bb2b3c77001744ec1c	4	1	main_slash	11	advance_on_keypress_SLASH	152	stimuli_distractor_diamondtriangles.svg	stimuli_target_rectangletriangles.svg	13	yes	57	0	920	0	0			0	0			1				0	
6.6.1	win	2023-06-26	23:07:56	23:22:43	881373	5c9d88bb2b3c77001744ec1c	4	1	main_slash	11	main_slash	153	stimuli_distractor_trianglediamonds.svg	stimuli_target_squarediamonds.svg	12	yes	53	1	888	0	0			0	0			1				0	
6.6.1	win	2023-06-26	23:07:56	23:22:43	881373	5c9d88bb2b3c77001744ec1c	4	1	main_slash	11	advance_on_keypress_SLASH	154	stimuli_distractor_trianglediamonds.svg	stimuli_target_squarediamonds.svg	12	yes	57	0	546	0	0			0	0			1				0	
6.6.1	win	2023-06-26	23:07:56	23:22:45	883285	5c9d88bb2b3c77001744ec1c	4	1	main_slash	11	main_slash	155	stimuli_target_squarediamonds.svg	stimuli_distractor_trianglediamonds.svg	4	yes	53	1	715	0	0			0	0			1				0	
6.6.1	win	2023-06-26	23:07:56	23:22:45	883285	5c9d88bb2b3c77001744ec1c	4	1	main_slash	11	advance_on_keypress_SLASH	156	stimuli_target_squarediamonds.svg	stimuli_distractor_trianglediamonds.svg	4	yes	57	0	634	0	0			0	0			1				0	
6.6.1	win	2023-06-26	23:07:56	23:22:47	885410	5c9d88bb2b3c77001744ec1c	4	1	main_slash	11	main_slash	157	stimuli_distractor_trianglediamonds.svg	stimuli_target_diamondsquares.svg	28	yes	53	1	838	0	0			0	0			1				0	
6.6.1	win	2023-06-26	23:07:56	23:22:47	885410	5c9d88bb2b3c77001744ec1c	4	1	main_slash	11	advance_on_keypress_SLASH	158	stimuli_distractor_trianglediamonds.svg	stimuli_target_diamondsquares.svg	28	yes	57	0	561	0	0			0	0			1				0	
6.6.1	win	2023-06-26	23:07:56	23:22:49	887402	5c9d88bb2b3c77001744ec1c	4	1	main_slash	11	main_slash	159	stimuli_distractor_trianglediamonds.svg	stimuli_target_squaretriangles.svg	11	yes	53	1	779	0	0			0	0			1				0	
6.6.1	win	2023-06-26	23:07:56	23:22:49	887402	5c9d88bb2b3c77001744ec1c	4	1	main_slash	11	advance_on_keypress_SLASH	160	stimuli_distractor_trianglediamonds.svg	stimuli_target_squaretriangles.svg	11	yes	57	0	519	0	0			0	0			1				0	
6.6.1	win	2023-06-26	23:07:56	23:22:49	887402	5c9d88bb2b3c77001744ec1c	4	1	headphonecheck_calibration	14	headphonecheck_calibrationIntro	1	stimuli_distractor_trianglediamonds.svg	stimuli_target_squaretriangles.svg	11	yes	calibrationButton	0	1879	0	0			0	0			1				0	
6.6.1	win	2023-06-26	23:07:56	23:22:49	887402	5c9d88bb2b3c77001744ec1c	4	1	headphonecheck_testphase	15	test_collectResponse	3	stimuli_distractor_trianglediamonds.svg	stimuli_target_squaretriangles.svg	11	yes	third	0	12451	1	1	antiphase_hc_iso.wav	2	0	0			1				0	
6.6.1	win	2023-06-26	23:07:56	23:22:49	887402	5c9d88bb2b3c77001744ec1c	4	1	headphonecheck_testphase	15	test_collectResponse	6	stimuli_distractor_trianglediamonds.svg	stimuli_target_squaretriangles.svg	11	yes	second	0	11617	2	3	antiphase_hc_soi.wav	1	0	0			1				0	
6.6.1	win	2023-06-26	23:07:56	23:22:49	887402	5c9d88bb2b3c77001744ec1c	4	1	headphonecheck_testphase	15	test_collectResponse	9	stimuli_distractor_trianglediamonds.svg	stimuli_target_squaretriangles.svg	11	yes	second	0	4724	3	4	antiphase_hc_sio.wav	1	0	0			1				0	
6.6.1	win	2023-06-26	23:07:56	23:22:49	887402	5c9d88bb2b3c77001744ec1c	4	1	headphonecheck_testphase	15	test_collectResponse	12	stimuli_distractor_trianglediamonds.svg	stimuli_target_squaretriangles.svg	11	yes	third	1	466	4	2	antiphase_hc_ios.wav	3	0	0			1				0	
6.6.1	win	2023-06-26	23:07:56	23:22:49	887402	5c9d88bb2b3c77001744ec1c	4	1	headphonecheck_testphase	15	test_collectResponse	15	stimuli_distractor_trianglediamonds.svg	stimuli_target_squaretriangles.svg	11	yes	second	0	823	5	6	antiphase_hc_ois.wav	3	0	0			1				0	
6.6.1	win	2023-06-26	23:07:56	23:22:49	887402	5c9d88bb2b3c77001744ec1c	4	1	headphonecheck_testphase	15	test_collectResponse	18	stimuli_distractor_trianglediamonds.svg	stimuli_target_squaretriangles.svg	11	yes	second	1	458	6	5	antiphase_hc_osi.wav	2	0	0			1				0	
6.6.1	win	2023-06-26	23:07:56	23:22:49	887402	5c9d88bb2b3c77001744ec1c	4	1	stereocheck_calibration	17	stereocheck_calibrationIntro	1	stimuli_distractor_trianglediamonds.svg	stimuli_target_squaretriangles.svg	11	yes	stereocheck_calibrationButton	0	4009	6	5	antiphase_hc_osi.wav	2	0	0			1				0	
6.6.1	win	2023-06-26	23:07:56	23:22:49	887402	5c9d88bb2b3c77001744ec1c	4	1	stereocheck_testphase	18	stereocheck_test_collectResponse	3	stimuli_distractor_trianglediamonds.svg	stimuli_target_squaretriangles.svg	11	yes	stereocheck_right	1	2319	6	5	antiphase_hc_osi.wav	2	1	5	noise_calib_stim_RIGHT.wav	2	1				0	
6.6.1	win	2023-06-26	23:07:56	23:22:49	887402	5c9d88bb2b3c77001744ec1c	4	1	stereocheck_testphase	18	stereocheck_test_collectResponse	6	stimuli_distractor_trianglediamonds.svg	stimuli_target_squaretriangles.svg	11	yes	stereocheck_right	1	362	6	5	antiphase_hc_osi.wav	2	2	6	noise_calib_stim_RIGHT.wav	2	1				0	
6.6.1	win	2023-06-26	23:07:56	23:22:49	887402	5c9d88bb2b3c77001744ec1c	4	1	stereocheck_testphase	18	stereocheck_test_collectResponse	9	stimuli_distractor_trianglediamonds.svg	stimuli_target_squaretriangles.svg	11	yes	stereocheck_left	1	551	6	5	antiphase_hc_osi.wav	2	3	1	noise_calib_stim_LEFT.wav	1	1				0	
6.6.1	win	2023-06-26	23:07:56	23:22:49	887402	5c9d88bb2b3c77001744ec1c	4	1	stereocheck_testphase	18	stereocheck_test_collectResponse	12	stimuli_distractor_trianglediamonds.svg	stimuli_target_squaretriangles.svg	11	yes	stereocheck_left	1	356	6	5	antiphase_hc_osi.wav	2	4	3	noise_calib_stim_LEFT.wav	1	1				0	
6.6.1	win	2023-06-26	23:07:56	23:22:49	887402	5c9d88bb2b3c77001744ec1c	4	1	stereocheck_testphase	18	stereocheck_test_collectResponse	15	stimuli_distractor_trianglediamonds.svg	stimuli_target_squaretriangles.svg	11	yes	stereocheck_right	1	314	6	5	antiphase_hc_osi.wav	2	5	4	noise_calib_stim_RIGHT.wav	2	1				0	
6.6.1	win	2023-06-26	23:07:56	23:22:49	887402	5c9d88bb2b3c77001744ec1c	4	1	stereocheck_testphase	18	stereocheck_test_collectResponse	18	stimuli_distractor_trianglediamonds.svg	stimuli_target_squaretriangles.svg	11	yes	stereocheck_left	1	287	6	5	antiphase_hc_osi.wav	2	6	2	noise_calib_stim_LEFT.wav	1	1				0	
6.6.1	win	2023-06-26	23:07:56	23:22:49	887402	5c9d88bb2b3c77001744ec1c	4	1	DL_practice	21	DL_practice	2	stimuli_distractor_trianglediamonds.svg	stimuli_target_squaretriangles.svg	11	yes	ba	0	1200	6	5	antiphase_hc_osi.wav	2	6	2	noise_calib_stim_LEFT.wav	1	8	blb_dichoticlistening_da-da.mp3	da	da	0	other
6.6.1	win	2023-06-26	23:07:56	23:22:49	887402	5c9d88bb2b3c77001744ec1c	4	1	DL_practice	21	DL_practice	3	stimuli_distractor_trianglediamonds.svg	stimuli_target_squaretriangles.svg	11	yes	ka	1	2996	6	5	antiphase_hc_osi.wav	2	6	2	noise_calib_stim_LEFT.wav	1	22	blb_dichoticlistening_ka-ka.mp3	ka	ka	0	left
6.6.1	win	2023-06-26	23:07:56	23:22:49	887402	5c9d88bb2b3c77001744ec1c	4	1	DL_practice	21	DL_practice	4	stimuli_distractor_trianglediamonds.svg	stimuli_target_squaretriangles.svg	11	yes	ba	1	1828	6	5	antiphase_hc_osi.wav	2	6	2	noise_calib_stim_LEFT.wav	1	1	blb_dichoticlistening_ba-ba.mp3	ba	ba	0	left
6.6.1	win	2023-06-26	23:07:56	23:22:49	887402	5c9d88bb2b3c77001744ec1c	4	1	DL_practice	21	DL_practice	5	stimuli_distractor_trianglediamonds.svg	stimuli_target_squaretriangles.svg	11	yes	ta	1	1513	6	5	antiphase_hc_osi.wav	2	6	2	noise_calib_stim_LEFT.wav	1	36	blb_dichoticlistening_ta-ta.mp3	ta	ta	0	left
6.6.1	win	2023-06-26	23:07:56	23:22:49	887402	5c9d88bb2b3c77001744ec1c	4	1	DL_practice	21	DL_practice	6	stimuli_distractor_trianglediamonds.svg	stimuli_target_squaretriangles.svg	11	yes	pa	0	1300	6	5	antiphase_hc_osi.wav	2	6	2	noise_calib_stim_LEFT.wav	1	18	blb_dichoticlistening_ga-ta.mp3	ga	ta	1	other
6.6.1	win	2023-06-26	23:07:56	23:22:49	887402	5c9d88bb2b3c77001744ec1c	4	1	DL_practice	21	DL_practice	7	stimuli_distractor_trianglediamonds.svg	stimuli_target_squaretriangles.svg	11	yes	ba	1	1198	6	5	antiphase_hc_osi.wav	2	6	2	noise_calib_stim_LEFT.wav	1	7	blb_dichoticlistening_da-ba.mp3	da	ba	1	right
6.6.1	win	2023-06-26	23:07:56	23:22:49	887402	5c9d88bb2b3c77001744ec1c	4	1	DL_practice	21	DL_practice	8	stimuli_distractor_trianglediamonds.svg	stimuli_target_squaretriangles.svg	11	yes	da	0	1084	6	5	antiphase_hc_osi.wav	2	6	2	noise_calib_stim_LEFT.wav	1	15	blb_dichoticlistening_ga-ga.mp3	ga	ga	0	other
6.6.1	win	2023-06-26	23:07:56	23:22:49	887402	5c9d88bb2b3c77001744ec1c	4	1	DL_practice	21	DL_practice	9	stimuli_distractor_trianglediamonds.svg	stimuli_target_squaretriangles.svg	11	yes	pa	1	1513	6	5	antiphase_hc_osi.wav	2	6	2	noise_calib_stim_LEFT.wav	1	23	blb_dichoticlistening_ka-pa.mp3	ka	pa	1	right
6.6.1	win	2023-06-26	23:07:56	23:22:49	887402	5c9d88bb2b3c77001744ec1c	4	1	DL_practice	21	DL_practice	10	stimuli_distractor_trianglediamonds.svg	stimuli_target_squaretriangles.svg	11	yes	pa	1	820	6	5	antiphase_hc_osi.wav	2	6	2	noise_calib_stim_LEFT.wav	1	29	blb_dichoticlistening_pa-pa.mp3	pa	pa	0	left
6.6.1	win	2023-06-26	23:07:56	23:22:49	887402	5c9d88bb2b3c77001744ec1c	4	1	DL_test	23	DL_test	1	stimuli_distractor_trianglediamonds.svg	stimuli_target_squaretriangles.svg	11	yes	pa	0	1724	6	5	antiphase_hc_osi.wav	2	6	2	noise_calib_stim_LEFT.wav	1	12	blb_dichoticlistening_da-ta.mp3	da	ta	1	other
6.6.1	win	2023-06-26	23:07:56	23:22:49	887402	5c9d88bb2b3c77001744ec1c	4	1	DL_test	23	DL_test	2	stimuli_distractor_trianglediamonds.svg	stimuli_target_squaretriangles.svg	11	yes	ba	1	865	6	5	antiphase_hc_osi.wav	2	6	2	noise_calib_stim_LEFT.wav	1	1	blb_dichoticlistening_ba-ba.mp3	ba	ba	0	left
6.6.1	win	2023-06-26	23:07:56	23:22:49	887402	5c9d88bb2b3c77001744ec1c	4	1	DL_test	23	DL_test	3	stimuli_distractor_trianglediamonds.svg	stimuli_target_squaretriangles.svg	11	yes	ba	1	973	6	5	antiphase_hc_osi.wav	2	6	2	noise_calib_stim_LEFT.wav	1	3	blb_dichoticlistening_ba-ga.mp3	ba	ga	1	left
6.6.1	win	2023-06-26	23:07:56	23:22:49	887402	5c9d88bb2b3c77001744ec1c	4	1	DL_test	23	DL_test	4	stimuli_distractor_trianglediamonds.svg	stimuli_target_squaretriangles.svg	11	yes	pa	1	1547	6	5	antiphase_hc_osi.wav	2	6	2	noise_calib_stim_LEFT.wav	1	5	blb_dichoticlistening_ba-pa.mp3	ba	pa	1	right
6.6.1	win	2023-06-26	23:07:56	23:22:49	887402	5c9d88bb2b3c77001744ec1c	4	1	DL_test	23	DL_test	5	stimuli_distractor_trianglediamonds.svg	stimuli_target_squaretriangles.svg	11	yes	ta	1	1304	6	5	antiphase_hc_osi.wav	2	6	2	noise_calib_stim_LEFT.wav	1	24	blb_dichoticlistening_ka-ta.mp3	ka	ta	1	right
6.6.1	win	2023-06-26	23:07:56	23:22:49	887402	5c9d88bb2b3c77001744ec1c	4	1	DL_test	23	DL_test	6	stimuli_distractor_trianglediamonds.svg	stimuli_target_squaretriangles.svg	11	yes	pa	0	1176	6	5	antiphase_hc_osi.wav	2	6	2	noise_calib_stim_LEFT.wav	1	6	blb_dichoticlistening_ba-ta.mp3	ba	ta	1	other
6.6.1	win	2023-06-26	23:07:56	23:22:49	887402	5c9d88bb2b3c77001744ec1c	4	1	DL_test	23	DL_test	7	stimuli_distractor_trianglediamonds.svg	stimuli_target_squaretriangles.svg	11	yes	pa	1	961	6	5	antiphase_hc_osi.wav	2	6	2	noise_calib_stim_LEFT.wav	1	30	blb_dichoticlistening_pa-ta.mp3	pa	ta	1	left
6.6.1	win	2023-06-26	23:07:56	23:22:49	887402	5c9d88bb2b3c77001744ec1c	4	1	DL_test	23	DL_test	8	stimuli_distractor_trianglediamonds.svg	stimuli_target_squaretriangles.svg	11	yes	pa	0	1201	6	5	antiphase_hc_osi.wav	2	6	2	noise_calib_stim_LEFT.wav	1	20	blb_dichoticlistening_ka-da.mp3	ka	da	1	other
6.6.1	win	2023-06-26	23:07:56	23:22:49	887402	5c9d88bb2b3c77001744ec1c	4	1	DL_test	23	DL_test	9	stimuli_distractor_trianglediamonds.svg	stimuli_target_squaretriangles.svg	11	yes	pa	1	1349	6	5	antiphase_hc_osi.wav	2	6	2	noise_calib_stim_LEFT.wav	1	25	blb_dichoticlistening_pa-ba.mp3	pa	ba	1	left
6.6.1	win	2023-06-26	23:07:56	23:22:49	887402	5c9d88bb2b3c77001744ec1c	4	1	DL_test	23	DL_test	10	stimuli_distractor_trianglediamonds.svg	stimuli_target_squaretriangles.svg	11	yes	pa	0	1100	6	5	antiphase_hc_osi.wav	2	6	2	noise_calib_stim_LEFT.wav	1	16	blb_dichoticlistening_ga-ka.mp3	ga	ka	1	other
6.6.1	win	2023-06-26	23:07:56	23:22:49	887402	5c9d88bb2b3c77001744ec1c	4	1	DL_test	23	DL_test	11	stimuli_distractor_trianglediamonds.svg	stimuli_target_squaretriangles.svg	11	yes	ba	1	960	6	5	antiphase_hc_osi.wav	2	6	2	noise_calib_stim_LEFT.wav	1	7	blb_dichoticlistening_da-ba.mp3	da	ba	1	right
6.6.1	win	2023-06-26	23:07:56	23:22:49	887402	5c9d88bb2b3c77001744ec1c	4	1	DL_test	23	DL_test	12	stimuli_distractor_trianglediamonds.svg	stimuli_target_squaretriangles.svg	11	yes	pa	0	2009	6	5	antiphase_hc_osi.wav	2	6	2	noise_calib_stim_LEFT.wav	1	19	blb_dichoticlistening_ka-ba.mp3	ka	ba	1	other
6.6.1	win	2023-06-26	23:07:56	23:22:49	887402	5c9d88bb2b3c77001744ec1c	4	1	DL_test	23	DL_test	13	stimuli_distractor_trianglediamonds.svg	stimuli_target_squaretriangles.svg	11	yes	da	1	821	6	5	antiphase_hc_osi.wav	2	6	2	noise_calib_stim_LEFT.wav	1	8	blb_dichoticlistening_da-da.mp3	da	da	0	left
6.6.1	win	2023-06-26	23:07:56	23:22:49	887402	5c9d88bb2b3c77001744ec1c	4	1	DL_test	23	DL_test	14	stimuli_distractor_trianglediamonds.svg	stimuli_target_squaretriangles.svg	11	yes	ba	0	2542	6	5	antiphase_hc_osi.wav	2	6	2	noise_calib_stim_LEFT.wav	1	21	blb_dichoticlistening_ka-ga.mp3	ka	ga	1	other
6.6.1	win	2023-06-26	23:07:56	23:22:49	887402	5c9d88bb2b3c77001744ec1c	4	1	DL_test	23	DL_test	15	stimuli_distractor_trianglediamonds.svg	stimuli_target_squaretriangles.svg	11	yes	pa	0	1289	6	5	antiphase_hc_osi.wav	2	6	2	noise_calib_stim_LEFT.wav	1	22	blb_dichoticlistening_ka-ka.mp3	ka	ka	0	other
6.6.1	win	2023-06-26	23:07:56	23:22:49	887402	5c9d88bb2b3c77001744ec1c	4	1	DL_test	23	DL_test	16	stimuli_distractor_trianglediamonds.svg	stimuli_target_squaretriangles.svg	11	yes	ba	0	1918	6	5	antiphase_hc_osi.wav	2	6	2	noise_calib_stim_LEFT.wav	1	15	blb_dichoticlistening_ga-ga.mp3	ga	ga	0	other
6.6.1	win	2023-06-26	23:07:56	23:22:49	887402	5c9d88bb2b3c77001744ec1c	4	1	DL_test	23	DL_test	17	stimuli_distractor_trianglediamonds.svg	stimuli_target_squaretriangles.svg	11	yes	pa	1	1033	6	5	antiphase_hc_osi.wav	2	6	2	noise_calib_stim_LEFT.wav	1	28	blb_dichoticlistening_pa-ka.mp3	pa	ka	1	left
6.6.1	win	2023-06-26	23:07:56	23:22:49	887402	5c9d88bb2b3c77001744ec1c	4	1	DL_test	23	DL_test	18	stimuli_distractor_trianglediamonds.svg	stimuli_target_squaretriangles.svg	11	yes	pa	1	754	6	5	antiphase_hc_osi.wav	2	6	2	noise_calib_stim_LEFT.wav	1	17	blb_dichoticlistening_ga-pa.mp3	ga	pa	1	right
6.6.1	win	2023-06-26	23:07:56	23:22:49	887402	5c9d88bb2b3c77001744ec1c	4	1	DL_test	23	DL_test	19	stimuli_distractor_trianglediamonds.svg	stimuli_target_squaretriangles.svg	11	yes	ba	1	1054	6	5	antiphase_hc_osi.wav	2	6	2	noise_calib_stim_LEFT.wav	1	13	blb_dichoticlistening_ga-ba.mp3	ga	ba	1	right
6.6.1	win	2023-06-26	23:07:56	23:22:49	887402	5c9d88bb2b3c77001744ec1c	4	1	DL_test	23	DL_test	20	stimuli_distractor_trianglediamonds.svg	stimuli_target_squaretriangles.svg	11	yes	pa	0	2200	6	5	antiphase_hc_osi.wav	2	6	2	noise_calib_stim_LEFT.wav	1	31	blb_dichoticlistening_ta-ba.mp3	ta	ba	1	other
6.6.1	win	2023-06-26	23:07:56	23:22:49	887402	5c9d88bb2b3c77001744ec1c	4	1	DL_test	23	DL_test	21	stimuli_distractor_trianglediamonds.svg	stimuli_target_squaretriangles.svg	11	yes	pa	1	982	6	5	antiphase_hc_osi.wav	2	6	2	noise_calib_stim_LEFT.wav	1	26	blb_dichoticlistening_pa-da.mp3	pa	da	1	left
6.6.1	win	2023-06-26	23:07:56	23:22:49	887402	5c9d88bb2b3c77001744ec1c	4	1	DL_test	23	DL_test	22	stimuli_distractor_trianglediamonds.svg	stimuli_target_squaretriangles.svg	11	yes	pa	1	880	6	5	antiphase_hc_osi.wav	2	6	2	noise_calib_stim_LEFT.wav	1	11	blb_dichoticlistening_da-pa.mp3	da	pa	1	right
6.6.1	win	2023-06-26	23:07:56	23:22:49	887402	5c9d88bb2b3c77001744ec1c	4	1	DL_test	23	DL_test	23	stimuli_distractor_trianglediamonds.svg	stimuli_target_squaretriangles.svg	11	yes	ba	1	957	6	5	antiphase_hc_osi.wav	2	6	2	noise_calib_stim_LEFT.wav	1	2	blb_dichoticlistening_ba-da.mp3	ba	da	1	left
6.6.1	win	2023-06-26	23:07:56	23:22:49	887402	5c9d88bb2b3c77001744ec1c	4	1	DL_test	23	DL_test	24	stimuli_distractor_trianglediamonds.svg	stimuli_target_squaretriangles.svg	11	yes	da	1	1038	6	5	antiphase_hc_osi.wav	2	6	2	noise_calib_stim_LEFT.wav	1	9	blb_dichoticlistening_da-ga.mp3	da	ga	1	left
6.6.1	win	2023-06-26	23:07:56	23:22:49	887402	5c9d88bb2b3c77001744ec1c	4	1	DL_test	23	DL_test	25	stimuli_distractor_trianglediamonds.svg	stimuli_target_squaretriangles.svg	11	yes	pa	1	1463	6	5	antiphase_hc_osi.wav	2	6	2	noise_calib_stim_LEFT.wav	1	27	blb_dichoticlistening_pa-ga.mp3	pa	ga	1	left
6.6.1	win	2023-06-26	23:07:56	23:22:49	887402	5c9d88bb2b3c77001744ec1c	4	1	DL_test	23	DL_test	26	stimuli_distractor_trianglediamonds.svg	stimuli_target_squaretriangles.svg	11	yes	pa	1	801	6	5	antiphase_hc_osi.wav	2	6	2	noise_calib_stim_LEFT.wav	1	29	blb_dichoticlistening_pa-pa.mp3	pa	pa	0	left
