build	computer.platform	date	time	timestamp	time_elapsed_ms	subject	group	session	blockcode	blocknum	trialcode	trialnum	stimulus_left	stimulus_right	stim_index	target_present	response	correct	latency	headphonecheck_countTestTrials	headphonecheck_index	headphonecheck_testSound	headphonecheck_correctResponse	stereocheck_countTestTrials	stereocheck_index	stereocheck_testSound	stereocheck_correctResponse	DL_index	DL_soundfile	DL_leftSound	DL_rightSound	DL_dualSound	DL_choice
6.6.1	win	2023-06-27	18:32:26	18:35:28	172997	5efb4cfd797e7108c3823ae5	3	1	practice_slash	5	practice_slash	1	stimuli_distractor_diamondtriangles.svg	stimuli_target_diamondrectangles.svg	8	yes	53	1	1705	0	0			0	0			1				0	
6.6.1	win	2023-06-27	18:32:26	18:35:28	172997	5efb4cfd797e7108c3823ae5	3	1	practice_slash	5	advance_on_keypress_SLASH	2	stimuli_distractor_diamondtriangles.svg	stimuli_target_diamondrectangles.svg	8	yes	57	0	948	0	0			0	0			1				0	
6.6.1	win	2023-06-27	18:32:26	18:35:31	176264	5efb4cfd797e7108c3823ae5	3	1	practice_slash	5	practice_slash	3	stimuli_target_squarediamonds.svg	stimuli_distractor_trianglediamonds.svg	5	yes	53	1	674	0	0			0	0			1				0	
6.6.1	win	2023-06-27	18:32:26	18:35:31	176264	5efb4cfd797e7108c3823ae5	3	1	practice_slash	5	advance_on_keypress_SLASH	4	stimuli_target_squarediamonds.svg	stimuli_distractor_trianglediamonds.svg	5	yes	57	0	477	0	0			0	0			1				0	
6.6.1	win	2023-06-27	18:32:26	18:35:34	179649	5efb4cfd797e7108c3823ae5	3	1	practice_slash	5	practice_slash	5	stimuli_target_diamondsquares.svg	stimuli_distractor_diamondtriangles.svg	3	yes	53	1	1274	0	0			0	0			1				0	
6.6.1	win	2023-06-27	18:32:26	18:35:34	179649	5efb4cfd797e7108c3823ae5	3	1	practice_slash	5	advance_on_keypress_SLASH	6	stimuli_target_diamondsquares.svg	stimuli_distractor_diamondtriangles.svg	3	yes	57	0	523	0	0			0	0			1				0	
6.6.1	win	2023-06-27	18:32:26	18:35:37	182347	5efb4cfd797e7108c3823ae5	3	1	practice_slash	5	practice_slash	7	stimuli_target_diamondsquares.svg	stimuli_distractor_trianglediamonds.svg	6	yes	53	1	540	0	0			0	0			1				0	
6.6.1	win	2023-06-27	18:32:26	18:35:37	182347	5efb4cfd797e7108c3823ae5	3	1	practice_slash	5	advance_on_keypress_SLASH	8	stimuli_target_diamondsquares.svg	stimuli_distractor_trianglediamonds.svg	6	yes	57	0	425	0	0			0	0			1				0	
6.6.1	win	2023-06-27	18:32:26	18:35:41	186407	5efb4cfd797e7108c3823ae5	3	1	practice_slash	5	practice_slash	9	stimuli_distractor_trianglediamonds.svg	stimuli_distractor_trianglediamonds.svg	15	no	0	1	2000	0	0			0	0			1				0	
6.6.1	win	2023-06-27	18:32:26	18:35:41	186407	5efb4cfd797e7108c3823ae5	3	1	practice_slash	5	advance_on_keypress_SLASH	10	stimuli_distractor_trianglediamonds.svg	stimuli_distractor_trianglediamonds.svg	15	no	57	0	2477	0	0			0	0			1				0	
6.6.1	win	2023-06-27	18:32:26	18:35:46	191639	5efb4cfd797e7108c3823ae5	3	1	practice_slash	5	practice_slash	11	stimuli_distractor_diamondtriangles.svg	stimuli_distractor_diamondtriangles.svg	13	no	53	0	1116	0	0			0	0			1				0	
6.6.1	win	2023-06-27	18:32:26	18:35:46	191639	5efb4cfd797e7108c3823ae5	3	1	practice_slash	5	advance_on_keypress_SLASH	12	stimuli_distractor_diamondtriangles.svg	stimuli_distractor_diamondtriangles.svg	13	no	57	0	48	0	0			0	0			1				0	
6.6.1	win	2023-06-27	18:32:26	18:35:49	194218	5efb4cfd797e7108c3823ae5	3	1	practice_slash	5	practice_slash	13	stimuli_distractor_diamondtriangles.svg	stimuli_target_rectangletriangles.svg	7	yes	53	1	878	0	0			0	0			1				0	
6.6.1	win	2023-06-27	18:32:26	18:35:49	194218	5efb4cfd797e7108c3823ae5	3	1	practice_slash	5	advance_on_keypress_SLASH	14	stimuli_distractor_diamondtriangles.svg	stimuli_target_rectangletriangles.svg	7	yes	57	0	144	0	0			0	0			1				0	
6.6.1	win	2023-06-27	18:32:26	18:35:52	197109	5efb4cfd797e7108c3823ae5	3	1	practice_slash	5	practice_slash	15	stimuli_target_rectanglediamonds.svg	stimuli_distractor_diamondtriangles.svg	1	yes	53	1	1119	0	0			0	0			1				0	
6.6.1	win	2023-06-27	18:32:26	18:35:52	197109	5efb4cfd797e7108c3823ae5	3	1	practice_slash	5	advance_on_keypress_SLASH	16	stimuli_target_rectanglediamonds.svg	stimuli_distractor_diamondtriangles.svg	1	yes	57	0	640	0	0			0	0			1				0	
6.6.1	win	2023-06-27	18:32:26	18:35:55	200228	5efb4cfd797e7108c3823ae5	3	1	practice_slash	5	practice_slash	17	stimuli_target_rectanglediamonds.svg	stimuli_distractor_trianglediamonds.svg	4	yes	53	1	838	0	0			0	0			1				0	
6.6.1	win	2023-06-27	18:32:26	18:35:55	200228	5efb4cfd797e7108c3823ae5	3	1	practice_slash	5	advance_on_keypress_SLASH	18	stimuli_target_rectanglediamonds.svg	stimuli_distractor_trianglediamonds.svg	4	yes	57	0	387	0	0			0	0			1				0	
6.6.1	win	2023-06-27	18:32:26	18:35:58	203090	5efb4cfd797e7108c3823ae5	3	1	practice_slash	5	practice_slash	19	stimuli_distractor_diamondtriangles.svg	stimuli_distractor_trianglediamonds.svg	14	no	53	0	833	0	0			0	0			1				0	
6.6.1	win	2023-06-27	18:32:26	18:35:58	203090	5efb4cfd797e7108c3823ae5	3	1	practice_slash	5	advance_on_keypress_SLASH	20	stimuli_distractor_diamondtriangles.svg	stimuli_distractor_trianglediamonds.svg	14	no	57	0	197	0	0			0	0			1				0	
6.6.1	win	2023-06-27	18:32:26	18:36:01	205847	5efb4cfd797e7108c3823ae5	3	1	practice_slash	5	practice_slash	21	stimuli_distractor_trianglediamonds.svg	stimuli_target_squarediamonds.svg	11	yes	53	1	906	0	0			0	0			1				0	
6.6.1	win	2023-06-27	18:32:26	18:36:01	205847	5efb4cfd797e7108c3823ae5	3	1	practice_slash	5	advance_on_keypress_SLASH	22	stimuli_distractor_trianglediamonds.svg	stimuli_target_squarediamonds.svg	11	yes	57	0	751	0	0			0	0			1				0	
6.6.1	win	2023-06-27	18:32:26	18:36:03	208647	5efb4cfd797e7108c3823ae5	3	1	practice_slash	5	practice_slash	23	stimuli_distractor_trianglediamonds.svg	stimuli_target_rectanglediamonds.svg	10	yes	53	1	406	0	0			0	0			1				0	
6.6.1	win	2023-06-27	18:32:26	18:36:03	208647	5efb4cfd797e7108c3823ae5	3	1	practice_slash	5	advance_on_keypress_SLASH	24	stimuli_distractor_trianglediamonds.svg	stimuli_target_rectanglediamonds.svg	10	yes	57	0	490	0	0			0	0			1				0	
6.6.1	win	2023-06-27	18:32:26	18:36:06	211425	5efb4cfd797e7108c3823ae5	3	1	practice_slash	5	practice_slash	25	stimuli_target_squarediamonds.svg	stimuli_distractor_diamondtriangles.svg	2	yes	53	1	651	0	0			0	0			1				0	
6.6.1	win	2023-06-27	18:32:26	18:36:06	211425	5efb4cfd797e7108c3823ae5	3	1	practice_slash	5	advance_on_keypress_SLASH	26	stimuli_target_squarediamonds.svg	stimuli_distractor_diamondtriangles.svg	2	yes	57	0	380	0	0			0	0			1				0	
6.6.1	win	2023-06-27	18:32:26	18:36:08	213722	5efb4cfd797e7108c3823ae5	3	1	practice_slash	5	practice_slash	27	stimuli_distractor_trianglediamonds.svg	stimuli_target_diamondrectangles.svg	12	yes	53	1	283	0	0			0	0			1				0	
6.6.1	win	2023-06-27	18:32:26	18:36:08	213722	5efb4cfd797e7108c3823ae5	3	1	practice_slash	5	advance_on_keypress_SLASH	28	stimuli_distractor_trianglediamonds.svg	stimuli_target_diamondrectangles.svg	12	yes	57	0	424	0	0			0	0			1				0	
6.6.1	win	2023-06-27	18:32:26	18:36:13	217791	5efb4cfd797e7108c3823ae5	3	1	practice_slash	5	practice_slash	29	stimuli_distractor_trianglediamonds.svg	stimuli_distractor_diamondtriangles.svg	16	no	0	1	2000	0	0			0	0			1				0	
6.6.1	win	2023-06-27	18:32:26	18:36:13	217791	5efb4cfd797e7108c3823ae5	3	1	practice_slash	5	advance_on_keypress_SLASH	30	stimuli_distractor_trianglediamonds.svg	stimuli_distractor_diamondtriangles.svg	16	no	57	0	511	0	0			0	0			1				0	
6.6.1	win	2023-06-27	18:32:26	18:36:15	220709	5efb4cfd797e7108c3823ae5	3	1	practice_slash	5	practice_slash	31	stimuli_distractor_diamondtriangles.svg	stimuli_target_trianglerectangles.svg	9	yes	53	1	769	0	0			0	0			1				0	
6.6.1	win	2023-06-27	18:32:26	18:36:15	220709	5efb4cfd797e7108c3823ae5	3	1	practice_slash	5	advance_on_keypress_SLASH	32	stimuli_distractor_diamondtriangles.svg	stimuli_target_trianglerectangles.svg	9	yes	57	0	514	0	0			0	0			1				0	
6.6.1	win	2023-06-27	18:32:26	18:36:24	229419	5efb4cfd797e7108c3823ae5	3	1	main_slash	7	main_slash	1	stimuli_target_diamondsquares.svg	stimuli_distractor_trianglediamonds.svg	20	yes	53	1	1379	0	0			0	0			1				0	
6.6.1	win	2023-06-27	18:32:26	18:36:24	229419	5efb4cfd797e7108c3823ae5	3	1	main_slash	7	advance_on_keypress_SLASH	2	stimuli_target_diamondsquares.svg	stimuli_distractor_trianglediamonds.svg	20	yes	57	0	1116	0	0			0	0			1				0	
6.6.1	win	2023-06-27	18:32:26	18:36:27	231942	5efb4cfd797e7108c3823ae5	3	1	main_slash	7	main_slash	3	stimuli_distractor_diamondtriangles.svg	stimuli_target_diamondrectangles.svg	31	yes	53	1	753	0	0			0	0			1				0	
6.6.1	win	2023-06-27	18:32:26	18:36:27	231942	5efb4cfd797e7108c3823ae5	3	1	main_slash	7	advance_on_keypress_SLASH	4	stimuli_distractor_diamondtriangles.svg	stimuli_target_diamondrectangles.svg	31	yes	57	0	567	0	0			0	0			1				0	
6.6.1	win	2023-06-27	18:32:26	18:36:29	233966	5efb4cfd797e7108c3823ae5	3	1	main_slash	7	main_slash	5	stimuli_target_diamondrectangles.svg	stimuli_distractor_trianglediamonds.svg	19	yes	53	1	810	0	0			0	0			1				0	
6.6.1	win	2023-06-27	18:32:26	18:36:29	233966	5efb4cfd797e7108c3823ae5	3	1	main_slash	7	advance_on_keypress_SLASH	6	stimuli_target_diamondrectangles.svg	stimuli_distractor_trianglediamonds.svg	19	yes	57	0	957	0	0			0	0			1				0	
6.6.1	win	2023-06-27	18:32:26	18:36:32	237555	5efb4cfd797e7108c3823ae5	3	1	main_slash	7	main_slash	7	stimuli_distractor_trianglediamonds.svg	stimuli_distractor_trianglediamonds.svg	33	no	0	1	2000	0	0			0	0			1				0	
6.6.1	win	2023-06-27	18:32:26	18:36:32	237555	5efb4cfd797e7108c3823ae5	3	1	main_slash	7	advance_on_keypress_SLASH	8	stimuli_distractor_trianglediamonds.svg	stimuli_distractor_trianglediamonds.svg	33	no	57	0	454	0	0			0	0			1				0	
6.6.1	win	2023-06-27	18:32:26	18:36:34	239424	5efb4cfd797e7108c3823ae5	3	1	main_slash	7	main_slash	9	stimuli_target_rectangletriangles.svg	stimuli_distractor_diamondtriangles.svg	5	yes	53	1	768	0	0			0	0			1				0	
6.6.1	win	2023-06-27	18:32:26	18:36:34	239424	5efb4cfd797e7108c3823ae5	3	1	main_slash	7	advance_on_keypress_SLASH	10	stimuli_target_rectangletriangles.svg	stimuli_distractor_diamondtriangles.svg	5	yes	57	0	1031	0	0			0	0			1				0	
6.6.1	win	2023-06-27	18:32:26	18:36:36	241677	5efb4cfd797e7108c3823ae5	3	1	main_slash	7	main_slash	11	stimuli_distractor_diamondtriangles.svg	stimuli_distractor_diamondtriangles.svg	40	no	53	0	572	0	0			0	0			1				0	
6.6.1	win	2023-06-27	18:32:26	18:36:36	241677	5efb4cfd797e7108c3823ae5	3	1	main_slash	7	advance_on_keypress_SLASH	12	stimuli_distractor_diamondtriangles.svg	stimuli_distractor_diamondtriangles.svg	40	no	57	0	748	0	0			0	0			1				0	
6.6.1	win	2023-06-27	18:32:26	18:36:39	243854	5efb4cfd797e7108c3823ae5	3	1	main_slash	7	main_slash	13	stimuli_target_trianglerectangles.svg	stimuli_distractor_diamondtriangles.svg	21	yes	53	1	782	0	0			0	0			1				0	
6.6.1	win	2023-06-27	18:32:26	18:36:39	243854	5efb4cfd797e7108c3823ae5	3	1	main_slash	7	advance_on_keypress_SLASH	14	stimuli_target_trianglerectangles.svg	stimuli_distractor_diamondtriangles.svg	21	yes	57	0	977	0	0			0	0			1				0	
6.6.1	win	2023-06-27	18:32:26	18:36:41	246232	5efb4cfd797e7108c3823ae5	3	1	main_slash	7	main_slash	15	stimuli_target_rectanglediamonds.svg	stimuli_distractor_diamondtriangles.svg	6	yes	53	1	761	0	0			0	0			1				0	
6.6.1	win	2023-06-27	18:32:26	18:36:41	246232	5efb4cfd797e7108c3823ae5	3	1	main_slash	7	advance_on_keypress_SLASH	16	stimuli_target_rectanglediamonds.svg	stimuli_distractor_diamondtriangles.svg	6	yes	57	0	782	0	0			0	0			1				0	
6.6.1	win	2023-06-27	18:32:26	18:36:43	248109	5efb4cfd797e7108c3823ae5	3	1	main_slash	7	main_slash	17	stimuli_distractor_trianglediamonds.svg	stimuli_target_rectangletriangles.svg	9	yes	53	1	454	0	0			0	0			1				0	
6.6.1	win	2023-06-27	18:32:26	18:36:43	248109	5efb4cfd797e7108c3823ae5	3	1	main_slash	7	advance_on_keypress_SLASH	18	stimuli_distractor_trianglediamonds.svg	stimuli_target_rectangletriangles.svg	9	yes	57	0	632	0	0			0	0			1				0	
6.6.1	win	2023-06-27	18:32:26	18:36:45	249771	5efb4cfd797e7108c3823ae5	3	1	main_slash	7	main_slash	19	stimuli_distractor_trianglediamonds.svg	stimuli_target_rectanglediamonds.svg	10	yes	53	1	376	0	0			0	0			1				0	
6.6.1	win	2023-06-27	18:32:26	18:36:45	249771	5efb4cfd797e7108c3823ae5	3	1	main_slash	7	advance_on_keypress_SLASH	20	stimuli_distractor_trianglediamonds.svg	stimuli_target_rectanglediamonds.svg	10	yes	57	0	655	0	0			0	0			1				0	
6.6.1	win	2023-06-27	18:32:26	18:36:46	251409	5efb4cfd797e7108c3823ae5	3	1	main_slash	7	main_slash	21	stimuli_distractor_diamondtriangles.svg	stimuli_target_rectanglediamonds.svg	14	yes	53	1	337	0	0			0	0			1				0	
6.6.1	win	2023-06-27	18:32:26	18:36:46	251409	5efb4cfd797e7108c3823ae5	3	1	main_slash	7	advance_on_keypress_SLASH	22	stimuli_distractor_diamondtriangles.svg	stimuli_target_rectanglediamonds.svg	14	yes	57	0	711	0	0			0	0			1				0	
6.6.1	win	2023-06-27	18:32:26	18:36:48	253056	5efb4cfd797e7108c3823ae5	3	1	main_slash	7	main_slash	23	stimuli_distractor_diamondtriangles.svg	stimuli_target_squarediamonds.svg	16	yes	53	1	301	0	0			0	0			1				0	
6.6.1	win	2023-06-27	18:32:26	18:36:48	253056	5efb4cfd797e7108c3823ae5	3	1	main_slash	7	advance_on_keypress_SLASH	24	stimuli_distractor_diamondtriangles.svg	stimuli_target_squarediamonds.svg	16	yes	57	0	603	0	0			0	0			1				0	
6.6.1	win	2023-06-27	18:32:26	18:36:49	254638	5efb4cfd797e7108c3823ae5	3	1	main_slash	7	main_slash	25	stimuli_distractor_diamondtriangles.svg	stimuli_target_squaretriangles.svg	15	yes	53	1	333	0	0			0	0			1				0	
6.6.1	win	2023-06-27	18:32:26	18:36:49	254638	5efb4cfd797e7108c3823ae5	3	1	main_slash	7	advance_on_keypress_SLASH	26	stimuli_distractor_diamondtriangles.svg	stimuli_target_squaretriangles.svg	15	yes	57	0	664	0	0			0	0			1				0	
6.6.1	win	2023-06-27	18:32:26	18:36:51	256313	5efb4cfd797e7108c3823ae5	3	1	main_slash	7	main_slash	27	stimuli_target_squaretriangles.svg	stimuli_distractor_trianglediamonds.svg	3	yes	53	1	358	0	0			0	0			1				0	
6.6.1	win	2023-06-27	18:32:26	18:36:51	256313	5efb4cfd797e7108c3823ae5	3	1	main_slash	7	advance_on_keypress_SLASH	28	stimuli_target_squaretriangles.svg	stimuli_distractor_trianglediamonds.svg	3	yes	57	0	669	0	0			0	0			1				0	
6.6.1	win	2023-06-27	18:32:26	18:36:54	259622	5efb4cfd797e7108c3823ae5	3	1	main_slash	7	main_slash	29	stimuli_distractor_trianglediamonds.svg	stimuli_distractor_diamondtriangles.svg	36	no	0	1	2000	0	0			0	0			1				0	
6.6.1	win	2023-06-27	18:32:26	18:36:54	259622	5efb4cfd797e7108c3823ae5	3	1	main_slash	7	advance_on_keypress_SLASH	30	stimuli_distractor_trianglediamonds.svg	stimuli_distractor_diamondtriangles.svg	36	no	57	0	519	0	0			0	0			1				0	
6.6.1	win	2023-06-27	18:32:26	18:36:56	261304	5efb4cfd797e7108c3823ae5	3	1	main_slash	7	main_slash	31	stimuli_target_squarediamonds.svg	stimuli_distractor_diamondtriangles.svg	8	yes	53	1	511	0	0			0	0			1				0	
6.6.1	win	2023-06-27	18:32:26	18:36:56	261304	5efb4cfd797e7108c3823ae5	3	1	main_slash	7	advance_on_keypress_SLASH	32	stimuli_target_squarediamonds.svg	stimuli_distractor_diamondtriangles.svg	8	yes	57	0	744	0	0			0	0			1				0	
6.6.1	win	2023-06-27	18:32:26	18:36:58	263004	5efb4cfd797e7108c3823ae5	3	1	main_slash	7	main_slash	33	stimuli_distractor_trianglediamonds.svg	stimuli_target_trianglesquares.svg	26	yes	53	1	316	0	0			0	0			1				0	
6.6.1	win	2023-06-27	18:32:26	18:36:58	263004	5efb4cfd797e7108c3823ae5	3	1	main_slash	7	advance_on_keypress_SLASH	34	stimuli_distractor_trianglediamonds.svg	stimuli_target_trianglesquares.svg	26	yes	57	0	947	0	0			0	0			1				0	
6.6.1	win	2023-06-27	18:32:26	18:37:00	264927	5efb4cfd797e7108c3823ae5	3	1	main_slash	7	main_slash	35	stimuli_target_trianglerectangles.svg	stimuli_distractor_trianglediamonds.svg	17	yes	53	1	322	0	0			0	0			1				0	
6.6.1	win	2023-06-27	18:32:26	18:37:00	264927	5efb4cfd797e7108c3823ae5	3	1	main_slash	7	advance_on_keypress_SLASH	36	stimuli_target_trianglerectangles.svg	stimuli_distractor_trianglediamonds.svg	17	yes	57	0	972	0	0			0	0			1				0	
6.6.1	win	2023-06-27	18:32:26	18:37:02	267075	5efb4cfd797e7108c3823ae5	3	1	main_slash	7	main_slash	37	stimuli_target_trianglesquares.svg	stimuli_distractor_trianglediamonds.svg	18	yes	53	1	537	0	0			0	0			1				0	
6.6.1	win	2023-06-27	18:32:26	18:37:02	267075	5efb4cfd797e7108c3823ae5	3	1	main_slash	7	advance_on_keypress_SLASH	38	stimuli_target_trianglesquares.svg	stimuli_distractor_trianglediamonds.svg	18	yes	57	0	881	0	0			0	0			1				0	
6.6.1	win	2023-06-27	18:32:26	18:37:04	268839	5efb4cfd797e7108c3823ae5	3	1	main_slash	7	main_slash	39	stimuli_distractor_trianglediamonds.svg	stimuli_target_squaretriangles.svg	11	yes	53	1	235	0	0			0	0			1				0	
6.6.1	win	2023-06-27	18:32:26	18:37:04	268839	5efb4cfd797e7108c3823ae5	3	1	main_slash	7	advance_on_keypress_SLASH	40	stimuli_distractor_trianglediamonds.svg	stimuli_target_squaretriangles.svg	11	yes	57	0	686	0	0			0	0			1				0	
6.6.1	win	2023-06-27	18:32:26	18:37:05	270464	5efb4cfd797e7108c3823ae5	3	1	main_slash	7	main_slash	41	stimuli_target_diamondrectangles.svg	stimuli_distractor_diamondtriangles.svg	23	yes	53	1	294	0	0			0	0			1				0	
6.6.1	win	2023-06-27	18:32:26	18:37:05	270464	5efb4cfd797e7108c3823ae5	3	1	main_slash	7	advance_on_keypress_SLASH	42	stimuli_target_diamondrectangles.svg	stimuli_distractor_diamondtriangles.svg	23	yes	57	0	771	0	0			0	0			1				0	
6.6.1	win	2023-06-27	18:32:26	18:37:07	272139	5efb4cfd797e7108c3823ae5	3	1	main_slash	7	main_slash	43	stimuli_target_rectanglediamonds.svg	stimuli_distractor_trianglediamonds.svg	2	yes	53	1	269	0	0			0	0			1				0	
6.6.1	win	2023-06-27	18:32:26	18:37:07	272139	5efb4cfd797e7108c3823ae5	3	1	main_slash	7	advance_on_keypress_SLASH	44	stimuli_target_rectanglediamonds.svg	stimuli_distractor_trianglediamonds.svg	2	yes	57	0	661	0	0			0	0			1				0	
6.6.1	win	2023-06-27	18:32:26	18:37:08	273649	5efb4cfd797e7108c3823ae5	3	1	main_slash	7	main_slash	45	stimuli_distractor_diamondtriangles.svg	stimuli_target_rectangletriangles.svg	13	yes	53	1	211	0	0			0	0			1				0	
6.6.1	win	2023-06-27	18:32:26	18:37:08	273649	5efb4cfd797e7108c3823ae5	3	1	main_slash	7	advance_on_keypress_SLASH	46	stimuli_distractor_diamondtriangles.svg	stimuli_target_rectangletriangles.svg	13	yes	57	0	613	0	0			0	0			1				0	
6.6.1	win	2023-06-27	18:32:26	18:37:10	275103	5efb4cfd797e7108c3823ae5	3	1	main_slash	7	main_slash	47	stimuli_distractor_diamondtriangles.svg	stimuli_target_diamondsquares.svg	32	yes	53	1	216	0	0			0	0			1				0	
6.6.1	win	2023-06-27	18:32:26	18:37:10	275103	5efb4cfd797e7108c3823ae5	3	1	main_slash	7	advance_on_keypress_SLASH	48	stimuli_distractor_diamondtriangles.svg	stimuli_target_diamondsquares.svg	32	yes	57	0	662	0	0			0	0			1				0	
6.6.1	win	2023-06-27	18:32:26	18:37:11	276700	5efb4cfd797e7108c3823ae5	3	1	main_slash	7	main_slash	49	stimuli_target_trianglesquares.svg	stimuli_distractor_diamondtriangles.svg	22	yes	53	1	295	0	0			0	0			1				0	
6.6.1	win	2023-06-27	18:32:26	18:37:11	276700	5efb4cfd797e7108c3823ae5	3	1	main_slash	7	advance_on_keypress_SLASH	50	stimuli_target_trianglesquares.svg	stimuli_distractor_diamondtriangles.svg	22	yes	57	0	777	0	0			0	0			1				0	
6.6.1	win	2023-06-27	18:32:26	18:37:13	278144	5efb4cfd797e7108c3823ae5	3	1	main_slash	7	main_slash	51	stimuli_target_rectangletriangles.svg	stimuli_distractor_trianglediamonds.svg	1	yes	53	1	40	0	0			0	0			1				0	
6.6.1	win	2023-06-27	18:32:26	18:37:13	278144	5efb4cfd797e7108c3823ae5	3	1	main_slash	7	advance_on_keypress_SLASH	52	stimuli_target_rectangletriangles.svg	stimuli_distractor_trianglediamonds.svg	1	yes	57	0	1323	0	0			0	0			1				0	
6.6.1	win	2023-06-27	18:32:26	18:37:15	280333	5efb4cfd797e7108c3823ae5	3	1	main_slash	7	main_slash	53	stimuli_distractor_diamondtriangles.svg	stimuli_distractor_diamondtriangles.svg	39	no	53	0	229	0	0			0	0			1				0	
6.6.1	win	2023-06-27	18:32:26	18:37:15	280333	5efb4cfd797e7108c3823ae5	3	1	main_slash	7	advance_on_keypress_SLASH	54	stimuli_distractor_diamondtriangles.svg	stimuli_distractor_diamondtriangles.svg	39	no	57	0	861	0	0			0	0			1				0	
6.6.1	win	2023-06-27	18:32:26	18:37:17	282620	5efb4cfd797e7108c3823ae5	3	1	main_slash	7	main_slash	55	stimuli_target_diamondsquares.svg	stimuli_distractor_diamondtriangles.svg	24	yes	53	1	799	0	0			0	0			1				0	
6.6.1	win	2023-06-27	18:32:26	18:37:17	282620	5efb4cfd797e7108c3823ae5	3	1	main_slash	7	advance_on_keypress_SLASH	56	stimuli_target_diamondsquares.svg	stimuli_distractor_diamondtriangles.svg	24	yes	57	0	1234	0	0			0	0			1				0	
6.6.1	win	2023-06-27	18:32:26	18:37:19	284711	5efb4cfd797e7108c3823ae5	3	1	main_slash	7	main_slash	57	stimuli_distractor_trianglediamonds.svg	stimuli_target_squarediamonds.svg	12	yes	53	1	207	0	0			0	0			1				0	
6.6.1	win	2023-06-27	18:32:26	18:37:19	284711	5efb4cfd797e7108c3823ae5	3	1	main_slash	7	advance_on_keypress_SLASH	58	stimuli_distractor_trianglediamonds.svg	stimuli_target_squarediamonds.svg	12	yes	57	0	550	0	0			0	0			1				0	
6.6.1	win	2023-06-27	18:32:26	18:37:21	286142	5efb4cfd797e7108c3823ae5	3	1	main_slash	7	main_slash	59	stimuli_distractor_diamondtriangles.svg	stimuli_target_trianglesquares.svg	30	yes	53	1	237	0	0			0	0			1				0	
6.6.1	win	2023-06-27	18:32:26	18:37:21	286142	5efb4cfd797e7108c3823ae5	3	1	main_slash	7	advance_on_keypress_SLASH	60	stimuli_distractor_diamondtriangles.svg	stimuli_target_trianglesquares.svg	30	yes	57	0	1011	0	0			0	0			1				0	
6.6.1	win	2023-06-27	18:32:26	18:37:23	288170	5efb4cfd797e7108c3823ae5	3	1	main_slash	7	main_slash	61	stimuli_distractor_diamondtriangles.svg	stimuli_distractor_trianglediamonds.svg	38	no	53	0	378	0	0			0	0			1				0	
6.6.1	win	2023-06-27	18:32:26	18:37:23	288170	5efb4cfd797e7108c3823ae5	3	1	main_slash	7	advance_on_keypress_SLASH	62	stimuli_distractor_diamondtriangles.svg	stimuli_distractor_trianglediamonds.svg	38	no	57	0	2260	0	0			0	0			1				0	
6.6.1	win	2023-06-27	18:32:26	18:37:26	291315	5efb4cfd797e7108c3823ae5	3	1	main_slash	7	main_slash	63	stimuli_target_squaretriangles.svg	stimuli_distractor_diamondtriangles.svg	7	yes	53	1	245	0	0			0	0			1				0	
6.6.1	win	2023-06-27	18:32:26	18:37:26	291315	5efb4cfd797e7108c3823ae5	3	1	main_slash	7	advance_on_keypress_SLASH	64	stimuli_target_squaretriangles.svg	stimuli_distractor_diamondtriangles.svg	7	yes	57	0	635	0	0			0	0			1				0	
6.6.1	win	2023-06-27	18:32:26	18:37:28	292913	5efb4cfd797e7108c3823ae5	3	1	main_slash	7	main_slash	65	stimuli_distractor_trianglediamonds.svg	stimuli_target_diamondrectangles.svg	27	yes	53	1	327	0	0			0	0			1				0	
6.6.1	win	2023-06-27	18:32:26	18:37:28	292913	5efb4cfd797e7108c3823ae5	3	1	main_slash	7	advance_on_keypress_SLASH	66	stimuli_distractor_trianglediamonds.svg	stimuli_target_diamondrectangles.svg	27	yes	57	0	688	0	0			0	0			1				0	
6.6.1	win	2023-06-27	18:32:26	18:37:29	294517	5efb4cfd797e7108c3823ae5	3	1	main_slash	7	main_slash	67	stimuli_distractor_trianglediamonds.svg	stimuli_distractor_diamondtriangles.svg	35	no	53	0	279	0	0			0	0			1				0	
6.6.1	win	2023-06-27	18:32:26	18:37:29	294517	5efb4cfd797e7108c3823ae5	3	1	main_slash	7	advance_on_keypress_SLASH	68	stimuli_distractor_trianglediamonds.svg	stimuli_distractor_diamondtriangles.svg	35	no	57	0	846	0	0			0	0			1				0	
6.6.1	win	2023-06-27	18:32:26	18:37:31	296302	5efb4cfd797e7108c3823ae5	3	1	main_slash	7	main_slash	69	stimuli_distractor_trianglediamonds.svg	stimuli_target_trianglerectangles.svg	25	yes	53	1	314	0	0			0	0			1				0	
6.6.1	win	2023-06-27	18:32:26	18:37:31	296302	5efb4cfd797e7108c3823ae5	3	1	main_slash	7	advance_on_keypress_SLASH	70	stimuli_distractor_trianglediamonds.svg	stimuli_target_trianglerectangles.svg	25	yes	57	0	936	0	0			0	0			1				0	
6.6.1	win	2023-06-27	18:32:26	18:37:35	299888	5efb4cfd797e7108c3823ae5	3	1	main_slash	7	main_slash	71	stimuli_distractor_diamondtriangles.svg	stimuli_target_trianglerectangles.svg	29	yes	0	0	2000	0	0			0	0			1				0	
6.6.1	win	2023-06-27	18:32:26	18:37:35	299888	5efb4cfd797e7108c3823ae5	3	1	main_slash	7	advance_on_keypress_SLASH	72	stimuli_distractor_diamondtriangles.svg	stimuli_target_trianglerectangles.svg	29	yes	57	0	1272	0	0			0	0			1				0	
6.6.1	win	2023-06-27	18:32:26	18:37:37	302162	5efb4cfd797e7108c3823ae5	3	1	main_slash	7	main_slash	73	stimuli_target_squarediamonds.svg	stimuli_distractor_trianglediamonds.svg	4	yes	53	1	358	0	0			0	0			1				0	
6.6.1	win	2023-06-27	18:32:26	18:37:37	302162	5efb4cfd797e7108c3823ae5	3	1	main_slash	7	advance_on_keypress_SLASH	74	stimuli_target_squarediamonds.svg	stimuli_distractor_trianglediamonds.svg	4	yes	57	0	987	0	0			0	0			1				0	
6.6.1	win	2023-06-27	18:32:26	18:37:39	304052	5efb4cfd797e7108c3823ae5	3	1	main_slash	7	main_slash	75	stimuli_distractor_trianglediamonds.svg	stimuli_target_diamondsquares.svg	28	yes	53	1	265	0	0			0	0			1				0	
6.6.1	win	2023-06-27	18:32:26	18:37:39	304052	5efb4cfd797e7108c3823ae5	3	1	main_slash	7	advance_on_keypress_SLASH	76	stimuli_distractor_trianglediamonds.svg	stimuli_target_diamondsquares.svg	28	yes	57	0	781	0	0			0	0			1				0	
6.6.1	win	2023-06-27	18:32:26	18:37:41	305758	5efb4cfd797e7108c3823ae5	3	1	main_slash	7	main_slash	77	stimuli_distractor_diamondtriangles.svg	stimuli_distractor_trianglediamonds.svg	37	no	53	0	287	0	0			0	0			1				0	
6.6.1	win	2023-06-27	18:32:26	18:37:41	305758	5efb4cfd797e7108c3823ae5	3	1	main_slash	7	advance_on_keypress_SLASH	78	stimuli_distractor_diamondtriangles.svg	stimuli_distractor_trianglediamonds.svg	37	no	57	0	1340	0	0			0	0			1				0	
6.6.1	win	2023-06-27	18:32:26	18:37:43	308023	5efb4cfd797e7108c3823ae5	3	1	main_slash	7	main_slash	79	stimuli_distractor_trianglediamonds.svg	stimuli_distractor_trianglediamonds.svg	34	no	53	0	286	0	0			0	0			1				0	
6.6.1	win	2023-06-27	18:32:26	18:37:43	308023	5efb4cfd797e7108c3823ae5	3	1	main_slash	7	advance_on_keypress_SLASH	80	stimuli_distractor_trianglediamonds.svg	stimuli_distractor_trianglediamonds.svg	34	no	57	0	1059	0	0			0	0			1				0	
6.6.1	win	2023-06-27	18:32:26	18:37:45	309972	5efb4cfd797e7108c3823ae5	3	1	main_slash	7	main_slash	81	stimuli_distractor_trianglediamonds.svg	stimuli_distractor_trianglediamonds.svg	33	no	53	0	253	0	0			0	0			1				0	
6.6.1	win	2023-06-27	18:32:26	18:37:45	309972	5efb4cfd797e7108c3823ae5	3	1	main_slash	7	advance_on_keypress_SLASH	82	stimuli_distractor_trianglediamonds.svg	stimuli_distractor_trianglediamonds.svg	33	no	57	0	839	0	0			0	0			1				0	
6.6.1	win	2023-06-27	18:32:26	18:37:47	312053	5efb4cfd797e7108c3823ae5	3	1	main_slash	7	main_slash	83	stimuli_target_squaretriangles.svg	stimuli_distractor_diamondtriangles.svg	7	yes	53	1	600	0	0			0	0			1				0	
6.6.1	win	2023-06-27	18:32:26	18:37:47	312053	5efb4cfd797e7108c3823ae5	3	1	main_slash	7	advance_on_keypress_SLASH	84	stimuli_target_squaretriangles.svg	stimuli_distractor_diamondtriangles.svg	7	yes	57	0	1116	0	0			0	0			1				0	
6.6.1	win	2023-06-27	18:32:26	18:37:49	314031	5efb4cfd797e7108c3823ae5	3	1	main_slash	7	main_slash	85	stimuli_distractor_trianglediamonds.svg	stimuli_target_rectangletriangles.svg	9	yes	53	1	212	0	0			0	0			1				0	
6.6.1	win	2023-06-27	18:32:26	18:37:49	314031	5efb4cfd797e7108c3823ae5	3	1	main_slash	7	advance_on_keypress_SLASH	86	stimuli_distractor_trianglediamonds.svg	stimuli_target_rectangletriangles.svg	9	yes	57	0	738	0	0			0	0			1				0	
6.6.1	win	2023-06-27	18:32:26	18:37:51	316030	5efb4cfd797e7108c3823ae5	3	1	main_slash	7	main_slash	87	stimuli_distractor_trianglediamonds.svg	stimuli_target_diamondsquares.svg	28	yes	53	1	627	0	0			0	0			1				0	
6.6.1	win	2023-06-27	18:32:26	18:37:51	316030	5efb4cfd797e7108c3823ae5	3	1	main_slash	7	advance_on_keypress_SLASH	88	stimuli_distractor_trianglediamonds.svg	stimuli_target_diamondsquares.svg	28	yes	57	0	715	0	0			0	0			1				0	
6.6.1	win	2023-06-27	18:32:26	18:37:52	317451	5efb4cfd797e7108c3823ae5	3	1	main_slash	7	main_slash	89	stimuli_distractor_diamondtriangles.svg	stimuli_target_rectanglediamonds.svg	14	yes	53	1	63	0	0			0	0			1				0	
6.6.1	win	2023-06-27	18:32:26	18:37:52	317451	5efb4cfd797e7108c3823ae5	3	1	main_slash	7	advance_on_keypress_SLASH	90	stimuli_distractor_diamondtriangles.svg	stimuli_target_rectanglediamonds.svg	14	yes	57	0	860	0	0			0	0			1				0	
6.6.1	win	2023-06-27	18:32:26	18:37:54	319218	5efb4cfd797e7108c3823ae5	3	1	main_slash	7	main_slash	91	stimuli_target_squarediamonds.svg	stimuli_distractor_diamondtriangles.svg	8	yes	53	1	281	0	0			0	0			1				0	
6.6.1	win	2023-06-27	18:32:26	18:37:54	319218	5efb4cfd797e7108c3823ae5	3	1	main_slash	7	advance_on_keypress_SLASH	92	stimuli_target_squarediamonds.svg	stimuli_distractor_diamondtriangles.svg	8	yes	57	0	2198	0	0			0	0			1				0	
6.6.1	win	2023-06-27	18:32:26	18:37:57	322276	5efb4cfd797e7108c3823ae5	3	1	main_slash	7	main_slash	93	stimuli_distractor_diamondtriangles.svg	stimuli_target_trianglesquares.svg	30	yes	53	1	207	0	0			0	0			1				0	
6.6.1	win	2023-06-27	18:32:26	18:37:57	322276	5efb4cfd797e7108c3823ae5	3	1	main_slash	7	advance_on_keypress_SLASH	94	stimuli_distractor_diamondtriangles.svg	stimuli_target_trianglesquares.svg	30	yes	57	0	803	0	0			0	0			1				0	
6.6.1	win	2023-06-27	18:32:26	18:38:00	325720	5efb4cfd797e7108c3823ae5	3	1	main_slash	7	main_slash	95	stimuli_distractor_diamondtriangles.svg	stimuli_distractor_diamondtriangles.svg	40	no	0	1	2000	0	0			0	0			1				0	
6.6.1	win	2023-06-27	18:32:26	18:38:00	325720	5efb4cfd797e7108c3823ae5	3	1	main_slash	7	advance_on_keypress_SLASH	96	stimuli_distractor_diamondtriangles.svg	stimuli_distractor_diamondtriangles.svg	40	no	57	0	478	0	0			0	0			1				0	
6.6.1	win	2023-06-27	18:32:26	18:38:02	327106	5efb4cfd797e7108c3823ae5	3	1	main_slash	7	main_slash	97	stimuli_distractor_trianglediamonds.svg	stimuli_distractor_diamondtriangles.svg	36	no	53	0	269	0	0			0	0			1				0	
6.6.1	win	2023-06-27	18:32:26	18:38:02	327106	5efb4cfd797e7108c3823ae5	3	1	main_slash	7	advance_on_keypress_SLASH	98	stimuli_distractor_trianglediamonds.svg	stimuli_distractor_diamondtriangles.svg	36	no	57	0	947	0	0			0	0			1				0	
6.6.1	win	2023-06-27	18:32:26	18:38:04	329232	5efb4cfd797e7108c3823ae5	3	1	main_slash	7	main_slash	99	stimuli_target_squaretriangles.svg	stimuli_distractor_trianglediamonds.svg	3	yes	53	1	530	0	0			0	0			1				0	
6.6.1	win	2023-06-27	18:32:26	18:38:04	329232	5efb4cfd797e7108c3823ae5	3	1	main_slash	7	advance_on_keypress_SLASH	100	stimuli_target_squaretriangles.svg	stimuli_distractor_trianglediamonds.svg	3	yes	57	0	800	0	0			0	0			1				0	
6.6.1	win	2023-06-27	18:32:26	18:38:06	330831	5efb4cfd797e7108c3823ae5	3	1	main_slash	7	main_slash	101	stimuli_distractor_diamondtriangles.svg	stimuli_target_diamondrectangles.svg	31	yes	53	1	161	0	0			0	0			1				0	
6.6.1	win	2023-06-27	18:32:26	18:38:06	330831	5efb4cfd797e7108c3823ae5	3	1	main_slash	7	advance_on_keypress_SLASH	102	stimuli_distractor_diamondtriangles.svg	stimuli_target_diamondrectangles.svg	31	yes	57	0	1198	0	0			0	0			1				0	
6.6.1	win	2023-06-27	18:32:26	18:38:08	332995	5efb4cfd797e7108c3823ae5	3	1	main_slash	7	main_slash	103	stimuli_target_trianglesquares.svg	stimuli_distractor_trianglediamonds.svg	18	yes	53	1	325	0	0			0	0			1				0	
6.6.1	win	2023-06-27	18:32:26	18:38:08	332995	5efb4cfd797e7108c3823ae5	3	1	main_slash	7	advance_on_keypress_SLASH	104	stimuli_target_trianglesquares.svg	stimuli_distractor_trianglediamonds.svg	18	yes	57	0	580	0	0			0	0			1				0	
6.6.1	win	2023-06-27	18:32:26	18:38:09	334389	5efb4cfd797e7108c3823ae5	3	1	main_slash	7	main_slash	105	stimuli_distractor_diamondtriangles.svg	stimuli_target_rectangletriangles.svg	13	yes	53	1	186	0	0			0	0			1				0	
6.6.1	win	2023-06-27	18:32:26	18:38:09	334389	5efb4cfd797e7108c3823ae5	3	1	main_slash	7	advance_on_keypress_SLASH	106	stimuli_distractor_diamondtriangles.svg	stimuli_target_rectangletriangles.svg	13	yes	57	0	630	0	0			0	0			1				0	
6.6.1	win	2023-06-27	18:32:26	18:38:11	335900	5efb4cfd797e7108c3823ae5	3	1	main_slash	7	main_slash	107	stimuli_distractor_diamondtriangles.svg	stimuli_target_diamondsquares.svg	32	yes	53	1	230	0	0			0	0			1				0	
6.6.1	win	2023-06-27	18:32:26	18:38:11	335900	5efb4cfd797e7108c3823ae5	3	1	main_slash	7	advance_on_keypress_SLASH	108	stimuli_distractor_diamondtriangles.svg	stimuli_target_diamondsquares.svg	32	yes	57	0	923	0	0			0	0			1				0	
6.6.1	win	2023-06-27	18:32:26	18:38:13	338010	5efb4cfd797e7108c3823ae5	3	1	main_slash	7	main_slash	109	stimuli_target_diamondrectangles.svg	stimuli_distractor_trianglediamonds.svg	19	yes	53	1	556	0	0			0	0			1				0	
6.6.1	win	2023-06-27	18:32:26	18:38:13	338010	5efb4cfd797e7108c3823ae5	3	1	main_slash	7	advance_on_keypress_SLASH	110	stimuli_target_diamondrectangles.svg	stimuli_distractor_trianglediamonds.svg	19	yes	57	0	838	0	0			0	0			1				0	
6.6.1	win	2023-06-27	18:32:26	18:38:14	339674	5efb4cfd797e7108c3823ae5	3	1	main_slash	7	main_slash	111	stimuli_distractor_trianglediamonds.svg	stimuli_target_squarediamonds.svg	12	yes	53	1	188	0	0			0	0			1				0	
6.6.1	win	2023-06-27	18:32:26	18:38:14	339674	5efb4cfd797e7108c3823ae5	3	1	main_slash	7	advance_on_keypress_SLASH	112	stimuli_distractor_trianglediamonds.svg	stimuli_target_squarediamonds.svg	12	yes	57	0	899	0	0			0	0			1				0	
6.6.1	win	2023-06-27	18:32:26	18:38:16	341431	5efb4cfd797e7108c3823ae5	3	1	main_slash	7	main_slash	113	stimuli_target_diamondrectangles.svg	stimuli_distractor_diamondtriangles.svg	23	yes	53	1	212	0	0			0	0			1				0	
6.6.1	win	2023-06-27	18:32:26	18:38:16	341431	5efb4cfd797e7108c3823ae5	3	1	main_slash	7	advance_on_keypress_SLASH	114	stimuli_target_diamondrectangles.svg	stimuli_distractor_diamondtriangles.svg	23	yes	57	0	963	0	0			0	0			1				0	
6.6.1	win	2023-06-27	18:32:26	18:38:18	343354	5efb4cfd797e7108c3823ae5	3	1	main_slash	7	main_slash	115	stimuli_target_rectangletriangles.svg	stimuli_distractor_trianglediamonds.svg	1	yes	53	1	335	0	0			0	0			1				0	
6.6.1	win	2023-06-27	18:32:26	18:38:18	343354	5efb4cfd797e7108c3823ae5	3	1	main_slash	7	advance_on_keypress_SLASH	116	stimuli_target_rectangletriangles.svg	stimuli_distractor_trianglediamonds.svg	1	yes	57	0	689	0	0			0	0			1				0	
6.6.1	win	2023-06-27	18:32:26	18:38:20	344873	5efb4cfd797e7108c3823ae5	3	1	main_slash	7	main_slash	117	stimuli_distractor_diamondtriangles.svg	stimuli_target_trianglerectangles.svg	29	yes	53	1	188	0	0			0	0			1				0	
6.6.1	win	2023-06-27	18:32:26	18:38:20	344873	5efb4cfd797e7108c3823ae5	3	1	main_slash	7	advance_on_keypress_SLASH	118	stimuli_distractor_diamondtriangles.svg	stimuli_target_trianglerectangles.svg	29	yes	57	0	1143	0	0			0	0			1				0	
6.6.1	win	2023-06-27	18:32:26	18:38:22	346863	5efb4cfd797e7108c3823ae5	3	1	main_slash	7	main_slash	119	stimuli_distractor_trianglediamonds.svg	stimuli_target_trianglesquares.svg	26	yes	53	1	194	0	0			0	0			1				0	
6.6.1	win	2023-06-27	18:32:26	18:38:22	346863	5efb4cfd797e7108c3823ae5	3	1	main_slash	7	advance_on_keypress_SLASH	120	stimuli_distractor_trianglediamonds.svg	stimuli_target_trianglesquares.svg	26	yes	57	0	1128	0	0			0	0			1				0	
6.6.1	win	2023-06-27	18:32:26	18:38:24	348868	5efb4cfd797e7108c3823ae5	3	1	main_slash	7	main_slash	121	stimuli_distractor_trianglediamonds.svg	stimuli_target_rectanglediamonds.svg	10	yes	53	1	249	0	0			0	0			1				0	
6.6.1	win	2023-06-27	18:32:26	18:38:24	348868	5efb4cfd797e7108c3823ae5	3	1	main_slash	7	advance_on_keypress_SLASH	122	stimuli_distractor_trianglediamonds.svg	stimuli_target_rectanglediamonds.svg	10	yes	57	0	729	0	0			0	0			1				0	
6.6.1	win	2023-06-27	18:32:26	18:38:25	350456	5efb4cfd797e7108c3823ae5	3	1	main_slash	7	main_slash	123	stimuli_distractor_diamondtriangles.svg	stimuli_target_squarediamonds.svg	16	yes	53	1	219	0	0			0	0			1				0	
6.6.1	win	2023-06-27	18:32:26	18:38:25	350456	5efb4cfd797e7108c3823ae5	3	1	main_slash	7	advance_on_keypress_SLASH	124	stimuli_distractor_diamondtriangles.svg	stimuli_target_squarediamonds.svg	16	yes	57	0	789	0	0			0	0			1				0	
6.6.1	win	2023-06-27	18:32:26	18:38:27	352132	5efb4cfd797e7108c3823ae5	3	1	main_slash	7	main_slash	125	stimuli_distractor_trianglediamonds.svg	stimuli_target_diamondrectangles.svg	27	yes	53	1	247	0	0			0	0			1				0	
6.6.1	win	2023-06-27	18:32:26	18:38:27	352132	5efb4cfd797e7108c3823ae5	3	1	main_slash	7	advance_on_keypress_SLASH	126	stimuli_distractor_trianglediamonds.svg	stimuli_target_diamondrectangles.svg	27	yes	57	0	1013	0	0			0	0			1				0	
6.6.1	win	2023-06-27	18:32:26	18:38:29	354024	5efb4cfd797e7108c3823ae5	3	1	main_slash	7	main_slash	127	stimuli_target_squarediamonds.svg	stimuli_distractor_trianglediamonds.svg	4	yes	53	1	256	0	0			0	0			1				0	
6.6.1	win	2023-06-27	18:32:26	18:38:29	354024	5efb4cfd797e7108c3823ae5	3	1	main_slash	7	advance_on_keypress_SLASH	128	stimuli_target_squarediamonds.svg	stimuli_distractor_trianglediamonds.svg	4	yes	57	0	747	0	0			0	0			1				0	
6.6.1	win	2023-06-27	18:32:26	18:38:30	355603	5efb4cfd797e7108c3823ae5	3	1	main_slash	7	main_slash	129	stimuli_distractor_trianglediamonds.svg	stimuli_target_squaretriangles.svg	11	yes	53	1	184	0	0			0	0			1				0	
6.6.1	win	2023-06-27	18:32:26	18:38:30	355603	5efb4cfd797e7108c3823ae5	3	1	main_slash	7	advance_on_keypress_SLASH	130	stimuli_distractor_trianglediamonds.svg	stimuli_target_squaretriangles.svg	11	yes	57	0	880	0	0			0	0			1				0	
6.6.1	win	2023-06-27	18:32:26	18:38:32	357278	5efb4cfd797e7108c3823ae5	3	1	main_slash	7	main_slash	131	stimuli_target_trianglerectangles.svg	stimuli_distractor_diamondtriangles.svg	21	yes	53	1	159	0	0			0	0			1				0	
6.6.1	win	2023-06-27	18:32:26	18:38:32	357278	5efb4cfd797e7108c3823ae5	3	1	main_slash	7	advance_on_keypress_SLASH	132	stimuli_target_trianglerectangles.svg	stimuli_distractor_diamondtriangles.svg	21	yes	57	0	1065	0	0			0	0			1				0	
6.6.1	win	2023-06-27	18:32:26	18:38:34	359087	5efb4cfd797e7108c3823ae5	3	1	main_slash	7	main_slash	133	stimuli_distractor_diamondtriangles.svg	stimuli_target_squaretriangles.svg	15	yes	53	1	101	0	0			0	0			1				0	
6.6.1	win	2023-06-27	18:32:26	18:38:34	359087	5efb4cfd797e7108c3823ae5	3	1	main_slash	7	advance_on_keypress_SLASH	134	stimuli_distractor_diamondtriangles.svg	stimuli_target_squaretriangles.svg	15	yes	57	0	914	0	0			0	0			1				0	
6.6.1	win	2023-06-27	18:32:26	18:38:35	360739	5efb4cfd797e7108c3823ae5	3	1	main_slash	7	main_slash	135	stimuli_distractor_diamondtriangles.svg	stimuli_distractor_diamondtriangles.svg	39	no	53	0	87	0	0			0	0			1				0	
6.6.1	win	2023-06-27	18:32:26	18:38:35	360739	5efb4cfd797e7108c3823ae5	3	1	main_slash	7	advance_on_keypress_SLASH	136	stimuli_distractor_diamondtriangles.svg	stimuli_distractor_diamondtriangles.svg	39	no	57	0	1061	0	0			0	0			1				0	
6.6.1	win	2023-06-27	18:32:26	18:38:38	362773	5efb4cfd797e7108c3823ae5	3	1	main_slash	7	main_slash	137	stimuli_target_diamondsquares.svg	stimuli_distractor_diamondtriangles.svg	24	yes	53	1	337	0	0			0	0			1				0	
6.6.1	win	2023-06-27	18:32:26	18:38:38	362773	5efb4cfd797e7108c3823ae5	3	1	main_slash	7	advance_on_keypress_SLASH	138	stimuli_target_diamondsquares.svg	stimuli_distractor_diamondtriangles.svg	24	yes	57	0	783	0	0			0	0			1				0	
6.6.1	win	2023-06-27	18:32:26	18:38:39	364266	5efb4cfd797e7108c3823ae5	3	1	main_slash	7	main_slash	139	stimuli_distractor_trianglediamonds.svg	stimuli_target_trianglerectangles.svg	25	yes	53	1	64	0	0			0	0			1				0	
6.6.1	win	2023-06-27	18:32:26	18:38:39	364266	5efb4cfd797e7108c3823ae5	3	1	main_slash	7	advance_on_keypress_SLASH	140	stimuli_distractor_trianglediamonds.svg	stimuli_target_trianglerectangles.svg	25	yes	57	0	828	0	0			0	0			1				0	
6.6.1	win	2023-06-27	18:32:26	18:38:41	365935	5efb4cfd797e7108c3823ae5	3	1	main_slash	7	main_slash	141	stimuli_distractor_diamondtriangles.svg	stimuli_distractor_trianglediamonds.svg	38	no	53	0	216	0	0			0	0			1				0	
6.6.1	win	2023-06-27	18:32:26	18:38:41	365935	5efb4cfd797e7108c3823ae5	3	1	main_slash	7	advance_on_keypress_SLASH	142	stimuli_distractor_diamondtriangles.svg	stimuli_distractor_trianglediamonds.svg	38	no	57	0	1530	0	0			0	0			1				0	
6.6.1	win	2023-06-27	18:32:26	18:38:43	368505	5efb4cfd797e7108c3823ae5	3	1	main_slash	7	main_slash	143	stimuli_distractor_trianglediamonds.svg	stimuli_distractor_trianglediamonds.svg	34	no	53	0	404	0	0			0	0			1				0	
6.6.1	win	2023-06-27	18:32:26	18:38:43	368505	5efb4cfd797e7108c3823ae5	3	1	main_slash	7	advance_on_keypress_SLASH	144	stimuli_distractor_trianglediamonds.svg	stimuli_distractor_trianglediamonds.svg	34	no	57	0	1250	0	0			0	0			1				0	
6.6.1	win	2023-06-27	18:32:26	18:38:45	370680	5efb4cfd797e7108c3823ae5	3	1	main_slash	7	main_slash	145	stimuli_distractor_diamondtriangles.svg	stimuli_distractor_trianglediamonds.svg	37	no	53	0	278	0	0			0	0			1				0	
6.6.1	win	2023-06-27	18:32:26	18:38:45	370680	5efb4cfd797e7108c3823ae5	3	1	main_slash	7	advance_on_keypress_SLASH	146	stimuli_distractor_diamondtriangles.svg	stimuli_distractor_trianglediamonds.svg	37	no	57	0	903	0	0			0	0			1				0	
6.6.1	win	2023-06-27	18:32:26	18:38:48	372752	5efb4cfd797e7108c3823ae5	3	1	main_slash	7	main_slash	147	stimuli_distractor_trianglediamonds.svg	stimuli_distractor_diamondtriangles.svg	35	no	53	0	533	0	0			0	0			1				0	
6.6.1	win	2023-06-27	18:32:26	18:38:48	372752	5efb4cfd797e7108c3823ae5	3	1	main_slash	7	advance_on_keypress_SLASH	148	stimuli_distractor_trianglediamonds.svg	stimuli_distractor_diamondtriangles.svg	35	no	57	0	937	0	0			0	0			1				0	
6.6.1	win	2023-06-27	18:32:26	18:38:49	374519	5efb4cfd797e7108c3823ae5	3	1	main_slash	7	main_slash	149	stimuli_target_rectanglediamonds.svg	stimuli_distractor_diamondtriangles.svg	6	yes	53	1	184	0	0			0	0			1				0	
6.6.1	win	2023-06-27	18:32:26	18:38:49	374519	5efb4cfd797e7108c3823ae5	3	1	main_slash	7	advance_on_keypress_SLASH	150	stimuli_target_rectanglediamonds.svg	stimuli_distractor_diamondtriangles.svg	6	yes	57	0	633	0	0			0	0			1				0	
6.6.1	win	2023-06-27	18:32:26	18:38:51	375900	5efb4cfd797e7108c3823ae5	3	1	main_slash	7	main_slash	151	stimuli_target_trianglesquares.svg	stimuli_distractor_diamondtriangles.svg	22	yes	53	1	98	0	0			0	0			1				0	
6.6.1	win	2023-06-27	18:32:26	18:38:51	375900	5efb4cfd797e7108c3823ae5	3	1	main_slash	7	advance_on_keypress_SLASH	152	stimuli_target_trianglesquares.svg	stimuli_distractor_diamondtriangles.svg	22	yes	57	0	634	0	0			0	0			1				0	
6.6.1	win	2023-06-27	18:32:26	18:38:52	377390	5efb4cfd797e7108c3823ae5	3	1	main_slash	7	main_slash	153	stimuli_target_rectanglediamonds.svg	stimuli_distractor_trianglediamonds.svg	2	yes	53	1	205	0	0			0	0			1				0	
6.6.1	win	2023-06-27	18:32:26	18:38:52	377390	5efb4cfd797e7108c3823ae5	3	1	main_slash	7	advance_on_keypress_SLASH	154	stimuli_target_rectanglediamonds.svg	stimuli_distractor_trianglediamonds.svg	2	yes	57	0	916	0	0			0	0			1				0	
6.6.1	win	2023-06-27	18:32:26	18:38:54	379161	5efb4cfd797e7108c3823ae5	3	1	main_slash	7	main_slash	155	stimuli_target_trianglerectangles.svg	stimuli_distractor_trianglediamonds.svg	17	yes	53	1	209	0	0			0	0			1				0	
6.6.1	win	2023-06-27	18:32:26	18:38:54	379161	5efb4cfd797e7108c3823ae5	3	1	main_slash	7	advance_on_keypress_SLASH	156	stimuli_target_trianglerectangles.svg	stimuli_distractor_trianglediamonds.svg	17	yes	57	0	797	0	0			0	0			1				0	
6.6.1	win	2023-06-27	18:32:26	18:38:56	380816	5efb4cfd797e7108c3823ae5	3	1	main_slash	7	main_slash	157	stimuli_target_rectangletriangles.svg	stimuli_distractor_diamondtriangles.svg	5	yes	53	1	230	0	0			0	0			1				0	
6.6.1	win	2023-06-27	18:32:26	18:38:56	380816	5efb4cfd797e7108c3823ae5	3	1	main_slash	7	advance_on_keypress_SLASH	158	stimuli_target_rectangletriangles.svg	stimuli_distractor_diamondtriangles.svg	5	yes	57	0	514	0	0			0	0			1				0	
6.6.1	win	2023-06-27	18:32:26	18:38:57	382255	5efb4cfd797e7108c3823ae5	3	1	main_slash	7	main_slash	159	stimuli_target_diamondsquares.svg	stimuli_distractor_trianglediamonds.svg	20	yes	53	1	271	0	0			0	0			1				0	
6.6.1	win	2023-06-27	18:32:26	18:38:57	382255	5efb4cfd797e7108c3823ae5	3	1	main_slash	7	advance_on_keypress_SLASH	160	stimuli_target_diamondsquares.svg	stimuli_distractor_trianglediamonds.svg	20	yes	57	0	651	0	0			0	0			1				0	
6.6.1	win	2023-06-27	18:32:26	18:39:14	398944	5efb4cfd797e7108c3823ae5	3	1	practice_z	9	practice_z	1	stimuli_distractor_diamondtriangles.svg	stimuli_target_rectangletriangles.svg	7	yes	44	1	476	0	0			0	0			1				0	
6.6.1	win	2023-06-27	18:32:26	18:39:14	398944	5efb4cfd797e7108c3823ae5	3	1	practice_z	9	advance_on_keypress_ZEE	2	stimuli_distractor_diamondtriangles.svg	stimuli_target_rectangletriangles.svg	7	yes	57	0	550	0	0			0	0			1				0	
6.6.1	win	2023-06-27	18:32:26	18:39:16	401455	5efb4cfd797e7108c3823ae5	3	1	practice_z	9	practice_z	3	stimuli_target_rectanglediamonds.svg	stimuli_distractor_diamondtriangles.svg	1	yes	44	1	318	0	0			0	0			1				0	
6.6.1	win	2023-06-27	18:32:26	18:39:16	401455	5efb4cfd797e7108c3823ae5	3	1	practice_z	9	advance_on_keypress_ZEE	4	stimuli_target_rectanglediamonds.svg	stimuli_distractor_diamondtriangles.svg	1	yes	57	0	523	0	0			0	0			1				0	
6.6.1	win	2023-06-27	18:32:26	18:39:19	404431	5efb4cfd797e7108c3823ae5	3	1	practice_z	9	practice_z	5	stimuli_distractor_diamondtriangles.svg	stimuli_target_trianglerectangles.svg	9	yes	44	1	812	0	0			0	0			1				0	
6.6.1	win	2023-06-27	18:32:26	18:39:19	404431	5efb4cfd797e7108c3823ae5	3	1	practice_z	9	advance_on_keypress_ZEE	6	stimuli_distractor_diamondtriangles.svg	stimuli_target_trianglerectangles.svg	9	yes	57	0	607	0	0			0	0			1				0	
6.6.1	win	2023-06-27	18:32:26	18:39:22	406923	5efb4cfd797e7108c3823ae5	3	1	practice_z	9	practice_z	7	stimuli_distractor_trianglediamonds.svg	stimuli_target_squarediamonds.svg	11	yes	44	1	254	0	0			0	0			1				0	
6.6.1	win	2023-06-27	18:32:26	18:39:22	406923	5efb4cfd797e7108c3823ae5	3	1	practice_z	9	advance_on_keypress_ZEE	8	stimuli_distractor_trianglediamonds.svg	stimuli_target_squarediamonds.svg	11	yes	57	0	1385	0	0			0	0			1				0	
6.6.1	win	2023-06-27	18:32:26	18:39:25	410182	5efb4cfd797e7108c3823ae5	3	1	practice_z	9	practice_z	9	stimuli_target_squarediamonds.svg	stimuli_distractor_diamondtriangles.svg	2	yes	44	1	231	0	0			0	0			1				0	
6.6.1	win	2023-06-27	18:32:26	18:39:25	410182	5efb4cfd797e7108c3823ae5	3	1	practice_z	9	advance_on_keypress_ZEE	10	stimuli_target_squarediamonds.svg	stimuli_distractor_diamondtriangles.svg	2	yes	57	0	500	0	0			0	0			1				0	
6.6.1	win	2023-06-27	18:32:26	18:39:28	412745	5efb4cfd797e7108c3823ae5	3	1	practice_z	9	practice_z	11	stimuli_target_diamondsquares.svg	stimuli_distractor_trianglediamonds.svg	6	yes	44	1	410	0	0			0	0			1				0	
6.6.1	win	2023-06-27	18:32:26	18:39:28	412745	5efb4cfd797e7108c3823ae5	3	1	practice_z	9	advance_on_keypress_ZEE	12	stimuli_target_diamondsquares.svg	stimuli_distractor_trianglediamonds.svg	6	yes	57	0	470	0	0			0	0			1				0	
6.6.1	win	2023-06-27	18:32:26	18:39:30	415059	5efb4cfd797e7108c3823ae5	3	1	practice_z	9	practice_z	13	stimuli_distractor_trianglediamonds.svg	stimuli_distractor_diamondtriangles.svg	16	no	44	0	208	0	0			0	0			1				0	
6.6.1	win	2023-06-27	18:32:26	18:39:30	415059	5efb4cfd797e7108c3823ae5	3	1	practice_z	9	advance_on_keypress_ZEE	14	stimuli_distractor_trianglediamonds.svg	stimuli_distractor_diamondtriangles.svg	16	no	57	0	1142	0	0			0	0			1				0	
6.6.1	win	2023-06-27	18:32:26	18:39:33	418044	5efb4cfd797e7108c3823ae5	3	1	practice_z	9	practice_z	15	stimuli_distractor_trianglediamonds.svg	stimuli_target_rectanglediamonds.svg	10	yes	44	1	210	0	0			0	0			1				0	
6.6.1	win	2023-06-27	18:32:26	18:39:33	418044	5efb4cfd797e7108c3823ae5	3	1	practice_z	9	advance_on_keypress_ZEE	16	stimuli_distractor_trianglediamonds.svg	stimuli_target_rectanglediamonds.svg	10	yes	57	0	563	0	0			0	0			1				0	
6.6.1	win	2023-06-27	18:32:26	18:39:35	420539	5efb4cfd797e7108c3823ae5	3	1	practice_z	9	practice_z	17	stimuli_target_squarediamonds.svg	stimuli_distractor_trianglediamonds.svg	5	yes	44	1	305	0	0			0	0			1				0	
6.6.1	win	2023-06-27	18:32:26	18:39:35	420539	5efb4cfd797e7108c3823ae5	3	1	practice_z	9	advance_on_keypress_ZEE	18	stimuli_target_squarediamonds.svg	stimuli_distractor_trianglediamonds.svg	5	yes	57	0	527	0	0			0	0			1				0	
6.6.1	win	2023-06-27	18:32:26	18:39:38	422957	5efb4cfd797e7108c3823ae5	3	1	practice_z	9	practice_z	19	stimuli_distractor_trianglediamonds.svg	stimuli_distractor_trianglediamonds.svg	15	no	44	0	256	0	0			0	0			1				0	
6.6.1	win	2023-06-27	18:32:26	18:39:38	422957	5efb4cfd797e7108c3823ae5	3	1	practice_z	9	advance_on_keypress_ZEE	20	stimuli_distractor_trianglediamonds.svg	stimuli_distractor_trianglediamonds.svg	15	no	57	0	386	0	0			0	0			1				0	
6.6.1	win	2023-06-27	18:32:26	18:39:40	425501	5efb4cfd797e7108c3823ae5	3	1	practice_z	9	practice_z	21	stimuli_distractor_diamondtriangles.svg	stimuli_distractor_diamondtriangles.svg	13	no	44	0	510	0	0			0	0			1				0	
6.6.1	win	2023-06-27	18:32:26	18:39:40	425501	5efb4cfd797e7108c3823ae5	3	1	practice_z	9	advance_on_keypress_ZEE	22	stimuli_distractor_diamondtriangles.svg	stimuli_distractor_diamondtriangles.svg	13	no	57	0	603	0	0			0	0			1				0	
6.6.1	win	2023-06-27	18:32:26	18:39:43	428241	5efb4cfd797e7108c3823ae5	3	1	practice_z	9	practice_z	23	stimuli_distractor_diamondtriangles.svg	stimuli_target_diamondrectangles.svg	8	yes	44	1	490	0	0			0	0			1				0	
6.6.1	win	2023-06-27	18:32:26	18:39:43	428241	5efb4cfd797e7108c3823ae5	3	1	practice_z	9	advance_on_keypress_ZEE	24	stimuli_distractor_diamondtriangles.svg	stimuli_target_diamondrectangles.svg	8	yes	57	0	510	0	0			0	0			1				0	
6.6.1	win	2023-06-27	18:32:26	18:39:45	430590	5efb4cfd797e7108c3823ae5	3	1	practice_z	9	practice_z	25	stimuli_distractor_diamondtriangles.svg	stimuli_distractor_trianglediamonds.svg	14	no	44	0	206	0	0			0	0			1				0	
6.6.1	win	2023-06-27	18:32:26	18:39:45	430590	5efb4cfd797e7108c3823ae5	3	1	practice_z	9	advance_on_keypress_ZEE	26	stimuli_distractor_diamondtriangles.svg	stimuli_distractor_trianglediamonds.svg	14	no	57	0	449	0	0			0	0			1				0	
6.6.1	win	2023-06-27	18:32:26	18:39:49	433797	5efb4cfd797e7108c3823ae5	3	1	practice_z	9	practice_z	27	stimuli_distractor_trianglediamonds.svg	stimuli_target_diamondrectangles.svg	12	yes	44	1	1112	0	0			0	0			1				0	
6.6.1	win	2023-06-27	18:32:26	18:39:49	433797	5efb4cfd797e7108c3823ae5	3	1	practice_z	9	advance_on_keypress_ZEE	28	stimuli_distractor_trianglediamonds.svg	stimuli_target_diamondrectangles.svg	12	yes	57	0	525	0	0			0	0			1				0	
6.6.1	win	2023-06-27	18:32:26	18:39:51	436439	5efb4cfd797e7108c3823ae5	3	1	practice_z	9	practice_z	29	stimuli_target_rectanglediamonds.svg	stimuli_distractor_trianglediamonds.svg	4	yes	44	1	489	0	0			0	0			1				0	
6.6.1	win	2023-06-27	18:32:26	18:39:51	436439	5efb4cfd797e7108c3823ae5	3	1	practice_z	9	advance_on_keypress_ZEE	30	stimuli_target_rectanglediamonds.svg	stimuli_distractor_trianglediamonds.svg	4	yes	57	0	364	0	0			0	0			1				0	
6.6.1	win	2023-06-27	18:32:26	18:39:53	438687	5efb4cfd797e7108c3823ae5	3	1	practice_z	9	practice_z	31	stimuli_target_diamondsquares.svg	stimuli_distractor_diamondtriangles.svg	3	yes	44	1	251	0	0			0	0			1				0	
6.6.1	win	2023-06-27	18:32:26	18:39:53	438687	5efb4cfd797e7108c3823ae5	3	1	practice_z	9	advance_on_keypress_ZEE	32	stimuli_target_diamondsquares.svg	stimuli_distractor_diamondtriangles.svg	3	yes	57	0	417	0	0			0	0			1				0	
6.6.1	win	2023-06-27	18:32:26	18:39:57	442666	5efb4cfd797e7108c3823ae5	3	1	main_z	11	main_z	1	stimuli_target_diamondsquares.svg	stimuli_distractor_trianglediamonds.svg	20	yes	44	1	504	0	0			0	0			1				0	
6.6.1	win	2023-06-27	18:32:26	18:39:57	442666	5efb4cfd797e7108c3823ae5	3	1	main_z	11	advance_on_keypress_ZEE	2	stimuli_target_diamondsquares.svg	stimuli_distractor_trianglediamonds.svg	20	yes	57	0	1001	0	0			0	0			1				0	
6.6.1	win	2023-06-27	18:32:26	18:39:59	444517	5efb4cfd797e7108c3823ae5	3	1	main_z	11	main_z	3	stimuli_distractor_diamondtriangles.svg	stimuli_target_squarediamonds.svg	16	yes	44	1	200	0	0			0	0			1				0	
6.6.1	win	2023-06-27	18:32:26	18:39:59	444517	5efb4cfd797e7108c3823ae5	3	1	main_z	11	advance_on_keypress_ZEE	4	stimuli_distractor_diamondtriangles.svg	stimuli_target_squarediamonds.svg	16	yes	57	0	807	0	0			0	0			1				0	
6.6.1	win	2023-06-27	18:32:26	18:40:01	446227	5efb4cfd797e7108c3823ae5	3	1	main_z	11	main_z	5	stimuli_distractor_diamondtriangles.svg	stimuli_target_squaretriangles.svg	15	yes	44	1	260	0	0			0	0			1				0	
6.6.1	win	2023-06-27	18:32:26	18:40:01	446227	5efb4cfd797e7108c3823ae5	3	1	main_z	11	advance_on_keypress_ZEE	6	stimuli_distractor_diamondtriangles.svg	stimuli_target_squaretriangles.svg	15	yes	57	0	644	0	0			0	0			1				0	
6.6.1	win	2023-06-27	18:32:26	18:40:02	447698	5efb4cfd797e7108c3823ae5	3	1	main_z	11	main_z	7	stimuli_target_diamondsquares.svg	stimuli_distractor_diamondtriangles.svg	24	yes	44	1	198	0	0			0	0			1				0	
6.6.1	win	2023-06-27	18:32:26	18:40:02	447698	5efb4cfd797e7108c3823ae5	3	1	main_z	11	advance_on_keypress_ZEE	8	stimuli_target_diamondsquares.svg	stimuli_distractor_diamondtriangles.svg	24	yes	57	0	620	0	0			0	0			1				0	
6.6.1	win	2023-06-27	18:32:26	18:40:04	449177	5efb4cfd797e7108c3823ae5	3	1	main_z	11	main_z	9	stimuli_distractor_diamondtriangles.svg	stimuli_target_rectanglediamonds.svg	14	yes	44	1	210	0	0			0	0			1				0	
6.6.1	win	2023-06-27	18:32:26	18:40:04	449177	5efb4cfd797e7108c3823ae5	3	1	main_z	11	advance_on_keypress_ZEE	10	stimuli_distractor_diamondtriangles.svg	stimuli_target_rectanglediamonds.svg	14	yes	57	0	576	0	0			0	0			1				0	
6.6.1	win	2023-06-27	18:32:26	18:40:05	450529	5efb4cfd797e7108c3823ae5	3	1	main_z	11	main_z	11	stimuli_target_diamondrectangles.svg	stimuli_distractor_trianglediamonds.svg	19	yes	44	1	146	0	0			0	0			1				0	
6.6.1	win	2023-06-27	18:32:26	18:40:05	450529	5efb4cfd797e7108c3823ae5	3	1	main_z	11	advance_on_keypress_ZEE	12	stimuli_target_diamondrectangles.svg	stimuli_distractor_trianglediamonds.svg	19	yes	57	0	592	0	0			0	0			1				0	
6.6.1	win	2023-06-27	18:32:26	18:40:07	451962	5efb4cfd797e7108c3823ae5	3	1	main_z	11	main_z	13	stimuli_target_squarediamonds.svg	stimuli_distractor_diamondtriangles.svg	8	yes	44	1	213	0	0			0	0			1				0	
6.6.1	win	2023-06-27	18:32:26	18:40:07	451962	5efb4cfd797e7108c3823ae5	3	1	main_z	11	advance_on_keypress_ZEE	14	stimuli_target_squarediamonds.svg	stimuli_distractor_diamondtriangles.svg	8	yes	57	0	607	0	0			0	0			1				0	
6.6.1	win	2023-06-27	18:32:26	18:40:10	455217	5efb4cfd797e7108c3823ae5	3	1	main_z	11	main_z	15	stimuli_target_squaretriangles.svg	stimuli_distractor_diamondtriangles.svg	7	yes	0	0	2000	0	0			0	0			1				0	
6.6.1	win	2023-06-27	18:32:26	18:40:10	455217	5efb4cfd797e7108c3823ae5	3	1	main_z	11	advance_on_keypress_ZEE	16	stimuli_target_squaretriangles.svg	stimuli_distractor_diamondtriangles.svg	7	yes	57	0	478	0	0			0	0			1				0	
6.6.1	win	2023-06-27	18:32:26	18:40:12	456813	5efb4cfd797e7108c3823ae5	3	1	main_z	11	main_z	17	stimuli_distractor_diamondtriangles.svg	stimuli_distractor_trianglediamonds.svg	38	no	44	0	480	0	0			0	0			1				0	
6.6.1	win	2023-06-27	18:32:26	18:40:12	456813	5efb4cfd797e7108c3823ae5	3	1	main_z	11	advance_on_keypress_ZEE	18	stimuli_distractor_diamondtriangles.svg	stimuli_distractor_trianglediamonds.svg	38	no	57	0	687	0	0			0	0			1				0	
6.6.1	win	2023-06-27	18:32:26	18:40:13	458398	5efb4cfd797e7108c3823ae5	3	1	main_z	11	main_z	19	stimuli_target_trianglerectangles.svg	stimuli_distractor_diamondtriangles.svg	21	yes	44	1	265	0	0			0	0			1				0	
6.6.1	win	2023-06-27	18:32:26	18:40:13	458398	5efb4cfd797e7108c3823ae5	3	1	main_z	11	advance_on_keypress_ZEE	20	stimuli_target_trianglerectangles.svg	stimuli_distractor_diamondtriangles.svg	21	yes	57	0	1062	0	0			0	0			1				0	
6.6.1	win	2023-06-27	18:32:26	18:40:15	460304	5efb4cfd797e7108c3823ae5	3	1	main_z	11	main_z	21	stimuli_target_squarediamonds.svg	stimuli_distractor_trianglediamonds.svg	4	yes	44	1	204	0	0			0	0			1				0	
6.6.1	win	2023-06-27	18:32:26	18:40:15	460304	5efb4cfd797e7108c3823ae5	3	1	main_z	11	advance_on_keypress_ZEE	22	stimuli_target_squarediamonds.svg	stimuli_distractor_trianglediamonds.svg	4	yes	57	0	560	0	0			0	0			1				0	
6.6.1	win	2023-06-27	18:32:26	18:40:17	461751	5efb4cfd797e7108c3823ae5	3	1	main_z	11	main_z	23	stimuli_distractor_trianglediamonds.svg	stimuli_target_trianglerectangles.svg	25	yes	44	1	251	0	0			0	0			1				0	
6.6.1	win	2023-06-27	18:32:26	18:40:17	461751	5efb4cfd797e7108c3823ae5	3	1	main_z	11	advance_on_keypress_ZEE	24	stimuli_distractor_trianglediamonds.svg	stimuli_target_trianglerectangles.svg	25	yes	57	0	644	0	0			0	0			1				0	
6.6.1	win	2023-06-27	18:32:26	18:40:19	463800	5efb4cfd797e7108c3823ae5	3	1	main_z	11	main_z	25	stimuli_target_trianglesquares.svg	stimuli_distractor_trianglediamonds.svg	18	yes	44	1	768	0	0			0	0			1				0	
6.6.1	win	2023-06-27	18:32:26	18:40:19	463800	5efb4cfd797e7108c3823ae5	3	1	main_z	11	advance_on_keypress_ZEE	26	stimuli_target_trianglesquares.svg	stimuli_distractor_trianglediamonds.svg	18	yes	57	0	936	0	0			0	0			1				0	
6.6.1	win	2023-06-27	18:32:26	18:40:20	465683	5efb4cfd797e7108c3823ae5	3	1	main_z	11	main_z	27	stimuli_distractor_trianglediamonds.svg	stimuli_distractor_trianglediamonds.svg	33	no	44	0	300	0	0			0	0			1				0	
6.6.1	win	2023-06-27	18:32:26	18:40:20	465683	5efb4cfd797e7108c3823ae5	3	1	main_z	11	advance_on_keypress_ZEE	28	stimuli_distractor_trianglediamonds.svg	stimuli_distractor_trianglediamonds.svg	33	no	57	0	688	0	0			0	0			1				0	
6.6.1	win	2023-06-27	18:32:26	18:40:22	467369	5efb4cfd797e7108c3823ae5	3	1	main_z	11	main_z	29	stimuli_target_diamondrectangles.svg	stimuli_distractor_diamondtriangles.svg	23	yes	44	1	353	0	0			0	0			1				0	
6.6.1	win	2023-06-27	18:32:26	18:40:22	467369	5efb4cfd797e7108c3823ae5	3	1	main_z	11	advance_on_keypress_ZEE	30	stimuli_target_diamondrectangles.svg	stimuli_distractor_diamondtriangles.svg	23	yes	57	0	756	0	0			0	0			1				0	
6.6.1	win	2023-06-27	18:32:26	18:40:24	469684	5efb4cfd797e7108c3823ae5	3	1	main_z	11	main_z	31	stimuli_distractor_diamondtriangles.svg	stimuli_distractor_trianglediamonds.svg	37	no	44	0	918	0	0			0	0			1				0	
6.6.1	win	2023-06-27	18:32:26	18:40:24	469684	5efb4cfd797e7108c3823ae5	3	1	main_z	11	advance_on_keypress_ZEE	32	stimuli_distractor_diamondtriangles.svg	stimuli_distractor_trianglediamonds.svg	37	no	57	0	646	0	0			0	0			1				0	
6.6.1	win	2023-06-27	18:32:26	18:40:26	471233	5efb4cfd797e7108c3823ae5	3	1	main_z	11	main_z	33	stimuli_distractor_trianglediamonds.svg	stimuli_target_squarediamonds.svg	12	yes	44	1	267	0	0			0	0			1				0	
6.6.1	win	2023-06-27	18:32:26	18:40:26	471233	5efb4cfd797e7108c3823ae5	3	1	main_z	11	advance_on_keypress_ZEE	34	stimuli_distractor_trianglediamonds.svg	stimuli_target_squarediamonds.svg	12	yes	57	0	644	0	0			0	0			1				0	
6.6.1	win	2023-06-27	18:32:26	18:40:28	472749	5efb4cfd797e7108c3823ae5	3	1	main_z	11	main_z	35	stimuli_target_rectangletriangles.svg	stimuli_distractor_diamondtriangles.svg	5	yes	44	1	234	0	0			0	0			1				0	
6.6.1	win	2023-06-27	18:32:26	18:40:28	472749	5efb4cfd797e7108c3823ae5	3	1	main_z	11	advance_on_keypress_ZEE	36	stimuli_target_rectangletriangles.svg	stimuli_distractor_diamondtriangles.svg	5	yes	57	0	691	0	0			0	0			1				0	
6.6.1	win	2023-06-27	18:32:26	18:40:29	474525	5efb4cfd797e7108c3823ae5	3	1	main_z	11	main_z	37	stimuli_distractor_diamondtriangles.svg	stimuli_distractor_diamondtriangles.svg	40	no	44	0	442	0	0			0	0			1				0	
6.6.1	win	2023-06-27	18:32:26	18:40:29	474525	5efb4cfd797e7108c3823ae5	3	1	main_z	11	advance_on_keypress_ZEE	38	stimuli_distractor_diamondtriangles.svg	stimuli_distractor_diamondtriangles.svg	40	no	57	0	609	0	0			0	0			1				0	
6.6.1	win	2023-06-27	18:32:26	18:40:31	476075	5efb4cfd797e7108c3823ae5	3	1	main_z	11	main_z	39	stimuli_target_trianglesquares.svg	stimuli_distractor_diamondtriangles.svg	22	yes	44	1	309	0	0			0	0			1				0	
6.6.1	win	2023-06-27	18:32:26	18:40:31	476075	5efb4cfd797e7108c3823ae5	3	1	main_z	11	advance_on_keypress_ZEE	40	stimuli_target_trianglesquares.svg	stimuli_distractor_diamondtriangles.svg	22	yes	57	0	614	0	0			0	0			1				0	
6.6.1	win	2023-06-27	18:32:26	18:40:32	477593	5efb4cfd797e7108c3823ae5	3	1	main_z	11	main_z	41	stimuli_distractor_trianglediamonds.svg	stimuli_distractor_trianglediamonds.svg	34	no	44	0	260	0	0			0	0			1				0	
6.6.1	win	2023-06-27	18:32:26	18:40:32	477593	5efb4cfd797e7108c3823ae5	3	1	main_z	11	advance_on_keypress_ZEE	42	stimuli_distractor_trianglediamonds.svg	stimuli_distractor_trianglediamonds.svg	34	no	57	0	735	0	0			0	0			1				0	
6.6.1	win	2023-06-27	18:32:26	18:40:34	479368	5efb4cfd797e7108c3823ae5	3	1	main_z	11	main_z	43	stimuli_distractor_diamondtriangles.svg	stimuli_target_rectangletriangles.svg	13	yes	44	1	402	0	0			0	0			1				0	
6.6.1	win	2023-06-27	18:32:26	18:40:34	479368	5efb4cfd797e7108c3823ae5	3	1	main_z	11	advance_on_keypress_ZEE	44	stimuli_distractor_diamondtriangles.svg	stimuli_target_rectangletriangles.svg	13	yes	57	0	630	0	0			0	0			1				0	
6.6.1	win	2023-06-27	18:32:26	18:40:36	480907	5efb4cfd797e7108c3823ae5	3	1	main_z	11	main_z	45	stimuli_distractor_trianglediamonds.svg	stimuli_target_rectangletriangles.svg	9	yes	44	1	275	0	0			0	0			1				0	
6.6.1	win	2023-06-27	18:32:26	18:40:36	480907	5efb4cfd797e7108c3823ae5	3	1	main_z	11	advance_on_keypress_ZEE	46	stimuli_distractor_trianglediamonds.svg	stimuli_target_rectangletriangles.svg	9	yes	57	0	64	0	0			0	0			1				0	
6.6.1	win	2023-06-27	18:32:26	18:40:38	483599	5efb4cfd797e7108c3823ae5	3	1	main_z	11	main_z	47	stimuli_distractor_trianglediamonds.svg	stimuli_target_diamondsquares.svg	28	yes	0	0	2000	0	0			0	0			1				0	
6.6.1	win	2023-06-27	18:32:26	18:40:38	483599	5efb4cfd797e7108c3823ae5	3	1	main_z	11	advance_on_keypress_ZEE	48	stimuli_distractor_trianglediamonds.svg	stimuli_target_diamondsquares.svg	28	yes	57	0	422	0	0			0	0			1				0	
6.6.1	win	2023-06-27	18:32:26	18:40:40	484942	5efb4cfd797e7108c3823ae5	3	1	main_z	11	main_z	49	stimuli_distractor_trianglediamonds.svg	stimuli_target_squaretriangles.svg	11	yes	44	1	277	0	0			0	0			1				0	
6.6.1	win	2023-06-27	18:32:26	18:40:40	484942	5efb4cfd797e7108c3823ae5	3	1	main_z	11	advance_on_keypress_ZEE	50	stimuli_distractor_trianglediamonds.svg	stimuli_target_squaretriangles.svg	11	yes	57	0	842	0	0			0	0			1				0	
6.6.1	win	2023-06-27	18:32:26	18:40:41	486636	5efb4cfd797e7108c3823ae5	3	1	main_z	11	main_z	51	stimuli_distractor_diamondtriangles.svg	stimuli_target_diamondsquares.svg	32	yes	44	1	220	0	0			0	0			1				0	
6.6.1	win	2023-06-27	18:32:26	18:40:41	486636	5efb4cfd797e7108c3823ae5	3	1	main_z	11	advance_on_keypress_ZEE	52	stimuli_distractor_diamondtriangles.svg	stimuli_target_diamondsquares.svg	32	yes	57	0	836	0	0			0	0			1				0	
6.6.1	win	2023-06-27	18:32:26	18:40:43	488329	5efb4cfd797e7108c3823ae5	3	1	main_z	11	main_z	53	stimuli_distractor_trianglediamonds.svg	stimuli_distractor_diamondtriangles.svg	35	no	44	0	213	0	0			0	0			1				0	
6.6.1	win	2023-06-27	18:32:26	18:40:43	488329	5efb4cfd797e7108c3823ae5	3	1	main_z	11	advance_on_keypress_ZEE	54	stimuli_distractor_trianglediamonds.svg	stimuli_distractor_diamondtriangles.svg	35	no	57	0	1321	0	0			0	0			1				0	
6.6.1	win	2023-06-27	18:32:26	18:40:46	490798	5efb4cfd797e7108c3823ae5	3	1	main_z	11	main_z	55	stimuli_target_rectangletriangles.svg	stimuli_distractor_trianglediamonds.svg	1	yes	44	1	505	0	0			0	0			1				0	
6.6.1	win	2023-06-27	18:32:26	18:40:46	490798	5efb4cfd797e7108c3823ae5	3	1	main_z	11	advance_on_keypress_ZEE	56	stimuli_target_rectangletriangles.svg	stimuli_distractor_trianglediamonds.svg	1	yes	57	0	459	0	0			0	0			1				0	
6.6.1	win	2023-06-27	18:32:26	18:40:47	492159	5efb4cfd797e7108c3823ae5	3	1	main_z	11	main_z	57	stimuli_target_rectanglediamonds.svg	stimuli_distractor_trianglediamonds.svg	2	yes	44	1	260	0	0			0	0			1				0	
6.6.1	win	2023-06-27	18:32:26	18:40:47	492159	5efb4cfd797e7108c3823ae5	3	1	main_z	11	advance_on_keypress_ZEE	58	stimuli_target_rectanglediamonds.svg	stimuli_distractor_trianglediamonds.svg	2	yes	57	0	506	0	0			0	0			1				0	
6.6.1	win	2023-06-27	18:32:26	18:40:48	493478	5efb4cfd797e7108c3823ae5	3	1	main_z	11	main_z	59	stimuli_distractor_trianglediamonds.svg	stimuli_distractor_diamondtriangles.svg	36	no	44	0	179	0	0			0	0			1				0	
6.6.1	win	2023-06-27	18:32:26	18:40:48	493478	5efb4cfd797e7108c3823ae5	3	1	main_z	11	advance_on_keypress_ZEE	60	stimuli_distractor_trianglediamonds.svg	stimuli_distractor_diamondtriangles.svg	36	no	57	0	1302	0	0			0	0			1				0	
6.6.1	win	2023-06-27	18:32:26	18:40:50	495627	5efb4cfd797e7108c3823ae5	3	1	main_z	11	main_z	61	stimuli_distractor_trianglediamonds.svg	stimuli_target_rectanglediamonds.svg	10	yes	44	1	213	0	0			0	0			1				0	
6.6.1	win	2023-06-27	18:32:26	18:40:50	495627	5efb4cfd797e7108c3823ae5	3	1	main_z	11	advance_on_keypress_ZEE	62	stimuli_distractor_trianglediamonds.svg	stimuli_target_rectanglediamonds.svg	10	yes	57	0	568	0	0			0	0			1				0	
6.6.1	win	2023-06-27	18:32:26	18:40:52	497165	5efb4cfd797e7108c3823ae5	3	1	main_z	11	main_z	63	stimuli_target_trianglerectangles.svg	stimuli_distractor_trianglediamonds.svg	17	yes	44	1	334	0	0			0	0			1				0	
6.6.1	win	2023-06-27	18:32:26	18:40:52	497165	5efb4cfd797e7108c3823ae5	3	1	main_z	11	advance_on_keypress_ZEE	64	stimuli_target_trianglerectangles.svg	stimuli_distractor_trianglediamonds.svg	17	yes	57	0	3	0	0			0	0			1				0	
6.6.1	win	2023-06-27	18:32:26	18:40:55	499832	5efb4cfd797e7108c3823ae5	3	1	main_z	11	main_z	65	stimuli_distractor_trianglediamonds.svg	stimuli_target_diamondrectangles.svg	27	yes	0	0	2000	0	0			0	0			1				0	
6.6.1	win	2023-06-27	18:32:26	18:40:55	499832	5efb4cfd797e7108c3823ae5	3	1	main_z	11	advance_on_keypress_ZEE	66	stimuli_distractor_trianglediamonds.svg	stimuli_target_diamondrectangles.svg	27	yes	57	0	514	0	0			0	0			1				0	
6.6.1	win	2023-06-27	18:32:26	18:40:56	501172	5efb4cfd797e7108c3823ae5	3	1	main_z	11	main_z	67	stimuli_target_rectanglediamonds.svg	stimuli_distractor_diamondtriangles.svg	6	yes	44	1	173	0	0			0	0			1				0	
6.6.1	win	2023-06-27	18:32:26	18:40:56	501172	5efb4cfd797e7108c3823ae5	3	1	main_z	11	advance_on_keypress_ZEE	68	stimuli_target_rectanglediamonds.svg	stimuli_distractor_diamondtriangles.svg	6	yes	57	0	564	0	0			0	0			1				0	
6.6.1	win	2023-06-27	18:32:26	18:40:58	503231	5efb4cfd797e7108c3823ae5	3	1	main_z	11	main_z	69	stimuli_distractor_diamondtriangles.svg	stimuli_target_diamondrectangles.svg	31	yes	44	1	867	0	0			0	0			1				0	
6.6.1	win	2023-06-27	18:32:26	18:40:58	503231	5efb4cfd797e7108c3823ae5	3	1	main_z	11	advance_on_keypress_ZEE	70	stimuli_distractor_diamondtriangles.svg	stimuli_target_diamondrectangles.svg	31	yes	57	0	924	0	0			0	0			1				0	
6.6.1	win	2023-06-27	18:32:26	18:41:00	505012	5efb4cfd797e7108c3823ae5	3	1	main_z	11	main_z	71	stimuli_distractor_trianglediamonds.svg	stimuli_target_trianglesquares.svg	26	yes	44	1	213	0	0			0	0			1				0	
6.6.1	win	2023-06-27	18:32:26	18:41:00	505012	5efb4cfd797e7108c3823ae5	3	1	main_z	11	advance_on_keypress_ZEE	72	stimuli_distractor_trianglediamonds.svg	stimuli_target_trianglesquares.svg	26	yes	57	0	921	0	0			0	0			1				0	
6.6.1	win	2023-06-27	18:32:26	18:41:02	506765	5efb4cfd797e7108c3823ae5	3	1	main_z	11	main_z	73	stimuli_distractor_diamondtriangles.svg	stimuli_target_trianglerectangles.svg	29	yes	44	1	200	0	0			0	0			1				0	
6.6.1	win	2023-06-27	18:32:26	18:41:02	506765	5efb4cfd797e7108c3823ae5	3	1	main_z	11	advance_on_keypress_ZEE	74	stimuli_distractor_diamondtriangles.svg	stimuli_target_trianglerectangles.svg	29	yes	57	0	758	0	0			0	0			1				0	
6.6.1	win	2023-06-27	18:32:26	18:41:04	508751	5efb4cfd797e7108c3823ae5	3	1	main_z	11	main_z	75	stimuli_target_squaretriangles.svg	stimuli_distractor_trianglediamonds.svg	3	yes	44	1	586	0	0			0	0			1				0	
6.6.1	win	2023-06-27	18:32:26	18:41:04	508751	5efb4cfd797e7108c3823ae5	3	1	main_z	11	advance_on_keypress_ZEE	76	stimuli_target_squaretriangles.svg	stimuli_distractor_trianglediamonds.svg	3	yes	57	0	1771	0	0			0	0			1				0	
6.6.1	win	2023-06-27	18:32:26	18:41:06	511342	5efb4cfd797e7108c3823ae5	3	1	main_z	11	main_z	77	stimuli_distractor_diamondtriangles.svg	stimuli_distractor_diamondtriangles.svg	39	no	44	0	177	0	0			0	0			1				0	
6.6.1	win	2023-06-27	18:32:26	18:41:06	511342	5efb4cfd797e7108c3823ae5	3	1	main_z	11	advance_on_keypress_ZEE	78	stimuli_distractor_diamondtriangles.svg	stimuli_distractor_diamondtriangles.svg	39	no	57	0	1089	0	0			0	0			1				0	
6.6.1	win	2023-06-27	18:32:26	18:41:08	513291	5efb4cfd797e7108c3823ae5	3	1	main_z	11	main_z	79	stimuli_distractor_diamondtriangles.svg	stimuli_target_trianglesquares.svg	30	yes	44	1	226	0	0			0	0			1				0	
6.6.1	win	2023-06-27	18:32:26	18:41:08	513291	5efb4cfd797e7108c3823ae5	3	1	main_z	11	advance_on_keypress_ZEE	80	stimuli_distractor_diamondtriangles.svg	stimuli_target_trianglesquares.svg	30	yes	57	0	488	0	0			0	0			1				0	
6.6.1	win	2023-06-27	18:32:26	18:41:09	514602	5efb4cfd797e7108c3823ae5	3	1	main_z	11	main_z	81	stimuli_distractor_diamondtriangles.svg	stimuli_target_diamondsquares.svg	32	yes	44	1	187	0	0			0	0			1				0	
6.6.1	win	2023-06-27	18:32:26	18:41:09	514602	5efb4cfd797e7108c3823ae5	3	1	main_z	11	advance_on_keypress_ZEE	82	stimuli_distractor_diamondtriangles.svg	stimuli_target_diamondsquares.svg	32	yes	57	0	612	0	0			0	0			1				0	
6.6.1	win	2023-06-27	18:32:26	18:41:11	516065	5efb4cfd797e7108c3823ae5	3	1	main_z	11	main_z	83	stimuli_distractor_trianglediamonds.svg	stimuli_distractor_diamondtriangles.svg	36	no	44	0	218	0	0			0	0			1				0	
6.6.1	win	2023-06-27	18:32:26	18:41:11	516065	5efb4cfd797e7108c3823ae5	3	1	main_z	11	advance_on_keypress_ZEE	84	stimuli_distractor_trianglediamonds.svg	stimuli_distractor_diamondtriangles.svg	36	no	57	0	1051	0	0			0	0			1				0	
6.6.1	win	2023-06-27	18:32:26	18:41:13	518281	5efb4cfd797e7108c3823ae5	3	1	main_z	11	main_z	85	stimuli_distractor_diamondtriangles.svg	stimuli_target_squarediamonds.svg	16	yes	44	1	500	0	0			0	0			1				0	
6.6.1	win	2023-06-27	18:32:26	18:41:13	518281	5efb4cfd797e7108c3823ae5	3	1	main_z	11	advance_on_keypress_ZEE	86	stimuli_distractor_diamondtriangles.svg	stimuli_target_squarediamonds.svg	16	yes	57	0	849	0	0			0	0			1				0	
6.6.1	win	2023-06-27	18:32:26	18:41:15	520031	5efb4cfd797e7108c3823ae5	3	1	main_z	11	main_z	87	stimuli_distractor_trianglediamonds.svg	stimuli_target_squarediamonds.svg	12	yes	44	1	249	0	0			0	0			1				0	
6.6.1	win	2023-06-27	18:32:26	18:41:15	520031	5efb4cfd797e7108c3823ae5	3	1	main_z	11	advance_on_keypress_ZEE	88	stimuli_distractor_trianglediamonds.svg	stimuli_target_squarediamonds.svg	12	yes	57	0	809	0	0			0	0			1				0	
6.6.1	win	2023-06-27	18:32:26	18:41:16	521673	5efb4cfd797e7108c3823ae5	3	1	main_z	11	main_z	89	stimuli_distractor_trianglediamonds.svg	stimuli_target_rectanglediamonds.svg	10	yes	44	1	191	0	0			0	0			1				0	
6.6.1	win	2023-06-27	18:32:26	18:41:16	521673	5efb4cfd797e7108c3823ae5	3	1	main_z	11	advance_on_keypress_ZEE	90	stimuli_distractor_trianglediamonds.svg	stimuli_target_rectanglediamonds.svg	10	yes	57	0	850	0	0			0	0			1				0	
6.6.1	win	2023-06-27	18:32:26	18:41:18	523681	5efb4cfd797e7108c3823ae5	3	1	main_z	11	main_z	91	stimuli_distractor_diamondtriangles.svg	stimuli_target_trianglesquares.svg	30	yes	44	1	512	0	0			0	0			1				0	
6.6.1	win	2023-06-27	18:32:26	18:41:18	523681	5efb4cfd797e7108c3823ae5	3	1	main_z	11	advance_on_keypress_ZEE	92	stimuli_distractor_diamondtriangles.svg	stimuli_target_trianglesquares.svg	30	yes	57	0	949	0	0			0	0			1				0	
6.6.1	win	2023-06-27	18:32:26	18:41:20	525285	5efb4cfd797e7108c3823ae5	3	1	main_z	11	main_z	93	stimuli_target_diamondsquares.svg	stimuli_distractor_diamondtriangles.svg	24	yes	44	1	3	0	0			0	0			1				0	
6.6.1	win	2023-06-27	18:32:26	18:41:20	525285	5efb4cfd797e7108c3823ae5	3	1	main_z	11	advance_on_keypress_ZEE	94	stimuli_target_diamondsquares.svg	stimuli_distractor_diamondtriangles.svg	24	yes	57	0	827	0	0			0	0			1				0	
6.6.1	win	2023-06-27	18:32:26	18:41:22	526931	5efb4cfd797e7108c3823ae5	3	1	main_z	11	main_z	95	stimuli_distractor_trianglediamonds.svg	stimuli_target_squaretriangles.svg	11	yes	44	1	183	0	0			0	0			1				0	
6.6.1	win	2023-06-27	18:32:26	18:41:22	526931	5efb4cfd797e7108c3823ae5	3	1	main_z	11	advance_on_keypress_ZEE	96	stimuli_distractor_trianglediamonds.svg	stimuli_target_squaretriangles.svg	11	yes	57	0	902	0	0			0	0			1				0	
6.6.1	win	2023-06-27	18:32:26	18:41:23	528687	5efb4cfd797e7108c3823ae5	3	1	main_z	11	main_z	97	stimuli_distractor_diamondtriangles.svg	stimuli_target_rectanglediamonds.svg	14	yes	44	1	206	0	0			0	0			1				0	
6.6.1	win	2023-06-27	18:32:26	18:41:23	528687	5efb4cfd797e7108c3823ae5	3	1	main_z	11	advance_on_keypress_ZEE	98	stimuli_distractor_diamondtriangles.svg	stimuli_target_rectanglediamonds.svg	14	yes	57	0	709	0	0			0	0			1				0	
6.6.1	win	2023-06-27	18:32:26	18:41:25	530270	5efb4cfd797e7108c3823ae5	3	1	main_z	11	main_z	99	stimuli_target_trianglesquares.svg	stimuli_distractor_trianglediamonds.svg	18	yes	44	1	239	0	0			0	0			1				0	
6.6.1	win	2023-06-27	18:32:26	18:41:25	530270	5efb4cfd797e7108c3823ae5	3	1	main_z	11	advance_on_keypress_ZEE	100	stimuli_target_trianglesquares.svg	stimuli_distractor_trianglediamonds.svg	18	yes	57	0	797	0	0			0	0			1				0	
6.6.1	win	2023-06-27	18:32:26	18:41:27	531993	5efb4cfd797e7108c3823ae5	3	1	main_z	11	main_z	101	stimuli_distractor_trianglediamonds.svg	stimuli_distractor_diamondtriangles.svg	35	no	44	0	263	0	0			0	0			1				0	
6.6.1	win	2023-06-27	18:32:26	18:41:27	531993	5efb4cfd797e7108c3823ae5	3	1	main_z	11	advance_on_keypress_ZEE	102	stimuli_distractor_trianglediamonds.svg	stimuli_distractor_diamondtriangles.svg	35	no	57	0	1222	0	0			0	0			1				0	
6.6.1	win	2023-06-27	18:32:26	18:41:29	534111	5efb4cfd797e7108c3823ae5	3	1	main_z	11	main_z	103	stimuli_distractor_diamondtriangles.svg	stimuli_distractor_diamondtriangles.svg	39	no	44	0	263	0	0			0	0			1				0	
6.6.1	win	2023-06-27	18:32:26	18:41:29	534111	5efb4cfd797e7108c3823ae5	3	1	main_z	11	advance_on_keypress_ZEE	104	stimuli_distractor_diamondtriangles.svg	stimuli_distractor_diamondtriangles.svg	39	no	57	0	1052	0	0			0	0			1				0	
6.6.1	win	2023-06-27	18:32:26	18:41:31	536085	5efb4cfd797e7108c3823ae5	3	1	main_z	11	main_z	105	stimuli_distractor_diamondtriangles.svg	stimuli_distractor_diamondtriangles.svg	40	no	44	0	288	0	0			0	0			1				0	
6.6.1	win	2023-06-27	18:32:26	18:41:31	536085	5efb4cfd797e7108c3823ae5	3	1	main_z	11	advance_on_keypress_ZEE	106	stimuli_distractor_diamondtriangles.svg	stimuli_distractor_diamondtriangles.svg	40	no	57	0	528	0	0			0	0			1				0	
6.6.1	win	2023-06-27	18:32:26	18:41:32	537554	5efb4cfd797e7108c3823ae5	3	1	main_z	11	main_z	107	stimuli_target_diamondsquares.svg	stimuli_distractor_trianglediamonds.svg	20	yes	44	1	307	0	0			0	0			1				0	
6.6.1	win	2023-06-27	18:32:26	18:41:32	537554	5efb4cfd797e7108c3823ae5	3	1	main_z	11	advance_on_keypress_ZEE	108	stimuli_target_diamondsquares.svg	stimuli_distractor_trianglediamonds.svg	20	yes	57	0	312	0	0			0	0			1				0	
6.6.1	win	2023-06-27	18:32:26	18:41:33	538719	5efb4cfd797e7108c3823ae5	3	1	main_z	11	main_z	109	stimuli_target_rectanglediamonds.svg	stimuli_distractor_trianglediamonds.svg	2	yes	44	1	222	0	0			0	0			1				0	
6.6.1	win	2023-06-27	18:32:26	18:41:33	538719	5efb4cfd797e7108c3823ae5	3	1	main_z	11	advance_on_keypress_ZEE	110	stimuli_target_rectanglediamonds.svg	stimuli_distractor_trianglediamonds.svg	2	yes	57	0	319	0	0			0	0			1				0	
6.6.1	win	2023-06-27	18:32:26	18:41:35	539977	5efb4cfd797e7108c3823ae5	3	1	main_z	11	main_z	111	stimuli_distractor_diamondtriangles.svg	stimuli_target_squaretriangles.svg	15	yes	44	1	296	0	0			0	0			1				0	
6.6.1	win	2023-06-27	18:32:26	18:41:35	539977	5efb4cfd797e7108c3823ae5	3	1	main_z	11	advance_on_keypress_ZEE	112	stimuli_distractor_diamondtriangles.svg	stimuli_target_squaretriangles.svg	15	yes	57	0	705	0	0			0	0			1				0	
6.6.1	win	2023-06-27	18:32:26	18:41:36	541585	5efb4cfd797e7108c3823ae5	3	1	main_z	11	main_z	113	stimuli_distractor_diamondtriangles.svg	stimuli_distractor_trianglediamonds.svg	38	no	44	0	272	0	0			0	0			1				0	
6.6.1	win	2023-06-27	18:32:26	18:41:36	541585	5efb4cfd797e7108c3823ae5	3	1	main_z	11	advance_on_keypress_ZEE	114	stimuli_distractor_diamondtriangles.svg	stimuli_distractor_trianglediamonds.svg	38	no	57	0	1295	0	0			0	0			1				0	
6.6.1	win	2023-06-27	18:32:26	18:41:39	543811	5efb4cfd797e7108c3823ae5	3	1	main_z	11	main_z	115	stimuli_target_rectangletriangles.svg	stimuli_distractor_diamondtriangles.svg	5	yes	44	1	297	0	0			0	0			1				0	
6.6.1	win	2023-06-27	18:32:26	18:41:39	543811	5efb4cfd797e7108c3823ae5	3	1	main_z	11	advance_on_keypress_ZEE	116	stimuli_target_rectangletriangles.svg	stimuli_distractor_diamondtriangles.svg	5	yes	57	0	528	0	0			0	0			1				0	
6.6.1	win	2023-06-27	18:32:26	18:41:42	546964	5efb4cfd797e7108c3823ae5	3	1	main_z	11	main_z	117	stimuli_distractor_diamondtriangles.svg	stimuli_distractor_trianglediamonds.svg	37	no	0	1	2000	0	0			0	0			1				0	
6.6.1	win	2023-06-27	18:32:26	18:41:42	546964	5efb4cfd797e7108c3823ae5	3	1	main_z	11	advance_on_keypress_ZEE	118	stimuli_distractor_diamondtriangles.svg	stimuli_distractor_trianglediamonds.svg	37	no	57	0	557	0	0			0	0			1				0	
6.6.1	win	2023-06-27	18:32:26	18:41:43	548423	5efb4cfd797e7108c3823ae5	3	1	main_z	11	main_z	119	stimuli_distractor_diamondtriangles.svg	stimuli_target_diamondrectangles.svg	31	yes	44	1	259	0	0			0	0			1				0	
6.6.1	win	2023-06-27	18:32:26	18:41:43	548423	5efb4cfd797e7108c3823ae5	3	1	main_z	11	advance_on_keypress_ZEE	120	stimuli_distractor_diamondtriangles.svg	stimuli_target_diamondrectangles.svg	31	yes	57	0	580	0	0			0	0			1				0	
6.6.1	win	2023-06-27	18:32:26	18:41:45	549981	5efb4cfd797e7108c3823ae5	3	1	main_z	11	main_z	121	stimuli_target_trianglerectangles.svg	stimuli_distractor_trianglediamonds.svg	17	yes	44	1	350	0	0			0	0			1				0	
6.6.1	win	2023-06-27	18:32:26	18:41:45	549981	5efb4cfd797e7108c3823ae5	3	1	main_z	11	advance_on_keypress_ZEE	122	stimuli_target_trianglerectangles.svg	stimuli_distractor_trianglediamonds.svg	17	yes	57	0	674	0	0			0	0			1				0	
6.6.1	win	2023-06-27	18:32:26	18:41:46	551619	5efb4cfd797e7108c3823ae5	3	1	main_z	11	main_z	123	stimuli_target_trianglesquares.svg	stimuli_distractor_diamondtriangles.svg	22	yes	44	1	323	0	0			0	0			1				0	
6.6.1	win	2023-06-27	18:32:26	18:41:46	551619	5efb4cfd797e7108c3823ae5	3	1	main_z	11	advance_on_keypress_ZEE	124	stimuli_target_trianglesquares.svg	stimuli_distractor_diamondtriangles.svg	22	yes	57	0	746	0	0			0	0			1				0	
6.6.1	win	2023-06-27	18:32:26	18:41:48	553513	5efb4cfd797e7108c3823ae5	3	1	main_z	11	main_z	125	stimuli_distractor_trianglediamonds.svg	stimuli_target_diamondsquares.svg	28	yes	44	1	507	0	0			0	0			1				0	
6.6.1	win	2023-06-27	18:32:26	18:41:48	553513	5efb4cfd797e7108c3823ae5	3	1	main_z	11	advance_on_keypress_ZEE	126	stimuli_distractor_trianglediamonds.svg	stimuli_target_diamondsquares.svg	28	yes	57	0	1032	0	0			0	0			1				0	
6.6.1	win	2023-06-27	18:32:26	18:41:50	555365	5efb4cfd797e7108c3823ae5	3	1	main_z	11	main_z	127	stimuli_target_diamondrectangles.svg	stimuli_distractor_trianglediamonds.svg	19	yes	44	1	169	0	0			0	0			1				0	
6.6.1	win	2023-06-27	18:32:26	18:41:50	555365	5efb4cfd797e7108c3823ae5	3	1	main_z	11	advance_on_keypress_ZEE	128	stimuli_target_diamondrectangles.svg	stimuli_distractor_trianglediamonds.svg	19	yes	57	0	471	0	0			0	0			1				0	
6.6.1	win	2023-06-27	18:32:26	18:41:52	556747	5efb4cfd797e7108c3823ae5	3	1	main_z	11	main_z	129	stimuli_distractor_trianglediamonds.svg	stimuli_distractor_trianglediamonds.svg	34	no	44	0	266	0	0			0	0			1				0	
6.6.1	win	2023-06-27	18:32:26	18:41:52	556747	5efb4cfd797e7108c3823ae5	3	1	main_z	11	advance_on_keypress_ZEE	130	stimuli_distractor_trianglediamonds.svg	stimuli_distractor_trianglediamonds.svg	34	no	57	0	864	0	0			0	0			1				0	
6.6.1	win	2023-06-27	18:32:26	18:41:53	558531	5efb4cfd797e7108c3823ae5	3	1	main_z	11	main_z	131	stimuli_distractor_trianglediamonds.svg	stimuli_target_diamondrectangles.svg	27	yes	44	1	267	0	0			0	0			1				0	
6.6.1	win	2023-06-27	18:32:26	18:41:53	558531	5efb4cfd797e7108c3823ae5	3	1	main_z	11	advance_on_keypress_ZEE	132	stimuli_distractor_trianglediamonds.svg	stimuli_target_diamondrectangles.svg	27	yes	57	0	615	0	0			0	0			1				0	
6.6.1	win	2023-06-27	18:32:26	18:41:55	560435	5efb4cfd797e7108c3823ae5	3	1	main_z	11	main_z	133	stimuli_distractor_trianglediamonds.svg	stimuli_target_trianglesquares.svg	26	yes	44	1	638	0	0			0	0			1				0	
6.6.1	win	2023-06-27	18:32:26	18:41:55	560435	5efb4cfd797e7108c3823ae5	3	1	main_z	11	advance_on_keypress_ZEE	134	stimuli_distractor_trianglediamonds.svg	stimuli_target_trianglesquares.svg	26	yes	57	0	788	0	0			0	0			1				0	
6.6.1	win	2023-06-27	18:32:26	18:41:59	563864	5efb4cfd797e7108c3823ae5	3	1	main_z	11	main_z	135	stimuli_distractor_trianglediamonds.svg	stimuli_distractor_trianglediamonds.svg	33	no	0	1	2000	0	0			0	0			1				0	
6.6.1	win	2023-06-27	18:32:26	18:41:59	563864	5efb4cfd797e7108c3823ae5	3	1	main_z	11	advance_on_keypress_ZEE	136	stimuli_distractor_trianglediamonds.svg	stimuli_distractor_trianglediamonds.svg	33	no	57	0	353	0	0			0	0			1				0	
6.6.1	win	2023-06-27	18:32:26	18:42:00	565179	5efb4cfd797e7108c3823ae5	3	1	main_z	11	main_z	137	stimuli_target_diamondrectangles.svg	stimuli_distractor_diamondtriangles.svg	23	yes	44	1	316	0	0			0	0			1				0	
6.6.1	win	2023-06-27	18:32:26	18:42:00	565179	5efb4cfd797e7108c3823ae5	3	1	main_z	11	advance_on_keypress_ZEE	138	stimuli_target_diamondrectangles.svg	stimuli_distractor_diamondtriangles.svg	23	yes	57	0	517	0	0			0	0			1				0	
6.6.1	win	2023-06-27	18:32:26	18:42:01	566665	5efb4cfd797e7108c3823ae5	3	1	main_z	11	main_z	139	stimuli_target_squarediamonds.svg	stimuli_distractor_diamondtriangles.svg	8	yes	44	1	302	0	0			0	0			1				0	
6.6.1	win	2023-06-27	18:32:26	18:42:01	566665	5efb4cfd797e7108c3823ae5	3	1	main_z	11	advance_on_keypress_ZEE	140	stimuli_target_squarediamonds.svg	stimuli_distractor_diamondtriangles.svg	8	yes	57	0	580	0	0			0	0			1				0	
6.6.1	win	2023-06-27	18:32:26	18:42:03	568192	5efb4cfd797e7108c3823ae5	3	1	main_z	11	main_z	141	stimuli_target_squarediamonds.svg	stimuli_distractor_trianglediamonds.svg	4	yes	44	1	312	0	0			0	0			1				0	
6.6.1	win	2023-06-27	18:32:26	18:42:03	568192	5efb4cfd797e7108c3823ae5	3	1	main_z	11	advance_on_keypress_ZEE	142	stimuli_target_squarediamonds.svg	stimuli_distractor_trianglediamonds.svg	4	yes	57	0	796	0	0			0	0			1				0	
6.6.1	win	2023-06-27	18:32:26	18:42:05	570129	5efb4cfd797e7108c3823ae5	3	1	main_z	11	main_z	143	stimuli_distractor_diamondtriangles.svg	stimuli_target_rectangletriangles.svg	13	yes	44	1	504	0	0			0	0			1				0	
6.6.1	win	2023-06-27	18:32:26	18:42:05	570129	5efb4cfd797e7108c3823ae5	3	1	main_z	11	advance_on_keypress_ZEE	144	stimuli_distractor_diamondtriangles.svg	stimuli_target_rectangletriangles.svg	13	yes	57	0	542	0	0			0	0			1				0	
6.6.1	win	2023-06-27	18:32:26	18:42:07	571865	5efb4cfd797e7108c3823ae5	3	1	main_z	11	main_z	145	stimuli_distractor_trianglediamonds.svg	stimuli_target_rectangletriangles.svg	9	yes	44	1	552	0	0			0	0			1				0	
6.6.1	win	2023-06-27	18:32:26	18:42:07	571865	5efb4cfd797e7108c3823ae5	3	1	main_z	11	advance_on_keypress_ZEE	146	stimuli_distractor_trianglediamonds.svg	stimuli_target_rectangletriangles.svg	9	yes	57	0	785	0	0			0	0			1				0	
6.6.1	win	2023-06-27	18:32:26	18:42:08	573376	5efb4cfd797e7108c3823ae5	3	1	main_z	11	main_z	147	stimuli_target_trianglerectangles.svg	stimuli_distractor_diamondtriangles.svg	21	yes	44	1	79	0	0			0	0			1				0	
6.6.1	win	2023-06-27	18:32:26	18:42:08	573376	5efb4cfd797e7108c3823ae5	3	1	main_z	11	advance_on_keypress_ZEE	148	stimuli_target_trianglerectangles.svg	stimuli_distractor_diamondtriangles.svg	21	yes	57	0	746	0	0			0	0			1				0	
6.6.1	win	2023-06-27	18:32:26	18:42:10	575005	5efb4cfd797e7108c3823ae5	3	1	main_z	11	main_z	149	stimuli_target_squaretriangles.svg	stimuli_distractor_diamondtriangles.svg	7	yes	44	1	259	0	0			0	0			1				0	
6.6.1	win	2023-06-27	18:32:26	18:42:10	575005	5efb4cfd797e7108c3823ae5	3	1	main_z	11	advance_on_keypress_ZEE	150	stimuli_target_squaretriangles.svg	stimuli_distractor_diamondtriangles.svg	7	yes	57	0	888	0	0			0	0			1				0	
6.6.1	win	2023-06-27	18:32:26	18:42:12	576766	5efb4cfd797e7108c3823ae5	3	1	main_z	11	main_z	151	stimuli_target_rectanglediamonds.svg	stimuli_distractor_diamondtriangles.svg	6	yes	44	1	236	0	0			0	0			1				0	
6.6.1	win	2023-06-27	18:32:26	18:42:12	576766	5efb4cfd797e7108c3823ae5	3	1	main_z	11	advance_on_keypress_ZEE	152	stimuli_target_rectanglediamonds.svg	stimuli_distractor_diamondtriangles.svg	6	yes	57	0	822	0	0			0	0			1				0	
6.6.1	win	2023-06-27	18:32:26	18:42:13	578463	5efb4cfd797e7108c3823ae5	3	1	main_z	11	main_z	153	stimuli_target_rectangletriangles.svg	stimuli_distractor_trianglediamonds.svg	1	yes	44	1	233	0	0			0	0			1				0	
6.6.1	win	2023-06-27	18:32:26	18:42:13	578463	5efb4cfd797e7108c3823ae5	3	1	main_z	11	advance_on_keypress_ZEE	154	stimuli_target_rectangletriangles.svg	stimuli_distractor_trianglediamonds.svg	1	yes	57	0	816	0	0			0	0			1				0	
6.6.1	win	2023-06-27	18:32:26	18:42:15	580561	5efb4cfd797e7108c3823ae5	3	1	main_z	11	main_z	155	stimuli_distractor_trianglediamonds.svg	stimuli_target_trianglerectangles.svg	25	yes	44	1	631	0	0			0	0			1				0	
6.6.1	win	2023-06-27	18:32:26	18:42:15	580561	5efb4cfd797e7108c3823ae5	3	1	main_z	11	advance_on_keypress_ZEE	156	stimuli_distractor_trianglediamonds.svg	stimuli_target_trianglerectangles.svg	25	yes	57	0	794	0	0			0	0			1				0	
6.6.1	win	2023-06-27	18:32:26	18:42:17	582215	5efb4cfd797e7108c3823ae5	3	1	main_z	11	main_z	157	stimuli_distractor_diamondtriangles.svg	stimuli_target_trianglerectangles.svg	29	yes	44	1	218	0	0			0	0			1				0	
6.6.1	win	2023-06-27	18:32:26	18:42:17	582215	5efb4cfd797e7108c3823ae5	3	1	main_z	11	advance_on_keypress_ZEE	158	stimuli_distractor_diamondtriangles.svg	stimuli_target_trianglerectangles.svg	29	yes	57	0	728	0	0			0	0			1				0	
6.6.1	win	2023-06-27	18:32:26	18:42:19	583869	5efb4cfd797e7108c3823ae5	3	1	main_z	11	main_z	159	stimuli_target_squaretriangles.svg	stimuli_distractor_trianglediamonds.svg	3	yes	44	1	289	0	0			0	0			1				0	
6.6.1	win	2023-06-27	18:32:26	18:42:19	583869	5efb4cfd797e7108c3823ae5	3	1	main_z	11	advance_on_keypress_ZEE	160	stimuli_target_squaretriangles.svg	stimuli_distractor_trianglediamonds.svg	3	yes	57	0	560	0	0			0	0			1				0	
6.6.1	win	2023-06-27	18:32:26	18:42:19	583869	5efb4cfd797e7108c3823ae5	3	1	headphonecheck_calibration	14	headphonecheck_calibrationIntro	1	stimuli_target_squaretriangles.svg	stimuli_distractor_trianglediamonds.svg	3	yes	calibrationButton	0	6491	0	0			0	0			1				0	
6.6.1	win	2023-06-27	18:32:26	18:42:19	583869	5efb4cfd797e7108c3823ae5	3	1	headphonecheck_testphase	15	test_collectResponse	3	stimuli_target_squaretriangles.svg	stimuli_distractor_trianglediamonds.svg	3	yes	first	0	7264	1	5	antiphase_hc_osi.wav	2	0	0			1				0	
6.6.1	win	2023-06-27	18:32:26	18:42:19	583869	5efb4cfd797e7108c3823ae5	3	1	headphonecheck_testphase	15	test_collectResponse	6	stimuli_target_squaretriangles.svg	stimuli_distractor_trianglediamonds.svg	3	yes	second	0	2062	2	3	antiphase_hc_soi.wav	1	0	0			1				0	
6.6.1	win	2023-06-27	18:32:26	18:42:19	583869	5efb4cfd797e7108c3823ae5	3	1	headphonecheck_testphase	15	test_collectResponse	9	stimuli_target_squaretriangles.svg	stimuli_distractor_trianglediamonds.svg	3	yes	first	0	955	3	6	antiphase_hc_ois.wav	3	0	0			1				0	
6.6.1	win	2023-06-27	18:32:26	18:42:19	583869	5efb4cfd797e7108c3823ae5	3	1	headphonecheck_testphase	15	test_collectResponse	12	stimuli_target_squaretriangles.svg	stimuli_distractor_trianglediamonds.svg	3	yes	third	0	669	4	4	antiphase_hc_sio.wav	1	0	0			1				0	
6.6.1	win	2023-06-27	18:32:26	18:42:19	583869	5efb4cfd797e7108c3823ae5	3	1	headphonecheck_testphase	15	test_collectResponse	15	stimuli_target_squaretriangles.svg	stimuli_distractor_trianglediamonds.svg	3	yes	third	0	596	5	1	antiphase_hc_iso.wav	2	0	0			1				0	
6.6.1	win	2023-06-27	18:32:26	18:42:19	583869	5efb4cfd797e7108c3823ae5	3	1	headphonecheck_testphase	15	test_collectResponse	18	stimuli_target_squaretriangles.svg	stimuli_distractor_trianglediamonds.svg	3	yes	second	0	605	6	2	antiphase_hc_ios.wav	3	0	0			1				0	
6.6.1	win	2023-06-27	18:32:26	18:42:19	583869	5efb4cfd797e7108c3823ae5	3	1	stereocheck_calibration	17	stereocheck_calibrationIntro	1	stimuli_target_squaretriangles.svg	stimuli_distractor_trianglediamonds.svg	3	yes	stereocheck_calibrationButton	0	5402	6	2	antiphase_hc_ios.wav	3	0	0			1				0	
6.6.1	win	2023-06-27	18:32:26	18:42:19	583869	5efb4cfd797e7108c3823ae5	3	1	stereocheck_testphase	18	stereocheck_test_collectResponse	3	stimuli_target_squaretriangles.svg	stimuli_distractor_trianglediamonds.svg	3	yes	stereocheck_right	1	799	6	2	antiphase_hc_ios.wav	3	1	6	noise_calib_stim_RIGHT.wav	2	1				0	
6.6.1	win	2023-06-27	18:32:26	18:42:19	583869	5efb4cfd797e7108c3823ae5	3	1	stereocheck_testphase	18	stereocheck_test_collectResponse	6	stimuli_target_squaretriangles.svg	stimuli_distractor_trianglediamonds.svg	3	yes	stereocheck_left	1	415	6	2	antiphase_hc_ios.wav	3	2	3	noise_calib_stim_LEFT.wav	1	1				0	
6.6.1	win	2023-06-27	18:32:26	18:42:19	583869	5efb4cfd797e7108c3823ae5	3	1	stereocheck_testphase	18	stereocheck_test_collectResponse	9	stimuli_target_squaretriangles.svg	stimuli_distractor_trianglediamonds.svg	3	yes	stereocheck_left	1	384	6	2	antiphase_hc_ios.wav	3	3	1	noise_calib_stim_LEFT.wav	1	1				0	
6.6.1	win	2023-06-27	18:32:26	18:42:19	583869	5efb4cfd797e7108c3823ae5	3	1	stereocheck_testphase	18	stereocheck_test_collectResponse	12	stimuli_target_squaretriangles.svg	stimuli_distractor_trianglediamonds.svg	3	yes	stereocheck_right	1	398	6	2	antiphase_hc_ios.wav	3	4	5	noise_calib_stim_RIGHT.wav	2	1				0	
6.6.1	win	2023-06-27	18:32:26	18:42:19	583869	5efb4cfd797e7108c3823ae5	3	1	stereocheck_testphase	18	stereocheck_test_collectResponse	15	stimuli_target_squaretriangles.svg	stimuli_distractor_trianglediamonds.svg	3	yes	stereocheck_right	1	432	6	2	antiphase_hc_ios.wav	3	5	4	noise_calib_stim_RIGHT.wav	2	1				0	
6.6.1	win	2023-06-27	18:32:26	18:42:19	583869	5efb4cfd797e7108c3823ae5	3	1	stereocheck_testphase	18	stereocheck_test_collectResponse	18	stimuli_target_squaretriangles.svg	stimuli_distractor_trianglediamonds.svg	3	yes	stereocheck_left	1	306	6	2	antiphase_hc_ios.wav	3	6	2	noise_calib_stim_LEFT.wav	1	1				0	
6.6.1	win	2023-06-27	18:32:26	18:42:19	583869	5efb4cfd797e7108c3823ae5	3	1	DL_practice	21	DL_practice	2	stimuli_target_squaretriangles.svg	stimuli_distractor_trianglediamonds.svg	3	yes	ka	1	1435	6	2	antiphase_hc_ios.wav	3	6	2	noise_calib_stim_LEFT.wav	1	23	blb_dichoticlistening_ka-pa.mp3	ka	pa	1	left
6.6.1	win	2023-06-27	18:32:26	18:42:19	583869	5efb4cfd797e7108c3823ae5	3	1	DL_practice	21	DL_practice	3	stimuli_target_squaretriangles.svg	stimuli_distractor_trianglediamonds.svg	3	yes	ga	1	1043	6	2	antiphase_hc_ios.wav	3	6	2	noise_calib_stim_LEFT.wav	1	18	blb_dichoticlistening_ga-ta.mp3	ga	ta	1	left
6.6.1	win	2023-06-27	18:32:26	18:42:19	583869	5efb4cfd797e7108c3823ae5	3	1	DL_practice	21	DL_practice	4	stimuli_target_squaretriangles.svg	stimuli_distractor_trianglediamonds.svg	3	yes	pa	1	1114	6	2	antiphase_hc_ios.wav	3	6	2	noise_calib_stim_LEFT.wav	1	29	blb_dichoticlistening_pa-pa.mp3	pa	pa	0	left
6.6.1	win	2023-06-27	18:32:26	18:42:19	583869	5efb4cfd797e7108c3823ae5	3	1	DL_practice	21	DL_practice	5	stimuli_target_squaretriangles.svg	stimuli_distractor_trianglediamonds.svg	3	yes	ka	1	1072	6	2	antiphase_hc_ios.wav	3	6	2	noise_calib_stim_LEFT.wav	1	22	blb_dichoticlistening_ka-ka.mp3	ka	ka	0	left
6.6.1	win	2023-06-27	18:32:26	18:42:19	583869	5efb4cfd797e7108c3823ae5	3	1	DL_practice	21	DL_practice	6	stimuli_target_squaretriangles.svg	stimuli_distractor_trianglediamonds.svg	3	yes	ba	1	1262	6	2	antiphase_hc_ios.wav	3	6	2	noise_calib_stim_LEFT.wav	1	1	blb_dichoticlistening_ba-ba.mp3	ba	ba	0	left
6.6.1	win	2023-06-27	18:32:26	18:42:19	583869	5efb4cfd797e7108c3823ae5	3	1	DL_practice	21	DL_practice	7	stimuli_target_squaretriangles.svg	stimuli_distractor_trianglediamonds.svg	3	yes	da	1	780	6	2	antiphase_hc_ios.wav	3	6	2	noise_calib_stim_LEFT.wav	1	8	blb_dichoticlistening_da-da.mp3	da	da	0	left
6.6.1	win	2023-06-27	18:32:26	18:42:19	583869	5efb4cfd797e7108c3823ae5	3	1	DL_practice	21	DL_practice	8	stimuli_target_squaretriangles.svg	stimuli_distractor_trianglediamonds.svg	3	yes	da	1	2429	6	2	antiphase_hc_ios.wav	3	6	2	noise_calib_stim_LEFT.wav	1	7	blb_dichoticlistening_da-ba.mp3	da	ba	1	left
6.6.1	win	2023-06-27	18:32:26	18:42:19	583869	5efb4cfd797e7108c3823ae5	3	1	DL_practice	21	DL_practice	9	stimuli_target_squaretriangles.svg	stimuli_distractor_trianglediamonds.svg	3	yes	ta	1	1417	6	2	antiphase_hc_ios.wav	3	6	2	noise_calib_stim_LEFT.wav	1	36	blb_dichoticlistening_ta-ta.mp3	ta	ta	0	left
6.6.1	win	2023-06-27	18:32:26	18:42:19	583869	5efb4cfd797e7108c3823ae5	3	1	DL_practice	21	DL_practice	10	stimuli_target_squaretriangles.svg	stimuli_distractor_trianglediamonds.svg	3	yes	ga	1	832	6	2	antiphase_hc_ios.wav	3	6	2	noise_calib_stim_LEFT.wav	1	15	blb_dichoticlistening_ga-ga.mp3	ga	ga	0	left
6.6.1	win	2023-06-27	18:32:26	18:42:19	583869	5efb4cfd797e7108c3823ae5	3	1	DL_test	23	DL_test	1	stimuli_target_squaretriangles.svg	stimuli_distractor_trianglediamonds.svg	3	yes	pa	1	1664	6	2	antiphase_hc_ios.wav	3	6	2	noise_calib_stim_LEFT.wav	1	29	blb_dichoticlistening_pa-pa.mp3	pa	pa	0	left
6.6.1	win	2023-06-27	18:32:26	18:42:19	583869	5efb4cfd797e7108c3823ae5	3	1	DL_test	23	DL_test	2	stimuli_target_squaretriangles.svg	stimuli_distractor_trianglediamonds.svg	3	yes	pa	1	1127	6	2	antiphase_hc_ios.wav	3	6	2	noise_calib_stim_LEFT.wav	1	35	blb_dichoticlistening_ta-pa.mp3	ta	pa	1	right
6.6.1	win	2023-06-27	18:32:26	18:42:19	583869	5efb4cfd797e7108c3823ae5	3	1	DL_test	23	DL_test	3	stimuli_target_squaretriangles.svg	stimuli_distractor_trianglediamonds.svg	3	yes	ga	1	1152	6	2	antiphase_hc_ios.wav	3	6	2	noise_calib_stim_LEFT.wav	1	18	blb_dichoticlistening_ga-ta.mp3	ga	ta	1	left
6.6.1	win	2023-06-27	18:32:26	18:42:19	583869	5efb4cfd797e7108c3823ae5	3	1	DL_test	23	DL_test	4	stimuli_target_squaretriangles.svg	stimuli_distractor_trianglediamonds.svg	3	yes	ga	0	692	6	2	antiphase_hc_ios.wav	3	6	2	noise_calib_stim_LEFT.wav	1	11	blb_dichoticlistening_da-pa.mp3	da	pa	1	other
6.6.1	win	2023-06-27	18:32:26	18:42:19	583869	5efb4cfd797e7108c3823ae5	3	1	DL_test	23	DL_test	5	stimuli_target_squaretriangles.svg	stimuli_distractor_trianglediamonds.svg	3	yes	ka	1	894	6	2	antiphase_hc_ios.wav	3	6	2	noise_calib_stim_LEFT.wav	1	23	blb_dichoticlistening_ka-pa.mp3	ka	pa	1	left
6.6.1	win	2023-06-27	18:32:26	18:42:19	583869	5efb4cfd797e7108c3823ae5	3	1	DL_test	23	DL_test	6	stimuli_target_squaretriangles.svg	stimuli_distractor_trianglediamonds.svg	3	yes	ba	1	2749	6	2	antiphase_hc_ios.wav	3	6	2	noise_calib_stim_LEFT.wav	1	4	blb_dichoticlistening_ba-ka.mp3	ba	ka	1	left
6.6.1	win	2023-06-27	18:32:26	18:42:19	583869	5efb4cfd797e7108c3823ae5	3	1	DL_test	23	DL_test	7	stimuli_target_squaretriangles.svg	stimuli_distractor_trianglediamonds.svg	3	yes	ba	1	1531	6	2	antiphase_hc_ios.wav	3	6	2	noise_calib_stim_LEFT.wav	1	19	blb_dichoticlistening_ka-ba.mp3	ka	ba	1	right
6.6.1	win	2023-06-27	18:32:26	18:42:19	583869	5efb4cfd797e7108c3823ae5	3	1	DL_test	23	DL_test	8	stimuli_target_squaretriangles.svg	stimuli_distractor_trianglediamonds.svg	3	yes	ta	1	1621	6	2	antiphase_hc_ios.wav	3	6	2	noise_calib_stim_LEFT.wav	1	30	blb_dichoticlistening_pa-ta.mp3	pa	ta	1	right
6.6.1	win	2023-06-27	18:32:26	18:42:19	583869	5efb4cfd797e7108c3823ae5	3	1	DL_test	23	DL_test	9	stimuli_target_squaretriangles.svg	stimuli_distractor_trianglediamonds.svg	3	yes	ba	1	1575	6	2	antiphase_hc_ios.wav	3	6	2	noise_calib_stim_LEFT.wav	1	3	blb_dichoticlistening_ba-ga.mp3	ba	ga	1	left
6.6.1	win	2023-06-27	18:32:26	18:42:19	583869	5efb4cfd797e7108c3823ae5	3	1	DL_test	23	DL_test	10	stimuli_target_squaretriangles.svg	stimuli_distractor_trianglediamonds.svg	3	yes	ga	1	905	6	2	antiphase_hc_ios.wav	3	6	2	noise_calib_stim_LEFT.wav	1	27	blb_dichoticlistening_pa-ga.mp3	pa	ga	1	right
6.6.1	win	2023-06-27	18:32:26	18:42:19	583869	5efb4cfd797e7108c3823ae5	3	1	DL_test	23	DL_test	11	stimuli_target_squaretriangles.svg	stimuli_distractor_trianglediamonds.svg	3	yes	ga	0	622	6	2	antiphase_hc_ios.wav	3	6	2	noise_calib_stim_LEFT.wav	1	32	blb_dichoticlistening_ta-da.mp3	ta	da	1	other
6.6.1	win	2023-06-27	18:32:26	18:42:19	583869	5efb4cfd797e7108c3823ae5	3	1	DL_test	23	DL_test	12	stimuli_target_squaretriangles.svg	stimuli_distractor_trianglediamonds.svg	3	yes	ba	1	1205	6	2	antiphase_hc_ios.wav	3	6	2	noise_calib_stim_LEFT.wav	1	25	blb_dichoticlistening_pa-ba.mp3	pa	ba	1	right
6.6.1	win	2023-06-27	18:32:26	18:42:19	583869	5efb4cfd797e7108c3823ae5	3	1	DL_test	23	DL_test	13	stimuli_target_squaretriangles.svg	stimuli_distractor_trianglediamonds.svg	3	yes	ga	1	981	6	2	antiphase_hc_ios.wav	3	6	2	noise_calib_stim_LEFT.wav	1	33	blb_dichoticlistening_ta-ga.mp3	ta	ga	1	right
6.6.1	win	2023-06-27	18:32:26	18:42:19	583869	5efb4cfd797e7108c3823ae5	3	1	DL_test	23	DL_test	14	stimuli_target_squaretriangles.svg	stimuli_distractor_trianglediamonds.svg	3	yes	ta	1	1032	6	2	antiphase_hc_ios.wav	3	6	2	noise_calib_stim_LEFT.wav	1	36	blb_dichoticlistening_ta-ta.mp3	ta	ta	0	left
6.6.1	win	2023-06-27	18:32:26	18:42:19	583869	5efb4cfd797e7108c3823ae5	3	1	DL_test	23	DL_test	15	stimuli_target_squaretriangles.svg	stimuli_distractor_trianglediamonds.svg	3	yes	da	1	2860	6	2	antiphase_hc_ios.wav	3	6	2	noise_calib_stim_LEFT.wav	1	2	blb_dichoticlistening_ba-da.mp3	ba	da	1	right
6.6.1	win	2023-06-27	18:32:26	18:42:19	583869	5efb4cfd797e7108c3823ae5	3	1	DL_test	23	DL_test	16	stimuli_target_squaretriangles.svg	stimuli_distractor_trianglediamonds.svg	3	yes	ga	0	1185	6	2	antiphase_hc_ios.wav	3	6	2	noise_calib_stim_LEFT.wav	1	26	blb_dichoticlistening_pa-da.mp3	pa	da	1	other
6.6.1	win	2023-06-27	18:32:26	18:42:19	583869	5efb4cfd797e7108c3823ae5	3	1	DL_test	23	DL_test	17	stimuli_target_squaretriangles.svg	stimuli_distractor_trianglediamonds.svg	3	yes	ka	1	784	6	2	antiphase_hc_ios.wav	3	6	2	noise_calib_stim_LEFT.wav	1	28	blb_dichoticlistening_pa-ka.mp3	pa	ka	1	right
6.6.1	win	2023-06-27	18:32:26	18:42:19	583869	5efb4cfd797e7108c3823ae5	3	1	DL_test	23	DL_test	18	stimuli_target_squaretriangles.svg	stimuli_distractor_trianglediamonds.svg	3	yes	ga	1	944	6	2	antiphase_hc_ios.wav	3	6	2	noise_calib_stim_LEFT.wav	1	9	blb_dichoticlistening_da-ga.mp3	da	ga	1	right
6.6.1	win	2023-06-27	18:32:26	18:42:19	583869	5efb4cfd797e7108c3823ae5	3	1	DL_test	23	DL_test	19	stimuli_target_squaretriangles.svg	stimuli_distractor_trianglediamonds.svg	3	yes	ba	1	1358	6	2	antiphase_hc_ios.wav	3	6	2	noise_calib_stim_LEFT.wav	1	5	blb_dichoticlistening_ba-pa.mp3	ba	pa	1	left
6.6.1	win	2023-06-27	18:32:26	18:42:19	583869	5efb4cfd797e7108c3823ae5	3	1	DL_test	23	DL_test	20	stimuli_target_squaretriangles.svg	stimuli_distractor_trianglediamonds.svg	3	yes	ba	1	911	6	2	antiphase_hc_ios.wav	3	6	2	noise_calib_stim_LEFT.wav	1	13	blb_dichoticlistening_ga-ba.mp3	ga	ba	1	right
6.6.1	win	2023-06-27	18:32:26	18:42:19	583869	5efb4cfd797e7108c3823ae5	3	1	DL_test	23	DL_test	21	stimuli_target_squaretriangles.svg	stimuli_distractor_trianglediamonds.svg	3	yes	ba	1	631	6	2	antiphase_hc_ios.wav	3	6	2	noise_calib_stim_LEFT.wav	1	7	blb_dichoticlistening_da-ba.mp3	da	ba	1	right
6.6.1	win	2023-06-27	18:32:26	18:42:19	583869	5efb4cfd797e7108c3823ae5	3	1	DL_test	23	DL_test	22	stimuli_target_squaretriangles.svg	stimuli_distractor_trianglediamonds.svg	3	yes	da	1	914	6	2	antiphase_hc_ios.wav	3	6	2	noise_calib_stim_LEFT.wav	1	8	blb_dichoticlistening_da-da.mp3	da	da	0	left
6.6.1	win	2023-06-27	18:32:26	18:42:19	583869	5efb4cfd797e7108c3823ae5	3	1	DL_test	23	DL_test	23	stimuli_target_squaretriangles.svg	stimuli_distractor_trianglediamonds.svg	3	yes	ga	1	805	6	2	antiphase_hc_ios.wav	3	6	2	noise_calib_stim_LEFT.wav	1	17	blb_dichoticlistening_ga-pa.mp3	ga	pa	1	left
6.6.1	win	2023-06-27	18:32:26	18:42:19	583869	5efb4cfd797e7108c3823ae5	3	1	DL_test	23	DL_test	24	stimuli_target_squaretriangles.svg	stimuli_distractor_trianglediamonds.svg	3	yes	da	0	5099	6	2	antiphase_hc_ios.wav	3	6	2	noise_calib_stim_LEFT.wav	1	6	blb_dichoticlistening_ba-ta.mp3	ba	ta	1	other
6.6.1	win	2023-06-27	18:32:26	18:42:19	583869	5efb4cfd797e7108c3823ae5	3	1	DL_test	23	DL_test	25	stimuli_target_squaretriangles.svg	stimuli_distractor_trianglediamonds.svg	3	yes	ba	1	1644	6	2	antiphase_hc_ios.wav	3	6	2	noise_calib_stim_LEFT.wav	1	1	blb_dichoticlistening_ba-ba.mp3	ba	ba	0	left
6.6.1	win	2023-06-27	18:32:26	18:42:19	583869	5efb4cfd797e7108c3823ae5	3	1	DL_test	23	DL_test	26	stimuli_target_squaretriangles.svg	stimuli_distractor_trianglediamonds.svg	3	yes	ga	0	1181	6	2	antiphase_hc_ios.wav	3	6	2	noise_calib_stim_LEFT.wav	1	20	blb_dichoticlistening_ka-da.mp3	ka	da	1	other
