build	computer.platform	date	time	timestamp	time_elapsed_ms	subject	group	session	blockcode	blocknum	trialcode	trialnum	stimulus_left	stimulus_right	stim_index	target_present	response	correct	latency	headphonecheck_countTestTrials	headphonecheck_index	headphonecheck_testSound	headphonecheck_correctResponse	stereocheck_countTestTrials	stereocheck_index	stereocheck_testSound	stereocheck_correctResponse	DL_index	DL_soundfile	DL_leftSound	DL_rightSound	DL_dualSound	DL_choice
6.6.3	ios	2023-06-02	07:13:33	0	0	63f5c99a1cecb4136b93f7db	1	1	headphonecheck_calibration	4	headphonecheck_calibrationIntro	1			0		calibrationButton	0	550	0	0			0	0			1				0	
6.6.3	ios	2023-06-02	07:13:33	0	0	63f5c99a1cecb4136b93f7db	1	1	headphonecheck_testphase	5	test_collectResponse	3			0		second	1	51	1	5	antiphase_hc_osi.wav	2	0	0			1				0	
6.6.3	ios	2023-06-02	07:13:33	0	0	63f5c99a1cecb4136b93f7db	1	1	headphonecheck_testphase	5	test_collectResponse	6			0		second	1	3354	2	1	antiphase_hc_iso.wav	2	0	0			1				0	
6.6.3	ios	2023-06-02	07:13:33	0	0	63f5c99a1cecb4136b93f7db	1	1	headphonecheck_testphase	5	test_collectResponse	9			0		third	1	483	3	6	antiphase_hc_ois.wav	3	0	0			1				0	
6.6.3	ios	2023-06-02	07:13:33	0	0	63f5c99a1cecb4136b93f7db	1	1	headphonecheck_testphase	5	test_collectResponse	12			0		third	1	350	4	2	antiphase_hc_ios.wav	3	0	0			1				0	
6.6.3	ios	2023-06-02	07:13:33	0	0	63f5c99a1cecb4136b93f7db	1	1	headphonecheck_testphase	5	test_collectResponse	15			0		first	1	392	5	3	antiphase_hc_soi.wav	1	0	0			1				0	
6.6.3	ios	2023-06-02	07:13:33	0	0	63f5c99a1cecb4136b93f7db	1	1	headphonecheck_testphase	5	test_collectResponse	18			0		first	1	508	6	4	antiphase_hc_sio.wav	1	0	0			1				0	
6.6.3	ios	2023-06-02	07:13:33	0	0	63f5c99a1cecb4136b93f7db	1	1	stereocheck_calibration	7	stereocheck_calibrationIntro	1			0		stereocheck_calibrationButton	0	567	6	4	antiphase_hc_sio.wav	1	0	0			1				0	
6.6.3	ios	2023-06-02	07:13:33	0	0	63f5c99a1cecb4136b93f7db	1	1	stereocheck_testphase	8	stereocheck_test_collectResponse	3			0		stereocheck_right	1	233	6	4	antiphase_hc_sio.wav	1	1	5	noise_calib_stim_RIGHT.wav	2	1				0	
6.6.3	ios	2023-06-02	07:13:33	0	0	63f5c99a1cecb4136b93f7db	1	1	stereocheck_testphase	8	stereocheck_test_collectResponse	6			0		stereocheck_right	1	18	6	4	antiphase_hc_sio.wav	1	2	6	noise_calib_stim_RIGHT.wav	2	1				0	
6.6.3	ios	2023-06-02	07:13:33	0	0	63f5c99a1cecb4136b93f7db	1	1	stereocheck_testphase	8	stereocheck_test_collectResponse	9			0		stereocheck_left	1	150	6	4	antiphase_hc_sio.wav	1	3	3	noise_calib_stim_LEFT.wav	1	1				0	
6.6.3	ios	2023-06-02	07:13:33	0	0	63f5c99a1cecb4136b93f7db	1	1	stereocheck_testphase	8	stereocheck_test_collectResponse	12			0		stereocheck_right	1	8	6	4	antiphase_hc_sio.wav	1	4	4	noise_calib_stim_RIGHT.wav	2	1				0	
6.6.3	ios	2023-06-02	07:13:33	0	0	63f5c99a1cecb4136b93f7db	1	1	stereocheck_testphase	8	stereocheck_test_collectResponse	15			0		stereocheck_left	1	10	6	4	antiphase_hc_sio.wav	1	5	2	noise_calib_stim_LEFT.wav	1	1				0	
6.6.3	ios	2023-06-02	07:13:33	0	0	63f5c99a1cecb4136b93f7db	1	1	stereocheck_testphase	8	stereocheck_test_collectResponse	18			0		stereocheck_left	1	117	6	4	antiphase_hc_sio.wav	1	6	1	noise_calib_stim_LEFT.wav	1	1				0	
6.6.3	ios	2023-06-02	07:13:33	0	0	63f5c99a1cecb4136b93f7db	1	1	DL_practice	11	DL_practice	2			0		ka	1	908	6	4	antiphase_hc_sio.wav	1	6	1	noise_calib_stim_LEFT.wav	1	22	blb_dichoticlistening_ka-ka.mp3	ka	ka	0	left
6.6.3	ios	2023-06-02	07:13:33	0	0	63f5c99a1cecb4136b93f7db	1	1	DL_practice	11	DL_practice	3			0		pa	0	533	6	4	antiphase_hc_sio.wav	1	6	1	noise_calib_stim_LEFT.wav	1	7	blb_dichoticlistening_da-ba.mp3	da	ba	1	other
6.6.3	ios	2023-06-02	07:13:33	0	0	63f5c99a1cecb4136b93f7db	1	1	DL_practice	11	DL_practice	4			0		ta	0	1024	6	4	antiphase_hc_sio.wav	1	6	1	noise_calib_stim_LEFT.wav	1	23	blb_dichoticlistening_ka-pa.mp3	ka	pa	1	other
6.6.3	ios	2023-06-02	07:13:33	0	0	63f5c99a1cecb4136b93f7db	1	1	DL_practice	11	DL_practice	5			0		pa	0	584	6	4	antiphase_hc_sio.wav	1	6	1	noise_calib_stim_LEFT.wav	1	1	blb_dichoticlistening_ba-ba.mp3	ba	ba	0	other
6.6.3	ios	2023-06-02	07:13:33	0	0	63f5c99a1cecb4136b93f7db	1	1	DL_practice	11	DL_practice	6			0		ta	1	917	6	4	antiphase_hc_sio.wav	1	6	1	noise_calib_stim_LEFT.wav	1	36	blb_dichoticlistening_ta-ta.mp3	ta	ta	0	left
6.6.3	ios	2023-06-02	07:13:33	0	0	63f5c99a1cecb4136b93f7db	1	1	DL_practice	11	DL_practice	7			0		pa	1	617	6	4	antiphase_hc_sio.wav	1	6	1	noise_calib_stim_LEFT.wav	1	29	blb_dichoticlistening_pa-pa.mp3	pa	pa	0	left
6.6.3	ios	2023-06-02	07:13:33	0	0	63f5c99a1cecb4136b93f7db	1	1	DL_practice	11	DL_practice	8			0		ga	1	850	6	4	antiphase_hc_sio.wav	1	6	1	noise_calib_stim_LEFT.wav	1	15	blb_dichoticlistening_ga-ga.mp3	ga	ga	0	left
6.6.3	ios	2023-06-02	07:13:33	0	0	63f5c99a1cecb4136b93f7db	1	1	DL_practice	11	DL_practice	9			0		da	1	550	6	4	antiphase_hc_sio.wav	1	6	1	noise_calib_stim_LEFT.wav	1	8	blb_dichoticlistening_da-da.mp3	da	da	0	left
6.6.3	ios	2023-06-02	07:13:33	0	0	63f5c99a1cecb4136b93f7db	1	1	DL_practice	11	DL_practice	10			0		ta	1	1049	6	4	antiphase_hc_sio.wav	1	6	1	noise_calib_stim_LEFT.wav	1	18	blb_dichoticlistening_ga-ta.mp3	ga	ta	1	right
6.6.3	ios	2023-06-02	07:13:33	0	0	63f5c99a1cecb4136b93f7db	1	1	DL_test	13	DL_test	1			0		pa	0	722	6	4	antiphase_hc_sio.wav	1	6	1	noise_calib_stim_LEFT.wav	1	31	blb_dichoticlistening_ta-ba.mp3	ta	ba	1	other
6.6.3	ios	2023-06-02	07:13:33	0	0	63f5c99a1cecb4136b93f7db	1	1	DL_test	13	DL_test	2			0		da	1	875	6	4	antiphase_hc_sio.wav	1	6	1	noise_calib_stim_LEFT.wav	1	26	blb_dichoticlistening_pa-da.mp3	pa	da	1	right
6.6.3	ios	2023-06-02	07:13:33	0	0	63f5c99a1cecb4136b93f7db	1	1	DL_test	13	DL_test	3			0		ta	0	708	6	4	antiphase_hc_sio.wav	1	6	1	noise_calib_stim_LEFT.wav	1	7	blb_dichoticlistening_da-ba.mp3	da	ba	1	other
6.6.3	ios	2023-06-02	07:13:33	0	0	63f5c99a1cecb4136b93f7db	1	1	DL_test	13	DL_test	4			0		pa	1	891	6	4	antiphase_hc_sio.wav	1	6	1	noise_calib_stim_LEFT.wav	1	35	blb_dichoticlistening_ta-pa.mp3	ta	pa	1	right
6.6.3	ios	2023-06-02	07:13:33	0	0	63f5c99a1cecb4136b93f7db	1	1	DL_test	13	DL_test	5			0		pa	1	849	6	4	antiphase_hc_sio.wav	1	6	1	noise_calib_stim_LEFT.wav	1	30	blb_dichoticlistening_pa-ta.mp3	pa	ta	1	left
6.6.3	ios	2023-06-02	07:13:33	0	0	63f5c99a1cecb4136b93f7db	1	1	DL_test	13	DL_test	6			0		pa	0	724	6	4	antiphase_hc_sio.wav	1	6	1	noise_calib_stim_LEFT.wav	1	13	blb_dichoticlistening_ga-ba.mp3	ga	ba	1	other
6.6.3	ios	2023-06-02	07:13:33	0	0	63f5c99a1cecb4136b93f7db	1	1	DL_test	13	DL_test	7			0		ta	1	650	6	4	antiphase_hc_sio.wav	1	6	1	noise_calib_stim_LEFT.wav	1	36	blb_dichoticlistening_ta-ta.mp3	ta	ta	0	left
6.6.3	ios	2023-06-02	07:13:33	0	0	63f5c99a1cecb4136b93f7db	1	1	DL_test	13	DL_test	8			0		pa	0	526	6	4	antiphase_hc_sio.wav	1	6	1	noise_calib_stim_LEFT.wav	1	4	blb_dichoticlistening_ba-ka.mp3	ba	ka	1	other
6.6.3	ios	2023-06-02	07:13:33	0	0	63f5c99a1cecb4136b93f7db	1	1	DL_test	13	DL_test	9			0		da	1	1366	6	4	antiphase_hc_sio.wav	1	6	1	noise_calib_stim_LEFT.wav	1	11	blb_dichoticlistening_da-pa.mp3	da	pa	1	left
6.6.3	ios	2023-06-02	07:13:33	0	0	63f5c99a1cecb4136b93f7db	1	1	DL_test	13	DL_test	10			0		pa	1	575	6	4	antiphase_hc_sio.wav	1	6	1	noise_calib_stim_LEFT.wav	1	5	blb_dichoticlistening_ba-pa.mp3	ba	pa	1	right
6.6.3	ios	2023-06-02	07:13:33	0	0	63f5c99a1cecb4136b93f7db	1	1	DL_test	13	DL_test	11			0		pa	1	617	6	4	antiphase_hc_sio.wav	1	6	1	noise_calib_stim_LEFT.wav	1	29	blb_dichoticlistening_pa-pa.mp3	pa	pa	0	left
6.6.3	ios	2023-06-02	07:13:33	0	0	63f5c99a1cecb4136b93f7db	1	1	DL_test	13	DL_test	12			0		ga	0	1157	6	4	antiphase_hc_sio.wav	1	6	1	noise_calib_stim_LEFT.wav	1	20	blb_dichoticlistening_ka-da.mp3	ka	da	1	other
6.6.3	ios	2023-06-02	07:13:33	0	0	63f5c99a1cecb4136b93f7db	1	1	DL_test	13	DL_test	13			0		pa	0	758	6	4	antiphase_hc_sio.wav	1	6	1	noise_calib_stim_LEFT.wav	1	21	blb_dichoticlistening_ka-ga.mp3	ka	ga	1	other
6.6.3	ios	2023-06-02	07:13:33	0	0	63f5c99a1cecb4136b93f7db	1	1	DL_test	13	DL_test	14			0		da	1	384	6	4	antiphase_hc_sio.wav	1	6	1	noise_calib_stim_LEFT.wav	1	12	blb_dichoticlistening_da-ta.mp3	da	ta	1	left
6.6.3	ios	2023-06-02	07:13:33	0	0	63f5c99a1cecb4136b93f7db	1	1	DL_test	13	DL_test	15			0		da	1	1074	6	4	antiphase_hc_sio.wav	1	6	1	noise_calib_stim_LEFT.wav	1	8	blb_dichoticlistening_da-da.mp3	da	da	0	left
6.6.3	ios	2023-06-02	07:13:33	0	0	63f5c99a1cecb4136b93f7db	1	1	DL_test	13	DL_test	16			0		ka	1	974	6	4	antiphase_hc_sio.wav	1	6	1	noise_calib_stim_LEFT.wav	1	34	blb_dichoticlistening_ta-ka.mp3	ta	ka	1	right
6.6.3	ios	2023-06-02	07:13:33	0	0	63f5c99a1cecb4136b93f7db	1	1	DL_test	13	DL_test	17			0		ka	1	1250	6	4	antiphase_hc_sio.wav	1	6	1	noise_calib_stim_LEFT.wav	1	10	blb_dichoticlistening_da-ka.mp3	da	ka	1	right
6.6.3	ios	2023-06-02	07:13:33	0	0	63f5c99a1cecb4136b93f7db	1	1	DL_test	13	DL_test	18			0		ga	1	616	6	4	antiphase_hc_sio.wav	1	6	1	noise_calib_stim_LEFT.wav	1	14	blb_dichoticlistening_ga-da.mp3	ga	da	1	left
6.6.3	ios	2023-06-02	07:13:33	0	0	63f5c99a1cecb4136b93f7db	1	1	DL_test	13	DL_test	19			0		da	1	899	6	4	antiphase_hc_sio.wav	1	6	1	noise_calib_stim_LEFT.wav	1	32	blb_dichoticlistening_ta-da.mp3	ta	da	1	right
6.6.3	ios	2023-06-02	07:13:33	0	0	63f5c99a1cecb4136b93f7db	1	1	DL_test	13	DL_test	20			0		ta	0	1224	6	4	antiphase_hc_sio.wav	1	6	1	noise_calib_stim_LEFT.wav	1	17	blb_dichoticlistening_ga-pa.mp3	ga	pa	1	other
6.6.3	ios	2023-06-02	07:13:33	0	0	63f5c99a1cecb4136b93f7db	1	1	DL_test	13	DL_test	21			0		ga	1	1033	6	4	antiphase_hc_sio.wav	1	6	1	noise_calib_stim_LEFT.wav	1	16	blb_dichoticlistening_ga-ka.mp3	ga	ka	1	left
6.6.3	ios	2023-06-02	07:13:33	0	0	63f5c99a1cecb4136b93f7db	1	1	DL_test	13	DL_test	22			0		ka	1	583	6	4	antiphase_hc_sio.wav	1	6	1	noise_calib_stim_LEFT.wav	1	22	blb_dichoticlistening_ka-ka.mp3	ka	ka	0	left
6.6.3	ios	2023-06-02	07:13:33	0	0	63f5c99a1cecb4136b93f7db	1	1	DL_test	13	DL_test	23			0		da	1	850	6	4	antiphase_hc_sio.wav	1	6	1	noise_calib_stim_LEFT.wav	1	2	blb_dichoticlistening_ba-da.mp3	ba	da	1	right
6.6.3	ios	2023-06-02	07:13:33	0	0	63f5c99a1cecb4136b93f7db	1	1	DL_test	13	DL_test	24			0		pa	0	1324	6	4	antiphase_hc_sio.wav	1	6	1	noise_calib_stim_LEFT.wav	1	6	blb_dichoticlistening_ba-ta.mp3	ba	ta	1	other
6.6.3	ios	2023-06-02	07:13:33	0	0	63f5c99a1cecb4136b93f7db	1	1	DL_test	13	DL_test	25			0		pa	0	942	6	4	antiphase_hc_sio.wav	1	6	1	noise_calib_stim_LEFT.wav	1	18	blb_dichoticlistening_ga-ta.mp3	ga	ta	1	other
6.6.3	ios	2023-06-02	07:13:33	0	0	63f5c99a1cecb4136b93f7db	1	1	DL_test	13	DL_test	26			0		ba	0	317	6	4	antiphase_hc_sio.wav	1	6	1	noise_calib_stim_LEFT.wav	1	27	blb_dichoticlistening_pa-ga.mp3	pa	ga	1	other
6.6.3	ios	2023-06-02	07:13:33	0	0	63f5c99a1cecb4136b93f7db	1	1	DL_test	13	DL_test	27			0		pa	1	201	6	4	antiphase_hc_sio.wav	1	6	1	noise_calib_stim_LEFT.wav	1	25	blb_dichoticlistening_pa-ba.mp3	pa	ba	1	left
6.6.3	ios	2023-06-02	07:13:33	0	0	63f5c99a1cecb4136b93f7db	1	1	DL_test	13	DL_test	28			0		pa	0	550	6	4	antiphase_hc_sio.wav	1	6	1	noise_calib_stim_LEFT.wav	1	3	blb_dichoticlistening_ba-ga.mp3	ba	ga	1	other
6.6.3	ios	2023-06-02	07:13:33	0	0	63f5c99a1cecb4136b93f7db	1	1	DL_test	13	DL_test	29			0		ka	1	300	6	4	antiphase_hc_sio.wav	1	6	1	noise_calib_stim_LEFT.wav	1	24	blb_dichoticlistening_ka-ta.mp3	ka	ta	1	left
6.6.3	ios	2023-06-02	07:13:33	0	0	63f5c99a1cecb4136b93f7db	1	1	DL_test	13	DL_test	30			0		ka	0	317	6	4	antiphase_hc_sio.wav	1	6	1	noise_calib_stim_LEFT.wav	1	1	blb_dichoticlistening_ba-ba.mp3	ba	ba	0	other
6.6.3	ios	2023-06-02	07:13:33	0	0	63f5c99a1cecb4136b93f7db	1	1	DL_test	13	DL_test	31			0		ga	1	301	6	4	antiphase_hc_sio.wav	1	6	1	noise_calib_stim_LEFT.wav	1	15	blb_dichoticlistening_ga-ga.mp3	ga	ga	0	left
6.6.3	ios	2023-06-02	07:13:33	0	0	63f5c99a1cecb4136b93f7db	1	1	DL_test	13	DL_test	32			0		ka	1	825	6	4	antiphase_hc_sio.wav	1	6	1	noise_calib_stim_LEFT.wav	1	28	blb_dichoticlistening_pa-ka.mp3	pa	ka	1	right
6.6.3	ios	2023-06-02	07:13:33	0	0	63f5c99a1cecb4136b93f7db	1	1	DL_test	13	DL_test	33			0		ta	0	608	6	4	antiphase_hc_sio.wav	1	6	1	noise_calib_stim_LEFT.wav	1	23	blb_dichoticlistening_ka-pa.mp3	ka	pa	1	other
6.6.3	ios	2023-06-02	07:13:33	0	0	63f5c99a1cecb4136b93f7db	1	1	DL_test	13	DL_test	34			0		pa	0	226	6	4	antiphase_hc_sio.wav	1	6	1	noise_calib_stim_LEFT.wav	1	9	blb_dichoticlistening_da-ga.mp3	da	ga	1	other
6.6.3	ios	2023-06-02	07:13:33	0	0	63f5c99a1cecb4136b93f7db	1	1	DL_test	13	DL_test	35			0		ta	1	251	6	4	antiphase_hc_sio.wav	1	6	1	noise_calib_stim_LEFT.wav	1	33	blb_dichoticlistening_ta-ga.mp3	ta	ga	1	left
6.6.3	ios	2023-06-02	07:13:33	0	0	63f5c99a1cecb4136b93f7db	1	1	DL_test	13	DL_test	36			0		pa	0	117	6	4	antiphase_hc_sio.wav	1	6	1	noise_calib_stim_LEFT.wav	1	19	blb_dichoticlistening_ka-ba.mp3	ka	ba	1	other
6.6.3	ios	2023-06-02	07:13:33	0	0	63f5c99a1cecb4136b93f7db	1	1	DL_test	14	DL_test	1			0		ka	0	115	6	4	antiphase_hc_sio.wav	1	6	1	noise_calib_stim_LEFT.wav	1	35	blb_dichoticlistening_ta-pa.mp3	ta	pa	1	other
6.6.3	ios	2023-06-02	07:13:33	0	0	63f5c99a1cecb4136b93f7db	1	1	DL_test	14	DL_test	2			0		ga	0	51	6	4	antiphase_hc_sio.wav	1	6	1	noise_calib_stim_LEFT.wav	1	19	blb_dichoticlistening_ka-ba.mp3	ka	ba	1	other
6.6.3	ios	2023-06-02	07:13:33	0	0	63f5c99a1cecb4136b93f7db	1	1	DL_test	14	DL_test	3			0		ta	0	617	6	4	antiphase_hc_sio.wav	1	6	1	noise_calib_stim_LEFT.wav	1	5	blb_dichoticlistening_ba-pa.mp3	ba	pa	1	other
6.6.3	ios	2023-06-02	07:13:33	0	0	63f5c99a1cecb4136b93f7db	1	1	DL_test	14	DL_test	4			0		pa	1	10	6	4	antiphase_hc_sio.wav	1	6	1	noise_calib_stim_LEFT.wav	1	28	blb_dichoticlistening_pa-ka.mp3	pa	ka	1	left
6.6.3	ios	2023-06-02	07:13:33	0	0	63f5c99a1cecb4136b93f7db	1	1	DL_test	14	DL_test	5			0		da	0	1	6	4	antiphase_hc_sio.wav	1	6	1	noise_calib_stim_LEFT.wav	1	23	blb_dichoticlistening_ka-pa.mp3	ka	pa	1	other
6.6.3	ios	2023-06-02	07:13:33	0	0	63f5c99a1cecb4136b93f7db	1	1	DL_test	14	DL_test	6			0		ka	0	60	6	4	antiphase_hc_sio.wav	1	6	1	noise_calib_stim_LEFT.wav	1	12	blb_dichoticlistening_da-ta.mp3	da	ta	1	other
6.6.3	ios	2023-06-02	07:13:33	0	0	63f5c99a1cecb4136b93f7db	1	1	DL_test	14	DL_test	7			0		ba	0	550	6	4	antiphase_hc_sio.wav	1	6	1	noise_calib_stim_LEFT.wav	1	17	blb_dichoticlistening_ga-pa.mp3	ga	pa	1	other
6.6.3	ios	2023-06-02	07:13:33	0	0	63f5c99a1cecb4136b93f7db	1	1	DL_test	14	DL_test	8			0		ka	0	18	6	4	antiphase_hc_sio.wav	1	6	1	noise_calib_stim_LEFT.wav	1	18	blb_dichoticlistening_ga-ta.mp3	ga	ta	1	other
6.6.3	ios	2023-06-02	07:13:33	0	0	63f5c99a1cecb4136b93f7db	1	1	DL_test	14	DL_test	9			0		pa	1	126	6	4	antiphase_hc_sio.wav	1	6	1	noise_calib_stim_LEFT.wav	1	27	blb_dichoticlistening_pa-ga.mp3	pa	ga	1	left
6.6.3	ios	2023-06-02	07:13:33	0	0	63f5c99a1cecb4136b93f7db	1	1	DL_test	14	DL_test	10			0		ka	0	76	6	4	antiphase_hc_sio.wav	1	6	1	noise_calib_stim_LEFT.wav	1	30	blb_dichoticlistening_pa-ta.mp3	pa	ta	1	other
6.6.3	ios	2023-06-02	07:13:33	0	0	63f5c99a1cecb4136b93f7db	1	1	DL_test	14	DL_test	11			0		pa	0	43	6	4	antiphase_hc_sio.wav	1	6	1	noise_calib_stim_LEFT.wav	1	7	blb_dichoticlistening_da-ba.mp3	da	ba	1	other
6.6.3	ios	2023-06-02	07:13:33	0	0	63f5c99a1cecb4136b93f7db	1	1	DL_test	14	DL_test	12			0		pa	0	18	6	4	antiphase_hc_sio.wav	1	6	1	noise_calib_stim_LEFT.wav	1	34	blb_dichoticlistening_ta-ka.mp3	ta	ka	1	other
6.6.3	ios	2023-06-02	07:13:33	0	0	63f5c99a1cecb4136b93f7db	1	1	DL_test	14	DL_test	13			0		pa	0	525	6	4	antiphase_hc_sio.wav	1	6	1	noise_calib_stim_LEFT.wav	1	22	blb_dichoticlistening_ka-ka.mp3	ka	ka	0	other
6.6.3	ios	2023-06-02	07:13:33	0	0	63f5c99a1cecb4136b93f7db	1	1	DL_test	14	DL_test	14			0		ka	0	117	6	4	antiphase_hc_sio.wav	1	6	1	noise_calib_stim_LEFT.wav	1	13	blb_dichoticlistening_ga-ba.mp3	ga	ba	1	other
6.6.3	ios	2023-06-02	07:13:33	0	0	63f5c99a1cecb4136b93f7db	1	1	DL_test	14	DL_test	15			0		ka	1	233	6	4	antiphase_hc_sio.wav	1	6	1	noise_calib_stim_LEFT.wav	1	4	blb_dichoticlistening_ba-ka.mp3	ba	ka	1	right
6.6.3	ios	2023-06-02	07:13:33	0	0	63f5c99a1cecb4136b93f7db	1	1	DL_test	14	DL_test	16			0		ka	0	1889	6	4	antiphase_hc_sio.wav	1	6	1	noise_calib_stim_LEFT.wav	1	31	blb_dichoticlistening_ta-ba.mp3	ta	ba	1	other
6.6.3	ios	2023-06-02	07:13:33	0	0	63f5c99a1cecb4136b93f7db	1	1	DL_test	14	DL_test	17			0		ka	0	17	6	4	antiphase_hc_sio.wav	1	6	1	noise_calib_stim_LEFT.wav	1	33	blb_dichoticlistening_ta-ga.mp3	ta	ga	1	other
6.6.3	ios	2023-06-02	07:13:33	0	0	63f5c99a1cecb4136b93f7db	1	1	DL_test	14	DL_test	18			0		ga	0	0	6	4	antiphase_hc_sio.wav	1	6	1	noise_calib_stim_LEFT.wav	1	32	blb_dichoticlistening_ta-da.mp3	ta	da	1	other
6.6.3	ios	2023-06-02	07:13:33	0	0	63f5c99a1cecb4136b93f7db	1	1	DL_test	14	DL_test	19			0		ga	0	500	6	4	antiphase_hc_sio.wav	1	6	1	noise_calib_stim_LEFT.wav	1	11	blb_dichoticlistening_da-pa.mp3	da	pa	1	other
6.6.3	ios	2023-06-02	07:13:33	0	0	63f5c99a1cecb4136b93f7db	1	1	DL_test	14	DL_test	20			0		pa	0	10	6	4	antiphase_hc_sio.wav	1	6	1	noise_calib_stim_LEFT.wav	1	16	blb_dichoticlistening_ga-ka.mp3	ga	ka	1	other
6.6.3	ios	2023-06-02	07:13:33	0	0	63f5c99a1cecb4136b93f7db	1	1	DL_test	14	DL_test	21			0		ka	0	483	6	4	antiphase_hc_sio.wav	1	6	1	noise_calib_stim_LEFT.wav	1	14	blb_dichoticlistening_ga-da.mp3	ga	da	1	other
6.6.3	ios	2023-06-02	07:13:33	0	0	63f5c99a1cecb4136b93f7db	1	1	DL_test	14	DL_test	22			0		ga	0	34	6	4	antiphase_hc_sio.wav	1	6	1	noise_calib_stim_LEFT.wav	1	6	blb_dichoticlistening_ba-ta.mp3	ba	ta	1	other
6.6.3	ios	2023-06-02	07:13:33	0	0	63f5c99a1cecb4136b93f7db	1	1	DL_test	14	DL_test	23			0		ka	1	584	6	4	antiphase_hc_sio.wav	1	6	1	noise_calib_stim_LEFT.wav	1	10	blb_dichoticlistening_da-ka.mp3	da	ka	1	right
6.6.3	ios	2023-06-02	07:13:33	0	0	63f5c99a1cecb4136b93f7db	1	1	DL_test	14	DL_test	24			0		pa	0	1307	6	4	antiphase_hc_sio.wav	1	6	1	noise_calib_stim_LEFT.wav	1	1	blb_dichoticlistening_ba-ba.mp3	ba	ba	0	other
6.6.3	ios	2023-06-02	07:13:33	0	0	63f5c99a1cecb4136b93f7db	1	1	DL_test	14	DL_test	25			0		ta	0	625	6	4	antiphase_hc_sio.wav	1	6	1	noise_calib_stim_LEFT.wav	1	2	blb_dichoticlistening_ba-da.mp3	ba	da	1	other
6.6.3	ios	2023-06-02	07:13:33	0	0	63f5c99a1cecb4136b93f7db	1	1	DL_test	14	DL_test	26			0		ta	1	1432	6	4	antiphase_hc_sio.wav	1	6	1	noise_calib_stim_LEFT.wav	1	36	blb_dichoticlistening_ta-ta.mp3	ta	ta	0	left
6.6.3	ios	2023-06-02	07:13:33	0	0	63f5c99a1cecb4136b93f7db	1	1	DL_test	14	DL_test	27			0		ga	0	1100	6	4	antiphase_hc_sio.wav	1	6	1	noise_calib_stim_LEFT.wav	1	26	blb_dichoticlistening_pa-da.mp3	pa	da	1	other
6.6.3	ios	2023-06-02	07:13:33	0	0	63f5c99a1cecb4136b93f7db	1	1	DL_test	14	DL_test	28			0		pa	0	625	6	4	antiphase_hc_sio.wav	1	6	1	noise_calib_stim_LEFT.wav	1	24	blb_dichoticlistening_ka-ta.mp3	ka	ta	1	other
6.6.3	ios	2023-06-02	07:13:33	0	0	63f5c99a1cecb4136b93f7db	1	1	DL_test	14	DL_test	29			0		pa	0	59	6	4	antiphase_hc_sio.wav	1	6	1	noise_calib_stim_LEFT.wav	1	20	blb_dichoticlistening_ka-da.mp3	ka	da	1	other
6.6.3	ios	2023-06-02	07:13:33	0	0	63f5c99a1cecb4136b93f7db	1	1	DL_test	14	DL_test	30			0		ka	0	159	6	4	antiphase_hc_sio.wav	1	6	1	noise_calib_stim_LEFT.wav	1	25	blb_dichoticlistening_pa-ba.mp3	pa	ba	1	other
6.6.3	ios	2023-06-02	07:13:33	0	0	63f5c99a1cecb4136b93f7db	1	1	DL_test	14	DL_test	31			0		pa	0	43	6	4	antiphase_hc_sio.wav	1	6	1	noise_calib_stim_LEFT.wav	1	3	blb_dichoticlistening_ba-ga.mp3	ba	ga	1	other
6.6.3	ios	2023-06-02	07:13:33	0	0	63f5c99a1cecb4136b93f7db	1	1	DL_test	14	DL_test	32			0		ga	0	708	6	4	antiphase_hc_sio.wav	1	6	1	noise_calib_stim_LEFT.wav	1	29	blb_dichoticlistening_pa-pa.mp3	pa	pa	0	other
6.6.3	ios	2023-06-02	07:13:33	0	0	63f5c99a1cecb4136b93f7db	1	1	DL_test	14	DL_test	33			0		ga	1	584	6	4	antiphase_hc_sio.wav	1	6	1	noise_calib_stim_LEFT.wav	1	9	blb_dichoticlistening_da-ga.mp3	da	ga	1	right
6.6.3	ios	2023-06-02	07:13:33	0	0	63f5c99a1cecb4136b93f7db	1	1	DL_test	14	DL_test	34			0		da	1	76	6	4	antiphase_hc_sio.wav	1	6	1	noise_calib_stim_LEFT.wav	1	8	blb_dichoticlistening_da-da.mp3	da	da	0	left
6.6.3	ios	2023-06-02	07:13:33	0	0	63f5c99a1cecb4136b93f7db	1	1	DL_test	14	DL_test	35			0		ka	0	35	6	4	antiphase_hc_sio.wav	1	6	1	noise_calib_stim_LEFT.wav	1	15	blb_dichoticlistening_ga-ga.mp3	ga	ga	0	other
6.6.3	ios	2023-06-02	07:13:33	0	0	63f5c99a1cecb4136b93f7db	1	1	DL_test	14	DL_test	36			0		ka	1	592	6	4	antiphase_hc_sio.wav	1	6	1	noise_calib_stim_LEFT.wav	1	21	blb_dichoticlistening_ka-ga.mp3	ka	ga	1	left
6.6.3	ios	2023-06-02	07:13:33	0	0	63f5c99a1cecb4136b93f7db	1	1	DL_test	15	DL_test	1			0		ka	1	114	6	4	antiphase_hc_sio.wav	1	6	1	noise_calib_stim_LEFT.wav	1	28	blb_dichoticlistening_pa-ka.mp3	pa	ka	1	right
6.6.3	ios	2023-06-02	07:13:33	0	0	63f5c99a1cecb4136b93f7db	1	1	DL_test	15	DL_test	2			0		ga	0	1	6	4	antiphase_hc_sio.wav	1	6	1	noise_calib_stim_LEFT.wav	1	23	blb_dichoticlistening_ka-pa.mp3	ka	pa	1	other
6.6.3	ios	2023-06-02	07:13:33	0	0	63f5c99a1cecb4136b93f7db	1	1	DL_test	15	DL_test	3			0		pa	0	2	6	4	antiphase_hc_sio.wav	1	6	1	noise_calib_stim_LEFT.wav	1	31	blb_dichoticlistening_ta-ba.mp3	ta	ba	1	other
6.6.3	ios	2023-06-02	07:13:33	0	0	63f5c99a1cecb4136b93f7db	1	1	DL_test	15	DL_test	4			0		ka	0	60	6	4	antiphase_hc_sio.wav	1	6	1	noise_calib_stim_LEFT.wav	1	36	blb_dichoticlistening_ta-ta.mp3	ta	ta	0	other
6.6.3	ios	2023-06-02	07:13:33	0	0	63f5c99a1cecb4136b93f7db	1	1	DL_test	15	DL_test	5			0		ka	1	900	6	4	antiphase_hc_sio.wav	1	6	1	noise_calib_stim_LEFT.wav	1	16	blb_dichoticlistening_ga-ka.mp3	ga	ka	1	right
6.6.3	ios	2023-06-02	07:13:33	0	0	63f5c99a1cecb4136b93f7db	1	1	DL_test	15	DL_test	6			0		pa	1	783	6	4	antiphase_hc_sio.wav	1	6	1	noise_calib_stim_LEFT.wav	1	29	blb_dichoticlistening_pa-pa.mp3	pa	pa	0	left
6.6.3	ios	2023-06-02	07:13:33	0	0	63f5c99a1cecb4136b93f7db	1	1	DL_test	15	DL_test	7			0		ga	0	833	6	4	antiphase_hc_sio.wav	1	6	1	noise_calib_stim_LEFT.wav	1	10	blb_dichoticlistening_da-ka.mp3	da	ka	1	other
6.6.3	ios	2023-06-02	07:13:33	0	0	63f5c99a1cecb4136b93f7db	1	1	DL_test	15	DL_test	8			0		ga	1	991	6	4	antiphase_hc_sio.wav	1	6	1	noise_calib_stim_LEFT.wav	1	14	blb_dichoticlistening_ga-da.mp3	ga	da	1	left
6.6.3	ios	2023-06-02	07:13:33	0	0	63f5c99a1cecb4136b93f7db	1	1	DL_test	15	DL_test	9			0		ka	0	3320	6	4	antiphase_hc_sio.wav	1	6	1	noise_calib_stim_LEFT.wav	1	27	blb_dichoticlistening_pa-ga.mp3	pa	ga	1	other
6.6.3	ios	2023-06-02	07:13:33	0	0	63f5c99a1cecb4136b93f7db	1	1	DL_test	15	DL_test	10			0		pa	0	825	6	4	antiphase_hc_sio.wav	1	6	1	noise_calib_stim_LEFT.wav	1	19	blb_dichoticlistening_ka-ba.mp3	ka	ba	1	other
6.6.3	ios	2023-06-02	07:13:33	0	0	63f5c99a1cecb4136b93f7db	1	1	DL_test	15	DL_test	11			0		pa	0	667	6	4	antiphase_hc_sio.wav	1	6	1	noise_calib_stim_LEFT.wav	1	1	blb_dichoticlistening_ba-ba.mp3	ba	ba	0	other
6.6.3	ios	2023-06-02	07:13:33	0	0	63f5c99a1cecb4136b93f7db	1	1	DL_test	15	DL_test	12			0		pa	0	301	6	4	antiphase_hc_sio.wav	1	6	1	noise_calib_stim_LEFT.wav	1	33	blb_dichoticlistening_ta-ga.mp3	ta	ga	1	other
6.6.3	ios	2023-06-02	07:13:33	0	0	63f5c99a1cecb4136b93f7db	1	1	DL_test	15	DL_test	13			0		ka	0	18	6	4	antiphase_hc_sio.wav	1	6	1	noise_calib_stim_LEFT.wav	1	13	blb_dichoticlistening_ga-ba.mp3	ga	ba	1	other
6.6.3	ios	2023-06-02	07:13:33	0	0	63f5c99a1cecb4136b93f7db	1	1	DL_test	15	DL_test	14			0		da	0	8	6	4	antiphase_hc_sio.wav	1	6	1	noise_calib_stim_LEFT.wav	1	35	blb_dichoticlistening_ta-pa.mp3	ta	pa	1	other
6.6.3	ios	2023-06-02	07:13:33	0	0	63f5c99a1cecb4136b93f7db	1	1	DL_test	15	DL_test	15			0		ka	0	1689	6	4	antiphase_hc_sio.wav	1	6	1	noise_calib_stim_LEFT.wav	1	7	blb_dichoticlistening_da-ba.mp3	da	ba	1	other
6.6.3	ios	2023-06-02	07:13:33	0	0	63f5c99a1cecb4136b93f7db	1	1	DL_test	15	DL_test	16			0		da	0	16	6	4	antiphase_hc_sio.wav	1	6	1	noise_calib_stim_LEFT.wav	1	17	blb_dichoticlistening_ga-pa.mp3	ga	pa	1	other
6.6.3	ios	2023-06-02	07:13:33	0	0	63f5c99a1cecb4136b93f7db	1	1	DL_test	15	DL_test	17			0		ka	0	116	6	4	antiphase_hc_sio.wav	1	6	1	noise_calib_stim_LEFT.wav	1	11	blb_dichoticlistening_da-pa.mp3	da	pa	1	other
6.6.3	ios	2023-06-02	07:13:33	0	0	63f5c99a1cecb4136b93f7db	1	1	DL_test	15	DL_test	18			0		ba	0	200	6	4	antiphase_hc_sio.wav	1	6	1	noise_calib_stim_LEFT.wav	1	26	blb_dichoticlistening_pa-da.mp3	pa	da	1	other
6.6.3	ios	2023-06-02	07:13:33	0	0	63f5c99a1cecb4136b93f7db	1	1	DL_test	15	DL_test	19			0		ga	1	101	6	4	antiphase_hc_sio.wav	1	6	1	noise_calib_stim_LEFT.wav	1	3	blb_dichoticlistening_ba-ga.mp3	ba	ga	1	right
6.6.3	ios	2023-06-02	07:13:33	0	0	63f5c99a1cecb4136b93f7db	1	1	DL_test	15	DL_test	20			0		da	0	168	6	4	antiphase_hc_sio.wav	1	6	1	noise_calib_stim_LEFT.wav	1	15	blb_dichoticlistening_ga-ga.mp3	ga	ga	0	other
6.6.3	ios	2023-06-02	07:13:33	0	0	63f5c99a1cecb4136b93f7db	1	1	DL_test	15	DL_test	21			0		ka	0	218	6	4	antiphase_hc_sio.wav	1	6	1	noise_calib_stim_LEFT.wav	1	25	blb_dichoticlistening_pa-ba.mp3	pa	ba	1	other
6.6.3	ios	2023-06-02	07:13:33	0	0	63f5c99a1cecb4136b93f7db	1	1	DL_test	15	DL_test	22			0		ka	1	151	6	4	antiphase_hc_sio.wav	1	6	1	noise_calib_stim_LEFT.wav	1	20	blb_dichoticlistening_ka-da.mp3	ka	da	1	left
6.6.3	ios	2023-06-02	07:13:33	0	0	63f5c99a1cecb4136b93f7db	1	1	DL_test	15	DL_test	23			0		ga	0	10	6	4	antiphase_hc_sio.wav	1	6	1	noise_calib_stim_LEFT.wav	1	8	blb_dichoticlistening_da-da.mp3	da	da	0	other
6.6.3	ios	2023-06-02	07:13:33	0	0	63f5c99a1cecb4136b93f7db	1	1	DL_test	15	DL_test	24			0		da	1	417	6	4	antiphase_hc_sio.wav	1	6	1	noise_calib_stim_LEFT.wav	1	2	blb_dichoticlistening_ba-da.mp3	ba	da	1	right
6.6.3	ios	2023-06-02	07:13:33	0	0	63f5c99a1cecb4136b93f7db	1	1	DL_test	15	DL_test	25			0		ka	0	76	6	4	antiphase_hc_sio.wav	1	6	1	noise_calib_stim_LEFT.wav	1	32	blb_dichoticlistening_ta-da.mp3	ta	da	1	other
6.6.3	ios	2023-06-02	07:13:33	0	0	63f5c99a1cecb4136b93f7db	1	1	DL_test	15	DL_test	26			0		ka	1	292	6	4	antiphase_hc_sio.wav	1	6	1	noise_calib_stim_LEFT.wav	1	21	blb_dichoticlistening_ka-ga.mp3	ka	ga	1	left
6.6.3	ios	2023-06-02	07:13:33	0	0	63f5c99a1cecb4136b93f7db	1	1	DL_test	15	DL_test	27			0		ka	1	459	6	4	antiphase_hc_sio.wav	1	6	1	noise_calib_stim_LEFT.wav	1	22	blb_dichoticlistening_ka-ka.mp3	ka	ka	0	left
6.6.3	ios	2023-06-02	07:13:33	0	0	63f5c99a1cecb4136b93f7db	1	1	DL_test	15	DL_test	28			0		ka	1	102	6	4	antiphase_hc_sio.wav	1	6	1	noise_calib_stim_LEFT.wav	1	34	blb_dichoticlistening_ta-ka.mp3	ta	ka	1	right
6.6.3	ios	2023-06-02	07:13:33	0	0	63f5c99a1cecb4136b93f7db	1	1	DL_test	15	DL_test	29			0		ka	1	118	6	4	antiphase_hc_sio.wav	1	6	1	noise_calib_stim_LEFT.wav	1	4	blb_dichoticlistening_ba-ka.mp3	ba	ka	1	right
6.6.3	ios	2023-06-02	07:13:33	0	0	63f5c99a1cecb4136b93f7db	1	1	DL_test	15	DL_test	30			0		ga	0	18	6	4	antiphase_hc_sio.wav	1	6	1	noise_calib_stim_LEFT.wav	1	12	blb_dichoticlistening_da-ta.mp3	da	ta	1	other
6.6.3	ios	2023-06-02	07:13:33	0	0	63f5c99a1cecb4136b93f7db	1	1	DL_test	15	DL_test	31			0		ga	0	68	6	4	antiphase_hc_sio.wav	1	6	1	noise_calib_stim_LEFT.wav	1	6	blb_dichoticlistening_ba-ta.mp3	ba	ta	1	other
6.6.3	ios	2023-06-02	07:13:33	0	0	63f5c99a1cecb4136b93f7db	1	1	DL_test	15	DL_test	32			0		ga	0	68	6	4	antiphase_hc_sio.wav	1	6	1	noise_calib_stim_LEFT.wav	1	30	blb_dichoticlistening_pa-ta.mp3	pa	ta	1	other
6.6.3	ios	2023-06-02	07:13:33	0	0	63f5c99a1cecb4136b93f7db	1	1	DL_test	15	DL_test	33			0		ka	0	467	6	4	antiphase_hc_sio.wav	1	6	1	noise_calib_stim_LEFT.wav	1	9	blb_dichoticlistening_da-ga.mp3	da	ga	1	other
6.6.3	ios	2023-06-02	07:13:33	0	0	63f5c99a1cecb4136b93f7db	1	1	DL_test	15	DL_test	34			0		pa	0	434	6	4	antiphase_hc_sio.wav	1	6	1	noise_calib_stim_LEFT.wav	1	18	blb_dichoticlistening_ga-ta.mp3	ga	ta	1	other
6.6.3	ios	2023-06-02	07:13:33	0	0	63f5c99a1cecb4136b93f7db	1	1	DL_test	15	DL_test	35			0		ta	0	393	6	4	antiphase_hc_sio.wav	1	6	1	noise_calib_stim_LEFT.wav	1	5	blb_dichoticlistening_ba-pa.mp3	ba	pa	1	other
6.6.3	ios	2023-06-02	07:13:33	0	0	63f5c99a1cecb4136b93f7db	1	1	DL_test	15	DL_test	36			0		pa	0	150	6	4	antiphase_hc_sio.wav	1	6	1	noise_calib_stim_LEFT.wav	1	24	blb_dichoticlistening_ka-ta.mp3	ka	ta	1	other
6.6.3	ios	2023-06-02	07:13:33	0	0	63f5c99a1cecb4136b93f7db	1	1	DL_test	16	DL_test	1			0		ga	0	398	6	4	antiphase_hc_sio.wav	1	6	1	noise_calib_stim_LEFT.wav	1	4	blb_dichoticlistening_ba-ka.mp3	ba	ka	1	other
6.6.3	ios	2023-06-02	07:13:33	0	0	63f5c99a1cecb4136b93f7db	1	1	DL_test	16	DL_test	2			0		ga	0	409	6	4	antiphase_hc_sio.wav	1	6	1	noise_calib_stim_LEFT.wav	1	12	blb_dichoticlistening_da-ta.mp3	da	ta	1	other
6.6.3	ios	2023-06-02	07:13:33	0	0	63f5c99a1cecb4136b93f7db	1	1	DL_test	16	DL_test	3			0		ga	0	1057	6	4	antiphase_hc_sio.wav	1	6	1	noise_calib_stim_LEFT.wav	1	20	blb_dichoticlistening_ka-da.mp3	ka	da	1	other
6.6.3	ios	2023-06-02	07:13:33	0	0	63f5c99a1cecb4136b93f7db	1	1	DL_test	16	DL_test	4			0		da	0	107	6	4	antiphase_hc_sio.wav	1	6	1	noise_calib_stim_LEFT.wav	1	16	blb_dichoticlistening_ga-ka.mp3	ga	ka	1	other
6.6.3	ios	2023-06-02	07:13:33	0	0	63f5c99a1cecb4136b93f7db	1	1	DL_test	16	DL_test	5			0		ga	0	116	6	4	antiphase_hc_sio.wav	1	6	1	noise_calib_stim_LEFT.wav	1	36	blb_dichoticlistening_ta-ta.mp3	ta	ta	0	other
6.6.3	ios	2023-06-02	07:13:33	0	0	63f5c99a1cecb4136b93f7db	1	1	DL_test	16	DL_test	6			0		da	0	183	6	4	antiphase_hc_sio.wav	1	6	1	noise_calib_stim_LEFT.wav	1	5	blb_dichoticlistening_ba-pa.mp3	ba	pa	1	other
6.6.3	ios	2023-06-02	07:13:33	0	0	63f5c99a1cecb4136b93f7db	1	1	DL_test	16	DL_test	7			0		da	0	658	6	4	antiphase_hc_sio.wav	1	6	1	noise_calib_stim_LEFT.wav	1	21	blb_dichoticlistening_ka-ga.mp3	ka	ga	1	other
6.6.3	ios	2023-06-02	07:13:33	0	0	63f5c99a1cecb4136b93f7db	1	1	DL_test	16	DL_test	8			0		ka	0	226	6	4	antiphase_hc_sio.wav	1	6	1	noise_calib_stim_LEFT.wav	1	17	blb_dichoticlistening_ga-pa.mp3	ga	pa	1	other
6.6.3	ios	2023-06-02	07:13:33	0	0	63f5c99a1cecb4136b93f7db	1	1	DL_test	16	DL_test	9			0		da	1	59	6	4	antiphase_hc_sio.wav	1	6	1	noise_calib_stim_LEFT.wav	1	8	blb_dichoticlistening_da-da.mp3	da	da	0	left
6.6.3	ios	2023-06-02	07:13:33	0	0	63f5c99a1cecb4136b93f7db	1	1	DL_test	16	DL_test	10			0		pa	0	193	6	4	antiphase_hc_sio.wav	1	6	1	noise_calib_stim_LEFT.wav	1	13	blb_dichoticlistening_ga-ba.mp3	ga	ba	1	other
6.6.3	ios	2023-06-02	07:13:33	0	0	63f5c99a1cecb4136b93f7db	1	1	DL_test	16	DL_test	11			0		ga	0	550	6	4	antiphase_hc_sio.wav	1	6	1	noise_calib_stim_LEFT.wav	1	2	blb_dichoticlistening_ba-da.mp3	ba	da	1	other
6.6.3	ios	2023-06-02	07:13:33	0	0	63f5c99a1cecb4136b93f7db	1	1	DL_test	16	DL_test	12			0		pa	1	126	6	4	antiphase_hc_sio.wav	1	6	1	noise_calib_stim_LEFT.wav	1	29	blb_dichoticlistening_pa-pa.mp3	pa	pa	0	left
6.6.3	ios	2023-06-02	07:13:33	0	0	63f5c99a1cecb4136b93f7db	1	1	DL_test	16	DL_test	13			0		pa	0	267	6	4	antiphase_hc_sio.wav	1	6	1	noise_calib_stim_LEFT.wav	1	22	blb_dichoticlistening_ka-ka.mp3	ka	ka	0	other
6.6.3	ios	2023-06-02	07:13:33	0	0	63f5c99a1cecb4136b93f7db	1	1	DL_test	16	DL_test	14			0		pa	0	384	6	4	antiphase_hc_sio.wav	1	6	1	noise_calib_stim_LEFT.wav	1	7	blb_dichoticlistening_da-ba.mp3	da	ba	1	other
6.6.3	ios	2023-06-02	07:13:33	0	0	63f5c99a1cecb4136b93f7db	1	1	DL_test	16	DL_test	15			0		pa	0	43	6	4	antiphase_hc_sio.wav	1	6	1	noise_calib_stim_LEFT.wav	1	18	blb_dichoticlistening_ga-ta.mp3	ga	ta	1	other
6.6.3	ios	2023-06-02	07:13:33	0	0	63f5c99a1cecb4136b93f7db	1	1	DL_test	16	DL_test	16			0		pa	0	184	6	4	antiphase_hc_sio.wav	1	6	1	noise_calib_stim_LEFT.wav	1	34	blb_dichoticlistening_ta-ka.mp3	ta	ka	1	other
6.6.3	ios	2023-06-02	07:13:33	0	0	63f5c99a1cecb4136b93f7db	1	1	DL_test	16	DL_test	17			0		ka	0	184	6	4	antiphase_hc_sio.wav	1	6	1	noise_calib_stim_LEFT.wav	1	35	blb_dichoticlistening_ta-pa.mp3	ta	pa	1	other
6.6.3	ios	2023-06-02	07:13:33	0	0	63f5c99a1cecb4136b93f7db	1	1	DL_test	16	DL_test	18			0		ta	0	333	6	4	antiphase_hc_sio.wav	1	6	1	noise_calib_stim_LEFT.wav	1	10	blb_dichoticlistening_da-ka.mp3	da	ka	1	other
6.6.3	ios	2023-06-02	07:13:33	0	0	63f5c99a1cecb4136b93f7db	1	1	DL_test	16	DL_test	19			0		ga	1	900	6	4	antiphase_hc_sio.wav	1	6	1	noise_calib_stim_LEFT.wav	1	15	blb_dichoticlistening_ga-ga.mp3	ga	ga	0	left
6.6.3	ios	2023-06-02	07:13:33	0	0	63f5c99a1cecb4136b93f7db	1	1	DL_test	16	DL_test	20			0		ga	1	842	6	4	antiphase_hc_sio.wav	1	6	1	noise_calib_stim_LEFT.wav	1	33	blb_dichoticlistening_ta-ga.mp3	ta	ga	1	right
6.6.3	ios	2023-06-02	07:13:33	0	0	63f5c99a1cecb4136b93f7db	1	1	DL_test	16	DL_test	21			0		ga	1	716	6	4	antiphase_hc_sio.wav	1	6	1	noise_calib_stim_LEFT.wav	1	27	blb_dichoticlistening_pa-ga.mp3	pa	ga	1	right
6.6.3	ios	2023-06-02	07:13:33	0	0	63f5c99a1cecb4136b93f7db	1	1	DL_test	16	DL_test	22			0		da	1	975	6	4	antiphase_hc_sio.wav	1	6	1	noise_calib_stim_LEFT.wav	1	32	blb_dichoticlistening_ta-da.mp3	ta	da	1	right
6.6.3	ios	2023-06-02	07:13:33	0	0	63f5c99a1cecb4136b93f7db	1	1	DL_test	16	DL_test	23			0		da	0	26	6	4	antiphase_hc_sio.wav	1	6	1	noise_calib_stim_LEFT.wav	1	23	blb_dichoticlistening_ka-pa.mp3	ka	pa	1	other
6.6.3	ios	2023-06-02	07:13:33	0	0	63f5c99a1cecb4136b93f7db	1	1	DL_test	16	DL_test	24			0		ta	0	43	6	4	antiphase_hc_sio.wav	1	6	1	noise_calib_stim_LEFT.wav	1	26	blb_dichoticlistening_pa-da.mp3	pa	da	1	other
6.6.3	ios	2023-06-02	07:13:33	0	0	63f5c99a1cecb4136b93f7db	1	1	DL_test	16	DL_test	25			0		pa	0	134	6	4	antiphase_hc_sio.wav	1	6	1	noise_calib_stim_LEFT.wav	1	24	blb_dichoticlistening_ka-ta.mp3	ka	ta	1	other
6.6.3	ios	2023-06-02	07:13:33	0	0	63f5c99a1cecb4136b93f7db	1	1	DL_test	16	DL_test	26			0		ta	0	93	6	4	antiphase_hc_sio.wav	1	6	1	noise_calib_stim_LEFT.wav	1	19	blb_dichoticlistening_ka-ba.mp3	ka	ba	1	other
6.6.3	ios	2023-06-02	07:13:33	0	0	63f5c99a1cecb4136b93f7db	1	1	DL_test	16	DL_test	27			0		ba	0	10	6	4	antiphase_hc_sio.wav	1	6	1	noise_calib_stim_LEFT.wav	1	9	blb_dichoticlistening_da-ga.mp3	da	ga	1	other
6.6.3	ios	2023-06-02	07:13:33	0	0	63f5c99a1cecb4136b93f7db	1	1	DL_test	16	DL_test	28			0		pa	1	117	6	4	antiphase_hc_sio.wav	1	6	1	noise_calib_stim_LEFT.wav	1	30	blb_dichoticlistening_pa-ta.mp3	pa	ta	1	left
6.6.3	ios	2023-06-02	07:13:33	0	0	63f5c99a1cecb4136b93f7db	1	1	DL_test	16	DL_test	29			0		ta	1	67	6	4	antiphase_hc_sio.wav	1	6	1	noise_calib_stim_LEFT.wav	1	31	blb_dichoticlistening_ta-ba.mp3	ta	ba	1	left
6.6.3	ios	2023-06-02	07:13:33	0	0	63f5c99a1cecb4136b93f7db	1	1	DL_test	16	DL_test	30			0		ba	1	26	6	4	antiphase_hc_sio.wav	1	6	1	noise_calib_stim_LEFT.wav	1	25	blb_dichoticlistening_pa-ba.mp3	pa	ba	1	right
6.6.3	ios	2023-06-02	07:13:33	0	0	63f5c99a1cecb4136b93f7db	1	1	DL_test	16	DL_test	31			0		pa	0	17	6	4	antiphase_hc_sio.wav	1	6	1	noise_calib_stim_LEFT.wav	1	3	blb_dichoticlistening_ba-ga.mp3	ba	ga	1	other
6.6.3	ios	2023-06-02	07:13:33	0	0	63f5c99a1cecb4136b93f7db	1	1	DL_test	16	DL_test	32			0		ka	0	692	6	4	antiphase_hc_sio.wav	1	6	1	noise_calib_stim_LEFT.wav	1	1	blb_dichoticlistening_ba-ba.mp3	ba	ba	0	other
6.6.3	ios	2023-06-02	07:13:33	0	0	63f5c99a1cecb4136b93f7db	1	1	DL_test	16	DL_test	33			0		ka	1	1283	6	4	antiphase_hc_sio.wav	1	6	1	noise_calib_stim_LEFT.wav	1	28	blb_dichoticlistening_pa-ka.mp3	pa	ka	1	right
6.6.3	ios	2023-06-02	07:13:33	0	0	63f5c99a1cecb4136b93f7db	1	1	DL_test	16	DL_test	34			0		da	1	1009	6	4	antiphase_hc_sio.wav	1	6	1	noise_calib_stim_LEFT.wav	1	11	blb_dichoticlistening_da-pa.mp3	da	pa	1	left
6.6.3	ios	2023-06-02	07:13:33	0	0	63f5c99a1cecb4136b93f7db	1	1	DL_test	16	DL_test	35			0		ga	1	917	6	4	antiphase_hc_sio.wav	1	6	1	noise_calib_stim_LEFT.wav	1	14	blb_dichoticlistening_ga-da.mp3	ga	da	1	left
6.6.3	ios	2023-06-02	07:13:33	0	0	63f5c99a1cecb4136b93f7db	1	1	DL_test	16	DL_test	36			0		ba	1	650	6	4	antiphase_hc_sio.wav	1	6	1	noise_calib_stim_LEFT.wav	1	6	blb_dichoticlistening_ba-ta.mp3	ba	ta	1	left
6.6.3	ios	2023-06-02	07:13:33	07:21:13	436409	63f5c99a1cecb4136b93f7db	1	1	practice_slash	22	practice_slash	1	stimuli_target_squarediamonds.svg	stimuli_distractor_trianglediamonds.svg	5	yes	53	1	314	6	4	antiphase_hc_sio.wav	1	6	1	noise_calib_stim_LEFT.wav	1	6	blb_dichoticlistening_ba-ta.mp3	ba	ta	1	left
6.6.3	ios	2023-06-02	07:13:33	07:21:13	436409	63f5c99a1cecb4136b93f7db	1	1	practice_slash	22	advance_on_keypress_SLASH	2	stimuli_target_squarediamonds.svg	stimuli_distractor_trianglediamonds.svg	5	yes	57	0	23	6	4	antiphase_hc_sio.wav	1	6	1	noise_calib_stim_LEFT.wav	1	6	blb_dichoticlistening_ba-ta.mp3	ba	ta	1	left
6.6.3	ios	2023-06-02	07:13:33	07:21:15	438506	63f5c99a1cecb4136b93f7db	1	1	practice_slash	22	practice_slash	3	stimuli_target_rectanglediamonds.svg	stimuli_distractor_diamondtriangles.svg	1	yes	53	1	360	6	4	antiphase_hc_sio.wav	1	6	1	noise_calib_stim_LEFT.wav	1	6	blb_dichoticlistening_ba-ta.mp3	ba	ta	1	left
6.6.3	ios	2023-06-02	07:13:33	07:21:15	438506	63f5c99a1cecb4136b93f7db	1	1	practice_slash	22	advance_on_keypress_SLASH	4	stimuli_target_rectanglediamonds.svg	stimuli_distractor_diamondtriangles.svg	1	yes	57	0	97	6	4	antiphase_hc_sio.wav	1	6	1	noise_calib_stim_LEFT.wav	1	6	blb_dichoticlistening_ba-ta.mp3	ba	ta	1	left
6.6.3	ios	2023-06-02	07:13:33	07:21:17	440427	63f5c99a1cecb4136b93f7db	1	1	practice_slash	22	practice_slash	5	stimuli_target_diamondsquares.svg	stimuli_distractor_trianglediamonds.svg	6	yes	53	1	134	6	4	antiphase_hc_sio.wav	1	6	1	noise_calib_stim_LEFT.wav	1	6	blb_dichoticlistening_ba-ta.mp3	ba	ta	1	left
6.6.3	ios	2023-06-02	07:13:33	07:21:17	440427	63f5c99a1cecb4136b93f7db	1	1	practice_slash	22	advance_on_keypress_SLASH	6	stimuli_target_diamondsquares.svg	stimuli_distractor_trianglediamonds.svg	6	yes	57	0	156	6	4	antiphase_hc_sio.wav	1	6	1	noise_calib_stim_LEFT.wav	1	6	blb_dichoticlistening_ba-ta.mp3	ba	ta	1	left
6.6.3	ios	2023-06-02	07:13:33	07:21:19	442390	63f5c99a1cecb4136b93f7db	1	1	practice_slash	22	practice_slash	7	stimuli_distractor_diamondtriangles.svg	stimuli_target_rectangletriangles.svg	7	yes	53	1	135	6	4	antiphase_hc_sio.wav	1	6	1	noise_calib_stim_LEFT.wav	1	6	blb_dichoticlistening_ba-ta.mp3	ba	ta	1	left
6.6.3	ios	2023-06-02	07:13:33	07:21:19	442390	63f5c99a1cecb4136b93f7db	1	1	practice_slash	22	advance_on_keypress_SLASH	8	stimuli_distractor_diamondtriangles.svg	stimuli_target_rectangletriangles.svg	7	yes	57	0	122	6	4	antiphase_hc_sio.wav	1	6	1	noise_calib_stim_LEFT.wav	1	6	blb_dichoticlistening_ba-ta.mp3	ba	ta	1	left
6.6.3	ios	2023-06-02	07:13:33	07:21:20	444220	63f5c99a1cecb4136b93f7db	1	1	practice_slash	22	practice_slash	9	stimuli_distractor_diamondtriangles.svg	stimuli_target_trianglerectangles.svg	9	yes	53	1	36	6	4	antiphase_hc_sio.wav	1	6	1	noise_calib_stim_LEFT.wav	1	6	blb_dichoticlistening_ba-ta.mp3	ba	ta	1	left
6.6.3	ios	2023-06-02	07:13:33	07:21:20	444220	63f5c99a1cecb4136b93f7db	1	1	practice_slash	22	advance_on_keypress_SLASH	10	stimuli_distractor_diamondtriangles.svg	stimuli_target_trianglerectangles.svg	9	yes	57	0	18	6	4	antiphase_hc_sio.wav	1	6	1	noise_calib_stim_LEFT.wav	1	6	blb_dichoticlistening_ba-ta.mp3	ba	ta	1	left
6.6.3	ios	2023-06-02	07:13:33	07:21:23	446808	63f5c99a1cecb4136b93f7db	1	1	practice_slash	22	practice_slash	11	stimuli_distractor_trianglediamonds.svg	stimuli_target_diamondrectangles.svg	12	yes	53	1	858	6	4	antiphase_hc_sio.wav	1	6	1	noise_calib_stim_LEFT.wav	1	6	blb_dichoticlistening_ba-ta.mp3	ba	ta	1	left
6.6.3	ios	2023-06-02	07:13:33	07:21:23	446808	63f5c99a1cecb4136b93f7db	1	1	practice_slash	22	advance_on_keypress_SLASH	12	stimuli_distractor_trianglediamonds.svg	stimuli_target_diamondrectangles.svg	12	yes	57	0	114	6	4	antiphase_hc_sio.wav	1	6	1	noise_calib_stim_LEFT.wav	1	6	blb_dichoticlistening_ba-ta.mp3	ba	ta	1	left
6.6.3	ios	2023-06-02	07:13:33	07:21:25	448745	63f5c99a1cecb4136b93f7db	1	1	practice_slash	22	practice_slash	13	stimuli_distractor_trianglediamonds.svg	stimuli_target_squarediamonds.svg	11	yes	53	1	149	6	4	antiphase_hc_sio.wav	1	6	1	noise_calib_stim_LEFT.wav	1	6	blb_dichoticlistening_ba-ta.mp3	ba	ta	1	left
6.6.3	ios	2023-06-02	07:13:33	07:21:25	448745	63f5c99a1cecb4136b93f7db	1	1	practice_slash	22	advance_on_keypress_SLASH	14	stimuli_distractor_trianglediamonds.svg	stimuli_target_squarediamonds.svg	11	yes	57	0	1	6	4	antiphase_hc_sio.wav	1	6	1	noise_calib_stim_LEFT.wav	1	6	blb_dichoticlistening_ba-ta.mp3	ba	ta	1	left
6.6.3	ios	2023-06-02	07:13:33	07:21:27	450608	63f5c99a1cecb4136b93f7db	1	1	practice_slash	22	practice_slash	15	stimuli_distractor_trianglediamonds.svg	stimuli_target_rectanglediamonds.svg	10	yes	53	1	169	6	4	antiphase_hc_sio.wav	1	6	1	noise_calib_stim_LEFT.wav	1	6	blb_dichoticlistening_ba-ta.mp3	ba	ta	1	left
6.6.3	ios	2023-06-02	07:13:33	07:21:27	450608	63f5c99a1cecb4136b93f7db	1	1	practice_slash	22	advance_on_keypress_SLASH	16	stimuli_distractor_trianglediamonds.svg	stimuli_target_rectanglediamonds.svg	10	yes	57	0	48	6	4	antiphase_hc_sio.wav	1	6	1	noise_calib_stim_LEFT.wav	1	6	blb_dichoticlistening_ba-ta.mp3	ba	ta	1	left
6.6.3	ios	2023-06-02	07:13:33	07:21:29	452508	63f5c99a1cecb4136b93f7db	1	1	practice_slash	22	practice_slash	17	stimuli_distractor_diamondtriangles.svg	stimuli_distractor_trianglediamonds.svg	14	no	53	0	133	6	4	antiphase_hc_sio.wav	1	6	1	noise_calib_stim_LEFT.wav	1	6	blb_dichoticlistening_ba-ta.mp3	ba	ta	1	left
6.6.3	ios	2023-06-02	07:13:33	07:21:29	452508	63f5c99a1cecb4136b93f7db	1	1	practice_slash	22	advance_on_keypress_SLASH	18	stimuli_distractor_diamondtriangles.svg	stimuli_distractor_trianglediamonds.svg	14	no	57	0	47	6	4	antiphase_hc_sio.wav	1	6	1	noise_calib_stim_LEFT.wav	1	6	blb_dichoticlistening_ba-ta.mp3	ba	ta	1	left
6.6.3	ios	2023-06-02	07:13:33	07:21:31	454435	63f5c99a1cecb4136b93f7db	1	1	practice_slash	22	practice_slash	19	stimuli_target_diamondsquares.svg	stimuli_distractor_diamondtriangles.svg	3	yes	53	1	188	6	4	antiphase_hc_sio.wav	1	6	1	noise_calib_stim_LEFT.wav	1	6	blb_dichoticlistening_ba-ta.mp3	ba	ta	1	left
6.6.3	ios	2023-06-02	07:13:33	07:21:31	454435	63f5c99a1cecb4136b93f7db	1	1	practice_slash	22	advance_on_keypress_SLASH	20	stimuli_target_diamondsquares.svg	stimuli_distractor_diamondtriangles.svg	3	yes	57	0	23	6	4	antiphase_hc_sio.wav	1	6	1	noise_calib_stim_LEFT.wav	1	6	blb_dichoticlistening_ba-ta.mp3	ba	ta	1	left
6.6.3	ios	2023-06-02	07:13:33	07:21:33	456289	63f5c99a1cecb4136b93f7db	1	1	practice_slash	22	practice_slash	21	stimuli_target_squarediamonds.svg	stimuli_distractor_diamondtriangles.svg	2	yes	53	1	142	6	4	antiphase_hc_sio.wav	1	6	1	noise_calib_stim_LEFT.wav	1	6	blb_dichoticlistening_ba-ta.mp3	ba	ta	1	left
6.6.3	ios	2023-06-02	07:13:33	07:21:33	456289	63f5c99a1cecb4136b93f7db	1	1	practice_slash	22	advance_on_keypress_SLASH	22	stimuli_target_squarediamonds.svg	stimuli_distractor_diamondtriangles.svg	2	yes	57	0	63	6	4	antiphase_hc_sio.wav	1	6	1	noise_calib_stim_LEFT.wav	1	6	blb_dichoticlistening_ba-ta.mp3	ba	ta	1	left
6.6.3	ios	2023-06-02	07:13:33	07:21:34	458078	63f5c99a1cecb4136b93f7db	1	1	practice_slash	22	practice_slash	23	stimuli_distractor_trianglediamonds.svg	stimuli_distractor_trianglediamonds.svg	15	no	53	0	52	6	4	antiphase_hc_sio.wav	1	6	1	noise_calib_stim_LEFT.wav	1	6	blb_dichoticlistening_ba-ta.mp3	ba	ta	1	left
6.6.3	ios	2023-06-02	07:13:33	07:21:34	458078	63f5c99a1cecb4136b93f7db	1	1	practice_slash	22	advance_on_keypress_SLASH	24	stimuli_distractor_trianglediamonds.svg	stimuli_distractor_trianglediamonds.svg	15	no	57	0	182	6	4	antiphase_hc_sio.wav	1	6	1	noise_calib_stim_LEFT.wav	1	6	blb_dichoticlistening_ba-ta.mp3	ba	ta	1	left
6.6.3	ios	2023-06-02	07:13:33	07:21:36	460166	63f5c99a1cecb4136b93f7db	1	1	practice_slash	22	practice_slash	25	stimuli_distractor_diamondtriangles.svg	stimuli_distractor_diamondtriangles.svg	13	no	53	0	226	6	4	antiphase_hc_sio.wav	1	6	1	noise_calib_stim_LEFT.wav	1	6	blb_dichoticlistening_ba-ta.mp3	ba	ta	1	left
6.6.3	ios	2023-06-02	07:13:33	07:21:36	460166	63f5c99a1cecb4136b93f7db	1	1	practice_slash	22	advance_on_keypress_SLASH	26	stimuli_distractor_diamondtriangles.svg	stimuli_distractor_diamondtriangles.svg	13	no	57	0	105	6	4	antiphase_hc_sio.wav	1	6	1	noise_calib_stim_LEFT.wav	1	6	blb_dichoticlistening_ba-ta.mp3	ba	ta	1	left
6.6.3	ios	2023-06-02	07:13:33	07:21:38	461963	63f5c99a1cecb4136b93f7db	1	1	practice_slash	22	practice_slash	27	stimuli_target_rectanglediamonds.svg	stimuli_distractor_trianglediamonds.svg	4	yes	53	1	8	6	4	antiphase_hc_sio.wav	1	6	1	noise_calib_stim_LEFT.wav	1	6	blb_dichoticlistening_ba-ta.mp3	ba	ta	1	left
6.6.3	ios	2023-06-02	07:13:33	07:21:38	461963	63f5c99a1cecb4136b93f7db	1	1	practice_slash	22	advance_on_keypress_SLASH	28	stimuli_target_rectanglediamonds.svg	stimuli_distractor_trianglediamonds.svg	4	yes	57	0	80	6	4	antiphase_hc_sio.wav	1	6	1	noise_calib_stim_LEFT.wav	1	6	blb_dichoticlistening_ba-ta.mp3	ba	ta	1	left
6.6.3	ios	2023-06-02	07:13:33	07:21:40	463734	63f5c99a1cecb4136b93f7db	1	1	practice_slash	22	practice_slash	29	stimuli_distractor_diamondtriangles.svg	stimuli_target_diamondrectangles.svg	8	yes	53	1	16	6	4	antiphase_hc_sio.wav	1	6	1	noise_calib_stim_LEFT.wav	1	6	blb_dichoticlistening_ba-ta.mp3	ba	ta	1	left
6.6.3	ios	2023-06-02	07:13:33	07:21:40	463734	63f5c99a1cecb4136b93f7db	1	1	practice_slash	22	advance_on_keypress_SLASH	30	stimuli_distractor_diamondtriangles.svg	stimuli_target_diamondrectangles.svg	8	yes	57	0	22	6	4	antiphase_hc_sio.wav	1	6	1	noise_calib_stim_LEFT.wav	1	6	blb_dichoticlistening_ba-ta.mp3	ba	ta	1	left
6.6.3	ios	2023-06-02	07:13:33	07:21:42	465458	63f5c99a1cecb4136b93f7db	1	1	practice_slash	22	practice_slash	31	stimuli_distractor_trianglediamonds.svg	stimuli_distractor_diamondtriangles.svg	16	no	53	0	9	6	4	antiphase_hc_sio.wav	1	6	1	noise_calib_stim_LEFT.wav	1	6	blb_dichoticlistening_ba-ta.mp3	ba	ta	1	left
6.6.3	ios	2023-06-02	07:13:33	07:21:42	465458	63f5c99a1cecb4136b93f7db	1	1	practice_slash	22	advance_on_keypress_SLASH	32	stimuli_distractor_trianglediamonds.svg	stimuli_distractor_diamondtriangles.svg	16	no	57	0	51	6	4	antiphase_hc_sio.wav	1	6	1	noise_calib_stim_LEFT.wav	1	6	blb_dichoticlistening_ba-ta.mp3	ba	ta	1	left
6.6.3	ios	2023-06-02	07:13:33	07:21:43	467095	63f5c99a1cecb4136b93f7db	1	1	main_slash	24	main_slash	1	stimuli_distractor_diamondtriangles.svg	stimuli_target_diamondrectangles.svg	31	yes	53	1	88	6	4	antiphase_hc_sio.wav	1	6	1	noise_calib_stim_LEFT.wav	1	6	blb_dichoticlistening_ba-ta.mp3	ba	ta	1	left
6.6.3	ios	2023-06-02	07:13:33	07:21:43	467095	63f5c99a1cecb4136b93f7db	1	1	main_slash	24	advance_on_keypress_SLASH	2	stimuli_distractor_diamondtriangles.svg	stimuli_target_diamondrectangles.svg	31	yes	57	0	132	6	4	antiphase_hc_sio.wav	1	6	1	noise_calib_stim_LEFT.wav	1	6	blb_dichoticlistening_ba-ta.mp3	ba	ta	1	left
6.6.3	ios	2023-06-02	07:13:33	07:21:44	468068	63f5c99a1cecb4136b93f7db	1	1	main_slash	24	main_slash	3	stimuli_distractor_trianglediamonds.svg	stimuli_target_rectangletriangles.svg	9	yes	53	1	127	6	4	antiphase_hc_sio.wav	1	6	1	noise_calib_stim_LEFT.wav	1	6	blb_dichoticlistening_ba-ta.mp3	ba	ta	1	left
6.6.3	ios	2023-06-02	07:13:33	07:21:44	468068	63f5c99a1cecb4136b93f7db	1	1	main_slash	24	advance_on_keypress_SLASH	4	stimuli_distractor_trianglediamonds.svg	stimuli_target_rectangletriangles.svg	9	yes	57	0	147	6	4	antiphase_hc_sio.wav	1	6	1	noise_calib_stim_LEFT.wav	1	6	blb_dichoticlistening_ba-ta.mp3	ba	ta	1	left
6.6.3	ios	2023-06-02	07:13:33	07:21:45	469070	63f5c99a1cecb4136b93f7db	1	1	main_slash	24	main_slash	5	stimuli_distractor_trianglediamonds.svg	stimuli_target_trianglesquares.svg	26	yes	53	1	153	6	4	antiphase_hc_sio.wav	1	6	1	noise_calib_stim_LEFT.wav	1	6	blb_dichoticlistening_ba-ta.mp3	ba	ta	1	left
6.6.3	ios	2023-06-02	07:13:33	07:21:45	469070	63f5c99a1cecb4136b93f7db	1	1	main_slash	24	advance_on_keypress_SLASH	6	stimuli_distractor_trianglediamonds.svg	stimuli_target_trianglesquares.svg	26	yes	57	0	97	6	4	antiphase_hc_sio.wav	1	6	1	noise_calib_stim_LEFT.wav	1	6	blb_dichoticlistening_ba-ta.mp3	ba	ta	1	left
6.6.3	ios	2023-06-02	07:13:33	07:21:46	470034	63f5c99a1cecb4136b93f7db	1	1	main_slash	24	main_slash	7	stimuli_distractor_trianglediamonds.svg	stimuli_target_squarediamonds.svg	12	yes	53	1	160	6	4	antiphase_hc_sio.wav	1	6	1	noise_calib_stim_LEFT.wav	1	6	blb_dichoticlistening_ba-ta.mp3	ba	ta	1	left
6.6.3	ios	2023-06-02	07:13:33	07:21:46	470034	63f5c99a1cecb4136b93f7db	1	1	main_slash	24	advance_on_keypress_SLASH	8	stimuli_distractor_trianglediamonds.svg	stimuli_target_squarediamonds.svg	12	yes	57	0	122	6	4	antiphase_hc_sio.wav	1	6	1	noise_calib_stim_LEFT.wav	1	6	blb_dichoticlistening_ba-ta.mp3	ba	ta	1	left
6.6.3	ios	2023-06-02	07:13:33	07:21:47	470989	63f5c99a1cecb4136b93f7db	1	1	main_slash	24	main_slash	9	stimuli_distractor_trianglediamonds.svg	stimuli_target_diamondrectangles.svg	27	yes	53	1	119	6	4	antiphase_hc_sio.wav	1	6	1	noise_calib_stim_LEFT.wav	1	6	blb_dichoticlistening_ba-ta.mp3	ba	ta	1	left
6.6.3	ios	2023-06-02	07:13:33	07:21:47	470989	63f5c99a1cecb4136b93f7db	1	1	main_slash	24	advance_on_keypress_SLASH	10	stimuli_distractor_trianglediamonds.svg	stimuli_target_diamondrectangles.svg	27	yes	57	0	129	6	4	antiphase_hc_sio.wav	1	6	1	noise_calib_stim_LEFT.wav	1	6	blb_dichoticlistening_ba-ta.mp3	ba	ta	1	left
6.6.3	ios	2023-06-02	07:13:33	07:21:49	472444	63f5c99a1cecb4136b93f7db	1	1	main_slash	24	main_slash	11	stimuli_target_rectangletriangles.svg	stimuli_distractor_diamondtriangles.svg	5	yes	53	1	627	6	4	antiphase_hc_sio.wav	1	6	1	noise_calib_stim_LEFT.wav	1	6	blb_dichoticlistening_ba-ta.mp3	ba	ta	1	left
6.6.3	ios	2023-06-02	07:13:33	07:21:49	472444	63f5c99a1cecb4136b93f7db	1	1	main_slash	24	advance_on_keypress_SLASH	12	stimuli_target_rectangletriangles.svg	stimuli_distractor_diamondtriangles.svg	5	yes	57	0	1640	6	4	antiphase_hc_sio.wav	1	6	1	noise_calib_stim_LEFT.wav	1	6	blb_dichoticlistening_ba-ta.mp3	ba	ta	1	left
6.6.3	ios	2023-06-02	07:13:33	07:21:52	475249	63f5c99a1cecb4136b93f7db	1	1	main_slash	24	main_slash	13	stimuli_target_squarediamonds.svg	stimuli_distractor_trianglediamonds.svg	4	yes	53	1	468	6	4	antiphase_hc_sio.wav	1	6	1	noise_calib_stim_LEFT.wav	1	6	blb_dichoticlistening_ba-ta.mp3	ba	ta	1	left
6.6.3	ios	2023-06-02	07:13:33	07:21:52	475249	63f5c99a1cecb4136b93f7db	1	1	main_slash	24	advance_on_keypress_SLASH	14	stimuli_target_squarediamonds.svg	stimuli_distractor_trianglediamonds.svg	4	yes	57	0	104	6	4	antiphase_hc_sio.wav	1	6	1	noise_calib_stim_LEFT.wav	1	6	blb_dichoticlistening_ba-ta.mp3	ba	ta	1	left
6.6.3	ios	2023-06-02	07:13:33	07:21:53	476948	63f5c99a1cecb4136b93f7db	1	1	main_slash	24	main_slash	15	stimuli_distractor_diamondtriangles.svg	stimuli_target_diamondsquares.svg	32	yes	53	1	885	6	4	antiphase_hc_sio.wav	1	6	1	noise_calib_stim_LEFT.wav	1	6	blb_dichoticlistening_ba-ta.mp3	ba	ta	1	left
6.6.3	ios	2023-06-02	07:13:33	07:21:53	476948	63f5c99a1cecb4136b93f7db	1	1	main_slash	24	advance_on_keypress_SLASH	16	stimuli_distractor_diamondtriangles.svg	stimuli_target_diamondsquares.svg	32	yes	57	0	106	6	4	antiphase_hc_sio.wav	1	6	1	noise_calib_stim_LEFT.wav	1	6	blb_dichoticlistening_ba-ta.mp3	ba	ta	1	left
6.6.3	ios	2023-06-02	07:13:33	07:21:54	478227	63f5c99a1cecb4136b93f7db	1	1	main_slash	24	main_slash	17	stimuli_distractor_trianglediamonds.svg	stimuli_distractor_trianglediamonds.svg	33	no	53	0	469	6	4	antiphase_hc_sio.wav	1	6	1	noise_calib_stim_LEFT.wav	1	6	blb_dichoticlistening_ba-ta.mp3	ba	ta	1	left
6.6.3	ios	2023-06-02	07:13:33	07:21:54	478227	63f5c99a1cecb4136b93f7db	1	1	main_slash	24	advance_on_keypress_SLASH	18	stimuli_distractor_trianglediamonds.svg	stimuli_distractor_trianglediamonds.svg	33	no	57	0	121	6	4	antiphase_hc_sio.wav	1	6	1	noise_calib_stim_LEFT.wav	1	6	blb_dichoticlistening_ba-ta.mp3	ba	ta	1	left
6.6.3	ios	2023-06-02	07:13:33	07:21:56	479725	63f5c99a1cecb4136b93f7db	1	1	main_slash	24	main_slash	19	stimuli_target_trianglesquares.svg	stimuli_distractor_diamondtriangles.svg	22	yes	53	1	669	6	4	antiphase_hc_sio.wav	1	6	1	noise_calib_stim_LEFT.wav	1	6	blb_dichoticlistening_ba-ta.mp3	ba	ta	1	left
6.6.3	ios	2023-06-02	07:13:33	07:21:56	479725	63f5c99a1cecb4136b93f7db	1	1	main_slash	24	advance_on_keypress_SLASH	20	stimuli_target_trianglesquares.svg	stimuli_distractor_diamondtriangles.svg	22	yes	57	0	172	6	4	antiphase_hc_sio.wav	1	6	1	noise_calib_stim_LEFT.wav	1	6	blb_dichoticlistening_ba-ta.mp3	ba	ta	1	left
6.6.3	ios	2023-06-02	07:13:33	07:21:57	480814	63f5c99a1cecb4136b93f7db	1	1	main_slash	24	main_slash	21	stimuli_target_diamondsquares.svg	stimuli_distractor_trianglediamonds.svg	20	yes	53	1	209	6	4	antiphase_hc_sio.wav	1	6	1	noise_calib_stim_LEFT.wav	1	6	blb_dichoticlistening_ba-ta.mp3	ba	ta	1	left
6.6.3	ios	2023-06-02	07:13:33	07:21:57	480814	63f5c99a1cecb4136b93f7db	1	1	main_slash	24	advance_on_keypress_SLASH	22	stimuli_target_diamondsquares.svg	stimuli_distractor_trianglediamonds.svg	20	yes	57	0	1441	6	4	antiphase_hc_sio.wav	1	6	1	noise_calib_stim_LEFT.wav	1	6	blb_dichoticlistening_ba-ta.mp3	ba	ta	1	left
6.6.3	ios	2023-06-02	07:13:33	07:21:59	483128	63f5c99a1cecb4136b93f7db	1	1	main_slash	24	main_slash	23	stimuli_distractor_trianglediamonds.svg	stimuli_distractor_diamondtriangles.svg	35	no	53	0	177	6	4	antiphase_hc_sio.wav	1	6	1	noise_calib_stim_LEFT.wav	1	6	blb_dichoticlistening_ba-ta.mp3	ba	ta	1	left
6.6.3	ios	2023-06-02	07:13:33	07:21:59	483128	63f5c99a1cecb4136b93f7db	1	1	main_slash	24	advance_on_keypress_SLASH	24	stimuli_distractor_trianglediamonds.svg	stimuli_distractor_diamondtriangles.svg	35	no	57	0	172	6	4	antiphase_hc_sio.wav	1	6	1	noise_calib_stim_LEFT.wav	1	6	blb_dichoticlistening_ba-ta.mp3	ba	ta	1	left
6.6.3	ios	2023-06-02	07:13:33	07:22:00	484175	63f5c99a1cecb4136b93f7db	1	1	main_slash	24	main_slash	25	stimuli_target_squaretriangles.svg	stimuli_distractor_trianglediamonds.svg	3	yes	53	1	177	6	4	antiphase_hc_sio.wav	1	6	1	noise_calib_stim_LEFT.wav	1	6	blb_dichoticlistening_ba-ta.mp3	ba	ta	1	left
6.6.3	ios	2023-06-02	07:13:33	07:22:00	484175	63f5c99a1cecb4136b93f7db	1	1	main_slash	24	advance_on_keypress_SLASH	26	stimuli_target_squaretriangles.svg	stimuli_distractor_trianglediamonds.svg	3	yes	57	0	147	6	4	antiphase_hc_sio.wav	1	6	1	noise_calib_stim_LEFT.wav	1	6	blb_dichoticlistening_ba-ta.mp3	ba	ta	1	left
6.6.3	ios	2023-06-02	07:13:33	07:22:01	485198	63f5c99a1cecb4136b93f7db	1	1	main_slash	24	main_slash	27	stimuli_target_rectangletriangles.svg	stimuli_distractor_trianglediamonds.svg	1	yes	53	1	186	6	4	antiphase_hc_sio.wav	1	6	1	noise_calib_stim_LEFT.wav	1	6	blb_dichoticlistening_ba-ta.mp3	ba	ta	1	left
6.6.3	ios	2023-06-02	07:13:33	07:22:01	485198	63f5c99a1cecb4136b93f7db	1	1	main_slash	24	advance_on_keypress_SLASH	28	stimuli_target_rectangletriangles.svg	stimuli_distractor_trianglediamonds.svg	1	yes	57	0	130	6	4	antiphase_hc_sio.wav	1	6	1	noise_calib_stim_LEFT.wav	1	6	blb_dichoticlistening_ba-ta.mp3	ba	ta	1	left
6.6.3	ios	2023-06-02	07:13:33	07:22:04	487356	63f5c99a1cecb4136b93f7db	1	1	main_slash	24	main_slash	29	stimuli_distractor_trianglediamonds.svg	stimuli_target_rectanglediamonds.svg	10	yes	53	1	1326	6	4	antiphase_hc_sio.wav	1	6	1	noise_calib_stim_LEFT.wav	1	6	blb_dichoticlistening_ba-ta.mp3	ba	ta	1	left
6.6.3	ios	2023-06-02	07:13:33	07:22:04	487356	63f5c99a1cecb4136b93f7db	1	1	main_slash	24	advance_on_keypress_SLASH	30	stimuli_distractor_trianglediamonds.svg	stimuli_target_rectanglediamonds.svg	10	yes	57	0	106	6	4	antiphase_hc_sio.wav	1	6	1	noise_calib_stim_LEFT.wav	1	6	blb_dichoticlistening_ba-ta.mp3	ba	ta	1	left
6.6.3	ios	2023-06-02	07:13:33	07:22:05	488419	63f5c99a1cecb4136b93f7db	1	1	main_slash	24	main_slash	31	stimuli_target_trianglerectangles.svg	stimuli_distractor_trianglediamonds.svg	17	yes	53	1	227	6	4	antiphase_hc_sio.wav	1	6	1	noise_calib_stim_LEFT.wav	1	6	blb_dichoticlistening_ba-ta.mp3	ba	ta	1	left
6.6.3	ios	2023-06-02	07:13:33	07:22:05	488419	63f5c99a1cecb4136b93f7db	1	1	main_slash	24	advance_on_keypress_SLASH	32	stimuli_target_trianglerectangles.svg	stimuli_distractor_trianglediamonds.svg	17	yes	57	0	631	6	4	antiphase_hc_sio.wav	1	6	1	noise_calib_stim_LEFT.wav	1	6	blb_dichoticlistening_ba-ta.mp3	ba	ta	1	left
6.6.3	ios	2023-06-02	07:13:33	07:22:06	489916	63f5c99a1cecb4136b93f7db	1	1	main_slash	24	main_slash	33	stimuli_target_trianglesquares.svg	stimuli_distractor_trianglediamonds.svg	18	yes	53	1	142	6	4	antiphase_hc_sio.wav	1	6	1	noise_calib_stim_LEFT.wav	1	6	blb_dichoticlistening_ba-ta.mp3	ba	ta	1	left
6.6.3	ios	2023-06-02	07:13:33	07:22:06	489916	63f5c99a1cecb4136b93f7db	1	1	main_slash	24	advance_on_keypress_SLASH	34	stimuli_target_trianglesquares.svg	stimuli_distractor_trianglediamonds.svg	18	yes	57	0	264	6	4	antiphase_hc_sio.wav	1	6	1	noise_calib_stim_LEFT.wav	1	6	blb_dichoticlistening_ba-ta.mp3	ba	ta	1	left
6.6.3	ios	2023-06-02	07:13:33	07:22:07	491139	63f5c99a1cecb4136b93f7db	1	1	main_slash	24	main_slash	35	stimuli_target_squarediamonds.svg	stimuli_distractor_diamondtriangles.svg	8	yes	53	1	268	6	4	antiphase_hc_sio.wav	1	6	1	noise_calib_stim_LEFT.wav	1	6	blb_dichoticlistening_ba-ta.mp3	ba	ta	1	left
6.6.3	ios	2023-06-02	07:13:33	07:22:07	491139	63f5c99a1cecb4136b93f7db	1	1	main_slash	24	advance_on_keypress_SLASH	36	stimuli_target_squarediamonds.svg	stimuli_distractor_diamondtriangles.svg	8	yes	57	0	214	6	4	antiphase_hc_sio.wav	1	6	1	noise_calib_stim_LEFT.wav	1	6	blb_dichoticlistening_ba-ta.mp3	ba	ta	1	left
6.6.3	ios	2023-06-02	07:13:33	07:22:08	492115	63f5c99a1cecb4136b93f7db	1	1	main_slash	24	main_slash	37	stimuli_distractor_trianglediamonds.svg	stimuli_target_diamondsquares.svg	28	yes	53	1	31	6	4	antiphase_hc_sio.wav	1	6	1	noise_calib_stim_LEFT.wav	1	6	blb_dichoticlistening_ba-ta.mp3	ba	ta	1	left
6.6.3	ios	2023-06-02	07:13:33	07:22:08	492115	63f5c99a1cecb4136b93f7db	1	1	main_slash	24	advance_on_keypress_SLASH	38	stimuli_distractor_trianglediamonds.svg	stimuli_target_diamondsquares.svg	28	yes	57	0	130	6	4	antiphase_hc_sio.wav	1	6	1	noise_calib_stim_LEFT.wav	1	6	blb_dichoticlistening_ba-ta.mp3	ba	ta	1	left
6.6.3	ios	2023-06-02	07:13:33	07:22:09	493114	63f5c99a1cecb4136b93f7db	1	1	main_slash	24	main_slash	39	stimuli_distractor_diamondtriangles.svg	stimuli_distractor_diamondtriangles.svg	39	no	53	0	151	6	4	antiphase_hc_sio.wav	1	6	1	noise_calib_stim_LEFT.wav	1	6	blb_dichoticlistening_ba-ta.mp3	ba	ta	1	left
6.6.3	ios	2023-06-02	07:13:33	07:22:09	493114	63f5c99a1cecb4136b93f7db	1	1	main_slash	24	advance_on_keypress_SLASH	40	stimuli_distractor_diamondtriangles.svg	stimuli_distractor_diamondtriangles.svg	39	no	57	0	114	6	4	antiphase_hc_sio.wav	1	6	1	noise_calib_stim_LEFT.wav	1	6	blb_dichoticlistening_ba-ta.mp3	ba	ta	1	left
6.6.3	ios	2023-06-02	07:13:33	07:22:10	494043	63f5c99a1cecb4136b93f7db	1	1	main_slash	24	main_slash	41	stimuli_target_diamondrectangles.svg	stimuli_distractor_diamondtriangles.svg	23	yes	53	1	111	6	4	antiphase_hc_sio.wav	1	6	1	noise_calib_stim_LEFT.wav	1	6	blb_dichoticlistening_ba-ta.mp3	ba	ta	1	left
6.6.3	ios	2023-06-02	07:13:33	07:22:10	494043	63f5c99a1cecb4136b93f7db	1	1	main_slash	24	advance_on_keypress_SLASH	42	stimuli_target_diamondrectangles.svg	stimuli_distractor_diamondtriangles.svg	23	yes	57	0	138	6	4	antiphase_hc_sio.wav	1	6	1	noise_calib_stim_LEFT.wav	1	6	blb_dichoticlistening_ba-ta.mp3	ba	ta	1	left
6.6.3	ios	2023-06-02	07:13:33	07:22:11	494982	63f5c99a1cecb4136b93f7db	1	1	main_slash	24	main_slash	43	stimuli_distractor_diamondtriangles.svg	stimuli_target_rectangletriangles.svg	13	yes	53	1	102	6	4	antiphase_hc_sio.wav	1	6	1	noise_calib_stim_LEFT.wav	1	6	blb_dichoticlistening_ba-ta.mp3	ba	ta	1	left
6.6.3	ios	2023-06-02	07:13:33	07:22:11	494982	63f5c99a1cecb4136b93f7db	1	1	main_slash	24	advance_on_keypress_SLASH	44	stimuli_distractor_diamondtriangles.svg	stimuli_target_rectangletriangles.svg	13	yes	57	0	122	6	4	antiphase_hc_sio.wav	1	6	1	noise_calib_stim_LEFT.wav	1	6	blb_dichoticlistening_ba-ta.mp3	ba	ta	1	left
6.6.3	ios	2023-06-02	07:13:33	07:22:12	495913	63f5c99a1cecb4136b93f7db	1	1	main_slash	24	main_slash	45	stimuli_target_squaretriangles.svg	stimuli_distractor_diamondtriangles.svg	7	yes	53	1	103	6	4	antiphase_hc_sio.wav	1	6	1	noise_calib_stim_LEFT.wav	1	6	blb_dichoticlistening_ba-ta.mp3	ba	ta	1	left
6.6.3	ios	2023-06-02	07:13:33	07:22:12	495913	63f5c99a1cecb4136b93f7db	1	1	main_slash	24	advance_on_keypress_SLASH	46	stimuli_target_squaretriangles.svg	stimuli_distractor_diamondtriangles.svg	7	yes	57	0	122	6	4	antiphase_hc_sio.wav	1	6	1	noise_calib_stim_LEFT.wav	1	6	blb_dichoticlistening_ba-ta.mp3	ba	ta	1	left
6.6.3	ios	2023-06-02	07:13:33	07:22:13	496829	63f5c99a1cecb4136b93f7db	1	1	main_slash	24	main_slash	47	stimuli_distractor_trianglediamonds.svg	stimuli_distractor_diamondtriangles.svg	36	no	53	0	86	6	4	antiphase_hc_sio.wav	1	6	1	noise_calib_stim_LEFT.wav	1	6	blb_dichoticlistening_ba-ta.mp3	ba	ta	1	left
6.6.3	ios	2023-06-02	07:13:33	07:22:13	496829	63f5c99a1cecb4136b93f7db	1	1	main_slash	24	advance_on_keypress_SLASH	48	stimuli_distractor_trianglediamonds.svg	stimuli_distractor_diamondtriangles.svg	36	no	57	0	137	6	4	antiphase_hc_sio.wav	1	6	1	noise_calib_stim_LEFT.wav	1	6	blb_dichoticlistening_ba-ta.mp3	ba	ta	1	left
6.6.3	ios	2023-06-02	07:13:33	07:22:14	497794	63f5c99a1cecb4136b93f7db	1	1	main_slash	24	main_slash	49	stimuli_distractor_diamondtriangles.svg	stimuli_target_trianglerectangles.svg	29	yes	53	1	104	6	4	antiphase_hc_sio.wav	1	6	1	noise_calib_stim_LEFT.wav	1	6	blb_dichoticlistening_ba-ta.mp3	ba	ta	1	left
6.6.3	ios	2023-06-02	07:13:33	07:22:14	497794	63f5c99a1cecb4136b93f7db	1	1	main_slash	24	advance_on_keypress_SLASH	50	stimuli_distractor_diamondtriangles.svg	stimuli_target_trianglerectangles.svg	29	yes	57	0	121	6	4	antiphase_hc_sio.wav	1	6	1	noise_calib_stim_LEFT.wav	1	6	blb_dichoticlistening_ba-ta.mp3	ba	ta	1	left
6.6.3	ios	2023-06-02	07:13:33	07:22:16	499608	63f5c99a1cecb4136b93f7db	1	1	main_slash	24	main_slash	51	stimuli_distractor_trianglediamonds.svg	stimuli_target_trianglerectangles.svg	25	yes	53	1	984	6	4	antiphase_hc_sio.wav	1	6	1	noise_calib_stim_LEFT.wav	1	6	blb_dichoticlistening_ba-ta.mp3	ba	ta	1	left
6.6.3	ios	2023-06-02	07:13:33	07:22:16	499608	63f5c99a1cecb4136b93f7db	1	1	main_slash	24	advance_on_keypress_SLASH	52	stimuli_distractor_trianglediamonds.svg	stimuli_target_trianglerectangles.svg	25	yes	57	0	405	6	4	antiphase_hc_sio.wav	1	6	1	noise_calib_stim_LEFT.wav	1	6	blb_dichoticlistening_ba-ta.mp3	ba	ta	1	left
6.6.3	ios	2023-06-02	07:13:33	07:22:17	500838	63f5c99a1cecb4136b93f7db	1	1	main_slash	24	main_slash	53	stimuli_target_rectanglediamonds.svg	stimuli_distractor_diamondtriangles.svg	6	yes	53	1	118	6	4	antiphase_hc_sio.wav	1	6	1	noise_calib_stim_LEFT.wav	1	6	blb_dichoticlistening_ba-ta.mp3	ba	ta	1	left
6.6.3	ios	2023-06-02	07:13:33	07:22:17	500838	63f5c99a1cecb4136b93f7db	1	1	main_slash	24	advance_on_keypress_SLASH	54	stimuli_target_rectanglediamonds.svg	stimuli_distractor_diamondtriangles.svg	6	yes	57	0	121	6	4	antiphase_hc_sio.wav	1	6	1	noise_calib_stim_LEFT.wav	1	6	blb_dichoticlistening_ba-ta.mp3	ba	ta	1	left
6.6.3	ios	2023-06-02	07:13:33	07:22:18	501811	63f5c99a1cecb4136b93f7db	1	1	main_slash	24	main_slash	55	stimuli_distractor_diamondtriangles.svg	stimuli_distractor_diamondtriangles.svg	40	no	53	0	141	6	4	antiphase_hc_sio.wav	1	6	1	noise_calib_stim_LEFT.wav	1	6	blb_dichoticlistening_ba-ta.mp3	ba	ta	1	left
6.6.3	ios	2023-06-02	07:13:33	07:22:18	501811	63f5c99a1cecb4136b93f7db	1	1	main_slash	24	advance_on_keypress_SLASH	56	stimuli_distractor_diamondtriangles.svg	stimuli_distractor_diamondtriangles.svg	40	no	57	0	114	6	4	antiphase_hc_sio.wav	1	6	1	noise_calib_stim_LEFT.wav	1	6	blb_dichoticlistening_ba-ta.mp3	ba	ta	1	left
6.6.3	ios	2023-06-02	07:13:33	07:22:19	502669	63f5c99a1cecb4136b93f7db	1	1	main_slash	24	main_slash	57	stimuli_distractor_trianglediamonds.svg	stimuli_distractor_trianglediamonds.svg	34	no	53	0	53	6	4	antiphase_hc_sio.wav	1	6	1	noise_calib_stim_LEFT.wav	1	6	blb_dichoticlistening_ba-ta.mp3	ba	ta	1	left
6.6.3	ios	2023-06-02	07:13:33	07:22:19	502669	63f5c99a1cecb4136b93f7db	1	1	main_slash	24	advance_on_keypress_SLASH	58	stimuli_distractor_trianglediamonds.svg	stimuli_distractor_trianglediamonds.svg	34	no	57	0	114	6	4	antiphase_hc_sio.wav	1	6	1	noise_calib_stim_LEFT.wav	1	6	blb_dichoticlistening_ba-ta.mp3	ba	ta	1	left
6.6.3	ios	2023-06-02	07:13:33	07:22:20	503584	63f5c99a1cecb4136b93f7db	1	1	main_slash	24	main_slash	59	stimuli_distractor_diamondtriangles.svg	stimuli_target_trianglesquares.svg	30	yes	53	1	88	6	4	antiphase_hc_sio.wav	1	6	1	noise_calib_stim_LEFT.wav	1	6	blb_dichoticlistening_ba-ta.mp3	ba	ta	1	left
6.6.3	ios	2023-06-02	07:13:33	07:22:20	503584	63f5c99a1cecb4136b93f7db	1	1	main_slash	24	advance_on_keypress_SLASH	60	stimuli_distractor_diamondtriangles.svg	stimuli_target_trianglesquares.svg	30	yes	57	0	130	6	4	antiphase_hc_sio.wav	1	6	1	noise_calib_stim_LEFT.wav	1	6	blb_dichoticlistening_ba-ta.mp3	ba	ta	1	left
6.6.3	ios	2023-06-02	07:13:33	07:22:21	504477	63f5c99a1cecb4136b93f7db	1	1	main_slash	24	main_slash	61	stimuli_distractor_diamondtriangles.svg	stimuli_target_rectanglediamonds.svg	14	yes	53	1	59	6	4	antiphase_hc_sio.wav	1	6	1	noise_calib_stim_LEFT.wav	1	6	blb_dichoticlistening_ba-ta.mp3	ba	ta	1	left
6.6.3	ios	2023-06-02	07:13:33	07:22:21	504477	63f5c99a1cecb4136b93f7db	1	1	main_slash	24	advance_on_keypress_SLASH	62	stimuli_distractor_diamondtriangles.svg	stimuli_target_rectanglediamonds.svg	14	yes	57	0	131	6	4	antiphase_hc_sio.wav	1	6	1	noise_calib_stim_LEFT.wav	1	6	blb_dichoticlistening_ba-ta.mp3	ba	ta	1	left
6.6.3	ios	2023-06-02	07:13:33	07:22:22	505398	63f5c99a1cecb4136b93f7db	1	1	main_slash	24	main_slash	63	stimuli_distractor_diamondtriangles.svg	stimuli_target_squaretriangles.svg	15	yes	53	1	86	6	4	antiphase_hc_sio.wav	1	6	1	noise_calib_stim_LEFT.wav	1	6	blb_dichoticlistening_ba-ta.mp3	ba	ta	1	left
6.6.3	ios	2023-06-02	07:13:33	07:22:22	505398	63f5c99a1cecb4136b93f7db	1	1	main_slash	24	advance_on_keypress_SLASH	64	stimuli_distractor_diamondtriangles.svg	stimuli_target_squaretriangles.svg	15	yes	57	0	138	6	4	antiphase_hc_sio.wav	1	6	1	noise_calib_stim_LEFT.wav	1	6	blb_dichoticlistening_ba-ta.mp3	ba	ta	1	left
6.6.3	ios	2023-06-02	07:13:33	07:22:23	506687	63f5c99a1cecb4136b93f7db	1	1	main_slash	24	main_slash	65	stimuli_target_trianglerectangles.svg	stimuli_distractor_diamondtriangles.svg	21	yes	53	1	442	6	4	antiphase_hc_sio.wav	1	6	1	noise_calib_stim_LEFT.wav	1	6	blb_dichoticlistening_ba-ta.mp3	ba	ta	1	left
6.6.3	ios	2023-06-02	07:13:33	07:22:23	506687	63f5c99a1cecb4136b93f7db	1	1	main_slash	24	advance_on_keypress_SLASH	66	stimuli_target_trianglerectangles.svg	stimuli_distractor_diamondtriangles.svg	21	yes	57	0	132	6	4	antiphase_hc_sio.wav	1	6	1	noise_calib_stim_LEFT.wav	1	6	blb_dichoticlistening_ba-ta.mp3	ba	ta	1	left
6.6.3	ios	2023-06-02	07:13:33	07:22:24	507593	63f5c99a1cecb4136b93f7db	1	1	main_slash	24	main_slash	67	stimuli_distractor_diamondtriangles.svg	stimuli_distractor_trianglediamonds.svg	38	no	53	0	83	6	4	antiphase_hc_sio.wav	1	6	1	noise_calib_stim_LEFT.wav	1	6	blb_dichoticlistening_ba-ta.mp3	ba	ta	1	left
6.6.3	ios	2023-06-02	07:13:33	07:22:24	507593	63f5c99a1cecb4136b93f7db	1	1	main_slash	24	advance_on_keypress_SLASH	68	stimuli_distractor_diamondtriangles.svg	stimuli_distractor_trianglediamonds.svg	38	no	57	0	114	6	4	antiphase_hc_sio.wav	1	6	1	noise_calib_stim_LEFT.wav	1	6	blb_dichoticlistening_ba-ta.mp3	ba	ta	1	left
6.6.3	ios	2023-06-02	07:13:33	07:22:25	508476	63f5c99a1cecb4136b93f7db	1	1	main_slash	24	main_slash	69	stimuli_target_rectanglediamonds.svg	stimuli_distractor_trianglediamonds.svg	2	yes	53	1	69	6	4	antiphase_hc_sio.wav	1	6	1	noise_calib_stim_LEFT.wav	1	6	blb_dichoticlistening_ba-ta.mp3	ba	ta	1	left
6.6.3	ios	2023-06-02	07:13:33	07:22:25	508476	63f5c99a1cecb4136b93f7db	1	1	main_slash	24	advance_on_keypress_SLASH	70	stimuli_target_rectanglediamonds.svg	stimuli_distractor_trianglediamonds.svg	2	yes	57	0	97	6	4	antiphase_hc_sio.wav	1	6	1	noise_calib_stim_LEFT.wav	1	6	blb_dichoticlistening_ba-ta.mp3	ba	ta	1	left
6.6.3	ios	2023-06-02	07:13:33	07:22:26	509390	63f5c99a1cecb4136b93f7db	1	1	main_slash	24	main_slash	71	stimuli_distractor_diamondtriangles.svg	stimuli_target_squarediamonds.svg	16	yes	53	1	104	6	4	antiphase_hc_sio.wav	1	6	1	noise_calib_stim_LEFT.wav	1	6	blb_dichoticlistening_ba-ta.mp3	ba	ta	1	left
6.6.3	ios	2023-06-02	07:13:33	07:22:26	509390	63f5c99a1cecb4136b93f7db	1	1	main_slash	24	advance_on_keypress_SLASH	72	stimuli_distractor_diamondtriangles.svg	stimuli_target_squarediamonds.svg	16	yes	57	0	104	6	4	antiphase_hc_sio.wav	1	6	1	noise_calib_stim_LEFT.wav	1	6	blb_dichoticlistening_ba-ta.mp3	ba	ta	1	left
6.6.3	ios	2023-06-02	07:13:33	07:22:27	510314	63f5c99a1cecb4136b93f7db	1	1	main_slash	24	main_slash	73	stimuli_distractor_diamondtriangles.svg	stimuli_distractor_trianglediamonds.svg	37	no	53	0	95	6	4	antiphase_hc_sio.wav	1	6	1	noise_calib_stim_LEFT.wav	1	6	blb_dichoticlistening_ba-ta.mp3	ba	ta	1	left
6.6.3	ios	2023-06-02	07:13:33	07:22:27	510314	63f5c99a1cecb4136b93f7db	1	1	main_slash	24	advance_on_keypress_SLASH	74	stimuli_distractor_diamondtriangles.svg	stimuli_distractor_trianglediamonds.svg	37	no	57	0	147	6	4	antiphase_hc_sio.wav	1	6	1	noise_calib_stim_LEFT.wav	1	6	blb_dichoticlistening_ba-ta.mp3	ba	ta	1	left
6.6.3	ios	2023-06-02	07:13:33	07:22:28	511246	63f5c99a1cecb4136b93f7db	1	1	main_slash	24	main_slash	75	stimuli_distractor_trianglediamonds.svg	stimuli_target_squaretriangles.svg	11	yes	53	1	94	6	4	antiphase_hc_sio.wav	1	6	1	noise_calib_stim_LEFT.wav	1	6	blb_dichoticlistening_ba-ta.mp3	ba	ta	1	left
6.6.3	ios	2023-06-02	07:13:33	07:22:28	511246	63f5c99a1cecb4136b93f7db	1	1	main_slash	24	advance_on_keypress_SLASH	76	stimuli_distractor_trianglediamonds.svg	stimuli_target_squaretriangles.svg	11	yes	57	0	139	6	4	antiphase_hc_sio.wav	1	6	1	noise_calib_stim_LEFT.wav	1	6	blb_dichoticlistening_ba-ta.mp3	ba	ta	1	left
6.6.3	ios	2023-06-02	07:13:33	07:22:28	512161	63f5c99a1cecb4136b93f7db	1	1	main_slash	24	main_slash	77	stimuli_target_diamondsquares.svg	stimuli_distractor_diamondtriangles.svg	24	yes	53	1	77	6	4	antiphase_hc_sio.wav	1	6	1	noise_calib_stim_LEFT.wav	1	6	blb_dichoticlistening_ba-ta.mp3	ba	ta	1	left
6.6.3	ios	2023-06-02	07:13:33	07:22:28	512161	63f5c99a1cecb4136b93f7db	1	1	main_slash	24	advance_on_keypress_SLASH	78	stimuli_target_diamondsquares.svg	stimuli_distractor_diamondtriangles.svg	24	yes	57	0	130	6	4	antiphase_hc_sio.wav	1	6	1	noise_calib_stim_LEFT.wav	1	6	blb_dichoticlistening_ba-ta.mp3	ba	ta	1	left
6.6.3	ios	2023-06-02	07:13:33	07:22:29	513092	63f5c99a1cecb4136b93f7db	1	1	main_slash	24	main_slash	79	stimuli_target_diamondrectangles.svg	stimuli_distractor_trianglediamonds.svg	19	yes	53	1	110	6	4	antiphase_hc_sio.wav	1	6	1	noise_calib_stim_LEFT.wav	1	6	blb_dichoticlistening_ba-ta.mp3	ba	ta	1	left
6.6.3	ios	2023-06-02	07:13:33	07:22:29	513092	63f5c99a1cecb4136b93f7db	1	1	main_slash	24	advance_on_keypress_SLASH	80	stimuli_target_diamondrectangles.svg	stimuli_distractor_trianglediamonds.svg	19	yes	57	0	130	6	4	antiphase_hc_sio.wav	1	6	1	noise_calib_stim_LEFT.wav	1	6	blb_dichoticlistening_ba-ta.mp3	ba	ta	1	left
6.6.3	ios	2023-06-02	07:13:33	07:22:30	513991	63f5c99a1cecb4136b93f7db	1	1	main_slash	24	main_slash	81	stimuli_target_rectanglediamonds.svg	stimuli_distractor_diamondtriangles.svg	6	yes	53	1	48	6	4	antiphase_hc_sio.wav	1	6	1	noise_calib_stim_LEFT.wav	1	6	blb_dichoticlistening_ba-ta.mp3	ba	ta	1	left
6.6.3	ios	2023-06-02	07:13:33	07:22:30	513991	63f5c99a1cecb4136b93f7db	1	1	main_slash	24	advance_on_keypress_SLASH	82	stimuli_target_rectanglediamonds.svg	stimuli_distractor_diamondtriangles.svg	6	yes	57	0	139	6	4	antiphase_hc_sio.wav	1	6	1	noise_calib_stim_LEFT.wav	1	6	blb_dichoticlistening_ba-ta.mp3	ba	ta	1	left
6.6.3	ios	2023-06-02	07:13:33	07:22:31	514939	63f5c99a1cecb4136b93f7db	1	1	main_slash	24	main_slash	83	stimuli_distractor_trianglediamonds.svg	stimuli_distractor_trianglediamonds.svg	33	no	53	0	97	6	4	antiphase_hc_sio.wav	1	6	1	noise_calib_stim_LEFT.wav	1	6	blb_dichoticlistening_ba-ta.mp3	ba	ta	1	left
6.6.3	ios	2023-06-02	07:13:33	07:22:31	514939	63f5c99a1cecb4136b93f7db	1	1	main_slash	24	advance_on_keypress_SLASH	84	stimuli_distractor_trianglediamonds.svg	stimuli_distractor_trianglediamonds.svg	33	no	57	0	105	6	4	antiphase_hc_sio.wav	1	6	1	noise_calib_stim_LEFT.wav	1	6	blb_dichoticlistening_ba-ta.mp3	ba	ta	1	left
6.6.3	ios	2023-06-02	07:13:33	07:22:32	515923	63f5c99a1cecb4136b93f7db	1	1	main_slash	24	main_slash	85	stimuli_target_diamondsquares.svg	stimuli_distractor_trianglediamonds.svg	20	yes	53	1	169	6	4	antiphase_hc_sio.wav	1	6	1	noise_calib_stim_LEFT.wav	1	6	blb_dichoticlistening_ba-ta.mp3	ba	ta	1	left
6.6.3	ios	2023-06-02	07:13:33	07:22:32	515923	63f5c99a1cecb4136b93f7db	1	1	main_slash	24	advance_on_keypress_SLASH	86	stimuli_target_diamondsquares.svg	stimuli_distractor_trianglediamonds.svg	20	yes	57	0	97	6	4	antiphase_hc_sio.wav	1	6	1	noise_calib_stim_LEFT.wav	1	6	blb_dichoticlistening_ba-ta.mp3	ba	ta	1	left
6.6.3	ios	2023-06-02	07:13:33	07:22:33	516869	63f5c99a1cecb4136b93f7db	1	1	main_slash	24	main_slash	87	stimuli_distractor_diamondtriangles.svg	stimuli_distractor_trianglediamonds.svg	38	no	53	0	142	6	4	antiphase_hc_sio.wav	1	6	1	noise_calib_stim_LEFT.wav	1	6	blb_dichoticlistening_ba-ta.mp3	ba	ta	1	left
6.6.3	ios	2023-06-02	07:13:33	07:22:33	516869	63f5c99a1cecb4136b93f7db	1	1	main_slash	24	advance_on_keypress_SLASH	88	stimuli_distractor_diamondtriangles.svg	stimuli_distractor_trianglediamonds.svg	38	no	57	0	139	6	4	antiphase_hc_sio.wav	1	6	1	noise_calib_stim_LEFT.wav	1	6	blb_dichoticlistening_ba-ta.mp3	ba	ta	1	left
6.6.3	ios	2023-06-02	07:13:33	07:22:34	517904	63f5c99a1cecb4136b93f7db	1	1	main_slash	24	main_slash	89	stimuli_distractor_trianglediamonds.svg	stimuli_distractor_trianglediamonds.svg	34	no	53	0	172	6	4	antiphase_hc_sio.wav	1	6	1	noise_calib_stim_LEFT.wav	1	6	blb_dichoticlistening_ba-ta.mp3	ba	ta	1	left
6.6.3	ios	2023-06-02	07:13:33	07:22:34	517904	63f5c99a1cecb4136b93f7db	1	1	main_slash	24	advance_on_keypress_SLASH	90	stimuli_distractor_trianglediamonds.svg	stimuli_distractor_trianglediamonds.svg	34	no	57	0	130	6	4	antiphase_hc_sio.wav	1	6	1	noise_calib_stim_LEFT.wav	1	6	blb_dichoticlistening_ba-ta.mp3	ba	ta	1	left
6.6.3	ios	2023-06-02	07:13:33	07:22:35	519124	63f5c99a1cecb4136b93f7db	1	1	main_slash	24	main_slash	91	stimuli_target_trianglesquares.svg	stimuli_distractor_trianglediamonds.svg	18	yes	53	1	385	6	4	antiphase_hc_sio.wav	1	6	1	noise_calib_stim_LEFT.wav	1	6	blb_dichoticlistening_ba-ta.mp3	ba	ta	1	left
6.6.3	ios	2023-06-02	07:13:33	07:22:35	519124	63f5c99a1cecb4136b93f7db	1	1	main_slash	24	advance_on_keypress_SLASH	92	stimuli_target_trianglesquares.svg	stimuli_distractor_trianglediamonds.svg	18	yes	57	0	139	6	4	antiphase_hc_sio.wav	1	6	1	noise_calib_stim_LEFT.wav	1	6	blb_dichoticlistening_ba-ta.mp3	ba	ta	1	left
6.6.3	ios	2023-06-02	07:13:33	07:22:38	521462	63f5c99a1cecb4136b93f7db	1	1	main_slash	24	main_slash	93	stimuli_distractor_diamondtriangles.svg	stimuli_target_diamondrectangles.svg	31	yes	53	1	1491	6	4	antiphase_hc_sio.wav	1	6	1	noise_calib_stim_LEFT.wav	1	6	blb_dichoticlistening_ba-ta.mp3	ba	ta	1	left
6.6.3	ios	2023-06-02	07:13:33	07:22:38	521462	63f5c99a1cecb4136b93f7db	1	1	main_slash	24	advance_on_keypress_SLASH	94	stimuli_distractor_diamondtriangles.svg	stimuli_target_diamondrectangles.svg	31	yes	57	0	145	6	4	antiphase_hc_sio.wav	1	6	1	noise_calib_stim_LEFT.wav	1	6	blb_dichoticlistening_ba-ta.mp3	ba	ta	1	left
6.6.3	ios	2023-06-02	07:13:33	07:22:39	522445	63f5c99a1cecb4136b93f7db	1	1	main_slash	24	main_slash	95	stimuli_target_squaretriangles.svg	stimuli_distractor_trianglediamonds.svg	3	yes	53	1	159	6	4	antiphase_hc_sio.wav	1	6	1	noise_calib_stim_LEFT.wav	1	6	blb_dichoticlistening_ba-ta.mp3	ba	ta	1	left
6.6.3	ios	2023-06-02	07:13:33	07:22:39	522445	63f5c99a1cecb4136b93f7db	1	1	main_slash	24	advance_on_keypress_SLASH	96	stimuli_target_squaretriangles.svg	stimuli_distractor_trianglediamonds.svg	3	yes	57	0	88	6	4	antiphase_hc_sio.wav	1	6	1	noise_calib_stim_LEFT.wav	1	6	blb_dichoticlistening_ba-ta.mp3	ba	ta	1	left
6.6.3	ios	2023-06-02	07:13:33	07:22:40	523299	63f5c99a1cecb4136b93f7db	1	1	main_slash	24	main_slash	97	stimuli_distractor_diamondtriangles.svg	stimuli_target_squarediamonds.svg	16	yes	53	1	51	6	4	antiphase_hc_sio.wav	1	6	1	noise_calib_stim_LEFT.wav	1	6	blb_dichoticlistening_ba-ta.mp3	ba	ta	1	left
6.6.3	ios	2023-06-02	07:13:33	07:22:40	523299	63f5c99a1cecb4136b93f7db	1	1	main_slash	24	advance_on_keypress_SLASH	98	stimuli_distractor_diamondtriangles.svg	stimuli_target_squarediamonds.svg	16	yes	57	0	129	6	4	antiphase_hc_sio.wav	1	6	1	noise_calib_stim_LEFT.wav	1	6	blb_dichoticlistening_ba-ta.mp3	ba	ta	1	left
6.6.3	ios	2023-06-02	07:13:33	07:22:41	524241	63f5c99a1cecb4136b93f7db	1	1	main_slash	24	main_slash	99	stimuli_distractor_trianglediamonds.svg	stimuli_distractor_diamondtriangles.svg	36	no	53	0	111	6	4	antiphase_hc_sio.wav	1	6	1	noise_calib_stim_LEFT.wav	1	6	blb_dichoticlistening_ba-ta.mp3	ba	ta	1	left
6.6.3	ios	2023-06-02	07:13:33	07:22:41	524241	63f5c99a1cecb4136b93f7db	1	1	main_slash	24	advance_on_keypress_SLASH	100	stimuli_distractor_trianglediamonds.svg	stimuli_distractor_diamondtriangles.svg	36	no	57	0	129	6	4	antiphase_hc_sio.wav	1	6	1	noise_calib_stim_LEFT.wav	1	6	blb_dichoticlistening_ba-ta.mp3	ba	ta	1	left
6.6.3	ios	2023-06-02	07:13:33	07:22:41	525164	63f5c99a1cecb4136b93f7db	1	1	main_slash	24	main_slash	101	stimuli_distractor_diamondtriangles.svg	stimuli_distractor_trianglediamonds.svg	37	no	53	0	72	6	4	antiphase_hc_sio.wav	1	6	1	noise_calib_stim_LEFT.wav	1	6	blb_dichoticlistening_ba-ta.mp3	ba	ta	1	left
6.6.3	ios	2023-06-02	07:13:33	07:22:41	525164	63f5c99a1cecb4136b93f7db	1	1	main_slash	24	advance_on_keypress_SLASH	102	stimuli_distractor_diamondtriangles.svg	stimuli_distractor_trianglediamonds.svg	37	no	57	0	113	6	4	antiphase_hc_sio.wav	1	6	1	noise_calib_stim_LEFT.wav	1	6	blb_dichoticlistening_ba-ta.mp3	ba	ta	1	left
6.6.3	ios	2023-06-02	07:13:33	07:22:42	526078	63f5c99a1cecb4136b93f7db	1	1	main_slash	24	main_slash	103	stimuli_distractor_trianglediamonds.svg	stimuli_target_squaretriangles.svg	11	yes	53	1	102	6	4	antiphase_hc_sio.wav	1	6	1	noise_calib_stim_LEFT.wav	1	6	blb_dichoticlistening_ba-ta.mp3	ba	ta	1	left
6.6.3	ios	2023-06-02	07:13:33	07:22:42	526078	63f5c99a1cecb4136b93f7db	1	1	main_slash	24	advance_on_keypress_SLASH	104	stimuli_distractor_trianglediamonds.svg	stimuli_target_squaretriangles.svg	11	yes	57	0	130	6	4	antiphase_hc_sio.wav	1	6	1	noise_calib_stim_LEFT.wav	1	6	blb_dichoticlistening_ba-ta.mp3	ba	ta	1	left
6.6.3	ios	2023-06-02	07:13:33	07:22:43	526986	63f5c99a1cecb4136b93f7db	1	1	main_slash	24	main_slash	105	stimuli_distractor_trianglediamonds.svg	stimuli_target_diamondsquares.svg	28	yes	53	1	77	6	4	antiphase_hc_sio.wav	1	6	1	noise_calib_stim_LEFT.wav	1	6	blb_dichoticlistening_ba-ta.mp3	ba	ta	1	left
6.6.3	ios	2023-06-02	07:13:33	07:22:43	526986	63f5c99a1cecb4136b93f7db	1	1	main_slash	24	advance_on_keypress_SLASH	106	stimuli_distractor_trianglediamonds.svg	stimuli_target_diamondsquares.svg	28	yes	57	0	139	6	4	antiphase_hc_sio.wav	1	6	1	noise_calib_stim_LEFT.wav	1	6	blb_dichoticlistening_ba-ta.mp3	ba	ta	1	left
6.6.3	ios	2023-06-02	07:13:33	07:22:46	529828	63f5c99a1cecb4136b93f7db	1	1	main_slash	24	main_slash	107	stimuli_target_diamondrectangles.svg	stimuli_distractor_diamondtriangles.svg	23	yes	0	0	2000	6	4	antiphase_hc_sio.wav	1	6	1	noise_calib_stim_LEFT.wav	1	6	blb_dichoticlistening_ba-ta.mp3	ba	ta	1	left
6.6.3	ios	2023-06-02	07:13:33	07:22:46	529828	63f5c99a1cecb4136b93f7db	1	1	main_slash	24	advance_on_keypress_SLASH	108	stimuli_target_diamondrectangles.svg	stimuli_distractor_diamondtriangles.svg	23	yes	57	0	763	6	4	antiphase_hc_sio.wav	1	6	1	noise_calib_stim_LEFT.wav	1	6	blb_dichoticlistening_ba-ta.mp3	ba	ta	1	left
6.6.3	ios	2023-06-02	07:13:33	07:22:48	531570	63f5c99a1cecb4136b93f7db	1	1	main_slash	24	main_slash	109	stimuli_target_trianglerectangles.svg	stimuli_distractor_trianglediamonds.svg	17	yes	53	1	289	6	4	antiphase_hc_sio.wav	1	6	1	noise_calib_stim_LEFT.wav	1	6	blb_dichoticlistening_ba-ta.mp3	ba	ta	1	left
6.6.3	ios	2023-06-02	07:13:33	07:22:48	531570	63f5c99a1cecb4136b93f7db	1	1	main_slash	24	advance_on_keypress_SLASH	110	stimuli_target_trianglerectangles.svg	stimuli_distractor_trianglediamonds.svg	17	yes	57	0	213	6	4	antiphase_hc_sio.wav	1	6	1	noise_calib_stim_LEFT.wav	1	6	blb_dichoticlistening_ba-ta.mp3	ba	ta	1	left
6.6.3	ios	2023-06-02	07:13:33	07:22:49	532645	63f5c99a1cecb4136b93f7db	1	1	main_slash	24	main_slash	111	stimuli_distractor_trianglediamonds.svg	stimuli_target_squarediamonds.svg	12	yes	53	1	161	6	4	antiphase_hc_sio.wav	1	6	1	noise_calib_stim_LEFT.wav	1	6	blb_dichoticlistening_ba-ta.mp3	ba	ta	1	left
6.6.3	ios	2023-06-02	07:13:33	07:22:49	532645	63f5c99a1cecb4136b93f7db	1	1	main_slash	24	advance_on_keypress_SLASH	112	stimuli_distractor_trianglediamonds.svg	stimuli_target_squarediamonds.svg	12	yes	57	0	190	6	4	antiphase_hc_sio.wav	1	6	1	noise_calib_stim_LEFT.wav	1	6	blb_dichoticlistening_ba-ta.mp3	ba	ta	1	left
6.6.3	ios	2023-06-02	07:13:33	07:22:50	533642	63f5c99a1cecb4136b93f7db	1	1	main_slash	24	main_slash	113	stimuli_distractor_diamondtriangles.svg	stimuli_distractor_diamondtriangles.svg	39	no	53	0	94	6	4	antiphase_hc_sio.wav	1	6	1	noise_calib_stim_LEFT.wav	1	6	blb_dichoticlistening_ba-ta.mp3	ba	ta	1	left
6.6.3	ios	2023-06-02	07:13:33	07:22:50	533642	63f5c99a1cecb4136b93f7db	1	1	main_slash	24	advance_on_keypress_SLASH	114	stimuli_distractor_diamondtriangles.svg	stimuli_distractor_diamondtriangles.svg	39	no	57	0	197	6	4	antiphase_hc_sio.wav	1	6	1	noise_calib_stim_LEFT.wav	1	6	blb_dichoticlistening_ba-ta.mp3	ba	ta	1	left
6.6.3	ios	2023-06-02	07:13:33	07:22:51	534576	63f5c99a1cecb4136b93f7db	1	1	main_slash	24	main_slash	115	stimuli_distractor_trianglediamonds.svg	stimuli_distractor_diamondtriangles.svg	35	no	53	0	35	6	4	antiphase_hc_sio.wav	1	6	1	noise_calib_stim_LEFT.wav	1	6	blb_dichoticlistening_ba-ta.mp3	ba	ta	1	left
6.6.3	ios	2023-06-02	07:13:33	07:22:51	534576	63f5c99a1cecb4136b93f7db	1	1	main_slash	24	advance_on_keypress_SLASH	116	stimuli_distractor_trianglediamonds.svg	stimuli_distractor_diamondtriangles.svg	35	no	57	0	131	6	4	antiphase_hc_sio.wav	1	6	1	noise_calib_stim_LEFT.wav	1	6	blb_dichoticlistening_ba-ta.mp3	ba	ta	1	left
6.6.3	ios	2023-06-02	07:13:33	07:22:52	535512	63f5c99a1cecb4136b93f7db	1	1	main_slash	24	main_slash	117	stimuli_distractor_diamondtriangles.svg	stimuli_target_rectanglediamonds.svg	14	yes	53	1	101	6	4	antiphase_hc_sio.wav	1	6	1	noise_calib_stim_LEFT.wav	1	6	blb_dichoticlistening_ba-ta.mp3	ba	ta	1	left
6.6.3	ios	2023-06-02	07:13:33	07:22:52	535512	63f5c99a1cecb4136b93f7db	1	1	main_slash	24	advance_on_keypress_SLASH	118	stimuli_distractor_diamondtriangles.svg	stimuli_target_rectanglediamonds.svg	14	yes	57	0	172	6	4	antiphase_hc_sio.wav	1	6	1	noise_calib_stim_LEFT.wav	1	6	blb_dichoticlistening_ba-ta.mp3	ba	ta	1	left
6.6.3	ios	2023-06-02	07:13:33	07:22:53	536423	63f5c99a1cecb4136b93f7db	1	1	main_slash	24	main_slash	119	stimuli_target_squarediamonds.svg	stimuli_distractor_diamondtriangles.svg	8	yes	53	1	20	6	4	antiphase_hc_sio.wav	1	6	1	noise_calib_stim_LEFT.wav	1	6	blb_dichoticlistening_ba-ta.mp3	ba	ta	1	left
6.6.3	ios	2023-06-02	07:13:33	07:22:53	536423	63f5c99a1cecb4136b93f7db	1	1	main_slash	24	advance_on_keypress_SLASH	120	stimuli_target_squarediamonds.svg	stimuli_distractor_diamondtriangles.svg	8	yes	57	0	165	6	4	antiphase_hc_sio.wav	1	6	1	noise_calib_stim_LEFT.wav	1	6	blb_dichoticlistening_ba-ta.mp3	ba	ta	1	left
6.6.3	ios	2023-06-02	07:13:33	07:22:54	537471	63f5c99a1cecb4136b93f7db	1	1	main_slash	24	main_slash	121	stimuli_target_rectangletriangles.svg	stimuli_distractor_diamondtriangles.svg	5	yes	53	1	177	6	4	antiphase_hc_sio.wav	1	6	1	noise_calib_stim_LEFT.wav	1	6	blb_dichoticlistening_ba-ta.mp3	ba	ta	1	left
6.6.3	ios	2023-06-02	07:13:33	07:22:54	537471	63f5c99a1cecb4136b93f7db	1	1	main_slash	24	advance_on_keypress_SLASH	122	stimuli_target_rectangletriangles.svg	stimuli_distractor_diamondtriangles.svg	5	yes	57	0	138	6	4	antiphase_hc_sio.wav	1	6	1	noise_calib_stim_LEFT.wav	1	6	blb_dichoticlistening_ba-ta.mp3	ba	ta	1	left
6.6.3	ios	2023-06-02	07:13:33	07:22:55	538525	63f5c99a1cecb4136b93f7db	1	1	main_slash	24	main_slash	123	stimuli_distractor_diamondtriangles.svg	stimuli_target_trianglerectangles.svg	29	yes	53	1	203	6	4	antiphase_hc_sio.wav	1	6	1	noise_calib_stim_LEFT.wav	1	6	blb_dichoticlistening_ba-ta.mp3	ba	ta	1	left
6.6.3	ios	2023-06-02	07:13:33	07:22:55	538525	63f5c99a1cecb4136b93f7db	1	1	main_slash	24	advance_on_keypress_SLASH	124	stimuli_distractor_diamondtriangles.svg	stimuli_target_trianglerectangles.svg	29	yes	57	0	147	6	4	antiphase_hc_sio.wav	1	6	1	noise_calib_stim_LEFT.wav	1	6	blb_dichoticlistening_ba-ta.mp3	ba	ta	1	left
6.6.3	ios	2023-06-02	07:13:33	07:22:56	539551	63f5c99a1cecb4136b93f7db	1	1	main_slash	24	main_slash	125	stimuli_distractor_trianglediamonds.svg	stimuli_target_rectangletriangles.svg	9	yes	53	1	177	6	4	antiphase_hc_sio.wav	1	6	1	noise_calib_stim_LEFT.wav	1	6	blb_dichoticlistening_ba-ta.mp3	ba	ta	1	left
6.6.3	ios	2023-06-02	07:13:33	07:22:56	539551	63f5c99a1cecb4136b93f7db	1	1	main_slash	24	advance_on_keypress_SLASH	126	stimuli_distractor_trianglediamonds.svg	stimuli_target_rectangletriangles.svg	9	yes	57	0	152	6	4	antiphase_hc_sio.wav	1	6	1	noise_calib_stim_LEFT.wav	1	6	blb_dichoticlistening_ba-ta.mp3	ba	ta	1	left
6.6.3	ios	2023-06-02	07:13:33	07:22:57	540530	63f5c99a1cecb4136b93f7db	1	1	main_slash	24	main_slash	127	stimuli_distractor_trianglediamonds.svg	stimuli_target_rectanglediamonds.svg	10	yes	53	1	127	6	4	antiphase_hc_sio.wav	1	6	1	noise_calib_stim_LEFT.wav	1	6	blb_dichoticlistening_ba-ta.mp3	ba	ta	1	left
6.6.3	ios	2023-06-02	07:13:33	07:22:57	540530	63f5c99a1cecb4136b93f7db	1	1	main_slash	24	advance_on_keypress_SLASH	128	stimuli_distractor_trianglediamonds.svg	stimuli_target_rectanglediamonds.svg	10	yes	57	0	138	6	4	antiphase_hc_sio.wav	1	6	1	noise_calib_stim_LEFT.wav	1	6	blb_dichoticlistening_ba-ta.mp3	ba	ta	1	left
6.6.3	ios	2023-06-02	07:13:33	07:22:58	541478	63f5c99a1cecb4136b93f7db	1	1	main_slash	24	main_slash	129	stimuli_distractor_trianglediamonds.svg	stimuli_target_trianglesquares.svg	26	yes	53	1	110	6	4	antiphase_hc_sio.wav	1	6	1	noise_calib_stim_LEFT.wav	1	6	blb_dichoticlistening_ba-ta.mp3	ba	ta	1	left
6.6.3	ios	2023-06-02	07:13:33	07:22:58	541478	63f5c99a1cecb4136b93f7db	1	1	main_slash	24	advance_on_keypress_SLASH	130	stimuli_distractor_trianglediamonds.svg	stimuli_target_trianglesquares.svg	26	yes	57	0	147	6	4	antiphase_hc_sio.wav	1	6	1	noise_calib_stim_LEFT.wav	1	6	blb_dichoticlistening_ba-ta.mp3	ba	ta	1	left
6.6.3	ios	2023-06-02	07:13:33	07:22:59	542444	63f5c99a1cecb4136b93f7db	1	1	main_slash	24	main_slash	131	stimuli_distractor_trianglediamonds.svg	stimuli_target_trianglerectangles.svg	25	yes	53	1	113	6	4	antiphase_hc_sio.wav	1	6	1	noise_calib_stim_LEFT.wav	1	6	blb_dichoticlistening_ba-ta.mp3	ba	ta	1	left
6.6.3	ios	2023-06-02	07:13:33	07:22:59	542444	63f5c99a1cecb4136b93f7db	1	1	main_slash	24	advance_on_keypress_SLASH	132	stimuli_distractor_trianglediamonds.svg	stimuli_target_trianglerectangles.svg	25	yes	57	0	164	6	4	antiphase_hc_sio.wav	1	6	1	noise_calib_stim_LEFT.wav	1	6	blb_dichoticlistening_ba-ta.mp3	ba	ta	1	left
6.6.3	ios	2023-06-02	07:13:33	07:23:00	543461	63f5c99a1cecb4136b93f7db	1	1	main_slash	24	main_slash	133	stimuli_distractor_trianglediamonds.svg	stimuli_target_diamondrectangles.svg	27	yes	53	1	161	6	4	antiphase_hc_sio.wav	1	6	1	noise_calib_stim_LEFT.wav	1	6	blb_dichoticlistening_ba-ta.mp3	ba	ta	1	left
6.6.3	ios	2023-06-02	07:13:33	07:23:00	543461	63f5c99a1cecb4136b93f7db	1	1	main_slash	24	advance_on_keypress_SLASH	134	stimuli_distractor_trianglediamonds.svg	stimuli_target_diamondrectangles.svg	27	yes	57	0	144	6	4	antiphase_hc_sio.wav	1	6	1	noise_calib_stim_LEFT.wav	1	6	blb_dichoticlistening_ba-ta.mp3	ba	ta	1	left
6.6.3	ios	2023-06-02	07:13:33	07:23:01	544459	63f5c99a1cecb4136b93f7db	1	1	main_slash	24	main_slash	135	stimuli_distractor_diamondtriangles.svg	stimuli_target_diamondsquares.svg	32	yes	53	1	158	6	4	antiphase_hc_sio.wav	1	6	1	noise_calib_stim_LEFT.wav	1	6	blb_dichoticlistening_ba-ta.mp3	ba	ta	1	left
6.6.3	ios	2023-06-02	07:13:33	07:23:01	544459	63f5c99a1cecb4136b93f7db	1	1	main_slash	24	advance_on_keypress_SLASH	136	stimuli_distractor_diamondtriangles.svg	stimuli_target_diamondsquares.svg	32	yes	57	0	128	6	4	antiphase_hc_sio.wav	1	6	1	noise_calib_stim_LEFT.wav	1	6	blb_dichoticlistening_ba-ta.mp3	ba	ta	1	left
6.6.3	ios	2023-06-02	07:13:33	07:23:02	545458	63f5c99a1cecb4136b93f7db	1	1	main_slash	24	main_slash	137	stimuli_target_squarediamonds.svg	stimuli_distractor_trianglediamonds.svg	4	yes	53	1	169	6	4	antiphase_hc_sio.wav	1	6	1	noise_calib_stim_LEFT.wav	1	6	blb_dichoticlistening_ba-ta.mp3	ba	ta	1	left
6.6.3	ios	2023-06-02	07:13:33	07:23:02	545458	63f5c99a1cecb4136b93f7db	1	1	main_slash	24	advance_on_keypress_SLASH	138	stimuli_target_squarediamonds.svg	stimuli_distractor_trianglediamonds.svg	4	yes	57	0	136	6	4	antiphase_hc_sio.wav	1	6	1	noise_calib_stim_LEFT.wav	1	6	blb_dichoticlistening_ba-ta.mp3	ba	ta	1	left
6.6.3	ios	2023-06-02	07:13:33	07:23:03	546472	63f5c99a1cecb4136b93f7db	1	1	main_slash	24	main_slash	139	stimuli_target_rectanglediamonds.svg	stimuli_distractor_trianglediamonds.svg	2	yes	53	1	176	6	4	antiphase_hc_sio.wav	1	6	1	noise_calib_stim_LEFT.wav	1	6	blb_dichoticlistening_ba-ta.mp3	ba	ta	1	left
6.6.3	ios	2023-06-02	07:13:33	07:23:03	546472	63f5c99a1cecb4136b93f7db	1	1	main_slash	24	advance_on_keypress_SLASH	140	stimuli_target_rectanglediamonds.svg	stimuli_distractor_trianglediamonds.svg	2	yes	57	0	6143	6	4	antiphase_hc_sio.wav	1	6	1	noise_calib_stim_LEFT.wav	1	6	blb_dichoticlistening_ba-ta.mp3	ba	ta	1	left
6.6.3	ios	2023-06-02	07:13:33	07:23:10	553427	63f5c99a1cecb4136b93f7db	1	1	main_slash	24	main_slash	141	stimuli_target_diamondrectangles.svg	stimuli_distractor_trianglediamonds.svg	19	yes	53	1	95	6	4	antiphase_hc_sio.wav	1	6	1	noise_calib_stim_LEFT.wav	1	6	blb_dichoticlistening_ba-ta.mp3	ba	ta	1	left
6.6.3	ios	2023-06-02	07:13:33	07:23:10	553427	63f5c99a1cecb4136b93f7db	1	1	main_slash	24	advance_on_keypress_SLASH	142	stimuli_target_diamondrectangles.svg	stimuli_distractor_trianglediamonds.svg	19	yes	57	0	281	6	4	antiphase_hc_sio.wav	1	6	1	noise_calib_stim_LEFT.wav	1	6	blb_dichoticlistening_ba-ta.mp3	ba	ta	1	left
6.6.3	ios	2023-06-02	07:13:33	07:23:11	554409	63f5c99a1cecb4136b93f7db	1	1	main_slash	24	main_slash	143	stimuli_target_trianglesquares.svg	stimuli_distractor_diamondtriangles.svg	22	yes	53	1	8	6	4	antiphase_hc_sio.wav	1	6	1	noise_calib_stim_LEFT.wav	1	6	blb_dichoticlistening_ba-ta.mp3	ba	ta	1	left
6.6.3	ios	2023-06-02	07:13:33	07:23:11	554409	63f5c99a1cecb4136b93f7db	1	1	main_slash	24	advance_on_keypress_SLASH	144	stimuli_target_trianglesquares.svg	stimuli_distractor_diamondtriangles.svg	22	yes	57	0	248	6	4	antiphase_hc_sio.wav	1	6	1	noise_calib_stim_LEFT.wav	1	6	blb_dichoticlistening_ba-ta.mp3	ba	ta	1	left
6.6.3	ios	2023-06-02	07:13:33	07:23:12	555607	63f5c99a1cecb4136b93f7db	1	1	main_slash	24	main_slash	145	stimuli_target_squaretriangles.svg	stimuli_distractor_diamondtriangles.svg	7	yes	53	1	245	6	4	antiphase_hc_sio.wav	1	6	1	noise_calib_stim_LEFT.wav	1	6	blb_dichoticlistening_ba-ta.mp3	ba	ta	1	left
6.6.3	ios	2023-06-02	07:13:33	07:23:12	555607	63f5c99a1cecb4136b93f7db	1	1	main_slash	24	advance_on_keypress_SLASH	146	stimuli_target_squaretriangles.svg	stimuli_distractor_diamondtriangles.svg	7	yes	57	0	264	6	4	antiphase_hc_sio.wav	1	6	1	noise_calib_stim_LEFT.wav	1	6	blb_dichoticlistening_ba-ta.mp3	ba	ta	1	left
6.6.3	ios	2023-06-02	07:13:33	07:23:13	556608	63f5c99a1cecb4136b93f7db	1	1	main_slash	24	main_slash	147	stimuli_target_rectangletriangles.svg	stimuli_distractor_trianglediamonds.svg	1	yes	53	1	28	6	4	antiphase_hc_sio.wav	1	6	1	noise_calib_stim_LEFT.wav	1	6	blb_dichoticlistening_ba-ta.mp3	ba	ta	1	left
6.6.3	ios	2023-06-02	07:13:33	07:23:13	556608	63f5c99a1cecb4136b93f7db	1	1	main_slash	24	advance_on_keypress_SLASH	148	stimuli_target_rectangletriangles.svg	stimuli_distractor_trianglediamonds.svg	1	yes	57	0	89	6	4	antiphase_hc_sio.wav	1	6	1	noise_calib_stim_LEFT.wav	1	6	blb_dichoticlistening_ba-ta.mp3	ba	ta	1	left
6.6.3	ios	2023-06-02	07:13:33	07:23:14	557472	63f5c99a1cecb4136b93f7db	1	1	main_slash	24	main_slash	149	stimuli_distractor_diamondtriangles.svg	stimuli_target_trianglesquares.svg	30	yes	53	1	61	6	4	antiphase_hc_sio.wav	1	6	1	noise_calib_stim_LEFT.wav	1	6	blb_dichoticlistening_ba-ta.mp3	ba	ta	1	left
6.6.3	ios	2023-06-02	07:13:33	07:23:14	557472	63f5c99a1cecb4136b93f7db	1	1	main_slash	24	advance_on_keypress_SLASH	150	stimuli_distractor_diamondtriangles.svg	stimuli_target_trianglesquares.svg	30	yes	57	0	123	6	4	antiphase_hc_sio.wav	1	6	1	noise_calib_stim_LEFT.wav	1	6	blb_dichoticlistening_ba-ta.mp3	ba	ta	1	left
6.6.3	ios	2023-06-02	07:13:33	07:23:15	558777	63f5c99a1cecb4136b93f7db	1	1	main_slash	24	main_slash	151	stimuli_distractor_diamondtriangles.svg	stimuli_target_squaretriangles.svg	15	yes	53	1	470	6	4	antiphase_hc_sio.wav	1	6	1	noise_calib_stim_LEFT.wav	1	6	blb_dichoticlistening_ba-ta.mp3	ba	ta	1	left
6.6.3	ios	2023-06-02	07:13:33	07:23:15	558777	63f5c99a1cecb4136b93f7db	1	1	main_slash	24	advance_on_keypress_SLASH	152	stimuli_distractor_diamondtriangles.svg	stimuli_target_squaretriangles.svg	15	yes	57	0	139	6	4	antiphase_hc_sio.wav	1	6	1	noise_calib_stim_LEFT.wav	1	6	blb_dichoticlistening_ba-ta.mp3	ba	ta	1	left
6.6.3	ios	2023-06-02	07:13:33	07:23:16	559819	63f5c99a1cecb4136b93f7db	1	1	main_slash	24	main_slash	153	stimuli_distractor_diamondtriangles.svg	stimuli_distractor_diamondtriangles.svg	40	no	53	0	187	6	4	antiphase_hc_sio.wav	1	6	1	noise_calib_stim_LEFT.wav	1	6	blb_dichoticlistening_ba-ta.mp3	ba	ta	1	left
6.6.3	ios	2023-06-02	07:13:33	07:23:16	559819	63f5c99a1cecb4136b93f7db	1	1	main_slash	24	advance_on_keypress_SLASH	154	stimuli_distractor_diamondtriangles.svg	stimuli_distractor_diamondtriangles.svg	40	no	57	0	355	6	4	antiphase_hc_sio.wav	1	6	1	noise_calib_stim_LEFT.wav	1	6	blb_dichoticlistening_ba-ta.mp3	ba	ta	1	left
6.6.3	ios	2023-06-02	07:13:33	07:23:17	560917	63f5c99a1cecb4136b93f7db	1	1	main_slash	24	main_slash	155	stimuli_distractor_diamondtriangles.svg	stimuli_target_rectangletriangles.svg	13	yes	53	1	26	6	4	antiphase_hc_sio.wav	1	6	1	noise_calib_stim_LEFT.wav	1	6	blb_dichoticlistening_ba-ta.mp3	ba	ta	1	left
6.6.3	ios	2023-06-02	07:13:33	07:23:17	560917	63f5c99a1cecb4136b93f7db	1	1	main_slash	24	advance_on_keypress_SLASH	156	stimuli_distractor_diamondtriangles.svg	stimuli_target_rectangletriangles.svg	13	yes	57	0	505	6	4	antiphase_hc_sio.wav	1	6	1	noise_calib_stim_LEFT.wav	1	6	blb_dichoticlistening_ba-ta.mp3	ba	ta	1	left
6.6.3	ios	2023-06-02	07:13:33	07:23:18	562196	63f5c99a1cecb4136b93f7db	1	1	main_slash	24	main_slash	157	stimuli_target_diamondsquares.svg	stimuli_distractor_diamondtriangles.svg	24	yes	53	1	61	6	4	antiphase_hc_sio.wav	1	6	1	noise_calib_stim_LEFT.wav	1	6	blb_dichoticlistening_ba-ta.mp3	ba	ta	1	left
6.6.3	ios	2023-06-02	07:13:33	07:23:18	562196	63f5c99a1cecb4136b93f7db	1	1	main_slash	24	advance_on_keypress_SLASH	158	stimuli_target_diamondsquares.svg	stimuli_distractor_diamondtriangles.svg	24	yes	57	0	1147	6	4	antiphase_hc_sio.wav	1	6	1	noise_calib_stim_LEFT.wav	1	6	blb_dichoticlistening_ba-ta.mp3	ba	ta	1	left
6.6.3	ios	2023-06-02	07:13:33	07:23:20	564093	63f5c99a1cecb4136b93f7db	1	1	main_slash	24	main_slash	159	stimuli_target_trianglerectangles.svg	stimuli_distractor_diamondtriangles.svg	21	yes	53	1	43	6	4	antiphase_hc_sio.wav	1	6	1	noise_calib_stim_LEFT.wav	1	6	blb_dichoticlistening_ba-ta.mp3	ba	ta	1	left
6.6.3	ios	2023-06-02	07:13:33	07:23:20	564093	63f5c99a1cecb4136b93f7db	1	1	main_slash	24	advance_on_keypress_SLASH	160	stimuli_target_trianglerectangles.svg	stimuli_distractor_diamondtriangles.svg	21	yes	57	0	339	6	4	antiphase_hc_sio.wav	1	6	1	noise_calib_stim_LEFT.wav	1	6	blb_dichoticlistening_ba-ta.mp3	ba	ta	1	left
6.6.3	ios	2023-06-02	07:13:33	07:23:24	568055	63f5c99a1cecb4136b93f7db	1	1	practice_z	26	practice_z	1	stimuli_distractor_trianglediamonds.svg	stimuli_target_rectanglediamonds.svg	10	yes	44	1	280	6	4	antiphase_hc_sio.wav	1	6	1	noise_calib_stim_LEFT.wav	1	6	blb_dichoticlistening_ba-ta.mp3	ba	ta	1	left
6.6.3	ios	2023-06-02	07:13:33	07:23:24	568055	63f5c99a1cecb4136b93f7db	1	1	practice_z	26	advance_on_keypress_ZEE	2	stimuli_distractor_trianglediamonds.svg	stimuli_target_rectanglediamonds.svg	10	yes	57	0	58	6	4	antiphase_hc_sio.wav	1	6	1	noise_calib_stim_LEFT.wav	1	6	blb_dichoticlistening_ba-ta.mp3	ba	ta	1	left
6.6.3	ios	2023-06-02	07:13:33	07:23:27	571178	63f5c99a1cecb4136b93f7db	1	1	practice_z	26	practice_z	3	stimuli_target_squarediamonds.svg	stimuli_distractor_diamondtriangles.svg	2	yes	44	1	1351	6	4	antiphase_hc_sio.wav	1	6	1	noise_calib_stim_LEFT.wav	1	6	blb_dichoticlistening_ba-ta.mp3	ba	ta	1	left
6.6.3	ios	2023-06-02	07:13:33	07:23:27	571178	63f5c99a1cecb4136b93f7db	1	1	practice_z	26	advance_on_keypress_ZEE	4	stimuli_target_squarediamonds.svg	stimuli_distractor_diamondtriangles.svg	2	yes	57	0	906	6	4	antiphase_hc_sio.wav	1	6	1	noise_calib_stim_LEFT.wav	1	6	blb_dichoticlistening_ba-ta.mp3	ba	ta	1	left
6.6.3	ios	2023-06-02	07:13:33	07:23:30	573862	63f5c99a1cecb4136b93f7db	1	1	practice_z	26	practice_z	5	stimuli_target_diamondsquares.svg	stimuli_distractor_diamondtriangles.svg	3	yes	44	1	93	6	4	antiphase_hc_sio.wav	1	6	1	noise_calib_stim_LEFT.wav	1	6	blb_dichoticlistening_ba-ta.mp3	ba	ta	1	left
6.6.3	ios	2023-06-02	07:13:33	07:23:30	573862	63f5c99a1cecb4136b93f7db	1	1	practice_z	26	advance_on_keypress_ZEE	6	stimuli_target_diamondsquares.svg	stimuli_distractor_diamondtriangles.svg	3	yes	57	0	514	6	4	antiphase_hc_sio.wav	1	6	1	noise_calib_stim_LEFT.wav	1	6	blb_dichoticlistening_ba-ta.mp3	ba	ta	1	left
6.6.3	ios	2023-06-02	07:13:33	07:23:33	576298	63f5c99a1cecb4136b93f7db	1	1	practice_z	26	practice_z	7	stimuli_target_squarediamonds.svg	stimuli_distractor_trianglediamonds.svg	5	yes	44	1	235	6	4	antiphase_hc_sio.wav	1	6	1	noise_calib_stim_LEFT.wav	1	6	blb_dichoticlistening_ba-ta.mp3	ba	ta	1	left
6.6.3	ios	2023-06-02	07:13:33	07:23:33	576298	63f5c99a1cecb4136b93f7db	1	1	practice_z	26	advance_on_keypress_ZEE	8	stimuli_target_squarediamonds.svg	stimuli_distractor_trianglediamonds.svg	5	yes	57	0	239	6	4	antiphase_hc_sio.wav	1	6	1	noise_calib_stim_LEFT.wav	1	6	blb_dichoticlistening_ba-ta.mp3	ba	ta	1	left
6.6.3	ios	2023-06-02	07:13:33	07:23:35	578656	63f5c99a1cecb4136b93f7db	1	1	practice_z	26	practice_z	9	stimuli_distractor_diamondtriangles.svg	stimuli_distractor_diamondtriangles.svg	13	no	44	0	428	6	4	antiphase_hc_sio.wav	1	6	1	noise_calib_stim_LEFT.wav	1	6	blb_dichoticlistening_ba-ta.mp3	ba	ta	1	left
6.6.3	ios	2023-06-02	07:13:33	07:23:35	578656	63f5c99a1cecb4136b93f7db	1	1	practice_z	26	advance_on_keypress_ZEE	10	stimuli_distractor_diamondtriangles.svg	stimuli_distractor_diamondtriangles.svg	13	no	57	0	369	6	4	antiphase_hc_sio.wav	1	6	1	noise_calib_stim_LEFT.wav	1	6	blb_dichoticlistening_ba-ta.mp3	ba	ta	1	left
6.6.3	ios	2023-06-02	07:13:33	07:23:37	580991	63f5c99a1cecb4136b93f7db	1	1	practice_z	26	practice_z	11	stimuli_distractor_trianglediamonds.svg	stimuli_distractor_trianglediamonds.svg	15	no	44	0	271	6	4	antiphase_hc_sio.wav	1	6	1	noise_calib_stim_LEFT.wav	1	6	blb_dichoticlistening_ba-ta.mp3	ba	ta	1	left
6.6.3	ios	2023-06-02	07:13:33	07:23:37	580991	63f5c99a1cecb4136b93f7db	1	1	practice_z	26	advance_on_keypress_ZEE	12	stimuli_distractor_trianglediamonds.svg	stimuli_distractor_trianglediamonds.svg	15	no	57	0	114	6	4	antiphase_hc_sio.wav	1	6	1	noise_calib_stim_LEFT.wav	1	6	blb_dichoticlistening_ba-ta.mp3	ba	ta	1	left
6.6.3	ios	2023-06-02	07:13:33	07:23:39	582780	63f5c99a1cecb4136b93f7db	1	1	practice_z	26	practice_z	13	stimuli_distractor_trianglediamonds.svg	stimuli_target_squarediamonds.svg	11	yes	44	1	7	6	4	antiphase_hc_sio.wav	1	6	1	noise_calib_stim_LEFT.wav	1	6	blb_dichoticlistening_ba-ta.mp3	ba	ta	1	left
6.6.3	ios	2023-06-02	07:13:33	07:23:39	582780	63f5c99a1cecb4136b93f7db	1	1	practice_z	26	advance_on_keypress_ZEE	14	stimuli_distractor_trianglediamonds.svg	stimuli_target_squarediamonds.svg	11	yes	57	0	2448	6	4	antiphase_hc_sio.wav	1	6	1	noise_calib_stim_LEFT.wav	1	6	blb_dichoticlistening_ba-ta.mp3	ba	ta	1	left
6.6.3	ios	2023-06-02	07:13:33	07:23:43	586940	63f5c99a1cecb4136b93f7db	1	1	practice_z	26	practice_z	15	stimuli_distractor_diamondtriangles.svg	stimuli_target_diamondrectangles.svg	8	yes	44	1	12	6	4	antiphase_hc_sio.wav	1	6	1	noise_calib_stim_LEFT.wav	1	6	blb_dichoticlistening_ba-ta.mp3	ba	ta	1	left
6.6.3	ios	2023-06-02	07:13:33	07:23:43	586940	63f5c99a1cecb4136b93f7db	1	1	practice_z	26	advance_on_keypress_ZEE	16	stimuli_distractor_diamondtriangles.svg	stimuli_target_diamondrectangles.svg	8	yes	57	0	1706	6	4	antiphase_hc_sio.wav	1	6	1	noise_calib_stim_LEFT.wav	1	6	blb_dichoticlistening_ba-ta.mp3	ba	ta	1	left
6.6.3	ios	2023-06-02	07:13:33	07:23:47	590691	63f5c99a1cecb4136b93f7db	1	1	practice_z	26	practice_z	17	stimuli_target_diamondsquares.svg	stimuli_distractor_trianglediamonds.svg	6	yes	44	1	337	6	4	antiphase_hc_sio.wav	1	6	1	noise_calib_stim_LEFT.wav	1	6	blb_dichoticlistening_ba-ta.mp3	ba	ta	1	left
