build	computer.platform	date	time	timestamp	time_elapsed_ms	subject	group	session	blockcode	blocknum	trialcode	trialnum	stimulus_left	stimulus_right	stim_index	target_present	response	correct	latency	headphonecheck_countTestTrials	headphonecheck_index	headphonecheck_testSound	headphonecheck_correctResponse	stereocheck_countTestTrials	stereocheck_index	stereocheck_testSound	stereocheck_correctResponse	DL_index	DL_soundfile	DL_leftSound	DL_rightSound	DL_dualSound	DL_choice
6.6.1	win	2023-06-02	01:17:27	01:29:48	732148	61210b5c3f465c51a7f4166a	3	1	practice_slash	5	practice_slash	1	stimuli_target_squarediamonds.svg	stimuli_distractor_trianglediamonds.svg	5	yes	53	1	581	0	0			0	0			1				0	
6.6.1	win	2023-06-02	01:17:27	01:29:48	732148	61210b5c3f465c51a7f4166a	3	1	practice_slash	5	advance_on_keypress_SLASH	2	stimuli_target_squarediamonds.svg	stimuli_distractor_trianglediamonds.svg	5	yes	57	0	42126	0	0			0	0			1				0	
6.6.1	win	2023-06-02	01:17:27	01:30:33	776957	61210b5c3f465c51a7f4166a	3	1	practice_slash	5	practice_slash	3	stimuli_distractor_trianglediamonds.svg	stimuli_target_diamondrectangles.svg	12	yes	53	1	1029	0	0			0	0			1				0	
6.6.1	win	2023-06-02	01:17:27	01:30:33	776957	61210b5c3f465c51a7f4166a	3	1	practice_slash	5	advance_on_keypress_SLASH	4	stimuli_distractor_trianglediamonds.svg	stimuli_target_diamondrectangles.svg	12	yes	57	0	1711	0	0			0	0			1				0	
6.6.1	win	2023-06-02	01:17:27	01:30:37	781242	61210b5c3f465c51a7f4166a	3	1	practice_slash	5	practice_slash	5	stimuli_distractor_trianglediamonds.svg	stimuli_distractor_trianglediamonds.svg	15	no	53	0	916	0	0			0	0			1				0	
6.6.1	win	2023-06-02	01:17:27	01:30:37	781242	61210b5c3f465c51a7f4166a	3	1	practice_slash	5	advance_on_keypress_SLASH	6	stimuli_distractor_trianglediamonds.svg	stimuli_distractor_trianglediamonds.svg	15	no	57	0	1575	0	0			0	0			1				0	
6.6.1	win	2023-06-02	01:17:27	01:30:41	785052	61210b5c3f465c51a7f4166a	3	1	practice_slash	5	practice_slash	7	stimuli_distractor_diamondtriangles.svg	stimuli_target_rectangletriangles.svg	7	yes	53	1	576	0	0			0	0			1				0	
6.6.1	win	2023-06-02	01:17:27	01:30:41	785052	61210b5c3f465c51a7f4166a	3	1	practice_slash	5	advance_on_keypress_SLASH	8	stimuli_distractor_diamondtriangles.svg	stimuli_target_rectangletriangles.svg	7	yes	57	0	891	0	0			0	0			1				0	
6.6.1	win	2023-06-02	01:17:27	01:30:45	789593	61210b5c3f465c51a7f4166a	3	1	practice_slash	5	practice_slash	9	stimuli_distractor_diamondtriangles.svg	stimuli_target_diamondrectangles.svg	8	yes	0	0	2000	0	0			0	0			1				0	
6.6.1	win	2023-06-02	01:17:27	01:30:45	789593	61210b5c3f465c51a7f4166a	3	1	practice_slash	5	advance_on_keypress_SLASH	10	stimuli_distractor_diamondtriangles.svg	stimuli_target_diamondrectangles.svg	8	yes	57	0	714	0	0			0	0			1				0	
6.6.1	win	2023-06-02	01:17:27	01:30:48	792657	61210b5c3f465c51a7f4166a	3	1	practice_slash	5	practice_slash	11	stimuli_distractor_trianglediamonds.svg	stimuli_distractor_diamondtriangles.svg	16	no	53	0	698	0	0			0	0			1				0	
6.6.1	win	2023-06-02	01:17:27	01:30:48	792657	61210b5c3f465c51a7f4166a	3	1	practice_slash	5	advance_on_keypress_SLASH	12	stimuli_distractor_trianglediamonds.svg	stimuli_distractor_diamondtriangles.svg	16	no	57	0	530	0	0			0	0			1				0	
6.6.1	win	2023-06-02	01:17:27	01:30:51	795277	61210b5c3f465c51a7f4166a	3	1	practice_slash	5	practice_slash	13	stimuli_target_rectanglediamonds.svg	stimuli_distractor_trianglediamonds.svg	4	yes	53	1	436	0	0			0	0			1				0	
6.6.1	win	2023-06-02	01:17:27	01:30:51	795277	61210b5c3f465c51a7f4166a	3	1	practice_slash	5	advance_on_keypress_SLASH	14	stimuli_target_rectanglediamonds.svg	stimuli_distractor_trianglediamonds.svg	4	yes	57	0	575	0	0			0	0			1				0	
6.6.1	win	2023-06-02	01:17:27	01:30:54	798345	61210b5c3f465c51a7f4166a	3	1	practice_slash	5	practice_slash	15	stimuli_distractor_trianglediamonds.svg	stimuli_target_rectanglediamonds.svg	10	yes	53	1	854	0	0			0	0			1				0	
6.6.1	win	2023-06-02	01:17:27	01:30:54	798345	61210b5c3f465c51a7f4166a	3	1	practice_slash	5	advance_on_keypress_SLASH	16	stimuli_distractor_trianglediamonds.svg	stimuli_target_rectanglediamonds.svg	10	yes	57	0	451	0	0			0	0			1				0	
6.6.1	win	2023-06-02	01:17:27	01:30:57	801689	61210b5c3f465c51a7f4166a	3	1	practice_slash	5	practice_slash	17	stimuli_distractor_diamondtriangles.svg	stimuli_distractor_diamondtriangles.svg	13	no	53	0	1249	0	0			0	0			1				0	
6.6.1	win	2023-06-02	01:17:27	01:30:57	801689	61210b5c3f465c51a7f4166a	3	1	practice_slash	5	advance_on_keypress_SLASH	18	stimuli_distractor_diamondtriangles.svg	stimuli_distractor_diamondtriangles.svg	13	no	57	0	615	0	0			0	0			1				0	
6.6.1	win	2023-06-02	01:17:27	01:31:00	804687	61210b5c3f465c51a7f4166a	3	1	practice_slash	5	practice_slash	19	stimuli_target_rectanglediamonds.svg	stimuli_distractor_diamondtriangles.svg	1	yes	53	1	729	0	0			0	0			1				0	
6.6.1	win	2023-06-02	01:17:27	01:31:00	804687	61210b5c3f465c51a7f4166a	3	1	practice_slash	5	advance_on_keypress_SLASH	20	stimuli_target_rectanglediamonds.svg	stimuli_distractor_diamondtriangles.svg	1	yes	57	0	292	0	0			0	0			1				0	
6.6.1	win	2023-06-02	01:17:27	01:31:03	807221	61210b5c3f465c51a7f4166a	3	1	practice_slash	5	practice_slash	21	stimuli_distractor_diamondtriangles.svg	stimuli_target_trianglerectangles.svg	9	yes	53	1	581	0	0			0	0			1				0	
6.6.1	win	2023-06-02	01:17:27	01:31:03	807221	61210b5c3f465c51a7f4166a	3	1	practice_slash	5	advance_on_keypress_SLASH	22	stimuli_distractor_diamondtriangles.svg	stimuli_target_trianglerectangles.svg	9	yes	57	0	521	0	0			0	0			1				0	
6.6.1	win	2023-06-02	01:17:27	01:31:06	810259	61210b5c3f465c51a7f4166a	3	1	practice_slash	5	practice_slash	23	stimuli_target_diamondsquares.svg	stimuli_distractor_diamondtriangles.svg	3	yes	53	1	869	0	0			0	0			1				0	
6.6.1	win	2023-06-02	01:17:27	01:31:06	810259	61210b5c3f465c51a7f4166a	3	1	practice_slash	5	advance_on_keypress_SLASH	24	stimuli_target_diamondsquares.svg	stimuli_distractor_diamondtriangles.svg	3	yes	57	0	441	0	0			0	0			1				0	
6.6.1	win	2023-06-02	01:17:27	01:31:09	813151	61210b5c3f465c51a7f4166a	3	1	practice_slash	5	practice_slash	25	stimuli_distractor_trianglediamonds.svg	stimuli_target_squarediamonds.svg	11	yes	53	1	811	0	0			0	0			1				0	
6.6.1	win	2023-06-02	01:17:27	01:31:09	813151	61210b5c3f465c51a7f4166a	3	1	practice_slash	5	advance_on_keypress_SLASH	26	stimuli_distractor_trianglediamonds.svg	stimuli_target_squarediamonds.svg	11	yes	57	0	565	0	0			0	0			1				0	
6.6.1	win	2023-06-02	01:17:27	01:31:11	815733	61210b5c3f465c51a7f4166a	3	1	practice_slash	5	practice_slash	27	stimuli_target_diamondsquares.svg	stimuli_distractor_trianglediamonds.svg	6	yes	53	1	361	0	0			0	0			1				0	
6.6.1	win	2023-06-02	01:17:27	01:31:11	815733	61210b5c3f465c51a7f4166a	3	1	practice_slash	5	advance_on_keypress_SLASH	28	stimuli_target_diamondsquares.svg	stimuli_distractor_trianglediamonds.svg	6	yes	57	0	401	0	0			0	0			1				0	
6.6.1	win	2023-06-02	01:17:27	01:31:14	818218	61210b5c3f465c51a7f4166a	3	1	practice_slash	5	practice_slash	29	stimuli_target_squarediamonds.svg	stimuli_distractor_diamondtriangles.svg	2	yes	53	1	429	0	0			0	0			1				0	
6.6.1	win	2023-06-02	01:17:27	01:31:14	818218	61210b5c3f465c51a7f4166a	3	1	practice_slash	5	advance_on_keypress_SLASH	30	stimuli_target_squarediamonds.svg	stimuli_distractor_diamondtriangles.svg	2	yes	57	0	444	0	0			0	0			1				0	
6.6.1	win	2023-06-02	01:17:27	01:31:18	822322	61210b5c3f465c51a7f4166a	3	1	practice_slash	5	practice_slash	31	stimuli_distractor_diamondtriangles.svg	stimuli_distractor_trianglediamonds.svg	14	no	0	1	2000	0	0			0	0			1				0	
6.6.1	win	2023-06-02	01:17:27	01:31:18	822322	61210b5c3f465c51a7f4166a	3	1	practice_slash	5	advance_on_keypress_SLASH	32	stimuli_distractor_diamondtriangles.svg	stimuli_distractor_trianglediamonds.svg	14	no	57	0	460	0	0			0	0			1				0	
6.6.1	win	2023-06-02	01:17:27	01:31:57	861346	61210b5c3f465c51a7f4166a	3	1	main_slash	7	main_slash	1	stimuli_target_rectanglediamonds.svg	stimuli_distractor_trianglediamonds.svg	2	yes	53	1	380	0	0			0	0			1				0	
6.6.1	win	2023-06-02	01:17:27	01:31:57	861346	61210b5c3f465c51a7f4166a	3	1	main_slash	7	advance_on_keypress_SLASH	2	stimuli_target_rectanglediamonds.svg	stimuli_distractor_trianglediamonds.svg	2	yes	57	0	1810	0	0			0	0			1				0	
6.6.1	win	2023-06-02	01:17:27	01:32:00	864141	61210b5c3f465c51a7f4166a	3	1	main_slash	7	main_slash	3	stimuli_target_diamondrectangles.svg	stimuli_distractor_diamondtriangles.svg	23	yes	53	1	344	0	0			0	0			1				0	
6.6.1	win	2023-06-02	01:17:27	01:32:00	864141	61210b5c3f465c51a7f4166a	3	1	main_slash	7	advance_on_keypress_SLASH	4	stimuli_target_diamondrectangles.svg	stimuli_distractor_diamondtriangles.svg	23	yes	57	0	986	0	0			0	0			1				0	
6.6.1	win	2023-06-02	01:17:27	01:32:03	867054	61210b5c3f465c51a7f4166a	3	1	main_slash	7	main_slash	5	stimuli_target_diamondrectangles.svg	stimuli_distractor_trianglediamonds.svg	19	yes	53	1	1273	0	0			0	0			1				0	
6.6.1	win	2023-06-02	01:17:27	01:32:03	867054	61210b5c3f465c51a7f4166a	3	1	main_slash	7	advance_on_keypress_SLASH	6	stimuli_target_diamondrectangles.svg	stimuli_distractor_trianglediamonds.svg	19	yes	57	0	1955	0	0			0	0			1				0	
6.6.1	win	2023-06-02	01:17:27	01:32:07	871647	61210b5c3f465c51a7f4166a	3	1	main_slash	7	main_slash	7	stimuli_distractor_diamondtriangles.svg	stimuli_target_squarediamonds.svg	16	yes	0	0	2000	0	0			0	0			1				0	
6.6.1	win	2023-06-02	01:17:27	01:32:07	871647	61210b5c3f465c51a7f4166a	3	1	main_slash	7	advance_on_keypress_SLASH	8	stimuli_distractor_diamondtriangles.svg	stimuli_target_squarediamonds.svg	16	yes	57	0	2349	0	0			0	0			1				0	
6.6.1	win	2023-06-02	01:17:27	01:32:12	875877	61210b5c3f465c51a7f4166a	3	1	main_slash	7	main_slash	9	stimuli_distractor_diamondtriangles.svg	stimuli_target_diamondsquares.svg	32	yes	53	1	1231	0	0			0	0			1				0	
6.6.1	win	2023-06-02	01:17:27	01:32:12	875877	61210b5c3f465c51a7f4166a	3	1	main_slash	7	advance_on_keypress_SLASH	10	stimuli_distractor_diamondtriangles.svg	stimuli_target_diamondsquares.svg	32	yes	57	0	1123	0	0			0	0			1				0	
6.6.1	win	2023-06-02	01:17:27	01:32:14	878773	61210b5c3f465c51a7f4166a	3	1	main_slash	7	main_slash	11	stimuli_target_rectangletriangles.svg	stimuli_distractor_diamondtriangles.svg	5	yes	53	1	1128	0	0			0	0			1				0	
6.6.1	win	2023-06-02	01:17:27	01:32:14	878773	61210b5c3f465c51a7f4166a	3	1	main_slash	7	advance_on_keypress_SLASH	12	stimuli_target_rectangletriangles.svg	stimuli_distractor_diamondtriangles.svg	5	yes	57	0	1476	0	0			0	0			1				0	
6.6.1	win	2023-06-02	01:17:27	01:32:19	882895	61210b5c3f465c51a7f4166a	3	1	main_slash	7	main_slash	13	stimuli_distractor_trianglediamonds.svg	stimuli_distractor_trianglediamonds.svg	34	no	0	1	2000	0	0			0	0			1				0	
6.6.1	win	2023-06-02	01:17:27	01:32:19	882895	61210b5c3f465c51a7f4166a	3	1	main_slash	7	advance_on_keypress_SLASH	14	stimuli_distractor_trianglediamonds.svg	stimuli_distractor_trianglediamonds.svg	34	no	57	0	1346	0	0			0	0			1				0	
6.6.1	win	2023-06-02	01:17:27	01:32:21	885660	61210b5c3f465c51a7f4166a	3	1	main_slash	7	main_slash	15	stimuli_distractor_trianglediamonds.svg	stimuli_target_diamondrectangles.svg	27	yes	53	1	766	0	0			0	0			1				0	
6.6.1	win	2023-06-02	01:17:27	01:32:21	885660	61210b5c3f465c51a7f4166a	3	1	main_slash	7	advance_on_keypress_SLASH	16	stimuli_distractor_trianglediamonds.svg	stimuli_target_diamondrectangles.svg	27	yes	57	0	1296	0	0			0	0			1				0	
6.6.1	win	2023-06-02	01:17:27	01:32:25	889611	61210b5c3f465c51a7f4166a	3	1	main_slash	7	main_slash	17	stimuli_target_squarediamonds.svg	stimuli_distractor_trianglediamonds.svg	4	yes	0	0	2000	0	0			0	0			1				0	
6.6.1	win	2023-06-02	01:17:27	01:32:25	889611	61210b5c3f465c51a7f4166a	3	1	main_slash	7	advance_on_keypress_SLASH	18	stimuli_target_squarediamonds.svg	stimuli_distractor_trianglediamonds.svg	4	yes	57	0	1161	0	0			0	0			1				0	
6.6.1	win	2023-06-02	01:17:27	01:32:29	893427	61210b5c3f465c51a7f4166a	3	1	main_slash	7	main_slash	19	stimuli_target_squarediamonds.svg	stimuli_distractor_diamondtriangles.svg	8	yes	0	0	2000	0	0			0	0			1				0	
6.6.1	win	2023-06-02	01:17:27	01:32:29	893427	61210b5c3f465c51a7f4166a	3	1	main_slash	7	advance_on_keypress_SLASH	20	stimuli_target_squarediamonds.svg	stimuli_distractor_diamondtriangles.svg	8	yes	57	0	819	0	0			0	0			1				0	
6.6.1	win	2023-06-02	01:17:27	01:32:33	896894	61210b5c3f465c51a7f4166a	3	1	main_slash	7	main_slash	21	stimuli_target_diamondsquares.svg	stimuli_distractor_trianglediamonds.svg	20	yes	0	0	2000	0	0			0	0			1				0	
6.6.1	win	2023-06-02	01:17:27	01:32:33	896894	61210b5c3f465c51a7f4166a	3	1	main_slash	7	advance_on_keypress_SLASH	22	stimuli_target_diamondsquares.svg	stimuli_distractor_trianglediamonds.svg	20	yes	57	0	1372	0	0			0	0			1				0	
6.6.1	win	2023-06-02	01:17:27	01:32:35	899601	61210b5c3f465c51a7f4166a	3	1	main_slash	7	main_slash	23	stimuli_distractor_diamondtriangles.svg	stimuli_distractor_diamondtriangles.svg	40	no	53	0	691	0	0			0	0			1				0	
6.6.1	win	2023-06-02	01:17:27	01:32:35	899601	61210b5c3f465c51a7f4166a	3	1	main_slash	7	advance_on_keypress_SLASH	24	stimuli_distractor_diamondtriangles.svg	stimuli_distractor_diamondtriangles.svg	40	no	57	0	1199	0	0			0	0			1				0	
6.6.1	win	2023-06-02	01:17:27	01:32:38	902157	61210b5c3f465c51a7f4166a	3	1	main_slash	7	main_slash	25	stimuli_distractor_trianglediamonds.svg	stimuli_target_squaretriangles.svg	11	yes	53	1	714	0	0			0	0			1				0	
6.6.1	win	2023-06-02	01:17:27	01:32:38	902157	61210b5c3f465c51a7f4166a	3	1	main_slash	7	advance_on_keypress_SLASH	26	stimuli_distractor_trianglediamonds.svg	stimuli_target_squaretriangles.svg	11	yes	57	0	939	0	0			0	0			1				0	
6.6.1	win	2023-06-02	01:17:27	01:32:41	905742	61210b5c3f465c51a7f4166a	3	1	main_slash	7	main_slash	27	stimuli_target_squaretriangles.svg	stimuli_distractor_trianglediamonds.svg	3	yes	0	0	2000	0	0			0	0			1				0	
6.6.1	win	2023-06-02	01:17:27	01:32:41	905742	61210b5c3f465c51a7f4166a	3	1	main_slash	7	advance_on_keypress_SLASH	28	stimuli_target_squaretriangles.svg	stimuli_distractor_trianglediamonds.svg	3	yes	57	0	880	0	0			0	0			1				0	
6.6.1	win	2023-06-02	01:17:27	01:32:44	908197	61210b5c3f465c51a7f4166a	3	1	main_slash	7	main_slash	29	stimuli_distractor_diamondtriangles.svg	stimuli_target_trianglesquares.svg	30	yes	53	1	921	0	0			0	0			1				0	
6.6.1	win	2023-06-02	01:17:27	01:32:44	908197	61210b5c3f465c51a7f4166a	3	1	main_slash	7	advance_on_keypress_SLASH	30	stimuli_distractor_diamondtriangles.svg	stimuli_target_trianglesquares.svg	30	yes	57	0	1041	0	0			0	0			1				0	
6.6.1	win	2023-06-02	01:17:27	01:32:46	910283	61210b5c3f465c51a7f4166a	3	1	main_slash	7	main_slash	31	stimuli_distractor_diamondtriangles.svg	stimuli_target_rectanglediamonds.svg	14	yes	53	1	408	0	0			0	0			1				0	
6.6.1	win	2023-06-02	01:17:27	01:32:46	910283	61210b5c3f465c51a7f4166a	3	1	main_slash	7	advance_on_keypress_SLASH	32	stimuli_distractor_diamondtriangles.svg	stimuli_target_rectanglediamonds.svg	14	yes	57	0	1023	0	0			0	0			1				0	
6.6.1	win	2023-06-02	01:17:27	01:32:49	912873	61210b5c3f465c51a7f4166a	3	1	main_slash	7	main_slash	33	stimuli_target_trianglesquares.svg	stimuli_distractor_trianglediamonds.svg	18	yes	53	1	932	0	0			0	0			1				0	
6.6.1	win	2023-06-02	01:17:27	01:32:49	912873	61210b5c3f465c51a7f4166a	3	1	main_slash	7	advance_on_keypress_SLASH	34	stimuli_target_trianglesquares.svg	stimuli_distractor_trianglediamonds.svg	18	yes	57	0	600	0	0			0	0			1				0	
6.6.1	win	2023-06-02	01:17:27	01:32:51	914955	61210b5c3f465c51a7f4166a	3	1	main_slash	7	main_slash	35	stimuli_target_trianglerectangles.svg	stimuli_distractor_diamondtriangles.svg	21	yes	53	1	830	0	0			0	0			1				0	
6.6.1	win	2023-06-02	01:17:27	01:32:51	914955	61210b5c3f465c51a7f4166a	3	1	main_slash	7	advance_on_keypress_SLASH	36	stimuli_target_trianglerectangles.svg	stimuli_distractor_diamondtriangles.svg	21	yes	57	0	1624	0	0			0	0			1				0	
6.6.1	win	2023-06-02	01:17:27	01:32:54	918082	61210b5c3f465c51a7f4166a	3	1	main_slash	7	main_slash	37	stimuli_distractor_trianglediamonds.svg	stimuli_distractor_trianglediamonds.svg	33	no	53	0	858	0	0			0	0			1				0	
6.6.1	win	2023-06-02	01:17:27	01:32:54	918082	61210b5c3f465c51a7f4166a	3	1	main_slash	7	advance_on_keypress_SLASH	38	stimuli_distractor_trianglediamonds.svg	stimuli_distractor_trianglediamonds.svg	33	no	57	0	938	0	0			0	0			1				0	
6.6.1	win	2023-06-02	01:17:27	01:32:57	921657	61210b5c3f465c51a7f4166a	3	1	main_slash	7	main_slash	39	stimuli_distractor_diamondtriangles.svg	stimuli_distractor_diamondtriangles.svg	39	no	0	1	2000	0	0			0	0			1				0	
6.6.1	win	2023-06-02	01:17:27	01:32:57	921657	61210b5c3f465c51a7f4166a	3	1	main_slash	7	advance_on_keypress_SLASH	40	stimuli_distractor_diamondtriangles.svg	stimuli_distractor_diamondtriangles.svg	39	no	57	0	1370	0	0			0	0			1				0	
6.6.1	win	2023-06-02	01:17:27	01:33:01	925420	61210b5c3f465c51a7f4166a	3	1	main_slash	7	main_slash	41	stimuli_target_trianglerectangles.svg	stimuli_distractor_trianglediamonds.svg	17	yes	53	1	1747	0	0			0	0			1				0	
6.6.1	win	2023-06-02	01:17:27	01:33:01	925420	61210b5c3f465c51a7f4166a	3	1	main_slash	7	advance_on_keypress_SLASH	42	stimuli_target_trianglerectangles.svg	stimuli_distractor_trianglediamonds.svg	17	yes	57	0	1480	0	0			0	0			1				0	
6.6.1	win	2023-06-02	01:17:27	01:33:04	928071	61210b5c3f465c51a7f4166a	3	1	main_slash	7	main_slash	43	stimuli_distractor_trianglediamonds.svg	stimuli_target_squarediamonds.svg	12	yes	53	1	511	0	0			0	0			1				0	
6.6.1	win	2023-06-02	01:17:27	01:33:04	928071	61210b5c3f465c51a7f4166a	3	1	main_slash	7	advance_on_keypress_SLASH	44	stimuli_distractor_trianglediamonds.svg	stimuli_target_squarediamonds.svg	12	yes	57	0	1226	0	0			0	0			1				0	
6.6.1	win	2023-06-02	01:17:27	01:33:06	930798	61210b5c3f465c51a7f4166a	3	1	main_slash	7	main_slash	45	stimuli_target_rectanglediamonds.svg	stimuli_distractor_diamondtriangles.svg	6	yes	53	1	860	0	0			0	0			1				0	
6.6.1	win	2023-06-02	01:17:27	01:33:06	930798	61210b5c3f465c51a7f4166a	3	1	main_slash	7	advance_on_keypress_SLASH	46	stimuli_target_rectanglediamonds.svg	stimuli_distractor_diamondtriangles.svg	6	yes	57	0	824	0	0			0	0			1				0	
6.6.1	win	2023-06-02	01:17:27	01:33:09	933189	61210b5c3f465c51a7f4166a	3	1	main_slash	7	main_slash	47	stimuli_target_diamondsquares.svg	stimuli_distractor_diamondtriangles.svg	24	yes	53	1	933	0	0			0	0			1				0	
6.6.1	win	2023-06-02	01:17:27	01:33:09	933189	61210b5c3f465c51a7f4166a	3	1	main_slash	7	advance_on_keypress_SLASH	48	stimuli_target_diamondsquares.svg	stimuli_distractor_diamondtriangles.svg	24	yes	57	0	912	0	0			0	0			1				0	
6.6.1	win	2023-06-02	01:17:27	01:33:11	935791	61210b5c3f465c51a7f4166a	3	1	main_slash	7	main_slash	49	stimuli_target_rectangletriangles.svg	stimuli_distractor_trianglediamonds.svg	1	yes	53	1	1035	0	0			0	0			1				0	
6.6.1	win	2023-06-02	01:17:27	01:33:11	935791	61210b5c3f465c51a7f4166a	3	1	main_slash	7	advance_on_keypress_SLASH	50	stimuli_target_rectangletriangles.svg	stimuli_distractor_trianglediamonds.svg	1	yes	57	0	713	0	0			0	0			1				0	
6.6.1	win	2023-06-02	01:17:27	01:33:14	938337	61210b5c3f465c51a7f4166a	3	1	main_slash	7	main_slash	51	stimuli_distractor_diamondtriangles.svg	stimuli_target_squaretriangles.svg	15	yes	53	1	1182	0	0			0	0			1				0	
6.6.1	win	2023-06-02	01:17:27	01:33:14	938337	61210b5c3f465c51a7f4166a	3	1	main_slash	7	advance_on_keypress_SLASH	52	stimuli_distractor_diamondtriangles.svg	stimuli_target_squaretriangles.svg	15	yes	57	0	569	0	0			0	0			1				0	
6.6.1	win	2023-06-02	01:17:27	01:33:17	941269	61210b5c3f465c51a7f4166a	3	1	main_slash	7	main_slash	53	stimuli_distractor_trianglediamonds.svg	stimuli_target_trianglesquares.svg	26	yes	53	1	1714	0	0			0	0			1				0	
6.6.1	win	2023-06-02	01:17:27	01:33:17	941269	61210b5c3f465c51a7f4166a	3	1	main_slash	7	advance_on_keypress_SLASH	54	stimuli_distractor_trianglediamonds.svg	stimuli_target_trianglesquares.svg	26	yes	57	0	894	0	0			0	0			1				0	
6.6.1	win	2023-06-02	01:17:27	01:33:20	943866	61210b5c3f465c51a7f4166a	3	1	main_slash	7	main_slash	55	stimuli_distractor_trianglediamonds.svg	stimuli_distractor_diamondtriangles.svg	35	no	53	0	1062	0	0			0	0			1				0	
6.6.1	win	2023-06-02	01:17:27	01:33:20	943866	61210b5c3f465c51a7f4166a	3	1	main_slash	7	advance_on_keypress_SLASH	56	stimuli_distractor_trianglediamonds.svg	stimuli_distractor_diamondtriangles.svg	35	no	57	0	565	0	0			0	0			1				0	
6.6.1	win	2023-06-02	01:17:27	01:33:22	945921	61210b5c3f465c51a7f4166a	3	1	main_slash	7	main_slash	57	stimuli_distractor_diamondtriangles.svg	stimuli_target_trianglerectangles.svg	29	yes	53	1	834	0	0			0	0			1				0	
6.6.1	win	2023-06-02	01:17:27	01:33:22	945921	61210b5c3f465c51a7f4166a	3	1	main_slash	7	advance_on_keypress_SLASH	58	stimuli_distractor_diamondtriangles.svg	stimuli_target_trianglerectangles.svg	29	yes	57	0	1798	0	0			0	0			1				0	
6.6.1	win	2023-06-02	01:17:27	01:33:25	948974	61210b5c3f465c51a7f4166a	3	1	main_slash	7	main_slash	59	stimuli_target_trianglesquares.svg	stimuli_distractor_diamondtriangles.svg	22	yes	53	1	604	0	0			0	0			1				0	
6.6.1	win	2023-06-02	01:17:27	01:33:25	948974	61210b5c3f465c51a7f4166a	3	1	main_slash	7	advance_on_keypress_SLASH	60	stimuli_target_trianglesquares.svg	stimuli_distractor_diamondtriangles.svg	22	yes	57	0	1650	0	0			0	0			1				0	
6.6.1	win	2023-06-02	01:17:27	01:33:29	953269	61210b5c3f465c51a7f4166a	3	1	main_slash	7	main_slash	61	stimuli_distractor_diamondtriangles.svg	stimuli_target_diamondrectangles.svg	31	yes	0	0	2000	0	0			0	0			1				0	
6.6.1	win	2023-06-02	01:17:27	01:33:29	953269	61210b5c3f465c51a7f4166a	3	1	main_slash	7	advance_on_keypress_SLASH	62	stimuli_distractor_diamondtriangles.svg	stimuli_target_diamondrectangles.svg	31	yes	57	0	2746	0	0			0	0			1				0	
6.6.1	win	2023-06-02	01:17:27	01:33:33	957354	61210b5c3f465c51a7f4166a	3	1	main_slash	7	main_slash	63	stimuli_distractor_trianglediamonds.svg	stimuli_target_rectanglediamonds.svg	10	yes	53	1	685	0	0			0	0			1				0	
6.6.1	win	2023-06-02	01:17:27	01:33:33	957354	61210b5c3f465c51a7f4166a	3	1	main_slash	7	advance_on_keypress_SLASH	64	stimuli_distractor_trianglediamonds.svg	stimuli_target_rectanglediamonds.svg	10	yes	57	0	887	0	0			0	0			1				0	
6.6.1	win	2023-06-02	01:17:27	01:33:36	959850	61210b5c3f465c51a7f4166a	3	1	main_slash	7	main_slash	65	stimuli_distractor_diamondtriangles.svg	stimuli_target_rectangletriangles.svg	13	yes	53	1	964	0	0			0	0			1				0	
6.6.1	win	2023-06-02	01:17:27	01:33:36	959850	61210b5c3f465c51a7f4166a	3	1	main_slash	7	advance_on_keypress_SLASH	66	stimuli_distractor_diamondtriangles.svg	stimuli_target_rectangletriangles.svg	13	yes	57	0	954	0	0			0	0			1				0	
6.6.1	win	2023-06-02	01:17:27	01:33:39	963452	61210b5c3f465c51a7f4166a	3	1	main_slash	7	main_slash	67	stimuli_distractor_trianglediamonds.svg	stimuli_target_trianglerectangles.svg	25	yes	0	0	2000	0	0			0	0			1				0	
6.6.1	win	2023-06-02	01:17:27	01:33:39	963452	61210b5c3f465c51a7f4166a	3	1	main_slash	7	advance_on_keypress_SLASH	68	stimuli_distractor_trianglediamonds.svg	stimuli_target_trianglerectangles.svg	25	yes	57	0	949	0	0			0	0			1				0	
6.6.1	win	2023-06-02	01:17:27	01:33:42	966787	61210b5c3f465c51a7f4166a	3	1	main_slash	7	main_slash	69	stimuli_distractor_diamondtriangles.svg	stimuli_distractor_trianglediamonds.svg	37	no	53	0	1737	0	0			0	0			1				0	
6.6.1	win	2023-06-02	01:17:27	01:33:42	966787	61210b5c3f465c51a7f4166a	3	1	main_slash	7	advance_on_keypress_SLASH	70	stimuli_distractor_diamondtriangles.svg	stimuli_distractor_trianglediamonds.svg	37	no	57	0	794	0	0			0	0			1				0	
6.6.1	win	2023-06-02	01:17:27	01:33:45	969158	61210b5c3f465c51a7f4166a	3	1	main_slash	7	main_slash	71	stimuli_distractor_trianglediamonds.svg	stimuli_distractor_diamondtriangles.svg	36	no	53	0	941	0	0			0	0			1				0	
6.6.1	win	2023-06-02	01:17:27	01:33:45	969158	61210b5c3f465c51a7f4166a	3	1	main_slash	7	advance_on_keypress_SLASH	72	stimuli_distractor_trianglediamonds.svg	stimuli_distractor_diamondtriangles.svg	36	no	57	0	583	0	0			0	0			1				0	
6.6.1	win	2023-06-02	01:17:27	01:33:48	972384	61210b5c3f465c51a7f4166a	3	1	main_slash	7	main_slash	73	stimuli_distractor_trianglediamonds.svg	stimuli_target_diamondsquares.svg	28	yes	0	0	2000	0	0			0	0			1				0	
6.6.1	win	2023-06-02	01:17:27	01:33:48	972384	61210b5c3f465c51a7f4166a	3	1	main_slash	7	advance_on_keypress_SLASH	74	stimuli_distractor_trianglediamonds.svg	stimuli_target_diamondsquares.svg	28	yes	57	0	889	0	0			0	0			1				0	
6.6.1	win	2023-06-02	01:17:27	01:33:52	975917	61210b5c3f465c51a7f4166a	3	1	main_slash	7	main_slash	75	stimuli_target_squaretriangles.svg	stimuli_distractor_diamondtriangles.svg	7	yes	0	0	2000	0	0			0	0			1				0	
6.6.1	win	2023-06-02	01:17:27	01:33:52	975917	61210b5c3f465c51a7f4166a	3	1	main_slash	7	advance_on_keypress_SLASH	76	stimuli_target_squaretriangles.svg	stimuli_distractor_diamondtriangles.svg	7	yes	57	0	36	0	0			0	0			1				0	
6.6.1	win	2023-06-02	01:17:27	01:33:54	978599	61210b5c3f465c51a7f4166a	3	1	main_slash	7	main_slash	77	stimuli_distractor_diamondtriangles.svg	stimuli_distractor_trianglediamonds.svg	38	no	0	1	2000	0	0			0	0			1				0	
6.6.1	win	2023-06-02	01:17:27	01:33:54	978599	61210b5c3f465c51a7f4166a	3	1	main_slash	7	advance_on_keypress_SLASH	78	stimuli_distractor_diamondtriangles.svg	stimuli_distractor_trianglediamonds.svg	38	no	57	0	918	0	0			0	0			1				0	
6.6.1	win	2023-06-02	01:17:27	01:33:57	981119	61210b5c3f465c51a7f4166a	3	1	main_slash	7	main_slash	79	stimuli_distractor_trianglediamonds.svg	stimuli_target_rectangletriangles.svg	9	yes	53	1	953	0	0			0	0			1				0	
6.6.1	win	2023-06-02	01:17:27	01:33:57	981119	61210b5c3f465c51a7f4166a	3	1	main_slash	7	advance_on_keypress_SLASH	80	stimuli_distractor_trianglediamonds.svg	stimuli_target_rectangletriangles.svg	9	yes	57	0	1014	0	0			0	0			1				0	
6.6.1	win	2023-06-02	01:17:27	01:34:00	984782	61210b5c3f465c51a7f4166a	3	1	main_slash	7	main_slash	81	stimuli_distractor_diamondtriangles.svg	stimuli_distractor_trianglediamonds.svg	38	no	0	1	2000	0	0			0	0			1				0	
6.6.1	win	2023-06-02	01:17:27	01:34:00	984782	61210b5c3f465c51a7f4166a	3	1	main_slash	7	advance_on_keypress_SLASH	82	stimuli_distractor_diamondtriangles.svg	stimuli_distractor_trianglediamonds.svg	38	no	57	0	830	0	0			0	0			1				0	
6.6.1	win	2023-06-02	01:17:27	01:34:04	988265	61210b5c3f465c51a7f4166a	3	1	main_slash	7	main_slash	83	stimuli_distractor_diamondtriangles.svg	stimuli_target_trianglesquares.svg	30	yes	0	0	2000	0	0			0	0			1				0	
6.6.1	win	2023-06-02	01:17:27	01:34:04	988265	61210b5c3f465c51a7f4166a	3	1	main_slash	7	advance_on_keypress_SLASH	84	stimuli_distractor_diamondtriangles.svg	stimuli_target_trianglesquares.svg	30	yes	57	0	144	0	0			0	0			1				0	
6.6.1	win	2023-06-02	01:17:27	01:34:07	991065	61210b5c3f465c51a7f4166a	3	1	main_slash	7	main_slash	85	stimuli_target_trianglesquares.svg	stimuli_distractor_diamondtriangles.svg	22	yes	0	0	2000	0	0			0	0			1				0	
6.6.1	win	2023-06-02	01:17:27	01:34:07	991065	61210b5c3f465c51a7f4166a	3	1	main_slash	7	advance_on_keypress_SLASH	86	stimuli_target_trianglesquares.svg	stimuli_distractor_diamondtriangles.svg	22	yes	57	0	639	0	0			0	0			1				0	
6.6.1	win	2023-06-02	01:17:27	01:34:09	993213	61210b5c3f465c51a7f4166a	3	1	main_slash	7	main_slash	87	stimuli_distractor_trianglediamonds.svg	stimuli_target_squaretriangles.svg	11	yes	53	1	865	0	0			0	0			1				0	
6.6.1	win	2023-06-02	01:17:27	01:34:09	993213	61210b5c3f465c51a7f4166a	3	1	main_slash	7	advance_on_keypress_SLASH	88	stimuli_distractor_trianglediamonds.svg	stimuli_target_squaretriangles.svg	11	yes	57	0	2173	0	0			0	0			1				0	
6.6.1	win	2023-06-02	01:17:27	01:34:14	998030	61210b5c3f465c51a7f4166a	3	1	main_slash	7	main_slash	89	stimuli_distractor_diamondtriangles.svg	stimuli_target_trianglerectangles.svg	29	yes	0	0	2000	0	0			0	0			1				0	
6.6.1	win	2023-06-02	01:17:27	01:34:14	998030	61210b5c3f465c51a7f4166a	3	1	main_slash	7	advance_on_keypress_SLASH	90	stimuli_distractor_diamondtriangles.svg	stimuli_target_trianglerectangles.svg	29	yes	57	0	485	0	0			0	0			1				0	
6.6.1	win	2023-06-02	01:17:27	01:34:15	999704	61210b5c3f465c51a7f4166a	3	1	main_slash	7	main_slash	91	stimuli_target_rectanglediamonds.svg	stimuli_distractor_diamondtriangles.svg	6	yes	53	1	541	0	0			0	0			1				0	
6.6.1	win	2023-06-02	01:17:27	01:34:15	999704	61210b5c3f465c51a7f4166a	3	1	main_slash	7	advance_on_keypress_SLASH	92	stimuli_target_rectanglediamonds.svg	stimuli_distractor_diamondtriangles.svg	6	yes	57	0	1425	0	0			0	0			1				0	
6.6.1	win	2023-06-02	01:17:27	01:34:19	1003763	61210b5c3f465c51a7f4166a	3	1	main_slash	7	main_slash	93	stimuli_distractor_diamondtriangles.svg	stimuli_distractor_diamondtriangles.svg	39	no	0	1	2000	0	0			0	0			1				0	
6.6.1	win	2023-06-02	01:17:27	01:34:19	1003763	61210b5c3f465c51a7f4166a	3	1	main_slash	7	advance_on_keypress_SLASH	94	stimuli_distractor_diamondtriangles.svg	stimuli_distractor_diamondtriangles.svg	39	no	57	0	451	0	0			0	0			1				0	
6.6.1	win	2023-06-02	01:17:27	01:34:21	1005584	61210b5c3f465c51a7f4166a	3	1	main_slash	7	main_slash	95	stimuli_target_squaretriangles.svg	stimuli_distractor_trianglediamonds.svg	3	yes	53	1	722	0	0			0	0			1				0	
6.6.1	win	2023-06-02	01:17:27	01:34:21	1005584	61210b5c3f465c51a7f4166a	3	1	main_slash	7	advance_on_keypress_SLASH	96	stimuli_target_squaretriangles.svg	stimuli_distractor_trianglediamonds.svg	3	yes	57	0	1693	0	0			0	0			1				0	
6.6.1	win	2023-06-02	01:17:27	01:34:26	1009912	61210b5c3f465c51a7f4166a	3	1	main_slash	7	main_slash	97	stimuli_distractor_trianglediamonds.svg	stimuli_target_diamondsquares.svg	28	yes	0	0	2000	0	0			0	0			1				0	
6.6.1	win	2023-06-02	01:17:27	01:34:26	1009912	61210b5c3f465c51a7f4166a	3	1	main_slash	7	advance_on_keypress_SLASH	98	stimuli_distractor_trianglediamonds.svg	stimuli_target_diamondsquares.svg	28	yes	57	0	498	0	0			0	0			1				0	
6.6.1	win	2023-06-02	01:17:27	01:34:27	1011599	61210b5c3f465c51a7f4166a	3	1	main_slash	7	main_slash	99	stimuli_target_rectanglediamonds.svg	stimuli_distractor_trianglediamonds.svg	2	yes	53	1	538	0	0			0	0			1				0	
6.6.1	win	2023-06-02	01:17:27	01:34:27	1011599	61210b5c3f465c51a7f4166a	3	1	main_slash	7	advance_on_keypress_SLASH	100	stimuli_target_rectanglediamonds.svg	stimuli_distractor_trianglediamonds.svg	2	yes	57	0	855	0	0			0	0			1				0	
6.6.1	win	2023-06-02	01:17:27	01:34:31	1015095	61210b5c3f465c51a7f4166a	3	1	main_slash	7	main_slash	101	stimuli_target_trianglesquares.svg	stimuli_distractor_trianglediamonds.svg	18	yes	0	0	2000	0	0			0	0			1				0	
6.6.1	win	2023-06-02	01:17:27	01:34:31	1015095	61210b5c3f465c51a7f4166a	3	1	main_slash	7	advance_on_keypress_SLASH	102	stimuli_target_trianglesquares.svg	stimuli_distractor_trianglediamonds.svg	18	yes	57	0	503	0	0			0	0			1				0	
6.6.1	win	2023-06-02	01:17:27	01:34:34	1018244	61210b5c3f465c51a7f4166a	3	1	main_slash	7	main_slash	103	stimuli_distractor_trianglediamonds.svg	stimuli_target_trianglerectangles.svg	25	yes	0	0	2000	0	0			0	0			1				0	
6.6.1	win	2023-06-02	01:17:27	01:34:34	1018244	61210b5c3f465c51a7f4166a	3	1	main_slash	7	advance_on_keypress_SLASH	104	stimuli_distractor_trianglediamonds.svg	stimuli_target_trianglerectangles.svg	25	yes	57	0	727	0	0			0	0			1				0	
6.6.1	win	2023-06-02	01:17:27	01:34:36	1020100	61210b5c3f465c51a7f4166a	3	1	main_slash	7	main_slash	105	stimuli_distractor_trianglediamonds.svg	stimuli_target_squarediamonds.svg	12	yes	53	1	490	0	0			0	0			1				0	
6.6.1	win	2023-06-02	01:17:27	01:34:36	1020100	61210b5c3f465c51a7f4166a	3	1	main_slash	7	advance_on_keypress_SLASH	106	stimuli_distractor_trianglediamonds.svg	stimuli_target_squarediamonds.svg	12	yes	57	0	1343	0	0			0	0			1				0	
6.6.1	win	2023-06-02	01:17:27	01:34:40	1024077	61210b5c3f465c51a7f4166a	3	1	main_slash	7	main_slash	107	stimuli_distractor_trianglediamonds.svg	stimuli_target_trianglesquares.svg	26	yes	0	0	2000	0	0			0	0			1				0	
6.6.1	win	2023-06-02	01:17:27	01:34:40	1024077	61210b5c3f465c51a7f4166a	3	1	main_slash	7	advance_on_keypress_SLASH	108	stimuli_distractor_trianglediamonds.svg	stimuli_target_trianglesquares.svg	26	yes	57	0	628	0	0			0	0			1				0	
6.6.1	win	2023-06-02	01:17:27	01:34:43	1027360	61210b5c3f465c51a7f4166a	3	1	main_slash	7	main_slash	109	stimuli_distractor_trianglediamonds.svg	stimuli_target_diamondrectangles.svg	27	yes	0	0	2000	0	0			0	0			1				0	
6.6.1	win	2023-06-02	01:17:27	01:34:43	1027360	61210b5c3f465c51a7f4166a	3	1	main_slash	7	advance_on_keypress_SLASH	110	stimuli_distractor_trianglediamonds.svg	stimuli_target_diamondrectangles.svg	27	yes	57	0	313	0	0			0	0			1				0	
6.6.1	win	2023-06-02	01:17:27	01:34:44	1028812	61210b5c3f465c51a7f4166a	3	1	main_slash	7	main_slash	111	stimuli_target_squaretriangles.svg	stimuli_distractor_diamondtriangles.svg	7	yes	53	1	486	0	0			0	0			1				0	
6.6.1	win	2023-06-02	01:17:27	01:34:44	1028812	61210b5c3f465c51a7f4166a	3	1	main_slash	7	advance_on_keypress_SLASH	112	stimuli_target_squaretriangles.svg	stimuli_distractor_diamondtriangles.svg	7	yes	57	0	2443	0	0			0	0			1				0	
6.6.1	win	2023-06-02	01:17:27	01:34:50	1033892	61210b5c3f465c51a7f4166a	3	1	main_slash	7	main_slash	113	stimuli_target_diamondsquares.svg	stimuli_distractor_trianglediamonds.svg	20	yes	0	0	2000	0	0			0	0			1				0	
6.6.1	win	2023-06-02	01:17:27	01:34:50	1033892	61210b5c3f465c51a7f4166a	3	1	main_slash	7	advance_on_keypress_SLASH	114	stimuli_target_diamondsquares.svg	stimuli_distractor_trianglediamonds.svg	20	yes	57	0	693	0	0			0	0			1				0	
6.6.1	win	2023-06-02	01:17:27	01:34:53	1037225	61210b5c3f465c51a7f4166a	3	1	main_slash	7	main_slash	115	stimuli_target_diamondrectangles.svg	stimuli_distractor_trianglediamonds.svg	19	yes	0	0	2000	0	0			0	0			1				0	
6.6.1	win	2023-06-02	01:17:27	01:34:53	1037225	61210b5c3f465c51a7f4166a	3	1	main_slash	7	advance_on_keypress_SLASH	116	stimuli_target_diamondrectangles.svg	stimuli_distractor_trianglediamonds.svg	19	yes	57	0	608	0	0			0	0			1				0	
6.6.1	win	2023-06-02	01:17:27	01:34:56	1040475	61210b5c3f465c51a7f4166a	3	1	main_slash	7	main_slash	117	stimuli_target_trianglerectangles.svg	stimuli_distractor_trianglediamonds.svg	17	yes	0	0	2000	0	0			0	0			1				0	
6.6.1	win	2023-06-02	01:17:27	01:34:56	1040475	61210b5c3f465c51a7f4166a	3	1	main_slash	7	advance_on_keypress_SLASH	118	stimuli_target_trianglerectangles.svg	stimuli_distractor_trianglediamonds.svg	17	yes	57	0	661	0	0			0	0			1				0	
6.6.1	win	2023-06-02	01:17:27	01:34:58	1042236	61210b5c3f465c51a7f4166a	3	1	main_slash	7	main_slash	119	stimuli_distractor_trianglediamonds.svg	stimuli_target_rectanglediamonds.svg	10	yes	53	1	446	0	0			0	0			1				0	
6.6.1	win	2023-06-02	01:17:27	01:34:58	1042236	61210b5c3f465c51a7f4166a	3	1	main_slash	7	advance_on_keypress_SLASH	120	stimuli_distractor_trianglediamonds.svg	stimuli_target_rectanglediamonds.svg	10	yes	57	0	4439	0	0			0	0			1				0	
6.6.1	win	2023-06-02	01:17:27	01:35:05	1049324	61210b5c3f465c51a7f4166a	3	1	main_slash	7	main_slash	121	stimuli_distractor_trianglediamonds.svg	stimuli_distractor_trianglediamonds.svg	34	no	0	1	2000	0	0			0	0			1				0	
6.6.1	win	2023-06-02	01:17:27	01:35:05	1049324	61210b5c3f465c51a7f4166a	3	1	main_slash	7	advance_on_keypress_SLASH	122	stimuli_distractor_trianglediamonds.svg	stimuli_distractor_trianglediamonds.svg	34	no	57	0	525	0	0			0	0			1				0	
6.6.1	win	2023-06-02	01:17:27	01:35:07	1050973	61210b5c3f465c51a7f4166a	3	1	main_slash	7	main_slash	123	stimuli_distractor_diamondtriangles.svg	stimuli_target_squarediamonds.svg	16	yes	53	1	483	0	0			0	0			1				0	
6.6.1	win	2023-06-02	01:17:27	01:35:07	1050973	61210b5c3f465c51a7f4166a	3	1	main_slash	7	advance_on_keypress_SLASH	124	stimuli_distractor_diamondtriangles.svg	stimuli_target_squarediamonds.svg	16	yes	57	0	1853	0	0			0	0			1				0	
6.6.1	win	2023-06-02	01:17:27	01:35:11	1055473	61210b5c3f465c51a7f4166a	3	1	main_slash	7	main_slash	125	stimuli_target_diamondsquares.svg	stimuli_distractor_diamondtriangles.svg	24	yes	0	0	2000	0	0			0	0			1				0	
6.6.1	win	2023-06-02	01:17:27	01:35:11	1055473	61210b5c3f465c51a7f4166a	3	1	main_slash	7	advance_on_keypress_SLASH	126	stimuli_target_diamondsquares.svg	stimuli_distractor_diamondtriangles.svg	24	yes	57	0	591	0	0			0	0			1				0	
6.6.1	win	2023-06-02	01:17:27	01:35:13	1057153	61210b5c3f465c51a7f4166a	3	1	main_slash	7	main_slash	127	stimuli_target_rectangletriangles.svg	stimuli_distractor_diamondtriangles.svg	5	yes	53	1	446	0	0			0	0			1				0	
6.6.1	win	2023-06-02	01:17:27	01:35:13	1057153	61210b5c3f465c51a7f4166a	3	1	main_slash	7	advance_on_keypress_SLASH	128	stimuli_target_rectangletriangles.svg	stimuli_distractor_diamondtriangles.svg	5	yes	57	0	5023	0	0			0	0			1				0	
6.6.1	win	2023-06-02	01:17:27	01:35:19	1063204	61210b5c3f465c51a7f4166a	3	1	main_slash	7	main_slash	129	stimuli_distractor_diamondtriangles.svg	stimuli_target_squaretriangles.svg	15	yes	53	1	381	0	0			0	0			1				0	
6.6.1	win	2023-06-02	01:17:27	01:35:19	1063204	61210b5c3f465c51a7f4166a	3	1	main_slash	7	advance_on_keypress_SLASH	130	stimuli_distractor_diamondtriangles.svg	stimuli_target_squaretriangles.svg	15	yes	57	0	1219	0	0			0	0			1				0	
6.6.1	win	2023-06-02	01:17:27	01:35:23	1067071	61210b5c3f465c51a7f4166a	3	1	main_slash	7	main_slash	131	stimuli_distractor_diamondtriangles.svg	stimuli_target_diamondsquares.svg	32	yes	0	0	2000	0	0			0	0			1				0	
6.6.1	win	2023-06-02	01:17:27	01:35:23	1067071	61210b5c3f465c51a7f4166a	3	1	main_slash	7	advance_on_keypress_SLASH	132	stimuli_distractor_diamondtriangles.svg	stimuli_target_diamondsquares.svg	32	yes	57	0	391	0	0			0	0			1				0	
6.6.1	win	2023-06-02	01:17:27	01:35:24	1068466	61210b5c3f465c51a7f4166a	3	1	main_slash	7	main_slash	133	stimuli_target_squarediamonds.svg	stimuli_distractor_trianglediamonds.svg	4	yes	53	1	361	0	0			0	0			1				0	
6.6.1	win	2023-06-02	01:17:27	01:35:24	1068466	61210b5c3f465c51a7f4166a	3	1	main_slash	7	advance_on_keypress_SLASH	134	stimuli_target_squarediamonds.svg	stimuli_distractor_trianglediamonds.svg	4	yes	57	0	1121	0	0			0	0			1				0	
6.6.1	win	2023-06-02	01:17:27	01:35:26	1070571	61210b5c3f465c51a7f4166a	3	1	main_slash	7	main_slash	135	stimuli_distractor_trianglediamonds.svg	stimuli_target_rectangletriangles.svg	9	yes	53	1	333	0	0			0	0			1				0	
6.6.1	win	2023-06-02	01:17:27	01:35:26	1070571	61210b5c3f465c51a7f4166a	3	1	main_slash	7	advance_on_keypress_SLASH	136	stimuli_distractor_trianglediamonds.svg	stimuli_target_rectangletriangles.svg	9	yes	57	0	810	0	0			0	0			1				0	
6.6.1	win	2023-06-02	01:17:27	01:35:28	1072331	61210b5c3f465c51a7f4166a	3	1	main_slash	7	main_slash	137	stimuli_distractor_diamondtriangles.svg	stimuli_target_rectangletriangles.svg	13	yes	53	1	311	0	0			0	0			1				0	
6.6.1	win	2023-06-02	01:17:27	01:35:28	1072331	61210b5c3f465c51a7f4166a	3	1	main_slash	7	advance_on_keypress_SLASH	138	stimuli_distractor_diamondtriangles.svg	stimuli_target_rectangletriangles.svg	13	yes	57	0	930	0	0			0	0			1				0	
6.6.1	win	2023-06-02	01:17:27	01:35:30	1074240	61210b5c3f465c51a7f4166a	3	1	main_slash	7	main_slash	139	stimuli_distractor_trianglediamonds.svg	stimuli_distractor_diamondtriangles.svg	35	no	53	0	320	0	0			0	0			1				0	
6.6.1	win	2023-06-02	01:17:27	01:35:30	1074240	61210b5c3f465c51a7f4166a	3	1	main_slash	7	advance_on_keypress_SLASH	140	stimuli_distractor_trianglediamonds.svg	stimuli_distractor_diamondtriangles.svg	35	no	57	0	1505	0	0			0	0			1				0	
6.6.1	win	2023-06-02	01:17:27	01:35:32	1076751	61210b5c3f465c51a7f4166a	3	1	main_slash	7	main_slash	141	stimuli_target_rectangletriangles.svg	stimuli_distractor_trianglediamonds.svg	1	yes	53	1	365	0	0			0	0			1				0	
6.6.1	win	2023-06-02	01:17:27	01:35:32	1076751	61210b5c3f465c51a7f4166a	3	1	main_slash	7	advance_on_keypress_SLASH	142	stimuli_target_rectangletriangles.svg	stimuli_distractor_trianglediamonds.svg	1	yes	57	0	683	0	0			0	0			1				0	
6.6.1	win	2023-06-02	01:17:27	01:35:36	1080087	61210b5c3f465c51a7f4166a	3	1	main_slash	7	main_slash	143	stimuli_target_trianglerectangles.svg	stimuli_distractor_diamondtriangles.svg	21	yes	0	0	2000	0	0			0	0			1				0	
6.6.1	win	2023-06-02	01:17:27	01:35:36	1080087	61210b5c3f465c51a7f4166a	3	1	main_slash	7	advance_on_keypress_SLASH	144	stimuli_target_trianglerectangles.svg	stimuli_distractor_diamondtriangles.svg	21	yes	57	0	714	0	0			0	0			1				0	
6.6.1	win	2023-06-02	01:17:27	01:35:38	1081949	61210b5c3f465c51a7f4166a	3	1	main_slash	7	main_slash	145	stimuli_distractor_diamondtriangles.svg	stimuli_distractor_trianglediamonds.svg	37	no	53	0	497	0	0			0	0			1				0	
6.6.1	win	2023-06-02	01:17:27	01:35:38	1081949	61210b5c3f465c51a7f4166a	3	1	main_slash	7	advance_on_keypress_SLASH	146	stimuli_distractor_diamondtriangles.svg	stimuli_distractor_trianglediamonds.svg	37	no	57	0	972	0	0			0	0			1				0	
6.6.1	win	2023-06-02	01:17:27	01:35:41	1085569	61210b5c3f465c51a7f4166a	3	1	main_slash	7	main_slash	147	stimuli_distractor_trianglediamonds.svg	stimuli_distractor_trianglediamonds.svg	33	no	0	1	2000	0	0			0	0			1				0	
6.6.1	win	2023-06-02	01:17:27	01:35:41	1085569	61210b5c3f465c51a7f4166a	3	1	main_slash	7	advance_on_keypress_SLASH	148	stimuli_distractor_trianglediamonds.svg	stimuli_distractor_trianglediamonds.svg	33	no	57	0	409	0	0			0	0			1				0	
6.6.1	win	2023-06-02	01:17:27	01:35:44	1088619	61210b5c3f465c51a7f4166a	3	1	main_slash	7	main_slash	149	stimuli_distractor_trianglediamonds.svg	stimuli_distractor_diamondtriangles.svg	36	no	0	1	2000	0	0			0	0			1				0	
6.6.1	win	2023-06-02	01:17:27	01:35:44	1088619	61210b5c3f465c51a7f4166a	3	1	main_slash	7	advance_on_keypress_SLASH	150	stimuli_distractor_trianglediamonds.svg	stimuli_distractor_diamondtriangles.svg	36	no	57	0	833	0	0			0	0			1				0	
6.6.1	win	2023-06-02	01:17:27	01:35:48	1092102	61210b5c3f465c51a7f4166a	3	1	main_slash	7	main_slash	151	stimuli_distractor_diamondtriangles.svg	stimuli_distractor_diamondtriangles.svg	40	no	0	1	2000	0	0			0	0			1				0	
6.6.1	win	2023-06-02	01:17:27	01:35:48	1092102	61210b5c3f465c51a7f4166a	3	1	main_slash	7	advance_on_keypress_SLASH	152	stimuli_distractor_diamondtriangles.svg	stimuli_distractor_diamondtriangles.svg	40	no	57	0	623	0	0			0	0			1				0	
6.6.1	win	2023-06-02	01:17:27	01:35:50	1093899	61210b5c3f465c51a7f4166a	3	1	main_slash	7	main_slash	153	stimuli_distractor_diamondtriangles.svg	stimuli_target_rectanglediamonds.svg	14	yes	53	1	531	0	0			0	0			1				0	
6.6.1	win	2023-06-02	01:17:27	01:35:50	1093899	61210b5c3f465c51a7f4166a	3	1	main_slash	7	advance_on_keypress_SLASH	154	stimuli_distractor_diamondtriangles.svg	stimuli_target_rectanglediamonds.svg	14	yes	57	0	1961	0	0			0	0			1				0	
6.6.1	win	2023-06-02	01:17:27	01:35:54	1098517	61210b5c3f465c51a7f4166a	3	1	main_slash	7	main_slash	155	stimuli_distractor_diamondtriangles.svg	stimuli_target_diamondrectangles.svg	31	yes	0	0	2000	0	0			0	0			1				0	
6.6.1	win	2023-06-02	01:17:27	01:35:54	1098517	61210b5c3f465c51a7f4166a	3	1	main_slash	7	advance_on_keypress_SLASH	156	stimuli_distractor_diamondtriangles.svg	stimuli_target_diamondrectangles.svg	31	yes	57	0	373	0	0			0	0			1				0	
6.6.1	win	2023-06-02	01:17:27	01:35:57	1101534	61210b5c3f465c51a7f4166a	3	1	main_slash	7	main_slash	157	stimuli_target_diamondrectangles.svg	stimuli_distractor_diamondtriangles.svg	23	yes	0	0	2000	0	0			0	0			1				0	
6.6.1	win	2023-06-02	01:17:27	01:35:57	1101534	61210b5c3f465c51a7f4166a	3	1	main_slash	7	advance_on_keypress_SLASH	158	stimuli_target_diamondrectangles.svg	stimuli_distractor_diamondtriangles.svg	23	yes	57	0	399	0	0			0	0			1				0	
6.6.1	win	2023-06-02	01:17:27	01:35:59	1103077	61210b5c3f465c51a7f4166a	3	1	main_slash	7	main_slash	159	stimuli_target_squarediamonds.svg	stimuli_distractor_diamondtriangles.svg	8	yes	53	1	493	0	0			0	0			1				0	
6.6.1	win	2023-06-02	01:17:27	01:35:59	1103077	61210b5c3f465c51a7f4166a	3	1	main_slash	7	advance_on_keypress_SLASH	160	stimuli_target_squarediamonds.svg	stimuli_distractor_diamondtriangles.svg	8	yes	57	0	1363	0	0			0	0			1				0	
6.6.1	win	2023-06-02	01:17:27	01:37:14	1178253	61210b5c3f465c51a7f4166a	3	1	practice_z	9	practice_z	1	stimuli_distractor_diamondtriangles.svg	stimuli_target_trianglerectangles.svg	9	yes	44	1	345	0	0			0	0			1				0	
6.6.1	win	2023-06-02	01:17:27	01:37:14	1178253	61210b5c3f465c51a7f4166a	3	1	practice_z	9	advance_on_keypress_ZEE	2	stimuli_distractor_diamondtriangles.svg	stimuli_target_trianglerectangles.svg	9	yes	57	0	1379	0	0			0	0			1				0	
6.6.1	win	2023-06-02	01:17:27	01:37:19	1183292	61210b5c3f465c51a7f4166a	3	1	practice_z	9	practice_z	3	stimuli_target_diamondsquares.svg	stimuli_distractor_trianglediamonds.svg	6	yes	0	0	2000	0	0			0	0			1				0	
6.6.1	win	2023-06-02	01:17:27	01:37:19	1183292	61210b5c3f465c51a7f4166a	3	1	practice_z	9	advance_on_keypress_ZEE	4	stimuli_target_diamondsquares.svg	stimuli_distractor_trianglediamonds.svg	6	yes	57	0	1575	0	0			0	0			1				0	
6.6.1	win	2023-06-02	01:17:27	01:37:23	1186920	61210b5c3f465c51a7f4166a	3	1	practice_z	9	practice_z	5	stimuli_distractor_trianglediamonds.svg	stimuli_target_squarediamonds.svg	11	yes	44	1	412	0	0			0	0			1				0	
6.6.1	win	2023-06-02	01:17:27	01:37:23	1186920	61210b5c3f465c51a7f4166a	3	1	practice_z	9	advance_on_keypress_ZEE	6	stimuli_distractor_trianglediamonds.svg	stimuli_target_squarediamonds.svg	11	yes	57	0	834	0	0			0	0			1				0	
6.6.1	win	2023-06-02	01:17:27	01:37:25	1189813	61210b5c3f465c51a7f4166a	3	1	practice_z	9	practice_z	7	stimuli_distractor_diamondtriangles.svg	stimuli_target_diamondrectangles.svg	8	yes	44	1	405	0	0			0	0			1				0	
6.6.1	win	2023-06-02	01:17:27	01:37:25	1189813	61210b5c3f465c51a7f4166a	3	1	practice_z	9	advance_on_keypress_ZEE	8	stimuli_distractor_diamondtriangles.svg	stimuli_target_diamondrectangles.svg	8	yes	57	0	548	0	0			0	0			1				0	
6.6.1	win	2023-06-02	01:17:27	01:37:28	1192394	61210b5c3f465c51a7f4166a	3	1	practice_z	9	practice_z	9	stimuli_distractor_trianglediamonds.svg	stimuli_target_rectanglediamonds.svg	10	yes	44	1	386	0	0			0	0			1				0	
6.6.1	win	2023-06-02	01:17:27	01:37:28	1192394	61210b5c3f465c51a7f4166a	3	1	practice_z	9	advance_on_keypress_ZEE	10	stimuli_distractor_trianglediamonds.svg	stimuli_target_rectanglediamonds.svg	10	yes	57	0	441	0	0			0	0			1				0	
6.6.1	win	2023-06-02	01:17:27	01:37:30	1194749	61210b5c3f465c51a7f4166a	3	1	practice_z	9	practice_z	11	stimuli_distractor_trianglediamonds.svg	stimuli_target_diamondrectangles.svg	12	yes	44	1	276	0	0			0	0			1				0	
6.6.1	win	2023-06-02	01:17:27	01:37:30	1194749	61210b5c3f465c51a7f4166a	3	1	practice_z	9	advance_on_keypress_ZEE	12	stimuli_distractor_trianglediamonds.svg	stimuli_target_diamondrectangles.svg	12	yes	57	0	510	0	0			0	0			1				0	
6.6.1	win	2023-06-02	01:17:27	01:37:33	1197205	61210b5c3f465c51a7f4166a	3	1	practice_z	9	practice_z	13	stimuli_distractor_diamondtriangles.svg	stimuli_distractor_diamondtriangles.svg	13	no	44	0	282	0	0			0	0			1				0	
6.6.1	win	2023-06-02	01:17:27	01:37:33	1197205	61210b5c3f465c51a7f4166a	3	1	practice_z	9	advance_on_keypress_ZEE	14	stimuli_distractor_diamondtriangles.svg	stimuli_distractor_diamondtriangles.svg	13	no	57	0	373	0	0			0	0			1				0	
6.6.1	win	2023-06-02	01:17:27	01:37:35	1199541	61210b5c3f465c51a7f4166a	3	1	practice_z	9	practice_z	15	stimuli_target_rectanglediamonds.svg	stimuli_distractor_trianglediamonds.svg	4	yes	44	1	319	0	0			0	0			1				0	
6.6.1	win	2023-06-02	01:17:27	01:37:35	1199541	61210b5c3f465c51a7f4166a	3	1	practice_z	9	advance_on_keypress_ZEE	16	stimuli_target_rectanglediamonds.svg	stimuli_distractor_trianglediamonds.svg	4	yes	57	0	539	0	0			0	0			1				0	
6.6.1	win	2023-06-02	01:17:27	01:37:38	1202033	61210b5c3f465c51a7f4166a	3	1	practice_z	9	practice_z	17	stimuli_distractor_trianglediamonds.svg	stimuli_distractor_trianglediamonds.svg	15	no	44	0	311	0	0			0	0			1				0	
6.6.1	win	2023-06-02	01:17:27	01:37:38	1202033	61210b5c3f465c51a7f4166a	3	1	practice_z	9	advance_on_keypress_ZEE	18	stimuli_distractor_trianglediamonds.svg	stimuli_distractor_trianglediamonds.svg	15	no	57	0	491	0	0			0	0			1				0	
6.6.1	win	2023-06-02	01:17:27	01:37:40	1204443	61210b5c3f465c51a7f4166a	3	1	practice_z	9	practice_z	19	stimuli_distractor_diamondtriangles.svg	stimuli_target_rectangletriangles.svg	7	yes	44	1	272	0	0			0	0			1				0	
6.6.1	win	2023-06-02	01:17:27	01:37:40	1204443	61210b5c3f465c51a7f4166a	3	1	practice_z	9	advance_on_keypress_ZEE	20	stimuli_distractor_diamondtriangles.svg	stimuli_target_rectangletriangles.svg	7	yes	57	0	638	0	0			0	0			1				0	
6.6.1	win	2023-06-02	01:17:27	01:37:43	1207020	61210b5c3f465c51a7f4166a	3	1	practice_z	9	practice_z	21	stimuli_target_rectanglediamonds.svg	stimuli_distractor_diamondtriangles.svg	1	yes	44	1	299	0	0			0	0			1				0	
6.6.1	win	2023-06-02	01:17:27	01:37:43	1207020	61210b5c3f465c51a7f4166a	3	1	practice_z	9	advance_on_keypress_ZEE	22	stimuli_target_rectanglediamonds.svg	stimuli_distractor_diamondtriangles.svg	1	yes	57	0	531	0	0			0	0			1				0	
6.6.1	win	2023-06-02	01:17:27	01:37:45	1209562	61210b5c3f465c51a7f4166a	3	1	practice_z	9	practice_z	23	stimuli_distractor_diamondtriangles.svg	stimuli_distractor_trianglediamonds.svg	14	no	44	0	357	0	0			0	0			1				0	
6.6.1	win	2023-06-02	01:17:27	01:37:45	1209562	61210b5c3f465c51a7f4166a	3	1	practice_z	9	advance_on_keypress_ZEE	24	stimuli_distractor_diamondtriangles.svg	stimuli_distractor_trianglediamonds.svg	14	no	57	0	379	0	0			0	0			1				0	
6.6.1	win	2023-06-02	01:17:27	01:37:48	1211970	61210b5c3f465c51a7f4166a	3	1	practice_z	9	practice_z	25	stimuli_distractor_trianglediamonds.svg	stimuli_distractor_diamondtriangles.svg	16	no	44	0	370	0	0			0	0			1				0	
6.6.1	win	2023-06-02	01:17:27	01:37:48	1211970	61210b5c3f465c51a7f4166a	3	1	practice_z	9	advance_on_keypress_ZEE	26	stimuli_distractor_trianglediamonds.svg	stimuli_distractor_diamondtriangles.svg	16	no	57	0	359	0	0			0	0			1				0	
6.6.1	win	2023-06-02	01:17:27	01:37:50	1214569	61210b5c3f465c51a7f4166a	3	1	practice_z	9	practice_z	27	stimuli_target_squarediamonds.svg	stimuli_distractor_diamondtriangles.svg	2	yes	44	1	599	0	0			0	0			1				0	
6.6.1	win	2023-06-02	01:17:27	01:37:50	1214569	61210b5c3f465c51a7f4166a	3	1	practice_z	9	advance_on_keypress_ZEE	28	stimuli_target_squarediamonds.svg	stimuli_distractor_diamondtriangles.svg	2	yes	57	0	315	0	0			0	0			1				0	
6.6.1	win	2023-06-02	01:17:27	01:37:54	1218537	61210b5c3f465c51a7f4166a	3	1	practice_z	9	practice_z	29	stimuli_target_diamondsquares.svg	stimuli_distractor_diamondtriangles.svg	3	yes	0	0	2000	0	0			0	0			1				0	
6.6.1	win	2023-06-02	01:17:27	01:37:54	1218537	61210b5c3f465c51a7f4166a	3	1	practice_z	9	advance_on_keypress_ZEE	30	stimuli_target_diamondsquares.svg	stimuli_distractor_diamondtriangles.svg	3	yes	57	0	916	0	0			0	0			1				0	
6.6.1	win	2023-06-02	01:17:27	01:37:57	1221567	61210b5c3f465c51a7f4166a	3	1	practice_z	9	practice_z	31	stimuli_target_squarediamonds.svg	stimuli_distractor_trianglediamonds.svg	5	yes	44	1	463	0	0			0	0			1				0	
6.6.1	win	2023-06-02	01:17:27	01:37:57	1221567	61210b5c3f465c51a7f4166a	3	1	practice_z	9	advance_on_keypress_ZEE	32	stimuli_target_squarediamonds.svg	stimuli_distractor_trianglediamonds.svg	5	yes	57	0	624	0	0			0	0			1				0	
6.6.1	win	2023-06-02	01:17:27	01:38:09	1232885	61210b5c3f465c51a7f4166a	3	1	main_z	11	main_z	1	stimuli_distractor_diamondtriangles.svg	stimuli_distractor_trianglediamonds.svg	38	no	44	0	336	0	0			0	0			1				0	
6.6.1	win	2023-06-02	01:17:27	01:38:09	1232885	61210b5c3f465c51a7f4166a	3	1	main_z	11	advance_on_keypress_ZEE	2	stimuli_distractor_diamondtriangles.svg	stimuli_distractor_trianglediamonds.svg	38	no	57	0	1409	0	0			0	0			1				0	
6.6.1	win	2023-06-02	01:17:27	01:38:11	1235401	61210b5c3f465c51a7f4166a	3	1	main_z	11	main_z	3	stimuli_distractor_trianglediamonds.svg	stimuli_target_rectangletriangles.svg	9	yes	44	1	469	0	0			0	0			1				0	
6.6.1	win	2023-06-02	01:17:27	01:38:11	1235401	61210b5c3f465c51a7f4166a	3	1	main_z	11	advance_on_keypress_ZEE	4	stimuli_distractor_trianglediamonds.svg	stimuli_target_rectangletriangles.svg	9	yes	57	0	838	0	0			0	0			1				0	
6.6.1	win	2023-06-02	01:17:27	01:38:13	1237286	61210b5c3f465c51a7f4166a	3	1	main_z	11	main_z	5	stimuli_distractor_diamondtriangles.svg	stimuli_target_rectanglediamonds.svg	14	yes	44	1	404	0	0			0	0			1				0	
6.6.1	win	2023-06-02	01:17:27	01:38:13	1237286	61210b5c3f465c51a7f4166a	3	1	main_z	11	advance_on_keypress_ZEE	6	stimuli_distractor_diamondtriangles.svg	stimuli_target_rectanglediamonds.svg	14	yes	57	0	1250	0	0			0	0			1				0	
6.6.1	win	2023-06-02	01:17:27	01:38:15	1239517	61210b5c3f465c51a7f4166a	3	1	main_z	11	main_z	7	stimuli_distractor_diamondtriangles.svg	stimuli_target_trianglerectangles.svg	29	yes	44	1	334	0	0			0	0			1				0	
6.6.1	win	2023-06-02	01:17:27	01:38:15	1239517	61210b5c3f465c51a7f4166a	3	1	main_z	11	advance_on_keypress_ZEE	8	stimuli_distractor_diamondtriangles.svg	stimuli_target_trianglerectangles.svg	29	yes	57	0	1218	0	0			0	0			1				0	
6.6.1	win	2023-06-02	01:17:27	01:38:17	1241764	61210b5c3f465c51a7f4166a	3	1	main_z	11	main_z	9	stimuli_distractor_trianglediamonds.svg	stimuli_target_squarediamonds.svg	12	yes	44	1	372	0	0			0	0			1				0	
6.6.1	win	2023-06-02	01:17:27	01:38:17	1241764	61210b5c3f465c51a7f4166a	3	1	main_z	11	advance_on_keypress_ZEE	10	stimuli_distractor_trianglediamonds.svg	stimuli_target_squarediamonds.svg	12	yes	57	0	582	0	0			0	0			1				0	
6.6.1	win	2023-06-02	01:17:27	01:38:19	1243380	61210b5c3f465c51a7f4166a	3	1	main_z	11	main_z	11	stimuli_target_rectanglediamonds.svg	stimuli_distractor_trianglediamonds.svg	2	yes	44	1	369	0	0			0	0			1				0	
6.6.1	win	2023-06-02	01:17:27	01:38:19	1243380	61210b5c3f465c51a7f4166a	3	1	main_z	11	advance_on_keypress_ZEE	12	stimuli_target_rectanglediamonds.svg	stimuli_distractor_trianglediamonds.svg	2	yes	57	0	484	0	0			0	0			1				0	
6.6.1	win	2023-06-02	01:17:27	01:38:22	1246515	61210b5c3f465c51a7f4166a	3	1	main_z	11	main_z	13	stimuli_distractor_trianglediamonds.svg	stimuli_distractor_diamondtriangles.svg	36	no	0	1	2000	0	0			0	0			1				0	
6.6.1	win	2023-06-02	01:17:27	01:38:22	1246515	61210b5c3f465c51a7f4166a	3	1	main_z	11	advance_on_keypress_ZEE	14	stimuli_distractor_trianglediamonds.svg	stimuli_distractor_diamondtriangles.svg	36	no	57	0	690	0	0			0	0			1				0	
6.6.1	win	2023-06-02	01:17:27	01:38:24	1248379	61210b5c3f465c51a7f4166a	3	1	main_z	11	main_z	15	stimuli_target_squarediamonds.svg	stimuli_distractor_diamondtriangles.svg	8	yes	44	1	532	0	0			0	0			1				0	
6.6.1	win	2023-06-02	01:17:27	01:38:24	1248379	61210b5c3f465c51a7f4166a	3	1	main_z	11	advance_on_keypress_ZEE	16	stimuli_target_squarediamonds.svg	stimuli_distractor_diamondtriangles.svg	8	yes	57	0	693	0	0			0	0			1				0	
6.6.1	win	2023-06-02	01:17:27	01:38:27	1251714	61210b5c3f465c51a7f4166a	3	1	main_z	11	main_z	17	stimuli_distractor_trianglediamonds.svg	stimuli_distractor_trianglediamonds.svg	34	no	0	1	2000	0	0			0	0			1				0	
6.6.1	win	2023-06-02	01:17:27	01:38:27	1251714	61210b5c3f465c51a7f4166a	3	1	main_z	11	advance_on_keypress_ZEE	18	stimuli_distractor_trianglediamonds.svg	stimuli_distractor_trianglediamonds.svg	34	no	57	0	483	0	0			0	0			1				0	
6.6.1	win	2023-06-02	01:17:27	01:38:29	1253191	61210b5c3f465c51a7f4166a	3	1	main_z	11	main_z	19	stimuli_target_rectanglediamonds.svg	stimuli_distractor_diamondtriangles.svg	6	yes	44	1	345	0	0			0	0			1				0	
6.6.1	win	2023-06-02	01:17:27	01:38:29	1253191	61210b5c3f465c51a7f4166a	3	1	main_z	11	advance_on_keypress_ZEE	20	stimuli_target_rectanglediamonds.svg	stimuli_distractor_diamondtriangles.svg	6	yes	57	0	1186	0	0			0	0			1				0	
6.6.1	win	2023-06-02	01:17:27	01:38:31	1255392	61210b5c3f465c51a7f4166a	3	1	main_z	11	main_z	21	stimuli_target_trianglerectangles.svg	stimuli_distractor_diamondtriangles.svg	21	yes	44	1	362	0	0			0	0			1				0	
6.6.1	win	2023-06-02	01:17:27	01:38:31	1255392	61210b5c3f465c51a7f4166a	3	1	main_z	11	advance_on_keypress_ZEE	22	stimuli_target_trianglerectangles.svg	stimuli_distractor_diamondtriangles.svg	21	yes	57	0	585	0	0			0	0			1				0	
6.6.1	win	2023-06-02	01:17:27	01:38:34	1258630	61210b5c3f465c51a7f4166a	3	1	main_z	11	main_z	23	stimuli_distractor_trianglediamonds.svg	stimuli_target_trianglerectangles.svg	25	yes	0	0	2000	0	0			0	0			1				0	
6.6.1	win	2023-06-02	01:17:27	01:38:34	1258630	61210b5c3f465c51a7f4166a	3	1	main_z	11	advance_on_keypress_ZEE	24	stimuli_distractor_trianglediamonds.svg	stimuli_target_trianglerectangles.svg	25	yes	57	0	505	0	0			0	0			1				0	
6.6.1	win	2023-06-02	01:17:27	01:38:37	1261779	61210b5c3f465c51a7f4166a	3	1	main_z	11	main_z	25	stimuli_distractor_diamondtriangles.svg	stimuli_distractor_trianglediamonds.svg	37	no	0	1	2000	0	0			0	0			1				0	
6.6.1	win	2023-06-02	01:17:27	01:38:37	1261779	61210b5c3f465c51a7f4166a	3	1	main_z	11	advance_on_keypress_ZEE	26	stimuli_distractor_diamondtriangles.svg	stimuli_distractor_trianglediamonds.svg	37	no	57	0	579	0	0			0	0			1				0	
6.6.1	win	2023-06-02	01:17:27	01:38:41	1265013	61210b5c3f465c51a7f4166a	3	1	main_z	11	main_z	27	stimuli_distractor_trianglediamonds.svg	stimuli_target_trianglesquares.svg	26	yes	0	0	2000	0	0			0	0			1				0	
6.6.1	win	2023-06-02	01:17:27	01:38:41	1265013	61210b5c3f465c51a7f4166a	3	1	main_z	11	advance_on_keypress_ZEE	28	stimuli_distractor_trianglediamonds.svg	stimuli_target_trianglesquares.svg	26	yes	57	0	263	0	0			0	0			1				0	
6.6.1	win	2023-06-02	01:17:27	01:38:42	1266349	61210b5c3f465c51a7f4166a	3	1	main_z	11	main_z	29	stimuli_distractor_trianglediamonds.svg	stimuli_target_rectanglediamonds.svg	10	yes	44	1	420	0	0			0	0			1				0	
6.6.1	win	2023-06-02	01:17:27	01:38:42	1266349	61210b5c3f465c51a7f4166a	3	1	main_z	11	advance_on_keypress_ZEE	30	stimuli_distractor_trianglediamonds.svg	stimuli_target_rectanglediamonds.svg	10	yes	57	0	990	0	0			0	0			1				0	
6.6.1	win	2023-06-02	01:17:27	01:38:44	1268384	61210b5c3f465c51a7f4166a	3	1	main_z	11	main_z	31	stimuli_target_squaretriangles.svg	stimuli_distractor_trianglediamonds.svg	3	yes	44	1	406	0	0			0	0			1				0	
6.6.1	win	2023-06-02	01:17:27	01:38:44	1268384	61210b5c3f465c51a7f4166a	3	1	main_z	11	advance_on_keypress_ZEE	32	stimuli_target_squaretriangles.svg	stimuli_distractor_trianglediamonds.svg	3	yes	57	0	1318	0	0			0	0			1				0	
6.6.1	win	2023-06-02	01:17:27	01:38:48	1272345	61210b5c3f465c51a7f4166a	3	1	main_z	11	main_z	33	stimuli_target_diamondrectangles.svg	stimuli_distractor_trianglediamonds.svg	19	yes	0	0	2000	0	0			0	0			1				0	
6.6.1	win	2023-06-02	01:17:27	01:38:48	1272345	61210b5c3f465c51a7f4166a	3	1	main_z	11	advance_on_keypress_ZEE	34	stimuli_target_diamondrectangles.svg	stimuli_distractor_trianglediamonds.svg	19	yes	57	0	930	0	0			0	0			1				0	
6.6.1	win	2023-06-02	01:17:27	01:38:52	1275928	61210b5c3f465c51a7f4166a	3	1	main_z	11	main_z	35	stimuli_distractor_trianglediamonds.svg	stimuli_distractor_trianglediamonds.svg	33	no	0	1	2000	0	0			0	0			1				0	
6.6.1	win	2023-06-02	01:17:27	01:38:52	1275928	61210b5c3f465c51a7f4166a	3	1	main_z	11	advance_on_keypress_ZEE	36	stimuli_distractor_trianglediamonds.svg	stimuli_distractor_trianglediamonds.svg	33	no	57	0	461	0	0			0	0			1				0	
6.6.1	win	2023-06-02	01:17:27	01:38:53	1277361	61210b5c3f465c51a7f4166a	3	1	main_z	11	main_z	37	stimuli_target_diamondsquares.svg	stimuli_distractor_diamondtriangles.svg	24	yes	44	1	334	0	0			0	0			1				0	
6.6.1	win	2023-06-02	01:17:27	01:38:53	1277361	61210b5c3f465c51a7f4166a	3	1	main_z	11	advance_on_keypress_ZEE	38	stimuli_target_diamondsquares.svg	stimuli_distractor_diamondtriangles.svg	24	yes	57	0	1227	0	0			0	0			1				0	
6.6.1	win	2023-06-02	01:17:27	01:38:55	1279626	61210b5c3f465c51a7f4166a	3	1	main_z	11	main_z	39	stimuli_distractor_diamondtriangles.svg	stimuli_target_squarediamonds.svg	16	yes	44	1	370	0	0			0	0			1				0	
6.6.1	win	2023-06-02	01:17:27	01:38:55	1279626	61210b5c3f465c51a7f4166a	3	1	main_z	11	advance_on_keypress_ZEE	40	stimuli_distractor_diamondtriangles.svg	stimuli_target_squarediamonds.svg	16	yes	57	0	625	0	0			0	0			1				0	
6.6.1	win	2023-06-02	01:17:27	01:38:57	1281247	61210b5c3f465c51a7f4166a	3	1	main_z	11	main_z	41	stimuli_target_squarediamonds.svg	stimuli_distractor_trianglediamonds.svg	4	yes	44	1	353	0	0			0	0			1				0	
6.6.1	win	2023-06-02	01:17:27	01:38:57	1281247	61210b5c3f465c51a7f4166a	3	1	main_z	11	advance_on_keypress_ZEE	42	stimuli_target_squarediamonds.svg	stimuli_distractor_trianglediamonds.svg	4	yes	57	0	507	0	0			0	0			1				0	
6.6.1	win	2023-06-02	01:17:27	01:38:58	1282755	61210b5c3f465c51a7f4166a	3	1	main_z	11	main_z	43	stimuli_distractor_trianglediamonds.svg	stimuli_target_diamondrectangles.svg	27	yes	44	1	361	0	0			0	0			1				0	
6.6.1	win	2023-06-02	01:17:27	01:38:58	1282755	61210b5c3f465c51a7f4166a	3	1	main_z	11	advance_on_keypress_ZEE	44	stimuli_distractor_trianglediamonds.svg	stimuli_target_diamondrectangles.svg	27	yes	57	0	866	0	0			0	0			1				0	
6.6.1	win	2023-06-02	01:17:27	01:39:00	1284658	61210b5c3f465c51a7f4166a	3	1	main_z	11	main_z	45	stimuli_distractor_diamondtriangles.svg	stimuli_distractor_diamondtriangles.svg	40	no	44	0	378	0	0			0	0			1				0	
6.6.1	win	2023-06-02	01:17:27	01:39:00	1284658	61210b5c3f465c51a7f4166a	3	1	main_z	11	advance_on_keypress_ZEE	46	stimuli_distractor_diamondtriangles.svg	stimuli_distractor_diamondtriangles.svg	40	no	57	0	585	0	0			0	0			1				0	
6.6.1	win	2023-06-02	01:17:27	01:39:02	1286484	61210b5c3f465c51a7f4166a	3	1	main_z	11	main_z	47	stimuli_target_diamondsquares.svg	stimuli_distractor_trianglediamonds.svg	20	yes	44	1	592	0	0			0	0			1				0	
6.6.1	win	2023-06-02	01:17:27	01:39:02	1286484	61210b5c3f465c51a7f4166a	3	1	main_z	11	advance_on_keypress_ZEE	48	stimuli_target_diamondsquares.svg	stimuli_distractor_trianglediamonds.svg	20	yes	57	0	623	0	0			0	0			1				0	
6.6.1	win	2023-06-02	01:17:27	01:39:04	1288124	61210b5c3f465c51a7f4166a	3	1	main_z	11	main_z	49	stimuli_distractor_diamondtriangles.svg	stimuli_target_rectangletriangles.svg	13	yes	44	1	376	0	0			0	0			1				0	
6.6.1	win	2023-06-02	01:17:27	01:39:04	1288124	61210b5c3f465c51a7f4166a	3	1	main_z	11	advance_on_keypress_ZEE	50	stimuli_distractor_diamondtriangles.svg	stimuli_target_rectangletriangles.svg	13	yes	57	0	694	0	0			0	0			1				0	
6.6.1	win	2023-06-02	01:17:27	01:39:06	1289874	61210b5c3f465c51a7f4166a	3	1	main_z	11	main_z	51	stimuli_distractor_diamondtriangles.svg	stimuli_target_squaretriangles.svg	15	yes	44	1	415	0	0			0	0			1				0	
6.6.1	win	2023-06-02	01:17:27	01:39:06	1289874	61210b5c3f465c51a7f4166a	3	1	main_z	11	advance_on_keypress_ZEE	52	stimuli_distractor_diamondtriangles.svg	stimuli_target_squaretriangles.svg	15	yes	57	0	562	0	0			0	0			1				0	
6.6.1	win	2023-06-02	01:17:27	01:39:09	1293092	61210b5c3f465c51a7f4166a	3	1	main_z	11	main_z	53	stimuli_distractor_diamondtriangles.svg	stimuli_target_diamondsquares.svg	32	yes	0	0	2000	0	0			0	0			1				0	
6.6.1	win	2023-06-02	01:17:27	01:39:09	1293092	61210b5c3f465c51a7f4166a	3	1	main_z	11	advance_on_keypress_ZEE	54	stimuli_distractor_diamondtriangles.svg	stimuli_target_diamondsquares.svg	32	yes	57	0	424	0	0			0	0			1				0	
6.6.1	win	2023-06-02	01:17:27	01:39:10	1294499	61210b5c3f465c51a7f4166a	3	1	main_z	11	main_z	55	stimuli_target_rectangletriangles.svg	stimuli_distractor_trianglediamonds.svg	1	yes	44	1	341	0	0			0	0			1				0	
6.6.1	win	2023-06-02	01:17:27	01:39:10	1294499	61210b5c3f465c51a7f4166a	3	1	main_z	11	advance_on_keypress_ZEE	56	stimuli_target_rectangletriangles.svg	stimuli_distractor_trianglediamonds.svg	1	yes	57	0	492	0	0			0	0			1				0	
6.6.1	win	2023-06-02	01:17:27	01:39:13	1297625	61210b5c3f465c51a7f4166a	3	1	main_z	11	main_z	57	stimuli_distractor_trianglediamonds.svg	stimuli_target_diamondsquares.svg	28	yes	0	0	2000	0	0			0	0			1				0	
6.6.1	win	2023-06-02	01:17:27	01:39:13	1297625	61210b5c3f465c51a7f4166a	3	1	main_z	11	advance_on_keypress_ZEE	58	stimuli_distractor_trianglediamonds.svg	stimuli_target_diamondsquares.svg	28	yes	57	0	492	0	0			0	0			1				0	
6.6.1	win	2023-06-02	01:17:27	01:39:16	1300758	61210b5c3f465c51a7f4166a	3	1	main_z	11	main_z	59	stimuli_target_trianglerectangles.svg	stimuli_distractor_trianglediamonds.svg	17	yes	0	0	2000	0	0			0	0			1				0	
6.6.1	win	2023-06-02	01:17:27	01:39:16	1300758	61210b5c3f465c51a7f4166a	3	1	main_z	11	advance_on_keypress_ZEE	60	stimuli_target_trianglerectangles.svg	stimuli_distractor_trianglediamonds.svg	17	yes	57	0	372	0	0			0	0			1				0	
6.6.1	win	2023-06-02	01:17:27	01:39:18	1302139	61210b5c3f465c51a7f4166a	3	1	main_z	11	main_z	61	stimuli_distractor_diamondtriangles.svg	stimuli_target_trianglesquares.svg	30	yes	44	1	364	0	0			0	0			1				0	
6.6.1	win	2023-06-02	01:17:27	01:39:18	1302139	61210b5c3f465c51a7f4166a	3	1	main_z	11	advance_on_keypress_ZEE	62	stimuli_distractor_diamondtriangles.svg	stimuli_target_trianglesquares.svg	30	yes	57	0	858	0	0			0	0			1				0	
6.6.1	win	2023-06-02	01:17:27	01:39:21	1304981	61210b5c3f465c51a7f4166a	3	1	main_z	11	main_z	63	stimuli_distractor_trianglediamonds.svg	stimuli_distractor_diamondtriangles.svg	35	no	44	0	1340	0	0			0	0			1				0	
6.6.1	win	2023-06-02	01:17:27	01:39:21	1304981	61210b5c3f465c51a7f4166a	3	1	main_z	11	advance_on_keypress_ZEE	64	stimuli_distractor_trianglediamonds.svg	stimuli_distractor_diamondtriangles.svg	35	no	57	0	587	0	0			0	0			1				0	
6.6.1	win	2023-06-02	01:17:27	01:39:24	1308207	61210b5c3f465c51a7f4166a	3	1	main_z	11	main_z	65	stimuli_distractor_diamondtriangles.svg	stimuli_target_diamondrectangles.svg	31	yes	0	0	2000	0	0			0	0			1				0	
6.6.1	win	2023-06-02	01:17:27	01:39:24	1308207	61210b5c3f465c51a7f4166a	3	1	main_z	11	advance_on_keypress_ZEE	66	stimuli_distractor_diamondtriangles.svg	stimuli_target_diamondrectangles.svg	31	yes	57	0	427	0	0			0	0			1				0	
6.6.1	win	2023-06-02	01:17:27	01:39:25	1309768	61210b5c3f465c51a7f4166a	3	1	main_z	11	main_z	67	stimuli_distractor_trianglediamonds.svg	stimuli_target_squaretriangles.svg	11	yes	44	1	494	0	0			0	0			1				0	
6.6.1	win	2023-06-02	01:17:27	01:39:25	1309768	61210b5c3f465c51a7f4166a	3	1	main_z	11	advance_on_keypress_ZEE	68	stimuli_distractor_trianglediamonds.svg	stimuli_target_squaretriangles.svg	11	yes	57	0	1597	0	0			0	0			1				0	
6.6.1	win	2023-06-02	01:17:27	01:39:28	1312630	61210b5c3f465c51a7f4166a	3	1	main_z	11	main_z	69	stimuli_target_rectangletriangles.svg	stimuli_distractor_diamondtriangles.svg	5	yes	44	1	608	0	0			0	0			1				0	
6.6.1	win	2023-06-02	01:17:27	01:39:28	1312630	61210b5c3f465c51a7f4166a	3	1	main_z	11	advance_on_keypress_ZEE	70	stimuli_target_rectangletriangles.svg	stimuli_distractor_diamondtriangles.svg	5	yes	57	0	1580	0	0			0	0			1				0	
6.6.1	win	2023-06-02	01:17:27	01:39:32	1315838	61210b5c3f465c51a7f4166a	3	1	main_z	11	main_z	71	stimuli_target_trianglesquares.svg	stimuli_distractor_diamondtriangles.svg	22	yes	44	1	983	0	0			0	0			1				0	
6.6.1	win	2023-06-02	01:17:27	01:39:32	1315838	61210b5c3f465c51a7f4166a	3	1	main_z	11	advance_on_keypress_ZEE	72	stimuli_target_trianglesquares.svg	stimuli_distractor_diamondtriangles.svg	22	yes	57	0	499	0	0			0	0			1				0	
6.6.1	win	2023-06-02	01:17:27	01:39:33	1317504	61210b5c3f465c51a7f4166a	3	1	main_z	11	main_z	73	stimuli_target_squaretriangles.svg	stimuli_distractor_diamondtriangles.svg	7	yes	44	1	509	0	0			0	0			1				0	
6.6.1	win	2023-06-02	01:17:27	01:39:33	1317504	61210b5c3f465c51a7f4166a	3	1	main_z	11	advance_on_keypress_ZEE	74	stimuli_target_squaretriangles.svg	stimuli_distractor_diamondtriangles.svg	7	yes	57	0	341	0	0			0	0			1				0	
6.6.1	win	2023-06-02	01:17:27	01:39:36	1320488	61210b5c3f465c51a7f4166a	3	1	main_z	11	main_z	75	stimuli_target_diamondrectangles.svg	stimuli_distractor_diamondtriangles.svg	23	yes	0	0	2000	0	0			0	0			1				0	
6.6.1	win	2023-06-02	01:17:27	01:39:36	1320488	61210b5c3f465c51a7f4166a	3	1	main_z	11	advance_on_keypress_ZEE	76	stimuli_target_diamondrectangles.svg	stimuli_distractor_diamondtriangles.svg	23	yes	57	0	867	0	0			0	0			1				0	
6.6.1	win	2023-06-02	01:17:27	01:39:40	1324005	61210b5c3f465c51a7f4166a	3	1	main_z	11	main_z	77	stimuli_distractor_diamondtriangles.svg	stimuli_distractor_diamondtriangles.svg	39	no	0	1	2000	0	0			0	0			1				0	
6.6.1	win	2023-06-02	01:17:27	01:39:40	1324005	61210b5c3f465c51a7f4166a	3	1	main_z	11	advance_on_keypress_ZEE	78	stimuli_distractor_diamondtriangles.svg	stimuli_distractor_diamondtriangles.svg	39	no	57	0	553	0	0			0	0			1				0	
6.6.1	win	2023-06-02	01:17:27	01:39:43	1327205	61210b5c3f465c51a7f4166a	3	1	main_z	11	main_z	79	stimuli_target_trianglesquares.svg	stimuli_distractor_trianglediamonds.svg	18	yes	0	0	2000	0	0			0	0			1				0	
6.6.1	win	2023-06-02	01:17:27	01:39:43	1327205	61210b5c3f465c51a7f4166a	3	1	main_z	11	advance_on_keypress_ZEE	80	stimuli_target_trianglesquares.svg	stimuli_distractor_trianglediamonds.svg	18	yes	57	0	437	0	0			0	0			1				0	
6.6.1	win	2023-06-02	01:17:27	01:39:46	1330287	61210b5c3f465c51a7f4166a	3	1	main_z	11	main_z	81	stimuli_distractor_trianglediamonds.svg	stimuli_target_trianglerectangles.svg	25	yes	0	0	2000	0	0			0	0			1				0	
6.6.1	win	2023-06-02	01:17:27	01:39:46	1330287	61210b5c3f465c51a7f4166a	3	1	main_z	11	advance_on_keypress_ZEE	82	stimuli_distractor_trianglediamonds.svg	stimuli_target_trianglerectangles.svg	25	yes	57	0	537	0	0			0	0			1				0	
6.6.1	win	2023-06-02	01:17:27	01:39:48	1331898	61210b5c3f465c51a7f4166a	3	1	main_z	11	main_z	83	stimuli_distractor_diamondtriangles.svg	stimuli_target_trianglesquares.svg	30	yes	44	1	428	0	0			0	0			1				0	
6.6.1	win	2023-06-02	01:17:27	01:39:48	1331898	61210b5c3f465c51a7f4166a	3	1	main_z	11	advance_on_keypress_ZEE	84	stimuli_distractor_diamondtriangles.svg	stimuli_target_trianglesquares.svg	30	yes	57	0	594	0	0			0	0			1				0	
6.6.1	win	2023-06-02	01:17:27	01:39:50	1334114	61210b5c3f465c51a7f4166a	3	1	main_z	11	main_z	85	stimuli_distractor_trianglediamonds.svg	stimuli_distractor_diamondtriangles.svg	35	no	44	0	960	0	0			0	0			1				0	
6.6.1	win	2023-06-02	01:17:27	01:39:50	1334114	61210b5c3f465c51a7f4166a	3	1	main_z	11	advance_on_keypress_ZEE	86	stimuli_distractor_trianglediamonds.svg	stimuli_distractor_diamondtriangles.svg	35	no	57	0	506	0	0			0	0			1				0	
6.6.1	win	2023-06-02	01:17:27	01:39:51	1335648	61210b5c3f465c51a7f4166a	3	1	main_z	11	main_z	87	stimuli_target_rectanglediamonds.svg	stimuli_distractor_trianglediamonds.svg	2	yes	44	1	394	0	0			0	0			1				0	
6.6.1	win	2023-06-02	01:17:27	01:39:51	1335648	61210b5c3f465c51a7f4166a	3	1	main_z	11	advance_on_keypress_ZEE	88	stimuli_target_rectanglediamonds.svg	stimuli_distractor_trianglediamonds.svg	2	yes	57	0	394	0	0			0	0			1				0	
6.6.1	win	2023-06-02	01:17:27	01:39:53	1337708	61210b5c3f465c51a7f4166a	3	1	main_z	11	main_z	89	stimuli_distractor_diamondtriangles.svg	stimuli_target_trianglerectangles.svg	29	yes	44	1	1005	0	0			0	0			1				0	
6.6.1	win	2023-06-02	01:17:27	01:39:53	1337708	61210b5c3f465c51a7f4166a	3	1	main_z	11	advance_on_keypress_ZEE	90	stimuli_distractor_diamondtriangles.svg	stimuli_target_trianglerectangles.svg	29	yes	57	0	440	0	0			0	0			1				0	
6.6.1	win	2023-06-02	01:17:27	01:39:55	1339207	61210b5c3f465c51a7f4166a	3	1	main_z	11	main_z	91	stimuli_target_squaretriangles.svg	stimuli_distractor_trianglediamonds.svg	3	yes	44	1	421	0	0			0	0			1				0	
6.6.1	win	2023-06-02	01:17:27	01:39:55	1339207	61210b5c3f465c51a7f4166a	3	1	main_z	11	advance_on_keypress_ZEE	92	stimuli_target_squaretriangles.svg	stimuli_distractor_trianglediamonds.svg	3	yes	57	0	594	0	0			0	0			1				0	
6.6.1	win	2023-06-02	01:17:27	01:39:58	1342452	61210b5c3f465c51a7f4166a	3	1	main_z	11	main_z	93	stimuli_target_diamondrectangles.svg	stimuli_distractor_diamondtriangles.svg	23	yes	0	0	2000	0	0			0	0			1				0	
6.6.1	win	2023-06-02	01:17:27	01:39:58	1342452	61210b5c3f465c51a7f4166a	3	1	main_z	11	advance_on_keypress_ZEE	94	stimuli_target_diamondrectangles.svg	stimuli_distractor_diamondtriangles.svg	23	yes	57	0	442	0	0			0	0			1				0	
6.6.1	win	2023-06-02	01:17:27	01:40:01	1345535	61210b5c3f465c51a7f4166a	3	1	main_z	11	main_z	95	stimuli_target_trianglerectangles.svg	stimuli_distractor_trianglediamonds.svg	17	yes	0	0	2000	0	0			0	0			1				0	
6.6.1	win	2023-06-02	01:17:27	01:40:01	1345535	61210b5c3f465c51a7f4166a	3	1	main_z	11	advance_on_keypress_ZEE	96	stimuli_target_trianglerectangles.svg	stimuli_distractor_trianglediamonds.svg	17	yes	57	0	662	0	0			0	0			1				0	
6.6.1	win	2023-06-02	01:17:27	01:40:03	1347171	61210b5c3f465c51a7f4166a	3	1	main_z	11	main_z	97	stimuli_target_rectangletriangles.svg	stimuli_distractor_trianglediamonds.svg	1	yes	44	1	320	0	0			0	0			1				0	
6.6.1	win	2023-06-02	01:17:27	01:40:03	1347171	61210b5c3f465c51a7f4166a	3	1	main_z	11	advance_on_keypress_ZEE	98	stimuli_target_rectangletriangles.svg	stimuli_distractor_trianglediamonds.svg	1	yes	57	0	382	0	0			0	0			1				0	
6.6.1	win	2023-06-02	01:17:27	01:40:05	1348881	61210b5c3f465c51a7f4166a	3	1	main_z	11	main_z	99	stimuli_target_diamondrectangles.svg	stimuli_distractor_trianglediamonds.svg	19	yes	44	1	679	0	0			0	0			1				0	
6.6.1	win	2023-06-02	01:17:27	01:40:05	1348881	61210b5c3f465c51a7f4166a	3	1	main_z	11	advance_on_keypress_ZEE	100	stimuli_target_diamondrectangles.svg	stimuli_distractor_trianglediamonds.svg	19	yes	57	0	461	0	0			0	0			1				0	
6.6.1	win	2023-06-02	01:17:27	01:40:06	1350424	61210b5c3f465c51a7f4166a	3	1	main_z	11	main_z	101	stimuli_target_squarediamonds.svg	stimuli_distractor_diamondtriangles.svg	8	yes	44	1	423	0	0			0	0			1				0	
6.6.1	win	2023-06-02	01:17:27	01:40:06	1350424	61210b5c3f465c51a7f4166a	3	1	main_z	11	advance_on_keypress_ZEE	102	stimuli_target_squarediamonds.svg	stimuli_distractor_diamondtriangles.svg	8	yes	57	0	406	0	0			0	0			1				0	
6.6.1	win	2023-06-02	01:17:27	01:40:07	1351813	61210b5c3f465c51a7f4166a	3	1	main_z	11	main_z	103	stimuli_distractor_diamondtriangles.svg	stimuli_target_rectanglediamonds.svg	14	yes	44	1	345	0	0			0	0			1				0	
6.6.1	win	2023-06-02	01:17:27	01:40:07	1351813	61210b5c3f465c51a7f4166a	3	1	main_z	11	advance_on_keypress_ZEE	104	stimuli_distractor_diamondtriangles.svg	stimuli_target_rectanglediamonds.svg	14	yes	57	0	334	0	0			0	0			1				0	
6.6.1	win	2023-06-02	01:17:27	01:40:09	1353166	61210b5c3f465c51a7f4166a	3	1	main_z	11	main_z	105	stimuli_distractor_diamondtriangles.svg	stimuli_target_rectangletriangles.svg	13	yes	44	1	365	0	0			0	0			1				0	
6.6.1	win	2023-06-02	01:17:27	01:40:09	1353166	61210b5c3f465c51a7f4166a	3	1	main_z	11	advance_on_keypress_ZEE	106	stimuli_distractor_diamondtriangles.svg	stimuli_target_rectangletriangles.svg	13	yes	57	0	459	0	0			0	0			1				0	
6.6.1	win	2023-06-02	01:17:27	01:40:12	1356267	61210b5c3f465c51a7f4166a	3	1	main_z	11	main_z	107	stimuli_distractor_trianglediamonds.svg	stimuli_target_diamondrectangles.svg	27	yes	0	0	2000	0	0			0	0			1				0	
6.6.1	win	2023-06-02	01:17:27	01:40:12	1356267	61210b5c3f465c51a7f4166a	3	1	main_z	11	advance_on_keypress_ZEE	108	stimuli_distractor_trianglediamonds.svg	stimuli_target_diamondrectangles.svg	27	yes	57	0	326	0	0			0	0			1				0	
6.6.1	win	2023-06-02	01:17:27	01:40:13	1357693	61210b5c3f465c51a7f4166a	3	1	main_z	11	main_z	109	stimuli_target_diamondsquares.svg	stimuli_distractor_trianglediamonds.svg	20	yes	44	1	459	0	0			0	0			1				0	
6.6.1	win	2023-06-02	01:17:27	01:40:13	1357693	61210b5c3f465c51a7f4166a	3	1	main_z	11	advance_on_keypress_ZEE	110	stimuli_target_diamondsquares.svg	stimuli_distractor_trianglediamonds.svg	20	yes	57	0	724	0	0			0	0			1				0	
6.6.1	win	2023-06-02	01:17:27	01:40:17	1361050	61210b5c3f465c51a7f4166a	3	1	main_z	11	main_z	111	stimuli_distractor_trianglediamonds.svg	stimuli_distractor_trianglediamonds.svg	34	no	0	1	2000	0	0			0	0			1				0	
6.6.1	win	2023-06-02	01:17:27	01:40:17	1361050	61210b5c3f465c51a7f4166a	3	1	main_z	11	advance_on_keypress_ZEE	112	stimuli_distractor_trianglediamonds.svg	stimuli_distractor_trianglediamonds.svg	34	no	57	0	686	0	0			0	0			1				0	
6.6.1	win	2023-06-02	01:17:27	01:40:20	1364383	61210b5c3f465c51a7f4166a	3	1	main_z	11	main_z	113	stimuli_target_diamondsquares.svg	stimuli_distractor_diamondtriangles.svg	24	yes	0	0	2000	0	0			0	0			1				0	
6.6.1	win	2023-06-02	01:17:27	01:40:20	1364383	61210b5c3f465c51a7f4166a	3	1	main_z	11	advance_on_keypress_ZEE	114	stimuli_target_diamondsquares.svg	stimuli_distractor_diamondtriangles.svg	24	yes	57	0	311	0	0			0	0			1				0	
6.6.1	win	2023-06-02	01:17:27	01:40:21	1365828	61210b5c3f465c51a7f4166a	3	1	main_z	11	main_z	115	stimuli_target_squaretriangles.svg	stimuli_distractor_diamondtriangles.svg	7	yes	44	1	478	0	0			0	0			1				0	
6.6.1	win	2023-06-02	01:17:27	01:40:21	1365828	61210b5c3f465c51a7f4166a	3	1	main_z	11	advance_on_keypress_ZEE	116	stimuli_target_squaretriangles.svg	stimuli_distractor_diamondtriangles.svg	7	yes	57	0	466	0	0			0	0			1				0	
6.6.1	win	2023-06-02	01:17:27	01:40:23	1367402	61210b5c3f465c51a7f4166a	3	1	main_z	11	main_z	117	stimuli_distractor_trianglediamonds.svg	stimuli_target_squaretriangles.svg	11	yes	44	1	453	0	0			0	0			1				0	
6.6.1	win	2023-06-02	01:17:27	01:40:23	1367402	61210b5c3f465c51a7f4166a	3	1	main_z	11	advance_on_keypress_ZEE	118	stimuli_distractor_trianglediamonds.svg	stimuli_target_squaretriangles.svg	11	yes	57	0	372	0	0			0	0			1				0	
6.6.1	win	2023-06-02	01:17:27	01:40:25	1368896	61210b5c3f465c51a7f4166a	3	1	main_z	11	main_z	119	stimuli_distractor_trianglediamonds.svg	stimuli_target_squarediamonds.svg	12	yes	44	1	480	0	0			0	0			1				0	
6.6.1	win	2023-06-02	01:17:27	01:40:25	1368896	61210b5c3f465c51a7f4166a	3	1	main_z	11	advance_on_keypress_ZEE	120	stimuli_distractor_trianglediamonds.svg	stimuli_target_squarediamonds.svg	12	yes	57	0	341	0	0			0	0			1				0	
6.6.1	win	2023-06-02	01:17:27	01:40:26	1370179	61210b5c3f465c51a7f4166a	3	1	main_z	11	main_z	121	stimuli_distractor_trianglediamonds.svg	stimuli_distractor_diamondtriangles.svg	36	no	44	0	298	0	0			0	0			1				0	
6.6.1	win	2023-06-02	01:17:27	01:40:26	1370179	61210b5c3f465c51a7f4166a	3	1	main_z	11	advance_on_keypress_ZEE	122	stimuli_distractor_trianglediamonds.svg	stimuli_distractor_diamondtriangles.svg	36	no	57	0	557	0	0			0	0			1				0	
6.6.1	win	2023-06-02	01:17:27	01:40:28	1371843	61210b5c3f465c51a7f4166a	3	1	main_z	11	main_z	123	stimuli_distractor_trianglediamonds.svg	stimuli_target_rectangletriangles.svg	9	yes	44	1	462	0	0			0	0			1				0	
6.6.1	win	2023-06-02	01:17:27	01:40:28	1371843	61210b5c3f465c51a7f4166a	3	1	main_z	11	advance_on_keypress_ZEE	124	stimuli_distractor_trianglediamonds.svg	stimuli_target_rectangletriangles.svg	9	yes	57	0	390	0	0			0	0			1				0	
6.6.1	win	2023-06-02	01:17:27	01:40:29	1373407	61210b5c3f465c51a7f4166a	3	1	main_z	11	main_z	125	stimuli_distractor_diamondtriangles.svg	stimuli_target_squaretriangles.svg	15	yes	44	1	526	0	0			0	0			1				0	
6.6.1	win	2023-06-02	01:17:27	01:40:29	1373407	61210b5c3f465c51a7f4166a	3	1	main_z	11	advance_on_keypress_ZEE	126	stimuli_distractor_diamondtriangles.svg	stimuli_target_squaretriangles.svg	15	yes	57	0	333	0	0			0	0			1				0	
6.6.1	win	2023-06-02	01:17:27	01:40:30	1374775	61210b5c3f465c51a7f4166a	3	1	main_z	11	main_z	127	stimuli_target_rectangletriangles.svg	stimuli_distractor_diamondtriangles.svg	5	yes	44	1	394	0	0			0	0			1				0	
6.6.1	win	2023-06-02	01:17:27	01:40:30	1374775	61210b5c3f465c51a7f4166a	3	1	main_z	11	advance_on_keypress_ZEE	128	stimuli_target_rectangletriangles.svg	stimuli_distractor_diamondtriangles.svg	5	yes	57	0	395	0	0			0	0			1				0	
6.6.1	win	2023-06-02	01:17:27	01:40:33	1377176	61210b5c3f465c51a7f4166a	3	1	main_z	11	main_z	129	stimuli_target_trianglesquares.svg	stimuli_distractor_diamondtriangles.svg	22	yes	44	1	1362	0	0			0	0			1				0	
6.6.1	win	2023-06-02	01:17:27	01:40:33	1377176	61210b5c3f465c51a7f4166a	3	1	main_z	11	advance_on_keypress_ZEE	130	stimuli_target_trianglesquares.svg	stimuli_distractor_diamondtriangles.svg	22	yes	57	0	3006	0	0			0	0			1				0	
6.6.1	win	2023-06-02	01:17:27	01:40:38	1382830	61210b5c3f465c51a7f4166a	3	1	main_z	11	main_z	131	stimuli_distractor_diamondtriangles.svg	stimuli_distractor_diamondtriangles.svg	40	no	0	1	2000	0	0			0	0			1				0	
6.6.1	win	2023-06-02	01:17:27	01:40:38	1382830	61210b5c3f465c51a7f4166a	3	1	main_z	11	advance_on_keypress_ZEE	132	stimuli_distractor_diamondtriangles.svg	stimuli_distractor_diamondtriangles.svg	40	no	57	0	345	0	0			0	0			1				0	
6.6.1	win	2023-06-02	01:17:27	01:40:40	1384239	61210b5c3f465c51a7f4166a	3	1	main_z	11	main_z	133	stimuli_target_squarediamonds.svg	stimuli_distractor_trianglediamonds.svg	4	yes	44	1	408	0	0			0	0			1				0	
6.6.1	win	2023-06-02	01:17:27	01:40:40	1384239	61210b5c3f465c51a7f4166a	3	1	main_z	11	advance_on_keypress_ZEE	134	stimuli_target_squarediamonds.svg	stimuli_distractor_trianglediamonds.svg	4	yes	57	0	393	0	0			0	0			1				0	
6.6.1	win	2023-06-02	01:17:27	01:40:41	1385668	61210b5c3f465c51a7f4166a	3	1	main_z	11	main_z	135	stimuli_target_rectanglediamonds.svg	stimuli_distractor_diamondtriangles.svg	6	yes	44	1	404	0	0			0	0			1				0	
6.6.1	win	2023-06-02	01:17:27	01:40:41	1385668	61210b5c3f465c51a7f4166a	3	1	main_z	11	advance_on_keypress_ZEE	136	stimuli_target_rectanglediamonds.svg	stimuli_distractor_diamondtriangles.svg	6	yes	57	0	514	0	0			0	0			1				0	
6.6.1	win	2023-06-02	01:17:27	01:40:44	1388830	61210b5c3f465c51a7f4166a	3	1	main_z	11	main_z	137	stimuli_distractor_trianglediamonds.svg	stimuli_distractor_trianglediamonds.svg	33	no	0	1	2000	0	0			0	0			1				0	
6.6.1	win	2023-06-02	01:17:27	01:40:44	1388830	61210b5c3f465c51a7f4166a	3	1	main_z	11	advance_on_keypress_ZEE	138	stimuli_distractor_trianglediamonds.svg	stimuli_distractor_trianglediamonds.svg	33	no	57	0	641	0	0			0	0			1				0	
6.6.1	win	2023-06-02	01:17:27	01:40:46	1390495	61210b5c3f465c51a7f4166a	3	1	main_z	11	main_z	139	stimuli_distractor_trianglediamonds.svg	stimuli_target_rectanglediamonds.svg	10	yes	44	1	377	0	0			0	0			1				0	
6.6.1	win	2023-06-02	01:17:27	01:40:46	1390495	61210b5c3f465c51a7f4166a	3	1	main_z	11	advance_on_keypress_ZEE	140	stimuli_distractor_trianglediamonds.svg	stimuli_target_rectanglediamonds.svg	10	yes	57	0	378	0	0			0	0			1				0	
6.6.1	win	2023-06-02	01:17:27	01:40:49	1393529	61210b5c3f465c51a7f4166a	3	1	main_z	11	main_z	141	stimuli_target_trianglesquares.svg	stimuli_distractor_trianglediamonds.svg	18	yes	0	0	2000	0	0			0	0			1				0	
6.6.1	win	2023-06-02	01:17:27	01:40:49	1393529	61210b5c3f465c51a7f4166a	3	1	main_z	11	advance_on_keypress_ZEE	142	stimuli_target_trianglesquares.svg	stimuli_distractor_trianglediamonds.svg	18	yes	57	0	1917	0	0			0	0			1				0	
6.6.1	win	2023-06-02	01:17:27	01:40:52	1396690	61210b5c3f465c51a7f4166a	3	1	main_z	11	main_z	143	stimuli_distractor_diamondtriangles.svg	stimuli_target_diamondsquares.svg	32	yes	44	1	595	0	0			0	0			1				0	
6.6.1	win	2023-06-02	01:17:27	01:40:52	1396690	61210b5c3f465c51a7f4166a	3	1	main_z	11	advance_on_keypress_ZEE	144	stimuli_distractor_diamondtriangles.svg	stimuli_target_diamondsquares.svg	32	yes	57	0	605	0	0			0	0			1				0	
6.6.1	win	2023-06-02	01:17:27	01:40:54	1398409	61210b5c3f465c51a7f4166a	3	1	main_z	11	main_z	145	stimuli_distractor_diamondtriangles.svg	stimuli_target_squarediamonds.svg	16	yes	44	1	465	0	0			0	0			1				0	
6.6.1	win	2023-06-02	01:17:27	01:40:54	1398409	61210b5c3f465c51a7f4166a	3	1	main_z	11	advance_on_keypress_ZEE	146	stimuli_distractor_diamondtriangles.svg	stimuli_target_squarediamonds.svg	16	yes	57	0	397	0	0			0	0			1				0	
6.6.1	win	2023-06-02	01:17:27	01:40:57	1401462	61210b5c3f465c51a7f4166a	3	1	main_z	11	main_z	147	stimuli_distractor_trianglediamonds.svg	stimuli_target_trianglesquares.svg	26	yes	0	0	2000	0	0			0	0			1				0	
6.6.1	win	2023-06-02	01:17:27	01:40:57	1401462	61210b5c3f465c51a7f4166a	3	1	main_z	11	advance_on_keypress_ZEE	148	stimuli_distractor_trianglediamonds.svg	stimuli_target_trianglesquares.svg	26	yes	57	0	531	0	0			0	0			1				0	
6.6.1	win	2023-06-02	01:17:27	01:41:00	1404644	61210b5c3f465c51a7f4166a	3	1	main_z	11	main_z	149	stimuli_distractor_diamondtriangles.svg	stimuli_distractor_trianglediamonds.svg	38	no	0	1	2000	0	0			0	0			1				0	
6.6.1	win	2023-06-02	01:17:27	01:41:00	1404644	61210b5c3f465c51a7f4166a	3	1	main_z	11	advance_on_keypress_ZEE	150	stimuli_distractor_diamondtriangles.svg	stimuli_distractor_trianglediamonds.svg	38	no	57	0	462	0	0			0	0			1				0	
6.6.1	win	2023-06-02	01:17:27	01:41:02	1406495	61210b5c3f465c51a7f4166a	3	1	main_z	11	main_z	151	stimuli_distractor_diamondtriangles.svg	stimuli_target_diamondrectangles.svg	31	yes	44	1	734	0	0			0	0			1				0	
6.6.1	win	2023-06-02	01:17:27	01:41:02	1406495	61210b5c3f465c51a7f4166a	3	1	main_z	11	advance_on_keypress_ZEE	152	stimuli_distractor_diamondtriangles.svg	stimuli_target_diamondrectangles.svg	31	yes	57	0	511	0	0			0	0			1				0	
6.6.1	win	2023-06-02	01:17:27	01:41:05	1409661	61210b5c3f465c51a7f4166a	3	1	main_z	11	main_z	153	stimuli_distractor_diamondtriangles.svg	stimuli_distractor_diamondtriangles.svg	39	no	0	1	2000	0	0			0	0			1				0	
6.6.1	win	2023-06-02	01:17:27	01:41:05	1409661	61210b5c3f465c51a7f4166a	3	1	main_z	11	advance_on_keypress_ZEE	154	stimuli_distractor_diamondtriangles.svg	stimuli_distractor_diamondtriangles.svg	39	no	57	0	489	0	0			0	0			1				0	
6.6.1	win	2023-06-02	01:17:27	01:41:08	1412741	61210b5c3f465c51a7f4166a	3	1	main_z	11	main_z	155	stimuli_distractor_diamondtriangles.svg	stimuli_distractor_trianglediamonds.svg	37	no	44	0	1947	0	0			0	0			1				0	
6.6.1	win	2023-06-02	01:17:27	01:41:08	1412741	61210b5c3f465c51a7f4166a	3	1	main_z	11	advance_on_keypress_ZEE	156	stimuli_distractor_diamondtriangles.svg	stimuli_distractor_trianglediamonds.svg	37	no	57	0	603	0	0			0	0			1				0	
6.6.1	win	2023-06-02	01:17:27	01:41:10	1414650	61210b5c3f465c51a7f4166a	3	1	main_z	11	main_z	157	stimuli_distractor_trianglediamonds.svg	stimuli_target_diamondsquares.svg	28	yes	44	1	658	0	0			0	0			1				0	
6.6.1	win	2023-06-02	01:17:27	01:41:10	1414650	61210b5c3f465c51a7f4166a	3	1	main_z	11	advance_on_keypress_ZEE	158	stimuli_distractor_trianglediamonds.svg	stimuli_target_diamondsquares.svg	28	yes	57	0	528	0	0			0	0			1				0	
6.6.1	win	2023-06-02	01:17:27	01:41:12	1416545	61210b5c3f465c51a7f4166a	3	1	main_z	11	main_z	159	stimuli_target_trianglerectangles.svg	stimuli_distractor_diamondtriangles.svg	21	yes	44	1	720	0	0			0	0			1				0	
6.6.1	win	2023-06-02	01:17:27	01:41:12	1416545	61210b5c3f465c51a7f4166a	3	1	main_z	11	advance_on_keypress_ZEE	160	stimuli_target_trianglerectangles.svg	stimuli_distractor_diamondtriangles.svg	21	yes	57	0	402	0	0			0	0			1				0	
6.6.1	win	2023-06-02	01:17:27	01:41:12	1416545	61210b5c3f465c51a7f4166a	3	1	headphonecheck_calibration	14	headphonecheck_calibrationIntro	1	stimuli_target_trianglerectangles.svg	stimuli_distractor_diamondtriangles.svg	21	yes	calibrationButton	0	6785	0	0			0	0			1				0	
6.6.1	win	2023-06-02	01:17:27	01:41:12	1416545	61210b5c3f465c51a7f4166a	3	1	headphonecheck_testphase	15	test_collectResponse	3	stimuli_target_trianglerectangles.svg	stimuli_distractor_diamondtriangles.svg	21	yes	first	1	832	1	4	antiphase_hc_sio.wav	1	0	0			1				0	
6.6.1	win	2023-06-02	01:17:27	01:41:12	1416545	61210b5c3f465c51a7f4166a	3	1	headphonecheck_testphase	15	test_collectResponse	6	stimuli_target_trianglerectangles.svg	stimuli_distractor_diamondtriangles.svg	21	yes	first	1	994	2	3	antiphase_hc_soi.wav	1	0	0			1				0	
6.6.1	win	2023-06-02	01:17:27	01:41:12	1416545	61210b5c3f465c51a7f4166a	3	1	headphonecheck_testphase	15	test_collectResponse	9	stimuli_target_trianglerectangles.svg	stimuli_distractor_diamondtriangles.svg	21	yes	third	1	491	3	2	antiphase_hc_ios.wav	3	0	0			1				0	
6.6.1	win	2023-06-02	01:17:27	01:41:12	1416545	61210b5c3f465c51a7f4166a	3	1	headphonecheck_testphase	15	test_collectResponse	12	stimuli_target_trianglerectangles.svg	stimuli_distractor_diamondtriangles.svg	21	yes	second	1	489	4	5	antiphase_hc_osi.wav	2	0	0			1				0	
6.6.1	win	2023-06-02	01:17:27	01:41:12	1416545	61210b5c3f465c51a7f4166a	3	1	headphonecheck_testphase	15	test_collectResponse	15	stimuli_target_trianglerectangles.svg	stimuli_distractor_diamondtriangles.svg	21	yes	third	1	384	5	6	antiphase_hc_ois.wav	3	0	0			1				0	
6.6.1	win	2023-06-02	01:17:27	01:41:12	1416545	61210b5c3f465c51a7f4166a	3	1	headphonecheck_testphase	15	test_collectResponse	18	stimuli_target_trianglerectangles.svg	stimuli_distractor_diamondtriangles.svg	21	yes	second	1	401	6	1	antiphase_hc_iso.wav	2	0	0			1				0	
6.6.1	win	2023-06-02	01:17:27	01:41:12	1416545	61210b5c3f465c51a7f4166a	3	1	stereocheck_calibration	17	stereocheck_calibrationIntro	1	stimuli_target_trianglerectangles.svg	stimuli_distractor_diamondtriangles.svg	21	yes	stereocheck_calibrationButton	0	24720	6	1	antiphase_hc_iso.wav	2	0	0			1				0	
6.6.1	win	2023-06-02	01:17:27	01:41:12	1416545	61210b5c3f465c51a7f4166a	3	1	stereocheck_testphase	18	stereocheck_test_collectResponse	3	stimuli_target_trianglerectangles.svg	stimuli_distractor_diamondtriangles.svg	21	yes	stereocheck_left	1	1078	6	1	antiphase_hc_iso.wav	2	1	3	noise_calib_stim_LEFT.wav	1	1				0	
6.6.1	win	2023-06-02	01:17:27	01:41:12	1416545	61210b5c3f465c51a7f4166a	3	1	stereocheck_testphase	18	stereocheck_test_collectResponse	6	stimuli_target_trianglerectangles.svg	stimuli_distractor_diamondtriangles.svg	21	yes	stereocheck_left	1	678	6	1	antiphase_hc_iso.wav	2	2	1	noise_calib_stim_LEFT.wav	1	1				0	
6.6.1	win	2023-06-02	01:17:27	01:41:12	1416545	61210b5c3f465c51a7f4166a	3	1	stereocheck_testphase	18	stereocheck_test_collectResponse	9	stimuli_target_trianglerectangles.svg	stimuli_distractor_diamondtriangles.svg	21	yes	stereocheck_right	1	350	6	1	antiphase_hc_iso.wav	2	3	6	noise_calib_stim_RIGHT.wav	2	1				0	
6.6.1	win	2023-06-02	01:17:27	01:41:12	1416545	61210b5c3f465c51a7f4166a	3	1	stereocheck_testphase	18	stereocheck_test_collectResponse	12	stimuli_target_trianglerectangles.svg	stimuli_distractor_diamondtriangles.svg	21	yes	stereocheck_right	1	503	6	1	antiphase_hc_iso.wav	2	4	5	noise_calib_stim_RIGHT.wav	2	1				0	
6.6.1	win	2023-06-02	01:17:27	01:41:12	1416545	61210b5c3f465c51a7f4166a	3	1	stereocheck_testphase	18	stereocheck_test_collectResponse	15	stimuli_target_trianglerectangles.svg	stimuli_distractor_diamondtriangles.svg	21	yes	stereocheck_right	1	293	6	1	antiphase_hc_iso.wav	2	5	4	noise_calib_stim_RIGHT.wav	2	1				0	
6.6.1	win	2023-06-02	01:17:27	01:41:12	1416545	61210b5c3f465c51a7f4166a	3	1	stereocheck_testphase	18	stereocheck_test_collectResponse	18	stimuli_target_trianglerectangles.svg	stimuli_distractor_diamondtriangles.svg	21	yes	stereocheck_left	1	307	6	1	antiphase_hc_iso.wav	2	6	2	noise_calib_stim_LEFT.wav	1	1				0	
6.6.1	win	2023-06-02	01:17:27	01:41:12	1416545	61210b5c3f465c51a7f4166a	3	1	DL_practice	21	DL_practice	2	stimuli_target_trianglerectangles.svg	stimuli_distractor_diamondtriangles.svg	21	yes	da	0	6251	6	1	antiphase_hc_iso.wav	2	6	2	noise_calib_stim_LEFT.wav	1	15	blb_dichoticlistening_ga-ga.mp3	ga	ga	0	other
6.6.1	win	2023-06-02	01:17:27	01:41:12	1416545	61210b5c3f465c51a7f4166a	3	1	DL_practice	21	DL_practice	3	stimuli_target_trianglerectangles.svg	stimuli_distractor_diamondtriangles.svg	21	yes	ba	1	4643	6	1	antiphase_hc_iso.wav	2	6	2	noise_calib_stim_LEFT.wav	1	7	blb_dichoticlistening_da-ba.mp3	da	ba	1	right
6.6.1	win	2023-06-02	01:17:27	01:41:12	1416545	61210b5c3f465c51a7f4166a	3	1	DL_practice	21	DL_practice	4	stimuli_target_trianglerectangles.svg	stimuli_distractor_diamondtriangles.svg	21	yes	pa	0	7153	6	1	antiphase_hc_iso.wav	2	6	2	noise_calib_stim_LEFT.wav	1	18	blb_dichoticlistening_ga-ta.mp3	ga	ta	1	other
6.6.1	win	2023-06-02	01:17:27	01:41:12	1416545	61210b5c3f465c51a7f4166a	3	1	DL_practice	21	DL_practice	5	stimuli_target_trianglerectangles.svg	stimuli_distractor_diamondtriangles.svg	21	yes	pa	1	2841	6	1	antiphase_hc_iso.wav	2	6	2	noise_calib_stim_LEFT.wav	1	23	blb_dichoticlistening_ka-pa.mp3	ka	pa	1	right
6.6.1	win	2023-06-02	01:17:27	01:41:12	1416545	61210b5c3f465c51a7f4166a	3	1	DL_practice	21	DL_practice	6	stimuli_target_trianglerectangles.svg	stimuli_distractor_diamondtriangles.svg	21	yes	ta	1	2471	6	1	antiphase_hc_iso.wav	2	6	2	noise_calib_stim_LEFT.wav	1	36	blb_dichoticlistening_ta-ta.mp3	ta	ta	0	left
6.6.1	win	2023-06-02	01:17:27	01:41:12	1416545	61210b5c3f465c51a7f4166a	3	1	DL_practice	21	DL_practice	7	stimuli_target_trianglerectangles.svg	stimuli_distractor_diamondtriangles.svg	21	yes	ka	1	1400	6	1	antiphase_hc_iso.wav	2	6	2	noise_calib_stim_LEFT.wav	1	22	blb_dichoticlistening_ka-ka.mp3	ka	ka	0	left
6.6.1	win	2023-06-02	01:17:27	01:41:12	1416545	61210b5c3f465c51a7f4166a	3	1	DL_practice	21	DL_practice	8	stimuli_target_trianglerectangles.svg	stimuli_distractor_diamondtriangles.svg	21	yes	pa	0	2357	6	1	antiphase_hc_iso.wav	2	6	2	noise_calib_stim_LEFT.wav	1	1	blb_dichoticlistening_ba-ba.mp3	ba	ba	0	other
6.6.1	win	2023-06-02	01:17:27	01:41:12	1416545	61210b5c3f465c51a7f4166a	3	1	DL_practice	21	DL_practice	9	stimuli_target_trianglerectangles.svg	stimuli_distractor_diamondtriangles.svg	21	yes	ga	0	3004	6	1	antiphase_hc_iso.wav	2	6	2	noise_calib_stim_LEFT.wav	1	8	blb_dichoticlistening_da-da.mp3	da	da	0	other
6.6.1	win	2023-06-02	01:17:27	01:41:12	1416545	61210b5c3f465c51a7f4166a	3	1	DL_practice	21	DL_practice	10	stimuli_target_trianglerectangles.svg	stimuli_distractor_diamondtriangles.svg	21	yes	pa	1	1402	6	1	antiphase_hc_iso.wav	2	6	2	noise_calib_stim_LEFT.wav	1	29	blb_dichoticlistening_pa-pa.mp3	pa	pa	0	left
6.6.1	win	2023-06-02	01:17:27	01:41:12	1416545	61210b5c3f465c51a7f4166a	3	1	DL_test	23	DL_test	1	stimuli_target_trianglerectangles.svg	stimuli_distractor_diamondtriangles.svg	21	yes	ta	0	4037	6	1	antiphase_hc_iso.wav	2	6	2	noise_calib_stim_LEFT.wav	1	2	blb_dichoticlistening_ba-da.mp3	ba	da	1	other
6.6.1	win	2023-06-02	01:17:27	01:41:12	1416545	61210b5c3f465c51a7f4166a	3	1	DL_test	23	DL_test	2	stimuli_target_trianglerectangles.svg	stimuli_distractor_diamondtriangles.svg	21	yes	da	0	3097	6	1	antiphase_hc_iso.wav	2	6	2	noise_calib_stim_LEFT.wav	1	18	blb_dichoticlistening_ga-ta.mp3	ga	ta	1	other
6.6.1	win	2023-06-02	01:17:27	01:41:12	1416545	61210b5c3f465c51a7f4166a	3	1	DL_test	23	DL_test	3	stimuli_target_trianglerectangles.svg	stimuli_distractor_diamondtriangles.svg	21	yes	pa	1	1858	6	1	antiphase_hc_iso.wav	2	6	2	noise_calib_stim_LEFT.wav	1	28	blb_dichoticlistening_pa-ka.mp3	pa	ka	1	left
6.6.1	win	2023-06-02	01:17:27	01:41:12	1416545	61210b5c3f465c51a7f4166a	3	1	DL_test	23	DL_test	4	stimuli_target_trianglerectangles.svg	stimuli_distractor_diamondtriangles.svg	21	yes	pa	0	1397	6	1	antiphase_hc_iso.wav	2	6	2	noise_calib_stim_LEFT.wav	1	6	blb_dichoticlistening_ba-ta.mp3	ba	ta	1	other
6.6.1	win	2023-06-02	01:17:27	01:41:12	1416545	61210b5c3f465c51a7f4166a	3	1	DL_test	23	DL_test	5	stimuli_target_trianglerectangles.svg	stimuli_distractor_diamondtriangles.svg	21	yes	pa	1	963	6	1	antiphase_hc_iso.wav	2	6	2	noise_calib_stim_LEFT.wav	1	29	blb_dichoticlistening_pa-pa.mp3	pa	pa	0	left
6.6.1	win	2023-06-02	01:17:27	01:41:12	1416545	61210b5c3f465c51a7f4166a	3	1	DL_test	23	DL_test	6	stimuli_target_trianglerectangles.svg	stimuli_distractor_diamondtriangles.svg	21	yes	ba	1	7171	6	1	antiphase_hc_iso.wav	2	6	2	noise_calib_stim_LEFT.wav	1	1	blb_dichoticlistening_ba-ba.mp3	ba	ba	0	left
6.6.1	win	2023-06-02	01:17:27	01:41:12	1416545	61210b5c3f465c51a7f4166a	3	1	DL_test	23	DL_test	7	stimuli_target_trianglerectangles.svg	stimuli_distractor_diamondtriangles.svg	21	yes	ba	0	1881	6	1	antiphase_hc_iso.wav	2	6	2	noise_calib_stim_LEFT.wav	1	26	blb_dichoticlistening_pa-da.mp3	pa	da	1	other
6.6.1	win	2023-06-02	01:17:27	01:41:12	1416545	61210b5c3f465c51a7f4166a	3	1	DL_test	23	DL_test	8	stimuli_target_trianglerectangles.svg	stimuli_distractor_diamondtriangles.svg	21	yes	da	0	1205	6	1	antiphase_hc_iso.wav	2	6	2	noise_calib_stim_LEFT.wav	1	33	blb_dichoticlistening_ta-ga.mp3	ta	ga	1	other
6.6.1	win	2023-06-02	01:17:27	01:41:12	1416545	61210b5c3f465c51a7f4166a	3	1	DL_test	23	DL_test	9	stimuli_target_trianglerectangles.svg	stimuli_distractor_diamondtriangles.svg	21	yes	ka	1	1880	6	1	antiphase_hc_iso.wav	2	6	2	noise_calib_stim_LEFT.wav	1	34	blb_dichoticlistening_ta-ka.mp3	ta	ka	1	right
6.6.1	win	2023-06-02	01:17:27	01:41:12	1416545	61210b5c3f465c51a7f4166a	3	1	DL_test	23	DL_test	10	stimuli_target_trianglerectangles.svg	stimuli_distractor_diamondtriangles.svg	21	yes	da	0	2227	6	1	antiphase_hc_iso.wav	2	6	2	noise_calib_stim_LEFT.wav	1	16	blb_dichoticlistening_ga-ka.mp3	ga	ka	1	other
6.6.1	win	2023-06-02	01:17:27	01:41:12	1416545	61210b5c3f465c51a7f4166a	3	1	DL_test	23	DL_test	11	stimuli_target_trianglerectangles.svg	stimuli_distractor_diamondtriangles.svg	21	yes	da	0	1622	6	1	antiphase_hc_iso.wav	2	6	2	noise_calib_stim_LEFT.wav	1	15	blb_dichoticlistening_ga-ga.mp3	ga	ga	0	other
6.6.1	win	2023-06-02	01:17:27	01:41:12	1416545	61210b5c3f465c51a7f4166a	3	1	DL_test	23	DL_test	12	stimuli_target_trianglerectangles.svg	stimuli_distractor_diamondtriangles.svg	21	yes	pa	1	1780	6	1	antiphase_hc_iso.wav	2	6	2	noise_calib_stim_LEFT.wav	1	17	blb_dichoticlistening_ga-pa.mp3	ga	pa	1	right
6.6.1	win	2023-06-02	01:17:27	01:41:12	1416545	61210b5c3f465c51a7f4166a	3	1	DL_test	23	DL_test	13	stimuli_target_trianglerectangles.svg	stimuli_distractor_diamondtriangles.svg	21	yes	da	0	3337	6	1	antiphase_hc_iso.wav	2	6	2	noise_calib_stim_LEFT.wav	1	21	blb_dichoticlistening_ka-ga.mp3	ka	ga	1	other
6.6.1	win	2023-06-02	01:17:27	01:41:12	1416545	61210b5c3f465c51a7f4166a	3	1	DL_test	23	DL_test	14	stimuli_target_trianglerectangles.svg	stimuli_distractor_diamondtriangles.svg	21	yes	ka	0	14545	6	1	antiphase_hc_iso.wav	2	6	2	noise_calib_stim_LEFT.wav	1	32	blb_dichoticlistening_ta-da.mp3	ta	da	1	other
6.6.1	win	2023-06-02	01:17:27	01:41:12	1416545	61210b5c3f465c51a7f4166a	3	1	DL_test	23	DL_test	15	stimuli_target_trianglerectangles.svg	stimuli_distractor_diamondtriangles.svg	21	yes	pa	1	1098	6	1	antiphase_hc_iso.wav	2	6	2	noise_calib_stim_LEFT.wav	1	11	blb_dichoticlistening_da-pa.mp3	da	pa	1	right
6.6.1	win	2023-06-02	01:17:27	01:41:12	1416545	61210b5c3f465c51a7f4166a	3	1	DL_test	23	DL_test	16	stimuli_target_trianglerectangles.svg	stimuli_distractor_diamondtriangles.svg	21	yes	ta	0	2972	6	1	antiphase_hc_iso.wav	2	6	2	noise_calib_stim_LEFT.wav	1	23	blb_dichoticlistening_ka-pa.mp3	ka	pa	1	other
6.6.1	win	2023-06-02	01:17:27	01:41:12	1416545	61210b5c3f465c51a7f4166a	3	1	DL_test	23	DL_test	17	stimuli_target_trianglerectangles.svg	stimuli_distractor_diamondtriangles.svg	21	yes	ta	1	1651	6	1	antiphase_hc_iso.wav	2	6	2	noise_calib_stim_LEFT.wav	1	36	blb_dichoticlistening_ta-ta.mp3	ta	ta	0	left
6.6.1	win	2023-06-02	01:17:27	01:41:12	1416545	61210b5c3f465c51a7f4166a	3	1	DL_test	23	DL_test	18	stimuli_target_trianglerectangles.svg	stimuli_distractor_diamondtriangles.svg	21	yes	pa	0	5261	6	1	antiphase_hc_iso.wav	2	6	2	noise_calib_stim_LEFT.wav	1	12	blb_dichoticlistening_da-ta.mp3	da	ta	1	other
6.6.1	win	2023-06-02	01:17:27	01:41:12	1416545	61210b5c3f465c51a7f4166a	3	1	DL_test	23	DL_test	19	stimuli_target_trianglerectangles.svg	stimuli_distractor_diamondtriangles.svg	21	yes	pa	0	1977	6	1	antiphase_hc_iso.wav	2	6	2	noise_calib_stim_LEFT.wav	1	13	blb_dichoticlistening_ga-ba.mp3	ga	ba	1	other
6.6.1	win	2023-06-02	01:17:27	01:41:12	1416545	61210b5c3f465c51a7f4166a	3	1	DL_test	23	DL_test	20	stimuli_target_trianglerectangles.svg	stimuli_distractor_diamondtriangles.svg	21	yes	pa	1	1712	6	1	antiphase_hc_iso.wav	2	6	2	noise_calib_stim_LEFT.wav	1	5	blb_dichoticlistening_ba-pa.mp3	ba	pa	1	right
6.6.1	win	2023-06-02	01:17:27	01:41:12	1416545	61210b5c3f465c51a7f4166a	3	1	DL_test	23	DL_test	21	stimuli_target_trianglerectangles.svg	stimuli_distractor_diamondtriangles.svg	21	yes	pa	1	1057	6	1	antiphase_hc_iso.wav	2	6	2	noise_calib_stim_LEFT.wav	1	30	blb_dichoticlistening_pa-ta.mp3	pa	ta	1	left
6.6.1	win	2023-06-02	01:17:27	01:41:12	1416545	61210b5c3f465c51a7f4166a	3	1	DL_test	23	DL_test	22	stimuli_target_trianglerectangles.svg	stimuli_distractor_diamondtriangles.svg	21	yes	pa	1	1083	6	1	antiphase_hc_iso.wav	2	6	2	noise_calib_stim_LEFT.wav	1	25	blb_dichoticlistening_pa-ba.mp3	pa	ba	1	left
6.6.1	win	2023-06-02	01:17:27	01:41:12	1416545	61210b5c3f465c51a7f4166a	3	1	DL_test	23	DL_test	23	stimuli_target_trianglerectangles.svg	stimuli_distractor_diamondtriangles.svg	21	yes	ta	1	1142	6	1	antiphase_hc_iso.wav	2	6	2	noise_calib_stim_LEFT.wav	1	24	blb_dichoticlistening_ka-ta.mp3	ka	ta	1	right
6.6.1	win	2023-06-02	01:17:27	01:41:12	1416545	61210b5c3f465c51a7f4166a	3	1	DL_test	23	DL_test	24	stimuli_target_trianglerectangles.svg	stimuli_distractor_diamondtriangles.svg	21	yes	ka	0	2517	6	1	antiphase_hc_iso.wav	2	6	2	noise_calib_stim_LEFT.wav	1	7	blb_dichoticlistening_da-ba.mp3	da	ba	1	other
