build	computer.platform	date	time	timestamp	time_elapsed_ms	subject	group	session	blockcode	blocknum	trialcode	trialnum	stimulus_left	stimulus_right	stim_index	target_present	response	correct	latency	headphonecheck_countTestTrials	headphonecheck_index	headphonecheck_testSound	headphonecheck_correctResponse	stereocheck_countTestTrials	stereocheck_index	stereocheck_testSound	stereocheck_correctResponse	DL_index	DL_soundfile	DL_leftSound	DL_rightSound	DL_dualSound	DL_choice
6.6.1	mac	2023-06-12	17:38:45	17:41:52	184747	6469b26b2cf3b4b300c0cddc	4	1	practice_z	5	practice_z	1	stimuli_distractor_diamondtriangles.svg	stimuli_target_diamondrectangles.svg	8	yes	0	0	2000	0	0			0	0			1				0	
6.6.1	mac	2023-06-12	17:38:45	17:41:52	184747	6469b26b2cf3b4b300c0cddc	4	1	practice_z	5	advance_on_keypress_ZEE	2	stimuli_distractor_diamondtriangles.svg	stimuli_target_diamondrectangles.svg	8	yes	57	0	1275	0	0			0	0			1				0	
6.6.1	mac	2023-06-12	17:38:45	17:41:55	188276	6469b26b2cf3b4b300c0cddc	4	1	practice_z	5	practice_z	3	stimuli_distractor_trianglediamonds.svg	stimuli_distractor_diamondtriangles.svg	16	no	44	0	610	0	0			0	0			1				0	
6.6.1	mac	2023-06-12	17:38:45	17:41:55	188276	6469b26b2cf3b4b300c0cddc	4	1	practice_z	5	advance_on_keypress_ZEE	4	stimuli_distractor_trianglediamonds.svg	stimuli_distractor_diamondtriangles.svg	16	no	57	0	1221	0	0			0	0			1				0	
6.6.1	mac	2023-06-12	17:38:45	17:41:58	191364	6469b26b2cf3b4b300c0cddc	4	1	practice_z	5	practice_z	5	stimuli_distractor_diamondtriangles.svg	stimuli_distractor_diamondtriangles.svg	13	no	44	0	248	0	0			0	0			1				0	
6.6.1	mac	2023-06-12	17:38:45	17:41:58	191364	6469b26b2cf3b4b300c0cddc	4	1	practice_z	5	advance_on_keypress_ZEE	6	stimuli_distractor_diamondtriangles.svg	stimuli_distractor_diamondtriangles.svg	13	no	57	0	635	0	0			0	0			1				0	
6.6.1	mac	2023-06-12	17:38:45	17:42:02	195630	6469b26b2cf3b4b300c0cddc	4	1	practice_z	5	practice_z	7	stimuli_target_diamondsquares.svg	stimuli_distractor_trianglediamonds.svg	6	yes	0	0	2000	0	0			0	0			1				0	
6.6.1	mac	2023-06-12	17:38:45	17:42:02	195630	6469b26b2cf3b4b300c0cddc	4	1	practice_z	5	advance_on_keypress_ZEE	8	stimuli_target_diamondsquares.svg	stimuli_distractor_trianglediamonds.svg	6	yes	57	0	936	0	0			0	0			1				0	
6.6.1	mac	2023-06-12	17:38:45	17:42:05	198465	6469b26b2cf3b4b300c0cddc	4	1	practice_z	5	practice_z	9	stimuli_target_squarediamonds.svg	stimuli_distractor_diamondtriangles.svg	2	yes	44	1	268	0	0			0	0			1				0	
6.6.1	mac	2023-06-12	17:38:45	17:42:05	198465	6469b26b2cf3b4b300c0cddc	4	1	practice_z	5	advance_on_keypress_ZEE	10	stimuli_target_squarediamonds.svg	stimuli_distractor_diamondtriangles.svg	2	yes	57	0	965	0	0			0	0			1				0	
6.6.1	mac	2023-06-12	17:38:45	17:42:08	201384	6469b26b2cf3b4b300c0cddc	4	1	practice_z	5	practice_z	11	stimuli_distractor_diamondtriangles.svg	stimuli_target_trianglerectangles.svg	9	yes	44	1	320	0	0			0	0			1				0	
6.6.1	mac	2023-06-12	17:38:45	17:42:08	201384	6469b26b2cf3b4b300c0cddc	4	1	practice_z	5	advance_on_keypress_ZEE	12	stimuli_distractor_diamondtriangles.svg	stimuli_target_trianglerectangles.svg	9	yes	57	0	906	0	0			0	0			1				0	
6.6.1	mac	2023-06-12	17:38:45	17:42:11	204242	6469b26b2cf3b4b300c0cddc	4	1	practice_z	5	practice_z	13	stimuli_distractor_diamondtriangles.svg	stimuli_distractor_trianglediamonds.svg	14	no	44	0	326	0	0			0	0			1				0	
6.6.1	mac	2023-06-12	17:38:45	17:42:11	204242	6469b26b2cf3b4b300c0cddc	4	1	practice_z	5	advance_on_keypress_ZEE	14	stimuli_distractor_diamondtriangles.svg	stimuli_distractor_trianglediamonds.svg	14	no	57	0	508	0	0			0	0			1				0	
6.6.1	mac	2023-06-12	17:38:45	17:42:15	208363	6469b26b2cf3b4b300c0cddc	4	1	practice_z	5	practice_z	15	stimuli_distractor_trianglediamonds.svg	stimuli_target_diamondrectangles.svg	12	yes	0	0	2000	0	0			0	0			1				0	
6.6.1	mac	2023-06-12	17:38:45	17:42:15	208363	6469b26b2cf3b4b300c0cddc	4	1	practice_z	5	advance_on_keypress_ZEE	16	stimuli_distractor_trianglediamonds.svg	stimuli_target_diamondrectangles.svg	12	yes	57	0	491	0	0			0	0			1				0	
6.6.1	mac	2023-06-12	17:38:45	17:42:19	212480	6469b26b2cf3b4b300c0cddc	4	1	practice_z	5	practice_z	17	stimuli_distractor_trianglediamonds.svg	stimuli_target_squarediamonds.svg	11	yes	0	0	2000	0	0			0	0			1				0	
6.6.1	mac	2023-06-12	17:38:45	17:42:19	212480	6469b26b2cf3b4b300c0cddc	4	1	practice_z	5	advance_on_keypress_ZEE	18	stimuli_distractor_trianglediamonds.svg	stimuli_target_squarediamonds.svg	11	yes	57	0	389	0	0			0	0			1				0	
6.6.1	mac	2023-06-12	17:38:45	17:42:22	214715	6469b26b2cf3b4b300c0cddc	4	1	practice_z	5	practice_z	19	stimuli_target_rectanglediamonds.svg	stimuli_distractor_trianglediamonds.svg	4	yes	44	1	216	0	0			0	0			1				0	
6.6.1	mac	2023-06-12	17:38:45	17:42:22	214715	6469b26b2cf3b4b300c0cddc	4	1	practice_z	5	advance_on_keypress_ZEE	20	stimuli_target_rectanglediamonds.svg	stimuli_distractor_trianglediamonds.svg	4	yes	57	0	1619	0	0			0	0			1				0	
6.6.1	mac	2023-06-12	17:38:45	17:42:25	218159	6469b26b2cf3b4b300c0cddc	4	1	practice_z	5	practice_z	21	stimuli_target_diamondsquares.svg	stimuli_distractor_diamondtriangles.svg	3	yes	44	1	194	0	0			0	0			1				0	
6.6.1	mac	2023-06-12	17:38:45	17:42:25	218159	6469b26b2cf3b4b300c0cddc	4	1	practice_z	5	advance_on_keypress_ZEE	22	stimuli_target_diamondsquares.svg	stimuli_distractor_diamondtriangles.svg	3	yes	57	0	605	0	0			0	0			1				0	
6.6.1	mac	2023-06-12	17:38:45	17:42:27	220698	6469b26b2cf3b4b300c0cddc	4	1	practice_z	5	practice_z	23	stimuli_target_squarediamonds.svg	stimuli_distractor_trianglediamonds.svg	5	yes	44	1	317	0	0			0	0			1				0	
6.6.1	mac	2023-06-12	17:38:45	17:42:27	220698	6469b26b2cf3b4b300c0cddc	4	1	practice_z	5	advance_on_keypress_ZEE	24	stimuli_target_squarediamonds.svg	stimuli_distractor_trianglediamonds.svg	5	yes	57	0	391	0	0			0	0			1				0	
6.6.1	mac	2023-06-12	17:38:45	17:42:30	222938	6469b26b2cf3b4b300c0cddc	4	1	practice_z	5	practice_z	25	stimuli_target_rectanglediamonds.svg	stimuli_distractor_diamondtriangles.svg	1	yes	44	1	223	0	0			0	0			1				0	
6.6.1	mac	2023-06-12	17:38:45	17:42:30	222938	6469b26b2cf3b4b300c0cddc	4	1	practice_z	5	advance_on_keypress_ZEE	26	stimuli_target_rectanglediamonds.svg	stimuli_distractor_diamondtriangles.svg	1	yes	57	0	609	0	0			0	0			1				0	
6.6.1	mac	2023-06-12	17:38:45	17:42:32	225325	6469b26b2cf3b4b300c0cddc	4	1	practice_z	5	practice_z	27	stimuli_distractor_trianglediamonds.svg	stimuli_distractor_trianglediamonds.svg	15	no	44	0	161	0	0			0	0			1				0	
6.6.1	mac	2023-06-12	17:38:45	17:42:32	225325	6469b26b2cf3b4b300c0cddc	4	1	practice_z	5	advance_on_keypress_ZEE	28	stimuli_distractor_trianglediamonds.svg	stimuli_distractor_trianglediamonds.svg	15	no	57	0	456	0	0			0	0			1				0	
6.6.1	mac	2023-06-12	17:38:45	17:42:34	227628	6469b26b2cf3b4b300c0cddc	4	1	practice_z	5	practice_z	29	stimuli_distractor_diamondtriangles.svg	stimuli_target_rectangletriangles.svg	7	yes	44	1	212	0	0			0	0			1				0	
6.6.1	mac	2023-06-12	17:38:45	17:42:34	227628	6469b26b2cf3b4b300c0cddc	4	1	practice_z	5	advance_on_keypress_ZEE	30	stimuli_distractor_diamondtriangles.svg	stimuli_target_rectangletriangles.svg	7	yes	57	0	498	0	0			0	0			1				0	
6.6.1	mac	2023-06-12	17:38:45	17:42:39	231763	6469b26b2cf3b4b300c0cddc	4	1	practice_z	5	practice_z	31	stimuli_distractor_trianglediamonds.svg	stimuli_target_rectanglediamonds.svg	10	yes	0	0	2000	0	0			0	0			1				0	
6.6.1	mac	2023-06-12	17:38:45	17:42:39	231763	6469b26b2cf3b4b300c0cddc	4	1	practice_z	5	advance_on_keypress_ZEE	32	stimuli_distractor_trianglediamonds.svg	stimuli_target_rectanglediamonds.svg	10	yes	57	0	387	0	0			0	0			1				0	
6.6.1	mac	2023-06-12	17:38:45	17:42:47	239899	6469b26b2cf3b4b300c0cddc	4	1	main_z	7	main_z	1	stimuli_distractor_trianglediamonds.svg	stimuli_target_trianglesquares.svg	26	yes	44	1	369	0	0			0	0			1				0	
6.6.1	mac	2023-06-12	17:38:45	17:42:47	239899	6469b26b2cf3b4b300c0cddc	4	1	main_z	7	advance_on_keypress_ZEE	2	stimuli_distractor_trianglediamonds.svg	stimuli_target_trianglesquares.svg	26	yes	57	0	1107	0	0			0	0			1				0	
6.6.1	mac	2023-06-12	17:38:45	17:42:50	243629	6469b26b2cf3b4b300c0cddc	4	1	main_z	7	main_z	3	stimuli_target_trianglerectangles.svg	stimuli_distractor_trianglediamonds.svg	17	yes	0	0	2000	0	0			0	0			1				0	
6.6.1	mac	2023-06-12	17:38:45	17:42:50	243629	6469b26b2cf3b4b300c0cddc	4	1	main_z	7	advance_on_keypress_ZEE	4	stimuli_target_trianglerectangles.svg	stimuli_distractor_trianglediamonds.svg	17	yes	57	0	527	0	0			0	0			1				0	
6.6.1	mac	2023-06-12	17:38:45	17:42:52	245056	6469b26b2cf3b4b300c0cddc	4	1	main_z	7	main_z	5	stimuli_target_trianglesquares.svg	stimuli_distractor_trianglediamonds.svg	18	yes	44	1	276	0	0			0	0			1				0	
6.6.1	mac	2023-06-12	17:38:45	17:42:52	245056	6469b26b2cf3b4b300c0cddc	4	1	main_z	7	advance_on_keypress_ZEE	6	stimuli_target_trianglesquares.svg	stimuli_distractor_trianglediamonds.svg	18	yes	57	0	838	0	0			0	0			1				0	
6.6.1	mac	2023-06-12	17:38:45	17:42:54	246902	6469b26b2cf3b4b300c0cddc	4	1	main_z	7	main_z	7	stimuli_target_rectanglediamonds.svg	stimuli_distractor_trianglediamonds.svg	2	yes	44	1	388	0	0			0	0			1				0	
6.6.1	mac	2023-06-12	17:38:45	17:42:54	246902	6469b26b2cf3b4b300c0cddc	4	1	main_z	7	advance_on_keypress_ZEE	8	stimuli_target_rectanglediamonds.svg	stimuli_distractor_trianglediamonds.svg	2	yes	57	0	860	0	0			0	0			1				0	
6.6.1	mac	2023-06-12	17:38:45	17:42:56	248798	6469b26b2cf3b4b300c0cddc	4	1	main_z	7	main_z	9	stimuli_distractor_diamondtriangles.svg	stimuli_target_diamondrectangles.svg	31	yes	44	1	400	0	0			0	0			1				0	
6.6.1	mac	2023-06-12	17:38:45	17:42:56	248798	6469b26b2cf3b4b300c0cddc	4	1	main_z	7	advance_on_keypress_ZEE	10	stimuli_distractor_diamondtriangles.svg	stimuli_target_diamondrectangles.svg	31	yes	57	0	932	0	0			0	0			1				0	
6.6.1	mac	2023-06-12	17:38:45	17:42:57	250661	6469b26b2cf3b4b300c0cddc	4	1	main_z	7	main_z	11	stimuli_target_squaretriangles.svg	stimuli_distractor_diamondtriangles.svg	7	yes	44	1	296	0	0			0	0			1				0	
6.6.1	mac	2023-06-12	17:38:45	17:42:57	250661	6469b26b2cf3b4b300c0cddc	4	1	main_z	7	advance_on_keypress_ZEE	12	stimuli_target_squaretriangles.svg	stimuli_distractor_diamondtriangles.svg	7	yes	57	0	663	0	0			0	0			1				0	
6.6.1	mac	2023-06-12	17:38:45	17:42:59	252326	6469b26b2cf3b4b300c0cddc	4	1	main_z	7	main_z	13	stimuli_distractor_diamondtriangles.svg	stimuli_target_squaretriangles.svg	15	yes	44	1	361	0	0			0	0			1				0	
6.6.1	mac	2023-06-12	17:38:45	17:42:59	252326	6469b26b2cf3b4b300c0cddc	4	1	main_z	7	advance_on_keypress_ZEE	14	stimuli_distractor_diamondtriangles.svg	stimuli_target_squaretriangles.svg	15	yes	57	0	684	0	0			0	0			1				0	
6.6.1	mac	2023-06-12	17:38:45	17:43:01	254018	6469b26b2cf3b4b300c0cddc	4	1	main_z	7	main_z	15	stimuli_target_squarediamonds.svg	stimuli_distractor_trianglediamonds.svg	4	yes	44	1	371	0	0			0	0			1				0	
6.6.1	mac	2023-06-12	17:38:45	17:43:01	254018	6469b26b2cf3b4b300c0cddc	4	1	main_z	7	advance_on_keypress_ZEE	16	stimuli_target_squarediamonds.svg	stimuli_distractor_trianglediamonds.svg	4	yes	57	0	627	0	0			0	0			1				0	
6.6.1	mac	2023-06-12	17:38:45	17:43:02	255697	6469b26b2cf3b4b300c0cddc	4	1	main_z	7	main_z	17	stimuli_target_diamondsquares.svg	stimuli_distractor_trianglediamonds.svg	20	yes	44	1	433	0	0			0	0			1				0	
6.6.1	mac	2023-06-12	17:38:45	17:43:02	255697	6469b26b2cf3b4b300c0cddc	4	1	main_z	7	advance_on_keypress_ZEE	18	stimuli_target_diamondsquares.svg	stimuli_distractor_trianglediamonds.svg	20	yes	57	0	602	0	0			0	0			1				0	
6.6.1	mac	2023-06-12	17:38:45	17:43:04	257350	6469b26b2cf3b4b300c0cddc	4	1	main_z	7	main_z	19	stimuli_distractor_trianglediamonds.svg	stimuli_target_rectangletriangles.svg	9	yes	44	1	421	0	0			0	0			1				0	
6.6.1	mac	2023-06-12	17:38:45	17:43:04	257350	6469b26b2cf3b4b300c0cddc	4	1	main_z	7	advance_on_keypress_ZEE	20	stimuli_distractor_trianglediamonds.svg	stimuli_target_rectangletriangles.svg	9	yes	57	0	638	0	0			0	0			1				0	
6.6.1	mac	2023-06-12	17:38:45	17:43:07	260628	6469b26b2cf3b4b300c0cddc	4	1	main_z	7	main_z	21	stimuli_distractor_trianglediamonds.svg	stimuli_target_squaretriangles.svg	11	yes	0	0	2000	0	0			0	0			1				0	
6.6.1	mac	2023-06-12	17:38:45	17:43:07	260628	6469b26b2cf3b4b300c0cddc	4	1	main_z	7	advance_on_keypress_ZEE	22	stimuli_distractor_trianglediamonds.svg	stimuli_target_squaretriangles.svg	11	yes	57	0	498	0	0			0	0			1				0	
6.6.1	mac	2023-06-12	17:38:45	17:43:09	261990	6469b26b2cf3b4b300c0cddc	4	1	main_z	7	main_z	23	stimuli_target_trianglesquares.svg	stimuli_distractor_diamondtriangles.svg	22	yes	44	1	227	0	0			0	0			1				0	
6.6.1	mac	2023-06-12	17:38:45	17:43:09	261990	6469b26b2cf3b4b300c0cddc	4	1	main_z	7	advance_on_keypress_ZEE	24	stimuli_target_trianglesquares.svg	stimuli_distractor_diamondtriangles.svg	22	yes	57	0	2049	0	0			0	0			1				0	
6.6.1	mac	2023-06-12	17:38:45	17:43:12	265092	6469b26b2cf3b4b300c0cddc	4	1	main_z	7	main_z	25	stimuli_target_diamondrectangles.svg	stimuli_distractor_diamondtriangles.svg	23	yes	44	1	429	0	0			0	0			1				0	
6.6.1	mac	2023-06-12	17:38:45	17:43:12	265092	6469b26b2cf3b4b300c0cddc	4	1	main_z	7	advance_on_keypress_ZEE	26	stimuli_target_diamondrectangles.svg	stimuli_distractor_diamondtriangles.svg	23	yes	57	0	748	0	0			0	0			1				0	
6.6.1	mac	2023-06-12	17:38:45	17:43:15	268461	6469b26b2cf3b4b300c0cddc	4	1	main_z	7	main_z	27	stimuli_distractor_diamondtriangles.svg	stimuli_distractor_trianglediamonds.svg	38	no	0	1	2000	0	0			0	0			1				0	
6.6.1	mac	2023-06-12	17:38:45	17:43:15	268461	6469b26b2cf3b4b300c0cddc	4	1	main_z	7	advance_on_keypress_ZEE	28	stimuli_distractor_diamondtriangles.svg	stimuli_distractor_trianglediamonds.svg	38	no	57	0	670	0	0			0	0			1				0	
6.6.1	mac	2023-06-12	17:38:45	17:43:17	270052	6469b26b2cf3b4b300c0cddc	4	1	main_z	7	main_z	29	stimuli_target_squaretriangles.svg	stimuli_distractor_trianglediamonds.svg	3	yes	44	1	289	0	0			0	0			1				0	
6.6.1	mac	2023-06-12	17:38:45	17:43:17	270052	6469b26b2cf3b4b300c0cddc	4	1	main_z	7	advance_on_keypress_ZEE	30	stimuli_target_squaretriangles.svg	stimuli_distractor_trianglediamonds.svg	3	yes	57	0	870	0	0			0	0			1				0	
6.6.1	mac	2023-06-12	17:38:45	17:43:19	271799	6469b26b2cf3b4b300c0cddc	4	1	main_z	7	main_z	31	stimuli_distractor_trianglediamonds.svg	stimuli_target_diamondrectangles.svg	27	yes	44	1	253	0	0			0	0			1				0	
6.6.1	mac	2023-06-12	17:38:45	17:43:19	271799	6469b26b2cf3b4b300c0cddc	4	1	main_z	7	advance_on_keypress_ZEE	32	stimuli_distractor_trianglediamonds.svg	stimuli_target_diamondrectangles.svg	27	yes	57	0	950	0	0			0	0			1				0	
6.6.1	mac	2023-06-12	17:38:45	17:43:21	273800	6469b26b2cf3b4b300c0cddc	4	1	main_z	7	main_z	33	stimuli_distractor_trianglediamonds.svg	stimuli_target_rectanglediamonds.svg	10	yes	44	1	420	0	0			0	0			1				0	
6.6.1	mac	2023-06-12	17:38:45	17:43:21	273800	6469b26b2cf3b4b300c0cddc	4	1	main_z	7	advance_on_keypress_ZEE	34	stimuli_distractor_trianglediamonds.svg	stimuli_target_rectanglediamonds.svg	10	yes	57	0	715	0	0			0	0			1				0	
6.6.1	mac	2023-06-12	17:38:45	17:43:24	277145	6469b26b2cf3b4b300c0cddc	4	1	main_z	7	main_z	35	stimuli_distractor_diamondtriangles.svg	stimuli_target_trianglesquares.svg	30	yes	0	0	2000	0	0			0	0			1				0	
6.6.1	mac	2023-06-12	17:38:45	17:43:24	277145	6469b26b2cf3b4b300c0cddc	4	1	main_z	7	advance_on_keypress_ZEE	36	stimuli_distractor_diamondtriangles.svg	stimuli_target_trianglesquares.svg	30	yes	57	0	383	0	0			0	0			1				0	
6.6.1	mac	2023-06-12	17:38:45	17:43:25	278406	6469b26b2cf3b4b300c0cddc	4	1	main_z	7	main_z	37	stimuli_distractor_diamondtriangles.svg	stimuli_distractor_trianglediamonds.svg	37	no	44	0	243	0	0			0	0			1				0	
6.6.1	mac	2023-06-12	17:38:45	17:43:25	278406	6469b26b2cf3b4b300c0cddc	4	1	main_z	7	advance_on_keypress_ZEE	38	stimuli_distractor_diamondtriangles.svg	stimuli_distractor_trianglediamonds.svg	37	no	57	0	555	0	0			0	0			1				0	
6.6.1	mac	2023-06-12	17:38:45	17:43:27	280119	6469b26b2cf3b4b300c0cddc	4	1	main_z	7	main_z	39	stimuli_target_squarediamonds.svg	stimuli_distractor_diamondtriangles.svg	8	yes	44	1	523	0	0			0	0			1				0	
6.6.1	mac	2023-06-12	17:38:45	17:43:27	280119	6469b26b2cf3b4b300c0cddc	4	1	main_z	7	advance_on_keypress_ZEE	40	stimuli_target_squarediamonds.svg	stimuli_distractor_diamondtriangles.svg	8	yes	57	0	1119	0	0			0	0			1				0	
6.6.1	mac	2023-06-12	17:38:45	17:43:31	283860	6469b26b2cf3b4b300c0cddc	4	1	main_z	7	main_z	41	stimuli_distractor_trianglediamonds.svg	stimuli_target_trianglerectangles.svg	25	yes	0	0	2000	0	0			0	0			1				0	
6.6.1	mac	2023-06-12	17:38:45	17:43:31	283860	6469b26b2cf3b4b300c0cddc	4	1	main_z	7	advance_on_keypress_ZEE	42	stimuli_distractor_trianglediamonds.svg	stimuli_target_trianglerectangles.svg	25	yes	57	0	254	0	0			0	0			1				0	
6.6.1	mac	2023-06-12	17:38:45	17:43:32	284960	6469b26b2cf3b4b300c0cddc	4	1	main_z	7	main_z	43	stimuli_distractor_diamondtriangles.svg	stimuli_target_rectanglediamonds.svg	14	yes	44	1	215	0	0			0	0			1				0	
6.6.1	mac	2023-06-12	17:38:45	17:43:32	284960	6469b26b2cf3b4b300c0cddc	4	1	main_z	7	advance_on_keypress_ZEE	44	stimuli_distractor_diamondtriangles.svg	stimuli_target_rectanglediamonds.svg	14	yes	57	0	632	0	0			0	0			1				0	
6.6.1	mac	2023-06-12	17:38:45	17:43:35	288227	6469b26b2cf3b4b300c0cddc	4	1	main_z	7	main_z	45	stimuli_distractor_trianglediamonds.svg	stimuli_distractor_diamondtriangles.svg	35	no	0	1	2000	0	0			0	0			1				0	
6.6.1	mac	2023-06-12	17:38:45	17:43:35	288227	6469b26b2cf3b4b300c0cddc	4	1	main_z	7	advance_on_keypress_ZEE	46	stimuli_distractor_trianglediamonds.svg	stimuli_distractor_diamondtriangles.svg	35	no	57	0	377	0	0			0	0			1				0	
6.6.1	mac	2023-06-12	17:38:45	17:43:36	289468	6469b26b2cf3b4b300c0cddc	4	1	main_z	7	main_z	47	stimuli_distractor_trianglediamonds.svg	stimuli_distractor_trianglediamonds.svg	33	no	44	0	238	0	0			0	0			1				0	
6.6.1	mac	2023-06-12	17:38:45	17:43:36	289468	6469b26b2cf3b4b300c0cddc	4	1	main_z	7	advance_on_keypress_ZEE	48	stimuli_distractor_trianglediamonds.svg	stimuli_distractor_trianglediamonds.svg	33	no	57	0	708	0	0			0	0			1				0	
6.6.1	mac	2023-06-12	17:38:45	17:43:40	292793	6469b26b2cf3b4b300c0cddc	4	1	main_z	7	main_z	49	stimuli_distractor_diamondtriangles.svg	stimuli_distractor_diamondtriangles.svg	39	no	0	1	2000	0	0			0	0			1				0	
6.6.1	mac	2023-06-12	17:38:45	17:43:40	292793	6469b26b2cf3b4b300c0cddc	4	1	main_z	7	advance_on_keypress_ZEE	50	stimuli_distractor_diamondtriangles.svg	stimuli_distractor_diamondtriangles.svg	39	no	57	0	402	0	0			0	0			1				0	
6.6.1	mac	2023-06-12	17:38:45	17:43:41	294037	6469b26b2cf3b4b300c0cddc	4	1	main_z	7	main_z	51	stimuli_distractor_diamondtriangles.svg	stimuli_target_trianglerectangles.svg	29	yes	44	1	208	0	0			0	0			1				0	
6.6.1	mac	2023-06-12	17:38:45	17:43:41	294037	6469b26b2cf3b4b300c0cddc	4	1	main_z	7	advance_on_keypress_ZEE	52	stimuli_distractor_diamondtriangles.svg	stimuli_target_trianglerectangles.svg	29	yes	57	0	929	0	0			0	0			1				0	
6.6.1	mac	2023-06-12	17:38:45	17:43:43	296111	6469b26b2cf3b4b300c0cddc	4	1	main_z	7	main_z	53	stimuli_distractor_diamondtriangles.svg	stimuli_target_squarediamonds.svg	16	yes	44	1	516	0	0			0	0			1				0	
6.6.1	mac	2023-06-12	17:38:45	17:43:43	296111	6469b26b2cf3b4b300c0cddc	4	1	main_z	7	advance_on_keypress_ZEE	54	stimuli_distractor_diamondtriangles.svg	stimuli_target_squarediamonds.svg	16	yes	57	0	603	0	0			0	0			1				0	
6.6.1	mac	2023-06-12	17:38:45	17:43:46	299343	6469b26b2cf3b4b300c0cddc	4	1	main_z	7	main_z	55	stimuli_target_rectangletriangles.svg	stimuli_distractor_diamondtriangles.svg	5	yes	0	0	2000	0	0			0	0			1				0	
6.6.1	mac	2023-06-12	17:38:45	17:43:46	299343	6469b26b2cf3b4b300c0cddc	4	1	main_z	7	advance_on_keypress_ZEE	56	stimuli_target_rectangletriangles.svg	stimuli_distractor_diamondtriangles.svg	5	yes	57	0	677	0	0			0	0			1				0	
6.6.1	mac	2023-06-12	17:38:45	17:43:48	300829	6469b26b2cf3b4b300c0cddc	4	1	main_z	7	main_z	57	stimuli_distractor_diamondtriangles.svg	stimuli_target_diamondsquares.svg	32	yes	44	1	184	0	0			0	0			1				0	
6.6.1	mac	2023-06-12	17:38:45	17:43:48	300829	6469b26b2cf3b4b300c0cddc	4	1	main_z	7	advance_on_keypress_ZEE	58	stimuli_distractor_diamondtriangles.svg	stimuli_target_diamondsquares.svg	32	yes	57	0	659	0	0			0	0			1				0	
6.6.1	mac	2023-06-12	17:38:45	17:43:51	304109	6469b26b2cf3b4b300c0cddc	4	1	main_z	7	main_z	59	stimuli_distractor_trianglediamonds.svg	stimuli_target_squarediamonds.svg	12	yes	0	0	2000	0	0			0	0			1				0	
6.6.1	mac	2023-06-12	17:38:45	17:43:51	304109	6469b26b2cf3b4b300c0cddc	4	1	main_z	7	advance_on_keypress_ZEE	60	stimuli_distractor_trianglediamonds.svg	stimuli_target_squarediamonds.svg	12	yes	57	0	367	0	0			0	0			1				0	
6.6.1	mac	2023-06-12	17:38:45	17:43:52	305343	6469b26b2cf3b4b300c0cddc	4	1	main_z	7	main_z	61	stimuli_distractor_trianglediamonds.svg	stimuli_distractor_trianglediamonds.svg	34	no	44	0	232	0	0			0	0			1				0	
6.6.1	mac	2023-06-12	17:38:45	17:43:52	305343	6469b26b2cf3b4b300c0cddc	4	1	main_z	7	advance_on_keypress_ZEE	62	stimuli_distractor_trianglediamonds.svg	stimuli_distractor_trianglediamonds.svg	34	no	57	0	477	0	0			0	0			1				0	
6.6.1	mac	2023-06-12	17:38:45	17:43:54	306878	6469b26b2cf3b4b300c0cddc	4	1	main_z	7	main_z	63	stimuli_target_rectangletriangles.svg	stimuli_distractor_trianglediamonds.svg	1	yes	44	1	433	0	0			0	0			1				0	
6.6.1	mac	2023-06-12	17:38:45	17:43:54	306878	6469b26b2cf3b4b300c0cddc	4	1	main_z	7	advance_on_keypress_ZEE	64	stimuli_target_rectangletriangles.svg	stimuli_distractor_trianglediamonds.svg	1	yes	57	0	575	0	0			0	0			1				0	
6.6.1	mac	2023-06-12	17:38:45	17:43:57	310076	6469b26b2cf3b4b300c0cddc	4	1	main_z	7	main_z	65	stimuli_distractor_diamondtriangles.svg	stimuli_distractor_diamondtriangles.svg	40	no	0	1	2000	0	0			0	0			1				0	
6.6.1	mac	2023-06-12	17:38:45	17:43:57	310076	6469b26b2cf3b4b300c0cddc	4	1	main_z	7	advance_on_keypress_ZEE	66	stimuli_distractor_diamondtriangles.svg	stimuli_distractor_diamondtriangles.svg	40	no	57	0	234	0	0			0	0			1				0	
6.6.1	mac	2023-06-12	17:38:45	17:44:00	312943	6469b26b2cf3b4b300c0cddc	4	1	main_z	7	main_z	67	stimuli_target_diamondrectangles.svg	stimuli_distractor_trianglediamonds.svg	19	yes	0	0	2000	0	0			0	0			1				0	
6.6.1	mac	2023-06-12	17:38:45	17:44:00	312943	6469b26b2cf3b4b300c0cddc	4	1	main_z	7	advance_on_keypress_ZEE	68	stimuli_target_diamondrectangles.svg	stimuli_distractor_trianglediamonds.svg	19	yes	57	0	413	0	0			0	0			1				0	
6.6.1	mac	2023-06-12	17:38:45	17:44:01	314332	6469b26b2cf3b4b300c0cddc	4	1	main_z	7	main_z	69	stimuli_target_rectanglediamonds.svg	stimuli_distractor_diamondtriangles.svg	6	yes	44	1	336	0	0			0	0			1				0	
6.6.1	mac	2023-06-12	17:38:45	17:44:01	314332	6469b26b2cf3b4b300c0cddc	4	1	main_z	7	advance_on_keypress_ZEE	70	stimuli_target_rectanglediamonds.svg	stimuli_distractor_diamondtriangles.svg	6	yes	57	0	498	0	0			0	0			1				0	
6.6.1	mac	2023-06-12	17:38:45	17:44:04	317460	6469b26b2cf3b4b300c0cddc	4	1	main_z	7	main_z	71	stimuli_distractor_diamondtriangles.svg	stimuli_target_rectangletriangles.svg	13	yes	0	0	2000	0	0			0	0			1				0	
6.6.1	mac	2023-06-12	17:38:45	17:44:04	317460	6469b26b2cf3b4b300c0cddc	4	1	main_z	7	advance_on_keypress_ZEE	72	stimuli_distractor_diamondtriangles.svg	stimuli_target_rectangletriangles.svg	13	yes	57	0	365	0	0			0	0			1				0	
6.6.1	mac	2023-06-12	17:38:45	17:44:06	318705	6469b26b2cf3b4b300c0cddc	4	1	main_z	7	main_z	73	stimuli_distractor_trianglediamonds.svg	stimuli_distractor_diamondtriangles.svg	36	no	44	0	227	0	0			0	0			1				0	
6.6.1	mac	2023-06-12	17:38:45	17:44:06	318705	6469b26b2cf3b4b300c0cddc	4	1	main_z	7	advance_on_keypress_ZEE	74	stimuli_distractor_trianglediamonds.svg	stimuli_distractor_diamondtriangles.svg	36	no	57	0	391	0	0			0	0			1				0	
6.6.1	mac	2023-06-12	17:38:45	17:44:09	321726	6469b26b2cf3b4b300c0cddc	4	1	main_z	7	main_z	75	stimuli_target_trianglerectangles.svg	stimuli_distractor_diamondtriangles.svg	21	yes	0	0	2000	0	0			0	0			1				0	
6.6.1	mac	2023-06-12	17:38:45	17:44:09	321726	6469b26b2cf3b4b300c0cddc	4	1	main_z	7	advance_on_keypress_ZEE	76	stimuli_target_trianglerectangles.svg	stimuli_distractor_diamondtriangles.svg	21	yes	57	0	238	0	0			0	0			1				0	
6.6.1	mac	2023-06-12	17:38:45	17:44:10	322827	6469b26b2cf3b4b300c0cddc	4	1	main_z	7	main_z	77	stimuli_target_diamondsquares.svg	stimuli_distractor_diamondtriangles.svg	24	yes	44	1	233	0	0			0	0			1				0	
6.6.1	mac	2023-06-12	17:38:45	17:44:10	322827	6469b26b2cf3b4b300c0cddc	4	1	main_z	7	advance_on_keypress_ZEE	78	stimuli_target_diamondsquares.svg	stimuli_distractor_diamondtriangles.svg	24	yes	57	0	547	0	0			0	0			1				0	
6.6.1	mac	2023-06-12	17:38:45	17:44:13	326010	6469b26b2cf3b4b300c0cddc	4	1	main_z	7	main_z	79	stimuli_distractor_trianglediamonds.svg	stimuli_target_diamondsquares.svg	28	yes	0	0	2000	0	0			0	0			1				0	
6.6.1	mac	2023-06-12	17:38:45	17:44:13	326010	6469b26b2cf3b4b300c0cddc	4	1	main_z	7	advance_on_keypress_ZEE	80	stimuli_distractor_trianglediamonds.svg	stimuli_target_diamondsquares.svg	28	yes	57	0	213	0	0			0	0			1				0	
6.6.1	mac	2023-06-12	17:38:45	17:44:14	327085	6469b26b2cf3b4b300c0cddc	4	1	main_z	7	main_z	81	stimuli_distractor_trianglediamonds.svg	stimuli_target_trianglerectangles.svg	25	yes	44	1	224	0	0			0	0			1				0	
6.6.1	mac	2023-06-12	17:38:45	17:44:14	327085	6469b26b2cf3b4b300c0cddc	4	1	main_z	7	advance_on_keypress_ZEE	82	stimuli_distractor_trianglediamonds.svg	stimuli_target_trianglerectangles.svg	25	yes	57	0	544	0	0			0	0			1				0	
6.6.1	mac	2023-06-12	17:38:45	17:44:17	330259	6469b26b2cf3b4b300c0cddc	4	1	main_z	7	main_z	83	stimuli_distractor_diamondtriangles.svg	stimuli_target_rectangletriangles.svg	13	yes	0	0	2000	0	0			0	0			1				0	
6.6.1	mac	2023-06-12	17:38:45	17:44:17	330259	6469b26b2cf3b4b300c0cddc	4	1	main_z	7	advance_on_keypress_ZEE	84	stimuli_distractor_diamondtriangles.svg	stimuli_target_rectangletriangles.svg	13	yes	57	0	372	0	0			0	0			1				0	
6.6.1	mac	2023-06-12	17:38:45	17:44:18	331474	6469b26b2cf3b4b300c0cddc	4	1	main_z	7	main_z	85	stimuli_distractor_trianglediamonds.svg	stimuli_distractor_diamondtriangles.svg	35	no	44	0	213	0	0			0	0			1				0	
6.6.1	mac	2023-06-12	17:38:45	17:44:18	331474	6469b26b2cf3b4b300c0cddc	4	1	main_z	7	advance_on_keypress_ZEE	86	stimuli_distractor_trianglediamonds.svg	stimuli_distractor_diamondtriangles.svg	35	no	57	0	450	0	0			0	0			1				0	
6.6.1	mac	2023-06-12	17:38:45	17:44:21	334560	6469b26b2cf3b4b300c0cddc	4	1	main_z	7	main_z	87	stimuli_distractor_trianglediamonds.svg	stimuli_target_diamondsquares.svg	28	yes	0	0	2000	0	0			0	0			1				0	
6.6.1	mac	2023-06-12	17:38:45	17:44:21	334560	6469b26b2cf3b4b300c0cddc	4	1	main_z	7	advance_on_keypress_ZEE	88	stimuli_distractor_trianglediamonds.svg	stimuli_target_diamondsquares.svg	28	yes	57	0	481	0	0			0	0			1				0	
6.6.1	mac	2023-06-12	17:38:45	17:44:23	335905	6469b26b2cf3b4b300c0cddc	4	1	main_z	7	main_z	89	stimuli_distractor_diamondtriangles.svg	stimuli_target_diamondrectangles.svg	31	yes	44	1	227	0	0			0	0			1				0	
6.6.1	mac	2023-06-12	17:38:45	17:44:23	335905	6469b26b2cf3b4b300c0cddc	4	1	main_z	7	advance_on_keypress_ZEE	90	stimuli_distractor_diamondtriangles.svg	stimuli_target_diamondrectangles.svg	31	yes	57	0	467	0	0			0	0			1				0	
6.6.1	mac	2023-06-12	17:38:45	17:44:26	338992	6469b26b2cf3b4b300c0cddc	4	1	main_z	7	main_z	91	stimuli_target_trianglerectangles.svg	stimuli_distractor_trianglediamonds.svg	17	yes	0	0	2000	0	0			0	0			1				0	
6.6.1	mac	2023-06-12	17:38:45	17:44:26	338992	6469b26b2cf3b4b300c0cddc	4	1	main_z	7	advance_on_keypress_ZEE	92	stimuli_target_trianglerectangles.svg	stimuli_distractor_trianglediamonds.svg	17	yes	57	0	278	0	0			0	0			1				0	
6.6.1	mac	2023-06-12	17:38:45	17:44:27	340133	6469b26b2cf3b4b300c0cddc	4	1	main_z	7	main_z	93	stimuli_target_squarediamonds.svg	stimuli_distractor_diamondtriangles.svg	8	yes	44	1	238	0	0			0	0			1				0	
6.6.1	mac	2023-06-12	17:38:45	17:44:27	340133	6469b26b2cf3b4b300c0cddc	4	1	main_z	7	advance_on_keypress_ZEE	94	stimuli_target_squarediamonds.svg	stimuli_distractor_diamondtriangles.svg	8	yes	57	0	643	0	0			0	0			1				0	
6.6.1	mac	2023-06-12	17:38:45	17:44:30	343392	6469b26b2cf3b4b300c0cddc	4	1	main_z	7	main_z	95	stimuli_target_squaretriangles.svg	stimuli_distractor_trianglediamonds.svg	3	yes	0	0	2000	0	0			0	0			1				0	
6.6.1	mac	2023-06-12	17:38:45	17:44:30	343392	6469b26b2cf3b4b300c0cddc	4	1	main_z	7	advance_on_keypress_ZEE	96	stimuli_target_squaretriangles.svg	stimuli_distractor_trianglediamonds.svg	3	yes	57	0	230	0	0			0	0			1				0	
6.6.1	mac	2023-06-12	17:38:45	17:44:31	344602	6469b26b2cf3b4b300c0cddc	4	1	main_z	7	main_z	97	stimuli_distractor_diamondtriangles.svg	stimuli_distractor_trianglediamonds.svg	37	no	44	0	341	0	0			0	0			1				0	
6.6.1	mac	2023-06-12	17:38:45	17:44:31	344602	6469b26b2cf3b4b300c0cddc	4	1	main_z	7	advance_on_keypress_ZEE	98	stimuli_distractor_diamondtriangles.svg	stimuli_distractor_trianglediamonds.svg	37	no	57	0	451	0	0			0	0			1				0	
6.6.1	mac	2023-06-12	17:38:45	17:44:33	346115	6469b26b2cf3b4b300c0cddc	4	1	main_z	7	main_z	99	stimuli_distractor_trianglediamonds.svg	stimuli_target_squarediamonds.svg	12	yes	44	1	436	0	0			0	0			1				0	
6.6.1	mac	2023-06-12	17:38:45	17:44:33	346115	6469b26b2cf3b4b300c0cddc	4	1	main_z	7	advance_on_keypress_ZEE	100	stimuli_distractor_trianglediamonds.svg	stimuli_target_squarediamonds.svg	12	yes	57	0	542	0	0			0	0			1				0	
6.6.1	mac	2023-06-12	17:38:45	17:44:36	349275	6469b26b2cf3b4b300c0cddc	4	1	main_z	7	main_z	101	stimuli_target_trianglerectangles.svg	stimuli_distractor_diamondtriangles.svg	21	yes	0	0	2000	0	0			0	0			1				0	
6.6.1	mac	2023-06-12	17:38:45	17:44:36	349275	6469b26b2cf3b4b300c0cddc	4	1	main_z	7	advance_on_keypress_ZEE	102	stimuli_target_trianglerectangles.svg	stimuli_distractor_diamondtriangles.svg	21	yes	57	0	236	0	0			0	0			1				0	
6.6.1	mac	2023-06-12	17:38:45	17:44:37	350384	6469b26b2cf3b4b300c0cddc	4	1	main_z	7	main_z	103	stimuli_distractor_diamondtriangles.svg	stimuli_target_trianglesquares.svg	30	yes	44	1	240	0	0			0	0			1				0	
6.6.1	mac	2023-06-12	17:38:45	17:44:37	350384	6469b26b2cf3b4b300c0cddc	4	1	main_z	7	advance_on_keypress_ZEE	104	stimuli_distractor_diamondtriangles.svg	stimuli_target_trianglesquares.svg	30	yes	57	0	470	0	0			0	0			1				0	
6.6.1	mac	2023-06-12	17:38:45	17:44:39	352028	6469b26b2cf3b4b300c0cddc	4	1	main_z	7	main_z	105	stimuli_target_squarediamonds.svg	stimuli_distractor_trianglediamonds.svg	4	yes	44	1	552	0	0			0	0			1				0	
6.6.1	mac	2023-06-12	17:38:45	17:44:39	352028	6469b26b2cf3b4b300c0cddc	4	1	main_z	7	advance_on_keypress_ZEE	106	stimuli_target_squarediamonds.svg	stimuli_distractor_trianglediamonds.svg	4	yes	57	0	490	0	0			0	0			1				0	
6.6.1	mac	2023-06-12	17:38:45	17:44:40	353601	6469b26b2cf3b4b300c0cddc	4	1	main_z	7	main_z	107	stimuli_distractor_trianglediamonds.svg	stimuli_target_rectangletriangles.svg	9	yes	44	1	458	0	0			0	0			1				0	
6.6.1	mac	2023-06-12	17:38:45	17:44:40	353601	6469b26b2cf3b4b300c0cddc	4	1	main_z	7	advance_on_keypress_ZEE	108	stimuli_distractor_trianglediamonds.svg	stimuli_target_rectangletriangles.svg	9	yes	57	0	438	0	0			0	0			1				0	
6.6.1	mac	2023-06-12	17:38:45	17:44:43	356674	6469b26b2cf3b4b300c0cddc	4	1	main_z	7	main_z	109	stimuli_distractor_trianglediamonds.svg	stimuli_target_diamondrectangles.svg	27	yes	0	0	2000	0	0			0	0			1				0	
6.6.1	mac	2023-06-12	17:38:45	17:44:43	356674	6469b26b2cf3b4b300c0cddc	4	1	main_z	7	advance_on_keypress_ZEE	110	stimuli_distractor_trianglediamonds.svg	stimuli_target_diamondrectangles.svg	27	yes	57	0	23	0	0			0	0			1				0	
6.6.1	mac	2023-06-12	17:38:45	17:44:44	357657	6469b26b2cf3b4b300c0cddc	4	1	main_z	7	main_z	111	stimuli_distractor_diamondtriangles.svg	stimuli_distractor_diamondtriangles.svg	39	no	44	0	329	0	0			0	0			1				0	
6.6.1	mac	2023-06-12	17:38:45	17:44:44	357657	6469b26b2cf3b4b300c0cddc	4	1	main_z	7	advance_on_keypress_ZEE	112	stimuli_distractor_diamondtriangles.svg	stimuli_distractor_diamondtriangles.svg	39	no	57	0	310	0	0			0	0			1				0	
6.6.1	mac	2023-06-12	17:38:45	17:44:47	360609	6469b26b2cf3b4b300c0cddc	4	1	main_z	7	main_z	113	stimuli_target_diamondrectangles.svg	stimuli_distractor_trianglediamonds.svg	19	yes	0	0	2000	0	0			0	0			1				0	
6.6.1	mac	2023-06-12	17:38:45	17:44:47	360609	6469b26b2cf3b4b300c0cddc	4	1	main_z	7	advance_on_keypress_ZEE	114	stimuli_target_diamondrectangles.svg	stimuli_distractor_trianglediamonds.svg	19	yes	57	0	274	0	0			0	0			1				0	
6.6.1	mac	2023-06-12	17:38:45	17:44:48	361666	6469b26b2cf3b4b300c0cddc	4	1	main_z	7	main_z	115	stimuli_distractor_trianglediamonds.svg	stimuli_target_squaretriangles.svg	11	yes	44	1	155	0	0			0	0			1				0	
6.6.1	mac	2023-06-12	17:38:45	17:44:48	361666	6469b26b2cf3b4b300c0cddc	4	1	main_z	7	advance_on_keypress_ZEE	116	stimuli_distractor_trianglediamonds.svg	stimuli_target_squaretriangles.svg	11	yes	57	0	466	0	0			0	0			1				0	
6.6.1	mac	2023-06-12	17:38:45	17:44:52	364758	6469b26b2cf3b4b300c0cddc	4	1	main_z	7	main_z	117	stimuli_target_trianglesquares.svg	stimuli_distractor_trianglediamonds.svg	18	yes	0	0	2000	0	0			0	0			1				0	
6.6.1	mac	2023-06-12	17:38:45	17:44:52	364758	6469b26b2cf3b4b300c0cddc	4	1	main_z	7	advance_on_keypress_ZEE	118	stimuli_target_trianglesquares.svg	stimuli_distractor_trianglediamonds.svg	18	yes	57	0	360	0	0			0	0			1				0	
6.6.1	mac	2023-06-12	17:38:45	17:44:53	366037	6469b26b2cf3b4b300c0cddc	4	1	main_z	7	main_z	119	stimuli_target_squaretriangles.svg	stimuli_distractor_diamondtriangles.svg	7	yes	44	1	294	0	0			0	0			1				0	
6.6.1	mac	2023-06-12	17:38:45	17:44:53	366037	6469b26b2cf3b4b300c0cddc	4	1	main_z	7	advance_on_keypress_ZEE	120	stimuli_target_squaretriangles.svg	stimuli_distractor_diamondtriangles.svg	7	yes	57	0	1726	0	0			0	0			1				0	
6.6.1	mac	2023-06-12	17:38:45	17:44:57	370375	6469b26b2cf3b4b300c0cddc	4	1	main_z	7	main_z	121	stimuli_target_diamondsquares.svg	stimuli_distractor_diamondtriangles.svg	24	yes	0	0	2000	0	0			0	0			1				0	
6.6.1	mac	2023-06-12	17:38:45	17:44:57	370375	6469b26b2cf3b4b300c0cddc	4	1	main_z	7	advance_on_keypress_ZEE	122	stimuli_target_diamondsquares.svg	stimuli_distractor_diamondtriangles.svg	24	yes	57	0	683	0	0			0	0			1				0	
6.6.1	mac	2023-06-12	17:38:45	17:45:00	373692	6469b26b2cf3b4b300c0cddc	4	1	main_z	7	main_z	123	stimuli_distractor_trianglediamonds.svg	stimuli_distractor_trianglediamonds.svg	34	no	0	1	2000	0	0			0	0			1				0	
6.6.1	mac	2023-06-12	17:38:45	17:45:00	373692	6469b26b2cf3b4b300c0cddc	4	1	main_z	7	advance_on_keypress_ZEE	124	stimuli_distractor_trianglediamonds.svg	stimuli_distractor_trianglediamonds.svg	34	no	57	0	726	0	0			0	0			1				0	
6.6.1	mac	2023-06-12	17:38:45	17:45:04	377041	6469b26b2cf3b4b300c0cddc	4	1	main_z	7	main_z	125	stimuli_distractor_diamondtriangles.svg	stimuli_distractor_diamondtriangles.svg	40	no	0	1	2000	0	0			0	0			1				0	
6.6.1	mac	2023-06-12	17:38:45	17:45:04	377041	6469b26b2cf3b4b300c0cddc	4	1	main_z	7	advance_on_keypress_ZEE	126	stimuli_distractor_diamondtriangles.svg	stimuli_distractor_diamondtriangles.svg	40	no	57	0	377	0	0			0	0			1				0	
6.6.1	mac	2023-06-12	17:38:45	17:45:07	380058	6469b26b2cf3b4b300c0cddc	4	1	main_z	7	main_z	127	stimuli_target_trianglesquares.svg	stimuli_distractor_diamondtriangles.svg	22	yes	0	0	2000	0	0			0	0			1				0	
6.6.1	mac	2023-06-12	17:38:45	17:45:07	380058	6469b26b2cf3b4b300c0cddc	4	1	main_z	7	advance_on_keypress_ZEE	128	stimuli_target_trianglesquares.svg	stimuli_distractor_diamondtriangles.svg	22	yes	57	0	215	0	0			0	0			1				0	
6.6.1	mac	2023-06-12	17:38:45	17:45:08	381150	6469b26b2cf3b4b300c0cddc	4	1	main_z	7	main_z	129	stimuli_distractor_trianglediamonds.svg	stimuli_target_rectanglediamonds.svg	10	yes	44	1	239	0	0			0	0			1				0	
6.6.1	mac	2023-06-12	17:38:45	17:45:08	381150	6469b26b2cf3b4b300c0cddc	4	1	main_z	7	advance_on_keypress_ZEE	130	stimuli_distractor_trianglediamonds.svg	stimuli_target_rectanglediamonds.svg	10	yes	57	0	553	0	0			0	0			1				0	
6.6.1	mac	2023-06-12	17:38:45	17:45:11	384325	6469b26b2cf3b4b300c0cddc	4	1	main_z	7	main_z	131	stimuli_target_diamondsquares.svg	stimuli_distractor_trianglediamonds.svg	20	yes	0	0	2000	0	0			0	0			1				0	
6.6.1	mac	2023-06-12	17:38:45	17:45:11	384325	6469b26b2cf3b4b300c0cddc	4	1	main_z	7	advance_on_keypress_ZEE	132	stimuli_target_diamondsquares.svg	stimuli_distractor_trianglediamonds.svg	20	yes	57	0	258	0	0			0	0			1				0	
6.6.1	mac	2023-06-12	17:38:45	17:45:13	385730	6469b26b2cf3b4b300c0cddc	4	1	main_z	7	main_z	133	stimuli_distractor_diamondtriangles.svg	stimuli_target_trianglerectangles.svg	29	yes	44	1	521	0	0			0	0			1				0	
6.6.1	mac	2023-06-12	17:38:45	17:45:13	385730	6469b26b2cf3b4b300c0cddc	4	1	main_z	7	advance_on_keypress_ZEE	134	stimuli_distractor_diamondtriangles.svg	stimuli_target_trianglerectangles.svg	29	yes	57	0	567	0	0			0	0			1				0	
6.6.1	mac	2023-06-12	17:38:45	17:45:14	387334	6469b26b2cf3b4b300c0cddc	4	1	main_z	7	main_z	135	stimuli_distractor_trianglediamonds.svg	stimuli_target_trianglesquares.svg	26	yes	44	1	408	0	0			0	0			1				0	
6.6.1	mac	2023-06-12	17:38:45	17:45:14	387334	6469b26b2cf3b4b300c0cddc	4	1	main_z	7	advance_on_keypress_ZEE	136	stimuli_distractor_trianglediamonds.svg	stimuli_target_trianglesquares.svg	26	yes	57	0	448	0	0			0	0			1				0	
6.6.1	mac	2023-06-12	17:38:45	17:45:16	388705	6469b26b2cf3b4b300c0cddc	4	1	main_z	7	main_z	137	stimuli_distractor_diamondtriangles.svg	stimuli_target_squarediamonds.svg	16	yes	44	1	295	0	0			0	0			1				0	
6.6.1	mac	2023-06-12	17:38:45	17:45:16	388705	6469b26b2cf3b4b300c0cddc	4	1	main_z	7	advance_on_keypress_ZEE	138	stimuli_distractor_diamondtriangles.svg	stimuli_target_squarediamonds.svg	16	yes	57	0	418	0	0			0	0			1				0	
6.6.1	mac	2023-06-12	17:38:45	17:45:19	391741	6469b26b2cf3b4b300c0cddc	4	1	main_z	7	main_z	139	stimuli_distractor_trianglediamonds.svg	stimuli_distractor_trianglediamonds.svg	33	no	0	1	2000	0	0			0	0			1				0	
6.6.1	mac	2023-06-12	17:38:45	17:45:19	391741	6469b26b2cf3b4b300c0cddc	4	1	main_z	7	advance_on_keypress_ZEE	140	stimuli_distractor_trianglediamonds.svg	stimuli_distractor_trianglediamonds.svg	33	no	57	0	317	0	0			0	0			1				0	
6.6.1	mac	2023-06-12	17:38:45	17:45:20	392983	6469b26b2cf3b4b300c0cddc	4	1	main_z	7	main_z	141	stimuli_target_rectanglediamonds.svg	stimuli_distractor_diamondtriangles.svg	6	yes	44	1	290	0	0			0	0			1				0	
6.6.1	mac	2023-06-12	17:38:45	17:45:20	392983	6469b26b2cf3b4b300c0cddc	4	1	main_z	7	advance_on_keypress_ZEE	142	stimuli_target_rectanglediamonds.svg	stimuli_distractor_diamondtriangles.svg	6	yes	57	0	375	0	0			0	0			1				0	
6.6.1	mac	2023-06-12	17:38:45	17:45:21	394306	6469b26b2cf3b4b300c0cddc	4	1	main_z	7	main_z	143	stimuli_target_diamondrectangles.svg	stimuli_distractor_diamondtriangles.svg	23	yes	44	1	330	0	0			0	0			1				0	
6.6.1	mac	2023-06-12	17:38:45	17:45:21	394306	6469b26b2cf3b4b300c0cddc	4	1	main_z	7	advance_on_keypress_ZEE	144	stimuli_target_diamondrectangles.svg	stimuli_distractor_diamondtriangles.svg	23	yes	57	0	435	0	0			0	0			1				0	
6.6.1	mac	2023-06-12	17:38:45	17:45:23	395705	6469b26b2cf3b4b300c0cddc	4	1	main_z	7	main_z	145	stimuli_target_rectangletriangles.svg	stimuli_distractor_diamondtriangles.svg	5	yes	44	1	328	0	0			0	0			1				0	
6.6.1	mac	2023-06-12	17:38:45	17:45:23	395705	6469b26b2cf3b4b300c0cddc	4	1	main_z	7	advance_on_keypress_ZEE	146	stimuli_target_rectangletriangles.svg	stimuli_distractor_diamondtriangles.svg	5	yes	57	0	332	0	0			0	0			1				0	
6.6.1	mac	2023-06-12	17:38:45	17:45:24	397022	6469b26b2cf3b4b300c0cddc	4	1	main_z	7	main_z	147	stimuli_target_rectanglediamonds.svg	stimuli_distractor_trianglediamonds.svg	2	yes	44	1	346	0	0			0	0			1				0	
6.6.1	mac	2023-06-12	17:38:45	17:45:24	397022	6469b26b2cf3b4b300c0cddc	4	1	main_z	7	advance_on_keypress_ZEE	148	stimuli_target_rectanglediamonds.svg	stimuli_distractor_trianglediamonds.svg	2	yes	57	0	406	0	0			0	0			1				0	
6.6.1	mac	2023-06-12	17:38:45	17:45:25	398367	6469b26b2cf3b4b300c0cddc	4	1	main_z	7	main_z	149	stimuli_target_rectangletriangles.svg	stimuli_distractor_trianglediamonds.svg	1	yes	44	1	309	0	0			0	0			1				0	
6.6.1	mac	2023-06-12	17:38:45	17:45:25	398367	6469b26b2cf3b4b300c0cddc	4	1	main_z	7	advance_on_keypress_ZEE	150	stimuli_target_rectangletriangles.svg	stimuli_distractor_trianglediamonds.svg	1	yes	57	0	338	0	0			0	0			1				0	
6.6.1	mac	2023-06-12	17:38:45	17:45:28	401324	6469b26b2cf3b4b300c0cddc	4	1	main_z	7	main_z	151	stimuli_distractor_diamondtriangles.svg	stimuli_target_diamondsquares.svg	32	yes	0	0	2000	0	0			0	0			1				0	
6.6.1	mac	2023-06-12	17:38:45	17:45:28	401324	6469b26b2cf3b4b300c0cddc	4	1	main_z	7	advance_on_keypress_ZEE	152	stimuli_distractor_diamondtriangles.svg	stimuli_target_diamondsquares.svg	32	yes	57	0	276	0	0			0	0			1				0	
6.6.1	mac	2023-06-12	17:38:45	17:45:29	402486	6469b26b2cf3b4b300c0cddc	4	1	main_z	7	main_z	153	stimuli_distractor_trianglediamonds.svg	stimuli_distractor_diamondtriangles.svg	36	no	44	0	261	0	0			0	0			1				0	
6.6.1	mac	2023-06-12	17:38:45	17:45:29	402486	6469b26b2cf3b4b300c0cddc	4	1	main_z	7	advance_on_keypress_ZEE	154	stimuli_distractor_trianglediamonds.svg	stimuli_distractor_diamondtriangles.svg	36	no	57	0	358	0	0			0	0			1				0	
6.6.1	mac	2023-06-12	17:38:45	17:45:31	403811	6469b26b2cf3b4b300c0cddc	4	1	main_z	7	main_z	155	stimuli_distractor_diamondtriangles.svg	stimuli_distractor_trianglediamonds.svg	38	no	44	0	352	0	0			0	0			1				0	
6.6.1	mac	2023-06-12	17:38:45	17:45:31	403811	6469b26b2cf3b4b300c0cddc	4	1	main_z	7	advance_on_keypress_ZEE	156	stimuli_distractor_diamondtriangles.svg	stimuli_distractor_trianglediamonds.svg	38	no	57	0	386	0	0			0	0			1				0	
6.6.1	mac	2023-06-12	17:38:45	17:45:34	406824	6469b26b2cf3b4b300c0cddc	4	1	main_z	7	main_z	157	stimuli_distractor_diamondtriangles.svg	stimuli_target_squaretriangles.svg	15	yes	0	0	2000	0	0			0	0			1				0	
6.6.1	mac	2023-06-12	17:38:45	17:45:34	406824	6469b26b2cf3b4b300c0cddc	4	1	main_z	7	advance_on_keypress_ZEE	158	stimuli_distractor_diamondtriangles.svg	stimuli_target_squaretriangles.svg	15	yes	57	0	299	0	0			0	0			1				0	
6.6.1	mac	2023-06-12	17:38:45	17:45:35	407982	6469b26b2cf3b4b300c0cddc	4	1	main_z	7	main_z	159	stimuli_distractor_diamondtriangles.svg	stimuli_target_rectanglediamonds.svg	14	yes	44	1	223	0	0			0	0			1				0	
6.6.1	mac	2023-06-12	17:38:45	17:45:35	407982	6469b26b2cf3b4b300c0cddc	4	1	main_z	7	advance_on_keypress_ZEE	160	stimuli_distractor_diamondtriangles.svg	stimuli_target_rectanglediamonds.svg	14	yes	57	0	331	0	0			0	0			1				0	
6.6.1	mac	2023-06-12	17:38:45	17:45:52	425432	6469b26b2cf3b4b300c0cddc	4	1	practice_slash	9	practice_slash	1	stimuli_distractor_trianglediamonds.svg	stimuli_distractor_trianglediamonds.svg	15	no	53	0	340	0	0			0	0			1				0	
6.6.1	mac	2023-06-12	17:38:45	17:45:52	425432	6469b26b2cf3b4b300c0cddc	4	1	practice_slash	9	advance_on_keypress_SLASH	2	stimuli_distractor_trianglediamonds.svg	stimuli_distractor_trianglediamonds.svg	15	no	57	0	1993	0	0			0	0			1				0	
6.6.1	mac	2023-06-12	17:38:45	17:45:56	429305	6469b26b2cf3b4b300c0cddc	4	1	practice_slash	9	practice_slash	3	stimuli_target_squarediamonds.svg	stimuli_distractor_diamondtriangles.svg	2	yes	53	1	263	0	0			0	0			1				0	
6.6.1	mac	2023-06-12	17:38:45	17:45:56	429305	6469b26b2cf3b4b300c0cddc	4	1	practice_slash	9	advance_on_keypress_SLASH	4	stimuli_target_squarediamonds.svg	stimuli_distractor_diamondtriangles.svg	2	yes	57	0	619	0	0			0	0			1				0	
6.6.1	mac	2023-06-12	17:38:45	17:45:59	431797	6469b26b2cf3b4b300c0cddc	4	1	practice_slash	9	practice_slash	5	stimuli_distractor_trianglediamonds.svg	stimuli_distractor_diamondtriangles.svg	16	no	53	0	239	0	0			0	0			1				0	
6.6.1	mac	2023-06-12	17:38:45	17:45:59	431797	6469b26b2cf3b4b300c0cddc	4	1	practice_slash	9	advance_on_keypress_SLASH	6	stimuli_distractor_trianglediamonds.svg	stimuli_distractor_diamondtriangles.svg	16	no	57	0	362	0	0			0	0			1				0	
6.6.1	mac	2023-06-12	17:38:45	17:46:01	434037	6469b26b2cf3b4b300c0cddc	4	1	practice_slash	9	practice_slash	7	stimuli_distractor_trianglediamonds.svg	stimuli_target_diamondrectangles.svg	12	yes	53	1	245	0	0			0	0			1				0	
6.6.1	mac	2023-06-12	17:38:45	17:46:01	434037	6469b26b2cf3b4b300c0cddc	4	1	practice_slash	9	advance_on_keypress_SLASH	8	stimuli_distractor_trianglediamonds.svg	stimuli_target_diamondrectangles.svg	12	yes	57	0	292	0	0			0	0			1				0	
6.6.1	mac	2023-06-12	17:38:45	17:46:03	436307	6469b26b2cf3b4b300c0cddc	4	1	practice_slash	9	practice_slash	9	stimuli_distractor_trianglediamonds.svg	stimuli_target_rectanglediamonds.svg	10	yes	53	1	350	0	0			0	0			1				0	
6.6.1	mac	2023-06-12	17:38:45	17:46:03	436307	6469b26b2cf3b4b300c0cddc	4	1	practice_slash	9	advance_on_keypress_SLASH	10	stimuli_distractor_trianglediamonds.svg	stimuli_target_rectanglediamonds.svg	10	yes	57	0	11588	0	0			0	0			1				0	
6.6.1	mac	2023-06-12	17:38:45	17:46:17	449882	6469b26b2cf3b4b300c0cddc	4	1	practice_slash	9	practice_slash	11	stimuli_target_squarediamonds.svg	stimuli_distractor_trianglediamonds.svg	5	yes	53	1	357	0	0			0	0			1				0	
6.6.1	mac	2023-06-12	17:38:45	17:46:17	449882	6469b26b2cf3b4b300c0cddc	4	1	practice_slash	9	advance_on_keypress_SLASH	12	stimuli_target_squarediamonds.svg	stimuli_distractor_trianglediamonds.svg	5	yes	57	0	551	0	0			0	0			1				0	
6.6.1	mac	2023-06-12	17:38:45	17:46:21	454056	6469b26b2cf3b4b300c0cddc	4	1	practice_slash	9	practice_slash	13	stimuli_target_rectanglediamonds.svg	stimuli_distractor_trianglediamonds.svg	4	yes	0	0	2000	0	0			0	0			1				0	
6.6.1	mac	2023-06-12	17:38:45	17:46:21	454056	6469b26b2cf3b4b300c0cddc	4	1	practice_slash	9	advance_on_keypress_SLASH	14	stimuli_target_rectanglediamonds.svg	stimuli_distractor_trianglediamonds.svg	4	yes	57	0	317	0	0			0	0			1				0	
6.6.1	mac	2023-06-12	17:38:45	17:46:25	458006	6469b26b2cf3b4b300c0cddc	4	1	practice_slash	9	practice_slash	15	stimuli_distractor_diamondtriangles.svg	stimuli_distractor_trianglediamonds.svg	14	no	0	1	2000	0	0			0	0			1				0	
6.6.1	mac	2023-06-12	17:38:45	17:46:25	458006	6469b26b2cf3b4b300c0cddc	4	1	practice_slash	9	advance_on_keypress_SLASH	16	stimuli_distractor_diamondtriangles.svg	stimuli_distractor_trianglediamonds.svg	14	no	57	0	4895	0	0			0	0			1				0	
6.6.1	mac	2023-06-12	17:38:45	17:46:32	464866	6469b26b2cf3b4b300c0cddc	4	1	practice_slash	9	practice_slash	17	stimuli_target_rectanglediamonds.svg	stimuli_distractor_diamondtriangles.svg	1	yes	53	1	326	0	0			0	0			1				0	
6.6.1	mac	2023-06-12	17:38:45	17:46:32	464866	6469b26b2cf3b4b300c0cddc	4	1	practice_slash	9	advance_on_keypress_SLASH	18	stimuli_target_rectanglediamonds.svg	stimuli_distractor_diamondtriangles.svg	1	yes	57	0	476	0	0			0	0			1				0	
6.6.1	mac	2023-06-12	17:38:45	17:46:34	467332	6469b26b2cf3b4b300c0cddc	4	1	practice_slash	9	practice_slash	19	stimuli_distractor_trianglediamonds.svg	stimuli_target_squarediamonds.svg	11	yes	53	1	374	0	0			0	0			1				0	
6.6.1	mac	2023-06-12	17:38:45	17:46:34	467332	6469b26b2cf3b4b300c0cddc	4	1	practice_slash	9	advance_on_keypress_SLASH	20	stimuli_distractor_trianglediamonds.svg	stimuli_target_squarediamonds.svg	11	yes	57	0	280	0	0			0	0			1				0	
6.6.1	mac	2023-06-12	17:38:45	17:46:36	469576	6469b26b2cf3b4b300c0cddc	4	1	practice_slash	9	practice_slash	21	stimuli_distractor_diamondtriangles.svg	stimuli_target_trianglerectangles.svg	9	yes	53	1	335	0	0			0	0			1				0	
6.6.1	mac	2023-06-12	17:38:45	17:46:36	469576	6469b26b2cf3b4b300c0cddc	4	1	practice_slash	9	advance_on_keypress_SLASH	22	stimuli_distractor_diamondtriangles.svg	stimuli_target_trianglerectangles.svg	9	yes	57	0	522	0	0			0	0			1				0	
6.6.1	mac	2023-06-12	17:38:45	17:46:39	472132	6469b26b2cf3b4b300c0cddc	4	1	practice_slash	9	practice_slash	23	stimuli_distractor_diamondtriangles.svg	stimuli_target_rectangletriangles.svg	7	yes	53	1	408	0	0			0	0			1				0	
6.6.1	mac	2023-06-12	17:38:45	17:46:39	472132	6469b26b2cf3b4b300c0cddc	4	1	practice_slash	9	advance_on_keypress_SLASH	24	stimuli_distractor_diamondtriangles.svg	stimuli_target_rectangletriangles.svg	7	yes	57	0	484	0	0			0	0			1				0	
6.6.1	mac	2023-06-12	17:38:45	17:46:43	476239	6469b26b2cf3b4b300c0cddc	4	1	practice_slash	9	practice_slash	25	stimuli_distractor_diamondtriangles.svg	stimuli_distractor_diamondtriangles.svg	13	no	0	1	2000	0	0			0	0			1				0	
6.6.1	mac	2023-06-12	17:38:45	17:46:43	476239	6469b26b2cf3b4b300c0cddc	4	1	practice_slash	9	advance_on_keypress_SLASH	26	stimuli_distractor_diamondtriangles.svg	stimuli_distractor_diamondtriangles.svg	13	no	57	0	236	0	0			0	0			1				0	
6.6.1	mac	2023-06-12	17:38:45	17:46:45	478360	6469b26b2cf3b4b300c0cddc	4	1	practice_slash	9	practice_slash	27	stimuli_distractor_diamondtriangles.svg	stimuli_target_diamondrectangles.svg	8	yes	53	1	252	0	0			0	0			1				0	
6.6.1	mac	2023-06-12	17:38:45	17:46:45	478360	6469b26b2cf3b4b300c0cddc	4	1	practice_slash	9	advance_on_keypress_SLASH	28	stimuli_distractor_diamondtriangles.svg	stimuli_target_diamondrectangles.svg	8	yes	57	0	396	0	0			0	0			1				0	
6.6.1	mac	2023-06-12	17:38:45	17:46:47	480668	6469b26b2cf3b4b300c0cddc	4	1	practice_slash	9	practice_slash	29	stimuli_target_diamondsquares.svg	stimuli_distractor_diamondtriangles.svg	3	yes	53	1	277	0	0			0	0			1				0	
6.6.1	mac	2023-06-12	17:38:45	17:46:47	480668	6469b26b2cf3b4b300c0cddc	4	1	practice_slash	9	advance_on_keypress_SLASH	30	stimuli_target_diamondsquares.svg	stimuli_distractor_diamondtriangles.svg	3	yes	57	0	361	0	0			0	0			1				0	
6.6.1	mac	2023-06-12	17:38:45	17:46:50	483150	6469b26b2cf3b4b300c0cddc	4	1	practice_slash	9	practice_slash	31	stimuli_target_diamondsquares.svg	stimuli_distractor_trianglediamonds.svg	6	yes	53	1	493	0	0			0	0			1				0	
6.6.1	mac	2023-06-12	17:38:45	17:46:50	483150	6469b26b2cf3b4b300c0cddc	4	1	practice_slash	9	advance_on_keypress_SLASH	32	stimuli_target_diamondsquares.svg	stimuli_distractor_trianglediamonds.svg	6	yes	57	0	299	0	0			0	0			1				0	
6.6.1	mac	2023-06-12	17:38:45	17:46:53	486700	6469b26b2cf3b4b300c0cddc	4	1	main_slash	11	main_slash	1	stimuli_target_rectanglediamonds.svg	stimuli_distractor_trianglediamonds.svg	2	yes	53	1	443	0	0			0	0			1				0	
6.6.1	mac	2023-06-12	17:38:45	17:46:53	486700	6469b26b2cf3b4b300c0cddc	4	1	main_slash	11	advance_on_keypress_SLASH	2	stimuli_target_rectanglediamonds.svg	stimuli_distractor_trianglediamonds.svg	2	yes	57	0	748	0	0			0	0			1				0	
6.6.1	mac	2023-06-12	17:38:45	17:46:55	488397	6469b26b2cf3b4b300c0cddc	4	1	main_slash	11	main_slash	3	stimuli_distractor_trianglediamonds.svg	stimuli_target_rectanglediamonds.svg	10	yes	53	1	324	0	0			0	0			1				0	
6.6.1	mac	2023-06-12	17:38:45	17:46:55	488397	6469b26b2cf3b4b300c0cddc	4	1	main_slash	11	advance_on_keypress_SLASH	4	stimuli_distractor_trianglediamonds.svg	stimuli_target_rectanglediamonds.svg	10	yes	57	0	336	0	0			0	0			1				0	
6.6.1	mac	2023-06-12	17:38:45	17:46:57	489790	6469b26b2cf3b4b300c0cddc	4	1	main_slash	11	main_slash	5	stimuli_distractor_trianglediamonds.svg	stimuli_target_trianglerectangles.svg	25	yes	53	1	433	0	0			0	0			1				0	
6.6.1	mac	2023-06-12	17:38:45	17:46:57	489790	6469b26b2cf3b4b300c0cddc	4	1	main_slash	11	advance_on_keypress_SLASH	6	stimuli_distractor_trianglediamonds.svg	stimuli_target_trianglerectangles.svg	25	yes	57	0	353	0	0			0	0			1				0	
6.6.1	mac	2023-06-12	17:38:45	17:46:58	491221	6469b26b2cf3b4b300c0cddc	4	1	main_slash	11	main_slash	7	stimuli_target_diamondrectangles.svg	stimuli_distractor_diamondtriangles.svg	23	yes	53	1	448	0	0			0	0			1				0	
6.6.1	mac	2023-06-12	17:38:45	17:46:58	491221	6469b26b2cf3b4b300c0cddc	4	1	main_slash	11	advance_on_keypress_SLASH	8	stimuli_target_diamondrectangles.svg	stimuli_distractor_diamondtriangles.svg	23	yes	57	0	312	0	0			0	0			1				0	
6.6.1	mac	2023-06-12	17:38:45	17:46:59	492472	6469b26b2cf3b4b300c0cddc	4	1	main_slash	11	main_slash	9	stimuli_target_diamondsquares.svg	stimuli_distractor_diamondtriangles.svg	24	yes	53	1	299	0	0			0	0			1				0	
6.6.1	mac	2023-06-12	17:38:45	17:46:59	492472	6469b26b2cf3b4b300c0cddc	4	1	main_slash	11	advance_on_keypress_SLASH	10	stimuli_target_diamondsquares.svg	stimuli_distractor_diamondtriangles.svg	24	yes	57	0	853	0	0			0	0			1				0	
6.6.1	mac	2023-06-12	17:38:45	17:47:03	495955	6469b26b2cf3b4b300c0cddc	4	1	main_slash	11	main_slash	11	stimuli_distractor_diamondtriangles.svg	stimuli_distractor_trianglediamonds.svg	37	no	0	1	2000	0	0			0	0			1				0	
6.6.1	mac	2023-06-12	17:38:45	17:47:03	495955	6469b26b2cf3b4b300c0cddc	4	1	main_slash	11	advance_on_keypress_SLASH	12	stimuli_distractor_diamondtriangles.svg	stimuli_distractor_trianglediamonds.svg	37	no	57	0	239	0	0			0	0			1				0	
6.6.1	mac	2023-06-12	17:38:45	17:47:04	497081	6469b26b2cf3b4b300c0cddc	4	1	main_slash	11	main_slash	13	stimuli_distractor_diamondtriangles.svg	stimuli_distractor_trianglediamonds.svg	38	no	53	0	258	0	0			0	0			1				0	
6.6.1	mac	2023-06-12	17:38:45	17:47:04	497081	6469b26b2cf3b4b300c0cddc	4	1	main_slash	11	advance_on_keypress_SLASH	14	stimuli_distractor_diamondtriangles.svg	stimuli_distractor_trianglediamonds.svg	38	no	57	0	339	0	0			0	0			1				0	
6.6.1	mac	2023-06-12	17:38:45	17:47:05	498348	6469b26b2cf3b4b300c0cddc	4	1	main_slash	11	main_slash	15	stimuli_target_trianglesquares.svg	stimuli_distractor_diamondtriangles.svg	22	yes	53	1	291	0	0			0	0			1				0	
6.6.1	mac	2023-06-12	17:38:45	17:47:05	498348	6469b26b2cf3b4b300c0cddc	4	1	main_slash	11	advance_on_keypress_SLASH	16	stimuli_target_trianglesquares.svg	stimuli_distractor_diamondtriangles.svg	22	yes	57	0	361	0	0			0	0			1				0	
6.6.1	mac	2023-06-12	17:38:45	17:47:06	499658	6469b26b2cf3b4b300c0cddc	4	1	main_slash	11	main_slash	17	stimuli_distractor_diamondtriangles.svg	stimuli_target_trianglerectangles.svg	29	yes	53	1	335	0	0			0	0			1				0	
6.6.1	mac	2023-06-12	17:38:45	17:47:06	499658	6469b26b2cf3b4b300c0cddc	4	1	main_slash	11	advance_on_keypress_SLASH	18	stimuli_distractor_diamondtriangles.svg	stimuli_target_trianglerectangles.svg	29	yes	57	0	261	0	0			0	0			1				0	
6.6.1	mac	2023-06-12	17:38:45	17:47:08	500840	6469b26b2cf3b4b300c0cddc	4	1	main_slash	11	main_slash	19	stimuli_distractor_trianglediamonds.svg	stimuli_distractor_trianglediamonds.svg	34	no	53	0	301	0	0			0	0			1				0	
6.6.1	mac	2023-06-12	17:38:45	17:47:08	500840	6469b26b2cf3b4b300c0cddc	4	1	main_slash	11	advance_on_keypress_SLASH	20	stimuli_distractor_trianglediamonds.svg	stimuli_distractor_trianglediamonds.svg	34	no	57	0	337	0	0			0	0			1				0	
6.6.1	mac	2023-06-12	17:38:45	17:47:09	502075	6469b26b2cf3b4b300c0cddc	4	1	main_slash	11	main_slash	21	stimuli_target_trianglerectangles.svg	stimuli_distractor_diamondtriangles.svg	21	yes	53	1	268	0	0			0	0			1				0	
6.6.1	mac	2023-06-12	17:38:45	17:47:09	502075	6469b26b2cf3b4b300c0cddc	4	1	main_slash	11	advance_on_keypress_SLASH	22	stimuli_target_trianglerectangles.svg	stimuli_distractor_diamondtriangles.svg	21	yes	57	0	268	0	0			0	0			1				0	
6.6.1	mac	2023-06-12	17:38:45	17:47:10	503273	6469b26b2cf3b4b300c0cddc	4	1	main_slash	11	main_slash	23	stimuli_distractor_diamondtriangles.svg	stimuli_target_squaretriangles.svg	15	yes	53	1	300	0	0			0	0			1				0	
6.6.1	mac	2023-06-12	17:38:45	17:47:10	503273	6469b26b2cf3b4b300c0cddc	4	1	main_slash	11	advance_on_keypress_SLASH	24	stimuli_distractor_diamondtriangles.svg	stimuli_target_squaretriangles.svg	15	yes	57	0	295	0	0			0	0			1				0	
6.6.1	mac	2023-06-12	17:38:45	17:47:11	504626	6469b26b2cf3b4b300c0cddc	4	1	main_slash	11	main_slash	25	stimuli_distractor_trianglediamonds.svg	stimuli_distractor_diamondtriangles.svg	36	no	53	0	419	0	0			0	0			1				0	
6.6.1	mac	2023-06-12	17:38:45	17:47:11	504626	6469b26b2cf3b4b300c0cddc	4	1	main_slash	11	advance_on_keypress_SLASH	26	stimuli_distractor_trianglediamonds.svg	stimuli_distractor_diamondtriangles.svg	36	no	57	0	316	0	0			0	0			1				0	
6.6.1	mac	2023-06-12	17:38:45	17:47:14	507571	6469b26b2cf3b4b300c0cddc	4	1	main_slash	11	main_slash	27	stimuli_distractor_diamondtriangles.svg	stimuli_target_diamondrectangles.svg	31	yes	0	0	2000	0	0			0	0			1				0	
6.6.1	mac	2023-06-12	17:38:45	17:47:14	507571	6469b26b2cf3b4b300c0cddc	4	1	main_slash	11	advance_on_keypress_SLASH	28	stimuli_distractor_diamondtriangles.svg	stimuli_target_diamondrectangles.svg	31	yes	57	0	286	0	0			0	0			1				0	
6.6.1	mac	2023-06-12	17:38:45	17:47:16	508749	6469b26b2cf3b4b300c0cddc	4	1	main_slash	11	main_slash	29	stimuli_target_trianglesquares.svg	stimuli_distractor_trianglediamonds.svg	18	yes	53	1	259	0	0			0	0			1				0	
6.6.1	mac	2023-06-12	17:38:45	17:47:16	508749	6469b26b2cf3b4b300c0cddc	4	1	main_slash	11	advance_on_keypress_SLASH	30	stimuli_target_trianglesquares.svg	stimuli_distractor_trianglediamonds.svg	18	yes	57	0	258	0	0			0	0			1				0	
6.6.1	mac	2023-06-12	17:38:45	17:47:17	509926	6469b26b2cf3b4b300c0cddc	4	1	main_slash	11	main_slash	31	stimuli_distractor_trianglediamonds.svg	stimuli_target_trianglesquares.svg	26	yes	53	1	302	0	0			0	0			1				0	
6.6.1	mac	2023-06-12	17:38:45	17:47:17	509926	6469b26b2cf3b4b300c0cddc	4	1	main_slash	11	advance_on_keypress_SLASH	32	stimuli_distractor_trianglediamonds.svg	stimuli_target_trianglesquares.svg	26	yes	57	0	260	0	0			0	0			1				0	
6.6.1	mac	2023-06-12	17:38:45	17:47:18	511076	6469b26b2cf3b4b300c0cddc	4	1	main_slash	11	main_slash	33	stimuli_target_rectangletriangles.svg	stimuli_distractor_trianglediamonds.svg	1	yes	53	1	271	0	0			0	0			1				0	
6.6.1	mac	2023-06-12	17:38:45	17:47:18	511076	6469b26b2cf3b4b300c0cddc	4	1	main_slash	11	advance_on_keypress_SLASH	34	stimuli_target_rectangletriangles.svg	stimuli_distractor_trianglediamonds.svg	1	yes	57	0	315	0	0			0	0			1				0	
6.6.1	mac	2023-06-12	17:38:45	17:47:21	514020	6469b26b2cf3b4b300c0cddc	4	1	main_slash	11	main_slash	35	stimuli_target_trianglerectangles.svg	stimuli_distractor_trianglediamonds.svg	17	yes	0	0	2000	0	0			0	0			1				0	
6.6.1	mac	2023-06-12	17:38:45	17:47:21	514020	6469b26b2cf3b4b300c0cddc	4	1	main_slash	11	advance_on_keypress_SLASH	36	stimuli_target_trianglerectangles.svg	stimuli_distractor_trianglediamonds.svg	17	yes	57	0	238	0	0			0	0			1				0	
6.6.1	mac	2023-06-12	17:38:45	17:47:22	515195	6469b26b2cf3b4b300c0cddc	4	1	main_slash	11	main_slash	37	stimuli_target_diamondsquares.svg	stimuli_distractor_trianglediamonds.svg	20	yes	53	1	305	0	0			0	0			1				0	
6.6.1	mac	2023-06-12	17:38:45	17:47:22	515195	6469b26b2cf3b4b300c0cddc	4	1	main_slash	11	advance_on_keypress_SLASH	38	stimuli_target_diamondsquares.svg	stimuli_distractor_trianglediamonds.svg	20	yes	57	0	246	0	0			0	0			1				0	
6.6.1	mac	2023-06-12	17:38:45	17:47:23	516376	6469b26b2cf3b4b300c0cddc	4	1	main_slash	11	main_slash	39	stimuli_target_rectangletriangles.svg	stimuli_distractor_diamondtriangles.svg	5	yes	53	1	304	0	0			0	0			1				0	
6.6.1	mac	2023-06-12	17:38:45	17:47:23	516376	6469b26b2cf3b4b300c0cddc	4	1	main_slash	11	advance_on_keypress_SLASH	40	stimuli_target_rectangletriangles.svg	stimuli_distractor_diamondtriangles.svg	5	yes	57	0	266	0	0			0	0			1				0	
6.6.1	mac	2023-06-12	17:38:45	17:47:24	517595	6469b26b2cf3b4b300c0cddc	4	1	main_slash	11	main_slash	41	stimuli_target_squaretriangles.svg	stimuli_distractor_trianglediamonds.svg	3	yes	53	1	322	0	0			0	0			1				0	
6.6.1	mac	2023-06-12	17:38:45	17:47:24	517595	6469b26b2cf3b4b300c0cddc	4	1	main_slash	11	advance_on_keypress_SLASH	42	stimuli_target_squaretriangles.svg	stimuli_distractor_trianglediamonds.svg	3	yes	57	0	237	0	0			0	0			1				0	
6.6.1	mac	2023-06-12	17:38:45	17:47:26	518726	6469b26b2cf3b4b300c0cddc	4	1	main_slash	11	main_slash	43	stimuli_target_squaretriangles.svg	stimuli_distractor_diamondtriangles.svg	7	yes	53	1	271	0	0			0	0			1				0	
6.6.1	mac	2023-06-12	17:38:45	17:47:26	518726	6469b26b2cf3b4b300c0cddc	4	1	main_slash	11	advance_on_keypress_SLASH	44	stimuli_target_squaretriangles.svg	stimuli_distractor_diamondtriangles.svg	7	yes	57	0	222	0	0			0	0			1				0	
6.6.1	mac	2023-06-12	17:38:45	17:47:27	519909	6469b26b2cf3b4b300c0cddc	4	1	main_slash	11	main_slash	45	stimuli_distractor_trianglediamonds.svg	stimuli_target_squaretriangles.svg	11	yes	53	1	337	0	0			0	0			1				0	
6.6.1	mac	2023-06-12	17:38:45	17:47:27	519909	6469b26b2cf3b4b300c0cddc	4	1	main_slash	11	advance_on_keypress_SLASH	46	stimuli_distractor_trianglediamonds.svg	stimuli_target_squaretriangles.svg	11	yes	57	0	173	0	0			0	0			1				0	
6.6.1	mac	2023-06-12	17:38:45	17:47:28	520969	6469b26b2cf3b4b300c0cddc	4	1	main_slash	11	main_slash	47	stimuli_distractor_diamondtriangles.svg	stimuli_target_rectanglediamonds.svg	14	yes	53	1	264	0	0			0	0			1				0	
6.6.1	mac	2023-06-12	17:38:45	17:47:28	520969	6469b26b2cf3b4b300c0cddc	4	1	main_slash	11	advance_on_keypress_SLASH	48	stimuli_distractor_diamondtriangles.svg	stimuli_target_rectanglediamonds.svg	14	yes	57	0	151	0	0			0	0			1				0	
6.6.1	mac	2023-06-12	17:38:45	17:47:31	523754	6469b26b2cf3b4b300c0cddc	4	1	main_slash	11	main_slash	49	stimuli_distractor_diamondtriangles.svg	stimuli_target_trianglesquares.svg	30	yes	0	0	2000	0	0			0	0			1				0	
6.6.1	mac	2023-06-12	17:38:45	17:47:31	523754	6469b26b2cf3b4b300c0cddc	4	1	main_slash	11	advance_on_keypress_SLASH	50	stimuli_distractor_diamondtriangles.svg	stimuli_target_trianglesquares.svg	30	yes	57	0	278	0	0			0	0			1				0	
6.6.1	mac	2023-06-12	17:38:45	17:47:32	524975	6469b26b2cf3b4b300c0cddc	4	1	main_slash	11	main_slash	51	stimuli_distractor_trianglediamonds.svg	stimuli_distractor_diamondtriangles.svg	35	no	53	0	321	0	0			0	0			1				0	
6.6.1	mac	2023-06-12	17:38:45	17:47:32	524975	6469b26b2cf3b4b300c0cddc	4	1	main_slash	11	advance_on_keypress_SLASH	52	stimuli_distractor_trianglediamonds.svg	stimuli_distractor_diamondtriangles.svg	35	no	57	0	321	0	0			0	0			1				0	
6.6.1	mac	2023-06-12	17:38:45	17:47:33	526231	6469b26b2cf3b4b300c0cddc	4	1	main_slash	11	main_slash	53	stimuli_target_squarediamonds.svg	stimuli_distractor_trianglediamonds.svg	4	yes	53	1	308	0	0			0	0			1				0	
6.6.1	mac	2023-06-12	17:38:45	17:47:33	526231	6469b26b2cf3b4b300c0cddc	4	1	main_slash	11	advance_on_keypress_SLASH	54	stimuli_target_squarediamonds.svg	stimuli_distractor_trianglediamonds.svg	4	yes	57	0	224	0	0			0	0			1				0	
6.6.1	mac	2023-06-12	17:38:45	17:47:34	527358	6469b26b2cf3b4b300c0cddc	4	1	main_slash	11	main_slash	55	stimuli_distractor_trianglediamonds.svg	stimuli_target_squarediamonds.svg	12	yes	53	1	286	0	0			0	0			1				0	
6.6.1	mac	2023-06-12	17:38:45	17:47:34	527358	6469b26b2cf3b4b300c0cddc	4	1	main_slash	11	advance_on_keypress_SLASH	56	stimuli_distractor_trianglediamonds.svg	stimuli_target_squarediamonds.svg	12	yes	57	0	210	0	0			0	0			1				0	
6.6.1	mac	2023-06-12	17:38:45	17:47:35	528461	6469b26b2cf3b4b300c0cddc	4	1	main_slash	11	main_slash	57	stimuli_distractor_diamondtriangles.svg	stimuli_target_diamondsquares.svg	32	yes	53	1	272	0	0			0	0			1				0	
6.6.1	mac	2023-06-12	17:38:45	17:47:35	528461	6469b26b2cf3b4b300c0cddc	4	1	main_slash	11	advance_on_keypress_SLASH	58	stimuli_distractor_diamondtriangles.svg	stimuli_target_diamondsquares.svg	32	yes	57	0	199	0	0			0	0			1				0	
6.6.1	mac	2023-06-12	17:38:45	17:47:38	531286	6469b26b2cf3b4b300c0cddc	4	1	main_slash	11	main_slash	59	stimuli_distractor_diamondtriangles.svg	stimuli_distractor_diamondtriangles.svg	39	no	0	1	2000	0	0			0	0			1				0	
6.6.1	mac	2023-06-12	17:38:45	17:47:38	531286	6469b26b2cf3b4b300c0cddc	4	1	main_slash	11	advance_on_keypress_SLASH	60	stimuli_distractor_diamondtriangles.svg	stimuli_distractor_diamondtriangles.svg	39	no	57	0	401	0	0			0	0			1				0	
6.6.1	mac	2023-06-12	17:38:45	17:47:40	532754	6469b26b2cf3b4b300c0cddc	4	1	main_slash	11	main_slash	61	stimuli_target_rectanglediamonds.svg	stimuli_distractor_diamondtriangles.svg	6	yes	53	1	432	0	0			0	0			1				0	
6.6.1	mac	2023-06-12	17:38:45	17:47:40	532754	6469b26b2cf3b4b300c0cddc	4	1	main_slash	11	advance_on_keypress_SLASH	62	stimuli_target_rectanglediamonds.svg	stimuli_distractor_diamondtriangles.svg	6	yes	57	0	379	0	0			0	0			1				0	
6.6.1	mac	2023-06-12	17:38:45	17:47:41	534029	6469b26b2cf3b4b300c0cddc	4	1	main_slash	11	main_slash	63	stimuli_distractor_diamondtriangles.svg	stimuli_distractor_diamondtriangles.svg	40	no	53	0	256	0	0			0	0			1				0	
6.6.1	mac	2023-06-12	17:38:45	17:47:41	534029	6469b26b2cf3b4b300c0cddc	4	1	main_slash	11	advance_on_keypress_SLASH	64	stimuli_distractor_diamondtriangles.svg	stimuli_distractor_diamondtriangles.svg	40	no	57	0	233	0	0			0	0			1				0	
6.6.1	mac	2023-06-12	17:38:45	17:47:42	535317	6469b26b2cf3b4b300c0cddc	4	1	main_slash	11	main_slash	65	stimuli_distractor_trianglediamonds.svg	stimuli_target_diamondrectangles.svg	27	yes	53	1	428	0	0			0	0			1				0	
6.6.1	mac	2023-06-12	17:38:45	17:47:42	535317	6469b26b2cf3b4b300c0cddc	4	1	main_slash	11	advance_on_keypress_SLASH	66	stimuli_distractor_trianglediamonds.svg	stimuli_target_diamondrectangles.svg	27	yes	57	0	305	0	0			0	0			1				0	
6.6.1	mac	2023-06-12	17:38:45	17:47:43	536652	6469b26b2cf3b4b300c0cddc	4	1	main_slash	11	main_slash	67	stimuli_distractor_trianglediamonds.svg	stimuli_distractor_trianglediamonds.svg	33	no	53	0	397	0	0			0	0			1				0	
6.6.1	mac	2023-06-12	17:38:45	17:47:43	536652	6469b26b2cf3b4b300c0cddc	4	1	main_slash	11	advance_on_keypress_SLASH	68	stimuli_distractor_trianglediamonds.svg	stimuli_distractor_trianglediamonds.svg	33	no	57	0	301	0	0			0	0			1				0	
6.6.1	mac	2023-06-12	17:38:45	17:47:46	539587	6469b26b2cf3b4b300c0cddc	4	1	main_slash	11	main_slash	69	stimuli_distractor_trianglediamonds.svg	stimuli_target_diamondsquares.svg	28	yes	0	0	2000	0	0			0	0			1				0	
6.6.1	mac	2023-06-12	17:38:45	17:47:46	539587	6469b26b2cf3b4b300c0cddc	4	1	main_slash	11	advance_on_keypress_SLASH	70	stimuli_distractor_trianglediamonds.svg	stimuli_target_diamondsquares.svg	28	yes	57	0	273	0	0			0	0			1				0	
6.6.1	mac	2023-06-12	17:38:45	17:47:48	540766	6469b26b2cf3b4b300c0cddc	4	1	main_slash	11	main_slash	71	stimuli_distractor_diamondtriangles.svg	stimuli_target_rectangletriangles.svg	13	yes	53	1	277	0	0			0	0			1				0	
6.6.1	mac	2023-06-12	17:38:45	17:47:48	540766	6469b26b2cf3b4b300c0cddc	4	1	main_slash	11	advance_on_keypress_SLASH	72	stimuli_distractor_diamondtriangles.svg	stimuli_target_rectangletriangles.svg	13	yes	57	0	176	0	0			0	0			1				0	
6.6.1	mac	2023-06-12	17:38:45	17:47:49	541903	6469b26b2cf3b4b300c0cddc	4	1	main_slash	11	main_slash	73	stimuli_target_squarediamonds.svg	stimuli_distractor_diamondtriangles.svg	8	yes	53	1	348	0	0			0	0			1				0	
6.6.1	mac	2023-06-12	17:38:45	17:47:49	541903	6469b26b2cf3b4b300c0cddc	4	1	main_slash	11	advance_on_keypress_SLASH	74	stimuli_target_squarediamonds.svg	stimuli_distractor_diamondtriangles.svg	8	yes	57	0	170	0	0			0	0			1				0	
6.6.1	mac	2023-06-12	17:38:45	17:47:50	542974	6469b26b2cf3b4b300c0cddc	4	1	main_slash	11	main_slash	75	stimuli_distractor_diamondtriangles.svg	stimuli_target_squarediamonds.svg	16	yes	53	1	269	0	0			0	0			1				0	
6.6.1	mac	2023-06-12	17:38:45	17:47:50	542974	6469b26b2cf3b4b300c0cddc	4	1	main_slash	11	advance_on_keypress_SLASH	76	stimuli_distractor_diamondtriangles.svg	stimuli_target_squarediamonds.svg	16	yes	57	0	163	0	0			0	0			1				0	
6.6.1	mac	2023-06-12	17:38:45	17:47:51	544046	6469b26b2cf3b4b300c0cddc	4	1	main_slash	11	main_slash	77	stimuli_distractor_trianglediamonds.svg	stimuli_target_rectangletriangles.svg	9	yes	53	1	273	0	0			0	0			1				0	
6.6.1	mac	2023-06-12	17:38:45	17:47:51	544046	6469b26b2cf3b4b300c0cddc	4	1	main_slash	11	advance_on_keypress_SLASH	78	stimuli_distractor_trianglediamonds.svg	stimuli_target_rectangletriangles.svg	9	yes	57	0	186	0	0			0	0			1				0	
6.6.1	mac	2023-06-12	17:38:45	17:47:52	545200	6469b26b2cf3b4b300c0cddc	4	1	main_slash	11	main_slash	79	stimuli_target_diamondrectangles.svg	stimuli_distractor_trianglediamonds.svg	19	yes	53	1	346	0	0			0	0			1				0	
6.6.1	mac	2023-06-12	17:38:45	17:47:52	545200	6469b26b2cf3b4b300c0cddc	4	1	main_slash	11	advance_on_keypress_SLASH	80	stimuli_target_diamondrectangles.svg	stimuli_distractor_trianglediamonds.svg	19	yes	57	0	182	0	0			0	0			1				0	
6.6.1	mac	2023-06-12	17:38:45	17:47:53	546271	6469b26b2cf3b4b300c0cddc	4	1	main_slash	11	main_slash	81	stimuli_distractor_diamondtriangles.svg	stimuli_target_diamondsquares.svg	32	yes	53	1	249	0	0			0	0			1				0	
6.6.1	mac	2023-06-12	17:38:45	17:47:53	546271	6469b26b2cf3b4b300c0cddc	4	1	main_slash	11	advance_on_keypress_SLASH	82	stimuli_distractor_diamondtriangles.svg	stimuli_target_diamondsquares.svg	32	yes	57	0	218	0	0			0	0			1				0	
6.6.1	mac	2023-06-12	17:38:45	17:47:54	547406	6469b26b2cf3b4b300c0cddc	4	1	main_slash	11	main_slash	83	stimuli_target_rectangletriangles.svg	stimuli_distractor_trianglediamonds.svg	1	yes	53	1	285	0	0			0	0			1				0	
6.6.1	mac	2023-06-12	17:38:45	17:47:54	547406	6469b26b2cf3b4b300c0cddc	4	1	main_slash	11	advance_on_keypress_SLASH	84	stimuli_target_rectangletriangles.svg	stimuli_distractor_trianglediamonds.svg	1	yes	57	0	170	0	0			0	0			1				0	
6.6.1	mac	2023-06-12	17:38:45	17:47:55	548568	6469b26b2cf3b4b300c0cddc	4	1	main_slash	11	main_slash	85	stimuli_distractor_diamondtriangles.svg	stimuli_target_squaretriangles.svg	15	yes	53	1	363	0	0			0	0			1				0	
6.6.1	mac	2023-06-12	17:38:45	17:47:55	548568	6469b26b2cf3b4b300c0cddc	4	1	main_slash	11	advance_on_keypress_SLASH	86	stimuli_distractor_diamondtriangles.svg	stimuli_target_squaretriangles.svg	15	yes	57	0	141	0	0			0	0			1				0	
6.6.1	mac	2023-06-12	17:38:45	17:47:58	551336	6469b26b2cf3b4b300c0cddc	4	1	main_slash	11	main_slash	87	stimuli_distractor_trianglediamonds.svg	stimuli_distractor_diamondtriangles.svg	35	no	0	1	2000	0	0			0	0			1				0	
6.6.1	mac	2023-06-12	17:38:45	17:47:58	551336	6469b26b2cf3b4b300c0cddc	4	1	main_slash	11	advance_on_keypress_SLASH	88	stimuli_distractor_trianglediamonds.svg	stimuli_distractor_diamondtriangles.svg	35	no	57	0	272	0	0			0	0			1				0	
6.6.1	mac	2023-06-12	17:38:45	17:47:59	552496	6469b26b2cf3b4b300c0cddc	4	1	main_slash	11	main_slash	89	stimuli_target_trianglesquares.svg	stimuli_distractor_diamondtriangles.svg	22	yes	53	1	258	0	0			0	0			1				0	
6.6.1	mac	2023-06-12	17:38:45	17:47:59	552496	6469b26b2cf3b4b300c0cddc	4	1	main_slash	11	advance_on_keypress_SLASH	90	stimuli_target_trianglesquares.svg	stimuli_distractor_diamondtriangles.svg	22	yes	57	0	1526	0	0			0	0			1				0	
6.6.1	mac	2023-06-12	17:38:45	17:48:02	554910	6469b26b2cf3b4b300c0cddc	4	1	main_slash	11	main_slash	91	stimuli_distractor_trianglediamonds.svg	stimuli_distractor_trianglediamonds.svg	33	no	53	0	272	0	0			0	0			1				0	
6.6.1	mac	2023-06-12	17:38:45	17:48:02	554910	6469b26b2cf3b4b300c0cddc	4	1	main_slash	11	advance_on_keypress_SLASH	92	stimuli_distractor_trianglediamonds.svg	stimuli_distractor_trianglediamonds.svg	33	no	57	0	182	0	0			0	0			1				0	
6.6.1	mac	2023-06-12	17:38:45	17:48:03	556102	6469b26b2cf3b4b300c0cddc	4	1	main_slash	11	main_slash	93	stimuli_target_diamondrectangles.svg	stimuli_distractor_trianglediamonds.svg	19	yes	53	1	381	0	0			0	0			1				0	
6.6.1	mac	2023-06-12	17:38:45	17:48:03	556102	6469b26b2cf3b4b300c0cddc	4	1	main_slash	11	advance_on_keypress_SLASH	94	stimuli_target_diamondrectangles.svg	stimuli_distractor_trianglediamonds.svg	19	yes	57	0	1368	0	0			0	0			1				0	
6.6.1	mac	2023-06-12	17:38:45	17:48:05	558526	6469b26b2cf3b4b300c0cddc	4	1	main_slash	11	main_slash	95	stimuli_target_squarediamonds.svg	stimuli_distractor_trianglediamonds.svg	4	yes	53	1	422	0	0			0	0			1				0	
6.6.1	mac	2023-06-12	17:38:45	17:48:05	558526	6469b26b2cf3b4b300c0cddc	4	1	main_slash	11	advance_on_keypress_SLASH	96	stimuli_target_squarediamonds.svg	stimuli_distractor_trianglediamonds.svg	4	yes	57	0	271	0	0			0	0			1				0	
6.6.1	mac	2023-06-12	17:38:45	17:48:07	559923	6469b26b2cf3b4b300c0cddc	4	1	main_slash	11	main_slash	97	stimuli_target_rectangletriangles.svg	stimuli_distractor_diamondtriangles.svg	5	yes	53	1	502	0	0			0	0			1				0	
6.6.1	mac	2023-06-12	17:38:45	17:48:07	559923	6469b26b2cf3b4b300c0cddc	4	1	main_slash	11	advance_on_keypress_SLASH	98	stimuli_target_rectangletriangles.svg	stimuli_distractor_diamondtriangles.svg	5	yes	57	0	911	0	0			0	0			1				0	
6.6.1	mac	2023-06-12	17:38:45	17:48:09	561867	6469b26b2cf3b4b300c0cddc	4	1	main_slash	11	main_slash	99	stimuli_distractor_diamondtriangles.svg	stimuli_target_diamondrectangles.svg	31	yes	53	1	413	0	0			0	0			1				0	
6.6.1	mac	2023-06-12	17:38:45	17:48:09	561867	6469b26b2cf3b4b300c0cddc	4	1	main_slash	11	advance_on_keypress_SLASH	100	stimuli_distractor_diamondtriangles.svg	stimuli_target_diamondrectangles.svg	31	yes	57	0	216	0	0			0	0			1				0	
6.6.1	mac	2023-06-12	17:38:45	17:48:10	563188	6469b26b2cf3b4b300c0cddc	4	1	main_slash	11	main_slash	101	stimuli_distractor_trianglediamonds.svg	stimuli_target_rectanglediamonds.svg	10	yes	53	1	466	0	0			0	0			1				0	
6.6.1	mac	2023-06-12	17:38:45	17:48:10	563188	6469b26b2cf3b4b300c0cddc	4	1	main_slash	11	advance_on_keypress_SLASH	102	stimuli_distractor_trianglediamonds.svg	stimuli_target_rectanglediamonds.svg	10	yes	57	0	205	0	0			0	0			1				0	
6.6.1	mac	2023-06-12	17:38:45	17:48:13	566019	6469b26b2cf3b4b300c0cddc	4	1	main_slash	11	main_slash	103	stimuli_target_diamondrectangles.svg	stimuli_distractor_diamondtriangles.svg	23	yes	0	0	2000	0	0			0	0			1				0	
6.6.1	mac	2023-06-12	17:38:45	17:48:13	566019	6469b26b2cf3b4b300c0cddc	4	1	main_slash	11	advance_on_keypress_SLASH	104	stimuli_target_diamondrectangles.svg	stimuli_distractor_diamondtriangles.svg	23	yes	57	0	283	0	0			0	0			1				0	
6.6.1	mac	2023-06-12	17:38:45	17:48:14	567191	6469b26b2cf3b4b300c0cddc	4	1	main_slash	11	main_slash	105	stimuli_target_squaretriangles.svg	stimuli_distractor_diamondtriangles.svg	7	yes	53	1	252	0	0			0	0			1				0	
6.6.1	mac	2023-06-12	17:38:45	17:48:14	567191	6469b26b2cf3b4b300c0cddc	4	1	main_slash	11	advance_on_keypress_SLASH	106	stimuli_target_squaretriangles.svg	stimuli_distractor_diamondtriangles.svg	7	yes	57	0	1814	0	0			0	0			1				0	
6.6.1	mac	2023-06-12	17:38:45	17:48:17	570039	6469b26b2cf3b4b300c0cddc	4	1	main_slash	11	main_slash	107	stimuli_distractor_trianglediamonds.svg	stimuli_target_trianglesquares.svg	26	yes	53	1	400	0	0			0	0			1				0	
6.6.1	mac	2023-06-12	17:38:45	17:48:17	570039	6469b26b2cf3b4b300c0cddc	4	1	main_slash	11	advance_on_keypress_SLASH	108	stimuli_distractor_trianglediamonds.svg	stimuli_target_trianglesquares.svg	26	yes	57	0	202	0	0			0	0			1				0	
6.6.1	mac	2023-06-12	17:38:45	17:48:18	571124	6469b26b2cf3b4b300c0cddc	4	1	main_slash	11	main_slash	109	stimuli_target_trianglesquares.svg	stimuli_distractor_trianglediamonds.svg	18	yes	53	1	253	0	0			0	0			1				0	
6.6.1	mac	2023-06-12	17:38:45	17:48:18	571124	6469b26b2cf3b4b300c0cddc	4	1	main_slash	11	advance_on_keypress_SLASH	110	stimuli_target_trianglesquares.svg	stimuli_distractor_trianglediamonds.svg	18	yes	57	0	198	0	0			0	0			1				0	
6.6.1	mac	2023-06-12	17:38:45	17:48:19	572294	6469b26b2cf3b4b300c0cddc	4	1	main_slash	11	main_slash	111	stimuli_target_rectanglediamonds.svg	stimuli_distractor_diamondtriangles.svg	6	yes	53	1	340	0	0			0	0			1				0	
6.6.1	mac	2023-06-12	17:38:45	17:48:19	572294	6469b26b2cf3b4b300c0cddc	4	1	main_slash	11	advance_on_keypress_SLASH	112	stimuli_target_rectanglediamonds.svg	stimuli_distractor_diamondtriangles.svg	6	yes	57	0	169	0	0			0	0			1				0	
6.6.1	mac	2023-06-12	17:38:45	17:48:20	573360	6469b26b2cf3b4b300c0cddc	4	1	main_slash	11	main_slash	113	stimuli_distractor_diamondtriangles.svg	stimuli_target_trianglesquares.svg	30	yes	53	1	273	0	0			0	0			1				0	
6.6.1	mac	2023-06-12	17:38:45	17:48:20	573360	6469b26b2cf3b4b300c0cddc	4	1	main_slash	11	advance_on_keypress_SLASH	114	stimuli_distractor_diamondtriangles.svg	stimuli_target_trianglesquares.svg	30	yes	57	0	332	0	0			0	0			1				0	
6.6.1	mac	2023-06-12	17:38:45	17:48:21	574619	6469b26b2cf3b4b300c0cddc	4	1	main_slash	11	main_slash	115	stimuli_target_squarediamonds.svg	stimuli_distractor_diamondtriangles.svg	8	yes	53	1	298	0	0			0	0			1				0	
6.6.1	mac	2023-06-12	17:38:45	17:48:21	574619	6469b26b2cf3b4b300c0cddc	4	1	main_slash	11	advance_on_keypress_SLASH	116	stimuli_target_squarediamonds.svg	stimuli_distractor_diamondtriangles.svg	8	yes	57	0	331	0	0			0	0			1				0	
6.6.1	mac	2023-06-12	17:38:45	17:48:23	575877	6469b26b2cf3b4b300c0cddc	4	1	main_slash	11	main_slash	117	stimuli_distractor_diamondtriangles.svg	stimuli_target_trianglerectangles.svg	29	yes	53	1	290	0	0			0	0			1				0	
6.6.1	mac	2023-06-12	17:38:45	17:48:23	575877	6469b26b2cf3b4b300c0cddc	4	1	main_slash	11	advance_on_keypress_SLASH	118	stimuli_distractor_diamondtriangles.svg	stimuli_target_trianglerectangles.svg	29	yes	57	0	490	0	0			0	0			1				0	
6.6.1	mac	2023-06-12	17:38:45	17:48:24	577287	6469b26b2cf3b4b300c0cddc	4	1	main_slash	11	main_slash	119	stimuli_distractor_diamondtriangles.svg	stimuli_distractor_diamondtriangles.svg	40	no	53	0	300	0	0			0	0			1				0	
6.6.1	mac	2023-06-12	17:38:45	17:48:24	577287	6469b26b2cf3b4b300c0cddc	4	1	main_slash	11	advance_on_keypress_SLASH	120	stimuli_distractor_diamondtriangles.svg	stimuli_distractor_diamondtriangles.svg	40	no	57	0	512	0	0			0	0			1				0	
6.6.1	mac	2023-06-12	17:38:45	17:48:26	578845	6469b26b2cf3b4b300c0cddc	4	1	main_slash	11	main_slash	121	stimuli_distractor_diamondtriangles.svg	stimuli_target_rectangletriangles.svg	13	yes	53	1	408	0	0			0	0			1				0	
6.6.1	mac	2023-06-12	17:38:45	17:48:26	578845	6469b26b2cf3b4b300c0cddc	4	1	main_slash	11	advance_on_keypress_SLASH	122	stimuli_distractor_diamondtriangles.svg	stimuli_target_rectangletriangles.svg	13	yes	57	0	293	0	0			0	0			1				0	
6.6.1	mac	2023-06-12	17:38:45	17:48:27	580031	6469b26b2cf3b4b300c0cddc	4	1	main_slash	11	main_slash	123	stimuli_target_diamondsquares.svg	stimuli_distractor_diamondtriangles.svg	24	yes	53	1	260	0	0			0	0			1				0	
6.6.1	mac	2023-06-12	17:38:45	17:48:27	580031	6469b26b2cf3b4b300c0cddc	4	1	main_slash	11	advance_on_keypress_SLASH	124	stimuli_target_diamondsquares.svg	stimuli_distractor_diamondtriangles.svg	24	yes	57	0	253	0	0			0	0			1				0	
6.6.1	mac	2023-06-12	17:38:45	17:48:28	581296	6469b26b2cf3b4b300c0cddc	4	1	main_slash	11	main_slash	125	stimuli_distractor_diamondtriangles.svg	stimuli_target_squarediamonds.svg	16	yes	53	1	392	0	0			0	0			1				0	
6.6.1	mac	2023-06-12	17:38:45	17:48:28	581296	6469b26b2cf3b4b300c0cddc	4	1	main_slash	11	advance_on_keypress_SLASH	126	stimuli_distractor_diamondtriangles.svg	stimuli_target_squarediamonds.svg	16	yes	57	0	210	0	0			0	0			1				0	
6.6.1	mac	2023-06-12	17:38:45	17:48:29	582464	6469b26b2cf3b4b300c0cddc	4	1	main_slash	11	main_slash	127	stimuli_target_squaretriangles.svg	stimuli_distractor_trianglediamonds.svg	3	yes	53	1	328	0	0			0	0			1				0	
6.6.1	mac	2023-06-12	17:38:45	17:48:29	582464	6469b26b2cf3b4b300c0cddc	4	1	main_slash	11	advance_on_keypress_SLASH	128	stimuli_target_squaretriangles.svg	stimuli_distractor_trianglediamonds.svg	3	yes	57	0	205	0	0			0	0			1				0	
6.6.1	mac	2023-06-12	17:38:45	17:48:30	583628	6469b26b2cf3b4b300c0cddc	4	1	main_slash	11	main_slash	129	stimuli_distractor_diamondtriangles.svg	stimuli_distractor_diamondtriangles.svg	39	no	53	0	341	0	0			0	0			1				0	
6.6.1	mac	2023-06-12	17:38:45	17:48:30	583628	6469b26b2cf3b4b300c0cddc	4	1	main_slash	11	advance_on_keypress_SLASH	130	stimuli_distractor_diamondtriangles.svg	stimuli_distractor_diamondtriangles.svg	39	no	57	0	370	0	0			0	0			1				0	
6.6.1	mac	2023-06-12	17:38:45	17:48:33	586618	6469b26b2cf3b4b300c0cddc	4	1	main_slash	11	main_slash	131	stimuli_distractor_trianglediamonds.svg	stimuli_distractor_trianglediamonds.svg	34	no	0	1	2000	0	0			0	0			1				0	
6.6.1	mac	2023-06-12	17:38:45	17:48:33	586618	6469b26b2cf3b4b300c0cddc	4	1	main_slash	11	advance_on_keypress_SLASH	132	stimuli_distractor_trianglediamonds.svg	stimuli_distractor_trianglediamonds.svg	34	no	57	0	273	0	0			0	0			1				0	
6.6.1	mac	2023-06-12	17:38:45	17:48:35	587760	6469b26b2cf3b4b300c0cddc	4	1	main_slash	11	main_slash	133	stimuli_distractor_diamondtriangles.svg	stimuli_distractor_trianglediamonds.svg	38	no	53	0	240	0	0			0	0			1				0	
6.6.1	mac	2023-06-12	17:38:45	17:48:35	587760	6469b26b2cf3b4b300c0cddc	4	1	main_slash	11	advance_on_keypress_SLASH	134	stimuli_distractor_diamondtriangles.svg	stimuli_distractor_trianglediamonds.svg	38	no	57	0	199	0	0			0	0			1				0	
6.6.1	mac	2023-06-12	17:38:45	17:48:36	588967	6469b26b2cf3b4b300c0cddc	4	1	main_slash	11	main_slash	135	stimuli_distractor_trianglediamonds.svg	stimuli_target_squaretriangles.svg	11	yes	53	1	381	0	0			0	0			1				0	
6.6.1	mac	2023-06-12	17:38:45	17:48:36	588967	6469b26b2cf3b4b300c0cddc	4	1	main_slash	11	advance_on_keypress_SLASH	136	stimuli_distractor_trianglediamonds.svg	stimuli_target_squaretriangles.svg	11	yes	57	0	208	0	0			0	0			1				0	
6.6.1	mac	2023-06-12	17:38:45	17:48:37	590153	6469b26b2cf3b4b300c0cddc	4	1	main_slash	11	main_slash	137	stimuli_distractor_trianglediamonds.svg	stimuli_target_rectangletriangles.svg	9	yes	53	1	350	0	0			0	0			1				0	
6.6.1	mac	2023-06-12	17:38:45	17:48:37	590153	6469b26b2cf3b4b300c0cddc	4	1	main_slash	11	advance_on_keypress_SLASH	138	stimuli_distractor_trianglediamonds.svg	stimuli_target_rectangletriangles.svg	9	yes	57	0	193	0	0			0	0			1				0	
6.6.1	mac	2023-06-12	17:38:45	17:48:40	592968	6469b26b2cf3b4b300c0cddc	4	1	main_slash	11	main_slash	139	stimuli_target_diamondsquares.svg	stimuli_distractor_trianglediamonds.svg	20	yes	0	0	2000	0	0			0	0			1				0	
6.6.1	mac	2023-06-12	17:38:45	17:48:40	592968	6469b26b2cf3b4b300c0cddc	4	1	main_slash	11	advance_on_keypress_SLASH	140	stimuli_target_diamondsquares.svg	stimuli_distractor_trianglediamonds.svg	20	yes	57	0	320	0	0			0	0			1				0	
6.6.1	mac	2023-06-12	17:38:45	17:48:43	595917	6469b26b2cf3b4b300c0cddc	4	1	main_slash	11	main_slash	141	stimuli_distractor_diamondtriangles.svg	stimuli_distractor_trianglediamonds.svg	37	no	0	1	2000	0	0			0	0			1				0	
6.6.1	mac	2023-06-12	17:38:45	17:48:43	595917	6469b26b2cf3b4b300c0cddc	4	1	main_slash	11	advance_on_keypress_SLASH	142	stimuli_distractor_diamondtriangles.svg	stimuli_distractor_trianglediamonds.svg	37	no	57	0	405	0	0			0	0			1				0	
6.6.1	mac	2023-06-12	17:38:45	17:48:44	597219	6469b26b2cf3b4b300c0cddc	4	1	main_slash	11	main_slash	143	stimuli_distractor_trianglediamonds.svg	stimuli_distractor_diamondtriangles.svg	36	no	53	0	265	0	0			0	0			1				0	
6.6.1	mac	2023-06-12	17:38:45	17:48:44	597219	6469b26b2cf3b4b300c0cddc	4	1	main_slash	11	advance_on_keypress_SLASH	144	stimuli_distractor_trianglediamonds.svg	stimuli_distractor_diamondtriangles.svg	36	no	57	0	268	0	0			0	0			1				0	
6.6.1	mac	2023-06-12	17:38:45	17:48:47	600118	6469b26b2cf3b4b300c0cddc	4	1	main_slash	11	main_slash	145	stimuli_target_trianglerectangles.svg	stimuli_distractor_trianglediamonds.svg	17	yes	0	0	2000	0	0			0	0			1				0	
6.6.1	mac	2023-06-12	17:38:45	17:48:47	600118	6469b26b2cf3b4b300c0cddc	4	1	main_slash	11	advance_on_keypress_SLASH	146	stimuli_target_trianglerectangles.svg	stimuli_distractor_trianglediamonds.svg	17	yes	57	0	117	0	0			0	0			1				0	
6.6.1	mac	2023-06-12	17:38:45	17:48:48	601090	6469b26b2cf3b4b300c0cddc	4	1	main_slash	11	main_slash	147	stimuli_distractor_trianglediamonds.svg	stimuli_target_diamondrectangles.svg	27	yes	53	1	219	0	0			0	0			1				0	
6.6.1	mac	2023-06-12	17:38:45	17:48:48	601090	6469b26b2cf3b4b300c0cddc	4	1	main_slash	11	advance_on_keypress_SLASH	148	stimuli_distractor_trianglediamonds.svg	stimuli_target_diamondrectangles.svg	27	yes	57	0	170	0	0			0	0			1				0	
6.6.1	mac	2023-06-12	17:38:45	17:48:49	602171	6469b26b2cf3b4b300c0cddc	4	1	main_slash	11	main_slash	149	stimuli_target_trianglerectangles.svg	stimuli_distractor_diamondtriangles.svg	21	yes	53	1	284	0	0			0	0			1				0	
6.6.1	mac	2023-06-12	17:38:45	17:48:49	602171	6469b26b2cf3b4b300c0cddc	4	1	main_slash	11	advance_on_keypress_SLASH	150	stimuli_target_trianglerectangles.svg	stimuli_distractor_diamondtriangles.svg	21	yes	57	0	304	0	0			0	0			1				0	
6.6.1	mac	2023-06-12	17:38:45	17:48:50	603506	6469b26b2cf3b4b300c0cddc	4	1	main_slash	11	main_slash	151	stimuli_distractor_diamondtriangles.svg	stimuli_target_rectanglediamonds.svg	14	yes	53	1	404	0	0			0	0			1				0	
6.6.1	mac	2023-06-12	17:38:45	17:48:50	603506	6469b26b2cf3b4b300c0cddc	4	1	main_slash	11	advance_on_keypress_SLASH	152	stimuli_distractor_diamondtriangles.svg	stimuli_target_rectanglediamonds.svg	14	yes	57	0	210	0	0			0	0			1				0	
6.6.1	mac	2023-06-12	17:38:45	17:48:51	604609	6469b26b2cf3b4b300c0cddc	4	1	main_slash	11	main_slash	153	stimuli_distractor_trianglediamonds.svg	stimuli_target_diamondsquares.svg	28	yes	53	1	273	0	0			0	0			1				0	
6.6.1	mac	2023-06-12	17:38:45	17:48:51	604609	6469b26b2cf3b4b300c0cddc	4	1	main_slash	11	advance_on_keypress_SLASH	154	stimuli_distractor_trianglediamonds.svg	stimuli_target_diamondsquares.svg	28	yes	57	0	295	0	0			0	0			1				0	
6.6.1	mac	2023-06-12	17:38:45	17:48:53	605839	6469b26b2cf3b4b300c0cddc	4	1	main_slash	11	main_slash	155	stimuli_target_rectanglediamonds.svg	stimuli_distractor_trianglediamonds.svg	2	yes	53	1	320	0	0			0	0			1				0	
6.6.1	mac	2023-06-12	17:38:45	17:48:53	605839	6469b26b2cf3b4b300c0cddc	4	1	main_slash	11	advance_on_keypress_SLASH	156	stimuli_target_rectanglediamonds.svg	stimuli_distractor_trianglediamonds.svg	2	yes	57	0	185	0	0			0	0			1				0	
6.6.1	mac	2023-06-12	17:38:45	17:48:54	606991	6469b26b2cf3b4b300c0cddc	4	1	main_slash	11	main_slash	157	stimuli_distractor_trianglediamonds.svg	stimuli_target_squarediamonds.svg	12	yes	53	1	337	0	0			0	0			1				0	
6.6.1	mac	2023-06-12	17:38:45	17:48:54	606991	6469b26b2cf3b4b300c0cddc	4	1	main_slash	11	advance_on_keypress_SLASH	158	stimuli_distractor_trianglediamonds.svg	stimuli_target_squarediamonds.svg	12	yes	57	0	138	0	0			0	0			1				0	
6.6.1	mac	2023-06-12	17:38:45	17:48:55	608232	6469b26b2cf3b4b300c0cddc	4	1	main_slash	11	main_slash	159	stimuli_distractor_trianglediamonds.svg	stimuli_target_trianglerectangles.svg	25	yes	53	1	479	0	0			0	0			1				0	
6.6.1	mac	2023-06-12	17:38:45	17:48:55	608232	6469b26b2cf3b4b300c0cddc	4	1	main_slash	11	advance_on_keypress_SLASH	160	stimuli_distractor_trianglediamonds.svg	stimuli_target_trianglerectangles.svg	25	yes	57	0	453	0	0			0	0			1				0	
6.6.1	mac	2023-06-12	17:38:45	17:48:55	608232	6469b26b2cf3b4b300c0cddc	4	1	headphonecheck_calibration	14	headphonecheck_calibrationIntro	1	stimuli_distractor_trianglediamonds.svg	stimuli_target_trianglerectangles.svg	25	yes	calibrationButton	0	2787	0	0			0	0			1				0	
6.6.1	mac	2023-06-12	17:38:45	17:48:55	608232	6469b26b2cf3b4b300c0cddc	4	1	headphonecheck_testphase	15	test_collectResponse	3	stimuli_distractor_trianglediamonds.svg	stimuli_target_trianglerectangles.svg	25	yes	third	1	50	1	6	antiphase_hc_ois.wav	3	0	0			1				0	
6.6.1	mac	2023-06-12	17:38:45	17:48:55	608232	6469b26b2cf3b4b300c0cddc	4	1	headphonecheck_testphase	15	test_collectResponse	6	stimuli_distractor_trianglediamonds.svg	stimuli_target_trianglerectangles.svg	25	yes	third	1	105	2	2	antiphase_hc_ios.wav	3	0	0			1				0	
6.6.1	mac	2023-06-12	17:38:45	17:48:55	608232	6469b26b2cf3b4b300c0cddc	4	1	headphonecheck_testphase	15	test_collectResponse	9	stimuli_distractor_trianglediamonds.svg	stimuli_target_trianglerectangles.svg	25	yes	second	1	964	3	1	antiphase_hc_iso.wav	2	0	0			1				0	
6.6.1	mac	2023-06-12	17:38:45	17:48:55	608232	6469b26b2cf3b4b300c0cddc	4	1	headphonecheck_testphase	15	test_collectResponse	12	stimuli_distractor_trianglediamonds.svg	stimuli_target_trianglerectangles.svg	25	yes	first	1	2221	4	4	antiphase_hc_sio.wav	1	0	0			1				0	
6.6.1	mac	2023-06-12	17:38:45	17:48:55	608232	6469b26b2cf3b4b300c0cddc	4	1	headphonecheck_testphase	15	test_collectResponse	15	stimuli_distractor_trianglediamonds.svg	stimuli_target_trianglerectangles.svg	25	yes	first	1	647	5	3	antiphase_hc_soi.wav	1	0	0			1				0	
6.6.1	mac	2023-06-12	17:38:45	17:48:55	608232	6469b26b2cf3b4b300c0cddc	4	1	headphonecheck_testphase	15	test_collectResponse	18	stimuli_distractor_trianglediamonds.svg	stimuli_target_trianglerectangles.svg	25	yes	second	1	520	6	5	antiphase_hc_osi.wav	2	0	0			1				0	
6.6.1	mac	2023-06-12	17:38:45	17:48:55	608232	6469b26b2cf3b4b300c0cddc	4	1	stereocheck_calibration	17	stereocheck_calibrationIntro	1	stimuli_distractor_trianglediamonds.svg	stimuli_target_trianglerectangles.svg	25	yes	stereocheck_calibrationButton	0	3466	6	5	antiphase_hc_osi.wav	2	0	0			1				0	
6.6.1	mac	2023-06-12	17:38:45	17:48:55	608232	6469b26b2cf3b4b300c0cddc	4	1	stereocheck_testphase	18	stereocheck_test_collectResponse	3	stimuli_distractor_trianglediamonds.svg	stimuli_target_trianglerectangles.svg	25	yes	stereocheck_right	1	422	6	5	antiphase_hc_osi.wav	2	1	4	noise_calib_stim_RIGHT.wav	2	1				0	
6.6.1	mac	2023-06-12	17:38:45	17:48:55	608232	6469b26b2cf3b4b300c0cddc	4	1	stereocheck_testphase	18	stereocheck_test_collectResponse	6	stimuli_distractor_trianglediamonds.svg	stimuli_target_trianglerectangles.svg	25	yes	stereocheck_right	1	430	6	5	antiphase_hc_osi.wav	2	2	6	noise_calib_stim_RIGHT.wav	2	1				0	
6.6.1	mac	2023-06-12	17:38:45	17:48:55	608232	6469b26b2cf3b4b300c0cddc	4	1	stereocheck_testphase	18	stereocheck_test_collectResponse	9	stimuli_distractor_trianglediamonds.svg	stimuli_target_trianglerectangles.svg	25	yes	stereocheck_left	1	443	6	5	antiphase_hc_osi.wav	2	3	3	noise_calib_stim_LEFT.wav	1	1				0	
6.6.1	mac	2023-06-12	17:38:45	17:48:55	608232	6469b26b2cf3b4b300c0cddc	4	1	stereocheck_testphase	18	stereocheck_test_collectResponse	12	stimuli_distractor_trianglediamonds.svg	stimuli_target_trianglerectangles.svg	25	yes	stereocheck_left	1	239	6	5	antiphase_hc_osi.wav	2	4	2	noise_calib_stim_LEFT.wav	1	1				0	
6.6.1	mac	2023-06-12	17:38:45	17:48:55	608232	6469b26b2cf3b4b300c0cddc	4	1	stereocheck_testphase	18	stereocheck_test_collectResponse	15	stimuli_distractor_trianglediamonds.svg	stimuli_target_trianglerectangles.svg	25	yes	stereocheck_right	1	345	6	5	antiphase_hc_osi.wav	2	5	5	noise_calib_stim_RIGHT.wav	2	1				0	
6.6.1	mac	2023-06-12	17:38:45	17:48:55	608232	6469b26b2cf3b4b300c0cddc	4	1	stereocheck_testphase	18	stereocheck_test_collectResponse	18	stimuli_distractor_trianglediamonds.svg	stimuli_target_trianglerectangles.svg	25	yes	stereocheck_left	1	386	6	5	antiphase_hc_osi.wav	2	6	1	noise_calib_stim_LEFT.wav	1	1				0	
6.6.1	mac	2023-06-12	17:38:45	17:48:55	608232	6469b26b2cf3b4b300c0cddc	4	1	DL_practice	21	DL_practice	2	stimuli_distractor_trianglediamonds.svg	stimuli_target_trianglerectangles.svg	25	yes	ka	1	1424	6	5	antiphase_hc_osi.wav	2	6	1	noise_calib_stim_LEFT.wav	1	23	blb_dichoticlistening_ka-pa.mp3	ka	pa	1	left
6.6.1	mac	2023-06-12	17:38:45	17:48:55	608232	6469b26b2cf3b4b300c0cddc	4	1	DL_practice	21	DL_practice	3	stimuli_distractor_trianglediamonds.svg	stimuli_target_trianglerectangles.svg	25	yes	ba	1	1543	6	5	antiphase_hc_osi.wav	2	6	1	noise_calib_stim_LEFT.wav	1	7	blb_dichoticlistening_da-ba.mp3	da	ba	1	right
6.6.1	mac	2023-06-12	17:38:45	17:48:55	608232	6469b26b2cf3b4b300c0cddc	4	1	DL_practice	21	DL_practice	4	stimuli_distractor_trianglediamonds.svg	stimuli_target_trianglerectangles.svg	25	yes	ka	1	1398	6	5	antiphase_hc_osi.wav	2	6	1	noise_calib_stim_LEFT.wav	1	22	blb_dichoticlistening_ka-ka.mp3	ka	ka	0	left
6.6.1	mac	2023-06-12	17:38:45	17:48:55	608232	6469b26b2cf3b4b300c0cddc	4	1	DL_practice	21	DL_practice	5	stimuli_distractor_trianglediamonds.svg	stimuli_target_trianglerectangles.svg	25	yes	ka	0	1088	6	5	antiphase_hc_osi.wav	2	6	1	noise_calib_stim_LEFT.wav	1	18	blb_dichoticlistening_ga-ta.mp3	ga	ta	1	other
6.6.1	mac	2023-06-12	17:38:45	17:48:55	608232	6469b26b2cf3b4b300c0cddc	4	1	DL_practice	21	DL_practice	6	stimuli_distractor_trianglediamonds.svg	stimuli_target_trianglerectangles.svg	25	yes	ga	1	979	6	5	antiphase_hc_osi.wav	2	6	1	noise_calib_stim_LEFT.wav	1	15	blb_dichoticlistening_ga-ga.mp3	ga	ga	0	left
6.6.1	mac	2023-06-12	17:38:45	17:48:55	608232	6469b26b2cf3b4b300c0cddc	4	1	DL_practice	21	DL_practice	7	stimuli_distractor_trianglediamonds.svg	stimuli_target_trianglerectangles.svg	25	yes	ta	1	1489	6	5	antiphase_hc_osi.wav	2	6	1	noise_calib_stim_LEFT.wav	1	36	blb_dichoticlistening_ta-ta.mp3	ta	ta	0	left
6.6.1	mac	2023-06-12	17:38:45	17:48:55	608232	6469b26b2cf3b4b300c0cddc	4	1	DL_practice	21	DL_practice	8	stimuli_distractor_trianglediamonds.svg	stimuli_target_trianglerectangles.svg	25	yes	da	1	935	6	5	antiphase_hc_osi.wav	2	6	1	noise_calib_stim_LEFT.wav	1	8	blb_dichoticlistening_da-da.mp3	da	da	0	left
6.6.1	mac	2023-06-12	17:38:45	17:48:55	608232	6469b26b2cf3b4b300c0cddc	4	1	DL_practice	21	DL_practice	9	stimuli_distractor_trianglediamonds.svg	stimuli_target_trianglerectangles.svg	25	yes	pa	1	1225	6	5	antiphase_hc_osi.wav	2	6	1	noise_calib_stim_LEFT.wav	1	29	blb_dichoticlistening_pa-pa.mp3	pa	pa	0	left
6.6.1	mac	2023-06-12	17:38:45	17:48:55	608232	6469b26b2cf3b4b300c0cddc	4	1	DL_practice	21	DL_practice	10	stimuli_distractor_trianglediamonds.svg	stimuli_target_trianglerectangles.svg	25	yes	ba	1	1357	6	5	antiphase_hc_osi.wav	2	6	1	noise_calib_stim_LEFT.wav	1	1	blb_dichoticlistening_ba-ba.mp3	ba	ba	0	left
6.6.1	mac	2023-06-12	17:38:45	17:48:55	608232	6469b26b2cf3b4b300c0cddc	4	1	DL_test	23	DL_test	1	stimuli_distractor_trianglediamonds.svg	stimuli_target_trianglerectangles.svg	25	yes	ka	1	1127	6	5	antiphase_hc_osi.wav	2	6	1	noise_calib_stim_LEFT.wav	1	16	blb_dichoticlistening_ga-ka.mp3	ga	ka	1	right
6.6.1	mac	2023-06-12	17:38:45	17:48:55	608232	6469b26b2cf3b4b300c0cddc	4	1	DL_test	23	DL_test	2	stimuli_distractor_trianglediamonds.svg	stimuli_target_trianglerectangles.svg	25	yes	pa	1	1283	6	5	antiphase_hc_osi.wav	2	6	1	noise_calib_stim_LEFT.wav	1	5	blb_dichoticlistening_ba-pa.mp3	ba	pa	1	right
6.6.1	mac	2023-06-12	17:38:45	17:48:55	608232	6469b26b2cf3b4b300c0cddc	4	1	DL_test	23	DL_test	3	stimuli_distractor_trianglediamonds.svg	stimuli_target_trianglerectangles.svg	25	yes	pa	1	1743	6	5	antiphase_hc_osi.wav	2	6	1	noise_calib_stim_LEFT.wav	1	29	blb_dichoticlistening_pa-pa.mp3	pa	pa	0	left
6.6.1	mac	2023-06-12	17:38:45	17:48:55	608232	6469b26b2cf3b4b300c0cddc	4	1	DL_test	23	DL_test	4	stimuli_distractor_trianglediamonds.svg	stimuli_target_trianglerectangles.svg	25	yes	ga	1	1075	6	5	antiphase_hc_osi.wav	2	6	1	noise_calib_stim_LEFT.wav	1	3	blb_dichoticlistening_ba-ga.mp3	ba	ga	1	right
6.6.1	mac	2023-06-12	17:38:45	17:48:55	608232	6469b26b2cf3b4b300c0cddc	4	1	DL_test	23	DL_test	5	stimuli_distractor_trianglediamonds.svg	stimuli_target_trianglerectangles.svg	25	yes	da	1	1781	6	5	antiphase_hc_osi.wav	2	6	1	noise_calib_stim_LEFT.wav	1	2	blb_dichoticlistening_ba-da.mp3	ba	da	1	right
6.6.1	mac	2023-06-12	17:38:45	17:48:55	608232	6469b26b2cf3b4b300c0cddc	4	1	DL_test	23	DL_test	6	stimuli_distractor_trianglediamonds.svg	stimuli_target_trianglerectangles.svg	25	yes	pa	0	1454	6	5	antiphase_hc_osi.wav	2	6	1	noise_calib_stim_LEFT.wav	1	10	blb_dichoticlistening_da-ka.mp3	da	ka	1	other
6.6.1	mac	2023-06-12	17:38:45	17:48:55	608232	6469b26b2cf3b4b300c0cddc	4	1	DL_test	23	DL_test	7	stimuli_distractor_trianglediamonds.svg	stimuli_target_trianglerectangles.svg	25	yes	ka	1	1048	6	5	antiphase_hc_osi.wav	2	6	1	noise_calib_stim_LEFT.wav	1	24	blb_dichoticlistening_ka-ta.mp3	ka	ta	1	left
6.6.1	mac	2023-06-12	17:38:45	17:48:55	608232	6469b26b2cf3b4b300c0cddc	4	1	DL_test	23	DL_test	8	stimuli_distractor_trianglediamonds.svg	stimuli_target_trianglerectangles.svg	25	yes	ga	1	1023	6	5	antiphase_hc_osi.wav	2	6	1	noise_calib_stim_LEFT.wav	1	15	blb_dichoticlistening_ga-ga.mp3	ga	ga	0	left
6.6.1	mac	2023-06-12	17:38:45	17:48:55	608232	6469b26b2cf3b4b300c0cddc	4	1	DL_test	23	DL_test	9	stimuli_distractor_trianglediamonds.svg	stimuli_target_trianglerectangles.svg	25	yes	pa	1	1711	6	5	antiphase_hc_osi.wav	2	6	1	noise_calib_stim_LEFT.wav	1	26	blb_dichoticlistening_pa-da.mp3	pa	da	1	left
6.6.1	mac	2023-06-12	17:38:45	17:48:55	608232	6469b26b2cf3b4b300c0cddc	4	1	DL_test	23	DL_test	10	stimuli_distractor_trianglediamonds.svg	stimuli_target_trianglerectangles.svg	25	yes	ga	1	1084	6	5	antiphase_hc_osi.wav	2	6	1	noise_calib_stim_LEFT.wav	1	9	blb_dichoticlistening_da-ga.mp3	da	ga	1	right
6.6.1	mac	2023-06-12	17:38:45	17:48:55	608232	6469b26b2cf3b4b300c0cddc	4	1	DL_test	23	DL_test	11	stimuli_distractor_trianglediamonds.svg	stimuli_target_trianglerectangles.svg	25	yes	ga	1	1083	6	5	antiphase_hc_osi.wav	2	6	1	noise_calib_stim_LEFT.wav	1	27	blb_dichoticlistening_pa-ga.mp3	pa	ga	1	right
6.6.1	mac	2023-06-12	17:38:45	17:48:55	608232	6469b26b2cf3b4b300c0cddc	4	1	DL_test	23	DL_test	12	stimuli_distractor_trianglediamonds.svg	stimuli_target_trianglerectangles.svg	25	yes	ta	1	1549	6	5	antiphase_hc_osi.wav	2	6	1	noise_calib_stim_LEFT.wav	1	30	blb_dichoticlistening_pa-ta.mp3	pa	ta	1	right
6.6.1	mac	2023-06-12	17:38:45	17:48:55	608232	6469b26b2cf3b4b300c0cddc	4	1	DL_test	23	DL_test	13	stimuli_distractor_trianglediamonds.svg	stimuli_target_trianglerectangles.svg	25	yes	pa	1	1559	6	5	antiphase_hc_osi.wav	2	6	1	noise_calib_stim_LEFT.wav	1	11	blb_dichoticlistening_da-pa.mp3	da	pa	1	right
6.6.1	mac	2023-06-12	17:38:45	17:48:55	608232	6469b26b2cf3b4b300c0cddc	4	1	DL_test	23	DL_test	14	stimuli_distractor_trianglediamonds.svg	stimuli_target_trianglerectangles.svg	25	yes	ba	1	1438	6	5	antiphase_hc_osi.wav	2	6	1	noise_calib_stim_LEFT.wav	1	7	blb_dichoticlistening_da-ba.mp3	da	ba	1	right
6.6.1	mac	2023-06-12	17:38:45	17:48:55	608232	6469b26b2cf3b4b300c0cddc	4	1	DL_test	23	DL_test	15	stimuli_distractor_trianglediamonds.svg	stimuli_target_trianglerectangles.svg	25	yes	pa	1	1641	6	5	antiphase_hc_osi.wav	2	6	1	noise_calib_stim_LEFT.wav	1	25	blb_dichoticlistening_pa-ba.mp3	pa	ba	1	left
6.6.1	mac	2023-06-12	17:38:45	17:48:55	608232	6469b26b2cf3b4b300c0cddc	4	1	DL_test	23	DL_test	16	stimuli_distractor_trianglediamonds.svg	stimuli_target_trianglerectangles.svg	25	yes	ka	1	1186	6	5	antiphase_hc_osi.wav	2	6	1	noise_calib_stim_LEFT.wav	1	23	blb_dichoticlistening_ka-pa.mp3	ka	pa	1	left
6.6.1	mac	2023-06-12	17:38:45	17:48:55	608232	6469b26b2cf3b4b300c0cddc	4	1	DL_test	23	DL_test	17	stimuli_distractor_trianglediamonds.svg	stimuli_target_trianglerectangles.svg	25	yes	ga	1	1279	6	5	antiphase_hc_osi.wav	2	6	1	noise_calib_stim_LEFT.wav	1	17	blb_dichoticlistening_ga-pa.mp3	ga	pa	1	left
6.6.1	mac	2023-06-12	17:38:45	17:48:55	608232	6469b26b2cf3b4b300c0cddc	4	1	DL_test	23	DL_test	18	stimuli_distractor_trianglediamonds.svg	stimuli_target_trianglerectangles.svg	25	yes	ka	1	940	6	5	antiphase_hc_osi.wav	2	6	1	noise_calib_stim_LEFT.wav	1	34	blb_dichoticlistening_ta-ka.mp3	ta	ka	1	right
6.6.1	mac	2023-06-12	17:38:45	17:48:55	608232	6469b26b2cf3b4b300c0cddc	4	1	DL_test	23	DL_test	19	stimuli_distractor_trianglediamonds.svg	stimuli_target_trianglerectangles.svg	25	yes	ka	1	1001	6	5	antiphase_hc_osi.wav	2	6	1	noise_calib_stim_LEFT.wav	1	22	blb_dichoticlistening_ka-ka.mp3	ka	ka	0	left
6.6.1	mac	2023-06-12	17:38:45	17:48:55	608232	6469b26b2cf3b4b300c0cddc	4	1	DL_test	23	DL_test	20	stimuli_distractor_trianglediamonds.svg	stimuli_target_trianglerectangles.svg	25	yes	ga	0	1364	6	5	antiphase_hc_osi.wav	2	6	1	noise_calib_stim_LEFT.wav	1	32	blb_dichoticlistening_ta-da.mp3	ta	da	1	other
6.6.1	mac	2023-06-12	17:38:45	17:48:55	608232	6469b26b2cf3b4b300c0cddc	4	1	DL_test	23	DL_test	21	stimuli_distractor_trianglediamonds.svg	stimuli_target_trianglerectangles.svg	25	yes	ka	0	1056	6	5	antiphase_hc_osi.wav	2	6	1	noise_calib_stim_LEFT.wav	1	18	blb_dichoticlistening_ga-ta.mp3	ga	ta	1	other
6.6.1	mac	2023-06-12	17:38:45	17:48:55	608232	6469b26b2cf3b4b300c0cddc	4	1	DL_test	23	DL_test	22	stimuli_distractor_trianglediamonds.svg	stimuli_target_trianglerectangles.svg	25	yes	da	1	1223	6	5	antiphase_hc_osi.wav	2	6	1	noise_calib_stim_LEFT.wav	1	8	blb_dichoticlistening_da-da.mp3	da	da	0	left
6.6.1	mac	2023-06-12	17:38:45	17:48:55	608232	6469b26b2cf3b4b300c0cddc	4	1	DL_test	23	DL_test	23	stimuli_distractor_trianglediamonds.svg	stimuli_target_trianglerectangles.svg	25	yes	ka	1	2193	6	5	antiphase_hc_osi.wav	2	6	1	noise_calib_stim_LEFT.wav	1	20	blb_dichoticlistening_ka-da.mp3	ka	da	1	left
6.6.1	mac	2023-06-12	17:38:45	17:48:55	608232	6469b26b2cf3b4b300c0cddc	4	1	DL_test	23	DL_test	24	stimuli_distractor_trianglediamonds.svg	stimuli_target_trianglerectangles.svg	25	yes	ga	1	1182	6	5	antiphase_hc_osi.wav	2	6	1	noise_calib_stim_LEFT.wav	1	33	blb_dichoticlistening_ta-ga.mp3	ta	ga	1	right
6.6.1	mac	2023-06-12	17:38:45	17:48:55	608232	6469b26b2cf3b4b300c0cddc	4	1	DL_test	23	DL_test	25	stimuli_distractor_trianglediamonds.svg	stimuli_target_trianglerectangles.svg	25	yes	ta	1	1566	6	5	antiphase_hc_osi.wav	2	6	1	noise_calib_stim_LEFT.wav	1	31	blb_dichoticlistening_ta-ba.mp3	ta	ba	1	left
6.6.1	mac	2023-06-12	17:38:45	17:48:55	608232	6469b26b2cf3b4b300c0cddc	4	1	DL_test	23	DL_test	26	stimuli_distractor_trianglediamonds.svg	stimuli_target_trianglerectangles.svg	25	yes	ba	1	1324	6	5	antiphase_hc_osi.wav	2	6	1	noise_calib_stim_LEFT.wav	1	1	blb_dichoticlistening_ba-ba.mp3	ba	ba	0	left
