build	computer.platform	date	time	timestamp	time_elapsed_ms	subject	group	session	blockcode	blocknum	trialcode	trialnum	stimulus_left	stimulus_right	stim_index	target_present	response	correct	latency	headphonecheck_countTestTrials	headphonecheck_index	headphonecheck_testSound	headphonecheck_correctResponse	stereocheck_countTestTrials	stereocheck_index	stereocheck_testSound	stereocheck_correctResponse	DL_index	DL_soundfile	DL_leftSound	DL_rightSound	DL_dualSound	DL_choice
6.6.1	win	2023-07-06	23:53:50	23:55:59	126131	60fcefe49e61a0aa689df3c8	4	1	practice_z	5	practice_z	1	stimuli_distractor_diamondtriangles.svg	stimuli_target_trianglerectangles.svg	9	yes	0	0	2000	0	0			0	0			1				0	
6.6.1	win	2023-07-06	23:53:50	23:55:59	126131	60fcefe49e61a0aa689df3c8	4	1	practice_z	5	advance_on_keypress_ZEE	2	stimuli_distractor_diamondtriangles.svg	stimuli_target_trianglerectangles.svg	9	yes	57	0	1045	0	0			0	0			1				0	
6.6.1	win	2023-07-06	23:53:50	23:56:02	129579	60fcefe49e61a0aa689df3c8	4	1	practice_z	5	practice_z	3	stimuli_distractor_trianglediamonds.svg	stimuli_target_rectanglediamonds.svg	10	yes	44	1	765	0	0			0	0			1				0	
6.6.1	win	2023-07-06	23:53:50	23:56:02	129579	60fcefe49e61a0aa689df3c8	4	1	practice_z	5	advance_on_keypress_ZEE	4	stimuli_distractor_trianglediamonds.svg	stimuli_target_rectanglediamonds.svg	10	yes	57	0	280	0	0			0	0			1				0	
6.6.1	win	2023-07-06	23:53:50	23:56:04	131949	60fcefe49e61a0aa689df3c8	4	1	practice_z	5	practice_z	5	stimuli_target_rectanglediamonds.svg	stimuli_distractor_diamondtriangles.svg	1	yes	44	1	427	0	0			0	0			1				0	
6.6.1	win	2023-07-06	23:53:50	23:56:04	131949	60fcefe49e61a0aa689df3c8	4	1	practice_z	5	advance_on_keypress_ZEE	6	stimuli_target_rectanglediamonds.svg	stimuli_distractor_diamondtriangles.svg	1	yes	57	0	254	0	0			0	0			1				0	
6.6.1	win	2023-07-06	23:53:50	23:56:07	134208	60fcefe49e61a0aa689df3c8	4	1	practice_z	5	practice_z	7	stimuli_target_squarediamonds.svg	stimuli_distractor_trianglediamonds.svg	5	yes	44	1	374	0	0			0	0			1				0	
6.6.1	win	2023-07-06	23:53:50	23:56:07	134208	60fcefe49e61a0aa689df3c8	4	1	practice_z	5	advance_on_keypress_ZEE	8	stimuli_target_squarediamonds.svg	stimuli_distractor_trianglediamonds.svg	5	yes	57	0	361	0	0			0	0			1				0	
6.6.1	win	2023-07-06	23:53:50	23:56:11	138189	60fcefe49e61a0aa689df3c8	4	1	practice_z	5	practice_z	9	stimuli_target_diamondsquares.svg	stimuli_distractor_diamondtriangles.svg	3	yes	0	0	2000	0	0			0	0			1				0	
6.6.1	win	2023-07-06	23:53:50	23:56:11	138189	60fcefe49e61a0aa689df3c8	4	1	practice_z	5	advance_on_keypress_ZEE	10	stimuli_target_diamondsquares.svg	stimuli_distractor_diamondtriangles.svg	3	yes	57	0	1841	0	0			0	0			1				0	
6.6.1	win	2023-07-06	23:53:50	23:56:15	142697	60fcefe49e61a0aa689df3c8	4	1	practice_z	5	practice_z	11	stimuli_distractor_trianglediamonds.svg	stimuli_target_diamondrectangles.svg	12	yes	44	1	1000	0	0			0	0			1				0	
6.6.1	win	2023-07-06	23:53:50	23:56:15	142697	60fcefe49e61a0aa689df3c8	4	1	practice_z	5	advance_on_keypress_ZEE	12	stimuli_distractor_trianglediamonds.svg	stimuli_target_diamondrectangles.svg	12	yes	57	0	644	0	0			0	0			1				0	
6.6.1	win	2023-07-06	23:53:50	23:56:18	146075	60fcefe49e61a0aa689df3c8	4	1	practice_z	5	practice_z	13	stimuli_distractor_diamondtriangles.svg	stimuli_distractor_trianglediamonds.svg	14	no	44	0	1093	0	0			0	0			1				0	
6.6.1	win	2023-07-06	23:53:50	23:56:18	146075	60fcefe49e61a0aa689df3c8	4	1	practice_z	5	advance_on_keypress_ZEE	14	stimuli_distractor_diamondtriangles.svg	stimuli_distractor_trianglediamonds.svg	14	no	57	0	271	0	0			0	0			1				0	
6.6.1	win	2023-07-06	23:53:50	23:56:22	150001	60fcefe49e61a0aa689df3c8	4	1	practice_z	5	practice_z	15	stimuli_distractor_trianglediamonds.svg	stimuli_distractor_diamondtriangles.svg	16	no	0	1	2000	0	0			0	0			1				0	
6.6.1	win	2023-07-06	23:53:50	23:56:22	150001	60fcefe49e61a0aa689df3c8	4	1	practice_z	5	advance_on_keypress_ZEE	16	stimuli_distractor_trianglediamonds.svg	stimuli_distractor_diamondtriangles.svg	16	no	57	0	441	0	0			0	0			1				0	
6.6.1	win	2023-07-06	23:53:50	23:56:26	154067	60fcefe49e61a0aa689df3c8	4	1	practice_z	5	practice_z	17	stimuli_distractor_trianglediamonds.svg	stimuli_distractor_trianglediamonds.svg	15	no	0	1	2000	0	0			0	0			1				0	
6.6.1	win	2023-07-06	23:53:50	23:56:26	154067	60fcefe49e61a0aa689df3c8	4	1	practice_z	5	advance_on_keypress_ZEE	18	stimuli_distractor_trianglediamonds.svg	stimuli_distractor_trianglediamonds.svg	15	no	57	0	381	0	0			0	0			1				0	
6.6.1	win	2023-07-06	23:53:50	23:56:30	158077	60fcefe49e61a0aa689df3c8	4	1	practice_z	5	practice_z	19	stimuli_target_diamondsquares.svg	stimuli_distractor_trianglediamonds.svg	6	yes	0	0	2000	0	0			0	0			1				0	
6.6.1	win	2023-07-06	23:53:50	23:56:30	158077	60fcefe49e61a0aa689df3c8	4	1	practice_z	5	advance_on_keypress_ZEE	20	stimuli_target_diamondsquares.svg	stimuli_distractor_trianglediamonds.svg	6	yes	57	0	223	0	0			0	0			1				0	
6.6.1	win	2023-07-06	23:53:50	23:56:33	160748	60fcefe49e61a0aa689df3c8	4	1	practice_z	5	practice_z	21	stimuli_target_squarediamonds.svg	stimuli_distractor_diamondtriangles.svg	2	yes	44	1	794	0	0			0	0			1				0	
6.6.1	win	2023-07-06	23:53:50	23:56:33	160748	60fcefe49e61a0aa689df3c8	4	1	practice_z	5	advance_on_keypress_ZEE	22	stimuli_target_squarediamonds.svg	stimuli_distractor_diamondtriangles.svg	2	yes	57	0	586	0	0			0	0			1				0	
6.6.1	win	2023-07-06	23:53:50	23:56:36	163481	60fcefe49e61a0aa689df3c8	4	1	practice_z	5	practice_z	23	stimuli_target_rectanglediamonds.svg	stimuli_distractor_trianglediamonds.svg	4	yes	44	1	515	0	0			0	0			1				0	
6.6.1	win	2023-07-06	23:53:50	23:56:36	163481	60fcefe49e61a0aa689df3c8	4	1	practice_z	5	advance_on_keypress_ZEE	24	stimuli_target_rectanglediamonds.svg	stimuli_distractor_trianglediamonds.svg	4	yes	57	0	325	0	0			0	0			1				0	
6.6.1	win	2023-07-06	23:53:50	23:56:39	166161	60fcefe49e61a0aa689df3c8	4	1	practice_z	5	practice_z	25	stimuli_distractor_diamondtriangles.svg	stimuli_target_diamondrectangles.svg	8	yes	44	1	722	0	0			0	0			1				0	
6.6.1	win	2023-07-06	23:53:50	23:56:39	166161	60fcefe49e61a0aa689df3c8	4	1	practice_z	5	advance_on_keypress_ZEE	26	stimuli_distractor_diamondtriangles.svg	stimuli_target_diamondrectangles.svg	8	yes	57	0	299	0	0			0	0			1				0	
6.6.1	win	2023-07-06	23:53:50	23:56:41	168592	60fcefe49e61a0aa689df3c8	4	1	practice_z	5	practice_z	27	stimuli_distractor_trianglediamonds.svg	stimuli_target_squarediamonds.svg	11	yes	44	1	509	0	0			0	0			1				0	
6.6.1	win	2023-07-06	23:53:50	23:56:41	168592	60fcefe49e61a0aa689df3c8	4	1	practice_z	5	advance_on_keypress_ZEE	28	stimuli_distractor_trianglediamonds.svg	stimuli_target_squarediamonds.svg	11	yes	57	0	352	0	0			0	0			1				0	
6.6.1	win	2023-07-06	23:53:50	23:56:45	172572	60fcefe49e61a0aa689df3c8	4	1	practice_z	5	practice_z	29	stimuli_distractor_diamondtriangles.svg	stimuli_distractor_diamondtriangles.svg	13	no	0	1	2000	0	0			0	0			1				0	
6.6.1	win	2023-07-06	23:53:50	23:56:45	172572	60fcefe49e61a0aa689df3c8	4	1	practice_z	5	advance_on_keypress_ZEE	30	stimuli_distractor_diamondtriangles.svg	stimuli_distractor_diamondtriangles.svg	13	no	57	0	505	0	0			0	0			1				0	
6.6.1	win	2023-07-06	23:53:50	23:56:48	175138	60fcefe49e61a0aa689df3c8	4	1	practice_z	5	practice_z	31	stimuli_distractor_diamondtriangles.svg	stimuli_target_rectangletriangles.svg	7	yes	44	1	425	0	0			0	0			1				0	
6.6.1	win	2023-07-06	23:53:50	23:56:48	175138	60fcefe49e61a0aa689df3c8	4	1	practice_z	5	advance_on_keypress_ZEE	32	stimuli_distractor_diamondtriangles.svg	stimuli_target_rectangletriangles.svg	7	yes	57	0	960	0	0			0	0			1				0	
6.6.1	win	2023-07-06	23:53:50	23:56:52	180096	60fcefe49e61a0aa689df3c8	4	1	main_z	7	main_z	1	stimuli_target_squarediamonds.svg	stimuli_distractor_diamondtriangles.svg	8	yes	44	1	569	0	0			0	0			1				0	
6.6.1	win	2023-07-06	23:53:50	23:56:52	180096	60fcefe49e61a0aa689df3c8	4	1	main_z	7	advance_on_keypress_ZEE	2	stimuli_target_squarediamonds.svg	stimuli_distractor_diamondtriangles.svg	8	yes	57	0	1058	0	0			0	0			1				0	
6.6.1	win	2023-07-06	23:53:50	23:56:55	182691	60fcefe49e61a0aa689df3c8	4	1	main_z	7	main_z	3	stimuli_target_trianglesquares.svg	stimuli_distractor_diamondtriangles.svg	22	yes	44	1	903	0	0			0	0			1				0	
6.6.1	win	2023-07-06	23:53:50	23:56:55	182691	60fcefe49e61a0aa689df3c8	4	1	main_z	7	advance_on_keypress_ZEE	4	stimuli_target_trianglesquares.svg	stimuli_distractor_diamondtriangles.svg	22	yes	57	0	408	0	0			0	0			1				0	
6.6.1	win	2023-07-06	23:53:50	23:56:58	185752	60fcefe49e61a0aa689df3c8	4	1	main_z	7	main_z	5	stimuli_distractor_diamondtriangles.svg	stimuli_distractor_diamondtriangles.svg	40	no	0	1	2000	0	0			0	0			1				0	
6.6.1	win	2023-07-06	23:53:50	23:56:58	185752	60fcefe49e61a0aa689df3c8	4	1	main_z	7	advance_on_keypress_ZEE	6	stimuli_distractor_diamondtriangles.svg	stimuli_distractor_diamondtriangles.svg	40	no	57	0	394	0	0			0	0			1				0	
6.6.1	win	2023-07-06	23:53:50	23:57:01	188780	60fcefe49e61a0aa689df3c8	4	1	main_z	7	main_z	7	stimuli_distractor_trianglediamonds.svg	stimuli_distractor_trianglediamonds.svg	34	no	0	1	2000	0	0			0	0			1				0	
6.6.1	win	2023-07-06	23:53:50	23:57:01	188780	60fcefe49e61a0aa689df3c8	4	1	main_z	7	advance_on_keypress_ZEE	8	stimuli_distractor_trianglediamonds.svg	stimuli_distractor_trianglediamonds.svg	34	no	57	0	363	0	0			0	0			1				0	
6.6.1	win	2023-07-06	23:53:50	23:57:03	190270	60fcefe49e61a0aa689df3c8	4	1	main_z	7	main_z	9	stimuli_distractor_trianglediamonds.svg	stimuli_target_squaretriangles.svg	11	yes	44	1	491	0	0			0	0			1				0	
6.6.1	win	2023-07-06	23:53:50	23:57:03	190270	60fcefe49e61a0aa689df3c8	4	1	main_z	7	advance_on_keypress_ZEE	10	stimuli_distractor_trianglediamonds.svg	stimuli_target_squaretriangles.svg	11	yes	57	0	453	0	0			0	0			1				0	
6.6.1	win	2023-07-06	23:53:50	23:57:04	191869	60fcefe49e61a0aa689df3c8	4	1	main_z	7	main_z	11	stimuli_target_squaretriangles.svg	stimuli_distractor_diamondtriangles.svg	7	yes	44	1	507	0	0			0	0			1				0	
6.6.1	win	2023-07-06	23:53:50	23:57:04	191869	60fcefe49e61a0aa689df3c8	4	1	main_z	7	advance_on_keypress_ZEE	12	stimuli_target_squaretriangles.svg	stimuli_distractor_diamondtriangles.svg	7	yes	57	0	285	0	0			0	0			1				0	
6.6.1	win	2023-07-06	23:53:50	23:57:06	193173	60fcefe49e61a0aa689df3c8	4	1	main_z	7	main_z	13	stimuli_distractor_trianglediamonds.svg	stimuli_target_rectanglediamonds.svg	10	yes	44	1	402	0	0			0	0			1				0	
6.6.1	win	2023-07-06	23:53:50	23:57:06	193173	60fcefe49e61a0aa689df3c8	4	1	main_z	7	advance_on_keypress_ZEE	14	stimuli_distractor_trianglediamonds.svg	stimuli_target_rectanglediamonds.svg	10	yes	57	0	291	0	0			0	0			1				0	
6.6.1	win	2023-07-06	23:53:50	23:57:08	196110	60fcefe49e61a0aa689df3c8	4	1	main_z	7	main_z	15	stimuli_target_diamondsquares.svg	stimuli_distractor_trianglediamonds.svg	20	yes	0	0	2000	0	0			0	0			1				0	
6.6.1	win	2023-07-06	23:53:50	23:57:08	196110	60fcefe49e61a0aa689df3c8	4	1	main_z	7	advance_on_keypress_ZEE	16	stimuli_target_diamondsquares.svg	stimuli_distractor_trianglediamonds.svg	20	yes	57	0	230	0	0			0	0			1				0	
6.6.1	win	2023-07-06	23:53:50	23:57:11	198986	60fcefe49e61a0aa689df3c8	4	1	main_z	7	main_z	17	stimuli_distractor_trianglediamonds.svg	stimuli_target_diamondsquares.svg	28	yes	0	0	2000	0	0			0	0			1				0	
6.6.1	win	2023-07-06	23:53:50	23:57:11	198986	60fcefe49e61a0aa689df3c8	4	1	main_z	7	advance_on_keypress_ZEE	18	stimuli_distractor_trianglediamonds.svg	stimuli_target_diamondsquares.svg	28	yes	57	0	262	0	0			0	0			1				0	
6.6.1	win	2023-07-06	23:53:50	23:57:14	201881	60fcefe49e61a0aa689df3c8	4	1	main_z	7	main_z	19	stimuli_distractor_diamondtriangles.svg	stimuli_distractor_diamondtriangles.svg	39	no	0	1	2000	0	0			0	0			1				0	
6.6.1	win	2023-07-06	23:53:50	23:57:14	201881	60fcefe49e61a0aa689df3c8	4	1	main_z	7	advance_on_keypress_ZEE	20	stimuli_distractor_diamondtriangles.svg	stimuli_distractor_diamondtriangles.svg	39	no	57	0	269	0	0			0	0			1				0	
6.6.1	win	2023-07-06	23:53:50	23:57:17	204772	60fcefe49e61a0aa689df3c8	4	1	main_z	7	main_z	21	stimuli_target_trianglerectangles.svg	stimuli_distractor_diamondtriangles.svg	21	yes	0	0	2000	0	0			0	0			1				0	
6.6.1	win	2023-07-06	23:53:50	23:57:17	204772	60fcefe49e61a0aa689df3c8	4	1	main_z	7	advance_on_keypress_ZEE	22	stimuli_target_trianglerectangles.svg	stimuli_distractor_diamondtriangles.svg	21	yes	57	0	325	0	0			0	0			1				0	
6.6.1	win	2023-07-06	23:53:50	23:57:19	206162	60fcefe49e61a0aa689df3c8	4	1	main_z	7	main_z	23	stimuli_distractor_diamondtriangles.svg	stimuli_target_squarediamonds.svg	16	yes	44	1	425	0	0			0	0			1				0	
6.6.1	win	2023-07-06	23:53:50	23:57:19	206162	60fcefe49e61a0aa689df3c8	4	1	main_z	7	advance_on_keypress_ZEE	24	stimuli_distractor_diamondtriangles.svg	stimuli_target_squarediamonds.svg	16	yes	57	0	433	0	0			0	0			1				0	
6.6.1	win	2023-07-06	23:53:50	23:57:22	209238	60fcefe49e61a0aa689df3c8	4	1	main_z	7	main_z	25	stimuli_distractor_trianglediamonds.svg	stimuli_target_diamondrectangles.svg	27	yes	0	0	2000	0	0			0	0			1				0	
6.6.1	win	2023-07-06	23:53:50	23:57:22	209238	60fcefe49e61a0aa689df3c8	4	1	main_z	7	advance_on_keypress_ZEE	26	stimuli_distractor_trianglediamonds.svg	stimuli_target_diamondrectangles.svg	27	yes	57	0	243	0	0			0	0			1				0	
6.6.1	win	2023-07-06	23:53:50	23:57:23	210855	60fcefe49e61a0aa689df3c8	4	1	main_z	7	main_z	27	stimuli_target_trianglesquares.svg	stimuli_distractor_trianglediamonds.svg	18	yes	44	1	726	0	0			0	0			1				0	
6.6.1	win	2023-07-06	23:53:50	23:57:23	210855	60fcefe49e61a0aa689df3c8	4	1	main_z	7	advance_on_keypress_ZEE	28	stimuli_target_trianglesquares.svg	stimuli_distractor_trianglediamonds.svg	18	yes	57	0	356	0	0			0	0			1				0	
6.6.1	win	2023-07-06	23:53:50	23:57:25	212485	60fcefe49e61a0aa689df3c8	4	1	main_z	7	main_z	29	stimuli_target_trianglerectangles.svg	stimuli_distractor_trianglediamonds.svg	17	yes	44	1	647	0	0			0	0			1				0	
6.6.1	win	2023-07-06	23:53:50	23:57:25	212485	60fcefe49e61a0aa689df3c8	4	1	main_z	7	advance_on_keypress_ZEE	30	stimuli_target_trianglerectangles.svg	stimuli_distractor_trianglediamonds.svg	17	yes	57	0	273	0	0			0	0			1				0	
6.6.1	win	2023-07-06	23:53:50	23:57:28	215372	60fcefe49e61a0aa689df3c8	4	1	main_z	7	main_z	31	stimuli_target_rectangletriangles.svg	stimuli_distractor_diamondtriangles.svg	5	yes	0	0	2000	0	0			0	0			1				0	
6.6.1	win	2023-07-06	23:53:50	23:57:28	215372	60fcefe49e61a0aa689df3c8	4	1	main_z	7	advance_on_keypress_ZEE	32	stimuli_target_rectangletriangles.svg	stimuli_distractor_diamondtriangles.svg	5	yes	57	0	263	0	0			0	0			1				0	
6.6.1	win	2023-07-06	23:53:50	23:57:30	217440	60fcefe49e61a0aa689df3c8	4	1	main_z	7	main_z	33	stimuli_distractor_trianglediamonds.svg	stimuli_distractor_diamondtriangles.svg	36	no	44	0	1166	0	0			0	0			1				0	
6.6.1	win	2023-07-06	23:53:50	23:57:30	217440	60fcefe49e61a0aa689df3c8	4	1	main_z	7	advance_on_keypress_ZEE	34	stimuli_distractor_trianglediamonds.svg	stimuli_distractor_diamondtriangles.svg	36	no	57	0	521	0	0			0	0			1				0	
6.6.1	win	2023-07-06	23:53:50	23:57:33	220610	60fcefe49e61a0aa689df3c8	4	1	main_z	7	main_z	35	stimuli_target_diamondrectangles.svg	stimuli_distractor_diamondtriangles.svg	23	yes	0	0	2000	0	0			0	0			1				0	
6.6.1	win	2023-07-06	23:53:50	23:57:33	220610	60fcefe49e61a0aa689df3c8	4	1	main_z	7	advance_on_keypress_ZEE	36	stimuli_target_diamondrectangles.svg	stimuli_distractor_diamondtriangles.svg	23	yes	57	0	250	0	0			0	0			1				0	
6.6.1	win	2023-07-06	23:53:50	23:57:34	221952	60fcefe49e61a0aa689df3c8	4	1	main_z	7	main_z	37	stimuli_target_rectanglediamonds.svg	stimuli_distractor_diamondtriangles.svg	6	yes	44	1	452	0	0			0	0			1				0	
6.6.1	win	2023-07-06	23:53:50	23:57:34	221952	60fcefe49e61a0aa689df3c8	4	1	main_z	7	advance_on_keypress_ZEE	38	stimuli_target_rectanglediamonds.svg	stimuli_distractor_diamondtriangles.svg	6	yes	57	0	338	0	0			0	0			1				0	
6.6.1	win	2023-07-06	23:53:50	23:57:37	224139	60fcefe49e61a0aa689df3c8	4	1	main_z	7	main_z	39	stimuli_distractor_diamondtriangles.svg	stimuli_target_trianglesquares.svg	30	yes	44	1	1204	0	0			0	0			1				0	
6.6.1	win	2023-07-06	23:53:50	23:57:37	224139	60fcefe49e61a0aa689df3c8	4	1	main_z	7	advance_on_keypress_ZEE	40	stimuli_distractor_diamondtriangles.svg	stimuli_target_trianglesquares.svg	30	yes	57	0	469	0	0			0	0			1				0	
6.6.1	win	2023-07-06	23:53:50	23:57:38	226063	60fcefe49e61a0aa689df3c8	4	1	main_z	7	main_z	41	stimuli_target_diamondsquares.svg	stimuli_distractor_diamondtriangles.svg	24	yes	44	1	807	0	0			0	0			1				0	
6.6.1	win	2023-07-06	23:53:50	23:57:38	226063	60fcefe49e61a0aa689df3c8	4	1	main_z	7	advance_on_keypress_ZEE	42	stimuli_target_diamondsquares.svg	stimuli_distractor_diamondtriangles.svg	24	yes	57	0	399	0	0			0	0			1				0	
6.6.1	win	2023-07-06	23:53:50	23:57:41	229088	60fcefe49e61a0aa689df3c8	4	1	main_z	7	main_z	43	stimuli_distractor_diamondtriangles.svg	stimuli_target_rectangletriangles.svg	13	yes	0	0	2000	0	0			0	0			1				0	
6.6.1	win	2023-07-06	23:53:50	23:57:41	229088	60fcefe49e61a0aa689df3c8	4	1	main_z	7	advance_on_keypress_ZEE	44	stimuli_distractor_diamondtriangles.svg	stimuli_target_rectangletriangles.svg	13	yes	57	0	207	0	0			0	0			1				0	
6.6.1	win	2023-07-06	23:53:50	23:57:43	230515	60fcefe49e61a0aa689df3c8	4	1	main_z	7	main_z	45	stimuli_distractor_trianglediamonds.svg	stimuli_target_squarediamonds.svg	12	yes	44	1	581	0	0			0	0			1				0	
6.6.1	win	2023-07-06	23:53:50	23:57:43	230515	60fcefe49e61a0aa689df3c8	4	1	main_z	7	advance_on_keypress_ZEE	46	stimuli_distractor_trianglediamonds.svg	stimuli_target_squarediamonds.svg	12	yes	57	0	684	0	0			0	0			1				0	
6.6.1	win	2023-07-06	23:53:50	23:57:45	232526	60fcefe49e61a0aa689df3c8	4	1	main_z	7	main_z	47	stimuli_distractor_diamondtriangles.svg	stimuli_target_diamondrectangles.svg	31	yes	44	1	692	0	0			0	0			1				0	
6.6.1	win	2023-07-06	23:53:50	23:57:45	232526	60fcefe49e61a0aa689df3c8	4	1	main_z	7	advance_on_keypress_ZEE	48	stimuli_distractor_diamondtriangles.svg	stimuli_target_diamondrectangles.svg	31	yes	57	0	213	0	0			0	0			1				0	
6.6.1	win	2023-07-06	23:53:50	23:57:48	235377	60fcefe49e61a0aa689df3c8	4	1	main_z	7	main_z	49	stimuli_distractor_diamondtriangles.svg	stimuli_distractor_trianglediamonds.svg	38	no	0	1	2000	0	0			0	0			1				0	
6.6.1	win	2023-07-06	23:53:50	23:57:48	235377	60fcefe49e61a0aa689df3c8	4	1	main_z	7	advance_on_keypress_ZEE	50	stimuli_distractor_diamondtriangles.svg	stimuli_distractor_trianglediamonds.svg	38	no	57	0	499	0	0			0	0			1				0	
6.6.1	win	2023-07-06	23:53:50	23:57:50	237798	60fcefe49e61a0aa689df3c8	4	1	main_z	7	main_z	51	stimuli_distractor_trianglediamonds.svg	stimuli_target_trianglesquares.svg	26	yes	44	1	1286	0	0			0	0			1				0	
6.6.1	win	2023-07-06	23:53:50	23:57:50	237798	60fcefe49e61a0aa689df3c8	4	1	main_z	7	advance_on_keypress_ZEE	52	stimuli_distractor_trianglediamonds.svg	stimuli_target_trianglesquares.svg	26	yes	57	0	280	0	0			0	0			1				0	
6.6.1	win	2023-07-06	23:53:50	23:57:53	240732	60fcefe49e61a0aa689df3c8	4	1	main_z	7	main_z	53	stimuli_target_rectanglediamonds.svg	stimuli_distractor_trianglediamonds.svg	2	yes	0	0	2000	0	0			0	0			1				0	
6.6.1	win	2023-07-06	23:53:50	23:57:53	240732	60fcefe49e61a0aa689df3c8	4	1	main_z	7	advance_on_keypress_ZEE	54	stimuli_target_rectanglediamonds.svg	stimuli_distractor_trianglediamonds.svg	2	yes	57	0	368	0	0			0	0			1				0	
6.6.1	win	2023-07-06	23:53:50	23:57:56	243734	60fcefe49e61a0aa689df3c8	4	1	main_z	7	main_z	55	stimuli_distractor_trianglediamonds.svg	stimuli_target_trianglerectangles.svg	25	yes	0	0	2000	0	0			0	0			1				0	
6.6.1	win	2023-07-06	23:53:50	23:57:56	243734	60fcefe49e61a0aa689df3c8	4	1	main_z	7	advance_on_keypress_ZEE	56	stimuli_distractor_trianglediamonds.svg	stimuli_target_trianglerectangles.svg	25	yes	57	0	257	0	0			0	0			1				0	
6.6.1	win	2023-07-06	23:53:50	23:57:59	246629	60fcefe49e61a0aa689df3c8	4	1	main_z	7	main_z	57	stimuli_distractor_diamondtriangles.svg	stimuli_distractor_trianglediamonds.svg	37	no	0	1	2000	0	0			0	0			1				0	
6.6.1	win	2023-07-06	23:53:50	23:57:59	246629	60fcefe49e61a0aa689df3c8	4	1	main_z	7	advance_on_keypress_ZEE	58	stimuli_distractor_diamondtriangles.svg	stimuli_distractor_trianglediamonds.svg	37	no	57	0	277	0	0			0	0			1				0	
6.6.1	win	2023-07-06	23:53:50	23:58:02	249538	60fcefe49e61a0aa689df3c8	4	1	main_z	7	main_z	59	stimuli_distractor_trianglediamonds.svg	stimuli_distractor_trianglediamonds.svg	33	no	0	1	2000	0	0			0	0			1				0	
6.6.1	win	2023-07-06	23:53:50	23:58:02	249538	60fcefe49e61a0aa689df3c8	4	1	main_z	7	advance_on_keypress_ZEE	60	stimuli_distractor_trianglediamonds.svg	stimuli_distractor_trianglediamonds.svg	33	no	57	0	35	0	0			0	0			1				0	
6.6.1	win	2023-07-06	23:53:50	23:58:03	250621	60fcefe49e61a0aa689df3c8	4	1	main_z	7	main_z	61	stimuli_target_rectangletriangles.svg	stimuli_distractor_trianglediamonds.svg	1	yes	44	1	415	0	0			0	0			1				0	
6.6.1	win	2023-07-06	23:53:50	23:58:03	250621	60fcefe49e61a0aa689df3c8	4	1	main_z	7	advance_on_keypress_ZEE	62	stimuli_target_rectangletriangles.svg	stimuli_distractor_trianglediamonds.svg	1	yes	57	0	290	0	0			0	0			1				0	
6.6.1	win	2023-07-06	23:53:50	23:58:04	252062	60fcefe49e61a0aa689df3c8	4	1	main_z	7	main_z	63	stimuli_distractor_diamondtriangles.svg	stimuli_target_squaretriangles.svg	15	yes	44	1	521	0	0			0	0			1				0	
6.6.1	win	2023-07-06	23:53:50	23:58:04	252062	60fcefe49e61a0aa689df3c8	4	1	main_z	7	advance_on_keypress_ZEE	64	stimuli_distractor_diamondtriangles.svg	stimuli_target_squaretriangles.svg	15	yes	57	0	220	0	0			0	0			1				0	
6.6.1	win	2023-07-06	23:53:50	23:58:06	253811	60fcefe49e61a0aa689df3c8	4	1	main_z	7	main_z	65	stimuli_distractor_diamondtriangles.svg	stimuli_target_trianglerectangles.svg	29	yes	44	1	890	0	0			0	0			1				0	
6.6.1	win	2023-07-06	23:53:50	23:58:06	253811	60fcefe49e61a0aa689df3c8	4	1	main_z	7	advance_on_keypress_ZEE	66	stimuli_distractor_diamondtriangles.svg	stimuli_target_trianglerectangles.svg	29	yes	57	0	164	0	0			0	0			1				0	
6.6.1	win	2023-07-06	23:53:50	23:58:08	255425	60fcefe49e61a0aa689df3c8	4	1	main_z	7	main_z	67	stimuli_target_diamondrectangles.svg	stimuli_distractor_trianglediamonds.svg	19	yes	44	1	819	0	0			0	0			1				0	
6.6.1	win	2023-07-06	23:53:50	23:58:08	255425	60fcefe49e61a0aa689df3c8	4	1	main_z	7	advance_on_keypress_ZEE	68	stimuli_target_diamondrectangles.svg	stimuli_distractor_trianglediamonds.svg	19	yes	57	0	172	0	0			0	0			1				0	
6.6.1	win	2023-07-06	23:53:50	23:58:09	257052	60fcefe49e61a0aa689df3c8	4	1	main_z	7	main_z	69	stimuli_distractor_trianglediamonds.svg	stimuli_distractor_diamondtriangles.svg	35	no	44	0	809	0	0			0	0			1				0	
6.6.1	win	2023-07-06	23:53:50	23:58:09	257052	60fcefe49e61a0aa689df3c8	4	1	main_z	7	advance_on_keypress_ZEE	70	stimuli_distractor_trianglediamonds.svg	stimuli_distractor_diamondtriangles.svg	35	no	57	0	599	0	0			0	0			1				0	
6.6.1	win	2023-07-06	23:53:50	23:58:13	260285	60fcefe49e61a0aa689df3c8	4	1	main_z	7	main_z	71	stimuli_distractor_trianglediamonds.svg	stimuli_target_rectangletriangles.svg	9	yes	0	0	2000	0	0			0	0			1				0	
6.6.1	win	2023-07-06	23:53:50	23:58:13	260285	60fcefe49e61a0aa689df3c8	4	1	main_z	7	advance_on_keypress_ZEE	72	stimuli_distractor_trianglediamonds.svg	stimuli_target_rectangletriangles.svg	9	yes	57	0	389	0	0			0	0			1				0	
6.6.1	win	2023-07-06	23:53:50	23:58:14	261869	60fcefe49e61a0aa689df3c8	4	1	main_z	7	main_z	73	stimuli_distractor_diamondtriangles.svg	stimuli_target_rectanglediamonds.svg	14	yes	44	1	557	0	0			0	0			1				0	
6.6.1	win	2023-07-06	23:53:50	23:58:14	261869	60fcefe49e61a0aa689df3c8	4	1	main_z	7	advance_on_keypress_ZEE	74	stimuli_distractor_diamondtriangles.svg	stimuli_target_rectanglediamonds.svg	14	yes	57	0	178	0	0			0	0			1				0	
6.6.1	win	2023-07-06	23:53:50	23:58:16	263207	60fcefe49e61a0aa689df3c8	4	1	main_z	7	main_z	75	stimuli_target_squaretriangles.svg	stimuli_distractor_trianglediamonds.svg	3	yes	44	1	534	0	0			0	0			1				0	
6.6.1	win	2023-07-06	23:53:50	23:58:16	263207	60fcefe49e61a0aa689df3c8	4	1	main_z	7	advance_on_keypress_ZEE	76	stimuli_target_squaretriangles.svg	stimuli_distractor_trianglediamonds.svg	3	yes	57	0	232	0	0			0	0			1				0	
6.6.1	win	2023-07-06	23:53:50	23:58:17	264683	60fcefe49e61a0aa689df3c8	4	1	main_z	7	main_z	77	stimuli_target_squarediamonds.svg	stimuli_distractor_trianglediamonds.svg	4	yes	44	1	610	0	0			0	0			1				0	
6.6.1	win	2023-07-06	23:53:50	23:58:17	264683	60fcefe49e61a0aa689df3c8	4	1	main_z	7	advance_on_keypress_ZEE	78	stimuli_target_squarediamonds.svg	stimuli_distractor_trianglediamonds.svg	4	yes	57	0	483	0	0			0	0			1				0	
6.6.1	win	2023-07-06	23:53:50	23:58:20	267788	60fcefe49e61a0aa689df3c8	4	1	main_z	7	main_z	79	stimuli_distractor_diamondtriangles.svg	stimuli_target_diamondsquares.svg	32	yes	0	0	2000	0	0			0	0			1				0	
6.6.1	win	2023-07-06	23:53:50	23:58:20	267788	60fcefe49e61a0aa689df3c8	4	1	main_z	7	advance_on_keypress_ZEE	80	stimuli_distractor_diamondtriangles.svg	stimuli_target_diamondsquares.svg	32	yes	57	0	459	0	0			0	0			1				0	
6.6.1	win	2023-07-06	23:53:50	23:58:23	270879	60fcefe49e61a0aa689df3c8	4	1	main_z	7	main_z	81	stimuli_distractor_trianglediamonds.svg	stimuli_target_trianglerectangles.svg	25	yes	0	0	2000	0	0			0	0			1				0	
6.6.1	win	2023-07-06	23:53:50	23:58:23	270879	60fcefe49e61a0aa689df3c8	4	1	main_z	7	advance_on_keypress_ZEE	82	stimuli_distractor_trianglediamonds.svg	stimuli_target_trianglerectangles.svg	25	yes	57	0	255	0	0			0	0			1				0	
6.6.1	win	2023-07-06	23:53:50	23:58:25	272238	60fcefe49e61a0aa689df3c8	4	1	main_z	7	main_z	83	stimuli_target_trianglesquares.svg	stimuli_distractor_trianglediamonds.svg	18	yes	44	1	453	0	0			0	0			1				0	
6.6.1	win	2023-07-06	23:53:50	23:58:25	272238	60fcefe49e61a0aa689df3c8	4	1	main_z	7	advance_on_keypress_ZEE	84	stimuli_target_trianglesquares.svg	stimuli_distractor_trianglediamonds.svg	18	yes	57	0	470	0	0			0	0			1				0	
6.6.1	win	2023-07-06	23:53:50	23:58:26	273830	60fcefe49e61a0aa689df3c8	4	1	main_z	7	main_z	85	stimuli_target_squaretriangles.svg	stimuli_distractor_trianglediamonds.svg	3	yes	44	1	483	0	0			0	0			1				0	
6.6.1	win	2023-07-06	23:53:50	23:58:26	273830	60fcefe49e61a0aa689df3c8	4	1	main_z	7	advance_on_keypress_ZEE	86	stimuli_target_squaretriangles.svg	stimuli_distractor_trianglediamonds.svg	3	yes	57	0	190	0	0			0	0			1				0	
6.6.1	win	2023-07-06	23:53:50	23:58:28	275160	60fcefe49e61a0aa689df3c8	4	1	main_z	7	main_z	87	stimuli_target_rectanglediamonds.svg	stimuli_distractor_diamondtriangles.svg	6	yes	44	1	506	0	0			0	0			1				0	
6.6.1	win	2023-07-06	23:53:50	23:58:28	275160	60fcefe49e61a0aa689df3c8	4	1	main_z	7	advance_on_keypress_ZEE	88	stimuli_target_rectanglediamonds.svg	stimuli_distractor_diamondtriangles.svg	6	yes	57	0	245	0	0			0	0			1				0	
6.6.1	win	2023-07-06	23:53:50	23:58:29	276547	60fcefe49e61a0aa689df3c8	4	1	main_z	7	main_z	89	stimuli_distractor_trianglediamonds.svg	stimuli_target_trianglesquares.svg	26	yes	44	1	502	0	0			0	0			1				0	
6.6.1	win	2023-07-06	23:53:50	23:58:29	276547	60fcefe49e61a0aa689df3c8	4	1	main_z	7	advance_on_keypress_ZEE	90	stimuli_distractor_trianglediamonds.svg	stimuli_target_trianglesquares.svg	26	yes	57	0	295	0	0			0	0			1				0	
6.6.1	win	2023-07-06	23:53:50	23:58:31	278134	60fcefe49e61a0aa689df3c8	4	1	main_z	7	main_z	91	stimuli_target_trianglesquares.svg	stimuli_distractor_diamondtriangles.svg	22	yes	44	1	641	0	0			0	0			1				0	
6.6.1	win	2023-07-06	23:53:50	23:58:31	278134	60fcefe49e61a0aa689df3c8	4	1	main_z	7	advance_on_keypress_ZEE	92	stimuli_target_trianglesquares.svg	stimuli_distractor_diamondtriangles.svg	22	yes	57	0	258	0	0			0	0			1				0	
6.6.1	win	2023-07-06	23:53:50	23:58:33	281029	60fcefe49e61a0aa689df3c8	4	1	main_z	7	main_z	93	stimuli_distractor_trianglediamonds.svg	stimuli_distractor_diamondtriangles.svg	36	no	0	1	2000	0	0			0	0			1				0	
6.6.1	win	2023-07-06	23:53:50	23:58:33	281029	60fcefe49e61a0aa689df3c8	4	1	main_z	7	advance_on_keypress_ZEE	94	stimuli_distractor_trianglediamonds.svg	stimuli_distractor_diamondtriangles.svg	36	no	57	0	438	0	0			0	0			1				0	
6.6.1	win	2023-07-06	23:53:50	23:58:36	283243	60fcefe49e61a0aa689df3c8	4	1	main_z	7	main_z	95	stimuli_target_trianglerectangles.svg	stimuli_distractor_diamondtriangles.svg	21	yes	44	1	1139	0	0			0	0			1				0	
6.6.1	win	2023-07-06	23:53:50	23:58:36	283243	60fcefe49e61a0aa689df3c8	4	1	main_z	7	advance_on_keypress_ZEE	96	stimuli_target_trianglerectangles.svg	stimuli_distractor_diamondtriangles.svg	21	yes	57	0	457	0	0			0	0			1				0	
6.6.1	win	2023-07-06	23:53:50	23:58:37	284812	60fcefe49e61a0aa689df3c8	4	1	main_z	7	main_z	97	stimuli_target_squarediamonds.svg	stimuli_distractor_trianglediamonds.svg	4	yes	44	1	491	0	0			0	0			1				0	
6.6.1	win	2023-07-06	23:53:50	23:58:37	284812	60fcefe49e61a0aa689df3c8	4	1	main_z	7	advance_on_keypress_ZEE	98	stimuli_target_squarediamonds.svg	stimuli_distractor_trianglediamonds.svg	4	yes	57	0	230	0	0			0	0			1				0	
6.6.1	win	2023-07-06	23:53:50	23:58:38	286121	60fcefe49e61a0aa689df3c8	4	1	main_z	7	main_z	99	stimuli_target_rectangletriangles.svg	stimuli_distractor_diamondtriangles.svg	5	yes	44	1	449	0	0			0	0			1				0	
6.6.1	win	2023-07-06	23:53:50	23:58:38	286121	60fcefe49e61a0aa689df3c8	4	1	main_z	7	advance_on_keypress_ZEE	100	stimuli_target_rectangletriangles.svg	stimuli_distractor_diamondtriangles.svg	5	yes	57	0	166	0	0			0	0			1				0	
6.6.1	win	2023-07-06	23:53:50	23:58:40	287292	60fcefe49e61a0aa689df3c8	4	1	main_z	7	main_z	101	stimuli_target_squaretriangles.svg	stimuli_distractor_diamondtriangles.svg	7	yes	44	1	366	0	0			0	0			1				0	
6.6.1	win	2023-07-06	23:53:50	23:58:40	287292	60fcefe49e61a0aa689df3c8	4	1	main_z	7	advance_on_keypress_ZEE	102	stimuli_target_squaretriangles.svg	stimuli_distractor_diamondtriangles.svg	7	yes	57	0	137	0	0			0	0			1				0	
6.6.1	win	2023-07-06	23:53:50	23:58:42	290050	60fcefe49e61a0aa689df3c8	4	1	main_z	7	main_z	103	stimuli_target_diamondrectangles.svg	stimuli_distractor_diamondtriangles.svg	23	yes	0	0	2000	0	0			0	0			1				0	
6.6.1	win	2023-07-06	23:53:50	23:58:42	290050	60fcefe49e61a0aa689df3c8	4	1	main_z	7	advance_on_keypress_ZEE	104	stimuli_target_diamondrectangles.svg	stimuli_distractor_diamondtriangles.svg	23	yes	57	0	479	0	0			0	0			1				0	
6.6.1	win	2023-07-06	23:53:50	23:58:44	291282	60fcefe49e61a0aa689df3c8	4	1	main_z	7	main_z	105	stimuli_distractor_trianglediamonds.svg	stimuli_target_diamondrectangles.svg	27	yes	44	1	111	0	0			0	0			1				0	
6.6.1	win	2023-07-06	23:53:50	23:58:44	291282	60fcefe49e61a0aa689df3c8	4	1	main_z	7	advance_on_keypress_ZEE	106	stimuli_distractor_trianglediamonds.svg	stimuli_target_diamondrectangles.svg	27	yes	57	0	910	0	0			0	0			1				0	
6.6.1	win	2023-07-06	23:53:50	23:58:46	293591	60fcefe49e61a0aa689df3c8	4	1	main_z	7	main_z	107	stimuli_target_diamondrectangles.svg	stimuli_distractor_trianglediamonds.svg	19	yes	44	1	770	0	0			0	0			1				0	
6.6.1	win	2023-07-06	23:53:50	23:58:46	293591	60fcefe49e61a0aa689df3c8	4	1	main_z	7	advance_on_keypress_ZEE	108	stimuli_target_diamondrectangles.svg	stimuli_distractor_trianglediamonds.svg	19	yes	57	0	267	0	0			0	0			1				0	
6.6.1	win	2023-07-06	23:53:50	23:58:48	295155	60fcefe49e61a0aa689df3c8	4	1	main_z	7	main_z	109	stimuli_distractor_trianglediamonds.svg	stimuli_target_rectanglediamonds.svg	10	yes	44	1	662	0	0			0	0			1				0	
6.6.1	win	2023-07-06	23:53:50	23:58:48	295155	60fcefe49e61a0aa689df3c8	4	1	main_z	7	advance_on_keypress_ZEE	110	stimuli_distractor_trianglediamonds.svg	stimuli_target_rectanglediamonds.svg	10	yes	57	0	193	0	0			0	0			1				0	
6.6.1	win	2023-07-06	23:53:50	23:58:50	297986	60fcefe49e61a0aa689df3c8	4	1	main_z	7	main_z	111	stimuli_distractor_diamondtriangles.svg	stimuli_target_diamondrectangles.svg	31	yes	0	0	2000	0	0			0	0			1				0	
6.6.1	win	2023-07-06	23:53:50	23:58:50	297986	60fcefe49e61a0aa689df3c8	4	1	main_z	7	advance_on_keypress_ZEE	112	stimuli_distractor_diamondtriangles.svg	stimuli_target_diamondrectangles.svg	31	yes	57	0	237	0	0			0	0			1				0	
6.6.1	win	2023-07-06	23:53:50	23:58:52	299328	60fcefe49e61a0aa689df3c8	4	1	main_z	7	main_z	113	stimuli_distractor_trianglediamonds.svg	stimuli_target_rectangletriangles.svg	9	yes	44	1	452	0	0			0	0			1				0	
6.6.1	win	2023-07-06	23:53:50	23:58:52	299328	60fcefe49e61a0aa689df3c8	4	1	main_z	7	advance_on_keypress_ZEE	114	stimuli_distractor_trianglediamonds.svg	stimuli_target_rectangletriangles.svg	9	yes	57	0	252	0	0			0	0			1				0	
6.6.1	win	2023-07-06	23:53:50	23:58:53	300671	60fcefe49e61a0aa689df3c8	4	1	main_z	7	main_z	115	stimuli_distractor_diamondtriangles.svg	stimuli_target_squaretriangles.svg	15	yes	44	1	440	0	0			0	0			1				0	
6.6.1	win	2023-07-06	23:53:50	23:58:53	300671	60fcefe49e61a0aa689df3c8	4	1	main_z	7	advance_on_keypress_ZEE	116	stimuli_distractor_diamondtriangles.svg	stimuli_target_squaretriangles.svg	15	yes	57	0	184	0	0			0	0			1				0	
6.6.1	win	2023-07-06	23:53:50	23:58:54	301901	60fcefe49e61a0aa689df3c8	4	1	main_z	7	main_z	117	stimuli_distractor_diamondtriangles.svg	stimuli_target_squarediamonds.svg	16	yes	44	1	402	0	0			0	0			1				0	
6.6.1	win	2023-07-06	23:53:50	23:58:54	301901	60fcefe49e61a0aa689df3c8	4	1	main_z	7	advance_on_keypress_ZEE	118	stimuli_distractor_diamondtriangles.svg	stimuli_target_squarediamonds.svg	16	yes	57	0	188	0	0			0	0			1				0	
6.6.1	win	2023-07-06	23:53:50	23:58:55	303085	60fcefe49e61a0aa689df3c8	4	1	main_z	7	main_z	119	stimuli_target_squarediamonds.svg	stimuli_distractor_diamondtriangles.svg	8	yes	44	1	363	0	0			0	0			1				0	
6.6.1	win	2023-07-06	23:53:50	23:58:55	303085	60fcefe49e61a0aa689df3c8	4	1	main_z	7	advance_on_keypress_ZEE	120	stimuli_target_squarediamonds.svg	stimuli_distractor_diamondtriangles.svg	8	yes	57	0	269	0	0			0	0			1				0	
6.6.1	win	2023-07-06	23:53:50	23:58:57	304409	60fcefe49e61a0aa689df3c8	4	1	main_z	7	main_z	121	stimuli_distractor_diamondtriangles.svg	stimuli_target_rectanglediamonds.svg	14	yes	44	1	393	0	0			0	0			1				0	
6.6.1	win	2023-07-06	23:53:50	23:58:57	304409	60fcefe49e61a0aa689df3c8	4	1	main_z	7	advance_on_keypress_ZEE	122	stimuli_distractor_diamondtriangles.svg	stimuli_target_rectanglediamonds.svg	14	yes	57	0	137	0	0			0	0			1				0	
6.6.1	win	2023-07-06	23:53:50	23:58:59	306188	60fcefe49e61a0aa689df3c8	4	1	main_z	7	main_z	123	stimuli_distractor_trianglediamonds.svg	stimuli_target_diamondsquares.svg	28	yes	44	1	1003	0	0			0	0			1				0	
6.6.1	win	2023-07-06	23:53:50	23:58:59	306188	60fcefe49e61a0aa689df3c8	4	1	main_z	7	advance_on_keypress_ZEE	124	stimuli_distractor_trianglediamonds.svg	stimuli_target_diamondsquares.svg	28	yes	57	0	529	0	0			0	0			1				0	
6.6.1	win	2023-07-06	23:53:50	23:59:00	307760	60fcefe49e61a0aa689df3c8	4	1	main_z	7	main_z	125	stimuli_distractor_trianglediamonds.svg	stimuli_target_squaretriangles.svg	11	yes	44	1	393	0	0			0	0			1				0	
6.6.1	win	2023-07-06	23:53:50	23:59:00	307760	60fcefe49e61a0aa689df3c8	4	1	main_z	7	advance_on_keypress_ZEE	126	stimuli_distractor_trianglediamonds.svg	stimuli_target_squaretriangles.svg	11	yes	57	0	159	0	0			0	0			1				0	
6.6.1	win	2023-07-06	23:53:50	23:59:03	310548	60fcefe49e61a0aa689df3c8	4	1	main_z	7	main_z	127	stimuli_target_diamondsquares.svg	stimuli_distractor_trianglediamonds.svg	20	yes	0	0	2000	0	0			0	0			1				0	
6.6.1	win	2023-07-06	23:53:50	23:59:03	310548	60fcefe49e61a0aa689df3c8	4	1	main_z	7	advance_on_keypress_ZEE	128	stimuli_target_diamondsquares.svg	stimuli_distractor_trianglediamonds.svg	20	yes	57	0	435	0	0			0	0			1				0	
6.6.1	win	2023-07-06	23:53:50	23:59:06	313621	60fcefe49e61a0aa689df3c8	4	1	main_z	7	main_z	129	stimuli_target_diamondsquares.svg	stimuli_distractor_diamondtriangles.svg	24	yes	0	0	2000	0	0			0	0			1				0	
6.6.1	win	2023-07-06	23:53:50	23:59:06	313621	60fcefe49e61a0aa689df3c8	4	1	main_z	7	advance_on_keypress_ZEE	130	stimuli_target_diamondsquares.svg	stimuli_distractor_diamondtriangles.svg	24	yes	57	0	142	0	0			0	0			1				0	
6.6.1	win	2023-07-06	23:53:50	23:59:07	314878	60fcefe49e61a0aa689df3c8	4	1	main_z	7	main_z	131	stimuli_distractor_diamondtriangles.svg	stimuli_target_rectangletriangles.svg	13	yes	44	1	481	0	0			0	0			1				0	
6.6.1	win	2023-07-06	23:53:50	23:59:07	314878	60fcefe49e61a0aa689df3c8	4	1	main_z	7	advance_on_keypress_ZEE	132	stimuli_distractor_diamondtriangles.svg	stimuli_target_rectangletriangles.svg	13	yes	57	0	414	0	0			0	0			1				0	
6.6.1	win	2023-07-06	23:53:50	23:59:10	317940	60fcefe49e61a0aa689df3c8	4	1	main_z	7	main_z	133	stimuli_distractor_trianglediamonds.svg	stimuli_distractor_diamondtriangles.svg	35	no	0	1	2000	0	0			0	0			1				0	
6.6.1	win	2023-07-06	23:53:50	23:59:10	317940	60fcefe49e61a0aa689df3c8	4	1	main_z	7	advance_on_keypress_ZEE	134	stimuli_distractor_trianglediamonds.svg	stimuli_distractor_diamondtriangles.svg	35	no	57	0	308	0	0			0	0			1				0	
6.6.1	win	2023-07-06	23:53:50	23:59:12	319347	60fcefe49e61a0aa689df3c8	4	1	main_z	7	main_z	135	stimuli_target_rectangletriangles.svg	stimuli_distractor_trianglediamonds.svg	1	yes	44	1	452	0	0			0	0			1				0	
6.6.1	win	2023-07-06	23:53:50	23:59:12	319347	60fcefe49e61a0aa689df3c8	4	1	main_z	7	advance_on_keypress_ZEE	136	stimuli_target_rectangletriangles.svg	stimuli_distractor_trianglediamonds.svg	1	yes	57	0	221	0	0			0	0			1				0	
6.6.1	win	2023-07-06	23:53:50	23:59:14	321174	60fcefe49e61a0aa689df3c8	4	1	main_z	7	main_z	137	stimuli_distractor_diamondtriangles.svg	stimuli_target_diamondsquares.svg	32	yes	44	1	960	0	0			0	0			1				0	
6.6.1	win	2023-07-06	23:53:50	23:59:14	321174	60fcefe49e61a0aa689df3c8	4	1	main_z	7	advance_on_keypress_ZEE	138	stimuli_distractor_diamondtriangles.svg	stimuli_target_diamondsquares.svg	32	yes	57	0	450	0	0			0	0			1				0	
6.6.1	win	2023-07-06	23:53:50	23:59:17	324269	60fcefe49e61a0aa689df3c8	4	1	main_z	7	main_z	139	stimuli_distractor_trianglediamonds.svg	stimuli_distractor_trianglediamonds.svg	34	no	0	1	2000	0	0			0	0			1				0	
6.6.1	win	2023-07-06	23:53:50	23:59:17	324269	60fcefe49e61a0aa689df3c8	4	1	main_z	7	advance_on_keypress_ZEE	140	stimuli_distractor_trianglediamonds.svg	stimuli_distractor_trianglediamonds.svg	34	no	57	0	499	0	0			0	0			1				0	
6.6.1	win	2023-07-06	23:53:50	23:59:20	327407	60fcefe49e61a0aa689df3c8	4	1	main_z	7	main_z	141	stimuli_target_trianglerectangles.svg	stimuli_distractor_trianglediamonds.svg	17	yes	0	0	2000	0	0			0	0			1				0	
6.6.1	win	2023-07-06	23:53:50	23:59:20	327407	60fcefe49e61a0aa689df3c8	4	1	main_z	7	advance_on_keypress_ZEE	142	stimuli_target_trianglerectangles.svg	stimuli_distractor_trianglediamonds.svg	17	yes	57	0	433	0	0			0	0			1				0	
6.6.1	win	2023-07-06	23:53:50	23:59:22	329307	60fcefe49e61a0aa689df3c8	4	1	main_z	7	main_z	143	stimuli_distractor_diamondtriangles.svg	stimuli_target_trianglerectangles.svg	29	yes	44	1	835	0	0			0	0			1				0	
6.6.1	win	2023-07-06	23:53:50	23:59:22	329307	60fcefe49e61a0aa689df3c8	4	1	main_z	7	advance_on_keypress_ZEE	144	stimuli_distractor_diamondtriangles.svg	stimuli_target_trianglerectangles.svg	29	yes	57	0	370	0	0			0	0			1				0	
6.6.1	win	2023-07-06	23:53:50	23:59:25	332298	60fcefe49e61a0aa689df3c8	4	1	main_z	7	main_z	145	stimuli_distractor_diamondtriangles.svg	stimuli_distractor_diamondtriangles.svg	39	no	0	1	2000	0	0			0	0			1				0	
6.6.1	win	2023-07-06	23:53:50	23:59:25	332298	60fcefe49e61a0aa689df3c8	4	1	main_z	7	advance_on_keypress_ZEE	146	stimuli_distractor_diamondtriangles.svg	stimuli_distractor_diamondtriangles.svg	39	no	57	0	257	0	0			0	0			1				0	
6.6.1	win	2023-07-06	23:53:50	23:59:28	335179	60fcefe49e61a0aa689df3c8	4	1	main_z	7	main_z	147	stimuli_distractor_diamondtriangles.svg	stimuli_distractor_trianglediamonds.svg	37	no	0	1	2000	0	0			0	0			1				0	
6.6.1	win	2023-07-06	23:53:50	23:59:28	335179	60fcefe49e61a0aa689df3c8	4	1	main_z	7	advance_on_keypress_ZEE	148	stimuli_distractor_diamondtriangles.svg	stimuli_distractor_trianglediamonds.svg	37	no	57	0	432	0	0			0	0			1				0	
6.6.1	win	2023-07-06	23:53:50	23:59:31	338266	60fcefe49e61a0aa689df3c8	4	1	main_z	7	main_z	149	stimuli_distractor_diamondtriangles.svg	stimuli_distractor_trianglediamonds.svg	38	no	0	1	2000	0	0			0	0			1				0	
6.6.1	win	2023-07-06	23:53:50	23:59:31	338266	60fcefe49e61a0aa689df3c8	4	1	main_z	7	advance_on_keypress_ZEE	150	stimuli_distractor_diamondtriangles.svg	stimuli_distractor_trianglediamonds.svg	38	no	57	0	50	0	0			0	0			1				0	
6.6.1	win	2023-07-06	23:53:50	23:59:33	340953	60fcefe49e61a0aa689df3c8	4	1	main_z	7	main_z	151	stimuli_distractor_trianglediamonds.svg	stimuli_distractor_trianglediamonds.svg	33	no	0	1	2000	0	0			0	0			1				0	
6.6.1	win	2023-07-06	23:53:50	23:59:33	340953	60fcefe49e61a0aa689df3c8	4	1	main_z	7	advance_on_keypress_ZEE	152	stimuli_distractor_trianglediamonds.svg	stimuli_distractor_trianglediamonds.svg	33	no	57	0	297	0	0			0	0			1				0	
6.6.1	win	2023-07-06	23:53:50	23:59:35	342348	60fcefe49e61a0aa689df3c8	4	1	main_z	7	main_z	153	stimuli_target_rectanglediamonds.svg	stimuli_distractor_trianglediamonds.svg	2	yes	44	1	458	0	0			0	0			1				0	
6.6.1	win	2023-07-06	23:53:50	23:59:35	342348	60fcefe49e61a0aa689df3c8	4	1	main_z	7	advance_on_keypress_ZEE	154	stimuli_target_rectanglediamonds.svg	stimuli_distractor_trianglediamonds.svg	2	yes	57	0	245	0	0			0	0			1				0	
6.6.1	win	2023-07-06	23:53:50	23:59:36	343768	60fcefe49e61a0aa689df3c8	4	1	main_z	7	main_z	155	stimuli_distractor_trianglediamonds.svg	stimuli_target_squarediamonds.svg	12	yes	44	1	534	0	0			0	0			1				0	
6.6.1	win	2023-07-06	23:53:50	23:59:36	343768	60fcefe49e61a0aa689df3c8	4	1	main_z	7	advance_on_keypress_ZEE	156	stimuli_distractor_trianglediamonds.svg	stimuli_target_squarediamonds.svg	12	yes	57	0	173	0	0			0	0			1				0	
6.6.1	win	2023-07-06	23:53:50	23:59:39	346582	60fcefe49e61a0aa689df3c8	4	1	main_z	7	main_z	157	stimuli_distractor_diamondtriangles.svg	stimuli_distractor_diamondtriangles.svg	40	no	0	1	2000	0	0			0	0			1				0	
6.6.1	win	2023-07-06	23:53:50	23:59:39	346582	60fcefe49e61a0aa689df3c8	4	1	main_z	7	advance_on_keypress_ZEE	158	stimuli_distractor_diamondtriangles.svg	stimuli_distractor_diamondtriangles.svg	40	no	57	0	168	0	0			0	0			1				0	
6.6.1	win	2023-07-06	23:53:50	23:59:41	348142	60fcefe49e61a0aa689df3c8	4	1	main_z	7	main_z	159	stimuli_distractor_diamondtriangles.svg	stimuli_target_trianglesquares.svg	30	yes	44	1	736	0	0			0	0			1				0	
6.6.1	win	2023-07-06	23:53:50	23:59:41	348142	60fcefe49e61a0aa689df3c8	4	1	main_z	7	advance_on_keypress_ZEE	160	stimuli_distractor_diamondtriangles.svg	stimuli_target_trianglesquares.svg	30	yes	57	0	108	0	0			0	0			1				0	
6.6.1	win	2023-07-06	23:53:50	00:00:02	369940	60fcefe49e61a0aa689df3c8	4	1	practice_slash	9	practice_slash	1	stimuli_distractor_trianglediamonds.svg	stimuli_target_rectanglediamonds.svg	10	yes	53	1	430	0	0			0	0			1				0	
6.6.1	win	2023-07-06	23:53:50	00:00:02	369940	60fcefe49e61a0aa689df3c8	4	1	practice_slash	9	advance_on_keypress_SLASH	2	stimuli_distractor_trianglediamonds.svg	stimuli_target_rectanglediamonds.svg	10	yes	57	0	486	0	0			0	0			1				0	
6.6.1	win	2023-07-06	23:53:50	00:00:05	372473	60fcefe49e61a0aa689df3c8	4	1	practice_slash	9	practice_slash	3	stimuli_target_squarediamonds.svg	stimuli_distractor_trianglediamonds.svg	5	yes	53	1	399	0	0			0	0			1				0	
6.6.1	win	2023-07-06	23:53:50	00:00:05	372473	60fcefe49e61a0aa689df3c8	4	1	practice_slash	9	advance_on_keypress_SLASH	4	stimuli_target_squarediamonds.svg	stimuli_distractor_trianglediamonds.svg	5	yes	57	0	287	0	0			0	0			1				0	
6.6.1	win	2023-07-06	23:53:50	00:00:07	374754	60fcefe49e61a0aa689df3c8	4	1	practice_slash	9	practice_slash	5	stimuli_target_rectanglediamonds.svg	stimuli_distractor_diamondtriangles.svg	1	yes	53	1	369	0	0			0	0			1				0	
6.6.1	win	2023-07-06	23:53:50	00:00:07	374754	60fcefe49e61a0aa689df3c8	4	1	practice_slash	9	advance_on_keypress_SLASH	6	stimuli_target_rectanglediamonds.svg	stimuli_distractor_diamondtriangles.svg	1	yes	57	0	259	0	0			0	0			1				0	
6.6.1	win	2023-07-06	23:53:50	00:00:09	376982	60fcefe49e61a0aa689df3c8	4	1	practice_slash	9	practice_slash	7	stimuli_distractor_diamondtriangles.svg	stimuli_target_rectangletriangles.svg	7	yes	53	1	327	0	0			0	0			1				0	
6.6.1	win	2023-07-06	23:53:50	00:00:09	376982	60fcefe49e61a0aa689df3c8	4	1	practice_slash	9	advance_on_keypress_SLASH	8	stimuli_distractor_diamondtriangles.svg	stimuli_target_rectangletriangles.svg	7	yes	57	0	300	0	0			0	0			1				0	
6.6.1	win	2023-07-06	23:53:50	00:00:13	380937	60fcefe49e61a0aa689df3c8	4	1	practice_slash	9	practice_slash	9	stimuli_target_diamondsquares.svg	stimuli_distractor_trianglediamonds.svg	6	yes	0	0	2000	0	0			0	0			1				0	
6.6.1	win	2023-07-06	23:53:50	00:00:13	380937	60fcefe49e61a0aa689df3c8	4	1	practice_slash	9	advance_on_keypress_SLASH	10	stimuli_target_diamondsquares.svg	stimuli_distractor_trianglediamonds.svg	6	yes	57	0	380	0	0			0	0			1				0	
6.6.1	win	2023-07-06	23:53:50	00:00:16	384089	60fcefe49e61a0aa689df3c8	4	1	practice_slash	9	practice_slash	11	stimuli_target_diamondsquares.svg	stimuli_distractor_diamondtriangles.svg	3	yes	53	1	1143	0	0			0	0			1				0	
6.6.1	win	2023-07-06	23:53:50	00:00:16	384089	60fcefe49e61a0aa689df3c8	4	1	practice_slash	9	advance_on_keypress_SLASH	12	stimuli_target_diamondsquares.svg	stimuli_distractor_diamondtriangles.svg	3	yes	57	0	290	0	0			0	0			1				0	
6.6.1	win	2023-07-06	23:53:50	00:00:19	386624	60fcefe49e61a0aa689df3c8	4	1	practice_slash	9	practice_slash	13	stimuli_distractor_trianglediamonds.svg	stimuli_distractor_diamondtriangles.svg	16	no	53	0	620	0	0			0	0			1				0	
6.6.1	win	2023-07-06	23:53:50	00:00:19	386624	60fcefe49e61a0aa689df3c8	4	1	practice_slash	9	advance_on_keypress_SLASH	14	stimuli_distractor_trianglediamonds.svg	stimuli_distractor_diamondtriangles.svg	16	no	57	0	299	0	0			0	0			1				0	
6.6.1	win	2023-07-06	23:53:50	00:00:22	389187	60fcefe49e61a0aa689df3c8	4	1	practice_slash	9	practice_slash	15	stimuli_distractor_diamondtriangles.svg	stimuli_target_diamondrectangles.svg	8	yes	53	1	610	0	0			0	0			1				0	
6.6.1	win	2023-07-06	23:53:50	00:00:22	389187	60fcefe49e61a0aa689df3c8	4	1	practice_slash	9	advance_on_keypress_SLASH	16	stimuli_distractor_diamondtriangles.svg	stimuli_target_diamondrectangles.svg	8	yes	57	0	322	0	0			0	0			1				0	
6.6.1	win	2023-07-06	23:53:50	00:00:26	393146	60fcefe49e61a0aa689df3c8	4	1	practice_slash	9	practice_slash	17	stimuli_distractor_trianglediamonds.svg	stimuli_target_diamondrectangles.svg	12	yes	0	0	2000	0	0			0	0			1				0	
6.6.1	win	2023-07-06	23:53:50	00:00:26	393146	60fcefe49e61a0aa689df3c8	4	1	practice_slash	9	advance_on_keypress_SLASH	18	stimuli_distractor_trianglediamonds.svg	stimuli_target_diamondrectangles.svg	12	yes	57	0	82	0	0			0	0			1				0	
6.6.1	win	2023-07-06	23:53:50	00:00:28	395158	60fcefe49e61a0aa689df3c8	4	1	practice_slash	9	practice_slash	19	stimuli_distractor_diamondtriangles.svg	stimuli_distractor_trianglediamonds.svg	14	no	53	0	268	0	0			0	0			1				0	
6.6.1	win	2023-07-06	23:53:50	00:00:28	395158	60fcefe49e61a0aa689df3c8	4	1	practice_slash	9	advance_on_keypress_SLASH	20	stimuli_distractor_diamondtriangles.svg	stimuli_distractor_trianglediamonds.svg	14	no	57	0	376	0	0			0	0			1				0	
6.6.1	win	2023-07-06	23:53:50	00:00:30	397410	60fcefe49e61a0aa689df3c8	4	1	practice_slash	9	practice_slash	21	stimuli_distractor_trianglediamonds.svg	stimuli_distractor_trianglediamonds.svg	15	no	53	0	248	0	0			0	0			1				0	
6.6.1	win	2023-07-06	23:53:50	00:00:30	397410	60fcefe49e61a0aa689df3c8	4	1	practice_slash	9	advance_on_keypress_SLASH	22	stimuli_distractor_trianglediamonds.svg	stimuli_distractor_trianglediamonds.svg	15	no	57	0	470	0	0			0	0			1				0	
6.6.1	win	2023-07-06	23:53:50	00:00:32	399884	60fcefe49e61a0aa689df3c8	4	1	practice_slash	9	practice_slash	23	stimuli_distractor_trianglediamonds.svg	stimuli_target_squarediamonds.svg	11	yes	53	1	353	0	0			0	0			1				0	
6.6.1	win	2023-07-06	23:53:50	00:00:32	399884	60fcefe49e61a0aa689df3c8	4	1	practice_slash	9	advance_on_keypress_SLASH	24	stimuli_distractor_trianglediamonds.svg	stimuli_target_squarediamonds.svg	11	yes	57	0	21	0	0			0	0			1				0	
6.6.1	win	2023-07-06	23:53:50	00:00:34	402006	60fcefe49e61a0aa689df3c8	4	1	practice_slash	9	practice_slash	25	stimuli_target_rectanglediamonds.svg	stimuli_distractor_trianglediamonds.svg	4	yes	53	1	475	0	0			0	0			1				0	
6.6.1	win	2023-07-06	23:53:50	00:00:34	402006	60fcefe49e61a0aa689df3c8	4	1	practice_slash	9	advance_on_keypress_SLASH	26	stimuli_target_rectanglediamonds.svg	stimuli_distractor_trianglediamonds.svg	4	yes	57	0	290	0	0			0	0			1				0	
6.6.1	win	2023-07-06	23:53:50	00:00:37	404375	60fcefe49e61a0aa689df3c8	4	1	practice_slash	9	practice_slash	27	stimuli_target_squarediamonds.svg	stimuli_distractor_diamondtriangles.svg	2	yes	53	1	426	0	0			0	0			1				0	
6.6.1	win	2023-07-06	23:53:50	00:00:37	404375	60fcefe49e61a0aa689df3c8	4	1	practice_slash	9	advance_on_keypress_SLASH	28	stimuli_target_squarediamonds.svg	stimuli_distractor_diamondtriangles.svg	2	yes	57	0	257	0	0			0	0			1				0	
6.6.1	win	2023-07-06	23:53:50	00:00:40	407394	60fcefe49e61a0aa689df3c8	4	1	practice_slash	9	practice_slash	29	stimuli_distractor_diamondtriangles.svg	stimuli_target_trianglerectangles.svg	9	yes	53	1	1140	0	0			0	0			1				0	
6.6.1	win	2023-07-06	23:53:50	00:00:40	407394	60fcefe49e61a0aa689df3c8	4	1	practice_slash	9	advance_on_keypress_SLASH	30	stimuli_distractor_diamondtriangles.svg	stimuli_target_trianglerectangles.svg	9	yes	57	0	52	0	0			0	0			1				0	
6.6.1	win	2023-07-06	23:53:50	00:00:42	409957	60fcefe49e61a0aa689df3c8	4	1	practice_slash	9	practice_slash	31	stimuli_distractor_diamondtriangles.svg	stimuli_distractor_diamondtriangles.svg	13	no	53	0	873	0	0			0	0			1				0	
6.6.1	win	2023-07-06	23:53:50	00:00:42	409957	60fcefe49e61a0aa689df3c8	4	1	practice_slash	9	advance_on_keypress_SLASH	32	stimuli_distractor_diamondtriangles.svg	stimuli_distractor_diamondtriangles.svg	13	no	57	0	169	0	0			0	0			1				0	
6.6.1	win	2023-07-06	23:53:50	00:00:47	414458	60fcefe49e61a0aa689df3c8	4	1	main_slash	11	main_slash	1	stimuli_distractor_diamondtriangles.svg	stimuli_target_diamondsquares.svg	32	yes	0	0	2000	0	0			0	0			1				0	
6.6.1	win	2023-07-06	23:53:50	00:00:47	414458	60fcefe49e61a0aa689df3c8	4	1	main_slash	11	advance_on_keypress_SLASH	2	stimuli_distractor_diamondtriangles.svg	stimuli_target_diamondsquares.svg	32	yes	57	0	274	0	0			0	0			1				0	
6.6.1	win	2023-07-06	23:53:50	00:00:48	415793	60fcefe49e61a0aa689df3c8	4	1	main_slash	11	main_slash	3	stimuli_distractor_trianglediamonds.svg	stimuli_target_rectanglediamonds.svg	10	yes	53	1	437	0	0			0	0			1				0	
6.6.1	win	2023-07-06	23:53:50	00:00:48	415793	60fcefe49e61a0aa689df3c8	4	1	main_slash	11	advance_on_keypress_SLASH	4	stimuli_distractor_trianglediamonds.svg	stimuli_target_rectanglediamonds.svg	10	yes	57	0	410	0	0			0	0			1				0	
6.6.1	win	2023-07-06	23:53:50	00:00:51	418859	60fcefe49e61a0aa689df3c8	4	1	main_slash	11	main_slash	5	stimuli_distractor_diamondtriangles.svg	stimuli_distractor_diamondtriangles.svg	40	no	0	1	2000	0	0			0	0			1				0	
6.6.1	win	2023-07-06	23:53:50	00:00:51	418859	60fcefe49e61a0aa689df3c8	4	1	main_slash	11	advance_on_keypress_SLASH	6	stimuli_distractor_diamondtriangles.svg	stimuli_distractor_diamondtriangles.svg	40	no	57	0	261	0	0			0	0			1				0	
6.6.1	win	2023-07-06	23:53:50	00:00:54	421740	60fcefe49e61a0aa689df3c8	4	1	main_slash	11	main_slash	7	stimuli_distractor_trianglediamonds.svg	stimuli_distractor_trianglediamonds.svg	34	no	0	1	2000	0	0			0	0			1				0	
6.6.1	win	2023-07-06	23:53:50	00:00:54	421740	60fcefe49e61a0aa689df3c8	4	1	main_slash	11	advance_on_keypress_SLASH	8	stimuli_distractor_trianglediamonds.svg	stimuli_distractor_trianglediamonds.svg	34	no	57	0	228	0	0			0	0			1				0	
6.6.1	win	2023-07-06	23:53:50	00:00:56	423586	60fcefe49e61a0aa689df3c8	4	1	main_slash	11	main_slash	9	stimuli_distractor_trianglediamonds.svg	stimuli_distractor_diamondtriangles.svg	36	no	53	0	982	0	0			0	0			1				0	
6.6.1	win	2023-07-06	23:53:50	00:00:56	423586	60fcefe49e61a0aa689df3c8	4	1	main_slash	11	advance_on_keypress_SLASH	10	stimuli_distractor_trianglediamonds.svg	stimuli_distractor_diamondtriangles.svg	36	no	57	0	262	0	0			0	0			1				0	
6.6.1	win	2023-07-06	23:53:50	00:00:57	424921	60fcefe49e61a0aa689df3c8	4	1	main_slash	11	main_slash	11	stimuli_target_rectanglediamonds.svg	stimuli_distractor_trianglediamonds.svg	2	yes	53	1	438	0	0			0	0			1				0	
6.6.1	win	2023-07-06	23:53:50	00:00:57	424921	60fcefe49e61a0aa689df3c8	4	1	main_slash	11	advance_on_keypress_SLASH	12	stimuli_target_rectanglediamonds.svg	stimuli_distractor_trianglediamonds.svg	2	yes	57	0	225	0	0			0	0			1				0	
6.6.1	win	2023-07-06	23:53:50	00:01:00	427780	60fcefe49e61a0aa689df3c8	4	1	main_slash	11	main_slash	13	stimuli_distractor_trianglediamonds.svg	stimuli_distractor_trianglediamonds.svg	33	no	0	1	2000	0	0			0	0			1				0	
6.6.1	win	2023-07-06	23:53:50	00:01:00	427780	60fcefe49e61a0aa689df3c8	4	1	main_slash	11	advance_on_keypress_SLASH	14	stimuli_distractor_trianglediamonds.svg	stimuli_distractor_trianglediamonds.svg	33	no	57	0	405	0	0			0	0			1				0	
6.6.1	win	2023-07-06	23:53:50	00:01:02	429845	60fcefe49e61a0aa689df3c8	4	1	main_slash	11	main_slash	15	stimuli_distractor_diamondtriangles.svg	stimuli_target_diamondrectangles.svg	31	yes	53	1	1021	0	0			0	0			1				0	
6.6.1	win	2023-07-06	23:53:50	00:01:02	429845	60fcefe49e61a0aa689df3c8	4	1	main_slash	11	advance_on_keypress_SLASH	16	stimuli_distractor_diamondtriangles.svg	stimuli_target_diamondrectangles.svg	31	yes	57	0	230	0	0			0	0			1				0	
6.6.1	win	2023-07-06	23:53:50	00:01:04	431167	60fcefe49e61a0aa689df3c8	4	1	main_slash	11	main_slash	17	stimuli_distractor_diamondtriangles.svg	stimuli_target_rectangletriangles.svg	13	yes	53	1	473	0	0			0	0			1				0	
6.6.1	win	2023-07-06	23:53:50	00:01:04	431167	60fcefe49e61a0aa689df3c8	4	1	main_slash	11	advance_on_keypress_SLASH	18	stimuli_distractor_diamondtriangles.svg	stimuli_target_rectangletriangles.svg	13	yes	57	0	351	0	0			0	0			1				0	
6.6.1	win	2023-07-06	23:53:50	00:01:05	432643	60fcefe49e61a0aa689df3c8	4	1	main_slash	11	main_slash	19	stimuli_distractor_diamondtriangles.svg	stimuli_target_trianglesquares.svg	30	yes	53	1	507	0	0			0	0			1				0	
6.6.1	win	2023-07-06	23:53:50	00:01:05	432643	60fcefe49e61a0aa689df3c8	4	1	main_slash	11	advance_on_keypress_SLASH	20	stimuli_distractor_diamondtriangles.svg	stimuli_target_trianglesquares.svg	30	yes	57	0	437	0	0			0	0			1				0	
6.6.1	win	2023-07-06	23:53:50	00:01:07	434378	60fcefe49e61a0aa689df3c8	4	1	main_slash	11	main_slash	21	stimuli_distractor_diamondtriangles.svg	stimuli_distractor_diamondtriangles.svg	39	no	53	0	674	0	0			0	0			1				0	
6.6.1	win	2023-07-06	23:53:50	00:01:07	434378	60fcefe49e61a0aa689df3c8	4	1	main_slash	11	advance_on_keypress_SLASH	22	stimuli_distractor_diamondtriangles.svg	stimuli_distractor_diamondtriangles.svg	39	no	57	0	429	0	0			0	0			1				0	
6.6.1	win	2023-07-06	23:53:50	00:01:10	437457	60fcefe49e61a0aa689df3c8	4	1	main_slash	11	main_slash	23	stimuli_target_diamondsquares.svg	stimuli_distractor_trianglediamonds.svg	20	yes	0	0	2000	0	0			0	0			1				0	
6.6.1	win	2023-07-06	23:53:50	00:01:10	437457	60fcefe49e61a0aa689df3c8	4	1	main_slash	11	advance_on_keypress_SLASH	24	stimuli_target_diamondsquares.svg	stimuli_distractor_trianglediamonds.svg	20	yes	57	0	268	0	0			0	0			1				0	
6.6.1	win	2023-07-06	23:53:50	00:01:13	440353	60fcefe49e61a0aa689df3c8	4	1	main_slash	11	main_slash	25	stimuli_distractor_diamondtriangles.svg	stimuli_target_trianglerectangles.svg	29	yes	0	0	2000	0	0			0	0			1				0	
6.6.1	win	2023-07-06	23:53:50	00:01:13	440353	60fcefe49e61a0aa689df3c8	4	1	main_slash	11	advance_on_keypress_SLASH	26	stimuli_distractor_diamondtriangles.svg	stimuli_target_trianglerectangles.svg	29	yes	57	0	22	0	0			0	0			1				0	
6.6.1	win	2023-07-06	23:53:50	00:01:14	441424	60fcefe49e61a0aa689df3c8	4	1	main_slash	11	main_slash	27	stimuli_target_squaretriangles.svg	stimuli_distractor_trianglediamonds.svg	3	yes	53	1	402	0	0			0	0			1				0	
6.6.1	win	2023-07-06	23:53:50	00:01:14	441424	60fcefe49e61a0aa689df3c8	4	1	main_slash	11	advance_on_keypress_SLASH	28	stimuli_target_squaretriangles.svg	stimuli_distractor_trianglediamonds.svg	3	yes	57	0	184	0	0			0	0			1				0	
6.6.1	win	2023-07-06	23:53:50	00:01:15	442703	60fcefe49e61a0aa689df3c8	4	1	main_slash	11	main_slash	29	stimuli_distractor_trianglediamonds.svg	stimuli_target_squarediamonds.svg	12	yes	53	1	437	0	0			0	0			1				0	
6.6.1	win	2023-07-06	23:53:50	00:01:15	442703	60fcefe49e61a0aa689df3c8	4	1	main_slash	11	advance_on_keypress_SLASH	30	stimuli_distractor_trianglediamonds.svg	stimuli_target_squarediamonds.svg	12	yes	57	0	172	0	0			0	0			1				0	
6.6.1	win	2023-07-06	23:53:50	00:01:18	445511	60fcefe49e61a0aa689df3c8	4	1	main_slash	11	main_slash	31	stimuli_distractor_trianglediamonds.svg	stimuli_distractor_diamondtriangles.svg	35	no	0	1	2000	0	0			0	0			1				0	
6.6.1	win	2023-07-06	23:53:50	00:01:18	445511	60fcefe49e61a0aa689df3c8	4	1	main_slash	11	advance_on_keypress_SLASH	32	stimuli_distractor_trianglediamonds.svg	stimuli_distractor_diamondtriangles.svg	35	no	57	0	187	0	0			0	0			1				0	
6.6.1	win	2023-07-06	23:53:50	00:01:19	446819	60fcefe49e61a0aa689df3c8	4	1	main_slash	11	main_slash	33	stimuli_distractor_trianglediamonds.svg	stimuli_target_squaretriangles.svg	11	yes	53	1	477	0	0			0	0			1				0	
6.6.1	win	2023-07-06	23:53:50	00:01:19	446819	60fcefe49e61a0aa689df3c8	4	1	main_slash	11	advance_on_keypress_SLASH	34	stimuli_distractor_trianglediamonds.svg	stimuli_target_squaretriangles.svg	11	yes	57	0	179	0	0			0	0			1				0	
6.6.1	win	2023-07-06	23:53:50	00:01:22	449636	60fcefe49e61a0aa689df3c8	4	1	main_slash	11	main_slash	35	stimuli_target_trianglerectangles.svg	stimuli_distractor_trianglediamonds.svg	17	yes	0	0	2000	0	0			0	0			1				0	
6.6.1	win	2023-07-06	23:53:50	00:01:22	449636	60fcefe49e61a0aa689df3c8	4	1	main_slash	11	advance_on_keypress_SLASH	36	stimuli_target_trianglerectangles.svg	stimuli_distractor_trianglediamonds.svg	17	yes	57	0	430	0	0			0	0			1				0	
6.6.1	win	2023-07-06	23:53:50	00:01:24	451701	60fcefe49e61a0aa689df3c8	4	1	main_slash	11	main_slash	37	stimuli_target_diamondsquares.svg	stimuli_distractor_diamondtriangles.svg	24	yes	53	1	999	0	0			0	0			1				0	
6.6.1	win	2023-07-06	23:53:50	00:01:24	451701	60fcefe49e61a0aa689df3c8	4	1	main_slash	11	advance_on_keypress_SLASH	38	stimuli_target_diamondsquares.svg	stimuli_distractor_diamondtriangles.svg	24	yes	57	0	168	0	0			0	0			1				0	
6.6.1	win	2023-07-06	23:53:50	00:01:26	453261	60fcefe49e61a0aa689df3c8	4	1	main_slash	11	main_slash	39	stimuli_target_diamondrectangles.svg	stimuli_distractor_trianglediamonds.svg	19	yes	53	1	750	0	0			0	0			1				0	
6.6.1	win	2023-07-06	23:53:50	00:01:26	453261	60fcefe49e61a0aa689df3c8	4	1	main_slash	11	advance_on_keypress_SLASH	40	stimuli_target_diamondrectangles.svg	stimuli_distractor_trianglediamonds.svg	19	yes	57	0	529	0	0			0	0			1				0	
6.6.1	win	2023-07-06	23:53:50	00:01:29	456439	60fcefe49e61a0aa689df3c8	4	1	main_slash	11	main_slash	41	stimuli_target_rectangletriangles.svg	stimuli_distractor_diamondtriangles.svg	5	yes	0	0	2000	0	0			0	0			1				0	
6.6.1	win	2023-07-06	23:53:50	00:01:29	456439	60fcefe49e61a0aa689df3c8	4	1	main_slash	11	advance_on_keypress_SLASH	42	stimuli_target_rectangletriangles.svg	stimuli_distractor_diamondtriangles.svg	5	yes	57	0	469	0	0			0	0			1				0	
6.6.1	win	2023-07-06	23:53:50	00:01:32	459550	60fcefe49e61a0aa689df3c8	4	1	main_slash	11	main_slash	43	stimuli_distractor_diamondtriangles.svg	stimuli_target_squaretriangles.svg	15	yes	0	0	2000	0	0			0	0			1				0	
6.6.1	win	2023-07-06	23:53:50	00:01:32	459550	60fcefe49e61a0aa689df3c8	4	1	main_slash	11	advance_on_keypress_SLASH	44	stimuli_distractor_diamondtriangles.svg	stimuli_target_squaretriangles.svg	15	yes	57	0	284	0	0			0	0			1				0	
6.6.1	win	2023-07-06	23:53:50	00:01:34	461791	60fcefe49e61a0aa689df3c8	4	1	main_slash	11	main_slash	45	stimuli_target_trianglerectangles.svg	stimuli_distractor_diamondtriangles.svg	21	yes	53	1	1338	0	0			0	0			1				0	
6.6.1	win	2023-07-06	23:53:50	00:01:34	461791	60fcefe49e61a0aa689df3c8	4	1	main_slash	11	advance_on_keypress_SLASH	46	stimuli_target_trianglerectangles.svg	stimuli_distractor_diamondtriangles.svg	21	yes	57	0	277	0	0			0	0			1				0	
6.6.1	win	2023-07-06	23:53:50	00:01:36	463793	60fcefe49e61a0aa689df3c8	4	1	main_slash	11	main_slash	47	stimuli_distractor_trianglediamonds.svg	stimuli_target_trianglerectangles.svg	25	yes	53	1	1088	0	0			0	0			1				0	
6.6.1	win	2023-07-06	23:53:50	00:01:36	463793	60fcefe49e61a0aa689df3c8	4	1	main_slash	11	advance_on_keypress_SLASH	48	stimuli_distractor_trianglediamonds.svg	stimuli_target_trianglerectangles.svg	25	yes	57	0	600	0	0			0	0			1				0	
6.6.1	win	2023-07-06	23:53:50	00:01:38	466016	60fcefe49e61a0aa689df3c8	4	1	main_slash	11	main_slash	49	stimuli_distractor_diamondtriangles.svg	stimuli_target_squarediamonds.svg	16	yes	53	1	988	0	0			0	0			1				0	
6.6.1	win	2023-07-06	23:53:50	00:01:38	466016	60fcefe49e61a0aa689df3c8	4	1	main_slash	11	advance_on_keypress_SLASH	50	stimuli_distractor_diamondtriangles.svg	stimuli_target_squarediamonds.svg	16	yes	57	0	284	0	0			0	0			1				0	
6.6.1	win	2023-07-06	23:53:50	00:01:41	468940	60fcefe49e61a0aa689df3c8	4	1	main_slash	11	main_slash	51	stimuli_target_squarediamonds.svg	stimuli_distractor_trianglediamonds.svg	4	yes	0	0	2000	0	0			0	0			1				0	
6.6.1	win	2023-07-06	23:53:50	00:01:41	468940	60fcefe49e61a0aa689df3c8	4	1	main_slash	11	advance_on_keypress_SLASH	52	stimuli_target_squarediamonds.svg	stimuli_distractor_trianglediamonds.svg	4	yes	57	0	313	0	0			0	0			1				0	
6.6.1	win	2023-07-06	23:53:50	00:01:43	470672	60fcefe49e61a0aa689df3c8	4	1	main_slash	11	main_slash	53	stimuli_distractor_trianglediamonds.svg	stimuli_target_rectangletriangles.svg	9	yes	53	1	783	0	0			0	0			1				0	
6.6.1	win	2023-07-06	23:53:50	00:01:43	470672	60fcefe49e61a0aa689df3c8	4	1	main_slash	11	advance_on_keypress_SLASH	54	stimuli_distractor_trianglediamonds.svg	stimuli_target_rectangletriangles.svg	9	yes	57	0	330	0	0			0	0			1				0	
6.6.1	win	2023-07-06	23:53:50	00:01:45	472252	60fcefe49e61a0aa689df3c8	4	1	main_slash	11	main_slash	55	stimuli_target_trianglesquares.svg	stimuli_distractor_diamondtriangles.svg	22	yes	53	1	624	0	0			0	0			1				0	
6.6.1	win	2023-07-06	23:53:50	00:01:45	472252	60fcefe49e61a0aa689df3c8	4	1	main_slash	11	advance_on_keypress_SLASH	56	stimuli_target_trianglesquares.svg	stimuli_distractor_diamondtriangles.svg	22	yes	57	0	444	0	0			0	0			1				0	
6.6.1	win	2023-07-06	23:53:50	00:01:46	473789	60fcefe49e61a0aa689df3c8	4	1	main_slash	11	main_slash	57	stimuli_distractor_diamondtriangles.svg	stimuli_target_rectanglediamonds.svg	14	yes	53	1	465	0	0			0	0			1				0	
6.6.1	win	2023-07-06	23:53:50	00:01:46	473789	60fcefe49e61a0aa689df3c8	4	1	main_slash	11	advance_on_keypress_SLASH	58	stimuli_distractor_diamondtriangles.svg	stimuli_target_rectanglediamonds.svg	14	yes	57	0	420	0	0			0	0			1				0	
6.6.1	win	2023-07-06	23:53:50	00:01:48	475514	60fcefe49e61a0aa689df3c8	4	1	main_slash	11	main_slash	59	stimuli_target_diamondrectangles.svg	stimuli_distractor_diamondtriangles.svg	23	yes	53	1	672	0	0			0	0			1				0	
6.6.1	win	2023-07-06	23:53:50	00:01:48	475514	60fcefe49e61a0aa689df3c8	4	1	main_slash	11	advance_on_keypress_SLASH	60	stimuli_target_diamondrectangles.svg	stimuli_distractor_diamondtriangles.svg	23	yes	57	0	288	0	0			0	0			1				0	
6.6.1	win	2023-07-06	23:53:50	00:01:50	477139	60fcefe49e61a0aa689df3c8	4	1	main_slash	11	main_slash	61	stimuli_target_squaretriangles.svg	stimuli_distractor_diamondtriangles.svg	7	yes	53	1	692	0	0			0	0			1				0	
6.6.1	win	2023-07-06	23:53:50	00:01:50	477139	60fcefe49e61a0aa689df3c8	4	1	main_slash	11	advance_on_keypress_SLASH	62	stimuli_target_squaretriangles.svg	stimuli_distractor_diamondtriangles.svg	7	yes	57	0	977	0	0			0	0			1				0	
6.6.1	win	2023-07-06	23:53:50	00:01:53	480744	60fcefe49e61a0aa689df3c8	4	1	main_slash	11	main_slash	63	stimuli_target_squarediamonds.svg	stimuli_distractor_diamondtriangles.svg	8	yes	0	0	2000	0	0			0	0			1				0	
6.6.1	win	2023-07-06	23:53:50	00:01:53	480744	60fcefe49e61a0aa689df3c8	4	1	main_slash	11	advance_on_keypress_SLASH	64	stimuli_target_squarediamonds.svg	stimuli_distractor_diamondtriangles.svg	8	yes	57	0	1815	0	0			0	0			1				0	
6.6.1	win	2023-07-06	23:53:50	00:01:58	485194	60fcefe49e61a0aa689df3c8	4	1	main_slash	11	main_slash	65	stimuli_target_rectanglediamonds.svg	stimuli_distractor_diamondtriangles.svg	6	yes	0	0	2000	0	0			0	0			1				0	
6.6.1	win	2023-07-06	23:53:50	00:01:58	485194	60fcefe49e61a0aa689df3c8	4	1	main_slash	11	advance_on_keypress_SLASH	66	stimuli_target_rectanglediamonds.svg	stimuli_distractor_diamondtriangles.svg	6	yes	57	0	495	0	0			0	0			1				0	
6.6.1	win	2023-07-06	23:53:50	00:01:59	487122	60fcefe49e61a0aa689df3c8	4	1	main_slash	11	main_slash	67	stimuli_target_rectangletriangles.svg	stimuli_distractor_trianglediamonds.svg	1	yes	53	1	792	0	0			0	0			1				0	
6.6.1	win	2023-07-06	23:53:50	00:01:59	487122	60fcefe49e61a0aa689df3c8	4	1	main_slash	11	advance_on_keypress_SLASH	68	stimuli_target_rectangletriangles.svg	stimuli_distractor_trianglediamonds.svg	1	yes	57	0	196	0	0			0	0			1				0	
6.6.1	win	2023-07-06	23:53:50	00:02:02	489955	60fcefe49e61a0aa689df3c8	4	1	main_slash	11	main_slash	69	stimuli_distractor_trianglediamonds.svg	stimuli_target_trianglesquares.svg	26	yes	0	0	2000	0	0			0	0			1				0	
6.6.1	win	2023-07-06	23:53:50	00:02:02	489955	60fcefe49e61a0aa689df3c8	4	1	main_slash	11	advance_on_keypress_SLASH	70	stimuli_distractor_trianglediamonds.svg	stimuli_target_trianglesquares.svg	26	yes	57	0	337	0	0			0	0			1				0	
6.6.1	win	2023-07-06	23:53:50	00:02:05	492919	60fcefe49e61a0aa689df3c8	4	1	main_slash	11	main_slash	71	stimuli_distractor_diamondtriangles.svg	stimuli_distractor_trianglediamonds.svg	38	no	0	1	2000	0	0			0	0			1				0	
6.6.1	win	2023-07-06	23:53:50	00:02:05	492919	60fcefe49e61a0aa689df3c8	4	1	main_slash	11	advance_on_keypress_SLASH	72	stimuli_distractor_diamondtriangles.svg	stimuli_distractor_trianglediamonds.svg	38	no	57	0	418	0	0			0	0			1				0	
6.6.1	win	2023-07-06	23:53:50	00:02:07	494594	60fcefe49e61a0aa689df3c8	4	1	main_slash	11	main_slash	73	stimuli_distractor_trianglediamonds.svg	stimuli_target_diamondrectangles.svg	27	yes	53	1	615	0	0			0	0			1				0	
6.6.1	win	2023-07-06	23:53:50	00:02:07	494594	60fcefe49e61a0aa689df3c8	4	1	main_slash	11	advance_on_keypress_SLASH	74	stimuli_distractor_trianglediamonds.svg	stimuli_target_diamondrectangles.svg	27	yes	57	0	285	0	0			0	0			1				0	
6.6.1	win	2023-07-06	23:53:50	00:02:08	496035	60fcefe49e61a0aa689df3c8	4	1	main_slash	11	main_slash	75	stimuli_target_trianglesquares.svg	stimuli_distractor_trianglediamonds.svg	18	yes	53	1	519	0	0			0	0			1				0	
6.6.1	win	2023-07-06	23:53:50	00:02:08	496035	60fcefe49e61a0aa689df3c8	4	1	main_slash	11	advance_on_keypress_SLASH	76	stimuli_target_trianglesquares.svg	stimuli_distractor_trianglediamonds.svg	18	yes	57	0	213	0	0			0	0			1				0	
6.6.1	win	2023-07-06	23:53:50	00:02:11	498891	60fcefe49e61a0aa689df3c8	4	1	main_slash	11	main_slash	77	stimuli_distractor_diamondtriangles.svg	stimuli_distractor_trianglediamonds.svg	37	no	0	1	2000	0	0			0	0			1				0	
6.6.1	win	2023-07-06	23:53:50	00:02:11	498891	60fcefe49e61a0aa689df3c8	4	1	main_slash	11	advance_on_keypress_SLASH	78	stimuli_distractor_diamondtriangles.svg	stimuli_distractor_trianglediamonds.svg	37	no	57	0	259	0	0			0	0			1				0	
6.6.1	win	2023-07-06	23:53:50	00:02:13	500346	60fcefe49e61a0aa689df3c8	4	1	main_slash	11	main_slash	79	stimuli_distractor_trianglediamonds.svg	stimuli_target_diamondsquares.svg	28	yes	53	1	572	0	0			0	0			1				0	
6.6.1	win	2023-07-06	23:53:50	00:02:13	500346	60fcefe49e61a0aa689df3c8	4	1	main_slash	11	advance_on_keypress_SLASH	80	stimuli_distractor_trianglediamonds.svg	stimuli_target_diamondsquares.svg	28	yes	57	0	171	0	0			0	0			1				0	
6.6.1	win	2023-07-06	23:53:50	00:02:14	501721	60fcefe49e61a0aa689df3c8	4	1	main_slash	11	main_slash	81	stimuli_target_diamondrectangles.svg	stimuli_distractor_trianglediamonds.svg	19	yes	53	1	569	0	0			0	0			1				0	
6.6.1	win	2023-07-06	23:53:50	00:02:14	501721	60fcefe49e61a0aa689df3c8	4	1	main_slash	11	advance_on_keypress_SLASH	82	stimuli_target_diamondrectangles.svg	stimuli_distractor_trianglediamonds.svg	19	yes	57	0	285	0	0			0	0			1				0	
6.6.1	win	2023-07-06	23:53:50	00:02:17	504627	60fcefe49e61a0aa689df3c8	4	1	main_slash	11	main_slash	83	stimuli_distractor_trianglediamonds.svg	stimuli_distractor_trianglediamonds.svg	34	no	0	1	2000	0	0			0	0			1				0	
6.6.1	win	2023-07-06	23:53:50	00:02:17	504627	60fcefe49e61a0aa689df3c8	4	1	main_slash	11	advance_on_keypress_SLASH	84	stimuli_distractor_trianglediamonds.svg	stimuli_distractor_trianglediamonds.svg	34	no	57	0	331	0	0			0	0			1				0	
6.6.1	win	2023-07-06	23:53:50	00:02:20	507596	60fcefe49e61a0aa689df3c8	4	1	main_slash	11	main_slash	85	stimuli_target_rectangletriangles.svg	stimuli_distractor_diamondtriangles.svg	5	yes	0	0	2000	0	0			0	0			1				0	
6.6.1	win	2023-07-06	23:53:50	00:02:20	507596	60fcefe49e61a0aa689df3c8	4	1	main_slash	11	advance_on_keypress_SLASH	86	stimuli_target_rectangletriangles.svg	stimuli_distractor_diamondtriangles.svg	5	yes	57	0	395	0	0			0	0			1				0	
6.6.1	win	2023-07-06	23:53:50	00:02:22	509571	60fcefe49e61a0aa689df3c8	4	1	main_slash	11	main_slash	87	stimuli_distractor_diamondtriangles.svg	stimuli_target_rectanglediamonds.svg	14	yes	53	1	947	0	0			0	0			1				0	
6.6.1	win	2023-07-06	23:53:50	00:02:22	509571	60fcefe49e61a0aa689df3c8	4	1	main_slash	11	advance_on_keypress_SLASH	88	stimuli_distractor_diamondtriangles.svg	stimuli_target_rectanglediamonds.svg	14	yes	57	0	252	0	0			0	0			1				0	
6.6.1	win	2023-07-06	23:53:50	00:02:23	510967	60fcefe49e61a0aa689df3c8	4	1	main_slash	11	main_slash	89	stimuli_target_squaretriangles.svg	stimuli_distractor_trianglediamonds.svg	3	yes	53	1	512	0	0			0	0			1				0	
6.6.1	win	2023-07-06	23:53:50	00:02:23	510967	60fcefe49e61a0aa689df3c8	4	1	main_slash	11	advance_on_keypress_SLASH	90	stimuli_target_squaretriangles.svg	stimuli_distractor_trianglediamonds.svg	3	yes	57	0	176	0	0			0	0			1				0	
6.6.1	win	2023-07-06	23:53:50	00:02:25	512648	60fcefe49e61a0aa689df3c8	4	1	main_slash	11	main_slash	91	stimuli_target_trianglerectangles.svg	stimuli_distractor_trianglediamonds.svg	17	yes	53	1	854	0	0			0	0			1				0	
6.6.1	win	2023-07-06	23:53:50	00:02:25	512648	60fcefe49e61a0aa689df3c8	4	1	main_slash	11	advance_on_keypress_SLASH	92	stimuli_target_trianglerectangles.svg	stimuli_distractor_trianglediamonds.svg	17	yes	57	0	181	0	0			0	0			1				0	
6.6.1	win	2023-07-06	23:53:50	00:02:26	513998	60fcefe49e61a0aa689df3c8	4	1	main_slash	11	main_slash	93	stimuli_target_diamondsquares.svg	stimuli_distractor_trianglediamonds.svg	20	yes	53	1	546	0	0			0	0			1				0	
6.6.1	win	2023-07-06	23:53:50	00:02:26	513998	60fcefe49e61a0aa689df3c8	4	1	main_slash	11	advance_on_keypress_SLASH	94	stimuli_target_diamondsquares.svg	stimuli_distractor_trianglediamonds.svg	20	yes	57	0	191	0	0			0	0			1				0	
6.6.1	win	2023-07-06	23:53:50	00:02:29	516824	60fcefe49e61a0aa689df3c8	4	1	main_slash	11	main_slash	95	stimuli_target_rectangletriangles.svg	stimuli_distractor_trianglediamonds.svg	1	yes	0	0	2000	0	0			0	0			1				0	
6.6.1	win	2023-07-06	23:53:50	00:02:29	516824	60fcefe49e61a0aa689df3c8	4	1	main_slash	11	advance_on_keypress_SLASH	96	stimuli_target_rectangletriangles.svg	stimuli_distractor_trianglediamonds.svg	1	yes	57	0	398	0	0			0	0			1				0	
6.6.1	win	2023-07-06	23:53:50	00:02:31	518361	60fcefe49e61a0aa689df3c8	4	1	main_slash	11	main_slash	97	stimuli_distractor_trianglediamonds.svg	stimuli_target_diamondrectangles.svg	27	yes	53	1	501	0	0			0	0			1				0	
6.6.1	win	2023-07-06	23:53:50	00:02:31	518361	60fcefe49e61a0aa689df3c8	4	1	main_slash	11	advance_on_keypress_SLASH	98	stimuli_distractor_trianglediamonds.svg	stimuli_target_diamondrectangles.svg	27	yes	57	0	146	0	0			0	0			1				0	
6.6.1	win	2023-07-06	23:53:50	00:02:32	519539	60fcefe49e61a0aa689df3c8	4	1	main_slash	11	main_slash	99	stimuli_distractor_diamondtriangles.svg	stimuli_target_diamondrectangles.svg	31	yes	53	1	405	0	0			0	0			1				0	
6.6.1	win	2023-07-06	23:53:50	00:02:32	519539	60fcefe49e61a0aa689df3c8	4	1	main_slash	11	advance_on_keypress_SLASH	100	stimuli_distractor_diamondtriangles.svg	stimuli_target_diamondrectangles.svg	31	yes	57	0	409	0	0			0	0			1				0	
6.6.1	win	2023-07-06	23:53:50	00:02:33	521075	60fcefe49e61a0aa689df3c8	4	1	main_slash	11	main_slash	101	stimuli_distractor_diamondtriangles.svg	stimuli_distractor_trianglediamonds.svg	38	no	53	0	495	0	0			0	0			1				0	
6.6.1	win	2023-07-06	23:53:50	00:02:33	521075	60fcefe49e61a0aa689df3c8	4	1	main_slash	11	advance_on_keypress_SLASH	102	stimuli_distractor_diamondtriangles.svg	stimuli_distractor_trianglediamonds.svg	38	no	57	0	320	0	0			0	0			1				0	
6.6.1	win	2023-07-06	23:53:50	00:02:36	524035	60fcefe49e61a0aa689df3c8	4	1	main_slash	11	main_slash	103	stimuli_target_rectanglediamonds.svg	stimuli_distractor_trianglediamonds.svg	2	yes	0	0	2000	0	0			0	0			1				0	
6.6.1	win	2023-07-06	23:53:50	00:02:36	524035	60fcefe49e61a0aa689df3c8	4	1	main_slash	11	advance_on_keypress_SLASH	104	stimuli_target_rectanglediamonds.svg	stimuli_distractor_trianglediamonds.svg	2	yes	57	0	333	0	0			0	0			1				0	
6.6.1	win	2023-07-06	23:53:50	00:02:39	527001	60fcefe49e61a0aa689df3c8	4	1	main_slash	11	main_slash	105	stimuli_distractor_trianglediamonds.svg	stimuli_distractor_diamondtriangles.svg	35	no	0	1	2000	0	0			0	0			1				0	
6.6.1	win	2023-07-06	23:53:50	00:02:39	527001	60fcefe49e61a0aa689df3c8	4	1	main_slash	11	advance_on_keypress_SLASH	106	stimuli_distractor_trianglediamonds.svg	stimuli_distractor_diamondtriangles.svg	35	no	57	0	260	0	0			0	0			1				0	
6.6.1	win	2023-07-06	23:53:50	00:02:41	528931	60fcefe49e61a0aa689df3c8	4	1	main_slash	11	main_slash	107	stimuli_target_squaretriangles.svg	stimuli_distractor_diamondtriangles.svg	7	yes	53	1	1037	0	0			0	0			1				0	
6.6.1	win	2023-07-06	23:53:50	00:02:41	528931	60fcefe49e61a0aa689df3c8	4	1	main_slash	11	advance_on_keypress_SLASH	108	stimuli_target_squaretriangles.svg	stimuli_distractor_diamondtriangles.svg	7	yes	57	0	178	0	0			0	0			1				0	
6.6.1	win	2023-07-06	23:53:50	00:02:44	531744	60fcefe49e61a0aa689df3c8	4	1	main_slash	11	main_slash	109	stimuli_distractor_diamondtriangles.svg	stimuli_target_rectangletriangles.svg	13	yes	0	0	2000	0	0			0	0			1				0	
6.6.1	win	2023-07-06	23:53:50	00:02:44	531744	60fcefe49e61a0aa689df3c8	4	1	main_slash	11	advance_on_keypress_SLASH	110	stimuli_distractor_diamondtriangles.svg	stimuli_target_rectangletriangles.svg	13	yes	57	0	45	0	0			0	0			1				0	
6.6.1	win	2023-07-06	23:53:50	00:02:45	532918	60fcefe49e61a0aa689df3c8	4	1	main_slash	11	main_slash	111	stimuli_target_diamondsquares.svg	stimuli_distractor_diamondtriangles.svg	24	yes	53	1	473	0	0			0	0			1				0	
6.6.1	win	2023-07-06	23:53:50	00:02:45	532918	60fcefe49e61a0aa689df3c8	4	1	main_slash	11	advance_on_keypress_SLASH	112	stimuli_target_diamondsquares.svg	stimuli_distractor_diamondtriangles.svg	24	yes	57	0	192	0	0			0	0			1				0	
6.6.1	win	2023-07-06	23:53:50	00:02:48	535738	60fcefe49e61a0aa689df3c8	4	1	main_slash	11	main_slash	113	stimuli_distractor_trianglediamonds.svg	stimuli_distractor_trianglediamonds.svg	33	no	0	1	2000	0	0			0	0			1				0	
6.6.1	win	2023-07-06	23:53:50	00:02:48	535738	60fcefe49e61a0aa689df3c8	4	1	main_slash	11	advance_on_keypress_SLASH	114	stimuli_distractor_trianglediamonds.svg	stimuli_distractor_trianglediamonds.svg	33	no	57	0	357	0	0			0	0			1				0	
6.6.1	win	2023-07-06	23:53:50	00:02:50	537309	60fcefe49e61a0aa689df3c8	4	1	main_slash	11	main_slash	115	stimuli_distractor_diamondtriangles.svg	stimuli_target_diamondsquares.svg	32	yes	53	1	582	0	0			0	0			1				0	
6.6.1	win	2023-07-06	23:53:50	00:02:50	537309	60fcefe49e61a0aa689df3c8	4	1	main_slash	11	advance_on_keypress_SLASH	116	stimuli_distractor_diamondtriangles.svg	stimuli_target_diamondsquares.svg	32	yes	57	0	191	0	0			0	0			1				0	
6.6.1	win	2023-07-06	23:53:50	00:02:53	540155	60fcefe49e61a0aa689df3c8	4	1	main_slash	11	main_slash	117	stimuli_distractor_diamondtriangles.svg	stimuli_target_squarediamonds.svg	16	yes	0	0	2000	0	0			0	0			1				0	
6.6.1	win	2023-07-06	23:53:50	00:02:53	540155	60fcefe49e61a0aa689df3c8	4	1	main_slash	11	advance_on_keypress_SLASH	118	stimuli_distractor_diamondtriangles.svg	stimuli_target_squarediamonds.svg	16	yes	57	0	250	0	0			0	0			1				0	
6.6.1	win	2023-07-06	23:53:50	00:02:54	541532	60fcefe49e61a0aa689df3c8	4	1	main_slash	11	main_slash	119	stimuli_target_trianglerectangles.svg	stimuli_distractor_diamondtriangles.svg	21	yes	53	1	484	0	0			0	0			1				0	
6.6.1	win	2023-07-06	23:53:50	00:02:54	541532	60fcefe49e61a0aa689df3c8	4	1	main_slash	11	advance_on_keypress_SLASH	120	stimuli_target_trianglerectangles.svg	stimuli_distractor_diamondtriangles.svg	21	yes	57	0	122	0	0			0	0			1				0	
6.6.1	win	2023-07-06	23:53:50	00:02:57	544300	60fcefe49e61a0aa689df3c8	4	1	main_slash	11	main_slash	121	stimuli_distractor_diamondtriangles.svg	stimuli_distractor_trianglediamonds.svg	37	no	0	1	2000	0	0			0	0			1				0	
6.6.1	win	2023-07-06	23:53:50	00:02:57	544300	60fcefe49e61a0aa689df3c8	4	1	main_slash	11	advance_on_keypress_SLASH	122	stimuli_distractor_diamondtriangles.svg	stimuli_distractor_trianglediamonds.svg	37	no	57	0	327	0	0			0	0			1				0	
6.6.1	win	2023-07-06	23:53:50	00:02:59	546509	60fcefe49e61a0aa689df3c8	4	1	main_slash	11	main_slash	123	stimuli_distractor_diamondtriangles.svg	stimuli_distractor_diamondtriangles.svg	39	no	53	0	1255	0	0			0	0			1				0	
6.6.1	win	2023-07-06	23:53:50	00:02:59	546509	60fcefe49e61a0aa689df3c8	4	1	main_slash	11	advance_on_keypress_SLASH	124	stimuli_distractor_diamondtriangles.svg	stimuli_distractor_diamondtriangles.svg	39	no	57	0	18	0	0			0	0			1				0	
6.6.1	win	2023-07-06	23:53:50	00:03:00	547719	60fcefe49e61a0aa689df3c8	4	1	main_slash	11	main_slash	125	stimuli_distractor_trianglediamonds.svg	stimuli_target_trianglerectangles.svg	25	yes	53	1	559	0	0			0	0			1				0	
6.6.1	win	2023-07-06	23:53:50	00:03:00	547719	60fcefe49e61a0aa689df3c8	4	1	main_slash	11	advance_on_keypress_SLASH	126	stimuli_distractor_trianglediamonds.svg	stimuli_target_trianglerectangles.svg	25	yes	57	0	274	0	0			0	0			1				0	
6.6.1	win	2023-07-06	23:53:50	00:03:03	550619	60fcefe49e61a0aa689df3c8	4	1	main_slash	11	main_slash	127	stimuli_distractor_diamondtriangles.svg	stimuli_target_squaretriangles.svg	15	yes	0	0	2000	0	0			0	0			1				0	
6.6.1	win	2023-07-06	23:53:50	00:03:03	550619	60fcefe49e61a0aa689df3c8	4	1	main_slash	11	advance_on_keypress_SLASH	128	stimuli_distractor_diamondtriangles.svg	stimuli_target_squaretriangles.svg	15	yes	57	0	350	0	0			0	0			1				0	
6.6.1	win	2023-07-06	23:53:50	00:03:04	552106	60fcefe49e61a0aa689df3c8	4	1	main_slash	11	main_slash	129	stimuli_distractor_diamondtriangles.svg	stimuli_target_trianglesquares.svg	30	yes	53	1	489	0	0			0	0			1				0	
6.6.1	win	2023-07-06	23:53:50	00:03:04	552106	60fcefe49e61a0aa689df3c8	4	1	main_slash	11	advance_on_keypress_SLASH	130	stimuli_distractor_diamondtriangles.svg	stimuli_target_trianglesquares.svg	30	yes	57	0	131	0	0			0	0			1				0	
6.6.1	win	2023-07-06	23:53:50	00:03:06	553783	60fcefe49e61a0aa689df3c8	4	1	main_slash	11	main_slash	131	stimuli_target_rectanglediamonds.svg	stimuli_distractor_diamondtriangles.svg	6	yes	53	1	915	0	0			0	0			1				0	
6.6.1	win	2023-07-06	23:53:50	00:03:06	553783	60fcefe49e61a0aa689df3c8	4	1	main_slash	11	advance_on_keypress_SLASH	132	stimuli_target_rectanglediamonds.svg	stimuli_distractor_diamondtriangles.svg	6	yes	57	0	44	0	0			0	0			1				0	
6.6.1	win	2023-07-06	23:53:50	00:03:07	554999	60fcefe49e61a0aa689df3c8	4	1	main_slash	11	main_slash	133	stimuli_target_trianglesquares.svg	stimuli_distractor_trianglediamonds.svg	18	yes	53	1	540	0	0			0	0			1				0	
6.6.1	win	2023-07-06	23:53:50	00:03:07	554999	60fcefe49e61a0aa689df3c8	4	1	main_slash	11	advance_on_keypress_SLASH	134	stimuli_target_trianglesquares.svg	stimuli_distractor_trianglediamonds.svg	18	yes	57	0	247	0	0			0	0			1				0	
6.6.1	win	2023-07-06	23:53:50	00:03:10	557860	60fcefe49e61a0aa689df3c8	4	1	main_slash	11	main_slash	135	stimuli_distractor_trianglediamonds.svg	stimuli_target_squaretriangles.svg	11	yes	0	0	2000	0	0			0	0			1				0	
6.6.1	win	2023-07-06	23:53:50	00:03:10	557860	60fcefe49e61a0aa689df3c8	4	1	main_slash	11	advance_on_keypress_SLASH	136	stimuli_distractor_trianglediamonds.svg	stimuli_target_squaretriangles.svg	11	yes	57	0	377	0	0			0	0			1				0	
6.6.1	win	2023-07-06	23:53:50	00:03:13	560881	60fcefe49e61a0aa689df3c8	4	1	main_slash	11	main_slash	137	stimuli_target_squarediamonds.svg	stimuli_distractor_trianglediamonds.svg	4	yes	0	0	2000	0	0			0	0			1				0	
6.6.1	win	2023-07-06	23:53:50	00:03:13	560881	60fcefe49e61a0aa689df3c8	4	1	main_slash	11	advance_on_keypress_SLASH	138	stimuli_target_squarediamonds.svg	stimuli_distractor_trianglediamonds.svg	4	yes	57	0	328	0	0			0	0			1				0	
6.6.1	win	2023-07-06	23:53:50	00:03:15	562285	60fcefe49e61a0aa689df3c8	4	1	main_slash	11	main_slash	139	stimuli_distractor_trianglediamonds.svg	stimuli_target_diamondsquares.svg	28	yes	53	1	429	0	0			0	0			1				0	
6.6.1	win	2023-07-06	23:53:50	00:03:15	562285	60fcefe49e61a0aa689df3c8	4	1	main_slash	11	advance_on_keypress_SLASH	140	stimuli_distractor_trianglediamonds.svg	stimuli_target_diamondsquares.svg	28	yes	57	0	133	0	0			0	0			1				0	
6.6.1	win	2023-07-06	23:53:50	00:03:17	565065	60fcefe49e61a0aa689df3c8	4	1	main_slash	11	main_slash	141	stimuli_distractor_trianglediamonds.svg	stimuli_target_rectanglediamonds.svg	10	yes	0	0	2000	0	0			0	0			1				0	
6.6.1	win	2023-07-06	23:53:50	00:03:17	565065	60fcefe49e61a0aa689df3c8	4	1	main_slash	11	advance_on_keypress_SLASH	142	stimuli_distractor_trianglediamonds.svg	stimuli_target_rectanglediamonds.svg	10	yes	57	0	315	0	0			0	0			1				0	
6.6.1	win	2023-07-06	23:53:50	00:03:20	568026	60fcefe49e61a0aa689df3c8	4	1	main_slash	11	main_slash	143	stimuli_target_squarediamonds.svg	stimuli_distractor_diamondtriangles.svg	8	yes	0	0	2000	0	0			0	0			1				0	
6.6.1	win	2023-07-06	23:53:50	00:03:20	568026	60fcefe49e61a0aa689df3c8	4	1	main_slash	11	advance_on_keypress_SLASH	144	stimuli_target_squarediamonds.svg	stimuli_distractor_diamondtriangles.svg	8	yes	57	0	298	0	0			0	0			1				0	
6.6.1	win	2023-07-06	23:53:50	00:03:23	570957	60fcefe49e61a0aa689df3c8	4	1	main_slash	11	main_slash	145	stimuli_distractor_trianglediamonds.svg	stimuli_target_squarediamonds.svg	12	yes	0	0	2000	0	0			0	0			1				0	
6.6.1	win	2023-07-06	23:53:50	00:03:23	570957	60fcefe49e61a0aa689df3c8	4	1	main_slash	11	advance_on_keypress_SLASH	146	stimuli_distractor_trianglediamonds.svg	stimuli_target_squarediamonds.svg	12	yes	57	0	129	0	0			0	0			1				0	
6.6.1	win	2023-07-06	23:53:50	00:03:25	572501	60fcefe49e61a0aa689df3c8	4	1	main_slash	11	main_slash	147	stimuli_target_diamondrectangles.svg	stimuli_distractor_diamondtriangles.svg	23	yes	53	1	797	0	0			0	0			1				0	
6.6.1	win	2023-07-06	23:53:50	00:03:25	572501	60fcefe49e61a0aa689df3c8	4	1	main_slash	11	advance_on_keypress_SLASH	148	stimuli_target_diamondrectangles.svg	stimuli_distractor_diamondtriangles.svg	23	yes	57	0	159	0	0			0	0			1				0	
6.6.1	win	2023-07-06	23:53:50	00:03:26	573779	60fcefe49e61a0aa689df3c8	4	1	main_slash	11	main_slash	149	stimuli_target_trianglesquares.svg	stimuli_distractor_diamondtriangles.svg	22	yes	53	1	494	0	0			0	0			1				0	
6.6.1	win	2023-07-06	23:53:50	00:03:26	573779	60fcefe49e61a0aa689df3c8	4	1	main_slash	11	advance_on_keypress_SLASH	150	stimuli_target_trianglesquares.svg	stimuli_distractor_diamondtriangles.svg	22	yes	57	0	236	0	0			0	0			1				0	
6.6.1	win	2023-07-06	23:53:50	00:03:29	576653	60fcefe49e61a0aa689df3c8	4	1	main_slash	11	main_slash	151	stimuli_distractor_diamondtriangles.svg	stimuli_distractor_diamondtriangles.svg	40	no	0	1	2000	0	0			0	0			1				0	
6.6.1	win	2023-07-06	23:53:50	00:03:29	576653	60fcefe49e61a0aa689df3c8	4	1	main_slash	11	advance_on_keypress_SLASH	152	stimuli_distractor_diamondtriangles.svg	stimuli_distractor_diamondtriangles.svg	40	no	57	0	339	0	0			0	0			1				0	
6.6.1	win	2023-07-06	23:53:50	00:03:31	578416	60fcefe49e61a0aa689df3c8	4	1	main_slash	11	main_slash	153	stimuli_distractor_trianglediamonds.svg	stimuli_target_trianglesquares.svg	26	yes	53	1	777	0	0			0	0			1				0	
6.6.1	win	2023-07-06	23:53:50	00:03:31	578416	60fcefe49e61a0aa689df3c8	4	1	main_slash	11	advance_on_keypress_SLASH	154	stimuli_distractor_trianglediamonds.svg	stimuli_target_trianglesquares.svg	26	yes	57	0	245	0	0			0	0			1				0	
6.6.1	win	2023-07-06	23:53:50	00:03:32	579926	60fcefe49e61a0aa689df3c8	4	1	main_slash	11	main_slash	155	stimuli_distractor_trianglediamonds.svg	stimuli_target_rectangletriangles.svg	9	yes	53	1	630	0	0			0	0			1				0	
6.6.1	win	2023-07-06	23:53:50	00:03:32	579926	60fcefe49e61a0aa689df3c8	4	1	main_slash	11	advance_on_keypress_SLASH	156	stimuli_distractor_trianglediamonds.svg	stimuli_target_rectangletriangles.svg	9	yes	57	0	130	0	0			0	0			1				0	
6.6.1	win	2023-07-06	23:53:50	00:03:34	581250	60fcefe49e61a0aa689df3c8	4	1	main_slash	11	main_slash	157	stimuli_distractor_diamondtriangles.svg	stimuli_target_trianglerectangles.svg	29	yes	53	1	549	0	0			0	0			1				0	
6.6.1	win	2023-07-06	23:53:50	00:03:34	581250	60fcefe49e61a0aa689df3c8	4	1	main_slash	11	advance_on_keypress_SLASH	158	stimuli_distractor_diamondtriangles.svg	stimuli_target_trianglerectangles.svg	29	yes	57	0	158	0	0			0	0			1				0	
6.6.1	win	2023-07-06	23:53:50	00:03:35	582604	60fcefe49e61a0aa689df3c8	4	1	main_slash	11	main_slash	159	stimuli_distractor_trianglediamonds.svg	stimuli_distractor_diamondtriangles.svg	36	no	53	0	569	0	0			0	0			1				0	
6.6.1	win	2023-07-06	23:53:50	00:03:35	582604	60fcefe49e61a0aa689df3c8	4	1	main_slash	11	advance_on_keypress_SLASH	160	stimuli_distractor_trianglediamonds.svg	stimuli_distractor_diamondtriangles.svg	36	no	57	0	265	0	0			0	0			1				0	
6.6.1	win	2023-07-06	23:53:50	00:03:35	582604	60fcefe49e61a0aa689df3c8	4	1	headphonecheck_calibration	14	headphonecheck_calibrationIntro	1	stimuli_distractor_trianglediamonds.svg	stimuli_distractor_diamondtriangles.svg	36	no	calibrationButton	0	825	0	0			0	0			1				0	
6.6.1	win	2023-07-06	23:53:50	00:03:35	582604	60fcefe49e61a0aa689df3c8	4	1	headphonecheck_testphase	15	test_collectResponse	3	stimuli_distractor_trianglediamonds.svg	stimuli_distractor_diamondtriangles.svg	36	no	second	1	197	1	5	antiphase_hc_osi.wav	2	0	0			1				0	
6.6.1	win	2023-07-06	23:53:50	00:03:35	582604	60fcefe49e61a0aa689df3c8	4	1	headphonecheck_testphase	15	test_collectResponse	6	stimuli_distractor_trianglediamonds.svg	stimuli_distractor_diamondtriangles.svg	36	no	third	1	772	2	2	antiphase_hc_ios.wav	3	0	0			1				0	
6.6.1	win	2023-07-06	23:53:50	00:03:35	582604	60fcefe49e61a0aa689df3c8	4	1	headphonecheck_testphase	15	test_collectResponse	9	stimuli_distractor_trianglediamonds.svg	stimuli_distractor_diamondtriangles.svg	36	no	second	1	344	3	1	antiphase_hc_iso.wav	2	0	0			1				0	
6.6.1	win	2023-07-06	23:53:50	00:03:35	582604	60fcefe49e61a0aa689df3c8	4	1	headphonecheck_testphase	15	test_collectResponse	12	stimuli_distractor_trianglediamonds.svg	stimuli_distractor_diamondtriangles.svg	36	no	third	1	842	4	6	antiphase_hc_ois.wav	3	0	0			1				0	
6.6.1	win	2023-07-06	23:53:50	00:03:35	582604	60fcefe49e61a0aa689df3c8	4	1	headphonecheck_testphase	15	test_collectResponse	15	stimuli_distractor_trianglediamonds.svg	stimuli_distractor_diamondtriangles.svg	36	no	first	1	463	5	4	antiphase_hc_sio.wav	1	0	0			1				0	
6.6.1	win	2023-07-06	23:53:50	00:03:35	582604	60fcefe49e61a0aa689df3c8	4	1	headphonecheck_testphase	15	test_collectResponse	18	stimuli_distractor_trianglediamonds.svg	stimuli_distractor_diamondtriangles.svg	36	no	first	1	393	6	3	antiphase_hc_soi.wav	1	0	0			1				0	
6.6.1	win	2023-07-06	23:53:50	00:03:35	582604	60fcefe49e61a0aa689df3c8	4	1	stereocheck_calibration	17	stereocheck_calibrationIntro	1	stimuli_distractor_trianglediamonds.svg	stimuli_distractor_diamondtriangles.svg	36	no	stereocheck_calibrationButton	0	1896	6	3	antiphase_hc_soi.wav	1	0	0			1				0	
6.6.1	win	2023-07-06	23:53:50	00:03:35	582604	60fcefe49e61a0aa689df3c8	4	1	stereocheck_testphase	18	stereocheck_test_collectResponse	3	stimuli_distractor_trianglediamonds.svg	stimuli_distractor_diamondtriangles.svg	36	no	stereocheck_right	1	340	6	3	antiphase_hc_soi.wav	1	1	5	noise_calib_stim_RIGHT.wav	2	1				0	
6.6.1	win	2023-07-06	23:53:50	00:03:35	582604	60fcefe49e61a0aa689df3c8	4	1	stereocheck_testphase	18	stereocheck_test_collectResponse	6	stimuli_distractor_trianglediamonds.svg	stimuli_distractor_diamondtriangles.svg	36	no	stereocheck_left	1	330	6	3	antiphase_hc_soi.wav	1	2	1	noise_calib_stim_LEFT.wav	1	1				0	
6.6.1	win	2023-07-06	23:53:50	00:03:35	582604	60fcefe49e61a0aa689df3c8	4	1	stereocheck_testphase	18	stereocheck_test_collectResponse	9	stimuli_distractor_trianglediamonds.svg	stimuli_distractor_diamondtriangles.svg	36	no	stereocheck_left	1	261	6	3	antiphase_hc_soi.wav	1	3	3	noise_calib_stim_LEFT.wav	1	1				0	
6.6.1	win	2023-07-06	23:53:50	00:03:35	582604	60fcefe49e61a0aa689df3c8	4	1	stereocheck_testphase	18	stereocheck_test_collectResponse	12	stimuli_distractor_trianglediamonds.svg	stimuli_distractor_diamondtriangles.svg	36	no	stereocheck_right	1	268	6	3	antiphase_hc_soi.wav	1	4	6	noise_calib_stim_RIGHT.wav	2	1				0	
6.6.1	win	2023-07-06	23:53:50	00:03:35	582604	60fcefe49e61a0aa689df3c8	4	1	stereocheck_testphase	18	stereocheck_test_collectResponse	15	stimuli_distractor_trianglediamonds.svg	stimuli_distractor_diamondtriangles.svg	36	no	stereocheck_left	1	261	6	3	antiphase_hc_soi.wav	1	5	2	noise_calib_stim_LEFT.wav	1	1				0	
6.6.1	win	2023-07-06	23:53:50	00:03:35	582604	60fcefe49e61a0aa689df3c8	4	1	stereocheck_testphase	18	stereocheck_test_collectResponse	18	stimuli_distractor_trianglediamonds.svg	stimuli_distractor_diamondtriangles.svg	36	no	stereocheck_right	1	287	6	3	antiphase_hc_soi.wav	1	6	4	noise_calib_stim_RIGHT.wav	2	1				0	
6.6.1	win	2023-07-06	23:53:50	00:03:35	582604	60fcefe49e61a0aa689df3c8	4	1	DL_practice	21	DL_practice	2	stimuli_distractor_trianglediamonds.svg	stimuli_distractor_diamondtriangles.svg	36	no	da	1	1090	6	3	antiphase_hc_soi.wav	1	6	4	noise_calib_stim_RIGHT.wav	2	8	blb_dichoticlistening_da-da.mp3	da	da	0	left
6.6.1	win	2023-07-06	23:53:50	00:03:35	582604	60fcefe49e61a0aa689df3c8	4	1	DL_practice	21	DL_practice	3	stimuli_distractor_trianglediamonds.svg	stimuli_distractor_diamondtriangles.svg	36	no	ka	1	758	6	3	antiphase_hc_soi.wav	1	6	4	noise_calib_stim_RIGHT.wav	2	22	blb_dichoticlistening_ka-ka.mp3	ka	ka	0	left
6.6.1	win	2023-07-06	23:53:50	00:03:35	582604	60fcefe49e61a0aa689df3c8	4	1	DL_practice	21	DL_practice	4	stimuli_distractor_trianglediamonds.svg	stimuli_distractor_diamondtriangles.svg	36	no	ga	1	718	6	3	antiphase_hc_soi.wav	1	6	4	noise_calib_stim_RIGHT.wav	2	15	blb_dichoticlistening_ga-ga.mp3	ga	ga	0	left
6.6.1	win	2023-07-06	23:53:50	00:03:35	582604	60fcefe49e61a0aa689df3c8	4	1	DL_practice	21	DL_practice	5	stimuli_distractor_trianglediamonds.svg	stimuli_distractor_diamondtriangles.svg	36	no	ta	1	1129	6	3	antiphase_hc_soi.wav	1	6	4	noise_calib_stim_RIGHT.wav	2	36	blb_dichoticlistening_ta-ta.mp3	ta	ta	0	left
6.6.1	win	2023-07-06	23:53:50	00:03:35	582604	60fcefe49e61a0aa689df3c8	4	1	DL_practice	21	DL_practice	6	stimuli_distractor_trianglediamonds.svg	stimuli_distractor_diamondtriangles.svg	36	no	pa	1	1145	6	3	antiphase_hc_soi.wav	1	6	4	noise_calib_stim_RIGHT.wav	2	23	blb_dichoticlistening_ka-pa.mp3	ka	pa	1	right
6.6.1	win	2023-07-06	23:53:50	00:03:35	582604	60fcefe49e61a0aa689df3c8	4	1	DL_practice	21	DL_practice	7	stimuli_distractor_trianglediamonds.svg	stimuli_distractor_diamondtriangles.svg	36	no	ba	1	927	6	3	antiphase_hc_soi.wav	1	6	4	noise_calib_stim_RIGHT.wav	2	1	blb_dichoticlistening_ba-ba.mp3	ba	ba	0	left
6.6.1	win	2023-07-06	23:53:50	00:03:35	582604	60fcefe49e61a0aa689df3c8	4	1	DL_practice	21	DL_practice	8	stimuli_distractor_trianglediamonds.svg	stimuli_distractor_diamondtriangles.svg	36	no	pa	1	846	6	3	antiphase_hc_soi.wav	1	6	4	noise_calib_stim_RIGHT.wav	2	29	blb_dichoticlistening_pa-pa.mp3	pa	pa	0	left
6.6.1	win	2023-07-06	23:53:50	00:03:35	582604	60fcefe49e61a0aa689df3c8	4	1	DL_practice	21	DL_practice	9	stimuli_distractor_trianglediamonds.svg	stimuli_distractor_diamondtriangles.svg	36	no	da	1	818	6	3	antiphase_hc_soi.wav	1	6	4	noise_calib_stim_RIGHT.wav	2	7	blb_dichoticlistening_da-ba.mp3	da	ba	1	left
6.6.1	win	2023-07-06	23:53:50	00:03:35	582604	60fcefe49e61a0aa689df3c8	4	1	DL_practice	21	DL_practice	10	stimuli_distractor_trianglediamonds.svg	stimuli_distractor_diamondtriangles.svg	36	no	ka	0	898	6	3	antiphase_hc_soi.wav	1	6	4	noise_calib_stim_RIGHT.wav	2	18	blb_dichoticlistening_ga-ta.mp3	ga	ta	1	other
6.6.1	win	2023-07-06	23:53:50	00:03:35	582604	60fcefe49e61a0aa689df3c8	4	1	DL_test	23	DL_test	1	stimuli_distractor_trianglediamonds.svg	stimuli_distractor_diamondtriangles.svg	36	no	ta	1	1118	6	3	antiphase_hc_soi.wav	1	6	4	noise_calib_stim_RIGHT.wav	2	30	blb_dichoticlistening_pa-ta.mp3	pa	ta	1	right
6.6.1	win	2023-07-06	23:53:50	00:03:35	582604	60fcefe49e61a0aa689df3c8	4	1	DL_test	23	DL_test	2	stimuli_distractor_trianglediamonds.svg	stimuli_distractor_diamondtriangles.svg	36	no	pa	0	880	6	3	antiphase_hc_soi.wav	1	6	4	noise_calib_stim_RIGHT.wav	2	10	blb_dichoticlistening_da-ka.mp3	da	ka	1	other
6.6.1	win	2023-07-06	23:53:50	00:03:35	582604	60fcefe49e61a0aa689df3c8	4	1	DL_test	23	DL_test	3	stimuli_distractor_trianglediamonds.svg	stimuli_distractor_diamondtriangles.svg	36	no	ka	1	1005	6	3	antiphase_hc_soi.wav	1	6	4	noise_calib_stim_RIGHT.wav	2	24	blb_dichoticlistening_ka-ta.mp3	ka	ta	1	left
6.6.1	win	2023-07-06	23:53:50	00:03:35	582604	60fcefe49e61a0aa689df3c8	4	1	DL_test	23	DL_test	4	stimuli_distractor_trianglediamonds.svg	stimuli_distractor_diamondtriangles.svg	36	no	ba	1	1087	6	3	antiphase_hc_soi.wav	1	6	4	noise_calib_stim_RIGHT.wav	2	13	blb_dichoticlistening_ga-ba.mp3	ga	ba	1	right
6.6.1	win	2023-07-06	23:53:50	00:03:35	582604	60fcefe49e61a0aa689df3c8	4	1	DL_test	23	DL_test	5	stimuli_distractor_trianglediamonds.svg	stimuli_distractor_diamondtriangles.svg	36	no	ba	1	801	6	3	antiphase_hc_soi.wav	1	6	4	noise_calib_stim_RIGHT.wav	2	1	blb_dichoticlistening_ba-ba.mp3	ba	ba	0	left
6.6.1	win	2023-07-06	23:53:50	00:03:35	582604	60fcefe49e61a0aa689df3c8	4	1	DL_test	23	DL_test	6	stimuli_distractor_trianglediamonds.svg	stimuli_distractor_diamondtriangles.svg	36	no	pa	1	927	6	3	antiphase_hc_soi.wav	1	6	4	noise_calib_stim_RIGHT.wav	2	23	blb_dichoticlistening_ka-pa.mp3	ka	pa	1	right
6.6.1	win	2023-07-06	23:53:50	00:03:35	582604	60fcefe49e61a0aa689df3c8	4	1	DL_test	23	DL_test	7	stimuli_distractor_trianglediamonds.svg	stimuli_distractor_diamondtriangles.svg	36	no	pa	1	787	6	3	antiphase_hc_soi.wav	1	6	4	noise_calib_stim_RIGHT.wav	2	25	blb_dichoticlistening_pa-ba.mp3	pa	ba	1	left
6.6.1	win	2023-07-06	23:53:50	00:03:35	582604	60fcefe49e61a0aa689df3c8	4	1	DL_test	23	DL_test	8	stimuli_distractor_trianglediamonds.svg	stimuli_distractor_diamondtriangles.svg	36	no	ga	1	1095	6	3	antiphase_hc_soi.wav	1	6	4	noise_calib_stim_RIGHT.wav	2	3	blb_dichoticlistening_ba-ga.mp3	ba	ga	1	right
6.6.1	win	2023-07-06	23:53:50	00:03:35	582604	60fcefe49e61a0aa689df3c8	4	1	DL_test	23	DL_test	9	stimuli_distractor_trianglediamonds.svg	stimuli_distractor_diamondtriangles.svg	36	no	ta	0	971	6	3	antiphase_hc_soi.wav	1	6	4	noise_calib_stim_RIGHT.wav	2	26	blb_dichoticlistening_pa-da.mp3	pa	da	1	other
6.6.1	win	2023-07-06	23:53:50	00:03:35	582604	60fcefe49e61a0aa689df3c8	4	1	DL_test	23	DL_test	10	stimuli_distractor_trianglediamonds.svg	stimuli_distractor_diamondtriangles.svg	36	no	pa	1	983	6	3	antiphase_hc_soi.wav	1	6	4	noise_calib_stim_RIGHT.wav	2	27	blb_dichoticlistening_pa-ga.mp3	pa	ga	1	left
6.6.1	win	2023-07-06	23:53:50	00:03:35	582604	60fcefe49e61a0aa689df3c8	4	1	DL_test	23	DL_test	11	stimuli_distractor_trianglediamonds.svg	stimuli_distractor_diamondtriangles.svg	36	no	ta	1	705	6	3	antiphase_hc_soi.wav	1	6	4	noise_calib_stim_RIGHT.wav	2	12	blb_dichoticlistening_da-ta.mp3	da	ta	1	right
6.6.1	win	2023-07-06	23:53:50	00:03:35	582604	60fcefe49e61a0aa689df3c8	4	1	DL_test	23	DL_test	12	stimuli_distractor_trianglediamonds.svg	stimuli_distractor_diamondtriangles.svg	36	no	ka	0	1004	6	3	antiphase_hc_soi.wav	1	6	4	noise_calib_stim_RIGHT.wav	2	33	blb_dichoticlistening_ta-ga.mp3	ta	ga	1	other
6.6.1	win	2023-07-06	23:53:50	00:03:35	582604	60fcefe49e61a0aa689df3c8	4	1	DL_test	23	DL_test	13	stimuli_distractor_trianglediamonds.svg	stimuli_distractor_diamondtriangles.svg	36	no	ta	1	1014	6	3	antiphase_hc_soi.wav	1	6	4	noise_calib_stim_RIGHT.wav	2	35	blb_dichoticlistening_ta-pa.mp3	ta	pa	1	left
6.6.1	win	2023-07-06	23:53:50	00:03:35	582604	60fcefe49e61a0aa689df3c8	4	1	DL_test	23	DL_test	14	stimuli_distractor_trianglediamonds.svg	stimuli_distractor_diamondtriangles.svg	36	no	ga	1	822	6	3	antiphase_hc_soi.wav	1	6	4	noise_calib_stim_RIGHT.wav	2	15	blb_dichoticlistening_ga-ga.mp3	ga	ga	0	left
6.6.1	win	2023-07-06	23:53:50	00:03:35	582604	60fcefe49e61a0aa689df3c8	4	1	DL_test	23	DL_test	15	stimuli_distractor_trianglediamonds.svg	stimuli_distractor_diamondtriangles.svg	36	no	ka	1	1015	6	3	antiphase_hc_soi.wav	1	6	4	noise_calib_stim_RIGHT.wav	2	16	blb_dichoticlistening_ga-ka.mp3	ga	ka	1	right
6.6.1	win	2023-07-06	23:53:50	00:03:35	582604	60fcefe49e61a0aa689df3c8	4	1	DL_test	23	DL_test	16	stimuli_distractor_trianglediamonds.svg	stimuli_distractor_diamondtriangles.svg	36	no	da	1	785	6	3	antiphase_hc_soi.wav	1	6	4	noise_calib_stim_RIGHT.wav	2	7	blb_dichoticlistening_da-ba.mp3	da	ba	1	left
6.6.1	win	2023-07-06	23:53:50	00:03:35	582604	60fcefe49e61a0aa689df3c8	4	1	DL_test	23	DL_test	17	stimuli_distractor_trianglediamonds.svg	stimuli_distractor_diamondtriangles.svg	36	no	da	1	769	6	3	antiphase_hc_soi.wav	1	6	4	noise_calib_stim_RIGHT.wav	2	9	blb_dichoticlistening_da-ga.mp3	da	ga	1	left
6.6.1	win	2023-07-06	23:53:50	00:03:35	582604	60fcefe49e61a0aa689df3c8	4	1	DL_test	23	DL_test	18	stimuli_distractor_trianglediamonds.svg	stimuli_distractor_diamondtriangles.svg	36	no	ka	1	1257	6	3	antiphase_hc_soi.wav	1	6	4	noise_calib_stim_RIGHT.wav	2	20	blb_dichoticlistening_ka-da.mp3	ka	da	1	left
6.6.1	win	2023-07-06	23:53:50	00:03:35	582604	60fcefe49e61a0aa689df3c8	4	1	DL_test	23	DL_test	19	stimuli_distractor_trianglediamonds.svg	stimuli_distractor_diamondtriangles.svg	36	no	ka	1	767	6	3	antiphase_hc_soi.wav	1	6	4	noise_calib_stim_RIGHT.wav	2	4	blb_dichoticlistening_ba-ka.mp3	ba	ka	1	right
6.6.1	win	2023-07-06	23:53:50	00:03:35	582604	60fcefe49e61a0aa689df3c8	4	1	DL_test	23	DL_test	20	stimuli_distractor_trianglediamonds.svg	stimuli_distractor_diamondtriangles.svg	36	no	ka	1	589	6	3	antiphase_hc_soi.wav	1	6	4	noise_calib_stim_RIGHT.wav	2	22	blb_dichoticlistening_ka-ka.mp3	ka	ka	0	left
6.6.1	win	2023-07-06	23:53:50	00:03:35	582604	60fcefe49e61a0aa689df3c8	4	1	DL_test	23	DL_test	21	stimuli_distractor_trianglediamonds.svg	stimuli_distractor_diamondtriangles.svg	36	no	pa	1	976	6	3	antiphase_hc_soi.wav	1	6	4	noise_calib_stim_RIGHT.wav	2	29	blb_dichoticlistening_pa-pa.mp3	pa	pa	0	left
6.6.1	win	2023-07-06	23:53:50	00:03:35	582604	60fcefe49e61a0aa689df3c8	4	1	DL_test	23	DL_test	22	stimuli_distractor_trianglediamonds.svg	stimuli_distractor_diamondtriangles.svg	36	no	ka	1	973	6	3	antiphase_hc_soi.wav	1	6	4	noise_calib_stim_RIGHT.wav	2	21	blb_dichoticlistening_ka-ga.mp3	ka	ga	1	left
6.6.1	win	2023-07-06	23:53:50	00:03:35	582604	60fcefe49e61a0aa689df3c8	4	1	DL_test	23	DL_test	23	stimuli_distractor_trianglediamonds.svg	stimuli_distractor_diamondtriangles.svg	36	no	da	1	1095	6	3	antiphase_hc_soi.wav	1	6	4	noise_calib_stim_RIGHT.wav	2	14	blb_dichoticlistening_ga-da.mp3	ga	da	1	right
6.6.1	win	2023-07-06	23:53:50	00:03:35	582604	60fcefe49e61a0aa689df3c8	4	1	DL_test	23	DL_test	24	stimuli_distractor_trianglediamonds.svg	stimuli_distractor_diamondtriangles.svg	36	no	ka	1	711	6	3	antiphase_hc_soi.wav	1	6	4	noise_calib_stim_RIGHT.wav	2	34	blb_dichoticlistening_ta-ka.mp3	ta	ka	1	right
6.6.1	win	2023-07-06	23:53:50	00:03:35	582604	60fcefe49e61a0aa689df3c8	4	1	DL_test	23	DL_test	25	stimuli_distractor_trianglediamonds.svg	stimuli_distractor_diamondtriangles.svg	36	no	ta	1	869	6	3	antiphase_hc_soi.wav	1	6	4	noise_calib_stim_RIGHT.wav	2	36	blb_dichoticlistening_ta-ta.mp3	ta	ta	0	left
6.6.1	win	2023-07-06	23:53:50	00:03:35	582604	60fcefe49e61a0aa689df3c8	4	1	DL_test	23	DL_test	26	stimuli_distractor_trianglediamonds.svg	stimuli_distractor_diamondtriangles.svg	36	no	ka	1	1221	6	3	antiphase_hc_soi.wav	1	6	4	noise_calib_stim_RIGHT.wav	2	28	blb_dichoticlistening_pa-ka.mp3	pa	ka	1	right
