build	computer.platform	date	time	timestamp	time_elapsed_ms	subject	group	session	blockcode	blocknum	trialcode	trialnum	stimulus_left	stimulus_right	stim_index	target_present	response	correct	latency	headphonecheck_countTestTrials	headphonecheck_index	headphonecheck_testSound	headphonecheck_correctResponse	stereocheck_countTestTrials	stereocheck_index	stereocheck_testSound	stereocheck_correctResponse	DL_index	DL_soundfile	DL_leftSound	DL_rightSound	DL_dualSound	DL_choice
6.6.1	win	2023-06-02	02:45:20	02:48:06	160324	6054e1ddb68b58dd23242765	4	1	practice_z	5	practice_z	1	stimuli_distractor_trianglediamonds.svg	stimuli_target_rectanglediamonds.svg	10	yes	0	0	2000	0	0			0	0			1				0	
6.6.1	win	2023-06-02	02:45:20	02:48:06	160324	6054e1ddb68b58dd23242765	4	1	practice_z	5	advance_on_keypress_ZEE	2	stimuli_distractor_trianglediamonds.svg	stimuli_target_rectanglediamonds.svg	10	yes	57	0	1023	0	0			0	0			1				0	
6.6.1	win	2023-06-02	02:45:20	02:48:09	163573	6054e1ddb68b58dd23242765	4	1	practice_z	5	practice_z	3	stimuli_target_squarediamonds.svg	stimuli_distractor_trianglediamonds.svg	5	yes	44	1	561	0	0			0	0			1				0	
6.6.1	win	2023-06-02	02:45:20	02:48:09	163573	6054e1ddb68b58dd23242765	4	1	practice_z	5	advance_on_keypress_ZEE	4	stimuli_target_squarediamonds.svg	stimuli_distractor_trianglediamonds.svg	5	yes	57	0	695	0	0			0	0			1				0	
6.6.1	win	2023-06-02	02:45:20	02:48:12	166468	6054e1ddb68b58dd23242765	4	1	practice_z	5	practice_z	5	stimuli_target_squarediamonds.svg	stimuli_distractor_diamondtriangles.svg	2	yes	44	1	536	0	0			0	0			1				0	
6.6.1	win	2023-06-02	02:45:20	02:48:12	166468	6054e1ddb68b58dd23242765	4	1	practice_z	5	advance_on_keypress_ZEE	6	stimuli_target_squarediamonds.svg	stimuli_distractor_diamondtriangles.svg	2	yes	57	0	512	0	0			0	0			1				0	
6.6.1	win	2023-06-02	02:45:20	02:48:15	169398	6054e1ddb68b58dd23242765	4	1	practice_z	5	practice_z	7	stimuli_distractor_diamondtriangles.svg	stimuli_target_trianglerectangles.svg	9	yes	44	1	729	0	0			0	0			1				0	
6.6.1	win	2023-06-02	02:45:20	02:48:15	169398	6054e1ddb68b58dd23242765	4	1	practice_z	5	advance_on_keypress_ZEE	8	stimuli_distractor_diamondtriangles.svg	stimuli_target_trianglerectangles.svg	9	yes	57	0	662	0	0			0	0			1				0	
6.6.1	win	2023-06-02	02:45:20	02:48:18	172518	6054e1ddb68b58dd23242765	4	1	practice_z	5	practice_z	9	stimuli_target_rectanglediamonds.svg	stimuli_distractor_diamondtriangles.svg	1	yes	44	1	796	0	0			0	0			1				0	
6.6.1	win	2023-06-02	02:45:20	02:48:18	172518	6054e1ddb68b58dd23242765	4	1	practice_z	5	advance_on_keypress_ZEE	10	stimuli_target_rectanglediamonds.svg	stimuli_distractor_diamondtriangles.svg	1	yes	57	0	456	0	0			0	0			1				0	
6.6.1	win	2023-06-02	02:45:20	02:48:21	175176	6054e1ddb68b58dd23242765	4	1	practice_z	5	practice_z	11	stimuli_target_rectanglediamonds.svg	stimuli_distractor_trianglediamonds.svg	4	yes	44	1	552	0	0			0	0			1				0	
6.6.1	win	2023-06-02	02:45:20	02:48:21	175176	6054e1ddb68b58dd23242765	4	1	practice_z	5	advance_on_keypress_ZEE	12	stimuli_target_rectanglediamonds.svg	stimuli_distractor_trianglediamonds.svg	4	yes	57	0	483	0	0			0	0			1				0	
6.6.1	win	2023-06-02	02:45:20	02:48:23	177916	6054e1ddb68b58dd23242765	4	1	practice_z	5	practice_z	13	stimuli_target_diamondsquares.svg	stimuli_distractor_trianglediamonds.svg	6	yes	44	1	605	0	0			0	0			1				0	
6.6.1	win	2023-06-02	02:45:20	02:48:23	177916	6054e1ddb68b58dd23242765	4	1	practice_z	5	advance_on_keypress_ZEE	14	stimuli_target_diamondsquares.svg	stimuli_distractor_trianglediamonds.svg	6	yes	57	0	251	0	0			0	0			1				0	
6.6.1	win	2023-06-02	02:45:20	02:48:27	181815	6054e1ddb68b58dd23242765	4	1	practice_z	5	practice_z	15	stimuli_distractor_diamondtriangles.svg	stimuli_target_rectangletriangles.svg	7	yes	0	0	2000	0	0			0	0			1				0	
6.6.1	win	2023-06-02	02:45:20	02:48:27	181815	6054e1ddb68b58dd23242765	4	1	practice_z	5	advance_on_keypress_ZEE	16	stimuli_distractor_diamondtriangles.svg	stimuli_target_rectangletriangles.svg	7	yes	57	0	446	0	0			0	0			1				0	
6.6.1	win	2023-06-02	02:45:20	02:48:30	184596	6054e1ddb68b58dd23242765	4	1	practice_z	5	practice_z	17	stimuli_target_diamondsquares.svg	stimuli_distractor_diamondtriangles.svg	3	yes	44	1	677	0	0			0	0			1				0	
6.6.1	win	2023-06-02	02:45:20	02:48:30	184596	6054e1ddb68b58dd23242765	4	1	practice_z	5	advance_on_keypress_ZEE	18	stimuli_target_diamondsquares.svg	stimuli_distractor_diamondtriangles.svg	3	yes	57	0	510	0	0			0	0			1				0	
6.6.1	win	2023-06-02	02:45:20	02:48:33	187447	6054e1ddb68b58dd23242765	4	1	practice_z	5	practice_z	19	stimuli_distractor_trianglediamonds.svg	stimuli_target_diamondrectangles.svg	12	yes	44	1	692	0	0			0	0			1				0	
6.6.1	win	2023-06-02	02:45:20	02:48:33	187447	6054e1ddb68b58dd23242765	4	1	practice_z	5	advance_on_keypress_ZEE	20	stimuli_distractor_trianglediamonds.svg	stimuli_target_diamondrectangles.svg	12	yes	57	0	273	0	0			0	0			1				0	
6.6.1	win	2023-06-02	02:45:20	02:48:36	190084	6054e1ddb68b58dd23242765	4	1	practice_z	5	practice_z	21	stimuli_distractor_diamondtriangles.svg	stimuli_target_diamondrectangles.svg	8	yes	44	1	725	0	0			0	0			1				0	
6.6.1	win	2023-06-02	02:45:20	02:48:36	190084	6054e1ddb68b58dd23242765	4	1	practice_z	5	advance_on_keypress_ZEE	22	stimuli_distractor_diamondtriangles.svg	stimuli_target_diamondrectangles.svg	8	yes	57	0	97	0	0			0	0			1				0	
6.6.1	win	2023-06-02	02:45:20	02:48:39	193829	6054e1ddb68b58dd23242765	4	1	practice_z	5	practice_z	23	stimuli_distractor_trianglediamonds.svg	stimuli_distractor_trianglediamonds.svg	15	no	0	1	2000	0	0			0	0			1				0	
6.6.1	win	2023-06-02	02:45:20	02:48:39	193829	6054e1ddb68b58dd23242765	4	1	practice_z	5	advance_on_keypress_ZEE	24	stimuli_distractor_trianglediamonds.svg	stimuli_distractor_trianglediamonds.svg	15	no	57	0	403	0	0			0	0			1				0	
6.6.1	win	2023-06-02	02:45:20	02:48:43	197884	6054e1ddb68b58dd23242765	4	1	practice_z	5	practice_z	25	stimuli_distractor_diamondtriangles.svg	stimuli_distractor_trianglediamonds.svg	14	no	0	1	2000	0	0			0	0			1				0	
6.6.1	win	2023-06-02	02:45:20	02:48:43	197884	6054e1ddb68b58dd23242765	4	1	practice_z	5	advance_on_keypress_ZEE	26	stimuli_distractor_diamondtriangles.svg	stimuli_distractor_trianglediamonds.svg	14	no	57	0	442	0	0			0	0			1				0	
6.6.1	win	2023-06-02	02:45:20	02:48:46	200712	6054e1ddb68b58dd23242765	4	1	practice_z	5	practice_z	27	stimuli_distractor_trianglediamonds.svg	stimuli_target_squarediamonds.svg	11	yes	44	1	741	0	0			0	0			1				0	
6.6.1	win	2023-06-02	02:45:20	02:48:46	200712	6054e1ddb68b58dd23242765	4	1	practice_z	5	advance_on_keypress_ZEE	28	stimuli_distractor_trianglediamonds.svg	stimuli_target_squarediamonds.svg	11	yes	57	0	419	0	0			0	0			1				0	
6.6.1	win	2023-06-02	02:45:20	02:48:50	204775	6054e1ddb68b58dd23242765	4	1	practice_z	5	practice_z	29	stimuli_distractor_trianglediamonds.svg	stimuli_distractor_diamondtriangles.svg	16	no	0	1	2000	0	0			0	0			1				0	
6.6.1	win	2023-06-02	02:45:20	02:48:50	204775	6054e1ddb68b58dd23242765	4	1	practice_z	5	advance_on_keypress_ZEE	30	stimuli_distractor_trianglediamonds.svg	stimuli_distractor_diamondtriangles.svg	16	no	57	0	414	0	0			0	0			1				0	
6.6.1	win	2023-06-02	02:45:20	02:48:54	208846	6054e1ddb68b58dd23242765	4	1	practice_z	5	practice_z	31	stimuli_distractor_diamondtriangles.svg	stimuli_distractor_diamondtriangles.svg	13	no	0	1	2000	0	0			0	0			1				0	
6.6.1	win	2023-06-02	02:45:20	02:48:54	208846	6054e1ddb68b58dd23242765	4	1	practice_z	5	advance_on_keypress_ZEE	32	stimuli_distractor_diamondtriangles.svg	stimuli_distractor_diamondtriangles.svg	13	no	57	0	416	0	0			0	0			1				0	
6.6.1	win	2023-06-02	02:45:20	02:49:20	234683	6054e1ddb68b58dd23242765	4	1	main_z	7	main_z	1	stimuli_target_diamondsquares.svg	stimuli_distractor_diamondtriangles.svg	24	yes	44	1	755	0	0			0	0			1				0	
6.6.1	win	2023-06-02	02:45:20	02:49:20	234683	6054e1ddb68b58dd23242765	4	1	main_z	7	advance_on_keypress_ZEE	2	stimuli_target_diamondsquares.svg	stimuli_distractor_diamondtriangles.svg	24	yes	57	0	779	0	0			0	0			1				0	
6.6.1	win	2023-06-02	02:45:20	02:49:22	236780	6054e1ddb68b58dd23242765	4	1	main_z	7	main_z	3	stimuli_distractor_trianglediamonds.svg	stimuli_target_squarediamonds.svg	12	yes	44	1	668	0	0			0	0			1				0	
6.6.1	win	2023-06-02	02:45:20	02:49:22	236780	6054e1ddb68b58dd23242765	4	1	main_z	7	advance_on_keypress_ZEE	4	stimuli_distractor_trianglediamonds.svg	stimuli_target_squarediamonds.svg	12	yes	57	0	460	0	0			0	0			1				0	
6.6.1	win	2023-06-02	02:45:20	02:49:24	238449	6054e1ddb68b58dd23242765	4	1	main_z	7	main_z	5	stimuli_target_squarediamonds.svg	stimuli_distractor_trianglediamonds.svg	4	yes	44	1	566	0	0			0	0			1				0	
6.6.1	win	2023-06-02	02:45:20	02:49:24	238449	6054e1ddb68b58dd23242765	4	1	main_z	7	advance_on_keypress_ZEE	6	stimuli_target_squarediamonds.svg	stimuli_distractor_trianglediamonds.svg	4	yes	57	0	360	0	0			0	0			1				0	
6.6.1	win	2023-06-02	02:45:20	02:49:27	241449	6054e1ddb68b58dd23242765	4	1	main_z	7	main_z	7	stimuli_distractor_diamondtriangles.svg	stimuli_distractor_diamondtriangles.svg	39	no	0	1	2000	0	0			0	0			1				0	
6.6.1	win	2023-06-02	02:45:20	02:49:27	241449	6054e1ddb68b58dd23242765	4	1	main_z	7	advance_on_keypress_ZEE	8	stimuli_distractor_diamondtriangles.svg	stimuli_distractor_diamondtriangles.svg	39	no	57	0	537	0	0			0	0			1				0	
6.6.1	win	2023-06-02	02:45:20	02:49:29	243207	6054e1ddb68b58dd23242765	4	1	main_z	7	main_z	9	stimuli_distractor_diamondtriangles.svg	stimuli_target_trianglesquares.svg	30	yes	44	1	570	0	0			0	0			1				0	
6.6.1	win	2023-06-02	02:45:20	02:49:29	243207	6054e1ddb68b58dd23242765	4	1	main_z	7	advance_on_keypress_ZEE	10	stimuli_distractor_diamondtriangles.svg	stimuli_target_trianglesquares.svg	30	yes	57	0	449	0	0			0	0			1				0	
6.6.1	win	2023-06-02	02:45:20	02:49:30	244911	6054e1ddb68b58dd23242765	4	1	main_z	7	main_z	11	stimuli_target_trianglerectangles.svg	stimuli_distractor_diamondtriangles.svg	21	yes	44	1	606	0	0			0	0			1				0	
6.6.1	win	2023-06-02	02:45:20	02:49:30	244911	6054e1ddb68b58dd23242765	4	1	main_z	7	advance_on_keypress_ZEE	12	stimuli_target_trianglerectangles.svg	stimuli_distractor_diamondtriangles.svg	21	yes	57	0	400	0	0			0	0			1				0	
6.6.1	win	2023-06-02	02:45:20	02:49:33	247956	6054e1ddb68b58dd23242765	4	1	main_z	7	main_z	13	stimuli_distractor_trianglediamonds.svg	stimuli_target_squaretriangles.svg	11	yes	0	0	2000	0	0			0	0			1				0	
6.6.1	win	2023-06-02	02:45:20	02:49:33	247956	6054e1ddb68b58dd23242765	4	1	main_z	7	advance_on_keypress_ZEE	14	stimuli_distractor_trianglediamonds.svg	stimuli_target_squaretriangles.svg	11	yes	57	0	412	0	0			0	0			1				0	
6.6.1	win	2023-06-02	02:45:20	02:49:36	251010	6054e1ddb68b58dd23242765	4	1	main_z	7	main_z	15	stimuli_distractor_diamondtriangles.svg	stimuli_distractor_trianglediamonds.svg	38	no	0	1	2000	0	0			0	0			1				0	
6.6.1	win	2023-06-02	02:45:20	02:49:36	251010	6054e1ddb68b58dd23242765	4	1	main_z	7	advance_on_keypress_ZEE	16	stimuli_distractor_diamondtriangles.svg	stimuli_distractor_trianglediamonds.svg	38	no	57	0	362	0	0			0	0			1				0	
6.6.1	win	2023-06-02	02:45:20	02:49:39	254013	6054e1ddb68b58dd23242765	4	1	main_z	7	main_z	17	stimuli_distractor_diamondtriangles.svg	stimuli_distractor_trianglediamonds.svg	37	no	0	1	2000	0	0			0	0			1				0	
6.6.1	win	2023-06-02	02:45:20	02:49:39	254013	6054e1ddb68b58dd23242765	4	1	main_z	7	advance_on_keypress_ZEE	18	stimuli_distractor_diamondtriangles.svg	stimuli_distractor_trianglediamonds.svg	37	no	57	0	163	0	0			0	0			1				0	
6.6.1	win	2023-06-02	02:45:20	02:49:41	255575	6054e1ddb68b58dd23242765	4	1	main_z	7	main_z	19	stimuli_distractor_trianglediamonds.svg	stimuli_target_trianglerectangles.svg	25	yes	44	1	741	0	0			0	0			1				0	
6.6.1	win	2023-06-02	02:45:20	02:49:41	255575	6054e1ddb68b58dd23242765	4	1	main_z	7	advance_on_keypress_ZEE	20	stimuli_distractor_trianglediamonds.svg	stimuli_target_trianglerectangles.svg	25	yes	57	0	642	0	0			0	0			1				0	
6.6.1	win	2023-06-02	02:45:20	02:49:43	257781	6054e1ddb68b58dd23242765	4	1	main_z	7	main_z	21	stimuli_target_rectangletriangles.svg	stimuli_distractor_diamondtriangles.svg	5	yes	44	1	928	0	0			0	0			1				0	
6.6.1	win	2023-06-02	02:45:20	02:49:43	257781	6054e1ddb68b58dd23242765	4	1	main_z	7	advance_on_keypress_ZEE	22	stimuli_target_rectangletriangles.svg	stimuli_distractor_diamondtriangles.svg	5	yes	57	0	527	0	0			0	0			1				0	
6.6.1	win	2023-06-02	02:45:20	02:49:45	259679	6054e1ddb68b58dd23242765	4	1	main_z	7	main_z	23	stimuli_target_rectanglediamonds.svg	stimuli_distractor_diamondtriangles.svg	6	yes	44	1	740	0	0			0	0			1				0	
6.6.1	win	2023-06-02	02:45:20	02:49:45	259679	6054e1ddb68b58dd23242765	4	1	main_z	7	advance_on_keypress_ZEE	24	stimuli_target_rectanglediamonds.svg	stimuli_distractor_diamondtriangles.svg	6	yes	57	0	549	0	0			0	0			1				0	
6.6.1	win	2023-06-02	02:45:20	02:49:47	261747	6054e1ddb68b58dd23242765	4	1	main_z	7	main_z	25	stimuli_target_diamondrectangles.svg	stimuli_distractor_trianglediamonds.svg	19	yes	44	1	873	0	0			0	0			1				0	
6.6.1	win	2023-06-02	02:45:20	02:49:47	261747	6054e1ddb68b58dd23242765	4	1	main_z	7	advance_on_keypress_ZEE	26	stimuli_target_diamondrectangles.svg	stimuli_distractor_trianglediamonds.svg	19	yes	57	0	559	0	0			0	0			1				0	
6.6.1	win	2023-06-02	02:45:20	02:49:49	263747	6054e1ddb68b58dd23242765	4	1	main_z	7	main_z	27	stimuli_target_diamondrectangles.svg	stimuli_distractor_diamondtriangles.svg	23	yes	44	1	804	0	0			0	0			1				0	
6.6.1	win	2023-06-02	02:45:20	02:49:49	263747	6054e1ddb68b58dd23242765	4	1	main_z	7	advance_on_keypress_ZEE	28	stimuli_target_diamondrectangles.svg	stimuli_distractor_diamondtriangles.svg	23	yes	57	0	392	0	0			0	0			1				0	
6.6.1	win	2023-06-02	02:45:20	02:49:51	265528	6054e1ddb68b58dd23242765	4	1	main_z	7	main_z	29	stimuli_target_rectangletriangles.svg	stimuli_distractor_trianglediamonds.svg	1	yes	44	1	749	0	0			0	0			1				0	
6.6.1	win	2023-06-02	02:45:20	02:49:51	265528	6054e1ddb68b58dd23242765	4	1	main_z	7	advance_on_keypress_ZEE	30	stimuli_target_rectangletriangles.svg	stimuli_distractor_trianglediamonds.svg	1	yes	57	0	376	0	0			0	0			1				0	
6.6.1	win	2023-06-02	02:45:20	02:49:54	268547	6054e1ddb68b58dd23242765	4	1	main_z	7	main_z	31	stimuli_distractor_trianglediamonds.svg	stimuli_distractor_trianglediamonds.svg	33	no	0	1	2000	0	0			0	0			1				0	
6.6.1	win	2023-06-02	02:45:20	02:49:54	268547	6054e1ddb68b58dd23242765	4	1	main_z	7	advance_on_keypress_ZEE	32	stimuli_distractor_trianglediamonds.svg	stimuli_distractor_trianglediamonds.svg	33	no	57	0	257	0	0			0	0			1				0	
6.6.1	win	2023-06-02	02:45:20	02:49:56	270074	6054e1ddb68b58dd23242765	4	1	main_z	7	main_z	33	stimuli_distractor_diamondtriangles.svg	stimuli_target_rectangletriangles.svg	13	yes	44	1	622	0	0			0	0			1				0	
6.6.1	win	2023-06-02	02:45:20	02:49:56	270074	6054e1ddb68b58dd23242765	4	1	main_z	7	advance_on_keypress_ZEE	34	stimuli_distractor_diamondtriangles.svg	stimuli_target_rectangletriangles.svg	13	yes	57	0	462	0	0			0	0			1				0	
6.6.1	win	2023-06-02	02:45:20	02:49:57	271790	6054e1ddb68b58dd23242765	4	1	main_z	7	main_z	35	stimuli_target_diamondsquares.svg	stimuli_distractor_trianglediamonds.svg	20	yes	44	1	603	0	0			0	0			1				0	
6.6.1	win	2023-06-02	02:45:20	02:49:57	271790	6054e1ddb68b58dd23242765	4	1	main_z	7	advance_on_keypress_ZEE	36	stimuli_target_diamondsquares.svg	stimuli_distractor_trianglediamonds.svg	20	yes	57	0	446	0	0			0	0			1				0	
6.6.1	win	2023-06-02	02:45:20	02:49:59	273549	6054e1ddb68b58dd23242765	4	1	main_z	7	main_z	37	stimuli_target_squaretriangles.svg	stimuli_distractor_diamondtriangles.svg	7	yes	44	1	662	0	0			0	0			1				0	
6.6.1	win	2023-06-02	02:45:20	02:49:59	273549	6054e1ddb68b58dd23242765	4	1	main_z	7	advance_on_keypress_ZEE	38	stimuli_target_squaretriangles.svg	stimuli_distractor_diamondtriangles.svg	7	yes	57	0	460	0	0			0	0			1				0	
6.6.1	win	2023-06-02	02:45:20	02:50:01	275237	6054e1ddb68b58dd23242765	4	1	main_z	7	main_z	39	stimuli_target_trianglesquares.svg	stimuli_distractor_trianglediamonds.svg	18	yes	44	1	597	0	0			0	0			1				0	
6.6.1	win	2023-06-02	02:45:20	02:50:01	275237	6054e1ddb68b58dd23242765	4	1	main_z	7	advance_on_keypress_ZEE	40	stimuli_target_trianglesquares.svg	stimuli_distractor_trianglediamonds.svg	18	yes	57	0	393	0	0			0	0			1				0	
6.6.1	win	2023-06-02	02:45:20	02:50:04	278275	6054e1ddb68b58dd23242765	4	1	main_z	7	main_z	41	stimuli_distractor_trianglediamonds.svg	stimuli_distractor_diamondtriangles.svg	35	no	0	1	2000	0	0			0	0			1				0	
6.6.1	win	2023-06-02	02:45:20	02:50:04	278275	6054e1ddb68b58dd23242765	4	1	main_z	7	advance_on_keypress_ZEE	42	stimuli_distractor_trianglediamonds.svg	stimuli_distractor_diamondtriangles.svg	35	no	57	0	383	0	0			0	0			1				0	
6.6.1	win	2023-06-02	02:45:20	02:50:07	281312	6054e1ddb68b58dd23242765	4	1	main_z	7	main_z	43	stimuli_distractor_trianglediamonds.svg	stimuli_distractor_diamondtriangles.svg	36	no	0	1	2000	0	0			0	0			1				0	
6.6.1	win	2023-06-02	02:45:20	02:50:07	281312	6054e1ddb68b58dd23242765	4	1	main_z	7	advance_on_keypress_ZEE	44	stimuli_distractor_trianglediamonds.svg	stimuli_distractor_diamondtriangles.svg	36	no	57	0	242	0	0			0	0			1				0	
6.6.1	win	2023-06-02	02:45:20	02:50:08	282829	6054e1ddb68b58dd23242765	4	1	main_z	7	main_z	45	stimuli_target_rectanglediamonds.svg	stimuli_distractor_trianglediamonds.svg	2	yes	44	1	631	0	0			0	0			1				0	
6.6.1	win	2023-06-02	02:45:20	02:50:08	282829	6054e1ddb68b58dd23242765	4	1	main_z	7	advance_on_keypress_ZEE	46	stimuli_target_rectanglediamonds.svg	stimuli_distractor_trianglediamonds.svg	2	yes	57	0	478	0	0			0	0			1				0	
6.6.1	win	2023-06-02	02:45:20	02:50:10	284625	6054e1ddb68b58dd23242765	4	1	main_z	7	main_z	47	stimuli_distractor_diamondtriangles.svg	stimuli_target_trianglerectangles.svg	29	yes	44	1	673	0	0			0	0			1				0	
6.6.1	win	2023-06-02	02:45:20	02:50:10	284625	6054e1ddb68b58dd23242765	4	1	main_z	7	advance_on_keypress_ZEE	48	stimuli_distractor_diamondtriangles.svg	stimuli_target_trianglerectangles.svg	29	yes	57	0	715	0	0			0	0			1				0	
6.6.1	win	2023-06-02	02:45:20	02:50:12	286622	6054e1ddb68b58dd23242765	4	1	main_z	7	main_z	49	stimuli_distractor_diamondtriangles.svg	stimuli_target_squarediamonds.svg	16	yes	44	1	634	0	0			0	0			1				0	
6.6.1	win	2023-06-02	02:45:20	02:50:12	286622	6054e1ddb68b58dd23242765	4	1	main_z	7	advance_on_keypress_ZEE	50	stimuli_distractor_diamondtriangles.svg	stimuli_target_squarediamonds.svg	16	yes	57	0	536	0	0			0	0			1				0	
6.6.1	win	2023-06-02	02:45:20	02:50:15	289805	6054e1ddb68b58dd23242765	4	1	main_z	7	main_z	51	stimuli_distractor_trianglediamonds.svg	stimuli_distractor_trianglediamonds.svg	34	no	0	1	2000	0	0			0	0			1				0	
6.6.1	win	2023-06-02	02:45:20	02:50:15	289805	6054e1ddb68b58dd23242765	4	1	main_z	7	advance_on_keypress_ZEE	52	stimuli_distractor_trianglediamonds.svg	stimuli_distractor_trianglediamonds.svg	34	no	57	0	358	0	0			0	0			1				0	
6.6.1	win	2023-06-02	02:45:20	02:50:17	291421	6054e1ddb68b58dd23242765	4	1	main_z	7	main_z	53	stimuli_distractor_diamondtriangles.svg	stimuli_target_diamondrectangles.svg	31	yes	44	1	613	0	0			0	0			1				0	
6.6.1	win	2023-06-02	02:45:20	02:50:17	291421	6054e1ddb68b58dd23242765	4	1	main_z	7	advance_on_keypress_ZEE	54	stimuli_distractor_diamondtriangles.svg	stimuli_target_diamondrectangles.svg	31	yes	57	0	440	0	0			0	0			1				0	
6.6.1	win	2023-06-02	02:45:20	02:50:19	293230	6054e1ddb68b58dd23242765	4	1	main_z	7	main_z	55	stimuli_distractor_diamondtriangles.svg	stimuli_target_squaretriangles.svg	15	yes	44	1	735	0	0			0	0			1				0	
6.6.1	win	2023-06-02	02:45:20	02:50:19	293230	6054e1ddb68b58dd23242765	4	1	main_z	7	advance_on_keypress_ZEE	56	stimuli_distractor_diamondtriangles.svg	stimuli_target_squaretriangles.svg	15	yes	57	0	693	0	0			0	0			1				0	
6.6.1	win	2023-06-02	02:45:20	02:50:21	295367	6054e1ddb68b58dd23242765	4	1	main_z	7	main_z	57	stimuli_distractor_trianglediamonds.svg	stimuli_target_rectangletriangles.svg	9	yes	44	1	804	0	0			0	0			1				0	
6.6.1	win	2023-06-02	02:45:20	02:50:21	295367	6054e1ddb68b58dd23242765	4	1	main_z	7	advance_on_keypress_ZEE	58	stimuli_distractor_trianglediamonds.svg	stimuli_target_rectangletriangles.svg	9	yes	57	0	333	0	0			0	0			1				0	
6.6.1	win	2023-06-02	02:45:20	02:50:22	296922	6054e1ddb68b58dd23242765	4	1	main_z	7	main_z	59	stimuli_target_squarediamonds.svg	stimuli_distractor_diamondtriangles.svg	8	yes	44	1	572	0	0			0	0			1				0	
6.6.1	win	2023-06-02	02:45:20	02:50:22	296922	6054e1ddb68b58dd23242765	4	1	main_z	7	advance_on_keypress_ZEE	60	stimuli_target_squarediamonds.svg	stimuli_distractor_diamondtriangles.svg	8	yes	57	0	433	0	0			0	0			1				0	
6.6.1	win	2023-06-02	02:45:20	02:50:24	298614	6054e1ddb68b58dd23242765	4	1	main_z	7	main_z	61	stimuli_target_trianglesquares.svg	stimuli_distractor_diamondtriangles.svg	22	yes	44	1	614	0	0			0	0			1				0	
6.6.1	win	2023-06-02	02:45:20	02:50:24	298614	6054e1ddb68b58dd23242765	4	1	main_z	7	advance_on_keypress_ZEE	62	stimuli_target_trianglesquares.svg	stimuli_distractor_diamondtriangles.svg	22	yes	57	0	247	0	0			0	0			1				0	
6.6.1	win	2023-06-02	02:45:20	02:50:27	301519	6054e1ddb68b58dd23242765	4	1	main_z	7	main_z	63	stimuli_distractor_diamondtriangles.svg	stimuli_distractor_diamondtriangles.svg	40	no	0	1	2000	0	0			0	0			1				0	
6.6.1	win	2023-06-02	02:45:20	02:50:27	301519	6054e1ddb68b58dd23242765	4	1	main_z	7	advance_on_keypress_ZEE	64	stimuli_distractor_diamondtriangles.svg	stimuli_distractor_diamondtriangles.svg	40	no	57	0	227	0	0			0	0			1				0	
6.6.1	win	2023-06-02	02:45:20	02:50:29	303409	6054e1ddb68b58dd23242765	4	1	main_z	7	main_z	65	stimuli_target_trianglerectangles.svg	stimuli_distractor_trianglediamonds.svg	17	yes	44	1	1020	0	0			0	0			1				0	
6.6.1	win	2023-06-02	02:45:20	02:50:29	303409	6054e1ddb68b58dd23242765	4	1	main_z	7	advance_on_keypress_ZEE	66	stimuli_target_trianglerectangles.svg	stimuli_distractor_trianglediamonds.svg	17	yes	57	0	286	0	0			0	0			1				0	
6.6.1	win	2023-06-02	02:45:20	02:50:30	305033	6054e1ddb68b58dd23242765	4	1	main_z	7	main_z	67	stimuli_distractor_trianglediamonds.svg	stimuli_target_diamondsquares.svg	28	yes	44	1	692	0	0			0	0			1				0	
6.6.1	win	2023-06-02	02:45:20	02:50:30	305033	6054e1ddb68b58dd23242765	4	1	main_z	7	advance_on_keypress_ZEE	68	stimuli_distractor_trianglediamonds.svg	stimuli_target_diamondsquares.svg	28	yes	57	0	362	0	0			0	0			1				0	
6.6.1	win	2023-06-02	02:45:20	02:50:32	306743	6054e1ddb68b58dd23242765	4	1	main_z	7	main_z	69	stimuli_distractor_trianglediamonds.svg	stimuli_target_trianglesquares.svg	26	yes	44	1	699	0	0			0	0			1				0	
6.6.1	win	2023-06-02	02:45:20	02:50:32	306743	6054e1ddb68b58dd23242765	4	1	main_z	7	advance_on_keypress_ZEE	70	stimuli_distractor_trianglediamonds.svg	stimuli_target_trianglesquares.svg	26	yes	57	0	409	0	0			0	0			1				0	
6.6.1	win	2023-06-02	02:45:20	02:50:34	308461	6054e1ddb68b58dd23242765	4	1	main_z	7	main_z	71	stimuli_distractor_trianglediamonds.svg	stimuli_target_rectanglediamonds.svg	10	yes	44	1	666	0	0			0	0			1				0	
6.6.1	win	2023-06-02	02:45:20	02:50:34	308461	6054e1ddb68b58dd23242765	4	1	main_z	7	advance_on_keypress_ZEE	72	stimuli_distractor_trianglediamonds.svg	stimuli_target_rectanglediamonds.svg	10	yes	57	0	393	0	0			0	0			1				0	
6.6.1	win	2023-06-02	02:45:20	02:50:36	310087	6054e1ddb68b58dd23242765	4	1	main_z	7	main_z	73	stimuli_target_squaretriangles.svg	stimuli_distractor_trianglediamonds.svg	3	yes	44	1	587	0	0			0	0			1				0	
6.6.1	win	2023-06-02	02:45:20	02:50:36	310087	6054e1ddb68b58dd23242765	4	1	main_z	7	advance_on_keypress_ZEE	74	stimuli_target_squaretriangles.svg	stimuli_distractor_trianglediamonds.svg	3	yes	57	0	394	0	0			0	0			1				0	
6.6.1	win	2023-06-02	02:45:20	02:50:37	311712	6054e1ddb68b58dd23242765	4	1	main_z	7	main_z	75	stimuli_distractor_diamondtriangles.svg	stimuli_target_diamondsquares.svg	32	yes	44	1	597	0	0			0	0			1				0	
6.6.1	win	2023-06-02	02:45:20	02:50:37	311712	6054e1ddb68b58dd23242765	4	1	main_z	7	advance_on_keypress_ZEE	76	stimuli_distractor_diamondtriangles.svg	stimuli_target_diamondsquares.svg	32	yes	57	0	371	0	0			0	0			1				0	
6.6.1	win	2023-06-02	02:45:20	02:50:39	313316	6054e1ddb68b58dd23242765	4	1	main_z	7	main_z	77	stimuli_distractor_trianglediamonds.svg	stimuli_target_diamondrectangles.svg	27	yes	44	1	599	0	0			0	0			1				0	
6.6.1	win	2023-06-02	02:45:20	02:50:39	313316	6054e1ddb68b58dd23242765	4	1	main_z	7	advance_on_keypress_ZEE	78	stimuli_distractor_trianglediamonds.svg	stimuli_target_diamondrectangles.svg	27	yes	57	0	361	0	0			0	0			1				0	
6.6.1	win	2023-06-02	02:45:20	02:50:40	314979	6054e1ddb68b58dd23242765	4	1	main_z	7	main_z	79	stimuli_distractor_diamondtriangles.svg	stimuli_target_rectanglediamonds.svg	14	yes	44	1	660	0	0			0	0			1				0	
6.6.1	win	2023-06-02	02:45:20	02:50:40	314979	6054e1ddb68b58dd23242765	4	1	main_z	7	advance_on_keypress_ZEE	80	stimuli_distractor_diamondtriangles.svg	stimuli_target_rectanglediamonds.svg	14	yes	57	0	346	0	0			0	0			1				0	
6.6.1	win	2023-06-02	02:45:20	02:50:43	317971	6054e1ddb68b58dd23242765	4	1	main_z	7	main_z	81	stimuli_distractor_trianglediamonds.svg	stimuli_distractor_diamondtriangles.svg	36	no	0	1	2000	0	0			0	0			1				0	
6.6.1	win	2023-06-02	02:45:20	02:50:43	317971	6054e1ddb68b58dd23242765	4	1	main_z	7	advance_on_keypress_ZEE	82	stimuli_distractor_trianglediamonds.svg	stimuli_distractor_diamondtriangles.svg	36	no	57	0	417	0	0			0	0			1				0	
6.6.1	win	2023-06-02	02:45:20	02:50:45	319608	6054e1ddb68b58dd23242765	4	1	main_z	7	main_z	83	stimuli_distractor_trianglediamonds.svg	stimuli_target_squaretriangles.svg	11	yes	44	1	567	0	0			0	0			1				0	
6.6.1	win	2023-06-02	02:45:20	02:50:45	319608	6054e1ddb68b58dd23242765	4	1	main_z	7	advance_on_keypress_ZEE	84	stimuli_distractor_trianglediamonds.svg	stimuli_target_squaretriangles.svg	11	yes	57	0	320	0	0			0	0			1				0	
6.6.1	win	2023-06-02	02:45:20	02:50:47	321170	6054e1ddb68b58dd23242765	4	1	main_z	7	main_z	85	stimuli_target_squaretriangles.svg	stimuli_distractor_trianglediamonds.svg	3	yes	44	1	594	0	0			0	0			1				0	
6.6.1	win	2023-06-02	02:45:20	02:50:47	321170	6054e1ddb68b58dd23242765	4	1	main_z	7	advance_on_keypress_ZEE	86	stimuli_target_squaretriangles.svg	stimuli_distractor_trianglediamonds.svg	3	yes	57	0	317	0	0			0	0			1				0	
6.6.1	win	2023-06-02	02:45:20	02:50:48	322747	6054e1ddb68b58dd23242765	4	1	main_z	7	main_z	87	stimuli_target_rectangletriangles.svg	stimuli_distractor_trianglediamonds.svg	1	yes	44	1	619	0	0			0	0			1				0	
6.6.1	win	2023-06-02	02:45:20	02:50:48	322747	6054e1ddb68b58dd23242765	4	1	main_z	7	advance_on_keypress_ZEE	88	stimuli_target_rectangletriangles.svg	stimuli_distractor_trianglediamonds.svg	1	yes	57	0	303	0	0			0	0			1				0	
6.6.1	win	2023-06-02	02:45:20	02:50:50	324351	6054e1ddb68b58dd23242765	4	1	main_z	7	main_z	89	stimuli_target_squarediamonds.svg	stimuli_distractor_trianglediamonds.svg	4	yes	44	1	651	0	0			0	0			1				0	
6.6.1	win	2023-06-02	02:45:20	02:50:50	324351	6054e1ddb68b58dd23242765	4	1	main_z	7	advance_on_keypress_ZEE	90	stimuli_target_squarediamonds.svg	stimuli_distractor_trianglediamonds.svg	4	yes	57	0	296	0	0			0	0			1				0	
6.6.1	win	2023-06-02	02:45:20	02:50:51	325987	6054e1ddb68b58dd23242765	4	1	main_z	7	main_z	91	stimuli_distractor_diamondtriangles.svg	stimuli_target_trianglerectangles.svg	29	yes	44	1	688	0	0			0	0			1				0	
6.6.1	win	2023-06-02	02:45:20	02:50:51	325987	6054e1ddb68b58dd23242765	4	1	main_z	7	advance_on_keypress_ZEE	92	stimuli_distractor_diamondtriangles.svg	stimuli_target_trianglerectangles.svg	29	yes	57	0	234	0	0			0	0			1				0	
6.6.1	win	2023-06-02	02:45:20	02:50:53	327470	6054e1ddb68b58dd23242765	4	1	main_z	7	main_z	93	stimuli_target_rectanglediamonds.svg	stimuli_distractor_diamondtriangles.svg	6	yes	44	1	601	0	0			0	0			1				0	
6.6.1	win	2023-06-02	02:45:20	02:50:53	327470	6054e1ddb68b58dd23242765	4	1	main_z	7	advance_on_keypress_ZEE	94	stimuli_target_rectanglediamonds.svg	stimuli_distractor_diamondtriangles.svg	6	yes	57	0	253	0	0			0	0			1				0	
6.6.1	win	2023-06-02	02:45:20	02:50:56	330369	6054e1ddb68b58dd23242765	4	1	main_z	7	main_z	95	stimuli_distractor_diamondtriangles.svg	stimuli_distractor_diamondtriangles.svg	39	no	0	1	2000	0	0			0	0			1				0	
6.6.1	win	2023-06-02	02:45:20	02:50:56	330369	6054e1ddb68b58dd23242765	4	1	main_z	7	advance_on_keypress_ZEE	96	stimuli_distractor_diamondtriangles.svg	stimuli_distractor_diamondtriangles.svg	39	no	57	0	478	0	0			0	0			1				0	
6.6.1	win	2023-06-02	02:45:20	02:50:57	331978	6054e1ddb68b58dd23242765	4	1	main_z	7	main_z	97	stimuli_target_squarediamonds.svg	stimuli_distractor_diamondtriangles.svg	8	yes	44	1	489	0	0			0	0			1				0	
6.6.1	win	2023-06-02	02:45:20	02:50:57	331978	6054e1ddb68b58dd23242765	4	1	main_z	7	advance_on_keypress_ZEE	98	stimuli_target_squarediamonds.svg	stimuli_distractor_diamondtriangles.svg	8	yes	57	0	312	0	0			0	0			1				0	
6.6.1	win	2023-06-02	02:45:20	02:51:00	334924	6054e1ddb68b58dd23242765	4	1	main_z	7	main_z	99	stimuli_distractor_diamondtriangles.svg	stimuli_distractor_trianglediamonds.svg	38	no	0	1	2000	0	0			0	0			1				0	
6.6.1	win	2023-06-02	02:45:20	02:51:00	334924	6054e1ddb68b58dd23242765	4	1	main_z	7	advance_on_keypress_ZEE	100	stimuli_distractor_diamondtriangles.svg	stimuli_distractor_trianglediamonds.svg	38	no	57	0	308	0	0			0	0			1				0	
6.6.1	win	2023-06-02	02:45:20	02:51:02	336602	6054e1ddb68b58dd23242765	4	1	main_z	7	main_z	101	stimuli_target_diamondrectangles.svg	stimuli_distractor_diamondtriangles.svg	23	yes	44	1	725	0	0			0	0			1				0	
6.6.1	win	2023-06-02	02:45:20	02:51:02	336602	6054e1ddb68b58dd23242765	4	1	main_z	7	advance_on_keypress_ZEE	102	stimuli_target_diamondrectangles.svg	stimuli_distractor_diamondtriangles.svg	23	yes	57	0	1041	0	0			0	0			1				0	
6.6.1	win	2023-06-02	02:45:20	02:51:05	339051	6054e1ddb68b58dd23242765	4	1	main_z	7	main_z	103	stimuli_distractor_diamondtriangles.svg	stimuli_target_rectangletriangles.svg	13	yes	44	1	771	0	0			0	0			1				0	
6.6.1	win	2023-06-02	02:45:20	02:51:05	339051	6054e1ddb68b58dd23242765	4	1	main_z	7	advance_on_keypress_ZEE	104	stimuli_distractor_diamondtriangles.svg	stimuli_target_rectangletriangles.svg	13	yes	57	0	339	0	0			0	0			1				0	
6.6.1	win	2023-06-02	02:45:20	02:51:06	340593	6054e1ddb68b58dd23242765	4	1	main_z	7	main_z	105	stimuli_target_trianglesquares.svg	stimuli_distractor_diamondtriangles.svg	22	yes	44	1	561	0	0			0	0			1				0	
6.6.1	win	2023-06-02	02:45:20	02:51:06	340593	6054e1ddb68b58dd23242765	4	1	main_z	7	advance_on_keypress_ZEE	106	stimuli_target_trianglesquares.svg	stimuli_distractor_diamondtriangles.svg	22	yes	57	0	1001	0	0			0	0			1				0	
6.6.1	win	2023-06-02	02:45:20	02:51:10	344235	6054e1ddb68b58dd23242765	4	1	main_z	7	main_z	107	stimuli_distractor_diamondtriangles.svg	stimuli_distractor_trianglediamonds.svg	37	no	0	1	2000	0	0			0	0			1				0	
6.6.1	win	2023-06-02	02:45:20	02:51:10	344235	6054e1ddb68b58dd23242765	4	1	main_z	7	advance_on_keypress_ZEE	108	stimuli_distractor_diamondtriangles.svg	stimuli_distractor_trianglediamonds.svg	37	no	57	0	459	0	0			0	0			1				0	
6.6.1	win	2023-06-02	02:45:20	02:51:13	347339	6054e1ddb68b58dd23242765	4	1	main_z	7	main_z	109	stimuli_distractor_trianglediamonds.svg	stimuli_distractor_diamondtriangles.svg	35	no	0	1	2000	0	0			0	0			1				0	
6.6.1	win	2023-06-02	02:45:20	02:51:13	347339	6054e1ddb68b58dd23242765	4	1	main_z	7	advance_on_keypress_ZEE	110	stimuli_distractor_trianglediamonds.svg	stimuli_distractor_diamondtriangles.svg	35	no	57	0	329	0	0			0	0			1				0	
6.6.1	win	2023-06-02	02:45:20	02:51:14	348842	6054e1ddb68b58dd23242765	4	1	main_z	7	main_z	111	stimuli_target_rectangletriangles.svg	stimuli_distractor_diamondtriangles.svg	5	yes	44	1	507	0	0			0	0			1				0	
6.6.1	win	2023-06-02	02:45:20	02:51:14	348842	6054e1ddb68b58dd23242765	4	1	main_z	7	advance_on_keypress_ZEE	112	stimuli_target_rectangletriangles.svg	stimuli_distractor_diamondtriangles.svg	5	yes	57	0	348	0	0			0	0			1				0	
6.6.1	win	2023-06-02	02:45:20	02:51:16	350435	6054e1ddb68b58dd23242765	4	1	main_z	7	main_z	113	stimuli_distractor_trianglediamonds.svg	stimuli_target_diamondrectangles.svg	27	yes	44	1	591	0	0			0	0			1				0	
6.6.1	win	2023-06-02	02:45:20	02:51:16	350435	6054e1ddb68b58dd23242765	4	1	main_z	7	advance_on_keypress_ZEE	114	stimuli_distractor_trianglediamonds.svg	stimuli_target_diamondrectangles.svg	27	yes	57	0	309	0	0			0	0			1				0	
6.6.1	win	2023-06-02	02:45:20	02:51:17	351942	6054e1ddb68b58dd23242765	4	1	main_z	7	main_z	115	stimuli_target_squaretriangles.svg	stimuli_distractor_diamondtriangles.svg	7	yes	44	1	562	0	0			0	0			1				0	
6.6.1	win	2023-06-02	02:45:20	02:51:17	351942	6054e1ddb68b58dd23242765	4	1	main_z	7	advance_on_keypress_ZEE	116	stimuli_target_squaretriangles.svg	stimuli_distractor_diamondtriangles.svg	7	yes	57	0	297	0	0			0	0			1				0	
6.6.1	win	2023-06-02	02:45:20	02:51:19	353480	6054e1ddb68b58dd23242765	4	1	main_z	7	main_z	117	stimuli_distractor_diamondtriangles.svg	stimuli_target_trianglesquares.svg	30	yes	44	1	598	0	0			0	0			1				0	
6.6.1	win	2023-06-02	02:45:20	02:51:19	353480	6054e1ddb68b58dd23242765	4	1	main_z	7	advance_on_keypress_ZEE	118	stimuli_distractor_diamondtriangles.svg	stimuli_target_trianglesquares.svg	30	yes	57	0	293	0	0			0	0			1				0	
6.6.1	win	2023-06-02	02:45:20	02:51:21	355338	6054e1ddb68b58dd23242765	4	1	main_z	7	main_z	119	stimuli_distractor_trianglediamonds.svg	stimuli_target_trianglesquares.svg	26	yes	44	1	922	0	0			0	0			1				0	
6.6.1	win	2023-06-02	02:45:20	02:51:21	355338	6054e1ddb68b58dd23242765	4	1	main_z	7	advance_on_keypress_ZEE	120	stimuli_distractor_trianglediamonds.svg	stimuli_target_trianglesquares.svg	26	yes	57	0	553	0	0			0	0			1				0	
6.6.1	win	2023-06-02	02:45:20	02:51:24	358535	6054e1ddb68b58dd23242765	4	1	main_z	7	main_z	121	stimuli_distractor_diamondtriangles.svg	stimuli_distractor_diamondtriangles.svg	40	no	0	1	2000	0	0			0	0			1				0	
6.6.1	win	2023-06-02	02:45:20	02:51:24	358535	6054e1ddb68b58dd23242765	4	1	main_z	7	advance_on_keypress_ZEE	122	stimuli_distractor_diamondtriangles.svg	stimuli_distractor_diamondtriangles.svg	40	no	57	0	272	0	0			0	0			1				0	
6.6.1	win	2023-06-02	02:45:20	02:51:27	361455	6054e1ddb68b58dd23242765	4	1	main_z	7	main_z	123	stimuli_distractor_trianglediamonds.svg	stimuli_distractor_trianglediamonds.svg	33	no	0	1	2000	0	0			0	0			1				0	
6.6.1	win	2023-06-02	02:45:20	02:51:27	361455	6054e1ddb68b58dd23242765	4	1	main_z	7	advance_on_keypress_ZEE	124	stimuli_distractor_trianglediamonds.svg	stimuli_distractor_trianglediamonds.svg	33	no	57	0	632	0	0			0	0			1				0	
6.6.1	win	2023-06-02	02:45:20	02:51:29	363297	6054e1ddb68b58dd23242765	4	1	main_z	7	main_z	125	stimuli_target_rectanglediamonds.svg	stimuli_distractor_trianglediamonds.svg	2	yes	44	1	537	0	0			0	0			1				0	
6.6.1	win	2023-06-02	02:45:20	02:51:29	363297	6054e1ddb68b58dd23242765	4	1	main_z	7	advance_on_keypress_ZEE	126	stimuli_target_rectanglediamonds.svg	stimuli_distractor_trianglediamonds.svg	2	yes	57	0	377	0	0			0	0			1				0	
6.6.1	win	2023-06-02	02:45:20	02:51:30	364922	6054e1ddb68b58dd23242765	4	1	main_z	7	main_z	127	stimuli_target_diamondsquares.svg	stimuli_distractor_diamondtriangles.svg	24	yes	44	1	611	0	0			0	0			1				0	
6.6.1	win	2023-06-02	02:45:20	02:51:30	364922	6054e1ddb68b58dd23242765	4	1	main_z	7	advance_on_keypress_ZEE	128	stimuli_target_diamondsquares.svg	stimuli_distractor_diamondtriangles.svg	24	yes	57	0	291	0	0			0	0			1				0	
6.6.1	win	2023-06-02	02:45:20	02:51:32	366557	6054e1ddb68b58dd23242765	4	1	main_z	7	main_z	129	stimuli_distractor_trianglediamonds.svg	stimuli_target_trianglerectangles.svg	25	yes	44	1	710	0	0			0	0			1				0	
6.6.1	win	2023-06-02	02:45:20	02:51:32	366557	6054e1ddb68b58dd23242765	4	1	main_z	7	advance_on_keypress_ZEE	130	stimuli_distractor_trianglediamonds.svg	stimuli_target_trianglerectangles.svg	25	yes	57	0	316	0	0			0	0			1				0	
6.6.1	win	2023-06-02	02:45:20	02:51:35	369515	6054e1ddb68b58dd23242765	4	1	main_z	7	main_z	131	stimuli_distractor_trianglediamonds.svg	stimuli_distractor_trianglediamonds.svg	34	no	0	1	2000	0	0			0	0			1				0	
6.6.1	win	2023-06-02	02:45:20	02:51:35	369515	6054e1ddb68b58dd23242765	4	1	main_z	7	advance_on_keypress_ZEE	132	stimuli_distractor_trianglediamonds.svg	stimuli_distractor_trianglediamonds.svg	34	no	57	0	490	0	0			0	0			1				0	
6.6.1	win	2023-06-02	02:45:20	02:51:37	371212	6054e1ddb68b58dd23242765	4	1	main_z	7	main_z	133	stimuli_target_trianglerectangles.svg	stimuli_distractor_diamondtriangles.svg	21	yes	44	1	560	0	0			0	0			1				0	
6.6.1	win	2023-06-02	02:45:20	02:51:37	371212	6054e1ddb68b58dd23242765	4	1	main_z	7	advance_on_keypress_ZEE	134	stimuli_target_trianglerectangles.svg	stimuli_distractor_diamondtriangles.svg	21	yes	57	0	281	0	0			0	0			1				0	
6.6.1	win	2023-06-02	02:45:20	02:51:38	372833	6054e1ddb68b58dd23242765	4	1	main_z	7	main_z	135	stimuli_distractor_diamondtriangles.svg	stimuli_target_rectanglediamonds.svg	14	yes	44	1	695	0	0			0	0			1				0	
6.6.1	win	2023-06-02	02:45:20	02:51:38	372833	6054e1ddb68b58dd23242765	4	1	main_z	7	advance_on_keypress_ZEE	136	stimuli_distractor_diamondtriangles.svg	stimuli_target_rectanglediamonds.svg	14	yes	57	0	279	0	0			0	0			1				0	
6.6.1	win	2023-06-02	02:45:20	02:51:40	374328	6054e1ddb68b58dd23242765	4	1	main_z	7	main_z	137	stimuli_target_trianglesquares.svg	stimuli_distractor_trianglediamonds.svg	18	yes	44	1	572	0	0			0	0			1				0	
6.6.1	win	2023-06-02	02:45:20	02:51:40	374328	6054e1ddb68b58dd23242765	4	1	main_z	7	advance_on_keypress_ZEE	138	stimuli_target_trianglesquares.svg	stimuli_distractor_trianglediamonds.svg	18	yes	57	0	302	0	0			0	0			1				0	
6.6.1	win	2023-06-02	02:45:20	02:51:41	375981	6054e1ddb68b58dd23242765	4	1	main_z	7	main_z	139	stimuli_distractor_trianglediamonds.svg	stimuli_target_rectanglediamonds.svg	10	yes	44	1	707	0	0			0	0			1				0	
6.6.1	win	2023-06-02	02:45:20	02:51:41	375981	6054e1ddb68b58dd23242765	4	1	main_z	7	advance_on_keypress_ZEE	140	stimuli_distractor_trianglediamonds.svg	stimuli_target_rectanglediamonds.svg	10	yes	57	0	205	0	0			0	0			1				0	
6.6.1	win	2023-06-02	02:45:20	02:51:43	377388	6054e1ddb68b58dd23242765	4	1	main_z	7	main_z	141	stimuli_distractor_trianglediamonds.svg	stimuli_target_diamondsquares.svg	28	yes	44	1	562	0	0			0	0			1				0	
6.6.1	win	2023-06-02	02:45:20	02:51:43	377388	6054e1ddb68b58dd23242765	4	1	main_z	7	advance_on_keypress_ZEE	142	stimuli_distractor_trianglediamonds.svg	stimuli_target_diamondsquares.svg	28	yes	57	0	240	0	0			0	0			1				0	
6.6.1	win	2023-06-02	02:45:20	02:51:44	378809	6054e1ddb68b58dd23242765	4	1	main_z	7	main_z	143	stimuli_distractor_trianglediamonds.svg	stimuli_target_squarediamonds.svg	12	yes	44	1	549	0	0			0	0			1				0	
6.6.1	win	2023-06-02	02:45:20	02:51:44	378809	6054e1ddb68b58dd23242765	4	1	main_z	7	advance_on_keypress_ZEE	144	stimuli_distractor_trianglediamonds.svg	stimuli_target_squarediamonds.svg	12	yes	57	0	248	0	0			0	0			1				0	
6.6.1	win	2023-06-02	02:45:20	02:51:46	380194	6054e1ddb68b58dd23242765	4	1	main_z	7	main_z	145	stimuli_distractor_diamondtriangles.svg	stimuli_target_diamondsquares.svg	32	yes	44	1	481	0	0			0	0			1				0	
6.6.1	win	2023-06-02	02:45:20	02:51:46	380194	6054e1ddb68b58dd23242765	4	1	main_z	7	advance_on_keypress_ZEE	146	stimuli_distractor_diamondtriangles.svg	stimuli_target_diamondsquares.svg	32	yes	57	0	166	0	0			0	0			1				0	
6.6.1	win	2023-06-02	02:45:20	02:51:47	381538	6054e1ddb68b58dd23242765	4	1	main_z	7	main_z	147	stimuli_target_trianglerectangles.svg	stimuli_distractor_trianglediamonds.svg	17	yes	44	1	525	0	0			0	0			1				0	
6.6.1	win	2023-06-02	02:45:20	02:51:47	381538	6054e1ddb68b58dd23242765	4	1	main_z	7	advance_on_keypress_ZEE	148	stimuli_target_trianglerectangles.svg	stimuli_distractor_trianglediamonds.svg	17	yes	57	0	174	0	0			0	0			1				0	
6.6.1	win	2023-06-02	02:45:20	02:51:48	382908	6054e1ddb68b58dd23242765	4	1	main_z	7	main_z	149	stimuli_target_diamondrectangles.svg	stimuli_distractor_trianglediamonds.svg	19	yes	44	1	559	0	0			0	0			1				0	
6.6.1	win	2023-06-02	02:45:20	02:51:48	382908	6054e1ddb68b58dd23242765	4	1	main_z	7	advance_on_keypress_ZEE	150	stimuli_target_diamondrectangles.svg	stimuli_distractor_trianglediamonds.svg	19	yes	57	0	184	0	0			0	0			1				0	
6.6.1	win	2023-06-02	02:45:20	02:51:50	384316	6054e1ddb68b58dd23242765	4	1	main_z	7	main_z	151	stimuli_distractor_diamondtriangles.svg	stimuli_target_squarediamonds.svg	16	yes	44	1	582	0	0			0	0			1				0	
6.6.1	win	2023-06-02	02:45:20	02:51:50	384316	6054e1ddb68b58dd23242765	4	1	main_z	7	advance_on_keypress_ZEE	152	stimuli_distractor_diamondtriangles.svg	stimuli_target_squarediamonds.svg	16	yes	57	0	165	0	0			0	0			1				0	
6.6.1	win	2023-06-02	02:45:20	02:51:51	385736	6054e1ddb68b58dd23242765	4	1	main_z	7	main_z	153	stimuli_target_diamondsquares.svg	stimuli_distractor_trianglediamonds.svg	20	yes	44	1	600	0	0			0	0			1				0	
6.6.1	win	2023-06-02	02:45:20	02:51:51	385736	6054e1ddb68b58dd23242765	4	1	main_z	7	advance_on_keypress_ZEE	154	stimuli_target_diamondsquares.svg	stimuli_distractor_trianglediamonds.svg	20	yes	57	0	133	0	0			0	0			1				0	
6.6.1	win	2023-06-02	02:45:20	02:51:53	387256	6054e1ddb68b58dd23242765	4	1	main_z	7	main_z	155	stimuli_distractor_trianglediamonds.svg	stimuli_target_rectangletriangles.svg	9	yes	44	1	735	0	0			0	0			1				0	
6.6.1	win	2023-06-02	02:45:20	02:51:53	387256	6054e1ddb68b58dd23242765	4	1	main_z	7	advance_on_keypress_ZEE	156	stimuli_distractor_trianglediamonds.svg	stimuli_target_rectangletriangles.svg	9	yes	57	0	174	0	0			0	0			1				0	
6.6.1	win	2023-06-02	02:45:20	02:51:54	388962	6054e1ddb68b58dd23242765	4	1	main_z	7	main_z	157	stimuli_distractor_diamondtriangles.svg	stimuli_target_squaretriangles.svg	15	yes	44	1	888	0	0			0	0			1				0	
6.6.1	win	2023-06-02	02:45:20	02:51:54	388962	6054e1ddb68b58dd23242765	4	1	main_z	7	advance_on_keypress_ZEE	158	stimuli_distractor_diamondtriangles.svg	stimuli_target_squaretriangles.svg	15	yes	57	0	125	0	0			0	0			1				0	
6.6.1	win	2023-06-02	02:45:20	02:51:56	390626	6054e1ddb68b58dd23242765	4	1	main_z	7	main_z	159	stimuli_distractor_diamondtriangles.svg	stimuli_target_diamondrectangles.svg	31	yes	44	1	901	0	0			0	0			1				0	
6.6.1	win	2023-06-02	02:45:20	02:51:56	390626	6054e1ddb68b58dd23242765	4	1	main_z	7	advance_on_keypress_ZEE	160	stimuli_distractor_diamondtriangles.svg	stimuli_target_diamondrectangles.svg	31	yes	57	0	161	0	0			0	0			1				0	
6.6.1	win	2023-06-02	02:45:20	02:52:29	423448	6054e1ddb68b58dd23242765	4	1	practice_slash	9	practice_slash	1	stimuli_distractor_trianglediamonds.svg	stimuli_target_squarediamonds.svg	11	yes	0	0	2000	0	0			0	0			1				0	
6.6.1	win	2023-06-02	02:45:20	02:52:29	423448	6054e1ddb68b58dd23242765	4	1	practice_slash	9	advance_on_keypress_SLASH	2	stimuli_distractor_trianglediamonds.svg	stimuli_target_squarediamonds.svg	11	yes	57	0	644	0	0			0	0			1				0	
6.6.1	win	2023-06-02	02:45:20	02:52:33	427735	6054e1ddb68b58dd23242765	4	1	practice_slash	9	practice_slash	3	stimuli_distractor_trianglediamonds.svg	stimuli_distractor_trianglediamonds.svg	15	no	0	1	2000	0	0			0	0			1				0	
6.6.1	win	2023-06-02	02:45:20	02:52:33	427735	6054e1ddb68b58dd23242765	4	1	practice_slash	9	advance_on_keypress_SLASH	4	stimuli_distractor_trianglediamonds.svg	stimuli_distractor_trianglediamonds.svg	15	no	57	0	536	0	0			0	0			1				0	
6.6.1	win	2023-06-02	02:45:20	02:52:36	430281	6054e1ddb68b58dd23242765	4	1	practice_slash	9	practice_slash	5	stimuli_target_squarediamonds.svg	stimuli_distractor_trianglediamonds.svg	5	yes	53	1	359	0	0			0	0			1				0	
6.6.1	win	2023-06-02	02:45:20	02:52:36	430281	6054e1ddb68b58dd23242765	4	1	practice_slash	9	advance_on_keypress_SLASH	6	stimuli_target_squarediamonds.svg	stimuli_distractor_trianglediamonds.svg	5	yes	57	0	625	0	0			0	0			1				0	
6.6.1	win	2023-06-02	02:45:20	02:52:38	432998	6054e1ddb68b58dd23242765	4	1	practice_slash	9	practice_slash	7	stimuli_target_squarediamonds.svg	stimuli_distractor_diamondtriangles.svg	2	yes	53	1	455	0	0			0	0			1				0	
6.6.1	win	2023-06-02	02:45:20	02:52:38	432998	6054e1ddb68b58dd23242765	4	1	practice_slash	9	advance_on_keypress_SLASH	8	stimuli_target_squarediamonds.svg	stimuli_distractor_diamondtriangles.svg	2	yes	57	0	422	0	0			0	0			1				0	
6.6.1	win	2023-06-02	02:45:20	02:52:41	435490	6054e1ddb68b58dd23242765	4	1	practice_slash	9	practice_slash	9	stimuli_target_rectanglediamonds.svg	stimuli_distractor_trianglediamonds.svg	4	yes	53	1	429	0	0			0	0			1				0	
6.6.1	win	2023-06-02	02:45:20	02:52:41	435490	6054e1ddb68b58dd23242765	4	1	practice_slash	9	advance_on_keypress_SLASH	10	stimuli_target_rectanglediamonds.svg	stimuli_distractor_trianglediamonds.svg	4	yes	57	0	373	0	0			0	0			1				0	
6.6.1	win	2023-06-02	02:45:20	02:52:43	437924	6054e1ddb68b58dd23242765	4	1	practice_slash	9	practice_slash	11	stimuli_target_rectanglediamonds.svg	stimuli_distractor_diamondtriangles.svg	1	yes	53	1	410	0	0			0	0			1				0	
6.6.1	win	2023-06-02	02:45:20	02:52:43	437924	6054e1ddb68b58dd23242765	4	1	practice_slash	9	advance_on_keypress_SLASH	12	stimuli_target_rectanglediamonds.svg	stimuli_distractor_diamondtriangles.svg	1	yes	57	0	501	0	0			0	0			1				0	
6.6.1	win	2023-06-02	02:45:20	02:52:46	440472	6054e1ddb68b58dd23242765	4	1	practice_slash	9	practice_slash	13	stimuli_distractor_trianglediamonds.svg	stimuli_target_rectanglediamonds.svg	10	yes	53	1	385	0	0			0	0			1				0	
6.6.1	win	2023-06-02	02:45:20	02:52:46	440472	6054e1ddb68b58dd23242765	4	1	practice_slash	9	advance_on_keypress_SLASH	14	stimuli_distractor_trianglediamonds.svg	stimuli_target_rectanglediamonds.svg	10	yes	57	0	431	0	0			0	0			1				0	
6.6.1	win	2023-06-02	02:45:20	02:52:49	443083	6054e1ddb68b58dd23242765	4	1	practice_slash	9	practice_slash	15	stimuli_target_diamondsquares.svg	stimuli_distractor_diamondtriangles.svg	3	yes	53	1	530	0	0			0	0			1				0	
6.6.1	win	2023-06-02	02:45:20	02:52:49	443083	6054e1ddb68b58dd23242765	4	1	practice_slash	9	advance_on_keypress_SLASH	16	stimuli_target_diamondsquares.svg	stimuli_distractor_diamondtriangles.svg	3	yes	57	0	370	0	0			0	0			1				0	
6.6.1	win	2023-06-02	02:45:20	02:52:51	445525	6054e1ddb68b58dd23242765	4	1	practice_slash	9	practice_slash	17	stimuli_distractor_diamondtriangles.svg	stimuli_target_diamondrectangles.svg	8	yes	53	1	419	0	0			0	0			1				0	
6.6.1	win	2023-06-02	02:45:20	02:52:51	445525	6054e1ddb68b58dd23242765	4	1	practice_slash	9	advance_on_keypress_SLASH	18	stimuli_distractor_diamondtriangles.svg	stimuli_target_diamondrectangles.svg	8	yes	57	0	351	0	0			0	0			1				0	
6.6.1	win	2023-06-02	02:45:20	02:52:53	447928	6054e1ddb68b58dd23242765	4	1	practice_slash	9	practice_slash	19	stimuli_distractor_diamondtriangles.svg	stimuli_target_trianglerectangles.svg	9	yes	53	1	402	0	0			0	0			1				0	
6.6.1	win	2023-06-02	02:45:20	02:52:53	447928	6054e1ddb68b58dd23242765	4	1	practice_slash	9	advance_on_keypress_SLASH	20	stimuli_distractor_diamondtriangles.svg	stimuli_target_trianglerectangles.svg	9	yes	57	0	49	0	0			0	0			1				0	
6.6.1	win	2023-06-02	02:45:20	02:52:57	451629	6054e1ddb68b58dd23242765	4	1	practice_slash	9	practice_slash	21	stimuli_distractor_diamondtriangles.svg	stimuli_distractor_trianglediamonds.svg	14	no	0	1	2000	0	0			0	0			1				0	
6.6.1	win	2023-06-02	02:45:20	02:52:57	451629	6054e1ddb68b58dd23242765	4	1	practice_slash	9	advance_on_keypress_SLASH	22	stimuli_distractor_diamondtriangles.svg	stimuli_distractor_trianglediamonds.svg	14	no	57	0	213	0	0			0	0			1				0	
6.6.1	win	2023-06-02	02:45:20	02:53:01	455502	6054e1ddb68b58dd23242765	4	1	practice_slash	9	practice_slash	23	stimuli_distractor_trianglediamonds.svg	stimuli_distractor_diamondtriangles.svg	16	no	0	1	2000	0	0			0	0			1				0	
6.6.1	win	2023-06-02	02:45:20	02:53:01	455502	6054e1ddb68b58dd23242765	4	1	practice_slash	9	advance_on_keypress_SLASH	24	stimuli_distractor_trianglediamonds.svg	stimuli_distractor_diamondtriangles.svg	16	no	57	0	194	0	0			0	0			1				0	
6.6.1	win	2023-06-02	02:45:20	02:53:03	457913	6054e1ddb68b58dd23242765	4	1	practice_slash	9	practice_slash	25	stimuli_distractor_diamondtriangles.svg	stimuli_target_rectangletriangles.svg	7	yes	53	1	540	0	0			0	0			1				0	
6.6.1	win	2023-06-02	02:45:20	02:53:03	457913	6054e1ddb68b58dd23242765	4	1	practice_slash	9	advance_on_keypress_SLASH	26	stimuli_distractor_diamondtriangles.svg	stimuli_target_rectangletriangles.svg	7	yes	57	0	372	0	0			0	0			1				0	
6.6.1	win	2023-06-02	02:45:20	02:53:06	460418	6054e1ddb68b58dd23242765	4	1	practice_slash	9	practice_slash	27	stimuli_target_diamondsquares.svg	stimuli_distractor_trianglediamonds.svg	6	yes	53	1	478	0	0			0	0			1				0	
6.6.1	win	2023-06-02	02:45:20	02:53:06	460418	6054e1ddb68b58dd23242765	4	1	practice_slash	9	advance_on_keypress_SLASH	28	stimuli_target_diamondsquares.svg	stimuli_distractor_trianglediamonds.svg	6	yes	57	0	365	0	0			0	0			1				0	
6.6.1	win	2023-06-02	02:45:20	02:53:10	464426	6054e1ddb68b58dd23242765	4	1	practice_slash	9	practice_slash	29	stimuli_distractor_diamondtriangles.svg	stimuli_distractor_diamondtriangles.svg	13	no	0	1	2000	0	0			0	0			1				0	
6.6.1	win	2023-06-02	02:45:20	02:53:10	464426	6054e1ddb68b58dd23242765	4	1	practice_slash	9	advance_on_keypress_SLASH	30	stimuli_distractor_diamondtriangles.svg	stimuli_distractor_diamondtriangles.svg	13	no	57	0	347	0	0			0	0			1				0	
6.6.1	win	2023-06-02	02:45:20	02:53:12	466989	6054e1ddb68b58dd23242765	4	1	practice_slash	9	practice_slash	31	stimuli_distractor_trianglediamonds.svg	stimuli_target_diamondrectangles.svg	12	yes	53	1	558	0	0			0	0			1				0	
6.6.1	win	2023-06-02	02:45:20	02:53:12	466989	6054e1ddb68b58dd23242765	4	1	practice_slash	9	advance_on_keypress_SLASH	32	stimuli_distractor_trianglediamonds.svg	stimuli_target_diamondrectangles.svg	12	yes	57	0	437	0	0			0	0			1				0	
6.6.1	win	2023-06-02	02:45:20	02:53:19	473391	6054e1ddb68b58dd23242765	4	1	main_slash	11	main_slash	1	stimuli_target_diamondsquares.svg	stimuli_distractor_diamondtriangles.svg	24	yes	53	1	620	0	0			0	0			1				0	
6.6.1	win	2023-06-02	02:45:20	02:53:19	473391	6054e1ddb68b58dd23242765	4	1	main_slash	11	advance_on_keypress_SLASH	2	stimuli_target_diamondsquares.svg	stimuli_distractor_diamondtriangles.svg	24	yes	57	0	689	0	0			0	0			1				0	
6.6.1	win	2023-06-02	02:45:20	02:53:22	476723	6054e1ddb68b58dd23242765	4	1	main_slash	11	main_slash	3	stimuli_distractor_diamondtriangles.svg	stimuli_distractor_trianglediamonds.svg	38	no	0	1	2000	0	0			0	0			1				0	
6.6.1	win	2023-06-02	02:45:20	02:53:22	476723	6054e1ddb68b58dd23242765	4	1	main_slash	11	advance_on_keypress_SLASH	4	stimuli_distractor_diamondtriangles.svg	stimuli_distractor_trianglediamonds.svg	38	no	57	0	436	0	0			0	0			1				0	
6.6.1	win	2023-06-02	02:45:20	02:53:24	478326	6054e1ddb68b58dd23242765	4	1	main_slash	11	main_slash	5	stimuli_distractor_trianglediamonds.svg	stimuli_target_rectanglediamonds.svg	10	yes	53	1	514	0	0			0	0			1				0	
6.6.1	win	2023-06-02	02:45:20	02:53:24	478326	6054e1ddb68b58dd23242765	4	1	main_slash	11	advance_on_keypress_SLASH	6	stimuli_distractor_trianglediamonds.svg	stimuli_target_rectanglediamonds.svg	10	yes	57	0	500	0	0			0	0			1				0	
6.6.1	win	2023-06-02	02:45:20	02:53:26	480066	6054e1ddb68b58dd23242765	4	1	main_slash	11	main_slash	7	stimuli_distractor_trianglediamonds.svg	stimuli_target_squaretriangles.svg	11	yes	53	1	587	0	0			0	0			1				0	
6.6.1	win	2023-06-02	02:45:20	02:53:26	480066	6054e1ddb68b58dd23242765	4	1	main_slash	11	advance_on_keypress_SLASH	8	stimuli_distractor_trianglediamonds.svg	stimuli_target_squaretriangles.svg	11	yes	57	0	296	0	0			0	0			1				0	
6.6.1	win	2023-06-02	02:45:20	02:53:27	481449	6054e1ddb68b58dd23242765	4	1	main_slash	11	main_slash	9	stimuli_target_rectanglediamonds.svg	stimuli_distractor_trianglediamonds.svg	2	yes	53	1	452	0	0			0	0			1				0	
6.6.1	win	2023-06-02	02:45:20	02:53:27	481449	6054e1ddb68b58dd23242765	4	1	main_slash	11	advance_on_keypress_SLASH	10	stimuli_target_rectanglediamonds.svg	stimuli_distractor_trianglediamonds.svg	2	yes	57	0	210	0	0			0	0			1				0	
6.6.1	win	2023-06-02	02:45:20	02:53:28	482777	6054e1ddb68b58dd23242765	4	1	main_slash	11	main_slash	11	stimuli_target_squaretriangles.svg	stimuli_distractor_trianglediamonds.svg	3	yes	53	1	479	0	0			0	0			1				0	
6.6.1	win	2023-06-02	02:45:20	02:53:28	482777	6054e1ddb68b58dd23242765	4	1	main_slash	11	advance_on_keypress_SLASH	12	stimuli_target_squaretriangles.svg	stimuli_distractor_trianglediamonds.svg	3	yes	57	0	280	0	0			0	0			1				0	
6.6.1	win	2023-06-02	02:45:20	02:53:30	484156	6054e1ddb68b58dd23242765	4	1	main_slash	11	main_slash	13	stimuli_target_trianglesquares.svg	stimuli_distractor_diamondtriangles.svg	22	yes	53	1	454	0	0			0	0			1				0	
6.6.1	win	2023-06-02	02:45:20	02:53:30	484156	6054e1ddb68b58dd23242765	4	1	main_slash	11	advance_on_keypress_SLASH	14	stimuli_target_trianglesquares.svg	stimuli_distractor_diamondtriangles.svg	22	yes	57	0	203	0	0			0	0			1				0	
6.6.1	win	2023-06-02	02:45:20	02:53:31	485401	6054e1ddb68b58dd23242765	4	1	main_slash	11	main_slash	15	stimuli_target_trianglerectangles.svg	stimuli_distractor_diamondtriangles.svg	21	yes	53	1	400	0	0			0	0			1				0	
6.6.1	win	2023-06-02	02:45:20	02:53:31	485401	6054e1ddb68b58dd23242765	4	1	main_slash	11	advance_on_keypress_SLASH	16	stimuli_target_trianglerectangles.svg	stimuli_distractor_diamondtriangles.svg	21	yes	57	0	238	0	0			0	0			1				0	
6.6.1	win	2023-06-02	02:45:20	02:53:32	486815	6054e1ddb68b58dd23242765	4	1	main_slash	11	main_slash	17	stimuli_distractor_diamondtriangles.svg	stimuli_target_diamondrectangles.svg	31	yes	53	1	529	0	0			0	0			1				0	
6.6.1	win	2023-06-02	02:45:20	02:53:32	486815	6054e1ddb68b58dd23242765	4	1	main_slash	11	advance_on_keypress_SLASH	18	stimuli_distractor_diamondtriangles.svg	stimuli_target_diamondrectangles.svg	31	yes	57	0	251	0	0			0	0			1				0	
6.6.1	win	2023-06-02	02:45:20	02:53:34	488374	6054e1ddb68b58dd23242765	4	1	main_slash	11	main_slash	19	stimuli_target_squaretriangles.svg	stimuli_distractor_diamondtriangles.svg	7	yes	53	1	669	0	0			0	0			1				0	
6.6.1	win	2023-06-02	02:45:20	02:53:34	488374	6054e1ddb68b58dd23242765	4	1	main_slash	11	advance_on_keypress_SLASH	20	stimuli_target_squaretriangles.svg	stimuli_distractor_diamondtriangles.svg	7	yes	57	0	261	0	0			0	0			1				0	
6.6.1	win	2023-06-02	02:45:20	02:53:35	489682	6054e1ddb68b58dd23242765	4	1	main_slash	11	main_slash	21	stimuli_target_diamondrectangles.svg	stimuli_distractor_diamondtriangles.svg	23	yes	53	1	409	0	0			0	0			1				0	
6.6.1	win	2023-06-02	02:45:20	02:53:35	489682	6054e1ddb68b58dd23242765	4	1	main_slash	11	advance_on_keypress_SLASH	22	stimuli_target_diamondrectangles.svg	stimuli_distractor_diamondtriangles.svg	23	yes	57	0	240	0	0			0	0			1				0	
6.6.1	win	2023-06-02	02:45:20	02:53:36	490961	6054e1ddb68b58dd23242765	4	1	main_slash	11	main_slash	23	stimuli_distractor_diamondtriangles.svg	stimuli_target_squarediamonds.svg	16	yes	53	1	403	0	0			0	0			1				0	
6.6.1	win	2023-06-02	02:45:20	02:53:36	490961	6054e1ddb68b58dd23242765	4	1	main_slash	11	advance_on_keypress_SLASH	24	stimuli_distractor_diamondtriangles.svg	stimuli_target_squarediamonds.svg	16	yes	57	0	189	0	0			0	0			1				0	
6.6.1	win	2023-06-02	02:45:20	02:53:38	492145	6054e1ddb68b58dd23242765	4	1	main_slash	11	main_slash	25	stimuli_target_squarediamonds.svg	stimuli_distractor_diamondtriangles.svg	8	yes	53	1	352	0	0			0	0			1				0	
6.6.1	win	2023-06-02	02:45:20	02:53:38	492145	6054e1ddb68b58dd23242765	4	1	main_slash	11	advance_on_keypress_SLASH	26	stimuli_target_squarediamonds.svg	stimuli_distractor_diamondtriangles.svg	8	yes	57	0	161	0	0			0	0			1				0	
6.6.1	win	2023-06-02	02:45:20	02:53:39	493336	6054e1ddb68b58dd23242765	4	1	main_slash	11	main_slash	27	stimuli_distractor_diamondtriangles.svg	stimuli_target_rectangletriangles.svg	13	yes	53	1	391	0	0			0	0			1				0	
6.6.1	win	2023-06-02	02:45:20	02:53:39	493336	6054e1ddb68b58dd23242765	4	1	main_slash	11	advance_on_keypress_SLASH	28	stimuli_distractor_diamondtriangles.svg	stimuli_target_rectangletriangles.svg	13	yes	57	0	709	0	0			0	0			1				0	
6.6.1	win	2023-06-02	02:45:20	02:53:41	495236	6054e1ddb68b58dd23242765	4	1	main_slash	11	main_slash	29	stimuli_target_trianglesquares.svg	stimuli_distractor_trianglediamonds.svg	18	yes	53	1	557	0	0			0	0			1				0	
6.6.1	win	2023-06-02	02:45:20	02:53:41	495236	6054e1ddb68b58dd23242765	4	1	main_slash	11	advance_on_keypress_SLASH	30	stimuli_target_trianglesquares.svg	stimuli_distractor_trianglediamonds.svg	18	yes	57	0	404	0	0			0	0			1				0	
6.6.1	win	2023-06-02	02:45:20	02:53:44	498281	6054e1ddb68b58dd23242765	4	1	main_slash	11	main_slash	31	stimuli_distractor_trianglediamonds.svg	stimuli_distractor_diamondtriangles.svg	35	no	0	1	2000	0	0			0	0			1				0	
6.6.1	win	2023-06-02	02:45:20	02:53:44	498281	6054e1ddb68b58dd23242765	4	1	main_slash	11	advance_on_keypress_SLASH	32	stimuli_distractor_trianglediamonds.svg	stimuli_distractor_diamondtriangles.svg	35	no	57	0	221	0	0			0	0			1				0	
6.6.1	win	2023-06-02	02:45:20	02:53:47	501151	6054e1ddb68b58dd23242765	4	1	main_slash	11	main_slash	33	stimuli_distractor_trianglediamonds.svg	stimuli_distractor_trianglediamonds.svg	34	no	0	1	2000	0	0			0	0			1				0	
6.6.1	win	2023-06-02	02:45:20	02:53:47	501151	6054e1ddb68b58dd23242765	4	1	main_slash	11	advance_on_keypress_SLASH	34	stimuli_distractor_trianglediamonds.svg	stimuli_distractor_trianglediamonds.svg	34	no	57	0	167	0	0			0	0			1				0	
6.6.1	win	2023-06-02	02:45:20	02:53:48	502487	6054e1ddb68b58dd23242765	4	1	main_slash	11	main_slash	35	stimuli_distractor_trianglediamonds.svg	stimuli_target_diamondrectangles.svg	27	yes	53	1	508	0	0			0	0			1				0	
6.6.1	win	2023-06-02	02:45:20	02:53:48	502487	6054e1ddb68b58dd23242765	4	1	main_slash	11	advance_on_keypress_SLASH	36	stimuli_distractor_trianglediamonds.svg	stimuli_target_diamondrectangles.svg	27	yes	57	0	225	0	0			0	0			1				0	
6.6.1	win	2023-06-02	02:45:20	02:53:49	503908	6054e1ddb68b58dd23242765	4	1	main_slash	11	main_slash	37	stimuli_target_squarediamonds.svg	stimuli_distractor_trianglediamonds.svg	4	yes	53	1	551	0	0			0	0			1				0	
6.6.1	win	2023-06-02	02:45:20	02:53:49	503908	6054e1ddb68b58dd23242765	4	1	main_slash	11	advance_on_keypress_SLASH	38	stimuli_target_squarediamonds.svg	stimuli_distractor_trianglediamonds.svg	4	yes	57	0	269	0	0			0	0			1				0	
6.6.1	win	2023-06-02	02:45:20	02:53:52	506825	6054e1ddb68b58dd23242765	4	1	main_slash	11	main_slash	39	stimuli_distractor_diamondtriangles.svg	stimuli_distractor_trianglediamonds.svg	37	no	0	1	2000	0	0			0	0			1				0	
6.6.1	win	2023-06-02	02:45:20	02:53:52	506825	6054e1ddb68b58dd23242765	4	1	main_slash	11	advance_on_keypress_SLASH	40	stimuli_distractor_diamondtriangles.svg	stimuli_distractor_trianglediamonds.svg	37	no	57	0	221	0	0			0	0			1				0	
6.6.1	win	2023-06-02	02:45:20	02:53:54	508156	6054e1ddb68b58dd23242765	4	1	main_slash	11	main_slash	41	stimuli_distractor_diamondtriangles.svg	stimuli_target_trianglerectangles.svg	29	yes	53	1	462	0	0			0	0			1				0	
6.6.1	win	2023-06-02	02:45:20	02:53:54	508156	6054e1ddb68b58dd23242765	4	1	main_slash	11	advance_on_keypress_SLASH	42	stimuli_distractor_diamondtriangles.svg	stimuli_target_trianglerectangles.svg	29	yes	57	0	311	0	0			0	0			1				0	
6.6.1	win	2023-06-02	02:45:20	02:53:55	509623	6054e1ddb68b58dd23242765	4	1	main_slash	11	main_slash	43	stimuli_target_diamondsquares.svg	stimuli_distractor_trianglediamonds.svg	20	yes	53	1	527	0	0			0	0			1				0	
6.6.1	win	2023-06-02	02:45:20	02:53:55	509623	6054e1ddb68b58dd23242765	4	1	main_slash	11	advance_on_keypress_SLASH	44	stimuli_target_diamondsquares.svg	stimuli_distractor_trianglediamonds.svg	20	yes	57	0	236	0	0			0	0			1				0	
6.6.1	win	2023-06-02	02:45:20	02:53:56	511033	6054e1ddb68b58dd23242765	4	1	main_slash	11	main_slash	45	stimuli_distractor_diamondtriangles.svg	stimuli_target_rectanglediamonds.svg	14	yes	53	1	534	0	0			0	0			1				0	
6.6.1	win	2023-06-02	02:45:20	02:53:56	511033	6054e1ddb68b58dd23242765	4	1	main_slash	11	advance_on_keypress_SLASH	46	stimuli_distractor_diamondtriangles.svg	stimuli_target_rectanglediamonds.svg	14	yes	57	0	264	0	0			0	0			1				0	
6.6.1	win	2023-06-02	02:45:20	02:53:58	512439	6054e1ddb68b58dd23242765	4	1	main_slash	11	main_slash	47	stimuli_distractor_trianglediamonds.svg	stimuli_target_diamondsquares.svg	28	yes	53	1	488	0	0			0	0			1				0	
6.6.1	win	2023-06-02	02:45:20	02:53:58	512439	6054e1ddb68b58dd23242765	4	1	main_slash	11	advance_on_keypress_SLASH	48	stimuli_distractor_trianglediamonds.svg	stimuli_target_diamondsquares.svg	28	yes	57	0	227	0	0			0	0			1				0	
6.6.1	win	2023-06-02	02:45:20	02:53:59	513817	6054e1ddb68b58dd23242765	4	1	main_slash	11	main_slash	49	stimuli_distractor_diamondtriangles.svg	stimuli_target_squaretriangles.svg	15	yes	53	1	513	0	0			0	0			1				0	
6.6.1	win	2023-06-02	02:45:20	02:53:59	513817	6054e1ddb68b58dd23242765	4	1	main_slash	11	advance_on_keypress_SLASH	50	stimuli_distractor_diamondtriangles.svg	stimuli_target_squaretriangles.svg	15	yes	57	0	237	0	0			0	0			1				0	
6.6.1	win	2023-06-02	02:45:20	02:54:01	515113	6054e1ddb68b58dd23242765	4	1	main_slash	11	main_slash	51	stimuli_distractor_diamondtriangles.svg	stimuli_target_diamondsquares.svg	32	yes	53	1	410	0	0			0	0			1				0	
6.6.1	win	2023-06-02	02:45:20	02:54:01	515113	6054e1ddb68b58dd23242765	4	1	main_slash	11	advance_on_keypress_SLASH	52	stimuli_distractor_diamondtriangles.svg	stimuli_target_diamondsquares.svg	32	yes	57	0	193	0	0			0	0			1				0	
6.6.1	win	2023-06-02	02:45:20	02:54:02	516512	6054e1ddb68b58dd23242765	4	1	main_slash	11	main_slash	53	stimuli_target_rectangletriangles.svg	stimuli_distractor_diamondtriangles.svg	5	yes	53	1	574	0	0			0	0			1				0	
6.6.1	win	2023-06-02	02:45:20	02:54:02	516512	6054e1ddb68b58dd23242765	4	1	main_slash	11	advance_on_keypress_SLASH	54	stimuli_target_rectangletriangles.svg	stimuli_distractor_diamondtriangles.svg	5	yes	57	0	213	0	0			0	0			1				0	
6.6.1	win	2023-06-02	02:45:20	02:54:03	517755	6054e1ddb68b58dd23242765	4	1	main_slash	11	main_slash	55	stimuli_target_diamondrectangles.svg	stimuli_distractor_trianglediamonds.svg	19	yes	53	1	373	0	0			0	0			1				0	
6.6.1	win	2023-06-02	02:45:20	02:54:03	517755	6054e1ddb68b58dd23242765	4	1	main_slash	11	advance_on_keypress_SLASH	56	stimuli_target_diamondrectangles.svg	stimuli_distractor_trianglediamonds.svg	19	yes	57	0	181	0	0			0	0			1				0	
6.6.1	win	2023-06-02	02:45:20	02:54:06	520590	6054e1ddb68b58dd23242765	4	1	main_slash	11	main_slash	57	stimuli_distractor_diamondtriangles.svg	stimuli_distractor_diamondtriangles.svg	40	no	0	1	2000	0	0			0	0			1				0	
6.6.1	win	2023-06-02	02:45:20	02:54:06	520590	6054e1ddb68b58dd23242765	4	1	main_slash	11	advance_on_keypress_SLASH	58	stimuli_distractor_diamondtriangles.svg	stimuli_distractor_diamondtriangles.svg	40	no	57	0	29	0	0			0	0			1				0	
6.6.1	win	2023-06-02	02:45:20	02:54:09	523277	6054e1ddb68b58dd23242765	4	1	main_slash	11	main_slash	59	stimuli_distractor_trianglediamonds.svg	stimuli_distractor_trianglediamonds.svg	33	no	0	1	2000	0	0			0	0			1				0	
6.6.1	win	2023-06-02	02:45:20	02:54:09	523277	6054e1ddb68b58dd23242765	4	1	main_slash	11	advance_on_keypress_SLASH	60	stimuli_distractor_trianglediamonds.svg	stimuli_distractor_trianglediamonds.svg	33	no	57	0	290	0	0			0	0			1				0	
6.6.1	win	2023-06-02	02:45:20	02:54:10	524782	6054e1ddb68b58dd23242765	4	1	main_slash	11	main_slash	61	stimuli_distractor_trianglediamonds.svg	stimuli_target_trianglerectangles.svg	25	yes	53	1	568	0	0			0	0			1				0	
6.6.1	win	2023-06-02	02:45:20	02:54:10	524782	6054e1ddb68b58dd23242765	4	1	main_slash	11	advance_on_keypress_SLASH	62	stimuli_distractor_trianglediamonds.svg	stimuli_target_trianglerectangles.svg	25	yes	57	0	180	0	0			0	0			1				0	
6.6.1	win	2023-06-02	02:45:20	02:54:11	526040	6054e1ddb68b58dd23242765	4	1	main_slash	11	main_slash	63	stimuli_target_trianglerectangles.svg	stimuli_distractor_trianglediamonds.svg	17	yes	53	1	424	0	0			0	0			1				0	
6.6.1	win	2023-06-02	02:45:20	02:54:11	526040	6054e1ddb68b58dd23242765	4	1	main_slash	11	advance_on_keypress_SLASH	64	stimuli_target_trianglerectangles.svg	stimuli_distractor_trianglediamonds.svg	17	yes	57	0	219	0	0			0	0			1				0	
6.6.1	win	2023-06-02	02:45:20	02:54:13	527347	6054e1ddb68b58dd23242765	4	1	main_slash	11	main_slash	65	stimuli_target_rectangletriangles.svg	stimuli_distractor_trianglediamonds.svg	1	yes	53	1	447	0	0			0	0			1				0	
6.6.1	win	2023-06-02	02:45:20	02:54:13	527347	6054e1ddb68b58dd23242765	4	1	main_slash	11	advance_on_keypress_SLASH	66	stimuli_target_rectangletriangles.svg	stimuli_distractor_trianglediamonds.svg	1	yes	57	0	190	0	0			0	0			1				0	
6.6.1	win	2023-06-02	02:45:20	02:54:14	528607	6054e1ddb68b58dd23242765	4	1	main_slash	11	main_slash	67	stimuli_distractor_trianglediamonds.svg	stimuli_target_rectangletriangles.svg	9	yes	53	1	423	0	0			0	0			1				0	
6.6.1	win	2023-06-02	02:45:20	02:54:14	528607	6054e1ddb68b58dd23242765	4	1	main_slash	11	advance_on_keypress_SLASH	68	stimuli_distractor_trianglediamonds.svg	stimuli_target_rectangletriangles.svg	9	yes	57	0	225	0	0			0	0			1				0	
6.6.1	win	2023-06-02	02:45:20	02:54:17	531470	6054e1ddb68b58dd23242765	4	1	main_slash	11	main_slash	69	stimuli_distractor_diamondtriangles.svg	stimuli_distractor_diamondtriangles.svg	39	no	0	1	2000	0	0			0	0			1				0	
6.6.1	win	2023-06-02	02:45:20	02:54:17	531470	6054e1ddb68b58dd23242765	4	1	main_slash	11	advance_on_keypress_SLASH	70	stimuli_distractor_diamondtriangles.svg	stimuli_distractor_diamondtriangles.svg	39	no	57	0	400	0	0			0	0			1				0	
6.6.1	win	2023-06-02	02:45:20	02:54:18	532942	6054e1ddb68b58dd23242765	4	1	main_slash	11	main_slash	71	stimuli_distractor_diamondtriangles.svg	stimuli_target_trianglesquares.svg	30	yes	53	1	417	0	0			0	0			1				0	
6.6.1	win	2023-06-02	02:45:20	02:54:18	532942	6054e1ddb68b58dd23242765	4	1	main_slash	11	advance_on_keypress_SLASH	72	stimuli_distractor_diamondtriangles.svg	stimuli_target_trianglesquares.svg	30	yes	57	0	251	0	0			0	0			1				0	
6.6.1	win	2023-06-02	02:45:20	02:54:20	534369	6054e1ddb68b58dd23242765	4	1	main_slash	11	main_slash	73	stimuli_distractor_trianglediamonds.svg	stimuli_target_squarediamonds.svg	12	yes	53	1	528	0	0			0	0			1				0	
6.6.1	win	2023-06-02	02:45:20	02:54:20	534369	6054e1ddb68b58dd23242765	4	1	main_slash	11	advance_on_keypress_SLASH	74	stimuli_distractor_trianglediamonds.svg	stimuli_target_squarediamonds.svg	12	yes	57	0	186	0	0			0	0			1				0	
6.6.1	win	2023-06-02	02:45:20	02:54:23	537193	6054e1ddb68b58dd23242765	4	1	main_slash	11	main_slash	75	stimuli_distractor_trianglediamonds.svg	stimuli_distractor_diamondtriangles.svg	36	no	0	1	2000	0	0			0	0			1				0	
6.6.1	win	2023-06-02	02:45:20	02:54:23	537193	6054e1ddb68b58dd23242765	4	1	main_slash	11	advance_on_keypress_SLASH	76	stimuli_distractor_trianglediamonds.svg	stimuli_distractor_diamondtriangles.svg	36	no	57	0	62	0	0			0	0			1				0	
6.6.1	win	2023-06-02	02:45:20	02:54:24	538413	6054e1ddb68b58dd23242765	4	1	main_slash	11	main_slash	77	stimuli_distractor_trianglediamonds.svg	stimuli_target_trianglesquares.svg	26	yes	53	1	509	0	0			0	0			1				0	
6.6.1	win	2023-06-02	02:45:20	02:54:24	538413	6054e1ddb68b58dd23242765	4	1	main_slash	11	advance_on_keypress_SLASH	78	stimuli_distractor_trianglediamonds.svg	stimuli_target_trianglesquares.svg	26	yes	57	0	214	0	0			0	0			1				0	
6.6.1	win	2023-06-02	02:45:20	02:54:25	539742	6054e1ddb68b58dd23242765	4	1	main_slash	11	main_slash	79	stimuli_target_rectanglediamonds.svg	stimuli_distractor_diamondtriangles.svg	6	yes	53	1	461	0	0			0	0			1				0	
6.6.1	win	2023-06-02	02:45:20	02:54:25	539742	6054e1ddb68b58dd23242765	4	1	main_slash	11	advance_on_keypress_SLASH	80	stimuli_target_rectanglediamonds.svg	stimuli_distractor_diamondtriangles.svg	6	yes	57	0	224	0	0			0	0			1				0	
6.6.1	win	2023-06-02	02:45:20	02:54:26	541006	6054e1ddb68b58dd23242765	4	1	main_slash	11	main_slash	81	stimuli_target_squarediamonds.svg	stimuli_distractor_diamondtriangles.svg	8	yes	53	1	406	0	0			0	0			1				0	
6.6.1	win	2023-06-02	02:45:20	02:54:26	541006	6054e1ddb68b58dd23242765	4	1	main_slash	11	advance_on_keypress_SLASH	82	stimuli_target_squarediamonds.svg	stimuli_distractor_diamondtriangles.svg	8	yes	57	0	179	0	0			0	0			1				0	
6.6.1	win	2023-06-02	02:45:20	02:54:28	542235	6054e1ddb68b58dd23242765	4	1	main_slash	11	main_slash	83	stimuli_target_squarediamonds.svg	stimuli_distractor_trianglediamonds.svg	4	yes	53	1	400	0	0			0	0			1				0	
6.6.1	win	2023-06-02	02:45:20	02:54:28	542235	6054e1ddb68b58dd23242765	4	1	main_slash	11	advance_on_keypress_SLASH	84	stimuli_target_squarediamonds.svg	stimuli_distractor_trianglediamonds.svg	4	yes	57	0	168	0	0			0	0			1				0	
6.6.1	win	2023-06-02	02:45:20	02:54:29	543404	6054e1ddb68b58dd23242765	4	1	main_slash	11	main_slash	85	stimuli_target_rectangletriangles.svg	stimuli_distractor_diamondtriangles.svg	5	yes	53	1	352	0	0			0	0			1				0	
6.6.1	win	2023-06-02	02:45:20	02:54:29	543404	6054e1ddb68b58dd23242765	4	1	main_slash	11	advance_on_keypress_SLASH	86	stimuli_target_rectangletriangles.svg	stimuli_distractor_diamondtriangles.svg	5	yes	57	0	195	0	0			0	0			1				0	
6.6.1	win	2023-06-02	02:45:20	02:54:30	544775	6054e1ddb68b58dd23242765	4	1	main_slash	11	main_slash	87	stimuli_distractor_trianglediamonds.svg	stimuli_target_trianglesquares.svg	26	yes	53	1	520	0	0			0	0			1				0	
6.6.1	win	2023-06-02	02:45:20	02:54:30	544775	6054e1ddb68b58dd23242765	4	1	main_slash	11	advance_on_keypress_SLASH	88	stimuli_distractor_trianglediamonds.svg	stimuli_target_trianglesquares.svg	26	yes	57	0	178	0	0			0	0			1				0	
6.6.1	win	2023-06-02	02:45:20	02:54:32	546134	6054e1ddb68b58dd23242765	4	1	main_slash	11	main_slash	89	stimuli_distractor_trianglediamonds.svg	stimuli_target_squaretriangles.svg	11	yes	53	1	546	0	0			0	0			1				0	
6.6.1	win	2023-06-02	02:45:20	02:54:32	546134	6054e1ddb68b58dd23242765	4	1	main_slash	11	advance_on_keypress_SLASH	90	stimuli_distractor_trianglediamonds.svg	stimuli_target_squaretriangles.svg	11	yes	57	0	168	0	0			0	0			1				0	
6.6.1	win	2023-06-02	02:45:20	02:54:33	547347	6054e1ddb68b58dd23242765	4	1	main_slash	11	main_slash	91	stimuli_target_squaretriangles.svg	stimuli_distractor_diamondtriangles.svg	7	yes	53	1	407	0	0			0	0			1				0	
6.6.1	win	2023-06-02	02:45:20	02:54:33	547347	6054e1ddb68b58dd23242765	4	1	main_slash	11	advance_on_keypress_SLASH	92	stimuli_target_squaretriangles.svg	stimuli_distractor_diamondtriangles.svg	7	yes	57	0	186	0	0			0	0			1				0	
6.6.1	win	2023-06-02	02:45:20	02:54:34	548693	6054e1ddb68b58dd23242765	4	1	main_slash	11	main_slash	93	stimuli_distractor_trianglediamonds.svg	stimuli_target_diamondsquares.svg	28	yes	53	1	517	0	0			0	0			1				0	
6.6.1	win	2023-06-02	02:45:20	02:54:34	548693	6054e1ddb68b58dd23242765	4	1	main_slash	11	advance_on_keypress_SLASH	94	stimuli_distractor_trianglediamonds.svg	stimuli_target_diamondsquares.svg	28	yes	57	0	216	0	0			0	0			1				0	
6.6.1	win	2023-06-02	02:45:20	02:54:36	550157	6054e1ddb68b58dd23242765	4	1	main_slash	11	main_slash	95	stimuli_distractor_diamondtriangles.svg	stimuli_target_rectangletriangles.svg	13	yes	53	1	598	0	0			0	0			1				0	
6.6.1	win	2023-06-02	02:45:20	02:54:36	550157	6054e1ddb68b58dd23242765	4	1	main_slash	11	advance_on_keypress_SLASH	96	stimuli_distractor_diamondtriangles.svg	stimuli_target_rectangletriangles.svg	13	yes	57	0	143	0	0			0	0			1				0	
6.6.1	win	2023-06-02	02:45:20	02:54:38	552945	6054e1ddb68b58dd23242765	4	1	main_slash	11	main_slash	97	stimuli_distractor_trianglediamonds.svg	stimuli_distractor_trianglediamonds.svg	33	no	0	1	2000	0	0			0	0			1				0	
6.6.1	win	2023-06-02	02:45:20	02:54:38	552945	6054e1ddb68b58dd23242765	4	1	main_slash	11	advance_on_keypress_SLASH	98	stimuli_distractor_trianglediamonds.svg	stimuli_distractor_trianglediamonds.svg	33	no	57	0	400	0	0			0	0			1				0	
6.6.1	win	2023-06-02	02:45:20	02:54:40	554391	6054e1ddb68b58dd23242765	4	1	main_slash	11	main_slash	99	stimuli_target_rectanglediamonds.svg	stimuli_distractor_diamondtriangles.svg	6	yes	53	1	393	0	0			0	0			1				0	
6.6.1	win	2023-06-02	02:45:20	02:54:40	554391	6054e1ddb68b58dd23242765	4	1	main_slash	11	advance_on_keypress_SLASH	100	stimuli_target_rectanglediamonds.svg	stimuli_distractor_diamondtriangles.svg	6	yes	57	0	206	0	0			0	0			1				0	
6.6.1	win	2023-06-02	02:45:20	02:54:43	557233	6054e1ddb68b58dd23242765	4	1	main_slash	11	main_slash	101	stimuli_distractor_trianglediamonds.svg	stimuli_distractor_diamondtriangles.svg	35	no	0	1	2000	0	0			0	0			1				0	
6.6.1	win	2023-06-02	02:45:20	02:54:43	557233	6054e1ddb68b58dd23242765	4	1	main_slash	11	advance_on_keypress_SLASH	102	stimuli_distractor_trianglediamonds.svg	stimuli_distractor_diamondtriangles.svg	35	no	57	0	63	0	0			0	0			1				0	
6.6.1	win	2023-06-02	02:45:20	02:54:45	559953	6054e1ddb68b58dd23242765	4	1	main_slash	11	main_slash	103	stimuli_distractor_trianglediamonds.svg	stimuli_distractor_trianglediamonds.svg	34	no	0	1	2000	0	0			0	0			1				0	
6.6.1	win	2023-06-02	02:45:20	02:54:45	559953	6054e1ddb68b58dd23242765	4	1	main_slash	11	advance_on_keypress_SLASH	104	stimuli_distractor_trianglediamonds.svg	stimuli_distractor_trianglediamonds.svg	34	no	57	0	217	0	0			0	0			1				0	
6.6.1	win	2023-06-02	02:45:20	02:54:47	561339	6054e1ddb68b58dd23242765	4	1	main_slash	11	main_slash	105	stimuli_target_trianglerectangles.svg	stimuli_distractor_trianglediamonds.svg	17	yes	53	1	508	0	0			0	0			1				0	
6.6.1	win	2023-06-02	02:45:20	02:54:47	561339	6054e1ddb68b58dd23242765	4	1	main_slash	11	advance_on_keypress_SLASH	106	stimuli_target_trianglerectangles.svg	stimuli_distractor_trianglediamonds.svg	17	yes	57	0	197	0	0			0	0			1				0	
6.6.1	win	2023-06-02	02:45:20	02:54:48	562708	6054e1ddb68b58dd23242765	4	1	main_slash	11	main_slash	107	stimuli_distractor_diamondtriangles.svg	stimuli_target_diamondrectangles.svg	31	yes	53	1	501	0	0			0	0			1				0	
6.6.1	win	2023-06-02	02:45:20	02:54:48	562708	6054e1ddb68b58dd23242765	4	1	main_slash	11	advance_on_keypress_SLASH	108	stimuli_distractor_diamondtriangles.svg	stimuli_target_diamondrectangles.svg	31	yes	57	0	140	0	0			0	0			1				0	
6.6.1	win	2023-06-02	02:45:20	02:54:49	563905	6054e1ddb68b58dd23242765	4	1	main_slash	11	main_slash	109	stimuli_distractor_diamondtriangles.svg	stimuli_target_trianglesquares.svg	30	yes	53	1	413	0	0			0	0			1				0	
6.6.1	win	2023-06-02	02:45:20	02:54:49	563905	6054e1ddb68b58dd23242765	4	1	main_slash	11	advance_on_keypress_SLASH	110	stimuli_distractor_diamondtriangles.svg	stimuli_target_trianglesquares.svg	30	yes	57	0	147	0	0			0	0			1				0	
6.6.1	win	2023-06-02	02:45:20	02:54:51	565099	6054e1ddb68b58dd23242765	4	1	main_slash	11	main_slash	111	stimuli_target_rectanglediamonds.svg	stimuli_distractor_trianglediamonds.svg	2	yes	53	1	404	0	0			0	0			1				0	
6.6.1	win	2023-06-02	02:45:20	02:54:51	565099	6054e1ddb68b58dd23242765	4	1	main_slash	11	advance_on_keypress_SLASH	112	stimuli_target_rectanglediamonds.svg	stimuli_distractor_trianglediamonds.svg	2	yes	57	0	142	0	0			0	0			1				0	
6.6.1	win	2023-06-02	02:45:20	02:54:52	566402	6054e1ddb68b58dd23242765	4	1	main_slash	11	main_slash	113	stimuli_distractor_diamondtriangles.svg	stimuli_target_trianglerectangles.svg	29	yes	53	1	522	0	0			0	0			1				0	
6.6.1	win	2023-06-02	02:45:20	02:54:52	566402	6054e1ddb68b58dd23242765	4	1	main_slash	11	advance_on_keypress_SLASH	114	stimuli_distractor_diamondtriangles.svg	stimuli_target_trianglerectangles.svg	29	yes	57	0	126	0	0			0	0			1				0	
6.6.1	win	2023-06-02	02:45:20	02:54:53	567744	6054e1ddb68b58dd23242765	4	1	main_slash	11	main_slash	115	stimuli_target_diamondsquares.svg	stimuli_distractor_diamondtriangles.svg	24	yes	53	1	581	0	0			0	0			1				0	
6.6.1	win	2023-06-02	02:45:20	02:54:53	567744	6054e1ddb68b58dd23242765	4	1	main_slash	11	advance_on_keypress_SLASH	116	stimuli_target_diamondsquares.svg	stimuli_distractor_diamondtriangles.svg	24	yes	57	0	127	0	0			0	0			1				0	
6.6.1	win	2023-06-02	02:45:20	02:54:55	569067	6054e1ddb68b58dd23242765	4	1	main_slash	11	main_slash	117	stimuli_distractor_trianglediamonds.svg	stimuli_target_diamondrectangles.svg	27	yes	53	1	551	0	0			0	0			1				0	
6.6.1	win	2023-06-02	02:45:20	02:54:55	569067	6054e1ddb68b58dd23242765	4	1	main_slash	11	advance_on_keypress_SLASH	118	stimuli_distractor_trianglediamonds.svg	stimuli_target_diamondrectangles.svg	27	yes	57	0	141	0	0			0	0			1				0	
6.6.1	win	2023-06-02	02:45:20	02:54:56	570257	6054e1ddb68b58dd23242765	4	1	main_slash	11	main_slash	119	stimuli_target_rectangletriangles.svg	stimuli_distractor_trianglediamonds.svg	1	yes	53	1	407	0	0			0	0			1				0	
6.6.1	win	2023-06-02	02:45:20	02:54:56	570257	6054e1ddb68b58dd23242765	4	1	main_slash	11	advance_on_keypress_SLASH	120	stimuli_target_rectangletriangles.svg	stimuli_distractor_trianglediamonds.svg	1	yes	57	0	195	0	0			0	0			1				0	
6.6.1	win	2023-06-02	02:45:20	02:54:59	573085	6054e1ddb68b58dd23242765	4	1	main_slash	11	main_slash	121	stimuli_distractor_diamondtriangles.svg	stimuli_distractor_diamondtriangles.svg	40	no	0	1	2000	0	0			0	0			1				0	
6.6.1	win	2023-06-02	02:45:20	02:54:59	573085	6054e1ddb68b58dd23242765	4	1	main_slash	11	advance_on_keypress_SLASH	122	stimuli_distractor_diamondtriangles.svg	stimuli_distractor_diamondtriangles.svg	40	no	57	0	72	0	0			0	0			1				0	
6.6.1	win	2023-06-02	02:45:20	02:55:01	575805	6054e1ddb68b58dd23242765	4	1	main_slash	11	main_slash	123	stimuli_distractor_diamondtriangles.svg	stimuli_distractor_trianglediamonds.svg	38	no	0	1	2000	0	0			0	0			1				0	
6.6.1	win	2023-06-02	02:45:20	02:55:01	575805	6054e1ddb68b58dd23242765	4	1	main_slash	11	advance_on_keypress_SLASH	124	stimuli_distractor_diamondtriangles.svg	stimuli_distractor_trianglediamonds.svg	38	no	57	0	463	0	0			0	0			1				0	
6.6.1	win	2023-06-02	02:45:20	02:55:04	578925	6054e1ddb68b58dd23242765	4	1	main_slash	11	main_slash	125	stimuli_distractor_trianglediamonds.svg	stimuli_distractor_diamondtriangles.svg	36	no	0	1	2000	0	0			0	0			1				0	
6.6.1	win	2023-06-02	02:45:20	02:55:04	578925	6054e1ddb68b58dd23242765	4	1	main_slash	11	advance_on_keypress_SLASH	126	stimuli_distractor_trianglediamonds.svg	stimuli_distractor_diamondtriangles.svg	36	no	57	0	340	0	0			0	0			1				0	
6.6.1	win	2023-06-02	02:45:20	02:55:06	580360	6054e1ddb68b58dd23242765	4	1	main_slash	11	main_slash	127	stimuli_target_trianglesquares.svg	stimuli_distractor_trianglediamonds.svg	18	yes	53	1	449	0	0			0	0			1				0	
6.6.1	win	2023-06-02	02:45:20	02:55:06	580360	6054e1ddb68b58dd23242765	4	1	main_slash	11	advance_on_keypress_SLASH	128	stimuli_target_trianglesquares.svg	stimuli_distractor_trianglediamonds.svg	18	yes	57	0	240	0	0			0	0			1				0	
6.6.1	win	2023-06-02	02:45:20	02:55:07	581818	6054e1ddb68b58dd23242765	4	1	main_slash	11	main_slash	129	stimuli_target_diamondrectangles.svg	stimuli_distractor_diamondtriangles.svg	23	yes	53	1	572	0	0			0	0			1				0	
6.6.1	win	2023-06-02	02:45:20	02:55:07	581818	6054e1ddb68b58dd23242765	4	1	main_slash	11	advance_on_keypress_SLASH	130	stimuli_target_diamondrectangles.svg	stimuli_distractor_diamondtriangles.svg	23	yes	57	0	269	0	0			0	0			1				0	
6.6.1	win	2023-06-02	02:45:20	02:55:09	583248	6054e1ddb68b58dd23242765	4	1	main_slash	11	main_slash	131	stimuli_target_trianglerectangles.svg	stimuli_distractor_diamondtriangles.svg	21	yes	53	1	513	0	0			0	0			1				0	
6.6.1	win	2023-06-02	02:45:20	02:55:09	583248	6054e1ddb68b58dd23242765	4	1	main_slash	11	advance_on_keypress_SLASH	132	stimuli_target_trianglerectangles.svg	stimuli_distractor_diamondtriangles.svg	21	yes	57	0	199	0	0			0	0			1				0	
6.6.1	win	2023-06-02	02:45:20	02:55:10	584778	6054e1ddb68b58dd23242765	4	1	main_slash	11	main_slash	133	stimuli_distractor_trianglediamonds.svg	stimuli_target_rectangletriangles.svg	9	yes	53	1	678	0	0			0	0			1				0	
6.6.1	win	2023-06-02	02:45:20	02:55:10	584778	6054e1ddb68b58dd23242765	4	1	main_slash	11	advance_on_keypress_SLASH	134	stimuli_distractor_trianglediamonds.svg	stimuli_target_rectangletriangles.svg	9	yes	57	0	299	0	0			0	0			1				0	
6.6.1	win	2023-06-02	02:45:20	02:55:12	586442	6054e1ddb68b58dd23242765	4	1	main_slash	11	main_slash	135	stimuli_distractor_trianglediamonds.svg	stimuli_target_trianglerectangles.svg	25	yes	53	1	724	0	0			0	0			1				0	
6.6.1	win	2023-06-02	02:45:20	02:55:12	586442	6054e1ddb68b58dd23242765	4	1	main_slash	11	advance_on_keypress_SLASH	136	stimuli_distractor_trianglediamonds.svg	stimuli_target_trianglerectangles.svg	25	yes	57	0	256	0	0			0	0			1				0	
6.6.1	win	2023-06-02	02:45:20	02:55:13	587889	6054e1ddb68b58dd23242765	4	1	main_slash	11	main_slash	137	stimuli_target_trianglesquares.svg	stimuli_distractor_diamondtriangles.svg	22	yes	53	1	550	0	0			0	0			1				0	
6.6.1	win	2023-06-02	02:45:20	02:55:13	587889	6054e1ddb68b58dd23242765	4	1	main_slash	11	advance_on_keypress_SLASH	138	stimuli_target_trianglesquares.svg	stimuli_distractor_diamondtriangles.svg	22	yes	57	0	165	0	0			0	0			1				0	
6.6.1	win	2023-06-02	02:45:20	02:55:15	589288	6054e1ddb68b58dd23242765	4	1	main_slash	11	main_slash	139	stimuli_distractor_diamondtriangles.svg	stimuli_target_squarediamonds.svg	16	yes	53	1	583	0	0			0	0			1				0	
6.6.1	win	2023-06-02	02:45:20	02:55:15	589288	6054e1ddb68b58dd23242765	4	1	main_slash	11	advance_on_keypress_SLASH	140	stimuli_distractor_diamondtriangles.svg	stimuli_target_squarediamonds.svg	16	yes	57	0	145	0	0			0	0			1				0	
6.6.1	win	2023-06-02	02:45:20	02:55:16	590534	6054e1ddb68b58dd23242765	4	1	main_slash	11	main_slash	141	stimuli_distractor_diamondtriangles.svg	stimuli_target_diamondsquares.svg	32	yes	53	1	461	0	0			0	0			1				0	
6.6.1	win	2023-06-02	02:45:20	02:55:16	590534	6054e1ddb68b58dd23242765	4	1	main_slash	11	advance_on_keypress_SLASH	142	stimuli_distractor_diamondtriangles.svg	stimuli_target_diamondsquares.svg	32	yes	57	0	198	0	0			0	0			1				0	
6.6.1	win	2023-06-02	02:45:20	02:55:17	591816	6054e1ddb68b58dd23242765	4	1	main_slash	11	main_slash	143	stimuli_target_squaretriangles.svg	stimuli_distractor_trianglediamonds.svg	3	yes	53	1	441	0	0			0	0			1				0	
6.6.1	win	2023-06-02	02:45:20	02:55:17	591816	6054e1ddb68b58dd23242765	4	1	main_slash	11	advance_on_keypress_SLASH	144	stimuli_target_squaretriangles.svg	stimuli_distractor_trianglediamonds.svg	3	yes	57	0	156	0	0			0	0			1				0	
6.6.1	win	2023-06-02	02:45:20	02:55:19	593202	6054e1ddb68b58dd23242765	4	1	main_slash	11	main_slash	145	stimuli_distractor_diamondtriangles.svg	stimuli_distractor_trianglediamonds.svg	37	no	53	0	593	0	0			0	0			1				0	
6.6.1	win	2023-06-02	02:45:20	02:55:19	593202	6054e1ddb68b58dd23242765	4	1	main_slash	11	advance_on_keypress_SLASH	146	stimuli_distractor_diamondtriangles.svg	stimuli_distractor_trianglediamonds.svg	37	no	57	0	268	0	0			0	0			1				0	
6.6.1	win	2023-06-02	02:45:20	02:55:20	594658	6054e1ddb68b58dd23242765	4	1	main_slash	11	main_slash	147	stimuli_distractor_diamondtriangles.svg	stimuli_target_rectanglediamonds.svg	14	yes	53	1	547	0	0			0	0			1				0	
6.6.1	win	2023-06-02	02:45:20	02:55:20	594658	6054e1ddb68b58dd23242765	4	1	main_slash	11	advance_on_keypress_SLASH	148	stimuli_distractor_diamondtriangles.svg	stimuli_target_rectanglediamonds.svg	14	yes	57	0	138	0	0			0	0			1				0	
6.6.1	win	2023-06-02	02:45:20	02:55:22	596153	6054e1ddb68b58dd23242765	4	1	main_slash	11	main_slash	149	stimuli_distractor_diamondtriangles.svg	stimuli_target_squaretriangles.svg	15	yes	53	1	707	0	0			0	0			1				0	
6.6.1	win	2023-06-02	02:45:20	02:55:22	596153	6054e1ddb68b58dd23242765	4	1	main_slash	11	advance_on_keypress_SLASH	150	stimuli_distractor_diamondtriangles.svg	stimuli_target_squaretriangles.svg	15	yes	57	0	171	0	0			0	0			1				0	
6.6.1	win	2023-06-02	02:45:20	02:55:23	597462	6054e1ddb68b58dd23242765	4	1	main_slash	11	main_slash	151	stimuli_distractor_trianglediamonds.svg	stimuli_target_squarediamonds.svg	12	yes	53	1	497	0	0			0	0			1				0	
6.6.1	win	2023-06-02	02:45:20	02:55:23	597462	6054e1ddb68b58dd23242765	4	1	main_slash	11	advance_on_keypress_SLASH	152	stimuli_distractor_trianglediamonds.svg	stimuli_target_squarediamonds.svg	12	yes	57	0	130	0	0			0	0			1				0	
6.6.1	win	2023-06-02	02:45:20	02:55:24	598791	6054e1ddb68b58dd23242765	4	1	main_slash	11	main_slash	153	stimuli_target_diamondsquares.svg	stimuli_distractor_trianglediamonds.svg	20	yes	53	1	542	0	0			0	0			1				0	
6.6.1	win	2023-06-02	02:45:20	02:55:24	598791	6054e1ddb68b58dd23242765	4	1	main_slash	11	advance_on_keypress_SLASH	154	stimuli_target_diamondsquares.svg	stimuli_distractor_trianglediamonds.svg	20	yes	57	0	146	0	0			0	0			1				0	
6.6.1	win	2023-06-02	02:45:20	02:55:27	601584	6054e1ddb68b58dd23242765	4	1	main_slash	11	main_slash	155	stimuli_distractor_diamondtriangles.svg	stimuli_distractor_diamondtriangles.svg	39	no	0	1	2000	0	0			0	0			1				0	
6.6.1	win	2023-06-02	02:45:20	02:55:27	601584	6054e1ddb68b58dd23242765	4	1	main_slash	11	advance_on_keypress_SLASH	156	stimuli_distractor_diamondtriangles.svg	stimuli_distractor_diamondtriangles.svg	39	no	57	0	7	0	0			0	0			1				0	
6.6.1	win	2023-06-02	02:45:20	02:55:28	602799	6054e1ddb68b58dd23242765	4	1	main_slash	11	main_slash	157	stimuli_target_diamondrectangles.svg	stimuli_distractor_trianglediamonds.svg	19	yes	53	1	545	0	0			0	0			1				0	
6.6.1	win	2023-06-02	02:45:20	02:55:28	602799	6054e1ddb68b58dd23242765	4	1	main_slash	11	advance_on_keypress_SLASH	158	stimuli_target_diamondrectangles.svg	stimuli_distractor_trianglediamonds.svg	19	yes	57	0	165	0	0			0	0			1				0	
6.6.1	win	2023-06-02	02:45:20	02:55:30	604049	6054e1ddb68b58dd23242765	4	1	main_slash	11	main_slash	159	stimuli_distractor_trianglediamonds.svg	stimuli_target_rectanglediamonds.svg	10	yes	53	1	443	0	0			0	0			1				0	
6.6.1	win	2023-06-02	02:45:20	02:55:30	604049	6054e1ddb68b58dd23242765	4	1	main_slash	11	advance_on_keypress_SLASH	160	stimuli_distractor_trianglediamonds.svg	stimuli_target_rectanglediamonds.svg	10	yes	57	0	143	0	0			0	0			1				0	
6.6.1	win	2023-06-02	02:45:20	02:55:30	604049	6054e1ddb68b58dd23242765	4	1	headphonecheck_calibration	14	headphonecheck_calibrationIntro	1	stimuli_distractor_trianglediamonds.svg	stimuli_target_rectanglediamonds.svg	10	yes	calibrationButton	0	1058	0	0			0	0			1				0	
6.6.1	win	2023-06-02	02:45:20	02:55:30	604049	6054e1ddb68b58dd23242765	4	1	headphonecheck_testphase	15	test_collectResponse	3	stimuli_distractor_trianglediamonds.svg	stimuli_target_rectanglediamonds.svg	10	yes	first	1	284	1	4	antiphase_hc_sio.wav	1	0	0			1				0	
6.6.1	win	2023-06-02	02:45:20	02:55:30	604049	6054e1ddb68b58dd23242765	4	1	headphonecheck_testphase	15	test_collectResponse	6	stimuli_distractor_trianglediamonds.svg	stimuli_target_rectanglediamonds.svg	10	yes	first	1	226	2	3	antiphase_hc_soi.wav	1	0	0			1				0	
6.6.1	win	2023-06-02	02:45:20	02:55:30	604049	6054e1ddb68b58dd23242765	4	1	headphonecheck_testphase	15	test_collectResponse	9	stimuli_distractor_trianglediamonds.svg	stimuli_target_rectanglediamonds.svg	10	yes	third	1	1592	3	2	antiphase_hc_ios.wav	3	0	0			1				0	
6.6.1	win	2023-06-02	02:45:20	02:55:30	604049	6054e1ddb68b58dd23242765	4	1	headphonecheck_testphase	15	test_collectResponse	12	stimuli_distractor_trianglediamonds.svg	stimuli_target_rectanglediamonds.svg	10	yes	second	1	363	4	1	antiphase_hc_iso.wav	2	0	0			1				0	
6.6.1	win	2023-06-02	02:45:20	02:55:30	604049	6054e1ddb68b58dd23242765	4	1	headphonecheck_testphase	15	test_collectResponse	15	stimuli_distractor_trianglediamonds.svg	stimuli_target_rectanglediamonds.svg	10	yes	third	1	104	5	6	antiphase_hc_ois.wav	3	0	0			1				0	
6.6.1	win	2023-06-02	02:45:20	02:55:30	604049	6054e1ddb68b58dd23242765	4	1	headphonecheck_testphase	15	test_collectResponse	18	stimuli_distractor_trianglediamonds.svg	stimuli_target_rectanglediamonds.svg	10	yes	second	1	459	6	5	antiphase_hc_osi.wav	2	0	0			1				0	
6.6.1	win	2023-06-02	02:45:20	02:55:30	604049	6054e1ddb68b58dd23242765	4	1	stereocheck_calibration	17	stereocheck_calibrationIntro	1	stimuli_distractor_trianglediamonds.svg	stimuli_target_rectanglediamonds.svg	10	yes	stereocheck_calibrationButton	0	3172	6	5	antiphase_hc_osi.wav	2	0	0			1				0	
6.6.1	win	2023-06-02	02:45:20	02:55:30	604049	6054e1ddb68b58dd23242765	4	1	stereocheck_testphase	18	stereocheck_test_collectResponse	3	stimuli_distractor_trianglediamonds.svg	stimuli_target_rectanglediamonds.svg	10	yes	stereocheck_left	1	1204	6	5	antiphase_hc_osi.wav	2	1	1	noise_calib_stim_LEFT.wav	1	1				0	
6.6.1	win	2023-06-02	02:45:20	02:55:30	604049	6054e1ddb68b58dd23242765	4	1	stereocheck_testphase	18	stereocheck_test_collectResponse	6	stimuli_distractor_trianglediamonds.svg	stimuli_target_rectanglediamonds.svg	10	yes	stereocheck_left	1	102	6	5	antiphase_hc_osi.wav	2	2	2	noise_calib_stim_LEFT.wav	1	1				0	
6.6.1	win	2023-06-02	02:45:20	02:55:30	604049	6054e1ddb68b58dd23242765	4	1	stereocheck_testphase	18	stereocheck_test_collectResponse	9	stimuli_distractor_trianglediamonds.svg	stimuli_target_rectanglediamonds.svg	10	yes	stereocheck_left	1	137	6	5	antiphase_hc_osi.wav	2	3	3	noise_calib_stim_LEFT.wav	1	1				0	
6.6.1	win	2023-06-02	02:45:20	02:55:30	604049	6054e1ddb68b58dd23242765	4	1	stereocheck_testphase	18	stereocheck_test_collectResponse	12	stimuli_distractor_trianglediamonds.svg	stimuli_target_rectanglediamonds.svg	10	yes	stereocheck_right	1	0	6	5	antiphase_hc_osi.wav	2	4	5	noise_calib_stim_RIGHT.wav	2	1				0	
6.6.1	win	2023-06-02	02:45:20	02:55:30	604049	6054e1ddb68b58dd23242765	4	1	stereocheck_testphase	18	stereocheck_test_collectResponse	15	stimuli_distractor_trianglediamonds.svg	stimuli_target_rectanglediamonds.svg	10	yes	stereocheck_right	1	135	6	5	antiphase_hc_osi.wav	2	5	6	noise_calib_stim_RIGHT.wav	2	1				0	
6.6.1	win	2023-06-02	02:45:20	02:55:30	604049	6054e1ddb68b58dd23242765	4	1	stereocheck_testphase	18	stereocheck_test_collectResponse	18	stimuli_distractor_trianglediamonds.svg	stimuli_target_rectanglediamonds.svg	10	yes	stereocheck_right	1	325	6	5	antiphase_hc_osi.wav	2	6	4	noise_calib_stim_RIGHT.wav	2	1				0	
6.6.1	win	2023-06-02	02:45:20	02:55:30	604049	6054e1ddb68b58dd23242765	4	1	DL_practice	21	DL_practice	2	stimuli_distractor_trianglediamonds.svg	stimuli_target_rectanglediamonds.svg	10	yes	ba	1	1064	6	5	antiphase_hc_osi.wav	2	6	4	noise_calib_stim_RIGHT.wav	2	7	blb_dichoticlistening_da-ba.mp3	da	ba	1	right
6.6.1	win	2023-06-02	02:45:20	02:55:30	604049	6054e1ddb68b58dd23242765	4	1	DL_practice	21	DL_practice	3	stimuli_distractor_trianglediamonds.svg	stimuli_target_rectanglediamonds.svg	10	yes	ba	1	780	6	5	antiphase_hc_osi.wav	2	6	4	noise_calib_stim_RIGHT.wav	2	1	blb_dichoticlistening_ba-ba.mp3	ba	ba	0	left
6.6.1	win	2023-06-02	02:45:20	02:55:30	604049	6054e1ddb68b58dd23242765	4	1	DL_practice	21	DL_practice	4	stimuli_distractor_trianglediamonds.svg	stimuli_target_rectanglediamonds.svg	10	yes	ga	1	850	6	5	antiphase_hc_osi.wav	2	6	4	noise_calib_stim_RIGHT.wav	2	15	blb_dichoticlistening_ga-ga.mp3	ga	ga	0	left
6.6.1	win	2023-06-02	02:45:20	02:55:30	604049	6054e1ddb68b58dd23242765	4	1	DL_practice	21	DL_practice	5	stimuli_distractor_trianglediamonds.svg	stimuli_target_rectanglediamonds.svg	10	yes	da	1	990	6	5	antiphase_hc_osi.wav	2	6	4	noise_calib_stim_RIGHT.wav	2	8	blb_dichoticlistening_da-da.mp3	da	da	0	left
6.6.1	win	2023-06-02	02:45:20	02:55:30	604049	6054e1ddb68b58dd23242765	4	1	DL_practice	21	DL_practice	6	stimuli_distractor_trianglediamonds.svg	stimuli_target_rectanglediamonds.svg	10	yes	ka	1	768	6	5	antiphase_hc_osi.wav	2	6	4	noise_calib_stim_RIGHT.wav	2	22	blb_dichoticlistening_ka-ka.mp3	ka	ka	0	left
6.6.1	win	2023-06-02	02:45:20	02:55:30	604049	6054e1ddb68b58dd23242765	4	1	DL_practice	21	DL_practice	7	stimuli_distractor_trianglediamonds.svg	stimuli_target_rectanglediamonds.svg	10	yes	ka	0	754	6	5	antiphase_hc_osi.wav	2	6	4	noise_calib_stim_RIGHT.wav	2	36	blb_dichoticlistening_ta-ta.mp3	ta	ta	0	other
6.6.1	win	2023-06-02	02:45:20	02:55:30	604049	6054e1ddb68b58dd23242765	4	1	DL_practice	21	DL_practice	8	stimuli_distractor_trianglediamonds.svg	stimuli_target_rectanglediamonds.svg	10	yes	ka	0	803	6	5	antiphase_hc_osi.wav	2	6	4	noise_calib_stim_RIGHT.wav	2	18	blb_dichoticlistening_ga-ta.mp3	ga	ta	1	other
6.6.1	win	2023-06-02	02:45:20	02:55:30	604049	6054e1ddb68b58dd23242765	4	1	DL_practice	21	DL_practice	9	stimuli_distractor_trianglediamonds.svg	stimuli_target_rectanglediamonds.svg	10	yes	pa	1	1405	6	5	antiphase_hc_osi.wav	2	6	4	noise_calib_stim_RIGHT.wav	2	23	blb_dichoticlistening_ka-pa.mp3	ka	pa	1	right
6.6.1	win	2023-06-02	02:45:20	02:55:30	604049	6054e1ddb68b58dd23242765	4	1	DL_practice	21	DL_practice	10	stimuli_distractor_trianglediamonds.svg	stimuli_target_rectanglediamonds.svg	10	yes	pa	1	764	6	5	antiphase_hc_osi.wav	2	6	4	noise_calib_stim_RIGHT.wav	2	29	blb_dichoticlistening_pa-pa.mp3	pa	pa	0	left
6.6.1	win	2023-06-02	02:45:20	02:55:30	604049	6054e1ddb68b58dd23242765	4	1	DL_test	23	DL_test	1	stimuli_distractor_trianglediamonds.svg	stimuli_target_rectanglediamonds.svg	10	yes	pa	0	1119	6	5	antiphase_hc_osi.wav	2	6	4	noise_calib_stim_RIGHT.wav	2	6	blb_dichoticlistening_ba-ta.mp3	ba	ta	1	other
6.6.1	win	2023-06-02	02:45:20	02:55:30	604049	6054e1ddb68b58dd23242765	4	1	DL_test	23	DL_test	2	stimuli_distractor_trianglediamonds.svg	stimuli_target_rectanglediamonds.svg	10	yes	ka	0	802	6	5	antiphase_hc_osi.wav	2	6	4	noise_calib_stim_RIGHT.wav	2	12	blb_dichoticlistening_da-ta.mp3	da	ta	1	other
6.6.1	win	2023-06-02	02:45:20	02:55:30	604049	6054e1ddb68b58dd23242765	4	1	DL_test	23	DL_test	3	stimuli_distractor_trianglediamonds.svg	stimuli_target_rectanglediamonds.svg	10	yes	pa	0	942	6	5	antiphase_hc_osi.wav	2	6	4	noise_calib_stim_RIGHT.wav	2	31	blb_dichoticlistening_ta-ba.mp3	ta	ba	1	other
6.6.1	win	2023-06-02	02:45:20	02:55:30	604049	6054e1ddb68b58dd23242765	4	1	DL_test	23	DL_test	4	stimuli_distractor_trianglediamonds.svg	stimuli_target_rectanglediamonds.svg	10	yes	pa	1	819	6	5	antiphase_hc_osi.wav	2	6	4	noise_calib_stim_RIGHT.wav	2	5	blb_dichoticlistening_ba-pa.mp3	ba	pa	1	right
6.6.1	win	2023-06-02	02:45:20	02:55:30	604049	6054e1ddb68b58dd23242765	4	1	DL_test	23	DL_test	5	stimuli_distractor_trianglediamonds.svg	stimuli_target_rectanglediamonds.svg	10	yes	ba	1	1177	6	5	antiphase_hc_osi.wav	2	6	4	noise_calib_stim_RIGHT.wav	2	13	blb_dichoticlistening_ga-ba.mp3	ga	ba	1	right
6.6.1	win	2023-06-02	02:45:20	02:55:30	604049	6054e1ddb68b58dd23242765	4	1	DL_test	23	DL_test	6	stimuli_distractor_trianglediamonds.svg	stimuli_target_rectanglediamonds.svg	10	yes	pa	1	1274	6	5	antiphase_hc_osi.wav	2	6	4	noise_calib_stim_RIGHT.wav	2	29	blb_dichoticlistening_pa-pa.mp3	pa	pa	0	left
6.6.1	win	2023-06-02	02:45:20	02:55:30	604049	6054e1ddb68b58dd23242765	4	1	DL_test	23	DL_test	7	stimuli_distractor_trianglediamonds.svg	stimuli_target_rectanglediamonds.svg	10	yes	ba	1	1032	6	5	antiphase_hc_osi.wav	2	6	4	noise_calib_stim_RIGHT.wav	2	25	blb_dichoticlistening_pa-ba.mp3	pa	ba	1	right
6.6.1	win	2023-06-02	02:45:20	02:55:30	604049	6054e1ddb68b58dd23242765	4	1	DL_test	23	DL_test	8	stimuli_distractor_trianglediamonds.svg	stimuli_target_rectanglediamonds.svg	10	yes	ka	1	746	6	5	antiphase_hc_osi.wav	2	6	4	noise_calib_stim_RIGHT.wav	2	28	blb_dichoticlistening_pa-ka.mp3	pa	ka	1	right
6.6.1	win	2023-06-02	02:45:20	02:55:30	604049	6054e1ddb68b58dd23242765	4	1	DL_test	23	DL_test	9	stimuli_distractor_trianglediamonds.svg	stimuli_target_rectanglediamonds.svg	10	yes	ba	1	1179	6	5	antiphase_hc_osi.wav	2	6	4	noise_calib_stim_RIGHT.wav	2	3	blb_dichoticlistening_ba-ga.mp3	ba	ga	1	left
6.6.1	win	2023-06-02	02:45:20	02:55:30	604049	6054e1ddb68b58dd23242765	4	1	DL_test	23	DL_test	10	stimuli_distractor_trianglediamonds.svg	stimuli_target_rectanglediamonds.svg	10	yes	pa	1	1274	6	5	antiphase_hc_osi.wav	2	6	4	noise_calib_stim_RIGHT.wav	2	23	blb_dichoticlistening_ka-pa.mp3	ka	pa	1	right
6.6.1	win	2023-06-02	02:45:20	02:55:30	604049	6054e1ddb68b58dd23242765	4	1	DL_test	23	DL_test	11	stimuli_distractor_trianglediamonds.svg	stimuli_target_rectanglediamonds.svg	10	yes	ka	1	799	6	5	antiphase_hc_osi.wav	2	6	4	noise_calib_stim_RIGHT.wav	2	24	blb_dichoticlistening_ka-ta.mp3	ka	ta	1	left
6.6.1	win	2023-06-02	02:45:20	02:55:30	604049	6054e1ddb68b58dd23242765	4	1	DL_test	23	DL_test	12	stimuli_distractor_trianglediamonds.svg	stimuli_target_rectanglediamonds.svg	10	yes	ba	1	1098	6	5	antiphase_hc_osi.wav	2	6	4	noise_calib_stim_RIGHT.wav	2	19	blb_dichoticlistening_ka-ba.mp3	ka	ba	1	right
6.6.1	win	2023-06-02	02:45:20	02:55:30	604049	6054e1ddb68b58dd23242765	4	1	DL_test	23	DL_test	13	stimuli_distractor_trianglediamonds.svg	stimuli_target_rectanglediamonds.svg	10	yes	pa	0	2490	6	5	antiphase_hc_osi.wav	2	6	4	noise_calib_stim_RIGHT.wav	2	10	blb_dichoticlistening_da-ka.mp3	da	ka	1	other
6.6.1	win	2023-06-02	02:45:20	02:55:30	604049	6054e1ddb68b58dd23242765	4	1	DL_test	23	DL_test	14	stimuli_distractor_trianglediamonds.svg	stimuli_target_rectanglediamonds.svg	10	yes	ba	1	995	6	5	antiphase_hc_osi.wav	2	6	4	noise_calib_stim_RIGHT.wav	2	7	blb_dichoticlistening_da-ba.mp3	da	ba	1	right
6.6.1	win	2023-06-02	02:45:20	02:55:30	604049	6054e1ddb68b58dd23242765	4	1	DL_test	23	DL_test	15	stimuli_distractor_trianglediamonds.svg	stimuli_target_rectanglediamonds.svg	10	yes	da	1	943	6	5	antiphase_hc_osi.wav	2	6	4	noise_calib_stim_RIGHT.wav	2	26	blb_dichoticlistening_pa-da.mp3	pa	da	1	right
6.6.1	win	2023-06-02	02:45:20	02:55:30	604049	6054e1ddb68b58dd23242765	4	1	DL_test	23	DL_test	16	stimuli_distractor_trianglediamonds.svg	stimuli_target_rectanglediamonds.svg	10	yes	da	1	929	6	5	antiphase_hc_osi.wav	2	6	4	noise_calib_stim_RIGHT.wav	2	2	blb_dichoticlistening_ba-da.mp3	ba	da	1	right
6.6.1	win	2023-06-02	02:45:20	02:55:30	604049	6054e1ddb68b58dd23242765	4	1	DL_test	23	DL_test	17	stimuli_distractor_trianglediamonds.svg	stimuli_target_rectanglediamonds.svg	10	yes	da	1	754	6	5	antiphase_hc_osi.wav	2	6	4	noise_calib_stim_RIGHT.wav	2	8	blb_dichoticlistening_da-da.mp3	da	da	0	left
6.6.1	win	2023-06-02	02:45:20	02:55:30	604049	6054e1ddb68b58dd23242765	4	1	DL_test	23	DL_test	18	stimuli_distractor_trianglediamonds.svg	stimuli_target_rectanglediamonds.svg	10	yes	ka	1	896	6	5	antiphase_hc_osi.wav	2	6	4	noise_calib_stim_RIGHT.wav	2	22	blb_dichoticlistening_ka-ka.mp3	ka	ka	0	left
6.6.1	win	2023-06-02	02:45:20	02:55:30	604049	6054e1ddb68b58dd23242765	4	1	DL_test	23	DL_test	19	stimuli_distractor_trianglediamonds.svg	stimuli_target_rectanglediamonds.svg	10	yes	da	1	839	6	5	antiphase_hc_osi.wav	2	6	4	noise_calib_stim_RIGHT.wav	2	9	blb_dichoticlistening_da-ga.mp3	da	ga	1	left
6.6.1	win	2023-06-02	02:45:20	02:55:30	604049	6054e1ddb68b58dd23242765	4	1	DL_test	23	DL_test	20	stimuli_distractor_trianglediamonds.svg	stimuli_target_rectanglediamonds.svg	10	yes	ga	1	756	6	5	antiphase_hc_osi.wav	2	6	4	noise_calib_stim_RIGHT.wav	2	21	blb_dichoticlistening_ka-ga.mp3	ka	ga	1	right
6.6.1	win	2023-06-02	02:45:20	02:55:30	604049	6054e1ddb68b58dd23242765	4	1	DL_test	23	DL_test	21	stimuli_distractor_trianglediamonds.svg	stimuli_target_rectanglediamonds.svg	10	yes	ka	1	811	6	5	antiphase_hc_osi.wav	2	6	4	noise_calib_stim_RIGHT.wav	2	4	blb_dichoticlistening_ba-ka.mp3	ba	ka	1	right
6.6.1	win	2023-06-02	02:45:20	02:55:30	604049	6054e1ddb68b58dd23242765	4	1	DL_test	23	DL_test	22	stimuli_distractor_trianglediamonds.svg	stimuli_target_rectanglediamonds.svg	10	yes	ga	1	630	6	5	antiphase_hc_osi.wav	2	6	4	noise_calib_stim_RIGHT.wav	2	15	blb_dichoticlistening_ga-ga.mp3	ga	ga	0	left
6.6.1	win	2023-06-02	02:45:20	02:55:30	604049	6054e1ddb68b58dd23242765	4	1	DL_test	23	DL_test	23	stimuli_distractor_trianglediamonds.svg	stimuli_target_rectanglediamonds.svg	10	yes	ka	1	690	6	5	antiphase_hc_osi.wav	2	6	4	noise_calib_stim_RIGHT.wav	2	34	blb_dichoticlistening_ta-ka.mp3	ta	ka	1	right
6.6.1	win	2023-06-02	02:45:20	02:55:30	604049	6054e1ddb68b58dd23242765	4	1	DL_test	23	DL_test	24	stimuli_distractor_trianglediamonds.svg	stimuli_target_rectanglediamonds.svg	10	yes	ka	1	1263	6	5	antiphase_hc_osi.wav	2	6	4	noise_calib_stim_RIGHT.wav	2	20	blb_dichoticlistening_ka-da.mp3	ka	da	1	left
6.6.1	win	2023-06-02	02:45:20	02:55:30	604049	6054e1ddb68b58dd23242765	4	1	DL_test	23	DL_test	25	stimuli_distractor_trianglediamonds.svg	stimuli_target_rectanglediamonds.svg	10	yes	ga	1	1112	6	5	antiphase_hc_osi.wav	2	6	4	noise_calib_stim_RIGHT.wav	2	33	blb_dichoticlistening_ta-ga.mp3	ta	ga	1	right
6.6.1	win	2023-06-02	02:45:20	02:55:30	604049	6054e1ddb68b58dd23242765	4	1	DL_test	23	DL_test	26	stimuli_distractor_trianglediamonds.svg	stimuli_target_rectanglediamonds.svg	10	yes	ba	1	1208	6	5	antiphase_hc_osi.wav	2	6	4	noise_calib_stim_RIGHT.wav	2	1	blb_dichoticlistening_ba-ba.mp3	ba	ba	0	left
