build	computer.platform	date	time	timestamp	time_elapsed_ms	subject	group	session	blockcode	blocknum	trialcode	trialnum	stimulus_left	stimulus_right	stim_index	target_present	response	correct	latency	headphonecheck_countTestTrials	headphonecheck_index	headphonecheck_testSound	headphonecheck_correctResponse	stereocheck_countTestTrials	stereocheck_index	stereocheck_testSound	stereocheck_correctResponse	DL_index	DL_soundfile	DL_leftSound	DL_rightSound	DL_dualSound	DL_choice
6.6.1	win	2023-07-10	16:15:43	0	0	6237ca974050879378c8fea8	2	1	headphonecheck_calibration	4	headphonecheck_calibrationIntro	1			0		calibrationButton	0	3386	0	0			0	0			1				0	
6.6.1	win	2023-07-10	16:15:43	0	0	6237ca974050879378c8fea8	2	1	headphonecheck_testphase	5	test_collectResponse	3			0		second	1	193	1	1	antiphase_hc_iso.wav	2	0	0			1				0	
6.6.1	win	2023-07-10	16:15:43	0	0	6237ca974050879378c8fea8	2	1	headphonecheck_testphase	5	test_collectResponse	6			0		second	0	599	2	4	antiphase_hc_sio.wav	1	0	0			1				0	
6.6.1	win	2023-07-10	16:15:43	0	0	6237ca974050879378c8fea8	2	1	headphonecheck_testphase	5	test_collectResponse	9			0		third	1	1686	3	6	antiphase_hc_ois.wav	3	0	0			1				0	
6.6.1	win	2023-07-10	16:15:43	0	0	6237ca974050879378c8fea8	2	1	headphonecheck_testphase	5	test_collectResponse	12			0		first	1	630	4	3	antiphase_hc_soi.wav	1	0	0			1				0	
6.6.1	win	2023-07-10	16:15:43	0	0	6237ca974050879378c8fea8	2	1	headphonecheck_testphase	5	test_collectResponse	15			0		second	1	612	5	5	antiphase_hc_osi.wav	2	0	0			1				0	
6.6.1	win	2023-07-10	16:15:43	0	0	6237ca974050879378c8fea8	2	1	headphonecheck_testphase	5	test_collectResponse	18			0		third	1	602	6	2	antiphase_hc_ios.wav	3	0	0			1				0	
6.6.1	win	2023-07-10	16:15:43	0	0	6237ca974050879378c8fea8	2	1	stereocheck_calibration	7	stereocheck_calibrationIntro	1			0		stereocheck_calibrationButton	0	5478	6	2	antiphase_hc_ios.wav	3	0	0			1				0	
6.6.1	win	2023-07-10	16:15:43	0	0	6237ca974050879378c8fea8	2	1	stereocheck_testphase	8	stereocheck_test_collectResponse	3			0		stereocheck_left	1	329	6	2	antiphase_hc_ios.wav	3	1	1	noise_calib_stim_LEFT.wav	1	1				0	
6.6.1	win	2023-07-10	16:15:43	0	0	6237ca974050879378c8fea8	2	1	stereocheck_testphase	8	stereocheck_test_collectResponse	6			0		stereocheck_right	1	208	6	2	antiphase_hc_ios.wav	3	2	4	noise_calib_stim_RIGHT.wav	2	1				0	
6.6.1	win	2023-07-10	16:15:43	0	0	6237ca974050879378c8fea8	2	1	stereocheck_testphase	8	stereocheck_test_collectResponse	9			0		stereocheck_left	1	220	6	2	antiphase_hc_ios.wav	3	3	3	noise_calib_stim_LEFT.wav	1	1				0	
6.6.1	win	2023-07-10	16:15:43	0	0	6237ca974050879378c8fea8	2	1	stereocheck_testphase	8	stereocheck_test_collectResponse	12			0		stereocheck_right	1	257	6	2	antiphase_hc_ios.wav	3	4	6	noise_calib_stim_RIGHT.wav	2	1				0	
6.6.1	win	2023-07-10	16:15:43	0	0	6237ca974050879378c8fea8	2	1	stereocheck_testphase	8	stereocheck_test_collectResponse	15			0		stereocheck_right	1	160	6	2	antiphase_hc_ios.wav	3	5	5	noise_calib_stim_RIGHT.wav	2	1				0	
6.6.1	win	2023-07-10	16:15:43	0	0	6237ca974050879378c8fea8	2	1	stereocheck_testphase	8	stereocheck_test_collectResponse	18			0		stereocheck_left	1	191	6	2	antiphase_hc_ios.wav	3	6	2	noise_calib_stim_LEFT.wav	1	1				0	
6.6.1	win	2023-07-10	16:15:43	0	0	6237ca974050879378c8fea8	2	1	DL_practice	11	DL_practice	2			0		ga	1	839	6	2	antiphase_hc_ios.wav	3	6	2	noise_calib_stim_LEFT.wav	1	15	blb_dichoticlistening_ga-ga.mp3	ga	ga	0	left
6.6.1	win	2023-07-10	16:15:43	0	0	6237ca974050879378c8fea8	2	1	DL_practice	11	DL_practice	3			0		ta	1	1311	6	2	antiphase_hc_ios.wav	3	6	2	noise_calib_stim_LEFT.wav	1	36	blb_dichoticlistening_ta-ta.mp3	ta	ta	0	left
6.6.1	win	2023-07-10	16:15:43	0	0	6237ca974050879378c8fea8	2	1	DL_practice	11	DL_practice	4			0		ka	1	2055	6	2	antiphase_hc_ios.wav	3	6	2	noise_calib_stim_LEFT.wav	1	23	blb_dichoticlistening_ka-pa.mp3	ka	pa	1	left
6.6.1	win	2023-07-10	16:15:43	0	0	6237ca974050879378c8fea8	2	1	DL_practice	11	DL_practice	5			0		ba	1	1570	6	2	antiphase_hc_ios.wav	3	6	2	noise_calib_stim_LEFT.wav	1	1	blb_dichoticlistening_ba-ba.mp3	ba	ba	0	left
6.6.1	win	2023-07-10	16:15:43	0	0	6237ca974050879378c8fea8	2	1	DL_practice	11	DL_practice	6			0		da	1	1089	6	2	antiphase_hc_ios.wav	3	6	2	noise_calib_stim_LEFT.wav	1	8	blb_dichoticlistening_da-da.mp3	da	da	0	left
6.6.1	win	2023-07-10	16:15:43	0	0	6237ca974050879378c8fea8	2	1	DL_practice	11	DL_practice	7			0		ba	1	1592	6	2	antiphase_hc_ios.wav	3	6	2	noise_calib_stim_LEFT.wav	1	7	blb_dichoticlistening_da-ba.mp3	da	ba	1	right
6.6.1	win	2023-07-10	16:15:43	0	0	6237ca974050879378c8fea8	2	1	DL_practice	11	DL_practice	8			0		pa	1	1328	6	2	antiphase_hc_ios.wav	3	6	2	noise_calib_stim_LEFT.wav	1	29	blb_dichoticlistening_pa-pa.mp3	pa	pa	0	left
6.6.1	win	2023-07-10	16:15:43	0	0	6237ca974050879378c8fea8	2	1	DL_practice	11	DL_practice	9			0		ka	1	1048	6	2	antiphase_hc_ios.wav	3	6	2	noise_calib_stim_LEFT.wav	1	22	blb_dichoticlistening_ka-ka.mp3	ka	ka	0	left
6.6.1	win	2023-07-10	16:15:43	0	0	6237ca974050879378c8fea8	2	1	DL_practice	11	DL_practice	10			0		ga	1	1082	6	2	antiphase_hc_ios.wav	3	6	2	noise_calib_stim_LEFT.wav	1	18	blb_dichoticlistening_ga-ta.mp3	ga	ta	1	left
6.6.1	win	2023-07-10	16:15:43	0	0	6237ca974050879378c8fea8	2	1	DL_test	13	DL_test	1			0		ka	1	864	6	2	antiphase_hc_ios.wav	3	6	2	noise_calib_stim_LEFT.wav	1	22	blb_dichoticlistening_ka-ka.mp3	ka	ka	0	left
6.6.1	win	2023-07-10	16:15:43	0	0	6237ca974050879378c8fea8	2	1	DL_test	13	DL_test	2			0		ga	1	870	6	2	antiphase_hc_ios.wav	3	6	2	noise_calib_stim_LEFT.wav	1	14	blb_dichoticlistening_ga-da.mp3	ga	da	1	left
6.6.1	win	2023-07-10	16:15:43	0	0	6237ca974050879378c8fea8	2	1	DL_test	13	DL_test	3			0		ba	1	1722	6	2	antiphase_hc_ios.wav	3	6	2	noise_calib_stim_LEFT.wav	1	1	blb_dichoticlistening_ba-ba.mp3	ba	ba	0	left
6.6.1	win	2023-07-10	16:15:43	0	0	6237ca974050879378c8fea8	2	1	DL_test	13	DL_test	4			0		da	1	1059	6	2	antiphase_hc_ios.wav	3	6	2	noise_calib_stim_LEFT.wav	1	8	blb_dichoticlistening_da-da.mp3	da	da	0	left
6.6.1	win	2023-07-10	16:15:43	0	0	6237ca974050879378c8fea8	2	1	DL_test	13	DL_test	5			0		ka	1	1128	6	2	antiphase_hc_ios.wav	3	6	2	noise_calib_stim_LEFT.wav	1	16	blb_dichoticlistening_ga-ka.mp3	ga	ka	1	right
6.6.1	win	2023-07-10	16:15:43	0	0	6237ca974050879378c8fea8	2	1	DL_test	13	DL_test	6			0		pa	1	1117	6	2	antiphase_hc_ios.wav	3	6	2	noise_calib_stim_LEFT.wav	1	35	blb_dichoticlistening_ta-pa.mp3	ta	pa	1	right
6.6.1	win	2023-07-10	16:15:43	0	0	6237ca974050879378c8fea8	2	1	DL_test	13	DL_test	7			0		ba	1	1478	6	2	antiphase_hc_ios.wav	3	6	2	noise_calib_stim_LEFT.wav	1	4	blb_dichoticlistening_ba-ka.mp3	ba	ka	1	left
6.6.1	win	2023-07-10	16:15:43	0	0	6237ca974050879378c8fea8	2	1	DL_test	13	DL_test	8			0		ga	1	1058	6	2	antiphase_hc_ios.wav	3	6	2	noise_calib_stim_LEFT.wav	1	3	blb_dichoticlistening_ba-ga.mp3	ba	ga	1	right
6.6.1	win	2023-07-10	16:15:43	0	0	6237ca974050879378c8fea8	2	1	DL_test	13	DL_test	9			0		ka	1	883	6	2	antiphase_hc_ios.wav	3	6	2	noise_calib_stim_LEFT.wav	1	34	blb_dichoticlistening_ta-ka.mp3	ta	ka	1	right
6.6.1	win	2023-07-10	16:15:43	0	0	6237ca974050879378c8fea8	2	1	DL_test	13	DL_test	10			0		da	1	1012	6	2	antiphase_hc_ios.wav	3	6	2	noise_calib_stim_LEFT.wav	1	9	blb_dichoticlistening_da-ga.mp3	da	ga	1	left
6.6.1	win	2023-07-10	16:15:43	0	0	6237ca974050879378c8fea8	2	1	DL_test	13	DL_test	11			0		pa	1	910	6	2	antiphase_hc_ios.wav	3	6	2	noise_calib_stim_LEFT.wav	1	29	blb_dichoticlistening_pa-pa.mp3	pa	pa	0	left
6.6.1	win	2023-07-10	16:15:43	0	0	6237ca974050879378c8fea8	2	1	DL_test	13	DL_test	12			0		pa	1	2642	6	2	antiphase_hc_ios.wav	3	6	2	noise_calib_stim_LEFT.wav	1	26	blb_dichoticlistening_pa-da.mp3	pa	da	1	left
6.6.1	win	2023-07-10	16:15:43	0	0	6237ca974050879378c8fea8	2	1	DL_test	13	DL_test	13			0		pa	1	960	6	2	antiphase_hc_ios.wav	3	6	2	noise_calib_stim_LEFT.wav	1	17	blb_dichoticlistening_ga-pa.mp3	ga	pa	1	right
6.6.1	win	2023-07-10	16:15:43	0	0	6237ca974050879378c8fea8	2	1	DL_test	13	DL_test	14			0		da	1	1060	6	2	antiphase_hc_ios.wav	3	6	2	noise_calib_stim_LEFT.wav	1	32	blb_dichoticlistening_ta-da.mp3	ta	da	1	right
6.6.1	win	2023-07-10	16:15:43	0	0	6237ca974050879378c8fea8	2	1	DL_test	13	DL_test	15			0		ga	1	1043	6	2	antiphase_hc_ios.wav	3	6	2	noise_calib_stim_LEFT.wav	1	21	blb_dichoticlistening_ka-ga.mp3	ka	ga	1	right
6.6.1	win	2023-07-10	16:15:43	0	0	6237ca974050879378c8fea8	2	1	DL_test	13	DL_test	16			0		ta	1	1369	6	2	antiphase_hc_ios.wav	3	6	2	noise_calib_stim_LEFT.wav	1	6	blb_dichoticlistening_ba-ta.mp3	ba	ta	1	right
6.6.1	win	2023-07-10	16:15:43	0	0	6237ca974050879378c8fea8	2	1	DL_test	13	DL_test	17			0		pa	1	1047	6	2	antiphase_hc_ios.wav	3	6	2	noise_calib_stim_LEFT.wav	1	23	blb_dichoticlistening_ka-pa.mp3	ka	pa	1	right
6.6.1	win	2023-07-10	16:15:43	0	0	6237ca974050879378c8fea8	2	1	DL_test	13	DL_test	18			0		ba	1	1480	6	2	antiphase_hc_ios.wav	3	6	2	noise_calib_stim_LEFT.wav	1	25	blb_dichoticlistening_pa-ba.mp3	pa	ba	1	right
6.6.1	win	2023-07-10	16:15:43	0	0	6237ca974050879378c8fea8	2	1	DL_test	13	DL_test	19			0		da	1	1480	6	2	antiphase_hc_ios.wav	3	6	2	noise_calib_stim_LEFT.wav	1	7	blb_dichoticlistening_da-ba.mp3	da	ba	1	left
6.6.1	win	2023-07-10	16:15:43	0	0	6237ca974050879378c8fea8	2	1	DL_test	13	DL_test	20			0		ta	1	1311	6	2	antiphase_hc_ios.wav	3	6	2	noise_calib_stim_LEFT.wav	1	30	blb_dichoticlistening_pa-ta.mp3	pa	ta	1	right
6.6.1	win	2023-07-10	16:15:43	0	0	6237ca974050879378c8fea8	2	1	DL_test	13	DL_test	21			0		pa	1	1043	6	2	antiphase_hc_ios.wav	3	6	2	noise_calib_stim_LEFT.wav	1	5	blb_dichoticlistening_ba-pa.mp3	ba	pa	1	right
6.6.1	win	2023-07-10	16:15:43	0	0	6237ca974050879378c8fea8	2	1	DL_test	13	DL_test	22			0		ka	1	952	6	2	antiphase_hc_ios.wav	3	6	2	noise_calib_stim_LEFT.wav	1	24	blb_dichoticlistening_ka-ta.mp3	ka	ta	1	left
6.6.1	win	2023-07-10	16:15:43	0	0	6237ca974050879378c8fea8	2	1	DL_test	13	DL_test	23			0		ga	1	845	6	2	antiphase_hc_ios.wav	3	6	2	noise_calib_stim_LEFT.wav	1	27	blb_dichoticlistening_pa-ga.mp3	pa	ga	1	right
6.6.1	win	2023-07-10	16:15:43	0	0	6237ca974050879378c8fea8	2	1	DL_test	13	DL_test	24			0		pa	0	952	6	2	antiphase_hc_ios.wav	3	6	2	noise_calib_stim_LEFT.wav	1	10	blb_dichoticlistening_da-ka.mp3	da	ka	1	other
6.6.1	win	2023-07-10	16:15:43	0	0	6237ca974050879378c8fea8	2	1	DL_test	13	DL_test	25			0		ba	1	1311	6	2	antiphase_hc_ios.wav	3	6	2	noise_calib_stim_LEFT.wav	1	31	blb_dichoticlistening_ta-ba.mp3	ta	ba	1	right
6.6.1	win	2023-07-10	16:15:43	0	0	6237ca974050879378c8fea8	2	1	DL_test	13	DL_test	26			0		ga	1	1094	6	2	antiphase_hc_ios.wav	3	6	2	noise_calib_stim_LEFT.wav	1	18	blb_dichoticlistening_ga-ta.mp3	ga	ta	1	left
6.6.1	win	2023-07-10	16:15:43	0	0	6237ca974050879378c8fea8	2	1	DL_test	13	DL_test	27			0		da	1	1828	6	2	antiphase_hc_ios.wav	3	6	2	noise_calib_stim_LEFT.wav	1	12	blb_dichoticlistening_da-ta.mp3	da	ta	1	left
6.6.1	win	2023-07-10	16:15:43	0	0	6237ca974050879378c8fea8	2	1	DL_test	13	DL_test	28			0		da	1	1050	6	2	antiphase_hc_ios.wav	3	6	2	noise_calib_stim_LEFT.wav	1	11	blb_dichoticlistening_da-pa.mp3	da	pa	1	left
6.6.1	win	2023-07-10	16:15:43	0	0	6237ca974050879378c8fea8	2	1	DL_test	13	DL_test	29			0		ka	1	1124	6	2	antiphase_hc_ios.wav	3	6	2	noise_calib_stim_LEFT.wav	1	20	blb_dichoticlistening_ka-da.mp3	ka	da	1	left
6.6.1	win	2023-07-10	16:15:43	0	0	6237ca974050879378c8fea8	2	1	DL_test	13	DL_test	30			0		ta	1	1592	6	2	antiphase_hc_ios.wav	3	6	2	noise_calib_stim_LEFT.wav	1	36	blb_dichoticlistening_ta-ta.mp3	ta	ta	0	left
6.6.1	win	2023-07-10	16:15:43	0	0	6237ca974050879378c8fea8	2	1	DL_test	13	DL_test	31			0		ka	1	2231	6	2	antiphase_hc_ios.wav	3	6	2	noise_calib_stim_LEFT.wav	1	19	blb_dichoticlistening_ka-ba.mp3	ka	ba	1	left
6.6.1	win	2023-07-10	16:15:43	0	0	6237ca974050879378c8fea8	2	1	DL_test	13	DL_test	32			0		da	1	2578	6	2	antiphase_hc_ios.wav	3	6	2	noise_calib_stim_LEFT.wav	1	2	blb_dichoticlistening_ba-da.mp3	ba	da	1	right
6.6.1	win	2023-07-10	16:15:43	0	0	6237ca974050879378c8fea8	2	1	DL_test	13	DL_test	33			0		ba	1	1041	6	2	antiphase_hc_ios.wav	3	6	2	noise_calib_stim_LEFT.wav	1	13	blb_dichoticlistening_ga-ba.mp3	ga	ba	1	right
6.6.1	win	2023-07-10	16:15:43	0	0	6237ca974050879378c8fea8	2	1	DL_test	13	DL_test	34			0		ka	1	824	6	2	antiphase_hc_ios.wav	3	6	2	noise_calib_stim_LEFT.wav	1	28	blb_dichoticlistening_pa-ka.mp3	pa	ka	1	right
6.6.1	win	2023-07-10	16:15:43	0	0	6237ca974050879378c8fea8	2	1	DL_test	13	DL_test	35			0		ta	1	1626	6	2	antiphase_hc_ios.wav	3	6	2	noise_calib_stim_LEFT.wav	1	33	blb_dichoticlistening_ta-ga.mp3	ta	ga	1	left
6.6.1	win	2023-07-10	16:15:43	0	0	6237ca974050879378c8fea8	2	1	DL_test	13	DL_test	36			0		ga	1	794	6	2	antiphase_hc_ios.wav	3	6	2	noise_calib_stim_LEFT.wav	1	15	blb_dichoticlistening_ga-ga.mp3	ga	ga	0	left
6.6.1	win	2023-07-10	16:15:43	0	0	6237ca974050879378c8fea8	2	1	DL_test	14	DL_test	1			0		ga	1	1481	6	2	antiphase_hc_ios.wav	3	6	2	noise_calib_stim_LEFT.wav	1	33	blb_dichoticlistening_ta-ga.mp3	ta	ga	1	right
6.6.1	win	2023-07-10	16:15:43	0	0	6237ca974050879378c8fea8	2	1	DL_test	14	DL_test	2			0		pa	1	1662	6	2	antiphase_hc_ios.wav	3	6	2	noise_calib_stim_LEFT.wav	1	29	blb_dichoticlistening_pa-pa.mp3	pa	pa	0	left
6.6.1	win	2023-07-10	16:15:43	0	0	6237ca974050879378c8fea8	2	1	DL_test	14	DL_test	3			0		ba	0	1796	6	2	antiphase_hc_ios.wav	3	6	2	noise_calib_stim_LEFT.wav	1	17	blb_dichoticlistening_ga-pa.mp3	ga	pa	1	other
6.6.1	win	2023-07-10	16:15:43	0	0	6237ca974050879378c8fea8	2	1	DL_test	14	DL_test	4			0		ba	1	1147	6	2	antiphase_hc_ios.wav	3	6	2	noise_calib_stim_LEFT.wav	1	13	blb_dichoticlistening_ga-ba.mp3	ga	ba	1	right
6.6.1	win	2023-07-10	16:15:43	0	0	6237ca974050879378c8fea8	2	1	DL_test	14	DL_test	5			0		ta	1	1063	6	2	antiphase_hc_ios.wav	3	6	2	noise_calib_stim_LEFT.wav	1	6	blb_dichoticlistening_ba-ta.mp3	ba	ta	1	right
6.6.1	win	2023-07-10	16:15:43	0	0	6237ca974050879378c8fea8	2	1	DL_test	14	DL_test	6			0		ga	1	1095	6	2	antiphase_hc_ios.wav	3	6	2	noise_calib_stim_LEFT.wav	1	15	blb_dichoticlistening_ga-ga.mp3	ga	ga	0	left
6.6.1	win	2023-07-10	16:15:43	0	0	6237ca974050879378c8fea8	2	1	DL_test	14	DL_test	7			0		pa	1	983	6	2	antiphase_hc_ios.wav	3	6	2	noise_calib_stim_LEFT.wav	1	23	blb_dichoticlistening_ka-pa.mp3	ka	pa	1	right
6.6.1	win	2023-07-10	16:15:43	0	0	6237ca974050879378c8fea8	2	1	DL_test	14	DL_test	8			0		da	1	1063	6	2	antiphase_hc_ios.wav	3	6	2	noise_calib_stim_LEFT.wav	1	8	blb_dichoticlistening_da-da.mp3	da	da	0	left
6.6.1	win	2023-07-10	16:15:43	0	0	6237ca974050879378c8fea8	2	1	DL_test	14	DL_test	9			0		ga	1	903	6	2	antiphase_hc_ios.wav	3	6	2	noise_calib_stim_LEFT.wav	1	3	blb_dichoticlistening_ba-ga.mp3	ba	ga	1	right
6.6.1	win	2023-07-10	16:15:43	0	0	6237ca974050879378c8fea8	2	1	DL_test	14	DL_test	10			0		ta	1	970	6	2	antiphase_hc_ios.wav	3	6	2	noise_calib_stim_LEFT.wav	1	12	blb_dichoticlistening_da-ta.mp3	da	ta	1	right
6.6.1	win	2023-07-10	16:15:43	0	0	6237ca974050879378c8fea8	2	1	DL_test	14	DL_test	11			0		ba	1	1013	6	2	antiphase_hc_ios.wav	3	6	2	noise_calib_stim_LEFT.wav	1	7	blb_dichoticlistening_da-ba.mp3	da	ba	1	right
6.6.1	win	2023-07-10	16:15:43	0	0	6237ca974050879378c8fea8	2	1	DL_test	14	DL_test	12			0		ga	1	1239	6	2	antiphase_hc_ios.wav	3	6	2	noise_calib_stim_LEFT.wav	1	21	blb_dichoticlistening_ka-ga.mp3	ka	ga	1	right
6.6.1	win	2023-07-10	16:15:43	0	0	6237ca974050879378c8fea8	2	1	DL_test	14	DL_test	13			0		da	1	815	6	2	antiphase_hc_ios.wav	3	6	2	noise_calib_stim_LEFT.wav	1	9	blb_dichoticlistening_da-ga.mp3	da	ga	1	left
6.6.1	win	2023-07-10	16:15:43	0	0	6237ca974050879378c8fea8	2	1	DL_test	14	DL_test	14			0		pa	1	851	6	2	antiphase_hc_ios.wav	3	6	2	noise_calib_stim_LEFT.wav	1	26	blb_dichoticlistening_pa-da.mp3	pa	da	1	left
6.6.1	win	2023-07-10	16:15:43	0	0	6237ca974050879378c8fea8	2	1	DL_test	14	DL_test	15			0		ta	1	1134	6	2	antiphase_hc_ios.wav	3	6	2	noise_calib_stim_LEFT.wav	1	36	blb_dichoticlistening_ta-ta.mp3	ta	ta	0	left
6.6.1	win	2023-07-10	16:15:43	0	0	6237ca974050879378c8fea8	2	1	DL_test	14	DL_test	16			0		ga	0	1095	6	2	antiphase_hc_ios.wav	3	6	2	noise_calib_stim_LEFT.wav	1	20	blb_dichoticlistening_ka-da.mp3	ka	da	1	other
6.6.1	win	2023-07-10	16:15:43	0	0	6237ca974050879378c8fea8	2	1	DL_test	14	DL_test	17			0		ka	1	967	6	2	antiphase_hc_ios.wav	3	6	2	noise_calib_stim_LEFT.wav	1	28	blb_dichoticlistening_pa-ka.mp3	pa	ka	1	right
6.6.1	win	2023-07-10	16:15:43	0	0	6237ca974050879378c8fea8	2	1	DL_test	14	DL_test	18			0		ka	1	872	6	2	antiphase_hc_ios.wav	3	6	2	noise_calib_stim_LEFT.wav	1	24	blb_dichoticlistening_ka-ta.mp3	ka	ta	1	left
6.6.1	win	2023-07-10	16:15:43	0	0	6237ca974050879378c8fea8	2	1	DL_test	14	DL_test	19			0		ta	1	998	6	2	antiphase_hc_ios.wav	3	6	2	noise_calib_stim_LEFT.wav	1	35	blb_dichoticlistening_ta-pa.mp3	ta	pa	1	left
6.6.1	win	2023-07-10	16:15:43	0	0	6237ca974050879378c8fea8	2	1	DL_test	14	DL_test	20			0		da	1	946	6	2	antiphase_hc_ios.wav	3	6	2	noise_calib_stim_LEFT.wav	1	32	blb_dichoticlistening_ta-da.mp3	ta	da	1	right
6.6.1	win	2023-07-10	16:15:43	0	0	6237ca974050879378c8fea8	2	1	DL_test	14	DL_test	21			0		ka	1	1384	6	2	antiphase_hc_ios.wav	3	6	2	noise_calib_stim_LEFT.wav	1	34	blb_dichoticlistening_ta-ka.mp3	ta	ka	1	right
6.6.1	win	2023-07-10	16:15:43	0	0	6237ca974050879378c8fea8	2	1	DL_test	14	DL_test	22			0		ka	1	1124	6	2	antiphase_hc_ios.wav	3	6	2	noise_calib_stim_LEFT.wav	1	22	blb_dichoticlistening_ka-ka.mp3	ka	ka	0	left
6.6.1	win	2023-07-10	16:15:43	0	0	6237ca974050879378c8fea8	2	1	DL_test	14	DL_test	23			0		da	0	1125	6	2	antiphase_hc_ios.wav	3	6	2	noise_calib_stim_LEFT.wav	1	1	blb_dichoticlistening_ba-ba.mp3	ba	ba	0	other
6.6.1	win	2023-07-10	16:15:43	0	0	6237ca974050879378c8fea8	2	1	DL_test	14	DL_test	24			0		da	1	1787	6	2	antiphase_hc_ios.wav	3	6	2	noise_calib_stim_LEFT.wav	1	10	blb_dichoticlistening_da-ka.mp3	da	ka	1	left
6.6.1	win	2023-07-10	16:15:43	0	0	6237ca974050879378c8fea8	2	1	DL_test	14	DL_test	25			0		ka	1	772	6	2	antiphase_hc_ios.wav	3	6	2	noise_calib_stim_LEFT.wav	1	16	blb_dichoticlistening_ga-ka.mp3	ga	ka	1	right
6.6.1	win	2023-07-10	16:15:43	0	0	6237ca974050879378c8fea8	2	1	DL_test	14	DL_test	26			0		ga	1	1064	6	2	antiphase_hc_ios.wav	3	6	2	noise_calib_stim_LEFT.wav	1	14	blb_dichoticlistening_ga-da.mp3	ga	da	1	left
6.6.1	win	2023-07-10	16:15:43	0	0	6237ca974050879378c8fea8	2	1	DL_test	14	DL_test	27			0		pa	1	2796	6	2	antiphase_hc_ios.wav	3	6	2	noise_calib_stim_LEFT.wav	1	27	blb_dichoticlistening_pa-ga.mp3	pa	ga	1	left
6.6.1	win	2023-07-10	16:15:43	0	0	6237ca974050879378c8fea8	2	1	DL_test	14	DL_test	28			0		pa	1	1072	6	2	antiphase_hc_ios.wav	3	6	2	noise_calib_stim_LEFT.wav	1	25	blb_dichoticlistening_pa-ba.mp3	pa	ba	1	left
6.6.1	win	2023-07-10	16:15:43	0	0	6237ca974050879378c8fea8	2	1	DL_test	14	DL_test	29			0		ga	1	764	6	2	antiphase_hc_ios.wav	3	6	2	noise_calib_stim_LEFT.wav	1	18	blb_dichoticlistening_ga-ta.mp3	ga	ta	1	left
6.6.1	win	2023-07-10	16:15:43	0	0	6237ca974050879378c8fea8	2	1	DL_test	14	DL_test	30			0		ba	1	2779	6	2	antiphase_hc_ios.wav	3	6	2	noise_calib_stim_LEFT.wav	1	2	blb_dichoticlistening_ba-da.mp3	ba	da	1	left
6.6.1	win	2023-07-10	16:15:43	0	0	6237ca974050879378c8fea8	2	1	DL_test	14	DL_test	31			0		ka	1	1046	6	2	antiphase_hc_ios.wav	3	6	2	noise_calib_stim_LEFT.wav	1	19	blb_dichoticlistening_ka-ba.mp3	ka	ba	1	left
6.6.1	win	2023-07-10	16:15:43	0	0	6237ca974050879378c8fea8	2	1	DL_test	14	DL_test	32			0		pa	1	973	6	2	antiphase_hc_ios.wav	3	6	2	noise_calib_stim_LEFT.wav	1	5	blb_dichoticlistening_ba-pa.mp3	ba	pa	1	right
6.6.1	win	2023-07-10	16:15:43	0	0	6237ca974050879378c8fea8	2	1	DL_test	14	DL_test	33			0		ta	1	1165	6	2	antiphase_hc_ios.wav	3	6	2	noise_calib_stim_LEFT.wav	1	30	blb_dichoticlistening_pa-ta.mp3	pa	ta	1	right
6.6.1	win	2023-07-10	16:15:43	0	0	6237ca974050879378c8fea8	2	1	DL_test	14	DL_test	34			0		da	1	1249	6	2	antiphase_hc_ios.wav	3	6	2	noise_calib_stim_LEFT.wav	1	11	blb_dichoticlistening_da-pa.mp3	da	pa	1	left
6.6.1	win	2023-07-10	16:15:43	0	0	6237ca974050879378c8fea8	2	1	DL_test	14	DL_test	35			0		ta	1	2331	6	2	antiphase_hc_ios.wav	3	6	2	noise_calib_stim_LEFT.wav	1	31	blb_dichoticlistening_ta-ba.mp3	ta	ba	1	left
6.6.1	win	2023-07-10	16:15:43	0	0	6237ca974050879378c8fea8	2	1	DL_test	14	DL_test	36			0		ka	1	674	6	2	antiphase_hc_ios.wav	3	6	2	noise_calib_stim_LEFT.wav	1	4	blb_dichoticlistening_ba-ka.mp3	ba	ka	1	right
6.6.1	win	2023-07-10	16:15:43	0	0	6237ca974050879378c8fea8	2	1	DL_test	15	DL_test	1			0		da	1	1060	6	2	antiphase_hc_ios.wav	3	6	2	noise_calib_stim_LEFT.wav	1	2	blb_dichoticlistening_ba-da.mp3	ba	da	1	right
6.6.1	win	2023-07-10	16:15:43	0	0	6237ca974050879378c8fea8	2	1	DL_test	15	DL_test	2			0		ga	1	689	6	2	antiphase_hc_ios.wav	3	6	2	noise_calib_stim_LEFT.wav	1	9	blb_dichoticlistening_da-ga.mp3	da	ga	1	right
6.6.1	win	2023-07-10	16:15:43	0	0	6237ca974050879378c8fea8	2	1	DL_test	15	DL_test	3			0		ka	1	686	6	2	antiphase_hc_ios.wav	3	6	2	noise_calib_stim_LEFT.wav	1	22	blb_dichoticlistening_ka-ka.mp3	ka	ka	0	left
6.6.1	win	2023-07-10	16:15:43	0	0	6237ca974050879378c8fea8	2	1	DL_test	15	DL_test	4			0		ba	1	1315	6	2	antiphase_hc_ios.wav	3	6	2	noise_calib_stim_LEFT.wav	1	19	blb_dichoticlistening_ka-ba.mp3	ka	ba	1	right
6.6.1	win	2023-07-10	16:15:43	0	0	6237ca974050879378c8fea8	2	1	DL_test	15	DL_test	5			0		ka	1	829	6	2	antiphase_hc_ios.wav	3	6	2	noise_calib_stim_LEFT.wav	1	16	blb_dichoticlistening_ga-ka.mp3	ga	ka	1	right
6.6.1	win	2023-07-10	16:15:43	0	0	6237ca974050879378c8fea8	2	1	DL_test	15	DL_test	6			0		ga	1	702	6	2	antiphase_hc_ios.wav	3	6	2	noise_calib_stim_LEFT.wav	1	15	blb_dichoticlistening_ga-ga.mp3	ga	ga	0	left
6.6.1	win	2023-07-10	16:15:43	0	0	6237ca974050879378c8fea8	2	1	DL_test	15	DL_test	7			0		ka	1	697	6	2	antiphase_hc_ios.wav	3	6	2	noise_calib_stim_LEFT.wav	1	24	blb_dichoticlistening_ka-ta.mp3	ka	ta	1	left
6.6.1	win	2023-07-10	16:15:43	0	0	6237ca974050879378c8fea8	2	1	DL_test	15	DL_test	8			0		ka	0	847	6	2	antiphase_hc_ios.wav	3	6	2	noise_calib_stim_LEFT.wav	1	18	blb_dichoticlistening_ga-ta.mp3	ga	ta	1	other
6.6.1	win	2023-07-10	16:15:43	0	0	6237ca974050879378c8fea8	2	1	DL_test	15	DL_test	9			0		ba	1	1218	6	2	antiphase_hc_ios.wav	3	6	2	noise_calib_stim_LEFT.wav	1	31	blb_dichoticlistening_ta-ba.mp3	ta	ba	1	right
6.6.1	win	2023-07-10	16:15:43	0	0	6237ca974050879378c8fea8	2	1	DL_test	15	DL_test	10			0		ga	1	742	6	2	antiphase_hc_ios.wav	3	6	2	noise_calib_stim_LEFT.wav	1	21	blb_dichoticlistening_ka-ga.mp3	ka	ga	1	right
6.6.1	win	2023-07-10	16:15:43	0	0	6237ca974050879378c8fea8	2	1	DL_test	15	DL_test	11			0		ta	1	1289	6	2	antiphase_hc_ios.wav	3	6	2	noise_calib_stim_LEFT.wav	1	12	blb_dichoticlistening_da-ta.mp3	da	ta	1	right
6.6.1	win	2023-07-10	16:15:43	0	0	6237ca974050879378c8fea8	2	1	DL_test	15	DL_test	12			0		ta	1	854	6	2	antiphase_hc_ios.wav	3	6	2	noise_calib_stim_LEFT.wav	1	36	blb_dichoticlistening_ta-ta.mp3	ta	ta	0	left
6.6.1	win	2023-07-10	16:15:43	0	0	6237ca974050879378c8fea8	2	1	DL_test	15	DL_test	13			0		pa	0	821	6	2	antiphase_hc_ios.wav	3	6	2	noise_calib_stim_LEFT.wav	1	10	blb_dichoticlistening_da-ka.mp3	da	ka	1	other
6.6.1	win	2023-07-10	16:15:43	0	0	6237ca974050879378c8fea8	2	1	DL_test	15	DL_test	14			0		da	1	756	6	2	antiphase_hc_ios.wav	3	6	2	noise_calib_stim_LEFT.wav	1	8	blb_dichoticlistening_da-da.mp3	da	da	0	left
6.6.1	win	2023-07-10	16:15:43	0	0	6237ca974050879378c8fea8	2	1	DL_test	15	DL_test	15			0		pa	1	1419	6	2	antiphase_hc_ios.wav	3	6	2	noise_calib_stim_LEFT.wav	1	23	blb_dichoticlistening_ka-pa.mp3	ka	pa	1	right
6.6.1	win	2023-07-10	16:15:43	0	0	6237ca974050879378c8fea8	2	1	DL_test	15	DL_test	16			0		pa	1	693	6	2	antiphase_hc_ios.wav	3	6	2	noise_calib_stim_LEFT.wav	1	17	blb_dichoticlistening_ga-pa.mp3	ga	pa	1	right
6.6.1	win	2023-07-10	16:15:43	0	0	6237ca974050879378c8fea8	2	1	DL_test	15	DL_test	17			0		ka	1	729	6	2	antiphase_hc_ios.wav	3	6	2	noise_calib_stim_LEFT.wav	1	28	blb_dichoticlistening_pa-ka.mp3	pa	ka	1	right
6.6.1	win	2023-07-10	16:15:43	0	0	6237ca974050879378c8fea8	2	1	DL_test	15	DL_test	18			0		pa	1	1351	6	2	antiphase_hc_ios.wav	3	6	2	noise_calib_stim_LEFT.wav	1	26	blb_dichoticlistening_pa-da.mp3	pa	da	1	left
6.6.1	win	2023-07-10	16:15:43	0	0	6237ca974050879378c8fea8	2	1	DL_test	15	DL_test	19			0		ga	1	955	6	2	antiphase_hc_ios.wav	3	6	2	noise_calib_stim_LEFT.wav	1	27	blb_dichoticlistening_pa-ga.mp3	pa	ga	1	right
6.6.1	win	2023-07-10	16:15:43	0	0	6237ca974050879378c8fea8	2	1	DL_test	15	DL_test	20			0		ta	1	1491	6	2	antiphase_hc_ios.wav	3	6	2	noise_calib_stim_LEFT.wav	1	34	blb_dichoticlistening_ta-ka.mp3	ta	ka	1	left
6.6.1	win	2023-07-10	16:15:43	0	0	6237ca974050879378c8fea8	2	1	DL_test	15	DL_test	21			0		da	1	1167	6	2	antiphase_hc_ios.wav	3	6	2	noise_calib_stim_LEFT.wav	1	11	blb_dichoticlistening_da-pa.mp3	da	pa	1	left
6.6.1	win	2023-07-10	16:15:43	0	0	6237ca974050879378c8fea8	2	1	DL_test	15	DL_test	22			0		ta	1	1236	6	2	antiphase_hc_ios.wav	3	6	2	noise_calib_stim_LEFT.wav	1	32	blb_dichoticlistening_ta-da.mp3	ta	da	1	left
6.6.1	win	2023-07-10	16:15:43	0	0	6237ca974050879378c8fea8	2	1	DL_test	15	DL_test	23			0		ba	1	1010	6	2	antiphase_hc_ios.wav	3	6	2	noise_calib_stim_LEFT.wav	1	6	blb_dichoticlistening_ba-ta.mp3	ba	ta	1	left
6.6.1	win	2023-07-10	16:15:43	0	0	6237ca974050879378c8fea8	2	1	DL_test	15	DL_test	24			0		ba	1	830	6	2	antiphase_hc_ios.wav	3	6	2	noise_calib_stim_LEFT.wav	1	3	blb_dichoticlistening_ba-ga.mp3	ba	ga	1	left
6.6.1	win	2023-07-10	16:15:43	0	0	6237ca974050879378c8fea8	2	1	DL_test	15	DL_test	25			0		ba	1	956	6	2	antiphase_hc_ios.wav	3	6	2	noise_calib_stim_LEFT.wav	1	5	blb_dichoticlistening_ba-pa.mp3	ba	pa	1	left
6.6.1	win	2023-07-10	16:15:43	0	0	6237ca974050879378c8fea8	2	1	DL_test	15	DL_test	26			0		ta	1	1139	6	2	antiphase_hc_ios.wav	3	6	2	noise_calib_stim_LEFT.wav	1	35	blb_dichoticlistening_ta-pa.mp3	ta	pa	1	left
6.6.1	win	2023-07-10	16:15:43	0	0	6237ca974050879378c8fea8	2	1	DL_test	15	DL_test	27			0		ka	1	628	6	2	antiphase_hc_ios.wav	3	6	2	noise_calib_stim_LEFT.wav	1	4	blb_dichoticlistening_ba-ka.mp3	ba	ka	1	right
6.6.1	win	2023-07-10	16:15:43	0	0	6237ca974050879378c8fea8	2	1	DL_test	15	DL_test	28			0		pa	1	3181	6	2	antiphase_hc_ios.wav	3	6	2	noise_calib_stim_LEFT.wav	1	30	blb_dichoticlistening_pa-ta.mp3	pa	ta	1	left
6.6.1	win	2023-07-10	16:15:43	0	0	6237ca974050879378c8fea8	2	1	DL_test	15	DL_test	29			0		ba	1	1290	6	2	antiphase_hc_ios.wav	3	6	2	noise_calib_stim_LEFT.wav	1	1	blb_dichoticlistening_ba-ba.mp3	ba	ba	0	left
6.6.1	win	2023-07-10	16:15:43	0	0	6237ca974050879378c8fea8	2	1	DL_test	15	DL_test	30			0		ga	1	682	6	2	antiphase_hc_ios.wav	3	6	2	noise_calib_stim_LEFT.wav	1	14	blb_dichoticlistening_ga-da.mp3	ga	da	1	left
6.6.1	win	2023-07-10	16:15:43	0	0	6237ca974050879378c8fea8	2	1	DL_test	15	DL_test	31			0		pa	1	1097	6	2	antiphase_hc_ios.wav	3	6	2	noise_calib_stim_LEFT.wav	1	25	blb_dichoticlistening_pa-ba.mp3	pa	ba	1	left
6.6.1	win	2023-07-10	16:15:43	0	0	6237ca974050879378c8fea8	2	1	DL_test	15	DL_test	32			0		da	0	1364	6	2	antiphase_hc_ios.wav	3	6	2	noise_calib_stim_LEFT.wav	1	13	blb_dichoticlistening_ga-ba.mp3	ga	ba	1	other
6.6.1	win	2023-07-10	16:15:43	0	0	6237ca974050879378c8fea8	2	1	DL_test	15	DL_test	33			0		pa	1	1020	6	2	antiphase_hc_ios.wav	3	6	2	noise_calib_stim_LEFT.wav	1	29	blb_dichoticlistening_pa-pa.mp3	pa	pa	0	left
6.6.1	win	2023-07-10	16:15:43	0	0	6237ca974050879378c8fea8	2	1	DL_test	15	DL_test	34			0		da	1	1857	6	2	antiphase_hc_ios.wav	3	6	2	noise_calib_stim_LEFT.wav	1	7	blb_dichoticlistening_da-ba.mp3	da	ba	1	left
6.6.1	win	2023-07-10	16:15:43	0	0	6237ca974050879378c8fea8	2	1	DL_test	15	DL_test	35			0		ga	1	2071	6	2	antiphase_hc_ios.wav	3	6	2	noise_calib_stim_LEFT.wav	1	33	blb_dichoticlistening_ta-ga.mp3	ta	ga	1	right
6.6.1	win	2023-07-10	16:15:43	0	0	6237ca974050879378c8fea8	2	1	DL_test	15	DL_test	36			0		ka	1	914	6	2	antiphase_hc_ios.wav	3	6	2	noise_calib_stim_LEFT.wav	1	20	blb_dichoticlistening_ka-da.mp3	ka	da	1	left
6.6.1	win	2023-07-10	16:15:43	0	0	6237ca974050879378c8fea8	2	1	DL_test	16	DL_test	1			0		ba	1	2006	6	2	antiphase_hc_ios.wav	3	6	2	noise_calib_stim_LEFT.wav	1	31	blb_dichoticlistening_ta-ba.mp3	ta	ba	1	right
6.6.1	win	2023-07-10	16:15:43	0	0	6237ca974050879378c8fea8	2	1	DL_test	16	DL_test	2			0		pa	1	1254	6	2	antiphase_hc_ios.wav	3	6	2	noise_calib_stim_LEFT.wav	1	11	blb_dichoticlistening_da-pa.mp3	da	pa	1	right
6.6.1	win	2023-07-10	16:15:43	0	0	6237ca974050879378c8fea8	2	1	DL_test	16	DL_test	3			0		ga	1	1638	6	2	antiphase_hc_ios.wav	3	6	2	noise_calib_stim_LEFT.wav	1	17	blb_dichoticlistening_ga-pa.mp3	ga	pa	1	left
6.6.1	win	2023-07-10	16:15:43	0	0	6237ca974050879378c8fea8	2	1	DL_test	16	DL_test	4			0		ga	1	870	6	2	antiphase_hc_ios.wav	3	6	2	noise_calib_stim_LEFT.wav	1	18	blb_dichoticlistening_ga-ta.mp3	ga	ta	1	left
6.6.1	win	2023-07-10	16:15:43	0	0	6237ca974050879378c8fea8	2	1	DL_test	16	DL_test	5			0		ba	1	2039	6	2	antiphase_hc_ios.wav	3	6	2	noise_calib_stim_LEFT.wav	1	3	blb_dichoticlistening_ba-ga.mp3	ba	ga	1	left
6.6.1	win	2023-07-10	16:15:43	0	0	6237ca974050879378c8fea8	2	1	DL_test	16	DL_test	6			0		da	1	876	6	2	antiphase_hc_ios.wav	3	6	2	noise_calib_stim_LEFT.wav	1	8	blb_dichoticlistening_da-da.mp3	da	da	0	left
6.6.1	win	2023-07-10	16:15:43	0	0	6237ca974050879378c8fea8	2	1	DL_test	16	DL_test	7			0		pa	0	1343	6	2	antiphase_hc_ios.wav	3	6	2	noise_calib_stim_LEFT.wav	1	10	blb_dichoticlistening_da-ka.mp3	da	ka	1	other
6.6.1	win	2023-07-10	16:15:43	0	0	6237ca974050879378c8fea8	2	1	DL_test	16	DL_test	8			0		ga	1	890	6	2	antiphase_hc_ios.wav	3	6	2	noise_calib_stim_LEFT.wav	1	33	blb_dichoticlistening_ta-ga.mp3	ta	ga	1	right
6.6.1	win	2023-07-10	16:15:43	0	0	6237ca974050879378c8fea8	2	1	DL_test	16	DL_test	9			0		da	0	1023	6	2	antiphase_hc_ios.wav	3	6	2	noise_calib_stim_LEFT.wav	1	13	blb_dichoticlistening_ga-ba.mp3	ga	ba	1	other
6.6.1	win	2023-07-10	16:15:43	0	0	6237ca974050879378c8fea8	2	1	DL_test	16	DL_test	10			0		pa	1	1180	6	2	antiphase_hc_ios.wav	3	6	2	noise_calib_stim_LEFT.wav	1	5	blb_dichoticlistening_ba-pa.mp3	ba	pa	1	right
6.6.1	win	2023-07-10	16:15:43	0	0	6237ca974050879378c8fea8	2	1	DL_test	16	DL_test	11			0		ka	1	2392	6	2	antiphase_hc_ios.wav	3	6	2	noise_calib_stim_LEFT.wav	1	19	blb_dichoticlistening_ka-ba.mp3	ka	ba	1	left
6.6.1	win	2023-07-10	16:15:43	0	0	6237ca974050879378c8fea8	2	1	DL_test	16	DL_test	12			0		pa	1	1401	6	2	antiphase_hc_ios.wav	3	6	2	noise_calib_stim_LEFT.wav	1	23	blb_dichoticlistening_ka-pa.mp3	ka	pa	1	right
6.6.1	win	2023-07-10	16:15:43	0	0	6237ca974050879378c8fea8	2	1	DL_test	16	DL_test	13			0		da	1	1379	6	2	antiphase_hc_ios.wav	3	6	2	noise_calib_stim_LEFT.wav	1	7	blb_dichoticlistening_da-ba.mp3	da	ba	1	left
6.6.1	win	2023-07-10	16:15:43	0	0	6237ca974050879378c8fea8	2	1	DL_test	16	DL_test	14			0		pa	1	1170	6	2	antiphase_hc_ios.wav	3	6	2	noise_calib_stim_LEFT.wav	1	29	blb_dichoticlistening_pa-pa.mp3	pa	pa	0	left
6.6.1	win	2023-07-10	16:15:43	0	0	6237ca974050879378c8fea8	2	1	DL_test	16	DL_test	15			0		ga	1	1144	6	2	antiphase_hc_ios.wav	3	6	2	noise_calib_stim_LEFT.wav	1	9	blb_dichoticlistening_da-ga.mp3	da	ga	1	right
6.6.1	win	2023-07-10	16:15:43	0	0	6237ca974050879378c8fea8	2	1	DL_test	16	DL_test	16			0		pa	1	1091	6	2	antiphase_hc_ios.wav	3	6	2	noise_calib_stim_LEFT.wav	1	27	blb_dichoticlistening_pa-ga.mp3	pa	ga	1	left
6.6.1	win	2023-07-10	16:15:43	0	0	6237ca974050879378c8fea8	2	1	DL_test	16	DL_test	17			0		ta	1	1218	6	2	antiphase_hc_ios.wav	3	6	2	noise_calib_stim_LEFT.wav	1	6	blb_dichoticlistening_ba-ta.mp3	ba	ta	1	right
6.6.1	win	2023-07-10	16:15:43	0	0	6237ca974050879378c8fea8	2	1	DL_test	16	DL_test	18			0		ga	1	1070	6	2	antiphase_hc_ios.wav	3	6	2	noise_calib_stim_LEFT.wav	1	15	blb_dichoticlistening_ga-ga.mp3	ga	ga	0	left
6.6.1	win	2023-07-10	16:15:43	0	0	6237ca974050879378c8fea8	2	1	DL_test	16	DL_test	19			0		ta	1	1179	6	2	antiphase_hc_ios.wav	3	6	2	noise_calib_stim_LEFT.wav	1	12	blb_dichoticlistening_da-ta.mp3	da	ta	1	right
6.6.1	win	2023-07-10	16:15:43	0	0	6237ca974050879378c8fea8	2	1	DL_test	16	DL_test	20			0		ka	1	1468	6	2	antiphase_hc_ios.wav	3	6	2	noise_calib_stim_LEFT.wav	1	20	blb_dichoticlistening_ka-da.mp3	ka	da	1	left
6.6.1	win	2023-07-10	16:15:43	0	0	6237ca974050879378c8fea8	2	1	DL_test	16	DL_test	21			0		ga	1	1026	6	2	antiphase_hc_ios.wav	3	6	2	noise_calib_stim_LEFT.wav	1	16	blb_dichoticlistening_ga-ka.mp3	ga	ka	1	left
6.6.1	win	2023-07-10	16:15:43	0	0	6237ca974050879378c8fea8	2	1	DL_test	16	DL_test	22			0		ba	1	1187	6	2	antiphase_hc_ios.wav	3	6	2	noise_calib_stim_LEFT.wav	1	4	blb_dichoticlistening_ba-ka.mp3	ba	ka	1	left
6.6.1	win	2023-07-10	16:15:43	0	0	6237ca974050879378c8fea8	2	1	DL_test	16	DL_test	23			0		ka	1	1275	6	2	antiphase_hc_ios.wav	3	6	2	noise_calib_stim_LEFT.wav	1	21	blb_dichoticlistening_ka-ga.mp3	ka	ga	1	left
6.6.1	win	2023-07-10	16:15:43	0	0	6237ca974050879378c8fea8	2	1	DL_test	16	DL_test	24			0		ta	1	1092	6	2	antiphase_hc_ios.wav	3	6	2	noise_calib_stim_LEFT.wav	1	34	blb_dichoticlistening_ta-ka.mp3	ta	ka	1	left
6.6.1	win	2023-07-10	16:15:43	0	0	6237ca974050879378c8fea8	2	1	DL_test	16	DL_test	25			0		pa	1	1372	6	2	antiphase_hc_ios.wav	3	6	2	noise_calib_stim_LEFT.wav	1	25	blb_dichoticlistening_pa-ba.mp3	pa	ba	1	left
6.6.1	win	2023-07-10	16:15:43	0	0	6237ca974050879378c8fea8	2	1	DL_test	16	DL_test	26			0		da	1	1180	6	2	antiphase_hc_ios.wav	3	6	2	noise_calib_stim_LEFT.wav	1	14	blb_dichoticlistening_ga-da.mp3	ga	da	1	right
6.6.1	win	2023-07-10	16:15:43	0	0	6237ca974050879378c8fea8	2	1	DL_test	16	DL_test	27			0		ka	1	746	6	2	antiphase_hc_ios.wav	3	6	2	noise_calib_stim_LEFT.wav	1	24	blb_dichoticlistening_ka-ta.mp3	ka	ta	1	left
6.6.1	win	2023-07-10	16:15:43	0	0	6237ca974050879378c8fea8	2	1	DL_test	16	DL_test	28			0		ta	1	921	6	2	antiphase_hc_ios.wav	3	6	2	noise_calib_stim_LEFT.wav	1	30	blb_dichoticlistening_pa-ta.mp3	pa	ta	1	right
6.6.1	win	2023-07-10	16:15:43	0	0	6237ca974050879378c8fea8	2	1	DL_test	16	DL_test	29			0		ba	1	1503	6	2	antiphase_hc_ios.wav	3	6	2	noise_calib_stim_LEFT.wav	1	1	blb_dichoticlistening_ba-ba.mp3	ba	ba	0	left
6.6.1	win	2023-07-10	16:15:43	0	0	6237ca974050879378c8fea8	2	1	DL_test	16	DL_test	30			0		ka	1	631	6	2	antiphase_hc_ios.wav	3	6	2	noise_calib_stim_LEFT.wav	1	28	blb_dichoticlistening_pa-ka.mp3	pa	ka	1	right
6.6.1	win	2023-07-10	16:15:43	0	0	6237ca974050879378c8fea8	2	1	DL_test	16	DL_test	31			0		ta	1	1000	6	2	antiphase_hc_ios.wav	3	6	2	noise_calib_stim_LEFT.wav	1	35	blb_dichoticlistening_ta-pa.mp3	ta	pa	1	left
6.6.1	win	2023-07-10	16:15:43	0	0	6237ca974050879378c8fea8	2	1	DL_test	16	DL_test	32			0		da	1	1014	6	2	antiphase_hc_ios.wav	3	6	2	noise_calib_stim_LEFT.wav	1	32	blb_dichoticlistening_ta-da.mp3	ta	da	1	right
6.6.1	win	2023-07-10	16:15:43	0	0	6237ca974050879378c8fea8	2	1	DL_test	16	DL_test	33			0		da	1	1174	6	2	antiphase_hc_ios.wav	3	6	2	noise_calib_stim_LEFT.wav	1	26	blb_dichoticlistening_pa-da.mp3	pa	da	1	right
6.6.1	win	2023-07-10	16:15:43	0	0	6237ca974050879378c8fea8	2	1	DL_test	16	DL_test	34			0		ta	1	1179	6	2	antiphase_hc_ios.wav	3	6	2	noise_calib_stim_LEFT.wav	1	36	blb_dichoticlistening_ta-ta.mp3	ta	ta	0	left
6.6.1	win	2023-07-10	16:15:43	0	0	6237ca974050879378c8fea8	2	1	DL_test	16	DL_test	35			0		ba	1	1107	6	2	antiphase_hc_ios.wav	3	6	2	noise_calib_stim_LEFT.wav	1	2	blb_dichoticlistening_ba-da.mp3	ba	da	1	left
6.6.1	win	2023-07-10	16:15:43	0	0	6237ca974050879378c8fea8	2	1	DL_test	16	DL_test	36			0		ka	1	753	6	2	antiphase_hc_ios.wav	3	6	2	noise_calib_stim_LEFT.wav	1	22	blb_dichoticlistening_ka-ka.mp3	ka	ka	0	left
6.6.1	win	2023-07-10	16:15:43	16:33:29	1063656	6237ca974050879378c8fea8	2	1	practice_z	22	practice_z	1	stimuli_distractor_diamondtriangles.svg	stimuli_distractor_trianglediamonds.svg	14	no	44	0	1834	6	2	antiphase_hc_ios.wav	3	6	2	noise_calib_stim_LEFT.wav	1	22	blb_dichoticlistening_ka-ka.mp3	ka	ka	0	left
6.6.1	win	2023-07-10	16:15:43	16:33:29	1063656	6237ca974050879378c8fea8	2	1	practice_z	22	advance_on_keypress_ZEE	2	stimuli_distractor_diamondtriangles.svg	stimuli_distractor_trianglediamonds.svg	14	no	57	0	2791	6	2	antiphase_hc_ios.wav	3	6	2	noise_calib_stim_LEFT.wav	1	22	blb_dichoticlistening_ka-ka.mp3	ka	ka	0	left
6.6.1	win	2023-07-10	16:15:43	16:33:34	1069258	6237ca974050879378c8fea8	2	1	practice_z	22	practice_z	3	stimuli_distractor_diamondtriangles.svg	stimuli_target_trianglerectangles.svg	9	yes	44	1	1191	6	2	antiphase_hc_ios.wav	3	6	2	noise_calib_stim_LEFT.wav	1	22	blb_dichoticlistening_ka-ka.mp3	ka	ka	0	left
6.6.1	win	2023-07-10	16:15:43	16:33:34	1069258	6237ca974050879378c8fea8	2	1	practice_z	22	advance_on_keypress_ZEE	4	stimuli_distractor_diamondtriangles.svg	stimuli_target_trianglerectangles.svg	9	yes	57	0	438	6	2	antiphase_hc_ios.wav	3	6	2	noise_calib_stim_LEFT.wav	1	22	blb_dichoticlistening_ka-ka.mp3	ka	ka	0	left
6.6.1	win	2023-07-10	16:15:43	16:33:37	1072046	6237ca974050879378c8fea8	2	1	practice_z	22	practice_z	5	stimuli_distractor_diamondtriangles.svg	stimuli_target_rectangletriangles.svg	7	yes	44	1	709	6	2	antiphase_hc_ios.wav	3	6	2	noise_calib_stim_LEFT.wav	1	22	blb_dichoticlistening_ka-ka.mp3	ka	ka	0	left
6.6.1	win	2023-07-10	16:15:43	16:33:37	1072046	6237ca974050879378c8fea8	2	1	practice_z	22	advance_on_keypress_ZEE	6	stimuli_distractor_diamondtriangles.svg	stimuli_target_rectangletriangles.svg	7	yes	57	0	699	6	2	antiphase_hc_ios.wav	3	6	2	noise_calib_stim_LEFT.wav	1	22	blb_dichoticlistening_ka-ka.mp3	ka	ka	0	left
6.6.1	win	2023-07-10	16:15:43	16:33:42	1076396	6237ca974050879378c8fea8	2	1	practice_z	22	practice_z	7	stimuli_distractor_trianglediamonds.svg	stimuli_target_diamondrectangles.svg	12	yes	0	0	2000	6	2	antiphase_hc_ios.wav	3	6	2	noise_calib_stim_LEFT.wav	1	22	blb_dichoticlistening_ka-ka.mp3	ka	ka	0	left
6.6.1	win	2023-07-10	16:15:43	16:33:42	1076396	6237ca974050879378c8fea8	2	1	practice_z	22	advance_on_keypress_ZEE	8	stimuli_distractor_trianglediamonds.svg	stimuli_target_diamondrectangles.svg	12	yes	57	0	1028	6	2	antiphase_hc_ios.wav	3	6	2	noise_calib_stim_LEFT.wav	1	22	blb_dichoticlistening_ka-ka.mp3	ka	ka	0	left
6.6.1	win	2023-07-10	16:15:43	16:33:45	1079854	6237ca974050879378c8fea8	2	1	practice_z	22	practice_z	9	stimuli_distractor_trianglediamonds.svg	stimuli_target_rectanglediamonds.svg	10	yes	44	1	804	6	2	antiphase_hc_ios.wav	3	6	2	noise_calib_stim_LEFT.wav	1	22	blb_dichoticlistening_ka-ka.mp3	ka	ka	0	left
6.6.1	win	2023-07-10	16:15:43	16:33:45	1079854	6237ca974050879378c8fea8	2	1	practice_z	22	advance_on_keypress_ZEE	10	stimuli_distractor_trianglediamonds.svg	stimuli_target_rectanglediamonds.svg	10	yes	57	0	350	6	2	antiphase_hc_ios.wav	3	6	2	noise_calib_stim_LEFT.wav	1	22	blb_dichoticlistening_ka-ka.mp3	ka	ka	0	left
6.6.1	win	2023-07-10	16:15:43	16:33:48	1082500	6237ca974050879378c8fea8	2	1	practice_z	22	practice_z	11	stimuli_distractor_diamondtriangles.svg	stimuli_target_diamondrectangles.svg	8	yes	44	1	678	6	2	antiphase_hc_ios.wav	3	6	2	noise_calib_stim_LEFT.wav	1	22	blb_dichoticlistening_ka-ka.mp3	ka	ka	0	left
6.6.1	win	2023-07-10	16:15:43	16:33:48	1082500	6237ca974050879378c8fea8	2	1	practice_z	22	advance_on_keypress_ZEE	12	stimuli_distractor_diamondtriangles.svg	stimuli_target_diamondrectangles.svg	8	yes	57	0	773	6	2	antiphase_hc_ios.wav	3	6	2	noise_calib_stim_LEFT.wav	1	22	blb_dichoticlistening_ka-ka.mp3	ka	ka	0	left
6.6.1	win	2023-07-10	16:15:43	16:33:51	1085579	6237ca974050879378c8fea8	2	1	practice_z	22	practice_z	13	stimuli_target_rectanglediamonds.svg	stimuli_distractor_diamondtriangles.svg	1	yes	44	1	695	6	2	antiphase_hc_ios.wav	3	6	2	noise_calib_stim_LEFT.wav	1	22	blb_dichoticlistening_ka-ka.mp3	ka	ka	0	left
6.6.1	win	2023-07-10	16:15:43	16:33:51	1085579	6237ca974050879378c8fea8	2	1	practice_z	22	advance_on_keypress_ZEE	14	stimuli_target_rectanglediamonds.svg	stimuli_distractor_diamondtriangles.svg	1	yes	57	0	736	6	2	antiphase_hc_ios.wav	3	6	2	noise_calib_stim_LEFT.wav	1	22	blb_dichoticlistening_ka-ka.mp3	ka	ka	0	left
6.6.1	win	2023-07-10	16:15:43	16:33:54	1088714	6237ca974050879378c8fea8	2	1	practice_z	22	practice_z	15	stimuli_target_diamondsquares.svg	stimuli_distractor_diamondtriangles.svg	3	yes	44	1	750	6	2	antiphase_hc_ios.wav	3	6	2	noise_calib_stim_LEFT.wav	1	22	blb_dichoticlistening_ka-ka.mp3	ka	ka	0	left
6.6.1	win	2023-07-10	16:15:43	16:33:54	1088714	6237ca974050879378c8fea8	2	1	practice_z	22	advance_on_keypress_ZEE	16	stimuli_target_diamondsquares.svg	stimuli_distractor_diamondtriangles.svg	3	yes	57	0	434	6	2	antiphase_hc_ios.wav	3	6	2	noise_calib_stim_LEFT.wav	1	22	blb_dichoticlistening_ka-ka.mp3	ka	ka	0	left
6.6.1	win	2023-07-10	16:15:43	16:33:57	1091569	6237ca974050879378c8fea8	2	1	practice_z	22	practice_z	17	stimuli_target_squarediamonds.svg	stimuli_distractor_diamondtriangles.svg	2	yes	44	1	802	6	2	antiphase_hc_ios.wav	3	6	2	noise_calib_stim_LEFT.wav	1	22	blb_dichoticlistening_ka-ka.mp3	ka	ka	0	left
6.6.1	win	2023-07-10	16:15:43	16:33:57	1091569	6237ca974050879378c8fea8	2	1	practice_z	22	advance_on_keypress_ZEE	18	stimuli_target_squarediamonds.svg	stimuli_distractor_diamondtriangles.svg	2	yes	57	0	656	6	2	antiphase_hc_ios.wav	3	6	2	noise_calib_stim_LEFT.wav	1	22	blb_dichoticlistening_ka-ka.mp3	ka	ka	0	left
6.6.1	win	2023-07-10	16:15:43	16:34:01	1095842	6237ca974050879378c8fea8	2	1	practice_z	22	practice_z	19	stimuli_distractor_trianglediamonds.svg	stimuli_distractor_trianglediamonds.svg	15	no	0	1	2000	6	2	antiphase_hc_ios.wav	3	6	2	noise_calib_stim_LEFT.wav	1	22	blb_dichoticlistening_ka-ka.mp3	ka	ka	0	left
6.6.1	win	2023-07-10	16:15:43	16:34:01	1095842	6237ca974050879378c8fea8	2	1	practice_z	22	advance_on_keypress_ZEE	20	stimuli_distractor_trianglediamonds.svg	stimuli_distractor_trianglediamonds.svg	15	no	57	0	253	6	2	antiphase_hc_ios.wav	3	6	2	noise_calib_stim_LEFT.wav	1	22	blb_dichoticlistening_ka-ka.mp3	ka	ka	0	left
6.6.1	win	2023-07-10	16:15:43	16:34:05	1099709	6237ca974050879378c8fea8	2	1	practice_z	22	practice_z	21	stimuli_distractor_trianglediamonds.svg	stimuli_distractor_diamondtriangles.svg	16	no	0	1	2000	6	2	antiphase_hc_ios.wav	3	6	2	noise_calib_stim_LEFT.wav	1	22	blb_dichoticlistening_ka-ka.mp3	ka	ka	0	left
6.6.1	win	2023-07-10	16:15:43	16:34:05	1099709	6237ca974050879378c8fea8	2	1	practice_z	22	advance_on_keypress_ZEE	22	stimuli_distractor_trianglediamonds.svg	stimuli_distractor_diamondtriangles.svg	16	no	57	0	223	6	2	antiphase_hc_ios.wav	3	6	2	noise_calib_stim_LEFT.wav	1	22	blb_dichoticlistening_ka-ka.mp3	ka	ka	0	left
6.6.1	win	2023-07-10	16:15:43	16:34:08	1102334	6237ca974050879378c8fea8	2	1	practice_z	22	practice_z	23	stimuli_distractor_trianglediamonds.svg	stimuli_target_squarediamonds.svg	11	yes	44	1	788	6	2	antiphase_hc_ios.wav	3	6	2	noise_calib_stim_LEFT.wav	1	22	blb_dichoticlistening_ka-ka.mp3	ka	ka	0	left
6.6.1	win	2023-07-10	16:15:43	16:34:08	1102334	6237ca974050879378c8fea8	2	1	practice_z	22	advance_on_keypress_ZEE	24	stimuli_distractor_trianglediamonds.svg	stimuli_target_squarediamonds.svg	11	yes	57	0	311	6	2	antiphase_hc_ios.wav	3	6	2	noise_calib_stim_LEFT.wav	1	22	blb_dichoticlistening_ka-ka.mp3	ka	ka	0	left
6.6.1	win	2023-07-10	16:15:43	16:34:11	1106261	6237ca974050879378c8fea8	2	1	practice_z	22	practice_z	25	stimuli_distractor_diamondtriangles.svg	stimuli_distractor_diamondtriangles.svg	13	no	0	1	2000	6	2	antiphase_hc_ios.wav	3	6	2	noise_calib_stim_LEFT.wav	1	22	blb_dichoticlistening_ka-ka.mp3	ka	ka	0	left
6.6.1	win	2023-07-10	16:15:43	16:34:11	1106261	6237ca974050879378c8fea8	2	1	practice_z	22	advance_on_keypress_ZEE	26	stimuli_distractor_diamondtriangles.svg	stimuli_distractor_diamondtriangles.svg	13	no	57	0	197	6	2	antiphase_hc_ios.wav	3	6	2	noise_calib_stim_LEFT.wav	1	22	blb_dichoticlistening_ka-ka.mp3	ka	ka	0	left
6.6.1	win	2023-07-10	16:15:43	16:34:14	1108736	6237ca974050879378c8fea8	2	1	practice_z	22	practice_z	27	stimuli_target_diamondsquares.svg	stimuli_distractor_trianglediamonds.svg	6	yes	44	1	666	6	2	antiphase_hc_ios.wav	3	6	2	noise_calib_stim_LEFT.wav	1	22	blb_dichoticlistening_ka-ka.mp3	ka	ka	0	left
6.6.1	win	2023-07-10	16:15:43	16:34:14	1108736	6237ca974050879378c8fea8	2	1	practice_z	22	advance_on_keypress_ZEE	28	stimuli_target_diamondsquares.svg	stimuli_distractor_trianglediamonds.svg	6	yes	57	0	1382	6	2	antiphase_hc_ios.wav	3	6	2	noise_calib_stim_LEFT.wav	1	22	blb_dichoticlistening_ka-ka.mp3	ka	ka	0	left
6.6.1	win	2023-07-10	16:15:43	16:34:18	1112484	6237ca974050879378c8fea8	2	1	practice_z	22	practice_z	29	stimuli_target_rectanglediamonds.svg	stimuli_distractor_trianglediamonds.svg	4	yes	44	1	752	6	2	antiphase_hc_ios.wav	3	6	2	noise_calib_stim_LEFT.wav	1	22	blb_dichoticlistening_ka-ka.mp3	ka	ka	0	left
6.6.1	win	2023-07-10	16:15:43	16:34:18	1112484	6237ca974050879378c8fea8	2	1	practice_z	22	advance_on_keypress_ZEE	30	stimuli_target_rectanglediamonds.svg	stimuli_distractor_trianglediamonds.svg	4	yes	57	0	406	6	2	antiphase_hc_ios.wav	3	6	2	noise_calib_stim_LEFT.wav	1	22	blb_dichoticlistening_ka-ka.mp3	ka	ka	0	left
6.6.1	win	2023-07-10	16:15:43	16:34:20	1115089	6237ca974050879378c8fea8	2	1	practice_z	22	practice_z	31	stimuli_target_squarediamonds.svg	stimuli_distractor_trianglediamonds.svg	5	yes	44	1	583	6	2	antiphase_hc_ios.wav	3	6	2	noise_calib_stim_LEFT.wav	1	22	blb_dichoticlistening_ka-ka.mp3	ka	ka	0	left
6.6.1	win	2023-07-10	16:15:43	16:34:20	1115089	6237ca974050879378c8fea8	2	1	practice_z	22	advance_on_keypress_ZEE	32	stimuli_target_squarediamonds.svg	stimuli_distractor_trianglediamonds.svg	5	yes	57	0	280	6	2	antiphase_hc_ios.wav	3	6	2	noise_calib_stim_LEFT.wav	1	22	blb_dichoticlistening_ka-ka.mp3	ka	ka	0	left
6.6.1	win	2023-07-10	16:15:43	16:34:28	1122952	6237ca974050879378c8fea8	2	1	main_z	24	main_z	1	stimuli_distractor_trianglediamonds.svg	stimuli_distractor_diamondtriangles.svg	36	no	0	1	2000	6	2	antiphase_hc_ios.wav	3	6	2	noise_calib_stim_LEFT.wav	1	22	blb_dichoticlistening_ka-ka.mp3	ka	ka	0	left
6.6.1	win	2023-07-10	16:15:43	16:34:28	1122952	6237ca974050879378c8fea8	2	1	main_z	24	advance_on_keypress_ZEE	2	stimuli_distractor_trianglediamonds.svg	stimuli_distractor_diamondtriangles.svg	36	no	57	0	828	6	2	antiphase_hc_ios.wav	3	6	2	noise_calib_stim_LEFT.wav	1	22	blb_dichoticlistening_ka-ka.mp3	ka	ka	0	left
6.6.1	win	2023-07-10	16:15:43	16:34:30	1125181	6237ca974050879378c8fea8	2	1	main_z	24	main_z	3	stimuli_distractor_trianglediamonds.svg	stimuli_target_trianglesquares.svg	26	yes	44	1	765	6	2	antiphase_hc_ios.wav	3	6	2	noise_calib_stim_LEFT.wav	1	22	blb_dichoticlistening_ka-ka.mp3	ka	ka	0	left
6.6.1	win	2023-07-10	16:15:43	16:34:30	1125181	6237ca974050879378c8fea8	2	1	main_z	24	advance_on_keypress_ZEE	4	stimuli_distractor_trianglediamonds.svg	stimuli_target_trianglesquares.svg	26	yes	57	0	1366	6	2	antiphase_hc_ios.wav	3	6	2	noise_calib_stim_LEFT.wav	1	22	blb_dichoticlistening_ka-ka.mp3	ka	ka	0	left
6.6.1	win	2023-07-10	16:15:43	16:34:33	1127873	6237ca974050879378c8fea8	2	1	main_z	24	main_z	5	stimuli_target_rectangletriangles.svg	stimuli_distractor_trianglediamonds.svg	1	yes	44	1	713	6	2	antiphase_hc_ios.wav	3	6	2	noise_calib_stim_LEFT.wav	1	22	blb_dichoticlistening_ka-ka.mp3	ka	ka	0	left
6.6.1	win	2023-07-10	16:15:43	16:34:33	1127873	6237ca974050879378c8fea8	2	1	main_z	24	advance_on_keypress_ZEE	6	stimuli_target_rectangletriangles.svg	stimuli_distractor_trianglediamonds.svg	1	yes	57	0	610	6	2	antiphase_hc_ios.wav	3	6	2	noise_calib_stim_LEFT.wav	1	22	blb_dichoticlistening_ka-ka.mp3	ka	ka	0	left
6.6.1	win	2023-07-10	16:15:43	16:34:35	1129738	6237ca974050879378c8fea8	2	1	main_z	24	main_z	7	stimuli_distractor_trianglediamonds.svg	stimuli_target_squaretriangles.svg	11	yes	44	1	628	6	2	antiphase_hc_ios.wav	3	6	2	noise_calib_stim_LEFT.wav	1	22	blb_dichoticlistening_ka-ka.mp3	ka	ka	0	left
6.6.1	win	2023-07-10	16:15:43	16:34:35	1129738	6237ca974050879378c8fea8	2	1	main_z	24	advance_on_keypress_ZEE	8	stimuli_distractor_trianglediamonds.svg	stimuli_target_squaretriangles.svg	11	yes	57	0	502	6	2	antiphase_hc_ios.wav	3	6	2	noise_calib_stim_LEFT.wav	1	22	blb_dichoticlistening_ka-ka.mp3	ka	ka	0	left
6.6.1	win	2023-07-10	16:15:43	16:34:37	1131520	6237ca974050879378c8fea8	2	1	main_z	24	main_z	9	stimuli_distractor_diamondtriangles.svg	stimuli_target_squaretriangles.svg	15	yes	44	1	664	6	2	antiphase_hc_ios.wav	3	6	2	noise_calib_stim_LEFT.wav	1	22	blb_dichoticlistening_ka-ka.mp3	ka	ka	0	left
6.6.1	win	2023-07-10	16:15:43	16:34:37	1131520	6237ca974050879378c8fea8	2	1	main_z	24	advance_on_keypress_ZEE	10	stimuli_distractor_diamondtriangles.svg	stimuli_target_squaretriangles.svg	15	yes	57	0	520	6	2	antiphase_hc_ios.wav	3	6	2	noise_calib_stim_LEFT.wav	1	22	blb_dichoticlistening_ka-ka.mp3	ka	ka	0	left
6.6.1	win	2023-07-10	16:15:43	16:34:38	1133237	6237ca974050879378c8fea8	2	1	main_z	24	main_z	11	stimuli_target_squaretriangles.svg	stimuli_distractor_trianglediamonds.svg	3	yes	44	1	584	6	2	antiphase_hc_ios.wav	3	6	2	noise_calib_stim_LEFT.wav	1	22	blb_dichoticlistening_ka-ka.mp3	ka	ka	0	left
6.6.1	win	2023-07-10	16:15:43	16:34:38	1133237	6237ca974050879378c8fea8	2	1	main_z	24	advance_on_keypress_ZEE	12	stimuli_target_squaretriangles.svg	stimuli_distractor_trianglediamonds.svg	3	yes	57	0	440	6	2	antiphase_hc_ios.wav	3	6	2	noise_calib_stim_LEFT.wav	1	22	blb_dichoticlistening_ka-ka.mp3	ka	ka	0	left
6.6.1	win	2023-07-10	16:15:43	16:34:41	1135598	6237ca974050879378c8fea8	2	1	main_z	24	main_z	13	stimuli_distractor_trianglediamonds.svg	stimuli_target_trianglerectangles.svg	25	yes	44	1	1310	6	2	antiphase_hc_ios.wav	3	6	2	noise_calib_stim_LEFT.wav	1	22	blb_dichoticlistening_ka-ka.mp3	ka	ka	0	left
6.6.1	win	2023-07-10	16:15:43	16:34:41	1135598	6237ca974050879378c8fea8	2	1	main_z	24	advance_on_keypress_ZEE	14	stimuli_distractor_trianglediamonds.svg	stimuli_target_trianglerectangles.svg	25	yes	57	0	1276	6	2	antiphase_hc_ios.wav	3	6	2	noise_calib_stim_LEFT.wav	1	22	blb_dichoticlistening_ka-ka.mp3	ka	ka	0	left
6.6.1	win	2023-07-10	16:15:43	16:34:44	1138840	6237ca974050879378c8fea8	2	1	main_z	24	main_z	15	stimuli_target_trianglerectangles.svg	stimuli_distractor_diamondtriangles.svg	21	yes	44	1	1329	6	2	antiphase_hc_ios.wav	3	6	2	noise_calib_stim_LEFT.wav	1	22	blb_dichoticlistening_ka-ka.mp3	ka	ka	0	left
6.6.1	win	2023-07-10	16:15:43	16:34:44	1138840	6237ca974050879378c8fea8	2	1	main_z	24	advance_on_keypress_ZEE	16	stimuli_target_trianglerectangles.svg	stimuli_distractor_diamondtriangles.svg	21	yes	57	0	1152	6	2	antiphase_hc_ios.wav	3	6	2	noise_calib_stim_LEFT.wav	1	22	blb_dichoticlistening_ka-ka.mp3	ka	ka	0	left
6.6.1	win	2023-07-10	16:15:43	16:34:47	1141349	6237ca974050879378c8fea8	2	1	main_z	24	main_z	17	stimuli_distractor_trianglediamonds.svg	stimuli_target_rectanglediamonds.svg	10	yes	44	1	727	6	2	antiphase_hc_ios.wav	3	6	2	noise_calib_stim_LEFT.wav	1	22	blb_dichoticlistening_ka-ka.mp3	ka	ka	0	left
6.6.1	win	2023-07-10	16:15:43	16:34:47	1141349	6237ca974050879378c8fea8	2	1	main_z	24	advance_on_keypress_ZEE	18	stimuli_distractor_trianglediamonds.svg	stimuli_target_rectanglediamonds.svg	10	yes	57	0	402	6	2	antiphase_hc_ios.wav	3	6	2	noise_calib_stim_LEFT.wav	1	22	blb_dichoticlistening_ka-ka.mp3	ka	ka	0	left
6.6.1	win	2023-07-10	16:15:43	16:34:50	1144367	6237ca974050879378c8fea8	2	1	main_z	24	main_z	19	stimuli_target_trianglerectangles.svg	stimuli_distractor_trianglediamonds.svg	17	yes	0	0	2000	6	2	antiphase_hc_ios.wav	3	6	2	noise_calib_stim_LEFT.wav	1	22	blb_dichoticlistening_ka-ka.mp3	ka	ka	0	left
6.6.1	win	2023-07-10	16:15:43	16:34:50	1144367	6237ca974050879378c8fea8	2	1	main_z	24	advance_on_keypress_ZEE	20	stimuli_target_trianglerectangles.svg	stimuli_distractor_trianglediamonds.svg	17	yes	57	0	417	6	2	antiphase_hc_ios.wav	3	6	2	noise_calib_stim_LEFT.wav	1	22	blb_dichoticlistening_ka-ka.mp3	ka	ka	0	left
6.6.1	win	2023-07-10	16:15:43	16:34:52	1146385	6237ca974050879378c8fea8	2	1	main_z	24	main_z	21	stimuli_distractor_diamondtriangles.svg	stimuli_distractor_trianglediamonds.svg	38	no	44	0	990	6	2	antiphase_hc_ios.wav	3	6	2	noise_calib_stim_LEFT.wav	1	22	blb_dichoticlistening_ka-ka.mp3	ka	ka	0	left
6.6.1	win	2023-07-10	16:15:43	16:34:52	1146385	6237ca974050879378c8fea8	2	1	main_z	24	advance_on_keypress_ZEE	22	stimuli_distractor_diamondtriangles.svg	stimuli_distractor_trianglediamonds.svg	38	no	57	0	601	6	2	antiphase_hc_ios.wav	3	6	2	noise_calib_stim_LEFT.wav	1	22	blb_dichoticlistening_ka-ka.mp3	ka	ka	0	left
6.6.1	win	2023-07-10	16:15:43	16:34:54	1148436	6237ca974050879378c8fea8	2	1	main_z	24	main_z	23	stimuli_target_diamondrectangles.svg	stimuli_distractor_diamondtriangles.svg	23	yes	44	1	839	6	2	antiphase_hc_ios.wav	3	6	2	noise_calib_stim_LEFT.wav	1	22	blb_dichoticlistening_ka-ka.mp3	ka	ka	0	left
6.6.1	win	2023-07-10	16:15:43	16:34:54	1148436	6237ca974050879378c8fea8	2	1	main_z	24	advance_on_keypress_ZEE	24	stimuli_target_diamondrectangles.svg	stimuli_distractor_diamondtriangles.svg	23	yes	57	0	576	6	2	antiphase_hc_ios.wav	3	6	2	noise_calib_stim_LEFT.wav	1	22	blb_dichoticlistening_ka-ka.mp3	ka	ka	0	left
6.6.1	win	2023-07-10	16:15:43	16:34:56	1150531	6237ca974050879378c8fea8	2	1	main_z	24	main_z	25	stimuli_distractor_diamondtriangles.svg	stimuli_target_trianglerectangles.svg	29	yes	44	1	907	6	2	antiphase_hc_ios.wav	3	6	2	noise_calib_stim_LEFT.wav	1	22	blb_dichoticlistening_ka-ka.mp3	ka	ka	0	left
6.6.1	win	2023-07-10	16:15:43	16:34:56	1150531	6237ca974050879378c8fea8	2	1	main_z	24	advance_on_keypress_ZEE	26	stimuli_distractor_diamondtriangles.svg	stimuli_target_trianglerectangles.svg	29	yes	57	0	705	6	2	antiphase_hc_ios.wav	3	6	2	noise_calib_stim_LEFT.wav	1	22	blb_dichoticlistening_ka-ka.mp3	ka	ka	0	left
6.6.1	win	2023-07-10	16:15:43	16:34:58	1152657	6237ca974050879378c8fea8	2	1	main_z	24	main_z	27	stimuli_target_squaretriangles.svg	stimuli_distractor_diamondtriangles.svg	7	yes	44	1	809	6	2	antiphase_hc_ios.wav	3	6	2	noise_calib_stim_LEFT.wav	1	22	blb_dichoticlistening_ka-ka.mp3	ka	ka	0	left
6.6.1	win	2023-07-10	16:15:43	16:34:58	1152657	6237ca974050879378c8fea8	2	1	main_z	24	advance_on_keypress_ZEE	28	stimuli_target_squaretriangles.svg	stimuli_distractor_diamondtriangles.svg	7	yes	57	0	448	6	2	antiphase_hc_ios.wav	3	6	2	noise_calib_stim_LEFT.wav	1	22	blb_dichoticlistening_ka-ka.mp3	ka	ka	0	left
6.6.1	win	2023-07-10	16:15:43	16:35:01	1155716	6237ca974050879378c8fea8	2	1	main_z	24	main_z	29	stimuli_distractor_trianglediamonds.svg	stimuli_distractor_diamondtriangles.svg	35	no	0	1	2000	6	2	antiphase_hc_ios.wav	3	6	2	noise_calib_stim_LEFT.wav	1	22	blb_dichoticlistening_ka-ka.mp3	ka	ka	0	left
6.6.1	win	2023-07-10	16:15:43	16:35:01	1155716	6237ca974050879378c8fea8	2	1	main_z	24	advance_on_keypress_ZEE	30	stimuli_distractor_trianglediamonds.svg	stimuli_distractor_diamondtriangles.svg	35	no	57	0	383	6	2	antiphase_hc_ios.wav	3	6	2	noise_calib_stim_LEFT.wav	1	22	blb_dichoticlistening_ka-ka.mp3	ka	ka	0	left
6.6.1	win	2023-07-10	16:15:43	16:35:03	1157497	6237ca974050879378c8fea8	2	1	main_z	24	main_z	31	stimuli_target_squarediamonds.svg	stimuli_distractor_trianglediamonds.svg	4	yes	44	1	786	6	2	antiphase_hc_ios.wav	3	6	2	noise_calib_stim_LEFT.wav	1	22	blb_dichoticlistening_ka-ka.mp3	ka	ka	0	left
6.6.1	win	2023-07-10	16:15:43	16:35:03	1157497	6237ca974050879378c8fea8	2	1	main_z	24	advance_on_keypress_ZEE	32	stimuli_target_squarediamonds.svg	stimuli_distractor_trianglediamonds.svg	4	yes	57	0	1103	6	2	antiphase_hc_ios.wav	3	6	2	noise_calib_stim_LEFT.wav	1	22	blb_dichoticlistening_ka-ka.mp3	ka	ka	0	left
6.6.1	win	2023-07-10	16:15:43	16:35:06	1161213	6237ca974050879378c8fea8	2	1	main_z	24	main_z	33	stimuli_distractor_diamondtriangles.svg	stimuli_distractor_diamondtriangles.svg	40	no	0	1	2000	6	2	antiphase_hc_ios.wav	3	6	2	noise_calib_stim_LEFT.wav	1	22	blb_dichoticlistening_ka-ka.mp3	ka	ka	0	left
6.6.1	win	2023-07-10	16:15:43	16:35:06	1161213	6237ca974050879378c8fea8	2	1	main_z	24	advance_on_keypress_ZEE	34	stimuli_distractor_diamondtriangles.svg	stimuli_distractor_diamondtriangles.svg	40	no	57	0	269	6	2	antiphase_hc_ios.wav	3	6	2	noise_calib_stim_LEFT.wav	1	22	blb_dichoticlistening_ka-ka.mp3	ka	ka	0	left
6.6.1	win	2023-07-10	16:15:43	16:35:08	1162900	6237ca974050879378c8fea8	2	1	main_z	24	main_z	35	stimuli_distractor_diamondtriangles.svg	stimuli_target_rectangletriangles.svg	13	yes	44	1	805	6	2	antiphase_hc_ios.wav	3	6	2	noise_calib_stim_LEFT.wav	1	22	blb_dichoticlistening_ka-ka.mp3	ka	ka	0	left
6.6.1	win	2023-07-10	16:15:43	16:35:08	1162900	6237ca974050879378c8fea8	2	1	main_z	24	advance_on_keypress_ZEE	36	stimuli_distractor_diamondtriangles.svg	stimuli_target_rectangletriangles.svg	13	yes	57	0	474	6	2	antiphase_hc_ios.wav	3	6	2	noise_calib_stim_LEFT.wav	1	22	blb_dichoticlistening_ka-ka.mp3	ka	ka	0	left
6.6.1	win	2023-07-10	16:15:43	16:35:10	1164761	6237ca974050879378c8fea8	2	1	main_z	24	main_z	37	stimuli_target_rectanglediamonds.svg	stimuli_distractor_trianglediamonds.svg	2	yes	44	1	772	6	2	antiphase_hc_ios.wav	3	6	2	noise_calib_stim_LEFT.wav	1	22	blb_dichoticlistening_ka-ka.mp3	ka	ka	0	left
6.6.1	win	2023-07-10	16:15:43	16:35:10	1164761	6237ca974050879378c8fea8	2	1	main_z	24	advance_on_keypress_ZEE	38	stimuli_target_rectanglediamonds.svg	stimuli_distractor_trianglediamonds.svg	2	yes	57	0	652	6	2	antiphase_hc_ios.wav	3	6	2	noise_calib_stim_LEFT.wav	1	22	blb_dichoticlistening_ka-ka.mp3	ka	ka	0	left
6.6.1	win	2023-07-10	16:15:43	16:35:12	1166652	6237ca974050879378c8fea8	2	1	main_z	24	main_z	39	stimuli_target_squarediamonds.svg	stimuli_distractor_diamondtriangles.svg	8	yes	44	1	629	6	2	antiphase_hc_ios.wav	3	6	2	noise_calib_stim_LEFT.wav	1	22	blb_dichoticlistening_ka-ka.mp3	ka	ka	0	left
6.6.1	win	2023-07-10	16:15:43	16:35:12	1166652	6237ca974050879378c8fea8	2	1	main_z	24	advance_on_keypress_ZEE	40	stimuli_target_squarediamonds.svg	stimuli_distractor_diamondtriangles.svg	8	yes	57	0	226	6	2	antiphase_hc_ios.wav	3	6	2	noise_calib_stim_LEFT.wav	1	22	blb_dichoticlistening_ka-ka.mp3	ka	ka	0	left
6.6.1	win	2023-07-10	16:15:43	16:35:13	1168285	6237ca974050879378c8fea8	2	1	main_z	24	main_z	41	stimuli_distractor_diamondtriangles.svg	stimuli_target_trianglesquares.svg	30	yes	44	1	793	6	2	antiphase_hc_ios.wav	3	6	2	noise_calib_stim_LEFT.wav	1	22	blb_dichoticlistening_ka-ka.mp3	ka	ka	0	left
6.6.1	win	2023-07-10	16:15:43	16:35:13	1168285	6237ca974050879378c8fea8	2	1	main_z	24	advance_on_keypress_ZEE	42	stimuli_distractor_diamondtriangles.svg	stimuli_target_trianglesquares.svg	30	yes	57	0	337	6	2	antiphase_hc_ios.wav	3	6	2	noise_calib_stim_LEFT.wav	1	22	blb_dichoticlistening_ka-ka.mp3	ka	ka	0	left
6.6.1	win	2023-07-10	16:15:43	16:35:15	1170039	6237ca974050879378c8fea8	2	1	main_z	24	main_z	43	stimuli_target_trianglesquares.svg	stimuli_distractor_trianglediamonds.svg	18	yes	44	1	803	6	2	antiphase_hc_ios.wav	3	6	2	noise_calib_stim_LEFT.wav	1	22	blb_dichoticlistening_ka-ka.mp3	ka	ka	0	left
6.6.1	win	2023-07-10	16:15:43	16:35:15	1170039	6237ca974050879378c8fea8	2	1	main_z	24	advance_on_keypress_ZEE	44	stimuli_target_trianglesquares.svg	stimuli_distractor_trianglediamonds.svg	18	yes	57	0	191	6	2	antiphase_hc_ios.wav	3	6	2	noise_calib_stim_LEFT.wav	1	22	blb_dichoticlistening_ka-ka.mp3	ka	ka	0	left
6.6.1	win	2023-07-10	16:15:43	16:35:17	1171908	6237ca974050879378c8fea8	2	1	main_z	24	main_z	45	stimuli_distractor_diamondtriangles.svg	stimuli_target_diamondrectangles.svg	31	yes	44	1	1066	6	2	antiphase_hc_ios.wav	3	6	2	noise_calib_stim_LEFT.wav	1	22	blb_dichoticlistening_ka-ka.mp3	ka	ka	0	left
6.6.1	win	2023-07-10	16:15:43	16:35:17	1171908	6237ca974050879378c8fea8	2	1	main_z	24	advance_on_keypress_ZEE	46	stimuli_distractor_diamondtriangles.svg	stimuli_target_diamondrectangles.svg	31	yes	57	0	295	6	2	antiphase_hc_ios.wav	3	6	2	noise_calib_stim_LEFT.wav	1	22	blb_dichoticlistening_ka-ka.mp3	ka	ka	0	left
6.6.1	win	2023-07-10	16:15:43	16:35:20	1174818	6237ca974050879378c8fea8	2	1	main_z	24	main_z	47	stimuli_distractor_diamondtriangles.svg	stimuli_distractor_diamondtriangles.svg	39	no	0	1	2000	6	2	antiphase_hc_ios.wav	3	6	2	noise_calib_stim_LEFT.wav	1	22	blb_dichoticlistening_ka-ka.mp3	ka	ka	0	left
6.6.1	win	2023-07-10	16:15:43	16:35:20	1174818	6237ca974050879378c8fea8	2	1	main_z	24	advance_on_keypress_ZEE	48	stimuli_distractor_diamondtriangles.svg	stimuli_distractor_diamondtriangles.svg	39	no	57	0	686	6	2	antiphase_hc_ios.wav	3	6	2	noise_calib_stim_LEFT.wav	1	22	blb_dichoticlistening_ka-ka.mp3	ka	ka	0	left
6.6.1	win	2023-07-10	16:15:43	16:35:22	1176749	6237ca974050879378c8fea8	2	1	main_z	24	main_z	49	stimuli_target_diamondsquares.svg	stimuli_distractor_diamondtriangles.svg	24	yes	44	1	635	6	2	antiphase_hc_ios.wav	3	6	2	noise_calib_stim_LEFT.wav	1	22	blb_dichoticlistening_ka-ka.mp3	ka	ka	0	left
6.6.1	win	2023-07-10	16:15:43	16:35:22	1176749	6237ca974050879378c8fea8	2	1	main_z	24	advance_on_keypress_ZEE	50	stimuli_target_diamondsquares.svg	stimuli_distractor_diamondtriangles.svg	24	yes	57	0	166	6	2	antiphase_hc_ios.wav	3	6	2	noise_calib_stim_LEFT.wav	1	22	blb_dichoticlistening_ka-ka.mp3	ka	ka	0	left
6.6.1	win	2023-07-10	16:15:43	16:35:23	1178144	6237ca974050879378c8fea8	2	1	main_z	24	main_z	51	stimuli_distractor_trianglediamonds.svg	stimuli_target_diamondrectangles.svg	27	yes	44	1	616	6	2	antiphase_hc_ios.wav	3	6	2	noise_calib_stim_LEFT.wav	1	22	blb_dichoticlistening_ka-ka.mp3	ka	ka	0	left
6.6.1	win	2023-07-10	16:15:43	16:35:23	1178144	6237ca974050879378c8fea8	2	1	main_z	24	advance_on_keypress_ZEE	52	stimuli_distractor_trianglediamonds.svg	stimuli_target_diamondrectangles.svg	27	yes	57	0	162	6	2	antiphase_hc_ios.wav	3	6	2	noise_calib_stim_LEFT.wav	1	22	blb_dichoticlistening_ka-ka.mp3	ka	ka	0	left
6.6.1	win	2023-07-10	16:15:43	16:35:25	1179587	6237ca974050879378c8fea8	2	1	main_z	24	main_z	53	stimuli_distractor_diamondtriangles.svg	stimuli_target_squarediamonds.svg	16	yes	44	1	642	6	2	antiphase_hc_ios.wav	3	6	2	noise_calib_stim_LEFT.wav	1	22	blb_dichoticlistening_ka-ka.mp3	ka	ka	0	left
6.6.1	win	2023-07-10	16:15:43	16:35:25	1179587	6237ca974050879378c8fea8	2	1	main_z	24	advance_on_keypress_ZEE	54	stimuli_distractor_diamondtriangles.svg	stimuli_target_squarediamonds.svg	16	yes	57	0	178	6	2	antiphase_hc_ios.wav	3	6	2	noise_calib_stim_LEFT.wav	1	22	blb_dichoticlistening_ka-ka.mp3	ka	ka	0	left
6.6.1	win	2023-07-10	16:15:43	16:35:26	1180827	6237ca974050879378c8fea8	2	1	main_z	24	main_z	55	stimuli_distractor_trianglediamonds.svg	stimuli_target_squarediamonds.svg	12	yes	44	1	424	6	2	antiphase_hc_ios.wav	3	6	2	noise_calib_stim_LEFT.wav	1	22	blb_dichoticlistening_ka-ka.mp3	ka	ka	0	left
6.6.1	win	2023-07-10	16:15:43	16:35:26	1180827	6237ca974050879378c8fea8	2	1	main_z	24	advance_on_keypress_ZEE	56	stimuli_distractor_trianglediamonds.svg	stimuli_target_squarediamonds.svg	12	yes	57	0	141	6	2	antiphase_hc_ios.wav	3	6	2	noise_calib_stim_LEFT.wav	1	22	blb_dichoticlistening_ka-ka.mp3	ka	ka	0	left
6.6.1	win	2023-07-10	16:15:43	16:35:27	1182048	6237ca974050879378c8fea8	2	1	main_z	24	main_z	57	stimuli_distractor_trianglediamonds.svg	stimuli_target_diamondsquares.svg	28	yes	44	1	428	6	2	antiphase_hc_ios.wav	3	6	2	noise_calib_stim_LEFT.wav	1	22	blb_dichoticlistening_ka-ka.mp3	ka	ka	0	left
6.6.1	win	2023-07-10	16:15:43	16:35:27	1182048	6237ca974050879378c8fea8	2	1	main_z	24	advance_on_keypress_ZEE	58	stimuli_distractor_trianglediamonds.svg	stimuli_target_diamondsquares.svg	28	yes	57	0	310	6	2	antiphase_hc_ios.wav	3	6	2	noise_calib_stim_LEFT.wav	1	22	blb_dichoticlistening_ka-ka.mp3	ka	ka	0	left
6.6.1	win	2023-07-10	16:15:43	16:35:29	1183652	6237ca974050879378c8fea8	2	1	main_z	24	main_z	59	stimuli_distractor_diamondtriangles.svg	stimuli_target_rectanglediamonds.svg	14	yes	44	1	658	6	2	antiphase_hc_ios.wav	3	6	2	noise_calib_stim_LEFT.wav	1	22	blb_dichoticlistening_ka-ka.mp3	ka	ka	0	left
6.6.1	win	2023-07-10	16:15:43	16:35:29	1183652	6237ca974050879378c8fea8	2	1	main_z	24	advance_on_keypress_ZEE	60	stimuli_distractor_diamondtriangles.svg	stimuli_target_rectanglediamonds.svg	14	yes	57	0	170	6	2	antiphase_hc_ios.wav	3	6	2	noise_calib_stim_LEFT.wav	1	22	blb_dichoticlistening_ka-ka.mp3	ka	ka	0	left
6.6.1	win	2023-07-10	16:15:43	16:35:30	1185096	6237ca974050879378c8fea8	2	1	main_z	24	main_z	61	stimuli_target_rectangletriangles.svg	stimuli_distractor_diamondtriangles.svg	5	yes	44	1	661	6	2	antiphase_hc_ios.wav	3	6	2	noise_calib_stim_LEFT.wav	1	22	blb_dichoticlistening_ka-ka.mp3	ka	ka	0	left
6.6.1	win	2023-07-10	16:15:43	16:35:30	1185096	6237ca974050879378c8fea8	2	1	main_z	24	advance_on_keypress_ZEE	62	stimuli_target_rectangletriangles.svg	stimuli_distractor_diamondtriangles.svg	5	yes	57	0	120	6	2	antiphase_hc_ios.wav	3	6	2	noise_calib_stim_LEFT.wav	1	22	blb_dichoticlistening_ka-ka.mp3	ka	ka	0	left
6.6.1	win	2023-07-10	16:15:43	16:35:32	1186763	6237ca974050879378c8fea8	2	1	main_z	24	main_z	63	stimuli_target_rectanglediamonds.svg	stimuli_distractor_diamondtriangles.svg	6	yes	44	1	930	6	2	antiphase_hc_ios.wav	3	6	2	noise_calib_stim_LEFT.wav	1	22	blb_dichoticlistening_ka-ka.mp3	ka	ka	0	left
6.6.1	win	2023-07-10	16:15:43	16:35:32	1186763	6237ca974050879378c8fea8	2	1	main_z	24	advance_on_keypress_ZEE	64	stimuli_target_rectanglediamonds.svg	stimuli_distractor_diamondtriangles.svg	6	yes	57	0	92	6	2	antiphase_hc_ios.wav	3	6	2	noise_calib_stim_LEFT.wav	1	22	blb_dichoticlistening_ka-ka.mp3	ka	ka	0	left
6.6.1	win	2023-07-10	16:15:43	16:35:35	1189467	6237ca974050879378c8fea8	2	1	main_z	24	main_z	65	stimuli_distractor_trianglediamonds.svg	stimuli_distractor_trianglediamonds.svg	34	no	0	1	2000	6	2	antiphase_hc_ios.wav	3	6	2	noise_calib_stim_LEFT.wav	1	22	blb_dichoticlistening_ka-ka.mp3	ka	ka	0	left
6.6.1	win	2023-07-10	16:15:43	16:35:35	1189467	6237ca974050879378c8fea8	2	1	main_z	24	advance_on_keypress_ZEE	66	stimuli_distractor_trianglediamonds.svg	stimuli_distractor_trianglediamonds.svg	34	no	57	0	477	6	2	antiphase_hc_ios.wav	3	6	2	noise_calib_stim_LEFT.wav	1	22	blb_dichoticlistening_ka-ka.mp3	ka	ka	0	left
6.6.1	win	2023-07-10	16:15:43	16:35:36	1191142	6237ca974050879378c8fea8	2	1	main_z	24	main_z	67	stimuli_distractor_trianglediamonds.svg	stimuli_target_rectangletriangles.svg	9	yes	44	1	589	6	2	antiphase_hc_ios.wav	3	6	2	noise_calib_stim_LEFT.wav	1	22	blb_dichoticlistening_ka-ka.mp3	ka	ka	0	left
6.6.1	win	2023-07-10	16:15:43	16:35:36	1191142	6237ca974050879378c8fea8	2	1	main_z	24	advance_on_keypress_ZEE	68	stimuli_distractor_trianglediamonds.svg	stimuli_target_rectangletriangles.svg	9	yes	57	0	322	6	2	antiphase_hc_ios.wav	3	6	2	noise_calib_stim_LEFT.wav	1	22	blb_dichoticlistening_ka-ka.mp3	ka	ka	0	left
6.6.1	win	2023-07-10	16:15:43	16:35:39	1194075	6237ca974050879378c8fea8	2	1	main_z	24	main_z	69	stimuli_distractor_trianglediamonds.svg	stimuli_distractor_trianglediamonds.svg	33	no	0	1	2000	6	2	antiphase_hc_ios.wav	3	6	2	noise_calib_stim_LEFT.wav	1	22	blb_dichoticlistening_ka-ka.mp3	ka	ka	0	left
6.6.1	win	2023-07-10	16:15:43	16:35:39	1194075	6237ca974050879378c8fea8	2	1	main_z	24	advance_on_keypress_ZEE	70	stimuli_distractor_trianglediamonds.svg	stimuli_distractor_trianglediamonds.svg	33	no	57	0	365	6	2	antiphase_hc_ios.wav	3	6	2	noise_calib_stim_LEFT.wav	1	22	blb_dichoticlistening_ka-ka.mp3	ka	ka	0	left
6.6.1	win	2023-07-10	16:15:43	16:35:41	1196172	6237ca974050879378c8fea8	2	1	main_z	24	main_z	71	stimuli_distractor_diamondtriangles.svg	stimuli_target_diamondsquares.svg	32	yes	44	1	1118	6	2	antiphase_hc_ios.wav	3	6	2	noise_calib_stim_LEFT.wav	1	22	blb_dichoticlistening_ka-ka.mp3	ka	ka	0	left
6.6.1	win	2023-07-10	16:15:43	16:35:41	1196172	6237ca974050879378c8fea8	2	1	main_z	24	advance_on_keypress_ZEE	72	stimuli_distractor_diamondtriangles.svg	stimuli_target_diamondsquares.svg	32	yes	57	0	119	6	2	antiphase_hc_ios.wav	3	6	2	noise_calib_stim_LEFT.wav	1	22	blb_dichoticlistening_ka-ka.mp3	ka	ka	0	left
6.6.1	win	2023-07-10	16:15:43	16:35:43	1197766	6237ca974050879378c8fea8	2	1	main_z	24	main_z	73	stimuli_target_diamondsquares.svg	stimuli_distractor_trianglediamonds.svg	20	yes	44	1	852	6	2	antiphase_hc_ios.wav	3	6	2	noise_calib_stim_LEFT.wav	1	22	blb_dichoticlistening_ka-ka.mp3	ka	ka	0	left
6.6.1	win	2023-07-10	16:15:43	16:35:43	1197766	6237ca974050879378c8fea8	2	1	main_z	24	advance_on_keypress_ZEE	74	stimuli_target_diamondsquares.svg	stimuli_distractor_trianglediamonds.svg	20	yes	57	0	157	6	2	antiphase_hc_ios.wav	3	6	2	noise_calib_stim_LEFT.wav	1	22	blb_dichoticlistening_ka-ka.mp3	ka	ka	0	left
6.6.1	win	2023-07-10	16:15:43	16:35:45	1199396	6237ca974050879378c8fea8	2	1	main_z	24	main_z	75	stimuli_target_diamondrectangles.svg	stimuli_distractor_trianglediamonds.svg	19	yes	44	1	860	6	2	antiphase_hc_ios.wav	3	6	2	noise_calib_stim_LEFT.wav	1	22	blb_dichoticlistening_ka-ka.mp3	ka	ka	0	left
6.6.1	win	2023-07-10	16:15:43	16:35:45	1199396	6237ca974050879378c8fea8	2	1	main_z	24	advance_on_keypress_ZEE	76	stimuli_target_diamondrectangles.svg	stimuli_distractor_trianglediamonds.svg	19	yes	57	0	110	6	2	antiphase_hc_ios.wav	3	6	2	noise_calib_stim_LEFT.wav	1	22	blb_dichoticlistening_ka-ka.mp3	ka	ka	0	left
6.6.1	win	2023-07-10	16:15:43	16:35:46	1200916	6237ca974050879378c8fea8	2	1	main_z	24	main_z	77	stimuli_target_trianglesquares.svg	stimuli_distractor_diamondtriangles.svg	22	yes	44	1	765	6	2	antiphase_hc_ios.wav	3	6	2	noise_calib_stim_LEFT.wav	1	22	blb_dichoticlistening_ka-ka.mp3	ka	ka	0	left
6.6.1	win	2023-07-10	16:15:43	16:35:46	1200916	6237ca974050879378c8fea8	2	1	main_z	24	advance_on_keypress_ZEE	78	stimuli_target_trianglesquares.svg	stimuli_distractor_diamondtriangles.svg	22	yes	57	0	113	6	2	antiphase_hc_ios.wav	3	6	2	noise_calib_stim_LEFT.wav	1	22	blb_dichoticlistening_ka-ka.mp3	ka	ka	0	left
6.6.1	win	2023-07-10	16:15:43	16:35:47	1202228	6237ca974050879378c8fea8	2	1	main_z	24	main_z	79	stimuli_distractor_diamondtriangles.svg	stimuli_distractor_trianglediamonds.svg	37	no	44	0	575	6	2	antiphase_hc_ios.wav	3	6	2	noise_calib_stim_LEFT.wav	1	22	blb_dichoticlistening_ka-ka.mp3	ka	ka	0	left
6.6.1	win	2023-07-10	16:15:43	16:35:47	1202228	6237ca974050879378c8fea8	2	1	main_z	24	advance_on_keypress_ZEE	80	stimuli_distractor_diamondtriangles.svg	stimuli_distractor_trianglediamonds.svg	37	no	57	0	296	6	2	antiphase_hc_ios.wav	3	6	2	noise_calib_stim_LEFT.wav	1	22	blb_dichoticlistening_ka-ka.mp3	ka	ka	0	left
6.6.1	win	2023-07-10	16:15:43	16:35:49	1203903	6237ca974050879378c8fea8	2	1	main_z	24	main_z	81	stimuli_target_diamondrectangles.svg	stimuli_distractor_trianglediamonds.svg	19	yes	44	1	766	6	2	antiphase_hc_ios.wav	3	6	2	noise_calib_stim_LEFT.wav	1	22	blb_dichoticlistening_ka-ka.mp3	ka	ka	0	left
6.6.1	win	2023-07-10	16:15:43	16:35:49	1203903	6237ca974050879378c8fea8	2	1	main_z	24	advance_on_keypress_ZEE	82	stimuli_target_diamondrectangles.svg	stimuli_distractor_trianglediamonds.svg	19	yes	57	0	190	6	2	antiphase_hc_ios.wav	3	6	2	noise_calib_stim_LEFT.wav	1	22	blb_dichoticlistening_ka-ka.mp3	ka	ka	0	left
6.6.1	win	2023-07-10	16:15:43	16:35:51	1205531	6237ca974050879378c8fea8	2	1	main_z	24	main_z	83	stimuli_target_rectanglediamonds.svg	stimuli_distractor_trianglediamonds.svg	2	yes	44	1	822	6	2	antiphase_hc_ios.wav	3	6	2	noise_calib_stim_LEFT.wav	1	22	blb_dichoticlistening_ka-ka.mp3	ka	ka	0	left
6.6.1	win	2023-07-10	16:15:43	16:35:51	1205531	6237ca974050879378c8fea8	2	1	main_z	24	advance_on_keypress_ZEE	84	stimuli_target_rectanglediamonds.svg	stimuli_distractor_trianglediamonds.svg	2	yes	57	0	140	6	2	antiphase_hc_ios.wav	3	6	2	noise_calib_stim_LEFT.wav	1	22	blb_dichoticlistening_ka-ka.mp3	ka	ka	0	left
6.6.1	win	2023-07-10	16:15:43	16:35:52	1206842	6237ca974050879378c8fea8	2	1	main_z	24	main_z	85	stimuli_target_squarediamonds.svg	stimuli_distractor_trianglediamonds.svg	4	yes	44	1	556	6	2	antiphase_hc_ios.wav	3	6	2	noise_calib_stim_LEFT.wav	1	22	blb_dichoticlistening_ka-ka.mp3	ka	ka	0	left
6.6.1	win	2023-07-10	16:15:43	16:35:52	1206842	6237ca974050879378c8fea8	2	1	main_z	24	advance_on_keypress_ZEE	86	stimuli_target_squarediamonds.svg	stimuli_distractor_trianglediamonds.svg	4	yes	57	0	125	6	2	antiphase_hc_ios.wav	3	6	2	noise_calib_stim_LEFT.wav	1	22	blb_dichoticlistening_ka-ka.mp3	ka	ka	0	left
6.6.1	win	2023-07-10	16:15:43	16:35:53	1208250	6237ca974050879378c8fea8	2	1	main_z	24	main_z	87	stimuli_target_trianglesquares.svg	stimuli_distractor_diamondtriangles.svg	22	yes	44	1	671	6	2	antiphase_hc_ios.wav	3	6	2	noise_calib_stim_LEFT.wav	1	22	blb_dichoticlistening_ka-ka.mp3	ka	ka	0	left
6.6.1	win	2023-07-10	16:15:43	16:35:53	1208250	6237ca974050879378c8fea8	2	1	main_z	24	advance_on_keypress_ZEE	88	stimuli_target_trianglesquares.svg	stimuli_distractor_diamondtriangles.svg	22	yes	57	0	128	6	2	antiphase_hc_ios.wav	3	6	2	noise_calib_stim_LEFT.wav	1	22	blb_dichoticlistening_ka-ka.mp3	ka	ka	0	left
6.6.1	win	2023-07-10	16:15:43	16:35:55	1209755	6237ca974050879378c8fea8	2	1	main_z	24	main_z	89	stimuli_target_trianglerectangles.svg	stimuli_distractor_trianglediamonds.svg	17	yes	44	1	761	6	2	antiphase_hc_ios.wav	3	6	2	noise_calib_stim_LEFT.wav	1	22	blb_dichoticlistening_ka-ka.mp3	ka	ka	0	left
6.6.1	win	2023-07-10	16:15:43	16:35:55	1209755	6237ca974050879378c8fea8	2	1	main_z	24	advance_on_keypress_ZEE	90	stimuli_target_trianglerectangles.svg	stimuli_distractor_trianglediamonds.svg	17	yes	57	0	105	6	2	antiphase_hc_ios.wav	3	6	2	noise_calib_stim_LEFT.wav	1	22	blb_dichoticlistening_ka-ka.mp3	ka	ka	0	left
6.6.1	win	2023-07-10	16:15:43	16:35:58	1212427	6237ca974050879378c8fea8	2	1	main_z	24	main_z	91	stimuli_target_rectangletriangles.svg	stimuli_distractor_diamondtriangles.svg	5	yes	44	1	1938	6	2	antiphase_hc_ios.wav	3	6	2	noise_calib_stim_LEFT.wav	1	22	blb_dichoticlistening_ka-ka.mp3	ka	ka	0	left
6.6.1	win	2023-07-10	16:15:43	16:35:58	1212427	6237ca974050879378c8fea8	2	1	main_z	24	advance_on_keypress_ZEE	92	stimuli_target_rectangletriangles.svg	stimuli_distractor_diamondtriangles.svg	5	yes	57	0	274	6	2	antiphase_hc_ios.wav	3	6	2	noise_calib_stim_LEFT.wav	1	22	blb_dichoticlistening_ka-ka.mp3	ka	ka	0	left
6.6.1	win	2023-07-10	16:15:43	16:35:59	1214266	6237ca974050879378c8fea8	2	1	main_z	24	main_z	93	stimuli_distractor_diamondtriangles.svg	stimuli_target_rectanglediamonds.svg	14	yes	44	1	952	6	2	antiphase_hc_ios.wav	3	6	2	noise_calib_stim_LEFT.wav	1	22	blb_dichoticlistening_ka-ka.mp3	ka	ka	0	left
6.6.1	win	2023-07-10	16:15:43	16:35:59	1214266	6237ca974050879378c8fea8	2	1	main_z	24	advance_on_keypress_ZEE	94	stimuli_distractor_diamondtriangles.svg	stimuli_target_rectanglediamonds.svg	14	yes	57	0	122	6	2	antiphase_hc_ios.wav	3	6	2	noise_calib_stim_LEFT.wav	1	22	blb_dichoticlistening_ka-ka.mp3	ka	ka	0	left
6.6.1	win	2023-07-10	16:15:43	16:36:01	1215914	6237ca974050879378c8fea8	2	1	main_z	24	main_z	95	stimuli_distractor_trianglediamonds.svg	stimuli_target_rectangletriangles.svg	9	yes	44	1	915	6	2	antiphase_hc_ios.wav	3	6	2	noise_calib_stim_LEFT.wav	1	22	blb_dichoticlistening_ka-ka.mp3	ka	ka	0	left
6.6.1	win	2023-07-10	16:15:43	16:36:01	1215914	6237ca974050879378c8fea8	2	1	main_z	24	advance_on_keypress_ZEE	96	stimuli_distractor_trianglediamonds.svg	stimuli_target_rectangletriangles.svg	9	yes	57	0	107	6	2	antiphase_hc_ios.wav	3	6	2	noise_calib_stim_LEFT.wav	1	22	blb_dichoticlistening_ka-ka.mp3	ka	ka	0	left
6.6.1	win	2023-07-10	16:15:43	16:36:03	1217535	6237ca974050879378c8fea8	2	1	main_z	24	main_z	97	stimuli_target_squarediamonds.svg	stimuli_distractor_diamondtriangles.svg	8	yes	44	1	901	6	2	antiphase_hc_ios.wav	3	6	2	noise_calib_stim_LEFT.wav	1	22	blb_dichoticlistening_ka-ka.mp3	ka	ka	0	left
6.6.1	win	2023-07-10	16:15:43	16:36:03	1217535	6237ca974050879378c8fea8	2	1	main_z	24	advance_on_keypress_ZEE	98	stimuli_target_squarediamonds.svg	stimuli_distractor_diamondtriangles.svg	8	yes	57	0	117	6	2	antiphase_hc_ios.wav	3	6	2	noise_calib_stim_LEFT.wav	1	22	blb_dichoticlistening_ka-ka.mp3	ka	ka	0	left
6.6.1	win	2023-07-10	16:15:43	16:36:04	1219213	6237ca974050879378c8fea8	2	1	main_z	24	main_z	99	stimuli_distractor_diamondtriangles.svg	stimuli_target_squaretriangles.svg	15	yes	44	1	949	6	2	antiphase_hc_ios.wav	3	6	2	noise_calib_stim_LEFT.wav	1	22	blb_dichoticlistening_ka-ka.mp3	ka	ka	0	left
6.6.1	win	2023-07-10	16:15:43	16:36:04	1219213	6237ca974050879378c8fea8	2	1	main_z	24	advance_on_keypress_ZEE	100	stimuli_distractor_diamondtriangles.svg	stimuli_target_squaretriangles.svg	15	yes	57	0	135	6	2	antiphase_hc_ios.wav	3	6	2	noise_calib_stim_LEFT.wav	1	22	blb_dichoticlistening_ka-ka.mp3	ka	ka	0	left
6.6.1	win	2023-07-10	16:15:43	16:36:06	1220962	6237ca974050879378c8fea8	2	1	main_z	24	main_z	101	stimuli_distractor_diamondtriangles.svg	stimuli_target_squarediamonds.svg	16	yes	44	1	1000	6	2	antiphase_hc_ios.wav	3	6	2	noise_calib_stim_LEFT.wav	1	22	blb_dichoticlistening_ka-ka.mp3	ka	ka	0	left
6.6.1	win	2023-07-10	16:15:43	16:36:06	1220962	6237ca974050879378c8fea8	2	1	main_z	24	advance_on_keypress_ZEE	102	stimuli_distractor_diamondtriangles.svg	stimuli_target_squarediamonds.svg	16	yes	57	0	161	6	2	antiphase_hc_ios.wav	3	6	2	noise_calib_stim_LEFT.wav	1	22	blb_dichoticlistening_ka-ka.mp3	ka	ka	0	left
6.6.1	win	2023-07-10	16:15:43	16:36:09	1223739	6237ca974050879378c8fea8	2	1	main_z	24	main_z	103	stimuli_distractor_diamondtriangles.svg	stimuli_target_trianglerectangles.svg	29	yes	0	0	2000	6	2	antiphase_hc_ios.wav	3	6	2	noise_calib_stim_LEFT.wav	1	22	blb_dichoticlistening_ka-ka.mp3	ka	ka	0	left
6.6.1	win	2023-07-10	16:15:43	16:36:09	1223739	6237ca974050879378c8fea8	2	1	main_z	24	advance_on_keypress_ZEE	104	stimuli_distractor_diamondtriangles.svg	stimuli_target_trianglerectangles.svg	29	yes	57	0	440	6	2	antiphase_hc_ios.wav	3	6	2	noise_calib_stim_LEFT.wav	1	22	blb_dichoticlistening_ka-ka.mp3	ka	ka	0	left
6.6.1	win	2023-07-10	16:15:43	16:36:11	1225709	6237ca974050879378c8fea8	2	1	main_z	24	main_z	105	stimuli_distractor_trianglediamonds.svg	stimuli_target_squaretriangles.svg	11	yes	44	1	917	6	2	antiphase_hc_ios.wav	3	6	2	noise_calib_stim_LEFT.wav	1	22	blb_dichoticlistening_ka-ka.mp3	ka	ka	0	left
6.6.1	win	2023-07-10	16:15:43	16:36:11	1225709	6237ca974050879378c8fea8	2	1	main_z	24	advance_on_keypress_ZEE	106	stimuli_distractor_trianglediamonds.svg	stimuli_target_squaretriangles.svg	11	yes	57	0	170	6	2	antiphase_hc_ios.wav	3	6	2	noise_calib_stim_LEFT.wav	1	22	blb_dichoticlistening_ka-ka.mp3	ka	ka	0	left
6.6.1	win	2023-07-10	16:15:43	16:36:14	1228493	6237ca974050879378c8fea8	2	1	main_z	24	main_z	107	stimuli_distractor_trianglediamonds.svg	stimuli_distractor_trianglediamonds.svg	34	no	0	1	2000	6	2	antiphase_hc_ios.wav	3	6	2	noise_calib_stim_LEFT.wav	1	22	blb_dichoticlistening_ka-ka.mp3	ka	ka	0	left
6.6.1	win	2023-07-10	16:15:43	16:36:14	1228493	6237ca974050879378c8fea8	2	1	main_z	24	advance_on_keypress_ZEE	108	stimuli_distractor_trianglediamonds.svg	stimuli_distractor_trianglediamonds.svg	34	no	57	0	313	6	2	antiphase_hc_ios.wav	3	6	2	noise_calib_stim_LEFT.wav	1	22	blb_dichoticlistening_ka-ka.mp3	ka	ka	0	left
6.6.1	win	2023-07-10	16:15:43	16:36:16	1230382	6237ca974050879378c8fea8	2	1	main_z	24	main_z	109	stimuli_target_trianglerectangles.svg	stimuli_distractor_diamondtriangles.svg	21	yes	44	1	965	6	2	antiphase_hc_ios.wav	3	6	2	noise_calib_stim_LEFT.wav	1	22	blb_dichoticlistening_ka-ka.mp3	ka	ka	0	left
6.6.1	win	2023-07-10	16:15:43	16:36:16	1230382	6237ca974050879378c8fea8	2	1	main_z	24	advance_on_keypress_ZEE	110	stimuli_target_trianglerectangles.svg	stimuli_distractor_diamondtriangles.svg	21	yes	57	0	148	6	2	antiphase_hc_ios.wav	3	6	2	noise_calib_stim_LEFT.wav	1	22	blb_dichoticlistening_ka-ka.mp3	ka	ka	0	left
6.6.1	win	2023-07-10	16:15:43	16:36:17	1232005	6237ca974050879378c8fea8	2	1	main_z	24	main_z	111	stimuli_target_trianglesquares.svg	stimuli_distractor_trianglediamonds.svg	18	yes	44	1	862	6	2	antiphase_hc_ios.wav	3	6	2	noise_calib_stim_LEFT.wav	1	22	blb_dichoticlistening_ka-ka.mp3	ka	ka	0	left
6.6.1	win	2023-07-10	16:15:43	16:36:17	1232005	6237ca974050879378c8fea8	2	1	main_z	24	advance_on_keypress_ZEE	112	stimuli_target_trianglesquares.svg	stimuli_distractor_trianglediamonds.svg	18	yes	57	0	124	6	2	antiphase_hc_ios.wav	3	6	2	noise_calib_stim_LEFT.wav	1	22	blb_dichoticlistening_ka-ka.mp3	ka	ka	0	left
6.6.1	win	2023-07-10	16:15:43	16:36:19	1233569	6237ca974050879378c8fea8	2	1	main_z	24	main_z	113	stimuli_distractor_trianglediamonds.svg	stimuli_target_diamondrectangles.svg	27	yes	44	1	827	6	2	antiphase_hc_ios.wav	3	6	2	noise_calib_stim_LEFT.wav	1	22	blb_dichoticlistening_ka-ka.mp3	ka	ka	0	left
6.6.1	win	2023-07-10	16:15:43	16:36:19	1233569	6237ca974050879378c8fea8	2	1	main_z	24	advance_on_keypress_ZEE	114	stimuli_distractor_trianglediamonds.svg	stimuli_target_diamondrectangles.svg	27	yes	57	0	140	6	2	antiphase_hc_ios.wav	3	6	2	noise_calib_stim_LEFT.wav	1	22	blb_dichoticlistening_ka-ka.mp3	ka	ka	0	left
6.6.1	win	2023-07-10	16:15:43	16:36:22	1236322	6237ca974050879378c8fea8	2	1	main_z	24	main_z	115	stimuli_distractor_trianglediamonds.svg	stimuli_distractor_trianglediamonds.svg	33	no	0	1	2000	6	2	antiphase_hc_ios.wav	3	6	2	noise_calib_stim_LEFT.wav	1	22	blb_dichoticlistening_ka-ka.mp3	ka	ka	0	left
6.6.1	win	2023-07-10	16:15:43	16:36:22	1236322	6237ca974050879378c8fea8	2	1	main_z	24	advance_on_keypress_ZEE	116	stimuli_distractor_trianglediamonds.svg	stimuli_distractor_trianglediamonds.svg	33	no	57	0	592	6	2	antiphase_hc_ios.wav	3	6	2	noise_calib_stim_LEFT.wav	1	22	blb_dichoticlistening_ka-ka.mp3	ka	ka	0	left
6.6.1	win	2023-07-10	16:15:43	16:36:23	1238086	6237ca974050879378c8fea8	2	1	main_z	24	main_z	117	stimuli_target_diamondsquares.svg	stimuli_distractor_diamondtriangles.svg	24	yes	44	1	560	6	2	antiphase_hc_ios.wav	3	6	2	noise_calib_stim_LEFT.wav	1	22	blb_dichoticlistening_ka-ka.mp3	ka	ka	0	left
6.6.1	win	2023-07-10	16:15:43	16:36:23	1238086	6237ca974050879378c8fea8	2	1	main_z	24	advance_on_keypress_ZEE	118	stimuli_target_diamondsquares.svg	stimuli_distractor_diamondtriangles.svg	24	yes	57	0	157	6	2	antiphase_hc_ios.wav	3	6	2	noise_calib_stim_LEFT.wav	1	22	blb_dichoticlistening_ka-ka.mp3	ka	ka	0	left
6.6.1	win	2023-07-10	16:15:43	16:36:25	1239478	6237ca974050879378c8fea8	2	1	main_z	24	main_z	119	stimuli_distractor_diamondtriangles.svg	stimuli_target_diamondsquares.svg	32	yes	44	1	622	6	2	antiphase_hc_ios.wav	3	6	2	noise_calib_stim_LEFT.wav	1	22	blb_dichoticlistening_ka-ka.mp3	ka	ka	0	left
6.6.1	win	2023-07-10	16:15:43	16:36:25	1239478	6237ca974050879378c8fea8	2	1	main_z	24	advance_on_keypress_ZEE	120	stimuli_distractor_diamondtriangles.svg	stimuli_target_diamondsquares.svg	32	yes	57	0	110	6	2	antiphase_hc_ios.wav	3	6	2	noise_calib_stim_LEFT.wav	1	22	blb_dichoticlistening_ka-ka.mp3	ka	ka	0	left
6.6.1	win	2023-07-10	16:15:43	16:36:27	1242213	6237ca974050879378c8fea8	2	1	main_z	24	main_z	121	stimuli_distractor_trianglediamonds.svg	stimuli_distractor_diamondtriangles.svg	36	no	0	1	2000	6	2	antiphase_hc_ios.wav	3	6	2	noise_calib_stim_LEFT.wav	1	22	blb_dichoticlistening_ka-ka.mp3	ka	ka	0	left
6.6.1	win	2023-07-10	16:15:43	16:36:27	1242213	6237ca974050879378c8fea8	2	1	main_z	24	advance_on_keypress_ZEE	122	stimuli_distractor_trianglediamonds.svg	stimuli_distractor_diamondtriangles.svg	36	no	57	0	705	6	2	antiphase_hc_ios.wav	3	6	2	noise_calib_stim_LEFT.wav	1	22	blb_dichoticlistening_ka-ka.mp3	ka	ka	0	left
6.6.1	win	2023-07-10	16:15:43	16:36:31	1245531	6237ca974050879378c8fea8	2	1	main_z	24	main_z	123	stimuli_distractor_trianglediamonds.svg	stimuli_distractor_diamondtriangles.svg	35	no	0	1	2000	6	2	antiphase_hc_ios.wav	3	6	2	noise_calib_stim_LEFT.wav	1	22	blb_dichoticlistening_ka-ka.mp3	ka	ka	0	left
6.6.1	win	2023-07-10	16:15:43	16:36:31	1245531	6237ca974050879378c8fea8	2	1	main_z	24	advance_on_keypress_ZEE	124	stimuli_distractor_trianglediamonds.svg	stimuli_distractor_diamondtriangles.svg	35	no	57	0	272	6	2	antiphase_hc_ios.wav	3	6	2	noise_calib_stim_LEFT.wav	1	22	blb_dichoticlistening_ka-ka.mp3	ka	ka	0	left
6.6.1	win	2023-07-10	16:15:43	16:36:33	1247335	6237ca974050879378c8fea8	2	1	main_z	24	main_z	125	stimuli_target_diamondrectangles.svg	stimuli_distractor_diamondtriangles.svg	23	yes	44	1	921	6	2	antiphase_hc_ios.wav	3	6	2	noise_calib_stim_LEFT.wav	1	22	blb_dichoticlistening_ka-ka.mp3	ka	ka	0	left
6.6.1	win	2023-07-10	16:15:43	16:36:33	1247335	6237ca974050879378c8fea8	2	1	main_z	24	advance_on_keypress_ZEE	126	stimuli_target_diamondrectangles.svg	stimuli_distractor_diamondtriangles.svg	23	yes	57	0	119	6	2	antiphase_hc_ios.wav	3	6	2	noise_calib_stim_LEFT.wav	1	22	blb_dichoticlistening_ka-ka.mp3	ka	ka	0	left
6.6.1	win	2023-07-10	16:15:43	16:36:34	1248771	6237ca974050879378c8fea8	2	1	main_z	24	main_z	127	stimuli_target_rectangletriangles.svg	stimuli_distractor_trianglediamonds.svg	1	yes	44	1	701	6	2	antiphase_hc_ios.wav	3	6	2	noise_calib_stim_LEFT.wav	1	22	blb_dichoticlistening_ka-ka.mp3	ka	ka	0	left
6.6.1	win	2023-07-10	16:15:43	16:36:34	1248771	6237ca974050879378c8fea8	2	1	main_z	24	advance_on_keypress_ZEE	128	stimuli_target_rectangletriangles.svg	stimuli_distractor_trianglediamonds.svg	1	yes	57	0	113	6	2	antiphase_hc_ios.wav	3	6	2	noise_calib_stim_LEFT.wav	1	22	blb_dichoticlistening_ka-ka.mp3	ka	ka	0	left
6.6.1	win	2023-07-10	16:15:43	16:36:37	1251496	6237ca974050879378c8fea8	2	1	main_z	24	main_z	129	stimuli_distractor_diamondtriangles.svg	stimuli_distractor_diamondtriangles.svg	39	no	0	1	2000	6	2	antiphase_hc_ios.wav	3	6	2	noise_calib_stim_LEFT.wav	1	22	blb_dichoticlistening_ka-ka.mp3	ka	ka	0	left
6.6.1	win	2023-07-10	16:15:43	16:36:37	1251496	6237ca974050879378c8fea8	2	1	main_z	24	advance_on_keypress_ZEE	130	stimuli_distractor_diamondtriangles.svg	stimuli_distractor_diamondtriangles.svg	39	no	57	0	403	6	2	antiphase_hc_ios.wav	3	6	2	noise_calib_stim_LEFT.wav	1	22	blb_dichoticlistening_ka-ka.mp3	ka	ka	0	left
6.6.1	win	2023-07-10	16:15:43	16:36:39	1253352	6237ca974050879378c8fea8	2	1	main_z	24	main_z	131	stimuli_target_diamondsquares.svg	stimuli_distractor_trianglediamonds.svg	20	yes	44	1	840	6	2	antiphase_hc_ios.wav	3	6	2	noise_calib_stim_LEFT.wav	1	22	blb_dichoticlistening_ka-ka.mp3	ka	ka	0	left
6.6.1	win	2023-07-10	16:15:43	16:36:39	1253352	6237ca974050879378c8fea8	2	1	main_z	24	advance_on_keypress_ZEE	132	stimuli_target_diamondsquares.svg	stimuli_distractor_trianglediamonds.svg	20	yes	57	0	111	6	2	antiphase_hc_ios.wav	3	6	2	noise_calib_stim_LEFT.wav	1	22	blb_dichoticlistening_ka-ka.mp3	ka	ka	0	left
6.6.1	win	2023-07-10	16:15:43	16:36:40	1254919	6237ca974050879378c8fea8	2	1	main_z	24	main_z	133	stimuli_distractor_trianglediamonds.svg	stimuli_target_squarediamonds.svg	12	yes	44	1	843	6	2	antiphase_hc_ios.wav	3	6	2	noise_calib_stim_LEFT.wav	1	22	blb_dichoticlistening_ka-ka.mp3	ka	ka	0	left
6.6.1	win	2023-07-10	16:15:43	16:36:40	1254919	6237ca974050879378c8fea8	2	1	main_z	24	advance_on_keypress_ZEE	134	stimuli_distractor_trianglediamonds.svg	stimuli_target_squarediamonds.svg	12	yes	57	0	99	6	2	antiphase_hc_ios.wav	3	6	2	noise_calib_stim_LEFT.wav	1	22	blb_dichoticlistening_ka-ka.mp3	ka	ka	0	left
6.6.1	win	2023-07-10	16:15:43	16:36:42	1256475	6237ca974050879378c8fea8	2	1	main_z	24	main_z	135	stimuli_distractor_trianglediamonds.svg	stimuli_target_trianglesquares.svg	26	yes	44	1	843	6	2	antiphase_hc_ios.wav	3	6	2	noise_calib_stim_LEFT.wav	1	22	blb_dichoticlistening_ka-ka.mp3	ka	ka	0	left
6.6.1	win	2023-07-10	16:15:43	16:36:42	1256475	6237ca974050879378c8fea8	2	1	main_z	24	advance_on_keypress_ZEE	136	stimuli_distractor_trianglediamonds.svg	stimuli_target_trianglesquares.svg	26	yes	57	0	80	6	2	antiphase_hc_ios.wav	3	6	2	noise_calib_stim_LEFT.wav	1	22	blb_dichoticlistening_ka-ka.mp3	ka	ka	0	left
6.6.1	win	2023-07-10	16:15:43	16:36:43	1257880	6237ca974050879378c8fea8	2	1	main_z	24	main_z	137	stimuli_target_squaretriangles.svg	stimuli_distractor_trianglediamonds.svg	3	yes	44	1	714	6	2	antiphase_hc_ios.wav	3	6	2	noise_calib_stim_LEFT.wav	1	22	blb_dichoticlistening_ka-ka.mp3	ka	ka	0	left
6.6.1	win	2023-07-10	16:15:43	16:36:43	1257880	6237ca974050879378c8fea8	2	1	main_z	24	advance_on_keypress_ZEE	138	stimuli_target_squaretriangles.svg	stimuli_distractor_trianglediamonds.svg	3	yes	57	0	101	6	2	antiphase_hc_ios.wav	3	6	2	noise_calib_stim_LEFT.wav	1	22	blb_dichoticlistening_ka-ka.mp3	ka	ka	0	left
6.6.1	win	2023-07-10	16:15:43	16:36:44	1259188	6237ca974050879378c8fea8	2	1	main_z	24	main_z	139	stimuli_target_squaretriangles.svg	stimuli_distractor_diamondtriangles.svg	7	yes	44	1	581	6	2	antiphase_hc_ios.wav	3	6	2	noise_calib_stim_LEFT.wav	1	22	blb_dichoticlistening_ka-ka.mp3	ka	ka	0	left
6.6.1	win	2023-07-10	16:15:43	16:36:44	1259188	6237ca974050879378c8fea8	2	1	main_z	24	advance_on_keypress_ZEE	140	stimuli_target_squaretriangles.svg	stimuli_distractor_diamondtriangles.svg	7	yes	57	0	109	6	2	antiphase_hc_ios.wav	3	6	2	noise_calib_stim_LEFT.wav	1	22	blb_dichoticlistening_ka-ka.mp3	ka	ka	0	left
6.6.1	win	2023-07-10	16:15:43	16:36:46	1260809	6237ca974050879378c8fea8	2	1	main_z	24	main_z	141	stimuli_distractor_trianglediamonds.svg	stimuli_target_trianglerectangles.svg	25	yes	44	1	898	6	2	antiphase_hc_ios.wav	3	6	2	noise_calib_stim_LEFT.wav	1	22	blb_dichoticlistening_ka-ka.mp3	ka	ka	0	left
6.6.1	win	2023-07-10	16:15:43	16:36:46	1260809	6237ca974050879378c8fea8	2	1	main_z	24	advance_on_keypress_ZEE	142	stimuli_distractor_trianglediamonds.svg	stimuli_target_trianglerectangles.svg	25	yes	57	0	78	6	2	antiphase_hc_ios.wav	3	6	2	noise_calib_stim_LEFT.wav	1	22	blb_dichoticlistening_ka-ka.mp3	ka	ka	0	left
6.6.1	win	2023-07-10	16:15:43	16:36:47	1262219	6237ca974050879378c8fea8	2	1	main_z	24	main_z	143	stimuli_target_rectanglediamonds.svg	stimuli_distractor_diamondtriangles.svg	6	yes	44	1	719	6	2	antiphase_hc_ios.wav	3	6	2	noise_calib_stim_LEFT.wav	1	22	blb_dichoticlistening_ka-ka.mp3	ka	ka	0	left
6.6.1	win	2023-07-10	16:15:43	16:36:47	1262219	6237ca974050879378c8fea8	2	1	main_z	24	advance_on_keypress_ZEE	144	stimuli_target_rectanglediamonds.svg	stimuli_distractor_diamondtriangles.svg	6	yes	57	0	99	6	2	antiphase_hc_ios.wav	3	6	2	noise_calib_stim_LEFT.wav	1	22	blb_dichoticlistening_ka-ka.mp3	ka	ka	0	left
6.6.1	win	2023-07-10	16:15:43	16:36:49	1263429	6237ca974050879378c8fea8	2	1	main_z	24	main_z	145	stimuli_distractor_trianglediamonds.svg	stimuli_target_rectanglediamonds.svg	10	yes	44	1	499	6	2	antiphase_hc_ios.wav	3	6	2	noise_calib_stim_LEFT.wav	1	22	blb_dichoticlistening_ka-ka.mp3	ka	ka	0	left
6.6.1	win	2023-07-10	16:15:43	16:36:49	1263429	6237ca974050879378c8fea8	2	1	main_z	24	advance_on_keypress_ZEE	146	stimuli_distractor_trianglediamonds.svg	stimuli_target_rectanglediamonds.svg	10	yes	57	0	111	6	2	antiphase_hc_ios.wav	3	6	2	noise_calib_stim_LEFT.wav	1	22	blb_dichoticlistening_ka-ka.mp3	ka	ka	0	left
6.6.1	win	2023-07-10	16:15:43	16:36:50	1264791	6237ca974050879378c8fea8	2	1	main_z	24	main_z	147	stimuli_distractor_diamondtriangles.svg	stimuli_target_diamondrectangles.svg	31	yes	44	1	639	6	2	antiphase_hc_ios.wav	3	6	2	noise_calib_stim_LEFT.wav	1	22	blb_dichoticlistening_ka-ka.mp3	ka	ka	0	left
6.6.1	win	2023-07-10	16:15:43	16:36:50	1264791	6237ca974050879378c8fea8	2	1	main_z	24	advance_on_keypress_ZEE	148	stimuli_distractor_diamondtriangles.svg	stimuli_target_diamondrectangles.svg	31	yes	57	0	147	6	2	antiphase_hc_ios.wav	3	6	2	noise_calib_stim_LEFT.wav	1	22	blb_dichoticlistening_ka-ka.mp3	ka	ka	0	left
6.6.1	win	2023-07-10	16:15:43	16:36:53	1267549	6237ca974050879378c8fea8	2	1	main_z	24	main_z	149	stimuli_distractor_diamondtriangles.svg	stimuli_distractor_trianglediamonds.svg	37	no	0	1	2000	6	2	antiphase_hc_ios.wav	3	6	2	noise_calib_stim_LEFT.wav	1	22	blb_dichoticlistening_ka-ka.mp3	ka	ka	0	left
6.6.1	win	2023-07-10	16:15:43	16:36:53	1267549	6237ca974050879378c8fea8	2	1	main_z	24	advance_on_keypress_ZEE	150	stimuli_distractor_diamondtriangles.svg	stimuli_distractor_trianglediamonds.svg	37	no	57	0	986	6	2	antiphase_hc_ios.wav	3	6	2	noise_calib_stim_LEFT.wav	1	22	blb_dichoticlistening_ka-ka.mp3	ka	ka	0	left
6.6.1	win	2023-07-10	16:15:43	16:36:55	1270093	6237ca974050879378c8fea8	2	1	main_z	24	main_z	151	stimuli_distractor_diamondtriangles.svg	stimuli_target_rectangletriangles.svg	13	yes	44	1	948	6	2	antiphase_hc_ios.wav	3	6	2	noise_calib_stim_LEFT.wav	1	22	blb_dichoticlistening_ka-ka.mp3	ka	ka	0	left
6.6.1	win	2023-07-10	16:15:43	16:36:55	1270093	6237ca974050879378c8fea8	2	1	main_z	24	advance_on_keypress_ZEE	152	stimuli_distractor_diamondtriangles.svg	stimuli_target_rectangletriangles.svg	13	yes	57	0	130	6	2	antiphase_hc_ios.wav	3	6	2	noise_calib_stim_LEFT.wav	1	22	blb_dichoticlistening_ka-ka.mp3	ka	ka	0	left
6.6.1	win	2023-07-10	16:15:43	16:36:58	1272834	6237ca974050879378c8fea8	2	1	main_z	24	main_z	153	stimuli_distractor_diamondtriangles.svg	stimuli_distractor_trianglediamonds.svg	38	no	0	1	2000	6	2	antiphase_hc_ios.wav	3	6	2	noise_calib_stim_LEFT.wav	1	22	blb_dichoticlistening_ka-ka.mp3	ka	ka	0	left
6.6.1	win	2023-07-10	16:15:43	16:36:58	1272834	6237ca974050879378c8fea8	2	1	main_z	24	advance_on_keypress_ZEE	154	stimuli_distractor_diamondtriangles.svg	stimuli_distractor_trianglediamonds.svg	38	no	57	0	1805	6	2	antiphase_hc_ios.wav	3	6	2	noise_calib_stim_LEFT.wav	1	22	blb_dichoticlistening_ka-ka.mp3	ka	ka	0	left
6.6.1	win	2023-07-10	16:15:43	16:37:01	1276202	6237ca974050879378c8fea8	2	1	main_z	24	main_z	155	stimuli_distractor_diamondtriangles.svg	stimuli_target_trianglesquares.svg	30	yes	44	1	952	6	2	antiphase_hc_ios.wav	3	6	2	noise_calib_stim_LEFT.wav	1	22	blb_dichoticlistening_ka-ka.mp3	ka	ka	0	left
6.6.1	win	2023-07-10	16:15:43	16:37:01	1276202	6237ca974050879378c8fea8	2	1	main_z	24	advance_on_keypress_ZEE	156	stimuli_distractor_diamondtriangles.svg	stimuli_target_trianglesquares.svg	30	yes	57	0	88	6	2	antiphase_hc_ios.wav	3	6	2	noise_calib_stim_LEFT.wav	1	22	blb_dichoticlistening_ka-ka.mp3	ka	ka	0	left
6.6.1	win	2023-07-10	16:15:43	16:37:04	1278902	6237ca974050879378c8fea8	2	1	main_z	24	main_z	157	stimuli_distractor_diamondtriangles.svg	stimuli_distractor_diamondtriangles.svg	40	no	0	1	2000	6	2	antiphase_hc_ios.wav	3	6	2	noise_calib_stim_LEFT.wav	1	22	blb_dichoticlistening_ka-ka.mp3	ka	ka	0	left
6.6.1	win	2023-07-10	16:15:43	16:37:04	1278902	6237ca974050879378c8fea8	2	1	main_z	24	advance_on_keypress_ZEE	158	stimuli_distractor_diamondtriangles.svg	stimuli_distractor_diamondtriangles.svg	40	no	57	0	303	6	2	antiphase_hc_ios.wav	3	6	2	noise_calib_stim_LEFT.wav	1	22	blb_dichoticlistening_ka-ka.mp3	ka	ka	0	left
6.6.1	win	2023-07-10	16:15:43	16:37:06	1280511	6237ca974050879378c8fea8	2	1	main_z	24	main_z	159	stimuli_distractor_trianglediamonds.svg	stimuli_target_diamondsquares.svg	28	yes	44	1	694	6	2	antiphase_hc_ios.wav	3	6	2	noise_calib_stim_LEFT.wav	1	22	blb_dichoticlistening_ka-ka.mp3	ka	ka	0	left
6.6.1	win	2023-07-10	16:15:43	16:37:06	1280511	6237ca974050879378c8fea8	2	1	main_z	24	advance_on_keypress_ZEE	160	stimuli_distractor_trianglediamonds.svg	stimuli_target_diamondsquares.svg	28	yes	57	0	122	6	2	antiphase_hc_ios.wav	3	6	2	noise_calib_stim_LEFT.wav	1	22	blb_dichoticlistening_ka-ka.mp3	ka	ka	0	left
6.6.1	win	2023-07-10	16:15:43	16:39:36	1431211	6237ca974050879378c8fea8	2	1	practice_slash	26	practice_slash	1	stimuli_distractor_diamondtriangles.svg	stimuli_distractor_diamondtriangles.svg	13	no	0	1	2000	6	2	antiphase_hc_ios.wav	3	6	2	noise_calib_stim_LEFT.wav	1	22	blb_dichoticlistening_ka-ka.mp3	ka	ka	0	left
6.6.1	win	2023-07-10	16:15:43	16:39:36	1431211	6237ca974050879378c8fea8	2	1	practice_slash	26	advance_on_keypress_SLASH	2	stimuli_distractor_diamondtriangles.svg	stimuli_distractor_diamondtriangles.svg	13	no	57	0	5810	6	2	antiphase_hc_ios.wav	3	6	2	noise_calib_stim_LEFT.wav	1	22	blb_dichoticlistening_ka-ka.mp3	ka	ka	0	left
6.6.1	win	2023-07-10	16:15:43	16:39:46	1440668	6237ca974050879378c8fea8	2	1	practice_slash	26	practice_slash	3	stimuli_distractor_trianglediamonds.svg	stimuli_distractor_trianglediamonds.svg	15	no	0	1	2000	6	2	antiphase_hc_ios.wav	3	6	2	noise_calib_stim_LEFT.wav	1	22	blb_dichoticlistening_ka-ka.mp3	ka	ka	0	left
6.6.1	win	2023-07-10	16:15:43	16:39:46	1440668	6237ca974050879378c8fea8	2	1	practice_slash	26	advance_on_keypress_SLASH	4	stimuli_distractor_trianglediamonds.svg	stimuli_distractor_trianglediamonds.svg	15	no	57	0	2220	6	2	antiphase_hc_ios.wav	3	6	2	noise_calib_stim_LEFT.wav	1	22	blb_dichoticlistening_ka-ka.mp3	ka	ka	0	left
6.6.1	win	2023-07-10	16:15:43	16:39:52	1446543	6237ca974050879378c8fea8	2	1	practice_slash	26	practice_slash	5	stimuli_target_rectanglediamonds.svg	stimuli_distractor_trianglediamonds.svg	4	yes	0	0	2000	6	2	antiphase_hc_ios.wav	3	6	2	noise_calib_stim_LEFT.wav	1	22	blb_dichoticlistening_ka-ka.mp3	ka	ka	0	left
6.6.1	win	2023-07-10	16:15:43	16:39:52	1446543	6237ca974050879378c8fea8	2	1	practice_slash	26	advance_on_keypress_SLASH	6	stimuli_target_rectanglediamonds.svg	stimuli_distractor_trianglediamonds.svg	4	yes	57	0	1324	6	2	antiphase_hc_ios.wav	3	6	2	noise_calib_stim_LEFT.wav	1	22	blb_dichoticlistening_ka-ka.mp3	ka	ka	0	left
6.6.1	win	2023-07-10	16:15:43	16:39:57	1451523	6237ca974050879378c8fea8	2	1	practice_slash	26	practice_slash	7	stimuli_target_squarediamonds.svg	stimuli_distractor_diamondtriangles.svg	2	yes	0	0	2000	6	2	antiphase_hc_ios.wav	3	6	2	noise_calib_stim_LEFT.wav	1	22	blb_dichoticlistening_ka-ka.mp3	ka	ka	0	left
6.6.1	win	2023-07-10	16:15:43	16:39:57	1451523	6237ca974050879378c8fea8	2	1	practice_slash	26	advance_on_keypress_SLASH	8	stimuli_target_squarediamonds.svg	stimuli_distractor_diamondtriangles.svg	2	yes	57	0	8159	6	2	antiphase_hc_ios.wav	3	6	2	noise_calib_stim_LEFT.wav	1	22	blb_dichoticlistening_ka-ka.mp3	ka	ka	0	left
6.6.1	win	2023-07-10	16:15:43	16:40:09	1463315	6237ca974050879378c8fea8	2	1	practice_slash	26	practice_slash	9	stimuli_target_diamondsquares.svg	stimuli_distractor_trianglediamonds.svg	6	yes	0	0	2000	6	2	antiphase_hc_ios.wav	3	6	2	noise_calib_stim_LEFT.wav	1	22	blb_dichoticlistening_ka-ka.mp3	ka	ka	0	left
6.6.1	win	2023-07-10	16:15:43	16:40:09	1463315	6237ca974050879378c8fea8	2	1	practice_slash	26	advance_on_keypress_SLASH	10	stimuli_target_diamondsquares.svg	stimuli_distractor_trianglediamonds.svg	6	yes	57	0	500	6	2	antiphase_hc_ios.wav	3	6	2	noise_calib_stim_LEFT.wav	1	22	blb_dichoticlistening_ka-ka.mp3	ka	ka	0	left
6.6.1	win	2023-07-10	16:15:43	16:40:13	1467430	6237ca974050879378c8fea8	2	1	practice_slash	26	practice_slash	11	stimuli_distractor_trianglediamonds.svg	stimuli_target_diamondrectangles.svg	12	yes	0	0	2000	6	2	antiphase_hc_ios.wav	3	6	2	noise_calib_stim_LEFT.wav	1	22	blb_dichoticlistening_ka-ka.mp3	ka	ka	0	left
6.6.1	win	2023-07-10	16:15:43	16:40:13	1467430	6237ca974050879378c8fea8	2	1	practice_slash	26	advance_on_keypress_SLASH	12	stimuli_distractor_trianglediamonds.svg	stimuli_target_diamondrectangles.svg	12	yes	57	0	2020	6	2	antiphase_hc_ios.wav	3	6	2	noise_calib_stim_LEFT.wav	1	22	blb_dichoticlistening_ka-ka.mp3	ka	ka	0	left
6.6.1	win	2023-07-10	16:15:43	16:40:18	1473060	6237ca974050879378c8fea8	2	1	practice_slash	26	practice_slash	13	stimuli_distractor_diamondtriangles.svg	stimuli_target_rectangletriangles.svg	7	yes	0	0	2000	6	2	antiphase_hc_ios.wav	3	6	2	noise_calib_stim_LEFT.wav	1	22	blb_dichoticlistening_ka-ka.mp3	ka	ka	0	left
6.6.1	win	2023-07-10	16:15:43	16:40:18	1473060	6237ca974050879378c8fea8	2	1	practice_slash	26	advance_on_keypress_SLASH	14	stimuli_distractor_diamondtriangles.svg	stimuli_target_rectangletriangles.svg	7	yes	57	0	122338	6	2	antiphase_hc_ios.wav	3	6	2	noise_calib_stim_LEFT.wav	1	22	blb_dichoticlistening_ka-ka.mp3	ka	ka	0	left
6.6.1	win	2023-07-10	16:15:43	16:42:24	1599012	6237ca974050879378c8fea8	2	1	practice_slash	26	practice_slash	15	stimuli_distractor_diamondtriangles.svg	stimuli_target_diamondrectangles.svg	8	yes	0	0	2000	6	2	antiphase_hc_ios.wav	3	6	2	noise_calib_stim_LEFT.wav	1	22	blb_dichoticlistening_ka-ka.mp3	ka	ka	0	left
6.6.1	win	2023-07-10	16:15:43	16:42:24	1599012	6237ca974050879378c8fea8	2	1	practice_slash	26	advance_on_keypress_SLASH	16	stimuli_distractor_diamondtriangles.svg	stimuli_target_diamondrectangles.svg	8	yes	57	0	2228	6	2	antiphase_hc_ios.wav	3	6	2	noise_calib_stim_LEFT.wav	1	22	blb_dichoticlistening_ka-ka.mp3	ka	ka	0	left
6.6.1	win	2023-07-10	16:15:43	16:42:30	1604851	6237ca974050879378c8fea8	2	1	practice_slash	26	practice_slash	17	stimuli_distractor_trianglediamonds.svg	stimuli_distractor_diamondtriangles.svg	16	no	0	1	2000	6	2	antiphase_hc_ios.wav	3	6	2	noise_calib_stim_LEFT.wav	1	22	blb_dichoticlistening_ka-ka.mp3	ka	ka	0	left
6.6.1	win	2023-07-10	16:15:43	16:42:30	1604851	6237ca974050879378c8fea8	2	1	practice_slash	26	advance_on_keypress_SLASH	18	stimuli_distractor_trianglediamonds.svg	stimuli_distractor_diamondtriangles.svg	16	no	57	0	522	6	2	antiphase_hc_ios.wav	3	6	2	noise_calib_stim_LEFT.wav	1	22	blb_dichoticlistening_ka-ka.mp3	ka	ka	0	left
6.6.1	win	2023-07-10	16:15:43	16:42:34	1609016	6237ca974050879378c8fea8	2	1	practice_slash	26	practice_slash	19	stimuli_distractor_trianglediamonds.svg	stimuli_target_squarediamonds.svg	11	yes	0	0	2000	6	2	antiphase_hc_ios.wav	3	6	2	noise_calib_stim_LEFT.wav	1	22	blb_dichoticlistening_ka-ka.mp3	ka	ka	0	left
