build	computer.platform	date	time	timestamp	time_elapsed_ms	subject	group	session	blockcode	blocknum	trialcode	trialnum	stimulus_left	stimulus_right	stim_index	target_present	response	correct	latency	headphonecheck_countTestTrials	headphonecheck_index	headphonecheck_testSound	headphonecheck_correctResponse	stereocheck_countTestTrials	stereocheck_index	stereocheck_testSound	stereocheck_correctResponse	DL_index	DL_soundfile	DL_leftSound	DL_rightSound	DL_dualSound	DL_choice
6.6.1	win	2023-06-01	23:20:35	23:23:27	169309	60bd4bfc88b646e72d772977	4	1	practice_z	5	practice_z	1	stimuli_distractor_trianglediamonds.svg	stimuli_distractor_trianglediamonds.svg	15	no	44	0	1021	0	0			0	0			1				0	
6.6.1	win	2023-06-01	23:20:35	23:23:27	169309	60bd4bfc88b646e72d772977	4	1	practice_z	5	advance_on_keypress_ZEE	2	stimuli_distractor_trianglediamonds.svg	stimuli_distractor_trianglediamonds.svg	15	no	57	0	1374	0	0			0	0			1				0	
6.6.1	win	2023-06-01	23:20:35	23:23:31	172789	60bd4bfc88b646e72d772977	4	1	practice_z	5	practice_z	3	stimuli_distractor_diamondtriangles.svg	stimuli_target_rectangletriangles.svg	7	yes	44	1	440	0	0			0	0			1				0	
6.6.1	win	2023-06-01	23:20:35	23:23:31	172789	60bd4bfc88b646e72d772977	4	1	practice_z	5	advance_on_keypress_ZEE	4	stimuli_distractor_diamondtriangles.svg	stimuli_target_rectangletriangles.svg	7	yes	57	0	648	0	0			0	0			1				0	
6.6.1	win	2023-06-01	23:20:35	23:23:33	175505	60bd4bfc88b646e72d772977	4	1	practice_z	5	practice_z	5	stimuli_target_squarediamonds.svg	stimuli_distractor_trianglediamonds.svg	5	yes	44	1	410	0	0			0	0			1				0	
6.6.1	win	2023-06-01	23:20:35	23:23:33	175505	60bd4bfc88b646e72d772977	4	1	practice_z	5	advance_on_keypress_ZEE	6	stimuli_target_squarediamonds.svg	stimuli_distractor_trianglediamonds.svg	5	yes	57	0	521	0	0			0	0			1				0	
6.6.1	win	2023-06-01	23:20:35	23:23:36	177976	60bd4bfc88b646e72d772977	4	1	practice_z	5	practice_z	7	stimuli_target_diamondsquares.svg	stimuli_distractor_trianglediamonds.svg	6	yes	44	1	301	0	0			0	0			1				0	
6.6.1	win	2023-06-01	23:20:35	23:23:36	177976	60bd4bfc88b646e72d772977	4	1	practice_z	5	advance_on_keypress_ZEE	8	stimuli_target_diamondsquares.svg	stimuli_distractor_trianglediamonds.svg	6	yes	57	0	490	0	0			0	0			1				0	
6.6.1	win	2023-06-01	23:20:35	23:23:40	182104	60bd4bfc88b646e72d772977	4	1	practice_z	5	practice_z	9	stimuli_target_diamondsquares.svg	stimuli_distractor_diamondtriangles.svg	3	yes	0	0	2000	0	0			0	0			1				0	
6.6.1	win	2023-06-01	23:20:35	23:23:40	182104	60bd4bfc88b646e72d772977	4	1	practice_z	5	advance_on_keypress_ZEE	10	stimuli_target_diamondsquares.svg	stimuli_distractor_diamondtriangles.svg	3	yes	57	0	779	0	0			0	0			1				0	
6.6.1	win	2023-06-01	23:20:35	23:23:43	185046	60bd4bfc88b646e72d772977	4	1	practice_z	5	practice_z	11	stimuli_distractor_trianglediamonds.svg	stimuli_target_squarediamonds.svg	11	yes	44	1	516	0	0			0	0			1				0	
6.6.1	win	2023-06-01	23:20:35	23:23:43	185046	60bd4bfc88b646e72d772977	4	1	practice_z	5	advance_on_keypress_ZEE	12	stimuli_distractor_trianglediamonds.svg	stimuli_target_squarediamonds.svg	11	yes	57	0	521	0	0			0	0			1				0	
6.6.1	win	2023-06-01	23:20:35	23:23:46	187706	60bd4bfc88b646e72d772977	4	1	practice_z	5	practice_z	13	stimuli_target_rectanglediamonds.svg	stimuli_distractor_trianglediamonds.svg	4	yes	44	1	496	0	0			0	0			1				0	
6.6.1	win	2023-06-01	23:20:35	23:23:46	187706	60bd4bfc88b646e72d772977	4	1	practice_z	5	advance_on_keypress_ZEE	14	stimuli_target_rectanglediamonds.svg	stimuli_distractor_trianglediamonds.svg	4	yes	57	0	399685	0	0			0	0			1				0	
6.6.1	win	2023-06-01	23:20:35	23:30:27	589547	60bd4bfc88b646e72d772977	4	1	practice_z	5	practice_z	15	stimuli_distractor_diamondtriangles.svg	stimuli_distractor_trianglediamonds.svg	14	no	44	0	496	0	0			0	0			1				0	
6.6.1	win	2023-06-01	23:20:35	23:30:27	589547	60bd4bfc88b646e72d772977	4	1	practice_z	5	advance_on_keypress_ZEE	16	stimuli_distractor_diamondtriangles.svg	stimuli_distractor_trianglediamonds.svg	14	no	57	0	550	0	0			0	0			1				0	
6.6.1	win	2023-06-01	23:20:35	23:30:30	592242	60bd4bfc88b646e72d772977	4	1	practice_z	5	practice_z	17	stimuli_target_squarediamonds.svg	stimuli_distractor_diamondtriangles.svg	2	yes	44	1	494	0	0			0	0			1				0	
6.6.1	win	2023-06-01	23:20:35	23:30:30	592242	60bd4bfc88b646e72d772977	4	1	practice_z	5	advance_on_keypress_ZEE	18	stimuli_target_squarediamonds.svg	stimuli_distractor_diamondtriangles.svg	2	yes	57	0	397	0	0			0	0			1				0	
6.6.1	win	2023-06-01	23:20:35	23:30:32	594600	60bd4bfc88b646e72d772977	4	1	practice_z	5	practice_z	19	stimuli_target_rectanglediamonds.svg	stimuli_distractor_diamondtriangles.svg	1	yes	44	1	306	0	0			0	0			1				0	
6.6.1	win	2023-06-01	23:20:35	23:30:32	594600	60bd4bfc88b646e72d772977	4	1	practice_z	5	advance_on_keypress_ZEE	20	stimuli_target_rectanglediamonds.svg	stimuli_distractor_diamondtriangles.svg	1	yes	57	0	372	0	0			0	0			1				0	
6.6.1	win	2023-06-01	23:20:35	23:30:36	598624	60bd4bfc88b646e72d772977	4	1	practice_z	5	practice_z	21	stimuli_distractor_diamondtriangles.svg	stimuli_target_trianglerectangles.svg	9	yes	0	0	2000	0	0			0	0			1				0	
6.6.1	win	2023-06-01	23:20:35	23:30:36	598624	60bd4bfc88b646e72d772977	4	1	practice_z	5	advance_on_keypress_ZEE	22	stimuli_distractor_diamondtriangles.svg	stimuli_target_trianglerectangles.svg	9	yes	57	0	409	0	0			0	0			1				0	
6.6.1	win	2023-06-01	23:20:35	23:30:41	602685	60bd4bfc88b646e72d772977	4	1	practice_z	5	practice_z	23	stimuli_distractor_diamondtriangles.svg	stimuli_distractor_diamondtriangles.svg	13	no	0	1	2000	0	0			0	0			1				0	
6.6.1	win	2023-06-01	23:20:35	23:30:41	602685	60bd4bfc88b646e72d772977	4	1	practice_z	5	advance_on_keypress_ZEE	24	stimuli_distractor_diamondtriangles.svg	stimuli_distractor_diamondtriangles.svg	13	no	57	0	458	0	0			0	0			1				0	
6.6.1	win	2023-06-01	23:20:35	23:30:43	605356	60bd4bfc88b646e72d772977	4	1	practice_z	5	practice_z	25	stimuli_distractor_diamondtriangles.svg	stimuli_target_diamondrectangles.svg	8	yes	44	1	561	0	0			0	0			1				0	
6.6.1	win	2023-06-01	23:20:35	23:30:43	605356	60bd4bfc88b646e72d772977	4	1	practice_z	5	advance_on_keypress_ZEE	26	stimuli_distractor_diamondtriangles.svg	stimuli_target_diamondrectangles.svg	8	yes	57	0	379	0	0			0	0			1				0	
6.6.1	win	2023-06-01	23:20:35	23:30:46	608303	60bd4bfc88b646e72d772977	4	1	practice_z	5	practice_z	27	stimuli_distractor_trianglediamonds.svg	stimuli_distractor_diamondtriangles.svg	16	no	44	0	912	0	0			0	0			1				0	
6.6.1	win	2023-06-01	23:20:35	23:30:46	608303	60bd4bfc88b646e72d772977	4	1	practice_z	5	advance_on_keypress_ZEE	28	stimuli_distractor_trianglediamonds.svg	stimuli_distractor_diamondtriangles.svg	16	no	57	0	448	0	0			0	0			1				0	
6.6.1	win	2023-06-01	23:20:35	23:30:49	611112	60bd4bfc88b646e72d772977	4	1	practice_z	5	practice_z	29	stimuli_distractor_trianglediamonds.svg	stimuli_target_rectanglediamonds.svg	10	yes	44	1	709	0	0			0	0			1				0	
6.6.1	win	2023-06-01	23:20:35	23:30:49	611112	60bd4bfc88b646e72d772977	4	1	practice_z	5	advance_on_keypress_ZEE	30	stimuli_distractor_trianglediamonds.svg	stimuli_target_rectanglediamonds.svg	10	yes	57	0	667	0	0			0	0			1				0	
6.6.1	win	2023-06-01	23:20:35	23:30:52	614419	60bd4bfc88b646e72d772977	4	1	practice_z	5	practice_z	31	stimuli_distractor_trianglediamonds.svg	stimuli_target_diamondrectangles.svg	12	yes	44	1	987	0	0			0	0			1				0	
6.6.1	win	2023-06-01	23:20:35	23:30:52	614419	60bd4bfc88b646e72d772977	4	1	practice_z	5	advance_on_keypress_ZEE	32	stimuli_distractor_trianglediamonds.svg	stimuli_target_diamondrectangles.svg	12	yes	57	0	365	0	0			0	0			1				0	
6.6.1	win	2023-06-01	23:20:35	23:34:04	805975	60bd4bfc88b646e72d772977	4	1	main_z	7	main_z	1	stimuli_distractor_diamondtriangles.svg	stimuli_target_trianglesquares.svg	30	yes	44	1	596	0	0			0	0			1				0	
6.6.1	win	2023-06-01	23:20:35	23:34:04	805975	60bd4bfc88b646e72d772977	4	1	main_z	7	advance_on_keypress_ZEE	2	stimuli_distractor_diamondtriangles.svg	stimuli_target_trianglesquares.svg	30	yes	57	0	1494	0	0			0	0			1				0	
6.6.1	win	2023-06-01	23:20:35	23:34:08	810124	60bd4bfc88b646e72d772977	4	1	main_z	7	main_z	3	stimuli_distractor_diamondtriangles.svg	stimuli_distractor_diamondtriangles.svg	40	no	0	1	2000	0	0			0	0			1				0	
6.6.1	win	2023-06-01	23:20:35	23:34:08	810124	60bd4bfc88b646e72d772977	4	1	main_z	7	advance_on_keypress_ZEE	4	stimuli_distractor_diamondtriangles.svg	stimuli_distractor_diamondtriangles.svg	40	no	57	0	327	0	0			0	0			1				0	
6.6.1	win	2023-06-01	23:20:35	23:34:11	813103	60bd4bfc88b646e72d772977	4	1	main_z	7	main_z	5	stimuli_distractor_trianglediamonds.svg	stimuli_distractor_diamondtriangles.svg	36	no	0	1	2000	0	0			0	0			1				0	
6.6.1	win	2023-06-01	23:20:35	23:34:11	813103	60bd4bfc88b646e72d772977	4	1	main_z	7	advance_on_keypress_ZEE	6	stimuli_distractor_trianglediamonds.svg	stimuli_distractor_diamondtriangles.svg	36	no	57	0	755	0	0			0	0			1				0	
6.6.1	win	2023-06-01	23:20:35	23:34:13	815266	60bd4bfc88b646e72d772977	4	1	main_z	7	main_z	7	stimuli_target_squaretriangles.svg	stimuli_distractor_trianglediamonds.svg	3	yes	44	1	767	0	0			0	0			1				0	
6.6.1	win	2023-06-01	23:20:35	23:34:13	815266	60bd4bfc88b646e72d772977	4	1	main_z	7	advance_on_keypress_ZEE	8	stimuli_target_squaretriangles.svg	stimuli_distractor_trianglediamonds.svg	3	yes	57	0	592	0	0			0	0			1				0	
6.6.1	win	2023-06-01	23:20:35	23:34:15	817027	60bd4bfc88b646e72d772977	4	1	main_z	7	main_z	9	stimuli_target_squarediamonds.svg	stimuli_distractor_diamondtriangles.svg	8	yes	44	1	532	0	0			0	0			1				0	
6.6.1	win	2023-06-01	23:20:35	23:34:15	817027	60bd4bfc88b646e72d772977	4	1	main_z	7	advance_on_keypress_ZEE	10	stimuli_target_squarediamonds.svg	stimuli_distractor_diamondtriangles.svg	8	yes	57	0	486	0	0			0	0			1				0	
6.6.1	win	2023-06-01	23:20:35	23:34:16	818580	60bd4bfc88b646e72d772977	4	1	main_z	7	main_z	11	stimuli_target_rectangletriangles.svg	stimuli_distractor_diamondtriangles.svg	5	yes	44	1	421	0	0			0	0			1				0	
6.6.1	win	2023-06-01	23:20:35	23:34:16	818580	60bd4bfc88b646e72d772977	4	1	main_z	7	advance_on_keypress_ZEE	12	stimuli_target_rectangletriangles.svg	stimuli_distractor_diamondtriangles.svg	5	yes	57	0	444	0	0			0	0			1				0	
6.6.1	win	2023-06-01	23:20:35	23:34:18	820147	60bd4bfc88b646e72d772977	4	1	main_z	7	main_z	13	stimuli_distractor_diamondtriangles.svg	stimuli_target_squarediamonds.svg	16	yes	44	1	473	0	0			0	0			1				0	
6.6.1	win	2023-06-01	23:20:35	23:34:18	820147	60bd4bfc88b646e72d772977	4	1	main_z	7	advance_on_keypress_ZEE	14	stimuli_distractor_diamondtriangles.svg	stimuli_target_squarediamonds.svg	16	yes	57	0	432	0	0			0	0			1				0	
6.6.1	win	2023-06-01	23:20:35	23:34:19	821659	60bd4bfc88b646e72d772977	4	1	main_z	7	main_z	15	stimuli_target_squarediamonds.svg	stimuli_distractor_trianglediamonds.svg	4	yes	44	1	438	0	0			0	0			1				0	
6.6.1	win	2023-06-01	23:20:35	23:34:19	821659	60bd4bfc88b646e72d772977	4	1	main_z	7	advance_on_keypress_ZEE	16	stimuli_target_squarediamonds.svg	stimuli_distractor_trianglediamonds.svg	4	yes	57	0	481	0	0			0	0			1				0	
6.6.1	win	2023-06-01	23:20:35	23:34:21	823204	60bd4bfc88b646e72d772977	4	1	main_z	7	main_z	17	stimuli_target_rectangletriangles.svg	stimuli_distractor_trianglediamonds.svg	1	yes	44	1	419	0	0			0	0			1				0	
6.6.1	win	2023-06-01	23:20:35	23:34:21	823204	60bd4bfc88b646e72d772977	4	1	main_z	7	advance_on_keypress_ZEE	18	stimuli_target_rectangletriangles.svg	stimuli_distractor_trianglediamonds.svg	1	yes	57	0	419	0	0			0	0			1				0	
6.6.1	win	2023-06-01	23:20:35	23:34:23	824737	60bd4bfc88b646e72d772977	4	1	main_z	7	main_z	19	stimuli_distractor_diamondtriangles.svg	stimuli_target_diamondsquares.svg	32	yes	44	1	469	0	0			0	0			1				0	
6.6.1	win	2023-06-01	23:20:35	23:34:23	824737	60bd4bfc88b646e72d772977	4	1	main_z	7	advance_on_keypress_ZEE	20	stimuli_distractor_diamondtriangles.svg	stimuli_target_diamondsquares.svg	32	yes	57	0	924	0	0			0	0			1				0	
6.6.1	win	2023-06-01	23:20:35	23:34:25	826795	60bd4bfc88b646e72d772977	4	1	main_z	7	main_z	21	stimuli_distractor_trianglediamonds.svg	stimuli_target_squarediamonds.svg	12	yes	44	1	498	0	0			0	0			1				0	
6.6.1	win	2023-06-01	23:20:35	23:34:25	826795	60bd4bfc88b646e72d772977	4	1	main_z	7	advance_on_keypress_ZEE	22	stimuli_distractor_trianglediamonds.svg	stimuli_target_squarediamonds.svg	12	yes	57	0	501	0	0			0	0			1				0	
6.6.1	win	2023-06-01	23:20:35	23:34:27	828770	60bd4bfc88b646e72d772977	4	1	main_z	7	main_z	23	stimuli_target_trianglerectangles.svg	stimuli_distractor_trianglediamonds.svg	17	yes	44	1	824	0	0			0	0			1				0	
6.6.1	win	2023-06-01	23:20:35	23:34:27	828770	60bd4bfc88b646e72d772977	4	1	main_z	7	advance_on_keypress_ZEE	24	stimuli_target_trianglerectangles.svg	stimuli_distractor_trianglediamonds.svg	17	yes	57	0	459	0	0			0	0			1				0	
6.6.1	win	2023-06-01	23:20:35	23:34:28	830554	60bd4bfc88b646e72d772977	4	1	main_z	7	main_z	25	stimuli_distractor_trianglediamonds.svg	stimuli_target_trianglerectangles.svg	25	yes	44	1	695	0	0			0	0			1				0	
6.6.1	win	2023-06-01	23:20:35	23:34:28	830554	60bd4bfc88b646e72d772977	4	1	main_z	7	advance_on_keypress_ZEE	26	stimuli_distractor_trianglediamonds.svg	stimuli_target_trianglerectangles.svg	25	yes	57	0	480	0	0			0	0			1				0	
6.6.1	win	2023-06-01	23:20:35	23:34:31	832791	60bd4bfc88b646e72d772977	4	1	main_z	7	main_z	27	stimuli_target_rectanglediamonds.svg	stimuli_distractor_trianglediamonds.svg	2	yes	44	1	1103	0	0			0	0			1				0	
6.6.1	win	2023-06-01	23:20:35	23:34:31	832791	60bd4bfc88b646e72d772977	4	1	main_z	7	advance_on_keypress_ZEE	28	stimuli_target_rectanglediamonds.svg	stimuli_distractor_trianglediamonds.svg	2	yes	57	0	420	0	0			0	0			1				0	
6.6.1	win	2023-06-01	23:20:35	23:34:34	835853	60bd4bfc88b646e72d772977	4	1	main_z	7	main_z	29	stimuli_distractor_diamondtriangles.svg	stimuli_distractor_trianglediamonds.svg	37	no	0	1	2000	0	0			0	0			1				0	
6.6.1	win	2023-06-01	23:20:35	23:34:34	835853	60bd4bfc88b646e72d772977	4	1	main_z	7	advance_on_keypress_ZEE	30	stimuli_distractor_diamondtriangles.svg	stimuli_distractor_trianglediamonds.svg	37	no	57	0	391	0	0			0	0			1				0	
6.6.1	win	2023-06-01	23:20:35	23:34:35	837374	60bd4bfc88b646e72d772977	4	1	main_z	7	main_z	31	stimuli_target_diamondrectangles.svg	stimuli_distractor_trianglediamonds.svg	19	yes	44	1	492	0	0			0	0			1				0	
6.6.1	win	2023-06-01	23:20:35	23:34:35	837374	60bd4bfc88b646e72d772977	4	1	main_z	7	advance_on_keypress_ZEE	32	stimuli_target_diamondrectangles.svg	stimuli_distractor_trianglediamonds.svg	19	yes	57	0	612	0	0			0	0			1				0	
6.6.1	win	2023-06-01	23:20:35	23:34:37	839205	60bd4bfc88b646e72d772977	4	1	main_z	7	main_z	33	stimuli_target_diamondrectangles.svg	stimuli_distractor_diamondtriangles.svg	23	yes	44	1	559	0	0			0	0			1				0	
6.6.1	win	2023-06-01	23:20:35	23:34:37	839205	60bd4bfc88b646e72d772977	4	1	main_z	7	advance_on_keypress_ZEE	34	stimuli_target_diamondrectangles.svg	stimuli_distractor_diamondtriangles.svg	23	yes	57	0	1267	0	0			0	0			1				0	
6.6.1	win	2023-06-01	23:20:35	23:34:39	841537	60bd4bfc88b646e72d772977	4	1	main_z	7	main_z	35	stimuli_distractor_trianglediamonds.svg	stimuli_target_trianglesquares.svg	26	yes	44	1	413	0	0			0	0			1				0	
6.6.1	win	2023-06-01	23:20:35	23:34:39	841537	60bd4bfc88b646e72d772977	4	1	main_z	7	advance_on_keypress_ZEE	36	stimuli_distractor_trianglediamonds.svg	stimuli_target_trianglesquares.svg	26	yes	57	0	492	0	0			0	0			1				0	
6.6.1	win	2023-06-01	23:20:35	23:34:41	843161	60bd4bfc88b646e72d772977	4	1	main_z	7	main_z	37	stimuli_distractor_diamondtriangles.svg	stimuli_target_diamondrectangles.svg	31	yes	44	1	487	0	0			0	0			1				0	
6.6.1	win	2023-06-01	23:20:35	23:34:41	843161	60bd4bfc88b646e72d772977	4	1	main_z	7	advance_on_keypress_ZEE	38	stimuli_distractor_diamondtriangles.svg	stimuli_target_diamondrectangles.svg	31	yes	57	0	454	0	0			0	0			1				0	
6.6.1	win	2023-06-01	23:20:35	23:34:43	844762	60bd4bfc88b646e72d772977	4	1	main_z	7	main_z	39	stimuli_target_trianglesquares.svg	stimuli_distractor_trianglediamonds.svg	18	yes	44	1	500	0	0			0	0			1				0	
6.6.1	win	2023-06-01	23:20:35	23:34:43	844762	60bd4bfc88b646e72d772977	4	1	main_z	7	advance_on_keypress_ZEE	40	stimuli_target_trianglesquares.svg	stimuli_distractor_trianglediamonds.svg	18	yes	57	0	458	0	0			0	0			1				0	
6.6.1	win	2023-06-01	23:20:35	23:34:45	846747	60bd4bfc88b646e72d772977	4	1	main_z	7	main_z	41	stimuli_target_rectanglediamonds.svg	stimuli_distractor_diamondtriangles.svg	6	yes	44	1	894	0	0			0	0			1				0	
6.6.1	win	2023-06-01	23:20:35	23:34:45	846747	60bd4bfc88b646e72d772977	4	1	main_z	7	advance_on_keypress_ZEE	42	stimuli_target_rectanglediamonds.svg	stimuli_distractor_diamondtriangles.svg	6	yes	57	0	394	0	0			0	0			1				0	
6.6.1	win	2023-06-01	23:20:35	23:34:46	848235	60bd4bfc88b646e72d772977	4	1	main_z	7	main_z	43	stimuli_target_diamondsquares.svg	stimuli_distractor_trianglediamonds.svg	20	yes	44	1	435	0	0			0	0			1				0	
6.6.1	win	2023-06-01	23:20:35	23:34:46	848235	60bd4bfc88b646e72d772977	4	1	main_z	7	advance_on_keypress_ZEE	44	stimuli_target_diamondsquares.svg	stimuli_distractor_trianglediamonds.svg	20	yes	57	0	405	0	0			0	0			1				0	
6.6.1	win	2023-06-01	23:20:35	23:34:47	849654	60bd4bfc88b646e72d772977	4	1	main_z	7	main_z	45	stimuli_distractor_diamondtriangles.svg	stimuli_target_trianglerectangles.svg	29	yes	44	1	370	0	0			0	0			1				0	
6.6.1	win	2023-06-01	23:20:35	23:34:47	849654	60bd4bfc88b646e72d772977	4	1	main_z	7	advance_on_keypress_ZEE	46	stimuli_distractor_diamondtriangles.svg	stimuli_target_trianglerectangles.svg	29	yes	57	0	465	0	0			0	0			1				0	
6.6.1	win	2023-06-01	23:20:35	23:34:51	852761	60bd4bfc88b646e72d772977	4	1	main_z	7	main_z	47	stimuli_distractor_trianglediamonds.svg	stimuli_distractor_trianglediamonds.svg	33	no	0	1	2000	0	0			0	0			1				0	
6.6.1	win	2023-06-01	23:20:35	23:34:51	852761	60bd4bfc88b646e72d772977	4	1	main_z	7	advance_on_keypress_ZEE	48	stimuli_distractor_trianglediamonds.svg	stimuli_distractor_trianglediamonds.svg	33	no	57	0	623	0	0			0	0			1				0	
6.6.1	win	2023-06-01	23:20:35	23:34:52	854587	60bd4bfc88b646e72d772977	4	1	main_z	7	main_z	49	stimuli_distractor_diamondtriangles.svg	stimuli_target_squaretriangles.svg	15	yes	44	1	563	0	0			0	0			1				0	
6.6.1	win	2023-06-01	23:20:35	23:34:52	854587	60bd4bfc88b646e72d772977	4	1	main_z	7	advance_on_keypress_ZEE	50	stimuli_distractor_diamondtriangles.svg	stimuli_target_squaretriangles.svg	15	yes	57	0	417	0	0			0	0			1				0	
6.6.1	win	2023-06-01	23:20:35	23:34:54	856145	60bd4bfc88b646e72d772977	4	1	main_z	7	main_z	51	stimuli_distractor_trianglediamonds.svg	stimuli_target_diamondrectangles.svg	27	yes	44	1	490	0	0			0	0			1				0	
6.6.1	win	2023-06-01	23:20:35	23:34:54	856145	60bd4bfc88b646e72d772977	4	1	main_z	7	advance_on_keypress_ZEE	52	stimuli_distractor_trianglediamonds.svg	stimuli_target_diamondrectangles.svg	27	yes	57	0	423	0	0			0	0			1				0	
6.6.1	win	2023-06-01	23:20:35	23:34:56	857709	60bd4bfc88b646e72d772977	4	1	main_z	7	main_z	53	stimuli_target_squaretriangles.svg	stimuli_distractor_diamondtriangles.svg	7	yes	44	1	503	0	0			0	0			1				0	
6.6.1	win	2023-06-01	23:20:35	23:34:56	857709	60bd4bfc88b646e72d772977	4	1	main_z	7	advance_on_keypress_ZEE	54	stimuli_target_squaretriangles.svg	stimuli_distractor_diamondtriangles.svg	7	yes	57	0	461	0	0			0	0			1				0	
6.6.1	win	2023-06-01	23:20:35	23:34:59	860816	60bd4bfc88b646e72d772977	4	1	main_z	7	main_z	55	stimuli_target_trianglesquares.svg	stimuli_distractor_diamondtriangles.svg	22	yes	0	0	2000	0	0			0	0			1				0	
6.6.1	win	2023-06-01	23:20:35	23:34:59	860816	60bd4bfc88b646e72d772977	4	1	main_z	7	advance_on_keypress_ZEE	56	stimuli_target_trianglesquares.svg	stimuli_distractor_diamondtriangles.svg	22	yes	57	0	369	0	0			0	0			1				0	
6.6.1	win	2023-06-01	23:20:35	23:35:00	862485	60bd4bfc88b646e72d772977	4	1	main_z	7	main_z	57	stimuli_target_trianglerectangles.svg	stimuli_distractor_diamondtriangles.svg	21	yes	44	1	656	0	0			0	0			1				0	
6.6.1	win	2023-06-01	23:20:35	23:35:00	862485	60bd4bfc88b646e72d772977	4	1	main_z	7	advance_on_keypress_ZEE	58	stimuli_target_trianglerectangles.svg	stimuli_distractor_diamondtriangles.svg	21	yes	57	0	447	0	0			0	0			1				0	
6.6.1	win	2023-06-01	23:20:35	23:35:02	864193	60bd4bfc88b646e72d772977	4	1	main_z	7	main_z	59	stimuli_distractor_trianglediamonds.svg	stimuli_target_diamondsquares.svg	28	yes	44	1	617	0	0			0	0			1				0	
6.6.1	win	2023-06-01	23:20:35	23:35:02	864193	60bd4bfc88b646e72d772977	4	1	main_z	7	advance_on_keypress_ZEE	60	stimuli_distractor_trianglediamonds.svg	stimuli_target_diamondsquares.svg	28	yes	57	0	378	0	0			0	0			1				0	
6.6.1	win	2023-06-01	23:20:35	23:35:05	867223	60bd4bfc88b646e72d772977	4	1	main_z	7	main_z	61	stimuli_distractor_diamondtriangles.svg	stimuli_target_rectangletriangles.svg	13	yes	0	0	2000	0	0			0	0			1				0	
6.6.1	win	2023-06-01	23:20:35	23:35:05	867223	60bd4bfc88b646e72d772977	4	1	main_z	7	advance_on_keypress_ZEE	62	stimuli_distractor_diamondtriangles.svg	stimuli_target_rectangletriangles.svg	13	yes	57	0	584	0	0			0	0			1				0	
6.6.1	win	2023-06-01	23:20:35	23:35:07	868970	60bd4bfc88b646e72d772977	4	1	main_z	7	main_z	63	stimuli_target_diamondsquares.svg	stimuli_distractor_diamondtriangles.svg	24	yes	44	1	518	0	0			0	0			1				0	
6.6.1	win	2023-06-01	23:20:35	23:35:07	868970	60bd4bfc88b646e72d772977	4	1	main_z	7	advance_on_keypress_ZEE	64	stimuli_target_diamondsquares.svg	stimuli_distractor_diamondtriangles.svg	24	yes	57	0	407	0	0			0	0			1				0	
6.6.1	win	2023-06-01	23:20:35	23:35:10	872016	60bd4bfc88b646e72d772977	4	1	main_z	7	main_z	65	stimuli_distractor_diamondtriangles.svg	stimuli_distractor_diamondtriangles.svg	39	no	0	1	2000	0	0			0	0			1				0	
6.6.1	win	2023-06-01	23:20:35	23:35:10	872016	60bd4bfc88b646e72d772977	4	1	main_z	7	advance_on_keypress_ZEE	66	stimuli_distractor_diamondtriangles.svg	stimuli_distractor_diamondtriangles.svg	39	no	57	0	615	0	0			0	0			1				0	
6.6.1	win	2023-06-01	23:20:35	23:35:12	873698	60bd4bfc88b646e72d772977	4	1	main_z	7	main_z	67	stimuli_distractor_trianglediamonds.svg	stimuli_target_rectanglediamonds.svg	10	yes	44	1	420	0	0			0	0			1				0	
6.6.1	win	2023-06-01	23:20:35	23:35:12	873698	60bd4bfc88b646e72d772977	4	1	main_z	7	advance_on_keypress_ZEE	68	stimuli_distractor_trianglediamonds.svg	stimuli_target_rectanglediamonds.svg	10	yes	57	0	430	0	0			0	0			1				0	
6.6.1	win	2023-06-01	23:20:35	23:35:13	875476	60bd4bfc88b646e72d772977	4	1	main_z	7	main_z	69	stimuli_distractor_diamondtriangles.svg	stimuli_distractor_trianglediamonds.svg	38	no	44	0	699	0	0			0	0			1				0	
6.6.1	win	2023-06-01	23:20:35	23:35:13	875476	60bd4bfc88b646e72d772977	4	1	main_z	7	advance_on_keypress_ZEE	70	stimuli_distractor_diamondtriangles.svg	stimuli_distractor_trianglediamonds.svg	38	no	57	0	359	0	0			0	0			1				0	
6.6.1	win	2023-06-01	23:20:35	23:35:16	878473	60bd4bfc88b646e72d772977	4	1	main_z	7	main_z	71	stimuli_distractor_trianglediamonds.svg	stimuli_distractor_trianglediamonds.svg	34	no	0	1	2000	0	0			0	0			1				0	
6.6.1	win	2023-06-01	23:20:35	23:35:16	878473	60bd4bfc88b646e72d772977	4	1	main_z	7	advance_on_keypress_ZEE	72	stimuli_distractor_trianglediamonds.svg	stimuli_distractor_trianglediamonds.svg	34	no	57	0	429	0	0			0	0			1				0	
6.6.1	win	2023-06-01	23:20:35	23:35:18	880169	60bd4bfc88b646e72d772977	4	1	main_z	7	main_z	73	stimuli_distractor_trianglediamonds.svg	stimuli_target_rectangletriangles.svg	9	yes	44	1	617	0	0			0	0			1				0	
6.6.1	win	2023-06-01	23:20:35	23:35:18	880169	60bd4bfc88b646e72d772977	4	1	main_z	7	advance_on_keypress_ZEE	74	stimuli_distractor_trianglediamonds.svg	stimuli_target_rectangletriangles.svg	9	yes	57	0	388	0	0			0	0			1				0	
6.6.1	win	2023-06-01	23:20:35	23:35:20	881719	60bd4bfc88b646e72d772977	4	1	main_z	7	main_z	75	stimuli_distractor_trianglediamonds.svg	stimuli_target_squaretriangles.svg	11	yes	44	1	520	0	0			0	0			1				0	
6.6.1	win	2023-06-01	23:20:35	23:35:20	881719	60bd4bfc88b646e72d772977	4	1	main_z	7	advance_on_keypress_ZEE	76	stimuli_distractor_trianglediamonds.svg	stimuli_target_squaretriangles.svg	11	yes	57	0	486	0	0			0	0			1				0	
6.6.1	win	2023-06-01	23:20:35	23:35:21	883321	60bd4bfc88b646e72d772977	4	1	main_z	7	main_z	77	stimuli_distractor_trianglediamonds.svg	stimuli_distractor_diamondtriangles.svg	35	no	44	0	473	0	0			0	0			1				0	
6.6.1	win	2023-06-01	23:20:35	23:35:21	883321	60bd4bfc88b646e72d772977	4	1	main_z	7	advance_on_keypress_ZEE	78	stimuli_distractor_trianglediamonds.svg	stimuli_distractor_diamondtriangles.svg	35	no	57	0	385	0	0			0	0			1				0	
6.6.1	win	2023-06-01	23:20:35	23:35:23	884805	60bd4bfc88b646e72d772977	4	1	main_z	7	main_z	79	stimuli_distractor_diamondtriangles.svg	stimuli_target_rectanglediamonds.svg	14	yes	44	1	460	0	0			0	0			1				0	
6.6.1	win	2023-06-01	23:20:35	23:35:23	884805	60bd4bfc88b646e72d772977	4	1	main_z	7	advance_on_keypress_ZEE	80	stimuli_distractor_diamondtriangles.svg	stimuli_target_rectanglediamonds.svg	14	yes	57	0	410	0	0			0	0			1				0	
6.6.1	win	2023-06-01	23:20:35	23:35:24	886274	60bd4bfc88b646e72d772977	4	1	main_z	7	main_z	81	stimuli_target_rectangletriangles.svg	stimuli_distractor_diamondtriangles.svg	5	yes	44	1	399	0	0			0	0			1				0	
6.6.1	win	2023-06-01	23:20:35	23:35:24	886274	60bd4bfc88b646e72d772977	4	1	main_z	7	advance_on_keypress_ZEE	82	stimuli_target_rectangletriangles.svg	stimuli_distractor_diamondtriangles.svg	5	yes	57	0	452	0	0			0	0			1				0	
6.6.1	win	2023-06-01	23:20:35	23:35:26	887790	60bd4bfc88b646e72d772977	4	1	main_z	7	main_z	83	stimuli_target_diamondsquares.svg	stimuli_distractor_trianglediamonds.svg	20	yes	44	1	416	0	0			0	0			1				0	
6.6.1	win	2023-06-01	23:20:35	23:35:26	887790	60bd4bfc88b646e72d772977	4	1	main_z	7	advance_on_keypress_ZEE	84	stimuli_target_diamondsquares.svg	stimuli_distractor_trianglediamonds.svg	20	yes	57	0	430	0	0			0	0			1				0	
6.6.1	win	2023-06-01	23:20:35	23:35:27	889254	60bd4bfc88b646e72d772977	4	1	main_z	7	main_z	85	stimuli_target_diamondrectangles.svg	stimuli_distractor_trianglediamonds.svg	19	yes	44	1	382	0	0			0	0			1				0	
6.6.1	win	2023-06-01	23:20:35	23:35:27	889254	60bd4bfc88b646e72d772977	4	1	main_z	7	advance_on_keypress_ZEE	86	stimuli_target_diamondrectangles.svg	stimuli_distractor_trianglediamonds.svg	19	yes	57	0	405	0	0			0	0			1				0	
6.6.1	win	2023-06-01	23:20:35	23:35:28	890649	60bd4bfc88b646e72d772977	4	1	main_z	7	main_z	87	stimuli_distractor_trianglediamonds.svg	stimuli_target_diamondrectangles.svg	27	yes	44	1	346	0	0			0	0			1				0	
6.6.1	win	2023-06-01	23:20:35	23:35:28	890649	60bd4bfc88b646e72d772977	4	1	main_z	7	advance_on_keypress_ZEE	88	stimuli_distractor_trianglediamonds.svg	stimuli_target_diamondrectangles.svg	27	yes	57	0	690	0	0			0	0			1				0	
6.6.1	win	2023-06-01	23:20:35	23:35:30	892224	60bd4bfc88b646e72d772977	4	1	main_z	7	main_z	89	stimuli_target_trianglerectangles.svg	stimuli_distractor_diamondtriangles.svg	21	yes	44	1	240	0	0			0	0			1				0	
6.6.1	win	2023-06-01	23:20:35	23:35:30	892224	60bd4bfc88b646e72d772977	4	1	main_z	7	advance_on_keypress_ZEE	90	stimuli_target_trianglerectangles.svg	stimuli_distractor_diamondtriangles.svg	21	yes	57	0	432	0	0			0	0			1				0	
6.6.1	win	2023-06-01	23:20:35	23:35:32	893673	60bd4bfc88b646e72d772977	4	1	main_z	7	main_z	91	stimuli_target_diamondrectangles.svg	stimuli_distractor_diamondtriangles.svg	23	yes	44	1	370	0	0			0	0			1				0	
6.6.1	win	2023-06-01	23:20:35	23:35:32	893673	60bd4bfc88b646e72d772977	4	1	main_z	7	advance_on_keypress_ZEE	92	stimuli_target_diamondrectangles.svg	stimuli_distractor_diamondtriangles.svg	23	yes	57	0	451	0	0			0	0			1				0	
6.6.1	win	2023-06-01	23:20:35	23:35:34	895987	60bd4bfc88b646e72d772977	4	1	main_z	7	main_z	93	stimuli_target_squaretriangles.svg	stimuli_distractor_trianglediamonds.svg	3	yes	44	1	1223	0	0			0	0			1				0	
6.6.1	win	2023-06-01	23:20:35	23:35:34	895987	60bd4bfc88b646e72d772977	4	1	main_z	7	advance_on_keypress_ZEE	94	stimuli_target_squaretriangles.svg	stimuli_distractor_trianglediamonds.svg	3	yes	57	0	398	0	0			0	0			1				0	
6.6.1	win	2023-06-01	23:20:35	23:35:37	899027	60bd4bfc88b646e72d772977	4	1	main_z	7	main_z	95	stimuli_distractor_trianglediamonds.svg	stimuli_distractor_diamondtriangles.svg	35	no	0	1	2000	0	0			0	0			1				0	
6.6.1	win	2023-06-01	23:20:35	23:35:37	899027	60bd4bfc88b646e72d772977	4	1	main_z	7	advance_on_keypress_ZEE	96	stimuli_distractor_trianglediamonds.svg	stimuli_distractor_diamondtriangles.svg	35	no	57	0	367	0	0			0	0			1				0	
6.6.1	win	2023-06-01	23:20:35	23:35:38	900465	60bd4bfc88b646e72d772977	4	1	main_z	7	main_z	97	stimuli_target_trianglerectangles.svg	stimuli_distractor_trianglediamonds.svg	17	yes	44	1	428	0	0			0	0			1				0	
6.6.1	win	2023-06-01	23:20:35	23:35:38	900465	60bd4bfc88b646e72d772977	4	1	main_z	7	advance_on_keypress_ZEE	98	stimuli_target_trianglerectangles.svg	stimuli_distractor_trianglediamonds.svg	17	yes	57	0	510	0	0			0	0			1				0	
6.6.1	win	2023-06-01	23:20:35	23:35:40	902095	60bd4bfc88b646e72d772977	4	1	main_z	7	main_z	99	stimuli_target_trianglesquares.svg	stimuli_distractor_diamondtriangles.svg	22	yes	44	1	475	0	0			0	0			1				0	
6.6.1	win	2023-06-01	23:20:35	23:35:40	902095	60bd4bfc88b646e72d772977	4	1	main_z	7	advance_on_keypress_ZEE	100	stimuli_target_trianglesquares.svg	stimuli_distractor_diamondtriangles.svg	22	yes	57	0	418	0	0			0	0			1				0	
6.6.1	win	2023-06-01	23:20:35	23:35:41	903652	60bd4bfc88b646e72d772977	4	1	main_z	7	main_z	101	stimuli_target_trianglesquares.svg	stimuli_distractor_trianglediamonds.svg	18	yes	44	1	484	0	0			0	0			1				0	
6.6.1	win	2023-06-01	23:20:35	23:35:41	903652	60bd4bfc88b646e72d772977	4	1	main_z	7	advance_on_keypress_ZEE	102	stimuli_target_trianglesquares.svg	stimuli_distractor_trianglediamonds.svg	18	yes	57	0	425	0	0			0	0			1				0	
6.6.1	win	2023-06-01	23:20:35	23:35:43	905241	60bd4bfc88b646e72d772977	4	1	main_z	7	main_z	103	stimuli_distractor_diamondtriangles.svg	stimuli_target_squaretriangles.svg	15	yes	44	1	526	0	0			0	0			1				0	
6.6.1	win	2023-06-01	23:20:35	23:35:43	905241	60bd4bfc88b646e72d772977	4	1	main_z	7	advance_on_keypress_ZEE	104	stimuli_distractor_diamondtriangles.svg	stimuli_target_squaretriangles.svg	15	yes	57	0	423	0	0			0	0			1				0	
6.6.1	win	2023-06-01	23:20:35	23:35:45	906824	60bd4bfc88b646e72d772977	4	1	main_z	7	main_z	105	stimuli_distractor_trianglediamonds.svg	stimuli_target_trianglerectangles.svg	25	yes	44	1	513	0	0			0	0			1				0	
6.6.1	win	2023-06-01	23:20:35	23:35:45	906824	60bd4bfc88b646e72d772977	4	1	main_z	7	advance_on_keypress_ZEE	106	stimuli_distractor_trianglediamonds.svg	stimuli_target_trianglerectangles.svg	25	yes	57	0	412	0	0			0	0			1				0	
6.6.1	win	2023-06-01	23:20:35	23:35:46	908361	60bd4bfc88b646e72d772977	4	1	main_z	7	main_z	107	stimuli_target_diamondsquares.svg	stimuli_distractor_diamondtriangles.svg	24	yes	44	1	467	0	0			0	0			1				0	
6.6.1	win	2023-06-01	23:20:35	23:35:46	908361	60bd4bfc88b646e72d772977	4	1	main_z	7	advance_on_keypress_ZEE	108	stimuli_target_diamondsquares.svg	stimuli_distractor_diamondtriangles.svg	24	yes	57	0	395	0	0			0	0			1				0	
6.6.1	win	2023-06-01	23:20:35	23:35:48	910119	60bd4bfc88b646e72d772977	4	1	main_z	7	main_z	109	stimuli_target_rectangletriangles.svg	stimuli_distractor_trianglediamonds.svg	1	yes	44	1	711	0	0			0	0			1				0	
6.6.1	win	2023-06-01	23:20:35	23:35:48	910119	60bd4bfc88b646e72d772977	4	1	main_z	7	advance_on_keypress_ZEE	110	stimuli_target_rectangletriangles.svg	stimuli_distractor_trianglediamonds.svg	1	yes	57	0	423	0	0			0	0			1				0	
6.6.1	win	2023-06-01	23:20:35	23:35:51	913189	60bd4bfc88b646e72d772977	4	1	main_z	7	main_z	111	stimuli_distractor_diamondtriangles.svg	stimuli_distractor_trianglediamonds.svg	38	no	0	1	2000	0	0			0	0			1				0	
6.6.1	win	2023-06-01	23:20:35	23:35:51	913189	60bd4bfc88b646e72d772977	4	1	main_z	7	advance_on_keypress_ZEE	112	stimuli_distractor_diamondtriangles.svg	stimuli_distractor_trianglediamonds.svg	38	no	57	0	348697	0	0			0	0			1				0	
6.6.1	win	2023-06-01	23:20:35	23:41:41	1262838	60bd4bfc88b646e72d772977	4	1	main_z	7	main_z	113	stimuli_distractor_diamondtriangles.svg	stimuli_target_squarediamonds.svg	16	yes	44	1	301	0	0			0	0			1				0	
6.6.1	win	2023-06-01	23:20:35	23:41:41	1262838	60bd4bfc88b646e72d772977	4	1	main_z	7	advance_on_keypress_ZEE	114	stimuli_distractor_diamondtriangles.svg	stimuli_target_squarediamonds.svg	16	yes	57	0	482	0	0			0	0			1				0	
6.6.1	win	2023-06-01	23:20:35	23:41:42	1264219	60bd4bfc88b646e72d772977	4	1	main_z	7	main_z	115	stimuli_distractor_trianglediamonds.svg	stimuli_target_squaretriangles.svg	11	yes	44	1	251	0	0			0	0			1				0	
6.6.1	win	2023-06-01	23:20:35	23:41:42	1264219	60bd4bfc88b646e72d772977	4	1	main_z	7	advance_on_keypress_ZEE	116	stimuli_distractor_trianglediamonds.svg	stimuli_target_squaretriangles.svg	11	yes	57	0	473	0	0			0	0			1				0	
6.6.1	win	2023-06-01	23:20:35	23:41:43	1265631	60bd4bfc88b646e72d772977	4	1	main_z	7	main_z	117	stimuli_target_squaretriangles.svg	stimuli_distractor_diamondtriangles.svg	7	yes	44	1	299	0	0			0	0			1				0	
6.6.1	win	2023-06-01	23:20:35	23:41:43	1265631	60bd4bfc88b646e72d772977	4	1	main_z	7	advance_on_keypress_ZEE	118	stimuli_target_squaretriangles.svg	stimuli_distractor_diamondtriangles.svg	7	yes	57	0	388	0	0			0	0			1				0	
6.6.1	win	2023-06-01	23:20:35	23:41:45	1266875	60bd4bfc88b646e72d772977	4	1	main_z	7	main_z	119	stimuli_target_squarediamonds.svg	stimuli_distractor_trianglediamonds.svg	4	yes	44	1	209	0	0			0	0			1				0	
6.6.1	win	2023-06-01	23:20:35	23:41:45	1266875	60bd4bfc88b646e72d772977	4	1	main_z	7	advance_on_keypress_ZEE	120	stimuli_target_squarediamonds.svg	stimuli_distractor_trianglediamonds.svg	4	yes	57	0	385	0	0			0	0			1				0	
6.6.1	win	2023-06-01	23:20:35	23:41:46	1268133	60bd4bfc88b646e72d772977	4	1	main_z	7	main_z	121	stimuli_distractor_trianglediamonds.svg	stimuli_target_trianglesquares.svg	26	yes	44	1	219	0	0			0	0			1				0	
6.6.1	win	2023-06-01	23:20:35	23:41:46	1268133	60bd4bfc88b646e72d772977	4	1	main_z	7	advance_on_keypress_ZEE	122	stimuli_distractor_trianglediamonds.svg	stimuli_target_trianglesquares.svg	26	yes	57	0	553	0	0			0	0			1				0	
6.6.1	win	2023-06-01	23:20:35	23:41:47	1269535	60bd4bfc88b646e72d772977	4	1	main_z	7	main_z	123	stimuli_distractor_trianglediamonds.svg	stimuli_target_rectanglediamonds.svg	10	yes	44	1	208	0	0			0	0			1				0	
6.6.1	win	2023-06-01	23:20:35	23:41:47	1269535	60bd4bfc88b646e72d772977	4	1	main_z	7	advance_on_keypress_ZEE	124	stimuli_distractor_trianglediamonds.svg	stimuli_target_rectanglediamonds.svg	10	yes	57	0	400	0	0			0	0			1				0	
6.6.1	win	2023-06-01	23:20:35	23:41:49	1270799	60bd4bfc88b646e72d772977	4	1	main_z	7	main_z	125	stimuli_distractor_diamondtriangles.svg	stimuli_distractor_diamondtriangles.svg	40	no	44	0	224	0	0			0	0			1				0	
6.6.1	win	2023-06-01	23:20:35	23:41:49	1270799	60bd4bfc88b646e72d772977	4	1	main_z	7	advance_on_keypress_ZEE	126	stimuli_distractor_diamondtriangles.svg	stimuli_distractor_diamondtriangles.svg	40	no	57	0	699	0	0			0	0			1				0	
6.6.1	win	2023-06-01	23:20:35	23:41:50	1272564	60bd4bfc88b646e72d772977	4	1	main_z	7	main_z	127	stimuli_distractor_diamondtriangles.svg	stimuli_target_trianglerectangles.svg	29	yes	44	1	424	0	0			0	0			1				0	
6.6.1	win	2023-06-01	23:20:35	23:41:50	1272564	60bd4bfc88b646e72d772977	4	1	main_z	7	advance_on_keypress_ZEE	128	stimuli_distractor_diamondtriangles.svg	stimuli_target_trianglerectangles.svg	29	yes	57	0	403	0	0			0	0			1				0	
6.6.1	win	2023-06-01	23:20:35	23:41:52	1273963	60bd4bfc88b646e72d772977	4	1	main_z	7	main_z	129	stimuli_distractor_trianglediamonds.svg	stimuli_target_rectangletriangles.svg	9	yes	44	1	359	0	0			0	0			1				0	
6.6.1	win	2023-06-01	23:20:35	23:41:52	1273963	60bd4bfc88b646e72d772977	4	1	main_z	7	advance_on_keypress_ZEE	130	stimuli_distractor_trianglediamonds.svg	stimuli_target_rectangletriangles.svg	9	yes	57	0	392	0	0			0	0			1				0	
6.6.1	win	2023-06-01	23:20:35	23:41:53	1275414	60bd4bfc88b646e72d772977	4	1	main_z	7	main_z	131	stimuli_distractor_trianglediamonds.svg	stimuli_distractor_diamondtriangles.svg	36	no	44	0	428	0	0			0	0			1				0	
6.6.1	win	2023-06-01	23:20:35	23:41:53	1275414	60bd4bfc88b646e72d772977	4	1	main_z	7	advance_on_keypress_ZEE	132	stimuli_distractor_trianglediamonds.svg	stimuli_distractor_diamondtriangles.svg	36	no	57	0	370	0	0			0	0			1				0	
6.6.1	win	2023-06-01	23:20:35	23:41:55	1276893	60bd4bfc88b646e72d772977	4	1	main_z	7	main_z	133	stimuli_target_squarediamonds.svg	stimuli_distractor_diamondtriangles.svg	8	yes	44	1	460	0	0			0	0			1				0	
6.6.1	win	2023-06-01	23:20:35	23:41:55	1276893	60bd4bfc88b646e72d772977	4	1	main_z	7	advance_on_keypress_ZEE	134	stimuli_target_squarediamonds.svg	stimuli_distractor_diamondtriangles.svg	8	yes	57	0	359	0	0			0	0			1				0	
6.6.1	win	2023-06-01	23:20:35	23:41:56	1278297	60bd4bfc88b646e72d772977	4	1	main_z	7	main_z	135	stimuli_distractor_diamondtriangles.svg	stimuli_target_rectanglediamonds.svg	14	yes	44	1	399	0	0			0	0			1				0	
6.6.1	win	2023-06-01	23:20:35	23:41:56	1278297	60bd4bfc88b646e72d772977	4	1	main_z	7	advance_on_keypress_ZEE	136	stimuli_distractor_diamondtriangles.svg	stimuli_target_rectanglediamonds.svg	14	yes	57	0	369	0	0			0	0			1				0	
6.6.1	win	2023-06-01	23:20:35	23:41:57	1279663	60bd4bfc88b646e72d772977	4	1	main_z	7	main_z	137	stimuli_distractor_diamondtriangles.svg	stimuli_target_diamondsquares.svg	32	yes	44	1	350	0	0			0	0			1				0	
6.6.1	win	2023-06-01	23:20:35	23:41:57	1279663	60bd4bfc88b646e72d772977	4	1	main_z	7	advance_on_keypress_ZEE	138	stimuli_distractor_diamondtriangles.svg	stimuli_target_diamondsquares.svg	32	yes	57	0	558	0	0			0	0			1				0	
6.6.1	win	2023-06-01	23:20:35	23:42:01	1282860	60bd4bfc88b646e72d772977	4	1	main_z	7	main_z	139	stimuli_distractor_trianglediamonds.svg	stimuli_distractor_trianglediamonds.svg	33	no	0	1	2000	0	0			0	0			1				0	
6.6.1	win	2023-06-01	23:20:35	23:42:01	1282860	60bd4bfc88b646e72d772977	4	1	main_z	7	advance_on_keypress_ZEE	140	stimuli_distractor_trianglediamonds.svg	stimuli_distractor_trianglediamonds.svg	33	no	57	0	138921	0	0			0	0			1				0	
6.6.1	win	2023-06-01	23:20:35	23:44:21	1422725	60bd4bfc88b646e72d772977	4	1	main_z	7	main_z	141	stimuli_target_rectanglediamonds.svg	stimuli_distractor_trianglediamonds.svg	2	yes	44	1	290	0	0			0	0			1				0	
6.6.1	win	2023-06-01	23:20:35	23:44:21	1422725	60bd4bfc88b646e72d772977	4	1	main_z	7	advance_on_keypress_ZEE	142	stimuli_target_rectanglediamonds.svg	stimuli_distractor_trianglediamonds.svg	2	yes	57	0	392	0	0			0	0			1				0	
6.6.1	win	2023-06-01	23:20:35	23:44:22	1424108	60bd4bfc88b646e72d772977	4	1	main_z	7	main_z	143	stimuli_distractor_trianglediamonds.svg	stimuli_target_squarediamonds.svg	12	yes	44	1	358	0	0			0	0			1				0	
6.6.1	win	2023-06-01	23:20:35	23:44:22	1424108	60bd4bfc88b646e72d772977	4	1	main_z	7	advance_on_keypress_ZEE	144	stimuli_distractor_trianglediamonds.svg	stimuli_target_squarediamonds.svg	12	yes	57	0	372	0	0			0	0			1				0	
6.6.1	win	2023-06-01	23:20:35	23:44:23	1425529	60bd4bfc88b646e72d772977	4	1	main_z	7	main_z	145	stimuli_target_rectanglediamonds.svg	stimuli_distractor_diamondtriangles.svg	6	yes	44	1	415	0	0			0	0			1				0	
6.6.1	win	2023-06-01	23:20:35	23:44:23	1425529	60bd4bfc88b646e72d772977	4	1	main_z	7	advance_on_keypress_ZEE	146	stimuli_target_rectanglediamonds.svg	stimuli_distractor_diamondtriangles.svg	6	yes	57	0	305	0	0			0	0			1				0	
6.6.1	win	2023-06-01	23:20:35	23:44:25	1426876	60bd4bfc88b646e72d772977	4	1	main_z	7	main_z	147	stimuli_distractor_trianglediamonds.svg	stimuli_target_diamondsquares.svg	28	yes	44	1	397	0	0			0	0			1				0	
6.6.1	win	2023-06-01	23:20:35	23:44:25	1426876	60bd4bfc88b646e72d772977	4	1	main_z	7	advance_on_keypress_ZEE	148	stimuli_distractor_trianglediamonds.svg	stimuli_target_diamondsquares.svg	28	yes	57	0	347	0	0			0	0			1				0	
6.6.1	win	2023-06-01	23:20:35	23:44:26	1428145	60bd4bfc88b646e72d772977	4	1	main_z	7	main_z	149	stimuli_distractor_diamondtriangles.svg	stimuli_distractor_trianglediamonds.svg	37	no	44	0	268	0	0			0	0			1				0	
6.6.1	win	2023-06-01	23:20:35	23:44:26	1428145	60bd4bfc88b646e72d772977	4	1	main_z	7	advance_on_keypress_ZEE	150	stimuli_distractor_diamondtriangles.svg	stimuli_distractor_trianglediamonds.svg	37	no	57	0	349	0	0			0	0			1				0	
6.6.1	win	2023-06-01	23:20:35	23:44:28	1429864	60bd4bfc88b646e72d772977	4	1	main_z	7	main_z	151	stimuli_distractor_diamondtriangles.svg	stimuli_target_trianglesquares.svg	30	yes	44	1	722	0	0			0	0			1				0	
6.6.1	win	2023-06-01	23:20:35	23:44:28	1429864	60bd4bfc88b646e72d772977	4	1	main_z	7	advance_on_keypress_ZEE	152	stimuli_distractor_diamondtriangles.svg	stimuli_target_trianglesquares.svg	30	yes	57	0	352	0	0			0	0			1				0	
6.6.1	win	2023-06-01	23:20:35	23:44:29	1431366	60bd4bfc88b646e72d772977	4	1	main_z	7	main_z	153	stimuli_distractor_diamondtriangles.svg	stimuli_target_rectangletriangles.svg	13	yes	44	1	511	0	0			0	0			1				0	
6.6.1	win	2023-06-01	23:20:35	23:44:29	1431366	60bd4bfc88b646e72d772977	4	1	main_z	7	advance_on_keypress_ZEE	154	stimuli_distractor_diamondtriangles.svg	stimuli_target_rectangletriangles.svg	13	yes	57	0	255	0	0			0	0			1				0	
6.6.1	win	2023-06-01	23:20:35	23:44:32	1434270	60bd4bfc88b646e72d772977	4	1	main_z	7	main_z	155	stimuli_distractor_trianglediamonds.svg	stimuli_distractor_trianglediamonds.svg	34	no	0	1	2000	0	0			0	0			1				0	
6.6.1	win	2023-06-01	23:20:35	23:44:32	1434270	60bd4bfc88b646e72d772977	4	1	main_z	7	advance_on_keypress_ZEE	156	stimuli_distractor_trianglediamonds.svg	stimuli_distractor_trianglediamonds.svg	34	no	57	0	257911	0	0			0	0			1				0	
6.6.1	win	2023-06-01	23:20:35	23:48:51	1693211	60bd4bfc88b646e72d772977	4	1	main_z	7	main_z	157	stimuli_distractor_diamondtriangles.svg	stimuli_target_diamondrectangles.svg	31	yes	44	1	371	0	0			0	0			1				0	
6.6.1	win	2023-06-01	23:20:35	23:48:51	1693211	60bd4bfc88b646e72d772977	4	1	main_z	7	advance_on_keypress_ZEE	158	stimuli_distractor_diamondtriangles.svg	stimuli_target_diamondrectangles.svg	31	yes	57	0	356	0	0			0	0			1				0	
6.6.1	win	2023-06-01	23:20:35	23:48:52	1694447	60bd4bfc88b646e72d772977	4	1	main_z	7	main_z	159	stimuli_distractor_diamondtriangles.svg	stimuli_distractor_diamondtriangles.svg	39	no	44	0	246	0	0			0	0			1				0	
6.6.1	win	2023-06-01	23:20:35	23:48:52	1694447	60bd4bfc88b646e72d772977	4	1	main_z	7	advance_on_keypress_ZEE	160	stimuli_distractor_diamondtriangles.svg	stimuli_distractor_diamondtriangles.svg	39	no	57	0	489	0	0			0	0			1				0	
6.6.1	win	2023-06-01	23:20:35	23:50:28	1789668	60bd4bfc88b646e72d772977	4	1	practice_slash	9	practice_slash	1	stimuli_target_diamondsquares.svg	stimuli_distractor_diamondtriangles.svg	3	yes	0	0	2000	0	0			0	0			1				0	
6.6.1	win	2023-06-01	23:20:35	23:50:28	1789668	60bd4bfc88b646e72d772977	4	1	practice_slash	9	advance_on_keypress_SLASH	2	stimuli_target_diamondsquares.svg	stimuli_distractor_diamondtriangles.svg	3	yes	57	0	458	0	0			0	0			1				0	
6.6.1	win	2023-06-01	23:20:35	23:50:30	1792136	60bd4bfc88b646e72d772977	4	1	practice_slash	9	practice_slash	3	stimuli_target_rectanglediamonds.svg	stimuli_distractor_trianglediamonds.svg	4	yes	53	1	342	0	0			0	0			1				0	
6.6.1	win	2023-06-01	23:20:35	23:50:30	1792136	60bd4bfc88b646e72d772977	4	1	practice_slash	9	advance_on_keypress_SLASH	4	stimuli_target_rectanglediamonds.svg	stimuli_distractor_trianglediamonds.svg	4	yes	57	0	343	0	0			0	0			1				0	
6.6.1	win	2023-06-01	23:20:35	23:50:32	1794628	60bd4bfc88b646e72d772977	4	1	practice_slash	9	practice_slash	5	stimuli_distractor_diamondtriangles.svg	stimuli_target_diamondrectangles.svg	8	yes	53	1	487	0	0			0	0			1				0	
6.6.1	win	2023-06-01	23:20:35	23:50:32	1794628	60bd4bfc88b646e72d772977	4	1	practice_slash	9	advance_on_keypress_SLASH	6	stimuli_distractor_diamondtriangles.svg	stimuli_target_diamondrectangles.svg	8	yes	57	0	423	0	0			0	0			1				0	
6.6.1	win	2023-06-01	23:20:35	23:50:35	1796979	60bd4bfc88b646e72d772977	4	1	practice_slash	9	practice_slash	7	stimuli_distractor_trianglediamonds.svg	stimuli_target_squarediamonds.svg	11	yes	53	1	291	0	0			0	0			1				0	
6.6.1	win	2023-06-01	23:20:35	23:50:35	1796979	60bd4bfc88b646e72d772977	4	1	practice_slash	9	advance_on_keypress_SLASH	8	stimuli_distractor_trianglediamonds.svg	stimuli_target_squarediamonds.svg	11	yes	57	0	406	0	0			0	0			1				0	
6.6.1	win	2023-06-01	23:20:35	23:50:37	1799398	60bd4bfc88b646e72d772977	4	1	practice_slash	9	practice_slash	9	stimuli_distractor_diamondtriangles.svg	stimuli_distractor_trianglediamonds.svg	14	no	53	0	364	0	0			0	0			1				0	
6.6.1	win	2023-06-01	23:20:35	23:50:37	1799398	60bd4bfc88b646e72d772977	4	1	practice_slash	9	advance_on_keypress_SLASH	10	stimuli_distractor_diamondtriangles.svg	stimuli_distractor_trianglediamonds.svg	14	no	57	0	315	0	0			0	0			1				0	
6.6.1	win	2023-06-01	23:20:35	23:50:40	1801775	60bd4bfc88b646e72d772977	4	1	practice_slash	9	practice_slash	11	stimuli_distractor_trianglediamonds.svg	stimuli_distractor_diamondtriangles.svg	16	no	53	0	411	0	0			0	0			1				0	
6.6.1	win	2023-06-01	23:20:35	23:50:40	1801775	60bd4bfc88b646e72d772977	4	1	practice_slash	9	advance_on_keypress_SLASH	12	stimuli_distractor_trianglediamonds.svg	stimuli_distractor_diamondtriangles.svg	16	no	57	0	281	0	0			0	0			1				0	
6.6.1	win	2023-06-01	23:20:35	23:50:42	1804065	60bd4bfc88b646e72d772977	4	1	practice_slash	9	practice_slash	13	stimuli_distractor_diamondtriangles.svg	stimuli_target_trianglerectangles.svg	9	yes	53	1	353	0	0			0	0			1				0	
6.6.1	win	2023-06-01	23:20:35	23:50:42	1804065	60bd4bfc88b646e72d772977	4	1	practice_slash	9	advance_on_keypress_SLASH	14	stimuli_distractor_diamondtriangles.svg	stimuli_target_trianglerectangles.svg	9	yes	57	0	307	0	0			0	0			1				0	
6.6.1	win	2023-06-01	23:20:35	23:50:44	1806512	60bd4bfc88b646e72d772977	4	1	practice_slash	9	practice_slash	15	stimuli_target_rectanglediamonds.svg	stimuli_distractor_diamondtriangles.svg	1	yes	53	1	487	0	0			0	0			1				0	
6.6.1	win	2023-06-01	23:20:35	23:50:44	1806512	60bd4bfc88b646e72d772977	4	1	practice_slash	9	advance_on_keypress_SLASH	16	stimuli_target_rectanglediamonds.svg	stimuli_distractor_diamondtriangles.svg	1	yes	57	0	279	0	0			0	0			1				0	
6.6.1	win	2023-06-01	23:20:35	23:50:47	1808785	60bd4bfc88b646e72d772977	4	1	practice_slash	9	practice_slash	17	stimuli_distractor_trianglediamonds.svg	stimuli_target_rectanglediamonds.svg	10	yes	53	1	331	0	0			0	0			1				0	
6.6.1	win	2023-06-01	23:20:35	23:50:47	1808785	60bd4bfc88b646e72d772977	4	1	practice_slash	9	advance_on_keypress_SLASH	18	stimuli_distractor_trianglediamonds.svg	stimuli_target_rectanglediamonds.svg	10	yes	57	0	348	0	0			0	0			1				0	
6.6.1	win	2023-06-01	23:20:35	23:50:49	1811158	60bd4bfc88b646e72d772977	4	1	practice_slash	9	practice_slash	19	stimuli_target_squarediamonds.svg	stimuli_distractor_diamondtriangles.svg	2	yes	53	1	373	0	0			0	0			1				0	
6.6.1	win	2023-06-01	23:20:35	23:50:49	1811158	60bd4bfc88b646e72d772977	4	1	practice_slash	9	advance_on_keypress_SLASH	20	stimuli_target_squarediamonds.svg	stimuli_distractor_diamondtriangles.svg	2	yes	57	0	372	0	0			0	0			1				0	
6.6.1	win	2023-06-01	23:20:35	23:50:53	1815180	60bd4bfc88b646e72d772977	4	1	practice_slash	9	practice_slash	21	stimuli_distractor_trianglediamonds.svg	stimuli_distractor_trianglediamonds.svg	15	no	0	1	2000	0	0			0	0			1				0	
6.6.1	win	2023-06-01	23:20:35	23:50:53	1815180	60bd4bfc88b646e72d772977	4	1	practice_slash	9	advance_on_keypress_SLASH	22	stimuli_distractor_trianglediamonds.svg	stimuli_distractor_trianglediamonds.svg	15	no	57	0	424	0	0			0	0			1				0	
6.6.1	win	2023-06-01	23:20:35	23:50:55	1817632	60bd4bfc88b646e72d772977	4	1	practice_slash	9	practice_slash	23	stimuli_target_squarediamonds.svg	stimuli_distractor_trianglediamonds.svg	5	yes	53	1	392	0	0			0	0			1				0	
6.6.1	win	2023-06-01	23:20:35	23:50:55	1817632	60bd4bfc88b646e72d772977	4	1	practice_slash	9	advance_on_keypress_SLASH	24	stimuli_target_squarediamonds.svg	stimuli_distractor_trianglediamonds.svg	5	yes	57	0	785	0	0			0	0			1				0	
6.6.1	win	2023-06-01	23:20:35	23:51:00	1822069	60bd4bfc88b646e72d772977	4	1	practice_slash	9	practice_slash	25	stimuli_distractor_diamondtriangles.svg	stimuli_distractor_diamondtriangles.svg	13	no	0	1	2000	0	0			0	0			1				0	
6.6.1	win	2023-06-01	23:20:35	23:51:00	1822069	60bd4bfc88b646e72d772977	4	1	practice_slash	9	advance_on_keypress_SLASH	26	stimuli_distractor_diamondtriangles.svg	stimuli_distractor_diamondtriangles.svg	13	no	57	0	521	0	0			0	0			1				0	
6.6.1	win	2023-06-01	23:20:35	23:51:03	1824835	60bd4bfc88b646e72d772977	4	1	practice_slash	9	practice_slash	27	stimuli_distractor_diamondtriangles.svg	stimuli_target_rectangletriangles.svg	7	yes	53	1	605	0	0			0	0			1				0	
6.6.1	win	2023-06-01	23:20:35	23:51:03	1824835	60bd4bfc88b646e72d772977	4	1	practice_slash	9	advance_on_keypress_SLASH	28	stimuli_distractor_diamondtriangles.svg	stimuli_target_rectangletriangles.svg	7	yes	57	0	305	0	0			0	0			1				0	
6.6.1	win	2023-06-01	23:20:35	23:51:05	1827187	60bd4bfc88b646e72d772977	4	1	practice_slash	9	practice_slash	29	stimuli_target_diamondsquares.svg	stimuli_distractor_trianglediamonds.svg	6	yes	53	1	394	0	0			0	0			1				0	
6.6.1	win	2023-06-01	23:20:35	23:51:05	1827187	60bd4bfc88b646e72d772977	4	1	practice_slash	9	advance_on_keypress_SLASH	30	stimuli_target_diamondsquares.svg	stimuli_distractor_trianglediamonds.svg	6	yes	57	0	400	0	0			0	0			1				0	
6.6.1	win	2023-06-01	23:20:35	23:51:07	1829598	60bd4bfc88b646e72d772977	4	1	practice_slash	9	practice_slash	31	stimuli_distractor_trianglediamonds.svg	stimuli_target_diamondrectangles.svg	12	yes	53	1	359	0	0			0	0			1				0	
6.6.1	win	2023-06-01	23:20:35	23:51:07	1829598	60bd4bfc88b646e72d772977	4	1	practice_slash	9	advance_on_keypress_SLASH	32	stimuli_distractor_trianglediamonds.svg	stimuli_target_diamondrectangles.svg	12	yes	57	0	675	0	0			0	0			1				0	
6.6.1	win	2023-06-01	23:20:35	23:51:12	1833742	60bd4bfc88b646e72d772977	4	1	main_slash	11	main_slash	1	stimuli_target_trianglerectangles.svg	stimuli_distractor_diamondtriangles.svg	21	yes	53	1	381	0	0			0	0			1				0	
6.6.1	win	2023-06-01	23:20:35	23:51:12	1833742	60bd4bfc88b646e72d772977	4	1	main_slash	11	advance_on_keypress_SLASH	2	stimuli_target_trianglerectangles.svg	stimuli_distractor_diamondtriangles.svg	21	yes	57	0	639	0	0			0	0			1				0	
6.6.1	win	2023-06-01	23:20:35	23:51:13	1835306	60bd4bfc88b646e72d772977	4	1	main_slash	11	main_slash	3	stimuli_distractor_trianglediamonds.svg	stimuli_target_rectanglediamonds.svg	10	yes	53	1	278	0	0			0	0			1				0	
6.6.1	win	2023-06-01	23:20:35	23:51:13	1835306	60bd4bfc88b646e72d772977	4	1	main_slash	11	advance_on_keypress_SLASH	4	stimuli_distractor_trianglediamonds.svg	stimuli_target_rectanglediamonds.svg	10	yes	57	0	477	0	0			0	0			1				0	
6.6.1	win	2023-06-01	23:20:35	23:51:16	1838441	60bd4bfc88b646e72d772977	4	1	main_slash	11	main_slash	5	stimuli_distractor_trianglediamonds.svg	stimuli_distractor_trianglediamonds.svg	33	no	0	1	2000	0	0			0	0			1				0	
6.6.1	win	2023-06-01	23:20:35	23:51:16	1838441	60bd4bfc88b646e72d772977	4	1	main_slash	11	advance_on_keypress_SLASH	6	stimuli_distractor_trianglediamonds.svg	stimuli_distractor_trianglediamonds.svg	33	no	57	0	392	0	0			0	0			1				0	
6.6.1	win	2023-06-01	23:20:35	23:51:18	1839832	60bd4bfc88b646e72d772977	4	1	main_slash	11	main_slash	7	stimuli_distractor_diamondtriangles.svg	stimuli_target_trianglerectangles.svg	29	yes	53	1	362	0	0			0	0			1				0	
6.6.1	win	2023-06-01	23:20:35	23:51:18	1839832	60bd4bfc88b646e72d772977	4	1	main_slash	11	advance_on_keypress_SLASH	8	stimuli_distractor_diamondtriangles.svg	stimuli_target_trianglerectangles.svg	29	yes	57	0	486	0	0			0	0			1				0	
6.6.1	win	2023-06-01	23:20:35	23:51:21	1842967	60bd4bfc88b646e72d772977	4	1	main_slash	11	main_slash	9	stimuli_distractor_trianglediamonds.svg	stimuli_distractor_diamondtriangles.svg	35	no	0	1	2000	0	0			0	0			1				0	
6.6.1	win	2023-06-01	23:20:35	23:51:21	1842967	60bd4bfc88b646e72d772977	4	1	main_slash	11	advance_on_keypress_SLASH	10	stimuli_distractor_trianglediamonds.svg	stimuli_distractor_diamondtriangles.svg	35	no	57	0	399	0	0			0	0			1				0	
6.6.1	win	2023-06-01	23:20:35	23:51:22	1844401	60bd4bfc88b646e72d772977	4	1	main_slash	11	main_slash	11	stimuli_distractor_trianglediamonds.svg	stimuli_target_diamondrectangles.svg	27	yes	53	1	389	0	0			0	0			1				0	
6.6.1	win	2023-06-01	23:20:35	23:51:22	1844401	60bd4bfc88b646e72d772977	4	1	main_slash	11	advance_on_keypress_SLASH	12	stimuli_distractor_trianglediamonds.svg	stimuli_target_diamondrectangles.svg	27	yes	57	0	453	0	0			0	0			1				0	
6.6.1	win	2023-06-01	23:20:35	23:51:24	1845886	60bd4bfc88b646e72d772977	4	1	main_slash	11	main_slash	13	stimuli_target_squaretriangles.svg	stimuli_distractor_diamondtriangles.svg	7	yes	53	1	392	0	0			0	0			1				0	
6.6.1	win	2023-06-01	23:20:35	23:51:24	1845886	60bd4bfc88b646e72d772977	4	1	main_slash	11	advance_on_keypress_SLASH	14	stimuli_target_squaretriangles.svg	stimuli_distractor_diamondtriangles.svg	7	yes	57	0	395	0	0			0	0			1				0	
6.6.1	win	2023-06-01	23:20:35	23:51:25	1847134	60bd4bfc88b646e72d772977	4	1	main_slash	11	main_slash	15	stimuli_distractor_trianglediamonds.svg	stimuli_target_squaretriangles.svg	11	yes	53	1	208	0	0			0	0			1				0	
6.6.1	win	2023-06-01	23:20:35	23:51:25	1847134	60bd4bfc88b646e72d772977	4	1	main_slash	11	advance_on_keypress_SLASH	16	stimuli_distractor_trianglediamonds.svg	stimuli_target_squaretriangles.svg	11	yes	57	0	623	0	0			0	0			1				0	
6.6.1	win	2023-06-01	23:20:35	23:51:26	1848668	60bd4bfc88b646e72d772977	4	1	main_slash	11	main_slash	17	stimuli_target_diamondrectangles.svg	stimuli_distractor_trianglediamonds.svg	19	yes	53	1	278	0	0			0	0			1				0	
6.6.1	win	2023-06-01	23:20:35	23:51:26	1848668	60bd4bfc88b646e72d772977	4	1	main_slash	11	advance_on_keypress_SLASH	18	stimuli_target_diamondrectangles.svg	stimuli_distractor_trianglediamonds.svg	19	yes	57	0	440	0	0			0	0			1				0	
6.6.1	win	2023-06-01	23:20:35	23:51:28	1850024	60bd4bfc88b646e72d772977	4	1	main_slash	11	main_slash	19	stimuli_distractor_trianglediamonds.svg	stimuli_target_trianglerectangles.svg	25	yes	53	1	269	0	0			0	0			1				0	
6.6.1	win	2023-06-01	23:20:35	23:51:28	1850024	60bd4bfc88b646e72d772977	4	1	main_slash	11	advance_on_keypress_SLASH	20	stimuli_distractor_trianglediamonds.svg	stimuli_target_trianglerectangles.svg	25	yes	57	0	664	0	0			0	0			1				0	
6.6.1	win	2023-06-01	23:20:35	23:51:30	1851747	60bd4bfc88b646e72d772977	4	1	main_slash	11	main_slash	21	stimuli_distractor_diamondtriangles.svg	stimuli_target_rectanglediamonds.svg	14	yes	53	1	411	0	0			0	0			1				0	
6.6.1	win	2023-06-01	23:20:35	23:51:30	1851747	60bd4bfc88b646e72d772977	4	1	main_slash	11	advance_on_keypress_SLASH	22	stimuli_distractor_diamondtriangles.svg	stimuli_target_rectanglediamonds.svg	14	yes	57	0	536	0	0			0	0			1				0	
6.6.1	win	2023-06-01	23:20:35	23:51:31	1853219	60bd4bfc88b646e72d772977	4	1	main_slash	11	main_slash	23	stimuli_distractor_trianglediamonds.svg	stimuli_target_trianglesquares.svg	26	yes	53	1	284	0	0			0	0			1				0	
6.6.1	win	2023-06-01	23:20:35	23:51:31	1853219	60bd4bfc88b646e72d772977	4	1	main_slash	11	advance_on_keypress_SLASH	24	stimuli_distractor_trianglediamonds.svg	stimuli_target_trianglesquares.svg	26	yes	57	0	424	0	0			0	0			1				0	
6.6.1	win	2023-06-01	23:20:35	23:51:32	1854594	60bd4bfc88b646e72d772977	4	1	main_slash	11	main_slash	25	stimuli_distractor_diamondtriangles.svg	stimuli_distractor_trianglediamonds.svg	37	no	53	0	311	0	0			0	0			1				0	
6.6.1	win	2023-06-01	23:20:35	23:51:32	1854594	60bd4bfc88b646e72d772977	4	1	main_slash	11	advance_on_keypress_SLASH	26	stimuli_distractor_diamondtriangles.svg	stimuli_distractor_trianglediamonds.svg	37	no	57	0	7452	0	0			0	0			1				0	
6.6.1	win	2023-06-01	23:20:35	23:51:41	1863114	60bd4bfc88b646e72d772977	4	1	main_slash	11	main_slash	27	stimuli_target_diamondrectangles.svg	stimuli_distractor_diamondtriangles.svg	23	yes	53	1	412	0	0			0	0			1				0	
6.6.1	win	2023-06-01	23:20:35	23:51:41	1863114	60bd4bfc88b646e72d772977	4	1	main_slash	11	advance_on_keypress_SLASH	28	stimuli_target_diamondrectangles.svg	stimuli_distractor_diamondtriangles.svg	23	yes	57	0	540	0	0			0	0			1				0	
6.6.1	win	2023-06-01	23:20:35	23:51:42	1864506	60bd4bfc88b646e72d772977	4	1	main_slash	11	main_slash	29	stimuli_target_rectangletriangles.svg	stimuli_distractor_trianglediamonds.svg	1	yes	53	1	207	0	0			0	0			1				0	
6.6.1	win	2023-06-01	23:20:35	23:51:42	1864506	60bd4bfc88b646e72d772977	4	1	main_slash	11	advance_on_keypress_SLASH	30	stimuli_target_rectangletriangles.svg	stimuli_distractor_trianglediamonds.svg	1	yes	57	0	405	0	0			0	0			1				0	
6.6.1	win	2023-06-01	23:20:35	23:51:44	1865766	60bd4bfc88b646e72d772977	4	1	main_slash	11	main_slash	31	stimuli_target_squaretriangles.svg	stimuli_distractor_trianglediamonds.svg	3	yes	53	1	217	0	0			0	0			1				0	
6.6.1	win	2023-06-01	23:20:35	23:51:44	1865766	60bd4bfc88b646e72d772977	4	1	main_slash	11	advance_on_keypress_SLASH	32	stimuli_target_squaretriangles.svg	stimuli_distractor_trianglediamonds.svg	3	yes	57	0	432	0	0			0	0			1				0	
6.6.1	win	2023-06-01	23:20:35	23:51:45	1867132	60bd4bfc88b646e72d772977	4	1	main_slash	11	main_slash	33	stimuli_target_trianglesquares.svg	stimuli_distractor_trianglediamonds.svg	18	yes	53	1	285	0	0			0	0			1				0	
6.6.1	win	2023-06-01	23:20:35	23:51:45	1867132	60bd4bfc88b646e72d772977	4	1	main_slash	11	advance_on_keypress_SLASH	34	stimuli_target_trianglesquares.svg	stimuli_distractor_trianglediamonds.svg	18	yes	57	0	434	0	0			0	0			1				0	
6.6.1	win	2023-06-01	23:20:35	23:51:46	1868435	60bd4bfc88b646e72d772977	4	1	main_slash	11	main_slash	35	stimuli_distractor_trianglediamonds.svg	stimuli_target_diamondsquares.svg	28	yes	53	1	223	0	0			0	0			1				0	
6.6.1	win	2023-06-01	23:20:35	23:51:46	1868435	60bd4bfc88b646e72d772977	4	1	main_slash	11	advance_on_keypress_SLASH	36	stimuli_distractor_trianglediamonds.svg	stimuli_target_diamondsquares.svg	28	yes	57	0	446	0	0			0	0			1				0	
6.6.1	win	2023-06-01	23:20:35	23:51:48	1869726	60bd4bfc88b646e72d772977	4	1	main_slash	11	main_slash	37	stimuli_distractor_diamondtriangles.svg	stimuli_target_diamondsquares.svg	32	yes	53	1	201	0	0			0	0			1				0	
6.6.1	win	2023-06-01	23:20:35	23:51:48	1869726	60bd4bfc88b646e72d772977	4	1	main_slash	11	advance_on_keypress_SLASH	38	stimuli_distractor_diamondtriangles.svg	stimuli_target_diamondsquares.svg	32	yes	57	0	487	0	0			0	0			1				0	
6.6.1	win	2023-06-01	23:20:35	23:51:49	1871025	60bd4bfc88b646e72d772977	4	1	main_slash	11	main_slash	39	stimuli_distractor_diamondtriangles.svg	stimuli_target_diamondrectangles.svg	31	yes	53	1	169	0	0			0	0			1				0	
6.6.1	win	2023-06-01	23:20:35	23:51:49	1871025	60bd4bfc88b646e72d772977	4	1	main_slash	11	advance_on_keypress_SLASH	40	stimuli_distractor_diamondtriangles.svg	stimuli_target_diamondrectangles.svg	31	yes	57	0	602	0	0			0	0			1				0	
6.6.1	win	2023-06-01	23:20:35	23:51:50	1872499	60bd4bfc88b646e72d772977	4	1	main_slash	11	main_slash	41	stimuli_target_diamondsquares.svg	stimuli_distractor_trianglediamonds.svg	20	yes	53	1	227	0	0			0	0			1				0	
6.6.1	win	2023-06-01	23:20:35	23:51:50	1872499	60bd4bfc88b646e72d772977	4	1	main_slash	11	advance_on_keypress_SLASH	42	stimuli_target_diamondsquares.svg	stimuli_distractor_trianglediamonds.svg	20	yes	57	0	848	0	0			0	0			1				0	
6.6.1	win	2023-06-01	23:20:35	23:51:52	1874261	60bd4bfc88b646e72d772977	4	1	main_slash	11	main_slash	43	stimuli_distractor_diamondtriangles.svg	stimuli_target_trianglesquares.svg	30	yes	53	1	259	0	0			0	0			1				0	
6.6.1	win	2023-06-01	23:20:35	23:51:52	1874261	60bd4bfc88b646e72d772977	4	1	main_slash	11	advance_on_keypress_SLASH	44	stimuli_distractor_diamondtriangles.svg	stimuli_target_trianglesquares.svg	30	yes	57	0	737	0	0			0	0			1				0	
6.6.1	win	2023-06-01	23:20:35	23:51:54	1875831	60bd4bfc88b646e72d772977	4	1	main_slash	11	main_slash	45	stimuli_target_rectangletriangles.svg	stimuli_distractor_diamondtriangles.svg	5	yes	53	1	197	0	0			0	0			1				0	
6.6.1	win	2023-06-01	23:20:35	23:51:54	1875831	60bd4bfc88b646e72d772977	4	1	main_slash	11	advance_on_keypress_SLASH	46	stimuli_target_rectangletriangles.svg	stimuli_distractor_diamondtriangles.svg	5	yes	57	0	567	0	0			0	0			1				0	
6.6.1	win	2023-06-01	23:20:35	23:51:55	1877156	60bd4bfc88b646e72d772977	4	1	main_slash	11	main_slash	47	stimuli_distractor_diamondtriangles.svg	stimuli_distractor_diamondtriangles.svg	40	no	53	0	108	0	0			0	0			1				0	
6.6.1	win	2023-06-01	23:20:35	23:51:55	1877156	60bd4bfc88b646e72d772977	4	1	main_slash	11	advance_on_keypress_SLASH	48	stimuli_distractor_diamondtriangles.svg	stimuli_distractor_diamondtriangles.svg	40	no	57	0	686	0	0			0	0			1				0	
6.6.1	win	2023-06-01	23:20:35	23:51:58	1880479	60bd4bfc88b646e72d772977	4	1	main_slash	11	main_slash	49	stimuli_target_squarediamonds.svg	stimuli_distractor_diamondtriangles.svg	8	yes	0	0	2000	0	0			0	0			1				0	
6.6.1	win	2023-06-01	23:20:35	23:51:58	1880479	60bd4bfc88b646e72d772977	4	1	main_slash	11	advance_on_keypress_SLASH	50	stimuli_target_squarediamonds.svg	stimuli_distractor_diamondtriangles.svg	8	yes	57	0	604	0	0			0	0			1				0	
6.6.1	win	2023-06-01	23:20:35	23:52:00	1881954	60bd4bfc88b646e72d772977	4	1	main_slash	11	main_slash	51	stimuli_target_rectanglediamonds.svg	stimuli_distractor_trianglediamonds.svg	2	yes	53	1	230	0	0			0	0			1				0	
6.6.1	win	2023-06-01	23:20:35	23:52:00	1881954	60bd4bfc88b646e72d772977	4	1	main_slash	11	advance_on_keypress_SLASH	52	stimuli_target_rectanglediamonds.svg	stimuli_distractor_trianglediamonds.svg	2	yes	57	0	413	0	0			0	0			1				0	
6.6.1	win	2023-06-01	23:20:35	23:52:01	1883284	60bd4bfc88b646e72d772977	4	1	main_slash	11	main_slash	53	stimuli_target_diamondsquares.svg	stimuli_distractor_diamondtriangles.svg	24	yes	53	1	261	0	0			0	0			1				0	
6.6.1	win	2023-06-01	23:20:35	23:52:01	1883284	60bd4bfc88b646e72d772977	4	1	main_slash	11	advance_on_keypress_SLASH	54	stimuli_target_diamondsquares.svg	stimuli_distractor_diamondtriangles.svg	24	yes	57	0	570	0	0			0	0			1				0	
6.6.1	win	2023-06-01	23:20:35	23:52:03	1884690	60bd4bfc88b646e72d772977	4	1	main_slash	11	main_slash	55	stimuli_distractor_trianglediamonds.svg	stimuli_distractor_trianglediamonds.svg	34	no	53	0	186	0	0			0	0			1				0	
6.6.1	win	2023-06-01	23:20:35	23:52:03	1884690	60bd4bfc88b646e72d772977	4	1	main_slash	11	advance_on_keypress_SLASH	56	stimuli_distractor_trianglediamonds.svg	stimuli_distractor_trianglediamonds.svg	34	no	57	0	615	0	0			0	0			1				0	
6.6.1	win	2023-06-01	23:20:35	23:52:04	1886516	60bd4bfc88b646e72d772977	4	1	main_slash	11	main_slash	57	stimuli_distractor_trianglediamonds.svg	stimuli_distractor_diamondtriangles.svg	36	no	53	0	565	0	0			0	0			1				0	
6.6.1	win	2023-06-01	23:20:35	23:52:04	1886516	60bd4bfc88b646e72d772977	4	1	main_slash	11	advance_on_keypress_SLASH	58	stimuli_distractor_trianglediamonds.svg	stimuli_distractor_diamondtriangles.svg	36	no	57	0	772	0	0			0	0			1				0	
6.6.1	win	2023-06-01	23:20:35	23:52:06	1888257	60bd4bfc88b646e72d772977	4	1	main_slash	11	main_slash	59	stimuli_distractor_trianglediamonds.svg	stimuli_target_rectangletriangles.svg	9	yes	53	1	325	0	0			0	0			1				0	
6.6.1	win	2023-06-01	23:20:35	23:52:06	1888257	60bd4bfc88b646e72d772977	4	1	main_slash	11	advance_on_keypress_SLASH	60	stimuli_distractor_trianglediamonds.svg	stimuli_target_rectangletriangles.svg	9	yes	57	0	528	0	0			0	0			1				0	
6.6.1	win	2023-06-01	23:20:35	23:52:08	1889847	60bd4bfc88b646e72d772977	4	1	main_slash	11	main_slash	61	stimuli_target_trianglesquares.svg	stimuli_distractor_diamondtriangles.svg	22	yes	53	1	417	0	0			0	0			1				0	
6.6.1	win	2023-06-01	23:20:35	23:52:08	1889847	60bd4bfc88b646e72d772977	4	1	main_slash	11	advance_on_keypress_SLASH	62	stimuli_target_trianglesquares.svg	stimuli_distractor_diamondtriangles.svg	22	yes	57	0	564	0	0			0	0			1				0	
6.6.1	win	2023-06-01	23:20:35	23:52:11	1893061	60bd4bfc88b646e72d772977	4	1	main_slash	11	main_slash	63	stimuli_distractor_diamondtriangles.svg	stimuli_distractor_diamondtriangles.svg	39	no	0	1	2000	0	0			0	0			1				0	
6.6.1	win	2023-06-01	23:20:35	23:52:11	1893061	60bd4bfc88b646e72d772977	4	1	main_slash	11	advance_on_keypress_SLASH	64	stimuli_distractor_diamondtriangles.svg	stimuli_distractor_diamondtriangles.svg	39	no	57	0	709	0	0			0	0			1				0	
6.6.1	win	2023-06-01	23:20:35	23:52:12	1894648	60bd4bfc88b646e72d772977	4	1	main_slash	11	main_slash	65	stimuli_distractor_diamondtriangles.svg	stimuli_target_rectangletriangles.svg	13	yes	53	1	242	0	0			0	0			1				0	
6.6.1	win	2023-06-01	23:20:35	23:52:12	1894648	60bd4bfc88b646e72d772977	4	1	main_slash	11	advance_on_keypress_SLASH	66	stimuli_distractor_diamondtriangles.svg	stimuli_target_rectangletriangles.svg	13	yes	57	0	431	0	0			0	0			1				0	
6.6.1	win	2023-06-01	23:20:35	23:52:14	1896105	60bd4bfc88b646e72d772977	4	1	main_slash	11	main_slash	67	stimuli_distractor_diamondtriangles.svg	stimuli_target_squarediamonds.svg	16	yes	53	1	385	0	0			0	0			1				0	
6.6.1	win	2023-06-01	23:20:35	23:52:14	1896105	60bd4bfc88b646e72d772977	4	1	main_slash	11	advance_on_keypress_SLASH	68	stimuli_distractor_diamondtriangles.svg	stimuli_target_squarediamonds.svg	16	yes	57	0	415	0	0			0	0			1				0	
6.6.1	win	2023-06-01	23:20:35	23:52:15	1897501	60bd4bfc88b646e72d772977	4	1	main_slash	11	main_slash	69	stimuli_target_rectanglediamonds.svg	stimuli_distractor_diamondtriangles.svg	6	yes	53	1	332	0	0			0	0			1				0	
6.6.1	win	2023-06-01	23:20:35	23:52:15	1897501	60bd4bfc88b646e72d772977	4	1	main_slash	11	advance_on_keypress_SLASH	70	stimuli_target_rectanglediamonds.svg	stimuli_distractor_diamondtriangles.svg	6	yes	57	0	667	0	0			0	0			1				0	
6.6.1	win	2023-06-01	23:20:35	23:52:19	1900816	60bd4bfc88b646e72d772977	4	1	main_slash	11	main_slash	71	stimuli_distractor_diamondtriangles.svg	stimuli_distractor_trianglediamonds.svg	38	no	0	1	2000	0	0			0	0			1				0	
6.6.1	win	2023-06-01	23:20:35	23:52:19	1900816	60bd4bfc88b646e72d772977	4	1	main_slash	11	advance_on_keypress_SLASH	72	stimuli_distractor_diamondtriangles.svg	stimuli_distractor_trianglediamonds.svg	38	no	57	0	524	0	0			0	0			1				0	
6.6.1	win	2023-06-01	23:20:35	23:52:20	1902364	60bd4bfc88b646e72d772977	4	1	main_slash	11	main_slash	73	stimuli_target_squarediamonds.svg	stimuli_distractor_trianglediamonds.svg	4	yes	53	1	386	0	0			0	0			1				0	
6.6.1	win	2023-06-01	23:20:35	23:52:20	1902364	60bd4bfc88b646e72d772977	4	1	main_slash	11	advance_on_keypress_SLASH	74	stimuli_target_squarediamonds.svg	stimuli_distractor_trianglediamonds.svg	4	yes	57	0	418	0	0			0	0			1				0	
6.6.1	win	2023-06-01	23:20:35	23:52:22	1903912	60bd4bfc88b646e72d772977	4	1	main_slash	11	main_slash	75	stimuli_target_trianglerectangles.svg	stimuli_distractor_trianglediamonds.svg	17	yes	53	1	485	0	0			0	0			1				0	
6.6.1	win	2023-06-01	23:20:35	23:52:22	1903912	60bd4bfc88b646e72d772977	4	1	main_slash	11	advance_on_keypress_SLASH	76	stimuli_target_trianglerectangles.svg	stimuli_distractor_trianglediamonds.svg	17	yes	57	0	546	0	0			0	0			1				0	
6.6.1	win	2023-06-01	23:20:35	23:52:23	1905510	60bd4bfc88b646e72d772977	4	1	main_slash	11	main_slash	77	stimuli_distractor_diamondtriangles.svg	stimuli_target_squaretriangles.svg	15	yes	53	1	403	0	0			0	0			1				0	
6.6.1	win	2023-06-01	23:20:35	23:52:23	1905510	60bd4bfc88b646e72d772977	4	1	main_slash	11	advance_on_keypress_SLASH	78	stimuli_distractor_diamondtriangles.svg	stimuli_target_squaretriangles.svg	15	yes	57	0	470	0	0			0	0			1				0	
6.6.1	win	2023-06-01	23:20:35	23:52:25	1907004	60bd4bfc88b646e72d772977	4	1	main_slash	11	main_slash	79	stimuli_distractor_trianglediamonds.svg	stimuli_target_squarediamonds.svg	12	yes	53	1	383	0	0			0	0			1				0	
6.6.1	win	2023-06-01	23:20:35	23:52:25	1907004	60bd4bfc88b646e72d772977	4	1	main_slash	11	advance_on_keypress_SLASH	80	stimuli_distractor_trianglediamonds.svg	stimuli_target_squarediamonds.svg	12	yes	57	0	548	0	0			0	0			1				0	
6.6.1	win	2023-06-01	23:20:35	23:52:27	1908737	60bd4bfc88b646e72d772977	4	1	main_slash	11	main_slash	81	stimuli_target_diamondrectangles.svg	stimuli_distractor_diamondtriangles.svg	23	yes	53	1	536	0	0			0	0			1				0	
6.6.1	win	2023-06-01	23:20:35	23:52:27	1908737	60bd4bfc88b646e72d772977	4	1	main_slash	11	advance_on_keypress_SLASH	82	stimuli_target_diamondrectangles.svg	stimuli_distractor_diamondtriangles.svg	23	yes	57	0	493	0	0			0	0			1				0	
6.6.1	win	2023-06-01	23:20:35	23:52:28	1910224	60bd4bfc88b646e72d772977	4	1	main_slash	11	main_slash	83	stimuli_distractor_trianglediamonds.svg	stimuli_target_rectanglediamonds.svg	10	yes	53	1	341	0	0			0	0			1				0	
6.6.1	win	2023-06-01	23:20:35	23:52:28	1910224	60bd4bfc88b646e72d772977	4	1	main_slash	11	advance_on_keypress_SLASH	84	stimuli_distractor_trianglediamonds.svg	stimuli_target_rectanglediamonds.svg	10	yes	57	0	503	0	0			0	0			1				0	
6.6.1	win	2023-06-01	23:20:35	23:52:30	1911859	60bd4bfc88b646e72d772977	4	1	main_slash	11	main_slash	85	stimuli_distractor_diamondtriangles.svg	stimuli_target_rectangletriangles.svg	13	yes	53	1	494	0	0			0	0			1				0	
6.6.1	win	2023-06-01	23:20:35	23:52:30	1911859	60bd4bfc88b646e72d772977	4	1	main_slash	11	advance_on_keypress_SLASH	86	stimuli_distractor_diamondtriangles.svg	stimuli_target_rectangletriangles.svg	13	yes	57	0	1268	0	0			0	0			1				0	
6.6.1	win	2023-06-01	23:20:35	23:52:32	1914157	60bd4bfc88b646e72d772977	4	1	main_slash	11	main_slash	87	stimuli_distractor_diamondtriangles.svg	stimuli_target_diamondrectangles.svg	31	yes	53	1	380	0	0			0	0			1				0	
6.6.1	win	2023-06-01	23:20:35	23:52:32	1914157	60bd4bfc88b646e72d772977	4	1	main_slash	11	advance_on_keypress_SLASH	88	stimuli_distractor_diamondtriangles.svg	stimuli_target_diamondrectangles.svg	31	yes	57	0	565	0	0			0	0			1				0	
6.6.1	win	2023-06-01	23:20:35	23:52:34	1915756	60bd4bfc88b646e72d772977	4	1	main_slash	11	main_slash	89	stimuli_target_rectanglediamonds.svg	stimuli_distractor_diamondtriangles.svg	6	yes	53	1	382	0	0			0	0			1				0	
6.6.1	win	2023-06-01	23:20:35	23:52:34	1915756	60bd4bfc88b646e72d772977	4	1	main_slash	11	advance_on_keypress_SLASH	90	stimuli_target_rectanglediamonds.svg	stimuli_distractor_diamondtriangles.svg	6	yes	57	0	531	0	0			0	0			1				0	
6.6.1	win	2023-06-01	23:20:35	23:52:35	1917370	60bd4bfc88b646e72d772977	4	1	main_slash	11	main_slash	91	stimuli_target_rectanglediamonds.svg	stimuli_distractor_trianglediamonds.svg	2	yes	53	1	431	0	0			0	0			1				0	
6.6.1	win	2023-06-01	23:20:35	23:52:35	1917370	60bd4bfc88b646e72d772977	4	1	main_slash	11	advance_on_keypress_SLASH	92	stimuli_target_rectanglediamonds.svg	stimuli_distractor_trianglediamonds.svg	2	yes	57	0	1162	0	0			0	0			1				0	
6.6.1	win	2023-06-01	23:20:35	23:52:37	1919460	60bd4bfc88b646e72d772977	4	1	main_slash	11	main_slash	93	stimuli_distractor_trianglediamonds.svg	stimuli_target_trianglesquares.svg	26	yes	53	1	274	0	0			0	0			1				0	
6.6.1	win	2023-06-01	23:20:35	23:52:37	1919460	60bd4bfc88b646e72d772977	4	1	main_slash	11	advance_on_keypress_SLASH	94	stimuli_distractor_trianglediamonds.svg	stimuli_target_trianglesquares.svg	26	yes	57	0	7443	0	0			0	0			1				0	
6.6.1	win	2023-06-01	23:20:35	23:52:46	1927833	60bd4bfc88b646e72d772977	4	1	main_slash	11	main_slash	95	stimuli_distractor_trianglediamonds.svg	stimuli_target_trianglerectangles.svg	25	yes	53	1	292	0	0			0	0			1				0	
6.6.1	win	2023-06-01	23:20:35	23:52:46	1927833	60bd4bfc88b646e72d772977	4	1	main_slash	11	advance_on_keypress_SLASH	96	stimuli_distractor_trianglediamonds.svg	stimuli_target_trianglerectangles.svg	25	yes	57	0	797	0	0			0	0			1				0	
6.6.1	win	2023-06-01	23:20:35	23:52:48	1929732	60bd4bfc88b646e72d772977	4	1	main_slash	11	main_slash	97	stimuli_target_squarediamonds.svg	stimuli_distractor_diamondtriangles.svg	8	yes	53	1	444	0	0			0	0			1				0	
6.6.1	win	2023-06-01	23:20:35	23:52:48	1929732	60bd4bfc88b646e72d772977	4	1	main_slash	11	advance_on_keypress_SLASH	98	stimuli_target_squarediamonds.svg	stimuli_distractor_diamondtriangles.svg	8	yes	57	0	1571	0	0			0	0			1				0	
6.6.1	win	2023-06-01	23:20:35	23:52:50	1932173	60bd4bfc88b646e72d772977	4	1	main_slash	11	main_slash	99	stimuli_target_squaretriangles.svg	stimuli_distractor_diamondtriangles.svg	7	yes	53	1	223	0	0			0	0			1				0	
6.6.1	win	2023-06-01	23:20:35	23:52:50	1932173	60bd4bfc88b646e72d772977	4	1	main_slash	11	advance_on_keypress_SLASH	100	stimuli_target_squaretriangles.svg	stimuli_distractor_diamondtriangles.svg	7	yes	57	0	495	0	0			0	0			1				0	
6.6.1	win	2023-06-01	23:20:35	23:52:51	1933531	60bd4bfc88b646e72d772977	4	1	main_slash	11	main_slash	101	stimuli_target_squarediamonds.svg	stimuli_distractor_trianglediamonds.svg	4	yes	53	1	215	0	0			0	0			1				0	
6.6.1	win	2023-06-01	23:20:35	23:52:51	1933531	60bd4bfc88b646e72d772977	4	1	main_slash	11	advance_on_keypress_SLASH	102	stimuli_target_squarediamonds.svg	stimuli_distractor_trianglediamonds.svg	4	yes	57	0	354	0	0			0	0			1				0	
6.6.1	win	2023-06-01	23:20:35	23:52:53	1934772	60bd4bfc88b646e72d772977	4	1	main_slash	11	main_slash	103	stimuli_distractor_trianglediamonds.svg	stimuli_target_diamondrectangles.svg	27	yes	53	1	242	0	0			0	0			1				0	
6.6.1	win	2023-06-01	23:20:35	23:52:53	1934772	60bd4bfc88b646e72d772977	4	1	main_slash	11	advance_on_keypress_SLASH	104	stimuli_distractor_trianglediamonds.svg	stimuli_target_diamondrectangles.svg	27	yes	57	0	375	0	0			0	0			1				0	
6.6.1	win	2023-06-01	23:20:35	23:52:54	1935931	60bd4bfc88b646e72d772977	4	1	main_slash	11	main_slash	105	stimuli_target_trianglesquares.svg	stimuli_distractor_trianglediamonds.svg	18	yes	53	1	153	0	0			0	0			1				0	
6.6.1	win	2023-06-01	23:20:35	23:52:54	1935931	60bd4bfc88b646e72d772977	4	1	main_slash	11	advance_on_keypress_SLASH	106	stimuli_target_trianglesquares.svg	stimuli_distractor_trianglediamonds.svg	18	yes	57	0	628	0	0			0	0			1				0	
6.6.1	win	2023-06-01	23:20:35	23:52:55	1937333	60bd4bfc88b646e72d772977	4	1	main_slash	11	main_slash	107	stimuli_target_diamondsquares.svg	stimuli_distractor_diamondtriangles.svg	24	yes	53	1	117	0	0			0	0			1				0	
6.6.1	win	2023-06-01	23:20:35	23:52:55	1937333	60bd4bfc88b646e72d772977	4	1	main_slash	11	advance_on_keypress_SLASH	108	stimuli_target_diamondsquares.svg	stimuli_distractor_diamondtriangles.svg	24	yes	57	0	451	0	0			0	0			1				0	
6.6.1	win	2023-06-01	23:20:35	23:52:56	1938656	60bd4bfc88b646e72d772977	4	1	main_slash	11	main_slash	109	stimuli_target_diamondrectangles.svg	stimuli_distractor_trianglediamonds.svg	19	yes	53	1	232	0	0			0	0			1				0	
6.6.1	win	2023-06-01	23:20:35	23:52:56	1938656	60bd4bfc88b646e72d772977	4	1	main_slash	11	advance_on_keypress_SLASH	110	stimuli_target_diamondrectangles.svg	stimuli_distractor_trianglediamonds.svg	19	yes	57	0	346	0	0			0	0			1				0	
6.6.1	win	2023-06-01	23:20:35	23:52:58	1939881	60bd4bfc88b646e72d772977	4	1	main_slash	11	main_slash	111	stimuli_distractor_diamondtriangles.svg	stimuli_distractor_diamondtriangles.svg	39	no	53	0	225	0	0			0	0			1				0	
6.6.1	win	2023-06-01	23:20:35	23:52:58	1939881	60bd4bfc88b646e72d772977	4	1	main_slash	11	advance_on_keypress_SLASH	112	stimuli_distractor_diamondtriangles.svg	stimuli_distractor_diamondtriangles.svg	39	no	57	0	575	0	0			0	0			1				0	
6.6.1	win	2023-06-01	23:20:35	23:53:01	1943087	60bd4bfc88b646e72d772977	4	1	main_slash	11	main_slash	113	stimuli_distractor_trianglediamonds.svg	stimuli_distractor_trianglediamonds.svg	33	no	0	1	2000	0	0			0	0			1				0	
6.6.1	win	2023-06-01	23:20:35	23:53:01	1943087	60bd4bfc88b646e72d772977	4	1	main_slash	11	advance_on_keypress_SLASH	114	stimuli_distractor_trianglediamonds.svg	stimuli_distractor_trianglediamonds.svg	33	no	57	0	26165	0	0			0	0			1				0	
6.6.1	win	2023-06-01	23:20:35	23:53:28	1970299	60bd4bfc88b646e72d772977	4	1	main_slash	11	main_slash	115	stimuli_distractor_diamondtriangles.svg	stimuli_target_trianglerectangles.svg	29	yes	53	1	406	0	0			0	0			1				0	
6.6.1	win	2023-06-01	23:20:35	23:53:28	1970299	60bd4bfc88b646e72d772977	4	1	main_slash	11	advance_on_keypress_SLASH	116	stimuli_distractor_diamondtriangles.svg	stimuli_target_trianglerectangles.svg	29	yes	57	0	439	0	0			0	0			1				0	
6.6.1	win	2023-06-01	23:20:35	23:53:29	1971605	60bd4bfc88b646e72d772977	4	1	main_slash	11	main_slash	117	stimuli_distractor_trianglediamonds.svg	stimuli_distractor_diamondtriangles.svg	35	no	53	0	229	0	0			0	0			1				0	
6.6.1	win	2023-06-01	23:20:35	23:53:29	1971605	60bd4bfc88b646e72d772977	4	1	main_slash	11	advance_on_keypress_SLASH	118	stimuli_distractor_trianglediamonds.svg	stimuli_distractor_diamondtriangles.svg	35	no	57	0	447	0	0			0	0			1				0	
6.6.1	win	2023-06-01	23:20:35	23:53:31	1972917	60bd4bfc88b646e72d772977	4	1	main_slash	11	main_slash	119	stimuli_distractor_trianglediamonds.svg	stimuli_distractor_trianglediamonds.svg	34	no	53	0	209	0	0			0	0			1				0	
6.6.1	win	2023-06-01	23:20:35	23:53:31	1972917	60bd4bfc88b646e72d772977	4	1	main_slash	11	advance_on_keypress_SLASH	120	stimuli_distractor_trianglediamonds.svg	stimuli_distractor_trianglediamonds.svg	34	no	57	0	435	0	0			0	0			1				0	
6.6.1	win	2023-06-01	23:20:35	23:53:34	1976005	60bd4bfc88b646e72d772977	4	1	main_slash	11	main_slash	121	stimuli_target_trianglerectangles.svg	stimuli_distractor_trianglediamonds.svg	17	yes	0	0	2000	0	0			0	0			1				0	
6.6.1	win	2023-06-01	23:20:35	23:53:34	1976005	60bd4bfc88b646e72d772977	4	1	main_slash	11	advance_on_keypress_SLASH	122	stimuli_target_trianglerectangles.svg	stimuli_distractor_trianglediamonds.svg	17	yes	57	0	258	0	0			0	0			1				0	
6.6.1	win	2023-06-01	23:20:35	23:53:35	1977293	60bd4bfc88b646e72d772977	4	1	main_slash	11	main_slash	123	stimuli_distractor_diamondtriangles.svg	stimuli_distractor_trianglediamonds.svg	37	no	53	0	392	0	0			0	0			1				0	
6.6.1	win	2023-06-01	23:20:35	23:53:35	1977293	60bd4bfc88b646e72d772977	4	1	main_slash	11	advance_on_keypress_SLASH	124	stimuli_distractor_diamondtriangles.svg	stimuli_distractor_trianglediamonds.svg	37	no	57	0	426	0	0			0	0			1				0	
6.6.1	win	2023-06-01	23:20:35	23:53:37	1978746	60bd4bfc88b646e72d772977	4	1	main_slash	11	main_slash	125	stimuli_distractor_trianglediamonds.svg	stimuli_distractor_diamondtriangles.svg	36	no	53	0	397	0	0			0	0			1				0	
6.6.1	win	2023-06-01	23:20:35	23:53:37	1978746	60bd4bfc88b646e72d772977	4	1	main_slash	11	advance_on_keypress_SLASH	126	stimuli_distractor_trianglediamonds.svg	stimuli_distractor_diamondtriangles.svg	36	no	57	0	433	0	0			0	0			1				0	
6.6.1	win	2023-06-01	23:20:35	23:53:38	1980255	60bd4bfc88b646e72d772977	4	1	main_slash	11	main_slash	127	stimuli_target_rectangletriangles.svg	stimuli_distractor_diamondtriangles.svg	5	yes	53	1	425	0	0			0	0			1				0	
6.6.1	win	2023-06-01	23:20:35	23:53:38	1980255	60bd4bfc88b646e72d772977	4	1	main_slash	11	advance_on_keypress_SLASH	128	stimuli_target_rectangletriangles.svg	stimuli_distractor_diamondtriangles.svg	5	yes	57	0	498	0	0			0	0			1				0	
6.6.1	win	2023-06-01	23:20:35	23:53:40	1981933	60bd4bfc88b646e72d772977	4	1	main_slash	11	main_slash	129	stimuli_distractor_trianglediamonds.svg	stimuli_target_diamondsquares.svg	28	yes	53	1	540	0	0			0	0			1				0	
6.6.1	win	2023-06-01	23:20:35	23:53:40	1981933	60bd4bfc88b646e72d772977	4	1	main_slash	11	advance_on_keypress_SLASH	130	stimuli_distractor_trianglediamonds.svg	stimuli_target_diamondsquares.svg	28	yes	57	0	486	0	0			0	0			1				0	
6.6.1	win	2023-06-01	23:20:35	23:53:41	1983628	60bd4bfc88b646e72d772977	4	1	main_slash	11	main_slash	131	stimuli_target_trianglesquares.svg	stimuli_distractor_diamondtriangles.svg	22	yes	53	1	570	0	0			0	0			1				0	
6.6.1	win	2023-06-01	23:20:35	23:53:41	1983628	60bd4bfc88b646e72d772977	4	1	main_slash	11	advance_on_keypress_SLASH	132	stimuli_target_trianglesquares.svg	stimuli_distractor_diamondtriangles.svg	22	yes	57	0	456	0	0			0	0			1				0	
6.6.1	win	2023-06-01	23:20:35	23:53:43	1985033	60bd4bfc88b646e72d772977	4	1	main_slash	11	main_slash	133	stimuli_distractor_diamondtriangles.svg	stimuli_target_diamondsquares.svg	32	yes	53	1	309	0	0			0	0			1				0	
6.6.1	win	2023-06-01	23:20:35	23:53:43	1985033	60bd4bfc88b646e72d772977	4	1	main_slash	11	advance_on_keypress_SLASH	134	stimuli_distractor_diamondtriangles.svg	stimuli_target_diamondsquares.svg	32	yes	57	0	2911	0	0			0	0			1				0	
6.6.1	win	2023-06-01	23:20:35	23:53:47	1988927	60bd4bfc88b646e72d772977	4	1	main_slash	11	main_slash	135	stimuli_distractor_trianglediamonds.svg	stimuli_target_squaretriangles.svg	11	yes	53	1	327	0	0			0	0			1				0	
6.6.1	win	2023-06-01	23:20:35	23:53:47	1988927	60bd4bfc88b646e72d772977	4	1	main_slash	11	advance_on_keypress_SLASH	136	stimuli_distractor_trianglediamonds.svg	stimuli_target_squaretriangles.svg	11	yes	57	0	456	0	0			0	0			1				0	
6.6.1	win	2023-06-01	23:20:35	23:53:48	1990411	60bd4bfc88b646e72d772977	4	1	main_slash	11	main_slash	137	stimuli_distractor_trianglediamonds.svg	stimuli_target_squarediamonds.svg	12	yes	53	1	380	0	0			0	0			1				0	
6.6.1	win	2023-06-01	23:20:35	23:53:48	1990411	60bd4bfc88b646e72d772977	4	1	main_slash	11	advance_on_keypress_SLASH	138	stimuli_distractor_trianglediamonds.svg	stimuli_target_squarediamonds.svg	12	yes	57	0	1468	0	0			0	0			1				0	
6.6.1	win	2023-06-01	23:20:35	23:53:51	1992946	60bd4bfc88b646e72d772977	4	1	main_slash	11	main_slash	139	stimuli_distractor_diamondtriangles.svg	stimuli_distractor_trianglediamonds.svg	38	no	53	0	418	0	0			0	0			1				0	
6.6.1	win	2023-06-01	23:20:35	23:53:51	1992946	60bd4bfc88b646e72d772977	4	1	main_slash	11	advance_on_keypress_SLASH	140	stimuli_distractor_diamondtriangles.svg	stimuli_distractor_trianglediamonds.svg	38	no	57	0	458	0	0			0	0			1				0	
6.6.1	win	2023-06-01	23:20:35	23:53:52	1994429	60bd4bfc88b646e72d772977	4	1	main_slash	11	main_slash	141	stimuli_target_trianglerectangles.svg	stimuli_distractor_diamondtriangles.svg	21	yes	53	1	387	0	0			0	0			1				0	
6.6.1	win	2023-06-01	23:20:35	23:53:52	1994429	60bd4bfc88b646e72d772977	4	1	main_slash	11	advance_on_keypress_SLASH	142	stimuli_target_trianglerectangles.svg	stimuli_distractor_diamondtriangles.svg	21	yes	57	0	424	0	0			0	0			1				0	
6.6.1	win	2023-06-01	23:20:35	23:53:54	1995822	60bd4bfc88b646e72d772977	4	1	main_slash	11	main_slash	143	stimuli_distractor_diamondtriangles.svg	stimuli_target_squaretriangles.svg	15	yes	53	1	331	0	0			0	0			1				0	
6.6.1	win	2023-06-01	23:20:35	23:53:54	1995822	60bd4bfc88b646e72d772977	4	1	main_slash	11	advance_on_keypress_SLASH	144	stimuli_distractor_diamondtriangles.svg	stimuli_target_squaretriangles.svg	15	yes	57	0	5312	0	0			0	0			1				0	
6.6.1	win	2023-06-01	23:20:35	23:54:00	2002208	60bd4bfc88b646e72d772977	4	1	main_slash	11	main_slash	145	stimuli_target_diamondsquares.svg	stimuli_distractor_trianglediamonds.svg	20	yes	53	1	427	0	0			0	0			1				0	
6.6.1	win	2023-06-01	23:20:35	23:54:00	2002208	60bd4bfc88b646e72d772977	4	1	main_slash	11	advance_on_keypress_SLASH	146	stimuli_target_diamondsquares.svg	stimuli_distractor_trianglediamonds.svg	20	yes	57	0	446	0	0			0	0			1				0	
6.6.1	win	2023-06-01	23:20:35	23:54:01	2003560	60bd4bfc88b646e72d772977	4	1	main_slash	11	main_slash	147	stimuli_distractor_diamondtriangles.svg	stimuli_distractor_diamondtriangles.svg	40	no	53	0	248	0	0			0	0			1				0	
6.6.1	win	2023-06-01	23:20:35	23:54:01	2003560	60bd4bfc88b646e72d772977	4	1	main_slash	11	advance_on_keypress_SLASH	148	stimuli_distractor_diamondtriangles.svg	stimuli_distractor_diamondtriangles.svg	40	no	57	0	491	0	0			0	0			1				0	
6.6.1	win	2023-06-01	23:20:35	23:54:03	2005028	60bd4bfc88b646e72d772977	4	1	main_slash	11	main_slash	149	stimuli_distractor_diamondtriangles.svg	stimuli_target_squarediamonds.svg	16	yes	53	1	335	0	0			0	0			1				0	
6.6.1	win	2023-06-01	23:20:35	23:54:03	2005028	60bd4bfc88b646e72d772977	4	1	main_slash	11	advance_on_keypress_SLASH	150	stimuli_distractor_diamondtriangles.svg	stimuli_target_squarediamonds.svg	16	yes	57	0	603	0	0			0	0			1				0	
6.6.1	win	2023-06-01	23:20:35	23:54:04	2006388	60bd4bfc88b646e72d772977	4	1	main_slash	11	main_slash	151	stimuli_target_rectangletriangles.svg	stimuli_distractor_trianglediamonds.svg	1	yes	53	1	114	0	0			0	0			1				0	
6.6.1	win	2023-06-01	23:20:35	23:54:04	2006388	60bd4bfc88b646e72d772977	4	1	main_slash	11	advance_on_keypress_SLASH	152	stimuli_target_rectangletriangles.svg	stimuli_distractor_trianglediamonds.svg	1	yes	57	0	480	0	0			0	0			1				0	
6.6.1	win	2023-06-01	23:20:35	23:54:06	2007712	60bd4bfc88b646e72d772977	4	1	main_slash	11	main_slash	153	stimuli_distractor_diamondtriangles.svg	stimuli_target_rectanglediamonds.svg	14	yes	53	1	191	0	0			0	0			1				0	
6.6.1	win	2023-06-01	23:20:35	23:54:06	2007712	60bd4bfc88b646e72d772977	4	1	main_slash	11	advance_on_keypress_SLASH	154	stimuli_distractor_diamondtriangles.svg	stimuli_target_rectanglediamonds.svg	14	yes	57	0	483	0	0			0	0			1				0	
6.6.1	win	2023-06-01	23:20:35	23:54:07	2009036	60bd4bfc88b646e72d772977	4	1	main_slash	11	main_slash	155	stimuli_distractor_trianglediamonds.svg	stimuli_target_rectangletriangles.svg	9	yes	53	1	200	0	0			0	0			1				0	
6.6.1	win	2023-06-01	23:20:35	23:54:07	2009036	60bd4bfc88b646e72d772977	4	1	main_slash	11	advance_on_keypress_SLASH	156	stimuli_distractor_trianglediamonds.svg	stimuli_target_rectangletriangles.svg	9	yes	57	0	537	0	0			0	0			1				0	
6.6.1	win	2023-06-01	23:20:35	23:54:08	2010525	60bd4bfc88b646e72d772977	4	1	main_slash	11	main_slash	157	stimuli_distractor_diamondtriangles.svg	stimuli_target_trianglesquares.svg	30	yes	53	1	307	0	0			0	0			1				0	
6.6.1	win	2023-06-01	23:20:35	23:54:08	2010525	60bd4bfc88b646e72d772977	4	1	main_slash	11	advance_on_keypress_SLASH	158	stimuli_distractor_diamondtriangles.svg	stimuli_target_trianglesquares.svg	30	yes	57	0	456	0	0			0	0			1				0	
6.6.1	win	2023-06-01	23:20:35	23:54:10	2011864	60bd4bfc88b646e72d772977	4	1	main_slash	11	main_slash	159	stimuli_target_squaretriangles.svg	stimuli_distractor_trianglediamonds.svg	3	yes	53	1	247	0	0			0	0			1				0	
6.6.1	win	2023-06-01	23:20:35	23:54:10	2011864	60bd4bfc88b646e72d772977	4	1	main_slash	11	advance_on_keypress_SLASH	160	stimuli_target_squaretriangles.svg	stimuli_distractor_trianglediamonds.svg	3	yes	57	0	499	0	0			0	0			1				0	
6.6.1	win	2023-06-01	23:20:35	23:54:10	2011864	60bd4bfc88b646e72d772977	4	1	headphonecheck_calibration	14	headphonecheck_calibrationIntro	1	stimuli_target_squaretriangles.svg	stimuli_distractor_trianglediamonds.svg	3	yes	calibrationButton	0	3004	0	0			0	0			1				0	
6.6.1	win	2023-06-01	23:20:35	23:54:10	2011864	60bd4bfc88b646e72d772977	4	1	headphonecheck_testphase	15	test_collectResponse	3	stimuli_target_squaretriangles.svg	stimuli_distractor_trianglediamonds.svg	3	yes	first	1	815	1	4	antiphase_hc_sio.wav	1	0	0			1				0	
6.6.1	win	2023-06-01	23:20:35	23:54:10	2011864	60bd4bfc88b646e72d772977	4	1	headphonecheck_testphase	15	test_collectResponse	6	stimuli_target_squaretriangles.svg	stimuli_distractor_trianglediamonds.svg	3	yes	third	1	556	2	2	antiphase_hc_ios.wav	3	0	0			1				0	
6.6.1	win	2023-06-01	23:20:35	23:54:10	2011864	60bd4bfc88b646e72d772977	4	1	headphonecheck_testphase	15	test_collectResponse	9	stimuli_target_squaretriangles.svg	stimuli_distractor_trianglediamonds.svg	3	yes	second	1	374	3	1	antiphase_hc_iso.wav	2	0	0			1				0	
6.6.1	win	2023-06-01	23:20:35	23:54:10	2011864	60bd4bfc88b646e72d772977	4	1	headphonecheck_testphase	15	test_collectResponse	12	stimuli_target_squaretriangles.svg	stimuli_distractor_trianglediamonds.svg	3	yes	second	1	372	4	5	antiphase_hc_osi.wav	2	0	0			1				0	
6.6.1	win	2023-06-01	23:20:35	23:54:10	2011864	60bd4bfc88b646e72d772977	4	1	headphonecheck_testphase	15	test_collectResponse	15	stimuli_target_squaretriangles.svg	stimuli_distractor_trianglediamonds.svg	3	yes	third	1	491	5	6	antiphase_hc_ois.wav	3	0	0			1				0	
6.6.1	win	2023-06-01	23:20:35	23:54:10	2011864	60bd4bfc88b646e72d772977	4	1	headphonecheck_testphase	15	test_collectResponse	18	stimuli_target_squaretriangles.svg	stimuli_distractor_trianglediamonds.svg	3	yes	first	1	480	6	3	antiphase_hc_soi.wav	1	0	0			1				0	
6.6.1	win	2023-06-01	23:20:35	23:54:10	2011864	60bd4bfc88b646e72d772977	4	1	stereocheck_calibration	17	stereocheck_calibrationIntro	1	stimuli_target_squaretriangles.svg	stimuli_distractor_trianglediamonds.svg	3	yes	stereocheck_calibrationButton	0	4397	6	3	antiphase_hc_soi.wav	1	0	0			1				0	
6.6.1	win	2023-06-01	23:20:35	23:54:10	2011864	60bd4bfc88b646e72d772977	4	1	stereocheck_testphase	18	stereocheck_test_collectResponse	3	stimuli_target_squaretriangles.svg	stimuli_distractor_trianglediamonds.svg	3	yes	stereocheck_right	1	272	6	3	antiphase_hc_soi.wav	1	1	6	noise_calib_stim_RIGHT.wav	2	1				0	
6.6.1	win	2023-06-01	23:20:35	23:54:10	2011864	60bd4bfc88b646e72d772977	4	1	stereocheck_testphase	18	stereocheck_test_collectResponse	6	stimuli_target_squaretriangles.svg	stimuli_distractor_trianglediamonds.svg	3	yes	stereocheck_left	1	386	6	3	antiphase_hc_soi.wav	1	2	2	noise_calib_stim_LEFT.wav	1	1				0	
6.6.1	win	2023-06-01	23:20:35	23:54:10	2011864	60bd4bfc88b646e72d772977	4	1	stereocheck_testphase	18	stereocheck_test_collectResponse	9	stimuli_target_squaretriangles.svg	stimuli_distractor_trianglediamonds.svg	3	yes	stereocheck_left	1	405	6	3	antiphase_hc_soi.wav	1	3	3	noise_calib_stim_LEFT.wav	1	1				0	
6.6.1	win	2023-06-01	23:20:35	23:54:10	2011864	60bd4bfc88b646e72d772977	4	1	stereocheck_testphase	18	stereocheck_test_collectResponse	12	stimuli_target_squaretriangles.svg	stimuli_distractor_trianglediamonds.svg	3	yes	stereocheck_left	1	349	6	3	antiphase_hc_soi.wav	1	4	1	noise_calib_stim_LEFT.wav	1	1				0	
6.6.1	win	2023-06-01	23:20:35	23:54:10	2011864	60bd4bfc88b646e72d772977	4	1	stereocheck_testphase	18	stereocheck_test_collectResponse	15	stimuli_target_squaretriangles.svg	stimuli_distractor_trianglediamonds.svg	3	yes	stereocheck_right	1	283	6	3	antiphase_hc_soi.wav	1	5	4	noise_calib_stim_RIGHT.wav	2	1				0	
6.6.1	win	2023-06-01	23:20:35	23:54:10	2011864	60bd4bfc88b646e72d772977	4	1	stereocheck_testphase	18	stereocheck_test_collectResponse	18	stimuli_target_squaretriangles.svg	stimuli_distractor_trianglediamonds.svg	3	yes	stereocheck_right	1	287	6	3	antiphase_hc_soi.wav	1	6	5	noise_calib_stim_RIGHT.wav	2	1				0	
6.6.1	win	2023-06-01	23:20:35	23:54:10	2011864	60bd4bfc88b646e72d772977	4	1	DL_practice	21	DL_practice	2	stimuli_target_squaretriangles.svg	stimuli_distractor_trianglediamonds.svg	3	yes	ta	1	1738	6	3	antiphase_hc_soi.wav	1	6	5	noise_calib_stim_RIGHT.wav	2	36	blb_dichoticlistening_ta-ta.mp3	ta	ta	0	left
6.6.1	win	2023-06-01	23:20:35	23:54:10	2011864	60bd4bfc88b646e72d772977	4	1	DL_practice	21	DL_practice	3	stimuli_target_squaretriangles.svg	stimuli_distractor_trianglediamonds.svg	3	yes	da	0	964	6	3	antiphase_hc_soi.wav	1	6	5	noise_calib_stim_RIGHT.wav	2	18	blb_dichoticlistening_ga-ta.mp3	ga	ta	1	other
6.6.1	win	2023-06-01	23:20:35	23:54:10	2011864	60bd4bfc88b646e72d772977	4	1	DL_practice	21	DL_practice	4	stimuli_target_squaretriangles.svg	stimuli_distractor_trianglediamonds.svg	3	yes	pa	1	1468	6	3	antiphase_hc_soi.wav	1	6	5	noise_calib_stim_RIGHT.wav	2	29	blb_dichoticlistening_pa-pa.mp3	pa	pa	0	left
6.6.1	win	2023-06-01	23:20:35	23:54:10	2011864	60bd4bfc88b646e72d772977	4	1	DL_practice	21	DL_practice	5	stimuli_target_squaretriangles.svg	stimuli_distractor_trianglediamonds.svg	3	yes	pa	1	857	6	3	antiphase_hc_soi.wav	1	6	5	noise_calib_stim_RIGHT.wav	2	23	blb_dichoticlistening_ka-pa.mp3	ka	pa	1	right
6.6.1	win	2023-06-01	23:20:35	23:54:10	2011864	60bd4bfc88b646e72d772977	4	1	DL_practice	21	DL_practice	6	stimuli_target_squaretriangles.svg	stimuli_distractor_trianglediamonds.svg	3	yes	da	1	1157	6	3	antiphase_hc_soi.wav	1	6	5	noise_calib_stim_RIGHT.wav	2	8	blb_dichoticlistening_da-da.mp3	da	da	0	left
6.6.1	win	2023-06-01	23:20:35	23:54:10	2011864	60bd4bfc88b646e72d772977	4	1	DL_practice	21	DL_practice	7	stimuli_target_squaretriangles.svg	stimuli_distractor_trianglediamonds.svg	3	yes	ka	1	1412	6	3	antiphase_hc_soi.wav	1	6	5	noise_calib_stim_RIGHT.wav	2	22	blb_dichoticlistening_ka-ka.mp3	ka	ka	0	left
6.6.1	win	2023-06-01	23:20:35	23:54:10	2011864	60bd4bfc88b646e72d772977	4	1	DL_practice	21	DL_practice	8	stimuli_target_squaretriangles.svg	stimuli_distractor_trianglediamonds.svg	3	yes	ba	1	1280	6	3	antiphase_hc_soi.wav	1	6	5	noise_calib_stim_RIGHT.wav	2	7	blb_dichoticlistening_da-ba.mp3	da	ba	1	right
6.6.1	win	2023-06-01	23:20:35	23:54:10	2011864	60bd4bfc88b646e72d772977	4	1	DL_practice	21	DL_practice	9	stimuli_target_squaretriangles.svg	stimuli_distractor_trianglediamonds.svg	3	yes	ga	1	1152	6	3	antiphase_hc_soi.wav	1	6	5	noise_calib_stim_RIGHT.wav	2	15	blb_dichoticlistening_ga-ga.mp3	ga	ga	0	left
6.6.1	win	2023-06-01	23:20:35	23:54:10	2011864	60bd4bfc88b646e72d772977	4	1	DL_practice	21	DL_practice	10	stimuli_target_squaretriangles.svg	stimuli_distractor_trianglediamonds.svg	3	yes	ba	1	1058	6	3	antiphase_hc_soi.wav	1	6	5	noise_calib_stim_RIGHT.wav	2	1	blb_dichoticlistening_ba-ba.mp3	ba	ba	0	left
6.6.1	win	2023-06-01	23:20:35	23:54:10	2011864	60bd4bfc88b646e72d772977	4	1	DL_test	23	DL_test	1	stimuli_target_squaretriangles.svg	stimuli_distractor_trianglediamonds.svg	3	yes	ba	1	1892	6	3	antiphase_hc_soi.wav	1	6	5	noise_calib_stim_RIGHT.wav	2	1	blb_dichoticlistening_ba-ba.mp3	ba	ba	0	left
6.6.1	win	2023-06-01	23:20:35	23:54:10	2011864	60bd4bfc88b646e72d772977	4	1	DL_test	23	DL_test	2	stimuli_target_squaretriangles.svg	stimuli_distractor_trianglediamonds.svg	3	yes	ba	1	688	6	3	antiphase_hc_soi.wav	1	6	5	noise_calib_stim_RIGHT.wav	2	13	blb_dichoticlistening_ga-ba.mp3	ga	ba	1	right
6.6.1	win	2023-06-01	23:20:35	23:54:10	2011864	60bd4bfc88b646e72d772977	4	1	DL_test	23	DL_test	3	stimuli_target_squaretriangles.svg	stimuli_distractor_trianglediamonds.svg	3	yes	ka	1	1311	6	3	antiphase_hc_soi.wav	1	6	5	noise_calib_stim_RIGHT.wav	2	16	blb_dichoticlistening_ga-ka.mp3	ga	ka	1	right
6.6.1	win	2023-06-01	23:20:35	23:54:10	2011864	60bd4bfc88b646e72d772977	4	1	DL_test	23	DL_test	4	stimuli_target_squaretriangles.svg	stimuli_distractor_trianglediamonds.svg	3	yes	ta	0	1990	6	3	antiphase_hc_soi.wav	1	6	5	noise_calib_stim_RIGHT.wav	2	26	blb_dichoticlistening_pa-da.mp3	pa	da	1	other
6.6.1	win	2023-06-01	23:20:35	23:54:10	2011864	60bd4bfc88b646e72d772977	4	1	DL_test	23	DL_test	5	stimuli_target_squaretriangles.svg	stimuli_distractor_trianglediamonds.svg	3	yes	pa	1	860	6	3	antiphase_hc_soi.wav	1	6	5	noise_calib_stim_RIGHT.wav	2	35	blb_dichoticlistening_ta-pa.mp3	ta	pa	1	right
6.6.1	win	2023-06-01	23:20:35	23:54:10	2011864	60bd4bfc88b646e72d772977	4	1	DL_test	23	DL_test	6	stimuli_target_squaretriangles.svg	stimuli_distractor_trianglediamonds.svg	3	yes	ga	1	1294	6	3	antiphase_hc_soi.wav	1	6	5	noise_calib_stim_RIGHT.wav	2	15	blb_dichoticlistening_ga-ga.mp3	ga	ga	0	left
6.6.1	win	2023-06-01	23:20:35	23:54:10	2011864	60bd4bfc88b646e72d772977	4	1	DL_test	23	DL_test	7	stimuli_target_squaretriangles.svg	stimuli_distractor_trianglediamonds.svg	3	yes	ba	1	1316	6	3	antiphase_hc_soi.wav	1	6	5	noise_calib_stim_RIGHT.wav	2	3	blb_dichoticlistening_ba-ga.mp3	ba	ga	1	left
6.6.1	win	2023-06-01	23:20:35	23:54:10	2011864	60bd4bfc88b646e72d772977	4	1	DL_test	23	DL_test	8	stimuli_target_squaretriangles.svg	stimuli_distractor_trianglediamonds.svg	3	yes	pa	1	1852	6	3	antiphase_hc_soi.wav	1	6	5	noise_calib_stim_RIGHT.wav	2	30	blb_dichoticlistening_pa-ta.mp3	pa	ta	1	left
6.6.1	win	2023-06-01	23:20:35	23:54:10	2011864	60bd4bfc88b646e72d772977	4	1	DL_test	23	DL_test	9	stimuli_target_squaretriangles.svg	stimuli_distractor_trianglediamonds.svg	3	yes	ba	1	1477	6	3	antiphase_hc_soi.wav	1	6	5	noise_calib_stim_RIGHT.wav	2	7	blb_dichoticlistening_da-ba.mp3	da	ba	1	right
6.6.1	win	2023-06-01	23:20:35	23:54:10	2011864	60bd4bfc88b646e72d772977	4	1	DL_test	23	DL_test	10	stimuli_target_squaretriangles.svg	stimuli_distractor_trianglediamonds.svg	3	yes	ga	1	1259	6	3	antiphase_hc_soi.wav	1	6	5	noise_calib_stim_RIGHT.wav	2	21	blb_dichoticlistening_ka-ga.mp3	ka	ga	1	right
6.6.1	win	2023-06-01	23:20:35	23:54:10	2011864	60bd4bfc88b646e72d772977	4	1	DL_test	23	DL_test	11	stimuli_target_squaretriangles.svg	stimuli_distractor_trianglediamonds.svg	3	yes	pa	1	1270	6	3	antiphase_hc_soi.wav	1	6	5	noise_calib_stim_RIGHT.wav	2	5	blb_dichoticlistening_ba-pa.mp3	ba	pa	1	right
6.6.1	win	2023-06-01	23:20:35	23:54:10	2011864	60bd4bfc88b646e72d772977	4	1	DL_test	23	DL_test	12	stimuli_target_squaretriangles.svg	stimuli_distractor_trianglediamonds.svg	3	yes	ka	1	1668	6	3	antiphase_hc_soi.wav	1	6	5	noise_calib_stim_RIGHT.wav	2	20	blb_dichoticlistening_ka-da.mp3	ka	da	1	left
6.6.1	win	2023-06-01	23:20:35	23:54:10	2011864	60bd4bfc88b646e72d772977	4	1	DL_test	23	DL_test	13	stimuli_target_squaretriangles.svg	stimuli_distractor_trianglediamonds.svg	3	yes	ka	1	635	6	3	antiphase_hc_soi.wav	1	6	5	noise_calib_stim_RIGHT.wav	2	24	blb_dichoticlistening_ka-ta.mp3	ka	ta	1	left
6.6.1	win	2023-06-01	23:20:35	23:54:10	2011864	60bd4bfc88b646e72d772977	4	1	DL_test	23	DL_test	14	stimuli_target_squaretriangles.svg	stimuli_distractor_trianglediamonds.svg	3	yes	pa	1	1308	6	3	antiphase_hc_soi.wav	1	6	5	noise_calib_stim_RIGHT.wav	2	17	blb_dichoticlistening_ga-pa.mp3	ga	pa	1	right
6.6.1	win	2023-06-01	23:20:35	23:54:10	2011864	60bd4bfc88b646e72d772977	4	1	DL_test	23	DL_test	15	stimuli_target_squaretriangles.svg	stimuli_distractor_trianglediamonds.svg	3	yes	ta	1	1191	6	3	antiphase_hc_soi.wav	1	6	5	noise_calib_stim_RIGHT.wav	2	36	blb_dichoticlistening_ta-ta.mp3	ta	ta	0	left
6.6.1	win	2023-06-01	23:20:35	23:54:10	2011864	60bd4bfc88b646e72d772977	4	1	DL_test	23	DL_test	16	stimuli_target_squaretriangles.svg	stimuli_distractor_trianglediamonds.svg	3	yes	ka	1	1994	6	3	antiphase_hc_soi.wav	1	6	5	noise_calib_stim_RIGHT.wav	2	19	blb_dichoticlistening_ka-ba.mp3	ka	ba	1	left
6.6.1	win	2023-06-01	23:20:35	23:54:10	2011864	60bd4bfc88b646e72d772977	4	1	DL_test	23	DL_test	17	stimuli_target_squaretriangles.svg	stimuli_distractor_trianglediamonds.svg	3	yes	ka	1	844	6	3	antiphase_hc_soi.wav	1	6	5	noise_calib_stim_RIGHT.wav	2	34	blb_dichoticlistening_ta-ka.mp3	ta	ka	1	right
6.6.1	win	2023-06-01	23:20:35	23:54:10	2011864	60bd4bfc88b646e72d772977	4	1	DL_test	23	DL_test	18	stimuli_target_squaretriangles.svg	stimuli_distractor_trianglediamonds.svg	3	yes	da	1	1519	6	3	antiphase_hc_soi.wav	1	6	5	noise_calib_stim_RIGHT.wav	2	10	blb_dichoticlistening_da-ka.mp3	da	ka	1	left
6.6.1	win	2023-06-01	23:20:35	23:54:10	2011864	60bd4bfc88b646e72d772977	4	1	DL_test	23	DL_test	19	stimuli_target_squaretriangles.svg	stimuli_distractor_trianglediamonds.svg	3	yes	da	1	561	6	3	antiphase_hc_soi.wav	1	6	5	noise_calib_stim_RIGHT.wav	2	9	blb_dichoticlistening_da-ga.mp3	da	ga	1	left
6.6.1	win	2023-06-01	23:20:35	23:54:10	2011864	60bd4bfc88b646e72d772977	4	1	DL_test	23	DL_test	20	stimuli_target_squaretriangles.svg	stimuli_distractor_trianglediamonds.svg	3	yes	ka	1	1332	6	3	antiphase_hc_soi.wav	1	6	5	noise_calib_stim_RIGHT.wav	2	22	blb_dichoticlistening_ka-ka.mp3	ka	ka	0	left
6.6.1	win	2023-06-01	23:20:35	23:54:10	2011864	60bd4bfc88b646e72d772977	4	1	DL_test	23	DL_test	21	stimuli_target_squaretriangles.svg	stimuli_distractor_trianglediamonds.svg	3	yes	ba	1	819	6	3	antiphase_hc_soi.wav	1	6	5	noise_calib_stim_RIGHT.wav	2	2	blb_dichoticlistening_ba-da.mp3	ba	da	1	left
6.6.1	win	2023-06-01	23:20:35	23:54:10	2011864	60bd4bfc88b646e72d772977	4	1	DL_test	23	DL_test	22	stimuli_target_squaretriangles.svg	stimuli_distractor_trianglediamonds.svg	3	yes	da	1	800	6	3	antiphase_hc_soi.wav	1	6	5	noise_calib_stim_RIGHT.wav	2	32	blb_dichoticlistening_ta-da.mp3	ta	da	1	right
6.6.1	win	2023-06-01	23:20:35	23:54:10	2011864	60bd4bfc88b646e72d772977	4	1	DL_test	23	DL_test	23	stimuli_target_squaretriangles.svg	stimuli_distractor_trianglediamonds.svg	3	yes	pa	0	1591	6	3	antiphase_hc_soi.wav	1	6	5	noise_calib_stim_RIGHT.wav	2	31	blb_dichoticlistening_ta-ba.mp3	ta	ba	1	other
6.6.1	win	2023-06-01	23:20:35	23:54:10	2011864	60bd4bfc88b646e72d772977	4	1	DL_test	23	DL_test	24	stimuli_target_squaretriangles.svg	stimuli_distractor_trianglediamonds.svg	3	yes	ka	1	1762	6	3	antiphase_hc_soi.wav	1	6	5	noise_calib_stim_RIGHT.wav	2	28	blb_dichoticlistening_pa-ka.mp3	pa	ka	1	right
6.6.1	win	2023-06-01	23:20:35	23:54:10	2011864	60bd4bfc88b646e72d772977	4	1	DL_test	23	DL_test	25	stimuli_target_squaretriangles.svg	stimuli_distractor_trianglediamonds.svg	3	yes	ta	1	1131	6	3	antiphase_hc_soi.wav	1	6	5	noise_calib_stim_RIGHT.wav	2	12	blb_dichoticlistening_da-ta.mp3	da	ta	1	right
