build	computer.platform	date	time	timestamp	time_elapsed_ms	subject	group	session	blockcode	blocknum	trialcode	trialnum	stimulus_left	stimulus_right	stim_index	target_present	response	correct	latency	headphonecheck_countTestTrials	headphonecheck_index	headphonecheck_testSound	headphonecheck_correctResponse	stereocheck_countTestTrials	stereocheck_index	stereocheck_testSound	stereocheck_correctResponse	DL_index	DL_soundfile	DL_leftSound	DL_rightSound	DL_dualSound	DL_choice
6.6.1	mac	2023-07-07	17:45:36	17:47:42	122937	5e9b9eaee0e30b0b27983c50	4	1	practice_z	5	practice_z	1	stimuli_distractor_diamondtriangles.svg	stimuli_distractor_diamondtriangles.svg	13	no	0	1	2000	0	0			0	0			1				0	
6.6.1	mac	2023-07-07	17:45:36	17:47:42	122937	5e9b9eaee0e30b0b27983c50	4	1	practice_z	5	advance_on_keypress_ZEE	2	stimuli_distractor_diamondtriangles.svg	stimuli_distractor_diamondtriangles.svg	13	no	57	0	1648	0	0			0	0			1				0	
6.6.1	mac	2023-07-07	17:45:36	17:47:47	128219	5e9b9eaee0e30b0b27983c50	4	1	practice_z	5	practice_z	3	stimuli_distractor_diamondtriangles.svg	stimuli_distractor_trianglediamonds.svg	14	no	0	1	2000	0	0			0	0			1				0	
6.6.1	mac	2023-07-07	17:45:36	17:47:47	128219	5e9b9eaee0e30b0b27983c50	4	1	practice_z	5	advance_on_keypress_ZEE	4	stimuli_distractor_diamondtriangles.svg	stimuli_distractor_trianglediamonds.svg	14	no	57	0	489	0	0			0	0			1				0	
6.6.1	mac	2023-07-07	17:45:36	17:47:50	131303	5e9b9eaee0e30b0b27983c50	4	1	practice_z	5	practice_z	5	stimuli_target_diamondsquares.svg	stimuli_distractor_diamondtriangles.svg	3	yes	44	1	964	0	0			0	0			1				0	
6.6.1	mac	2023-07-07	17:45:36	17:47:50	131303	5e9b9eaee0e30b0b27983c50	4	1	practice_z	5	advance_on_keypress_ZEE	6	stimuli_target_diamondsquares.svg	stimuli_distractor_diamondtriangles.svg	3	yes	57	0	579	0	0			0	0			1				0	
6.6.1	mac	2023-07-07	17:45:36	17:47:54	135096	5e9b9eaee0e30b0b27983c50	4	1	practice_z	5	practice_z	7	stimuli_distractor_diamondtriangles.svg	stimuli_target_rectangletriangles.svg	7	yes	44	1	1575	0	0			0	0			1				0	
6.6.1	mac	2023-07-07	17:45:36	17:47:54	135096	5e9b9eaee0e30b0b27983c50	4	1	practice_z	5	advance_on_keypress_ZEE	8	stimuli_distractor_diamondtriangles.svg	stimuli_target_rectangletriangles.svg	7	yes	57	0	527	0	0			0	0			1				0	
6.6.1	mac	2023-07-07	17:45:36	17:47:57	138150	5e9b9eaee0e30b0b27983c50	4	1	practice_z	5	practice_z	9	stimuli_distractor_trianglediamonds.svg	stimuli_target_squarediamonds.svg	11	yes	44	1	894	0	0			0	0			1				0	
6.6.1	mac	2023-07-07	17:45:36	17:47:57	138150	5e9b9eaee0e30b0b27983c50	4	1	practice_z	5	advance_on_keypress_ZEE	10	stimuli_distractor_trianglediamonds.svg	stimuli_target_squarediamonds.svg	11	yes	57	0	551	0	0			0	0			1				0	
6.6.1	mac	2023-07-07	17:45:36	17:48:00	141182	5e9b9eaee0e30b0b27983c50	4	1	practice_z	5	practice_z	11	stimuli_target_squarediamonds.svg	stimuli_distractor_trianglediamonds.svg	5	yes	44	1	843	0	0			0	0			1				0	
6.6.1	mac	2023-07-07	17:45:36	17:48:00	141182	5e9b9eaee0e30b0b27983c50	4	1	practice_z	5	advance_on_keypress_ZEE	12	stimuli_target_squarediamonds.svg	stimuli_distractor_trianglediamonds.svg	5	yes	57	0	533	0	0			0	0			1				0	
6.6.1	mac	2023-07-07	17:45:36	17:48:03	144411	5e9b9eaee0e30b0b27983c50	4	1	practice_z	5	practice_z	13	stimuli_target_diamondsquares.svg	stimuli_distractor_trianglediamonds.svg	6	yes	44	1	1056	0	0			0	0			1				0	
6.6.1	mac	2023-07-07	17:45:36	17:48:03	144411	5e9b9eaee0e30b0b27983c50	4	1	practice_z	5	advance_on_keypress_ZEE	14	stimuli_target_diamondsquares.svg	stimuli_distractor_trianglediamonds.svg	6	yes	57	0	500	0	0			0	0			1				0	
6.6.1	mac	2023-07-07	17:45:36	17:48:07	147536	5e9b9eaee0e30b0b27983c50	4	1	practice_z	5	practice_z	15	stimuli_distractor_diamondtriangles.svg	stimuli_target_diamondrectangles.svg	8	yes	44	1	982	0	0			0	0			1				0	
6.6.1	mac	2023-07-07	17:45:36	17:48:07	147536	5e9b9eaee0e30b0b27983c50	4	1	practice_z	5	advance_on_keypress_ZEE	16	stimuli_distractor_diamondtriangles.svg	stimuli_target_diamondrectangles.svg	8	yes	57	0	341	0	0			0	0			1				0	
6.6.1	mac	2023-07-07	17:45:36	17:48:09	150426	5e9b9eaee0e30b0b27983c50	4	1	practice_z	5	practice_z	17	stimuli_distractor_trianglediamonds.svg	stimuli_target_diamondrectangles.svg	12	yes	44	1	922	0	0			0	0			1				0	
6.6.1	mac	2023-07-07	17:45:36	17:48:09	150426	5e9b9eaee0e30b0b27983c50	4	1	practice_z	5	advance_on_keypress_ZEE	18	stimuli_distractor_trianglediamonds.svg	stimuli_target_diamondrectangles.svg	12	yes	57	0	515	0	0			0	0			1				0	
6.6.1	mac	2023-07-07	17:45:36	17:48:13	154290	5e9b9eaee0e30b0b27983c50	4	1	practice_z	5	practice_z	19	stimuli_target_squarediamonds.svg	stimuli_distractor_diamondtriangles.svg	2	yes	44	1	1718	0	0			0	0			1				0	
6.6.1	mac	2023-07-07	17:45:36	17:48:13	154290	5e9b9eaee0e30b0b27983c50	4	1	practice_z	5	advance_on_keypress_ZEE	20	stimuli_target_squarediamonds.svg	stimuli_distractor_diamondtriangles.svg	2	yes	57	0	399	0	0			0	0			1				0	
6.6.1	mac	2023-07-07	17:45:36	17:48:17	158320	5e9b9eaee0e30b0b27983c50	4	1	practice_z	5	practice_z	21	stimuli_distractor_trianglediamonds.svg	stimuli_distractor_trianglediamonds.svg	15	no	0	1	2000	0	0			0	0			1				0	
6.6.1	mac	2023-07-07	17:45:36	17:48:17	158320	5e9b9eaee0e30b0b27983c50	4	1	practice_z	5	advance_on_keypress_ZEE	22	stimuli_distractor_trianglediamonds.svg	stimuli_distractor_trianglediamonds.svg	15	no	57	0	871	0	0			0	0			1				0	
6.6.1	mac	2023-07-07	17:45:36	17:48:22	162820	5e9b9eaee0e30b0b27983c50	4	1	practice_z	5	practice_z	23	stimuli_distractor_trianglediamonds.svg	stimuli_distractor_diamondtriangles.svg	16	no	0	1	2000	0	0			0	0			1				0	
6.6.1	mac	2023-07-07	17:45:36	17:48:22	162820	5e9b9eaee0e30b0b27983c50	4	1	practice_z	5	advance_on_keypress_ZEE	24	stimuli_distractor_trianglediamonds.svg	stimuli_distractor_diamondtriangles.svg	16	no	57	0	573	0	0			0	0			1				0	
6.6.1	mac	2023-07-07	17:45:36	17:48:25	166022	5e9b9eaee0e30b0b27983c50	4	1	practice_z	5	practice_z	25	stimuli_distractor_trianglediamonds.svg	stimuli_target_rectanglediamonds.svg	10	yes	44	1	999	0	0			0	0			1				0	
6.6.1	mac	2023-07-07	17:45:36	17:48:25	166022	5e9b9eaee0e30b0b27983c50	4	1	practice_z	5	advance_on_keypress_ZEE	26	stimuli_distractor_trianglediamonds.svg	stimuli_target_rectanglediamonds.svg	10	yes	57	0	439	0	0			0	0			1				0	
6.6.1	mac	2023-07-07	17:45:36	17:48:28	169289	5e9b9eaee0e30b0b27983c50	4	1	practice_z	5	practice_z	27	stimuli_target_rectanglediamonds.svg	stimuli_distractor_trianglediamonds.svg	4	yes	44	1	1200	0	0			0	0			1				0	
6.6.1	mac	2023-07-07	17:45:36	17:48:28	169289	5e9b9eaee0e30b0b27983c50	4	1	practice_z	5	advance_on_keypress_ZEE	28	stimuli_target_rectanglediamonds.svg	stimuli_distractor_trianglediamonds.svg	4	yes	57	0	796	0	0			0	0			1				0	
6.6.1	mac	2023-07-07	17:45:36	17:48:32	173041	5e9b9eaee0e30b0b27983c50	4	1	practice_z	5	practice_z	29	stimuli_distractor_diamondtriangles.svg	stimuli_target_trianglerectangles.svg	9	yes	44	1	1318	0	0			0	0			1				0	
6.6.1	mac	2023-07-07	17:45:36	17:48:32	173041	5e9b9eaee0e30b0b27983c50	4	1	practice_z	5	advance_on_keypress_ZEE	30	stimuli_distractor_diamondtriangles.svg	stimuli_target_trianglerectangles.svg	9	yes	57	0	602	0	0			0	0			1				0	
6.6.1	mac	2023-07-07	17:45:36	17:48:35	176278	5e9b9eaee0e30b0b27983c50	4	1	practice_z	5	practice_z	31	stimuli_target_rectanglediamonds.svg	stimuli_distractor_diamondtriangles.svg	1	yes	44	1	1006	0	0			0	0			1				0	
6.6.1	mac	2023-07-07	17:45:36	17:48:35	176278	5e9b9eaee0e30b0b27983c50	4	1	practice_z	5	advance_on_keypress_ZEE	32	stimuli_target_rectanglediamonds.svg	stimuli_distractor_diamondtriangles.svg	1	yes	57	0	413	0	0			0	0			1				0	
6.6.1	mac	2023-07-07	17:45:36	17:48:59	200392	5e9b9eaee0e30b0b27983c50	4	1	main_z	7	main_z	1	stimuli_distractor_diamondtriangles.svg	stimuli_distractor_diamondtriangles.svg	40	no	0	1	2000	0	0			0	0			1				0	
6.6.1	mac	2023-07-07	17:45:36	17:48:59	200392	5e9b9eaee0e30b0b27983c50	4	1	main_z	7	advance_on_keypress_ZEE	2	stimuli_distractor_diamondtriangles.svg	stimuli_distractor_diamondtriangles.svg	40	no	57	0	794	0	0			0	0			1				0	
6.6.1	mac	2023-07-07	17:45:36	17:49:02	202684	5e9b9eaee0e30b0b27983c50	4	1	main_z	7	main_z	3	stimuli_distractor_trianglediamonds.svg	stimuli_target_rectangletriangles.svg	9	yes	44	1	861	0	0			0	0			1				0	
6.6.1	mac	2023-07-07	17:45:36	17:49:02	202684	5e9b9eaee0e30b0b27983c50	4	1	main_z	7	advance_on_keypress_ZEE	4	stimuli_distractor_trianglediamonds.svg	stimuli_target_rectangletriangles.svg	9	yes	57	0	1103	0	0			0	0			1				0	
6.6.1	mac	2023-07-07	17:45:36	17:49:04	205235	5e9b9eaee0e30b0b27983c50	4	1	main_z	7	main_z	5	stimuli_distractor_trianglediamonds.svg	stimuli_target_trianglesquares.svg	26	yes	44	1	812	0	0			0	0			1				0	
6.6.1	mac	2023-07-07	17:45:36	17:49:04	205235	5e9b9eaee0e30b0b27983c50	4	1	main_z	7	advance_on_keypress_ZEE	6	stimuli_distractor_trianglediamonds.svg	stimuli_target_trianglesquares.svg	26	yes	57	0	1007	0	0			0	0			1				0	
6.6.1	mac	2023-07-07	17:45:36	17:49:08	208871	5e9b9eaee0e30b0b27983c50	4	1	main_z	7	main_z	7	stimuli_distractor_trianglediamonds.svg	stimuli_distractor_diamondtriangles.svg	36	no	0	1	2000	0	0			0	0			1				0	
6.6.1	mac	2023-07-07	17:45:36	17:49:08	208871	5e9b9eaee0e30b0b27983c50	4	1	main_z	7	advance_on_keypress_ZEE	8	stimuli_distractor_trianglediamonds.svg	stimuli_distractor_diamondtriangles.svg	36	no	57	0	487	0	0			0	0			1				0	
6.6.1	mac	2023-07-07	17:45:36	17:49:10	210879	5e9b9eaee0e30b0b27983c50	4	1	main_z	7	main_z	9	stimuli_target_diamondsquares.svg	stimuli_distractor_diamondtriangles.svg	24	yes	44	1	889	0	0			0	0			1				0	
6.6.1	mac	2023-07-07	17:45:36	17:49:10	210879	5e9b9eaee0e30b0b27983c50	4	1	main_z	7	advance_on_keypress_ZEE	10	stimuli_target_diamondsquares.svg	stimuli_distractor_diamondtriangles.svg	24	yes	57	0	2139	0	0			0	0			1				0	
6.6.1	mac	2023-07-07	17:45:36	17:49:15	215637	5e9b9eaee0e30b0b27983c50	4	1	main_z	7	main_z	11	stimuli_distractor_trianglediamonds.svg	stimuli_distractor_trianglediamonds.svg	34	no	0	1	2000	0	0			0	0			1				0	
6.6.1	mac	2023-07-07	17:45:36	17:49:15	215637	5e9b9eaee0e30b0b27983c50	4	1	main_z	7	advance_on_keypress_ZEE	12	stimuli_distractor_trianglediamonds.svg	stimuli_distractor_trianglediamonds.svg	34	no	57	0	534	0	0			0	0			1				0	
6.6.1	mac	2023-07-07	17:45:36	17:49:17	217806	5e9b9eaee0e30b0b27983c50	4	1	main_z	7	main_z	13	stimuli_target_rectanglediamonds.svg	stimuli_distractor_diamondtriangles.svg	6	yes	44	1	1000	0	0			0	0			1				0	
6.6.1	mac	2023-07-07	17:45:36	17:49:17	217806	5e9b9eaee0e30b0b27983c50	4	1	main_z	7	advance_on_keypress_ZEE	14	stimuli_target_rectanglediamonds.svg	stimuli_distractor_diamondtriangles.svg	6	yes	57	0	979	0	0			0	0			1				0	
6.6.1	mac	2023-07-07	17:45:36	17:49:19	220417	5e9b9eaee0e30b0b27983c50	4	1	main_z	7	main_z	15	stimuli_distractor_diamondtriangles.svg	stimuli_target_trianglerectangles.svg	29	yes	44	1	994	0	0			0	0			1				0	
6.6.1	mac	2023-07-07	17:45:36	17:49:19	220417	5e9b9eaee0e30b0b27983c50	4	1	main_z	7	advance_on_keypress_ZEE	16	stimuli_distractor_diamondtriangles.svg	stimuli_target_trianglerectangles.svg	29	yes	57	0	729	0	0			0	0			1				0	
6.6.1	mac	2023-07-07	17:45:36	17:49:22	222987	5e9b9eaee0e30b0b27983c50	4	1	main_z	7	main_z	17	stimuli_distractor_trianglediamonds.svg	stimuli_distractor_trianglediamonds.svg	33	no	44	0	1197	0	0			0	0			1				0	
6.6.1	mac	2023-07-07	17:45:36	17:49:22	222987	5e9b9eaee0e30b0b27983c50	4	1	main_z	7	advance_on_keypress_ZEE	18	stimuli_distractor_trianglediamonds.svg	stimuli_distractor_trianglediamonds.svg	33	no	57	0	642	0	0			0	0			1				0	
6.6.1	mac	2023-07-07	17:45:36	17:49:24	225403	5e9b9eaee0e30b0b27983c50	4	1	main_z	7	main_z	19	stimuli_target_squarediamonds.svg	stimuli_distractor_trianglediamonds.svg	4	yes	44	1	1145	0	0			0	0			1				0	
6.6.1	mac	2023-07-07	17:45:36	17:49:24	225403	5e9b9eaee0e30b0b27983c50	4	1	main_z	7	advance_on_keypress_ZEE	20	stimuli_target_squarediamonds.svg	stimuli_distractor_trianglediamonds.svg	4	yes	57	0	679	0	0			0	0			1				0	
6.6.1	mac	2023-07-07	17:45:36	17:49:27	227745	5e9b9eaee0e30b0b27983c50	4	1	main_z	7	main_z	21	stimuli_target_diamondsquares.svg	stimuli_distractor_trianglediamonds.svg	20	yes	44	1	1022	0	0			0	0			1				0	
6.6.1	mac	2023-07-07	17:45:36	17:49:27	227745	5e9b9eaee0e30b0b27983c50	4	1	main_z	7	advance_on_keypress_ZEE	22	stimuli_target_diamondsquares.svg	stimuli_distractor_trianglediamonds.svg	20	yes	57	0	607	0	0			0	0			1				0	
6.6.1	mac	2023-07-07	17:45:36	17:49:29	229993	5e9b9eaee0e30b0b27983c50	4	1	main_z	7	main_z	23	stimuli_distractor_diamondtriangles.svg	stimuli_target_rectanglediamonds.svg	14	yes	44	1	1019	0	0			0	0			1				0	
6.6.1	mac	2023-07-07	17:45:36	17:49:29	229993	5e9b9eaee0e30b0b27983c50	4	1	main_z	7	advance_on_keypress_ZEE	24	stimuli_distractor_diamondtriangles.svg	stimuli_target_rectanglediamonds.svg	14	yes	57	0	768	0	0			0	0			1				0	
6.6.1	mac	2023-07-07	17:45:36	17:49:31	232462	5e9b9eaee0e30b0b27983c50	4	1	main_z	7	main_z	25	stimuli_distractor_diamondtriangles.svg	stimuli_target_trianglesquares.svg	30	yes	44	1	1072	0	0			0	0			1				0	
6.6.1	mac	2023-07-07	17:45:36	17:49:31	232462	5e9b9eaee0e30b0b27983c50	4	1	main_z	7	advance_on_keypress_ZEE	26	stimuli_distractor_diamondtriangles.svg	stimuli_target_trianglesquares.svg	30	yes	57	0	855	0	0			0	0			1				0	
6.6.1	mac	2023-07-07	17:45:36	17:49:34	235291	5e9b9eaee0e30b0b27983c50	4	1	main_z	7	main_z	27	stimuli_distractor_diamondtriangles.svg	stimuli_target_squaretriangles.svg	15	yes	44	1	1351	0	0			0	0			1				0	
6.6.1	mac	2023-07-07	17:45:36	17:49:34	235291	5e9b9eaee0e30b0b27983c50	4	1	main_z	7	advance_on_keypress_ZEE	28	stimuli_distractor_diamondtriangles.svg	stimuli_target_squaretriangles.svg	15	yes	57	0	848	0	0			0	0			1				0	
6.6.1	mac	2023-07-07	17:45:36	17:49:37	237789	5e9b9eaee0e30b0b27983c50	4	1	main_z	7	main_z	29	stimuli_distractor_trianglediamonds.svg	stimuli_target_trianglerectangles.svg	25	yes	44	1	1014	0	0			0	0			1				0	
6.6.1	mac	2023-07-07	17:45:36	17:49:37	237789	5e9b9eaee0e30b0b27983c50	4	1	main_z	7	advance_on_keypress_ZEE	30	stimuli_distractor_trianglediamonds.svg	stimuli_target_trianglerectangles.svg	25	yes	57	0	624	0	0			0	0			1				0	
6.6.1	mac	2023-07-07	17:45:36	17:49:40	240488	5e9b9eaee0e30b0b27983c50	4	1	main_z	7	main_z	31	stimuli_distractor_diamondtriangles.svg	stimuli_target_diamondsquares.svg	32	yes	44	1	1447	0	0			0	0			1				0	
6.6.1	mac	2023-07-07	17:45:36	17:49:40	240488	5e9b9eaee0e30b0b27983c50	4	1	main_z	7	advance_on_keypress_ZEE	32	stimuli_distractor_diamondtriangles.svg	stimuli_target_diamondsquares.svg	32	yes	57	0	631	0	0			0	0			1				0	
6.6.1	mac	2023-07-07	17:45:36	17:49:42	242968	5e9b9eaee0e30b0b27983c50	4	1	main_z	7	main_z	33	stimuli_target_trianglerectangles.svg	stimuli_distractor_diamondtriangles.svg	21	yes	44	1	1211	0	0			0	0			1				0	
6.6.1	mac	2023-07-07	17:45:36	17:49:42	242968	5e9b9eaee0e30b0b27983c50	4	1	main_z	7	advance_on_keypress_ZEE	34	stimuli_target_trianglerectangles.svg	stimuli_distractor_diamondtriangles.svg	21	yes	57	0	587	0	0			0	0			1				0	
6.6.1	mac	2023-07-07	17:45:36	17:49:45	245526	5e9b9eaee0e30b0b27983c50	4	1	main_z	7	main_z	35	stimuli_distractor_trianglediamonds.svg	stimuli_target_squaretriangles.svg	11	yes	44	1	1336	0	0			0	0			1				0	
6.6.1	mac	2023-07-07	17:45:36	17:49:45	245526	5e9b9eaee0e30b0b27983c50	4	1	main_z	7	advance_on_keypress_ZEE	36	stimuli_distractor_trianglediamonds.svg	stimuli_target_squaretriangles.svg	11	yes	57	0	456	0	0			0	0			1				0	
6.6.1	mac	2023-07-07	17:45:36	17:49:47	247638	5e9b9eaee0e30b0b27983c50	4	1	main_z	7	main_z	37	stimuli_distractor_diamondtriangles.svg	stimuli_target_rectangletriangles.svg	13	yes	44	1	1031	0	0			0	0			1				0	
6.6.1	mac	2023-07-07	17:45:36	17:49:47	247638	5e9b9eaee0e30b0b27983c50	4	1	main_z	7	advance_on_keypress_ZEE	38	stimuli_distractor_diamondtriangles.svg	stimuli_target_rectangletriangles.svg	13	yes	57	0	652	0	0			0	0			1				0	
6.6.1	mac	2023-07-07	17:45:36	17:49:49	249556	5e9b9eaee0e30b0b27983c50	4	1	main_z	7	main_z	39	stimuli_distractor_trianglediamonds.svg	stimuli_target_squarediamonds.svg	12	yes	44	1	632	0	0			0	0			1				0	
6.6.1	mac	2023-07-07	17:45:36	17:49:49	249556	5e9b9eaee0e30b0b27983c50	4	1	main_z	7	advance_on_keypress_ZEE	40	stimuli_distractor_trianglediamonds.svg	stimuli_target_squarediamonds.svg	12	yes	57	0	650	0	0			0	0			1				0	
6.6.1	mac	2023-07-07	17:45:36	17:49:51	251850	5e9b9eaee0e30b0b27983c50	4	1	main_z	7	main_z	41	stimuli_target_trianglesquares.svg	stimuli_distractor_trianglediamonds.svg	18	yes	44	1	1010	0	0			0	0			1				0	
6.6.1	mac	2023-07-07	17:45:36	17:49:51	251850	5e9b9eaee0e30b0b27983c50	4	1	main_z	7	advance_on_keypress_ZEE	42	stimuli_target_trianglesquares.svg	stimuli_distractor_trianglediamonds.svg	18	yes	57	0	557	0	0			0	0			1				0	
6.6.1	mac	2023-07-07	17:45:36	17:49:53	254273	5e9b9eaee0e30b0b27983c50	4	1	main_z	7	main_z	43	stimuli_target_rectangletriangles.svg	stimuli_distractor_trianglediamonds.svg	1	yes	44	1	1248	0	0			0	0			1				0	
6.6.1	mac	2023-07-07	17:45:36	17:49:53	254273	5e9b9eaee0e30b0b27983c50	4	1	main_z	7	advance_on_keypress_ZEE	44	stimuli_target_rectangletriangles.svg	stimuli_distractor_trianglediamonds.svg	1	yes	57	0	399	0	0			0	0			1				0	
6.6.1	mac	2023-07-07	17:45:36	17:49:56	257039	5e9b9eaee0e30b0b27983c50	4	1	main_z	7	main_z	45	stimuli_target_trianglerectangles.svg	stimuli_distractor_trianglediamonds.svg	17	yes	44	1	1731	0	0			0	0			1				0	
6.6.1	mac	2023-07-07	17:45:36	17:49:56	257039	5e9b9eaee0e30b0b27983c50	4	1	main_z	7	advance_on_keypress_ZEE	46	stimuli_target_trianglerectangles.svg	stimuli_distractor_trianglediamonds.svg	17	yes	57	0	601	0	0			0	0			1				0	
6.6.1	mac	2023-07-07	17:45:36	17:49:58	259374	5e9b9eaee0e30b0b27983c50	4	1	main_z	7	main_z	47	stimuli_target_trianglesquares.svg	stimuli_distractor_diamondtriangles.svg	22	yes	44	1	1099	0	0			0	0			1				0	
6.6.1	mac	2023-07-07	17:45:36	17:49:58	259374	5e9b9eaee0e30b0b27983c50	4	1	main_z	7	advance_on_keypress_ZEE	48	stimuli_target_trianglesquares.svg	stimuli_distractor_diamondtriangles.svg	22	yes	57	0	475	0	0			0	0			1				0	
6.6.1	mac	2023-07-07	17:45:36	17:50:01	261632	5e9b9eaee0e30b0b27983c50	4	1	main_z	7	main_z	49	stimuli_distractor_trianglediamonds.svg	stimuli_target_rectanglediamonds.svg	10	yes	44	1	1158	0	0			0	0			1				0	
6.6.1	mac	2023-07-07	17:45:36	17:50:01	261632	5e9b9eaee0e30b0b27983c50	4	1	main_z	7	advance_on_keypress_ZEE	50	stimuli_distractor_trianglediamonds.svg	stimuli_target_rectanglediamonds.svg	10	yes	57	0	515	0	0			0	0			1				0	
6.6.1	mac	2023-07-07	17:45:36	17:50:03	263908	5e9b9eaee0e30b0b27983c50	4	1	main_z	7	main_z	51	stimuli_target_diamondrectangles.svg	stimuli_distractor_diamondtriangles.svg	23	yes	44	1	1135	0	0			0	0			1				0	
6.6.1	mac	2023-07-07	17:45:36	17:50:03	263908	5e9b9eaee0e30b0b27983c50	4	1	main_z	7	advance_on_keypress_ZEE	52	stimuli_target_diamondrectangles.svg	stimuli_distractor_diamondtriangles.svg	23	yes	57	0	581	0	0			0	0			1				0	
6.6.1	mac	2023-07-07	17:45:36	17:50:06	266564	5e9b9eaee0e30b0b27983c50	4	1	main_z	7	main_z	53	stimuli_target_rectanglediamonds.svg	stimuli_distractor_trianglediamonds.svg	2	yes	44	1	1440	0	0			0	0			1				0	
6.6.1	mac	2023-07-07	17:45:36	17:50:06	266564	5e9b9eaee0e30b0b27983c50	4	1	main_z	7	advance_on_keypress_ZEE	54	stimuli_target_rectanglediamonds.svg	stimuli_distractor_trianglediamonds.svg	2	yes	57	0	533	0	0			0	0			1				0	
6.6.1	mac	2023-07-07	17:45:36	17:50:09	269722	5e9b9eaee0e30b0b27983c50	4	1	main_z	7	main_z	55	stimuli_distractor_trianglediamonds.svg	stimuli_distractor_diamondtriangles.svg	35	no	0	1	2000	0	0			0	0			1				0	
6.6.1	mac	2023-07-07	17:45:36	17:50:09	269722	5e9b9eaee0e30b0b27983c50	4	1	main_z	7	advance_on_keypress_ZEE	56	stimuli_distractor_trianglediamonds.svg	stimuli_distractor_diamondtriangles.svg	35	no	57	0	742	0	0			0	0			1				0	
6.6.1	mac	2023-07-07	17:45:36	17:50:11	272078	5e9b9eaee0e30b0b27983c50	4	1	main_z	7	main_z	57	stimuli_target_squarediamonds.svg	stimuli_distractor_diamondtriangles.svg	8	yes	44	1	988	0	0			0	0			1				0	
6.6.1	mac	2023-07-07	17:45:36	17:50:11	272078	5e9b9eaee0e30b0b27983c50	4	1	main_z	7	advance_on_keypress_ZEE	58	stimuli_target_squarediamonds.svg	stimuli_distractor_diamondtriangles.svg	8	yes	57	0	426	0	0			0	0			1				0	
6.6.1	mac	2023-07-07	17:45:36	17:50:13	274018	5e9b9eaee0e30b0b27983c50	4	1	main_z	7	main_z	59	stimuli_distractor_trianglediamonds.svg	stimuli_target_diamondsquares.svg	28	yes	44	1	894	0	0			0	0			1				0	
6.6.1	mac	2023-07-07	17:45:36	17:50:13	274018	5e9b9eaee0e30b0b27983c50	4	1	main_z	7	advance_on_keypress_ZEE	60	stimuli_distractor_trianglediamonds.svg	stimuli_target_diamondsquares.svg	28	yes	57	0	528	0	0			0	0			1				0	
6.6.1	mac	2023-07-07	17:45:36	17:50:16	277173	5e9b9eaee0e30b0b27983c50	4	1	main_z	7	main_z	61	stimuli_distractor_diamondtriangles.svg	stimuli_distractor_trianglediamonds.svg	38	no	0	1	2000	0	0			0	0			1				0	
6.6.1	mac	2023-07-07	17:45:36	17:50:16	277173	5e9b9eaee0e30b0b27983c50	4	1	main_z	7	advance_on_keypress_ZEE	62	stimuli_distractor_diamondtriangles.svg	stimuli_distractor_trianglediamonds.svg	38	no	57	0	481	0	0			0	0			1				0	
6.6.1	mac	2023-07-07	17:45:36	17:50:18	278686	5e9b9eaee0e30b0b27983c50	4	1	main_z	7	main_z	63	stimuli_distractor_diamondtriangles.svg	stimuli_target_diamondrectangles.svg	31	yes	44	1	395	0	0			0	0			1				0	
6.6.1	mac	2023-07-07	17:45:36	17:50:18	278686	5e9b9eaee0e30b0b27983c50	4	1	main_z	7	advance_on_keypress_ZEE	64	stimuli_distractor_diamondtriangles.svg	stimuli_target_diamondrectangles.svg	31	yes	57	0	849	0	0			0	0			1				0	
6.6.1	mac	2023-07-07	17:45:36	17:50:21	282173	5e9b9eaee0e30b0b27983c50	4	1	main_z	7	main_z	65	stimuli_distractor_diamondtriangles.svg	stimuli_distractor_diamondtriangles.svg	39	no	0	1	2000	0	0			0	0			1				0	
6.6.1	mac	2023-07-07	17:45:36	17:50:21	282173	5e9b9eaee0e30b0b27983c50	4	1	main_z	7	advance_on_keypress_ZEE	66	stimuli_distractor_diamondtriangles.svg	stimuli_distractor_diamondtriangles.svg	39	no	57	0	414	0	0			0	0			1				0	
6.6.1	mac	2023-07-07	17:45:36	17:50:24	285222	5e9b9eaee0e30b0b27983c50	4	1	main_z	7	main_z	67	stimuli_distractor_diamondtriangles.svg	stimuli_distractor_trianglediamonds.svg	37	no	0	1	2000	0	0			0	0			1				0	
6.6.1	mac	2023-07-07	17:45:36	17:50:24	285222	5e9b9eaee0e30b0b27983c50	4	1	main_z	7	advance_on_keypress_ZEE	68	stimuli_distractor_diamondtriangles.svg	stimuli_distractor_trianglediamonds.svg	37	no	57	0	361	0	0			0	0			1				0	
6.6.1	mac	2023-07-07	17:45:36	17:50:26	286844	5e9b9eaee0e30b0b27983c50	4	1	main_z	7	main_z	69	stimuli_target_rectangletriangles.svg	stimuli_distractor_diamondtriangles.svg	5	yes	44	1	635	0	0			0	0			1				0	
6.6.1	mac	2023-07-07	17:45:36	17:50:26	286844	5e9b9eaee0e30b0b27983c50	4	1	main_z	7	advance_on_keypress_ZEE	70	stimuli_target_rectangletriangles.svg	stimuli_distractor_diamondtriangles.svg	5	yes	57	0	482	0	0			0	0			1				0	
6.6.1	mac	2023-07-07	17:45:36	17:50:27	288442	5e9b9eaee0e30b0b27983c50	4	1	main_z	7	main_z	71	stimuli_target_squaretriangles.svg	stimuli_distractor_trianglediamonds.svg	3	yes	44	1	483	0	0			0	0			1				0	
6.6.1	mac	2023-07-07	17:45:36	17:50:27	288442	5e9b9eaee0e30b0b27983c50	4	1	main_z	7	advance_on_keypress_ZEE	72	stimuli_target_squaretriangles.svg	stimuli_distractor_trianglediamonds.svg	3	yes	57	0	386	0	0			0	0			1				0	
6.6.1	mac	2023-07-07	17:45:36	17:50:29	289938	5e9b9eaee0e30b0b27983c50	4	1	main_z	7	main_z	73	stimuli_distractor_trianglediamonds.svg	stimuli_target_diamondrectangles.svg	27	yes	44	1	479	0	0			0	0			1				0	
6.6.1	mac	2023-07-07	17:45:36	17:50:29	289938	5e9b9eaee0e30b0b27983c50	4	1	main_z	7	advance_on_keypress_ZEE	74	stimuli_distractor_trianglediamonds.svg	stimuli_target_diamondrectangles.svg	27	yes	57	0	303	0	0			0	0			1				0	
6.6.1	mac	2023-07-07	17:45:36	17:50:30	291236	5e9b9eaee0e30b0b27983c50	4	1	main_z	7	main_z	75	stimuli_target_squaretriangles.svg	stimuli_distractor_diamondtriangles.svg	7	yes	44	1	361	0	0			0	0			1				0	
6.6.1	mac	2023-07-07	17:45:36	17:50:30	291236	5e9b9eaee0e30b0b27983c50	4	1	main_z	7	advance_on_keypress_ZEE	76	stimuli_target_squaretriangles.svg	stimuli_distractor_diamondtriangles.svg	7	yes	57	0	496	0	0			0	0			1				0	
6.6.1	mac	2023-07-07	17:45:36	17:50:32	292974	5e9b9eaee0e30b0b27983c50	4	1	main_z	7	main_z	77	stimuli_target_diamondrectangles.svg	stimuli_distractor_trianglediamonds.svg	19	yes	44	1	598	0	0			0	0			1				0	
6.6.1	mac	2023-07-07	17:45:36	17:50:32	292974	5e9b9eaee0e30b0b27983c50	4	1	main_z	7	advance_on_keypress_ZEE	78	stimuli_target_diamondrectangles.svg	stimuli_distractor_trianglediamonds.svg	19	yes	57	0	382	0	0			0	0			1				0	
6.6.1	mac	2023-07-07	17:45:36	17:50:34	294745	5e9b9eaee0e30b0b27983c50	4	1	main_z	7	main_z	79	stimuli_distractor_diamondtriangles.svg	stimuli_target_squarediamonds.svg	16	yes	44	1	753	0	0			0	0			1				0	
6.6.1	mac	2023-07-07	17:45:36	17:50:34	294745	5e9b9eaee0e30b0b27983c50	4	1	main_z	7	advance_on_keypress_ZEE	80	stimuli_distractor_diamondtriangles.svg	stimuli_target_squarediamonds.svg	16	yes	57	0	222	0	0			0	0			1				0	
6.6.1	mac	2023-07-07	17:45:36	17:50:35	296140	5e9b9eaee0e30b0b27983c50	4	1	main_z	7	main_z	81	stimuli_distractor_trianglediamonds.svg	stimuli_target_trianglesquares.svg	26	yes	44	1	548	0	0			0	0			1				0	
6.6.1	mac	2023-07-07	17:45:36	17:50:35	296140	5e9b9eaee0e30b0b27983c50	4	1	main_z	7	advance_on_keypress_ZEE	82	stimuli_distractor_trianglediamonds.svg	stimuli_target_trianglesquares.svg	26	yes	57	0	260	0	0			0	0			1				0	
6.6.1	mac	2023-07-07	17:45:36	17:50:37	297597	5e9b9eaee0e30b0b27983c50	4	1	main_z	7	main_z	83	stimuli_distractor_trianglediamonds.svg	stimuli_target_squaretriangles.svg	11	yes	44	1	571	0	0			0	0			1				0	
6.6.1	mac	2023-07-07	17:45:36	17:50:37	297597	5e9b9eaee0e30b0b27983c50	4	1	main_z	7	advance_on_keypress_ZEE	84	stimuli_distractor_trianglediamonds.svg	stimuli_target_squaretriangles.svg	11	yes	57	0	247	0	0			0	0			1				0	
6.6.1	mac	2023-07-07	17:45:36	17:50:38	299039	5e9b9eaee0e30b0b27983c50	4	1	main_z	7	main_z	85	stimuli_target_diamondsquares.svg	stimuli_distractor_trianglediamonds.svg	20	yes	44	1	564	0	0			0	0			1				0	
6.6.1	mac	2023-07-07	17:45:36	17:50:38	299039	5e9b9eaee0e30b0b27983c50	4	1	main_z	7	advance_on_keypress_ZEE	86	stimuli_target_diamondsquares.svg	stimuli_distractor_trianglediamonds.svg	20	yes	57	0	210	0	0			0	0			1				0	
6.6.1	mac	2023-07-07	17:45:36	17:50:40	300503	5e9b9eaee0e30b0b27983c50	4	1	main_z	7	main_z	87	stimuli_target_squaretriangles.svg	stimuli_distractor_trianglediamonds.svg	3	yes	44	1	628	0	0			0	0			1				0	
6.6.1	mac	2023-07-07	17:45:36	17:50:40	300503	5e9b9eaee0e30b0b27983c50	4	1	main_z	7	advance_on_keypress_ZEE	88	stimuli_target_squaretriangles.svg	stimuli_distractor_trianglediamonds.svg	3	yes	57	0	215	0	0			0	0			1				0	
6.6.1	mac	2023-07-07	17:45:36	17:50:41	301806	5e9b9eaee0e30b0b27983c50	4	1	main_z	7	main_z	89	stimuli_distractor_diamondtriangles.svg	stimuli_target_squaretriangles.svg	15	yes	44	1	448	0	0			0	0			1				0	
6.6.1	mac	2023-07-07	17:45:36	17:50:41	301806	5e9b9eaee0e30b0b27983c50	4	1	main_z	7	advance_on_keypress_ZEE	90	stimuli_distractor_diamondtriangles.svg	stimuli_target_squaretriangles.svg	15	yes	57	0	222	0	0			0	0			1				0	
6.6.1	mac	2023-07-07	17:45:36	17:50:42	303082	5e9b9eaee0e30b0b27983c50	4	1	main_z	7	main_z	91	stimuli_target_squarediamonds.svg	stimuli_distractor_diamondtriangles.svg	8	yes	44	1	424	0	0			0	0			1				0	
6.6.1	mac	2023-07-07	17:45:36	17:50:42	303082	5e9b9eaee0e30b0b27983c50	4	1	main_z	7	advance_on_keypress_ZEE	92	stimuli_target_squarediamonds.svg	stimuli_distractor_diamondtriangles.svg	8	yes	57	0	198	0	0			0	0			1				0	
6.6.1	mac	2023-07-07	17:45:36	17:50:43	304304	5e9b9eaee0e30b0b27983c50	4	1	main_z	7	main_z	93	stimuli_distractor_trianglediamonds.svg	stimuli_target_diamondrectangles.svg	27	yes	44	1	397	0	0			0	0			1				0	
6.6.1	mac	2023-07-07	17:45:36	17:50:43	304304	5e9b9eaee0e30b0b27983c50	4	1	main_z	7	advance_on_keypress_ZEE	94	stimuli_distractor_trianglediamonds.svg	stimuli_target_diamondrectangles.svg	27	yes	57	0	203	0	0			0	0			1				0	
6.6.1	mac	2023-07-07	17:45:36	17:50:45	305521	5e9b9eaee0e30b0b27983c50	4	1	main_z	7	main_z	95	stimuli_distractor_diamondtriangles.svg	stimuli_target_diamondrectangles.svg	31	yes	44	1	379	0	0			0	0			1				0	
6.6.1	mac	2023-07-07	17:45:36	17:50:45	305521	5e9b9eaee0e30b0b27983c50	4	1	main_z	7	advance_on_keypress_ZEE	96	stimuli_distractor_diamondtriangles.svg	stimuli_target_diamondrectangles.svg	31	yes	57	0	193	0	0			0	0			1				0	
6.6.1	mac	2023-07-07	17:45:36	17:50:47	308340	5e9b9eaee0e30b0b27983c50	4	1	main_z	7	main_z	97	stimuli_distractor_diamondtriangles.svg	stimuli_distractor_trianglediamonds.svg	37	no	0	1	2000	0	0			0	0			1				0	
6.6.1	mac	2023-07-07	17:45:36	17:50:47	308340	5e9b9eaee0e30b0b27983c50	4	1	main_z	7	advance_on_keypress_ZEE	98	stimuli_distractor_diamondtriangles.svg	stimuli_distractor_trianglediamonds.svg	37	no	57	0	429	0	0			0	0			1				0	
6.6.1	mac	2023-07-07	17:45:36	17:50:49	309787	5e9b9eaee0e30b0b27983c50	4	1	main_z	7	main_z	99	stimuli_distractor_trianglediamonds.svg	stimuli_target_diamondsquares.svg	28	yes	44	1	377	0	0			0	0			1				0	
6.6.1	mac	2023-07-07	17:45:36	17:50:49	309787	5e9b9eaee0e30b0b27983c50	4	1	main_z	7	advance_on_keypress_ZEE	100	stimuli_distractor_trianglediamonds.svg	stimuli_target_diamondsquares.svg	28	yes	57	0	463	0	0			0	0			1				0	
6.6.1	mac	2023-07-07	17:45:36	17:50:52	312890	5e9b9eaee0e30b0b27983c50	4	1	main_z	7	main_z	101	stimuli_distractor_trianglediamonds.svg	stimuli_distractor_trianglediamonds.svg	33	no	0	1	2000	0	0			0	0			1				0	
6.6.1	mac	2023-07-07	17:45:36	17:50:52	312890	5e9b9eaee0e30b0b27983c50	4	1	main_z	7	advance_on_keypress_ZEE	102	stimuli_distractor_trianglediamonds.svg	stimuli_distractor_trianglediamonds.svg	33	no	57	0	498	0	0			0	0			1				0	
6.6.1	mac	2023-07-07	17:45:36	17:50:54	314512	5e9b9eaee0e30b0b27983c50	4	1	main_z	7	main_z	103	stimuli_distractor_diamondtriangles.svg	stimuli_target_diamondsquares.svg	32	yes	44	1	486	0	0			0	0			1				0	
6.6.1	mac	2023-07-07	17:45:36	17:50:54	314512	5e9b9eaee0e30b0b27983c50	4	1	main_z	7	advance_on_keypress_ZEE	104	stimuli_distractor_diamondtriangles.svg	stimuli_target_diamondsquares.svg	32	yes	57	0	229	0	0			0	0			1				0	
6.6.1	mac	2023-07-07	17:45:36	17:50:55	316434	5e9b9eaee0e30b0b27983c50	4	1	main_z	7	main_z	105	stimuli_target_rectanglediamonds.svg	stimuli_distractor_diamondtriangles.svg	6	yes	44	1	1058	0	0			0	0			1				0	
6.6.1	mac	2023-07-07	17:45:36	17:50:55	316434	5e9b9eaee0e30b0b27983c50	4	1	main_z	7	advance_on_keypress_ZEE	106	stimuli_target_rectanglediamonds.svg	stimuli_distractor_diamondtriangles.svg	6	yes	57	0	210	0	0			0	0			1				0	
6.6.1	mac	2023-07-07	17:45:36	17:50:58	319258	5e9b9eaee0e30b0b27983c50	4	1	main_z	7	main_z	107	stimuli_distractor_diamondtriangles.svg	stimuli_distractor_diamondtriangles.svg	39	no	0	1	2000	0	0			0	0			1				0	
6.6.1	mac	2023-07-07	17:45:36	17:50:58	319258	5e9b9eaee0e30b0b27983c50	4	1	main_z	7	advance_on_keypress_ZEE	108	stimuli_distractor_diamondtriangles.svg	stimuli_distractor_diamondtriangles.svg	39	no	57	0	321	0	0			0	0			1				0	
6.6.1	mac	2023-07-07	17:45:36	17:51:00	321317	5e9b9eaee0e30b0b27983c50	4	1	main_z	7	main_z	109	stimuli_distractor_trianglediamonds.svg	stimuli_distractor_trianglediamonds.svg	34	no	44	0	1107	0	0			0	0			1				0	
6.6.1	mac	2023-07-07	17:45:36	17:51:00	321317	5e9b9eaee0e30b0b27983c50	4	1	main_z	7	advance_on_keypress_ZEE	110	stimuli_distractor_trianglediamonds.svg	stimuli_distractor_trianglediamonds.svg	34	no	57	0	645	0	0			0	0			1				0	
6.6.1	mac	2023-07-07	17:45:36	17:51:02	323220	5e9b9eaee0e30b0b27983c50	4	1	main_z	7	main_z	111	stimuli_target_diamondsquares.svg	stimuli_distractor_diamondtriangles.svg	24	yes	44	1	627	0	0			0	0			1				0	
6.6.1	mac	2023-07-07	17:45:36	17:51:02	323220	5e9b9eaee0e30b0b27983c50	4	1	main_z	7	advance_on_keypress_ZEE	112	stimuli_target_diamondsquares.svg	stimuli_distractor_diamondtriangles.svg	24	yes	57	0	437	0	0			0	0			1				0	
6.6.1	mac	2023-07-07	17:45:36	17:51:04	324789	5e9b9eaee0e30b0b27983c50	4	1	main_z	7	main_z	113	stimuli_target_trianglesquares.svg	stimuli_distractor_trianglediamonds.svg	18	yes	44	1	497	0	0			0	0			1				0	
6.6.1	mac	2023-07-07	17:45:36	17:51:04	324789	5e9b9eaee0e30b0b27983c50	4	1	main_z	7	advance_on_keypress_ZEE	114	stimuli_target_trianglesquares.svg	stimuli_distractor_trianglediamonds.svg	18	yes	57	0	299	0	0			0	0			1				0	
6.6.1	mac	2023-07-07	17:45:36	17:51:05	326282	5e9b9eaee0e30b0b27983c50	4	1	main_z	7	main_z	115	stimuli_distractor_diamondtriangles.svg	stimuli_target_squarediamonds.svg	16	yes	44	1	555	0	0			0	0			1				0	
6.6.1	mac	2023-07-07	17:45:36	17:51:05	326282	5e9b9eaee0e30b0b27983c50	4	1	main_z	7	advance_on_keypress_ZEE	116	stimuli_distractor_diamondtriangles.svg	stimuli_target_squarediamonds.svg	16	yes	57	0	241	0	0			0	0			1				0	
6.6.1	mac	2023-07-07	17:45:36	17:51:07	327688	5e9b9eaee0e30b0b27983c50	4	1	main_z	7	main_z	117	stimuli_distractor_diamondtriangles.svg	stimuli_target_rectanglediamonds.svg	14	yes	44	1	529	0	0			0	0			1				0	
6.6.1	mac	2023-07-07	17:45:36	17:51:07	327688	5e9b9eaee0e30b0b27983c50	4	1	main_z	7	advance_on_keypress_ZEE	118	stimuli_distractor_diamondtriangles.svg	stimuli_target_rectanglediamonds.svg	14	yes	57	0	332	0	0			0	0			1				0	
6.6.1	mac	2023-07-07	17:45:36	17:51:08	329305	5e9b9eaee0e30b0b27983c50	4	1	main_z	7	main_z	119	stimuli_distractor_diamondtriangles.svg	stimuli_target_rectangletriangles.svg	13	yes	44	1	645	0	0			0	0			1				0	
6.6.1	mac	2023-07-07	17:45:36	17:51:08	329305	5e9b9eaee0e30b0b27983c50	4	1	main_z	7	advance_on_keypress_ZEE	120	stimuli_distractor_diamondtriangles.svg	stimuli_target_rectangletriangles.svg	13	yes	57	0	343	0	0			0	0			1				0	
6.6.1	mac	2023-07-07	17:45:36	17:51:10	330886	5e9b9eaee0e30b0b27983c50	4	1	main_z	7	main_z	121	stimuli_distractor_trianglediamonds.svg	stimuli_distractor_diamondtriangles.svg	36	no	44	0	609	0	0			0	0			1				0	
6.6.1	mac	2023-07-07	17:45:36	17:51:10	330886	5e9b9eaee0e30b0b27983c50	4	1	main_z	7	advance_on_keypress_ZEE	122	stimuli_distractor_trianglediamonds.svg	stimuli_distractor_diamondtriangles.svg	36	no	57	0	357	0	0			0	0			1				0	
6.6.1	mac	2023-07-07	17:45:36	17:51:11	332437	5e9b9eaee0e30b0b27983c50	4	1	main_z	7	main_z	123	stimuli_distractor_trianglediamonds.svg	stimuli_target_trianglerectangles.svg	25	yes	44	1	577	0	0			0	0			1				0	
6.6.1	mac	2023-07-07	17:45:36	17:51:11	332437	5e9b9eaee0e30b0b27983c50	4	1	main_z	7	advance_on_keypress_ZEE	124	stimuli_distractor_trianglediamonds.svg	stimuli_target_trianglerectangles.svg	25	yes	57	0	301	0	0			0	0			1				0	
6.6.1	mac	2023-07-07	17:45:36	17:51:13	334404	5e9b9eaee0e30b0b27983c50	4	1	main_z	7	main_z	125	stimuli_target_trianglerectangles.svg	stimuli_distractor_trianglediamonds.svg	17	yes	44	1	1027	0	0			0	0			1				0	
6.6.1	mac	2023-07-07	17:45:36	17:51:13	334404	5e9b9eaee0e30b0b27983c50	4	1	main_z	7	advance_on_keypress_ZEE	126	stimuli_target_trianglerectangles.svg	stimuli_distractor_trianglediamonds.svg	17	yes	57	0	220	0	0			0	0			1				0	
6.6.1	mac	2023-07-07	17:45:36	17:51:16	337258	5e9b9eaee0e30b0b27983c50	4	1	main_z	7	main_z	127	stimuli_distractor_trianglediamonds.svg	stimuli_distractor_diamondtriangles.svg	35	no	0	1	2000	0	0			0	0			1				0	
6.6.1	mac	2023-07-07	17:45:36	17:51:16	337258	5e9b9eaee0e30b0b27983c50	4	1	main_z	7	advance_on_keypress_ZEE	128	stimuli_distractor_trianglediamonds.svg	stimuli_distractor_diamondtriangles.svg	35	no	57	0	273	0	0			0	0			1				0	
6.6.1	mac	2023-07-07	17:45:36	17:51:18	339007	5e9b9eaee0e30b0b27983c50	4	1	main_z	7	main_z	129	stimuli_distractor_diamondtriangles.svg	stimuli_target_trianglesquares.svg	30	yes	44	1	847	0	0			0	0			1				0	
6.6.1	mac	2023-07-07	17:45:36	17:51:18	339007	5e9b9eaee0e30b0b27983c50	4	1	main_z	7	advance_on_keypress_ZEE	130	stimuli_distractor_diamondtriangles.svg	stimuli_target_trianglesquares.svg	30	yes	57	0	310	0	0			0	0			1				0	
6.6.1	mac	2023-07-07	17:45:36	17:51:20	340552	5e9b9eaee0e30b0b27983c50	4	1	main_z	7	main_z	131	stimuli_distractor_diamondtriangles.svg	stimuli_target_trianglerectangles.svg	29	yes	44	1	592	0	0			0	0			1				0	
6.6.1	mac	2023-07-07	17:45:36	17:51:20	340552	5e9b9eaee0e30b0b27983c50	4	1	main_z	7	advance_on_keypress_ZEE	132	stimuli_distractor_diamondtriangles.svg	stimuli_target_trianglerectangles.svg	29	yes	57	0	281	0	0			0	0			1				0	
6.6.1	mac	2023-07-07	17:45:36	17:51:21	341988	5e9b9eaee0e30b0b27983c50	4	1	main_z	7	main_z	133	stimuli_distractor_trianglediamonds.svg	stimuli_target_rectangletriangles.svg	9	yes	44	1	529	0	0			0	0			1				0	
6.6.1	mac	2023-07-07	17:45:36	17:51:21	341988	5e9b9eaee0e30b0b27983c50	4	1	main_z	7	advance_on_keypress_ZEE	134	stimuli_distractor_trianglediamonds.svg	stimuli_target_rectangletriangles.svg	9	yes	57	0	265	0	0			0	0			1				0	
6.6.1	mac	2023-07-07	17:45:36	17:51:22	343401	5e9b9eaee0e30b0b27983c50	4	1	main_z	7	main_z	135	stimuli_target_squaretriangles.svg	stimuli_distractor_diamondtriangles.svg	7	yes	44	1	508	0	0			0	0			1				0	
6.6.1	mac	2023-07-07	17:45:36	17:51:22	343401	5e9b9eaee0e30b0b27983c50	4	1	main_z	7	advance_on_keypress_ZEE	136	stimuli_target_squaretriangles.svg	stimuli_distractor_diamondtriangles.svg	7	yes	57	0	308	0	0			0	0			1				0	
6.6.1	mac	2023-07-07	17:45:36	17:51:24	345189	5e9b9eaee0e30b0b27983c50	4	1	main_z	7	main_z	137	stimuli_target_diamondrectangles.svg	stimuli_distractor_diamondtriangles.svg	23	yes	44	1	864	0	0			0	0			1				0	
6.6.1	mac	2023-07-07	17:45:36	17:51:24	345189	5e9b9eaee0e30b0b27983c50	4	1	main_z	7	advance_on_keypress_ZEE	138	stimuli_target_diamondrectangles.svg	stimuli_distractor_diamondtriangles.svg	23	yes	57	0	222	0	0			0	0			1				0	
6.6.1	mac	2023-07-07	17:45:36	17:51:27	348042	5e9b9eaee0e30b0b27983c50	4	1	main_z	7	main_z	139	stimuli_distractor_diamondtriangles.svg	stimuli_distractor_diamondtriangles.svg	40	no	0	1	2000	0	0			0	0			1				0	
6.6.1	mac	2023-07-07	17:45:36	17:51:27	348042	5e9b9eaee0e30b0b27983c50	4	1	main_z	7	advance_on_keypress_ZEE	140	stimuli_distractor_diamondtriangles.svg	stimuli_distractor_diamondtriangles.svg	40	no	57	0	294	0	0			0	0			1				0	
6.6.1	mac	2023-07-07	17:45:36	17:51:28	349473	5e9b9eaee0e30b0b27983c50	4	1	main_z	7	main_z	141	stimuli_target_rectangletriangles.svg	stimuli_distractor_trianglediamonds.svg	1	yes	44	1	497	0	0			0	0			1				0	
6.6.1	mac	2023-07-07	17:45:36	17:51:28	349473	5e9b9eaee0e30b0b27983c50	4	1	main_z	7	advance_on_keypress_ZEE	142	stimuli_target_rectangletriangles.svg	stimuli_distractor_trianglediamonds.svg	1	yes	57	0	279	0	0			0	0			1				0	
6.6.1	mac	2023-07-07	17:45:36	17:51:30	350823	5e9b9eaee0e30b0b27983c50	4	1	main_z	7	main_z	143	stimuli_distractor_trianglediamonds.svg	stimuli_target_squarediamonds.svg	12	yes	44	1	429	0	0			0	0			1				0	
6.6.1	mac	2023-07-07	17:45:36	17:51:30	350823	5e9b9eaee0e30b0b27983c50	4	1	main_z	7	advance_on_keypress_ZEE	144	stimuli_distractor_trianglediamonds.svg	stimuli_target_squarediamonds.svg	12	yes	57	0	241	0	0			0	0			1				0	
6.6.1	mac	2023-07-07	17:45:36	17:51:31	352180	5e9b9eaee0e30b0b27983c50	4	1	main_z	7	main_z	145	stimuli_target_rectanglediamonds.svg	stimuli_distractor_trianglediamonds.svg	2	yes	44	1	486	0	0			0	0			1				0	
6.6.1	mac	2023-07-07	17:45:36	17:51:31	352180	5e9b9eaee0e30b0b27983c50	4	1	main_z	7	advance_on_keypress_ZEE	146	stimuli_target_rectanglediamonds.svg	stimuli_distractor_trianglediamonds.svg	2	yes	57	0	196	0	0			0	0			1				0	
6.6.1	mac	2023-07-07	17:45:36	17:51:32	353425	5e9b9eaee0e30b0b27983c50	4	1	main_z	7	main_z	147	stimuli_target_diamondrectangles.svg	stimuli_distractor_trianglediamonds.svg	19	yes	44	1	415	0	0			0	0			1				0	
6.6.1	mac	2023-07-07	17:45:36	17:51:32	353425	5e9b9eaee0e30b0b27983c50	4	1	main_z	7	advance_on_keypress_ZEE	148	stimuli_target_diamondrectangles.svg	stimuli_distractor_trianglediamonds.svg	19	yes	57	0	206	0	0			0	0			1				0	
6.6.1	mac	2023-07-07	17:45:36	17:51:35	356258	5e9b9eaee0e30b0b27983c50	4	1	main_z	7	main_z	149	stimuli_distractor_diamondtriangles.svg	stimuli_distractor_trianglediamonds.svg	38	no	0	1	2000	0	0			0	0			1				0	
6.6.1	mac	2023-07-07	17:45:36	17:51:35	356258	5e9b9eaee0e30b0b27983c50	4	1	main_z	7	advance_on_keypress_ZEE	150	stimuli_distractor_diamondtriangles.svg	stimuli_distractor_trianglediamonds.svg	38	no	57	0	473	0	0			0	0			1				0	
6.6.1	mac	2023-07-07	17:45:36	17:51:37	358117	5e9b9eaee0e30b0b27983c50	4	1	main_z	7	main_z	151	stimuli_target_squarediamonds.svg	stimuli_distractor_trianglediamonds.svg	4	yes	44	1	757	0	0			0	0			1				0	
6.6.1	mac	2023-07-07	17:45:36	17:51:37	358117	5e9b9eaee0e30b0b27983c50	4	1	main_z	7	advance_on_keypress_ZEE	152	stimuli_target_squarediamonds.svg	stimuli_distractor_trianglediamonds.svg	4	yes	57	0	344	0	0			0	0			1				0	
6.6.1	mac	2023-07-07	17:45:36	17:51:39	359513	5e9b9eaee0e30b0b27983c50	4	1	main_z	7	main_z	153	stimuli_distractor_trianglediamonds.svg	stimuli_target_rectanglediamonds.svg	10	yes	44	1	420	0	0			0	0			1				0	
6.6.1	mac	2023-07-07	17:45:36	17:51:39	359513	5e9b9eaee0e30b0b27983c50	4	1	main_z	7	advance_on_keypress_ZEE	154	stimuli_distractor_trianglediamonds.svg	stimuli_target_rectanglediamonds.svg	10	yes	57	0	302	0	0			0	0			1				0	
6.6.1	mac	2023-07-07	17:45:36	17:51:40	360956	5e9b9eaee0e30b0b27983c50	4	1	main_z	7	main_z	155	stimuli_target_rectangletriangles.svg	stimuli_distractor_diamondtriangles.svg	5	yes	44	1	513	0	0			0	0			1				0	
6.6.1	mac	2023-07-07	17:45:36	17:51:40	360956	5e9b9eaee0e30b0b27983c50	4	1	main_z	7	advance_on_keypress_ZEE	156	stimuli_target_rectangletriangles.svg	stimuli_distractor_diamondtriangles.svg	5	yes	57	0	246	0	0			0	0			1				0	
6.6.1	mac	2023-07-07	17:45:36	17:51:42	362658	5e9b9eaee0e30b0b27983c50	4	1	main_z	7	main_z	157	stimuli_target_trianglesquares.svg	stimuli_distractor_diamondtriangles.svg	22	yes	44	1	814	0	0			0	0			1				0	
6.6.1	mac	2023-07-07	17:45:36	17:51:42	362658	5e9b9eaee0e30b0b27983c50	4	1	main_z	7	advance_on_keypress_ZEE	158	stimuli_target_trianglesquares.svg	stimuli_distractor_diamondtriangles.svg	22	yes	57	0	299	0	0			0	0			1				0	
6.6.1	mac	2023-07-07	17:45:36	17:51:43	364193	5e9b9eaee0e30b0b27983c50	4	1	main_z	7	main_z	159	stimuli_target_trianglerectangles.svg	stimuli_distractor_diamondtriangles.svg	21	yes	44	1	599	0	0			0	0			1				0	
6.6.1	mac	2023-07-07	17:45:36	17:51:43	364193	5e9b9eaee0e30b0b27983c50	4	1	main_z	7	advance_on_keypress_ZEE	160	stimuli_target_trianglerectangles.svg	stimuli_distractor_diamondtriangles.svg	21	yes	57	0	289	0	0			0	0			1				0	
6.6.1	mac	2023-07-07	17:45:36	17:52:12	392667	5e9b9eaee0e30b0b27983c50	4	1	practice_slash	9	practice_slash	1	stimuli_distractor_diamondtriangles.svg	stimuli_target_rectangletriangles.svg	7	yes	53	1	572	0	0			0	0			1				0	
6.6.1	mac	2023-07-07	17:45:36	17:52:12	392667	5e9b9eaee0e30b0b27983c50	4	1	practice_slash	9	advance_on_keypress_SLASH	2	stimuli_distractor_diamondtriangles.svg	stimuli_target_rectangletriangles.svg	7	yes	57	0	745	0	0			0	0			1				0	
6.6.1	mac	2023-07-07	17:45:36	17:52:14	395482	5e9b9eaee0e30b0b27983c50	4	1	practice_slash	9	practice_slash	3	stimuli_target_squarediamonds.svg	stimuli_distractor_trianglediamonds.svg	5	yes	53	1	438	0	0			0	0			1				0	
6.6.1	mac	2023-07-07	17:45:36	17:52:14	395482	5e9b9eaee0e30b0b27983c50	4	1	practice_slash	9	advance_on_keypress_SLASH	4	stimuli_target_squarediamonds.svg	stimuli_distractor_trianglediamonds.svg	5	yes	57	0	545	0	0			0	0			1				0	
6.6.1	mac	2023-07-07	17:45:36	17:52:17	398311	5e9b9eaee0e30b0b27983c50	4	1	practice_slash	9	practice_slash	5	stimuli_target_squarediamonds.svg	stimuli_distractor_diamondtriangles.svg	2	yes	53	1	650	0	0			0	0			1				0	
6.6.1	mac	2023-07-07	17:45:36	17:52:17	398311	5e9b9eaee0e30b0b27983c50	4	1	practice_slash	9	advance_on_keypress_SLASH	6	stimuli_target_squarediamonds.svg	stimuli_distractor_diamondtriangles.svg	2	yes	57	0	445	0	0			0	0			1				0	
6.6.1	mac	2023-07-07	17:45:36	17:52:20	400744	5e9b9eaee0e30b0b27983c50	4	1	practice_slash	9	practice_slash	7	stimuli_distractor_trianglediamonds.svg	stimuli_target_diamondrectangles.svg	12	yes	53	1	350	0	0			0	0			1				0	
6.6.1	mac	2023-07-07	17:45:36	17:52:20	400744	5e9b9eaee0e30b0b27983c50	4	1	practice_slash	9	advance_on_keypress_SLASH	8	stimuli_distractor_trianglediamonds.svg	stimuli_target_diamondrectangles.svg	12	yes	57	0	479	0	0			0	0			1				0	
6.6.1	mac	2023-07-07	17:45:36	17:52:22	403235	5e9b9eaee0e30b0b27983c50	4	1	practice_slash	9	practice_slash	9	stimuli_target_diamondsquares.svg	stimuli_distractor_trianglediamonds.svg	6	yes	53	1	375	0	0			0	0			1				0	
6.6.1	mac	2023-07-07	17:45:36	17:52:22	403235	5e9b9eaee0e30b0b27983c50	4	1	practice_slash	9	advance_on_keypress_SLASH	10	stimuli_target_diamondsquares.svg	stimuli_distractor_trianglediamonds.svg	6	yes	57	0	417	0	0			0	0			1				0	
6.6.1	mac	2023-07-07	17:45:36	17:52:26	407276	5e9b9eaee0e30b0b27983c50	4	1	practice_slash	9	practice_slash	11	stimuli_distractor_trianglediamonds.svg	stimuli_distractor_diamondtriangles.svg	16	no	0	1	2000	0	0			0	0			1				0	
6.6.1	mac	2023-07-07	17:45:36	17:52:26	407276	5e9b9eaee0e30b0b27983c50	4	1	practice_slash	9	advance_on_keypress_SLASH	12	stimuli_distractor_trianglediamonds.svg	stimuli_distractor_diamondtriangles.svg	16	no	57	0	442	0	0			0	0			1				0	
6.6.1	mac	2023-07-07	17:45:36	17:52:29	409743	5e9b9eaee0e30b0b27983c50	4	1	practice_slash	9	practice_slash	13	stimuli_target_rectanglediamonds.svg	stimuli_distractor_diamondtriangles.svg	1	yes	53	1	381	0	0			0	0			1				0	
6.6.1	mac	2023-07-07	17:45:36	17:52:29	409743	5e9b9eaee0e30b0b27983c50	4	1	practice_slash	9	advance_on_keypress_SLASH	14	stimuli_target_rectanglediamonds.svg	stimuli_distractor_diamondtriangles.svg	1	yes	57	0	641	0	0			0	0			1				0	
6.6.1	mac	2023-07-07	17:45:36	17:52:32	412846	5e9b9eaee0e30b0b27983c50	4	1	practice_slash	9	practice_slash	15	stimuli_distractor_trianglediamonds.svg	stimuli_target_squarediamonds.svg	11	yes	53	1	833	0	0			0	0			1				0	
6.6.1	mac	2023-07-07	17:45:36	17:52:32	412846	5e9b9eaee0e30b0b27983c50	4	1	practice_slash	9	advance_on_keypress_SLASH	16	stimuli_distractor_trianglediamonds.svg	stimuli_target_squarediamonds.svg	11	yes	57	0	427	0	0			0	0			1				0	
6.6.1	mac	2023-07-07	17:45:36	17:52:34	415262	5e9b9eaee0e30b0b27983c50	4	1	practice_slash	9	practice_slash	17	stimuli_distractor_diamondtriangles.svg	stimuli_distractor_trianglediamonds.svg	14	no	53	0	366	0	0			0	0			1				0	
6.6.1	mac	2023-07-07	17:45:36	17:52:34	415262	5e9b9eaee0e30b0b27983c50	4	1	practice_slash	9	advance_on_keypress_SLASH	18	stimuli_distractor_diamondtriangles.svg	stimuli_distractor_trianglediamonds.svg	14	no	57	0	744	0	0			0	0			1				0	
6.6.1	mac	2023-07-07	17:45:36	17:52:39	419644	5e9b9eaee0e30b0b27983c50	4	1	practice_slash	9	practice_slash	19	stimuli_distractor_trianglediamonds.svg	stimuli_distractor_trianglediamonds.svg	15	no	0	1	2000	0	0			0	0			1				0	
6.6.1	mac	2023-07-07	17:45:36	17:52:39	419644	5e9b9eaee0e30b0b27983c50	4	1	practice_slash	9	advance_on_keypress_SLASH	20	stimuli_distractor_trianglediamonds.svg	stimuli_distractor_trianglediamonds.svg	15	no	57	0	580	0	0			0	0			1				0	
6.6.1	mac	2023-07-07	17:45:36	17:52:42	422548	5e9b9eaee0e30b0b27983c50	4	1	practice_slash	9	practice_slash	21	stimuli_target_diamondsquares.svg	stimuli_distractor_diamondtriangles.svg	3	yes	53	1	686	0	0			0	0			1				0	
6.6.1	mac	2023-07-07	17:45:36	17:52:42	422548	5e9b9eaee0e30b0b27983c50	4	1	practice_slash	9	advance_on_keypress_SLASH	22	stimuli_target_diamondsquares.svg	stimuli_distractor_diamondtriangles.svg	3	yes	57	0	1428	0	0			0	0			1				0	
6.6.1	mac	2023-07-07	17:45:36	17:52:46	427406	5e9b9eaee0e30b0b27983c50	4	1	practice_slash	9	practice_slash	23	stimuli_target_rectanglediamonds.svg	stimuli_distractor_trianglediamonds.svg	4	yes	53	1	1793	0	0			0	0			1				0	
6.6.1	mac	2023-07-07	17:45:36	17:52:46	427406	5e9b9eaee0e30b0b27983c50	4	1	practice_slash	9	advance_on_keypress_SLASH	24	stimuli_target_rectanglediamonds.svg	stimuli_distractor_trianglediamonds.svg	4	yes	57	0	639	0	0			0	0			1				0	
6.6.1	mac	2023-07-07	17:45:36	17:52:49	430192	5e9b9eaee0e30b0b27983c50	4	1	practice_slash	9	practice_slash	25	stimuli_distractor_diamondtriangles.svg	stimuli_target_diamondrectangles.svg	8	yes	53	1	514	0	0			0	0			1				0	
6.6.1	mac	2023-07-07	17:45:36	17:52:49	430192	5e9b9eaee0e30b0b27983c50	4	1	practice_slash	9	advance_on_keypress_SLASH	26	stimuli_distractor_diamondtriangles.svg	stimuli_target_diamondrectangles.svg	8	yes	57	0	566	0	0			0	0			1				0	
6.6.1	mac	2023-07-07	17:45:36	17:52:52	433051	5e9b9eaee0e30b0b27983c50	4	1	practice_slash	9	practice_slash	27	stimuli_distractor_diamondtriangles.svg	stimuli_target_trianglerectangles.svg	9	yes	53	1	654	0	0			0	0			1				0	
6.6.1	mac	2023-07-07	17:45:36	17:52:52	433051	5e9b9eaee0e30b0b27983c50	4	1	practice_slash	9	advance_on_keypress_SLASH	28	stimuli_distractor_diamondtriangles.svg	stimuli_target_trianglerectangles.svg	9	yes	57	0	478	0	0			0	0			1				0	
6.6.1	mac	2023-07-07	17:45:36	17:52:55	435558	5e9b9eaee0e30b0b27983c50	4	1	practice_slash	9	practice_slash	29	stimuli_distractor_trianglediamonds.svg	stimuli_target_rectanglediamonds.svg	10	yes	53	1	397	0	0			0	0			1				0	
6.6.1	mac	2023-07-07	17:45:36	17:52:55	435558	5e9b9eaee0e30b0b27983c50	4	1	practice_slash	9	advance_on_keypress_SLASH	30	stimuli_distractor_trianglediamonds.svg	stimuli_target_rectanglediamonds.svg	10	yes	57	0	791	0	0			0	0			1				0	
6.6.1	mac	2023-07-07	17:45:36	17:52:59	439980	5e9b9eaee0e30b0b27983c50	4	1	practice_slash	9	practice_slash	31	stimuli_distractor_diamondtriangles.svg	stimuli_distractor_diamondtriangles.svg	13	no	0	1	2000	0	0			0	0			1				0	
6.6.1	mac	2023-07-07	17:45:36	17:52:59	439980	5e9b9eaee0e30b0b27983c50	4	1	practice_slash	9	advance_on_keypress_SLASH	32	stimuli_distractor_diamondtriangles.svg	stimuli_distractor_diamondtriangles.svg	13	no	57	0	190	0	0			0	0			1				0	
6.6.1	mac	2023-07-07	17:45:36	17:53:04	445425	5e9b9eaee0e30b0b27983c50	4	1	main_slash	11	main_slash	1	stimuli_target_rectanglediamonds.svg	stimuli_distractor_trianglediamonds.svg	2	yes	53	1	513	0	0			0	0			1				0	
6.6.1	mac	2023-07-07	17:45:36	17:53:04	445425	5e9b9eaee0e30b0b27983c50	4	1	main_slash	11	advance_on_keypress_SLASH	2	stimuli_target_rectanglediamonds.svg	stimuli_distractor_trianglediamonds.svg	2	yes	57	0	711	0	0			0	0			1				0	
6.6.1	mac	2023-07-07	17:45:36	17:53:06	447292	5e9b9eaee0e30b0b27983c50	4	1	main_slash	11	main_slash	3	stimuli_target_diamondsquares.svg	stimuli_distractor_diamondtriangles.svg	24	yes	53	1	514	0	0			0	0			1				0	
6.6.1	mac	2023-07-07	17:45:36	17:53:06	447292	5e9b9eaee0e30b0b27983c50	4	1	main_slash	11	advance_on_keypress_SLASH	4	stimuli_target_diamondsquares.svg	stimuli_distractor_diamondtriangles.svg	24	yes	57	0	1242	0	0			0	0			1				0	
6.6.1	mac	2023-07-07	17:45:36	17:53:09	449535	5e9b9eaee0e30b0b27983c50	4	1	main_slash	11	main_slash	5	stimuli_distractor_trianglediamonds.svg	stimuli_target_rectanglediamonds.svg	10	yes	53	1	372	0	0			0	0			1				0	
6.6.1	mac	2023-07-07	17:45:36	17:53:09	449535	5e9b9eaee0e30b0b27983c50	4	1	main_slash	11	advance_on_keypress_SLASH	6	stimuli_distractor_trianglediamonds.svg	stimuli_target_rectanglediamonds.svg	10	yes	57	0	688	0	0			0	0			1				0	
6.6.1	mac	2023-07-07	17:45:36	17:53:10	451183	5e9b9eaee0e30b0b27983c50	4	1	main_slash	11	main_slash	7	stimuli_distractor_trianglediamonds.svg	stimuli_target_diamondsquares.svg	28	yes	53	1	336	0	0			0	0			1				0	
6.6.1	mac	2023-07-07	17:45:36	17:53:10	451183	5e9b9eaee0e30b0b27983c50	4	1	main_slash	11	advance_on_keypress_SLASH	8	stimuli_distractor_trianglediamonds.svg	stimuli_target_diamondsquares.svg	28	yes	57	0	600	0	0			0	0			1				0	
6.6.1	mac	2023-07-07	17:45:36	17:53:12	452723	5e9b9eaee0e30b0b27983c50	4	1	main_slash	11	main_slash	9	stimuli_distractor_diamondtriangles.svg	stimuli_distractor_trianglediamonds.svg	38	no	53	0	310	0	0			0	0			1				0	
6.6.1	mac	2023-07-07	17:45:36	17:53:12	452723	5e9b9eaee0e30b0b27983c50	4	1	main_slash	11	advance_on_keypress_SLASH	10	stimuli_distractor_diamondtriangles.svg	stimuli_distractor_trianglediamonds.svg	38	no	57	0	1319	0	0			0	0			1				0	
6.6.1	mac	2023-07-07	17:45:36	17:53:14	455014	5e9b9eaee0e30b0b27983c50	4	1	main_slash	11	main_slash	11	stimuli_distractor_trianglediamonds.svg	stimuli_target_trianglerectangles.svg	25	yes	53	1	351	0	0			0	0			1				0	
6.6.1	mac	2023-07-07	17:45:36	17:53:14	455014	5e9b9eaee0e30b0b27983c50	4	1	main_slash	11	advance_on_keypress_SLASH	12	stimuli_distractor_trianglediamonds.svg	stimuli_target_trianglerectangles.svg	25	yes	57	0	630	0	0			0	0			1				0	
6.6.1	mac	2023-07-07	17:45:36	17:53:16	456711	5e9b9eaee0e30b0b27983c50	4	1	main_slash	11	main_slash	13	stimuli_distractor_diamondtriangles.svg	stimuli_target_trianglerectangles.svg	29	yes	53	1	431	0	0			0	0			1				0	
6.6.1	mac	2023-07-07	17:45:36	17:53:16	456711	5e9b9eaee0e30b0b27983c50	4	1	main_slash	11	advance_on_keypress_SLASH	14	stimuli_distractor_diamondtriangles.svg	stimuli_target_trianglerectangles.svg	29	yes	57	0	563	0	0			0	0			1				0	
6.6.1	mac	2023-07-07	17:45:36	17:53:17	458266	5e9b9eaee0e30b0b27983c50	4	1	main_slash	11	main_slash	15	stimuli_distractor_diamondtriangles.svg	stimuli_target_squarediamonds.svg	16	yes	53	1	353	0	0			0	0			1				0	
6.6.1	mac	2023-07-07	17:45:36	17:53:17	458266	5e9b9eaee0e30b0b27983c50	4	1	main_slash	11	advance_on_keypress_SLASH	16	stimuli_distractor_diamondtriangles.svg	stimuli_target_squarediamonds.svg	16	yes	57	0	1129	0	0			0	0			1				0	
6.6.1	mac	2023-07-07	17:45:36	17:53:20	460506	5e9b9eaee0e30b0b27983c50	4	1	main_slash	11	main_slash	17	stimuli_distractor_diamondtriangles.svg	stimuli_target_diamondrectangles.svg	31	yes	53	1	477	0	0			0	0			1				0	
6.6.1	mac	2023-07-07	17:45:36	17:53:20	460506	5e9b9eaee0e30b0b27983c50	4	1	main_slash	11	advance_on_keypress_SLASH	18	stimuli_distractor_diamondtriangles.svg	stimuli_target_diamondrectangles.svg	31	yes	57	0	487	0	0			0	0			1				0	
6.6.1	mac	2023-07-07	17:45:36	17:53:21	462198	5e9b9eaee0e30b0b27983c50	4	1	main_slash	11	main_slash	19	stimuli_target_squaretriangles.svg	stimuli_distractor_trianglediamonds.svg	3	yes	53	1	585	0	0			0	0			1				0	
6.6.1	mac	2023-07-07	17:45:36	17:53:21	462198	5e9b9eaee0e30b0b27983c50	4	1	main_slash	11	advance_on_keypress_SLASH	20	stimuli_target_squaretriangles.svg	stimuli_distractor_trianglediamonds.svg	3	yes	57	0	515	0	0			0	0			1				0	
6.6.1	mac	2023-07-07	17:45:36	17:53:23	464019	5e9b9eaee0e30b0b27983c50	4	1	main_slash	11	main_slash	21	stimuli_target_diamondrectangles.svg	stimuli_distractor_diamondtriangles.svg	23	yes	53	1	672	0	0			0	0			1				0	
6.6.1	mac	2023-07-07	17:45:36	17:53:23	464019	5e9b9eaee0e30b0b27983c50	4	1	main_slash	11	advance_on_keypress_SLASH	22	stimuli_target_diamondrectangles.svg	stimuli_distractor_diamondtriangles.svg	23	yes	57	0	569	0	0			0	0			1				0	
6.6.1	mac	2023-07-07	17:45:36	17:53:25	465608	5e9b9eaee0e30b0b27983c50	4	1	main_slash	11	main_slash	23	stimuli_distractor_trianglediamonds.svg	stimuli_target_diamondrectangles.svg	27	yes	53	1	395	0	0			0	0			1				0	
6.6.1	mac	2023-07-07	17:45:36	17:53:25	465608	5e9b9eaee0e30b0b27983c50	4	1	main_slash	11	advance_on_keypress_SLASH	24	stimuli_distractor_trianglediamonds.svg	stimuli_target_diamondrectangles.svg	27	yes	57	0	500	0	0			0	0			1				0	
6.6.1	mac	2023-07-07	17:45:36	17:53:26	467252	5e9b9eaee0e30b0b27983c50	4	1	main_slash	11	main_slash	25	stimuli_distractor_trianglediamonds.svg	stimuli_target_trianglesquares.svg	26	yes	53	1	505	0	0			0	0			1				0	
6.6.1	mac	2023-07-07	17:45:36	17:53:26	467252	5e9b9eaee0e30b0b27983c50	4	1	main_slash	11	advance_on_keypress_SLASH	26	stimuli_distractor_trianglediamonds.svg	stimuli_target_trianglesquares.svg	26	yes	57	0	499	0	0			0	0			1				0	
6.6.1	mac	2023-07-07	17:45:36	17:53:28	469313	5e9b9eaee0e30b0b27983c50	4	1	main_slash	11	main_slash	27	stimuli_distractor_diamondtriangles.svg	stimuli_target_rectangletriangles.svg	13	yes	53	1	934	0	0			0	0			1				0	
6.6.1	mac	2023-07-07	17:45:36	17:53:28	469313	5e9b9eaee0e30b0b27983c50	4	1	main_slash	11	advance_on_keypress_SLASH	28	stimuli_distractor_diamondtriangles.svg	stimuli_target_rectangletriangles.svg	13	yes	57	0	454	0	0			0	0			1				0	
6.6.1	mac	2023-07-07	17:45:36	17:53:30	470930	5e9b9eaee0e30b0b27983c50	4	1	main_slash	11	main_slash	29	stimuli_target_squarediamonds.svg	stimuli_distractor_trianglediamonds.svg	4	yes	53	1	534	0	0			0	0			1				0	
6.6.1	mac	2023-07-07	17:45:36	17:53:30	470930	5e9b9eaee0e30b0b27983c50	4	1	main_slash	11	advance_on_keypress_SLASH	30	stimuli_target_squarediamonds.svg	stimuli_distractor_trianglediamonds.svg	4	yes	57	0	518	0	0			0	0			1				0	
6.6.1	mac	2023-07-07	17:45:36	17:53:33	474078	5e9b9eaee0e30b0b27983c50	4	1	main_slash	11	main_slash	31	stimuli_distractor_diamondtriangles.svg	stimuli_distractor_diamondtriangles.svg	39	no	0	1	2000	0	0			0	0			1				0	
6.6.1	mac	2023-07-07	17:45:36	17:53:33	474078	5e9b9eaee0e30b0b27983c50	4	1	main_slash	11	advance_on_keypress_SLASH	32	stimuli_distractor_diamondtriangles.svg	stimuli_distractor_diamondtriangles.svg	39	no	57	0	300	0	0			0	0			1				0	
6.6.1	mac	2023-07-07	17:45:36	17:53:34	475473	5e9b9eaee0e30b0b27983c50	4	1	main_slash	11	main_slash	33	stimuli_target_diamondrectangles.svg	stimuli_distractor_trianglediamonds.svg	19	yes	53	1	460	0	0			0	0			1				0	
6.6.1	mac	2023-07-07	17:45:36	17:53:34	475473	5e9b9eaee0e30b0b27983c50	4	1	main_slash	11	advance_on_keypress_SLASH	34	stimuli_target_diamondrectangles.svg	stimuli_distractor_trianglediamonds.svg	19	yes	57	0	949	0	0			0	0			1				0	
6.6.1	mac	2023-07-07	17:45:36	17:53:37	477524	5e9b9eaee0e30b0b27983c50	4	1	main_slash	11	main_slash	35	stimuli_distractor_trianglediamonds.svg	stimuli_target_rectangletriangles.svg	9	yes	53	1	477	0	0			0	0			1				0	
6.6.1	mac	2023-07-07	17:45:36	17:53:37	477524	5e9b9eaee0e30b0b27983c50	4	1	main_slash	11	advance_on_keypress_SLASH	36	stimuli_distractor_trianglediamonds.svg	stimuli_target_rectangletriangles.svg	9	yes	57	0	445	0	0			0	0			1				0	
6.6.1	mac	2023-07-07	17:45:36	17:53:38	479057	5e9b9eaee0e30b0b27983c50	4	1	main_slash	11	main_slash	37	stimuli_target_rectangletriangles.svg	stimuli_distractor_diamondtriangles.svg	5	yes	53	1	444	0	0			0	0			1				0	
6.6.1	mac	2023-07-07	17:45:36	17:53:38	479057	5e9b9eaee0e30b0b27983c50	4	1	main_slash	11	advance_on_keypress_SLASH	38	stimuli_target_rectangletriangles.svg	stimuli_distractor_diamondtriangles.svg	5	yes	57	0	313	0	0			0	0			1				0	
6.6.1	mac	2023-07-07	17:45:36	17:53:40	480602	5e9b9eaee0e30b0b27983c50	4	1	main_slash	11	main_slash	39	stimuli_target_trianglesquares.svg	stimuli_distractor_trianglediamonds.svg	18	yes	53	1	605	0	0			0	0			1				0	
6.6.1	mac	2023-07-07	17:45:36	17:53:40	480602	5e9b9eaee0e30b0b27983c50	4	1	main_slash	11	advance_on_keypress_SLASH	40	stimuli_target_trianglesquares.svg	stimuli_distractor_trianglediamonds.svg	18	yes	57	0	376	0	0			0	0			1				0	
6.6.1	mac	2023-07-07	17:45:36	17:53:41	482224	5e9b9eaee0e30b0b27983c50	4	1	main_slash	11	main_slash	41	stimuli_distractor_trianglediamonds.svg	stimuli_target_squaretriangles.svg	11	yes	53	1	628	0	0			0	0			1				0	
6.6.1	mac	2023-07-07	17:45:36	17:53:41	482224	5e9b9eaee0e30b0b27983c50	4	1	main_slash	11	advance_on_keypress_SLASH	42	stimuli_distractor_trianglediamonds.svg	stimuli_target_squaretriangles.svg	11	yes	57	0	438	0	0			0	0			1				0	
6.6.1	mac	2023-07-07	17:45:36	17:53:43	483861	5e9b9eaee0e30b0b27983c50	4	1	main_slash	11	main_slash	43	stimuli_distractor_diamondtriangles.svg	stimuli_target_squaretriangles.svg	15	yes	53	1	559	0	0			0	0			1				0	
6.6.1	mac	2023-07-07	17:45:36	17:53:43	483861	5e9b9eaee0e30b0b27983c50	4	1	main_slash	11	advance_on_keypress_SLASH	44	stimuli_distractor_diamondtriangles.svg	stimuli_target_squaretriangles.svg	15	yes	57	0	335	0	0			0	0			1				0	
6.6.1	mac	2023-07-07	17:45:36	17:53:46	486828	5e9b9eaee0e30b0b27983c50	4	1	main_slash	11	main_slash	45	stimuli_distractor_trianglediamonds.svg	stimuli_distractor_trianglediamonds.svg	33	no	0	1	2000	0	0			0	0			1				0	
6.6.1	mac	2023-07-07	17:45:36	17:53:46	486828	5e9b9eaee0e30b0b27983c50	4	1	main_slash	11	advance_on_keypress_SLASH	46	stimuli_distractor_trianglediamonds.svg	stimuli_distractor_trianglediamonds.svg	33	no	57	0	1280	0	0			0	0			1				0	
6.6.1	mac	2023-07-07	17:45:36	17:53:50	490745	5e9b9eaee0e30b0b27983c50	4	1	main_slash	11	main_slash	47	stimuli_distractor_diamondtriangles.svg	stimuli_distractor_diamondtriangles.svg	40	no	0	1	2000	0	0			0	0			1				0	
6.6.1	mac	2023-07-07	17:45:36	17:53:50	490745	5e9b9eaee0e30b0b27983c50	4	1	main_slash	11	advance_on_keypress_SLASH	48	stimuli_distractor_diamondtriangles.svg	stimuli_distractor_diamondtriangles.svg	40	no	57	0	339	0	0			0	0			1				0	
6.6.1	mac	2023-07-07	17:45:36	17:53:51	492157	5e9b9eaee0e30b0b27983c50	4	1	main_slash	11	main_slash	49	stimuli_distractor_trianglediamonds.svg	stimuli_distractor_diamondtriangles.svg	36	no	53	0	443	0	0			0	0			1				0	
6.6.1	mac	2023-07-07	17:45:36	17:53:51	492157	5e9b9eaee0e30b0b27983c50	4	1	main_slash	11	advance_on_keypress_SLASH	50	stimuli_distractor_trianglediamonds.svg	stimuli_distractor_diamondtriangles.svg	36	no	57	0	651	0	0			0	0			1				0	
6.6.1	mac	2023-07-07	17:45:36	17:53:54	495428	5e9b9eaee0e30b0b27983c50	4	1	main_slash	11	main_slash	51	stimuli_distractor_trianglediamonds.svg	stimuli_distractor_diamondtriangles.svg	35	no	0	1	2000	0	0			0	0			1				0	
6.6.1	mac	2023-07-07	17:45:36	17:53:54	495428	5e9b9eaee0e30b0b27983c50	4	1	main_slash	11	advance_on_keypress_SLASH	52	stimuli_distractor_trianglediamonds.svg	stimuli_distractor_diamondtriangles.svg	35	no	57	0	267	0	0			0	0			1				0	
6.6.1	mac	2023-07-07	17:45:36	17:53:56	497010	5e9b9eaee0e30b0b27983c50	4	1	main_slash	11	main_slash	53	stimuli_target_diamondsquares.svg	stimuli_distractor_trianglediamonds.svg	20	yes	53	1	679	0	0			0	0			1				0	
6.6.1	mac	2023-07-07	17:45:36	17:53:56	497010	5e9b9eaee0e30b0b27983c50	4	1	main_slash	11	advance_on_keypress_SLASH	54	stimuli_target_diamondsquares.svg	stimuli_distractor_trianglediamonds.svg	20	yes	57	0	450	0	0			0	0			1				0	
6.6.1	mac	2023-07-07	17:45:36	17:53:58	498673	5e9b9eaee0e30b0b27983c50	4	1	main_slash	11	main_slash	55	stimuli_target_trianglerectangles.svg	stimuli_distractor_diamondtriangles.svg	21	yes	53	1	576	0	0			0	0			1				0	
6.6.1	mac	2023-07-07	17:45:36	17:53:58	498673	5e9b9eaee0e30b0b27983c50	4	1	main_slash	11	advance_on_keypress_SLASH	56	stimuli_target_trianglerectangles.svg	stimuli_distractor_diamondtriangles.svg	21	yes	57	0	413	0	0			0	0			1				0	
6.6.1	mac	2023-07-07	17:45:36	17:53:59	500271	5e9b9eaee0e30b0b27983c50	4	1	main_slash	11	main_slash	57	stimuli_distractor_diamondtriangles.svg	stimuli_target_trianglesquares.svg	30	yes	53	1	556	0	0			0	0			1				0	
6.6.1	mac	2023-07-07	17:45:36	17:53:59	500271	5e9b9eaee0e30b0b27983c50	4	1	main_slash	11	advance_on_keypress_SLASH	58	stimuli_distractor_diamondtriangles.svg	stimuli_target_trianglesquares.svg	30	yes	57	0	395	0	0			0	0			1				0	
6.6.1	mac	2023-07-07	17:45:36	17:54:02	503296	5e9b9eaee0e30b0b27983c50	4	1	main_slash	11	main_slash	59	stimuli_distractor_trianglediamonds.svg	stimuli_distractor_trianglediamonds.svg	34	no	0	1	2000	0	0			0	0			1				0	
6.6.1	mac	2023-07-07	17:45:36	17:54:02	503296	5e9b9eaee0e30b0b27983c50	4	1	main_slash	11	advance_on_keypress_SLASH	60	stimuli_distractor_trianglediamonds.svg	stimuli_distractor_trianglediamonds.svg	34	no	57	0	647	0	0			0	0			1				0	
6.6.1	mac	2023-07-07	17:45:36	17:54:04	505134	5e9b9eaee0e30b0b27983c50	4	1	main_slash	11	main_slash	61	stimuli_distractor_diamondtriangles.svg	stimuli_target_rectanglediamonds.svg	14	yes	53	1	554	0	0			0	0			1				0	
6.6.1	mac	2023-07-07	17:45:36	17:54:04	505134	5e9b9eaee0e30b0b27983c50	4	1	main_slash	11	advance_on_keypress_SLASH	62	stimuli_distractor_diamondtriangles.svg	stimuli_target_rectanglediamonds.svg	14	yes	57	0	481	0	0			0	0			1				0	
6.6.1	mac	2023-07-07	17:45:36	17:54:06	506642	5e9b9eaee0e30b0b27983c50	4	1	main_slash	11	main_slash	63	stimuli_distractor_trianglediamonds.svg	stimuli_target_squarediamonds.svg	12	yes	53	1	396	0	0			0	0			1				0	
6.6.1	mac	2023-07-07	17:45:36	17:54:06	506642	5e9b9eaee0e30b0b27983c50	4	1	main_slash	11	advance_on_keypress_SLASH	64	stimuli_distractor_trianglediamonds.svg	stimuli_target_squarediamonds.svg	12	yes	57	0	454	0	0			0	0			1				0	
6.6.1	mac	2023-07-07	17:45:36	17:54:07	508217	5e9b9eaee0e30b0b27983c50	4	1	main_slash	11	main_slash	65	stimuli_target_trianglerectangles.svg	stimuli_distractor_trianglediamonds.svg	17	yes	53	1	486	0	0			0	0			1				0	
6.6.1	mac	2023-07-07	17:45:36	17:54:07	508217	5e9b9eaee0e30b0b27983c50	4	1	main_slash	11	advance_on_keypress_SLASH	66	stimuli_target_trianglerectangles.svg	stimuli_distractor_trianglediamonds.svg	17	yes	57	0	279	0	0			0	0			1				0	
6.6.1	mac	2023-07-07	17:45:36	17:54:09	509711	5e9b9eaee0e30b0b27983c50	4	1	main_slash	11	main_slash	67	stimuli_target_squarediamonds.svg	stimuli_distractor_diamondtriangles.svg	8	yes	53	1	580	0	0			0	0			1				0	
6.6.1	mac	2023-07-07	17:45:36	17:54:09	509711	5e9b9eaee0e30b0b27983c50	4	1	main_slash	11	advance_on_keypress_SLASH	68	stimuli_target_squarediamonds.svg	stimuli_distractor_diamondtriangles.svg	8	yes	57	0	282	0	0			0	0			1				0	
6.6.1	mac	2023-07-07	17:45:36	17:54:10	511098	5e9b9eaee0e30b0b27983c50	4	1	main_slash	11	main_slash	69	stimuli_distractor_diamondtriangles.svg	stimuli_target_diamondsquares.svg	32	yes	53	1	467	0	0			0	0			1				0	
6.6.1	mac	2023-07-07	17:45:36	17:54:10	511098	5e9b9eaee0e30b0b27983c50	4	1	main_slash	11	advance_on_keypress_SLASH	70	stimuli_distractor_diamondtriangles.svg	stimuli_target_diamondsquares.svg	32	yes	57	0	300	0	0			0	0			1				0	
6.6.1	mac	2023-07-07	17:45:36	17:54:12	512657	5e9b9eaee0e30b0b27983c50	4	1	main_slash	11	main_slash	71	stimuli_target_squaretriangles.svg	stimuli_distractor_diamondtriangles.svg	7	yes	53	1	626	0	0			0	0			1				0	
6.6.1	mac	2023-07-07	17:45:36	17:54:12	512657	5e9b9eaee0e30b0b27983c50	4	1	main_slash	11	advance_on_keypress_SLASH	72	stimuli_target_squaretriangles.svg	stimuli_distractor_diamondtriangles.svg	7	yes	57	0	336	0	0			0	0			1				0	
6.6.1	mac	2023-07-07	17:45:36	17:54:13	514126	5e9b9eaee0e30b0b27983c50	4	1	main_slash	11	main_slash	73	stimuli_target_rectanglediamonds.svg	stimuli_distractor_diamondtriangles.svg	6	yes	53	1	512	0	0			0	0			1				0	
6.6.1	mac	2023-07-07	17:45:36	17:54:13	514126	5e9b9eaee0e30b0b27983c50	4	1	main_slash	11	advance_on_keypress_SLASH	74	stimuli_target_rectanglediamonds.svg	stimuli_distractor_diamondtriangles.svg	6	yes	57	0	288	0	0			0	0			1				0	
6.6.1	mac	2023-07-07	17:45:36	17:54:15	515576	5e9b9eaee0e30b0b27983c50	4	1	main_slash	11	main_slash	75	stimuli_target_trianglesquares.svg	stimuli_distractor_diamondtriangles.svg	22	yes	53	1	528	0	0			0	0			1				0	
6.6.1	mac	2023-07-07	17:45:36	17:54:15	515576	5e9b9eaee0e30b0b27983c50	4	1	main_slash	11	advance_on_keypress_SLASH	76	stimuli_target_trianglesquares.svg	stimuli_distractor_diamondtriangles.svg	22	yes	57	0	339	0	0			0	0			1				0	
6.6.1	mac	2023-07-07	17:45:36	17:54:16	517357	5e9b9eaee0e30b0b27983c50	4	1	main_slash	11	main_slash	77	stimuli_target_rectangletriangles.svg	stimuli_distractor_trianglediamonds.svg	1	yes	53	1	810	0	0			0	0			1				0	
6.6.1	mac	2023-07-07	17:45:36	17:54:16	517357	5e9b9eaee0e30b0b27983c50	4	1	main_slash	11	advance_on_keypress_SLASH	78	stimuli_target_rectangletriangles.svg	stimuli_distractor_trianglediamonds.svg	1	yes	57	0	283	0	0			0	0			1				0	
6.6.1	mac	2023-07-07	17:45:36	17:54:18	519351	5e9b9eaee0e30b0b27983c50	4	1	main_slash	11	main_slash	79	stimuli_distractor_diamondtriangles.svg	stimuli_distractor_trianglediamonds.svg	37	no	53	0	1086	0	0			0	0			1				0	
6.6.1	mac	2023-07-07	17:45:36	17:54:18	519351	5e9b9eaee0e30b0b27983c50	4	1	main_slash	11	advance_on_keypress_SLASH	80	stimuli_distractor_diamondtriangles.svg	stimuli_distractor_trianglediamonds.svg	37	no	57	0	474	0	0			0	0			1				0	
6.6.1	mac	2023-07-07	17:45:36	17:54:20	521078	5e9b9eaee0e30b0b27983c50	4	1	main_slash	11	main_slash	81	stimuli_distractor_diamondtriangles.svg	stimuli_target_rectangletriangles.svg	13	yes	53	1	629	0	0			0	0			1				0	
6.6.1	mac	2023-07-07	17:45:36	17:54:20	521078	5e9b9eaee0e30b0b27983c50	4	1	main_slash	11	advance_on_keypress_SLASH	82	stimuli_distractor_diamondtriangles.svg	stimuli_target_rectangletriangles.svg	13	yes	57	0	290	0	0			0	0			1				0	
6.6.1	mac	2023-07-07	17:45:36	17:54:21	522404	5e9b9eaee0e30b0b27983c50	4	1	main_slash	11	main_slash	83	stimuli_distractor_diamondtriangles.svg	stimuli_target_rectanglediamonds.svg	14	yes	53	1	407	0	0			0	0			1				0	
6.6.1	mac	2023-07-07	17:45:36	17:54:21	522404	5e9b9eaee0e30b0b27983c50	4	1	main_slash	11	advance_on_keypress_SLASH	84	stimuli_distractor_diamondtriangles.svg	stimuli_target_rectanglediamonds.svg	14	yes	57	0	309	0	0			0	0			1				0	
6.6.1	mac	2023-07-07	17:45:36	17:54:24	525346	5e9b9eaee0e30b0b27983c50	4	1	main_slash	11	main_slash	85	stimuli_distractor_trianglediamonds.svg	stimuli_distractor_trianglediamonds.svg	33	no	0	1	2000	0	0			0	0			1				0	
6.6.1	mac	2023-07-07	17:45:36	17:54:24	525346	5e9b9eaee0e30b0b27983c50	4	1	main_slash	11	advance_on_keypress_SLASH	86	stimuli_distractor_trianglediamonds.svg	stimuli_distractor_trianglediamonds.svg	33	no	57	0	426	0	0			0	0			1				0	
6.6.1	mac	2023-07-07	17:45:36	17:54:26	526951	5e9b9eaee0e30b0b27983c50	4	1	main_slash	11	main_slash	87	stimuli_target_diamondrectangles.svg	stimuli_distractor_trianglediamonds.svg	19	yes	53	1	552	0	0			0	0			1				0	
6.6.1	mac	2023-07-07	17:45:36	17:54:26	526951	5e9b9eaee0e30b0b27983c50	4	1	main_slash	11	advance_on_keypress_SLASH	88	stimuli_target_diamondrectangles.svg	stimuli_distractor_trianglediamonds.svg	19	yes	57	0	351	0	0			0	0			1				0	
6.6.1	mac	2023-07-07	17:45:36	17:54:27	528358	5e9b9eaee0e30b0b27983c50	4	1	main_slash	11	main_slash	89	stimuli_target_diamondsquares.svg	stimuli_distractor_diamondtriangles.svg	24	yes	53	1	426	0	0			0	0			1				0	
6.6.1	mac	2023-07-07	17:45:36	17:54:27	528358	5e9b9eaee0e30b0b27983c50	4	1	main_slash	11	advance_on_keypress_SLASH	90	stimuli_target_diamondsquares.svg	stimuli_distractor_diamondtriangles.svg	24	yes	57	0	292	0	0			0	0			1				0	
6.6.1	mac	2023-07-07	17:45:36	17:54:29	529778	5e9b9eaee0e30b0b27983c50	4	1	main_slash	11	main_slash	91	stimuli_target_trianglerectangles.svg	stimuli_distractor_diamondtriangles.svg	21	yes	53	1	497	0	0			0	0			1				0	
6.6.1	mac	2023-07-07	17:45:36	17:54:29	529778	5e9b9eaee0e30b0b27983c50	4	1	main_slash	11	advance_on_keypress_SLASH	92	stimuli_target_trianglerectangles.svg	stimuli_distractor_diamondtriangles.svg	21	yes	57	0	267	0	0			0	0			1				0	
6.6.1	mac	2023-07-07	17:45:36	17:54:32	532679	5e9b9eaee0e30b0b27983c50	4	1	main_slash	11	main_slash	93	stimuli_distractor_diamondtriangles.svg	stimuli_distractor_diamondtriangles.svg	40	no	0	1	2000	0	0			0	0			1				0	
6.6.1	mac	2023-07-07	17:45:36	17:54:32	532679	5e9b9eaee0e30b0b27983c50	4	1	main_slash	11	advance_on_keypress_SLASH	94	stimuli_distractor_diamondtriangles.svg	stimuli_distractor_diamondtriangles.svg	40	no	57	0	330	0	0			0	0			1				0	
6.6.1	mac	2023-07-07	17:45:36	17:54:35	535647	5e9b9eaee0e30b0b27983c50	4	1	main_slash	11	main_slash	95	stimuli_distractor_trianglediamonds.svg	stimuli_distractor_trianglediamonds.svg	34	no	0	1	2000	0	0			0	0			1				0	
6.6.1	mac	2023-07-07	17:45:36	17:54:35	535647	5e9b9eaee0e30b0b27983c50	4	1	main_slash	11	advance_on_keypress_SLASH	96	stimuli_distractor_trianglediamonds.svg	stimuli_distractor_trianglediamonds.svg	34	no	57	0	306	0	0			0	0			1				0	
6.6.1	mac	2023-07-07	17:45:36	17:54:36	536931	5e9b9eaee0e30b0b27983c50	4	1	main_slash	11	main_slash	97	stimuli_distractor_trianglediamonds.svg	stimuli_target_rectanglediamonds.svg	10	yes	53	1	350	0	0			0	0			1				0	
6.6.1	mac	2023-07-07	17:45:36	17:54:36	536931	5e9b9eaee0e30b0b27983c50	4	1	main_slash	11	advance_on_keypress_SLASH	98	stimuli_distractor_trianglediamonds.svg	stimuli_target_rectanglediamonds.svg	10	yes	57	0	318	0	0			0	0			1				0	
6.6.1	mac	2023-07-07	17:45:36	17:54:37	538217	5e9b9eaee0e30b0b27983c50	4	1	main_slash	11	main_slash	99	stimuli_distractor_trianglediamonds.svg	stimuli_target_squaretriangles.svg	11	yes	53	1	336	0	0			0	0			1				0	
6.6.1	mac	2023-07-07	17:45:36	17:54:37	538217	5e9b9eaee0e30b0b27983c50	4	1	main_slash	11	advance_on_keypress_SLASH	100	stimuli_distractor_trianglediamonds.svg	stimuli_target_squaretriangles.svg	11	yes	57	0	331	0	0			0	0			1				0	
6.6.1	mac	2023-07-07	17:45:36	17:54:39	539657	5e9b9eaee0e30b0b27983c50	4	1	main_slash	11	main_slash	101	stimuli_target_squaretriangles.svg	stimuli_distractor_diamondtriangles.svg	7	yes	53	1	475	0	0			0	0			1				0	
6.6.1	mac	2023-07-07	17:45:36	17:54:39	539657	5e9b9eaee0e30b0b27983c50	4	1	main_slash	11	advance_on_keypress_SLASH	102	stimuli_target_squaretriangles.svg	stimuli_distractor_diamondtriangles.svg	7	yes	57	0	322	0	0			0	0			1				0	
6.6.1	mac	2023-07-07	17:45:36	17:54:40	541083	5e9b9eaee0e30b0b27983c50	4	1	main_slash	11	main_slash	103	stimuli_target_rectanglediamonds.svg	stimuli_distractor_diamondtriangles.svg	6	yes	53	1	485	0	0			0	0			1				0	
6.6.1	mac	2023-07-07	17:45:36	17:54:40	541083	5e9b9eaee0e30b0b27983c50	4	1	main_slash	11	advance_on_keypress_SLASH	104	stimuli_target_rectanglediamonds.svg	stimuli_distractor_diamondtriangles.svg	6	yes	57	0	284	0	0			0	0			1				0	
6.6.1	mac	2023-07-07	17:45:36	17:54:41	542358	5e9b9eaee0e30b0b27983c50	4	1	main_slash	11	main_slash	105	stimuli_distractor_trianglediamonds.svg	stimuli_target_squarediamonds.svg	12	yes	53	1	360	0	0			0	0			1				0	
6.6.1	mac	2023-07-07	17:45:36	17:54:41	542358	5e9b9eaee0e30b0b27983c50	4	1	main_slash	11	advance_on_keypress_SLASH	106	stimuli_distractor_trianglediamonds.svg	stimuli_target_squarediamonds.svg	12	yes	57	0	230	0	0			0	0			1				0	
6.6.1	mac	2023-07-07	17:45:36	17:54:43	543627	5e9b9eaee0e30b0b27983c50	4	1	main_slash	11	main_slash	107	stimuli_distractor_trianglediamonds.svg	stimuli_distractor_diamondtriangles.svg	36	no	53	0	411	0	0			0	0			1				0	
6.6.1	mac	2023-07-07	17:45:36	17:54:43	543627	5e9b9eaee0e30b0b27983c50	4	1	main_slash	11	advance_on_keypress_SLASH	108	stimuli_distractor_trianglediamonds.svg	stimuli_distractor_diamondtriangles.svg	36	no	57	0	501	0	0			0	0			1				0	
6.6.1	mac	2023-07-07	17:45:36	17:54:44	545246	5e9b9eaee0e30b0b27983c50	4	1	main_slash	11	main_slash	109	stimuli_distractor_diamondtriangles.svg	stimuli_target_trianglesquares.svg	30	yes	53	1	481	0	0			0	0			1				0	
6.6.1	mac	2023-07-07	17:45:36	17:54:44	545246	5e9b9eaee0e30b0b27983c50	4	1	main_slash	11	advance_on_keypress_SLASH	110	stimuli_distractor_diamondtriangles.svg	stimuli_target_trianglesquares.svg	30	yes	57	0	250	0	0			0	0			1				0	
6.6.1	mac	2023-07-07	17:45:36	17:54:46	546717	5e9b9eaee0e30b0b27983c50	4	1	main_slash	11	main_slash	111	stimuli_target_trianglesquares.svg	stimuli_distractor_trianglediamonds.svg	18	yes	53	1	586	0	0			0	0			1				0	
6.6.1	mac	2023-07-07	17:45:36	17:54:46	546717	5e9b9eaee0e30b0b27983c50	4	1	main_slash	11	advance_on_keypress_SLASH	112	stimuli_target_trianglesquares.svg	stimuli_distractor_trianglediamonds.svg	18	yes	57	0	224	0	0			0	0			1				0	
6.6.1	mac	2023-07-07	17:45:36	17:54:49	549563	5e9b9eaee0e30b0b27983c50	4	1	main_slash	11	main_slash	113	stimuli_distractor_diamondtriangles.svg	stimuli_distractor_trianglediamonds.svg	38	no	0	1	2000	0	0			0	0			1				0	
6.6.1	mac	2023-07-07	17:45:36	17:54:49	549563	5e9b9eaee0e30b0b27983c50	4	1	main_slash	11	advance_on_keypress_SLASH	114	stimuli_distractor_diamondtriangles.svg	stimuli_distractor_trianglediamonds.svg	38	no	57	0	347	0	0			0	0			1				0	
6.6.1	mac	2023-07-07	17:45:36	17:54:50	550998	5e9b9eaee0e30b0b27983c50	4	1	main_slash	11	main_slash	115	stimuli_distractor_trianglediamonds.svg	stimuli_target_diamondrectangles.svg	27	yes	53	1	450	0	0			0	0			1				0	
6.6.1	mac	2023-07-07	17:45:36	17:54:50	550998	5e9b9eaee0e30b0b27983c50	4	1	main_slash	11	advance_on_keypress_SLASH	116	stimuli_distractor_trianglediamonds.svg	stimuli_target_diamondrectangles.svg	27	yes	57	0	320	0	0			0	0			1				0	
6.6.1	mac	2023-07-07	17:45:36	17:54:52	552624	5e9b9eaee0e30b0b27983c50	4	1	main_slash	11	main_slash	117	stimuli_target_rectanglediamonds.svg	stimuli_distractor_trianglediamonds.svg	2	yes	53	1	676	0	0			0	0			1				0	
6.6.1	mac	2023-07-07	17:45:36	17:54:52	552624	5e9b9eaee0e30b0b27983c50	4	1	main_slash	11	advance_on_keypress_SLASH	118	stimuli_target_rectanglediamonds.svg	stimuli_distractor_trianglediamonds.svg	2	yes	57	0	566	0	0			0	0			1				0	
6.6.1	mac	2023-07-07	17:45:36	17:54:55	555815	5e9b9eaee0e30b0b27983c50	4	1	main_slash	11	main_slash	119	stimuli_distractor_diamondtriangles.svg	stimuli_distractor_trianglediamonds.svg	37	no	0	1	2000	0	0			0	0			1				0	
6.6.1	mac	2023-07-07	17:45:36	17:54:55	555815	5e9b9eaee0e30b0b27983c50	4	1	main_slash	11	advance_on_keypress_SLASH	120	stimuli_distractor_diamondtriangles.svg	stimuli_distractor_trianglediamonds.svg	37	no	57	0	313	0	0			0	0			1				0	
6.6.1	mac	2023-07-07	17:45:36	17:54:56	557466	5e9b9eaee0e30b0b27983c50	4	1	main_slash	11	main_slash	121	stimuli_target_diamondsquares.svg	stimuli_distractor_trianglediamonds.svg	20	yes	53	1	701	0	0			0	0			1				0	
6.6.1	mac	2023-07-07	17:45:36	17:54:56	557466	5e9b9eaee0e30b0b27983c50	4	1	main_slash	11	advance_on_keypress_SLASH	122	stimuli_target_diamondsquares.svg	stimuli_distractor_trianglediamonds.svg	20	yes	57	0	408	0	0			0	0			1				0	
6.6.1	mac	2023-07-07	17:45:36	17:54:58	559180	5e9b9eaee0e30b0b27983c50	4	1	main_slash	11	main_slash	123	stimuli_target_rectangletriangles.svg	stimuli_distractor_diamondtriangles.svg	5	yes	53	1	681	0	0			0	0			1				0	
6.6.1	mac	2023-07-07	17:45:36	17:54:58	559180	5e9b9eaee0e30b0b27983c50	4	1	main_slash	11	advance_on_keypress_SLASH	124	stimuli_target_rectangletriangles.svg	stimuli_distractor_diamondtriangles.svg	5	yes	57	0	362	0	0			0	0			1				0	
6.6.1	mac	2023-07-07	17:45:36	17:55:00	560906	5e9b9eaee0e30b0b27983c50	4	1	main_slash	11	main_slash	125	stimuli_distractor_trianglediamonds.svg	stimuli_target_trianglesquares.svg	26	yes	53	1	740	0	0			0	0			1				0	
6.6.1	mac	2023-07-07	17:45:36	17:55:00	560906	5e9b9eaee0e30b0b27983c50	4	1	main_slash	11	advance_on_keypress_SLASH	126	stimuli_distractor_trianglediamonds.svg	stimuli_target_trianglesquares.svg	26	yes	57	0	367	0	0			0	0			1				0	
6.6.1	mac	2023-07-07	17:45:36	17:55:02	562646	5e9b9eaee0e30b0b27983c50	4	1	main_slash	11	main_slash	127	stimuli_target_trianglerectangles.svg	stimuli_distractor_trianglediamonds.svg	17	yes	53	1	748	0	0			0	0			1				0	
6.6.1	mac	2023-07-07	17:45:36	17:55:02	562646	5e9b9eaee0e30b0b27983c50	4	1	main_slash	11	advance_on_keypress_SLASH	128	stimuli_target_trianglerectangles.svg	stimuli_distractor_trianglediamonds.svg	17	yes	57	0	307	0	0			0	0			1				0	
6.6.1	mac	2023-07-07	17:45:36	17:55:03	563977	5e9b9eaee0e30b0b27983c50	4	1	main_slash	11	main_slash	129	stimuli_distractor_diamondtriangles.svg	stimuli_target_squaretriangles.svg	15	yes	53	1	395	0	0			0	0			1				0	
6.6.1	mac	2023-07-07	17:45:36	17:55:03	563977	5e9b9eaee0e30b0b27983c50	4	1	main_slash	11	advance_on_keypress_SLASH	130	stimuli_distractor_diamondtriangles.svg	stimuli_target_squaretriangles.svg	15	yes	57	0	222	0	0			0	0			1				0	
6.6.1	mac	2023-07-07	17:45:36	17:55:04	565281	5e9b9eaee0e30b0b27983c50	4	1	main_slash	11	main_slash	131	stimuli_distractor_diamondtriangles.svg	stimuli_target_squarediamonds.svg	16	yes	53	1	448	0	0			0	0			1				0	
6.6.1	mac	2023-07-07	17:45:36	17:55:04	565281	5e9b9eaee0e30b0b27983c50	4	1	main_slash	11	advance_on_keypress_SLASH	132	stimuli_distractor_diamondtriangles.svg	stimuli_target_squarediamonds.svg	16	yes	57	0	130	0	0			0	0			1				0	
6.6.1	mac	2023-07-07	17:45:36	17:55:06	566612	5e9b9eaee0e30b0b27983c50	4	1	main_slash	11	main_slash	133	stimuli_distractor_diamondtriangles.svg	stimuli_target_diamondrectangles.svg	31	yes	53	1	564	0	0			0	0			1				0	
6.6.1	mac	2023-07-07	17:45:36	17:55:06	566612	5e9b9eaee0e30b0b27983c50	4	1	main_slash	11	advance_on_keypress_SLASH	134	stimuli_distractor_diamondtriangles.svg	stimuli_target_diamondrectangles.svg	31	yes	57	0	150	0	0			0	0			1				0	
6.6.1	mac	2023-07-07	17:45:36	17:55:07	567834	5e9b9eaee0e30b0b27983c50	4	1	main_slash	11	main_slash	135	stimuli_distractor_trianglediamonds.svg	stimuli_target_trianglerectangles.svg	25	yes	53	1	435	0	0			0	0			1				0	
6.6.1	mac	2023-07-07	17:45:36	17:55:07	567834	5e9b9eaee0e30b0b27983c50	4	1	main_slash	11	advance_on_keypress_SLASH	136	stimuli_distractor_trianglediamonds.svg	stimuli_target_trianglerectangles.svg	25	yes	57	0	183	0	0			0	0			1				0	
6.6.1	mac	2023-07-07	17:45:36	17:55:08	569023	5e9b9eaee0e30b0b27983c50	4	1	main_slash	11	main_slash	137	stimuli_distractor_diamondtriangles.svg	stimuli_target_trianglerectangles.svg	29	yes	53	1	375	0	0			0	0			1				0	
6.6.1	mac	2023-07-07	17:45:36	17:55:08	569023	5e9b9eaee0e30b0b27983c50	4	1	main_slash	11	advance_on_keypress_SLASH	138	stimuli_distractor_diamondtriangles.svg	stimuli_target_trianglerectangles.svg	29	yes	57	0	265	0	0			0	0			1				0	
6.6.1	mac	2023-07-07	17:45:36	17:55:11	571499	5e9b9eaee0e30b0b27983c50	4	1	main_slash	11	main_slash	139	stimuli_target_squaretriangles.svg	stimuli_distractor_trianglediamonds.svg	3	yes	53	1	1582	0	0			0	0			1				0	
6.6.1	mac	2023-07-07	17:45:36	17:55:11	571499	5e9b9eaee0e30b0b27983c50	4	1	main_slash	11	advance_on_keypress_SLASH	140	stimuli_target_squaretriangles.svg	stimuli_distractor_trianglediamonds.svg	3	yes	57	0	562	0	0			0	0			1				0	
6.6.1	mac	2023-07-07	17:45:36	17:55:12	573226	5e9b9eaee0e30b0b27983c50	4	1	main_slash	11	main_slash	141	stimuli_target_diamondrectangles.svg	stimuli_distractor_diamondtriangles.svg	23	yes	53	1	529	0	0			0	0			1				0	
6.6.1	mac	2023-07-07	17:45:36	17:55:12	573226	5e9b9eaee0e30b0b27983c50	4	1	main_slash	11	advance_on_keypress_SLASH	142	stimuli_target_diamondrectangles.svg	stimuli_distractor_diamondtriangles.svg	23	yes	57	0	246	0	0			0	0			1				0	
6.6.1	mac	2023-07-07	17:45:36	17:55:14	574588	5e9b9eaee0e30b0b27983c50	4	1	main_slash	11	main_slash	143	stimuli_distractor_trianglediamonds.svg	stimuli_target_diamondsquares.svg	28	yes	53	1	473	0	0			0	0			1				0	
6.6.1	mac	2023-07-07	17:45:36	17:55:14	574588	5e9b9eaee0e30b0b27983c50	4	1	main_slash	11	advance_on_keypress_SLASH	144	stimuli_distractor_trianglediamonds.svg	stimuli_target_diamondsquares.svg	28	yes	57	0	203	0	0			0	0			1				0	
6.6.1	mac	2023-07-07	17:45:36	17:55:15	576175	5e9b9eaee0e30b0b27983c50	4	1	main_slash	11	main_slash	145	stimuli_target_rectangletriangles.svg	stimuli_distractor_trianglediamonds.svg	1	yes	53	1	759	0	0			0	0			1				0	
6.6.1	mac	2023-07-07	17:45:36	17:55:15	576175	5e9b9eaee0e30b0b27983c50	4	1	main_slash	11	advance_on_keypress_SLASH	146	stimuli_target_rectangletriangles.svg	stimuli_distractor_trianglediamonds.svg	1	yes	57	0	185	0	0			0	0			1				0	
6.6.1	mac	2023-07-07	17:45:36	17:55:17	577770	5e9b9eaee0e30b0b27983c50	4	1	main_slash	11	main_slash	147	stimuli_target_trianglesquares.svg	stimuli_distractor_diamondtriangles.svg	22	yes	53	1	788	0	0			0	0			1				0	
6.6.1	mac	2023-07-07	17:45:36	17:55:17	577770	5e9b9eaee0e30b0b27983c50	4	1	main_slash	11	advance_on_keypress_SLASH	148	stimuli_target_trianglesquares.svg	stimuli_distractor_diamondtriangles.svg	22	yes	57	0	157	0	0			0	0			1				0	
6.6.1	mac	2023-07-07	17:45:36	17:55:20	580548	5e9b9eaee0e30b0b27983c50	4	1	main_slash	11	main_slash	149	stimuli_distractor_diamondtriangles.svg	stimuli_distractor_diamondtriangles.svg	39	no	0	1	2000	0	0			0	0			1				0	
6.6.1	mac	2023-07-07	17:45:36	17:55:20	580548	5e9b9eaee0e30b0b27983c50	4	1	main_slash	11	advance_on_keypress_SLASH	150	stimuli_distractor_diamondtriangles.svg	stimuli_distractor_diamondtriangles.svg	39	no	57	0	284	0	0			0	0			1				0	
6.6.1	mac	2023-07-07	17:45:36	17:55:21	581915	5e9b9eaee0e30b0b27983c50	4	1	main_slash	11	main_slash	151	stimuli_target_squarediamonds.svg	stimuli_distractor_diamondtriangles.svg	8	yes	53	1	450	0	0			0	0			1				0	
6.6.1	mac	2023-07-07	17:45:36	17:55:21	581915	5e9b9eaee0e30b0b27983c50	4	1	main_slash	11	advance_on_keypress_SLASH	152	stimuli_target_squarediamonds.svg	stimuli_distractor_diamondtriangles.svg	8	yes	57	0	335	0	0			0	0			1				0	
6.6.1	mac	2023-07-07	17:45:36	17:55:22	583235	5e9b9eaee0e30b0b27983c50	4	1	main_slash	11	main_slash	153	stimuli_distractor_trianglediamonds.svg	stimuli_target_rectangletriangles.svg	9	yes	53	1	354	0	0			0	0			1				0	
6.6.1	mac	2023-07-07	17:45:36	17:55:22	583235	5e9b9eaee0e30b0b27983c50	4	1	main_slash	11	advance_on_keypress_SLASH	154	stimuli_distractor_trianglediamonds.svg	stimuli_target_rectangletriangles.svg	9	yes	57	0	245	0	0			0	0			1				0	
6.6.1	mac	2023-07-07	17:45:36	17:55:24	584526	5e9b9eaee0e30b0b27983c50	4	1	main_slash	11	main_slash	155	stimuli_distractor_diamondtriangles.svg	stimuli_target_diamondsquares.svg	32	yes	53	1	427	0	0			0	0			1				0	
6.6.1	mac	2023-07-07	17:45:36	17:55:24	584526	5e9b9eaee0e30b0b27983c50	4	1	main_slash	11	advance_on_keypress_SLASH	156	stimuli_distractor_diamondtriangles.svg	stimuli_target_diamondsquares.svg	32	yes	57	0	240	0	0			0	0			1				0	
6.6.1	mac	2023-07-07	17:45:36	17:55:26	587397	5e9b9eaee0e30b0b27983c50	4	1	main_slash	11	main_slash	157	stimuli_distractor_trianglediamonds.svg	stimuli_distractor_diamondtriangles.svg	35	no	0	1	2000	0	0			0	0			1				0	
6.6.1	mac	2023-07-07	17:45:36	17:55:26	587397	5e9b9eaee0e30b0b27983c50	4	1	main_slash	11	advance_on_keypress_SLASH	158	stimuli_distractor_trianglediamonds.svg	stimuli_distractor_diamondtriangles.svg	35	no	57	0	328	0	0			0	0			1				0	
6.6.1	mac	2023-07-07	17:45:36	17:55:28	589073	5e9b9eaee0e30b0b27983c50	4	1	main_slash	11	main_slash	159	stimuli_target_squarediamonds.svg	stimuli_distractor_trianglediamonds.svg	4	yes	53	1	707	0	0			0	0			1				0	
6.6.1	mac	2023-07-07	17:45:36	17:55:28	589073	5e9b9eaee0e30b0b27983c50	4	1	main_slash	11	advance_on_keypress_SLASH	160	stimuli_target_squarediamonds.svg	stimuli_distractor_trianglediamonds.svg	4	yes	57	0	304	0	0			0	0			1				0	
6.6.1	mac	2023-07-07	17:45:36	17:55:28	589073	5e9b9eaee0e30b0b27983c50	4	1	headphonecheck_calibration	14	headphonecheck_calibrationIntro	1	stimuli_target_squarediamonds.svg	stimuli_distractor_trianglediamonds.svg	4	yes	calibrationButton	0	2368	0	0			0	0			1				0	
6.6.1	mac	2023-07-07	17:45:36	17:55:28	589073	5e9b9eaee0e30b0b27983c50	4	1	headphonecheck_testphase	15	test_collectResponse	3	stimuli_target_squarediamonds.svg	stimuli_distractor_trianglediamonds.svg	4	yes	second	1	2741	1	5	antiphase_hc_osi.wav	2	0	0			1				0	
6.6.1	mac	2023-07-07	17:45:36	17:55:28	589073	5e9b9eaee0e30b0b27983c50	4	1	headphonecheck_testphase	15	test_collectResponse	6	stimuli_target_squarediamonds.svg	stimuli_distractor_trianglediamonds.svg	4	yes	second	1	607	2	1	antiphase_hc_iso.wav	2	0	0			1				0	
6.6.1	mac	2023-07-07	17:45:36	17:55:28	589073	5e9b9eaee0e30b0b27983c50	4	1	headphonecheck_testphase	15	test_collectResponse	9	stimuli_target_squarediamonds.svg	stimuli_distractor_trianglediamonds.svg	4	yes	first	1	340	3	3	antiphase_hc_soi.wav	1	0	0			1				0	
6.6.1	mac	2023-07-07	17:45:36	17:55:28	589073	5e9b9eaee0e30b0b27983c50	4	1	headphonecheck_testphase	15	test_collectResponse	12	stimuli_target_squarediamonds.svg	stimuli_distractor_trianglediamonds.svg	4	yes	third	1	458	4	6	antiphase_hc_ois.wav	3	0	0			1				0	
6.6.1	mac	2023-07-07	17:45:36	17:55:28	589073	5e9b9eaee0e30b0b27983c50	4	1	headphonecheck_testphase	15	test_collectResponse	15	stimuli_target_squarediamonds.svg	stimuli_distractor_trianglediamonds.svg	4	yes	first	1	574	5	4	antiphase_hc_sio.wav	1	0	0			1				0	
6.6.1	mac	2023-07-07	17:45:36	17:55:28	589073	5e9b9eaee0e30b0b27983c50	4	1	headphonecheck_testphase	15	test_collectResponse	18	stimuli_target_squarediamonds.svg	stimuli_distractor_trianglediamonds.svg	4	yes	third	1	423	6	2	antiphase_hc_ios.wav	3	0	0			1				0	
6.6.1	mac	2023-07-07	17:45:36	17:55:28	589073	5e9b9eaee0e30b0b27983c50	4	1	stereocheck_calibration	17	stereocheck_calibrationIntro	1	stimuli_target_squarediamonds.svg	stimuli_distractor_trianglediamonds.svg	4	yes	stereocheck_calibrationButton	0	16911	6	2	antiphase_hc_ios.wav	3	0	0			1				0	
6.6.1	mac	2023-07-07	17:45:36	17:55:28	589073	5e9b9eaee0e30b0b27983c50	4	1	stereocheck_testphase	18	stereocheck_test_collectResponse	3	stimuli_target_squarediamonds.svg	stimuli_distractor_trianglediamonds.svg	4	yes	stereocheck_right	1	423	6	2	antiphase_hc_ios.wav	3	1	4	noise_calib_stim_RIGHT.wav	2	1				0	
6.6.1	mac	2023-07-07	17:45:36	17:55:28	589073	5e9b9eaee0e30b0b27983c50	4	1	stereocheck_testphase	18	stereocheck_test_collectResponse	6	stimuli_target_squarediamonds.svg	stimuli_distractor_trianglediamonds.svg	4	yes	stereocheck_left	1	608	6	2	antiphase_hc_ios.wav	3	2	3	noise_calib_stim_LEFT.wav	1	1				0	
6.6.1	mac	2023-07-07	17:45:36	17:55:28	589073	5e9b9eaee0e30b0b27983c50	4	1	stereocheck_testphase	18	stereocheck_test_collectResponse	9	stimuli_target_squarediamonds.svg	stimuli_distractor_trianglediamonds.svg	4	yes	stereocheck_left	1	923	6	2	antiphase_hc_ios.wav	3	3	1	noise_calib_stim_LEFT.wav	1	1				0	
6.6.1	mac	2023-07-07	17:45:36	17:55:28	589073	5e9b9eaee0e30b0b27983c50	4	1	stereocheck_testphase	18	stereocheck_test_collectResponse	12	stimuli_target_squarediamonds.svg	stimuli_distractor_trianglediamonds.svg	4	yes	stereocheck_left	1	407	6	2	antiphase_hc_ios.wav	3	4	2	noise_calib_stim_LEFT.wav	1	1				0	
6.6.1	mac	2023-07-07	17:45:36	17:55:28	589073	5e9b9eaee0e30b0b27983c50	4	1	stereocheck_testphase	18	stereocheck_test_collectResponse	15	stimuli_target_squarediamonds.svg	stimuli_distractor_trianglediamonds.svg	4	yes	stereocheck_right	1	440	6	2	antiphase_hc_ios.wav	3	5	6	noise_calib_stim_RIGHT.wav	2	1				0	
6.6.1	mac	2023-07-07	17:45:36	17:55:28	589073	5e9b9eaee0e30b0b27983c50	4	1	stereocheck_testphase	18	stereocheck_test_collectResponse	18	stimuli_target_squarediamonds.svg	stimuli_distractor_trianglediamonds.svg	4	yes	stereocheck_right	1	340	6	2	antiphase_hc_ios.wav	3	6	5	noise_calib_stim_RIGHT.wav	2	1				0	
6.6.1	mac	2023-07-07	17:45:36	17:55:28	589073	5e9b9eaee0e30b0b27983c50	4	1	DL_practice	21	DL_practice	2	stimuli_target_squarediamonds.svg	stimuli_distractor_trianglediamonds.svg	4	yes	ga	1	907	6	2	antiphase_hc_ios.wav	3	6	5	noise_calib_stim_RIGHT.wav	2	15	blb_dichoticlistening_ga-ga.mp3	ga	ga	0	left
6.6.1	mac	2023-07-07	17:45:36	17:55:28	589073	5e9b9eaee0e30b0b27983c50	4	1	DL_practice	21	DL_practice	3	stimuli_target_squarediamonds.svg	stimuli_distractor_trianglediamonds.svg	4	yes	ga	1	1241	6	2	antiphase_hc_ios.wav	3	6	5	noise_calib_stim_RIGHT.wav	2	18	blb_dichoticlistening_ga-ta.mp3	ga	ta	1	left
6.6.1	mac	2023-07-07	17:45:36	17:55:28	589073	5e9b9eaee0e30b0b27983c50	4	1	DL_practice	21	DL_practice	4	stimuli_target_squarediamonds.svg	stimuli_distractor_trianglediamonds.svg	4	yes	ta	1	1440	6	2	antiphase_hc_ios.wav	3	6	5	noise_calib_stim_RIGHT.wav	2	36	blb_dichoticlistening_ta-ta.mp3	ta	ta	0	left
6.6.1	mac	2023-07-07	17:45:36	17:55:28	589073	5e9b9eaee0e30b0b27983c50	4	1	DL_practice	21	DL_practice	5	stimuli_target_squarediamonds.svg	stimuli_distractor_trianglediamonds.svg	4	yes	pa	1	925	6	2	antiphase_hc_ios.wav	3	6	5	noise_calib_stim_RIGHT.wav	2	23	blb_dichoticlistening_ka-pa.mp3	ka	pa	1	right
6.6.1	mac	2023-07-07	17:45:36	17:55:28	589073	5e9b9eaee0e30b0b27983c50	4	1	DL_practice	21	DL_practice	6	stimuli_target_squarediamonds.svg	stimuli_distractor_trianglediamonds.svg	4	yes	ba	1	1158	6	2	antiphase_hc_ios.wav	3	6	5	noise_calib_stim_RIGHT.wav	2	1	blb_dichoticlistening_ba-ba.mp3	ba	ba	0	left
6.6.1	mac	2023-07-07	17:45:36	17:55:28	589073	5e9b9eaee0e30b0b27983c50	4	1	DL_practice	21	DL_practice	7	stimuli_target_squarediamonds.svg	stimuli_distractor_trianglediamonds.svg	4	yes	pa	1	1341	6	2	antiphase_hc_ios.wav	3	6	5	noise_calib_stim_RIGHT.wav	2	29	blb_dichoticlistening_pa-pa.mp3	pa	pa	0	left
6.6.1	mac	2023-07-07	17:45:36	17:55:28	589073	5e9b9eaee0e30b0b27983c50	4	1	DL_practice	21	DL_practice	8	stimuli_target_squarediamonds.svg	stimuli_distractor_trianglediamonds.svg	4	yes	ka	1	874	6	2	antiphase_hc_ios.wav	3	6	5	noise_calib_stim_RIGHT.wav	2	22	blb_dichoticlistening_ka-ka.mp3	ka	ka	0	left
6.6.1	mac	2023-07-07	17:45:36	17:55:28	589073	5e9b9eaee0e30b0b27983c50	4	1	DL_practice	21	DL_practice	9	stimuli_target_squarediamonds.svg	stimuli_distractor_trianglediamonds.svg	4	yes	da	1	1007	6	2	antiphase_hc_ios.wav	3	6	5	noise_calib_stim_RIGHT.wav	2	8	blb_dichoticlistening_da-da.mp3	da	da	0	left
6.6.1	mac	2023-07-07	17:45:36	17:55:28	589073	5e9b9eaee0e30b0b27983c50	4	1	DL_practice	21	DL_practice	10	stimuli_target_squarediamonds.svg	stimuli_distractor_trianglediamonds.svg	4	yes	ba	1	1040	6	2	antiphase_hc_ios.wav	3	6	5	noise_calib_stim_RIGHT.wav	2	7	blb_dichoticlistening_da-ba.mp3	da	ba	1	right
6.6.1	mac	2023-07-07	17:45:36	17:55:28	589073	5e9b9eaee0e30b0b27983c50	4	1	DL_test	23	DL_test	1	stimuli_target_squarediamonds.svg	stimuli_distractor_trianglediamonds.svg	4	yes	ga	1	992	6	2	antiphase_hc_ios.wav	3	6	5	noise_calib_stim_RIGHT.wav	2	21	blb_dichoticlistening_ka-ga.mp3	ka	ga	1	right
6.6.1	mac	2023-07-07	17:45:36	17:55:28	589073	5e9b9eaee0e30b0b27983c50	4	1	DL_test	23	DL_test	2	stimuli_target_squarediamonds.svg	stimuli_distractor_trianglediamonds.svg	4	yes	da	1	791	6	2	antiphase_hc_ios.wav	3	6	5	noise_calib_stim_RIGHT.wav	2	8	blb_dichoticlistening_da-da.mp3	da	da	0	left
6.6.1	mac	2023-07-07	17:45:36	17:55:28	589073	5e9b9eaee0e30b0b27983c50	4	1	DL_test	23	DL_test	3	stimuli_target_squarediamonds.svg	stimuli_distractor_trianglediamonds.svg	4	yes	ta	1	984	6	2	antiphase_hc_ios.wav	3	6	5	noise_calib_stim_RIGHT.wav	2	36	blb_dichoticlistening_ta-ta.mp3	ta	ta	0	left
6.6.1	mac	2023-07-07	17:45:36	17:55:28	589073	5e9b9eaee0e30b0b27983c50	4	1	DL_test	23	DL_test	4	stimuli_target_squarediamonds.svg	stimuli_distractor_trianglediamonds.svg	4	yes	da	1	1858	6	2	antiphase_hc_ios.wav	3	6	5	noise_calib_stim_RIGHT.wav	2	20	blb_dichoticlistening_ka-da.mp3	ka	da	1	right
6.6.1	mac	2023-07-07	17:45:36	17:55:28	589073	5e9b9eaee0e30b0b27983c50	4	1	DL_test	23	DL_test	5	stimuli_target_squarediamonds.svg	stimuli_distractor_trianglediamonds.svg	4	yes	ba	1	1324	6	2	antiphase_hc_ios.wav	3	6	5	noise_calib_stim_RIGHT.wav	2	13	blb_dichoticlistening_ga-ba.mp3	ga	ba	1	right
6.6.1	mac	2023-07-07	17:45:36	17:55:28	589073	5e9b9eaee0e30b0b27983c50	4	1	DL_test	23	DL_test	6	stimuli_target_squarediamonds.svg	stimuli_distractor_trianglediamonds.svg	4	yes	ga	1	1325	6	2	antiphase_hc_ios.wav	3	6	5	noise_calib_stim_RIGHT.wav	2	14	blb_dichoticlistening_ga-da.mp3	ga	da	1	left
6.6.1	mac	2023-07-07	17:45:36	17:55:28	589073	5e9b9eaee0e30b0b27983c50	4	1	DL_test	23	DL_test	7	stimuli_target_squarediamonds.svg	stimuli_distractor_trianglediamonds.svg	4	yes	ka	1	974	6	2	antiphase_hc_ios.wav	3	6	5	noise_calib_stim_RIGHT.wav	2	24	blb_dichoticlistening_ka-ta.mp3	ka	ta	1	left
6.6.1	mac	2023-07-07	17:45:36	17:55:28	589073	5e9b9eaee0e30b0b27983c50	4	1	DL_test	23	DL_test	8	stimuli_target_squarediamonds.svg	stimuli_distractor_trianglediamonds.svg	4	yes	ba	1	1124	6	2	antiphase_hc_ios.wav	3	6	5	noise_calib_stim_RIGHT.wav	2	1	blb_dichoticlistening_ba-ba.mp3	ba	ba	0	left
6.6.1	mac	2023-07-07	17:45:36	17:55:28	589073	5e9b9eaee0e30b0b27983c50	4	1	DL_test	23	DL_test	9	stimuli_target_squarediamonds.svg	stimuli_distractor_trianglediamonds.svg	4	yes	pa	1	1091	6	2	antiphase_hc_ios.wav	3	6	5	noise_calib_stim_RIGHT.wav	2	23	blb_dichoticlistening_ka-pa.mp3	ka	pa	1	right
6.6.1	mac	2023-07-07	17:45:36	17:55:28	589073	5e9b9eaee0e30b0b27983c50	4	1	DL_test	23	DL_test	10	stimuli_target_squarediamonds.svg	stimuli_distractor_trianglediamonds.svg	4	yes	ga	1	1191	6	2	antiphase_hc_ios.wav	3	6	5	noise_calib_stim_RIGHT.wav	2	3	blb_dichoticlistening_ba-ga.mp3	ba	ga	1	right
6.6.1	mac	2023-07-07	17:45:36	17:55:28	589073	5e9b9eaee0e30b0b27983c50	4	1	DL_test	23	DL_test	11	stimuli_target_squarediamonds.svg	stimuli_distractor_trianglediamonds.svg	4	yes	pa	1	1041	6	2	antiphase_hc_ios.wav	3	6	5	noise_calib_stim_RIGHT.wav	2	5	blb_dichoticlistening_ba-pa.mp3	ba	pa	1	right
6.6.1	mac	2023-07-07	17:45:36	17:55:28	589073	5e9b9eaee0e30b0b27983c50	4	1	DL_test	23	DL_test	12	stimuli_target_squarediamonds.svg	stimuli_distractor_trianglediamonds.svg	4	yes	ka	1	1574	6	2	antiphase_hc_ios.wav	3	6	5	noise_calib_stim_RIGHT.wav	2	22	blb_dichoticlistening_ka-ka.mp3	ka	ka	0	left
6.6.1	mac	2023-07-07	17:45:36	17:55:28	589073	5e9b9eaee0e30b0b27983c50	4	1	DL_test	23	DL_test	13	stimuli_target_squarediamonds.svg	stimuli_distractor_trianglediamonds.svg	4	yes	da	1	1074	6	2	antiphase_hc_ios.wav	3	6	5	noise_calib_stim_RIGHT.wav	2	12	blb_dichoticlistening_da-ta.mp3	da	ta	1	left
6.6.1	mac	2023-07-07	17:45:36	17:55:28	589073	5e9b9eaee0e30b0b27983c50	4	1	DL_test	23	DL_test	14	stimuli_target_squarediamonds.svg	stimuli_distractor_trianglediamonds.svg	4	yes	ka	1	1240	6	2	antiphase_hc_ios.wav	3	6	5	noise_calib_stim_RIGHT.wav	2	34	blb_dichoticlistening_ta-ka.mp3	ta	ka	1	right
6.6.1	mac	2023-07-07	17:45:36	17:55:28	589073	5e9b9eaee0e30b0b27983c50	4	1	DL_test	23	DL_test	15	stimuli_target_squarediamonds.svg	stimuli_distractor_trianglediamonds.svg	4	yes	ba	1	1874	6	2	antiphase_hc_ios.wav	3	6	5	noise_calib_stim_RIGHT.wav	2	31	blb_dichoticlistening_ta-ba.mp3	ta	ba	1	right
6.6.1	mac	2023-07-07	17:45:36	17:55:28	589073	5e9b9eaee0e30b0b27983c50	4	1	DL_test	23	DL_test	16	stimuli_target_squarediamonds.svg	stimuli_distractor_trianglediamonds.svg	4	yes	da	1	1457	6	2	antiphase_hc_ios.wav	3	6	5	noise_calib_stim_RIGHT.wav	2	26	blb_dichoticlistening_pa-da.mp3	pa	da	1	right
6.6.1	mac	2023-07-07	17:45:36	17:55:28	589073	5e9b9eaee0e30b0b27983c50	4	1	DL_test	23	DL_test	17	stimuli_target_squarediamonds.svg	stimuli_distractor_trianglediamonds.svg	4	yes	ga	1	874	6	2	antiphase_hc_ios.wav	3	6	5	noise_calib_stim_RIGHT.wav	2	27	blb_dichoticlistening_pa-ga.mp3	pa	ga	1	right
6.6.1	mac	2023-07-07	17:45:36	17:55:28	589073	5e9b9eaee0e30b0b27983c50	4	1	DL_test	23	DL_test	18	stimuli_target_squarediamonds.svg	stimuli_distractor_trianglediamonds.svg	4	yes	da	1	1024	6	2	antiphase_hc_ios.wav	3	6	5	noise_calib_stim_RIGHT.wav	2	2	blb_dichoticlistening_ba-da.mp3	ba	da	1	right
6.6.1	mac	2023-07-07	17:45:36	17:55:28	589073	5e9b9eaee0e30b0b27983c50	4	1	DL_test	23	DL_test	19	stimuli_target_squarediamonds.svg	stimuli_distractor_trianglediamonds.svg	4	yes	ba	1	1224	6	2	antiphase_hc_ios.wav	3	6	5	noise_calib_stim_RIGHT.wav	2	19	blb_dichoticlistening_ka-ba.mp3	ka	ba	1	right
6.6.1	mac	2023-07-07	17:45:36	17:55:28	589073	5e9b9eaee0e30b0b27983c50	4	1	DL_test	23	DL_test	20	stimuli_target_squarediamonds.svg	stimuli_distractor_trianglediamonds.svg	4	yes	ba	1	1241	6	2	antiphase_hc_ios.wav	3	6	5	noise_calib_stim_RIGHT.wav	2	7	blb_dichoticlistening_da-ba.mp3	da	ba	1	right
6.6.1	mac	2023-07-07	17:45:36	17:55:28	589073	5e9b9eaee0e30b0b27983c50	4	1	DL_test	23	DL_test	21	stimuli_target_squarediamonds.svg	stimuli_distractor_trianglediamonds.svg	4	yes	ta	1	1274	6	2	antiphase_hc_ios.wav	3	6	5	noise_calib_stim_RIGHT.wav	2	30	blb_dichoticlistening_pa-ta.mp3	pa	ta	1	right
6.6.1	mac	2023-07-07	17:45:36	17:55:28	589073	5e9b9eaee0e30b0b27983c50	4	1	DL_test	23	DL_test	22	stimuli_target_squarediamonds.svg	stimuli_distractor_trianglediamonds.svg	4	yes	ga	1	874	6	2	antiphase_hc_ios.wav	3	6	5	noise_calib_stim_RIGHT.wav	2	15	blb_dichoticlistening_ga-ga.mp3	ga	ga	0	left
6.6.1	mac	2023-07-07	17:45:36	17:55:28	589073	5e9b9eaee0e30b0b27983c50	4	1	DL_test	23	DL_test	23	stimuli_target_squarediamonds.svg	stimuli_distractor_trianglediamonds.svg	4	yes	ka	1	1124	6	2	antiphase_hc_ios.wav	3	6	5	noise_calib_stim_RIGHT.wav	2	4	blb_dichoticlistening_ba-ka.mp3	ba	ka	1	right
6.6.1	mac	2023-07-07	17:45:36	17:55:28	589073	5e9b9eaee0e30b0b27983c50	4	1	DL_test	23	DL_test	24	stimuli_target_squarediamonds.svg	stimuli_distractor_trianglediamonds.svg	4	yes	pa	1	1490	6	2	antiphase_hc_ios.wav	3	6	5	noise_calib_stim_RIGHT.wav	2	35	blb_dichoticlistening_ta-pa.mp3	ta	pa	1	right
6.6.1	mac	2023-07-07	17:45:36	17:55:28	589073	5e9b9eaee0e30b0b27983c50	4	1	DL_test	23	DL_test	25	stimuli_target_squarediamonds.svg	stimuli_distractor_trianglediamonds.svg	4	yes	ga	1	1041	6	2	antiphase_hc_ios.wav	3	6	5	noise_calib_stim_RIGHT.wav	2	33	blb_dichoticlistening_ta-ga.mp3	ta	ga	1	right
6.6.1	mac	2023-07-07	17:45:36	17:55:28	589073	5e9b9eaee0e30b0b27983c50	4	1	DL_test	23	DL_test	26	stimuli_target_squarediamonds.svg	stimuli_distractor_trianglediamonds.svg	4	yes	pa	0	1007	6	2	antiphase_hc_ios.wav	3	6	5	noise_calib_stim_RIGHT.wav	2	10	blb_dichoticlistening_da-ka.mp3	da	ka	1	other
