build	computer.platform	date	time	timestamp	time_elapsed_ms	subject	group	session	blockcode	blocknum	trialcode	trialnum	stimulus_left	stimulus_right	stim_index	target_present	response	correct	latency	headphonecheck_countTestTrials	headphonecheck_index	headphonecheck_testSound	headphonecheck_correctResponse	stereocheck_countTestTrials	stereocheck_index	stereocheck_testSound	stereocheck_correctResponse	DL_index	DL_soundfile	DL_leftSound	DL_rightSound	DL_dualSound	DL_choice
6.6.1	mac	2023-07-07	05:36:20	05:38:45	142920	5e5291ff6c3d7d2a79ec869e	3	1	practice_slash	5	practice_slash	1	stimuli_distractor_diamondtriangles.svg	stimuli_distractor_diamondtriangles.svg	13	no	53	0	1904	0	0			0	0			1				0	
6.6.1	mac	2023-07-07	05:36:20	05:38:45	142920	5e5291ff6c3d7d2a79ec869e	3	1	practice_slash	5	advance_on_keypress_SLASH	2	stimuli_distractor_diamondtriangles.svg	stimuli_distractor_diamondtriangles.svg	13	no	57	0	3454	0	0			0	0			1				0	
6.6.1	mac	2023-07-07	05:36:20	05:38:52	149542	5e5291ff6c3d7d2a79ec869e	3	1	practice_slash	5	practice_slash	3	stimuli_distractor_trianglediamonds.svg	stimuli_target_diamondrectangles.svg	12	yes	53	1	1546	0	0			0	0			1				0	
6.6.1	mac	2023-07-07	05:36:20	05:38:52	149542	5e5291ff6c3d7d2a79ec869e	3	1	practice_slash	5	advance_on_keypress_SLASH	4	stimuli_distractor_trianglediamonds.svg	stimuli_target_diamondrectangles.svg	12	yes	57	0	796	0	0			0	0			1				0	
6.6.1	mac	2023-07-07	05:36:20	05:38:55	152887	5e5291ff6c3d7d2a79ec869e	3	1	practice_slash	5	practice_slash	5	stimuli_target_squarediamonds.svg	stimuli_distractor_diamondtriangles.svg	2	yes	53	1	909	0	0			0	0			1				0	
6.6.1	mac	2023-07-07	05:36:20	05:38:55	152887	5e5291ff6c3d7d2a79ec869e	3	1	practice_slash	5	advance_on_keypress_SLASH	6	stimuli_target_squarediamonds.svg	stimuli_distractor_diamondtriangles.svg	2	yes	57	0	539	0	0			0	0			1				0	
6.6.1	mac	2023-07-07	05:36:20	05:38:58	156143	5e5291ff6c3d7d2a79ec869e	3	1	practice_slash	5	practice_slash	7	stimuli_target_diamondsquares.svg	stimuli_distractor_diamondtriangles.svg	3	yes	53	1	1096	0	0			0	0			1				0	
6.6.1	mac	2023-07-07	05:36:20	05:38:58	156143	5e5291ff6c3d7d2a79ec869e	3	1	practice_slash	5	advance_on_keypress_SLASH	8	stimuli_target_diamondsquares.svg	stimuli_distractor_diamondtriangles.svg	3	yes	57	0	658	0	0			0	0			1				0	
6.6.1	mac	2023-07-07	05:36:20	05:39:03	160429	5e5291ff6c3d7d2a79ec869e	3	1	practice_slash	5	practice_slash	9	stimuli_distractor_trianglediamonds.svg	stimuli_distractor_trianglediamonds.svg	15	no	0	1	2000	0	0			0	0			1				0	
6.6.1	mac	2023-07-07	05:36:20	05:39:03	160429	5e5291ff6c3d7d2a79ec869e	3	1	practice_slash	5	advance_on_keypress_SLASH	10	stimuli_distractor_trianglediamonds.svg	stimuli_distractor_trianglediamonds.svg	15	no	57	0	535	0	0			0	0			1				0	
6.6.1	mac	2023-07-07	05:36:20	05:39:06	163615	5e5291ff6c3d7d2a79ec869e	3	1	practice_slash	5	practice_slash	11	stimuli_distractor_diamondtriangles.svg	stimuli_target_trianglerectangles.svg	9	yes	53	1	1019	0	0			0	0			1				0	
6.6.1	mac	2023-07-07	05:36:20	05:39:06	163615	5e5291ff6c3d7d2a79ec869e	3	1	practice_slash	5	advance_on_keypress_SLASH	12	stimuli_distractor_diamondtriangles.svg	stimuli_target_trianglerectangles.svg	9	yes	57	0	526	0	0			0	0			1				0	
6.6.1	mac	2023-07-07	05:36:20	05:39:09	166704	5e5291ff6c3d7d2a79ec869e	3	1	practice_slash	5	practice_slash	13	stimuli_target_diamondsquares.svg	stimuli_distractor_trianglediamonds.svg	6	yes	53	1	941	0	0			0	0			1				0	
6.6.1	mac	2023-07-07	05:36:20	05:39:09	166704	5e5291ff6c3d7d2a79ec869e	3	1	practice_slash	5	advance_on_keypress_SLASH	14	stimuli_target_diamondsquares.svg	stimuli_distractor_trianglediamonds.svg	6	yes	57	0	467	0	0			0	0			1				0	
6.6.1	mac	2023-07-07	05:36:20	05:39:12	169772	5e5291ff6c3d7d2a79ec869e	3	1	practice_slash	5	practice_slash	15	stimuli_distractor_trianglediamonds.svg	stimuli_target_squarediamonds.svg	11	yes	53	1	974	0	0			0	0			1				0	
6.6.1	mac	2023-07-07	05:36:20	05:39:12	169772	5e5291ff6c3d7d2a79ec869e	3	1	practice_slash	5	advance_on_keypress_SLASH	16	stimuli_distractor_trianglediamonds.svg	stimuli_target_squarediamonds.svg	11	yes	57	0	414	0	0			0	0			1				0	
6.6.1	mac	2023-07-07	05:36:20	05:39:15	172754	5e5291ff6c3d7d2a79ec869e	3	1	practice_slash	5	practice_slash	17	stimuli_target_squarediamonds.svg	stimuli_distractor_trianglediamonds.svg	5	yes	53	1	940	0	0			0	0			1				0	
6.6.1	mac	2023-07-07	05:36:20	05:39:15	172754	5e5291ff6c3d7d2a79ec869e	3	1	practice_slash	5	advance_on_keypress_SLASH	18	stimuli_target_squarediamonds.svg	stimuli_distractor_trianglediamonds.svg	5	yes	57	0	450	0	0			0	0			1				0	
6.6.1	mac	2023-07-07	05:36:20	05:39:19	176828	5e5291ff6c3d7d2a79ec869e	3	1	practice_slash	5	practice_slash	19	stimuli_distractor_trianglediamonds.svg	stimuli_distractor_diamondtriangles.svg	16	no	0	1	2000	0	0			0	0			1				0	
6.6.1	mac	2023-07-07	05:36:20	05:39:19	176828	5e5291ff6c3d7d2a79ec869e	3	1	practice_slash	5	advance_on_keypress_SLASH	20	stimuli_distractor_trianglediamonds.svg	stimuli_distractor_diamondtriangles.svg	16	no	57	0	649	0	0			0	0			1				0	
6.6.1	mac	2023-07-07	05:36:20	05:39:23	181119	5e5291ff6c3d7d2a79ec869e	3	1	practice_slash	5	practice_slash	21	stimuli_distractor_diamondtriangles.svg	stimuli_distractor_trianglediamonds.svg	14	no	0	1	2000	0	0			0	0			1				0	
6.6.1	mac	2023-07-07	05:36:20	05:39:23	181119	5e5291ff6c3d7d2a79ec869e	3	1	practice_slash	5	advance_on_keypress_SLASH	22	stimuli_distractor_diamondtriangles.svg	stimuli_distractor_trianglediamonds.svg	14	no	57	0	457	0	0			0	0			1				0	
6.6.1	mac	2023-07-07	05:36:20	05:39:26	184060	5e5291ff6c3d7d2a79ec869e	3	1	practice_slash	5	practice_slash	23	stimuli_target_rectanglediamonds.svg	stimuli_distractor_diamondtriangles.svg	1	yes	53	1	864	0	0			0	0			1				0	
6.6.1	mac	2023-07-07	05:36:20	05:39:26	184060	5e5291ff6c3d7d2a79ec869e	3	1	practice_slash	5	advance_on_keypress_SLASH	24	stimuli_target_rectanglediamonds.svg	stimuli_distractor_diamondtriangles.svg	1	yes	57	0	493	0	0			0	0			1				0	
6.6.1	mac	2023-07-07	05:36:20	05:39:29	186986	5e5291ff6c3d7d2a79ec869e	3	1	practice_slash	5	practice_slash	25	stimuli_target_rectanglediamonds.svg	stimuli_distractor_trianglediamonds.svg	4	yes	53	1	806	0	0			0	0			1				0	
6.6.1	mac	2023-07-07	05:36:20	05:39:29	186986	5e5291ff6c3d7d2a79ec869e	3	1	practice_slash	5	advance_on_keypress_SLASH	26	stimuli_target_rectanglediamonds.svg	stimuli_distractor_trianglediamonds.svg	4	yes	57	0	490	0	0			0	0			1				0	
6.6.1	mac	2023-07-07	05:36:20	05:39:32	189921	5e5291ff6c3d7d2a79ec869e	3	1	practice_slash	5	practice_slash	27	stimuli_distractor_diamondtriangles.svg	stimuli_target_rectangletriangles.svg	7	yes	53	1	825	0	0			0	0			1				0	
6.6.1	mac	2023-07-07	05:36:20	05:39:32	189921	5e5291ff6c3d7d2a79ec869e	3	1	practice_slash	5	advance_on_keypress_SLASH	28	stimuli_distractor_diamondtriangles.svg	stimuli_target_rectangletriangles.svg	7	yes	57	0	449	0	0			0	0			1				0	
6.6.1	mac	2023-07-07	05:36:20	05:39:35	192817	5e5291ff6c3d7d2a79ec869e	3	1	practice_slash	5	practice_slash	29	stimuli_distractor_trianglediamonds.svg	stimuli_target_rectanglediamonds.svg	10	yes	53	1	821	0	0			0	0			1				0	
6.6.1	mac	2023-07-07	05:36:20	05:39:35	192817	5e5291ff6c3d7d2a79ec869e	3	1	practice_slash	5	advance_on_keypress_SLASH	30	stimuli_distractor_trianglediamonds.svg	stimuli_target_rectanglediamonds.svg	10	yes	57	0	536	0	0			0	0			1				0	
6.6.1	mac	2023-07-07	05:36:20	05:39:38	196112	5e5291ff6c3d7d2a79ec869e	3	1	practice_slash	5	practice_slash	31	stimuli_distractor_diamondtriangles.svg	stimuli_target_diamondrectangles.svg	8	yes	53	1	1133	0	0			0	0			1				0	
6.6.1	mac	2023-07-07	05:36:20	05:39:38	196112	5e5291ff6c3d7d2a79ec869e	3	1	practice_slash	5	advance_on_keypress_SLASH	32	stimuli_distractor_diamondtriangles.svg	stimuli_target_diamondrectangles.svg	8	yes	57	0	551	0	0			0	0			1				0	
6.6.1	mac	2023-07-07	05:36:20	05:40:59	276976	5e5291ff6c3d7d2a79ec869e	3	1	main_slash	7	main_slash	1	stimuli_target_rectanglediamonds.svg	stimuli_distractor_trianglediamonds.svg	2	yes	53	1	795	0	0			0	0			1				0	
6.6.1	mac	2023-07-07	05:36:20	05:40:59	276976	5e5291ff6c3d7d2a79ec869e	3	1	main_slash	7	advance_on_keypress_SLASH	2	stimuli_target_rectanglediamonds.svg	stimuli_distractor_trianglediamonds.svg	2	yes	57	0	1044	0	0			0	0			1				0	
6.6.1	mac	2023-07-07	05:36:20	05:41:02	280080	5e5291ff6c3d7d2a79ec869e	3	1	main_slash	7	main_slash	3	stimuli_distractor_trianglediamonds.svg	stimuli_target_diamondsquares.svg	28	yes	53	1	1434	0	0			0	0			1				0	
6.6.1	mac	2023-07-07	05:36:20	05:41:02	280080	5e5291ff6c3d7d2a79ec869e	3	1	main_slash	7	advance_on_keypress_SLASH	4	stimuli_distractor_trianglediamonds.svg	stimuli_target_diamondsquares.svg	28	yes	57	0	1053	0	0			0	0			1				0	
6.6.1	mac	2023-07-07	05:36:20	05:41:05	282638	5e5291ff6c3d7d2a79ec869e	3	1	main_slash	7	main_slash	5	stimuli_target_squarediamonds.svg	stimuli_distractor_diamondtriangles.svg	8	yes	53	1	875	0	0			0	0			1				0	
6.6.1	mac	2023-07-07	05:36:20	05:41:05	282638	5e5291ff6c3d7d2a79ec869e	3	1	main_slash	7	advance_on_keypress_SLASH	6	stimuli_target_squarediamonds.svg	stimuli_distractor_diamondtriangles.svg	8	yes	57	0	416	0	0			0	0			1				0	
6.6.1	mac	2023-07-07	05:36:20	05:41:07	284671	5e5291ff6c3d7d2a79ec869e	3	1	main_slash	7	main_slash	7	stimuli_distractor_diamondtriangles.svg	stimuli_target_trianglesquares.svg	30	yes	53	1	991	0	0			0	0			1				0	
6.6.1	mac	2023-07-07	05:36:20	05:41:07	284671	5e5291ff6c3d7d2a79ec869e	3	1	main_slash	7	advance_on_keypress_SLASH	8	stimuli_distractor_diamondtriangles.svg	stimuli_target_trianglesquares.svg	30	yes	57	0	354	0	0			0	0			1				0	
6.6.1	mac	2023-07-07	05:36:20	05:41:09	286528	5e5291ff6c3d7d2a79ec869e	3	1	main_slash	7	main_slash	9	stimuli_target_squarediamonds.svg	stimuli_distractor_trianglediamonds.svg	4	yes	53	1	882	0	0			0	0			1				0	
6.6.1	mac	2023-07-07	05:36:20	05:41:09	286528	5e5291ff6c3d7d2a79ec869e	3	1	main_slash	7	advance_on_keypress_SLASH	10	stimuli_target_squarediamonds.svg	stimuli_distractor_trianglediamonds.svg	4	yes	57	0	368	0	0			0	0			1				0	
6.6.1	mac	2023-07-07	05:36:20	05:41:12	289528	5e5291ff6c3d7d2a79ec869e	3	1	main_slash	7	main_slash	11	stimuli_distractor_diamondtriangles.svg	stimuli_distractor_trianglediamonds.svg	38	no	0	1	2000	0	0			0	0			1				0	
6.6.1	mac	2023-07-07	05:36:20	05:41:12	289528	5e5291ff6c3d7d2a79ec869e	3	1	main_slash	7	advance_on_keypress_SLASH	12	stimuli_distractor_diamondtriangles.svg	stimuli_distractor_trianglediamonds.svg	38	no	57	0	452	0	0			0	0			1				0	
6.6.1	mac	2023-07-07	05:36:20	05:41:15	292611	5e5291ff6c3d7d2a79ec869e	3	1	main_slash	7	main_slash	13	stimuli_distractor_diamondtriangles.svg	stimuli_distractor_diamondtriangles.svg	39	no	0	1	2000	0	0			0	0			1				0	
6.6.1	mac	2023-07-07	05:36:20	05:41:15	292611	5e5291ff6c3d7d2a79ec869e	3	1	main_slash	7	advance_on_keypress_SLASH	14	stimuli_distractor_diamondtriangles.svg	stimuli_distractor_diamondtriangles.svg	39	no	57	0	453	0	0			0	0			1				0	
6.6.1	mac	2023-07-07	05:36:20	05:41:17	294742	5e5291ff6c3d7d2a79ec869e	3	1	main_slash	7	main_slash	15	stimuli_target_diamondrectangles.svg	stimuli_distractor_trianglediamonds.svg	19	yes	53	1	1046	0	0			0	0			1				0	
6.6.1	mac	2023-07-07	05:36:20	05:41:17	294742	5e5291ff6c3d7d2a79ec869e	3	1	main_slash	7	advance_on_keypress_SLASH	16	stimuli_target_diamondrectangles.svg	stimuli_distractor_trianglediamonds.svg	19	yes	57	0	787	0	0			0	0			1				0	
6.6.1	mac	2023-07-07	05:36:20	05:41:19	296917	5e5291ff6c3d7d2a79ec869e	3	1	main_slash	7	main_slash	17	stimuli_target_rectangletriangles.svg	stimuli_distractor_diamondtriangles.svg	5	yes	53	1	755	0	0			0	0			1				0	
6.6.1	mac	2023-07-07	05:36:20	05:41:19	296917	5e5291ff6c3d7d2a79ec869e	3	1	main_slash	7	advance_on_keypress_SLASH	18	stimuli_target_rectangletriangles.svg	stimuli_distractor_diamondtriangles.svg	5	yes	57	0	359	0	0			0	0			1				0	
6.6.1	mac	2023-07-07	05:36:20	05:41:22	299895	5e5291ff6c3d7d2a79ec869e	3	1	main_slash	7	main_slash	19	stimuli_distractor_trianglediamonds.svg	stimuli_distractor_diamondtriangles.svg	35	no	0	1	2000	0	0			0	0			1				0	
6.6.1	mac	2023-07-07	05:36:20	05:41:22	299895	5e5291ff6c3d7d2a79ec869e	3	1	main_slash	7	advance_on_keypress_SLASH	20	stimuli_distractor_trianglediamonds.svg	stimuli_distractor_diamondtriangles.svg	35	no	57	0	657	0	0			0	0			1				0	
6.6.1	mac	2023-07-07	05:36:20	05:41:25	303069	5e5291ff6c3d7d2a79ec869e	3	1	main_slash	7	main_slash	21	stimuli_target_trianglerectangles.svg	stimuli_distractor_diamondtriangles.svg	21	yes	53	1	1889	0	0			0	0			1				0	
6.6.1	mac	2023-07-07	05:36:20	05:41:25	303069	5e5291ff6c3d7d2a79ec869e	3	1	main_slash	7	advance_on_keypress_SLASH	22	stimuli_target_trianglerectangles.svg	stimuli_distractor_diamondtriangles.svg	21	yes	57	0	556	0	0			0	0			1				0	
6.6.1	mac	2023-07-07	05:36:20	05:41:27	305130	5e5291ff6c3d7d2a79ec869e	3	1	main_slash	7	main_slash	23	stimuli_target_rectangletriangles.svg	stimuli_distractor_trianglediamonds.svg	1	yes	53	1	885	0	0			0	0			1				0	
6.6.1	mac	2023-07-07	05:36:20	05:41:27	305130	5e5291ff6c3d7d2a79ec869e	3	1	main_slash	7	advance_on_keypress_SLASH	24	stimuli_target_rectangletriangles.svg	stimuli_distractor_trianglediamonds.svg	1	yes	57	0	411	0	0			0	0			1				0	
6.6.1	mac	2023-07-07	05:36:20	05:41:30	307325	5e5291ff6c3d7d2a79ec869e	3	1	main_slash	7	main_slash	25	stimuli_target_trianglesquares.svg	stimuli_distractor_diamondtriangles.svg	22	yes	53	1	1163	0	0			0	0			1				0	
6.6.1	mac	2023-07-07	05:36:20	05:41:30	307325	5e5291ff6c3d7d2a79ec869e	3	1	main_slash	7	advance_on_keypress_SLASH	26	stimuli_target_trianglesquares.svg	stimuli_distractor_diamondtriangles.svg	22	yes	57	0	398	0	0			0	0			1				0	
6.6.1	mac	2023-07-07	05:36:20	05:41:32	309853	5e5291ff6c3d7d2a79ec869e	3	1	main_slash	7	main_slash	27	stimuli_target_diamondsquares.svg	stimuli_distractor_diamondtriangles.svg	24	yes	53	1	1490	0	0			0	0			1				0	
6.6.1	mac	2023-07-07	05:36:20	05:41:32	309853	5e5291ff6c3d7d2a79ec869e	3	1	main_slash	7	advance_on_keypress_SLASH	28	stimuli_target_diamondsquares.svg	stimuli_distractor_diamondtriangles.svg	24	yes	57	0	408	0	0			0	0			1				0	
6.6.1	mac	2023-07-07	05:36:20	05:41:34	311734	5e5291ff6c3d7d2a79ec869e	3	1	main_slash	7	main_slash	29	stimuli_distractor_trianglediamonds.svg	stimuli_target_rectangletriangles.svg	9	yes	53	1	855	0	0			0	0			1				0	
6.6.1	mac	2023-07-07	05:36:20	05:41:34	311734	5e5291ff6c3d7d2a79ec869e	3	1	main_slash	7	advance_on_keypress_SLASH	30	stimuli_distractor_trianglediamonds.svg	stimuli_target_rectangletriangles.svg	9	yes	57	0	399	0	0			0	0			1				0	
6.6.1	mac	2023-07-07	05:36:20	05:41:36	313605	5e5291ff6c3d7d2a79ec869e	3	1	main_slash	7	main_slash	31	stimuli_distractor_diamondtriangles.svg	stimuli_target_squarediamonds.svg	16	yes	53	1	842	0	0			0	0			1				0	
6.6.1	mac	2023-07-07	05:36:20	05:41:36	313605	5e5291ff6c3d7d2a79ec869e	3	1	main_slash	7	advance_on_keypress_SLASH	32	stimuli_distractor_diamondtriangles.svg	stimuli_target_squarediamonds.svg	16	yes	57	0	647	0	0			0	0			1				0	
6.6.1	mac	2023-07-07	05:36:20	05:41:38	315778	5e5291ff6c3d7d2a79ec869e	3	1	main_slash	7	main_slash	33	stimuli_distractor_trianglediamonds.svg	stimuli_target_trianglesquares.svg	26	yes	53	1	899	0	0			0	0			1				0	
6.6.1	mac	2023-07-07	05:36:20	05:41:38	315778	5e5291ff6c3d7d2a79ec869e	3	1	main_slash	7	advance_on_keypress_SLASH	34	stimuli_distractor_trianglediamonds.svg	stimuli_target_trianglesquares.svg	26	yes	57	0	844	0	0			0	0			1				0	
6.6.1	mac	2023-07-07	05:36:20	05:41:41	319245	5e5291ff6c3d7d2a79ec869e	3	1	main_slash	7	main_slash	35	stimuli_distractor_trianglediamonds.svg	stimuli_distractor_diamondtriangles.svg	36	no	0	1	2000	0	0			0	0			1				0	
6.6.1	mac	2023-07-07	05:36:20	05:41:41	319245	5e5291ff6c3d7d2a79ec869e	3	1	main_slash	7	advance_on_keypress_SLASH	36	stimuli_distractor_trianglediamonds.svg	stimuli_distractor_diamondtriangles.svg	36	no	57	0	523	0	0			0	0			1				0	
6.6.1	mac	2023-07-07	05:36:20	05:41:44	321341	5e5291ff6c3d7d2a79ec869e	3	1	main_slash	7	main_slash	37	stimuli_distractor_trianglediamonds.svg	stimuli_target_diamondrectangles.svg	27	yes	53	1	946	0	0			0	0			1				0	
6.6.1	mac	2023-07-07	05:36:20	05:41:44	321341	5e5291ff6c3d7d2a79ec869e	3	1	main_slash	7	advance_on_keypress_SLASH	38	stimuli_distractor_trianglediamonds.svg	stimuli_target_diamondrectangles.svg	27	yes	57	0	484	0	0			0	0			1				0	
6.6.1	mac	2023-07-07	05:36:20	05:41:46	323273	5e5291ff6c3d7d2a79ec869e	3	1	main_slash	7	main_slash	39	stimuli_distractor_diamondtriangles.svg	stimuli_target_trianglerectangles.svg	29	yes	53	1	811	0	0			0	0			1				0	
6.6.1	mac	2023-07-07	05:36:20	05:41:46	323273	5e5291ff6c3d7d2a79ec869e	3	1	main_slash	7	advance_on_keypress_SLASH	40	stimuli_distractor_diamondtriangles.svg	stimuli_target_trianglerectangles.svg	29	yes	57	0	656	0	0			0	0			1				0	
6.6.1	mac	2023-07-07	05:36:20	05:41:49	326545	5e5291ff6c3d7d2a79ec869e	3	1	main_slash	7	main_slash	41	stimuli_distractor_trianglediamonds.svg	stimuli_distractor_trianglediamonds.svg	33	no	0	1	2000	0	0			0	0			1				0	
6.6.1	mac	2023-07-07	05:36:20	05:41:49	326545	5e5291ff6c3d7d2a79ec869e	3	1	main_slash	7	advance_on_keypress_SLASH	42	stimuli_distractor_trianglediamonds.svg	stimuli_distractor_trianglediamonds.svg	33	no	57	0	344	0	0			0	0			1				0	
6.6.1	mac	2023-07-07	05:36:20	05:41:51	328366	5e5291ff6c3d7d2a79ec869e	3	1	main_slash	7	main_slash	43	stimuli_distractor_diamondtriangles.svg	stimuli_target_squaretriangles.svg	15	yes	53	1	838	0	0			0	0			1				0	
6.6.1	mac	2023-07-07	05:36:20	05:41:51	328366	5e5291ff6c3d7d2a79ec869e	3	1	main_slash	7	advance_on_keypress_SLASH	44	stimuli_distractor_diamondtriangles.svg	stimuli_target_squaretriangles.svg	15	yes	57	0	653	0	0			0	0			1				0	
6.6.1	mac	2023-07-07	05:36:20	05:41:53	330573	5e5291ff6c3d7d2a79ec869e	3	1	main_slash	7	main_slash	45	stimuli_distractor_diamondtriangles.svg	stimuli_target_rectangletriangles.svg	13	yes	53	1	928	0	0			0	0			1				0	
6.6.1	mac	2023-07-07	05:36:20	05:41:53	330573	5e5291ff6c3d7d2a79ec869e	3	1	main_slash	7	advance_on_keypress_SLASH	46	stimuli_distractor_diamondtriangles.svg	stimuli_target_rectangletriangles.svg	13	yes	57	0	607	0	0			0	0			1				0	
6.6.1	mac	2023-07-07	05:36:20	05:41:56	333794	5e5291ff6c3d7d2a79ec869e	3	1	main_slash	7	main_slash	47	stimuli_target_trianglerectangles.svg	stimuli_distractor_trianglediamonds.svg	17	yes	0	0	2000	0	0			0	0			1				0	
6.6.1	mac	2023-07-07	05:36:20	05:41:56	333794	5e5291ff6c3d7d2a79ec869e	3	1	main_slash	7	advance_on_keypress_SLASH	48	stimuli_target_trianglerectangles.svg	stimuli_distractor_trianglediamonds.svg	17	yes	57	0	521	0	0			0	0			1				0	
6.6.1	mac	2023-07-07	05:36:20	05:41:58	336102	5e5291ff6c3d7d2a79ec869e	3	1	main_slash	7	main_slash	49	stimuli_distractor_diamondtriangles.svg	stimuli_target_diamondsquares.svg	32	yes	53	1	1157	0	0			0	0			1				0	
6.6.1	mac	2023-07-07	05:36:20	05:41:58	336102	5e5291ff6c3d7d2a79ec869e	3	1	main_slash	7	advance_on_keypress_SLASH	50	stimuli_distractor_diamondtriangles.svg	stimuli_target_diamondsquares.svg	32	yes	57	0	536	0	0			0	0			1				0	
6.6.1	mac	2023-07-07	05:36:20	05:42:00	338205	5e5291ff6c3d7d2a79ec869e	3	1	main_slash	7	main_slash	51	stimuli_target_rectanglediamonds.svg	stimuli_distractor_diamondtriangles.svg	6	yes	53	1	943	0	0			0	0			1				0	
6.6.1	mac	2023-07-07	05:36:20	05:42:00	338205	5e5291ff6c3d7d2a79ec869e	3	1	main_slash	7	advance_on_keypress_SLASH	52	stimuli_target_rectanglediamonds.svg	stimuli_distractor_diamondtriangles.svg	6	yes	57	0	565	0	0			0	0			1				0	
6.6.1	mac	2023-07-07	05:36:20	05:42:03	340923	5e5291ff6c3d7d2a79ec869e	3	1	main_slash	7	main_slash	53	stimuli_target_trianglesquares.svg	stimuli_distractor_trianglediamonds.svg	18	yes	53	1	1527	0	0			0	0			1				0	
6.6.1	mac	2023-07-07	05:36:20	05:42:03	340923	5e5291ff6c3d7d2a79ec869e	3	1	main_slash	7	advance_on_keypress_SLASH	54	stimuli_target_trianglesquares.svg	stimuli_distractor_trianglediamonds.svg	18	yes	57	0	549	0	0			0	0			1				0	
6.6.1	mac	2023-07-07	05:36:20	05:42:05	343040	5e5291ff6c3d7d2a79ec869e	3	1	main_slash	7	main_slash	55	stimuli_distractor_diamondtriangles.svg	stimuli_target_diamondrectangles.svg	31	yes	53	1	945	0	0			0	0			1				0	
6.6.1	mac	2023-07-07	05:36:20	05:42:05	343040	5e5291ff6c3d7d2a79ec869e	3	1	main_slash	7	advance_on_keypress_SLASH	56	stimuli_distractor_diamondtriangles.svg	stimuli_target_diamondrectangles.svg	31	yes	57	0	399	0	0			0	0			1				0	
6.6.1	mac	2023-07-07	05:36:20	05:42:07	345116	5e5291ff6c3d7d2a79ec869e	3	1	main_slash	7	main_slash	57	stimuli_distractor_trianglediamonds.svg	stimuli_target_rectanglediamonds.svg	10	yes	53	1	1052	0	0			0	0			1				0	
6.6.1	mac	2023-07-07	05:36:20	05:42:07	345116	5e5291ff6c3d7d2a79ec869e	3	1	main_slash	7	advance_on_keypress_SLASH	58	stimuli_distractor_trianglediamonds.svg	stimuli_target_rectanglediamonds.svg	10	yes	57	0	752	0	0			0	0			1				0	
6.6.1	mac	2023-07-07	05:36:20	05:42:11	348495	5e5291ff6c3d7d2a79ec869e	3	1	main_slash	7	main_slash	59	stimuli_distractor_trianglediamonds.svg	stimuli_target_trianglerectangles.svg	25	yes	0	0	2000	0	0			0	0			1				0	
6.6.1	mac	2023-07-07	05:36:20	05:42:11	348495	5e5291ff6c3d7d2a79ec869e	3	1	main_slash	7	advance_on_keypress_SLASH	60	stimuli_distractor_trianglediamonds.svg	stimuli_target_trianglerectangles.svg	25	yes	57	0	531	0	0			0	0			1				0	
6.6.1	mac	2023-07-07	05:36:20	05:42:13	350657	5e5291ff6c3d7d2a79ec869e	3	1	main_slash	7	main_slash	61	stimuli_distractor_trianglediamonds.svg	stimuli_target_squaretriangles.svg	11	yes	53	1	997	0	0			0	0			1				0	
6.6.1	mac	2023-07-07	05:36:20	05:42:13	350657	5e5291ff6c3d7d2a79ec869e	3	1	main_slash	7	advance_on_keypress_SLASH	62	stimuli_distractor_trianglediamonds.svg	stimuli_target_squaretriangles.svg	11	yes	57	0	557	0	0			0	0			1				0	
6.6.1	mac	2023-07-07	05:36:20	05:42:15	352751	5e5291ff6c3d7d2a79ec869e	3	1	main_slash	7	main_slash	63	stimuli_target_squaretriangles.svg	stimuli_distractor_trianglediamonds.svg	3	yes	53	1	923	0	0			0	0			1				0	
6.6.1	mac	2023-07-07	05:36:20	05:42:15	352751	5e5291ff6c3d7d2a79ec869e	3	1	main_slash	7	advance_on_keypress_SLASH	64	stimuli_target_squaretriangles.svg	stimuli_distractor_trianglediamonds.svg	3	yes	57	0	565	0	0			0	0			1				0	
6.6.1	mac	2023-07-07	05:36:20	05:42:17	354942	5e5291ff6c3d7d2a79ec869e	3	1	main_slash	7	main_slash	65	stimuli_distractor_diamondtriangles.svg	stimuli_target_rectanglediamonds.svg	14	yes	53	1	995	0	0			0	0			1				0	
6.6.1	mac	2023-07-07	05:36:20	05:42:17	354942	5e5291ff6c3d7d2a79ec869e	3	1	main_slash	7	advance_on_keypress_SLASH	66	stimuli_distractor_diamondtriangles.svg	stimuli_target_rectanglediamonds.svg	14	yes	57	0	783	0	0			0	0			1				0	
6.6.1	mac	2023-07-07	05:36:20	05:42:21	358362	5e5291ff6c3d7d2a79ec869e	3	1	main_slash	7	main_slash	67	stimuli_distractor_diamondtriangles.svg	stimuli_distractor_diamondtriangles.svg	40	no	0	1	2000	0	0			0	0			1				0	
6.6.1	mac	2023-07-07	05:36:20	05:42:21	358362	5e5291ff6c3d7d2a79ec869e	3	1	main_slash	7	advance_on_keypress_SLASH	68	stimuli_distractor_diamondtriangles.svg	stimuli_distractor_diamondtriangles.svg	40	no	57	0	506	0	0			0	0			1				0	
6.6.1	mac	2023-07-07	05:36:20	05:42:23	360507	5e5291ff6c3d7d2a79ec869e	3	1	main_slash	7	main_slash	69	stimuli_target_diamondsquares.svg	stimuli_distractor_trianglediamonds.svg	20	yes	53	1	1012	0	0			0	0			1				0	
6.6.1	mac	2023-07-07	05:36:20	05:42:23	360507	5e5291ff6c3d7d2a79ec869e	3	1	main_slash	7	advance_on_keypress_SLASH	70	stimuli_target_diamondsquares.svg	stimuli_distractor_trianglediamonds.svg	20	yes	57	0	688	0	0			0	0			1				0	
6.6.1	mac	2023-07-07	05:36:20	05:42:26	363811	5e5291ff6c3d7d2a79ec869e	3	1	main_slash	7	main_slash	71	stimuli_distractor_diamondtriangles.svg	stimuli_distractor_trianglediamonds.svg	37	no	0	1	2000	0	0			0	0			1				0	
6.6.1	mac	2023-07-07	05:36:20	05:42:26	363811	5e5291ff6c3d7d2a79ec869e	3	1	main_slash	7	advance_on_keypress_SLASH	72	stimuli_distractor_diamondtriangles.svg	stimuli_distractor_trianglediamonds.svg	37	no	57	0	440	0	0			0	0			1				0	
6.6.1	mac	2023-07-07	05:36:20	05:42:28	365902	5e5291ff6c3d7d2a79ec869e	3	1	main_slash	7	main_slash	73	stimuli_target_diamondrectangles.svg	stimuli_distractor_diamondtriangles.svg	23	yes	53	1	1024	0	0			0	0			1				0	
6.6.1	mac	2023-07-07	05:36:20	05:42:28	365902	5e5291ff6c3d7d2a79ec869e	3	1	main_slash	7	advance_on_keypress_SLASH	74	stimuli_target_diamondrectangles.svg	stimuli_distractor_diamondtriangles.svg	23	yes	57	0	472	0	0			0	0			1				0	
6.6.1	mac	2023-07-07	05:36:20	05:42:30	368039	5e5291ff6c3d7d2a79ec869e	3	1	main_slash	7	main_slash	75	stimuli_target_squaretriangles.svg	stimuli_distractor_diamondtriangles.svg	7	yes	53	1	1044	0	0			0	0			1				0	
6.6.1	mac	2023-07-07	05:36:20	05:42:30	368039	5e5291ff6c3d7d2a79ec869e	3	1	main_slash	7	advance_on_keypress_SLASH	76	stimuli_target_squaretriangles.svg	stimuli_distractor_diamondtriangles.svg	7	yes	57	0	403	0	0			0	0			1				0	
6.6.1	mac	2023-07-07	05:36:20	05:42:32	369992	5e5291ff6c3d7d2a79ec869e	3	1	main_slash	7	main_slash	77	stimuli_distractor_trianglediamonds.svg	stimuli_target_squarediamonds.svg	12	yes	53	1	931	0	0			0	0			1				0	
6.6.1	mac	2023-07-07	05:36:20	05:42:32	369992	5e5291ff6c3d7d2a79ec869e	3	1	main_slash	7	advance_on_keypress_SLASH	78	stimuli_distractor_trianglediamonds.svg	stimuli_target_squarediamonds.svg	12	yes	57	0	350	0	0			0	0			1				0	
6.6.1	mac	2023-07-07	05:36:20	05:42:35	372978	5e5291ff6c3d7d2a79ec869e	3	1	main_slash	7	main_slash	79	stimuli_distractor_trianglediamonds.svg	stimuli_distractor_trianglediamonds.svg	34	no	0	1	2000	0	0			0	0			1				0	
6.6.1	mac	2023-07-07	05:36:20	05:42:35	372978	5e5291ff6c3d7d2a79ec869e	3	1	main_slash	7	advance_on_keypress_SLASH	80	stimuli_distractor_trianglediamonds.svg	stimuli_distractor_trianglediamonds.svg	34	no	57	0	429	0	0			0	0			1				0	
6.6.1	mac	2023-07-07	05:36:20	05:42:37	374988	5e5291ff6c3d7d2a79ec869e	3	1	main_slash	7	main_slash	81	stimuli_distractor_trianglediamonds.svg	stimuli_target_diamondrectangles.svg	27	yes	53	1	941	0	0			0	0			1				0	
6.6.1	mac	2023-07-07	05:36:20	05:42:37	374988	5e5291ff6c3d7d2a79ec869e	3	1	main_slash	7	advance_on_keypress_SLASH	82	stimuli_distractor_trianglediamonds.svg	stimuli_target_diamondrectangles.svg	27	yes	57	0	679	0	0			0	0			1				0	
6.6.1	mac	2023-07-07	05:36:20	05:42:39	377235	5e5291ff6c3d7d2a79ec869e	3	1	main_slash	7	main_slash	83	stimuli_target_squarediamonds.svg	stimuli_distractor_trianglediamonds.svg	4	yes	53	1	956	0	0			0	0			1				0	
6.6.1	mac	2023-07-07	05:36:20	05:42:39	377235	5e5291ff6c3d7d2a79ec869e	3	1	main_slash	7	advance_on_keypress_SLASH	84	stimuli_target_squarediamonds.svg	stimuli_distractor_trianglediamonds.svg	4	yes	57	0	379	0	0			0	0			1				0	
6.6.1	mac	2023-07-07	05:36:20	05:42:41	379057	5e5291ff6c3d7d2a79ec869e	3	1	main_slash	7	main_slash	85	stimuli_target_trianglesquares.svg	stimuli_distractor_trianglediamonds.svg	18	yes	53	1	829	0	0			0	0			1				0	
6.6.1	mac	2023-07-07	05:36:20	05:42:41	379057	5e5291ff6c3d7d2a79ec869e	3	1	main_slash	7	advance_on_keypress_SLASH	86	stimuli_target_trianglesquares.svg	stimuli_distractor_trianglediamonds.svg	18	yes	57	0	563	0	0			0	0			1				0	
6.6.1	mac	2023-07-07	05:36:20	05:42:43	381116	5e5291ff6c3d7d2a79ec869e	3	1	main_slash	7	main_slash	87	stimuli_distractor_trianglediamonds.svg	stimuli_target_rectanglediamonds.svg	10	yes	53	1	871	0	0			0	0			1				0	
6.6.1	mac	2023-07-07	05:36:20	05:42:43	381116	5e5291ff6c3d7d2a79ec869e	3	1	main_slash	7	advance_on_keypress_SLASH	88	stimuli_distractor_trianglediamonds.svg	stimuli_target_rectanglediamonds.svg	10	yes	57	0	594	0	0			0	0			1				0	
6.6.1	mac	2023-07-07	05:36:20	05:42:45	383174	5e5291ff6c3d7d2a79ec869e	3	1	main_slash	7	main_slash	89	stimuli_target_rectanglediamonds.svg	stimuli_distractor_diamondtriangles.svg	6	yes	53	1	846	0	0			0	0			1				0	
6.6.1	mac	2023-07-07	05:36:20	05:42:45	383174	5e5291ff6c3d7d2a79ec869e	3	1	main_slash	7	advance_on_keypress_SLASH	90	stimuli_target_rectanglediamonds.svg	stimuli_distractor_diamondtriangles.svg	6	yes	57	0	1063	0	0			0	0			1				0	
6.6.1	mac	2023-07-07	05:36:20	05:42:48	385995	5e5291ff6c3d7d2a79ec869e	3	1	main_slash	7	main_slash	91	stimuli_target_diamondrectangles.svg	stimuli_distractor_diamondtriangles.svg	23	yes	53	1	1149	0	0			0	0			1				0	
6.6.1	mac	2023-07-07	05:36:20	05:42:48	385995	5e5291ff6c3d7d2a79ec869e	3	1	main_slash	7	advance_on_keypress_SLASH	92	stimuli_target_diamondrectangles.svg	stimuli_distractor_diamondtriangles.svg	23	yes	57	0	658	0	0			0	0			1				0	
6.6.1	mac	2023-07-07	05:36:20	05:42:51	388562	5e5291ff6c3d7d2a79ec869e	3	1	main_slash	7	main_slash	93	stimuli_distractor_diamondtriangles.svg	stimuli_target_squaretriangles.svg	15	yes	53	1	1283	0	0			0	0			1				0	
6.6.1	mac	2023-07-07	05:36:20	05:42:51	388562	5e5291ff6c3d7d2a79ec869e	3	1	main_slash	7	advance_on_keypress_SLASH	94	stimuli_distractor_diamondtriangles.svg	stimuli_target_squaretriangles.svg	15	yes	57	0	696	0	0			0	0			1				0	
6.6.1	mac	2023-07-07	05:36:20	05:42:53	391226	5e5291ff6c3d7d2a79ec869e	3	1	main_slash	7	main_slash	95	stimuli_target_diamondsquares.svg	stimuli_distractor_diamondtriangles.svg	24	yes	53	1	1330	0	0			0	0			1				0	
6.6.1	mac	2023-07-07	05:36:20	05:42:53	391226	5e5291ff6c3d7d2a79ec869e	3	1	main_slash	7	advance_on_keypress_SLASH	96	stimuli_target_diamondsquares.svg	stimuli_distractor_diamondtriangles.svg	24	yes	57	0	574	0	0			0	0			1				0	
6.6.1	mac	2023-07-07	05:36:20	05:42:56	393566	5e5291ff6c3d7d2a79ec869e	3	1	main_slash	7	main_slash	97	stimuli_target_rectangletriangles.svg	stimuli_distractor_trianglediamonds.svg	1	yes	53	1	1138	0	0			0	0			1				0	
6.6.1	mac	2023-07-07	05:36:20	05:42:56	393566	5e5291ff6c3d7d2a79ec869e	3	1	main_slash	7	advance_on_keypress_SLASH	98	stimuli_target_rectangletriangles.svg	stimuli_distractor_trianglediamonds.svg	1	yes	57	0	473	0	0			0	0			1				0	
6.6.1	mac	2023-07-07	05:36:20	05:42:58	395683	5e5291ff6c3d7d2a79ec869e	3	1	main_slash	7	main_slash	99	stimuli_target_squarediamonds.svg	stimuli_distractor_diamondtriangles.svg	8	yes	53	1	1021	0	0			0	0			1				0	
6.6.1	mac	2023-07-07	05:36:20	05:42:58	395683	5e5291ff6c3d7d2a79ec869e	3	1	main_slash	7	advance_on_keypress_SLASH	100	stimuli_target_squarediamonds.svg	stimuli_distractor_diamondtriangles.svg	8	yes	57	0	475	0	0			0	0			1				0	
6.6.1	mac	2023-07-07	05:36:20	05:43:00	397919	5e5291ff6c3d7d2a79ec869e	3	1	main_slash	7	main_slash	101	stimuli_distractor_diamondtriangles.svg	stimuli_distractor_trianglediamonds.svg	37	no	53	0	1140	0	0			0	0			1				0	
6.6.1	mac	2023-07-07	05:36:20	05:43:00	397919	5e5291ff6c3d7d2a79ec869e	3	1	main_slash	7	advance_on_keypress_SLASH	102	stimuli_distractor_diamondtriangles.svg	stimuli_distractor_trianglediamonds.svg	37	no	57	0	1533	0	0			0	0			1				0	
6.6.1	mac	2023-07-07	05:36:20	05:43:03	401098	5e5291ff6c3d7d2a79ec869e	3	1	main_slash	7	main_slash	103	stimuli_target_rectangletriangles.svg	stimuli_distractor_diamondtriangles.svg	5	yes	53	1	1018	0	0			0	0			1				0	
6.6.1	mac	2023-07-07	05:36:20	05:43:03	401098	5e5291ff6c3d7d2a79ec869e	3	1	main_slash	7	advance_on_keypress_SLASH	104	stimuli_target_rectangletriangles.svg	stimuli_distractor_diamondtriangles.svg	5	yes	57	0	900	0	0			0	0			1				0	
6.6.1	mac	2023-07-07	05:36:20	05:43:06	403697	5e5291ff6c3d7d2a79ec869e	3	1	main_slash	7	main_slash	105	stimuli_target_trianglerectangles.svg	stimuli_distractor_diamondtriangles.svg	21	yes	53	1	1069	0	0			0	0			1				0	
6.6.1	mac	2023-07-07	05:36:20	05:43:06	403697	5e5291ff6c3d7d2a79ec869e	3	1	main_slash	7	advance_on_keypress_SLASH	106	stimuli_target_trianglerectangles.svg	stimuli_distractor_diamondtriangles.svg	21	yes	57	0	643	0	0			0	0			1				0	
6.6.1	mac	2023-07-07	05:36:20	05:43:08	406048	5e5291ff6c3d7d2a79ec869e	3	1	main_slash	7	main_slash	107	stimuli_distractor_trianglediamonds.svg	stimuli_target_diamondsquares.svg	28	yes	53	1	1086	0	0			0	0			1				0	
6.6.1	mac	2023-07-07	05:36:20	05:43:08	406048	5e5291ff6c3d7d2a79ec869e	3	1	main_slash	7	advance_on_keypress_SLASH	108	stimuli_distractor_trianglediamonds.svg	stimuli_target_diamondsquares.svg	28	yes	57	0	599	0	0			0	0			1				0	
6.6.1	mac	2023-07-07	05:36:20	05:43:12	409280	5e5291ff6c3d7d2a79ec869e	3	1	main_slash	7	main_slash	109	stimuli_distractor_trianglediamonds.svg	stimuli_distractor_trianglediamonds.svg	34	no	0	1	2000	0	0			0	0			1				0	
6.6.1	mac	2023-07-07	05:36:20	05:43:12	409280	5e5291ff6c3d7d2a79ec869e	3	1	main_slash	7	advance_on_keypress_SLASH	110	stimuli_distractor_trianglediamonds.svg	stimuli_distractor_trianglediamonds.svg	34	no	57	0	420	0	0			0	0			1				0	
6.6.1	mac	2023-07-07	05:36:20	05:43:14	411285	5e5291ff6c3d7d2a79ec869e	3	1	main_slash	7	main_slash	111	stimuli_distractor_trianglediamonds.svg	stimuli_target_squaretriangles.svg	11	yes	53	1	956	0	0			0	0			1				0	
6.6.1	mac	2023-07-07	05:36:20	05:43:14	411285	5e5291ff6c3d7d2a79ec869e	3	1	main_slash	7	advance_on_keypress_SLASH	112	stimuli_distractor_trianglediamonds.svg	stimuli_target_squaretriangles.svg	11	yes	57	0	704	0	0			0	0			1				0	
6.6.1	mac	2023-07-07	05:36:20	05:43:16	413697	5e5291ff6c3d7d2a79ec869e	3	1	main_slash	7	main_slash	113	stimuli_target_trianglesquares.svg	stimuli_distractor_diamondtriangles.svg	22	yes	53	1	1084	0	0			0	0			1				0	
6.6.1	mac	2023-07-07	05:36:20	05:43:16	413697	5e5291ff6c3d7d2a79ec869e	3	1	main_slash	7	advance_on_keypress_SLASH	114	stimuli_target_trianglesquares.svg	stimuli_distractor_diamondtriangles.svg	22	yes	57	0	651	0	0			0	0			1				0	
6.6.1	mac	2023-07-07	05:36:20	05:43:18	416156	5e5291ff6c3d7d2a79ec869e	3	1	main_slash	7	main_slash	115	stimuli_distractor_diamondtriangles.svg	stimuli_target_rectanglediamonds.svg	14	yes	53	1	1176	0	0			0	0			1				0	
6.6.1	mac	2023-07-07	05:36:20	05:43:18	416156	5e5291ff6c3d7d2a79ec869e	3	1	main_slash	7	advance_on_keypress_SLASH	116	stimuli_distractor_diamondtriangles.svg	stimuli_target_rectanglediamonds.svg	14	yes	57	0	757	0	0			0	0			1				0	
6.6.1	mac	2023-07-07	05:36:20	05:43:22	419529	5e5291ff6c3d7d2a79ec869e	3	1	main_slash	7	main_slash	117	stimuli_distractor_trianglediamonds.svg	stimuli_distractor_diamondtriangles.svg	35	no	0	1	2000	0	0			0	0			1				0	
6.6.1	mac	2023-07-07	05:36:20	05:43:22	419529	5e5291ff6c3d7d2a79ec869e	3	1	main_slash	7	advance_on_keypress_SLASH	118	stimuli_distractor_trianglediamonds.svg	stimuli_distractor_diamondtriangles.svg	35	no	57	0	530	0	0			0	0			1				0	
6.6.1	mac	2023-07-07	05:36:20	05:43:24	421691	5e5291ff6c3d7d2a79ec869e	3	1	main_slash	7	main_slash	119	stimuli_distractor_diamondtriangles.svg	stimuli_target_diamondsquares.svg	32	yes	53	1	995	0	0			0	0			1				0	
6.6.1	mac	2023-07-07	05:36:20	05:43:24	421691	5e5291ff6c3d7d2a79ec869e	3	1	main_slash	7	advance_on_keypress_SLASH	120	stimuli_distractor_diamondtriangles.svg	stimuli_target_diamondsquares.svg	32	yes	57	0	569	0	0			0	0			1				0	
6.6.1	mac	2023-07-07	05:36:20	05:43:26	424114	5e5291ff6c3d7d2a79ec869e	3	1	main_slash	7	main_slash	121	stimuli_target_diamondsquares.svg	stimuli_distractor_trianglediamonds.svg	20	yes	53	1	1235	0	0			0	0			1				0	
6.6.1	mac	2023-07-07	05:36:20	05:43:26	424114	5e5291ff6c3d7d2a79ec869e	3	1	main_slash	7	advance_on_keypress_SLASH	122	stimuli_target_diamondsquares.svg	stimuli_distractor_trianglediamonds.svg	20	yes	57	0	697	0	0			0	0			1				0	
6.6.1	mac	2023-07-07	05:36:20	05:43:29	426573	5e5291ff6c3d7d2a79ec869e	3	1	main_slash	7	main_slash	123	stimuli_target_squaretriangles.svg	stimuli_distractor_diamondtriangles.svg	7	yes	53	1	1128	0	0			0	0			1				0	
6.6.1	mac	2023-07-07	05:36:20	05:43:29	426573	5e5291ff6c3d7d2a79ec869e	3	1	main_slash	7	advance_on_keypress_SLASH	124	stimuli_target_squaretriangles.svg	stimuli_distractor_diamondtriangles.svg	7	yes	57	0	915	0	0			0	0			1				0	
6.6.1	mac	2023-07-07	05:36:20	05:43:32	430112	5e5291ff6c3d7d2a79ec869e	3	1	main_slash	7	main_slash	125	stimuli_distractor_diamondtriangles.svg	stimuli_distractor_trianglediamonds.svg	38	no	0	1	2000	0	0			0	0			1				0	
6.6.1	mac	2023-07-07	05:36:20	05:43:32	430112	5e5291ff6c3d7d2a79ec869e	3	1	main_slash	7	advance_on_keypress_SLASH	126	stimuli_distractor_diamondtriangles.svg	stimuli_distractor_trianglediamonds.svg	38	no	57	0	495	0	0			0	0			1				0	
6.6.1	mac	2023-07-07	05:36:20	05:43:35	432337	5e5291ff6c3d7d2a79ec869e	3	1	main_slash	7	main_slash	127	stimuli_distractor_diamondtriangles.svg	stimuli_target_squarediamonds.svg	16	yes	53	1	1109	0	0			0	0			1				0	
6.6.1	mac	2023-07-07	05:36:20	05:43:35	432337	5e5291ff6c3d7d2a79ec869e	3	1	main_slash	7	advance_on_keypress_SLASH	128	stimuli_distractor_diamondtriangles.svg	stimuli_target_squarediamonds.svg	16	yes	57	0	558	0	0			0	0			1				0	
6.6.1	mac	2023-07-07	05:36:20	05:43:37	434616	5e5291ff6c3d7d2a79ec869e	3	1	main_slash	7	main_slash	129	stimuli_target_rectanglediamonds.svg	stimuli_distractor_trianglediamonds.svg	2	yes	53	1	1103	0	0			0	0			1				0	
6.6.1	mac	2023-07-07	05:36:20	05:43:37	434616	5e5291ff6c3d7d2a79ec869e	3	1	main_slash	7	advance_on_keypress_SLASH	130	stimuli_target_rectanglediamonds.svg	stimuli_distractor_trianglediamonds.svg	2	yes	57	0	581	0	0			0	0			1				0	
6.6.1	mac	2023-07-07	05:36:20	05:43:40	437828	5e5291ff6c3d7d2a79ec869e	3	1	main_slash	7	main_slash	131	stimuli_target_trianglerectangles.svg	stimuli_distractor_trianglediamonds.svg	17	yes	0	0	2000	0	0			0	0			1				0	
6.6.1	mac	2023-07-07	05:36:20	05:43:40	437828	5e5291ff6c3d7d2a79ec869e	3	1	main_slash	7	advance_on_keypress_SLASH	132	stimuli_target_trianglerectangles.svg	stimuli_distractor_trianglediamonds.svg	17	yes	57	0	424	0	0			0	0			1				0	
6.6.1	mac	2023-07-07	05:36:20	05:43:42	439931	5e5291ff6c3d7d2a79ec869e	3	1	main_slash	7	main_slash	133	stimuli_distractor_diamondtriangles.svg	stimuli_target_diamondrectangles.svg	31	yes	53	1	1052	0	0			0	0			1				0	
6.6.1	mac	2023-07-07	05:36:20	05:43:42	439931	5e5291ff6c3d7d2a79ec869e	3	1	main_slash	7	advance_on_keypress_SLASH	134	stimuli_distractor_diamondtriangles.svg	stimuli_target_diamondrectangles.svg	31	yes	57	0	672	0	0			0	0			1				0	
6.6.1	mac	2023-07-07	05:36:20	05:43:45	442380	5e5291ff6c3d7d2a79ec869e	3	1	main_slash	7	main_slash	135	stimuli_distractor_diamondtriangles.svg	stimuli_target_trianglesquares.svg	30	yes	53	1	1152	0	0			0	0			1				0	
6.6.1	mac	2023-07-07	05:36:20	05:43:45	442380	5e5291ff6c3d7d2a79ec869e	3	1	main_slash	7	advance_on_keypress_SLASH	136	stimuli_distractor_diamondtriangles.svg	stimuli_target_trianglesquares.svg	30	yes	57	0	604	0	0			0	0			1				0	
6.6.1	mac	2023-07-07	05:36:20	05:43:47	444655	5e5291ff6c3d7d2a79ec869e	3	1	main_slash	7	main_slash	137	stimuli_distractor_diamondtriangles.svg	stimuli_target_rectangletriangles.svg	13	yes	53	1	1044	0	0			0	0			1				0	
6.6.1	mac	2023-07-07	05:36:20	05:43:47	444655	5e5291ff6c3d7d2a79ec869e	3	1	main_slash	7	advance_on_keypress_SLASH	138	stimuli_distractor_diamondtriangles.svg	stimuli_target_rectangletriangles.svg	13	yes	57	0	709	0	0			0	0			1				0	
6.6.1	mac	2023-07-07	05:36:20	05:43:49	447127	5e5291ff6c3d7d2a79ec869e	3	1	main_slash	7	main_slash	139	stimuli_distractor_trianglediamonds.svg	stimuli_target_trianglerectangles.svg	25	yes	53	1	1148	0	0			0	0			1				0	
6.6.1	mac	2023-07-07	05:36:20	05:43:49	447127	5e5291ff6c3d7d2a79ec869e	3	1	main_slash	7	advance_on_keypress_SLASH	140	stimuli_distractor_trianglediamonds.svg	stimuli_target_trianglerectangles.svg	25	yes	57	0	462	0	0			0	0			1				0	
6.6.1	mac	2023-07-07	05:36:20	05:43:52	450211	5e5291ff6c3d7d2a79ec869e	3	1	main_slash	7	main_slash	141	stimuli_distractor_trianglediamonds.svg	stimuli_distractor_diamondtriangles.svg	36	no	0	1	2000	0	0			0	0			1				0	
6.6.1	mac	2023-07-07	05:36:20	05:43:52	450211	5e5291ff6c3d7d2a79ec869e	3	1	main_slash	7	advance_on_keypress_SLASH	142	stimuli_distractor_trianglediamonds.svg	stimuli_distractor_diamondtriangles.svg	36	no	57	0	506	0	0			0	0			1				0	
6.6.1	mac	2023-07-07	05:36:20	05:43:55	452480	5e5291ff6c3d7d2a79ec869e	3	1	main_slash	7	main_slash	143	stimuli_distractor_trianglediamonds.svg	stimuli_target_squarediamonds.svg	12	yes	53	1	1134	0	0			0	0			1				0	
6.6.1	mac	2023-07-07	05:36:20	05:43:55	452480	5e5291ff6c3d7d2a79ec869e	3	1	main_slash	7	advance_on_keypress_SLASH	144	stimuli_distractor_trianglediamonds.svg	stimuli_target_squarediamonds.svg	12	yes	57	0	624	0	0			0	0			1				0	
6.6.1	mac	2023-07-07	05:36:20	05:43:58	455728	5e5291ff6c3d7d2a79ec869e	3	1	main_slash	7	main_slash	145	stimuli_distractor_trianglediamonds.svg	stimuli_distractor_trianglediamonds.svg	33	no	0	1	2000	0	0			0	0			1				0	
6.6.1	mac	2023-07-07	05:36:20	05:43:58	455728	5e5291ff6c3d7d2a79ec869e	3	1	main_slash	7	advance_on_keypress_SLASH	146	stimuli_distractor_trianglediamonds.svg	stimuli_distractor_trianglediamonds.svg	33	no	57	0	442	0	0			0	0			1				0	
6.6.1	mac	2023-07-07	05:36:20	05:44:00	458098	5e5291ff6c3d7d2a79ec869e	3	1	main_slash	7	main_slash	147	stimuli_target_squaretriangles.svg	stimuli_distractor_trianglediamonds.svg	3	yes	53	1	1302	0	0			0	0			1				0	
6.6.1	mac	2023-07-07	05:36:20	05:44:00	458098	5e5291ff6c3d7d2a79ec869e	3	1	main_slash	7	advance_on_keypress_SLASH	148	stimuli_target_squaretriangles.svg	stimuli_distractor_trianglediamonds.svg	3	yes	57	0	469	0	0			0	0			1				0	
6.6.1	mac	2023-07-07	05:36:20	05:44:03	461195	5e5291ff6c3d7d2a79ec869e	3	1	main_slash	7	main_slash	149	stimuli_distractor_diamondtriangles.svg	stimuli_distractor_diamondtriangles.svg	39	no	0	1	2000	0	0			0	0			1				0	
6.6.1	mac	2023-07-07	05:36:20	05:44:03	461195	5e5291ff6c3d7d2a79ec869e	3	1	main_slash	7	advance_on_keypress_SLASH	150	stimuli_distractor_diamondtriangles.svg	stimuli_distractor_diamondtriangles.svg	39	no	57	0	376	0	0			0	0			1				0	
6.6.1	mac	2023-07-07	05:36:20	05:44:06	463329	5e5291ff6c3d7d2a79ec869e	3	1	main_slash	7	main_slash	151	stimuli_target_diamondrectangles.svg	stimuli_distractor_trianglediamonds.svg	19	yes	53	1	1134	0	0			0	0			1				0	
6.6.1	mac	2023-07-07	05:36:20	05:44:06	463329	5e5291ff6c3d7d2a79ec869e	3	1	main_slash	7	advance_on_keypress_SLASH	152	stimuli_target_diamondrectangles.svg	stimuli_distractor_trianglediamonds.svg	19	yes	57	0	576	0	0			0	0			1				0	
6.6.1	mac	2023-07-07	05:36:20	05:44:08	465886	5e5291ff6c3d7d2a79ec869e	3	1	main_slash	7	main_slash	153	stimuli_distractor_diamondtriangles.svg	stimuli_target_trianglerectangles.svg	29	yes	53	1	1356	0	0			0	0			1				0	
6.6.1	mac	2023-07-07	05:36:20	05:44:08	465886	5e5291ff6c3d7d2a79ec869e	3	1	main_slash	7	advance_on_keypress_SLASH	154	stimuli_distractor_diamondtriangles.svg	stimuli_target_trianglerectangles.svg	29	yes	57	0	824	0	0			0	0			1				0	
6.6.1	mac	2023-07-07	05:36:20	05:44:11	468988	5e5291ff6c3d7d2a79ec869e	3	1	main_slash	7	main_slash	155	stimuli_distractor_trianglediamonds.svg	stimuli_target_trianglesquares.svg	26	yes	53	1	1659	0	0			0	0			1				0	
6.6.1	mac	2023-07-07	05:36:20	05:44:11	468988	5e5291ff6c3d7d2a79ec869e	3	1	main_slash	7	advance_on_keypress_SLASH	156	stimuli_distractor_trianglediamonds.svg	stimuli_target_trianglesquares.svg	26	yes	57	0	590	0	0			0	0			1				0	
6.6.1	mac	2023-07-07	05:36:20	05:44:14	472193	5e5291ff6c3d7d2a79ec869e	3	1	main_slash	7	main_slash	157	stimuli_distractor_diamondtriangles.svg	stimuli_distractor_diamondtriangles.svg	40	no	0	1	2000	0	0			0	0			1				0	
6.6.1	mac	2023-07-07	05:36:20	05:44:14	472193	5e5291ff6c3d7d2a79ec869e	3	1	main_slash	7	advance_on_keypress_SLASH	158	stimuli_distractor_diamondtriangles.svg	stimuli_distractor_diamondtriangles.svg	40	no	57	0	358	0	0			0	0			1				0	
6.6.1	mac	2023-07-07	05:36:20	05:44:16	474233	5e5291ff6c3d7d2a79ec869e	3	1	main_slash	7	main_slash	159	stimuli_distractor_trianglediamonds.svg	stimuli_target_rectangletriangles.svg	9	yes	53	1	1054	0	0			0	0			1				0	
6.6.1	mac	2023-07-07	05:36:20	05:44:16	474233	5e5291ff6c3d7d2a79ec869e	3	1	main_slash	7	advance_on_keypress_SLASH	160	stimuli_distractor_trianglediamonds.svg	stimuli_target_rectangletriangles.svg	9	yes	57	0	525	0	0			0	0			1				0	
6.6.1	mac	2023-07-07	05:36:20	05:44:38	495298	5e5291ff6c3d7d2a79ec869e	3	1	practice_z	9	practice_z	1	stimuli_target_rectanglediamonds.svg	stimuli_distractor_trianglediamonds.svg	4	yes	44	1	801	0	0			0	0			1				0	
6.6.1	mac	2023-07-07	05:36:20	05:44:38	495298	5e5291ff6c3d7d2a79ec869e	3	1	practice_z	9	advance_on_keypress_ZEE	2	stimuli_target_rectanglediamonds.svg	stimuli_distractor_trianglediamonds.svg	4	yes	57	0	697	0	0			0	0			1				0	
6.6.1	mac	2023-07-07	05:36:20	05:44:41	498729	5e5291ff6c3d7d2a79ec869e	3	1	practice_z	9	practice_z	3	stimuli_target_diamondsquares.svg	stimuli_distractor_trianglediamonds.svg	6	yes	44	1	1083	0	0			0	0			1				0	
6.6.1	mac	2023-07-07	05:36:20	05:44:41	498729	5e5291ff6c3d7d2a79ec869e	3	1	practice_z	9	advance_on_keypress_ZEE	4	stimuli_target_diamondsquares.svg	stimuli_distractor_trianglediamonds.svg	6	yes	57	0	494	0	0			0	0			1				0	
6.6.1	mac	2023-07-07	05:36:20	05:44:44	501910	5e5291ff6c3d7d2a79ec869e	3	1	practice_z	9	practice_z	5	stimuli_target_diamondsquares.svg	stimuli_distractor_diamondtriangles.svg	3	yes	44	1	1063	0	0			0	0			1				0	
6.6.1	mac	2023-07-07	05:36:20	05:44:44	501910	5e5291ff6c3d7d2a79ec869e	3	1	practice_z	9	advance_on_keypress_ZEE	6	stimuli_target_diamondsquares.svg	stimuli_distractor_diamondtriangles.svg	3	yes	57	0	440	0	0			0	0			1				0	
6.6.1	mac	2023-07-07	05:36:20	05:44:48	505307	5e5291ff6c3d7d2a79ec869e	3	1	practice_z	9	practice_z	7	stimuli_distractor_trianglediamonds.svg	stimuli_target_diamondrectangles.svg	12	yes	44	1	1328	0	0			0	0			1				0	
6.6.1	mac	2023-07-07	05:36:20	05:44:48	505307	5e5291ff6c3d7d2a79ec869e	3	1	practice_z	9	advance_on_keypress_ZEE	8	stimuli_distractor_trianglediamonds.svg	stimuli_target_diamondrectangles.svg	12	yes	57	0	856	0	0			0	0			1				0	
6.6.1	mac	2023-07-07	05:36:20	05:44:52	509778	5e5291ff6c3d7d2a79ec869e	3	1	practice_z	9	practice_z	9	stimuli_distractor_diamondtriangles.svg	stimuli_distractor_diamondtriangles.svg	13	no	0	1	2000	0	0			0	0			1				0	
6.6.1	mac	2023-07-07	05:36:20	05:44:52	509778	5e5291ff6c3d7d2a79ec869e	3	1	practice_z	9	advance_on_keypress_ZEE	10	stimuli_distractor_diamondtriangles.svg	stimuli_distractor_diamondtriangles.svg	13	no	57	0	381	0	0			0	0			1				0	
6.6.1	mac	2023-07-07	05:36:20	05:44:56	513795	5e5291ff6c3d7d2a79ec869e	3	1	practice_z	9	practice_z	11	stimuli_distractor_trianglediamonds.svg	stimuli_distractor_diamondtriangles.svg	16	no	0	1	2000	0	0			0	0			1				0	
6.6.1	mac	2023-07-07	05:36:20	05:44:56	513795	5e5291ff6c3d7d2a79ec869e	3	1	practice_z	9	advance_on_keypress_ZEE	12	stimuli_distractor_trianglediamonds.svg	stimuli_distractor_diamondtriangles.svg	16	no	57	0	423	0	0			0	0			1				0	
6.6.1	mac	2023-07-07	05:36:20	05:44:59	516849	5e5291ff6c3d7d2a79ec869e	3	1	practice_z	9	practice_z	13	stimuli_distractor_diamondtriangles.svg	stimuli_target_diamondrectangles.svg	8	yes	44	1	1003	0	0			0	0			1				0	
6.6.1	mac	2023-07-07	05:36:20	05:44:59	516849	5e5291ff6c3d7d2a79ec869e	3	1	practice_z	9	advance_on_keypress_ZEE	14	stimuli_distractor_diamondtriangles.svg	stimuli_target_diamondrectangles.svg	8	yes	57	0	678	0	0			0	0			1				0	
6.6.1	mac	2023-07-07	05:36:20	05:45:02	520224	5e5291ff6c3d7d2a79ec869e	3	1	practice_z	9	practice_z	15	stimuli_distractor_diamondtriangles.svg	stimuli_target_rectangletriangles.svg	7	yes	44	1	1076	0	0			0	0			1				0	
6.6.1	mac	2023-07-07	05:36:20	05:45:02	520224	5e5291ff6c3d7d2a79ec869e	3	1	practice_z	9	advance_on_keypress_ZEE	16	stimuli_distractor_diamondtriangles.svg	stimuli_target_rectangletriangles.svg	7	yes	57	0	443	0	0			0	0			1				0	
6.6.1	mac	2023-07-07	05:36:20	05:45:07	524295	5e5291ff6c3d7d2a79ec869e	3	1	practice_z	9	practice_z	17	stimuli_distractor_diamondtriangles.svg	stimuli_distractor_trianglediamonds.svg	14	no	0	1	2000	0	0			0	0			1				0	
6.6.1	mac	2023-07-07	05:36:20	05:45:07	524295	5e5291ff6c3d7d2a79ec869e	3	1	practice_z	9	advance_on_keypress_ZEE	18	stimuli_distractor_diamondtriangles.svg	stimuli_distractor_trianglediamonds.svg	14	no	57	0	626	0	0			0	0			1				0	
6.6.1	mac	2023-07-07	05:36:20	05:45:11	528545	5e5291ff6c3d7d2a79ec869e	3	1	practice_z	9	practice_z	19	stimuli_distractor_trianglediamonds.svg	stimuli_distractor_trianglediamonds.svg	15	no	0	1	2000	0	0			0	0			1				0	
6.6.1	mac	2023-07-07	05:36:20	05:45:11	528545	5e5291ff6c3d7d2a79ec869e	3	1	practice_z	9	advance_on_keypress_ZEE	20	stimuli_distractor_trianglediamonds.svg	stimuli_distractor_trianglediamonds.svg	15	no	57	0	439	0	0			0	0			1				0	
6.6.1	mac	2023-07-07	05:36:20	05:45:14	531714	5e5291ff6c3d7d2a79ec869e	3	1	practice_z	9	practice_z	21	stimuli_distractor_diamondtriangles.svg	stimuli_target_trianglerectangles.svg	9	yes	44	1	1102	0	0			0	0			1				0	
6.6.1	mac	2023-07-07	05:36:20	05:45:14	531714	5e5291ff6c3d7d2a79ec869e	3	1	practice_z	9	advance_on_keypress_ZEE	22	stimuli_distractor_diamondtriangles.svg	stimuli_target_trianglerectangles.svg	9	yes	57	0	445	0	0			0	0			1				0	
6.6.1	mac	2023-07-07	05:36:20	05:45:17	534724	5e5291ff6c3d7d2a79ec869e	3	1	practice_z	9	practice_z	23	stimuli_target_squarediamonds.svg	stimuli_distractor_diamondtriangles.svg	2	yes	44	1	928	0	0			0	0			1				0	
6.6.1	mac	2023-07-07	05:36:20	05:45:17	534724	5e5291ff6c3d7d2a79ec869e	3	1	practice_z	9	advance_on_keypress_ZEE	24	stimuli_target_squarediamonds.svg	stimuli_distractor_diamondtriangles.svg	2	yes	57	0	451	0	0			0	0			1				0	
6.6.1	mac	2023-07-07	05:36:20	05:45:20	537858	5e5291ff6c3d7d2a79ec869e	3	1	practice_z	9	practice_z	25	stimuli_target_rectanglediamonds.svg	stimuli_distractor_diamondtriangles.svg	1	yes	44	1	1062	0	0			0	0			1				0	
6.6.1	mac	2023-07-07	05:36:20	05:45:20	537858	5e5291ff6c3d7d2a79ec869e	3	1	practice_z	9	advance_on_keypress_ZEE	26	stimuli_target_rectanglediamonds.svg	stimuli_distractor_diamondtriangles.svg	1	yes	57	0	406	0	0			0	0			1				0	
6.6.1	mac	2023-07-07	05:36:20	05:45:23	541080	5e5291ff6c3d7d2a79ec869e	3	1	practice_z	9	practice_z	27	stimuli_target_squarediamonds.svg	stimuli_distractor_trianglediamonds.svg	5	yes	44	1	1184	0	0			0	0			1				0	
6.6.1	mac	2023-07-07	05:36:20	05:45:23	541080	5e5291ff6c3d7d2a79ec869e	3	1	practice_z	9	advance_on_keypress_ZEE	28	stimuli_target_squarediamonds.svg	stimuli_distractor_trianglediamonds.svg	5	yes	57	0	463	0	0			0	0			1				0	
6.6.1	mac	2023-07-07	05:36:20	05:45:27	544698	5e5291ff6c3d7d2a79ec869e	3	1	practice_z	9	practice_z	29	stimuli_distractor_trianglediamonds.svg	stimuli_target_rectanglediamonds.svg	10	yes	44	1	1518	0	0			0	0			1				0	
6.6.1	mac	2023-07-07	05:36:20	05:45:27	544698	5e5291ff6c3d7d2a79ec869e	3	1	practice_z	9	advance_on_keypress_ZEE	30	stimuli_distractor_trianglediamonds.svg	stimuli_target_rectanglediamonds.svg	10	yes	57	0	535	0	0			0	0			1				0	
6.6.1	mac	2023-07-07	05:36:20	05:45:31	548326	5e5291ff6c3d7d2a79ec869e	3	1	practice_z	9	practice_z	31	stimuli_distractor_trianglediamonds.svg	stimuli_target_squarediamonds.svg	11	yes	44	1	1463	0	0			0	0			1				0	
6.6.1	mac	2023-07-07	05:36:20	05:45:31	548326	5e5291ff6c3d7d2a79ec869e	3	1	practice_z	9	advance_on_keypress_ZEE	32	stimuli_distractor_trianglediamonds.svg	stimuli_target_squarediamonds.svg	11	yes	57	0	787	0	0			0	0			1				0	
6.6.1	mac	2023-07-07	05:36:20	05:45:35	552444	5e5291ff6c3d7d2a79ec869e	3	1	main_z	11	main_z	1	stimuli_distractor_trianglediamonds.svg	stimuli_target_squarediamonds.svg	12	yes	44	1	597	0	0			0	0			1				0	
6.6.1	mac	2023-07-07	05:36:20	05:45:35	552444	5e5291ff6c3d7d2a79ec869e	3	1	main_z	11	advance_on_keypress_ZEE	2	stimuli_distractor_trianglediamonds.svg	stimuli_target_squarediamonds.svg	12	yes	57	0	1112	0	0			0	0			1				0	
6.6.1	mac	2023-07-07	05:36:20	05:45:38	556195	5e5291ff6c3d7d2a79ec869e	3	1	main_z	11	main_z	3	stimuli_distractor_diamondtriangles.svg	stimuli_distractor_diamondtriangles.svg	39	no	0	1	2000	0	0			0	0			1				0	
6.6.1	mac	2023-07-07	05:36:20	05:45:38	556195	5e5291ff6c3d7d2a79ec869e	3	1	main_z	11	advance_on_keypress_ZEE	4	stimuli_distractor_diamondtriangles.svg	stimuli_distractor_diamondtriangles.svg	39	no	57	0	473	0	0			0	0			1				0	
6.6.1	mac	2023-07-07	05:36:20	05:45:40	558217	5e5291ff6c3d7d2a79ec869e	3	1	main_z	11	main_z	5	stimuli_target_rectanglediamonds.svg	stimuli_distractor_trianglediamonds.svg	2	yes	44	1	922	0	0			0	0			1				0	
6.6.1	mac	2023-07-07	05:36:20	05:45:40	558217	5e5291ff6c3d7d2a79ec869e	3	1	main_z	11	advance_on_keypress_ZEE	6	stimuli_target_rectanglediamonds.svg	stimuli_distractor_trianglediamonds.svg	2	yes	57	0	458	0	0			0	0			1				0	
6.6.1	mac	2023-07-07	05:36:20	05:45:44	561295	5e5291ff6c3d7d2a79ec869e	3	1	main_z	11	main_z	7	stimuli_distractor_trianglediamonds.svg	stimuli_distractor_diamondtriangles.svg	35	no	0	1	2000	0	0			0	0			1				0	
6.6.1	mac	2023-07-07	05:36:20	05:45:44	561295	5e5291ff6c3d7d2a79ec869e	3	1	main_z	11	advance_on_keypress_ZEE	8	stimuli_distractor_trianglediamonds.svg	stimuli_distractor_diamondtriangles.svg	35	no	57	0	463	0	0			0	0			1				0	
6.6.1	mac	2023-07-07	05:36:20	05:45:46	563407	5e5291ff6c3d7d2a79ec869e	3	1	main_z	11	main_z	9	stimuli_target_trianglerectangles.svg	stimuli_distractor_trianglediamonds.svg	17	yes	44	1	1011	0	0			0	0			1				0	
6.6.1	mac	2023-07-07	05:36:20	05:45:46	563407	5e5291ff6c3d7d2a79ec869e	3	1	main_z	11	advance_on_keypress_ZEE	10	stimuli_target_trianglerectangles.svg	stimuli_distractor_trianglediamonds.svg	17	yes	57	0	510	0	0			0	0			1				0	
6.6.1	mac	2023-07-07	05:36:20	05:45:48	565518	5e5291ff6c3d7d2a79ec869e	3	1	main_z	11	main_z	11	stimuli_target_rectangletriangles.svg	stimuli_distractor_diamondtriangles.svg	5	yes	44	1	989	0	0			0	0			1				0	
6.6.1	mac	2023-07-07	05:36:20	05:45:48	565518	5e5291ff6c3d7d2a79ec869e	3	1	main_z	11	advance_on_keypress_ZEE	12	stimuli_target_rectangletriangles.svg	stimuli_distractor_diamondtriangles.svg	5	yes	57	0	507	0	0			0	0			1				0	
6.6.1	mac	2023-07-07	05:36:20	05:45:50	567603	5e5291ff6c3d7d2a79ec869e	3	1	main_z	11	main_z	13	stimuli_distractor_trianglediamonds.svg	stimuli_target_rectangletriangles.svg	9	yes	44	1	957	0	0			0	0			1				0	
6.6.1	mac	2023-07-07	05:36:20	05:45:50	567603	5e5291ff6c3d7d2a79ec869e	3	1	main_z	11	advance_on_keypress_ZEE	14	stimuli_distractor_trianglediamonds.svg	stimuli_target_rectangletriangles.svg	9	yes	57	0	458	0	0			0	0			1				0	
6.6.1	mac	2023-07-07	05:36:20	05:45:52	569586	5e5291ff6c3d7d2a79ec869e	3	1	main_z	11	main_z	15	stimuli_distractor_diamondtriangles.svg	stimuli_target_trianglesquares.svg	30	yes	44	1	907	0	0			0	0			1				0	
6.6.1	mac	2023-07-07	05:36:20	05:45:52	569586	5e5291ff6c3d7d2a79ec869e	3	1	main_z	11	advance_on_keypress_ZEE	16	stimuli_distractor_diamondtriangles.svg	stimuli_target_trianglesquares.svg	30	yes	57	0	431	0	0			0	0			1				0	
6.6.1	mac	2023-07-07	05:36:20	05:45:54	571429	5e5291ff6c3d7d2a79ec869e	3	1	main_z	11	main_z	17	stimuli_target_squarediamonds.svg	stimuli_distractor_trianglediamonds.svg	4	yes	44	1	783	0	0			0	0			1				0	
6.6.1	mac	2023-07-07	05:36:20	05:45:54	571429	5e5291ff6c3d7d2a79ec869e	3	1	main_z	11	advance_on_keypress_ZEE	18	stimuli_target_squarediamonds.svg	stimuli_distractor_trianglediamonds.svg	4	yes	57	0	572	0	0			0	0			1				0	
6.6.1	mac	2023-07-07	05:36:20	05:45:55	573184	5e5291ff6c3d7d2a79ec869e	3	1	main_z	11	main_z	19	stimuli_distractor_diamondtriangles.svg	stimuli_target_rectangletriangles.svg	13	yes	44	1	555	0	0			0	0			1				0	
6.6.1	mac	2023-07-07	05:36:20	05:45:55	573184	5e5291ff6c3d7d2a79ec869e	3	1	main_z	11	advance_on_keypress_ZEE	20	stimuli_distractor_diamondtriangles.svg	stimuli_target_rectangletriangles.svg	13	yes	57	0	575	0	0			0	0			1				0	
6.6.1	mac	2023-07-07	05:36:20	05:45:59	576378	5e5291ff6c3d7d2a79ec869e	3	1	main_z	11	main_z	21	stimuli_distractor_diamondtriangles.svg	stimuli_distractor_trianglediamonds.svg	38	no	0	1	2000	0	0			0	0			1				0	
6.6.1	mac	2023-07-07	05:36:20	05:45:59	576378	5e5291ff6c3d7d2a79ec869e	3	1	main_z	11	advance_on_keypress_ZEE	22	stimuli_distractor_diamondtriangles.svg	stimuli_distractor_trianglediamonds.svg	38	no	57	0	501	0	0			0	0			1				0	
6.6.1	mac	2023-07-07	05:36:20	05:46:01	578715	5e5291ff6c3d7d2a79ec869e	3	1	main_z	11	main_z	23	stimuli_distractor_trianglediamonds.svg	stimuli_target_trianglerectangles.svg	25	yes	44	1	1202	0	0			0	0			1				0	
6.6.1	mac	2023-07-07	05:36:20	05:46:01	578715	5e5291ff6c3d7d2a79ec869e	3	1	main_z	11	advance_on_keypress_ZEE	24	stimuli_distractor_trianglediamonds.svg	stimuli_target_trianglerectangles.svg	25	yes	57	0	434	0	0			0	0			1				0	
6.6.1	mac	2023-07-07	05:36:20	05:46:03	580671	5e5291ff6c3d7d2a79ec869e	3	1	main_z	11	main_z	25	stimuli_distractor_diamondtriangles.svg	stimuli_target_diamondsquares.svg	32	yes	44	1	893	0	0			0	0			1				0	
6.6.1	mac	2023-07-07	05:36:20	05:46:03	580671	5e5291ff6c3d7d2a79ec869e	3	1	main_z	11	advance_on_keypress_ZEE	26	stimuli_distractor_diamondtriangles.svg	stimuli_target_diamondsquares.svg	32	yes	57	0	460	0	0			0	0			1				0	
6.6.1	mac	2023-07-07	05:36:20	05:46:05	582644	5e5291ff6c3d7d2a79ec869e	3	1	main_z	11	main_z	27	stimuli_target_squaretriangles.svg	stimuli_distractor_diamondtriangles.svg	7	yes	44	1	899	0	0			0	0			1				0	
6.6.1	mac	2023-07-07	05:36:20	05:46:05	582644	5e5291ff6c3d7d2a79ec869e	3	1	main_z	11	advance_on_keypress_ZEE	28	stimuli_target_squaretriangles.svg	stimuli_distractor_diamondtriangles.svg	7	yes	57	0	439	0	0			0	0			1				0	
6.6.1	mac	2023-07-07	05:36:20	05:46:07	584621	5e5291ff6c3d7d2a79ec869e	3	1	main_z	11	main_z	29	stimuli_distractor_trianglediamonds.svg	stimuli_target_diamondrectangles.svg	27	yes	44	1	909	0	0			0	0			1				0	
6.6.1	mac	2023-07-07	05:36:20	05:46:07	584621	5e5291ff6c3d7d2a79ec869e	3	1	main_z	11	advance_on_keypress_ZEE	30	stimuli_distractor_trianglediamonds.svg	stimuli_target_diamondrectangles.svg	27	yes	57	0	333	0	0			0	0			1				0	
6.6.1	mac	2023-07-07	05:36:20	05:46:09	586421	5e5291ff6c3d7d2a79ec869e	3	1	main_z	11	main_z	31	stimuli_target_diamondrectangles.svg	stimuli_distractor_trianglediamonds.svg	19	yes	44	1	843	0	0			0	0			1				0	
6.6.1	mac	2023-07-07	05:36:20	05:46:09	586421	5e5291ff6c3d7d2a79ec869e	3	1	main_z	11	advance_on_keypress_ZEE	32	stimuli_target_diamondrectangles.svg	stimuli_distractor_trianglediamonds.svg	19	yes	57	0	352	0	0			0	0			1				0	
6.6.1	mac	2023-07-07	05:36:20	05:46:10	588257	5e5291ff6c3d7d2a79ec869e	3	1	main_z	11	main_z	33	stimuli_target_rectangletriangles.svg	stimuli_distractor_trianglediamonds.svg	1	yes	44	1	862	0	0			0	0			1				0	
6.6.1	mac	2023-07-07	05:36:20	05:46:10	588257	5e5291ff6c3d7d2a79ec869e	3	1	main_z	11	advance_on_keypress_ZEE	34	stimuli_target_rectangletriangles.svg	stimuli_distractor_trianglediamonds.svg	1	yes	57	0	578	0	0			0	0			1				0	
6.6.1	mac	2023-07-07	05:36:20	05:46:13	590357	5e5291ff6c3d7d2a79ec869e	3	1	main_z	11	main_z	35	stimuli_target_trianglesquares.svg	stimuli_distractor_diamondtriangles.svg	22	yes	44	1	912	0	0			0	0			1				0	
6.6.1	mac	2023-07-07	05:36:20	05:46:13	590357	5e5291ff6c3d7d2a79ec869e	3	1	main_z	11	advance_on_keypress_ZEE	36	stimuli_target_trianglesquares.svg	stimuli_distractor_diamondtriangles.svg	22	yes	57	0	458	0	0			0	0			1				0	
6.6.1	mac	2023-07-07	05:36:20	05:46:15	592313	5e5291ff6c3d7d2a79ec869e	3	1	main_z	11	main_z	37	stimuli_distractor_diamondtriangles.svg	stimuli_target_rectanglediamonds.svg	14	yes	44	1	884	0	0			0	0			1				0	
6.6.1	mac	2023-07-07	05:36:20	05:46:15	592313	5e5291ff6c3d7d2a79ec869e	3	1	main_z	11	advance_on_keypress_ZEE	38	stimuli_distractor_diamondtriangles.svg	stimuli_target_rectanglediamonds.svg	14	yes	57	0	403	0	0			0	0			1				0	
6.6.1	mac	2023-07-07	05:36:20	05:46:16	594207	5e5291ff6c3d7d2a79ec869e	3	1	main_z	11	main_z	39	stimuli_distractor_trianglediamonds.svg	stimuli_target_squaretriangles.svg	11	yes	44	1	861	0	0			0	0			1				0	
6.6.1	mac	2023-07-07	05:36:20	05:46:16	594207	5e5291ff6c3d7d2a79ec869e	3	1	main_z	11	advance_on_keypress_ZEE	40	stimuli_distractor_trianglediamonds.svg	stimuli_target_squaretriangles.svg	11	yes	57	0	513	0	0			0	0			1				0	
6.6.1	mac	2023-07-07	05:36:20	05:46:19	596303	5e5291ff6c3d7d2a79ec869e	3	1	main_z	11	main_z	41	stimuli_target_trianglerectangles.svg	stimuli_distractor_diamondtriangles.svg	21	yes	44	1	957	0	0			0	0			1				0	
6.6.1	mac	2023-07-07	05:36:20	05:46:19	596303	5e5291ff6c3d7d2a79ec869e	3	1	main_z	11	advance_on_keypress_ZEE	42	stimuli_target_trianglerectangles.svg	stimuli_distractor_diamondtriangles.svg	21	yes	57	0	428	0	0			0	0			1				0	
6.6.1	mac	2023-07-07	05:36:20	05:46:20	598229	5e5291ff6c3d7d2a79ec869e	3	1	main_z	11	main_z	43	stimuli_distractor_diamondtriangles.svg	stimuli_target_diamondrectangles.svg	31	yes	44	1	883	0	0			0	0			1				0	
6.6.1	mac	2023-07-07	05:36:20	05:46:20	598229	5e5291ff6c3d7d2a79ec869e	3	1	main_z	11	advance_on_keypress_ZEE	44	stimuli_distractor_diamondtriangles.svg	stimuli_target_diamondrectangles.svg	31	yes	57	0	334	0	0			0	0			1				0	
6.6.1	mac	2023-07-07	05:36:20	05:46:22	600118	5e5291ff6c3d7d2a79ec869e	3	1	main_z	11	main_z	45	stimuli_distractor_diamondtriangles.svg	stimuli_target_trianglerectangles.svg	29	yes	44	1	922	0	0			0	0			1				0	
6.6.1	mac	2023-07-07	05:36:20	05:46:22	600118	5e5291ff6c3d7d2a79ec869e	3	1	main_z	11	advance_on_keypress_ZEE	46	stimuli_distractor_diamondtriangles.svg	stimuli_target_trianglerectangles.svg	29	yes	57	0	406	0	0			0	0			1				0	
6.6.1	mac	2023-07-07	05:36:20	05:46:25	603145	5e5291ff6c3d7d2a79ec869e	3	1	main_z	11	main_z	47	stimuli_distractor_diamondtriangles.svg	stimuli_distractor_diamondtriangles.svg	40	no	0	1	2000	0	0			0	0			1				0	
6.6.1	mac	2023-07-07	05:36:20	05:46:25	603145	5e5291ff6c3d7d2a79ec869e	3	1	main_z	11	advance_on_keypress_ZEE	48	stimuli_distractor_diamondtriangles.svg	stimuli_distractor_diamondtriangles.svg	40	no	57	0	481	0	0			0	0			1				0	
6.6.1	mac	2023-07-07	05:36:20	05:46:27	605133	5e5291ff6c3d7d2a79ec869e	3	1	main_z	11	main_z	49	stimuli_distractor_trianglediamonds.svg	stimuli_target_diamondsquares.svg	28	yes	44	1	870	0	0			0	0			1				0	
6.6.1	mac	2023-07-07	05:36:20	05:46:27	605133	5e5291ff6c3d7d2a79ec869e	3	1	main_z	11	advance_on_keypress_ZEE	50	stimuli_distractor_trianglediamonds.svg	stimuli_target_diamondsquares.svg	28	yes	57	0	370	0	0			0	0			1				0	
6.6.1	mac	2023-07-07	05:36:20	05:46:29	607083	5e5291ff6c3d7d2a79ec869e	3	1	main_z	11	main_z	51	stimuli_target_trianglesquares.svg	stimuli_distractor_trianglediamonds.svg	18	yes	44	1	955	0	0			0	0			1				0	
6.6.1	mac	2023-07-07	05:36:20	05:46:29	607083	5e5291ff6c3d7d2a79ec869e	3	1	main_z	11	advance_on_keypress_ZEE	52	stimuli_target_trianglesquares.svg	stimuli_distractor_trianglediamonds.svg	18	yes	57	0	317	0	0			0	0			1				0	
6.6.1	mac	2023-07-07	05:36:20	05:46:31	609068	5e5291ff6c3d7d2a79ec869e	3	1	main_z	11	main_z	53	stimuli_target_diamondsquares.svg	stimuli_distractor_trianglediamonds.svg	20	yes	44	1	1040	0	0			0	0			1				0	
6.6.1	mac	2023-07-07	05:36:20	05:46:31	609068	5e5291ff6c3d7d2a79ec869e	3	1	main_z	11	advance_on_keypress_ZEE	54	stimuli_target_diamondsquares.svg	stimuli_distractor_trianglediamonds.svg	20	yes	57	0	528	0	0			0	0			1				0	
6.6.1	mac	2023-07-07	05:36:20	05:46:33	611109	5e5291ff6c3d7d2a79ec869e	3	1	main_z	11	main_z	55	stimuli_distractor_trianglediamonds.svg	stimuli_target_trianglesquares.svg	26	yes	44	1	897	0	0			0	0			1				0	
6.6.1	mac	2023-07-07	05:36:20	05:46:33	611109	5e5291ff6c3d7d2a79ec869e	3	1	main_z	11	advance_on_keypress_ZEE	56	stimuli_distractor_trianglediamonds.svg	stimuli_target_trianglesquares.svg	26	yes	57	0	563	0	0			0	0			1				0	
6.6.1	mac	2023-07-07	05:36:20	05:46:35	613206	5e5291ff6c3d7d2a79ec869e	3	1	main_z	11	main_z	57	stimuli_distractor_diamondtriangles.svg	stimuli_target_squarediamonds.svg	16	yes	44	1	911	0	0			0	0			1				0	
6.6.1	mac	2023-07-07	05:36:20	05:46:35	613206	5e5291ff6c3d7d2a79ec869e	3	1	main_z	11	advance_on_keypress_ZEE	58	stimuli_distractor_diamondtriangles.svg	stimuli_target_squarediamonds.svg	16	yes	57	0	359	0	0			0	0			1				0	
6.6.1	mac	2023-07-07	05:36:20	05:46:38	616178	5e5291ff6c3d7d2a79ec869e	3	1	main_z	11	main_z	59	stimuli_distractor_trianglediamonds.svg	stimuli_distractor_trianglediamonds.svg	33	no	0	1	2000	0	0			0	0			1				0	
6.6.1	mac	2023-07-07	05:36:20	05:46:38	616178	5e5291ff6c3d7d2a79ec869e	3	1	main_z	11	advance_on_keypress_ZEE	60	stimuli_distractor_trianglediamonds.svg	stimuli_distractor_trianglediamonds.svg	33	no	57	0	414	0	0			0	0			1				0	
6.6.1	mac	2023-07-07	05:36:20	05:46:41	619228	5e5291ff6c3d7d2a79ec869e	3	1	main_z	11	main_z	61	stimuli_distractor_trianglediamonds.svg	stimuli_distractor_trianglediamonds.svg	34	no	0	1	2000	0	0			0	0			1				0	
6.6.1	mac	2023-07-07	05:36:20	05:46:41	619228	5e5291ff6c3d7d2a79ec869e	3	1	main_z	11	advance_on_keypress_ZEE	62	stimuli_distractor_trianglediamonds.svg	stimuli_distractor_trianglediamonds.svg	34	no	57	0	527	0	0			0	0			1				0	
6.6.1	mac	2023-07-07	05:36:20	05:46:44	621270	5e5291ff6c3d7d2a79ec869e	3	1	main_z	11	main_z	63	stimuli_target_diamondrectangles.svg	stimuli_distractor_diamondtriangles.svg	23	yes	44	1	892	0	0			0	0			1				0	
6.6.1	mac	2023-07-07	05:36:20	05:46:44	621270	5e5291ff6c3d7d2a79ec869e	3	1	main_z	11	advance_on_keypress_ZEE	64	stimuli_target_diamondrectangles.svg	stimuli_distractor_diamondtriangles.svg	23	yes	57	0	681	0	0			0	0			1				0	
6.6.1	mac	2023-07-07	05:36:20	05:46:46	623592	5e5291ff6c3d7d2a79ec869e	3	1	main_z	11	main_z	65	stimuli_target_squarediamonds.svg	stimuli_distractor_diamondtriangles.svg	8	yes	44	1	1014	0	0			0	0			1				0	
6.6.1	mac	2023-07-07	05:36:20	05:46:46	623592	5e5291ff6c3d7d2a79ec869e	3	1	main_z	11	advance_on_keypress_ZEE	66	stimuli_target_squarediamonds.svg	stimuli_distractor_diamondtriangles.svg	8	yes	57	0	799	0	0			0	0			1				0	
6.6.1	mac	2023-07-07	05:36:20	05:46:49	627029	5e5291ff6c3d7d2a79ec869e	3	1	main_z	11	main_z	67	stimuli_distractor_diamondtriangles.svg	stimuli_distractor_trianglediamonds.svg	37	no	0	1	2000	0	0			0	0			1				0	
6.6.1	mac	2023-07-07	05:36:20	05:46:49	627029	5e5291ff6c3d7d2a79ec869e	3	1	main_z	11	advance_on_keypress_ZEE	68	stimuli_distractor_diamondtriangles.svg	stimuli_distractor_trianglediamonds.svg	37	no	57	0	392	0	0			0	0			1				0	
6.6.1	mac	2023-07-07	05:36:20	05:46:51	628900	5e5291ff6c3d7d2a79ec869e	3	1	main_z	11	main_z	69	stimuli_distractor_diamondtriangles.svg	stimuli_target_squaretriangles.svg	15	yes	44	1	854	0	0			0	0			1				0	
6.6.1	mac	2023-07-07	05:36:20	05:46:51	628900	5e5291ff6c3d7d2a79ec869e	3	1	main_z	11	advance_on_keypress_ZEE	70	stimuli_distractor_diamondtriangles.svg	stimuli_target_squaretriangles.svg	15	yes	57	0	488	0	0			0	0			1				0	
6.6.1	mac	2023-07-07	05:36:20	05:46:53	630929	5e5291ff6c3d7d2a79ec869e	3	1	main_z	11	main_z	71	stimuli_target_squaretriangles.svg	stimuli_distractor_trianglediamonds.svg	3	yes	44	1	916	0	0			0	0			1				0	
6.6.1	mac	2023-07-07	05:36:20	05:46:53	630929	5e5291ff6c3d7d2a79ec869e	3	1	main_z	11	advance_on_keypress_ZEE	72	stimuli_target_squaretriangles.svg	stimuli_distractor_trianglediamonds.svg	3	yes	57	0	614	0	0			0	0			1				0	
6.6.1	mac	2023-07-07	05:36:20	05:46:55	633057	5e5291ff6c3d7d2a79ec869e	3	1	main_z	11	main_z	73	stimuli_target_diamondsquares.svg	stimuli_distractor_diamondtriangles.svg	24	yes	44	1	878	0	0			0	0			1				0	
6.6.1	mac	2023-07-07	05:36:20	05:46:55	633057	5e5291ff6c3d7d2a79ec869e	3	1	main_z	11	advance_on_keypress_ZEE	74	stimuli_target_diamondsquares.svg	stimuli_distractor_diamondtriangles.svg	24	yes	57	0	672	0	0			0	0			1				0	
6.6.1	mac	2023-07-07	05:36:20	05:46:57	635229	5e5291ff6c3d7d2a79ec869e	3	1	main_z	11	main_z	75	stimuli_target_rectanglediamonds.svg	stimuli_distractor_diamondtriangles.svg	6	yes	44	1	884	0	0			0	0			1				0	
6.6.1	mac	2023-07-07	05:36:20	05:46:57	635229	5e5291ff6c3d7d2a79ec869e	3	1	main_z	11	advance_on_keypress_ZEE	76	stimuli_target_rectanglediamonds.svg	stimuli_distractor_diamondtriangles.svg	6	yes	57	0	512	0	0			0	0			1				0	
6.6.1	mac	2023-07-07	05:36:20	05:47:01	638362	5e5291ff6c3d7d2a79ec869e	3	1	main_z	11	main_z	77	stimuli_distractor_trianglediamonds.svg	stimuli_distractor_diamondtriangles.svg	36	no	0	1	2000	0	0			0	0			1				0	
6.6.1	mac	2023-07-07	05:36:20	05:47:01	638362	5e5291ff6c3d7d2a79ec869e	3	1	main_z	11	advance_on_keypress_ZEE	78	stimuli_distractor_trianglediamonds.svg	stimuli_distractor_diamondtriangles.svg	36	no	57	0	517	0	0			0	0			1				0	
6.6.1	mac	2023-07-07	05:36:20	05:47:03	640367	5e5291ff6c3d7d2a79ec869e	3	1	main_z	11	main_z	79	stimuli_distractor_trianglediamonds.svg	stimuli_target_rectanglediamonds.svg	10	yes	44	1	855	0	0			0	0			1				0	
6.6.1	mac	2023-07-07	05:36:20	05:47:03	640367	5e5291ff6c3d7d2a79ec869e	3	1	main_z	11	advance_on_keypress_ZEE	80	stimuli_distractor_trianglediamonds.svg	stimuli_target_rectanglediamonds.svg	10	yes	57	0	516	0	0			0	0			1				0	
6.6.1	mac	2023-07-07	05:36:20	05:47:05	642401	5e5291ff6c3d7d2a79ec869e	3	1	main_z	11	main_z	81	stimuli_target_diamondrectangles.svg	stimuli_distractor_trianglediamonds.svg	19	yes	44	1	889	0	0			0	0			1				0	
6.6.1	mac	2023-07-07	05:36:20	05:47:05	642401	5e5291ff6c3d7d2a79ec869e	3	1	main_z	11	advance_on_keypress_ZEE	82	stimuli_target_diamondrectangles.svg	stimuli_distractor_trianglediamonds.svg	19	yes	57	0	422	0	0			0	0			1				0	
6.6.1	mac	2023-07-07	05:36:20	05:47:07	644310	5e5291ff6c3d7d2a79ec869e	3	1	main_z	11	main_z	83	stimuli_distractor_diamondtriangles.svg	stimuli_target_trianglesquares.svg	30	yes	44	1	865	0	0			0	0			1				0	
6.6.1	mac	2023-07-07	05:36:20	05:47:07	644310	5e5291ff6c3d7d2a79ec869e	3	1	main_z	11	advance_on_keypress_ZEE	84	stimuli_distractor_diamondtriangles.svg	stimuli_target_trianglesquares.svg	30	yes	57	0	408	0	0			0	0			1				0	
6.6.1	mac	2023-07-07	05:36:20	05:47:08	646228	5e5291ff6c3d7d2a79ec869e	3	1	main_z	11	main_z	85	stimuli_target_diamondsquares.svg	stimuli_distractor_diamondtriangles.svg	24	yes	44	1	883	0	0			0	0			1				0	
6.6.1	mac	2023-07-07	05:36:20	05:47:08	646228	5e5291ff6c3d7d2a79ec869e	3	1	main_z	11	advance_on_keypress_ZEE	86	stimuli_target_diamondsquares.svg	stimuli_distractor_diamondtriangles.svg	24	yes	57	0	349	0	0			0	0			1				0	
6.6.1	mac	2023-07-07	05:36:20	05:47:10	648128	5e5291ff6c3d7d2a79ec869e	3	1	main_z	11	main_z	87	stimuli_distractor_trianglediamonds.svg	stimuli_target_rectangletriangles.svg	9	yes	44	1	916	0	0			0	0			1				0	
6.6.1	mac	2023-07-07	05:36:20	05:47:10	648128	5e5291ff6c3d7d2a79ec869e	3	1	main_z	11	advance_on_keypress_ZEE	88	stimuli_distractor_trianglediamonds.svg	stimuli_target_rectangletriangles.svg	9	yes	57	0	310	0	0			0	0			1				0	
6.6.1	mac	2023-07-07	05:36:20	05:47:12	650056	5e5291ff6c3d7d2a79ec869e	3	1	main_z	11	main_z	89	stimuli_distractor_diamondtriangles.svg	stimuli_target_rectangletriangles.svg	13	yes	44	1	994	0	0			0	0			1				0	
6.6.1	mac	2023-07-07	05:36:20	05:47:12	650056	5e5291ff6c3d7d2a79ec869e	3	1	main_z	11	advance_on_keypress_ZEE	90	stimuli_distractor_diamondtriangles.svg	stimuli_target_rectangletriangles.svg	13	yes	57	0	309	0	0			0	0			1				0	
6.6.1	mac	2023-07-07	05:36:20	05:47:14	651797	5e5291ff6c3d7d2a79ec869e	3	1	main_z	11	main_z	91	stimuli_target_diamondrectangles.svg	stimuli_distractor_diamondtriangles.svg	23	yes	44	1	819	0	0			0	0			1				0	
6.6.1	mac	2023-07-07	05:36:20	05:47:14	651797	5e5291ff6c3d7d2a79ec869e	3	1	main_z	11	advance_on_keypress_ZEE	92	stimuli_target_diamondrectangles.svg	stimuli_distractor_diamondtriangles.svg	23	yes	57	0	449	0	0			0	0			1				0	
6.6.1	mac	2023-07-07	05:36:20	05:47:16	654191	5e5291ff6c3d7d2a79ec869e	3	1	main_z	11	main_z	93	stimuli_target_trianglerectangles.svg	stimuli_distractor_diamondtriangles.svg	21	yes	44	1	1313	0	0			0	0			1				0	
6.6.1	mac	2023-07-07	05:36:20	05:47:16	654191	5e5291ff6c3d7d2a79ec869e	3	1	main_z	11	advance_on_keypress_ZEE	94	stimuli_target_trianglerectangles.svg	stimuli_distractor_diamondtriangles.svg	21	yes	57	0	589	0	0			0	0			1				0	
6.6.1	mac	2023-07-07	05:36:20	05:47:19	656350	5e5291ff6c3d7d2a79ec869e	3	1	main_z	11	main_z	95	stimuli_target_trianglerectangles.svg	stimuli_distractor_trianglediamonds.svg	17	yes	44	1	939	0	0			0	0			1				0	
6.6.1	mac	2023-07-07	05:36:20	05:47:19	656350	5e5291ff6c3d7d2a79ec869e	3	1	main_z	11	advance_on_keypress_ZEE	96	stimuli_target_trianglerectangles.svg	stimuli_distractor_trianglediamonds.svg	17	yes	57	0	281	0	0			0	0			1				0	
6.6.1	mac	2023-07-07	05:36:20	05:47:21	659263	5e5291ff6c3d7d2a79ec869e	3	1	main_z	11	main_z	97	stimuli_distractor_diamondtriangles.svg	stimuli_distractor_diamondtriangles.svg	40	no	0	1	2000	0	0			0	0			1				0	
6.6.1	mac	2023-07-07	05:36:20	05:47:21	659263	5e5291ff6c3d7d2a79ec869e	3	1	main_z	11	advance_on_keypress_ZEE	98	stimuli_distractor_diamondtriangles.svg	stimuli_distractor_diamondtriangles.svg	40	no	57	0	638	0	0			0	0			1				0	
6.6.1	mac	2023-07-07	05:36:20	05:47:24	661430	5e5291ff6c3d7d2a79ec869e	3	1	main_z	11	main_z	99	stimuli_distractor_diamondtriangles.svg	stimuli_target_diamondsquares.svg	32	yes	44	1	901	0	0			0	0			1				0	
6.6.1	mac	2023-07-07	05:36:20	05:47:24	661430	5e5291ff6c3d7d2a79ec869e	3	1	main_z	11	advance_on_keypress_ZEE	100	stimuli_distractor_diamondtriangles.svg	stimuli_target_diamondsquares.svg	32	yes	57	0	388	0	0			0	0			1				0	
6.6.1	mac	2023-07-07	05:36:20	05:47:26	663480	5e5291ff6c3d7d2a79ec869e	3	1	main_z	11	main_z	101	stimuli_distractor_diamondtriangles.svg	stimuli_target_squarediamonds.svg	16	yes	44	1	1034	0	0			0	0			1				0	
6.6.1	mac	2023-07-07	05:36:20	05:47:26	663480	5e5291ff6c3d7d2a79ec869e	3	1	main_z	11	advance_on_keypress_ZEE	102	stimuli_distractor_diamondtriangles.svg	stimuli_target_squarediamonds.svg	16	yes	57	0	293	0	0			0	0			1				0	
6.6.1	mac	2023-07-07	05:36:20	05:47:27	665265	5e5291ff6c3d7d2a79ec869e	3	1	main_z	11	main_z	103	stimuli_target_trianglesquares.svg	stimuli_distractor_trianglediamonds.svg	18	yes	44	1	869	0	0			0	0			1				0	
6.6.1	mac	2023-07-07	05:36:20	05:47:27	665265	5e5291ff6c3d7d2a79ec869e	3	1	main_z	11	advance_on_keypress_ZEE	104	stimuli_target_trianglesquares.svg	stimuli_distractor_trianglediamonds.svg	18	yes	57	0	312	0	0			0	0			1				0	
6.6.1	mac	2023-07-07	05:36:20	05:47:29	667033	5e5291ff6c3d7d2a79ec869e	3	1	main_z	11	main_z	105	stimuli_distractor_diamondtriangles.svg	stimuli_target_trianglerectangles.svg	29	yes	44	1	837	0	0			0	0			1				0	
6.6.1	mac	2023-07-07	05:36:20	05:47:29	667033	5e5291ff6c3d7d2a79ec869e	3	1	main_z	11	advance_on_keypress_ZEE	106	stimuli_distractor_diamondtriangles.svg	stimuli_target_trianglerectangles.svg	29	yes	57	0	305	0	0			0	0			1				0	
6.6.1	mac	2023-07-07	05:36:20	05:47:31	668884	5e5291ff6c3d7d2a79ec869e	3	1	main_z	11	main_z	107	stimuli_distractor_trianglediamonds.svg	stimuli_target_squarediamonds.svg	12	yes	44	1	922	0	0			0	0			1				0	
6.6.1	mac	2023-07-07	05:36:20	05:47:31	668884	5e5291ff6c3d7d2a79ec869e	3	1	main_z	11	advance_on_keypress_ZEE	108	stimuli_distractor_trianglediamonds.svg	stimuli_target_squarediamonds.svg	12	yes	57	0	314	0	0			0	0			1				0	
6.6.1	mac	2023-07-07	05:36:20	05:47:33	670696	5e5291ff6c3d7d2a79ec869e	3	1	main_z	11	main_z	109	stimuli_distractor_trianglediamonds.svg	stimuli_target_diamondsquares.svg	28	yes	44	1	867	0	0			0	0			1				0	
6.6.1	mac	2023-07-07	05:36:20	05:47:33	670696	5e5291ff6c3d7d2a79ec869e	3	1	main_z	11	advance_on_keypress_ZEE	110	stimuli_distractor_trianglediamonds.svg	stimuli_target_diamondsquares.svg	28	yes	57	0	321	0	0			0	0			1				0	
6.6.1	mac	2023-07-07	05:36:20	05:47:35	672672	5e5291ff6c3d7d2a79ec869e	3	1	main_z	11	main_z	111	stimuli_distractor_trianglediamonds.svg	stimuli_target_squaretriangles.svg	11	yes	44	1	1027	0	0			0	0			1				0	
6.6.1	mac	2023-07-07	05:36:20	05:47:35	672672	5e5291ff6c3d7d2a79ec869e	3	1	main_z	11	advance_on_keypress_ZEE	112	stimuli_distractor_trianglediamonds.svg	stimuli_target_squaretriangles.svg	11	yes	57	0	362	0	0			0	0			1				0	
6.6.1	mac	2023-07-07	05:36:20	05:47:37	674443	5e5291ff6c3d7d2a79ec869e	3	1	main_z	11	main_z	113	stimuli_distractor_trianglediamonds.svg	stimuli_target_trianglerectangles.svg	25	yes	44	1	797	0	0			0	0			1				0	
6.6.1	mac	2023-07-07	05:36:20	05:47:37	674443	5e5291ff6c3d7d2a79ec869e	3	1	main_z	11	advance_on_keypress_ZEE	114	stimuli_distractor_trianglediamonds.svg	stimuli_target_trianglerectangles.svg	25	yes	57	0	277	0	0			0	0			1				0	
6.6.1	mac	2023-07-07	05:36:20	05:47:38	676170	5e5291ff6c3d7d2a79ec869e	3	1	main_z	11	main_z	115	stimuli_distractor_trianglediamonds.svg	stimuli_target_rectanglediamonds.svg	10	yes	44	1	825	0	0			0	0			1				0	
6.6.1	mac	2023-07-07	05:36:20	05:47:38	676170	5e5291ff6c3d7d2a79ec869e	3	1	main_z	11	advance_on_keypress_ZEE	116	stimuli_distractor_trianglediamonds.svg	stimuli_target_rectanglediamonds.svg	10	yes	57	0	279	0	0			0	0			1				0	
6.6.1	mac	2023-07-07	05:36:20	05:47:40	677894	5e5291ff6c3d7d2a79ec869e	3	1	main_z	11	main_z	117	stimuli_distractor_trianglediamonds.svg	stimuli_target_trianglesquares.svg	26	yes	44	1	832	0	0			0	0			1				0	
6.6.1	mac	2023-07-07	05:36:20	05:47:40	677894	5e5291ff6c3d7d2a79ec869e	3	1	main_z	11	advance_on_keypress_ZEE	118	stimuli_distractor_trianglediamonds.svg	stimuli_target_trianglesquares.svg	26	yes	57	0	279	0	0			0	0			1				0	
6.6.1	mac	2023-07-07	05:36:20	05:47:43	680794	5e5291ff6c3d7d2a79ec869e	3	1	main_z	11	main_z	119	stimuli_distractor_diamondtriangles.svg	stimuli_distractor_trianglediamonds.svg	38	no	0	1	2000	0	0			0	0			1				0	
6.6.1	mac	2023-07-07	05:36:20	05:47:43	680794	5e5291ff6c3d7d2a79ec869e	3	1	main_z	11	advance_on_keypress_ZEE	120	stimuli_distractor_diamondtriangles.svg	stimuli_distractor_trianglediamonds.svg	38	no	57	0	426	0	0			0	0			1				0	
6.6.1	mac	2023-07-07	05:36:20	05:47:45	682794	5e5291ff6c3d7d2a79ec869e	3	1	main_z	11	main_z	121	stimuli_target_rectanglediamonds.svg	stimuli_distractor_diamondtriangles.svg	6	yes	44	1	932	0	0			0	0			1				0	
6.6.1	mac	2023-07-07	05:36:20	05:47:45	682794	5e5291ff6c3d7d2a79ec869e	3	1	main_z	11	advance_on_keypress_ZEE	122	stimuli_target_rectanglediamonds.svg	stimuli_distractor_diamondtriangles.svg	6	yes	57	0	263	0	0			0	0			1				0	
6.6.1	mac	2023-07-07	05:36:20	05:47:47	684545	5e5291ff6c3d7d2a79ec869e	3	1	main_z	11	main_z	123	stimuli_distractor_diamondtriangles.svg	stimuli_target_diamondrectangles.svg	31	yes	44	1	850	0	0			0	0			1				0	
6.6.1	mac	2023-07-07	05:36:20	05:47:47	684545	5e5291ff6c3d7d2a79ec869e	3	1	main_z	11	advance_on_keypress_ZEE	124	stimuli_distractor_diamondtriangles.svg	stimuli_target_diamondrectangles.svg	31	yes	57	0	300	0	0			0	0			1				0	
6.6.1	mac	2023-07-07	05:36:20	05:47:49	686295	5e5291ff6c3d7d2a79ec869e	3	1	main_z	11	main_z	125	stimuli_target_diamondsquares.svg	stimuli_distractor_trianglediamonds.svg	20	yes	44	1	817	0	0			0	0			1				0	
6.6.1	mac	2023-07-07	05:36:20	05:47:49	686295	5e5291ff6c3d7d2a79ec869e	3	1	main_z	11	advance_on_keypress_ZEE	126	stimuli_target_diamondsquares.svg	stimuli_distractor_trianglediamonds.svg	20	yes	57	0	300	0	0			0	0			1				0	
6.6.1	mac	2023-07-07	05:36:20	05:47:51	689228	5e5291ff6c3d7d2a79ec869e	3	1	main_z	11	main_z	127	stimuli_distractor_trianglediamonds.svg	stimuli_distractor_diamondtriangles.svg	35	no	0	1	2000	0	0			0	0			1				0	
6.6.1	mac	2023-07-07	05:36:20	05:47:51	689228	5e5291ff6c3d7d2a79ec869e	3	1	main_z	11	advance_on_keypress_ZEE	128	stimuli_distractor_trianglediamonds.svg	stimuli_distractor_diamondtriangles.svg	35	no	57	0	505	0	0			0	0			1				0	
6.6.1	mac	2023-07-07	05:36:20	05:47:53	691190	5e5291ff6c3d7d2a79ec869e	3	1	main_z	11	main_z	129	stimuli_distractor_diamondtriangles.svg	stimuli_target_rectanglediamonds.svg	14	yes	44	1	826	0	0			0	0			1				0	
6.6.1	mac	2023-07-07	05:36:20	05:47:53	691190	5e5291ff6c3d7d2a79ec869e	3	1	main_z	11	advance_on_keypress_ZEE	130	stimuli_distractor_diamondtriangles.svg	stimuli_target_rectanglediamonds.svg	14	yes	57	0	316	0	0			0	0			1				0	
6.6.1	mac	2023-07-07	05:36:20	05:47:55	693025	5e5291ff6c3d7d2a79ec869e	3	1	main_z	11	main_z	131	stimuli_target_rectangletriangles.svg	stimuli_distractor_trianglediamonds.svg	1	yes	44	1	896	0	0			0	0			1				0	
6.6.1	mac	2023-07-07	05:36:20	05:47:55	693025	5e5291ff6c3d7d2a79ec869e	3	1	main_z	11	advance_on_keypress_ZEE	132	stimuli_target_rectangletriangles.svg	stimuli_distractor_trianglediamonds.svg	1	yes	57	0	271	0	0			0	0			1				0	
6.6.1	mac	2023-07-07	05:36:20	05:47:58	695927	5e5291ff6c3d7d2a79ec869e	3	1	main_z	11	main_z	133	stimuli_distractor_trianglediamonds.svg	stimuli_distractor_trianglediamonds.svg	34	no	0	1	2000	0	0			0	0			1				0	
6.6.1	mac	2023-07-07	05:36:20	05:47:58	695927	5e5291ff6c3d7d2a79ec869e	3	1	main_z	11	advance_on_keypress_ZEE	134	stimuli_distractor_trianglediamonds.svg	stimuli_distractor_trianglediamonds.svg	34	no	57	0	430	0	0			0	0			1				0	
6.6.1	mac	2023-07-07	05:36:20	05:48:00	697898	5e5291ff6c3d7d2a79ec869e	3	1	main_z	11	main_z	135	stimuli_target_trianglesquares.svg	stimuli_distractor_diamondtriangles.svg	22	yes	44	1	902	0	0			0	0			1				0	
6.6.1	mac	2023-07-07	05:36:20	05:48:00	697898	5e5291ff6c3d7d2a79ec869e	3	1	main_z	11	advance_on_keypress_ZEE	136	stimuli_target_trianglesquares.svg	stimuli_distractor_diamondtriangles.svg	22	yes	57	0	284	0	0			0	0			1				0	
6.6.1	mac	2023-07-07	05:36:20	05:48:02	699693	5e5291ff6c3d7d2a79ec869e	3	1	main_z	11	main_z	137	stimuli_distractor_trianglediamonds.svg	stimuli_target_diamondrectangles.svg	27	yes	44	1	881	0	0			0	0			1				0	
6.6.1	mac	2023-07-07	05:36:20	05:48:02	699693	5e5291ff6c3d7d2a79ec869e	3	1	main_z	11	advance_on_keypress_ZEE	138	stimuli_distractor_trianglediamonds.svg	stimuli_target_diamondrectangles.svg	27	yes	57	0	254	0	0			0	0			1				0	
6.6.1	mac	2023-07-07	05:36:20	05:48:05	702578	5e5291ff6c3d7d2a79ec869e	3	1	main_z	11	main_z	139	stimuli_distractor_trianglediamonds.svg	stimuli_distractor_diamondtriangles.svg	36	no	0	1	2000	0	0			0	0			1				0	
6.6.1	mac	2023-07-07	05:36:20	05:48:05	702578	5e5291ff6c3d7d2a79ec869e	3	1	main_z	11	advance_on_keypress_ZEE	140	stimuli_distractor_trianglediamonds.svg	stimuli_distractor_diamondtriangles.svg	36	no	57	0	610	0	0			0	0			1				0	
6.6.1	mac	2023-07-07	05:36:20	05:48:07	704682	5e5291ff6c3d7d2a79ec869e	3	1	main_z	11	main_z	141	stimuli_distractor_diamondtriangles.svg	stimuli_target_squaretriangles.svg	15	yes	44	1	869	0	0			0	0			1				0	
6.6.1	mac	2023-07-07	05:36:20	05:48:07	704682	5e5291ff6c3d7d2a79ec869e	3	1	main_z	11	advance_on_keypress_ZEE	142	stimuli_distractor_diamondtriangles.svg	stimuli_target_squaretriangles.svg	15	yes	57	0	397	0	0			0	0			1				0	
6.6.1	mac	2023-07-07	05:36:20	05:48:10	707712	5e5291ff6c3d7d2a79ec869e	3	1	main_z	11	main_z	143	stimuli_distractor_diamondtriangles.svg	stimuli_distractor_diamondtriangles.svg	39	no	0	1	2000	0	0			0	0			1				0	
6.6.1	mac	2023-07-07	05:36:20	05:48:10	707712	5e5291ff6c3d7d2a79ec869e	3	1	main_z	11	advance_on_keypress_ZEE	144	stimuli_distractor_diamondtriangles.svg	stimuli_distractor_diamondtriangles.svg	39	no	57	0	372	0	0			0	0			1				0	
6.6.1	mac	2023-07-07	05:36:20	05:48:13	710711	5e5291ff6c3d7d2a79ec869e	3	1	main_z	11	main_z	145	stimuli_distractor_diamondtriangles.svg	stimuli_distractor_trianglediamonds.svg	37	no	0	1	2000	0	0			0	0			1				0	
6.6.1	mac	2023-07-07	05:36:20	05:48:13	710711	5e5291ff6c3d7d2a79ec869e	3	1	main_z	11	advance_on_keypress_ZEE	146	stimuli_distractor_diamondtriangles.svg	stimuli_distractor_trianglediamonds.svg	37	no	57	0	475	0	0			0	0			1				0	
6.6.1	mac	2023-07-07	05:36:20	05:48:16	713812	5e5291ff6c3d7d2a79ec869e	3	1	main_z	11	main_z	147	stimuli_distractor_trianglediamonds.svg	stimuli_distractor_trianglediamonds.svg	33	no	0	1	2000	0	0			0	0			1				0	
6.6.1	mac	2023-07-07	05:36:20	05:48:16	713812	5e5291ff6c3d7d2a79ec869e	3	1	main_z	11	advance_on_keypress_ZEE	148	stimuli_distractor_trianglediamonds.svg	stimuli_distractor_trianglediamonds.svg	33	no	57	0	430	0	0			0	0			1				0	
6.6.1	mac	2023-07-07	05:36:20	05:48:18	715918	5e5291ff6c3d7d2a79ec869e	3	1	main_z	11	main_z	149	stimuli_target_rectangletriangles.svg	stimuli_distractor_diamondtriangles.svg	5	yes	44	1	1040	0	0			0	0			1				0	
6.6.1	mac	2023-07-07	05:36:20	05:48:18	715918	5e5291ff6c3d7d2a79ec869e	3	1	main_z	11	advance_on_keypress_ZEE	150	stimuli_target_rectangletriangles.svg	stimuli_distractor_diamondtriangles.svg	5	yes	57	0	533	0	0			0	0			1				0	
6.6.1	mac	2023-07-07	05:36:20	05:48:20	717926	5e5291ff6c3d7d2a79ec869e	3	1	main_z	11	main_z	151	stimuli_target_rectanglediamonds.svg	stimuli_distractor_trianglediamonds.svg	2	yes	44	1	848	0	0			0	0			1				0	
6.6.1	mac	2023-07-07	05:36:20	05:48:20	717926	5e5291ff6c3d7d2a79ec869e	3	1	main_z	11	advance_on_keypress_ZEE	152	stimuli_target_rectanglediamonds.svg	stimuli_distractor_trianglediamonds.svg	2	yes	57	0	294	0	0			0	0			1				0	
6.6.1	mac	2023-07-07	05:36:20	05:48:22	719671	5e5291ff6c3d7d2a79ec869e	3	1	main_z	11	main_z	153	stimuli_target_squaretriangles.svg	stimuli_distractor_trianglediamonds.svg	3	yes	44	1	826	0	0			0	0			1				0	
6.6.1	mac	2023-07-07	05:36:20	05:48:22	719671	5e5291ff6c3d7d2a79ec869e	3	1	main_z	11	advance_on_keypress_ZEE	154	stimuli_target_squaretriangles.svg	stimuli_distractor_trianglediamonds.svg	3	yes	57	0	426	0	0			0	0			1				0	
6.6.1	mac	2023-07-07	05:36:20	05:48:24	721566	5e5291ff6c3d7d2a79ec869e	3	1	main_z	11	main_z	155	stimuli_target_squaretriangles.svg	stimuli_distractor_diamondtriangles.svg	7	yes	44	1	855	0	0			0	0			1				0	
6.6.1	mac	2023-07-07	05:36:20	05:48:24	721566	5e5291ff6c3d7d2a79ec869e	3	1	main_z	11	advance_on_keypress_ZEE	156	stimuli_target_squaretriangles.svg	stimuli_distractor_diamondtriangles.svg	7	yes	57	0	349	0	0			0	0			1				0	
6.6.1	mac	2023-07-07	05:36:20	05:48:26	723315	5e5291ff6c3d7d2a79ec869e	3	1	main_z	11	main_z	157	stimuli_target_squarediamonds.svg	stimuli_distractor_diamondtriangles.svg	8	yes	44	1	770	0	0			0	0			1				0	
6.6.1	mac	2023-07-07	05:36:20	05:48:26	723315	5e5291ff6c3d7d2a79ec869e	3	1	main_z	11	advance_on_keypress_ZEE	158	stimuli_target_squarediamonds.svg	stimuli_distractor_diamondtriangles.svg	8	yes	57	0	327	0	0			0	0			1				0	
6.6.1	mac	2023-07-07	05:36:20	05:48:27	725117	5e5291ff6c3d7d2a79ec869e	3	1	main_z	11	main_z	159	stimuli_target_squarediamonds.svg	stimuli_distractor_trianglediamonds.svg	4	yes	44	1	855	0	0			0	0			1				0	
6.6.1	mac	2023-07-07	05:36:20	05:48:27	725117	5e5291ff6c3d7d2a79ec869e	3	1	main_z	11	advance_on_keypress_ZEE	160	stimuli_target_squarediamonds.svg	stimuli_distractor_trianglediamonds.svg	4	yes	57	0	313	0	0			0	0			1				0	
6.6.1	mac	2023-07-07	05:36:20	05:48:27	725117	5e5291ff6c3d7d2a79ec869e	3	1	headphonecheck_calibration	14	headphonecheck_calibrationIntro	1	stimuli_target_squarediamonds.svg	stimuli_distractor_trianglediamonds.svg	4	yes	calibrationButton	0	1653	0	0			0	0			1				0	
6.6.1	mac	2023-07-07	05:36:20	05:48:27	725117	5e5291ff6c3d7d2a79ec869e	3	1	headphonecheck_testphase	15	test_collectResponse	3	stimuli_target_squarediamonds.svg	stimuli_distractor_trianglediamonds.svg	4	yes	second	1	716	1	1	antiphase_hc_iso.wav	2	0	0			1				0	
6.6.1	mac	2023-07-07	05:36:20	05:48:27	725117	5e5291ff6c3d7d2a79ec869e	3	1	headphonecheck_testphase	15	test_collectResponse	6	stimuli_target_squarediamonds.svg	stimuli_distractor_trianglediamonds.svg	4	yes	second	1	821	2	5	antiphase_hc_osi.wav	2	0	0			1				0	
6.6.1	mac	2023-07-07	05:36:20	05:48:27	725117	5e5291ff6c3d7d2a79ec869e	3	1	headphonecheck_testphase	15	test_collectResponse	9	stimuli_target_squarediamonds.svg	stimuli_distractor_trianglediamonds.svg	4	yes	third	1	796	3	2	antiphase_hc_ios.wav	3	0	0			1				0	
6.6.1	mac	2023-07-07	05:36:20	05:48:27	725117	5e5291ff6c3d7d2a79ec869e	3	1	headphonecheck_testphase	15	test_collectResponse	12	stimuli_target_squarediamonds.svg	stimuli_distractor_trianglediamonds.svg	4	yes	first	1	827	4	4	antiphase_hc_sio.wav	1	0	0			1				0	
6.6.1	mac	2023-07-07	05:36:20	05:48:27	725117	5e5291ff6c3d7d2a79ec869e	3	1	headphonecheck_testphase	15	test_collectResponse	15	stimuli_target_squarediamonds.svg	stimuli_distractor_trianglediamonds.svg	4	yes	first	1	784	5	3	antiphase_hc_soi.wav	1	0	0			1				0	
6.6.1	mac	2023-07-07	05:36:20	05:48:27	725117	5e5291ff6c3d7d2a79ec869e	3	1	headphonecheck_testphase	15	test_collectResponse	18	stimuli_target_squarediamonds.svg	stimuli_distractor_trianglediamonds.svg	4	yes	third	1	794	6	6	antiphase_hc_ois.wav	3	0	0			1				0	
6.6.1	mac	2023-07-07	05:36:20	05:48:27	725117	5e5291ff6c3d7d2a79ec869e	3	1	stereocheck_calibration	17	stereocheck_calibrationIntro	1	stimuli_target_squarediamonds.svg	stimuli_distractor_trianglediamonds.svg	4	yes	stereocheck_calibrationButton	0	4324	6	6	antiphase_hc_ois.wav	3	0	0			1				0	
6.6.1	mac	2023-07-07	05:36:20	05:48:27	725117	5e5291ff6c3d7d2a79ec869e	3	1	stereocheck_testphase	18	stereocheck_test_collectResponse	3	stimuli_target_squarediamonds.svg	stimuli_distractor_trianglediamonds.svg	4	yes	stereocheck_left	1	951	6	6	antiphase_hc_ois.wav	3	1	2	noise_calib_stim_LEFT.wav	1	1				0	
6.6.1	mac	2023-07-07	05:36:20	05:48:27	725117	5e5291ff6c3d7d2a79ec869e	3	1	stereocheck_testphase	18	stereocheck_test_collectResponse	6	stimuli_target_squarediamonds.svg	stimuli_distractor_trianglediamonds.svg	4	yes	stereocheck_right	1	932	6	6	antiphase_hc_ois.wav	3	2	4	noise_calib_stim_RIGHT.wav	2	1				0	
6.6.1	mac	2023-07-07	05:36:20	05:48:27	725117	5e5291ff6c3d7d2a79ec869e	3	1	stereocheck_testphase	18	stereocheck_test_collectResponse	9	stimuli_target_squarediamonds.svg	stimuli_distractor_trianglediamonds.svg	4	yes	stereocheck_left	1	1149	6	6	antiphase_hc_ois.wav	3	3	1	noise_calib_stim_LEFT.wav	1	1				0	
6.6.1	mac	2023-07-07	05:36:20	05:48:27	725117	5e5291ff6c3d7d2a79ec869e	3	1	stereocheck_testphase	18	stereocheck_test_collectResponse	12	stimuli_target_squarediamonds.svg	stimuli_distractor_trianglediamonds.svg	4	yes	stereocheck_right	1	999	6	6	antiphase_hc_ois.wav	3	4	6	noise_calib_stim_RIGHT.wav	2	1				0	
6.6.1	mac	2023-07-07	05:36:20	05:48:27	725117	5e5291ff6c3d7d2a79ec869e	3	1	stereocheck_testphase	18	stereocheck_test_collectResponse	15	stimuli_target_squarediamonds.svg	stimuli_distractor_trianglediamonds.svg	4	yes	stereocheck_right	1	514	6	6	antiphase_hc_ois.wav	3	5	5	noise_calib_stim_RIGHT.wav	2	1				0	
6.6.1	mac	2023-07-07	05:36:20	05:48:27	725117	5e5291ff6c3d7d2a79ec869e	3	1	stereocheck_testphase	18	stereocheck_test_collectResponse	18	stimuli_target_squarediamonds.svg	stimuli_distractor_trianglediamonds.svg	4	yes	stereocheck_left	1	821	6	6	antiphase_hc_ois.wav	3	6	3	noise_calib_stim_LEFT.wav	1	1				0	
6.6.1	mac	2023-07-07	05:36:20	05:48:27	725117	5e5291ff6c3d7d2a79ec869e	3	1	DL_practice	21	DL_practice	2	stimuli_target_squarediamonds.svg	stimuli_distractor_trianglediamonds.svg	4	yes	pa	1	2016	6	6	antiphase_hc_ois.wav	3	6	3	noise_calib_stim_LEFT.wav	1	29	blb_dichoticlistening_pa-pa.mp3	pa	pa	0	left
6.6.1	mac	2023-07-07	05:36:20	05:48:27	725117	5e5291ff6c3d7d2a79ec869e	3	1	DL_practice	21	DL_practice	3	stimuli_target_squarediamonds.svg	stimuli_distractor_trianglediamonds.svg	4	yes	pa	0	48	6	6	antiphase_hc_ois.wav	3	6	3	noise_calib_stim_LEFT.wav	1	8	blb_dichoticlistening_da-da.mp3	da	da	0	other
6.6.1	mac	2023-07-07	05:36:20	05:48:27	725117	5e5291ff6c3d7d2a79ec869e	3	1	DL_practice	21	DL_practice	4	stimuli_target_squarediamonds.svg	stimuli_distractor_trianglediamonds.svg	4	yes	ka	1	2630	6	6	antiphase_hc_ois.wav	3	6	3	noise_calib_stim_LEFT.wav	1	23	blb_dichoticlistening_ka-pa.mp3	ka	pa	1	left
6.6.1	mac	2023-07-07	05:36:20	05:48:27	725117	5e5291ff6c3d7d2a79ec869e	3	1	DL_practice	21	DL_practice	5	stimuli_target_squarediamonds.svg	stimuli_distractor_trianglediamonds.svg	4	yes	da	1	1738	6	6	antiphase_hc_ois.wav	3	6	3	noise_calib_stim_LEFT.wav	1	7	blb_dichoticlistening_da-ba.mp3	da	ba	1	left
6.6.1	mac	2023-07-07	05:36:20	05:48:27	725117	5e5291ff6c3d7d2a79ec869e	3	1	DL_practice	21	DL_practice	6	stimuli_target_squarediamonds.svg	stimuli_distractor_trianglediamonds.svg	4	yes	da	0	1929	6	6	antiphase_hc_ois.wav	3	6	3	noise_calib_stim_LEFT.wav	1	15	blb_dichoticlistening_ga-ga.mp3	ga	ga	0	other
6.6.1	mac	2023-07-07	05:36:20	05:48:27	725117	5e5291ff6c3d7d2a79ec869e	3	1	DL_practice	21	DL_practice	7	stimuli_target_squarediamonds.svg	stimuli_distractor_trianglediamonds.svg	4	yes	ta	1	1913	6	6	antiphase_hc_ois.wav	3	6	3	noise_calib_stim_LEFT.wav	1	36	blb_dichoticlistening_ta-ta.mp3	ta	ta	0	left
6.6.1	mac	2023-07-07	05:36:20	05:48:27	725117	5e5291ff6c3d7d2a79ec869e	3	1	DL_practice	21	DL_practice	8	stimuli_target_squarediamonds.svg	stimuli_distractor_trianglediamonds.svg	4	yes	ga	1	2141	6	6	antiphase_hc_ois.wav	3	6	3	noise_calib_stim_LEFT.wav	1	18	blb_dichoticlistening_ga-ta.mp3	ga	ta	1	left
6.6.1	mac	2023-07-07	05:36:20	05:48:27	725117	5e5291ff6c3d7d2a79ec869e	3	1	DL_practice	21	DL_practice	9	stimuli_target_squarediamonds.svg	stimuli_distractor_trianglediamonds.svg	4	yes	ba	1	1537	6	6	antiphase_hc_ois.wav	3	6	3	noise_calib_stim_LEFT.wav	1	1	blb_dichoticlistening_ba-ba.mp3	ba	ba	0	left
6.6.1	mac	2023-07-07	05:36:20	05:48:27	725117	5e5291ff6c3d7d2a79ec869e	3	1	DL_practice	21	DL_practice	10	stimuli_target_squarediamonds.svg	stimuli_distractor_trianglediamonds.svg	4	yes	ka	1	1873	6	6	antiphase_hc_ois.wav	3	6	3	noise_calib_stim_LEFT.wav	1	22	blb_dichoticlistening_ka-ka.mp3	ka	ka	0	left
6.6.1	mac	2023-07-07	05:36:20	05:48:27	725117	5e5291ff6c3d7d2a79ec869e	3	1	DL_test	23	DL_test	1	stimuli_target_squarediamonds.svg	stimuli_distractor_trianglediamonds.svg	4	yes	ka	1	1471	6	6	antiphase_hc_ois.wav	3	6	3	noise_calib_stim_LEFT.wav	1	24	blb_dichoticlistening_ka-ta.mp3	ka	ta	1	left
6.6.1	mac	2023-07-07	05:36:20	05:48:27	725117	5e5291ff6c3d7d2a79ec869e	3	1	DL_test	23	DL_test	2	stimuli_target_squarediamonds.svg	stimuli_distractor_trianglediamonds.svg	4	yes	pa	1	1951	6	6	antiphase_hc_ois.wav	3	6	3	noise_calib_stim_LEFT.wav	1	25	blb_dichoticlistening_pa-ba.mp3	pa	ba	1	left
6.6.1	mac	2023-07-07	05:36:20	05:48:27	725117	5e5291ff6c3d7d2a79ec869e	3	1	DL_test	23	DL_test	3	stimuli_target_squarediamonds.svg	stimuli_distractor_trianglediamonds.svg	4	yes	ba	0	2428	6	6	antiphase_hc_ois.wav	3	6	3	noise_calib_stim_LEFT.wav	1	17	blb_dichoticlistening_ga-pa.mp3	ga	pa	1	other
6.6.1	mac	2023-07-07	05:36:20	05:48:27	725117	5e5291ff6c3d7d2a79ec869e	3	1	DL_test	23	DL_test	4	stimuli_target_squarediamonds.svg	stimuli_distractor_trianglediamonds.svg	4	yes	ba	1	1596	6	6	antiphase_hc_ois.wav	3	6	3	noise_calib_stim_LEFT.wav	1	3	blb_dichoticlistening_ba-ga.mp3	ba	ga	1	left
6.6.1	mac	2023-07-07	05:36:20	05:48:27	725117	5e5291ff6c3d7d2a79ec869e	3	1	DL_test	23	DL_test	5	stimuli_target_squarediamonds.svg	stimuli_distractor_trianglediamonds.svg	4	yes	ta	1	1708	6	6	antiphase_hc_ois.wav	3	6	3	noise_calib_stim_LEFT.wav	1	30	blb_dichoticlistening_pa-ta.mp3	pa	ta	1	right
6.6.1	mac	2023-07-07	05:36:20	05:48:27	725117	5e5291ff6c3d7d2a79ec869e	3	1	DL_test	23	DL_test	6	stimuli_target_squarediamonds.svg	stimuli_distractor_trianglediamonds.svg	4	yes	ka	1	1908	6	6	antiphase_hc_ois.wav	3	6	3	noise_calib_stim_LEFT.wav	1	4	blb_dichoticlistening_ba-ka.mp3	ba	ka	1	right
6.6.1	mac	2023-07-07	05:36:20	05:48:27	725117	5e5291ff6c3d7d2a79ec869e	3	1	DL_test	23	DL_test	7	stimuli_target_squarediamonds.svg	stimuli_distractor_trianglediamonds.svg	4	yes	ka	1	1594	6	6	antiphase_hc_ois.wav	3	6	3	noise_calib_stim_LEFT.wav	1	22	blb_dichoticlistening_ka-ka.mp3	ka	ka	0	left
6.6.1	mac	2023-07-07	05:36:20	05:48:27	725117	5e5291ff6c3d7d2a79ec869e	3	1	DL_test	23	DL_test	8	stimuli_target_squarediamonds.svg	stimuli_distractor_trianglediamonds.svg	4	yes	ta	1	2453	6	6	antiphase_hc_ois.wav	3	6	3	noise_calib_stim_LEFT.wav	1	32	blb_dichoticlistening_ta-da.mp3	ta	da	1	left
6.6.1	mac	2023-07-07	05:36:20	05:48:27	725117	5e5291ff6c3d7d2a79ec869e	3	1	DL_test	23	DL_test	9	stimuli_target_squarediamonds.svg	stimuli_distractor_trianglediamonds.svg	4	yes	ka	1	2124	6	6	antiphase_hc_ois.wav	3	6	3	noise_calib_stim_LEFT.wav	1	23	blb_dichoticlistening_ka-pa.mp3	ka	pa	1	left
6.6.1	mac	2023-07-07	05:36:20	05:48:27	725117	5e5291ff6c3d7d2a79ec869e	3	1	DL_test	23	DL_test	10	stimuli_target_squarediamonds.svg	stimuli_distractor_trianglediamonds.svg	4	yes	ta	1	2057	6	6	antiphase_hc_ois.wav	3	6	3	noise_calib_stim_LEFT.wav	1	35	blb_dichoticlistening_ta-pa.mp3	ta	pa	1	left
6.6.1	mac	2023-07-07	05:36:20	05:48:27	725117	5e5291ff6c3d7d2a79ec869e	3	1	DL_test	23	DL_test	11	stimuli_target_squarediamonds.svg	stimuli_distractor_trianglediamonds.svg	4	yes	ka	1	1724	6	6	antiphase_hc_ois.wav	3	6	3	noise_calib_stim_LEFT.wav	1	34	blb_dichoticlistening_ta-ka.mp3	ta	ka	1	right
6.6.1	mac	2023-07-07	05:36:20	05:48:27	725117	5e5291ff6c3d7d2a79ec869e	3	1	DL_test	23	DL_test	12	stimuli_target_squarediamonds.svg	stimuli_distractor_trianglediamonds.svg	4	yes	ba	1	2122	6	6	antiphase_hc_ois.wav	3	6	3	noise_calib_stim_LEFT.wav	1	2	blb_dichoticlistening_ba-da.mp3	ba	da	1	left
6.6.1	mac	2023-07-07	05:36:20	05:48:27	725117	5e5291ff6c3d7d2a79ec869e	3	1	DL_test	23	DL_test	13	stimuli_target_squarediamonds.svg	stimuli_distractor_trianglediamonds.svg	4	yes	ba	1	2253	6	6	antiphase_hc_ois.wav	3	6	3	noise_calib_stim_LEFT.wav	1	19	blb_dichoticlistening_ka-ba.mp3	ka	ba	1	right
6.6.1	mac	2023-07-07	05:36:20	05:48:27	725117	5e5291ff6c3d7d2a79ec869e	3	1	DL_test	23	DL_test	14	stimuli_target_squarediamonds.svg	stimuli_distractor_trianglediamonds.svg	4	yes	pa	1	1949	6	6	antiphase_hc_ois.wav	3	6	3	noise_calib_stim_LEFT.wav	1	29	blb_dichoticlistening_pa-pa.mp3	pa	pa	0	left
6.6.1	mac	2023-07-07	05:36:20	05:48:27	725117	5e5291ff6c3d7d2a79ec869e	3	1	DL_test	23	DL_test	15	stimuli_target_squarediamonds.svg	stimuli_distractor_trianglediamonds.svg	4	yes	ga	1	1828	6	6	antiphase_hc_ois.wav	3	6	3	noise_calib_stim_LEFT.wav	1	18	blb_dichoticlistening_ga-ta.mp3	ga	ta	1	left
6.6.1	mac	2023-07-07	05:36:20	05:48:27	725117	5e5291ff6c3d7d2a79ec869e	3	1	DL_test	23	DL_test	16	stimuli_target_squarediamonds.svg	stimuli_distractor_trianglediamonds.svg	4	yes	da	0	1384	6	6	antiphase_hc_ois.wav	3	6	3	noise_calib_stim_LEFT.wav	1	13	blb_dichoticlistening_ga-ba.mp3	ga	ba	1	other
6.6.1	mac	2023-07-07	05:36:20	05:48:27	725117	5e5291ff6c3d7d2a79ec869e	3	1	DL_test	23	DL_test	17	stimuli_target_squarediamonds.svg	stimuli_distractor_trianglediamonds.svg	4	yes	da	1	1631	6	6	antiphase_hc_ois.wav	3	6	3	noise_calib_stim_LEFT.wav	1	10	blb_dichoticlistening_da-ka.mp3	da	ka	1	left
6.6.1	mac	2023-07-07	05:36:20	05:48:27	725117	5e5291ff6c3d7d2a79ec869e	3	1	DL_test	23	DL_test	18	stimuli_target_squarediamonds.svg	stimuli_distractor_trianglediamonds.svg	4	yes	da	1	1411	6	6	antiphase_hc_ois.wav	3	6	3	noise_calib_stim_LEFT.wav	1	9	blb_dichoticlistening_da-ga.mp3	da	ga	1	left
6.6.1	mac	2023-07-07	05:36:20	05:48:27	725117	5e5291ff6c3d7d2a79ec869e	3	1	DL_test	23	DL_test	19	stimuli_target_squarediamonds.svg	stimuli_distractor_trianglediamonds.svg	4	yes	da	1	1706	6	6	antiphase_hc_ois.wav	3	6	3	noise_calib_stim_LEFT.wav	1	7	blb_dichoticlistening_da-ba.mp3	da	ba	1	left
6.6.1	mac	2023-07-07	05:36:20	05:48:27	725117	5e5291ff6c3d7d2a79ec869e	3	1	DL_test	23	DL_test	20	stimuli_target_squarediamonds.svg	stimuli_distractor_trianglediamonds.svg	4	yes	ka	1	1725	6	6	antiphase_hc_ois.wav	3	6	3	noise_calib_stim_LEFT.wav	1	21	blb_dichoticlistening_ka-ga.mp3	ka	ga	1	left
6.6.1	mac	2023-07-07	05:36:20	05:48:27	725117	5e5291ff6c3d7d2a79ec869e	3	1	DL_test	23	DL_test	21	stimuli_target_squarediamonds.svg	stimuli_distractor_trianglediamonds.svg	4	yes	ta	1	1893	6	6	antiphase_hc_ois.wav	3	6	3	noise_calib_stim_LEFT.wav	1	33	blb_dichoticlistening_ta-ga.mp3	ta	ga	1	left
6.6.1	mac	2023-07-07	05:36:20	05:48:27	725117	5e5291ff6c3d7d2a79ec869e	3	1	DL_test	23	DL_test	22	stimuli_target_squarediamonds.svg	stimuli_distractor_trianglediamonds.svg	4	yes	ka	1	1987	6	6	antiphase_hc_ois.wav	3	6	3	noise_calib_stim_LEFT.wav	1	28	blb_dichoticlistening_pa-ka.mp3	pa	ka	1	right
6.6.1	mac	2023-07-07	05:36:20	05:48:27	725117	5e5291ff6c3d7d2a79ec869e	3	1	DL_test	23	DL_test	23	stimuli_target_squarediamonds.svg	stimuli_distractor_trianglediamonds.svg	4	yes	ka	1	1346	6	6	antiphase_hc_ois.wav	3	6	3	noise_calib_stim_LEFT.wav	1	20	blb_dichoticlistening_ka-da.mp3	ka	da	1	left
6.6.1	mac	2023-07-07	05:36:20	05:48:27	725117	5e5291ff6c3d7d2a79ec869e	3	1	DL_test	23	DL_test	24	stimuli_target_squarediamonds.svg	stimuli_distractor_trianglediamonds.svg	4	yes	ga	1	1763	6	6	antiphase_hc_ois.wav	3	6	3	noise_calib_stim_LEFT.wav	1	16	blb_dichoticlistening_ga-ka.mp3	ga	ka	1	left
6.6.1	mac	2023-07-07	05:36:20	05:48:27	725117	5e5291ff6c3d7d2a79ec869e	3	1	DL_test	23	DL_test	25	stimuli_target_squarediamonds.svg	stimuli_distractor_trianglediamonds.svg	4	yes	ga	1	1345	6	6	antiphase_hc_ois.wav	3	6	3	noise_calib_stim_LEFT.wav	1	15	blb_dichoticlistening_ga-ga.mp3	ga	ga	0	left
6.6.1	mac	2023-07-07	05:36:20	05:48:27	725117	5e5291ff6c3d7d2a79ec869e	3	1	DL_test	23	DL_test	26	stimuli_target_squarediamonds.svg	stimuli_distractor_trianglediamonds.svg	4	yes	pa	1	1730	6	6	antiphase_hc_ois.wav	3	6	3	noise_calib_stim_LEFT.wav	1	5	blb_dichoticlistening_ba-pa.mp3	ba	pa	1	right
