build	computer.platform	date	time	timestamp	time_elapsed_ms	subject	group	session	blockcode	blocknum	trialcode	trialnum	stimulus_left	stimulus_right	stim_index	target_present	response	correct	latency	headphonecheck_countTestTrials	headphonecheck_index	headphonecheck_testSound	headphonecheck_correctResponse	stereocheck_countTestTrials	stereocheck_index	stereocheck_testSound	stereocheck_correctResponse	DL_index	DL_soundfile	DL_leftSound	DL_rightSound	DL_dualSound	DL_choice
6.6.1	win	2023-06-24	14:55:22	14:58:38	182434	62a2adb16716c2e0c8d3c07a	3	1	practice_slash	5	practice_slash	1	stimuli_distractor_trianglediamonds.svg	stimuli_target_squarediamonds.svg	11	yes	0	0	2000	0	0			0	0			1				0	
6.6.1	win	2023-06-24	14:55:22	14:58:38	182434	62a2adb16716c2e0c8d3c07a	3	1	practice_slash	5	advance_on_keypress_SLASH	2	stimuli_distractor_trianglediamonds.svg	stimuli_target_squarediamonds.svg	11	yes	57	0	972	0	0			0	0			1				0	
6.6.1	win	2023-06-24	14:55:22	14:58:41	185432	62a2adb16716c2e0c8d3c07a	3	1	practice_slash	5	practice_slash	3	stimuli_target_diamondsquares.svg	stimuli_distractor_diamondtriangles.svg	3	yes	53	1	346	0	0			0	0			1				0	
6.6.1	win	2023-06-24	14:55:22	14:58:41	185432	62a2adb16716c2e0c8d3c07a	3	1	practice_slash	5	advance_on_keypress_SLASH	4	stimuli_target_diamondsquares.svg	stimuli_distractor_diamondtriangles.svg	3	yes	57	0	796	0	0			0	0			1				0	
6.6.1	win	2023-06-24	14:55:22	14:58:44	188295	62a2adb16716c2e0c8d3c07a	3	1	practice_slash	5	practice_slash	5	stimuli_target_squarediamonds.svg	stimuli_distractor_trianglediamonds.svg	5	yes	53	1	410	0	0			0	0			1				0	
6.6.1	win	2023-06-24	14:55:22	14:58:44	188295	62a2adb16716c2e0c8d3c07a	3	1	practice_slash	5	advance_on_keypress_SLASH	6	stimuli_target_squarediamonds.svg	stimuli_distractor_trianglediamonds.svg	5	yes	57	0	594	0	0			0	0			1				0	
6.6.1	win	2023-06-24	14:55:22	14:58:47	191117	62a2adb16716c2e0c8d3c07a	3	1	practice_slash	5	practice_slash	7	stimuli_distractor_diamondtriangles.svg	stimuli_distractor_trianglediamonds.svg	14	no	53	0	568	0	0			0	0			1				0	
6.6.1	win	2023-06-24	14:55:22	14:58:47	191117	62a2adb16716c2e0c8d3c07a	3	1	practice_slash	5	advance_on_keypress_SLASH	8	stimuli_distractor_diamondtriangles.svg	stimuli_distractor_trianglediamonds.svg	14	no	57	0	889	0	0			0	0			1				0	
6.6.1	win	2023-06-24	14:55:22	14:58:50	194224	62a2adb16716c2e0c8d3c07a	3	1	practice_slash	5	practice_slash	9	stimuli_distractor_diamondtriangles.svg	stimuli_distractor_diamondtriangles.svg	13	no	53	0	555	0	0			0	0			1				0	
6.6.1	win	2023-06-24	14:55:22	14:58:50	194224	62a2adb16716c2e0c8d3c07a	3	1	practice_slash	5	advance_on_keypress_SLASH	10	stimuli_distractor_diamondtriangles.svg	stimuli_distractor_diamondtriangles.svg	13	no	57	0	597	0	0			0	0			1				0	
6.6.1	win	2023-06-24	14:55:22	14:58:54	198483	62a2adb16716c2e0c8d3c07a	3	1	practice_slash	5	practice_slash	11	stimuli_distractor_trianglediamonds.svg	stimuli_distractor_diamondtriangles.svg	16	no	0	1	2000	0	0			0	0			1				0	
6.6.1	win	2023-06-24	14:55:22	14:58:54	198483	62a2adb16716c2e0c8d3c07a	3	1	practice_slash	5	advance_on_keypress_SLASH	12	stimuli_distractor_trianglediamonds.svg	stimuli_distractor_diamondtriangles.svg	16	no	57	0	610	0	0			0	0			1				0	
6.6.1	win	2023-06-24	14:55:22	14:58:57	201392	62a2adb16716c2e0c8d3c07a	3	1	practice_slash	5	practice_slash	13	stimuli_target_diamondsquares.svg	stimuli_distractor_trianglediamonds.svg	6	yes	53	1	624	0	0			0	0			1				0	
6.6.1	win	2023-06-24	14:55:22	14:58:57	201392	62a2adb16716c2e0c8d3c07a	3	1	practice_slash	5	advance_on_keypress_SLASH	14	stimuli_target_diamondsquares.svg	stimuli_distractor_trianglediamonds.svg	6	yes	57	0	430	0	0			0	0			1				0	
6.6.1	win	2023-06-24	14:55:22	14:59:00	204249	62a2adb16716c2e0c8d3c07a	3	1	practice_slash	5	practice_slash	15	stimuli_distractor_diamondtriangles.svg	stimuli_target_rectangletriangles.svg	7	yes	53	1	747	0	0			0	0			1				0	
6.6.1	win	2023-06-24	14:55:22	14:59:00	204249	62a2adb16716c2e0c8d3c07a	3	1	practice_slash	5	advance_on_keypress_SLASH	16	stimuli_distractor_diamondtriangles.svg	stimuli_target_rectangletriangles.svg	7	yes	57	0	476	0	0			0	0			1				0	
6.6.1	win	2023-06-24	14:55:22	14:59:03	206914	62a2adb16716c2e0c8d3c07a	3	1	practice_slash	5	practice_slash	17	stimuli_target_rectanglediamonds.svg	stimuli_distractor_trianglediamonds.svg	4	yes	53	1	510	0	0			0	0			1				0	
6.6.1	win	2023-06-24	14:55:22	14:59:03	206914	62a2adb16716c2e0c8d3c07a	3	1	practice_slash	5	advance_on_keypress_SLASH	18	stimuli_target_rectanglediamonds.svg	stimuli_distractor_trianglediamonds.svg	4	yes	57	0	401	0	0			0	0			1				0	
6.6.1	win	2023-06-24	14:55:22	14:59:05	209387	62a2adb16716c2e0c8d3c07a	3	1	practice_slash	5	practice_slash	19	stimuli_distractor_diamondtriangles.svg	stimuli_target_diamondrectangles.svg	8	yes	53	1	399	0	0			0	0			1				0	
6.6.1	win	2023-06-24	14:55:22	14:59:05	209387	62a2adb16716c2e0c8d3c07a	3	1	practice_slash	5	advance_on_keypress_SLASH	20	stimuli_distractor_diamondtriangles.svg	stimuli_target_diamondrectangles.svg	8	yes	57	0	574	0	0			0	0			1				0	
6.6.1	win	2023-06-24	14:55:22	14:59:08	212029	62a2adb16716c2e0c8d3c07a	3	1	practice_slash	5	practice_slash	21	stimuli_distractor_diamondtriangles.svg	stimuli_target_trianglerectangles.svg	9	yes	53	1	397	0	0			0	0			1				0	
6.6.1	win	2023-06-24	14:55:22	14:59:08	212029	62a2adb16716c2e0c8d3c07a	3	1	practice_slash	5	advance_on_keypress_SLASH	22	stimuli_distractor_diamondtriangles.svg	stimuli_target_trianglerectangles.svg	9	yes	57	0	340	0	0			0	0			1				0	
6.6.1	win	2023-06-24	14:55:22	14:59:10	214393	62a2adb16716c2e0c8d3c07a	3	1	practice_slash	5	practice_slash	23	stimuli_target_rectanglediamonds.svg	stimuli_distractor_diamondtriangles.svg	1	yes	53	1	356	0	0			0	0			1				0	
6.6.1	win	2023-06-24	14:55:22	14:59:10	214393	62a2adb16716c2e0c8d3c07a	3	1	practice_slash	5	advance_on_keypress_SLASH	24	stimuli_target_rectanglediamonds.svg	stimuli_distractor_diamondtriangles.svg	1	yes	57	0	327	0	0			0	0			1				0	
6.6.1	win	2023-06-24	14:55:22	14:59:12	216782	62a2adb16716c2e0c8d3c07a	3	1	practice_slash	5	practice_slash	25	stimuli_target_squarediamonds.svg	stimuli_distractor_diamondtriangles.svg	2	yes	53	1	398	0	0			0	0			1				0	
6.6.1	win	2023-06-24	14:55:22	14:59:12	216782	62a2adb16716c2e0c8d3c07a	3	1	practice_slash	5	advance_on_keypress_SLASH	26	stimuli_target_squarediamonds.svg	stimuli_distractor_diamondtriangles.svg	2	yes	57	0	382	0	0			0	0			1				0	
6.6.1	win	2023-06-24	14:55:22	14:59:15	219159	62a2adb16716c2e0c8d3c07a	3	1	practice_slash	5	practice_slash	27	stimuli_distractor_trianglediamonds.svg	stimuli_distractor_trianglediamonds.svg	15	no	53	0	342	0	0			0	0			1				0	
6.6.1	win	2023-06-24	14:55:22	14:59:15	219159	62a2adb16716c2e0c8d3c07a	3	1	practice_slash	5	advance_on_keypress_SLASH	28	stimuli_distractor_trianglediamonds.svg	stimuli_distractor_trianglediamonds.svg	15	no	57	0	439	0	0			0	0			1				0	
6.6.1	win	2023-06-24	14:55:22	14:59:17	221791	62a2adb16716c2e0c8d3c07a	3	1	practice_slash	5	practice_slash	29	stimuli_distractor_trianglediamonds.svg	stimuli_target_rectanglediamonds.svg	10	yes	53	1	525	0	0			0	0			1				0	
6.6.1	win	2023-06-24	14:55:22	14:59:17	221791	62a2adb16716c2e0c8d3c07a	3	1	practice_slash	5	advance_on_keypress_SLASH	30	stimuli_distractor_trianglediamonds.svg	stimuli_target_rectanglediamonds.svg	10	yes	57	0	550	0	0			0	0			1				0	
6.6.1	win	2023-06-24	14:55:22	14:59:20	224433	62a2adb16716c2e0c8d3c07a	3	1	practice_slash	5	practice_slash	31	stimuli_distractor_trianglediamonds.svg	stimuli_target_diamondrectangles.svg	12	yes	53	1	422	0	0			0	0			1				0	
6.6.1	win	2023-06-24	14:55:22	14:59:20	224433	62a2adb16716c2e0c8d3c07a	3	1	practice_slash	5	advance_on_keypress_SLASH	32	stimuli_distractor_trianglediamonds.svg	stimuli_target_diamondrectangles.svg	12	yes	57	0	596	0	0			0	0			1				0	
6.6.1	win	2023-06-24	14:55:22	14:59:43	247594	62a2adb16716c2e0c8d3c07a	3	1	main_slash	7	main_slash	1	stimuli_target_squaretriangles.svg	stimuli_distractor_diamondtriangles.svg	7	yes	53	1	414	0	0			0	0			1				0	
6.6.1	win	2023-06-24	14:55:22	14:59:43	247594	62a2adb16716c2e0c8d3c07a	3	1	main_slash	7	advance_on_keypress_SLASH	2	stimuli_target_squaretriangles.svg	stimuli_distractor_diamondtriangles.svg	7	yes	57	0	654	0	0			0	0			1				0	
6.6.1	win	2023-06-24	14:55:22	14:59:45	249410	62a2adb16716c2e0c8d3c07a	3	1	main_slash	7	main_slash	3	stimuli_target_trianglesquares.svg	stimuli_distractor_diamondtriangles.svg	22	yes	53	1	514	0	0			0	0			1				0	
6.6.1	win	2023-06-24	14:55:22	14:59:45	249410	62a2adb16716c2e0c8d3c07a	3	1	main_slash	7	advance_on_keypress_SLASH	4	stimuli_target_trianglesquares.svg	stimuli_distractor_diamondtriangles.svg	22	yes	57	0	637	0	0			0	0			1				0	
6.6.1	win	2023-06-24	14:55:22	14:59:47	251341	62a2adb16716c2e0c8d3c07a	3	1	main_slash	7	main_slash	5	stimuli_target_rectanglediamonds.svg	stimuli_distractor_diamondtriangles.svg	6	yes	53	1	642	0	0			0	0			1				0	
6.6.1	win	2023-06-24	14:55:22	14:59:47	251341	62a2adb16716c2e0c8d3c07a	3	1	main_slash	7	advance_on_keypress_SLASH	6	stimuli_target_rectanglediamonds.svg	stimuli_distractor_diamondtriangles.svg	6	yes	57	0	560	0	0			0	0			1				0	
6.6.1	win	2023-06-24	14:55:22	14:59:49	253234	62a2adb16716c2e0c8d3c07a	3	1	main_slash	7	main_slash	7	stimuli_target_diamondrectangles.svg	stimuli_distractor_diamondtriangles.svg	23	yes	53	1	671	0	0			0	0			1				0	
6.6.1	win	2023-06-24	14:55:22	14:59:49	253234	62a2adb16716c2e0c8d3c07a	3	1	main_slash	7	advance_on_keypress_SLASH	8	stimuli_target_diamondrectangles.svg	stimuli_distractor_diamondtriangles.svg	23	yes	57	0	468	0	0			0	0			1				0	
6.6.1	win	2023-06-24	14:55:22	14:59:51	255098	62a2adb16716c2e0c8d3c07a	3	1	main_slash	7	main_slash	9	stimuli_distractor_trianglediamonds.svg	stimuli_target_trianglerectangles.svg	25	yes	53	1	752	0	0			0	0			1				0	
6.6.1	win	2023-06-24	14:55:22	14:59:51	255098	62a2adb16716c2e0c8d3c07a	3	1	main_slash	7	advance_on_keypress_SLASH	10	stimuli_distractor_trianglediamonds.svg	stimuli_target_trianglerectangles.svg	25	yes	57	0	426	0	0			0	0			1				0	
6.6.1	win	2023-06-24	14:55:22	14:59:54	258179	62a2adb16716c2e0c8d3c07a	3	1	main_slash	7	main_slash	11	stimuli_target_diamondrectangles.svg	stimuli_distractor_trianglediamonds.svg	19	yes	0	0	2000	0	0			0	0			1				0	
6.6.1	win	2023-06-24	14:55:22	14:59:54	258179	62a2adb16716c2e0c8d3c07a	3	1	main_slash	7	advance_on_keypress_SLASH	12	stimuli_target_diamondrectangles.svg	stimuli_distractor_trianglediamonds.svg	19	yes	57	0	478	0	0			0	0			1				0	
6.6.1	win	2023-06-24	14:55:22	14:59:56	260146	62a2adb16716c2e0c8d3c07a	3	1	main_slash	7	main_slash	13	stimuli_distractor_diamondtriangles.svg	stimuli_distractor_trianglediamonds.svg	38	no	53	0	834	0	0			0	0			1				0	
6.6.1	win	2023-06-24	14:55:22	14:59:56	260146	62a2adb16716c2e0c8d3c07a	3	1	main_slash	7	advance_on_keypress_SLASH	14	stimuli_distractor_diamondtriangles.svg	stimuli_distractor_trianglediamonds.svg	38	no	57	0	384	0	0			0	0			1				0	
6.6.1	win	2023-06-24	14:55:22	14:59:59	263185	62a2adb16716c2e0c8d3c07a	3	1	main_slash	7	main_slash	15	stimuli_distractor_trianglediamonds.svg	stimuli_distractor_diamondtriangles.svg	35	no	0	1	2000	0	0			0	0			1				0	
6.6.1	win	2023-06-24	14:55:22	14:59:59	263185	62a2adb16716c2e0c8d3c07a	3	1	main_slash	7	advance_on_keypress_SLASH	16	stimuli_distractor_trianglediamonds.svg	stimuli_distractor_diamondtriangles.svg	35	no	57	0	526	0	0			0	0			1				0	
6.6.1	win	2023-06-24	14:55:22	15:00:01	265217	62a2adb16716c2e0c8d3c07a	3	1	main_slash	7	main_slash	17	stimuli_distractor_diamondtriangles.svg	stimuli_distractor_diamondtriangles.svg	39	no	53	0	840	0	0			0	0			1				0	
6.6.1	win	2023-06-24	14:55:22	15:00:01	265217	62a2adb16716c2e0c8d3c07a	3	1	main_slash	7	advance_on_keypress_SLASH	18	stimuli_distractor_diamondtriangles.svg	stimuli_distractor_diamondtriangles.svg	39	no	57	0	541	0	0			0	0			1				0	
6.6.1	win	2023-06-24	14:55:22	15:00:03	267009	62a2adb16716c2e0c8d3c07a	3	1	main_slash	7	main_slash	19	stimuli_target_squaretriangles.svg	stimuli_distractor_trianglediamonds.svg	3	yes	53	1	598	0	0			0	0			1				0	
6.6.1	win	2023-06-24	14:55:22	15:00:03	267009	62a2adb16716c2e0c8d3c07a	3	1	main_slash	7	advance_on_keypress_SLASH	20	stimuli_target_squaretriangles.svg	stimuli_distractor_trianglediamonds.svg	3	yes	57	0	477	0	0			0	0			1				0	
6.6.1	win	2023-06-24	14:55:22	15:00:04	268689	62a2adb16716c2e0c8d3c07a	3	1	main_slash	7	main_slash	21	stimuli_distractor_trianglediamonds.svg	stimuli_target_trianglesquares.svg	26	yes	53	1	544	0	0			0	0			1				0	
6.6.1	win	2023-06-24	14:55:22	15:00:04	268689	62a2adb16716c2e0c8d3c07a	3	1	main_slash	7	advance_on_keypress_SLASH	22	stimuli_distractor_trianglediamonds.svg	stimuli_target_trianglesquares.svg	26	yes	57	0	402	0	0			0	0			1				0	
6.6.1	win	2023-06-24	14:55:22	15:00:06	270329	62a2adb16716c2e0c8d3c07a	3	1	main_slash	7	main_slash	23	stimuli_distractor_trianglediamonds.svg	stimuli_target_diamondrectangles.svg	27	yes	53	1	584	0	0			0	0			1				0	
6.6.1	win	2023-06-24	14:55:22	15:00:06	270329	62a2adb16716c2e0c8d3c07a	3	1	main_slash	7	advance_on_keypress_SLASH	24	stimuli_distractor_trianglediamonds.svg	stimuli_target_diamondrectangles.svg	27	yes	57	0	336	0	0			0	0			1				0	
6.6.1	win	2023-06-24	14:55:22	15:00:09	273312	62a2adb16716c2e0c8d3c07a	3	1	main_slash	7	main_slash	25	stimuli_distractor_diamondtriangles.svg	stimuli_target_squaretriangles.svg	15	yes	0	0	2000	0	0			0	0			1				0	
6.6.1	win	2023-06-24	14:55:22	15:00:09	273312	62a2adb16716c2e0c8d3c07a	3	1	main_slash	7	advance_on_keypress_SLASH	26	stimuli_distractor_diamondtriangles.svg	stimuli_target_squaretriangles.svg	15	yes	57	0	489	0	0			0	0			1				0	
6.6.1	win	2023-06-24	14:55:22	15:00:11	275186	62a2adb16716c2e0c8d3c07a	3	1	main_slash	7	main_slash	27	stimuli_distractor_trianglediamonds.svg	stimuli_target_rectangletriangles.svg	9	yes	53	1	740	0	0			0	0			1				0	
6.6.1	win	2023-06-24	14:55:22	15:00:11	275186	62a2adb16716c2e0c8d3c07a	3	1	main_slash	7	advance_on_keypress_SLASH	28	stimuli_distractor_trianglediamonds.svg	stimuli_target_rectangletriangles.svg	9	yes	57	0	286	0	0			0	0			1				0	
6.6.1	win	2023-06-24	14:55:22	15:00:12	276794	62a2adb16716c2e0c8d3c07a	3	1	main_slash	7	main_slash	29	stimuli_distractor_trianglediamonds.svg	stimuli_target_rectanglediamonds.svg	10	yes	53	1	664	0	0			0	0			1				0	
6.6.1	win	2023-06-24	14:55:22	15:00:12	276794	62a2adb16716c2e0c8d3c07a	3	1	main_slash	7	advance_on_keypress_SLASH	30	stimuli_distractor_trianglediamonds.svg	stimuli_target_rectanglediamonds.svg	10	yes	57	0	254	0	0			0	0			1				0	
6.6.1	win	2023-06-24	14:55:22	15:00:14	278412	62a2adb16716c2e0c8d3c07a	3	1	main_slash	7	main_slash	31	stimuli_distractor_diamondtriangles.svg	stimuli_target_squarediamonds.svg	16	yes	53	1	715	0	0			0	0			1				0	
6.6.1	win	2023-06-24	14:55:22	15:00:14	278412	62a2adb16716c2e0c8d3c07a	3	1	main_slash	7	advance_on_keypress_SLASH	32	stimuli_distractor_diamondtriangles.svg	stimuli_target_squarediamonds.svg	16	yes	57	0	461	0	0			0	0			1				0	
6.6.1	win	2023-06-24	14:55:22	15:00:16	280297	62a2adb16716c2e0c8d3c07a	3	1	main_slash	7	main_slash	33	stimuli_distractor_diamondtriangles.svg	stimuli_target_diamondrectangles.svg	31	yes	53	1	768	0	0			0	0			1				0	
6.6.1	win	2023-06-24	14:55:22	15:00:16	280297	62a2adb16716c2e0c8d3c07a	3	1	main_slash	7	advance_on_keypress_SLASH	34	stimuli_distractor_diamondtriangles.svg	stimuli_target_diamondrectangles.svg	31	yes	57	0	290	0	0			0	0			1				0	
6.6.1	win	2023-06-24	14:55:22	15:00:17	281757	62a2adb16716c2e0c8d3c07a	3	1	main_slash	7	main_slash	35	stimuli_target_squarediamonds.svg	stimuli_distractor_trianglediamonds.svg	4	yes	53	1	524	0	0			0	0			1				0	
6.6.1	win	2023-06-24	14:55:22	15:00:17	281757	62a2adb16716c2e0c8d3c07a	3	1	main_slash	7	advance_on_keypress_SLASH	36	stimuli_target_squarediamonds.svg	stimuli_distractor_trianglediamonds.svg	4	yes	57	0	319	0	0			0	0			1				0	
6.6.1	win	2023-06-24	14:55:22	15:00:20	284209	62a2adb16716c2e0c8d3c07a	3	1	main_slash	7	main_slash	37	stimuli_distractor_trianglediamonds.svg	stimuli_target_squaretriangles.svg	11	yes	53	1	1481	0	0			0	0			1				0	
6.6.1	win	2023-06-24	14:55:22	15:00:20	284209	62a2adb16716c2e0c8d3c07a	3	1	main_slash	7	advance_on_keypress_SLASH	38	stimuli_distractor_trianglediamonds.svg	stimuli_target_squaretriangles.svg	11	yes	57	0	253	0	0			0	0			1				0	
6.6.1	win	2023-06-24	14:55:22	15:00:21	285883	62a2adb16716c2e0c8d3c07a	3	1	main_slash	7	main_slash	39	stimuli_target_rectangletriangles.svg	stimuli_distractor_diamondtriangles.svg	5	yes	53	1	769	0	0			0	0			1				0	
6.6.1	win	2023-06-24	14:55:22	15:00:21	285883	62a2adb16716c2e0c8d3c07a	3	1	main_slash	7	advance_on_keypress_SLASH	40	stimuli_target_rectangletriangles.svg	stimuli_distractor_diamondtriangles.svg	5	yes	57	0	386	0	0			0	0			1				0	
6.6.1	win	2023-06-24	14:55:22	15:00:23	287834	62a2adb16716c2e0c8d3c07a	3	1	main_slash	7	main_slash	41	stimuli_distractor_trianglediamonds.svg	stimuli_distractor_trianglediamonds.svg	34	no	53	0	922	0	0			0	0			1				0	
6.6.1	win	2023-06-24	14:55:22	15:00:23	287834	62a2adb16716c2e0c8d3c07a	3	1	main_slash	7	advance_on_keypress_SLASH	42	stimuli_distractor_trianglediamonds.svg	stimuli_distractor_trianglediamonds.svg	34	no	57	0	332	0	0			0	0			1				0	
6.6.1	win	2023-06-24	14:55:22	15:00:25	289491	62a2adb16716c2e0c8d3c07a	3	1	main_slash	7	main_slash	43	stimuli_distractor_trianglediamonds.svg	stimuli_target_diamondsquares.svg	28	yes	53	1	678	0	0			0	0			1				0	
6.6.1	win	2023-06-24	14:55:22	15:00:25	289491	62a2adb16716c2e0c8d3c07a	3	1	main_slash	7	advance_on_keypress_SLASH	44	stimuli_distractor_trianglediamonds.svg	stimuli_target_diamondsquares.svg	28	yes	57	0	242	0	0			0	0			1				0	
6.6.1	win	2023-06-24	14:55:22	15:00:28	291921	62a2adb16716c2e0c8d3c07a	3	1	main_slash	7	main_slash	45	stimuli_distractor_diamondtriangles.svg	stimuli_target_rectanglediamonds.svg	14	yes	53	1	1526	0	0			0	0			1				0	
6.6.1	win	2023-06-24	14:55:22	15:00:28	291921	62a2adb16716c2e0c8d3c07a	3	1	main_slash	7	advance_on_keypress_SLASH	46	stimuli_distractor_diamondtriangles.svg	stimuli_target_rectanglediamonds.svg	14	yes	57	0	240	0	0			0	0			1				0	
6.6.1	win	2023-06-24	14:55:22	15:00:30	294812	62a2adb16716c2e0c8d3c07a	3	1	main_slash	7	main_slash	47	stimuli_distractor_trianglediamonds.svg	stimuli_distractor_trianglediamonds.svg	33	no	0	1	2000	0	0			0	0			1				0	
6.6.1	win	2023-06-24	14:55:22	15:00:30	294812	62a2adb16716c2e0c8d3c07a	3	1	main_slash	7	advance_on_keypress_SLASH	48	stimuli_distractor_trianglediamonds.svg	stimuli_distractor_trianglediamonds.svg	33	no	57	0	141	0	0			0	0			1				0	
6.6.1	win	2023-06-24	14:55:22	15:00:32	296346	62a2adb16716c2e0c8d3c07a	3	1	main_slash	7	main_slash	49	stimuli_target_rectangletriangles.svg	stimuli_distractor_trianglediamonds.svg	1	yes	53	1	733	0	0			0	0			1				0	
6.6.1	win	2023-06-24	14:55:22	15:00:32	296346	62a2adb16716c2e0c8d3c07a	3	1	main_slash	7	advance_on_keypress_SLASH	50	stimuli_target_rectangletriangles.svg	stimuli_distractor_trianglediamonds.svg	1	yes	57	0	304	0	0			0	0			1				0	
6.6.1	win	2023-06-24	14:55:22	15:00:35	299296	62a2adb16716c2e0c8d3c07a	3	1	main_slash	7	main_slash	51	stimuli_target_rectanglediamonds.svg	stimuli_distractor_trianglediamonds.svg	2	yes	0	0	2000	0	0			0	0			1				0	
6.6.1	win	2023-06-24	14:55:22	15:00:35	299296	62a2adb16716c2e0c8d3c07a	3	1	main_slash	7	advance_on_keypress_SLASH	52	stimuli_target_rectanglediamonds.svg	stimuli_distractor_trianglediamonds.svg	2	yes	57	0	443	0	0			0	0			1				0	
6.6.1	win	2023-06-24	14:55:22	15:00:36	300826	62a2adb16716c2e0c8d3c07a	3	1	main_slash	7	main_slash	53	stimuli_distractor_diamondtriangles.svg	stimuli_target_rectangletriangles.svg	13	yes	53	1	430	0	0			0	0			1				0	
6.6.1	win	2023-06-24	14:55:22	15:00:36	300826	62a2adb16716c2e0c8d3c07a	3	1	main_slash	7	advance_on_keypress_SLASH	54	stimuli_distractor_diamondtriangles.svg	stimuli_target_rectangletriangles.svg	13	yes	57	0	309	0	0			0	0			1				0	
6.6.1	win	2023-06-24	14:55:22	15:00:39	303795	62a2adb16716c2e0c8d3c07a	3	1	main_slash	7	main_slash	55	stimuli_distractor_diamondtriangles.svg	stimuli_distractor_diamondtriangles.svg	40	no	0	1	2000	0	0			0	0			1				0	
6.6.1	win	2023-06-24	14:55:22	15:00:39	303795	62a2adb16716c2e0c8d3c07a	3	1	main_slash	7	advance_on_keypress_SLASH	56	stimuli_distractor_diamondtriangles.svg	stimuli_distractor_diamondtriangles.svg	40	no	57	0	406	0	0			0	0			1				0	
6.6.1	win	2023-06-24	14:55:22	15:00:41	305593	62a2adb16716c2e0c8d3c07a	3	1	main_slash	7	main_slash	57	stimuli_target_squarediamonds.svg	stimuli_distractor_diamondtriangles.svg	8	yes	53	1	732	0	0			0	0			1				0	
6.6.1	win	2023-06-24	14:55:22	15:00:41	305593	62a2adb16716c2e0c8d3c07a	3	1	main_slash	7	advance_on_keypress_SLASH	58	stimuli_target_squarediamonds.svg	stimuli_distractor_diamondtriangles.svg	8	yes	57	0	342	0	0			0	0			1				0	
6.6.1	win	2023-06-24	14:55:22	15:00:43	307297	62a2adb16716c2e0c8d3c07a	3	1	main_slash	7	main_slash	59	stimuli_distractor_diamondtriangles.svg	stimuli_target_trianglesquares.svg	30	yes	53	1	702	0	0			0	0			1				0	
6.6.1	win	2023-06-24	14:55:22	15:00:43	307297	62a2adb16716c2e0c8d3c07a	3	1	main_slash	7	advance_on_keypress_SLASH	60	stimuli_distractor_diamondtriangles.svg	stimuli_target_trianglesquares.svg	30	yes	57	0	554	0	0			0	0			1				0	
6.6.1	win	2023-06-24	14:55:22	15:00:45	309393	62a2adb16716c2e0c8d3c07a	3	1	main_slash	7	main_slash	61	stimuli_distractor_trianglediamonds.svg	stimuli_target_squarediamonds.svg	12	yes	53	1	898	0	0			0	0			1				0	
6.6.1	win	2023-06-24	14:55:22	15:00:45	309393	62a2adb16716c2e0c8d3c07a	3	1	main_slash	7	advance_on_keypress_SLASH	62	stimuli_distractor_trianglediamonds.svg	stimuli_target_squarediamonds.svg	12	yes	57	0	278	0	0			0	0			1				0	
6.6.1	win	2023-06-24	14:55:22	15:00:48	311923	62a2adb16716c2e0c8d3c07a	3	1	main_slash	7	main_slash	63	stimuli_distractor_diamondtriangles.svg	stimuli_distractor_trianglediamonds.svg	37	no	53	0	1593	0	0			0	0			1				0	
6.6.1	win	2023-06-24	14:55:22	15:00:48	311923	62a2adb16716c2e0c8d3c07a	3	1	main_slash	7	advance_on_keypress_SLASH	64	stimuli_distractor_diamondtriangles.svg	stimuli_distractor_trianglediamonds.svg	37	no	57	0	568	0	0			0	0			1				0	
6.6.1	win	2023-06-24	14:55:22	15:00:49	313770	62a2adb16716c2e0c8d3c07a	3	1	main_slash	7	main_slash	65	stimuli_target_trianglesquares.svg	stimuli_distractor_trianglediamonds.svg	18	yes	53	1	623	0	0			0	0			1				0	
6.6.1	win	2023-06-24	14:55:22	15:00:49	313770	62a2adb16716c2e0c8d3c07a	3	1	main_slash	7	advance_on_keypress_SLASH	66	stimuli_target_trianglesquares.svg	stimuli_distractor_trianglediamonds.svg	18	yes	57	0	294	0	0			0	0			1				0	
6.6.1	win	2023-06-24	14:55:22	15:00:51	315532	62a2adb16716c2e0c8d3c07a	3	1	main_slash	7	main_slash	67	stimuli_target_trianglerectangles.svg	stimuli_distractor_trianglediamonds.svg	17	yes	53	1	800	0	0			0	0			1				0	
6.6.1	win	2023-06-24	14:55:22	15:00:51	315532	62a2adb16716c2e0c8d3c07a	3	1	main_slash	7	advance_on_keypress_SLASH	68	stimuli_target_trianglerectangles.svg	stimuli_distractor_trianglediamonds.svg	17	yes	57	0	360	0	0			0	0			1				0	
6.6.1	win	2023-06-24	14:55:22	15:00:53	317771	62a2adb16716c2e0c8d3c07a	3	1	main_slash	7	main_slash	69	stimuli_distractor_diamondtriangles.svg	stimuli_target_diamondsquares.svg	32	yes	53	1	1225	0	0			0	0			1				0	
6.6.1	win	2023-06-24	14:55:22	15:00:53	317771	62a2adb16716c2e0c8d3c07a	3	1	main_slash	7	advance_on_keypress_SLASH	70	stimuli_distractor_diamondtriangles.svg	stimuli_target_diamondsquares.svg	32	yes	57	0	446	0	0			0	0			1				0	
6.6.1	win	2023-06-24	14:55:22	15:00:55	319593	62a2adb16716c2e0c8d3c07a	3	1	main_slash	7	main_slash	71	stimuli_target_diamondsquares.svg	stimuli_distractor_diamondtriangles.svg	24	yes	53	1	715	0	0			0	0			1				0	
6.6.1	win	2023-06-24	14:55:22	15:00:55	319593	62a2adb16716c2e0c8d3c07a	3	1	main_slash	7	advance_on_keypress_SLASH	72	stimuli_target_diamondsquares.svg	stimuli_distractor_diamondtriangles.svg	24	yes	57	0	326	0	0			0	0			1				0	
6.6.1	win	2023-06-24	14:55:22	15:00:57	321186	62a2adb16716c2e0c8d3c07a	3	1	main_slash	7	main_slash	73	stimuli_target_trianglerectangles.svg	stimuli_distractor_diamondtriangles.svg	21	yes	53	1	606	0	0			0	0			1				0	
6.6.1	win	2023-06-24	14:55:22	15:00:57	321186	62a2adb16716c2e0c8d3c07a	3	1	main_slash	7	advance_on_keypress_SLASH	74	stimuli_target_trianglerectangles.svg	stimuli_distractor_diamondtriangles.svg	21	yes	57	0	277	0	0			0	0			1				0	
6.6.1	win	2023-06-24	14:55:22	15:00:58	322716	62a2adb16716c2e0c8d3c07a	3	1	main_slash	7	main_slash	75	stimuli_distractor_diamondtriangles.svg	stimuli_target_trianglerectangles.svg	29	yes	53	1	584	0	0			0	0			1				0	
6.6.1	win	2023-06-24	14:55:22	15:00:58	322716	62a2adb16716c2e0c8d3c07a	3	1	main_slash	7	advance_on_keypress_SLASH	76	stimuli_distractor_diamondtriangles.svg	stimuli_target_trianglerectangles.svg	29	yes	57	0	248	0	0			0	0			1				0	
6.6.1	win	2023-06-24	14:55:22	15:01:01	325628	62a2adb16716c2e0c8d3c07a	3	1	main_slash	7	main_slash	77	stimuli_distractor_trianglediamonds.svg	stimuli_distractor_diamondtriangles.svg	36	no	0	1	2000	0	0			0	0			1				0	
6.6.1	win	2023-06-24	14:55:22	15:01:01	325628	62a2adb16716c2e0c8d3c07a	3	1	main_slash	7	advance_on_keypress_SLASH	78	stimuli_distractor_trianglediamonds.svg	stimuli_distractor_diamondtriangles.svg	36	no	57	0	548	0	0			0	0			1				0	
6.6.1	win	2023-06-24	14:55:22	15:01:04	327913	62a2adb16716c2e0c8d3c07a	3	1	main_slash	7	main_slash	79	stimuli_target_diamondsquares.svg	stimuli_distractor_trianglediamonds.svg	20	yes	53	1	1084	0	0			0	0			1				0	
6.6.1	win	2023-06-24	14:55:22	15:01:04	327913	62a2adb16716c2e0c8d3c07a	3	1	main_slash	7	advance_on_keypress_SLASH	80	stimuli_target_diamondsquares.svg	stimuli_distractor_trianglediamonds.svg	20	yes	57	0	393	0	0			0	0			1				0	
6.6.1	win	2023-06-24	14:55:22	15:01:07	330962	62a2adb16716c2e0c8d3c07a	3	1	main_slash	7	main_slash	81	stimuli_distractor_trianglediamonds.svg	stimuli_distractor_trianglediamonds.svg	33	no	0	1	2000	0	0			0	0			1				0	
6.6.1	win	2023-06-24	14:55:22	15:01:07	330962	62a2adb16716c2e0c8d3c07a	3	1	main_slash	7	advance_on_keypress_SLASH	82	stimuli_distractor_trianglediamonds.svg	stimuli_distractor_trianglediamonds.svg	33	no	57	0	479	0	0			0	0			1				0	
6.6.1	win	2023-06-24	14:55:22	15:01:08	332731	62a2adb16716c2e0c8d3c07a	3	1	main_slash	7	main_slash	83	stimuli_distractor_diamondtriangles.svg	stimuli_target_squarediamonds.svg	16	yes	53	1	634	0	0			0	0			1				0	
6.6.1	win	2023-06-24	14:55:22	15:01:08	332731	62a2adb16716c2e0c8d3c07a	3	1	main_slash	7	advance_on_keypress_SLASH	84	stimuli_distractor_diamondtriangles.svg	stimuli_target_squarediamonds.svg	16	yes	57	0	368	0	0			0	0			1				0	
6.6.1	win	2023-06-24	14:55:22	15:01:11	335745	62a2adb16716c2e0c8d3c07a	3	1	main_slash	7	main_slash	85	stimuli_distractor_diamondtriangles.svg	stimuli_distractor_trianglediamonds.svg	37	no	0	1	2000	0	0			0	0			1				0	
6.6.1	win	2023-06-24	14:55:22	15:01:11	335745	62a2adb16716c2e0c8d3c07a	3	1	main_slash	7	advance_on_keypress_SLASH	86	stimuli_distractor_diamondtriangles.svg	stimuli_distractor_trianglediamonds.svg	37	no	57	0	440	0	0			0	0			1				0	
6.6.1	win	2023-06-24	14:55:22	15:01:13	337267	62a2adb16716c2e0c8d3c07a	3	1	main_slash	7	main_slash	87	stimuli_target_trianglerectangles.svg	stimuli_distractor_diamondtriangles.svg	21	yes	53	1	436	0	0			0	0			1				0	
6.6.1	win	2023-06-24	14:55:22	15:01:13	337267	62a2adb16716c2e0c8d3c07a	3	1	main_slash	7	advance_on_keypress_SLASH	88	stimuli_target_trianglerectangles.svg	stimuli_distractor_diamondtriangles.svg	21	yes	57	0	283	0	0			0	0			1				0	
6.6.1	win	2023-06-24	14:55:22	15:01:14	338817	62a2adb16716c2e0c8d3c07a	3	1	main_slash	7	main_slash	89	stimuli_distractor_trianglediamonds.svg	stimuli_target_diamondrectangles.svg	27	yes	53	1	622	0	0			0	0			1				0	
6.6.1	win	2023-06-24	14:55:22	15:01:14	338817	62a2adb16716c2e0c8d3c07a	3	1	main_slash	7	advance_on_keypress_SLASH	90	stimuli_distractor_trianglediamonds.svg	stimuli_target_diamondrectangles.svg	27	yes	57	0	293	0	0			0	0			1				0	
6.6.1	win	2023-06-24	14:55:22	15:01:16	340450	62a2adb16716c2e0c8d3c07a	3	1	main_slash	7	main_slash	91	stimuli_target_squarediamonds.svg	stimuli_distractor_trianglediamonds.svg	4	yes	53	1	688	0	0			0	0			1				0	
6.6.1	win	2023-06-24	14:55:22	15:01:16	340450	62a2adb16716c2e0c8d3c07a	3	1	main_slash	7	advance_on_keypress_SLASH	92	stimuli_target_squarediamonds.svg	stimuli_distractor_trianglediamonds.svg	4	yes	57	0	324	0	0			0	0			1				0	
6.6.1	win	2023-06-24	14:55:22	15:01:17	341849	62a2adb16716c2e0c8d3c07a	3	1	main_slash	7	main_slash	93	stimuli_distractor_trianglediamonds.svg	stimuli_target_rectangletriangles.svg	9	yes	53	1	422	0	0			0	0			1				0	
6.6.1	win	2023-06-24	14:55:22	15:01:17	341849	62a2adb16716c2e0c8d3c07a	3	1	main_slash	7	advance_on_keypress_SLASH	94	stimuli_distractor_trianglediamonds.svg	stimuli_target_rectangletriangles.svg	9	yes	57	0	252	0	0			0	0			1				0	
6.6.1	win	2023-06-24	14:55:22	15:01:20	344746	62a2adb16716c2e0c8d3c07a	3	1	main_slash	7	main_slash	95	stimuli_distractor_diamondtriangles.svg	stimuli_target_rectanglediamonds.svg	14	yes	0	0	2000	0	0			0	0			1				0	
6.6.1	win	2023-06-24	14:55:22	15:01:20	344746	62a2adb16716c2e0c8d3c07a	3	1	main_slash	7	advance_on_keypress_SLASH	96	stimuli_distractor_diamondtriangles.svg	stimuli_target_rectanglediamonds.svg	14	yes	57	0	128	0	0			0	0			1				0	
6.6.1	win	2023-06-24	14:55:22	15:01:22	346091	62a2adb16716c2e0c8d3c07a	3	1	main_slash	7	main_slash	97	stimuli_distractor_trianglediamonds.svg	stimuli_distractor_diamondtriangles.svg	36	no	53	0	562	0	0			0	0			1				0	
6.6.1	win	2023-06-24	14:55:22	15:01:22	346091	62a2adb16716c2e0c8d3c07a	3	1	main_slash	7	advance_on_keypress_SLASH	98	stimuli_distractor_trianglediamonds.svg	stimuli_distractor_diamondtriangles.svg	36	no	57	0	418	0	0			0	0			1				0	
6.6.1	win	2023-06-24	14:55:22	15:01:24	347994	62a2adb16716c2e0c8d3c07a	3	1	main_slash	7	main_slash	99	stimuli_target_rectangletriangles.svg	stimuli_distractor_diamondtriangles.svg	5	yes	53	1	828	0	0			0	0			1				0	
6.6.1	win	2023-06-24	14:55:22	15:01:24	347994	62a2adb16716c2e0c8d3c07a	3	1	main_slash	7	advance_on_keypress_SLASH	100	stimuli_target_rectangletriangles.svg	stimuli_distractor_diamondtriangles.svg	5	yes	57	0	302	0	0			0	0			1				0	
6.6.1	win	2023-06-24	14:55:22	15:01:25	349427	62a2adb16716c2e0c8d3c07a	3	1	main_slash	7	main_slash	101	stimuli_target_squaretriangles.svg	stimuli_distractor_diamondtriangles.svg	7	yes	53	1	480	0	0			0	0			1				0	
6.6.1	win	2023-06-24	14:55:22	15:01:25	349427	62a2adb16716c2e0c8d3c07a	3	1	main_slash	7	advance_on_keypress_SLASH	102	stimuli_target_squaretriangles.svg	stimuli_distractor_diamondtriangles.svg	7	yes	57	0	332	0	0			0	0			1				0	
6.6.1	win	2023-06-24	14:55:22	15:01:28	352414	62a2adb16716c2e0c8d3c07a	3	1	main_slash	7	main_slash	103	stimuli_target_trianglesquares.svg	stimuli_distractor_trianglediamonds.svg	18	yes	0	0	2000	0	0			0	0			1				0	
6.6.1	win	2023-06-24	14:55:22	15:01:28	352414	62a2adb16716c2e0c8d3c07a	3	1	main_slash	7	advance_on_keypress_SLASH	104	stimuli_target_trianglesquares.svg	stimuli_distractor_trianglediamonds.svg	18	yes	57	0	701	0	0			0	0			1				0	
6.6.1	win	2023-06-24	14:55:22	15:01:30	354258	62a2adb16716c2e0c8d3c07a	3	1	main_slash	7	main_slash	105	stimuli_distractor_trianglediamonds.svg	stimuli_target_squaretriangles.svg	11	yes	53	1	495	0	0			0	0			1				0	
6.6.1	win	2023-06-24	14:55:22	15:01:30	354258	62a2adb16716c2e0c8d3c07a	3	1	main_slash	7	advance_on_keypress_SLASH	106	stimuli_distractor_trianglediamonds.svg	stimuli_target_squaretriangles.svg	11	yes	57	0	275	0	0			0	0			1				0	
6.6.1	win	2023-06-24	14:55:22	15:01:33	357197	62a2adb16716c2e0c8d3c07a	3	1	main_slash	7	main_slash	107	stimuli_target_diamondsquares.svg	stimuli_distractor_diamondtriangles.svg	24	yes	0	0	2000	0	0			0	0			1				0	
6.6.1	win	2023-06-24	14:55:22	15:01:33	357197	62a2adb16716c2e0c8d3c07a	3	1	main_slash	7	advance_on_keypress_SLASH	108	stimuli_target_diamondsquares.svg	stimuli_distractor_diamondtriangles.svg	24	yes	57	0	126	0	0			0	0			1				0	
6.6.1	win	2023-06-24	14:55:22	15:01:34	358538	62a2adb16716c2e0c8d3c07a	3	1	main_slash	7	main_slash	109	stimuli_distractor_diamondtriangles.svg	stimuli_target_diamondsquares.svg	32	yes	53	1	559	0	0			0	0			1				0	
6.6.1	win	2023-06-24	14:55:22	15:01:34	358538	62a2adb16716c2e0c8d3c07a	3	1	main_slash	7	advance_on_keypress_SLASH	110	stimuli_distractor_diamondtriangles.svg	stimuli_target_diamondsquares.svg	32	yes	57	0	224	0	0			0	0			1				0	
6.6.1	win	2023-06-24	14:55:22	15:01:36	360209	62a2adb16716c2e0c8d3c07a	3	1	main_slash	7	main_slash	111	stimuli_distractor_diamondtriangles.svg	stimuli_distractor_diamondtriangles.svg	40	no	53	0	797	0	0			0	0			1				0	
6.6.1	win	2023-06-24	14:55:22	15:01:36	360209	62a2adb16716c2e0c8d3c07a	3	1	main_slash	7	advance_on_keypress_SLASH	112	stimuli_distractor_diamondtriangles.svg	stimuli_distractor_diamondtriangles.svg	40	no	57	0	310	0	0			0	0			1				0	
6.6.1	win	2023-06-24	14:55:22	15:01:37	361770	62a2adb16716c2e0c8d3c07a	3	1	main_slash	7	main_slash	113	stimuli_target_diamondsquares.svg	stimuli_distractor_trianglediamonds.svg	20	yes	53	1	591	0	0			0	0			1				0	
6.6.1	win	2023-06-24	14:55:22	15:01:37	361770	62a2adb16716c2e0c8d3c07a	3	1	main_slash	7	advance_on_keypress_SLASH	114	stimuli_target_diamondsquares.svg	stimuli_distractor_trianglediamonds.svg	20	yes	57	0	238	0	0			0	0			1				0	
6.6.1	win	2023-06-24	14:55:22	15:01:39	363339	62a2adb16716c2e0c8d3c07a	3	1	main_slash	7	main_slash	115	stimuli_distractor_trianglediamonds.svg	stimuli_target_squarediamonds.svg	12	yes	53	1	675	0	0			0	0			1				0	
6.6.1	win	2023-06-24	14:55:22	15:01:39	363339	62a2adb16716c2e0c8d3c07a	3	1	main_slash	7	advance_on_keypress_SLASH	116	stimuli_distractor_trianglediamonds.svg	stimuli_target_squarediamonds.svg	12	yes	57	0	297	0	0			0	0			1				0	
6.6.1	win	2023-06-24	14:55:22	15:01:42	366298	62a2adb16716c2e0c8d3c07a	3	1	main_slash	7	main_slash	117	stimuli_target_rectanglediamonds.svg	stimuli_distractor_diamondtriangles.svg	6	yes	0	0	2000	0	0			0	0			1				0	
6.6.1	win	2023-06-24	14:55:22	15:01:42	366298	62a2adb16716c2e0c8d3c07a	3	1	main_slash	7	advance_on_keypress_SLASH	118	stimuli_target_rectanglediamonds.svg	stimuli_distractor_diamondtriangles.svg	6	yes	57	0	394	0	0			0	0			1				0	
6.6.1	win	2023-06-24	14:55:22	15:01:43	367891	62a2adb16716c2e0c8d3c07a	3	1	main_slash	7	main_slash	119	stimuli_target_rectanglediamonds.svg	stimuli_distractor_trianglediamonds.svg	2	yes	53	1	544	0	0			0	0			1				0	
6.6.1	win	2023-06-24	14:55:22	15:01:43	367891	62a2adb16716c2e0c8d3c07a	3	1	main_slash	7	advance_on_keypress_SLASH	120	stimuli_target_rectanglediamonds.svg	stimuli_distractor_trianglediamonds.svg	2	yes	57	0	266	0	0			0	0			1				0	
6.6.1	win	2023-06-24	14:55:22	15:01:46	370813	62a2adb16716c2e0c8d3c07a	3	1	main_slash	7	main_slash	121	stimuli_distractor_trianglediamonds.svg	stimuli_distractor_diamondtriangles.svg	35	no	0	1	2000	0	0			0	0			1				0	
6.6.1	win	2023-06-24	14:55:22	15:01:46	370813	62a2adb16716c2e0c8d3c07a	3	1	main_slash	7	advance_on_keypress_SLASH	122	stimuli_distractor_trianglediamonds.svg	stimuli_distractor_diamondtriangles.svg	35	no	57	0	69	0	0			0	0			1				0	
6.6.1	win	2023-06-24	14:55:22	15:01:48	371970	62a2adb16716c2e0c8d3c07a	3	1	main_slash	7	main_slash	123	stimuli_distractor_trianglediamonds.svg	stimuli_target_trianglesquares.svg	26	yes	53	1	441	0	0			0	0			1				0	
6.6.1	win	2023-06-24	14:55:22	15:01:48	371970	62a2adb16716c2e0c8d3c07a	3	1	main_slash	7	advance_on_keypress_SLASH	124	stimuli_distractor_trianglediamonds.svg	stimuli_target_trianglesquares.svg	26	yes	57	0	222	0	0			0	0			1				0	
6.6.1	win	2023-06-24	14:55:22	15:01:50	374491	62a2adb16716c2e0c8d3c07a	3	1	main_slash	7	main_slash	125	stimuli_distractor_trianglediamonds.svg	stimuli_distractor_trianglediamonds.svg	34	no	53	0	1627	0	0			0	0			1				0	
6.6.1	win	2023-06-24	14:55:22	15:01:50	374491	62a2adb16716c2e0c8d3c07a	3	1	main_slash	7	advance_on_keypress_SLASH	126	stimuli_distractor_trianglediamonds.svg	stimuli_distractor_trianglediamonds.svg	34	no	57	0	354	0	0			0	0			1				0	
6.6.1	win	2023-06-24	14:55:22	15:01:52	376522	62a2adb16716c2e0c8d3c07a	3	1	main_slash	7	main_slash	127	stimuli_distractor_diamondtriangles.svg	stimuli_target_diamondrectangles.svg	31	yes	53	1	1025	0	0			0	0			1				0	
6.6.1	win	2023-06-24	14:55:22	15:01:52	376522	62a2adb16716c2e0c8d3c07a	3	1	main_slash	7	advance_on_keypress_SLASH	128	stimuli_distractor_diamondtriangles.svg	stimuli_target_diamondrectangles.svg	31	yes	57	0	248	0	0			0	0			1				0	
6.6.1	win	2023-06-24	14:55:22	15:01:55	379431	62a2adb16716c2e0c8d3c07a	3	1	main_slash	7	main_slash	129	stimuli_distractor_diamondtriangles.svg	stimuli_distractor_trianglediamonds.svg	38	no	0	1	2000	0	0			0	0			1				0	
6.6.1	win	2023-06-24	14:55:22	15:01:55	379431	62a2adb16716c2e0c8d3c07a	3	1	main_slash	7	advance_on_keypress_SLASH	130	stimuli_distractor_diamondtriangles.svg	stimuli_distractor_trianglediamonds.svg	38	no	57	0	20	0	0			0	0			1				0	
6.6.1	win	2023-06-24	14:55:22	15:01:56	380738	62a2adb16716c2e0c8d3c07a	3	1	main_slash	7	main_slash	131	stimuli_target_squarediamonds.svg	stimuli_distractor_diamondtriangles.svg	8	yes	53	1	626	0	0			0	0			1				0	
6.6.1	win	2023-06-24	14:55:22	15:01:56	380738	62a2adb16716c2e0c8d3c07a	3	1	main_slash	7	advance_on_keypress_SLASH	132	stimuli_target_squarediamonds.svg	stimuli_distractor_diamondtriangles.svg	8	yes	57	0	191	0	0			0	0			1				0	
6.6.1	win	2023-06-24	14:55:22	15:01:58	382051	62a2adb16716c2e0c8d3c07a	3	1	main_slash	7	main_slash	133	stimuli_distractor_trianglediamonds.svg	stimuli_target_rectanglediamonds.svg	10	yes	53	1	455	0	0			0	0			1				0	
6.6.1	win	2023-06-24	14:55:22	15:01:58	382051	62a2adb16716c2e0c8d3c07a	3	1	main_slash	7	advance_on_keypress_SLASH	134	stimuli_distractor_trianglediamonds.svg	stimuli_target_rectanglediamonds.svg	10	yes	57	0	179	0	0			0	0			1				0	
6.6.1	win	2023-06-24	14:55:22	15:01:59	383496	62a2adb16716c2e0c8d3c07a	3	1	main_slash	7	main_slash	135	stimuli_target_trianglesquares.svg	stimuli_distractor_diamondtriangles.svg	22	yes	53	1	594	0	0			0	0			1				0	
6.6.1	win	2023-06-24	14:55:22	15:01:59	383496	62a2adb16716c2e0c8d3c07a	3	1	main_slash	7	advance_on_keypress_SLASH	136	stimuli_target_trianglesquares.svg	stimuli_distractor_diamondtriangles.svg	22	yes	57	0	177	0	0			0	0			1				0	
6.6.1	win	2023-06-24	14:55:22	15:02:00	384811	62a2adb16716c2e0c8d3c07a	3	1	main_slash	7	main_slash	137	stimuli_distractor_trianglediamonds.svg	stimuli_target_trianglerectangles.svg	25	yes	53	1	480	0	0			0	0			1				0	
6.6.1	win	2023-06-24	14:55:22	15:02:00	384811	62a2adb16716c2e0c8d3c07a	3	1	main_slash	7	advance_on_keypress_SLASH	138	stimuli_distractor_trianglediamonds.svg	stimuli_target_trianglerectangles.svg	25	yes	57	0	133	0	0			0	0			1				0	
6.6.1	win	2023-06-24	14:55:22	15:02:02	386508	62a2adb16716c2e0c8d3c07a	3	1	main_slash	7	main_slash	139	stimuli_distractor_diamondtriangles.svg	stimuli_target_squaretriangles.svg	15	yes	53	1	910	0	0			0	0			1				0	
6.6.1	win	2023-06-24	14:55:22	15:02:02	386508	62a2adb16716c2e0c8d3c07a	3	1	main_slash	7	advance_on_keypress_SLASH	140	stimuli_distractor_diamondtriangles.svg	stimuli_target_squaretriangles.svg	15	yes	57	0	193	0	0			0	0			1				0	
6.6.1	win	2023-06-24	14:55:22	15:02:03	387891	62a2adb16716c2e0c8d3c07a	3	1	main_slash	7	main_slash	141	stimuli_distractor_trianglediamonds.svg	stimuli_target_diamondsquares.svg	28	yes	53	1	528	0	0			0	0			1				0	
6.6.1	win	2023-06-24	14:55:22	15:02:03	387891	62a2adb16716c2e0c8d3c07a	3	1	main_slash	7	advance_on_keypress_SLASH	142	stimuli_distractor_trianglediamonds.svg	stimuli_target_diamondsquares.svg	28	yes	57	0	154	0	0			0	0			1				0	
6.6.1	win	2023-06-24	14:55:22	15:02:05	389449	62a2adb16716c2e0c8d3c07a	3	1	main_slash	7	main_slash	143	stimuli_target_trianglerectangles.svg	stimuli_distractor_trianglediamonds.svg	17	yes	53	1	754	0	0			0	0			1				0	
6.6.1	win	2023-06-24	14:55:22	15:02:05	389449	62a2adb16716c2e0c8d3c07a	3	1	main_slash	7	advance_on_keypress_SLASH	144	stimuli_target_trianglerectangles.svg	stimuli_distractor_trianglediamonds.svg	17	yes	57	0	155	0	0			0	0			1				0	
6.6.1	win	2023-06-24	14:55:22	15:02:06	390721	62a2adb16716c2e0c8d3c07a	3	1	main_slash	7	main_slash	145	stimuli_target_diamondrectangles.svg	stimuli_distractor_trianglediamonds.svg	19	yes	53	1	475	0	0			0	0			1				0	
6.6.1	win	2023-06-24	14:55:22	15:02:06	390721	62a2adb16716c2e0c8d3c07a	3	1	main_slash	7	advance_on_keypress_SLASH	146	stimuli_target_diamondrectangles.svg	stimuli_distractor_trianglediamonds.svg	19	yes	57	0	168	0	0			0	0			1				0	
6.6.1	win	2023-06-24	14:55:22	15:02:08	392009	62a2adb16716c2e0c8d3c07a	3	1	main_slash	7	main_slash	147	stimuli_distractor_diamondtriangles.svg	stimuli_distractor_diamondtriangles.svg	39	no	53	0	463	0	0			0	0			1				0	
6.6.1	win	2023-06-24	14:55:22	15:02:08	392009	62a2adb16716c2e0c8d3c07a	3	1	main_slash	7	advance_on_keypress_SLASH	148	stimuli_distractor_diamondtriangles.svg	stimuli_distractor_diamondtriangles.svg	39	no	57	0	165	0	0			0	0			1				0	
6.6.1	win	2023-06-24	14:55:22	15:02:09	393369	62a2adb16716c2e0c8d3c07a	3	1	main_slash	7	main_slash	149	stimuli_target_squaretriangles.svg	stimuli_distractor_trianglediamonds.svg	3	yes	53	1	541	0	0			0	0			1				0	
6.6.1	win	2023-06-24	14:55:22	15:02:09	393369	62a2adb16716c2e0c8d3c07a	3	1	main_slash	7	advance_on_keypress_SLASH	150	stimuli_target_squaretriangles.svg	stimuli_distractor_trianglediamonds.svg	3	yes	57	0	150	0	0			0	0			1				0	
6.6.1	win	2023-06-24	14:55:22	15:02:10	394625	62a2adb16716c2e0c8d3c07a	3	1	main_slash	7	main_slash	151	stimuli_distractor_diamondtriangles.svg	stimuli_target_rectangletriangles.svg	13	yes	53	1	446	0	0			0	0			1				0	
6.6.1	win	2023-06-24	14:55:22	15:02:10	394625	62a2adb16716c2e0c8d3c07a	3	1	main_slash	7	advance_on_keypress_SLASH	152	stimuli_distractor_diamondtriangles.svg	stimuli_target_rectangletriangles.svg	13	yes	57	0	180	0	0			0	0			1				0	
6.6.1	win	2023-06-24	14:55:22	15:02:12	396019	62a2adb16716c2e0c8d3c07a	3	1	main_slash	7	main_slash	153	stimuli_target_diamondrectangles.svg	stimuli_distractor_diamondtriangles.svg	23	yes	53	1	556	0	0			0	0			1				0	
6.6.1	win	2023-06-24	14:55:22	15:02:12	396019	62a2adb16716c2e0c8d3c07a	3	1	main_slash	7	advance_on_keypress_SLASH	154	stimuli_target_diamondrectangles.svg	stimuli_distractor_diamondtriangles.svg	23	yes	57	0	116	0	0			0	0			1				0	
6.6.1	win	2023-06-24	14:55:22	15:02:13	397194	62a2adb16716c2e0c8d3c07a	3	1	main_slash	7	main_slash	155	stimuli_distractor_diamondtriangles.svg	stimuli_target_trianglesquares.svg	30	yes	53	1	397	0	0			0	0			1				0	
6.6.1	win	2023-06-24	14:55:22	15:02:13	397194	62a2adb16716c2e0c8d3c07a	3	1	main_slash	7	advance_on_keypress_SLASH	156	stimuli_distractor_diamondtriangles.svg	stimuli_target_trianglesquares.svg	30	yes	57	0	222	0	0			0	0			1				0	
6.6.1	win	2023-06-24	14:55:22	15:02:14	398443	62a2adb16716c2e0c8d3c07a	3	1	main_slash	7	main_slash	157	stimuli_distractor_diamondtriangles.svg	stimuli_target_trianglerectangles.svg	29	yes	53	1	379	0	0			0	0			1				0	
6.6.1	win	2023-06-24	14:55:22	15:02:14	398443	62a2adb16716c2e0c8d3c07a	3	1	main_slash	7	advance_on_keypress_SLASH	158	stimuli_distractor_diamondtriangles.svg	stimuli_target_trianglerectangles.svg	29	yes	57	0	283	0	0			0	0			1				0	
6.6.1	win	2023-06-24	14:55:22	15:02:17	401379	62a2adb16716c2e0c8d3c07a	3	1	main_slash	7	main_slash	159	stimuli_target_rectangletriangles.svg	stimuli_distractor_trianglediamonds.svg	1	yes	0	0	2000	0	0			0	0			1				0	
6.6.1	win	2023-06-24	14:55:22	15:02:17	401379	62a2adb16716c2e0c8d3c07a	3	1	main_slash	7	advance_on_keypress_SLASH	160	stimuli_target_rectangletriangles.svg	stimuli_distractor_trianglediamonds.svg	1	yes	57	0	606	0	0			0	0			1				0	
6.6.1	win	2023-06-24	14:55:22	15:02:52	435975	62a2adb16716c2e0c8d3c07a	3	1	practice_z	9	practice_z	1	stimuli_target_diamondsquares.svg	stimuli_distractor_diamondtriangles.svg	3	yes	44	1	456	0	0			0	0			1				0	
6.6.1	win	2023-06-24	14:55:22	15:02:52	435975	62a2adb16716c2e0c8d3c07a	3	1	practice_z	9	advance_on_keypress_ZEE	2	stimuli_target_diamondsquares.svg	stimuli_distractor_diamondtriangles.svg	3	yes	57	0	686	0	0			0	0			1				0	
6.6.1	win	2023-06-24	14:55:22	15:02:55	439415	62a2adb16716c2e0c8d3c07a	3	1	practice_z	9	practice_z	3	stimuli_distractor_diamondtriangles.svg	stimuli_distractor_trianglediamonds.svg	14	no	44	0	1097	0	0			0	0			1				0	
6.6.1	win	2023-06-24	14:55:22	15:02:55	439415	62a2adb16716c2e0c8d3c07a	3	1	practice_z	9	advance_on_keypress_ZEE	4	stimuli_distractor_diamondtriangles.svg	stimuli_distractor_trianglediamonds.svg	14	no	57	0	588	0	0			0	0			1				0	
6.6.1	win	2023-06-24	14:55:22	15:02:58	442074	62a2adb16716c2e0c8d3c07a	3	1	practice_z	9	practice_z	5	stimuli_distractor_diamondtriangles.svg	stimuli_target_diamondrectangles.svg	8	yes	44	1	403	0	0			0	0			1				0	
6.6.1	win	2023-06-24	14:55:22	15:02:58	442074	62a2adb16716c2e0c8d3c07a	3	1	practice_z	9	advance_on_keypress_ZEE	6	stimuli_distractor_diamondtriangles.svg	stimuli_target_diamondrectangles.svg	8	yes	57	0	754	0	0			0	0			1				0	
6.6.1	win	2023-06-24	14:55:22	15:03:00	444865	62a2adb16716c2e0c8d3c07a	3	1	practice_z	9	practice_z	7	stimuli_distractor_trianglediamonds.svg	stimuli_distractor_trianglediamonds.svg	15	no	44	0	362	0	0			0	0			1				0	
6.6.1	win	2023-06-24	14:55:22	15:03:00	444865	62a2adb16716c2e0c8d3c07a	3	1	practice_z	9	advance_on_keypress_ZEE	8	stimuli_distractor_trianglediamonds.svg	stimuli_distractor_trianglediamonds.svg	15	no	57	0	387	0	0			0	0			1				0	
6.6.1	win	2023-06-24	14:55:22	15:03:03	447345	62a2adb16716c2e0c8d3c07a	3	1	practice_z	9	practice_z	9	stimuli_distractor_trianglediamonds.svg	stimuli_target_rectanglediamonds.svg	10	yes	44	1	425	0	0			0	0			1				0	
6.6.1	win	2023-06-24	14:55:22	15:03:03	447345	62a2adb16716c2e0c8d3c07a	3	1	practice_z	9	advance_on_keypress_ZEE	10	stimuli_distractor_trianglediamonds.svg	stimuli_target_rectanglediamonds.svg	10	yes	57	0	416	0	0			0	0			1				0	
6.6.1	win	2023-06-24	14:55:22	15:03:06	449938	62a2adb16716c2e0c8d3c07a	3	1	practice_z	9	practice_z	11	stimuli_distractor_trianglediamonds.svg	stimuli_target_squarediamonds.svg	11	yes	44	1	509	0	0			0	0			1				0	
6.6.1	win	2023-06-24	14:55:22	15:03:06	449938	62a2adb16716c2e0c8d3c07a	3	1	practice_z	9	advance_on_keypress_ZEE	12	stimuli_distractor_trianglediamonds.svg	stimuli_target_squarediamonds.svg	11	yes	57	0	359	0	0			0	0			1				0	
6.6.1	win	2023-06-24	14:55:22	15:03:08	452385	62a2adb16716c2e0c8d3c07a	3	1	practice_z	9	practice_z	13	stimuli_target_diamondsquares.svg	stimuli_distractor_trianglediamonds.svg	6	yes	44	1	415	0	0			0	0			1				0	
6.6.1	win	2023-06-24	14:55:22	15:03:08	452385	62a2adb16716c2e0c8d3c07a	3	1	practice_z	9	advance_on_keypress_ZEE	14	stimuli_target_diamondsquares.svg	stimuli_distractor_trianglediamonds.svg	6	yes	57	0	366	0	0			0	0			1				0	
6.6.1	win	2023-06-24	14:55:22	15:03:12	456401	62a2adb16716c2e0c8d3c07a	3	1	practice_z	9	practice_z	15	stimuli_distractor_trianglediamonds.svg	stimuli_distractor_diamondtriangles.svg	16	no	0	1	2000	0	0			0	0			1				0	
6.6.1	win	2023-06-24	14:55:22	15:03:12	456401	62a2adb16716c2e0c8d3c07a	3	1	practice_z	9	advance_on_keypress_ZEE	16	stimuli_distractor_trianglediamonds.svg	stimuli_distractor_diamondtriangles.svg	16	no	57	0	397	0	0			0	0			1				0	
6.6.1	win	2023-06-24	14:55:22	15:03:14	458824	62a2adb16716c2e0c8d3c07a	3	1	practice_z	9	practice_z	17	stimuli_target_squarediamonds.svg	stimuli_distractor_diamondtriangles.svg	2	yes	44	1	364	0	0			0	0			1				0	
6.6.1	win	2023-06-24	14:55:22	15:03:14	458824	62a2adb16716c2e0c8d3c07a	3	1	practice_z	9	advance_on_keypress_ZEE	18	stimuli_target_squarediamonds.svg	stimuli_distractor_diamondtriangles.svg	2	yes	57	0	564	0	0			0	0			1				0	
6.6.1	win	2023-06-24	14:55:22	15:03:17	461522	62a2adb16716c2e0c8d3c07a	3	1	practice_z	9	practice_z	19	stimuli_distractor_diamondtriangles.svg	stimuli_target_trianglerectangles.svg	9	yes	44	1	459	0	0			0	0			1				0	
6.6.1	win	2023-06-24	14:55:22	15:03:17	461522	62a2adb16716c2e0c8d3c07a	3	1	practice_z	9	advance_on_keypress_ZEE	20	stimuli_distractor_diamondtriangles.svg	stimuli_target_trianglerectangles.svg	9	yes	57	0	328	0	0			0	0			1				0	
6.6.1	win	2023-06-24	14:55:22	15:03:20	464643	62a2adb16716c2e0c8d3c07a	3	1	practice_z	9	practice_z	21	stimuli_target_rectanglediamonds.svg	stimuli_distractor_trianglediamonds.svg	4	yes	44	1	1122	0	0			0	0			1				0	
6.6.1	win	2023-06-24	14:55:22	15:03:20	464643	62a2adb16716c2e0c8d3c07a	3	1	practice_z	9	advance_on_keypress_ZEE	22	stimuli_target_rectanglediamonds.svg	stimuli_distractor_trianglediamonds.svg	4	yes	57	0	603	0	0			0	0			1				0	
6.6.1	win	2023-06-24	14:55:22	15:03:23	467620	62a2adb16716c2e0c8d3c07a	3	1	practice_z	9	practice_z	23	stimuli_distractor_diamondtriangles.svg	stimuli_target_rectangletriangles.svg	7	yes	44	1	689	0	0			0	0			1				0	
6.6.1	win	2023-06-24	14:55:22	15:03:23	467620	62a2adb16716c2e0c8d3c07a	3	1	practice_z	9	advance_on_keypress_ZEE	24	stimuli_distractor_diamondtriangles.svg	stimuli_target_rectangletriangles.svg	7	yes	57	0	659	0	0			0	0			1				0	
6.6.1	win	2023-06-24	14:55:22	15:03:28	471954	62a2adb16716c2e0c8d3c07a	3	1	practice_z	9	practice_z	25	stimuli_distractor_diamondtriangles.svg	stimuli_distractor_diamondtriangles.svg	13	no	0	1	2000	0	0			0	0			1				0	
6.6.1	win	2023-06-24	14:55:22	15:03:28	471954	62a2adb16716c2e0c8d3c07a	3	1	practice_z	9	advance_on_keypress_ZEE	26	stimuli_distractor_diamondtriangles.svg	stimuli_distractor_diamondtriangles.svg	13	no	57	0	416	0	0			0	0			1				0	
6.6.1	win	2023-06-24	14:55:22	15:03:30	474604	62a2adb16716c2e0c8d3c07a	3	1	practice_z	9	practice_z	27	stimuli_target_rectanglediamonds.svg	stimuli_distractor_diamondtriangles.svg	1	yes	44	1	564	0	0			0	0			1				0	
6.6.1	win	2023-06-24	14:55:22	15:03:30	474604	62a2adb16716c2e0c8d3c07a	3	1	practice_z	9	advance_on_keypress_ZEE	28	stimuli_target_rectanglediamonds.svg	stimuli_distractor_diamondtriangles.svg	1	yes	57	0	517	0	0			0	0			1				0	
6.6.1	win	2023-06-24	14:55:22	15:03:33	477233	62a2adb16716c2e0c8d3c07a	3	1	practice_z	9	practice_z	29	stimuli_target_squarediamonds.svg	stimuli_distractor_trianglediamonds.svg	5	yes	44	1	390	0	0			0	0			1				0	
6.6.1	win	2023-06-24	14:55:22	15:03:33	477233	62a2adb16716c2e0c8d3c07a	3	1	practice_z	9	advance_on_keypress_ZEE	30	stimuli_target_squarediamonds.svg	stimuli_distractor_trianglediamonds.svg	5	yes	57	0	484	0	0			0	0			1				0	
6.6.1	win	2023-06-24	14:55:22	15:03:36	480424	62a2adb16716c2e0c8d3c07a	3	1	practice_z	9	practice_z	31	stimuli_distractor_trianglediamonds.svg	stimuli_target_diamondrectangles.svg	12	yes	44	1	1021	0	0			0	0			1				0	
6.6.1	win	2023-06-24	14:55:22	15:03:36	480424	62a2adb16716c2e0c8d3c07a	3	1	practice_z	9	advance_on_keypress_ZEE	32	stimuli_distractor_trianglediamonds.svg	stimuli_target_diamondrectangles.svg	12	yes	57	0	764	0	0			0	0			1				0	
6.6.1	win	2023-06-24	14:55:22	15:03:52	496070	62a2adb16716c2e0c8d3c07a	3	1	main_z	11	main_z	1	stimuli_distractor_trianglediamonds.svg	stimuli_target_squaretriangles.svg	11	yes	44	1	339	0	0			0	0			1				0	
6.6.1	win	2023-06-24	14:55:22	15:03:52	496070	62a2adb16716c2e0c8d3c07a	3	1	main_z	11	advance_on_keypress_ZEE	2	stimuli_distractor_trianglediamonds.svg	stimuli_target_squaretriangles.svg	11	yes	57	0	1706	0	0			0	0			1				0	
6.6.1	win	2023-06-24	14:55:22	15:03:54	498850	62a2adb16716c2e0c8d3c07a	3	1	main_z	11	main_z	3	stimuli_distractor_trianglediamonds.svg	stimuli_target_rectangletriangles.svg	9	yes	44	1	403	0	0			0	0			1				0	
6.6.1	win	2023-06-24	14:55:22	15:03:54	498850	62a2adb16716c2e0c8d3c07a	3	1	main_z	11	advance_on_keypress_ZEE	4	stimuli_distractor_trianglediamonds.svg	stimuli_target_rectangletriangles.svg	9	yes	57	0	316	0	0			0	0			1				0	
6.6.1	win	2023-06-24	14:55:22	15:03:56	500267	62a2adb16716c2e0c8d3c07a	3	1	main_z	11	main_z	5	stimuli_target_diamondrectangles.svg	stimuli_distractor_diamondtriangles.svg	23	yes	44	1	454	0	0			0	0			1				0	
6.6.1	win	2023-06-24	14:55:22	15:03:56	500267	62a2adb16716c2e0c8d3c07a	3	1	main_z	11	advance_on_keypress_ZEE	6	stimuli_target_diamondrectangles.svg	stimuli_distractor_diamondtriangles.svg	23	yes	57	0	435	0	0			0	0			1				0	
6.6.1	win	2023-06-24	14:55:22	15:03:58	502002	62a2adb16716c2e0c8d3c07a	3	1	main_z	11	main_z	7	stimuli_distractor_diamondtriangles.svg	stimuli_target_trianglesquares.svg	30	yes	44	1	652	0	0			0	0			1				0	
6.6.1	win	2023-06-24	14:55:22	15:03:58	502002	62a2adb16716c2e0c8d3c07a	3	1	main_z	11	advance_on_keypress_ZEE	8	stimuli_distractor_diamondtriangles.svg	stimuli_target_trianglesquares.svg	30	yes	57	0	253	0	0			0	0			1				0	
6.6.1	win	2023-06-24	14:55:22	15:03:59	503394	62a2adb16716c2e0c8d3c07a	3	1	main_z	11	main_z	9	stimuli_distractor_diamondtriangles.svg	stimuli_target_rectangletriangles.svg	13	yes	44	1	481	0	0			0	0			1				0	
6.6.1	win	2023-06-24	14:55:22	15:03:59	503394	62a2adb16716c2e0c8d3c07a	3	1	main_z	11	advance_on_keypress_ZEE	10	stimuli_distractor_diamondtriangles.svg	stimuli_target_rectangletriangles.svg	13	yes	57	0	309	0	0			0	0			1				0	
6.6.1	win	2023-06-24	14:55:22	15:04:02	506363	62a2adb16716c2e0c8d3c07a	3	1	main_z	11	main_z	11	stimuli_distractor_diamondtriangles.svg	stimuli_distractor_diamondtriangles.svg	40	no	0	1	2000	0	0			0	0			1				0	
6.6.1	win	2023-06-24	14:55:22	15:04:02	506363	62a2adb16716c2e0c8d3c07a	3	1	main_z	11	advance_on_keypress_ZEE	12	stimuli_distractor_diamondtriangles.svg	stimuli_distractor_diamondtriangles.svg	40	no	57	0	215	0	0			0	0			1				0	
6.6.1	win	2023-06-24	14:55:22	15:04:03	507724	62a2adb16716c2e0c8d3c07a	3	1	main_z	11	main_z	13	stimuli_distractor_diamondtriangles.svg	stimuli_target_diamondsquares.svg	32	yes	44	1	493	0	0			0	0			1				0	
6.6.1	win	2023-06-24	14:55:22	15:04:03	507724	62a2adb16716c2e0c8d3c07a	3	1	main_z	11	advance_on_keypress_ZEE	14	stimuli_distractor_diamondtriangles.svg	stimuli_target_diamondsquares.svg	32	yes	57	0	320	0	0			0	0			1				0	
6.6.1	win	2023-06-24	14:55:22	15:04:05	509224	62a2adb16716c2e0c8d3c07a	3	1	main_z	11	main_z	15	stimuli_distractor_trianglediamonds.svg	stimuli_target_diamondrectangles.svg	27	yes	44	1	515	0	0			0	0			1				0	
6.6.1	win	2023-06-24	14:55:22	15:04:05	509224	62a2adb16716c2e0c8d3c07a	3	1	main_z	11	advance_on_keypress_ZEE	16	stimuli_distractor_trianglediamonds.svg	stimuli_target_diamondrectangles.svg	27	yes	57	0	332	0	0			0	0			1				0	
6.6.1	win	2023-06-24	14:55:22	15:04:07	511234	62a2adb16716c2e0c8d3c07a	3	1	main_z	11	main_z	17	stimuli_distractor_trianglediamonds.svg	stimuli_target_diamondsquares.svg	28	yes	44	1	1021	0	0			0	0			1				0	
6.6.1	win	2023-06-24	14:55:22	15:04:07	511234	62a2adb16716c2e0c8d3c07a	3	1	main_z	11	advance_on_keypress_ZEE	18	stimuli_distractor_trianglediamonds.svg	stimuli_target_diamondsquares.svg	28	yes	57	0	444	0	0			0	0			1				0	
6.6.1	win	2023-06-24	14:55:22	15:04:08	512722	62a2adb16716c2e0c8d3c07a	3	1	main_z	11	main_z	19	stimuli_target_squaretriangles.svg	stimuli_distractor_diamondtriangles.svg	7	yes	44	1	392	0	0			0	0			1				0	
6.6.1	win	2023-06-24	14:55:22	15:04:08	512722	62a2adb16716c2e0c8d3c07a	3	1	main_z	11	advance_on_keypress_ZEE	20	stimuli_target_squaretriangles.svg	stimuli_distractor_diamondtriangles.svg	7	yes	57	0	368	0	0			0	0			1				0	
6.6.1	win	2023-06-24	14:55:22	15:04:10	514547	62a2adb16716c2e0c8d3c07a	3	1	main_z	11	main_z	21	stimuli_distractor_trianglediamonds.svg	stimuli_target_trianglesquares.svg	26	yes	44	1	792	0	0			0	0			1				0	
6.6.1	win	2023-06-24	14:55:22	15:04:10	514547	62a2adb16716c2e0c8d3c07a	3	1	main_z	11	advance_on_keypress_ZEE	22	stimuli_distractor_trianglediamonds.svg	stimuli_target_trianglesquares.svg	26	yes	57	0	367	0	0			0	0			1				0	
6.6.1	win	2023-06-24	14:55:22	15:04:12	516018	62a2adb16716c2e0c8d3c07a	3	1	main_z	11	main_z	23	stimuli_target_diamondsquares.svg	stimuli_distractor_diamondtriangles.svg	24	yes	44	1	456	0	0			0	0			1				0	
6.6.1	win	2023-06-24	14:55:22	15:04:12	516018	62a2adb16716c2e0c8d3c07a	3	1	main_z	11	advance_on_keypress_ZEE	24	stimuli_target_diamondsquares.svg	stimuli_distractor_diamondtriangles.svg	24	yes	57	0	277	0	0			0	0			1				0	
6.6.1	win	2023-06-24	14:55:22	15:04:13	517508	62a2adb16716c2e0c8d3c07a	3	1	main_z	11	main_z	25	stimuli_target_trianglerectangles.svg	stimuli_distractor_diamondtriangles.svg	21	yes	44	1	559	0	0			0	0			1				0	
6.6.1	win	2023-06-24	14:55:22	15:04:13	517508	62a2adb16716c2e0c8d3c07a	3	1	main_z	11	advance_on_keypress_ZEE	26	stimuli_target_trianglerectangles.svg	stimuli_distractor_diamondtriangles.svg	21	yes	57	0	329	0	0			0	0			1				0	
6.6.1	win	2023-06-24	14:55:22	15:04:16	520495	62a2adb16716c2e0c8d3c07a	3	1	main_z	11	main_z	27	stimuli_distractor_trianglediamonds.svg	stimuli_distractor_diamondtriangles.svg	36	no	0	1	2000	0	0			0	0			1				0	
6.6.1	win	2023-06-24	14:55:22	15:04:16	520495	62a2adb16716c2e0c8d3c07a	3	1	main_z	11	advance_on_keypress_ZEE	28	stimuli_distractor_trianglediamonds.svg	stimuli_distractor_diamondtriangles.svg	36	no	57	0	289	0	0			0	0			1				0	
6.6.1	win	2023-06-24	14:55:22	15:04:18	522082	62a2adb16716c2e0c8d3c07a	3	1	main_z	11	main_z	29	stimuli_distractor_trianglediamonds.svg	stimuli_target_trianglerectangles.svg	25	yes	44	1	637	0	0			0	0			1				0	
6.6.1	win	2023-06-24	14:55:22	15:04:18	522082	62a2adb16716c2e0c8d3c07a	3	1	main_z	11	advance_on_keypress_ZEE	30	stimuli_distractor_trianglediamonds.svg	stimuli_target_trianglerectangles.svg	25	yes	57	0	322	0	0			0	0			1				0	
6.6.1	win	2023-06-24	14:55:22	15:04:20	524122	62a2adb16716c2e0c8d3c07a	3	1	main_z	11	main_z	31	stimuli_target_trianglesquares.svg	stimuli_distractor_diamondtriangles.svg	22	yes	44	1	1059	0	0			0	0			1				0	
6.6.1	win	2023-06-24	14:55:22	15:04:20	524122	62a2adb16716c2e0c8d3c07a	3	1	main_z	11	advance_on_keypress_ZEE	32	stimuli_target_trianglesquares.svg	stimuli_distractor_diamondtriangles.svg	22	yes	57	0	504	0	0			0	0			1				0	
6.6.1	win	2023-06-24	14:55:22	15:04:21	525683	62a2adb16716c2e0c8d3c07a	3	1	main_z	11	main_z	33	stimuli_target_squaretriangles.svg	stimuli_distractor_trianglediamonds.svg	3	yes	44	1	403	0	0			0	0			1				0	
6.6.1	win	2023-06-24	14:55:22	15:04:21	525683	62a2adb16716c2e0c8d3c07a	3	1	main_z	11	advance_on_keypress_ZEE	34	stimuli_target_squaretriangles.svg	stimuli_distractor_trianglediamonds.svg	3	yes	57	0	370	0	0			0	0			1				0	
6.6.1	win	2023-06-24	14:55:22	15:04:23	527146	62a2adb16716c2e0c8d3c07a	3	1	main_z	11	main_z	35	stimuli_distractor_trianglediamonds.svg	stimuli_target_squarediamonds.svg	12	yes	44	1	433	0	0			0	0			1				0	
6.6.1	win	2023-06-24	14:55:22	15:04:23	527146	62a2adb16716c2e0c8d3c07a	3	1	main_z	11	advance_on_keypress_ZEE	36	stimuli_distractor_trianglediamonds.svg	stimuli_target_squarediamonds.svg	12	yes	57	0	367	0	0			0	0			1				0	
6.6.1	win	2023-06-24	14:55:22	15:04:24	528564	62a2adb16716c2e0c8d3c07a	3	1	main_z	11	main_z	37	stimuli_target_rectanglediamonds.svg	stimuli_distractor_trianglediamonds.svg	2	yes	44	1	398	0	0			0	0			1				0	
6.6.1	win	2023-06-24	14:55:22	15:04:24	528564	62a2adb16716c2e0c8d3c07a	3	1	main_z	11	advance_on_keypress_ZEE	38	stimuli_target_rectanglediamonds.svg	stimuli_distractor_trianglediamonds.svg	2	yes	57	0	343	0	0			0	0			1				0	
6.6.1	win	2023-06-24	14:55:22	15:04:27	531563	62a2adb16716c2e0c8d3c07a	3	1	main_z	11	main_z	39	stimuli_distractor_diamondtriangles.svg	stimuli_distractor_trianglediamonds.svg	37	no	0	1	2000	0	0			0	0			1				0	
6.6.1	win	2023-06-24	14:55:22	15:04:27	531563	62a2adb16716c2e0c8d3c07a	3	1	main_z	11	advance_on_keypress_ZEE	40	stimuli_distractor_diamondtriangles.svg	stimuli_distractor_trianglediamonds.svg	37	no	57	0	535	0	0			0	0			1				0	
6.6.1	win	2023-06-24	14:55:22	15:04:29	533395	62a2adb16716c2e0c8d3c07a	3	1	main_z	11	main_z	41	stimuli_target_squarediamonds.svg	stimuli_distractor_diamondtriangles.svg	8	yes	44	1	647	0	0			0	0			1				0	
6.6.1	win	2023-06-24	14:55:22	15:04:29	533395	62a2adb16716c2e0c8d3c07a	3	1	main_z	11	advance_on_keypress_ZEE	42	stimuli_target_squarediamonds.svg	stimuli_distractor_diamondtriangles.svg	8	yes	57	0	318	0	0			0	0			1				0	
6.6.1	win	2023-06-24	14:55:22	15:04:30	534826	62a2adb16716c2e0c8d3c07a	3	1	main_z	11	main_z	43	stimuli_distractor_diamondtriangles.svg	stimuli_target_diamondrectangles.svg	31	yes	44	1	446	0	0			0	0			1				0	
6.6.1	win	2023-06-24	14:55:22	15:04:30	534826	62a2adb16716c2e0c8d3c07a	3	1	main_z	11	advance_on_keypress_ZEE	44	stimuli_distractor_diamondtriangles.svg	stimuli_target_diamondrectangles.svg	31	yes	57	0	206	0	0			0	0			1				0	
6.6.1	win	2023-06-24	14:55:22	15:04:32	536155	62a2adb16716c2e0c8d3c07a	3	1	main_z	11	main_z	45	stimuli_target_rectangletriangles.svg	stimuli_distractor_diamondtriangles.svg	5	yes	44	1	474	0	0			0	0			1				0	
6.6.1	win	2023-06-24	14:55:22	15:04:32	536155	62a2adb16716c2e0c8d3c07a	3	1	main_z	11	advance_on_keypress_ZEE	46	stimuli_target_rectangletriangles.svg	stimuli_distractor_diamondtriangles.svg	5	yes	57	0	279	0	0			0	0			1				0	
6.6.1	win	2023-06-24	14:55:22	15:04:35	539096	62a2adb16716c2e0c8d3c07a	3	1	main_z	11	main_z	47	stimuli_distractor_trianglediamonds.svg	stimuli_distractor_trianglediamonds.svg	33	no	0	1	2000	0	0			0	0			1				0	
6.6.1	win	2023-06-24	14:55:22	15:04:35	539096	62a2adb16716c2e0c8d3c07a	3	1	main_z	11	advance_on_keypress_ZEE	48	stimuli_distractor_trianglediamonds.svg	stimuli_distractor_trianglediamonds.svg	33	no	57	0	633	0	0			0	0			1				0	
6.6.1	win	2023-06-24	14:55:22	15:04:36	540787	62a2adb16716c2e0c8d3c07a	3	1	main_z	11	main_z	49	stimuli_target_rectanglediamonds.svg	stimuli_distractor_diamondtriangles.svg	6	yes	44	1	406	0	0			0	0			1				0	
6.6.1	win	2023-06-24	14:55:22	15:04:36	540787	62a2adb16716c2e0c8d3c07a	3	1	main_z	11	advance_on_keypress_ZEE	50	stimuli_target_rectanglediamonds.svg	stimuli_distractor_diamondtriangles.svg	6	yes	57	0	181	0	0			0	0			1				0	
6.6.1	win	2023-06-24	14:55:22	15:04:38	542236	62a2adb16716c2e0c8d3c07a	3	1	main_z	11	main_z	51	stimuli_distractor_trianglediamonds.svg	stimuli_distractor_trianglediamonds.svg	34	no	44	0	605	0	0			0	0			1				0	
6.6.1	win	2023-06-24	14:55:22	15:04:38	542236	62a2adb16716c2e0c8d3c07a	3	1	main_z	11	advance_on_keypress_ZEE	52	stimuli_distractor_trianglediamonds.svg	stimuli_distractor_trianglediamonds.svg	34	no	57	0	212	0	0			0	0			1				0	
6.6.1	win	2023-06-24	14:55:22	15:04:39	543506	62a2adb16716c2e0c8d3c07a	3	1	main_z	11	main_z	53	stimuli_distractor_diamondtriangles.svg	stimuli_target_trianglerectangles.svg	29	yes	44	1	391	0	0			0	0			1				0	
6.6.1	win	2023-06-24	14:55:22	15:04:39	543506	62a2adb16716c2e0c8d3c07a	3	1	main_z	11	advance_on_keypress_ZEE	54	stimuli_distractor_diamondtriangles.svg	stimuli_target_trianglerectangles.svg	29	yes	57	0	89	0	0			0	0			1				0	
6.6.1	win	2023-06-24	14:55:22	15:04:40	544635	62a2adb16716c2e0c8d3c07a	3	1	main_z	11	main_z	55	stimuli_target_trianglerectangles.svg	stimuli_distractor_trianglediamonds.svg	17	yes	44	1	388	0	0			0	0			1				0	
6.6.1	win	2023-06-24	14:55:22	15:04:40	544635	62a2adb16716c2e0c8d3c07a	3	1	main_z	11	advance_on_keypress_ZEE	56	stimuli_target_trianglerectangles.svg	stimuli_distractor_trianglediamonds.svg	17	yes	57	0	76	0	0			0	0			1				0	
6.6.1	win	2023-06-24	14:55:22	15:04:41	545754	62a2adb16716c2e0c8d3c07a	3	1	main_z	11	main_z	57	stimuli_target_trianglesquares.svg	stimuli_distractor_trianglediamonds.svg	18	yes	44	1	390	0	0			0	0			1				0	
6.6.1	win	2023-06-24	14:55:22	15:04:41	545754	62a2adb16716c2e0c8d3c07a	3	1	main_z	11	advance_on_keypress_ZEE	58	stimuli_target_trianglesquares.svg	stimuli_distractor_trianglediamonds.svg	18	yes	57	0	63	0	0			0	0			1				0	
6.6.1	win	2023-06-24	14:55:22	15:04:42	546810	62a2adb16716c2e0c8d3c07a	3	1	main_z	11	main_z	59	stimuli_target_diamondsquares.svg	stimuli_distractor_trianglediamonds.svg	20	yes	44	1	330	0	0			0	0			1				0	
6.6.1	win	2023-06-24	14:55:22	15:04:42	546810	62a2adb16716c2e0c8d3c07a	3	1	main_z	11	advance_on_keypress_ZEE	60	stimuli_target_diamondsquares.svg	stimuli_distractor_trianglediamonds.svg	20	yes	57	0	45	0	0			0	0			1				0	
6.6.1	win	2023-06-24	14:55:22	15:04:44	547908	62a2adb16716c2e0c8d3c07a	3	1	main_z	11	main_z	61	stimuli_distractor_diamondtriangles.svg	stimuli_distractor_diamondtriangles.svg	39	no	44	0	378	0	0			0	0			1				0	
6.6.1	win	2023-06-24	14:55:22	15:04:44	547908	62a2adb16716c2e0c8d3c07a	3	1	main_z	11	advance_on_keypress_ZEE	62	stimuli_distractor_diamondtriangles.svg	stimuli_distractor_diamondtriangles.svg	39	no	57	0	273	0	0			0	0			1				0	
6.6.1	win	2023-06-24	14:55:22	15:04:45	549706	62a2adb16716c2e0c8d3c07a	3	1	main_z	11	main_z	63	stimuli_target_squarediamonds.svg	stimuli_distractor_trianglediamonds.svg	4	yes	44	1	859	0	0			0	0			1				0	
6.6.1	win	2023-06-24	14:55:22	15:04:45	549706	62a2adb16716c2e0c8d3c07a	3	1	main_z	11	advance_on_keypress_ZEE	64	stimuli_target_squarediamonds.svg	stimuli_distractor_trianglediamonds.svg	4	yes	57	0	265	0	0			0	0			1				0	
6.6.1	win	2023-06-24	14:55:22	15:04:47	551346	62a2adb16716c2e0c8d3c07a	3	1	main_z	11	main_z	65	stimuli_distractor_diamondtriangles.svg	stimuli_distractor_trianglediamonds.svg	38	no	44	0	717	0	0			0	0			1				0	
6.6.1	win	2023-06-24	14:55:22	15:04:47	551346	62a2adb16716c2e0c8d3c07a	3	1	main_z	11	advance_on_keypress_ZEE	66	stimuli_distractor_diamondtriangles.svg	stimuli_distractor_trianglediamonds.svg	38	no	57	0	279	0	0			0	0			1				0	
6.6.1	win	2023-06-24	14:55:22	15:04:49	553346	62a2adb16716c2e0c8d3c07a	3	1	main_z	11	main_z	67	stimuli_distractor_trianglediamonds.svg	stimuli_target_rectanglediamonds.svg	10	yes	44	1	1066	0	0			0	0			1				0	
6.6.1	win	2023-06-24	14:55:22	15:04:49	553346	62a2adb16716c2e0c8d3c07a	3	1	main_z	11	advance_on_keypress_ZEE	68	stimuli_distractor_trianglediamonds.svg	stimuli_target_rectanglediamonds.svg	10	yes	57	0	328	0	0			0	0			1				0	
6.6.1	win	2023-06-24	14:55:22	15:04:50	554762	62a2adb16716c2e0c8d3c07a	3	1	main_z	11	main_z	69	stimuli_distractor_diamondtriangles.svg	stimuli_target_rectanglediamonds.svg	14	yes	44	1	434	0	0			0	0			1				0	
6.6.1	win	2023-06-24	14:55:22	15:04:50	554762	62a2adb16716c2e0c8d3c07a	3	1	main_z	11	advance_on_keypress_ZEE	70	stimuli_distractor_diamondtriangles.svg	stimuli_target_rectanglediamonds.svg	14	yes	57	0	303	0	0			0	0			1				0	
6.6.1	win	2023-06-24	14:55:22	15:04:52	556139	62a2adb16716c2e0c8d3c07a	3	1	main_z	11	main_z	71	stimuli_target_rectangletriangles.svg	stimuli_distractor_trianglediamonds.svg	1	yes	44	1	425	0	0			0	0			1				0	
6.6.1	win	2023-06-24	14:55:22	15:04:52	556139	62a2adb16716c2e0c8d3c07a	3	1	main_z	11	advance_on_keypress_ZEE	72	stimuli_target_rectangletriangles.svg	stimuli_distractor_trianglediamonds.svg	1	yes	57	0	247	0	0			0	0			1				0	
6.6.1	win	2023-06-24	14:55:22	15:04:53	557465	62a2adb16716c2e0c8d3c07a	3	1	main_z	11	main_z	73	stimuli_target_diamondrectangles.svg	stimuli_distractor_trianglediamonds.svg	19	yes	44	1	419	0	0			0	0			1				0	
6.6.1	win	2023-06-24	14:55:22	15:04:53	557465	62a2adb16716c2e0c8d3c07a	3	1	main_z	11	advance_on_keypress_ZEE	74	stimuli_target_diamondrectangles.svg	stimuli_distractor_trianglediamonds.svg	19	yes	57	0	267	0	0			0	0			1				0	
6.6.1	win	2023-06-24	14:55:22	15:04:55	559175	62a2adb16716c2e0c8d3c07a	3	1	main_z	11	main_z	75	stimuli_distractor_diamondtriangles.svg	stimuli_target_squarediamonds.svg	16	yes	44	1	796	0	0			0	0			1				0	
6.6.1	win	2023-06-24	14:55:22	15:04:55	559175	62a2adb16716c2e0c8d3c07a	3	1	main_z	11	advance_on_keypress_ZEE	76	stimuli_distractor_diamondtriangles.svg	stimuli_target_squarediamonds.svg	16	yes	57	0	342	0	0			0	0			1				0	
6.6.1	win	2023-06-24	14:55:22	15:04:58	562179	62a2adb16716c2e0c8d3c07a	3	1	main_z	11	main_z	77	stimuli_distractor_trianglediamonds.svg	stimuli_distractor_diamondtriangles.svg	35	no	0	1	2000	0	0			0	0			1				0	
6.6.1	win	2023-06-24	14:55:22	15:04:58	562179	62a2adb16716c2e0c8d3c07a	3	1	main_z	11	advance_on_keypress_ZEE	78	stimuli_distractor_trianglediamonds.svg	stimuli_distractor_diamondtriangles.svg	35	no	57	0	598	0	0			0	0			1				0	
6.6.1	win	2023-06-24	14:55:22	15:05:00	564546	62a2adb16716c2e0c8d3c07a	3	1	main_z	11	main_z	79	stimuli_distractor_diamondtriangles.svg	stimuli_target_squaretriangles.svg	15	yes	44	1	1117	0	0			0	0			1				0	
6.6.1	win	2023-06-24	14:55:22	15:05:00	564546	62a2adb16716c2e0c8d3c07a	3	1	main_z	11	advance_on_keypress_ZEE	80	stimuli_distractor_diamondtriangles.svg	stimuli_target_squaretriangles.svg	15	yes	57	0	159	0	0			0	0			1				0	
6.6.1	win	2023-06-24	14:55:22	15:05:03	567363	62a2adb16716c2e0c8d3c07a	3	1	main_z	11	main_z	81	stimuli_distractor_trianglediamonds.svg	stimuli_distractor_diamondtriangles.svg	35	no	0	1	2000	0	0			0	0			1				0	
6.6.1	win	2023-06-24	14:55:22	15:05:03	567363	62a2adb16716c2e0c8d3c07a	3	1	main_z	11	advance_on_keypress_ZEE	82	stimuli_distractor_trianglediamonds.svg	stimuli_distractor_diamondtriangles.svg	35	no	57	0	582	0	0			0	0			1				0	
6.6.1	win	2023-06-24	14:55:22	15:05:05	569074	62a2adb16716c2e0c8d3c07a	3	1	main_z	11	main_z	83	stimuli_distractor_trianglediamonds.svg	stimuli_target_trianglesquares.svg	26	yes	44	1	461	0	0			0	0			1				0	
6.6.1	win	2023-06-24	14:55:22	15:05:05	569074	62a2adb16716c2e0c8d3c07a	3	1	main_z	11	advance_on_keypress_ZEE	84	stimuli_distractor_trianglediamonds.svg	stimuli_target_trianglesquares.svg	26	yes	57	0	210	0	0			0	0			1				0	
6.6.1	win	2023-06-24	14:55:22	15:05:06	570499	62a2adb16716c2e0c8d3c07a	3	1	main_z	11	main_z	85	stimuli_target_diamondsquares.svg	stimuli_distractor_trianglediamonds.svg	20	yes	44	1	553	0	0			0	0			1				0	
6.6.1	win	2023-06-24	14:55:22	15:05:06	570499	62a2adb16716c2e0c8d3c07a	3	1	main_z	11	advance_on_keypress_ZEE	86	stimuli_target_diamondsquares.svg	stimuli_distractor_trianglediamonds.svg	20	yes	57	0	489	0	0			0	0			1				0	
6.6.1	win	2023-06-24	14:55:22	15:05:08	572458	62a2adb16716c2e0c8d3c07a	3	1	main_z	11	main_z	87	stimuli_distractor_trianglediamonds.svg	stimuli_distractor_trianglediamonds.svg	33	no	44	0	829	0	0			0	0			1				0	
6.6.1	win	2023-06-24	14:55:22	15:05:08	572458	62a2adb16716c2e0c8d3c07a	3	1	main_z	11	advance_on_keypress_ZEE	88	stimuli_distractor_trianglediamonds.svg	stimuli_distractor_trianglediamonds.svg	33	no	57	0	283	0	0			0	0			1				0	
6.6.1	win	2023-06-24	14:55:22	15:05:10	574042	62a2adb16716c2e0c8d3c07a	3	1	main_z	11	main_z	89	stimuli_target_trianglerectangles.svg	stimuli_distractor_diamondtriangles.svg	21	yes	44	1	646	0	0			0	0			1				0	
6.6.1	win	2023-06-24	14:55:22	15:05:10	574042	62a2adb16716c2e0c8d3c07a	3	1	main_z	11	advance_on_keypress_ZEE	90	stimuli_target_trianglerectangles.svg	stimuli_distractor_diamondtriangles.svg	21	yes	57	0	315	0	0			0	0			1				0	
6.6.1	win	2023-06-24	14:55:22	15:05:11	575493	62a2adb16716c2e0c8d3c07a	3	1	main_z	11	main_z	91	stimuli_target_trianglesquares.svg	stimuli_distractor_trianglediamonds.svg	18	yes	44	1	478	0	0			0	0			1				0	
6.6.1	win	2023-06-24	14:55:22	15:05:11	575493	62a2adb16716c2e0c8d3c07a	3	1	main_z	11	advance_on_keypress_ZEE	92	stimuli_target_trianglesquares.svg	stimuli_distractor_trianglediamonds.svg	18	yes	57	0	257	0	0			0	0			1				0	
6.6.1	win	2023-06-24	14:55:22	15:05:12	576850	62a2adb16716c2e0c8d3c07a	3	1	main_z	11	main_z	93	stimuli_target_diamondrectangles.svg	stimuli_distractor_trianglediamonds.svg	19	yes	44	1	431	0	0			0	0			1				0	
6.6.1	win	2023-06-24	14:55:22	15:05:12	576850	62a2adb16716c2e0c8d3c07a	3	1	main_z	11	advance_on_keypress_ZEE	94	stimuli_target_diamondrectangles.svg	stimuli_distractor_trianglediamonds.svg	19	yes	57	0	228	0	0			0	0			1				0	
6.6.1	win	2023-06-24	14:55:22	15:05:14	578078	62a2adb16716c2e0c8d3c07a	3	1	main_z	11	main_z	95	stimuli_target_diamondsquares.svg	stimuli_distractor_diamondtriangles.svg	24	yes	44	1	348	0	0			0	0			1				0	
6.6.1	win	2023-06-24	14:55:22	15:05:14	578078	62a2adb16716c2e0c8d3c07a	3	1	main_z	11	advance_on_keypress_ZEE	96	stimuli_target_diamondsquares.svg	stimuli_distractor_diamondtriangles.svg	24	yes	57	0	235	0	0			0	0			1				0	
6.6.1	win	2023-06-24	14:55:22	15:05:15	579298	62a2adb16716c2e0c8d3c07a	3	1	main_z	11	main_z	97	stimuli_distractor_diamondtriangles.svg	stimuli_target_rectangletriangles.svg	13	yes	44	1	335	0	0			0	0			1				0	
6.6.1	win	2023-06-24	14:55:22	15:05:15	579298	62a2adb16716c2e0c8d3c07a	3	1	main_z	11	advance_on_keypress_ZEE	98	stimuli_distractor_diamondtriangles.svg	stimuli_target_rectangletriangles.svg	13	yes	57	0	385	0	0			0	0			1				0	
6.6.1	win	2023-06-24	14:55:22	15:05:17	581234	62a2adb16716c2e0c8d3c07a	3	1	main_z	11	main_z	99	stimuli_distractor_diamondtriangles.svg	stimuli_target_diamondrectangles.svg	31	yes	44	1	904	0	0			0	0			1				0	
6.6.1	win	2023-06-24	14:55:22	15:05:17	581234	62a2adb16716c2e0c8d3c07a	3	1	main_z	11	advance_on_keypress_ZEE	100	stimuli_distractor_diamondtriangles.svg	stimuli_target_diamondrectangles.svg	31	yes	57	0	140	0	0			0	0			1				0	
6.6.1	win	2023-06-24	14:55:22	15:05:18	582450	62a2adb16716c2e0c8d3c07a	3	1	main_z	11	main_z	101	stimuli_target_rectanglediamonds.svg	stimuli_distractor_diamondtriangles.svg	6	yes	44	1	420	0	0			0	0			1				0	
6.6.1	win	2023-06-24	14:55:22	15:05:18	582450	62a2adb16716c2e0c8d3c07a	3	1	main_z	11	advance_on_keypress_ZEE	102	stimuli_target_rectanglediamonds.svg	stimuli_distractor_diamondtriangles.svg	6	yes	57	0	195	0	0			0	0			1				0	
6.6.1	win	2023-06-24	14:55:22	15:05:20	584027	62a2adb16716c2e0c8d3c07a	3	1	main_z	11	main_z	103	stimuli_distractor_diamondtriangles.svg	stimuli_distractor_trianglediamonds.svg	38	no	44	0	729	0	0			0	0			1				0	
6.6.1	win	2023-06-24	14:55:22	15:05:20	584027	62a2adb16716c2e0c8d3c07a	3	1	main_z	11	advance_on_keypress_ZEE	104	stimuli_distractor_diamondtriangles.svg	stimuli_distractor_trianglediamonds.svg	38	no	57	0	68	0	0			0	0			1				0	
6.6.1	win	2023-06-24	14:55:22	15:05:21	585303	62a2adb16716c2e0c8d3c07a	3	1	main_z	11	main_z	105	stimuli_distractor_diamondtriangles.svg	stimuli_distractor_trianglediamonds.svg	37	no	44	0	522	0	0			0	0			1				0	
6.6.1	win	2023-06-24	14:55:22	15:05:21	585303	62a2adb16716c2e0c8d3c07a	3	1	main_z	11	advance_on_keypress_ZEE	106	stimuli_distractor_diamondtriangles.svg	stimuli_distractor_trianglediamonds.svg	37	no	57	0	97	0	0			0	0			1				0	
6.6.1	win	2023-06-24	14:55:22	15:05:22	586626	62a2adb16716c2e0c8d3c07a	3	1	main_z	11	main_z	107	stimuli_distractor_diamondtriangles.svg	stimuli_target_rectanglediamonds.svg	14	yes	44	1	549	0	0			0	0			1				0	
6.6.1	win	2023-06-24	14:55:22	15:05:22	586626	62a2adb16716c2e0c8d3c07a	3	1	main_z	11	advance_on_keypress_ZEE	108	stimuli_distractor_diamondtriangles.svg	stimuli_target_rectanglediamonds.svg	14	yes	57	0	115	0	0			0	0			1				0	
6.6.1	win	2023-06-24	14:55:22	15:05:23	587786	62a2adb16716c2e0c8d3c07a	3	1	main_z	11	main_z	109	stimuli_target_rectanglediamonds.svg	stimuli_distractor_trianglediamonds.svg	2	yes	44	1	389	0	0			0	0			1				0	
6.6.1	win	2023-06-24	14:55:22	15:05:23	587786	62a2adb16716c2e0c8d3c07a	3	1	main_z	11	advance_on_keypress_ZEE	110	stimuli_target_rectanglediamonds.svg	stimuli_distractor_trianglediamonds.svg	2	yes	57	0	134	0	0			0	0			1				0	
6.6.1	win	2023-06-24	14:55:22	15:05:26	590562	62a2adb16716c2e0c8d3c07a	3	1	main_z	11	main_z	111	stimuli_target_diamondrectangles.svg	stimuli_distractor_diamondtriangles.svg	23	yes	0	0	2000	0	0			0	0			1				0	
6.6.1	win	2023-06-24	14:55:22	15:05:26	590562	62a2adb16716c2e0c8d3c07a	3	1	main_z	11	advance_on_keypress_ZEE	112	stimuli_target_diamondrectangles.svg	stimuli_distractor_diamondtriangles.svg	23	yes	57	0	879	0	0			0	0			1				0	
6.6.1	win	2023-06-24	14:55:22	15:05:28	592475	62a2adb16716c2e0c8d3c07a	3	1	main_z	11	main_z	113	stimuli_distractor_trianglediamonds.svg	stimuli_distractor_trianglediamonds.svg	34	no	44	0	375	0	0			0	0			1				0	
6.6.1	win	2023-06-24	14:55:22	15:05:28	592475	62a2adb16716c2e0c8d3c07a	3	1	main_z	11	advance_on_keypress_ZEE	114	stimuli_distractor_trianglediamonds.svg	stimuli_distractor_trianglediamonds.svg	34	no	57	0	74	0	0			0	0			1				0	
6.6.1	win	2023-06-24	14:55:22	15:05:30	594651	62a2adb16716c2e0c8d3c07a	3	1	main_z	11	main_z	115	stimuli_distractor_trianglediamonds.svg	stimuli_target_rectanglediamonds.svg	10	yes	44	1	1454	0	0			0	0			1				0	
6.6.1	win	2023-06-24	14:55:22	15:05:30	594651	62a2adb16716c2e0c8d3c07a	3	1	main_z	11	advance_on_keypress_ZEE	116	stimuli_distractor_trianglediamonds.svg	stimuli_target_rectanglediamonds.svg	10	yes	57	0	419	0	0			0	0			1				0	
6.6.1	win	2023-06-24	14:55:22	15:05:32	596156	62a2adb16716c2e0c8d3c07a	3	1	main_z	11	main_z	117	stimuli_target_squarediamonds.svg	stimuli_distractor_diamondtriangles.svg	8	yes	44	1	440	0	0			0	0			1				0	
6.6.1	win	2023-06-24	14:55:22	15:05:32	596156	62a2adb16716c2e0c8d3c07a	3	1	main_z	11	advance_on_keypress_ZEE	118	stimuli_target_squarediamonds.svg	stimuli_distractor_diamondtriangles.svg	8	yes	57	0	78	0	0			0	0			1				0	
6.6.1	win	2023-06-24	14:55:22	15:05:33	597741	62a2adb16716c2e0c8d3c07a	3	1	main_z	11	main_z	119	stimuli_distractor_trianglediamonds.svg	stimuli_target_diamondrectangles.svg	27	yes	44	1	842	0	0			0	0			1				0	
6.6.1	win	2023-06-24	14:55:22	15:05:33	597741	62a2adb16716c2e0c8d3c07a	3	1	main_z	11	advance_on_keypress_ZEE	120	stimuli_distractor_trianglediamonds.svg	stimuli_target_diamondrectangles.svg	27	yes	57	0	159	0	0			0	0			1				0	
6.6.1	win	2023-06-24	14:55:22	15:05:35	599233	62a2adb16716c2e0c8d3c07a	3	1	main_z	11	main_z	121	stimuli_distractor_trianglediamonds.svg	stimuli_target_rectangletriangles.svg	9	yes	44	1	670	0	0			0	0			1				0	
6.6.1	win	2023-06-24	14:55:22	15:05:35	599233	62a2adb16716c2e0c8d3c07a	3	1	main_z	11	advance_on_keypress_ZEE	122	stimuli_distractor_trianglediamonds.svg	stimuli_target_rectangletriangles.svg	9	yes	57	0	125	0	0			0	0			1				0	
6.6.1	win	2023-06-24	14:55:22	15:05:38	602018	62a2adb16716c2e0c8d3c07a	3	1	main_z	11	main_z	123	stimuli_distractor_diamondtriangles.svg	stimuli_target_trianglerectangles.svg	29	yes	0	0	2000	0	0			0	0			1				0	
6.6.1	win	2023-06-24	14:55:22	15:05:38	602018	62a2adb16716c2e0c8d3c07a	3	1	main_z	11	advance_on_keypress_ZEE	124	stimuli_distractor_diamondtriangles.svg	stimuli_target_trianglerectangles.svg	29	yes	57	0	1493	0	0			0	0			1				0	
6.6.1	win	2023-06-24	14:55:22	15:05:41	605411	62a2adb16716c2e0c8d3c07a	3	1	main_z	11	main_z	125	stimuli_target_squaretriangles.svg	stimuli_distractor_diamondtriangles.svg	7	yes	44	1	1247	0	0			0	0			1				0	
6.6.1	win	2023-06-24	14:55:22	15:05:41	605411	62a2adb16716c2e0c8d3c07a	3	1	main_z	11	advance_on_keypress_ZEE	126	stimuli_target_squaretriangles.svg	stimuli_distractor_diamondtriangles.svg	7	yes	57	0	468	0	0			0	0			1				0	
6.6.1	win	2023-06-24	14:55:22	15:05:44	608532	62a2adb16716c2e0c8d3c07a	3	1	main_z	11	main_z	127	stimuli_distractor_diamondtriangles.svg	stimuli_distractor_diamondtriangles.svg	39	no	0	1	2000	0	0			0	0			1				0	
6.6.1	win	2023-06-24	14:55:22	15:05:44	608532	62a2adb16716c2e0c8d3c07a	3	1	main_z	11	advance_on_keypress_ZEE	128	stimuli_distractor_diamondtriangles.svg	stimuli_distractor_diamondtriangles.svg	39	no	57	0	457	0	0			0	0			1				0	
6.6.1	win	2023-06-24	14:55:22	15:05:46	610034	62a2adb16716c2e0c8d3c07a	3	1	main_z	11	main_z	129	stimuli_target_squaretriangles.svg	stimuli_distractor_trianglediamonds.svg	3	yes	44	1	404	0	0			0	0			1				0	
6.6.1	win	2023-06-24	14:55:22	15:05:46	610034	62a2adb16716c2e0c8d3c07a	3	1	main_z	11	advance_on_keypress_ZEE	130	stimuli_target_squaretriangles.svg	stimuli_distractor_trianglediamonds.svg	3	yes	57	0	123	0	0			0	0			1				0	
6.6.1	win	2023-06-24	14:55:22	15:05:47	611194	62a2adb16716c2e0c8d3c07a	3	1	main_z	11	main_z	131	stimuli_target_rectangletriangles.svg	stimuli_distractor_diamondtriangles.svg	5	yes	44	1	398	0	0			0	0			1				0	
6.6.1	win	2023-06-24	14:55:22	15:05:47	611194	62a2adb16716c2e0c8d3c07a	3	1	main_z	11	advance_on_keypress_ZEE	132	stimuli_target_rectangletriangles.svg	stimuli_distractor_diamondtriangles.svg	5	yes	57	0	69	0	0			0	0			1				0	
6.6.1	win	2023-06-24	14:55:22	15:05:49	612938	62a2adb16716c2e0c8d3c07a	3	1	main_z	11	main_z	133	stimuli_distractor_diamondtriangles.svg	stimuli_target_trianglesquares.svg	30	yes	44	1	1024	0	0			0	0			1				0	
6.6.1	win	2023-06-24	14:55:22	15:05:49	612938	62a2adb16716c2e0c8d3c07a	3	1	main_z	11	advance_on_keypress_ZEE	134	stimuli_distractor_diamondtriangles.svg	stimuli_target_trianglesquares.svg	30	yes	57	0	199	0	0			0	0			1				0	
6.6.1	win	2023-06-24	14:55:22	15:05:50	614194	62a2adb16716c2e0c8d3c07a	3	1	main_z	11	main_z	135	stimuli_distractor_trianglediamonds.svg	stimuli_target_trianglerectangles.svg	25	yes	44	1	397	0	0			0	0			1				0	
6.6.1	win	2023-06-24	14:55:22	15:05:50	614194	62a2adb16716c2e0c8d3c07a	3	1	main_z	11	advance_on_keypress_ZEE	136	stimuli_distractor_trianglediamonds.svg	stimuli_target_trianglerectangles.svg	25	yes	57	0	373	0	0			0	0			1				0	
6.6.1	win	2023-06-24	14:55:22	15:05:51	615850	62a2adb16716c2e0c8d3c07a	3	1	main_z	11	main_z	137	stimuli_distractor_trianglediamonds.svg	stimuli_target_squaretriangles.svg	11	yes	44	1	635	0	0			0	0			1				0	
6.6.1	win	2023-06-24	14:55:22	15:05:51	615850	62a2adb16716c2e0c8d3c07a	3	1	main_z	11	advance_on_keypress_ZEE	138	stimuli_distractor_trianglediamonds.svg	stimuli_target_squaretriangles.svg	11	yes	57	0	147	0	0			0	0			1				0	
6.6.1	win	2023-06-24	14:55:22	15:05:53	617218	62a2adb16716c2e0c8d3c07a	3	1	main_z	11	main_z	139	stimuli_target_rectangletriangles.svg	stimuli_distractor_trianglediamonds.svg	1	yes	44	1	572	0	0			0	0			1				0	
6.6.1	win	2023-06-24	14:55:22	15:05:53	617218	62a2adb16716c2e0c8d3c07a	3	1	main_z	11	advance_on_keypress_ZEE	140	stimuli_target_rectangletriangles.svg	stimuli_distractor_trianglediamonds.svg	1	yes	57	0	100	0	0			0	0			1				0	
6.6.1	win	2023-06-24	14:55:22	15:05:54	618676	62a2adb16716c2e0c8d3c07a	3	1	main_z	11	main_z	141	stimuli_distractor_diamondtriangles.svg	stimuli_target_diamondsquares.svg	32	yes	44	1	712	0	0			0	0			1				0	
6.6.1	win	2023-06-24	14:55:22	15:05:54	618676	62a2adb16716c2e0c8d3c07a	3	1	main_z	11	advance_on_keypress_ZEE	142	stimuli_distractor_diamondtriangles.svg	stimuli_target_diamondsquares.svg	32	yes	57	0	106	0	0			0	0			1				0	
6.6.1	win	2023-06-24	14:55:22	15:05:56	620014	62a2adb16716c2e0c8d3c07a	3	1	main_z	11	main_z	143	stimuli_target_trianglerectangles.svg	stimuli_distractor_trianglediamonds.svg	17	yes	44	1	565	0	0			0	0			1				0	
6.6.1	win	2023-06-24	14:55:22	15:05:56	620014	62a2adb16716c2e0c8d3c07a	3	1	main_z	11	advance_on_keypress_ZEE	144	stimuli_target_trianglerectangles.svg	stimuli_distractor_trianglediamonds.svg	17	yes	57	0	76	0	0			0	0			1				0	
6.6.1	win	2023-06-24	14:55:22	15:05:58	622747	62a2adb16716c2e0c8d3c07a	3	1	main_z	11	main_z	145	stimuli_distractor_diamondtriangles.svg	stimuli_target_squaretriangles.svg	15	yes	0	0	2000	0	0			0	0			1				0	
6.6.1	win	2023-06-24	14:55:22	15:05:58	622747	62a2adb16716c2e0c8d3c07a	3	1	main_z	11	advance_on_keypress_ZEE	146	stimuli_distractor_diamondtriangles.svg	stimuli_target_squaretriangles.svg	15	yes	57	0	783	0	0			0	0			1				0	
6.6.1	win	2023-06-24	14:55:22	15:06:00	624708	62a2adb16716c2e0c8d3c07a	3	1	main_z	11	main_z	147	stimuli_target_squarediamonds.svg	stimuli_distractor_trianglediamonds.svg	4	yes	44	1	510	0	0			0	0			1				0	
6.6.1	win	2023-06-24	14:55:22	15:06:00	624708	62a2adb16716c2e0c8d3c07a	3	1	main_z	11	advance_on_keypress_ZEE	148	stimuli_target_squarediamonds.svg	stimuli_distractor_trianglediamonds.svg	4	yes	57	0	225	0	0			0	0			1				0	
6.6.1	win	2023-06-24	14:55:22	15:06:02	626242	62a2adb16716c2e0c8d3c07a	3	1	main_z	11	main_z	149	stimuli_distractor_trianglediamonds.svg	stimuli_target_diamondsquares.svg	28	yes	44	1	646	0	0			0	0			1				0	
6.6.1	win	2023-06-24	14:55:22	15:06:02	626242	62a2adb16716c2e0c8d3c07a	3	1	main_z	11	advance_on_keypress_ZEE	150	stimuli_distractor_trianglediamonds.svg	stimuli_target_diamondsquares.svg	28	yes	57	0	125	0	0			0	0			1				0	
6.6.1	win	2023-06-24	14:55:22	15:06:05	629030	62a2adb16716c2e0c8d3c07a	3	1	main_z	11	main_z	151	stimuli_distractor_diamondtriangles.svg	stimuli_distractor_diamondtriangles.svg	40	no	0	1	2000	0	0			0	0			1				0	
6.6.1	win	2023-06-24	14:55:22	15:06:05	629030	62a2adb16716c2e0c8d3c07a	3	1	main_z	11	advance_on_keypress_ZEE	152	stimuli_distractor_diamondtriangles.svg	stimuli_distractor_diamondtriangles.svg	40	no	57	0	692	0	0			0	0			1				0	
6.6.1	win	2023-06-24	14:55:22	15:06:08	632379	62a2adb16716c2e0c8d3c07a	3	1	main_z	11	main_z	153	stimuli_distractor_trianglediamonds.svg	stimuli_distractor_diamondtriangles.svg	36	no	0	1	2000	0	0			0	0			1				0	
6.6.1	win	2023-06-24	14:55:22	15:06:08	632379	62a2adb16716c2e0c8d3c07a	3	1	main_z	11	advance_on_keypress_ZEE	154	stimuli_distractor_trianglediamonds.svg	stimuli_distractor_diamondtriangles.svg	36	no	57	0	3494	0	0			0	0			1				0	
6.6.1	win	2023-06-24	14:55:22	15:06:13	636914	62a2adb16716c2e0c8d3c07a	3	1	main_z	11	main_z	155	stimuli_distractor_trianglediamonds.svg	stimuli_target_squarediamonds.svg	12	yes	44	1	385	0	0			0	0			1				0	
6.6.1	win	2023-06-24	14:55:22	15:06:13	636914	62a2adb16716c2e0c8d3c07a	3	1	main_z	11	advance_on_keypress_ZEE	156	stimuli_distractor_trianglediamonds.svg	stimuli_target_squarediamonds.svg	12	yes	57	0	137	0	0			0	0			1				0	
6.6.1	win	2023-06-24	14:55:22	15:06:14	638210	62a2adb16716c2e0c8d3c07a	3	1	main_z	11	main_z	157	stimuli_target_trianglesquares.svg	stimuli_distractor_diamondtriangles.svg	22	yes	44	1	513	0	0			0	0			1				0	
6.6.1	win	2023-06-24	14:55:22	15:06:14	638210	62a2adb16716c2e0c8d3c07a	3	1	main_z	11	advance_on_keypress_ZEE	158	stimuli_target_trianglesquares.svg	stimuli_distractor_diamondtriangles.svg	22	yes	57	0	68	0	0			0	0			1				0	
6.6.1	win	2023-06-24	14:55:22	15:06:15	639401	62a2adb16716c2e0c8d3c07a	3	1	main_z	11	main_z	159	stimuli_distractor_diamondtriangles.svg	stimuli_target_squarediamonds.svg	16	yes	44	1	472	0	0			0	0			1				0	
6.6.1	win	2023-06-24	14:55:22	15:06:15	639401	62a2adb16716c2e0c8d3c07a	3	1	main_z	11	advance_on_keypress_ZEE	160	stimuli_distractor_diamondtriangles.svg	stimuli_target_squarediamonds.svg	16	yes	57	0	117	0	0			0	0			1				0	
6.6.1	win	2023-06-24	14:55:22	15:06:15	639401	62a2adb16716c2e0c8d3c07a	3	1	headphonecheck_calibration	14	headphonecheck_calibrationIntro	1	stimuli_distractor_diamondtriangles.svg	stimuli_target_squarediamonds.svg	16	yes	calibrationButton	0	1595	0	0			0	0			1				0	
6.6.1	win	2023-06-24	14:55:22	15:06:15	639401	62a2adb16716c2e0c8d3c07a	3	1	headphonecheck_testphase	15	test_collectResponse	3	stimuli_distractor_diamondtriangles.svg	stimuli_target_squarediamonds.svg	16	yes	first	1	179	1	4	antiphase_hc_sio.wav	1	0	0			1				0	
6.6.1	win	2023-06-24	14:55:22	15:06:15	639401	62a2adb16716c2e0c8d3c07a	3	1	headphonecheck_testphase	15	test_collectResponse	6	stimuli_distractor_diamondtriangles.svg	stimuli_target_squarediamonds.svg	16	yes	second	1	632	2	5	antiphase_hc_osi.wav	2	0	0			1				0	
6.6.1	win	2023-06-24	14:55:22	15:06:15	639401	62a2adb16716c2e0c8d3c07a	3	1	headphonecheck_testphase	15	test_collectResponse	9	stimuli_distractor_diamondtriangles.svg	stimuli_target_squarediamonds.svg	16	yes	third	1	413	3	2	antiphase_hc_ios.wav	3	0	0			1				0	
6.6.1	win	2023-06-24	14:55:22	15:06:15	639401	62a2adb16716c2e0c8d3c07a	3	1	headphonecheck_testphase	15	test_collectResponse	12	stimuli_distractor_diamondtriangles.svg	stimuli_target_squarediamonds.svg	16	yes	third	1	2060	4	6	antiphase_hc_ois.wav	3	0	0			1				0	
6.6.1	win	2023-06-24	14:55:22	15:06:15	639401	62a2adb16716c2e0c8d3c07a	3	1	headphonecheck_testphase	15	test_collectResponse	15	stimuli_distractor_diamondtriangles.svg	stimuli_target_squarediamonds.svg	16	yes	first	1	783	5	3	antiphase_hc_soi.wav	1	0	0			1				0	
6.6.1	win	2023-06-24	14:55:22	15:06:15	639401	62a2adb16716c2e0c8d3c07a	3	1	headphonecheck_testphase	15	test_collectResponse	18	stimuli_distractor_diamondtriangles.svg	stimuli_target_squarediamonds.svg	16	yes	second	1	3205	6	1	antiphase_hc_iso.wav	2	0	0			1				0	
6.6.1	win	2023-06-24	14:55:22	15:06:15	639401	62a2adb16716c2e0c8d3c07a	3	1	stereocheck_calibration	17	stereocheck_calibrationIntro	1	stimuli_distractor_diamondtriangles.svg	stimuli_target_squarediamonds.svg	16	yes	stereocheck_calibrationButton	0	8354	6	1	antiphase_hc_iso.wav	2	0	0			1				0	
6.6.1	win	2023-06-24	14:55:22	15:06:15	639401	62a2adb16716c2e0c8d3c07a	3	1	stereocheck_testphase	18	stereocheck_test_collectResponse	3	stimuli_distractor_diamondtriangles.svg	stimuli_target_squarediamonds.svg	16	yes	stereocheck_right	1	403	6	1	antiphase_hc_iso.wav	2	1	6	noise_calib_stim_RIGHT.wav	2	1				0	
6.6.1	win	2023-06-24	14:55:22	15:06:15	639401	62a2adb16716c2e0c8d3c07a	3	1	stereocheck_testphase	18	stereocheck_test_collectResponse	6	stimuli_distractor_diamondtriangles.svg	stimuli_target_squarediamonds.svg	16	yes	stereocheck_left	1	213	6	1	antiphase_hc_iso.wav	2	2	1	noise_calib_stim_LEFT.wav	1	1				0	
6.6.1	win	2023-06-24	14:55:22	15:06:15	639401	62a2adb16716c2e0c8d3c07a	3	1	stereocheck_testphase	18	stereocheck_test_collectResponse	9	stimuli_distractor_diamondtriangles.svg	stimuli_target_squarediamonds.svg	16	yes	stereocheck_left	1	200	6	1	antiphase_hc_iso.wav	2	3	3	noise_calib_stim_LEFT.wav	1	1				0	
6.6.1	win	2023-06-24	14:55:22	15:06:15	639401	62a2adb16716c2e0c8d3c07a	3	1	stereocheck_testphase	18	stereocheck_test_collectResponse	12	stimuli_distractor_diamondtriangles.svg	stimuli_target_squarediamonds.svg	16	yes	stereocheck_right	1	197	6	1	antiphase_hc_iso.wav	2	4	4	noise_calib_stim_RIGHT.wav	2	1				0	
6.6.1	win	2023-06-24	14:55:22	15:06:15	639401	62a2adb16716c2e0c8d3c07a	3	1	stereocheck_testphase	18	stereocheck_test_collectResponse	15	stimuli_distractor_diamondtriangles.svg	stimuli_target_squarediamonds.svg	16	yes	stereocheck_left	1	232	6	1	antiphase_hc_iso.wav	2	5	2	noise_calib_stim_LEFT.wav	1	1				0	
6.6.1	win	2023-06-24	14:55:22	15:06:15	639401	62a2adb16716c2e0c8d3c07a	3	1	stereocheck_testphase	18	stereocheck_test_collectResponse	18	stimuli_distractor_diamondtriangles.svg	stimuli_target_squarediamonds.svg	16	yes	stereocheck_right	1	200	6	1	antiphase_hc_iso.wav	2	6	5	noise_calib_stim_RIGHT.wav	2	1				0	
6.6.1	win	2023-06-24	14:55:22	15:06:15	639401	62a2adb16716c2e0c8d3c07a	3	1	DL_practice	21	DL_practice	2	stimuli_distractor_diamondtriangles.svg	stimuli_target_squarediamonds.svg	16	yes	ba	1	2398	6	1	antiphase_hc_iso.wav	2	6	5	noise_calib_stim_RIGHT.wav	2	7	blb_dichoticlistening_da-ba.mp3	da	ba	1	right
6.6.1	win	2023-06-24	14:55:22	15:06:15	639401	62a2adb16716c2e0c8d3c07a	3	1	DL_practice	21	DL_practice	3	stimuli_distractor_diamondtriangles.svg	stimuli_target_squarediamonds.svg	16	yes	ka	0	1093	6	1	antiphase_hc_iso.wav	2	6	5	noise_calib_stim_RIGHT.wav	2	18	blb_dichoticlistening_ga-ta.mp3	ga	ta	1	other
6.6.1	win	2023-06-24	14:55:22	15:06:15	639401	62a2adb16716c2e0c8d3c07a	3	1	DL_practice	21	DL_practice	4	stimuli_distractor_diamondtriangles.svg	stimuli_target_squarediamonds.svg	16	yes	da	1	1207	6	1	antiphase_hc_iso.wav	2	6	5	noise_calib_stim_RIGHT.wav	2	8	blb_dichoticlistening_da-da.mp3	da	da	0	left
6.6.1	win	2023-06-24	14:55:22	15:06:15	639401	62a2adb16716c2e0c8d3c07a	3	1	DL_practice	21	DL_practice	5	stimuli_distractor_diamondtriangles.svg	stimuli_target_squarediamonds.svg	16	yes	ka	1	1079	6	1	antiphase_hc_iso.wav	2	6	5	noise_calib_stim_RIGHT.wav	2	22	blb_dichoticlistening_ka-ka.mp3	ka	ka	0	left
6.6.1	win	2023-06-24	14:55:22	15:06:15	639401	62a2adb16716c2e0c8d3c07a	3	1	DL_practice	21	DL_practice	6	stimuli_distractor_diamondtriangles.svg	stimuli_target_squarediamonds.svg	16	yes	pa	1	1545	6	1	antiphase_hc_iso.wav	2	6	5	noise_calib_stim_RIGHT.wav	2	29	blb_dichoticlistening_pa-pa.mp3	pa	pa	0	left
6.6.1	win	2023-06-24	14:55:22	15:06:15	639401	62a2adb16716c2e0c8d3c07a	3	1	DL_practice	21	DL_practice	7	stimuli_distractor_diamondtriangles.svg	stimuli_target_squarediamonds.svg	16	yes	ga	1	1225	6	1	antiphase_hc_iso.wav	2	6	5	noise_calib_stim_RIGHT.wav	2	15	blb_dichoticlistening_ga-ga.mp3	ga	ga	0	left
6.6.1	win	2023-06-24	14:55:22	15:06:15	639401	62a2adb16716c2e0c8d3c07a	3	1	DL_practice	21	DL_practice	8	stimuli_distractor_diamondtriangles.svg	stimuli_target_squarediamonds.svg	16	yes	pa	1	1600	6	1	antiphase_hc_iso.wav	2	6	5	noise_calib_stim_RIGHT.wav	2	23	blb_dichoticlistening_ka-pa.mp3	ka	pa	1	right
6.6.1	win	2023-06-24	14:55:22	15:06:15	639401	62a2adb16716c2e0c8d3c07a	3	1	DL_practice	21	DL_practice	9	stimuli_distractor_diamondtriangles.svg	stimuli_target_squarediamonds.svg	16	yes	ta	1	1069	6	1	antiphase_hc_iso.wav	2	6	5	noise_calib_stim_RIGHT.wav	2	36	blb_dichoticlistening_ta-ta.mp3	ta	ta	0	left
6.6.1	win	2023-06-24	14:55:22	15:06:15	639401	62a2adb16716c2e0c8d3c07a	3	1	DL_practice	21	DL_practice	10	stimuli_distractor_diamondtriangles.svg	stimuli_target_squarediamonds.svg	16	yes	ba	1	1257	6	1	antiphase_hc_iso.wav	2	6	5	noise_calib_stim_RIGHT.wav	2	1	blb_dichoticlistening_ba-ba.mp3	ba	ba	0	left
6.6.1	win	2023-06-24	14:55:22	15:06:15	639401	62a2adb16716c2e0c8d3c07a	3	1	DL_test	23	DL_test	1	stimuli_distractor_diamondtriangles.svg	stimuli_target_squarediamonds.svg	16	yes	ka	1	695	6	1	antiphase_hc_iso.wav	2	6	5	noise_calib_stim_RIGHT.wav	2	16	blb_dichoticlistening_ga-ka.mp3	ga	ka	1	right
6.6.1	win	2023-06-24	14:55:22	15:06:15	639401	62a2adb16716c2e0c8d3c07a	3	1	DL_test	23	DL_test	2	stimuli_distractor_diamondtriangles.svg	stimuli_target_squarediamonds.svg	16	yes	da	1	881	6	1	antiphase_hc_iso.wav	2	6	5	noise_calib_stim_RIGHT.wav	2	8	blb_dichoticlistening_da-da.mp3	da	da	0	left
6.6.1	win	2023-06-24	14:55:22	15:06:15	639401	62a2adb16716c2e0c8d3c07a	3	1	DL_test	23	DL_test	3	stimuli_distractor_diamondtriangles.svg	stimuli_target_squarediamonds.svg	16	yes	pa	0	2451	6	1	antiphase_hc_iso.wav	2	6	5	noise_calib_stim_RIGHT.wav	2	10	blb_dichoticlistening_da-ka.mp3	da	ka	1	other
6.6.1	win	2023-06-24	14:55:22	15:06:15	639401	62a2adb16716c2e0c8d3c07a	3	1	DL_test	23	DL_test	4	stimuli_distractor_diamondtriangles.svg	stimuli_target_squarediamonds.svg	16	yes	ta	1	1344	6	1	antiphase_hc_iso.wav	2	6	5	noise_calib_stim_RIGHT.wav	2	35	blb_dichoticlistening_ta-pa.mp3	ta	pa	1	left
6.6.1	win	2023-06-24	14:55:22	15:06:15	639401	62a2adb16716c2e0c8d3c07a	3	1	DL_test	23	DL_test	5	stimuli_distractor_diamondtriangles.svg	stimuli_target_squarediamonds.svg	16	yes	ka	1	697	6	1	antiphase_hc_iso.wav	2	6	5	noise_calib_stim_RIGHT.wav	2	19	blb_dichoticlistening_ka-ba.mp3	ka	ba	1	left
6.6.1	win	2023-06-24	14:55:22	15:06:15	639401	62a2adb16716c2e0c8d3c07a	3	1	DL_test	23	DL_test	6	stimuli_distractor_diamondtriangles.svg	stimuli_target_squarediamonds.svg	16	yes	pa	1	1090	6	1	antiphase_hc_iso.wav	2	6	5	noise_calib_stim_RIGHT.wav	2	29	blb_dichoticlistening_pa-pa.mp3	pa	pa	0	left
6.6.1	win	2023-06-24	14:55:22	15:06:15	639401	62a2adb16716c2e0c8d3c07a	3	1	DL_test	23	DL_test	7	stimuli_distractor_diamondtriangles.svg	stimuli_target_squarediamonds.svg	16	yes	ba	1	2989	6	1	antiphase_hc_iso.wav	2	6	5	noise_calib_stim_RIGHT.wav	2	25	blb_dichoticlistening_pa-ba.mp3	pa	ba	1	right
6.6.1	win	2023-06-24	14:55:22	15:06:15	639401	62a2adb16716c2e0c8d3c07a	3	1	DL_test	23	DL_test	8	stimuli_distractor_diamondtriangles.svg	stimuli_target_squarediamonds.svg	16	yes	ta	1	1076	6	1	antiphase_hc_iso.wav	2	6	5	noise_calib_stim_RIGHT.wav	2	30	blb_dichoticlistening_pa-ta.mp3	pa	ta	1	right
6.6.1	win	2023-06-24	14:55:22	15:06:15	639401	62a2adb16716c2e0c8d3c07a	3	1	DL_test	23	DL_test	9	stimuli_distractor_diamondtriangles.svg	stimuli_target_squarediamonds.svg	16	yes	ka	1	935	6	1	antiphase_hc_iso.wav	2	6	5	noise_calib_stim_RIGHT.wav	2	34	blb_dichoticlistening_ta-ka.mp3	ta	ka	1	right
6.6.1	win	2023-06-24	14:55:22	15:06:15	639401	62a2adb16716c2e0c8d3c07a	3	1	DL_test	23	DL_test	10	stimuli_distractor_diamondtriangles.svg	stimuli_target_squarediamonds.svg	16	yes	da	1	1249	6	1	antiphase_hc_iso.wav	2	6	5	noise_calib_stim_RIGHT.wav	2	2	blb_dichoticlistening_ba-da.mp3	ba	da	1	right
6.6.1	win	2023-06-24	14:55:22	15:06:15	639401	62a2adb16716c2e0c8d3c07a	3	1	DL_test	23	DL_test	11	stimuli_distractor_diamondtriangles.svg	stimuli_target_squarediamonds.svg	16	yes	ba	1	940	6	1	antiphase_hc_iso.wav	2	6	5	noise_calib_stim_RIGHT.wav	2	1	blb_dichoticlistening_ba-ba.mp3	ba	ba	0	left
6.6.1	win	2023-06-24	14:55:22	15:06:15	639401	62a2adb16716c2e0c8d3c07a	3	1	DL_test	23	DL_test	12	stimuli_distractor_diamondtriangles.svg	stimuli_target_squarediamonds.svg	16	yes	ka	1	453	6	1	antiphase_hc_iso.wav	2	6	5	noise_calib_stim_RIGHT.wav	2	22	blb_dichoticlistening_ka-ka.mp3	ka	ka	0	left
6.6.1	win	2023-06-24	14:55:22	15:06:15	639401	62a2adb16716c2e0c8d3c07a	3	1	DL_test	23	DL_test	13	stimuli_distractor_diamondtriangles.svg	stimuli_target_squarediamonds.svg	16	yes	da	0	1017	6	1	antiphase_hc_iso.wav	2	6	5	noise_calib_stim_RIGHT.wav	2	13	blb_dichoticlistening_ga-ba.mp3	ga	ba	1	other
6.6.1	win	2023-06-24	14:55:22	15:06:15	639401	62a2adb16716c2e0c8d3c07a	3	1	DL_test	23	DL_test	14	stimuli_distractor_diamondtriangles.svg	stimuli_target_squarediamonds.svg	16	yes	ka	0	1135	6	1	antiphase_hc_iso.wav	2	6	5	noise_calib_stim_RIGHT.wav	2	27	blb_dichoticlistening_pa-ga.mp3	pa	ga	1	other
6.6.1	win	2023-06-24	14:55:22	15:06:15	639401	62a2adb16716c2e0c8d3c07a	3	1	DL_test	23	DL_test	15	stimuli_distractor_diamondtriangles.svg	stimuli_target_squarediamonds.svg	16	yes	ka	0	1503	6	1	antiphase_hc_iso.wav	2	6	5	noise_calib_stim_RIGHT.wav	2	31	blb_dichoticlistening_ta-ba.mp3	ta	ba	1	other
6.6.1	win	2023-06-24	14:55:22	15:06:15	639401	62a2adb16716c2e0c8d3c07a	3	1	DL_test	23	DL_test	16	stimuli_distractor_diamondtriangles.svg	stimuli_target_squarediamonds.svg	16	yes	pa	1	985	6	1	antiphase_hc_iso.wav	2	6	5	noise_calib_stim_RIGHT.wav	2	23	blb_dichoticlistening_ka-pa.mp3	ka	pa	1	right
6.6.1	win	2023-06-24	14:55:22	15:06:15	639401	62a2adb16716c2e0c8d3c07a	3	1	DL_test	23	DL_test	17	stimuli_distractor_diamondtriangles.svg	stimuli_target_squarediamonds.svg	16	yes	da	1	760	6	1	antiphase_hc_iso.wav	2	6	5	noise_calib_stim_RIGHT.wav	2	7	blb_dichoticlistening_da-ba.mp3	da	ba	1	left
6.6.1	win	2023-06-24	14:55:22	15:06:15	639401	62a2adb16716c2e0c8d3c07a	3	1	DL_test	23	DL_test	18	stimuli_distractor_diamondtriangles.svg	stimuli_target_squarediamonds.svg	16	yes	ka	0	623	6	1	antiphase_hc_iso.wav	2	6	5	noise_calib_stim_RIGHT.wav	2	18	blb_dichoticlistening_ga-ta.mp3	ga	ta	1	other
6.6.1	win	2023-06-24	14:55:22	15:06:15	639401	62a2adb16716c2e0c8d3c07a	3	1	DL_test	23	DL_test	19	stimuli_distractor_diamondtriangles.svg	stimuli_target_squarediamonds.svg	16	yes	ga	1	661	6	1	antiphase_hc_iso.wav	2	6	5	noise_calib_stim_RIGHT.wav	2	3	blb_dichoticlistening_ba-ga.mp3	ba	ga	1	right
6.6.1	win	2023-06-24	14:55:22	15:06:15	639401	62a2adb16716c2e0c8d3c07a	3	1	DL_test	23	DL_test	20	stimuli_distractor_diamondtriangles.svg	stimuli_target_squarediamonds.svg	16	yes	ka	0	1473	6	1	antiphase_hc_iso.wav	2	6	5	noise_calib_stim_RIGHT.wav	2	33	blb_dichoticlistening_ta-ga.mp3	ta	ga	1	other
6.6.1	win	2023-06-24	14:55:22	15:06:15	639401	62a2adb16716c2e0c8d3c07a	3	1	DL_test	23	DL_test	21	stimuli_distractor_diamondtriangles.svg	stimuli_target_squarediamonds.svg	16	yes	ga	0	916	6	1	antiphase_hc_iso.wav	2	6	5	noise_calib_stim_RIGHT.wav	2	28	blb_dichoticlistening_pa-ka.mp3	pa	ka	1	other
6.6.1	win	2023-06-24	14:55:22	15:06:15	639401	62a2adb16716c2e0c8d3c07a	3	1	DL_test	23	DL_test	22	stimuli_distractor_diamondtriangles.svg	stimuli_target_squarediamonds.svg	16	yes	pa	1	990	6	1	antiphase_hc_iso.wav	2	6	5	noise_calib_stim_RIGHT.wav	2	17	blb_dichoticlistening_ga-pa.mp3	ga	pa	1	right
6.6.1	win	2023-06-24	14:55:22	15:06:15	639401	62a2adb16716c2e0c8d3c07a	3	1	DL_test	23	DL_test	23	stimuli_distractor_diamondtriangles.svg	stimuli_target_squarediamonds.svg	16	yes	ka	1	820	6	1	antiphase_hc_iso.wav	2	6	5	noise_calib_stim_RIGHT.wav	2	24	blb_dichoticlistening_ka-ta.mp3	ka	ta	1	left
6.6.1	win	2023-06-24	14:55:22	15:06:15	639401	62a2adb16716c2e0c8d3c07a	3	1	DL_test	23	DL_test	24	stimuli_distractor_diamondtriangles.svg	stimuli_target_squarediamonds.svg	16	yes	ta	1	994	6	1	antiphase_hc_iso.wav	2	6	5	noise_calib_stim_RIGHT.wav	2	36	blb_dichoticlistening_ta-ta.mp3	ta	ta	0	left
6.6.1	win	2023-06-24	14:55:22	15:06:15	639401	62a2adb16716c2e0c8d3c07a	3	1	DL_test	23	DL_test	25	stimuli_distractor_diamondtriangles.svg	stimuli_target_squarediamonds.svg	16	yes	ga	1	1072	6	1	antiphase_hc_iso.wav	2	6	5	noise_calib_stim_RIGHT.wav	2	14	blb_dichoticlistening_ga-da.mp3	ga	da	1	left
6.6.1	win	2023-06-24	14:55:22	15:06:15	639401	62a2adb16716c2e0c8d3c07a	3	1	DL_test	23	DL_test	26	stimuli_distractor_diamondtriangles.svg	stimuli_target_squarediamonds.svg	16	yes	pa	1	980	6	1	antiphase_hc_iso.wav	2	6	5	noise_calib_stim_RIGHT.wav	2	11	blb_dichoticlistening_da-pa.mp3	da	pa	1	right
