build	computer.platform	date	time	timestamp	time_elapsed_ms	subject	group	session	blockcode	blocknum	trialcode	trialnum	stimulus_left	stimulus_right	stim_index	target_present	response	correct	latency	headphonecheck_countTestTrials	headphonecheck_index	headphonecheck_testSound	headphonecheck_correctResponse	stereocheck_countTestTrials	stereocheck_index	stereocheck_testSound	stereocheck_correctResponse	DL_index	DL_soundfile	DL_leftSound	DL_rightSound	DL_dualSound	DL_choice
6.6.1	win	2023-06-27	07:52:39	07:59:16	388152	5f4f5d2da7606a000ab233c9	4	1	practice_z	5	practice_z	1	stimuli_target_diamondsquares.svg	stimuli_distractor_diamondtriangles.svg	3	yes	0	0	2000	0	0			0	0			1				0	
6.6.1	win	2023-06-27	07:52:39	07:59:16	388152	5f4f5d2da7606a000ab233c9	4	1	practice_z	5	advance_on_keypress_ZEE	2	stimuli_target_diamondsquares.svg	stimuli_distractor_diamondtriangles.svg	3	yes	57	0	774	0	0			0	0			1				0	
6.6.1	win	2023-06-27	07:52:39	07:59:21	392602	5f4f5d2da7606a000ab233c9	4	1	practice_z	5	practice_z	3	stimuli_distractor_diamondtriangles.svg	stimuli_target_trianglerectangles.svg	9	yes	0	0	2000	0	0			0	0			1				0	
6.6.1	win	2023-06-27	07:52:39	07:59:21	392602	5f4f5d2da7606a000ab233c9	4	1	practice_z	5	advance_on_keypress_ZEE	4	stimuli_distractor_diamondtriangles.svg	stimuli_target_trianglerectangles.svg	9	yes	57	0	581	0	0			0	0			1				0	
6.6.1	win	2023-06-27	07:52:39	07:59:25	396835	5f4f5d2da7606a000ab233c9	4	1	practice_z	5	practice_z	5	stimuli_distractor_diamondtriangles.svg	stimuli_distractor_trianglediamonds.svg	14	no	0	1	2000	0	0			0	0			1				0	
6.6.1	win	2023-06-27	07:52:39	07:59:25	396835	5f4f5d2da7606a000ab233c9	4	1	practice_z	5	advance_on_keypress_ZEE	6	stimuli_distractor_diamondtriangles.svg	stimuli_distractor_trianglediamonds.svg	14	no	57	0	404	0	0			0	0			1				0	
6.6.1	win	2023-06-27	07:52:39	07:59:29	400885	5f4f5d2da7606a000ab233c9	4	1	practice_z	5	practice_z	7	stimuli_distractor_diamondtriangles.svg	stimuli_distractor_diamondtriangles.svg	13	no	0	1	2000	0	0			0	0			1				0	
6.6.1	win	2023-06-27	07:52:39	07:59:29	400885	5f4f5d2da7606a000ab233c9	4	1	practice_z	5	advance_on_keypress_ZEE	8	stimuli_distractor_diamondtriangles.svg	stimuli_distractor_diamondtriangles.svg	13	no	57	0	498	0	0			0	0			1				0	
6.6.1	win	2023-06-27	07:52:39	07:59:32	404016	5f4f5d2da7606a000ab233c9	4	1	practice_z	5	practice_z	9	stimuli_target_squarediamonds.svg	stimuli_distractor_trianglediamonds.svg	5	yes	44	1	981	0	0			0	0			1				0	
6.6.1	win	2023-06-27	07:52:39	07:59:32	404016	5f4f5d2da7606a000ab233c9	4	1	practice_z	5	advance_on_keypress_ZEE	10	stimuli_target_squarediamonds.svg	stimuli_distractor_trianglediamonds.svg	5	yes	57	0	773	0	0			0	0			1				0	
6.6.1	win	2023-06-27	07:52:39	07:59:37	408435	5f4f5d2da7606a000ab233c9	4	1	practice_z	5	practice_z	11	stimuli_distractor_trianglediamonds.svg	stimuli_distractor_diamondtriangles.svg	16	no	0	1	2000	0	0			0	0			1				0	
6.6.1	win	2023-06-27	07:52:39	07:59:37	408435	5f4f5d2da7606a000ab233c9	4	1	practice_z	5	advance_on_keypress_ZEE	12	stimuli_distractor_trianglediamonds.svg	stimuli_distractor_diamondtriangles.svg	16	no	57	0	876	0	0			0	0			1				0	
6.6.1	win	2023-06-27	07:52:39	07:59:40	412368	5f4f5d2da7606a000ab233c9	4	1	practice_z	5	practice_z	13	stimuli_distractor_trianglediamonds.svg	stimuli_target_diamondrectangles.svg	12	yes	44	1	1399	0	0			0	0			1				0	
6.6.1	win	2023-06-27	07:52:39	07:59:40	412368	5f4f5d2da7606a000ab233c9	4	1	practice_z	5	advance_on_keypress_ZEE	14	stimuli_distractor_trianglediamonds.svg	stimuli_target_diamondrectangles.svg	12	yes	57	0	839	0	0			0	0			1				0	
6.6.1	win	2023-06-27	07:52:39	07:59:44	415879	5f4f5d2da7606a000ab233c9	4	1	practice_z	5	practice_z	15	stimuli_distractor_diamondtriangles.svg	stimuli_target_rectangletriangles.svg	7	yes	44	1	1011	0	0			0	0			1				0	
6.6.1	win	2023-06-27	07:52:39	07:59:44	415879	5f4f5d2da7606a000ab233c9	4	1	practice_z	5	advance_on_keypress_ZEE	16	stimuli_distractor_diamondtriangles.svg	stimuli_target_rectangletriangles.svg	7	yes	57	0	682	0	0			0	0			1				0	
6.6.1	win	2023-06-27	07:52:39	07:59:47	418912	5f4f5d2da7606a000ab233c9	4	1	practice_z	5	practice_z	17	stimuli_distractor_trianglediamonds.svg	stimuli_target_squarediamonds.svg	11	yes	44	1	693	0	0			0	0			1				0	
6.6.1	win	2023-06-27	07:52:39	07:59:47	418912	5f4f5d2da7606a000ab233c9	4	1	practice_z	5	advance_on_keypress_ZEE	18	stimuli_distractor_trianglediamonds.svg	stimuli_target_squarediamonds.svg	11	yes	57	0	305	0	0			0	0			1				0	
6.6.1	win	2023-06-27	07:52:39	07:59:50	421543	5f4f5d2da7606a000ab233c9	4	1	practice_z	5	practice_z	19	stimuli_target_squarediamonds.svg	stimuli_distractor_diamondtriangles.svg	2	yes	44	1	675	0	0			0	0			1				0	
6.6.1	win	2023-06-27	07:52:39	07:59:50	421543	5f4f5d2da7606a000ab233c9	4	1	practice_z	5	advance_on_keypress_ZEE	20	stimuli_target_squarediamonds.svg	stimuli_distractor_diamondtriangles.svg	2	yes	57	0	319	0	0			0	0			1				0	
6.6.1	win	2023-06-27	07:52:39	07:59:54	425518	5f4f5d2da7606a000ab233c9	4	1	practice_z	5	practice_z	21	stimuli_target_diamondsquares.svg	stimuli_distractor_trianglediamonds.svg	6	yes	0	0	2000	0	0			0	0			1				0	
6.6.1	win	2023-06-27	07:52:39	07:59:54	425518	5f4f5d2da7606a000ab233c9	4	1	practice_z	5	advance_on_keypress_ZEE	22	stimuli_target_diamondsquares.svg	stimuli_distractor_trianglediamonds.svg	6	yes	57	0	393	0	0			0	0			1				0	
6.6.1	win	2023-06-27	07:52:39	07:59:56	428288	5f4f5d2da7606a000ab233c9	4	1	practice_z	5	practice_z	23	stimuli_target_rectanglediamonds.svg	stimuli_distractor_diamondtriangles.svg	1	yes	44	1	719	0	0			0	0			1				0	
6.6.1	win	2023-06-27	07:52:39	07:59:56	428288	5f4f5d2da7606a000ab233c9	4	1	practice_z	5	advance_on_keypress_ZEE	24	stimuli_target_rectanglediamonds.svg	stimuli_distractor_diamondtriangles.svg	1	yes	57	0	378	0	0			0	0			1				0	
6.6.1	win	2023-06-27	07:52:39	07:59:59	431336	5f4f5d2da7606a000ab233c9	4	1	practice_z	5	practice_z	25	stimuli_distractor_diamondtriangles.svg	stimuli_target_diamondrectangles.svg	8	yes	44	1	1017	0	0			0	0			1				0	
6.6.1	win	2023-06-27	07:52:39	07:59:59	431336	5f4f5d2da7606a000ab233c9	4	1	practice_z	5	advance_on_keypress_ZEE	26	stimuli_distractor_diamondtriangles.svg	stimuli_target_diamondrectangles.svg	8	yes	57	0	368	0	0			0	0			1				0	
6.6.1	win	2023-06-27	07:52:39	08:00:03	435352	5f4f5d2da7606a000ab233c9	4	1	practice_z	5	practice_z	27	stimuli_distractor_trianglediamonds.svg	stimuli_target_rectanglediamonds.svg	10	yes	0	0	2000	0	0			0	0			1				0	
6.6.1	win	2023-06-27	07:52:39	08:00:03	435352	5f4f5d2da7606a000ab233c9	4	1	practice_z	5	advance_on_keypress_ZEE	28	stimuli_distractor_trianglediamonds.svg	stimuli_target_rectanglediamonds.svg	10	yes	57	0	494	0	0			0	0			1				0	
6.6.1	win	2023-06-27	07:52:39	08:00:08	439502	5f4f5d2da7606a000ab233c9	4	1	practice_z	5	practice_z	29	stimuli_distractor_trianglediamonds.svg	stimuli_distractor_trianglediamonds.svg	15	no	0	1	2000	0	0			0	0			1				0	
6.6.1	win	2023-06-27	07:52:39	08:00:08	439502	5f4f5d2da7606a000ab233c9	4	1	practice_z	5	advance_on_keypress_ZEE	30	stimuli_distractor_trianglediamonds.svg	stimuli_distractor_trianglediamonds.svg	15	no	57	0	377	0	0			0	0			1				0	
6.6.1	win	2023-06-27	07:52:39	08:00:10	442296	5f4f5d2da7606a000ab233c9	4	1	practice_z	5	practice_z	31	stimuli_target_rectanglediamonds.svg	stimuli_distractor_trianglediamonds.svg	4	yes	44	1	761	0	0			0	0			1				0	
6.6.1	win	2023-06-27	07:52:39	08:00:10	442296	5f4f5d2da7606a000ab233c9	4	1	practice_z	5	advance_on_keypress_ZEE	32	stimuli_target_rectanglediamonds.svg	stimuli_distractor_trianglediamonds.svg	4	yes	57	0	273	0	0			0	0			1				0	
6.6.1	win	2023-06-27	07:52:39	08:00:19	451347	5f4f5d2da7606a000ab233c9	4	1	main_z	7	main_z	1	stimuli_distractor_trianglediamonds.svg	stimuli_target_squarediamonds.svg	12	yes	44	1	717	0	0			0	0			1				0	
6.6.1	win	2023-06-27	07:52:39	08:00:19	451347	5f4f5d2da7606a000ab233c9	4	1	main_z	7	advance_on_keypress_ZEE	2	stimuli_distractor_trianglediamonds.svg	stimuli_target_squarediamonds.svg	12	yes	57	0	815	0	0			0	0			1				0	
6.6.1	win	2023-06-27	07:52:39	08:00:22	453731	5f4f5d2da7606a000ab233c9	4	1	main_z	7	main_z	3	stimuli_distractor_diamondtriangles.svg	stimuli_target_diamondsquares.svg	32	yes	44	1	916	0	0			0	0			1				0	
6.6.1	win	2023-06-27	07:52:39	08:00:22	453731	5f4f5d2da7606a000ab233c9	4	1	main_z	7	advance_on_keypress_ZEE	4	stimuli_distractor_diamondtriangles.svg	stimuli_target_diamondsquares.svg	32	yes	57	0	1392	0	0			0	0			1				0	
6.6.1	win	2023-06-27	07:52:39	08:00:25	456507	5f4f5d2da7606a000ab233c9	4	1	main_z	7	main_z	5	stimuli_target_trianglesquares.svg	stimuli_distractor_diamondtriangles.svg	22	yes	44	1	742	0	0			0	0			1				0	
6.6.1	win	2023-06-27	07:52:39	08:00:25	456507	5f4f5d2da7606a000ab233c9	4	1	main_z	7	advance_on_keypress_ZEE	6	stimuli_target_trianglesquares.svg	stimuli_distractor_diamondtriangles.svg	22	yes	57	0	513	0	0			0	0			1				0	
6.6.1	win	2023-06-27	07:52:39	08:00:28	459664	5f4f5d2da7606a000ab233c9	4	1	main_z	7	main_z	7	stimuli_distractor_trianglediamonds.svg	stimuli_target_rectanglediamonds.svg	10	yes	0	0	2000	0	0			0	0			1				0	
6.6.1	win	2023-06-27	07:52:39	08:00:28	459664	5f4f5d2da7606a000ab233c9	4	1	main_z	7	advance_on_keypress_ZEE	8	stimuli_distractor_trianglediamonds.svg	stimuli_target_rectanglediamonds.svg	10	yes	57	0	586	0	0			0	0			1				0	
6.6.1	win	2023-06-27	07:52:39	08:00:31	462898	5f4f5d2da7606a000ab233c9	4	1	main_z	7	main_z	9	stimuli_target_diamondsquares.svg	stimuli_distractor_trianglediamonds.svg	20	yes	0	0	2000	0	0			0	0			1				0	
6.6.1	win	2023-06-27	07:52:39	08:00:31	462898	5f4f5d2da7606a000ab233c9	4	1	main_z	7	advance_on_keypress_ZEE	10	stimuli_target_diamondsquares.svg	stimuli_distractor_trianglediamonds.svg	20	yes	57	0	409	0	0			0	0			1				0	
6.6.1	win	2023-06-27	07:52:39	08:00:33	464691	5f4f5d2da7606a000ab233c9	4	1	main_z	7	main_z	11	stimuli_distractor_trianglediamonds.svg	stimuli_target_squaretriangles.svg	11	yes	44	1	726	0	0			0	0			1				0	
6.6.1	win	2023-06-27	07:52:39	08:00:33	464691	5f4f5d2da7606a000ab233c9	4	1	main_z	7	advance_on_keypress_ZEE	12	stimuli_distractor_trianglediamonds.svg	stimuli_target_squaretriangles.svg	11	yes	57	0	576	0	0			0	0			1				0	
6.6.1	win	2023-06-27	07:52:39	08:00:35	466652	5f4f5d2da7606a000ab233c9	4	1	main_z	7	main_z	13	stimuli_target_rectanglediamonds.svg	stimuli_distractor_diamondtriangles.svg	6	yes	44	1	721	0	0			0	0			1				0	
6.6.1	win	2023-06-27	07:52:39	08:00:35	466652	5f4f5d2da7606a000ab233c9	4	1	main_z	7	advance_on_keypress_ZEE	14	stimuli_target_rectanglediamonds.svg	stimuli_distractor_diamondtriangles.svg	6	yes	57	0	323	0	0			0	0			1				0	
6.6.1	win	2023-06-27	07:52:39	08:00:36	468331	5f4f5d2da7606a000ab233c9	4	1	main_z	7	main_z	15	stimuli_target_squaretriangles.svg	stimuli_distractor_diamondtriangles.svg	7	yes	44	1	717	0	0			0	0			1				0	
6.6.1	win	2023-06-27	07:52:39	08:00:36	468331	5f4f5d2da7606a000ab233c9	4	1	main_z	7	advance_on_keypress_ZEE	16	stimuli_target_squaretriangles.svg	stimuli_distractor_diamondtriangles.svg	7	yes	57	0	280	0	0			0	0			1				0	
6.6.1	win	2023-06-27	07:52:39	08:00:38	470283	5f4f5d2da7606a000ab233c9	4	1	main_z	7	main_z	17	stimuli_distractor_trianglediamonds.svg	stimuli_target_diamondsquares.svg	28	yes	44	1	1019	0	0			0	0			1				0	
6.6.1	win	2023-06-27	07:52:39	08:00:38	470283	5f4f5d2da7606a000ab233c9	4	1	main_z	7	advance_on_keypress_ZEE	18	stimuli_distractor_trianglediamonds.svg	stimuli_target_diamondsquares.svg	28	yes	57	0	474	0	0			0	0			1				0	
6.6.1	win	2023-06-27	07:52:39	08:00:40	472164	5f4f5d2da7606a000ab233c9	4	1	main_z	7	main_z	19	stimuli_distractor_trianglediamonds.svg	stimuli_target_trianglesquares.svg	26	yes	44	1	766	0	0			0	0			1				0	
6.6.1	win	2023-06-27	07:52:39	08:00:40	472164	5f4f5d2da7606a000ab233c9	4	1	main_z	7	advance_on_keypress_ZEE	20	stimuli_distractor_trianglediamonds.svg	stimuli_target_trianglesquares.svg	26	yes	57	0	294	0	0			0	0			1				0	
6.6.1	win	2023-06-27	07:52:39	08:00:43	475115	5f4f5d2da7606a000ab233c9	4	1	main_z	7	main_z	21	stimuli_distractor_diamondtriangles.svg	stimuli_target_squarediamonds.svg	16	yes	0	0	2000	0	0			0	0			1				0	
6.6.1	win	2023-06-27	07:52:39	08:00:43	475115	5f4f5d2da7606a000ab233c9	4	1	main_z	7	advance_on_keypress_ZEE	22	stimuli_distractor_diamondtriangles.svg	stimuli_target_squarediamonds.svg	16	yes	57	0	985	0	0			0	0			1				0	
6.6.1	win	2023-06-27	07:52:39	08:00:47	478564	5f4f5d2da7606a000ab233c9	4	1	main_z	7	main_z	23	stimuli_distractor_diamondtriangles.svg	stimuli_target_diamondrectangles.svg	31	yes	44	1	1816	0	0			0	0			1				0	
6.6.1	win	2023-06-27	07:52:39	08:00:47	478564	5f4f5d2da7606a000ab233c9	4	1	main_z	7	advance_on_keypress_ZEE	24	stimuli_distractor_diamondtriangles.svg	stimuli_target_diamondrectangles.svg	31	yes	57	0	559	0	0			0	0			1				0	
6.6.1	win	2023-06-27	07:52:39	08:00:49	480995	5f4f5d2da7606a000ab233c9	4	1	main_z	7	main_z	25	stimuli_target_trianglesquares.svg	stimuli_distractor_trianglediamonds.svg	18	yes	44	1	1231	0	0			0	0			1				0	
6.6.1	win	2023-06-27	07:52:39	08:00:49	480995	5f4f5d2da7606a000ab233c9	4	1	main_z	7	advance_on_keypress_ZEE	26	stimuli_target_trianglesquares.svg	stimuli_distractor_trianglediamonds.svg	18	yes	57	0	437	0	0			0	0			1				0	
6.6.1	win	2023-06-27	07:52:39	08:00:51	483051	5f4f5d2da7606a000ab233c9	4	1	main_z	7	main_z	27	stimuli_target_diamondrectangles.svg	stimuli_distractor_diamondtriangles.svg	23	yes	44	1	971	0	0			0	0			1				0	
6.6.1	win	2023-06-27	07:52:39	08:00:51	483051	5f4f5d2da7606a000ab233c9	4	1	main_z	7	advance_on_keypress_ZEE	28	stimuli_target_diamondrectangles.svg	stimuli_distractor_diamondtriangles.svg	23	yes	57	0	347	0	0			0	0			1				0	
6.6.1	win	2023-06-27	07:52:39	08:00:53	485060	5f4f5d2da7606a000ab233c9	4	1	main_z	7	main_z	29	stimuli_distractor_trianglediamonds.svg	stimuli_distractor_diamondtriangles.svg	35	no	44	0	1012	0	0			0	0			1				0	
6.6.1	win	2023-06-27	07:52:39	08:00:53	485060	5f4f5d2da7606a000ab233c9	4	1	main_z	7	advance_on_keypress_ZEE	30	stimuli_distractor_trianglediamonds.svg	stimuli_distractor_diamondtriangles.svg	35	no	57	0	282	0	0			0	0			1				0	
6.6.1	win	2023-06-27	07:52:39	08:00:55	486955	5f4f5d2da7606a000ab233c9	4	1	main_z	7	main_z	31	stimuli_distractor_trianglediamonds.svg	stimuli_target_trianglerectangles.svg	25	yes	44	1	958	0	0			0	0			1				0	
6.6.1	win	2023-06-27	07:52:39	08:00:55	486955	5f4f5d2da7606a000ab233c9	4	1	main_z	7	advance_on_keypress_ZEE	32	stimuli_distractor_trianglediamonds.svg	stimuli_target_trianglerectangles.svg	25	yes	57	0	367	0	0			0	0			1				0	
6.6.1	win	2023-06-27	07:52:39	08:00:57	488868	5f4f5d2da7606a000ab233c9	4	1	main_z	7	main_z	33	stimuli_target_diamondsquares.svg	stimuli_distractor_diamondtriangles.svg	24	yes	44	1	903	0	0			0	0			1				0	
6.6.1	win	2023-06-27	07:52:39	08:00:57	488868	5f4f5d2da7606a000ab233c9	4	1	main_z	7	advance_on_keypress_ZEE	34	stimuli_target_diamondsquares.svg	stimuli_distractor_diamondtriangles.svg	24	yes	57	0	283	0	0			0	0			1				0	
6.6.1	win	2023-06-27	07:52:39	08:01:00	491798	5f4f5d2da7606a000ab233c9	4	1	main_z	7	main_z	35	stimuli_target_squaretriangles.svg	stimuli_distractor_trianglediamonds.svg	3	yes	0	0	2000	0	0			0	0			1				0	
6.6.1	win	2023-06-27	07:52:39	08:01:00	491798	5f4f5d2da7606a000ab233c9	4	1	main_z	7	advance_on_keypress_ZEE	36	stimuli_target_squaretriangles.svg	stimuli_distractor_trianglediamonds.svg	3	yes	57	0	661	0	0			0	0			1				0	
6.6.1	win	2023-06-27	07:52:39	08:01:02	493788	5f4f5d2da7606a000ab233c9	4	1	main_z	7	main_z	37	stimuli_distractor_trianglediamonds.svg	stimuli_target_rectangletriangles.svg	9	yes	44	1	673	0	0			0	0			1				0	
6.6.1	win	2023-06-27	07:52:39	08:01:02	493788	5f4f5d2da7606a000ab233c9	4	1	main_z	7	advance_on_keypress_ZEE	38	stimuli_distractor_trianglediamonds.svg	stimuli_target_rectangletriangles.svg	9	yes	57	0	349	0	0			0	0			1				0	
6.6.1	win	2023-06-27	07:52:39	08:01:04	496003	5f4f5d2da7606a000ab233c9	4	1	main_z	7	main_z	39	stimuli_distractor_trianglediamonds.svg	stimuli_distractor_diamondtriangles.svg	36	no	44	0	1222	0	0			0	0			1				0	
6.6.1	win	2023-06-27	07:52:39	08:01:04	496003	5f4f5d2da7606a000ab233c9	4	1	main_z	7	advance_on_keypress_ZEE	40	stimuli_distractor_trianglediamonds.svg	stimuli_distractor_diamondtriangles.svg	36	no	57	0	277	0	0			0	0			1				0	
6.6.1	win	2023-06-27	07:52:39	08:01:07	498931	5f4f5d2da7606a000ab233c9	4	1	main_z	7	main_z	41	stimuli_distractor_diamondtriangles.svg	stimuli_distractor_trianglediamonds.svg	38	no	0	1	2000	0	0			0	0			1				0	
6.6.1	win	2023-06-27	07:52:39	08:01:07	498931	5f4f5d2da7606a000ab233c9	4	1	main_z	7	advance_on_keypress_ZEE	42	stimuli_distractor_diamondtriangles.svg	stimuli_distractor_trianglediamonds.svg	38	no	57	0	447	0	0			0	0			1				0	
6.6.1	win	2023-06-27	07:52:39	08:01:10	502031	5f4f5d2da7606a000ab233c9	4	1	main_z	7	main_z	43	stimuli_distractor_trianglediamonds.svg	stimuli_distractor_trianglediamonds.svg	34	no	0	1	2000	0	0			0	0			1				0	
6.6.1	win	2023-06-27	07:52:39	08:01:10	502031	5f4f5d2da7606a000ab233c9	4	1	main_z	7	advance_on_keypress_ZEE	44	stimuli_distractor_trianglediamonds.svg	stimuli_distractor_trianglediamonds.svg	34	no	57	0	644	0	0			0	0			1				0	
6.6.1	win	2023-06-27	07:52:39	08:01:12	504139	5f4f5d2da7606a000ab233c9	4	1	main_z	7	main_z	45	stimuli_distractor_diamondtriangles.svg	stimuli_target_rectanglediamonds.svg	14	yes	44	1	809	0	0			0	0			1				0	
6.6.1	win	2023-06-27	07:52:39	08:01:12	504139	5f4f5d2da7606a000ab233c9	4	1	main_z	7	advance_on_keypress_ZEE	46	stimuli_distractor_diamondtriangles.svg	stimuli_target_rectanglediamonds.svg	14	yes	57	0	424	0	0			0	0			1				0	
6.6.1	win	2023-06-27	07:52:39	08:01:14	506131	5f4f5d2da7606a000ab233c9	4	1	main_z	7	main_z	47	stimuli_distractor_diamondtriangles.svg	stimuli_target_trianglesquares.svg	30	yes	44	1	934	0	0			0	0			1				0	
6.6.1	win	2023-06-27	07:52:39	08:01:14	506131	5f4f5d2da7606a000ab233c9	4	1	main_z	7	advance_on_keypress_ZEE	48	stimuli_distractor_diamondtriangles.svg	stimuli_target_trianglesquares.svg	30	yes	57	0	304	0	0			0	0			1				0	
6.6.1	win	2023-06-27	07:52:39	08:01:16	507851	5f4f5d2da7606a000ab233c9	4	1	main_z	7	main_z	49	stimuli_target_trianglerectangles.svg	stimuli_distractor_trianglediamonds.svg	17	yes	44	1	770	0	0			0	0			1				0	
6.6.1	win	2023-06-27	07:52:39	08:01:16	507851	5f4f5d2da7606a000ab233c9	4	1	main_z	7	advance_on_keypress_ZEE	50	stimuli_target_trianglerectangles.svg	stimuli_distractor_trianglediamonds.svg	17	yes	57	0	258	0	0			0	0			1				0	
6.6.1	win	2023-06-27	07:52:39	08:01:18	509619	5f4f5d2da7606a000ab233c9	4	1	main_z	7	main_z	51	stimuli_distractor_trianglediamonds.svg	stimuli_distractor_trianglediamonds.svg	33	no	44	0	871	0	0			0	0			1				0	
6.6.1	win	2023-06-27	07:52:39	08:01:18	509619	5f4f5d2da7606a000ab233c9	4	1	main_z	7	advance_on_keypress_ZEE	52	stimuli_distractor_trianglediamonds.svg	stimuli_distractor_trianglediamonds.svg	33	no	57	0	236	0	0			0	0			1				0	
6.6.1	win	2023-06-27	07:52:39	08:01:21	512498	5f4f5d2da7606a000ab233c9	4	1	main_z	7	main_z	53	stimuli_distractor_diamondtriangles.svg	stimuli_distractor_diamondtriangles.svg	40	no	0	1	2000	0	0			0	0			1				0	
6.6.1	win	2023-06-27	07:52:39	08:01:21	512498	5f4f5d2da7606a000ab233c9	4	1	main_z	7	advance_on_keypress_ZEE	54	stimuli_distractor_diamondtriangles.svg	stimuli_distractor_diamondtriangles.svg	40	no	57	0	576	0	0			0	0			1				0	
6.6.1	win	2023-06-27	07:52:39	08:01:23	514435	5f4f5d2da7606a000ab233c9	4	1	main_z	7	main_z	55	stimuli_target_trianglerectangles.svg	stimuli_distractor_diamondtriangles.svg	21	yes	44	1	704	0	0			0	0			1				0	
6.6.1	win	2023-06-27	07:52:39	08:01:23	514435	5f4f5d2da7606a000ab233c9	4	1	main_z	7	advance_on_keypress_ZEE	56	stimuli_target_trianglerectangles.svg	stimuli_distractor_diamondtriangles.svg	21	yes	57	0	299	0	0			0	0			1				0	
6.6.1	win	2023-06-27	07:52:39	08:01:24	516179	5f4f5d2da7606a000ab233c9	4	1	main_z	7	main_z	57	stimuli_target_squarediamonds.svg	stimuli_distractor_diamondtriangles.svg	8	yes	44	1	798	0	0			0	0			1				0	
6.6.1	win	2023-06-27	07:52:39	08:01:24	516179	5f4f5d2da7606a000ab233c9	4	1	main_z	7	advance_on_keypress_ZEE	58	stimuli_target_squarediamonds.svg	stimuli_distractor_diamondtriangles.svg	8	yes	57	0	302	0	0			0	0			1				0	
6.6.1	win	2023-06-27	07:52:39	08:01:26	517963	5f4f5d2da7606a000ab233c9	4	1	main_z	7	main_z	59	stimuli_distractor_diamondtriangles.svg	stimuli_target_squaretriangles.svg	15	yes	44	1	832	0	0			0	0			1				0	
6.6.1	win	2023-06-27	07:52:39	08:01:26	517963	5f4f5d2da7606a000ab233c9	4	1	main_z	7	advance_on_keypress_ZEE	60	stimuli_distractor_diamondtriangles.svg	stimuli_target_squaretriangles.svg	15	yes	57	0	254	0	0			0	0			1				0	
6.6.1	win	2023-06-27	07:52:39	08:01:28	519667	5f4f5d2da7606a000ab233c9	4	1	main_z	7	main_z	61	stimuli_target_squarediamonds.svg	stimuli_distractor_trianglediamonds.svg	4	yes	44	1	803	0	0			0	0			1				0	
6.6.1	win	2023-06-27	07:52:39	08:01:28	519667	5f4f5d2da7606a000ab233c9	4	1	main_z	7	advance_on_keypress_ZEE	62	stimuli_target_squarediamonds.svg	stimuli_distractor_trianglediamonds.svg	4	yes	57	0	267	0	0			0	0			1				0	
6.6.1	win	2023-06-27	07:52:39	08:01:30	522035	5f4f5d2da7606a000ab233c9	4	1	main_z	7	main_z	63	stimuli_distractor_diamondtriangles.svg	stimuli_distractor_trianglediamonds.svg	37	no	44	0	1455	0	0			0	0			1				0	
6.6.1	win	2023-06-27	07:52:39	08:01:30	522035	5f4f5d2da7606a000ab233c9	4	1	main_z	7	advance_on_keypress_ZEE	64	stimuli_distractor_diamondtriangles.svg	stimuli_distractor_trianglediamonds.svg	37	no	57	0	291	0	0			0	0			1				0	
6.6.1	win	2023-06-27	07:52:39	08:01:33	524965	5f4f5d2da7606a000ab233c9	4	1	main_z	7	main_z	65	stimuli_target_rectangletriangles.svg	stimuli_distractor_trianglediamonds.svg	1	yes	0	0	2000	0	0			0	0			1				0	
6.6.1	win	2023-06-27	07:52:39	08:01:33	524965	5f4f5d2da7606a000ab233c9	4	1	main_z	7	advance_on_keypress_ZEE	66	stimuli_target_rectangletriangles.svg	stimuli_distractor_trianglediamonds.svg	1	yes	57	0	783	0	0			0	0			1				0	
6.6.1	win	2023-06-27	07:52:39	08:01:35	527243	5f4f5d2da7606a000ab233c9	4	1	main_z	7	main_z	67	stimuli_distractor_diamondtriangles.svg	stimuli_target_trianglerectangles.svg	29	yes	44	1	846	0	0			0	0			1				0	
6.6.1	win	2023-06-27	07:52:39	08:01:35	527243	5f4f5d2da7606a000ab233c9	4	1	main_z	7	advance_on_keypress_ZEE	68	stimuli_distractor_diamondtriangles.svg	stimuli_target_trianglerectangles.svg	29	yes	57	0	282	0	0			0	0			1				0	
6.6.1	win	2023-06-27	07:52:39	08:01:37	529035	5f4f5d2da7606a000ab233c9	4	1	main_z	7	main_z	69	stimuli_target_diamondrectangles.svg	stimuli_distractor_trianglediamonds.svg	19	yes	44	1	854	0	0			0	0			1				0	
6.6.1	win	2023-06-27	07:52:39	08:01:37	529035	5f4f5d2da7606a000ab233c9	4	1	main_z	7	advance_on_keypress_ZEE	70	stimuli_target_diamondrectangles.svg	stimuli_distractor_trianglediamonds.svg	19	yes	57	0	283	0	0			0	0			1				0	
6.6.1	win	2023-06-27	07:52:39	08:01:39	530747	5f4f5d2da7606a000ab233c9	4	1	main_z	7	main_z	71	stimuli_distractor_diamondtriangles.svg	stimuli_target_rectangletriangles.svg	13	yes	44	1	783	0	0			0	0			1				0	
6.6.1	win	2023-06-27	07:52:39	08:01:39	530747	5f4f5d2da7606a000ab233c9	4	1	main_z	7	advance_on_keypress_ZEE	72	stimuli_distractor_diamondtriangles.svg	stimuli_target_rectangletriangles.svg	13	yes	57	0	294	0	0			0	0			1				0	
6.6.1	win	2023-06-27	07:52:39	08:01:41	532675	5f4f5d2da7606a000ab233c9	4	1	main_z	7	main_z	73	stimuli_distractor_trianglediamonds.svg	stimuli_target_diamondrectangles.svg	27	yes	44	1	977	0	0			0	0			1				0	
6.6.1	win	2023-06-27	07:52:39	08:01:41	532675	5f4f5d2da7606a000ab233c9	4	1	main_z	7	advance_on_keypress_ZEE	74	stimuli_distractor_trianglediamonds.svg	stimuli_target_diamondrectangles.svg	27	yes	57	0	265	0	0			0	0			1				0	
6.6.1	win	2023-06-27	07:52:39	08:01:44	535598	5f4f5d2da7606a000ab233c9	4	1	main_z	7	main_z	75	stimuli_distractor_diamondtriangles.svg	stimuli_distractor_diamondtriangles.svg	39	no	0	1	2000	0	0			0	0			1				0	
6.6.1	win	2023-06-27	07:52:39	08:01:44	535598	5f4f5d2da7606a000ab233c9	4	1	main_z	7	advance_on_keypress_ZEE	76	stimuli_distractor_diamondtriangles.svg	stimuli_distractor_diamondtriangles.svg	39	no	57	0	326	0	0			0	0			1				0	
6.6.1	win	2023-06-27	07:52:39	08:01:45	537235	5f4f5d2da7606a000ab233c9	4	1	main_z	7	main_z	77	stimuli_target_rectanglediamonds.svg	stimuli_distractor_trianglediamonds.svg	2	yes	44	1	670	0	0			0	0			1				0	
6.6.1	win	2023-06-27	07:52:39	08:01:45	537235	5f4f5d2da7606a000ab233c9	4	1	main_z	7	advance_on_keypress_ZEE	78	stimuli_target_rectanglediamonds.svg	stimuli_distractor_trianglediamonds.svg	2	yes	57	0	251	0	0			0	0			1				0	
6.6.1	win	2023-06-27	07:52:39	08:01:47	538772	5f4f5d2da7606a000ab233c9	4	1	main_z	7	main_z	79	stimuli_target_rectangletriangles.svg	stimuli_distractor_diamondtriangles.svg	5	yes	44	1	641	0	0			0	0			1				0	
6.6.1	win	2023-06-27	07:52:39	08:01:47	538772	5f4f5d2da7606a000ab233c9	4	1	main_z	7	advance_on_keypress_ZEE	80	stimuli_target_rectangletriangles.svg	stimuli_distractor_diamondtriangles.svg	5	yes	57	0	262	0	0			0	0			1				0	
6.6.1	win	2023-06-27	07:52:39	08:01:50	541681	5f4f5d2da7606a000ab233c9	4	1	main_z	7	main_z	81	stimuli_distractor_diamondtriangles.svg	stimuli_distractor_trianglediamonds.svg	38	no	0	1	2000	0	0			0	0			1				0	
6.6.1	win	2023-06-27	07:52:39	08:01:50	541681	5f4f5d2da7606a000ab233c9	4	1	main_z	7	advance_on_keypress_ZEE	82	stimuli_distractor_diamondtriangles.svg	stimuli_distractor_trianglediamonds.svg	38	no	57	0	441	0	0			0	0			1				0	
6.6.1	win	2023-06-27	07:52:39	08:01:53	544765	5f4f5d2da7606a000ab233c9	4	1	main_z	7	main_z	83	stimuli_distractor_diamondtriangles.svg	stimuli_distractor_diamondtriangles.svg	40	no	0	1	2000	0	0			0	0			1				0	
6.6.1	win	2023-06-27	07:52:39	08:01:53	544765	5f4f5d2da7606a000ab233c9	4	1	main_z	7	advance_on_keypress_ZEE	84	stimuli_distractor_diamondtriangles.svg	stimuli_distractor_diamondtriangles.svg	40	no	57	0	311	0	0			0	0			1				0	
6.6.1	win	2023-06-27	07:52:39	08:01:54	546371	5f4f5d2da7606a000ab233c9	4	1	main_z	7	main_z	85	stimuli_distractor_diamondtriangles.svg	stimuli_target_squarediamonds.svg	16	yes	44	1	641	0	0			0	0			1				0	
6.6.1	win	2023-06-27	07:52:39	08:01:54	546371	5f4f5d2da7606a000ab233c9	4	1	main_z	7	advance_on_keypress_ZEE	86	stimuli_distractor_diamondtriangles.svg	stimuli_target_squarediamonds.svg	16	yes	57	0	302	0	0			0	0			1				0	
6.6.1	win	2023-06-27	07:52:39	08:01:56	548315	5f4f5d2da7606a000ab233c9	4	1	main_z	7	main_z	87	stimuli_distractor_trianglediamonds.svg	stimuli_distractor_trianglediamonds.svg	34	no	44	0	1000	0	0			0	0			1				0	
6.6.1	win	2023-06-27	07:52:39	08:01:56	548315	5f4f5d2da7606a000ab233c9	4	1	main_z	7	advance_on_keypress_ZEE	88	stimuli_distractor_trianglediamonds.svg	stimuli_distractor_trianglediamonds.svg	34	no	57	0	240	0	0			0	0			1				0	
6.6.1	win	2023-06-27	07:52:39	08:01:59	550763	5f4f5d2da7606a000ab233c9	4	1	main_z	7	main_z	89	stimuli_distractor_diamondtriangles.svg	stimuli_target_rectangletriangles.svg	13	yes	44	1	1565	0	0			0	0			1				0	
6.6.1	win	2023-06-27	07:52:39	08:01:59	550763	5f4f5d2da7606a000ab233c9	4	1	main_z	7	advance_on_keypress_ZEE	90	stimuli_distractor_diamondtriangles.svg	stimuli_target_rectangletriangles.svg	13	yes	57	0	335	0	0			0	0			1				0	
6.6.1	win	2023-06-27	07:52:39	08:02:02	553748	5f4f5d2da7606a000ab233c9	4	1	main_z	7	main_z	91	stimuli_distractor_diamondtriangles.svg	stimuli_distractor_diamondtriangles.svg	39	no	0	1	2000	0	0			0	0			1				0	
6.6.1	win	2023-06-27	07:52:39	08:02:02	553748	5f4f5d2da7606a000ab233c9	4	1	main_z	7	advance_on_keypress_ZEE	92	stimuli_distractor_diamondtriangles.svg	stimuli_distractor_diamondtriangles.svg	39	no	57	0	391	0	0			0	0			1				0	
6.6.1	win	2023-06-27	07:52:39	08:02:04	555451	5f4f5d2da7606a000ab233c9	4	1	main_z	7	main_z	93	stimuli_target_squarediamonds.svg	stimuli_distractor_diamondtriangles.svg	8	yes	44	1	670	0	0			0	0			1				0	
6.6.1	win	2023-06-27	07:52:39	08:02:04	555451	5f4f5d2da7606a000ab233c9	4	1	main_z	7	advance_on_keypress_ZEE	94	stimuli_target_squarediamonds.svg	stimuli_distractor_diamondtriangles.svg	8	yes	57	0	275	0	0			0	0			1				0	
6.6.1	win	2023-06-27	07:52:39	08:02:05	557051	5f4f5d2da7606a000ab233c9	4	1	main_z	7	main_z	95	stimuli_distractor_diamondtriangles.svg	stimuli_target_trianglesquares.svg	30	yes	44	1	686	0	0			0	0			1				0	
6.6.1	win	2023-06-27	07:52:39	08:02:05	557051	5f4f5d2da7606a000ab233c9	4	1	main_z	7	advance_on_keypress_ZEE	96	stimuli_distractor_diamondtriangles.svg	stimuli_target_trianglesquares.svg	30	yes	57	0	274	0	0			0	0			1				0	
6.6.1	win	2023-06-27	07:52:39	08:02:07	559211	5f4f5d2da7606a000ab233c9	4	1	main_z	7	main_z	97	stimuli_target_rectangletriangles.svg	stimuli_distractor_diamondtriangles.svg	5	yes	44	1	1246	0	0			0	0			1				0	
6.6.1	win	2023-06-27	07:52:39	08:02:07	559211	5f4f5d2da7606a000ab233c9	4	1	main_z	7	advance_on_keypress_ZEE	98	stimuli_target_rectangletriangles.svg	stimuli_distractor_diamondtriangles.svg	5	yes	57	0	301	0	0			0	0			1				0	
6.6.1	win	2023-06-27	07:52:39	08:02:09	560971	5f4f5d2da7606a000ab233c9	4	1	main_z	7	main_z	99	stimuli_distractor_trianglediamonds.svg	stimuli_target_diamondrectangles.svg	27	yes	44	1	807	0	0			0	0			1				0	
6.6.1	win	2023-06-27	07:52:39	08:02:09	560971	5f4f5d2da7606a000ab233c9	4	1	main_z	7	advance_on_keypress_ZEE	100	stimuli_distractor_trianglediamonds.svg	stimuli_target_diamondrectangles.svg	27	yes	57	0	239	0	0			0	0			1				0	
6.6.1	win	2023-06-27	07:52:39	08:02:11	562651	5f4f5d2da7606a000ab233c9	4	1	main_z	7	main_z	101	stimuli_target_diamondsquares.svg	stimuli_distractor_diamondtriangles.svg	24	yes	44	1	803	0	0			0	0			1				0	
6.6.1	win	2023-06-27	07:52:39	08:02:11	562651	5f4f5d2da7606a000ab233c9	4	1	main_z	7	advance_on_keypress_ZEE	102	stimuli_target_diamondsquares.svg	stimuli_distractor_diamondtriangles.svg	24	yes	57	0	227	0	0			0	0			1				0	
6.6.1	win	2023-06-27	07:52:39	08:02:13	565363	5f4f5d2da7606a000ab233c9	4	1	main_z	7	main_z	103	stimuli_distractor_diamondtriangles.svg	stimuli_target_rectanglediamonds.svg	14	yes	44	1	1832	0	0			0	0			1				0	
6.6.1	win	2023-06-27	07:52:39	08:02:13	565363	5f4f5d2da7606a000ab233c9	4	1	main_z	7	advance_on_keypress_ZEE	104	stimuli_distractor_diamondtriangles.svg	stimuli_target_rectanglediamonds.svg	14	yes	57	0	310	0	0			0	0			1				0	
6.6.1	win	2023-06-27	07:52:39	08:02:15	567043	5f4f5d2da7606a000ab233c9	4	1	main_z	7	main_z	105	stimuli_target_rectangletriangles.svg	stimuli_distractor_trianglediamonds.svg	1	yes	44	1	713	0	0			0	0			1				0	
6.6.1	win	2023-06-27	07:52:39	08:02:15	567043	5f4f5d2da7606a000ab233c9	4	1	main_z	7	advance_on_keypress_ZEE	106	stimuli_target_rectangletriangles.svg	stimuli_distractor_trianglediamonds.svg	1	yes	57	0	234	0	0			0	0			1				0	
6.6.1	win	2023-06-27	07:52:39	08:02:17	568939	5f4f5d2da7606a000ab233c9	4	1	main_z	7	main_z	107	stimuli_distractor_diamondtriangles.svg	stimuli_target_diamondsquares.svg	32	yes	44	1	1009	0	0			0	0			1				0	
6.6.1	win	2023-06-27	07:52:39	08:02:17	568939	5f4f5d2da7606a000ab233c9	4	1	main_z	7	advance_on_keypress_ZEE	108	stimuli_distractor_diamondtriangles.svg	stimuli_target_diamondsquares.svg	32	yes	57	0	231	0	0			0	0			1				0	
6.6.1	win	2023-06-27	07:52:39	08:02:20	571814	5f4f5d2da7606a000ab233c9	4	1	main_z	7	main_z	109	stimuli_distractor_trianglediamonds.svg	stimuli_distractor_trianglediamonds.svg	33	no	0	1	2000	0	0			0	0			1				0	
6.6.1	win	2023-06-27	07:52:39	08:02:20	571814	5f4f5d2da7606a000ab233c9	4	1	main_z	7	advance_on_keypress_ZEE	110	stimuli_distractor_trianglediamonds.svg	stimuli_distractor_trianglediamonds.svg	33	no	57	0	980	0	0			0	0			1				0	
6.6.1	win	2023-06-27	07:52:39	08:02:22	574275	5f4f5d2da7606a000ab233c9	4	1	main_z	7	main_z	111	stimuli_target_trianglerectangles.svg	stimuli_distractor_diamondtriangles.svg	21	yes	44	1	828	0	0			0	0			1				0	
6.6.1	win	2023-06-27	07:52:39	08:02:22	574275	5f4f5d2da7606a000ab233c9	4	1	main_z	7	advance_on_keypress_ZEE	112	stimuli_target_trianglerectangles.svg	stimuli_distractor_diamondtriangles.svg	21	yes	57	0	225	0	0			0	0			1				0	
6.6.1	win	2023-06-27	07:52:39	08:02:24	575947	5f4f5d2da7606a000ab233c9	4	1	main_z	7	main_z	113	stimuli_distractor_diamondtriangles.svg	stimuli_target_squaretriangles.svg	15	yes	44	1	799	0	0			0	0			1				0	
6.6.1	win	2023-06-27	07:52:39	08:02:24	575947	5f4f5d2da7606a000ab233c9	4	1	main_z	7	advance_on_keypress_ZEE	114	stimuli_distractor_diamondtriangles.svg	stimuli_target_squaretriangles.svg	15	yes	57	0	262	0	0			0	0			1				0	
6.6.1	win	2023-06-27	07:52:39	08:02:26	577603	5f4f5d2da7606a000ab233c9	4	1	main_z	7	main_z	115	stimuli_distractor_trianglediamonds.svg	stimuli_target_trianglesquares.svg	26	yes	44	1	738	0	0			0	0			1				0	
6.6.1	win	2023-06-27	07:52:39	08:02:26	577603	5f4f5d2da7606a000ab233c9	4	1	main_z	7	advance_on_keypress_ZEE	116	stimuli_distractor_trianglediamonds.svg	stimuli_target_trianglesquares.svg	26	yes	57	0	269	0	0			0	0			1				0	
6.6.1	win	2023-06-27	07:52:39	08:02:27	579347	5f4f5d2da7606a000ab233c9	4	1	main_z	7	main_z	117	stimuli_target_trianglerectangles.svg	stimuli_distractor_trianglediamonds.svg	17	yes	44	1	832	0	0			0	0			1				0	
6.6.1	win	2023-06-27	07:52:39	08:02:27	579347	5f4f5d2da7606a000ab233c9	4	1	main_z	7	advance_on_keypress_ZEE	118	stimuli_target_trianglerectangles.svg	stimuli_distractor_trianglediamonds.svg	17	yes	57	0	231	0	0			0	0			1				0	
6.6.1	win	2023-06-27	07:52:39	08:02:29	581059	5f4f5d2da7606a000ab233c9	4	1	main_z	7	main_z	119	stimuli_distractor_trianglediamonds.svg	stimuli_target_trianglerectangles.svg	25	yes	44	1	828	0	0			0	0			1				0	
6.6.1	win	2023-06-27	07:52:39	08:02:29	581059	5f4f5d2da7606a000ab233c9	4	1	main_z	7	advance_on_keypress_ZEE	120	stimuli_distractor_trianglediamonds.svg	stimuli_target_trianglerectangles.svg	25	yes	57	0	226	0	0			0	0			1				0	
6.6.1	win	2023-06-27	07:52:39	08:02:31	582779	5f4f5d2da7606a000ab233c9	4	1	main_z	7	main_z	121	stimuli_distractor_diamondtriangles.svg	stimuli_target_diamondrectangles.svg	31	yes	44	1	848	0	0			0	0			1				0	
6.6.1	win	2023-06-27	07:52:39	08:02:31	582779	5f4f5d2da7606a000ab233c9	4	1	main_z	7	advance_on_keypress_ZEE	122	stimuli_distractor_diamondtriangles.svg	stimuli_target_diamondrectangles.svg	31	yes	57	0	213	0	0			0	0			1				0	
6.6.1	win	2023-06-27	07:52:39	08:02:33	584491	5f4f5d2da7606a000ab233c9	4	1	main_z	7	main_z	123	stimuli_distractor_diamondtriangles.svg	stimuli_target_trianglerectangles.svg	29	yes	44	1	843	0	0			0	0			1				0	
6.6.1	win	2023-06-27	07:52:39	08:02:33	584491	5f4f5d2da7606a000ab233c9	4	1	main_z	7	advance_on_keypress_ZEE	124	stimuli_distractor_diamondtriangles.svg	stimuli_target_trianglerectangles.svg	29	yes	57	0	161	0	0			0	0			1				0	
6.6.1	win	2023-06-27	07:52:39	08:02:35	587314	5f4f5d2da7606a000ab233c9	4	1	main_z	7	main_z	125	stimuli_distractor_trianglediamonds.svg	stimuli_distractor_diamondtriangles.svg	36	no	0	1	2000	0	0			0	0			1				0	
6.6.1	win	2023-06-27	07:52:39	08:02:35	587314	5f4f5d2da7606a000ab233c9	4	1	main_z	7	advance_on_keypress_ZEE	126	stimuli_distractor_trianglediamonds.svg	stimuli_distractor_diamondtriangles.svg	36	no	57	0	312	0	0			0	0			1				0	
6.6.1	win	2023-06-27	07:52:39	08:02:37	589067	5f4f5d2da7606a000ab233c9	4	1	main_z	7	main_z	127	stimuli_target_diamondrectangles.svg	stimuli_distractor_diamondtriangles.svg	23	yes	44	1	786	0	0			0	0			1				0	
6.6.1	win	2023-06-27	07:52:39	08:02:37	589067	5f4f5d2da7606a000ab233c9	4	1	main_z	7	advance_on_keypress_ZEE	128	stimuli_target_diamondrectangles.svg	stimuli_distractor_diamondtriangles.svg	23	yes	57	0	242	0	0			0	0			1				0	
6.6.1	win	2023-06-27	07:52:39	08:02:39	590795	5f4f5d2da7606a000ab233c9	4	1	main_z	7	main_z	129	stimuli_target_squarediamonds.svg	stimuli_distractor_trianglediamonds.svg	4	yes	44	1	847	0	0			0	0			1				0	
6.6.1	win	2023-06-27	07:52:39	08:02:39	590795	5f4f5d2da7606a000ab233c9	4	1	main_z	7	advance_on_keypress_ZEE	130	stimuli_target_squarediamonds.svg	stimuli_distractor_trianglediamonds.svg	4	yes	57	0	245	0	0			0	0			1				0	
6.6.1	win	2023-06-27	07:52:39	08:02:41	592547	5f4f5d2da7606a000ab233c9	4	1	main_z	7	main_z	131	stimuli_distractor_trianglediamonds.svg	stimuli_target_rectanglediamonds.svg	10	yes	44	1	849	0	0			0	0			1				0	
6.6.1	win	2023-06-27	07:52:39	08:02:41	592547	5f4f5d2da7606a000ab233c9	4	1	main_z	7	advance_on_keypress_ZEE	132	stimuli_distractor_trianglediamonds.svg	stimuli_target_rectanglediamonds.svg	10	yes	57	0	215	0	0			0	0			1				0	
6.6.1	win	2023-06-27	07:52:39	08:02:42	594227	5f4f5d2da7606a000ab233c9	4	1	main_z	7	main_z	133	stimuli_target_diamondsquares.svg	stimuli_distractor_trianglediamonds.svg	20	yes	44	1	813	0	0			0	0			1				0	
6.6.1	win	2023-06-27	07:52:39	08:02:42	594227	5f4f5d2da7606a000ab233c9	4	1	main_z	7	advance_on_keypress_ZEE	134	stimuli_target_diamondsquares.svg	stimuli_distractor_trianglediamonds.svg	20	yes	57	0	203	0	0			0	0			1				0	
6.6.1	win	2023-06-27	07:52:39	08:02:44	595835	5f4f5d2da7606a000ab233c9	4	1	main_z	7	main_z	135	stimuli_distractor_trianglediamonds.svg	stimuli_target_diamondsquares.svg	28	yes	44	1	754	0	0			0	0			1				0	
6.6.1	win	2023-06-27	07:52:39	08:02:44	595835	5f4f5d2da7606a000ab233c9	4	1	main_z	7	advance_on_keypress_ZEE	136	stimuli_distractor_trianglediamonds.svg	stimuli_target_diamondsquares.svg	28	yes	57	0	211	0	0			0	0			1				0	
6.6.1	win	2023-06-27	07:52:39	08:02:46	597451	5f4f5d2da7606a000ab233c9	4	1	main_z	7	main_z	137	stimuli_distractor_trianglediamonds.svg	stimuli_distractor_diamondtriangles.svg	35	no	44	0	753	0	0			0	0			1				0	
6.6.1	win	2023-06-27	07:52:39	08:02:46	597451	5f4f5d2da7606a000ab233c9	4	1	main_z	7	advance_on_keypress_ZEE	138	stimuli_distractor_trianglediamonds.svg	stimuli_distractor_diamondtriangles.svg	35	no	57	0	203	0	0			0	0			1				0	
6.6.1	win	2023-06-27	07:52:39	08:02:48	599580	5f4f5d2da7606a000ab233c9	4	1	main_z	7	main_z	139	stimuli_distractor_diamondtriangles.svg	stimuli_distractor_trianglediamonds.svg	37	no	44	0	1281	0	0			0	0			1				0	
6.6.1	win	2023-06-27	07:52:39	08:02:48	599580	5f4f5d2da7606a000ab233c9	4	1	main_z	7	advance_on_keypress_ZEE	140	stimuli_distractor_diamondtriangles.svg	stimuli_distractor_trianglediamonds.svg	37	no	57	0	197	0	0			0	0			1				0	
6.6.1	win	2023-06-27	07:52:39	08:02:49	601259	5f4f5d2da7606a000ab233c9	4	1	main_z	7	main_z	141	stimuli_distractor_trianglediamonds.svg	stimuli_target_squaretriangles.svg	11	yes	44	1	829	0	0			0	0			1				0	
6.6.1	win	2023-06-27	07:52:39	08:02:49	601259	5f4f5d2da7606a000ab233c9	4	1	main_z	7	advance_on_keypress_ZEE	142	stimuli_distractor_trianglediamonds.svg	stimuli_target_squaretriangles.svg	11	yes	57	0	170	0	0			0	0			1				0	
6.6.1	win	2023-06-27	07:52:39	08:02:51	602915	5f4f5d2da7606a000ab233c9	4	1	main_z	7	main_z	143	stimuli_distractor_trianglediamonds.svg	stimuli_target_squarediamonds.svg	12	yes	44	1	834	0	0			0	0			1				0	
6.6.1	win	2023-06-27	07:52:39	08:02:51	602915	5f4f5d2da7606a000ab233c9	4	1	main_z	7	advance_on_keypress_ZEE	144	stimuli_distractor_trianglediamonds.svg	stimuli_target_squarediamonds.svg	12	yes	57	0	208	0	0			0	0			1				0	
6.6.1	win	2023-06-27	07:52:39	08:02:53	604555	5f4f5d2da7606a000ab233c9	4	1	main_z	7	main_z	145	stimuli_target_rectanglediamonds.svg	stimuli_distractor_diamondtriangles.svg	6	yes	44	1	791	0	0			0	0			1				0	
6.6.1	win	2023-06-27	07:52:39	08:02:53	604555	5f4f5d2da7606a000ab233c9	4	1	main_z	7	advance_on_keypress_ZEE	146	stimuli_target_rectanglediamonds.svg	stimuli_distractor_diamondtriangles.svg	6	yes	57	0	191	0	0			0	0			1				0	
6.6.1	win	2023-06-27	07:52:39	08:02:54	606195	5f4f5d2da7606a000ab233c9	4	1	main_z	7	main_z	147	stimuli_target_squaretriangles.svg	stimuli_distractor_trianglediamonds.svg	3	yes	44	1	814	0	0			0	0			1				0	
6.6.1	win	2023-06-27	07:52:39	08:02:54	606195	5f4f5d2da7606a000ab233c9	4	1	main_z	7	advance_on_keypress_ZEE	148	stimuli_target_squaretriangles.svg	stimuli_distractor_trianglediamonds.svg	3	yes	57	0	149	0	0			0	0			1				0	
6.6.1	win	2023-06-27	07:52:39	08:02:56	607835	5f4f5d2da7606a000ab233c9	4	1	main_z	7	main_z	149	stimuli_target_trianglesquares.svg	stimuli_distractor_trianglediamonds.svg	18	yes	44	1	837	0	0			0	0			1				0	
6.6.1	win	2023-06-27	07:52:39	08:02:56	607835	5f4f5d2da7606a000ab233c9	4	1	main_z	7	advance_on_keypress_ZEE	150	stimuli_target_trianglesquares.svg	stimuli_distractor_trianglediamonds.svg	18	yes	57	0	179	0	0			0	0			1				0	
6.6.1	win	2023-06-27	07:52:39	08:02:58	609811	5f4f5d2da7606a000ab233c9	4	1	main_z	7	main_z	151	stimuli_distractor_trianglediamonds.svg	stimuli_target_rectangletriangles.svg	9	yes	44	1	1147	0	0			0	0			1				0	
6.6.1	win	2023-06-27	07:52:39	08:02:58	609811	5f4f5d2da7606a000ab233c9	4	1	main_z	7	advance_on_keypress_ZEE	152	stimuli_distractor_trianglediamonds.svg	stimuli_target_rectangletriangles.svg	9	yes	57	0	140	0	0			0	0			1				0	
6.6.1	win	2023-06-27	07:52:39	08:03:01	612597	5f4f5d2da7606a000ab233c9	4	1	main_z	7	main_z	153	stimuli_target_diamondrectangles.svg	stimuli_distractor_trianglediamonds.svg	19	yes	0	0	2000	0	0			0	0			1				0	
6.6.1	win	2023-06-27	07:52:39	08:03:01	612597	5f4f5d2da7606a000ab233c9	4	1	main_z	7	advance_on_keypress_ZEE	154	stimuli_target_diamondrectangles.svg	stimuli_distractor_trianglediamonds.svg	19	yes	57	0	589	0	0			0	0			1				0	
6.6.1	win	2023-06-27	07:52:39	08:03:03	614587	5f4f5d2da7606a000ab233c9	4	1	main_z	7	main_z	155	stimuli_target_squaretriangles.svg	stimuli_distractor_diamondtriangles.svg	7	yes	44	1	756	0	0			0	0			1				0	
6.6.1	win	2023-06-27	07:52:39	08:03:03	614587	5f4f5d2da7606a000ab233c9	4	1	main_z	7	advance_on_keypress_ZEE	156	stimuli_target_squaretriangles.svg	stimuli_distractor_diamondtriangles.svg	7	yes	57	0	197	0	0			0	0			1				0	
6.6.1	win	2023-06-27	07:52:39	08:03:04	616219	5f4f5d2da7606a000ab233c9	4	1	main_z	7	main_z	157	stimuli_target_rectanglediamonds.svg	stimuli_distractor_trianglediamonds.svg	2	yes	44	1	788	0	0			0	0			1				0	
6.6.1	win	2023-06-27	07:52:39	08:03:04	616219	5f4f5d2da7606a000ab233c9	4	1	main_z	7	advance_on_keypress_ZEE	158	stimuli_target_rectanglediamonds.svg	stimuli_distractor_trianglediamonds.svg	2	yes	57	0	180	0	0			0	0			1				0	
6.6.1	win	2023-06-27	07:52:39	08:03:06	618099	5f4f5d2da7606a000ab233c9	4	1	main_z	7	main_z	159	stimuli_target_trianglesquares.svg	stimuli_distractor_diamondtriangles.svg	22	yes	44	1	1051	0	0			0	0			1				0	
6.6.1	win	2023-06-27	07:52:39	08:03:06	618099	5f4f5d2da7606a000ab233c9	4	1	main_z	7	advance_on_keypress_ZEE	160	stimuli_target_trianglesquares.svg	stimuli_distractor_diamondtriangles.svg	22	yes	57	0	177	0	0			0	0			1				0	
6.6.1	win	2023-06-27	07:52:39	08:03:33	645385	5f4f5d2da7606a000ab233c9	4	1	practice_slash	9	practice_slash	1	stimuli_distractor_trianglediamonds.svg	stimuli_distractor_diamondtriangles.svg	16	no	0	1	2000	0	0			0	0			1				0	
6.6.1	win	2023-06-27	07:52:39	08:03:33	645385	5f4f5d2da7606a000ab233c9	4	1	practice_slash	9	advance_on_keypress_SLASH	2	stimuli_distractor_trianglediamonds.svg	stimuli_distractor_diamondtriangles.svg	16	no	57	0	869	0	0			0	0			1				0	
6.6.1	win	2023-06-27	07:52:39	08:03:37	648694	5f4f5d2da7606a000ab233c9	4	1	practice_slash	9	practice_slash	3	stimuli_distractor_diamondtriangles.svg	stimuli_target_trianglerectangles.svg	9	yes	53	1	793	0	0			0	0			1				0	
6.6.1	win	2023-06-27	07:52:39	08:03:37	648694	5f4f5d2da7606a000ab233c9	4	1	practice_slash	9	advance_on_keypress_SLASH	4	stimuli_distractor_diamondtriangles.svg	stimuli_target_trianglerectangles.svg	9	yes	57	0	785	0	0			0	0			1				0	
6.6.1	win	2023-06-27	07:52:39	08:03:40	651783	5f4f5d2da7606a000ab233c9	4	1	practice_slash	9	practice_slash	5	stimuli_distractor_diamondtriangles.svg	stimuli_target_diamondrectangles.svg	8	yes	53	1	648	0	0			0	0			1				0	
6.6.1	win	2023-06-27	07:52:39	08:03:40	651783	5f4f5d2da7606a000ab233c9	4	1	practice_slash	9	advance_on_keypress_SLASH	6	stimuli_distractor_diamondtriangles.svg	stimuli_target_diamondrectangles.svg	8	yes	57	0	261	0	0			0	0			1				0	
6.6.1	win	2023-06-27	07:52:39	08:03:42	654343	5f4f5d2da7606a000ab233c9	4	1	practice_slash	9	practice_slash	7	stimuli_target_diamondsquares.svg	stimuli_distractor_trianglediamonds.svg	6	yes	53	1	641	0	0			0	0			1				0	
6.6.1	win	2023-06-27	07:52:39	08:03:42	654343	5f4f5d2da7606a000ab233c9	4	1	practice_slash	9	advance_on_keypress_SLASH	8	stimuli_target_diamondsquares.svg	stimuli_distractor_trianglediamonds.svg	6	yes	57	0	279	0	0			0	0			1				0	
6.6.1	win	2023-06-27	07:52:39	08:03:46	658285	5f4f5d2da7606a000ab233c9	4	1	practice_slash	9	practice_slash	9	stimuli_distractor_diamondtriangles.svg	stimuli_distractor_diamondtriangles.svg	13	no	0	1	2000	0	0			0	0			1				0	
6.6.1	win	2023-06-27	07:52:39	08:03:46	658285	5f4f5d2da7606a000ab233c9	4	1	practice_slash	9	advance_on_keypress_SLASH	10	stimuli_distractor_diamondtriangles.svg	stimuli_distractor_diamondtriangles.svg	13	no	57	0	633	0	0			0	0			1				0	
6.6.1	win	2023-06-27	07:52:39	08:03:51	662568	5f4f5d2da7606a000ab233c9	4	1	practice_slash	9	practice_slash	11	stimuli_distractor_diamondtriangles.svg	stimuli_distractor_trianglediamonds.svg	14	no	0	1	2000	0	0			0	0			1				0	
6.6.1	win	2023-06-27	07:52:39	08:03:51	662568	5f4f5d2da7606a000ab233c9	4	1	practice_slash	9	advance_on_keypress_SLASH	12	stimuli_distractor_diamondtriangles.svg	stimuli_distractor_trianglediamonds.svg	14	no	57	0	334	0	0			0	0			1				0	
6.6.1	win	2023-06-27	07:52:39	08:03:53	665303	5f4f5d2da7606a000ab233c9	4	1	practice_slash	9	practice_slash	13	stimuli_distractor_trianglediamonds.svg	stimuli_target_squarediamonds.svg	11	yes	53	1	751	0	0			0	0			1				0	
6.6.1	win	2023-06-27	07:52:39	08:03:53	665303	5f4f5d2da7606a000ab233c9	4	1	practice_slash	9	advance_on_keypress_SLASH	14	stimuli_distractor_trianglediamonds.svg	stimuli_target_squarediamonds.svg	11	yes	57	0	393	0	0			0	0			1				0	
6.6.1	win	2023-06-27	07:52:39	08:03:56	668072	5f4f5d2da7606a000ab233c9	4	1	practice_slash	9	practice_slash	15	stimuli_target_rectanglediamonds.svg	stimuli_distractor_trianglediamonds.svg	4	yes	53	1	719	0	0			0	0			1				0	
6.6.1	win	2023-06-27	07:52:39	08:03:56	668072	5f4f5d2da7606a000ab233c9	4	1	practice_slash	9	advance_on_keypress_SLASH	16	stimuli_target_rectanglediamonds.svg	stimuli_distractor_trianglediamonds.svg	4	yes	57	0	274	0	0			0	0			1				0	
6.6.1	win	2023-06-27	07:52:39	08:03:59	670671	5f4f5d2da7606a000ab233c9	4	1	practice_slash	9	practice_slash	17	stimuli_target_rectanglediamonds.svg	stimuli_distractor_diamondtriangles.svg	1	yes	53	1	686	0	0			0	0			1				0	
6.6.1	win	2023-06-27	07:52:39	08:03:59	670671	5f4f5d2da7606a000ab233c9	4	1	practice_slash	9	advance_on_keypress_SLASH	18	stimuli_target_rectanglediamonds.svg	stimuli_distractor_diamondtriangles.svg	1	yes	57	0	274	0	0			0	0			1				0	
6.6.1	win	2023-06-27	07:52:39	08:04:01	673271	5f4f5d2da7606a000ab233c9	4	1	practice_slash	9	practice_slash	19	stimuli_distractor_diamondtriangles.svg	stimuli_target_rectangletriangles.svg	7	yes	53	1	686	0	0			0	0			1				0	
6.6.1	win	2023-06-27	07:52:39	08:04:01	673271	5f4f5d2da7606a000ab233c9	4	1	practice_slash	9	advance_on_keypress_SLASH	20	stimuli_distractor_diamondtriangles.svg	stimuli_target_rectangletriangles.svg	7	yes	57	0	290	0	0			0	0			1				0	
6.6.1	win	2023-06-27	07:52:39	08:04:04	676015	5f4f5d2da7606a000ab233c9	4	1	practice_slash	9	practice_slash	21	stimuli_distractor_trianglediamonds.svg	stimuli_target_diamondrectangles.svg	12	yes	53	1	813	0	0			0	0			1				0	
6.6.1	win	2023-06-27	07:52:39	08:04:04	676015	5f4f5d2da7606a000ab233c9	4	1	practice_slash	9	advance_on_keypress_SLASH	22	stimuli_distractor_trianglediamonds.svg	stimuli_target_diamondrectangles.svg	12	yes	57	0	268	0	0			0	0			1				0	
6.6.1	win	2023-06-27	07:52:39	08:04:07	678703	5f4f5d2da7606a000ab233c9	4	1	practice_slash	9	practice_slash	23	stimuli_target_diamondsquares.svg	stimuli_distractor_diamondtriangles.svg	3	yes	53	1	768	0	0			0	0			1				0	
6.6.1	win	2023-06-27	07:52:39	08:04:07	678703	5f4f5d2da7606a000ab233c9	4	1	practice_slash	9	advance_on_keypress_SLASH	24	stimuli_target_diamondsquares.svg	stimuli_distractor_diamondtriangles.svg	3	yes	57	0	425	0	0			0	0			1				0	
6.6.1	win	2023-06-27	07:52:39	08:04:10	681495	5f4f5d2da7606a000ab233c9	4	1	practice_slash	9	practice_slash	25	stimuli_target_squarediamonds.svg	stimuli_distractor_diamondtriangles.svg	2	yes	53	1	727	0	0			0	0			1				0	
6.6.1	win	2023-06-27	07:52:39	08:04:10	681495	5f4f5d2da7606a000ab233c9	4	1	practice_slash	9	advance_on_keypress_SLASH	26	stimuli_target_squarediamonds.svg	stimuli_distractor_diamondtriangles.svg	2	yes	57	0	409	0	0			0	0			1				0	
6.6.1	win	2023-06-27	07:52:39	08:04:12	684239	5f4f5d2da7606a000ab233c9	4	1	practice_slash	9	practice_slash	27	stimuli_distractor_trianglediamonds.svg	stimuli_target_rectanglediamonds.svg	10	yes	53	1	671	0	0			0	0			1				0	
6.6.1	win	2023-06-27	07:52:39	08:04:12	684239	5f4f5d2da7606a000ab233c9	4	1	practice_slash	9	advance_on_keypress_SLASH	28	stimuli_distractor_trianglediamonds.svg	stimuli_target_rectanglediamonds.svg	10	yes	57	0	435	0	0			0	0			1				0	
6.6.1	win	2023-06-27	07:52:39	08:04:16	688318	5f4f5d2da7606a000ab233c9	4	1	practice_slash	9	practice_slash	29	stimuli_distractor_trianglediamonds.svg	stimuli_distractor_trianglediamonds.svg	15	no	0	1	2000	0	0			0	0			1				0	
6.6.1	win	2023-06-27	07:52:39	08:04:16	688318	5f4f5d2da7606a000ab233c9	4	1	practice_slash	9	advance_on_keypress_SLASH	30	stimuli_distractor_trianglediamonds.svg	stimuli_distractor_trianglediamonds.svg	15	no	57	0	560	0	0			0	0			1				0	
6.6.1	win	2023-06-27	07:52:39	08:04:19	691207	5f4f5d2da7606a000ab233c9	4	1	practice_slash	9	practice_slash	31	stimuli_target_squarediamonds.svg	stimuli_distractor_trianglediamonds.svg	5	yes	53	1	672	0	0			0	0			1				0	
6.6.1	win	2023-06-27	07:52:39	08:04:19	691207	5f4f5d2da7606a000ab233c9	4	1	practice_slash	9	advance_on_keypress_SLASH	32	stimuli_target_squarediamonds.svg	stimuli_distractor_trianglediamonds.svg	5	yes	57	0	437	0	0			0	0			1				0	
6.6.1	win	2023-06-27	07:52:39	08:04:25	697299	5f4f5d2da7606a000ab233c9	4	1	main_slash	11	main_slash	1	stimuli_target_squaretriangles.svg	stimuli_distractor_trianglediamonds.svg	3	yes	53	1	651	0	0			0	0			1				0	
6.6.1	win	2023-06-27	07:52:39	08:04:25	697299	5f4f5d2da7606a000ab233c9	4	1	main_slash	11	advance_on_keypress_SLASH	2	stimuli_target_squaretriangles.svg	stimuli_distractor_trianglediamonds.svg	3	yes	57	0	553	0	0			0	0			1				0	
6.6.1	win	2023-06-27	07:52:39	08:04:27	699155	5f4f5d2da7606a000ab233c9	4	1	main_slash	11	main_slash	3	stimuli_target_squarediamonds.svg	stimuli_distractor_trianglediamonds.svg	4	yes	53	1	657	0	0			0	0			1				0	
6.6.1	win	2023-06-27	07:52:39	08:04:27	699155	5f4f5d2da7606a000ab233c9	4	1	main_slash	11	advance_on_keypress_SLASH	4	stimuli_target_squarediamonds.svg	stimuli_distractor_trianglediamonds.svg	4	yes	57	0	367	0	0			0	0			1				0	
6.6.1	win	2023-06-27	07:52:39	08:04:29	700835	5f4f5d2da7606a000ab233c9	4	1	main_slash	11	main_slash	5	stimuli_distractor_trianglediamonds.svg	stimuli_target_trianglerectangles.svg	25	yes	53	1	671	0	0			0	0			1				0	
6.6.1	win	2023-06-27	07:52:39	08:04:29	700835	5f4f5d2da7606a000ab233c9	4	1	main_slash	11	advance_on_keypress_SLASH	6	stimuli_distractor_trianglediamonds.svg	stimuli_target_trianglerectangles.svg	25	yes	57	0	323	0	0			0	0			1				0	
6.6.1	win	2023-06-27	07:52:39	08:04:31	703059	5f4f5d2da7606a000ab233c9	4	1	main_slash	11	main_slash	7	stimuli_target_squarediamonds.svg	stimuli_distractor_diamondtriangles.svg	8	yes	53	1	1261	0	0			0	0			1				0	
6.6.1	win	2023-06-27	07:52:39	08:04:31	703059	5f4f5d2da7606a000ab233c9	4	1	main_slash	11	advance_on_keypress_SLASH	8	stimuli_target_squarediamonds.svg	stimuli_distractor_diamondtriangles.svg	8	yes	57	0	618	0	0			0	0			1				0	
6.6.1	win	2023-06-27	07:52:39	08:04:34	706331	5f4f5d2da7606a000ab233c9	4	1	main_slash	11	main_slash	9	stimuli_distractor_trianglediamonds.svg	stimuli_distractor_trianglediamonds.svg	34	no	0	1	2000	0	0			0	0			1				0	
6.6.1	win	2023-06-27	07:52:39	08:04:34	706331	5f4f5d2da7606a000ab233c9	4	1	main_slash	11	advance_on_keypress_SLASH	10	stimuli_distractor_trianglediamonds.svg	stimuli_distractor_trianglediamonds.svg	34	no	57	0	527	0	0			0	0			1				0	
6.6.1	win	2023-06-27	07:52:39	08:04:37	708635	5f4f5d2da7606a000ab233c9	4	1	main_slash	11	main_slash	11	stimuli_target_diamondsquares.svg	stimuli_distractor_diamondtriangles.svg	24	yes	53	1	1121	0	0			0	0			1				0	
6.6.1	win	2023-06-27	07:52:39	08:04:37	708635	5f4f5d2da7606a000ab233c9	4	1	main_slash	11	advance_on_keypress_SLASH	12	stimuli_target_diamondsquares.svg	stimuli_distractor_diamondtriangles.svg	24	yes	57	0	435	0	0			0	0			1				0	
6.6.1	win	2023-06-27	07:52:39	08:04:39	710451	5f4f5d2da7606a000ab233c9	4	1	main_slash	11	main_slash	13	stimuli_distractor_trianglediamonds.svg	stimuli_target_trianglesquares.svg	26	yes	53	1	737	0	0			0	0			1				0	
6.6.1	win	2023-06-27	07:52:39	08:04:39	710451	5f4f5d2da7606a000ab233c9	4	1	main_slash	11	advance_on_keypress_SLASH	14	stimuli_distractor_trianglediamonds.svg	stimuli_target_trianglesquares.svg	26	yes	57	0	283	0	0			0	0			1				0	
6.6.1	win	2023-06-27	07:52:39	08:04:41	713381	5f4f5d2da7606a000ab233c9	4	1	main_slash	11	main_slash	15	stimuli_distractor_trianglediamonds.svg	stimuli_distractor_diamondtriangles.svg	35	no	0	1	2000	0	0			0	0			1				0	
6.6.1	win	2023-06-27	07:52:39	08:04:41	713381	5f4f5d2da7606a000ab233c9	4	1	main_slash	11	advance_on_keypress_SLASH	16	stimuli_distractor_trianglediamonds.svg	stimuli_distractor_diamondtriangles.svg	35	no	57	0	501	0	0			0	0			1				0	
6.6.1	win	2023-06-27	07:52:39	08:04:43	715219	5f4f5d2da7606a000ab233c9	4	1	main_slash	11	main_slash	17	stimuli_target_rectangletriangles.svg	stimuli_distractor_trianglediamonds.svg	1	yes	53	1	688	0	0			0	0			1				0	
6.6.1	win	2023-06-27	07:52:39	08:04:43	715219	5f4f5d2da7606a000ab233c9	4	1	main_slash	11	advance_on_keypress_SLASH	18	stimuli_target_rectangletriangles.svg	stimuli_distractor_trianglediamonds.svg	1	yes	57	0	324	0	0			0	0			1				0	
6.6.1	win	2023-06-27	07:52:39	08:04:45	716851	5f4f5d2da7606a000ab233c9	4	1	main_slash	11	main_slash	19	stimuli_target_squaretriangles.svg	stimuli_distractor_diamondtriangles.svg	7	yes	53	1	670	0	0			0	0			1				0	
6.6.1	win	2023-06-27	07:52:39	08:04:45	716851	5f4f5d2da7606a000ab233c9	4	1	main_slash	11	advance_on_keypress_SLASH	20	stimuli_target_squaretriangles.svg	stimuli_distractor_diamondtriangles.svg	7	yes	57	0	283	0	0			0	0			1				0	
6.6.1	win	2023-06-27	07:52:39	08:04:47	718715	5f4f5d2da7606a000ab233c9	4	1	main_slash	11	main_slash	21	stimuli_target_diamondrectangles.svg	stimuli_distractor_trianglediamonds.svg	19	yes	53	1	934	0	0			0	0			1				0	
6.6.1	win	2023-06-27	07:52:39	08:04:47	718715	5f4f5d2da7606a000ab233c9	4	1	main_slash	11	advance_on_keypress_SLASH	22	stimuli_target_diamondrectangles.svg	stimuli_distractor_trianglediamonds.svg	19	yes	57	0	256	0	0			0	0			1				0	
6.6.1	win	2023-06-27	07:52:39	08:04:49	721003	5f4f5d2da7606a000ab233c9	4	1	main_slash	11	main_slash	23	stimuli_distractor_diamondtriangles.svg	stimuli_target_rectanglediamonds.svg	14	yes	53	1	1389	0	0			0	0			1				0	
6.6.1	win	2023-06-27	07:52:39	08:04:49	721003	5f4f5d2da7606a000ab233c9	4	1	main_slash	11	advance_on_keypress_SLASH	24	stimuli_distractor_diamondtriangles.svg	stimuli_target_rectanglediamonds.svg	14	yes	57	0	357	0	0			0	0			1				0	
6.6.1	win	2023-06-27	07:52:39	08:04:51	722987	5f4f5d2da7606a000ab233c9	4	1	main_slash	11	main_slash	25	stimuli_distractor_diamondtriangles.svg	stimuli_target_trianglerectangles.svg	29	yes	53	1	989	0	0			0	0			1				0	
6.6.1	win	2023-06-27	07:52:39	08:04:51	722987	5f4f5d2da7606a000ab233c9	4	1	main_slash	11	advance_on_keypress_SLASH	26	stimuli_distractor_diamondtriangles.svg	stimuli_target_trianglerectangles.svg	29	yes	57	0	261	0	0			0	0			1				0	
6.6.1	win	2023-06-27	07:52:39	08:04:54	725555	5f4f5d2da7606a000ab233c9	4	1	main_slash	11	main_slash	27	stimuli_target_rectanglediamonds.svg	stimuli_distractor_diamondtriangles.svg	6	yes	53	1	1657	0	0			0	0			1				0	
6.6.1	win	2023-06-27	07:52:39	08:04:54	725555	5f4f5d2da7606a000ab233c9	4	1	main_slash	11	advance_on_keypress_SLASH	28	stimuli_target_rectanglediamonds.svg	stimuli_distractor_diamondtriangles.svg	6	yes	57	0	295	0	0			0	0			1				0	
6.6.1	win	2023-06-27	07:52:39	08:04:55	727363	5f4f5d2da7606a000ab233c9	4	1	main_slash	11	main_slash	29	stimuli_target_trianglerectangles.svg	stimuli_distractor_trianglediamonds.svg	17	yes	53	1	865	0	0			0	0			1				0	
6.6.1	win	2023-06-27	07:52:39	08:04:55	727363	5f4f5d2da7606a000ab233c9	4	1	main_slash	11	advance_on_keypress_SLASH	30	stimuli_target_trianglerectangles.svg	stimuli_distractor_trianglediamonds.svg	17	yes	57	0	214	0	0			0	0			1				0	
6.6.1	win	2023-06-27	07:52:39	08:04:57	728875	5f4f5d2da7606a000ab233c9	4	1	main_slash	11	main_slash	31	stimuli_target_diamondsquares.svg	stimuli_distractor_trianglediamonds.svg	20	yes	53	1	644	0	0			0	0			1				0	
6.6.1	win	2023-06-27	07:52:39	08:04:57	728875	5f4f5d2da7606a000ab233c9	4	1	main_slash	11	advance_on_keypress_SLASH	32	stimuli_target_diamondsquares.svg	stimuli_distractor_trianglediamonds.svg	20	yes	57	0	241	0	0			0	0			1				0	
6.6.1	win	2023-06-27	07:52:39	08:04:59	730451	5f4f5d2da7606a000ab233c9	4	1	main_slash	11	main_slash	33	stimuli_distractor_trianglediamonds.svg	stimuli_target_diamondrectangles.svg	27	yes	53	1	687	0	0			0	0			1				0	
6.6.1	win	2023-06-27	07:52:39	08:04:59	730451	5f4f5d2da7606a000ab233c9	4	1	main_slash	11	advance_on_keypress_SLASH	34	stimuli_distractor_trianglediamonds.svg	stimuli_target_diamondrectangles.svg	27	yes	57	0	251	0	0			0	0			1				0	
6.6.1	win	2023-06-27	07:52:39	08:05:00	732315	5f4f5d2da7606a000ab233c9	4	1	main_slash	11	main_slash	35	stimuli_distractor_diamondtriangles.svg	stimuli_distractor_trianglediamonds.svg	37	no	53	0	967	0	0			0	0			1				0	
6.6.1	win	2023-06-27	07:52:39	08:05:00	732315	5f4f5d2da7606a000ab233c9	4	1	main_slash	11	advance_on_keypress_SLASH	36	stimuli_distractor_diamondtriangles.svg	stimuli_distractor_trianglediamonds.svg	37	no	57	0	232	0	0			0	0			1				0	
6.6.1	win	2023-06-27	07:52:39	08:05:03	734507	5f4f5d2da7606a000ab233c9	4	1	main_slash	11	main_slash	37	stimuli_target_rectangletriangles.svg	stimuli_distractor_diamondtriangles.svg	5	yes	53	1	1309	0	0			0	0			1				0	
6.6.1	win	2023-06-27	07:52:39	08:05:03	734507	5f4f5d2da7606a000ab233c9	4	1	main_slash	11	advance_on_keypress_SLASH	38	stimuli_target_rectangletriangles.svg	stimuli_distractor_diamondtriangles.svg	5	yes	57	0	185	0	0			0	0			1				0	
6.6.1	win	2023-06-27	07:52:39	08:05:05	736443	5f4f5d2da7606a000ab233c9	4	1	main_slash	11	main_slash	39	stimuli_distractor_trianglediamonds.svg	stimuli_target_diamondsquares.svg	28	yes	53	1	1112	0	0			0	0			1				0	
6.6.1	win	2023-06-27	07:52:39	08:05:05	736443	5f4f5d2da7606a000ab233c9	4	1	main_slash	11	advance_on_keypress_SLASH	40	stimuli_distractor_trianglediamonds.svg	stimuli_target_diamondsquares.svg	28	yes	57	0	163	0	0			0	0			1				0	
6.6.1	win	2023-06-27	07:52:39	08:05:07	739264	5f4f5d2da7606a000ab233c9	4	1	main_slash	11	main_slash	41	stimuli_distractor_diamondtriangles.svg	stimuli_distractor_trianglediamonds.svg	38	no	0	1	2000	0	0			0	0			1				0	
6.6.1	win	2023-06-27	07:52:39	08:05:07	739264	5f4f5d2da7606a000ab233c9	4	1	main_slash	11	advance_on_keypress_SLASH	42	stimuli_distractor_diamondtriangles.svg	stimuli_distractor_trianglediamonds.svg	38	no	57	0	802	0	0			0	0			1				0	
6.6.1	win	2023-06-27	07:52:39	08:05:10	741475	5f4f5d2da7606a000ab233c9	4	1	main_slash	11	main_slash	43	stimuli_distractor_diamondtriangles.svg	stimuli_target_diamondrectangles.svg	31	yes	53	1	761	0	0			0	0			1				0	
6.6.1	win	2023-06-27	07:52:39	08:05:10	741475	5f4f5d2da7606a000ab233c9	4	1	main_slash	11	advance_on_keypress_SLASH	44	stimuli_distractor_diamondtriangles.svg	stimuli_target_diamondrectangles.svg	31	yes	57	0	201	0	0			0	0			1				0	
6.6.1	win	2023-06-27	07:52:39	08:05:12	744330	5f4f5d2da7606a000ab233c9	4	1	main_slash	11	main_slash	45	stimuli_distractor_diamondtriangles.svg	stimuli_target_squaretriangles.svg	15	yes	0	0	2000	0	0			0	0			1				0	
6.6.1	win	2023-06-27	07:52:39	08:05:12	744330	5f4f5d2da7606a000ab233c9	4	1	main_slash	11	advance_on_keypress_SLASH	46	stimuli_distractor_diamondtriangles.svg	stimuli_target_squaretriangles.svg	15	yes	57	0	744	0	0			0	0			1				0	
6.6.1	win	2023-06-27	07:52:39	08:05:15	746411	5f4f5d2da7606a000ab233c9	4	1	main_slash	11	main_slash	47	stimuli_target_trianglesquares.svg	stimuli_distractor_trianglediamonds.svg	18	yes	53	1	680	0	0			0	0			1				0	
6.6.1	win	2023-06-27	07:52:39	08:05:15	746411	5f4f5d2da7606a000ab233c9	4	1	main_slash	11	advance_on_keypress_SLASH	48	stimuli_target_trianglesquares.svg	stimuli_distractor_trianglediamonds.svg	18	yes	57	0	252	0	0			0	0			1				0	
6.6.1	win	2023-06-27	07:52:39	08:05:16	748003	5f4f5d2da7606a000ab233c9	4	1	main_slash	11	main_slash	49	stimuli_distractor_diamondtriangles.svg	stimuli_target_trianglesquares.svg	30	yes	53	1	689	0	0			0	0			1				0	
6.6.1	win	2023-06-27	07:52:39	08:05:16	748003	5f4f5d2da7606a000ab233c9	4	1	main_slash	11	advance_on_keypress_SLASH	50	stimuli_distractor_diamondtriangles.svg	stimuli_target_trianglesquares.svg	30	yes	57	0	237	0	0			0	0			1				0	
6.6.1	win	2023-06-27	07:52:39	08:05:19	750881	5f4f5d2da7606a000ab233c9	4	1	main_slash	11	main_slash	51	stimuli_distractor_diamondtriangles.svg	stimuli_distractor_diamondtriangles.svg	39	no	0	1	2000	0	0			0	0			1				0	
6.6.1	win	2023-06-27	07:52:39	08:05:19	750881	5f4f5d2da7606a000ab233c9	4	1	main_slash	11	advance_on_keypress_SLASH	52	stimuli_distractor_diamondtriangles.svg	stimuli_distractor_diamondtriangles.svg	39	no	57	0	466	0	0			0	0			1				0	
6.6.1	win	2023-06-27	07:52:39	08:05:22	753427	5f4f5d2da7606a000ab233c9	4	1	main_slash	11	main_slash	53	stimuli_distractor_trianglediamonds.svg	stimuli_target_squaretriangles.svg	11	yes	53	1	1430	0	0			0	0			1				0	
6.6.1	win	2023-06-27	07:52:39	08:05:22	753427	5f4f5d2da7606a000ab233c9	4	1	main_slash	11	advance_on_keypress_SLASH	54	stimuli_distractor_trianglediamonds.svg	stimuli_target_squaretriangles.svg	11	yes	57	0	284	0	0			0	0			1				0	
6.6.1	win	2023-06-27	07:52:39	08:05:23	755083	5f4f5d2da7606a000ab233c9	4	1	main_slash	11	main_slash	55	stimuli_distractor_diamondtriangles.svg	stimuli_target_rectangletriangles.svg	13	yes	53	1	719	0	0			0	0			1				0	
6.6.1	win	2023-06-27	07:52:39	08:05:23	755083	5f4f5d2da7606a000ab233c9	4	1	main_slash	11	advance_on_keypress_SLASH	56	stimuli_distractor_diamondtriangles.svg	stimuli_target_rectangletriangles.svg	13	yes	57	0	234	0	0			0	0			1				0	
6.6.1	win	2023-06-27	07:52:39	08:05:25	756947	5f4f5d2da7606a000ab233c9	4	1	main_slash	11	main_slash	57	stimuli_distractor_diamondtriangles.svg	stimuli_target_diamondsquares.svg	32	yes	53	1	983	0	0			0	0			1				0	
6.6.1	win	2023-06-27	07:52:39	08:05:25	756947	5f4f5d2da7606a000ab233c9	4	1	main_slash	11	advance_on_keypress_SLASH	58	stimuli_distractor_diamondtriangles.svg	stimuli_target_diamondsquares.svg	32	yes	57	0	207	0	0			0	0			1				0	
6.6.1	win	2023-06-27	07:52:39	08:05:27	758659	5f4f5d2da7606a000ab233c9	4	1	main_slash	11	main_slash	59	stimuli_target_trianglerectangles.svg	stimuli_distractor_diamondtriangles.svg	21	yes	53	1	862	0	0			0	0			1				0	
6.6.1	win	2023-06-27	07:52:39	08:05:27	758659	5f4f5d2da7606a000ab233c9	4	1	main_slash	11	advance_on_keypress_SLASH	60	stimuli_target_trianglerectangles.svg	stimuli_distractor_diamondtriangles.svg	21	yes	57	0	170	0	0			0	0			1				0	
6.6.1	win	2023-06-27	07:52:39	08:05:30	761481	5f4f5d2da7606a000ab233c9	4	1	main_slash	11	main_slash	61	stimuli_distractor_trianglediamonds.svg	stimuli_target_squarediamonds.svg	12	yes	0	0	2000	0	0			0	0			1				0	
6.6.1	win	2023-06-27	07:52:39	08:05:30	761481	5f4f5d2da7606a000ab233c9	4	1	main_slash	11	advance_on_keypress_SLASH	62	stimuli_distractor_trianglediamonds.svg	stimuli_target_squarediamonds.svg	12	yes	57	0	802	0	0			0	0			1				0	
6.6.1	win	2023-06-27	07:52:39	08:05:33	764931	5f4f5d2da7606a000ab233c9	4	1	main_slash	11	main_slash	63	stimuli_distractor_trianglediamonds.svg	stimuli_distractor_trianglediamonds.svg	33	no	0	1	2000	0	0			0	0			1				0	
6.6.1	win	2023-06-27	07:52:39	08:05:33	764931	5f4f5d2da7606a000ab233c9	4	1	main_slash	11	advance_on_keypress_SLASH	64	stimuli_distractor_trianglediamonds.svg	stimuli_distractor_trianglediamonds.svg	33	no	57	0	280	0	0			0	0			1				0	
6.6.1	win	2023-06-27	07:52:39	08:05:35	766643	5f4f5d2da7606a000ab233c9	4	1	main_slash	11	main_slash	65	stimuli_target_diamondrectangles.svg	stimuli_distractor_diamondtriangles.svg	23	yes	53	1	779	0	0			0	0			1				0	
6.6.1	win	2023-06-27	07:52:39	08:05:35	766643	5f4f5d2da7606a000ab233c9	4	1	main_slash	11	advance_on_keypress_SLASH	66	stimuli_target_diamondrectangles.svg	stimuli_distractor_diamondtriangles.svg	23	yes	57	0	243	0	0			0	0			1				0	
6.6.1	win	2023-06-27	07:52:39	08:05:36	768243	5f4f5d2da7606a000ab233c9	4	1	main_slash	11	main_slash	67	stimuli_target_trianglesquares.svg	stimuli_distractor_diamondtriangles.svg	22	yes	53	1	712	0	0			0	0			1				0	
6.6.1	win	2023-06-27	07:52:39	08:05:36	768243	5f4f5d2da7606a000ab233c9	4	1	main_slash	11	advance_on_keypress_SLASH	68	stimuli_target_trianglesquares.svg	stimuli_distractor_diamondtriangles.svg	22	yes	57	0	211	0	0			0	0			1				0	
6.6.1	win	2023-06-27	07:52:39	08:05:38	770347	5f4f5d2da7606a000ab233c9	4	1	main_slash	11	main_slash	69	stimuli_distractor_diamondtriangles.svg	stimuli_distractor_diamondtriangles.svg	40	no	53	0	1233	0	0			0	0			1				0	
6.6.1	win	2023-06-27	07:52:39	08:05:38	770347	5f4f5d2da7606a000ab233c9	4	1	main_slash	11	advance_on_keypress_SLASH	70	stimuli_distractor_diamondtriangles.svg	stimuli_distractor_diamondtriangles.svg	40	no	57	0	159	0	0			0	0			1				0	
6.6.1	win	2023-06-27	07:52:39	08:05:40	771947	5f4f5d2da7606a000ab233c9	4	1	main_slash	11	main_slash	71	stimuli_target_rectanglediamonds.svg	stimuli_distractor_trianglediamonds.svg	2	yes	53	1	800	0	0			0	0			1				0	
6.6.1	win	2023-06-27	07:52:39	08:05:40	771947	5f4f5d2da7606a000ab233c9	4	1	main_slash	11	advance_on_keypress_SLASH	72	stimuli_target_rectanglediamonds.svg	stimuli_distractor_trianglediamonds.svg	2	yes	57	0	199	0	0			0	0			1				0	
6.6.1	win	2023-06-27	07:52:39	08:05:42	773643	5f4f5d2da7606a000ab233c9	4	1	main_slash	11	main_slash	73	stimuli_distractor_trianglediamonds.svg	stimuli_target_rectanglediamonds.svg	10	yes	53	1	846	0	0			0	0			1				0	
6.6.1	win	2023-06-27	07:52:39	08:05:42	773643	5f4f5d2da7606a000ab233c9	4	1	main_slash	11	advance_on_keypress_SLASH	74	stimuli_distractor_trianglediamonds.svg	stimuli_target_rectanglediamonds.svg	10	yes	57	0	195	0	0			0	0			1				0	
6.6.1	win	2023-06-27	07:52:39	08:05:43	775339	5f4f5d2da7606a000ab233c9	4	1	main_slash	11	main_slash	75	stimuli_distractor_diamondtriangles.svg	stimuli_target_squarediamonds.svg	16	yes	53	1	842	0	0			0	0			1				0	
6.6.1	win	2023-06-27	07:52:39	08:05:43	775339	5f4f5d2da7606a000ab233c9	4	1	main_slash	11	advance_on_keypress_SLASH	76	stimuli_distractor_diamondtriangles.svg	stimuli_target_squarediamonds.svg	16	yes	57	0	192	0	0			0	0			1				0	
6.6.1	win	2023-06-27	07:52:39	08:05:46	778164	5f4f5d2da7606a000ab233c9	4	1	main_slash	11	main_slash	77	stimuli_distractor_trianglediamonds.svg	stimuli_distractor_diamondtriangles.svg	36	no	0	1	2000	0	0			0	0			1				0	
6.6.1	win	2023-06-27	07:52:39	08:05:46	778164	5f4f5d2da7606a000ab233c9	4	1	main_slash	11	advance_on_keypress_SLASH	78	stimuli_distractor_trianglediamonds.svg	stimuli_distractor_diamondtriangles.svg	36	no	57	0	286	0	0			0	0			1				0	
6.6.1	win	2023-06-27	07:52:39	08:05:48	779899	5f4f5d2da7606a000ab233c9	4	1	main_slash	11	main_slash	79	stimuli_distractor_trianglediamonds.svg	stimuli_target_rectangletriangles.svg	9	yes	53	1	802	0	0			0	0			1				0	
6.6.1	win	2023-06-27	07:52:39	08:05:48	779899	5f4f5d2da7606a000ab233c9	4	1	main_slash	11	advance_on_keypress_SLASH	80	stimuli_distractor_trianglediamonds.svg	stimuli_target_rectangletriangles.svg	9	yes	57	0	201	0	0			0	0			1				0	
6.6.1	win	2023-06-27	07:52:39	08:05:51	782747	5f4f5d2da7606a000ab233c9	4	1	main_slash	11	main_slash	81	stimuli_distractor_diamondtriangles.svg	stimuli_distractor_diamondtriangles.svg	39	no	0	1	2000	0	0			0	0			1				0	
6.6.1	win	2023-06-27	07:52:39	08:05:51	782747	5f4f5d2da7606a000ab233c9	4	1	main_slash	11	advance_on_keypress_SLASH	82	stimuli_distractor_diamondtriangles.svg	stimuli_distractor_diamondtriangles.svg	39	no	57	0	271	0	0			0	0			1				0	
6.6.1	win	2023-06-27	07:52:39	08:05:53	784611	5f4f5d2da7606a000ab233c9	4	1	main_slash	11	main_slash	83	stimuli_distractor_diamondtriangles.svg	stimuli_target_trianglerectangles.svg	29	yes	53	1	947	0	0			0	0			1				0	
6.6.1	win	2023-06-27	07:52:39	08:05:53	784611	5f4f5d2da7606a000ab233c9	4	1	main_slash	11	advance_on_keypress_SLASH	84	stimuli_distractor_diamondtriangles.svg	stimuli_target_trianglerectangles.svg	29	yes	57	0	204	0	0			0	0			1				0	
6.6.1	win	2023-06-27	07:52:39	08:05:55	786427	5f4f5d2da7606a000ab233c9	4	1	main_slash	11	main_slash	85	stimuli_distractor_diamondtriangles.svg	stimuli_target_trianglesquares.svg	30	yes	53	1	963	0	0			0	0			1				0	
6.6.1	win	2023-06-27	07:52:39	08:05:55	786427	5f4f5d2da7606a000ab233c9	4	1	main_slash	11	advance_on_keypress_SLASH	86	stimuli_distractor_diamondtriangles.svg	stimuli_target_trianglesquares.svg	30	yes	57	0	180	0	0			0	0			1				0	
6.6.1	win	2023-06-27	07:52:39	08:05:56	788099	5f4f5d2da7606a000ab233c9	4	1	main_slash	11	main_slash	87	stimuli_target_diamondrectangles.svg	stimuli_distractor_diamondtriangles.svg	23	yes	53	1	835	0	0			0	0			1				0	
6.6.1	win	2023-06-27	07:52:39	08:05:56	788099	5f4f5d2da7606a000ab233c9	4	1	main_slash	11	advance_on_keypress_SLASH	88	stimuli_target_diamondrectangles.svg	stimuli_distractor_diamondtriangles.svg	23	yes	57	0	185	0	0			0	0			1				0	
6.6.1	win	2023-06-27	07:52:39	08:05:59	790699	5f4f5d2da7606a000ab233c9	4	1	main_slash	11	main_slash	89	stimuli_distractor_trianglediamonds.svg	stimuli_target_squarediamonds.svg	12	yes	53	1	1768	0	0			0	0			1				0	
6.6.1	win	2023-06-27	07:52:39	08:05:59	790699	5f4f5d2da7606a000ab233c9	4	1	main_slash	11	advance_on_keypress_SLASH	90	stimuli_distractor_trianglediamonds.svg	stimuli_target_squarediamonds.svg	12	yes	57	0	209	0	0			0	0			1				0	
6.6.1	win	2023-06-27	07:52:39	08:06:01	792515	5f4f5d2da7606a000ab233c9	4	1	main_slash	11	main_slash	91	stimuli_distractor_diamondtriangles.svg	stimuli_distractor_trianglediamonds.svg	38	no	53	0	968	0	0			0	0			1				0	
6.6.1	win	2023-06-27	07:52:39	08:06:01	792515	5f4f5d2da7606a000ab233c9	4	1	main_slash	11	advance_on_keypress_SLASH	92	stimuli_distractor_diamondtriangles.svg	stimuli_distractor_trianglediamonds.svg	38	no	57	0	168	0	0			0	0			1				0	
6.6.1	win	2023-06-27	07:52:39	08:06:02	794187	5f4f5d2da7606a000ab233c9	4	1	main_slash	11	main_slash	93	stimuli_distractor_diamondtriangles.svg	stimuli_target_diamondsquares.svg	32	yes	53	1	856	0	0			0	0			1				0	
6.6.1	win	2023-06-27	07:52:39	08:06:02	794187	5f4f5d2da7606a000ab233c9	4	1	main_slash	11	advance_on_keypress_SLASH	94	stimuli_distractor_diamondtriangles.svg	stimuli_target_diamondsquares.svg	32	yes	57	0	190	0	0			0	0			1				0	
6.6.1	win	2023-06-27	07:52:39	08:06:04	795835	5f4f5d2da7606a000ab233c9	4	1	main_slash	11	main_slash	95	stimuli_distractor_trianglediamonds.svg	stimuli_target_diamondrectangles.svg	27	yes	53	1	821	0	0			0	0			1				0	
6.6.1	win	2023-06-27	07:52:39	08:06:04	795835	5f4f5d2da7606a000ab233c9	4	1	main_slash	11	advance_on_keypress_SLASH	96	stimuli_distractor_trianglediamonds.svg	stimuli_target_diamondrectangles.svg	27	yes	57	0	180	0	0			0	0			1				0	
6.6.1	win	2023-06-27	07:52:39	08:06:06	797523	5f4f5d2da7606a000ab233c9	4	1	main_slash	11	main_slash	97	stimuli_distractor_trianglediamonds.svg	stimuli_distractor_diamondtriangles.svg	36	no	53	0	859	0	0			0	0			1				0	
6.6.1	win	2023-06-27	07:52:39	08:06:06	797523	5f4f5d2da7606a000ab233c9	4	1	main_slash	11	advance_on_keypress_SLASH	98	stimuli_distractor_trianglediamonds.svg	stimuli_distractor_diamondtriangles.svg	36	no	57	0	184	0	0			0	0			1				0	
6.6.1	win	2023-06-27	07:52:39	08:06:07	799283	5f4f5d2da7606a000ab233c9	4	1	main_slash	11	main_slash	99	stimuli_distractor_trianglediamonds.svg	stimuli_target_diamondsquares.svg	28	yes	53	1	936	0	0			0	0			1				0	
6.6.1	win	2023-06-27	07:52:39	08:06:07	799283	5f4f5d2da7606a000ab233c9	4	1	main_slash	11	advance_on_keypress_SLASH	100	stimuli_distractor_trianglediamonds.svg	stimuli_target_diamondsquares.svg	28	yes	57	0	170	0	0			0	0			1				0	
6.6.1	win	2023-06-27	07:52:39	08:06:09	801083	5f4f5d2da7606a000ab233c9	4	1	main_slash	11	main_slash	101	stimuli_distractor_diamondtriangles.svg	stimuli_distractor_trianglediamonds.svg	37	no	53	0	986	0	0			0	0			1				0	
6.6.1	win	2023-06-27	07:52:39	08:06:09	801083	5f4f5d2da7606a000ab233c9	4	1	main_slash	11	advance_on_keypress_SLASH	102	stimuli_distractor_diamondtriangles.svg	stimuli_distractor_trianglediamonds.svg	37	no	57	0	162	0	0			0	0			1				0	
6.6.1	win	2023-06-27	07:52:39	08:06:11	803035	5f4f5d2da7606a000ab233c9	4	1	main_slash	11	main_slash	103	stimuli_distractor_trianglediamonds.svg	stimuli_target_rectanglediamonds.svg	10	yes	53	1	1138	0	0			0	0			1				0	
6.6.1	win	2023-06-27	07:52:39	08:06:11	803035	5f4f5d2da7606a000ab233c9	4	1	main_slash	11	advance_on_keypress_SLASH	104	stimuli_distractor_trianglediamonds.svg	stimuli_target_rectanglediamonds.svg	10	yes	57	0	172	0	0			0	0			1				0	
6.6.1	win	2023-06-27	07:52:39	08:06:13	804707	5f4f5d2da7606a000ab233c9	4	1	main_slash	11	main_slash	105	stimuli_distractor_diamondtriangles.svg	stimuli_target_diamondrectangles.svg	31	yes	53	1	860	0	0			0	0			1				0	
6.6.1	win	2023-06-27	07:52:39	08:06:13	804707	5f4f5d2da7606a000ab233c9	4	1	main_slash	11	advance_on_keypress_SLASH	106	stimuli_distractor_diamondtriangles.svg	stimuli_target_diamondrectangles.svg	31	yes	57	0	185	0	0			0	0			1				0	
6.6.1	win	2023-06-27	07:52:39	08:06:14	806315	5f4f5d2da7606a000ab233c9	4	1	main_slash	11	main_slash	107	stimuli_distractor_trianglediamonds.svg	stimuli_target_squaretriangles.svg	11	yes	53	1	784	0	0			0	0			1				0	
6.6.1	win	2023-06-27	07:52:39	08:06:14	806315	5f4f5d2da7606a000ab233c9	4	1	main_slash	11	advance_on_keypress_SLASH	108	stimuli_distractor_trianglediamonds.svg	stimuli_target_squaretriangles.svg	11	yes	57	0	192	0	0			0	0			1				0	
6.6.1	win	2023-06-27	07:52:39	08:06:17	809147	5f4f5d2da7606a000ab233c9	4	1	main_slash	11	main_slash	109	stimuli_distractor_trianglediamonds.svg	stimuli_distractor_trianglediamonds.svg	33	no	0	1	2000	0	0			0	0			1				0	
6.6.1	win	2023-06-27	07:52:39	08:06:17	809147	5f4f5d2da7606a000ab233c9	4	1	main_slash	11	advance_on_keypress_SLASH	110	stimuli_distractor_trianglediamonds.svg	stimuli_distractor_trianglediamonds.svg	33	no	57	0	303	0	0			0	0			1				0	
6.6.1	win	2023-06-27	07:52:39	08:06:19	810811	5f4f5d2da7606a000ab233c9	4	1	main_slash	11	main_slash	111	stimuli_target_squarediamonds.svg	stimuli_distractor_trianglediamonds.svg	4	yes	53	1	714	0	0			0	0			1				0	
6.6.1	win	2023-06-27	07:52:39	08:06:19	810811	5f4f5d2da7606a000ab233c9	4	1	main_slash	11	advance_on_keypress_SLASH	112	stimuli_target_squarediamonds.svg	stimuli_distractor_trianglediamonds.svg	4	yes	57	0	188	0	0			0	0			1				0	
6.6.1	win	2023-06-27	07:52:39	08:06:21	812427	5f4f5d2da7606a000ab233c9	4	1	main_slash	11	main_slash	113	stimuli_target_trianglerectangles.svg	stimuli_distractor_trianglediamonds.svg	17	yes	53	1	780	0	0			0	0			1				0	
6.6.1	win	2023-06-27	07:52:39	08:06:21	812427	5f4f5d2da7606a000ab233c9	4	1	main_slash	11	advance_on_keypress_SLASH	114	stimuli_target_trianglerectangles.svg	stimuli_distractor_trianglediamonds.svg	17	yes	57	0	164	0	0			0	0			1				0	
6.6.1	win	2023-06-27	07:52:39	08:06:23	814491	5f4f5d2da7606a000ab233c9	4	1	main_slash	11	main_slash	115	stimuli_distractor_diamondtriangles.svg	stimuli_target_rectangletriangles.svg	13	yes	53	1	1244	0	0			0	0			1				0	
6.6.1	win	2023-06-27	07:52:39	08:06:23	814491	5f4f5d2da7606a000ab233c9	4	1	main_slash	11	advance_on_keypress_SLASH	116	stimuli_distractor_diamondtriangles.svg	stimuli_target_rectangletriangles.svg	13	yes	57	0	145	0	0			0	0			1				0	
6.6.1	win	2023-06-27	07:52:39	08:06:24	816275	5f4f5d2da7606a000ab233c9	4	1	main_slash	11	main_slash	117	stimuli_target_squarediamonds.svg	stimuli_distractor_diamondtriangles.svg	8	yes	53	1	978	0	0			0	0			1				0	
6.6.1	win	2023-06-27	07:52:39	08:06:24	816275	5f4f5d2da7606a000ab233c9	4	1	main_slash	11	advance_on_keypress_SLASH	118	stimuli_target_squarediamonds.svg	stimuli_distractor_diamondtriangles.svg	8	yes	57	0	138	0	0			0	0			1				0	
6.6.1	win	2023-06-27	07:52:39	08:06:26	817867	5f4f5d2da7606a000ab233c9	4	1	main_slash	11	main_slash	119	stimuli_distractor_trianglediamonds.svg	stimuli_target_trianglesquares.svg	26	yes	53	1	803	0	0			0	0			1				0	
6.6.1	win	2023-06-27	07:52:39	08:06:26	817867	5f4f5d2da7606a000ab233c9	4	1	main_slash	11	advance_on_keypress_SLASH	120	stimuli_distractor_trianglediamonds.svg	stimuli_target_trianglesquares.svg	26	yes	57	0	162	0	0			0	0			1				0	
6.6.1	win	2023-06-27	07:52:39	08:06:28	819979	5f4f5d2da7606a000ab233c9	4	1	main_slash	11	main_slash	121	stimuli_distractor_trianglediamonds.svg	stimuli_distractor_diamondtriangles.svg	35	no	53	0	1298	0	0			0	0			1				0	
6.6.1	win	2023-06-27	07:52:39	08:06:28	819979	5f4f5d2da7606a000ab233c9	4	1	main_slash	11	advance_on_keypress_SLASH	122	stimuli_distractor_trianglediamonds.svg	stimuli_distractor_diamondtriangles.svg	35	no	57	0	158	0	0			0	0			1				0	
6.6.1	win	2023-06-27	07:52:39	08:06:30	821691	5f4f5d2da7606a000ab233c9	4	1	main_slash	11	main_slash	123	stimuli_target_squaretriangles.svg	stimuli_distractor_trianglediamonds.svg	3	yes	53	1	910	0	0			0	0			1				0	
6.6.1	win	2023-06-27	07:52:39	08:06:30	821691	5f4f5d2da7606a000ab233c9	4	1	main_slash	11	advance_on_keypress_SLASH	124	stimuli_target_squaretriangles.svg	stimuli_distractor_trianglediamonds.svg	3	yes	57	0	129	0	0			0	0			1				0	
6.6.1	win	2023-06-27	07:52:39	08:06:31	823291	5f4f5d2da7606a000ab233c9	4	1	main_slash	11	main_slash	125	stimuli_target_squaretriangles.svg	stimuli_distractor_diamondtriangles.svg	7	yes	53	1	810	0	0			0	0			1				0	
6.6.1	win	2023-06-27	07:52:39	08:06:31	823291	5f4f5d2da7606a000ab233c9	4	1	main_slash	11	advance_on_keypress_SLASH	126	stimuli_target_squaretriangles.svg	stimuli_distractor_diamondtriangles.svg	7	yes	57	0	129	0	0			0	0			1				0	
6.6.1	win	2023-06-27	07:52:39	08:06:33	824843	5f4f5d2da7606a000ab233c9	4	1	main_slash	11	main_slash	127	stimuli_distractor_trianglediamonds.svg	stimuli_target_trianglerectangles.svg	25	yes	53	1	762	0	0			0	0			1				0	
6.6.1	win	2023-06-27	07:52:39	08:06:33	824843	5f4f5d2da7606a000ab233c9	4	1	main_slash	11	advance_on_keypress_SLASH	128	stimuli_distractor_trianglediamonds.svg	stimuli_target_trianglerectangles.svg	25	yes	57	0	155	0	0			0	0			1				0	
6.6.1	win	2023-06-27	07:52:39	08:06:35	826395	5f4f5d2da7606a000ab233c9	4	1	main_slash	11	main_slash	129	stimuli_target_rectanglediamonds.svg	stimuli_distractor_trianglediamonds.svg	2	yes	53	1	748	0	0			0	0			1				0	
6.6.1	win	2023-06-27	07:52:39	08:06:35	826395	5f4f5d2da7606a000ab233c9	4	1	main_slash	11	advance_on_keypress_SLASH	130	stimuli_target_rectanglediamonds.svg	stimuli_distractor_trianglediamonds.svg	2	yes	57	0	133	0	0			0	0			1				0	
6.6.1	win	2023-06-27	07:52:39	08:06:36	827979	5f4f5d2da7606a000ab233c9	4	1	main_slash	11	main_slash	131	stimuli_distractor_diamondtriangles.svg	stimuli_target_squaretriangles.svg	15	yes	53	1	798	0	0			0	0			1				0	
6.6.1	win	2023-06-27	07:52:39	08:06:36	827979	5f4f5d2da7606a000ab233c9	4	1	main_slash	11	advance_on_keypress_SLASH	132	stimuli_distractor_diamondtriangles.svg	stimuli_target_squaretriangles.svg	15	yes	57	0	118	0	0			0	0			1				0	
6.6.1	win	2023-06-27	07:52:39	08:06:38	829563	5f4f5d2da7606a000ab233c9	4	1	main_slash	11	main_slash	133	stimuli_target_diamondsquares.svg	stimuli_distractor_diamondtriangles.svg	24	yes	53	1	816	0	0			0	0			1				0	
6.6.1	win	2023-06-27	07:52:39	08:06:38	829563	5f4f5d2da7606a000ab233c9	4	1	main_slash	11	advance_on_keypress_SLASH	134	stimuli_target_diamondsquares.svg	stimuli_distractor_diamondtriangles.svg	24	yes	57	0	118	0	0			0	0			1				0	
6.6.1	win	2023-06-27	07:52:39	08:06:40	831578	5f4f5d2da7606a000ab233c9	4	1	main_slash	11	main_slash	135	stimuli_target_rectangletriangles.svg	stimuli_distractor_diamondtriangles.svg	5	yes	53	1	1248	0	0			0	0			1				0	
6.6.1	win	2023-06-27	07:52:39	08:06:40	831578	5f4f5d2da7606a000ab233c9	4	1	main_slash	11	advance_on_keypress_SLASH	136	stimuli_target_rectangletriangles.svg	stimuli_distractor_diamondtriangles.svg	5	yes	57	0	142	0	0			0	0			1				0	
6.6.1	win	2023-06-27	07:52:39	08:06:42	834364	5f4f5d2da7606a000ab233c9	4	1	main_slash	11	main_slash	137	stimuli_distractor_diamondtriangles.svg	stimuli_distractor_diamondtriangles.svg	40	no	0	1	2000	0	0			0	0			1				0	
6.6.1	win	2023-06-27	07:52:39	08:06:42	834364	5f4f5d2da7606a000ab233c9	4	1	main_slash	11	advance_on_keypress_SLASH	138	stimuli_distractor_diamondtriangles.svg	stimuli_distractor_diamondtriangles.svg	40	no	57	0	262	0	0			0	0			1				0	
6.6.1	win	2023-06-27	07:52:39	08:06:44	835987	5f4f5d2da7606a000ab233c9	4	1	main_slash	11	main_slash	139	stimuli_target_rectanglediamonds.svg	stimuli_distractor_diamondtriangles.svg	6	yes	53	1	706	0	0			0	0			1				0	
6.6.1	win	2023-06-27	07:52:39	08:06:44	835987	5f4f5d2da7606a000ab233c9	4	1	main_slash	11	advance_on_keypress_SLASH	140	stimuli_target_rectanglediamonds.svg	stimuli_distractor_diamondtriangles.svg	6	yes	57	0	190	0	0			0	0			1				0	
6.6.1	win	2023-06-27	07:52:39	08:06:46	837531	5f4f5d2da7606a000ab233c9	4	1	main_slash	11	main_slash	141	stimuli_target_rectangletriangles.svg	stimuli_distractor_trianglediamonds.svg	1	yes	53	1	717	0	0			0	0			1				0	
6.6.1	win	2023-06-27	07:52:39	08:06:46	837531	5f4f5d2da7606a000ab233c9	4	1	main_slash	11	advance_on_keypress_SLASH	142	stimuli_target_rectangletriangles.svg	stimuli_distractor_trianglediamonds.svg	1	yes	57	0	168	0	0			0	0			1				0	
6.6.1	win	2023-06-27	07:52:39	08:06:48	840348	5f4f5d2da7606a000ab233c9	4	1	main_slash	11	main_slash	143	stimuli_distractor_trianglediamonds.svg	stimuli_distractor_trianglediamonds.svg	34	no	0	1	2000	0	0			0	0			1				0	
6.6.1	win	2023-06-27	07:52:39	08:06:48	840348	5f4f5d2da7606a000ab233c9	4	1	main_slash	11	advance_on_keypress_SLASH	144	stimuli_distractor_trianglediamonds.svg	stimuli_distractor_trianglediamonds.svg	34	no	57	0	303	0	0			0	0			1				0	
6.6.1	win	2023-06-27	07:52:39	08:06:50	842283	5f4f5d2da7606a000ab233c9	4	1	main_slash	11	main_slash	145	stimuli_distractor_diamondtriangles.svg	stimuli_target_rectanglediamonds.svg	14	yes	53	1	986	0	0			0	0			1				0	
6.6.1	win	2023-06-27	07:52:39	08:06:50	842283	5f4f5d2da7606a000ab233c9	4	1	main_slash	11	advance_on_keypress_SLASH	146	stimuli_distractor_diamondtriangles.svg	stimuli_target_rectanglediamonds.svg	14	yes	57	0	162	0	0			0	0			1				0	
6.6.1	win	2023-06-27	07:52:39	08:06:52	843803	5f4f5d2da7606a000ab233c9	4	1	main_slash	11	main_slash	147	stimuli_target_trianglesquares.svg	stimuli_distractor_diamondtriangles.svg	22	yes	53	1	706	0	0			0	0			1				0	
6.6.1	win	2023-06-27	07:52:39	08:06:52	843803	5f4f5d2da7606a000ab233c9	4	1	main_slash	11	advance_on_keypress_SLASH	148	stimuli_target_trianglesquares.svg	stimuli_distractor_diamondtriangles.svg	22	yes	57	0	181	0	0			0	0			1				0	
6.6.1	win	2023-06-27	07:52:39	08:06:54	845579	5f4f5d2da7606a000ab233c9	4	1	main_slash	11	main_slash	149	stimuli_target_trianglerectangles.svg	stimuli_distractor_diamondtriangles.svg	21	yes	53	1	948	0	0			0	0			1				0	
6.6.1	win	2023-06-27	07:52:39	08:06:54	845579	5f4f5d2da7606a000ab233c9	4	1	main_slash	11	advance_on_keypress_SLASH	150	stimuli_target_trianglerectangles.svg	stimuli_distractor_diamondtriangles.svg	21	yes	57	0	150	0	0			0	0			1				0	
6.6.1	win	2023-06-27	07:52:39	08:06:55	847147	5f4f5d2da7606a000ab233c9	4	1	main_slash	11	main_slash	151	stimuli_target_diamondsquares.svg	stimuli_distractor_trianglediamonds.svg	20	yes	53	1	766	0	0			0	0			1				0	
6.6.1	win	2023-06-27	07:52:39	08:06:55	847147	5f4f5d2da7606a000ab233c9	4	1	main_slash	11	advance_on_keypress_SLASH	152	stimuli_target_diamondsquares.svg	stimuli_distractor_trianglediamonds.svg	20	yes	57	0	199	0	0			0	0			1				0	
6.6.1	win	2023-06-27	07:52:39	08:06:57	848779	5f4f5d2da7606a000ab233c9	4	1	main_slash	11	main_slash	153	stimuli_target_trianglesquares.svg	stimuli_distractor_trianglediamonds.svg	18	yes	53	1	782	0	0			0	0			1				0	
6.6.1	win	2023-06-27	07:52:39	08:06:57	848779	5f4f5d2da7606a000ab233c9	4	1	main_slash	11	advance_on_keypress_SLASH	154	stimuli_target_trianglesquares.svg	stimuli_distractor_trianglediamonds.svg	18	yes	57	0	158	0	0			0	0			1				0	
6.6.1	win	2023-06-27	07:52:39	08:06:59	851091	5f4f5d2da7606a000ab233c9	4	1	main_slash	11	main_slash	155	stimuli_target_diamondrectangles.svg	stimuli_distractor_trianglediamonds.svg	19	yes	53	1	1510	0	0			0	0			1				0	
6.6.1	win	2023-06-27	07:52:39	08:06:59	851091	5f4f5d2da7606a000ab233c9	4	1	main_slash	11	advance_on_keypress_SLASH	156	stimuli_target_diamondrectangles.svg	stimuli_distractor_trianglediamonds.svg	19	yes	57	0	185	0	0			0	0			1				0	
6.6.1	win	2023-06-27	07:52:39	08:07:02	853899	5f4f5d2da7606a000ab233c9	4	1	main_slash	11	main_slash	157	stimuli_distractor_diamondtriangles.svg	stimuli_target_squarediamonds.svg	16	yes	53	1	1968	0	0			0	0			1				0	
6.6.1	win	2023-06-27	07:52:39	08:07:02	853899	5f4f5d2da7606a000ab233c9	4	1	main_slash	11	advance_on_keypress_SLASH	158	stimuli_distractor_diamondtriangles.svg	stimuli_target_squarediamonds.svg	16	yes	57	0	121	0	0			0	0			1				0	
6.6.1	win	2023-06-27	07:52:39	08:07:04	855427	5f4f5d2da7606a000ab233c9	4	1	main_slash	11	main_slash	159	stimuli_distractor_trianglediamonds.svg	stimuli_target_rectangletriangles.svg	9	yes	53	1	763	0	0			0	0			1				0	
6.6.1	win	2023-06-27	07:52:39	08:07:04	855427	5f4f5d2da7606a000ab233c9	4	1	main_slash	11	advance_on_keypress_SLASH	160	stimuli_distractor_trianglediamonds.svg	stimuli_target_rectangletriangles.svg	9	yes	57	0	156	0	0			0	0			1				0	
6.6.1	win	2023-06-27	07:52:39	08:07:04	855427	5f4f5d2da7606a000ab233c9	4	1	headphonecheck_calibration	14	headphonecheck_calibrationIntro	1	stimuli_distractor_trianglediamonds.svg	stimuli_target_rectangletriangles.svg	9	yes	calibrationButton	0	2104	0	0			0	0			1				0	
6.6.1	win	2023-06-27	07:52:39	08:07:04	855427	5f4f5d2da7606a000ab233c9	4	1	headphonecheck_testphase	15	test_collectResponse	3	stimuli_distractor_trianglediamonds.svg	stimuli_target_rectangletriangles.svg	9	yes	first	0	205	1	5	antiphase_hc_osi.wav	2	0	0			1				0	
6.6.1	win	2023-06-27	07:52:39	08:07:04	855427	5f4f5d2da7606a000ab233c9	4	1	headphonecheck_testphase	15	test_collectResponse	6	stimuli_distractor_trianglediamonds.svg	stimuli_target_rectangletriangles.svg	9	yes	second	0	477	2	3	antiphase_hc_soi.wav	1	0	0			1				0	
6.6.1	win	2023-06-27	07:52:39	08:07:04	855427	5f4f5d2da7606a000ab233c9	4	1	headphonecheck_testphase	15	test_collectResponse	9	stimuli_distractor_trianglediamonds.svg	stimuli_target_rectangletriangles.svg	9	yes	third	0	450	3	4	antiphase_hc_sio.wav	1	0	0			1				0	
6.6.1	win	2023-06-27	07:52:39	08:07:04	855427	5f4f5d2da7606a000ab233c9	4	1	headphonecheck_testphase	15	test_collectResponse	12	stimuli_distractor_trianglediamonds.svg	stimuli_target_rectangletriangles.svg	9	yes	second	0	203	4	2	antiphase_hc_ios.wav	3	0	0			1				0	
6.6.1	win	2023-06-27	07:52:39	08:07:04	855427	5f4f5d2da7606a000ab233c9	4	1	headphonecheck_testphase	15	test_collectResponse	15	stimuli_distractor_trianglediamonds.svg	stimuli_target_rectangletriangles.svg	9	yes	third	0	408	5	1	antiphase_hc_iso.wav	2	0	0			1				0	
6.6.1	win	2023-06-27	07:52:39	08:07:04	855427	5f4f5d2da7606a000ab233c9	4	1	headphonecheck_testphase	15	test_collectResponse	18	stimuli_distractor_trianglediamonds.svg	stimuli_target_rectangletriangles.svg	9	yes	first	0	422	6	6	antiphase_hc_ois.wav	3	0	0			1				0	
6.6.1	win	2023-06-27	07:52:39	08:07:04	855427	5f4f5d2da7606a000ab233c9	4	1	stereocheck_calibration	17	stereocheck_calibrationIntro	1	stimuli_distractor_trianglediamonds.svg	stimuli_target_rectangletriangles.svg	9	yes	stereocheck_calibrationButton	0	4924	6	6	antiphase_hc_ois.wav	3	0	0			1				0	
6.6.1	win	2023-06-27	07:52:39	08:07:04	855427	5f4f5d2da7606a000ab233c9	4	1	stereocheck_testphase	18	stereocheck_test_collectResponse	3	stimuli_distractor_trianglediamonds.svg	stimuli_target_rectangletriangles.svg	9	yes	stereocheck_left	1	370	6	6	antiphase_hc_ois.wav	3	1	3	noise_calib_stim_LEFT.wav	1	1				0	
6.6.1	win	2023-06-27	07:52:39	08:07:04	855427	5f4f5d2da7606a000ab233c9	4	1	stereocheck_testphase	18	stereocheck_test_collectResponse	6	stimuli_distractor_trianglediamonds.svg	stimuli_target_rectangletriangles.svg	9	yes	stereocheck_right	1	345	6	6	antiphase_hc_ois.wav	3	2	4	noise_calib_stim_RIGHT.wav	2	1				0	
6.6.1	win	2023-06-27	07:52:39	08:07:04	855427	5f4f5d2da7606a000ab233c9	4	1	stereocheck_testphase	18	stereocheck_test_collectResponse	9	stimuli_distractor_trianglediamonds.svg	stimuli_target_rectangletriangles.svg	9	yes	stereocheck_right	1	317	6	6	antiphase_hc_ois.wav	3	3	6	noise_calib_stim_RIGHT.wav	2	1				0	
6.6.1	win	2023-06-27	07:52:39	08:07:04	855427	5f4f5d2da7606a000ab233c9	4	1	stereocheck_testphase	18	stereocheck_test_collectResponse	12	stimuli_distractor_trianglediamonds.svg	stimuli_target_rectangletriangles.svg	9	yes	stereocheck_right	1	306	6	6	antiphase_hc_ois.wav	3	4	5	noise_calib_stim_RIGHT.wav	2	1				0	
6.6.1	win	2023-06-27	07:52:39	08:07:04	855427	5f4f5d2da7606a000ab233c9	4	1	stereocheck_testphase	18	stereocheck_test_collectResponse	15	stimuli_distractor_trianglediamonds.svg	stimuli_target_rectangletriangles.svg	9	yes	stereocheck_left	1	269	6	6	antiphase_hc_ois.wav	3	5	2	noise_calib_stim_LEFT.wav	1	1				0	
6.6.1	win	2023-06-27	07:52:39	08:07:04	855427	5f4f5d2da7606a000ab233c9	4	1	stereocheck_testphase	18	stereocheck_test_collectResponse	18	stimuli_distractor_trianglediamonds.svg	stimuli_target_rectangletriangles.svg	9	yes	stereocheck_left	1	270	6	6	antiphase_hc_ois.wav	3	6	1	noise_calib_stim_LEFT.wav	1	1				0	
6.6.1	win	2023-06-27	07:52:39	08:07:04	855427	5f4f5d2da7606a000ab233c9	4	1	DL_practice	21	DL_practice	2	stimuli_distractor_trianglediamonds.svg	stimuli_target_rectangletriangles.svg	9	yes	pa	1	1343	6	6	antiphase_hc_ois.wav	3	6	1	noise_calib_stim_LEFT.wav	1	29	blb_dichoticlistening_pa-pa.mp3	pa	pa	0	left
6.6.1	win	2023-06-27	07:52:39	08:07:04	855427	5f4f5d2da7606a000ab233c9	4	1	DL_practice	21	DL_practice	3	stimuli_distractor_trianglediamonds.svg	stimuli_target_rectangletriangles.svg	9	yes	ka	1	663	6	6	antiphase_hc_ois.wav	3	6	1	noise_calib_stim_LEFT.wav	1	23	blb_dichoticlistening_ka-pa.mp3	ka	pa	1	left
6.6.1	win	2023-06-27	07:52:39	08:07:04	855427	5f4f5d2da7606a000ab233c9	4	1	DL_practice	21	DL_practice	4	stimuli_distractor_trianglediamonds.svg	stimuli_target_rectangletriangles.svg	9	yes	ga	1	571	6	6	antiphase_hc_ois.wav	3	6	1	noise_calib_stim_LEFT.wav	1	18	blb_dichoticlistening_ga-ta.mp3	ga	ta	1	left
6.6.1	win	2023-06-27	07:52:39	08:07:04	855427	5f4f5d2da7606a000ab233c9	4	1	DL_practice	21	DL_practice	5	stimuli_distractor_trianglediamonds.svg	stimuli_target_rectangletriangles.svg	9	yes	da	1	858	6	6	antiphase_hc_ois.wav	3	6	1	noise_calib_stim_LEFT.wav	1	8	blb_dichoticlistening_da-da.mp3	da	da	0	left
6.6.1	win	2023-06-27	07:52:39	08:07:04	855427	5f4f5d2da7606a000ab233c9	4	1	DL_practice	21	DL_practice	6	stimuli_distractor_trianglediamonds.svg	stimuli_target_rectangletriangles.svg	9	yes	ba	1	541	6	6	antiphase_hc_ois.wav	3	6	1	noise_calib_stim_LEFT.wav	1	1	blb_dichoticlistening_ba-ba.mp3	ba	ba	0	left
6.6.1	win	2023-06-27	07:52:39	08:07:04	855427	5f4f5d2da7606a000ab233c9	4	1	DL_practice	21	DL_practice	7	stimuli_distractor_trianglediamonds.svg	stimuli_target_rectangletriangles.svg	9	yes	ka	1	806	6	6	antiphase_hc_ois.wav	3	6	1	noise_calib_stim_LEFT.wav	1	22	blb_dichoticlistening_ka-ka.mp3	ka	ka	0	left
6.6.1	win	2023-06-27	07:52:39	08:07:04	855427	5f4f5d2da7606a000ab233c9	4	1	DL_practice	21	DL_practice	8	stimuli_distractor_trianglediamonds.svg	stimuli_target_rectangletriangles.svg	9	yes	ba	1	1740	6	6	antiphase_hc_ois.wav	3	6	1	noise_calib_stim_LEFT.wav	1	7	blb_dichoticlistening_da-ba.mp3	da	ba	1	right
6.6.1	win	2023-06-27	07:52:39	08:07:04	855427	5f4f5d2da7606a000ab233c9	4	1	DL_practice	21	DL_practice	9	stimuli_distractor_trianglediamonds.svg	stimuli_target_rectangletriangles.svg	9	yes	ka	0	812	6	6	antiphase_hc_ois.wav	3	6	1	noise_calib_stim_LEFT.wav	1	36	blb_dichoticlistening_ta-ta.mp3	ta	ta	0	other
6.6.1	win	2023-06-27	07:52:39	08:07:04	855427	5f4f5d2da7606a000ab233c9	4	1	DL_practice	21	DL_practice	10	stimuli_distractor_trianglediamonds.svg	stimuli_target_rectangletriangles.svg	9	yes	ga	1	793	6	6	antiphase_hc_ois.wav	3	6	1	noise_calib_stim_LEFT.wav	1	15	blb_dichoticlistening_ga-ga.mp3	ga	ga	0	left
6.6.1	win	2023-06-27	07:52:39	08:07:04	855427	5f4f5d2da7606a000ab233c9	4	1	DL_test	23	DL_test	1	stimuli_distractor_trianglediamonds.svg	stimuli_target_rectangletriangles.svg	9	yes	da	1	1230	6	6	antiphase_hc_ois.wav	3	6	1	noise_calib_stim_LEFT.wav	1	32	blb_dichoticlistening_ta-da.mp3	ta	da	1	right
6.6.1	win	2023-06-27	07:52:39	08:07:04	855427	5f4f5d2da7606a000ab233c9	4	1	DL_test	23	DL_test	2	stimuli_distractor_trianglediamonds.svg	stimuli_target_rectangletriangles.svg	9	yes	ba	1	972	6	6	antiphase_hc_ois.wav	3	6	1	noise_calib_stim_LEFT.wav	1	7	blb_dichoticlistening_da-ba.mp3	da	ba	1	right
6.6.1	win	2023-06-27	07:52:39	08:07:04	855427	5f4f5d2da7606a000ab233c9	4	1	DL_test	23	DL_test	3	stimuli_distractor_trianglediamonds.svg	stimuli_target_rectangletriangles.svg	9	yes	da	1	915	6	6	antiphase_hc_ois.wav	3	6	1	noise_calib_stim_LEFT.wav	1	8	blb_dichoticlistening_da-da.mp3	da	da	0	left
6.6.1	win	2023-06-27	07:52:39	08:07:04	855427	5f4f5d2da7606a000ab233c9	4	1	DL_test	23	DL_test	4	stimuli_distractor_trianglediamonds.svg	stimuli_target_rectangletriangles.svg	9	yes	ga	1	638	6	6	antiphase_hc_ois.wav	3	6	1	noise_calib_stim_LEFT.wav	1	18	blb_dichoticlistening_ga-ta.mp3	ga	ta	1	left
6.6.1	win	2023-06-27	07:52:39	08:07:04	855427	5f4f5d2da7606a000ab233c9	4	1	DL_test	23	DL_test	5	stimuli_distractor_trianglediamonds.svg	stimuli_target_rectangletriangles.svg	9	yes	da	0	1735	6	6	antiphase_hc_ois.wav	3	6	1	noise_calib_stim_LEFT.wav	1	6	blb_dichoticlistening_ba-ta.mp3	ba	ta	1	other
6.6.1	win	2023-06-27	07:52:39	08:07:04	855427	5f4f5d2da7606a000ab233c9	4	1	DL_test	23	DL_test	6	stimuli_distractor_trianglediamonds.svg	stimuli_target_rectangletriangles.svg	9	yes	ba	1	1065	6	6	antiphase_hc_ois.wav	3	6	1	noise_calib_stim_LEFT.wav	1	13	blb_dichoticlistening_ga-ba.mp3	ga	ba	1	right
6.6.1	win	2023-06-27	07:52:39	08:07:04	855427	5f4f5d2da7606a000ab233c9	4	1	DL_test	23	DL_test	7	stimuli_distractor_trianglediamonds.svg	stimuli_target_rectangletriangles.svg	9	yes	ga	1	948	6	6	antiphase_hc_ois.wav	3	6	1	noise_calib_stim_LEFT.wav	1	17	blb_dichoticlistening_ga-pa.mp3	ga	pa	1	left
6.6.1	win	2023-06-27	07:52:39	08:07:04	855427	5f4f5d2da7606a000ab233c9	4	1	DL_test	23	DL_test	8	stimuli_distractor_trianglediamonds.svg	stimuli_target_rectangletriangles.svg	9	yes	ta	1	987	6	6	antiphase_hc_ois.wav	3	6	1	noise_calib_stim_LEFT.wav	1	30	blb_dichoticlistening_pa-ta.mp3	pa	ta	1	right
6.6.1	win	2023-06-27	07:52:39	08:07:04	855427	5f4f5d2da7606a000ab233c9	4	1	DL_test	23	DL_test	9	stimuli_distractor_trianglediamonds.svg	stimuli_target_rectangletriangles.svg	9	yes	ka	1	745	6	6	antiphase_hc_ois.wav	3	6	1	noise_calib_stim_LEFT.wav	1	28	blb_dichoticlistening_pa-ka.mp3	pa	ka	1	right
6.6.1	win	2023-06-27	07:52:39	08:07:04	855427	5f4f5d2da7606a000ab233c9	4	1	DL_test	23	DL_test	10	stimuli_distractor_trianglediamonds.svg	stimuli_target_rectangletriangles.svg	9	yes	ga	1	729	6	6	antiphase_hc_ois.wav	3	6	1	noise_calib_stim_LEFT.wav	1	27	blb_dichoticlistening_pa-ga.mp3	pa	ga	1	right
6.6.1	win	2023-06-27	07:52:39	08:07:04	855427	5f4f5d2da7606a000ab233c9	4	1	DL_test	23	DL_test	11	stimuli_distractor_trianglediamonds.svg	stimuli_target_rectangletriangles.svg	9	yes	ga	0	1113	6	6	antiphase_hc_ois.wav	3	6	1	noise_calib_stim_LEFT.wav	1	10	blb_dichoticlistening_da-ka.mp3	da	ka	1	other
6.6.1	win	2023-06-27	07:52:39	08:07:04	855427	5f4f5d2da7606a000ab233c9	4	1	DL_test	23	DL_test	12	stimuli_distractor_trianglediamonds.svg	stimuli_target_rectangletriangles.svg	9	yes	ga	1	715	6	6	antiphase_hc_ois.wav	3	6	1	noise_calib_stim_LEFT.wav	1	15	blb_dichoticlistening_ga-ga.mp3	ga	ga	0	left
6.6.1	win	2023-06-27	07:52:39	08:07:04	855427	5f4f5d2da7606a000ab233c9	4	1	DL_test	23	DL_test	13	stimuli_distractor_trianglediamonds.svg	stimuli_target_rectangletriangles.svg	9	yes	ga	1	675	6	6	antiphase_hc_ois.wav	3	6	1	noise_calib_stim_LEFT.wav	1	16	blb_dichoticlistening_ga-ka.mp3	ga	ka	1	left
6.6.1	win	2023-06-27	07:52:39	08:07:04	855427	5f4f5d2da7606a000ab233c9	4	1	DL_test	23	DL_test	14	stimuli_distractor_trianglediamonds.svg	stimuli_target_rectangletriangles.svg	9	yes	ta	1	1039	6	6	antiphase_hc_ois.wav	3	6	1	noise_calib_stim_LEFT.wav	1	35	blb_dichoticlistening_ta-pa.mp3	ta	pa	1	left
6.6.1	win	2023-06-27	07:52:39	08:07:04	855427	5f4f5d2da7606a000ab233c9	4	1	DL_test	23	DL_test	15	stimuli_distractor_trianglediamonds.svg	stimuli_target_rectangletriangles.svg	9	yes	da	1	1107	6	6	antiphase_hc_ois.wav	3	6	1	noise_calib_stim_LEFT.wav	1	11	blb_dichoticlistening_da-pa.mp3	da	pa	1	left
6.6.1	win	2023-06-27	07:52:39	08:07:04	855427	5f4f5d2da7606a000ab233c9	4	1	DL_test	23	DL_test	16	stimuli_distractor_trianglediamonds.svg	stimuli_target_rectangletriangles.svg	9	yes	da	1	1084	6	6	antiphase_hc_ois.wav	3	6	1	noise_calib_stim_LEFT.wav	1	14	blb_dichoticlistening_ga-da.mp3	ga	da	1	right
6.6.1	win	2023-06-27	07:52:39	08:07:04	855427	5f4f5d2da7606a000ab233c9	4	1	DL_test	23	DL_test	17	stimuli_distractor_trianglediamonds.svg	stimuli_target_rectangletriangles.svg	9	yes	ba	1	982	6	6	antiphase_hc_ois.wav	3	6	1	noise_calib_stim_LEFT.wav	1	25	blb_dichoticlistening_pa-ba.mp3	pa	ba	1	right
6.6.1	win	2023-06-27	07:52:39	08:07:04	855427	5f4f5d2da7606a000ab233c9	4	1	DL_test	23	DL_test	18	stimuli_distractor_trianglediamonds.svg	stimuli_target_rectangletriangles.svg	9	yes	ba	1	901	6	6	antiphase_hc_ois.wav	3	6	1	noise_calib_stim_LEFT.wav	1	2	blb_dichoticlistening_ba-da.mp3	ba	da	1	left
6.6.1	win	2023-06-27	07:52:39	08:07:04	855427	5f4f5d2da7606a000ab233c9	4	1	DL_test	23	DL_test	19	stimuli_distractor_trianglediamonds.svg	stimuli_target_rectangletriangles.svg	9	yes	ka	1	1054	6	6	antiphase_hc_ois.wav	3	6	1	noise_calib_stim_LEFT.wav	1	4	blb_dichoticlistening_ba-ka.mp3	ba	ka	1	right
6.6.1	win	2023-06-27	07:52:39	08:07:04	855427	5f4f5d2da7606a000ab233c9	4	1	DL_test	23	DL_test	20	stimuli_distractor_trianglediamonds.svg	stimuli_target_rectangletriangles.svg	9	yes	ka	1	624	6	6	antiphase_hc_ois.wav	3	6	1	noise_calib_stim_LEFT.wav	1	22	blb_dichoticlistening_ka-ka.mp3	ka	ka	0	left
6.6.1	win	2023-06-27	07:52:39	08:07:04	855427	5f4f5d2da7606a000ab233c9	4	1	DL_test	23	DL_test	21	stimuli_distractor_trianglediamonds.svg	stimuli_target_rectangletriangles.svg	9	yes	ga	1	677	6	6	antiphase_hc_ois.wav	3	6	1	noise_calib_stim_LEFT.wav	1	33	blb_dichoticlistening_ta-ga.mp3	ta	ga	1	right
6.6.1	win	2023-06-27	07:52:39	08:07:04	855427	5f4f5d2da7606a000ab233c9	4	1	DL_test	23	DL_test	22	stimuli_distractor_trianglediamonds.svg	stimuli_target_rectangletriangles.svg	9	yes	ga	1	1072	6	6	antiphase_hc_ois.wav	3	6	1	noise_calib_stim_LEFT.wav	1	21	blb_dichoticlistening_ka-ga.mp3	ka	ga	1	right
6.6.1	win	2023-06-27	07:52:39	08:07:04	855427	5f4f5d2da7606a000ab233c9	4	1	DL_test	23	DL_test	23	stimuli_distractor_trianglediamonds.svg	stimuli_target_rectangletriangles.svg	9	yes	da	1	1210	6	6	antiphase_hc_ois.wav	3	6	1	noise_calib_stim_LEFT.wav	1	12	blb_dichoticlistening_da-ta.mp3	da	ta	1	left
6.6.1	win	2023-06-27	07:52:39	08:07:04	855427	5f4f5d2da7606a000ab233c9	4	1	DL_test	23	DL_test	24	stimuli_distractor_trianglediamonds.svg	stimuli_target_rectangletriangles.svg	9	yes	ka	1	863	6	6	antiphase_hc_ois.wav	3	6	1	noise_calib_stim_LEFT.wav	1	24	blb_dichoticlistening_ka-ta.mp3	ka	ta	1	left
6.6.1	win	2023-06-27	07:52:39	08:07:04	855427	5f4f5d2da7606a000ab233c9	4	1	DL_test	23	DL_test	25	stimuli_distractor_trianglediamonds.svg	stimuli_target_rectangletriangles.svg	9	yes	ba	1	1266	6	6	antiphase_hc_ois.wav	3	6	1	noise_calib_stim_LEFT.wav	1	1	blb_dichoticlistening_ba-ba.mp3	ba	ba	0	left
6.6.1	win	2023-06-27	07:52:39	08:07:04	855427	5f4f5d2da7606a000ab233c9	4	1	DL_test	23	DL_test	26	stimuli_distractor_trianglediamonds.svg	stimuli_target_rectangletriangles.svg	9	yes	ka	1	1125	6	6	antiphase_hc_ois.wav	3	6	1	noise_calib_stim_LEFT.wav	1	19	blb_dichoticlistening_ka-ba.mp3	ka	ba	1	left
