build	computer.platform	date	time	timestamp	time_elapsed_ms	subject	group	session	blockcode	blocknum	trialcode	trialnum	stimulus_left	stimulus_right	stim_index	target_present	response	correct	latency	headphonecheck_countTestTrials	headphonecheck_index	headphonecheck_testSound	headphonecheck_correctResponse	stereocheck_countTestTrials	stereocheck_index	stereocheck_testSound	stereocheck_correctResponse	DL_index	DL_soundfile	DL_leftSound	DL_rightSound	DL_dualSound	DL_choice
6.6.1	win	2023-07-11	14:56:35	0	0	5b8c7161284d9b00019dee13	1	1	headphonecheck_calibration	4	headphonecheck_calibrationIntro	1			0		calibrationButton	0	5158	0	0			0	0			1				0	
6.6.1	win	2023-07-11	14:56:35	0	0	5b8c7161284d9b00019dee13	1	1	headphonecheck_testphase	5	test_collectResponse	3			0		third	0	7500	1	4	antiphase_hc_sio.wav	1	0	0			1				0	
6.6.1	win	2023-07-11	14:56:35	0	0	5b8c7161284d9b00019dee13	1	1	headphonecheck_testphase	5	test_collectResponse	6			0		second	0	633	2	2	antiphase_hc_ios.wav	3	0	0			1				0	
6.6.1	win	2023-07-11	14:56:35	0	0	5b8c7161284d9b00019dee13	1	1	headphonecheck_testphase	5	test_collectResponse	9			0		first	0	531	3	5	antiphase_hc_osi.wav	2	0	0			1				0	
6.6.1	win	2023-07-11	14:56:35	0	0	5b8c7161284d9b00019dee13	1	1	headphonecheck_testphase	5	test_collectResponse	12			0		first	0	1133	4	6	antiphase_hc_ois.wav	3	0	0			1				0	
6.6.1	win	2023-07-11	14:56:35	0	0	5b8c7161284d9b00019dee13	1	1	headphonecheck_testphase	5	test_collectResponse	15			0		second	0	50706	5	3	antiphase_hc_soi.wav	1	0	0			1				0	
6.6.1	win	2023-07-11	14:56:35	0	0	5b8c7161284d9b00019dee13	1	1	headphonecheck_testphase	5	test_collectResponse	18			0		third	0	1274	6	1	antiphase_hc_iso.wav	2	0	0			1				0	
6.6.1	win	2023-07-11	14:56:35	0	0	5b8c7161284d9b00019dee13	1	1	stereocheck_calibration	7	stereocheck_calibrationIntro	1			0		stereocheck_calibrationButton	0	3485	6	1	antiphase_hc_iso.wav	2	0	0			1				0	
6.6.1	win	2023-07-11	14:56:35	0	0	5b8c7161284d9b00019dee13	1	1	stereocheck_testphase	8	stereocheck_test_collectResponse	3			0		stereocheck_right	1	369	6	1	antiphase_hc_iso.wav	2	1	6	noise_calib_stim_RIGHT.wav	2	1				0	
6.6.1	win	2023-07-11	14:56:35	0	0	5b8c7161284d9b00019dee13	1	1	stereocheck_testphase	8	stereocheck_test_collectResponse	6			0		stereocheck_right	1	339	6	1	antiphase_hc_iso.wav	2	2	5	noise_calib_stim_RIGHT.wav	2	1				0	
6.6.1	win	2023-07-11	14:56:35	0	0	5b8c7161284d9b00019dee13	1	1	stereocheck_testphase	8	stereocheck_test_collectResponse	9			0		stereocheck_left	1	258	6	1	antiphase_hc_iso.wav	2	3	3	noise_calib_stim_LEFT.wav	1	1				0	
6.6.1	win	2023-07-11	14:56:35	0	0	5b8c7161284d9b00019dee13	1	1	stereocheck_testphase	8	stereocheck_test_collectResponse	12			0		stereocheck_left	1	238	6	1	antiphase_hc_iso.wav	2	4	1	noise_calib_stim_LEFT.wav	1	1				0	
6.6.1	win	2023-07-11	14:56:35	0	0	5b8c7161284d9b00019dee13	1	1	stereocheck_testphase	8	stereocheck_test_collectResponse	15			0		stereocheck_right	1	91	6	1	antiphase_hc_iso.wav	2	5	4	noise_calib_stim_RIGHT.wav	2	1				0	
6.6.1	win	2023-07-11	14:56:35	0	0	5b8c7161284d9b00019dee13	1	1	stereocheck_testphase	8	stereocheck_test_collectResponse	18			0		stereocheck_left	1	97	6	1	antiphase_hc_iso.wav	2	6	2	noise_calib_stim_LEFT.wav	1	1				0	
6.6.1	win	2023-07-11	14:56:35	0	0	5b8c7161284d9b00019dee13	1	1	DL_practice	11	DL_practice	2			0		ba	1	4638	6	1	antiphase_hc_iso.wav	2	6	2	noise_calib_stim_LEFT.wav	1	1	blb_dichoticlistening_ba-ba.mp3	ba	ba	0	left
6.6.1	win	2023-07-11	14:56:35	0	0	5b8c7161284d9b00019dee13	1	1	DL_practice	11	DL_practice	3			0		ga	1	1287	6	1	antiphase_hc_iso.wav	2	6	2	noise_calib_stim_LEFT.wav	1	15	blb_dichoticlistening_ga-ga.mp3	ga	ga	0	left
6.6.1	win	2023-07-11	14:56:35	0	0	5b8c7161284d9b00019dee13	1	1	DL_practice	11	DL_practice	4			0		ba	1	1983	6	1	antiphase_hc_iso.wav	2	6	2	noise_calib_stim_LEFT.wav	1	7	blb_dichoticlistening_da-ba.mp3	da	ba	1	right
6.6.1	win	2023-07-11	14:56:35	0	0	5b8c7161284d9b00019dee13	1	1	DL_practice	11	DL_practice	5			0		ta	1	2306	6	1	antiphase_hc_iso.wav	2	6	2	noise_calib_stim_LEFT.wav	1	36	blb_dichoticlistening_ta-ta.mp3	ta	ta	0	left
6.6.1	win	2023-07-11	14:56:35	0	0	5b8c7161284d9b00019dee13	1	1	DL_practice	11	DL_practice	6			0		da	1	1826	6	1	antiphase_hc_iso.wav	2	6	2	noise_calib_stim_LEFT.wav	1	8	blb_dichoticlistening_da-da.mp3	da	da	0	left
6.6.1	win	2023-07-11	14:56:35	0	0	5b8c7161284d9b00019dee13	1	1	DL_practice	11	DL_practice	7			0		ka	1	2454	6	1	antiphase_hc_iso.wav	2	6	2	noise_calib_stim_LEFT.wav	1	23	blb_dichoticlistening_ka-pa.mp3	ka	pa	1	left
6.6.1	win	2023-07-11	14:56:35	0	0	5b8c7161284d9b00019dee13	1	1	DL_practice	11	DL_practice	8			0		ga	1	1493	6	1	antiphase_hc_iso.wav	2	6	2	noise_calib_stim_LEFT.wav	1	18	blb_dichoticlistening_ga-ta.mp3	ga	ta	1	left
6.6.1	win	2023-07-11	14:56:35	0	0	5b8c7161284d9b00019dee13	1	1	DL_practice	11	DL_practice	9			0		ka	1	1014	6	1	antiphase_hc_iso.wav	2	6	2	noise_calib_stim_LEFT.wav	1	22	blb_dichoticlistening_ka-ka.mp3	ka	ka	0	left
6.6.1	win	2023-07-11	14:56:35	0	0	5b8c7161284d9b00019dee13	1	1	DL_practice	11	DL_practice	10			0		pa	1	1226	6	1	antiphase_hc_iso.wav	2	6	2	noise_calib_stim_LEFT.wav	1	29	blb_dichoticlistening_pa-pa.mp3	pa	pa	0	left
6.6.1	win	2023-07-11	14:56:35	0	0	5b8c7161284d9b00019dee13	1	1	DL_test	13	DL_test	1			0		ba	1	3556	6	1	antiphase_hc_iso.wav	2	6	2	noise_calib_stim_LEFT.wav	1	6	blb_dichoticlistening_ba-ta.mp3	ba	ta	1	left
6.6.1	win	2023-07-11	14:56:35	0	0	5b8c7161284d9b00019dee13	1	1	DL_test	13	DL_test	2			0		ba	1	1766	6	1	antiphase_hc_iso.wav	2	6	2	noise_calib_stim_LEFT.wav	1	7	blb_dichoticlistening_da-ba.mp3	da	ba	1	right
6.6.1	win	2023-07-11	14:56:35	0	0	5b8c7161284d9b00019dee13	1	1	DL_test	13	DL_test	3			0		ga	1	2401	6	1	antiphase_hc_iso.wav	2	6	2	noise_calib_stim_LEFT.wav	1	33	blb_dichoticlistening_ta-ga.mp3	ta	ga	1	right
6.6.1	win	2023-07-11	14:56:35	0	0	5b8c7161284d9b00019dee13	1	1	DL_test	13	DL_test	4			0		ta	1	1513	6	1	antiphase_hc_iso.wav	2	6	2	noise_calib_stim_LEFT.wav	1	36	blb_dichoticlistening_ta-ta.mp3	ta	ta	0	left
6.6.1	win	2023-07-11	14:56:35	0	0	5b8c7161284d9b00019dee13	1	1	DL_test	13	DL_test	5			0		ba	1	4328	6	1	antiphase_hc_iso.wav	2	6	2	noise_calib_stim_LEFT.wav	1	31	blb_dichoticlistening_ta-ba.mp3	ta	ba	1	right
6.6.1	win	2023-07-11	14:56:35	0	0	5b8c7161284d9b00019dee13	1	1	DL_test	13	DL_test	6			0		ba	1	1873	6	1	antiphase_hc_iso.wav	2	6	2	noise_calib_stim_LEFT.wav	1	3	blb_dichoticlistening_ba-ga.mp3	ba	ga	1	left
6.6.1	win	2023-07-11	14:56:35	0	0	5b8c7161284d9b00019dee13	1	1	DL_test	13	DL_test	7			0		ga	1	1239	6	1	antiphase_hc_iso.wav	2	6	2	noise_calib_stim_LEFT.wav	1	15	blb_dichoticlistening_ga-ga.mp3	ga	ga	0	left
6.6.1	win	2023-07-11	14:56:35	0	0	5b8c7161284d9b00019dee13	1	1	DL_test	13	DL_test	8			0		pa	1	1378	6	1	antiphase_hc_iso.wav	2	6	2	noise_calib_stim_LEFT.wav	1	29	blb_dichoticlistening_pa-pa.mp3	pa	pa	0	left
6.6.1	win	2023-07-11	14:56:35	0	0	5b8c7161284d9b00019dee13	1	1	DL_test	13	DL_test	9			0		pa	0	1553	6	1	antiphase_hc_iso.wav	2	6	2	noise_calib_stim_LEFT.wav	1	4	blb_dichoticlistening_ba-ka.mp3	ba	ka	1	other
6.6.1	win	2023-07-11	14:56:35	0	0	5b8c7161284d9b00019dee13	1	1	DL_test	13	DL_test	10			0		ta	1	1979	6	1	antiphase_hc_iso.wav	2	6	2	noise_calib_stim_LEFT.wav	1	30	blb_dichoticlistening_pa-ta.mp3	pa	ta	1	right
6.6.1	win	2023-07-11	14:56:35	0	0	5b8c7161284d9b00019dee13	1	1	DL_test	13	DL_test	11			0		da	1	1846	6	1	antiphase_hc_iso.wav	2	6	2	noise_calib_stim_LEFT.wav	1	26	blb_dichoticlistening_pa-da.mp3	pa	da	1	right
6.6.1	win	2023-07-11	14:56:35	0	0	5b8c7161284d9b00019dee13	1	1	DL_test	13	DL_test	12			0		da	1	896	6	1	antiphase_hc_iso.wav	2	6	2	noise_calib_stim_LEFT.wav	1	12	blb_dichoticlistening_da-ta.mp3	da	ta	1	left
6.6.1	win	2023-07-11	14:56:35	0	0	5b8c7161284d9b00019dee13	1	1	DL_test	13	DL_test	13			0		ba	1	2958	6	1	antiphase_hc_iso.wav	2	6	2	noise_calib_stim_LEFT.wav	1	19	blb_dichoticlistening_ka-ba.mp3	ka	ba	1	right
6.6.1	win	2023-07-11	14:56:35	0	0	5b8c7161284d9b00019dee13	1	1	DL_test	13	DL_test	14			0		da	1	1388	6	1	antiphase_hc_iso.wav	2	6	2	noise_calib_stim_LEFT.wav	1	8	blb_dichoticlistening_da-da.mp3	da	da	0	left
6.6.1	win	2023-07-11	14:56:35	0	0	5b8c7161284d9b00019dee13	1	1	DL_test	13	DL_test	15			0		ka	1	1208	6	1	antiphase_hc_iso.wav	2	6	2	noise_calib_stim_LEFT.wav	1	22	blb_dichoticlistening_ka-ka.mp3	ka	ka	0	left
6.6.1	win	2023-07-11	14:56:35	0	0	5b8c7161284d9b00019dee13	1	1	DL_test	13	DL_test	16			0		ga	1	1468	6	1	antiphase_hc_iso.wav	2	6	2	noise_calib_stim_LEFT.wav	1	27	blb_dichoticlistening_pa-ga.mp3	pa	ga	1	right
6.6.1	win	2023-07-11	14:56:35	0	0	5b8c7161284d9b00019dee13	1	1	DL_test	13	DL_test	17			0		ka	1	1193	6	1	antiphase_hc_iso.wav	2	6	2	noise_calib_stim_LEFT.wav	1	28	blb_dichoticlistening_pa-ka.mp3	pa	ka	1	right
6.6.1	win	2023-07-11	14:56:35	0	0	5b8c7161284d9b00019dee13	1	1	DL_test	13	DL_test	18			0		da	1	1771	6	1	antiphase_hc_iso.wav	2	6	2	noise_calib_stim_LEFT.wav	1	11	blb_dichoticlistening_da-pa.mp3	da	pa	1	left
6.6.1	win	2023-07-11	14:56:35	0	0	5b8c7161284d9b00019dee13	1	1	DL_test	13	DL_test	19			0		da	1	1313	6	1	antiphase_hc_iso.wav	2	6	2	noise_calib_stim_LEFT.wav	1	10	blb_dichoticlistening_da-ka.mp3	da	ka	1	left
6.6.1	win	2023-07-11	14:56:35	0	0	5b8c7161284d9b00019dee13	1	1	DL_test	13	DL_test	20			0		ba	1	2288	6	1	antiphase_hc_iso.wav	2	6	2	noise_calib_stim_LEFT.wav	1	25	blb_dichoticlistening_pa-ba.mp3	pa	ba	1	right
6.6.1	win	2023-07-11	14:56:35	0	0	5b8c7161284d9b00019dee13	1	1	DL_test	13	DL_test	21			0		ka	1	1678	6	1	antiphase_hc_iso.wav	2	6	2	noise_calib_stim_LEFT.wav	1	23	blb_dichoticlistening_ka-pa.mp3	ka	pa	1	left
6.6.1	win	2023-07-11	14:56:35	0	0	5b8c7161284d9b00019dee13	1	1	DL_test	13	DL_test	22			0		ba	1	1867	6	1	antiphase_hc_iso.wav	2	6	2	noise_calib_stim_LEFT.wav	1	2	blb_dichoticlistening_ba-da.mp3	ba	da	1	left
6.6.1	win	2023-07-11	14:56:35	0	0	5b8c7161284d9b00019dee13	1	1	DL_test	13	DL_test	23			0		pa	1	4863	6	1	antiphase_hc_iso.wav	2	6	2	noise_calib_stim_LEFT.wav	1	5	blb_dichoticlistening_ba-pa.mp3	ba	pa	1	right
6.6.1	win	2023-07-11	14:56:35	0	0	5b8c7161284d9b00019dee13	1	1	DL_test	13	DL_test	24			0		ta	1	1636	6	1	antiphase_hc_iso.wav	2	6	2	noise_calib_stim_LEFT.wav	1	35	blb_dichoticlistening_ta-pa.mp3	ta	pa	1	left
6.6.1	win	2023-07-11	14:56:35	0	0	5b8c7161284d9b00019dee13	1	1	DL_test	13	DL_test	25			0		ba	1	1840	6	1	antiphase_hc_iso.wav	2	6	2	noise_calib_stim_LEFT.wav	1	1	blb_dichoticlistening_ba-ba.mp3	ba	ba	0	left
6.6.1	win	2023-07-11	14:56:35	0	0	5b8c7161284d9b00019dee13	1	1	DL_test	13	DL_test	26			0		ga	1	1096	6	1	antiphase_hc_iso.wav	2	6	2	noise_calib_stim_LEFT.wav	1	16	blb_dichoticlistening_ga-ka.mp3	ga	ka	1	left
6.6.1	win	2023-07-11	14:56:35	0	0	5b8c7161284d9b00019dee13	1	1	DL_test	13	DL_test	27			0		ga	1	901	6	1	antiphase_hc_iso.wav	2	6	2	noise_calib_stim_LEFT.wav	1	9	blb_dichoticlistening_da-ga.mp3	da	ga	1	right
6.6.1	win	2023-07-11	14:56:35	0	0	5b8c7161284d9b00019dee13	1	1	DL_test	13	DL_test	28			0		da	1	2284	6	1	antiphase_hc_iso.wav	2	6	2	noise_calib_stim_LEFT.wav	1	32	blb_dichoticlistening_ta-da.mp3	ta	da	1	right
6.6.1	win	2023-07-11	14:56:35	0	0	5b8c7161284d9b00019dee13	1	1	DL_test	13	DL_test	29			0		ka	1	1515	6	1	antiphase_hc_iso.wav	2	6	2	noise_calib_stim_LEFT.wav	1	24	blb_dichoticlistening_ka-ta.mp3	ka	ta	1	left
6.6.1	win	2023-07-11	14:56:35	0	0	5b8c7161284d9b00019dee13	1	1	DL_test	13	DL_test	30			0		ga	1	1181	6	1	antiphase_hc_iso.wav	2	6	2	noise_calib_stim_LEFT.wav	1	14	blb_dichoticlistening_ga-da.mp3	ga	da	1	left
6.6.1	win	2023-07-11	14:56:35	0	0	5b8c7161284d9b00019dee13	1	1	DL_test	13	DL_test	31			0		ga	1	838	6	1	antiphase_hc_iso.wav	2	6	2	noise_calib_stim_LEFT.wav	1	18	blb_dichoticlistening_ga-ta.mp3	ga	ta	1	left
6.6.1	win	2023-07-11	14:56:35	0	0	5b8c7161284d9b00019dee13	1	1	DL_test	13	DL_test	32			0		ka	1	1001	6	1	antiphase_hc_iso.wav	2	6	2	noise_calib_stim_LEFT.wav	1	34	blb_dichoticlistening_ta-ka.mp3	ta	ka	1	right
6.6.1	win	2023-07-11	14:56:35	0	0	5b8c7161284d9b00019dee13	1	1	DL_test	13	DL_test	33			0		ga	1	899	6	1	antiphase_hc_iso.wav	2	6	2	noise_calib_stim_LEFT.wav	1	17	blb_dichoticlistening_ga-pa.mp3	ga	pa	1	left
6.6.1	win	2023-07-11	14:56:35	0	0	5b8c7161284d9b00019dee13	1	1	DL_test	13	DL_test	34			0		ba	1	2211	6	1	antiphase_hc_iso.wav	2	6	2	noise_calib_stim_LEFT.wav	1	13	blb_dichoticlistening_ga-ba.mp3	ga	ba	1	right
6.6.1	win	2023-07-11	14:56:35	0	0	5b8c7161284d9b00019dee13	1	1	DL_test	13	DL_test	35			0		ga	1	1248	6	1	antiphase_hc_iso.wav	2	6	2	noise_calib_stim_LEFT.wav	1	21	blb_dichoticlistening_ka-ga.mp3	ka	ga	1	right
6.6.1	win	2023-07-11	14:56:35	0	0	5b8c7161284d9b00019dee13	1	1	DL_test	13	DL_test	36			0		ga	0	931	6	1	antiphase_hc_iso.wav	2	6	2	noise_calib_stim_LEFT.wav	1	20	blb_dichoticlistening_ka-da.mp3	ka	da	1	other
6.6.1	win	2023-07-11	14:56:35	0	0	5b8c7161284d9b00019dee13	1	1	DL_test	14	DL_test	1			0		ba	1	1878	6	1	antiphase_hc_iso.wav	2	6	2	noise_calib_stim_LEFT.wav	1	2	blb_dichoticlistening_ba-da.mp3	ba	da	1	left
6.6.1	win	2023-07-11	14:56:35	0	0	5b8c7161284d9b00019dee13	1	1	DL_test	14	DL_test	2			0		da	1	929	6	1	antiphase_hc_iso.wav	2	6	2	noise_calib_stim_LEFT.wav	1	11	blb_dichoticlistening_da-pa.mp3	da	pa	1	left
6.6.1	win	2023-07-11	14:56:35	0	0	5b8c7161284d9b00019dee13	1	1	DL_test	14	DL_test	3			0		ta	1	1291	6	1	antiphase_hc_iso.wav	2	6	2	noise_calib_stim_LEFT.wav	1	36	blb_dichoticlistening_ta-ta.mp3	ta	ta	0	left
6.6.1	win	2023-07-11	14:56:35	0	0	5b8c7161284d9b00019dee13	1	1	DL_test	14	DL_test	4			0		pa	0	2245	6	1	antiphase_hc_iso.wav	2	6	2	noise_calib_stim_LEFT.wav	1	4	blb_dichoticlistening_ba-ka.mp3	ba	ka	1	other
6.6.1	win	2023-07-11	14:56:35	0	0	5b8c7161284d9b00019dee13	1	1	DL_test	14	DL_test	5			0		pa	1	1163	6	1	antiphase_hc_iso.wav	2	6	2	noise_calib_stim_LEFT.wav	1	5	blb_dichoticlistening_ba-pa.mp3	ba	pa	1	right
6.6.1	win	2023-07-11	14:56:35	0	0	5b8c7161284d9b00019dee13	1	1	DL_test	14	DL_test	6			0		da	1	1461	6	1	antiphase_hc_iso.wav	2	6	2	noise_calib_stim_LEFT.wav	1	10	blb_dichoticlistening_da-ka.mp3	da	ka	1	left
6.6.1	win	2023-07-11	14:56:35	0	0	5b8c7161284d9b00019dee13	1	1	DL_test	14	DL_test	7			0		ka	1	1427	6	1	antiphase_hc_iso.wav	2	6	2	noise_calib_stim_LEFT.wav	1	28	blb_dichoticlistening_pa-ka.mp3	pa	ka	1	right
6.6.1	win	2023-07-11	14:56:35	0	0	5b8c7161284d9b00019dee13	1	1	DL_test	14	DL_test	8			0		ga	1	1031	6	1	antiphase_hc_iso.wav	2	6	2	noise_calib_stim_LEFT.wav	1	17	blb_dichoticlistening_ga-pa.mp3	ga	pa	1	left
6.6.1	win	2023-07-11	14:56:35	0	0	5b8c7161284d9b00019dee13	1	1	DL_test	14	DL_test	9			0		da	1	1431	6	1	antiphase_hc_iso.wav	2	6	2	noise_calib_stim_LEFT.wav	1	26	blb_dichoticlistening_pa-da.mp3	pa	da	1	right
6.6.1	win	2023-07-11	14:56:35	0	0	5b8c7161284d9b00019dee13	1	1	DL_test	14	DL_test	10			0		ka	1	2495	6	1	antiphase_hc_iso.wav	2	6	2	noise_calib_stim_LEFT.wav	1	23	blb_dichoticlistening_ka-pa.mp3	ka	pa	1	left
6.6.1	win	2023-07-11	14:56:35	0	0	5b8c7161284d9b00019dee13	1	1	DL_test	14	DL_test	11			0		ga	1	1358	6	1	antiphase_hc_iso.wav	2	6	2	noise_calib_stim_LEFT.wav	1	15	blb_dichoticlistening_ga-ga.mp3	ga	ga	0	left
6.6.1	win	2023-07-11	14:56:35	0	0	5b8c7161284d9b00019dee13	1	1	DL_test	14	DL_test	12			0		ga	1	1049	6	1	antiphase_hc_iso.wav	2	6	2	noise_calib_stim_LEFT.wav	1	21	blb_dichoticlistening_ka-ga.mp3	ka	ga	1	right
6.6.1	win	2023-07-11	14:56:35	0	0	5b8c7161284d9b00019dee13	1	1	DL_test	14	DL_test	13			0		pa	1	1419	6	1	antiphase_hc_iso.wav	2	6	2	noise_calib_stim_LEFT.wav	1	29	blb_dichoticlistening_pa-pa.mp3	pa	pa	0	left
6.6.1	win	2023-07-11	14:56:35	0	0	5b8c7161284d9b00019dee13	1	1	DL_test	14	DL_test	14			0		ga	0	1445	6	1	antiphase_hc_iso.wav	2	6	2	noise_calib_stim_LEFT.wav	1	20	blb_dichoticlistening_ka-da.mp3	ka	da	1	other
6.6.1	win	2023-07-11	14:56:35	0	0	5b8c7161284d9b00019dee13	1	1	DL_test	14	DL_test	15			0		ta	1	1699	6	1	antiphase_hc_iso.wav	2	6	2	noise_calib_stim_LEFT.wav	1	30	blb_dichoticlistening_pa-ta.mp3	pa	ta	1	right
6.6.1	win	2023-07-11	14:56:35	0	0	5b8c7161284d9b00019dee13	1	1	DL_test	14	DL_test	16			0		ba	1	2173	6	1	antiphase_hc_iso.wav	2	6	2	noise_calib_stim_LEFT.wav	1	3	blb_dichoticlistening_ba-ga.mp3	ba	ga	1	left
6.6.1	win	2023-07-11	14:56:35	0	0	5b8c7161284d9b00019dee13	1	1	DL_test	14	DL_test	17			0		ga	1	2366	6	1	antiphase_hc_iso.wav	2	6	2	noise_calib_stim_LEFT.wav	1	14	blb_dichoticlistening_ga-da.mp3	ga	da	1	left
6.6.1	win	2023-07-11	14:56:35	0	0	5b8c7161284d9b00019dee13	1	1	DL_test	14	DL_test	18			0		da	1	1915	6	1	antiphase_hc_iso.wav	2	6	2	noise_calib_stim_LEFT.wav	1	8	blb_dichoticlistening_da-da.mp3	da	da	0	left
6.6.1	win	2023-07-11	14:56:35	0	0	5b8c7161284d9b00019dee13	1	1	DL_test	14	DL_test	19			0		ba	1	2473	6	1	antiphase_hc_iso.wav	2	6	2	noise_calib_stim_LEFT.wav	1	1	blb_dichoticlistening_ba-ba.mp3	ba	ba	0	left
6.6.1	win	2023-07-11	14:56:35	0	0	5b8c7161284d9b00019dee13	1	1	DL_test	14	DL_test	20			0		ka	1	1643	6	1	antiphase_hc_iso.wav	2	6	2	noise_calib_stim_LEFT.wav	1	22	blb_dichoticlistening_ka-ka.mp3	ka	ka	0	left
6.6.1	win	2023-07-11	14:56:35	0	0	5b8c7161284d9b00019dee13	1	1	DL_test	14	DL_test	21			0		ka	1	964	6	1	antiphase_hc_iso.wav	2	6	2	noise_calib_stim_LEFT.wav	1	34	blb_dichoticlistening_ta-ka.mp3	ta	ka	1	right
6.6.1	win	2023-07-11	14:56:35	0	0	5b8c7161284d9b00019dee13	1	1	DL_test	14	DL_test	22			0		ga	1	1194	6	1	antiphase_hc_iso.wav	2	6	2	noise_calib_stim_LEFT.wav	1	18	blb_dichoticlistening_ga-ta.mp3	ga	ta	1	left
6.6.1	win	2023-07-11	14:56:35	0	0	5b8c7161284d9b00019dee13	1	1	DL_test	14	DL_test	23			0		da	1	1695	6	1	antiphase_hc_iso.wav	2	6	2	noise_calib_stim_LEFT.wav	1	12	blb_dichoticlistening_da-ta.mp3	da	ta	1	left
6.6.1	win	2023-07-11	14:56:35	0	0	5b8c7161284d9b00019dee13	1	1	DL_test	14	DL_test	24			0		ga	1	1419	6	1	antiphase_hc_iso.wav	2	6	2	noise_calib_stim_LEFT.wav	1	9	blb_dichoticlistening_da-ga.mp3	da	ga	1	right
6.6.1	win	2023-07-11	14:56:35	0	0	5b8c7161284d9b00019dee13	1	1	DL_test	14	DL_test	25			0		ba	1	2208	6	1	antiphase_hc_iso.wav	2	6	2	noise_calib_stim_LEFT.wav	1	13	blb_dichoticlistening_ga-ba.mp3	ga	ba	1	right
6.6.1	win	2023-07-11	14:56:35	0	0	5b8c7161284d9b00019dee13	1	1	DL_test	14	DL_test	26			0		ga	1	1061	6	1	antiphase_hc_iso.wav	2	6	2	noise_calib_stim_LEFT.wav	1	16	blb_dichoticlistening_ga-ka.mp3	ga	ka	1	left
6.6.1	win	2023-07-11	14:56:35	0	0	5b8c7161284d9b00019dee13	1	1	DL_test	14	DL_test	27			0		ka	0	1208	6	1	antiphase_hc_iso.wav	2	6	2	noise_calib_stim_LEFT.wav	1	35	blb_dichoticlistening_ta-pa.mp3	ta	pa	1	other
6.6.1	win	2023-07-11	14:56:35	0	0	5b8c7161284d9b00019dee13	1	1	DL_test	14	DL_test	28			0		ba	1	1468	6	1	antiphase_hc_iso.wav	2	6	2	noise_calib_stim_LEFT.wav	1	25	blb_dichoticlistening_pa-ba.mp3	pa	ba	1	right
6.6.1	win	2023-07-11	14:56:35	0	0	5b8c7161284d9b00019dee13	1	1	DL_test	14	DL_test	29			0		ba	1	1963	6	1	antiphase_hc_iso.wav	2	6	2	noise_calib_stim_LEFT.wav	1	19	blb_dichoticlistening_ka-ba.mp3	ka	ba	1	right
6.6.1	win	2023-07-11	14:56:35	0	0	5b8c7161284d9b00019dee13	1	1	DL_test	14	DL_test	30			0		pa	0	1437	6	1	antiphase_hc_iso.wav	2	6	2	noise_calib_stim_LEFT.wav	1	6	blb_dichoticlistening_ba-ta.mp3	ba	ta	1	other
6.6.1	win	2023-07-11	14:56:35	0	0	5b8c7161284d9b00019dee13	1	1	DL_test	14	DL_test	31			0		pa	0	1581	6	1	antiphase_hc_iso.wav	2	6	2	noise_calib_stim_LEFT.wav	1	31	blb_dichoticlistening_ta-ba.mp3	ta	ba	1	other
6.6.1	win	2023-07-11	14:56:35	0	0	5b8c7161284d9b00019dee13	1	1	DL_test	14	DL_test	32			0		ba	1	3602	6	1	antiphase_hc_iso.wav	2	6	2	noise_calib_stim_LEFT.wav	1	7	blb_dichoticlistening_da-ba.mp3	da	ba	1	right
6.6.1	win	2023-07-11	14:56:35	0	0	5b8c7161284d9b00019dee13	1	1	DL_test	14	DL_test	33			0		ga	1	1773	6	1	antiphase_hc_iso.wav	2	6	2	noise_calib_stim_LEFT.wav	1	27	blb_dichoticlistening_pa-ga.mp3	pa	ga	1	right
6.6.1	win	2023-07-11	14:56:35	0	0	5b8c7161284d9b00019dee13	1	1	DL_test	14	DL_test	34			0		ka	1	1283	6	1	antiphase_hc_iso.wav	2	6	2	noise_calib_stim_LEFT.wav	1	24	blb_dichoticlistening_ka-ta.mp3	ka	ta	1	left
6.6.1	win	2023-07-11	14:56:35	0	0	5b8c7161284d9b00019dee13	1	1	DL_test	14	DL_test	35			0		da	1	1585	6	1	antiphase_hc_iso.wav	2	6	2	noise_calib_stim_LEFT.wav	1	32	blb_dichoticlistening_ta-da.mp3	ta	da	1	right
6.6.1	win	2023-07-11	14:56:35	0	0	5b8c7161284d9b00019dee13	1	1	DL_test	14	DL_test	36			0		ga	1	1153	6	1	antiphase_hc_iso.wav	2	6	2	noise_calib_stim_LEFT.wav	1	33	blb_dichoticlistening_ta-ga.mp3	ta	ga	1	right
6.6.1	win	2023-07-11	14:56:35	0	0	5b8c7161284d9b00019dee13	1	1	DL_test	15	DL_test	1			0		ga	1	1387	6	1	antiphase_hc_iso.wav	2	6	2	noise_calib_stim_LEFT.wav	1	15	blb_dichoticlistening_ga-ga.mp3	ga	ga	0	left
6.6.1	win	2023-07-11	14:56:35	0	0	5b8c7161284d9b00019dee13	1	1	DL_test	15	DL_test	2			0		da	1	1494	6	1	antiphase_hc_iso.wav	2	6	2	noise_calib_stim_LEFT.wav	1	32	blb_dichoticlistening_ta-da.mp3	ta	da	1	right
6.6.1	win	2023-07-11	14:56:35	0	0	5b8c7161284d9b00019dee13	1	1	DL_test	15	DL_test	3			0		da	1	1713	6	1	antiphase_hc_iso.wav	2	6	2	noise_calib_stim_LEFT.wav	1	11	blb_dichoticlistening_da-pa.mp3	da	pa	1	left
6.6.1	win	2023-07-11	14:56:35	0	0	5b8c7161284d9b00019dee13	1	1	DL_test	15	DL_test	4			0		pa	0	1589	6	1	antiphase_hc_iso.wav	2	6	2	noise_calib_stim_LEFT.wav	1	31	blb_dichoticlistening_ta-ba.mp3	ta	ba	1	other
6.6.1	win	2023-07-11	14:56:35	0	0	5b8c7161284d9b00019dee13	1	1	DL_test	15	DL_test	5			0		ka	1	991	6	1	antiphase_hc_iso.wav	2	6	2	noise_calib_stim_LEFT.wav	1	23	blb_dichoticlistening_ka-pa.mp3	ka	pa	1	left
6.6.1	win	2023-07-11	14:56:35	0	0	5b8c7161284d9b00019dee13	1	1	DL_test	15	DL_test	6			0		ga	1	791	6	1	antiphase_hc_iso.wav	2	6	2	noise_calib_stim_LEFT.wav	1	18	blb_dichoticlistening_ga-ta.mp3	ga	ta	1	left
6.6.1	win	2023-07-11	14:56:35	0	0	5b8c7161284d9b00019dee13	1	1	DL_test	15	DL_test	7			0		ka	1	1071	6	1	antiphase_hc_iso.wav	2	6	2	noise_calib_stim_LEFT.wav	1	24	blb_dichoticlistening_ka-ta.mp3	ka	ta	1	left
6.6.1	win	2023-07-11	14:56:35	0	0	5b8c7161284d9b00019dee13	1	1	DL_test	15	DL_test	8			0		ta	1	1150	6	1	antiphase_hc_iso.wav	2	6	2	noise_calib_stim_LEFT.wav	1	36	blb_dichoticlistening_ta-ta.mp3	ta	ta	0	left
6.6.1	win	2023-07-11	14:56:35	0	0	5b8c7161284d9b00019dee13	1	1	DL_test	15	DL_test	9			0		ta	1	801	6	1	antiphase_hc_iso.wav	2	6	2	noise_calib_stim_LEFT.wav	1	30	blb_dichoticlistening_pa-ta.mp3	pa	ta	1	right
6.6.1	win	2023-07-11	14:56:35	0	0	5b8c7161284d9b00019dee13	1	1	DL_test	15	DL_test	10			0		ba	1	2523	6	1	antiphase_hc_iso.wav	2	6	2	noise_calib_stim_LEFT.wav	1	6	blb_dichoticlistening_ba-ta.mp3	ba	ta	1	left
6.6.1	win	2023-07-11	14:56:35	0	0	5b8c7161284d9b00019dee13	1	1	DL_test	15	DL_test	11			0		ba	1	1356	6	1	antiphase_hc_iso.wav	2	6	2	noise_calib_stim_LEFT.wav	1	2	blb_dichoticlistening_ba-da.mp3	ba	da	1	left
6.6.1	win	2023-07-11	14:56:35	0	0	5b8c7161284d9b00019dee13	1	1	DL_test	15	DL_test	12			0		pa	1	4926	6	1	antiphase_hc_iso.wav	2	6	2	noise_calib_stim_LEFT.wav	1	25	blb_dichoticlistening_pa-ba.mp3	pa	ba	1	left
6.6.1	win	2023-07-11	14:56:35	0	0	5b8c7161284d9b00019dee13	1	1	DL_test	15	DL_test	13			0		ga	0	1260	6	1	antiphase_hc_iso.wav	2	6	2	noise_calib_stim_LEFT.wav	1	20	blb_dichoticlistening_ka-da.mp3	ka	da	1	other
6.6.1	win	2023-07-11	14:56:35	0	0	5b8c7161284d9b00019dee13	1	1	DL_test	15	DL_test	14			0		ba	1	2133	6	1	antiphase_hc_iso.wav	2	6	2	noise_calib_stim_LEFT.wav	1	7	blb_dichoticlistening_da-ba.mp3	da	ba	1	right
6.6.1	win	2023-07-11	14:56:35	0	0	5b8c7161284d9b00019dee13	1	1	DL_test	15	DL_test	15			0		ga	1	981	6	1	antiphase_hc_iso.wav	2	6	2	noise_calib_stim_LEFT.wav	1	21	blb_dichoticlistening_ka-ga.mp3	ka	ga	1	right
6.6.1	win	2023-07-11	14:56:35	0	0	5b8c7161284d9b00019dee13	1	1	DL_test	15	DL_test	16			0		pa	1	1132	6	1	antiphase_hc_iso.wav	2	6	2	noise_calib_stim_LEFT.wav	1	29	blb_dichoticlistening_pa-pa.mp3	pa	pa	0	left
6.6.1	win	2023-07-11	14:56:35	0	0	5b8c7161284d9b00019dee13	1	1	DL_test	15	DL_test	17			0		da	1	1586	6	1	antiphase_hc_iso.wav	2	6	2	noise_calib_stim_LEFT.wav	1	26	blb_dichoticlistening_pa-da.mp3	pa	da	1	right
6.6.1	win	2023-07-11	14:56:35	0	0	5b8c7161284d9b00019dee13	1	1	DL_test	15	DL_test	18			0		ga	1	1181	6	1	antiphase_hc_iso.wav	2	6	2	noise_calib_stim_LEFT.wav	1	9	blb_dichoticlistening_da-ga.mp3	da	ga	1	right
6.6.1	win	2023-07-11	14:56:35	0	0	5b8c7161284d9b00019dee13	1	1	DL_test	15	DL_test	19			0		ka	1	1801	6	1	antiphase_hc_iso.wav	2	6	2	noise_calib_stim_LEFT.wav	1	22	blb_dichoticlistening_ka-ka.mp3	ka	ka	0	left
6.6.1	win	2023-07-11	14:56:35	0	0	5b8c7161284d9b00019dee13	1	1	DL_test	15	DL_test	20			0		ka	1	1462	6	1	antiphase_hc_iso.wav	2	6	2	noise_calib_stim_LEFT.wav	1	34	blb_dichoticlistening_ta-ka.mp3	ta	ka	1	right
6.6.1	win	2023-07-11	14:56:35	0	0	5b8c7161284d9b00019dee13	1	1	DL_test	15	DL_test	21			0		ka	1	1573	6	1	antiphase_hc_iso.wav	2	6	2	noise_calib_stim_LEFT.wav	1	28	blb_dichoticlistening_pa-ka.mp3	pa	ka	1	right
6.6.1	win	2023-07-11	14:56:35	0	0	5b8c7161284d9b00019dee13	1	1	DL_test	15	DL_test	22			0		ga	1	2254	6	1	antiphase_hc_iso.wav	2	6	2	noise_calib_stim_LEFT.wav	1	33	blb_dichoticlistening_ta-ga.mp3	ta	ga	1	right
6.6.1	win	2023-07-11	14:56:35	0	0	5b8c7161284d9b00019dee13	1	1	DL_test	15	DL_test	23			0		ga	1	3071	6	1	antiphase_hc_iso.wav	2	6	2	noise_calib_stim_LEFT.wav	1	16	blb_dichoticlistening_ga-ka.mp3	ga	ka	1	left
6.6.1	win	2023-07-11	14:56:35	0	0	5b8c7161284d9b00019dee13	1	1	DL_test	15	DL_test	24			0		ga	1	1136	6	1	antiphase_hc_iso.wav	2	6	2	noise_calib_stim_LEFT.wav	1	14	blb_dichoticlistening_ga-da.mp3	ga	da	1	left
6.6.1	win	2023-07-11	14:56:35	0	0	5b8c7161284d9b00019dee13	1	1	DL_test	15	DL_test	25			0		da	1	990	6	1	antiphase_hc_iso.wav	2	6	2	noise_calib_stim_LEFT.wav	1	8	blb_dichoticlistening_da-da.mp3	da	da	0	left
6.6.1	win	2023-07-11	14:56:35	0	0	5b8c7161284d9b00019dee13	1	1	DL_test	15	DL_test	26			0		ba	1	1747	6	1	antiphase_hc_iso.wav	2	6	2	noise_calib_stim_LEFT.wav	1	13	blb_dichoticlistening_ga-ba.mp3	ga	ba	1	right
6.6.1	win	2023-07-11	14:56:35	0	0	5b8c7161284d9b00019dee13	1	1	DL_test	15	DL_test	27			0		ba	1	1746	6	1	antiphase_hc_iso.wav	2	6	2	noise_calib_stim_LEFT.wav	1	1	blb_dichoticlistening_ba-ba.mp3	ba	ba	0	left
6.6.1	win	2023-07-11	14:56:35	0	0	5b8c7161284d9b00019dee13	1	1	DL_test	15	DL_test	28			0		ka	1	1368	6	1	antiphase_hc_iso.wav	2	6	2	noise_calib_stim_LEFT.wav	1	4	blb_dichoticlistening_ba-ka.mp3	ba	ka	1	right
6.6.1	win	2023-07-11	14:56:35	0	0	5b8c7161284d9b00019dee13	1	1	DL_test	15	DL_test	29			0		ta	1	1485	6	1	antiphase_hc_iso.wav	2	6	2	noise_calib_stim_LEFT.wav	1	35	blb_dichoticlistening_ta-pa.mp3	ta	pa	1	left
6.6.1	win	2023-07-11	14:56:35	0	0	5b8c7161284d9b00019dee13	1	1	DL_test	15	DL_test	30			0		ga	1	1667	6	1	antiphase_hc_iso.wav	2	6	2	noise_calib_stim_LEFT.wav	1	27	blb_dichoticlistening_pa-ga.mp3	pa	ga	1	right
6.6.1	win	2023-07-11	14:56:35	0	0	5b8c7161284d9b00019dee13	1	1	DL_test	15	DL_test	31			0		pa	1	1646	6	1	antiphase_hc_iso.wav	2	6	2	noise_calib_stim_LEFT.wav	1	5	blb_dichoticlistening_ba-pa.mp3	ba	pa	1	right
6.6.1	win	2023-07-11	14:56:35	0	0	5b8c7161284d9b00019dee13	1	1	DL_test	15	DL_test	32			0		ka	1	1369	6	1	antiphase_hc_iso.wav	2	6	2	noise_calib_stim_LEFT.wav	1	19	blb_dichoticlistening_ka-ba.mp3	ka	ba	1	left
6.6.1	win	2023-07-11	14:56:35	0	0	5b8c7161284d9b00019dee13	1	1	DL_test	15	DL_test	33			0		ba	1	1629	6	1	antiphase_hc_iso.wav	2	6	2	noise_calib_stim_LEFT.wav	1	3	blb_dichoticlistening_ba-ga.mp3	ba	ga	1	left
6.6.1	win	2023-07-11	14:56:35	0	0	5b8c7161284d9b00019dee13	1	1	DL_test	15	DL_test	34			0		da	1	1066	6	1	antiphase_hc_iso.wav	2	6	2	noise_calib_stim_LEFT.wav	1	10	blb_dichoticlistening_da-ka.mp3	da	ka	1	left
6.6.1	win	2023-07-11	14:56:35	0	0	5b8c7161284d9b00019dee13	1	1	DL_test	15	DL_test	35			0		da	1	1168	6	1	antiphase_hc_iso.wav	2	6	2	noise_calib_stim_LEFT.wav	1	12	blb_dichoticlistening_da-ta.mp3	da	ta	1	left
6.6.1	win	2023-07-11	14:56:35	0	0	5b8c7161284d9b00019dee13	1	1	DL_test	15	DL_test	36			0		ga	1	1559	6	1	antiphase_hc_iso.wav	2	6	2	noise_calib_stim_LEFT.wav	1	17	blb_dichoticlistening_ga-pa.mp3	ga	pa	1	left
6.6.1	win	2023-07-11	14:56:35	0	0	5b8c7161284d9b00019dee13	1	1	DL_test	16	DL_test	1			0		ga	1	939	6	1	antiphase_hc_iso.wav	2	6	2	noise_calib_stim_LEFT.wav	1	16	blb_dichoticlistening_ga-ka.mp3	ga	ka	1	left
6.6.1	win	2023-07-11	14:56:35	0	0	5b8c7161284d9b00019dee13	1	1	DL_test	16	DL_test	2			0		ka	1	992	6	1	antiphase_hc_iso.wav	2	6	2	noise_calib_stim_LEFT.wav	1	34	blb_dichoticlistening_ta-ka.mp3	ta	ka	1	right
6.6.1	win	2023-07-11	14:56:35	0	0	5b8c7161284d9b00019dee13	1	1	DL_test	16	DL_test	3			0		ga	1	949	6	1	antiphase_hc_iso.wav	2	6	2	noise_calib_stim_LEFT.wav	1	14	blb_dichoticlistening_ga-da.mp3	ga	da	1	left
6.6.1	win	2023-07-11	14:56:35	0	0	5b8c7161284d9b00019dee13	1	1	DL_test	16	DL_test	4			0		ba	1	1181	6	1	antiphase_hc_iso.wav	2	6	2	noise_calib_stim_LEFT.wav	1	3	blb_dichoticlistening_ba-ga.mp3	ba	ga	1	left
6.6.1	win	2023-07-11	14:56:35	0	0	5b8c7161284d9b00019dee13	1	1	DL_test	16	DL_test	5			0		pa	1	3026	6	1	antiphase_hc_iso.wav	2	6	2	noise_calib_stim_LEFT.wav	1	25	blb_dichoticlistening_pa-ba.mp3	pa	ba	1	left
6.6.1	win	2023-07-11	14:56:35	0	0	5b8c7161284d9b00019dee13	1	1	DL_test	16	DL_test	6			0		ga	1	1168	6	1	antiphase_hc_iso.wav	2	6	2	noise_calib_stim_LEFT.wav	1	15	blb_dichoticlistening_ga-ga.mp3	ga	ga	0	left
6.6.1	win	2023-07-11	14:56:35	0	0	5b8c7161284d9b00019dee13	1	1	DL_test	16	DL_test	7			0		ga	0	859	6	1	antiphase_hc_iso.wav	2	6	2	noise_calib_stim_LEFT.wav	1	20	blb_dichoticlistening_ka-da.mp3	ka	da	1	other
6.6.1	win	2023-07-11	14:56:35	0	0	5b8c7161284d9b00019dee13	1	1	DL_test	16	DL_test	8			0		pa	1	1257	6	1	antiphase_hc_iso.wav	2	6	2	noise_calib_stim_LEFT.wav	1	29	blb_dichoticlistening_pa-pa.mp3	pa	pa	0	left
6.6.1	win	2023-07-11	14:56:35	0	0	5b8c7161284d9b00019dee13	1	1	DL_test	16	DL_test	9			0		da	1	1932	6	1	antiphase_hc_iso.wav	2	6	2	noise_calib_stim_LEFT.wav	1	12	blb_dichoticlistening_da-ta.mp3	da	ta	1	left
6.6.1	win	2023-07-11	14:56:35	0	0	5b8c7161284d9b00019dee13	1	1	DL_test	16	DL_test	10			0		ta	1	1352	6	1	antiphase_hc_iso.wav	2	6	2	noise_calib_stim_LEFT.wav	1	35	blb_dichoticlistening_ta-pa.mp3	ta	pa	1	left
6.6.1	win	2023-07-11	14:56:35	0	0	5b8c7161284d9b00019dee13	1	1	DL_test	16	DL_test	11			0		ka	0	1972	6	1	antiphase_hc_iso.wav	2	6	2	noise_calib_stim_LEFT.wav	1	18	blb_dichoticlistening_ga-ta.mp3	ga	ta	1	other
6.6.1	win	2023-07-11	14:56:35	0	0	5b8c7161284d9b00019dee13	1	1	DL_test	16	DL_test	12			0		ga	0	1253	6	1	antiphase_hc_iso.wav	2	6	2	noise_calib_stim_LEFT.wav	1	32	blb_dichoticlistening_ta-da.mp3	ta	da	1	other
6.6.1	win	2023-07-11	14:56:35	0	0	5b8c7161284d9b00019dee13	1	1	DL_test	16	DL_test	13			0		pa	1	1120	6	1	antiphase_hc_iso.wav	2	6	2	noise_calib_stim_LEFT.wav	1	5	blb_dichoticlistening_ba-pa.mp3	ba	pa	1	right
6.6.1	win	2023-07-11	14:56:35	0	0	5b8c7161284d9b00019dee13	1	1	DL_test	16	DL_test	14			0		ga	1	1401	6	1	antiphase_hc_iso.wav	2	6	2	noise_calib_stim_LEFT.wav	1	33	blb_dichoticlistening_ta-ga.mp3	ta	ga	1	right
6.6.1	win	2023-07-11	14:56:35	0	0	5b8c7161284d9b00019dee13	1	1	DL_test	16	DL_test	15			0		ka	1	1221	6	1	antiphase_hc_iso.wav	2	6	2	noise_calib_stim_LEFT.wav	1	23	blb_dichoticlistening_ka-pa.mp3	ka	pa	1	left
6.6.1	win	2023-07-11	14:56:35	0	0	5b8c7161284d9b00019dee13	1	1	DL_test	16	DL_test	16			0		pa	0	1207	6	1	antiphase_hc_iso.wav	2	6	2	noise_calib_stim_LEFT.wav	1	6	blb_dichoticlistening_ba-ta.mp3	ba	ta	1	other
6.6.1	win	2023-07-11	14:56:35	0	0	5b8c7161284d9b00019dee13	1	1	DL_test	16	DL_test	17			0		ba	1	1793	6	1	antiphase_hc_iso.wav	2	6	2	noise_calib_stim_LEFT.wav	1	31	blb_dichoticlistening_ta-ba.mp3	ta	ba	1	right
6.6.1	win	2023-07-11	14:56:35	0	0	5b8c7161284d9b00019dee13	1	1	DL_test	16	DL_test	18			0		ga	1	1110	6	1	antiphase_hc_iso.wav	2	6	2	noise_calib_stim_LEFT.wav	1	27	blb_dichoticlistening_pa-ga.mp3	pa	ga	1	right
6.6.1	win	2023-07-11	14:56:35	0	0	5b8c7161284d9b00019dee13	1	1	DL_test	16	DL_test	19			0		da	1	1400	6	1	antiphase_hc_iso.wav	2	6	2	noise_calib_stim_LEFT.wav	1	8	blb_dichoticlistening_da-da.mp3	da	da	0	left
6.6.1	win	2023-07-11	14:56:35	0	0	5b8c7161284d9b00019dee13	1	1	DL_test	16	DL_test	20			0		ga	0	801	6	1	antiphase_hc_iso.wav	2	6	2	noise_calib_stim_LEFT.wav	1	24	blb_dichoticlistening_ka-ta.mp3	ka	ta	1	other
6.6.1	win	2023-07-11	14:56:35	0	0	5b8c7161284d9b00019dee13	1	1	DL_test	16	DL_test	21			0		ka	0	1317	6	1	antiphase_hc_iso.wav	2	6	2	noise_calib_stim_LEFT.wav	1	11	blb_dichoticlistening_da-pa.mp3	da	pa	1	other
6.6.1	win	2023-07-11	14:56:35	0	0	5b8c7161284d9b00019dee13	1	1	DL_test	16	DL_test	22			0		ka	0	1690	6	1	antiphase_hc_iso.wav	2	6	2	noise_calib_stim_LEFT.wav	1	17	blb_dichoticlistening_ga-pa.mp3	ga	pa	1	other
6.6.1	win	2023-07-11	14:56:35	0	0	5b8c7161284d9b00019dee13	1	1	DL_test	16	DL_test	23			0		ka	1	2758	6	1	antiphase_hc_iso.wav	2	6	2	noise_calib_stim_LEFT.wav	1	10	blb_dichoticlistening_da-ka.mp3	da	ka	1	right
6.6.1	win	2023-07-11	14:56:35	0	0	5b8c7161284d9b00019dee13	1	1	DL_test	16	DL_test	24			0		ta	1	1201	6	1	antiphase_hc_iso.wav	2	6	2	noise_calib_stim_LEFT.wav	1	36	blb_dichoticlistening_ta-ta.mp3	ta	ta	0	left
6.6.1	win	2023-07-11	14:56:35	0	0	5b8c7161284d9b00019dee13	1	1	DL_test	16	DL_test	25			0		ka	1	1162	6	1	antiphase_hc_iso.wav	2	6	2	noise_calib_stim_LEFT.wav	1	4	blb_dichoticlistening_ba-ka.mp3	ba	ka	1	right
6.6.1	win	2023-07-11	14:56:35	0	0	5b8c7161284d9b00019dee13	1	1	DL_test	16	DL_test	26			0		ka	1	1480	6	1	antiphase_hc_iso.wav	2	6	2	noise_calib_stim_LEFT.wav	1	22	blb_dichoticlistening_ka-ka.mp3	ka	ka	0	left
6.6.1	win	2023-07-11	14:56:35	0	0	5b8c7161284d9b00019dee13	1	1	DL_test	16	DL_test	27			0		ga	0	1516	6	1	antiphase_hc_iso.wav	2	6	2	noise_calib_stim_LEFT.wav	1	7	blb_dichoticlistening_da-ba.mp3	da	ba	1	other
6.6.1	win	2023-07-11	14:56:35	0	0	5b8c7161284d9b00019dee13	1	1	DL_test	16	DL_test	28			0		ga	1	897	6	1	antiphase_hc_iso.wav	2	6	2	noise_calib_stim_LEFT.wav	1	9	blb_dichoticlistening_da-ga.mp3	da	ga	1	right
6.6.1	win	2023-07-11	14:56:35	0	0	5b8c7161284d9b00019dee13	1	1	DL_test	16	DL_test	29			0		ba	1	1672	6	1	antiphase_hc_iso.wav	2	6	2	noise_calib_stim_LEFT.wav	1	13	blb_dichoticlistening_ga-ba.mp3	ga	ba	1	right
6.6.1	win	2023-07-11	14:56:35	0	0	5b8c7161284d9b00019dee13	1	1	DL_test	16	DL_test	30			0		ta	1	1641	6	1	antiphase_hc_iso.wav	2	6	2	noise_calib_stim_LEFT.wav	1	30	blb_dichoticlistening_pa-ta.mp3	pa	ta	1	right
6.6.1	win	2023-07-11	14:56:35	0	0	5b8c7161284d9b00019dee13	1	1	DL_test	16	DL_test	31			0		ga	1	1277	6	1	antiphase_hc_iso.wav	2	6	2	noise_calib_stim_LEFT.wav	1	21	blb_dichoticlistening_ka-ga.mp3	ka	ga	1	right
6.6.1	win	2023-07-11	14:56:35	0	0	5b8c7161284d9b00019dee13	1	1	DL_test	16	DL_test	32			0		da	1	1661	6	1	antiphase_hc_iso.wav	2	6	2	noise_calib_stim_LEFT.wav	1	26	blb_dichoticlistening_pa-da.mp3	pa	da	1	right
6.6.1	win	2023-07-11	14:56:35	0	0	5b8c7161284d9b00019dee13	1	1	DL_test	16	DL_test	33			0		ba	1	1971	6	1	antiphase_hc_iso.wav	2	6	2	noise_calib_stim_LEFT.wav	1	2	blb_dichoticlistening_ba-da.mp3	ba	da	1	left
6.6.1	win	2023-07-11	14:56:35	0	0	5b8c7161284d9b00019dee13	1	1	DL_test	16	DL_test	34			0		ka	1	2068	6	1	antiphase_hc_iso.wav	2	6	2	noise_calib_stim_LEFT.wav	1	28	blb_dichoticlistening_pa-ka.mp3	pa	ka	1	right
6.6.1	win	2023-07-11	14:56:35	0	0	5b8c7161284d9b00019dee13	1	1	DL_test	16	DL_test	35			0		ka	1	1763	6	1	antiphase_hc_iso.wav	2	6	2	noise_calib_stim_LEFT.wav	1	19	blb_dichoticlistening_ka-ba.mp3	ka	ba	1	left
6.6.1	win	2023-07-11	14:56:35	0	0	5b8c7161284d9b00019dee13	1	1	DL_test	16	DL_test	36			0		ba	1	1845	6	1	antiphase_hc_iso.wav	2	6	2	noise_calib_stim_LEFT.wav	1	1	blb_dichoticlistening_ba-ba.mp3	ba	ba	0	left
6.6.1	win	2023-07-11	14:56:35	15:12:24	905112	5b8c7161284d9b00019dee13	1	1	practice_slash	22	practice_slash	1	stimuli_distractor_diamondtriangles.svg	stimuli_distractor_diamondtriangles.svg	13	no	0	1	2000	6	1	antiphase_hc_iso.wav	2	6	2	noise_calib_stim_LEFT.wav	1	1	blb_dichoticlistening_ba-ba.mp3	ba	ba	0	left
6.6.1	win	2023-07-11	14:56:35	15:12:24	905112	5b8c7161284d9b00019dee13	1	1	practice_slash	22	advance_on_keypress_SLASH	2	stimuli_distractor_diamondtriangles.svg	stimuli_distractor_diamondtriangles.svg	13	no	57	0	1638	6	1	antiphase_hc_iso.wav	2	6	2	noise_calib_stim_LEFT.wav	1	1	blb_dichoticlistening_ba-ba.mp3	ba	ba	0	left
6.6.1	win	2023-07-11	14:56:35	15:12:27	908663	5b8c7161284d9b00019dee13	1	1	practice_slash	22	practice_slash	3	stimuli_target_squarediamonds.svg	stimuli_distractor_diamondtriangles.svg	2	yes	53	1	262	6	1	antiphase_hc_iso.wav	2	6	2	noise_calib_stim_LEFT.wav	1	1	blb_dichoticlistening_ba-ba.mp3	ba	ba	0	left
6.6.1	win	2023-07-11	14:56:35	15:12:27	908663	5b8c7161284d9b00019dee13	1	1	practice_slash	22	advance_on_keypress_SLASH	4	stimuli_target_squarediamonds.svg	stimuli_distractor_diamondtriangles.svg	2	yes	57	0	631	6	1	antiphase_hc_iso.wav	2	6	2	noise_calib_stim_LEFT.wav	1	1	blb_dichoticlistening_ba-ba.mp3	ba	ba	0	left
6.6.1	win	2023-07-11	14:56:35	15:12:31	911956	5b8c7161284d9b00019dee13	1	1	practice_slash	22	practice_slash	5	stimuli_target_squarediamonds.svg	stimuli_distractor_trianglediamonds.svg	5	yes	53	1	1004	6	1	antiphase_hc_iso.wav	2	6	2	noise_calib_stim_LEFT.wav	1	1	blb_dichoticlistening_ba-ba.mp3	ba	ba	0	left
6.6.1	win	2023-07-11	14:56:35	15:12:31	911956	5b8c7161284d9b00019dee13	1	1	practice_slash	22	advance_on_keypress_SLASH	6	stimuli_target_squarediamonds.svg	stimuli_distractor_trianglediamonds.svg	5	yes	57	0	874	6	1	antiphase_hc_iso.wav	2	6	2	noise_calib_stim_LEFT.wav	1	1	blb_dichoticlistening_ba-ba.mp3	ba	ba	0	left
6.6.1	win	2023-07-11	14:56:35	15:12:35	916473	5b8c7161284d9b00019dee13	1	1	practice_slash	22	practice_slash	7	stimuli_distractor_trianglediamonds.svg	stimuli_distractor_diamondtriangles.svg	16	no	0	1	2000	6	1	antiphase_hc_iso.wav	2	6	2	noise_calib_stim_LEFT.wav	1	1	blb_dichoticlistening_ba-ba.mp3	ba	ba	0	left
6.6.1	win	2023-07-11	14:56:35	15:12:35	916473	5b8c7161284d9b00019dee13	1	1	practice_slash	22	advance_on_keypress_SLASH	8	stimuli_distractor_trianglediamonds.svg	stimuli_distractor_diamondtriangles.svg	16	no	57	0	478	6	1	antiphase_hc_iso.wav	2	6	2	noise_calib_stim_LEFT.wav	1	1	blb_dichoticlistening_ba-ba.mp3	ba	ba	0	left
6.6.1	win	2023-07-11	14:56:35	15:12:38	919127	5b8c7161284d9b00019dee13	1	1	practice_slash	22	practice_slash	9	stimuli_distractor_trianglediamonds.svg	stimuli_target_squarediamonds.svg	11	yes	53	1	510	6	1	antiphase_hc_iso.wav	2	6	2	noise_calib_stim_LEFT.wav	1	1	blb_dichoticlistening_ba-ba.mp3	ba	ba	0	left
6.6.1	win	2023-07-11	14:56:35	15:12:38	919127	5b8c7161284d9b00019dee13	1	1	practice_slash	22	advance_on_keypress_SLASH	10	stimuli_distractor_trianglediamonds.svg	stimuli_target_squarediamonds.svg	11	yes	57	0	703	6	1	antiphase_hc_iso.wav	2	6	2	noise_calib_stim_LEFT.wav	1	1	blb_dichoticlistening_ba-ba.mp3	ba	ba	0	left
6.6.1	win	2023-07-11	14:56:35	15:12:42	922924	5b8c7161284d9b00019dee13	1	1	practice_slash	22	practice_slash	11	stimuli_target_diamondsquares.svg	stimuli_distractor_trianglediamonds.svg	6	yes	53	1	1446	6	1	antiphase_hc_iso.wav	2	6	2	noise_calib_stim_LEFT.wav	1	1	blb_dichoticlistening_ba-ba.mp3	ba	ba	0	left
6.6.1	win	2023-07-11	14:56:35	15:12:42	922924	5b8c7161284d9b00019dee13	1	1	practice_slash	22	advance_on_keypress_SLASH	12	stimuli_target_diamondsquares.svg	stimuli_distractor_trianglediamonds.svg	6	yes	57	0	713	6	1	antiphase_hc_iso.wav	2	6	2	noise_calib_stim_LEFT.wav	1	1	blb_dichoticlistening_ba-ba.mp3	ba	ba	0	left
6.6.1	win	2023-07-11	14:56:35	15:12:45	926312	5b8c7161284d9b00019dee13	1	1	practice_slash	22	practice_slash	13	stimuli_distractor_diamondtriangles.svg	stimuli_target_diamondrectangles.svg	8	yes	53	1	1012	6	1	antiphase_hc_iso.wav	2	6	2	noise_calib_stim_LEFT.wav	1	1	blb_dichoticlistening_ba-ba.mp3	ba	ba	0	left
6.6.1	win	2023-07-11	14:56:35	15:12:45	926312	5b8c7161284d9b00019dee13	1	1	practice_slash	22	advance_on_keypress_SLASH	14	stimuli_distractor_diamondtriangles.svg	stimuli_target_diamondrectangles.svg	8	yes	57	0	665	6	1	antiphase_hc_iso.wav	2	6	2	noise_calib_stim_LEFT.wav	1	1	blb_dichoticlistening_ba-ba.mp3	ba	ba	0	left
6.6.1	win	2023-07-11	14:56:35	15:12:48	929079	5b8c7161284d9b00019dee13	1	1	practice_slash	22	practice_slash	15	stimuli_distractor_diamondtriangles.svg	stimuli_target_rectangletriangles.svg	7	yes	53	1	441	6	1	antiphase_hc_iso.wav	2	6	2	noise_calib_stim_LEFT.wav	1	1	blb_dichoticlistening_ba-ba.mp3	ba	ba	0	left
6.6.1	win	2023-07-11	14:56:35	15:12:48	929079	5b8c7161284d9b00019dee13	1	1	practice_slash	22	advance_on_keypress_SLASH	16	stimuli_distractor_diamondtriangles.svg	stimuli_target_rectangletriangles.svg	7	yes	57	0	827	6	1	antiphase_hc_iso.wav	2	6	2	noise_calib_stim_LEFT.wav	1	1	blb_dichoticlistening_ba-ba.mp3	ba	ba	0	left
6.6.1	win	2023-07-11	14:56:35	15:12:51	932490	5b8c7161284d9b00019dee13	1	1	practice_slash	22	practice_slash	17	stimuli_target_diamondsquares.svg	stimuli_distractor_diamondtriangles.svg	3	yes	53	1	933	6	1	antiphase_hc_iso.wav	2	6	2	noise_calib_stim_LEFT.wav	1	1	blb_dichoticlistening_ba-ba.mp3	ba	ba	0	left
6.6.1	win	2023-07-11	14:56:35	15:12:51	932490	5b8c7161284d9b00019dee13	1	1	practice_slash	22	advance_on_keypress_SLASH	18	stimuli_target_diamondsquares.svg	stimuli_distractor_diamondtriangles.svg	3	yes	57	0	488	6	1	antiphase_hc_iso.wav	2	6	2	noise_calib_stim_LEFT.wav	1	1	blb_dichoticlistening_ba-ba.mp3	ba	ba	0	left
6.6.1	win	2023-07-11	14:56:35	15:12:54	935215	5b8c7161284d9b00019dee13	1	1	practice_slash	22	practice_slash	19	stimuli_distractor_trianglediamonds.svg	stimuli_target_rectanglediamonds.svg	10	yes	53	1	590	6	1	antiphase_hc_iso.wav	2	6	2	noise_calib_stim_LEFT.wav	1	1	blb_dichoticlistening_ba-ba.mp3	ba	ba	0	left
6.6.1	win	2023-07-11	14:56:35	15:12:54	935215	5b8c7161284d9b00019dee13	1	1	practice_slash	22	advance_on_keypress_SLASH	20	stimuli_distractor_trianglediamonds.svg	stimuli_target_rectanglediamonds.svg	10	yes	57	0	656	6	1	antiphase_hc_iso.wav	2	6	2	noise_calib_stim_LEFT.wav	1	1	blb_dichoticlistening_ba-ba.mp3	ba	ba	0	left
6.6.1	win	2023-07-11	14:56:35	15:12:57	937966	5b8c7161284d9b00019dee13	1	1	practice_slash	22	practice_slash	21	stimuli_target_rectanglediamonds.svg	stimuli_distractor_diamondtriangles.svg	1	yes	53	1	454	6	1	antiphase_hc_iso.wav	2	6	2	noise_calib_stim_LEFT.wav	1	1	blb_dichoticlistening_ba-ba.mp3	ba	ba	0	left
6.6.1	win	2023-07-11	14:56:35	15:12:57	937966	5b8c7161284d9b00019dee13	1	1	practice_slash	22	advance_on_keypress_SLASH	22	stimuli_target_rectanglediamonds.svg	stimuli_distractor_diamondtriangles.svg	1	yes	57	0	2895	6	1	antiphase_hc_iso.wav	2	6	2	noise_calib_stim_LEFT.wav	1	1	blb_dichoticlistening_ba-ba.mp3	ba	ba	0	left
6.6.1	win	2023-07-11	14:56:35	15:13:03	944517	5b8c7161284d9b00019dee13	1	1	practice_slash	22	practice_slash	23	stimuli_distractor_trianglediamonds.svg	stimuli_distractor_trianglediamonds.svg	15	no	0	1	2000	6	1	antiphase_hc_iso.wav	2	6	2	noise_calib_stim_LEFT.wav	1	1	blb_dichoticlistening_ba-ba.mp3	ba	ba	0	left
6.6.1	win	2023-07-11	14:56:35	15:13:03	944517	5b8c7161284d9b00019dee13	1	1	practice_slash	22	advance_on_keypress_SLASH	24	stimuli_distractor_trianglediamonds.svg	stimuli_distractor_trianglediamonds.svg	15	no	57	0	506	6	1	antiphase_hc_iso.wav	2	6	2	noise_calib_stim_LEFT.wav	1	1	blb_dichoticlistening_ba-ba.mp3	ba	ba	0	left
6.6.1	win	2023-07-11	14:56:35	15:13:06	947408	5b8c7161284d9b00019dee13	1	1	practice_slash	22	practice_slash	25	stimuli_target_rectanglediamonds.svg	stimuli_distractor_trianglediamonds.svg	4	yes	53	1	736	6	1	antiphase_hc_iso.wav	2	6	2	noise_calib_stim_LEFT.wav	1	1	blb_dichoticlistening_ba-ba.mp3	ba	ba	0	left
6.6.1	win	2023-07-11	14:56:35	15:13:06	947408	5b8c7161284d9b00019dee13	1	1	practice_slash	22	advance_on_keypress_SLASH	26	stimuli_target_rectanglediamonds.svg	stimuli_distractor_trianglediamonds.svg	4	yes	57	0	457	6	1	antiphase_hc_iso.wav	2	6	2	noise_calib_stim_LEFT.wav	1	1	blb_dichoticlistening_ba-ba.mp3	ba	ba	0	left
6.6.1	win	2023-07-11	14:56:35	15:13:10	951525	5b8c7161284d9b00019dee13	1	1	practice_slash	22	practice_slash	27	stimuli_distractor_diamondtriangles.svg	stimuli_target_trianglerectangles.svg	9	yes	0	0	2000	6	1	antiphase_hc_iso.wav	2	6	2	noise_calib_stim_LEFT.wav	1	1	blb_dichoticlistening_ba-ba.mp3	ba	ba	0	left
6.6.1	win	2023-07-11	14:56:35	15:13:10	951525	5b8c7161284d9b00019dee13	1	1	practice_slash	22	advance_on_keypress_SLASH	28	stimuli_distractor_diamondtriangles.svg	stimuli_target_trianglerectangles.svg	9	yes	57	0	463	6	1	antiphase_hc_iso.wav	2	6	2	noise_calib_stim_LEFT.wav	1	1	blb_dichoticlistening_ba-ba.mp3	ba	ba	0	left
6.6.1	win	2023-07-11	14:56:35	15:13:13	954335	5b8c7161284d9b00019dee13	1	1	practice_slash	22	practice_slash	29	stimuli_distractor_diamondtriangles.svg	stimuli_distractor_trianglediamonds.svg	14	no	53	0	689	6	1	antiphase_hc_iso.wav	2	6	2	noise_calib_stim_LEFT.wav	1	1	blb_dichoticlistening_ba-ba.mp3	ba	ba	0	left
6.6.1	win	2023-07-11	14:56:35	15:13:13	954335	5b8c7161284d9b00019dee13	1	1	practice_slash	22	advance_on_keypress_SLASH	30	stimuli_distractor_diamondtriangles.svg	stimuli_distractor_trianglediamonds.svg	14	no	57	0	174	6	1	antiphase_hc_iso.wav	2	6	2	noise_calib_stim_LEFT.wav	1	1	blb_dichoticlistening_ba-ba.mp3	ba	ba	0	left
6.6.1	win	2023-07-11	14:56:35	15:13:16	957210	5b8c7161284d9b00019dee13	1	1	practice_slash	22	practice_slash	31	stimuli_distractor_trianglediamonds.svg	stimuli_target_diamondrectangles.svg	12	yes	53	1	1063	6	1	antiphase_hc_iso.wav	2	6	2	noise_calib_stim_LEFT.wav	1	1	blb_dichoticlistening_ba-ba.mp3	ba	ba	0	left
6.6.1	win	2023-07-11	14:56:35	15:13:16	957210	5b8c7161284d9b00019dee13	1	1	practice_slash	22	advance_on_keypress_SLASH	32	stimuli_distractor_trianglediamonds.svg	stimuli_target_diamondrectangles.svg	12	yes	57	0	495	6	1	antiphase_hc_iso.wav	2	6	2	noise_calib_stim_LEFT.wav	1	1	blb_dichoticlistening_ba-ba.mp3	ba	ba	0	left
6.6.1	win	2023-07-11	14:56:35	15:13:22	962966	5b8c7161284d9b00019dee13	1	1	main_slash	24	main_slash	1	stimuli_target_diamondrectangles.svg	stimuli_distractor_trianglediamonds.svg	19	yes	53	1	946	6	1	antiphase_hc_iso.wav	2	6	2	noise_calib_stim_LEFT.wav	1	1	blb_dichoticlistening_ba-ba.mp3	ba	ba	0	left
6.6.1	win	2023-07-11	14:56:35	15:13:22	962966	5b8c7161284d9b00019dee13	1	1	main_slash	24	advance_on_keypress_SLASH	2	stimuli_target_diamondrectangles.svg	stimuli_distractor_trianglediamonds.svg	19	yes	57	0	821	6	1	antiphase_hc_iso.wav	2	6	2	noise_calib_stim_LEFT.wav	1	1	blb_dichoticlistening_ba-ba.mp3	ba	ba	0	left
6.6.1	win	2023-07-11	14:56:35	15:13:24	965041	5b8c7161284d9b00019dee13	1	1	main_slash	24	main_slash	3	stimuli_distractor_trianglediamonds.svg	stimuli_target_squarediamonds.svg	12	yes	53	1	602	6	1	antiphase_hc_iso.wav	2	6	2	noise_calib_stim_LEFT.wav	1	1	blb_dichoticlistening_ba-ba.mp3	ba	ba	0	left
6.6.1	win	2023-07-11	14:56:35	15:13:24	965041	5b8c7161284d9b00019dee13	1	1	main_slash	24	advance_on_keypress_SLASH	4	stimuli_distractor_trianglediamonds.svg	stimuli_target_squarediamonds.svg	12	yes	57	0	989	6	1	antiphase_hc_iso.wav	2	6	2	noise_calib_stim_LEFT.wav	1	1	blb_dichoticlistening_ba-ba.mp3	ba	ba	0	left
6.6.1	win	2023-07-11	14:56:35	15:13:27	968674	5b8c7161284d9b00019dee13	1	1	main_slash	24	main_slash	5	stimuli_distractor_trianglediamonds.svg	stimuli_target_diamondrectangles.svg	27	yes	0	0	2000	6	1	antiphase_hc_iso.wav	2	6	2	noise_calib_stim_LEFT.wav	1	1	blb_dichoticlistening_ba-ba.mp3	ba	ba	0	left
6.6.1	win	2023-07-11	14:56:35	15:13:27	968674	5b8c7161284d9b00019dee13	1	1	main_slash	24	advance_on_keypress_SLASH	6	stimuli_distractor_trianglediamonds.svg	stimuli_target_diamondrectangles.svg	27	yes	57	0	455	6	1	antiphase_hc_iso.wav	2	6	2	noise_calib_stim_LEFT.wav	1	1	blb_dichoticlistening_ba-ba.mp3	ba	ba	0	left
6.6.1	win	2023-07-11	14:56:35	15:13:30	971777	5b8c7161284d9b00019dee13	1	1	main_slash	24	main_slash	7	stimuli_distractor_diamondtriangles.svg	stimuli_distractor_trianglediamonds.svg	37	no	0	1	2000	6	1	antiphase_hc_iso.wav	2	6	2	noise_calib_stim_LEFT.wav	1	1	blb_dichoticlistening_ba-ba.mp3	ba	ba	0	left
6.6.1	win	2023-07-11	14:56:35	15:13:30	971777	5b8c7161284d9b00019dee13	1	1	main_slash	24	advance_on_keypress_SLASH	8	stimuli_distractor_diamondtriangles.svg	stimuli_distractor_trianglediamonds.svg	37	no	57	0	351	6	1	antiphase_hc_iso.wav	2	6	2	noise_calib_stim_LEFT.wav	1	1	blb_dichoticlistening_ba-ba.mp3	ba	ba	0	left
6.6.1	win	2023-07-11	14:56:35	15:13:33	974780	5b8c7161284d9b00019dee13	1	1	main_slash	24	main_slash	9	stimuli_distractor_diamondtriangles.svg	stimuli_distractor_trianglediamonds.svg	38	no	0	1	2000	6	1	antiphase_hc_iso.wav	2	6	2	noise_calib_stim_LEFT.wav	1	1	blb_dichoticlistening_ba-ba.mp3	ba	ba	0	left
6.6.1	win	2023-07-11	14:56:35	15:13:33	974780	5b8c7161284d9b00019dee13	1	1	main_slash	24	advance_on_keypress_SLASH	10	stimuli_distractor_diamondtriangles.svg	stimuli_distractor_trianglediamonds.svg	38	no	57	0	526	6	1	antiphase_hc_iso.wav	2	6	2	noise_calib_stim_LEFT.wav	1	1	blb_dichoticlistening_ba-ba.mp3	ba	ba	0	left
6.6.1	win	2023-07-11	14:56:35	15:13:35	976375	5b8c7161284d9b00019dee13	1	1	main_slash	24	main_slash	11	stimuli_target_rectanglediamonds.svg	stimuli_distractor_trianglediamonds.svg	2	yes	53	1	425	6	1	antiphase_hc_iso.wav	2	6	2	noise_calib_stim_LEFT.wav	1	1	blb_dichoticlistening_ba-ba.mp3	ba	ba	0	left
6.6.1	win	2023-07-11	14:56:35	15:13:35	976375	5b8c7161284d9b00019dee13	1	1	main_slash	24	advance_on_keypress_SLASH	12	stimuli_target_rectanglediamonds.svg	stimuli_distractor_trianglediamonds.svg	2	yes	57	0	747	6	1	antiphase_hc_iso.wav	2	6	2	noise_calib_stim_LEFT.wav	1	1	blb_dichoticlistening_ba-ba.mp3	ba	ba	0	left
6.6.1	win	2023-07-11	14:56:35	15:13:37	978180	5b8c7161284d9b00019dee13	1	1	main_slash	24	main_slash	13	stimuli_distractor_trianglediamonds.svg	stimuli_target_rectanglediamonds.svg	10	yes	53	1	411	6	1	antiphase_hc_iso.wav	2	6	2	noise_calib_stim_LEFT.wav	1	1	blb_dichoticlistening_ba-ba.mp3	ba	ba	0	left
6.6.1	win	2023-07-11	14:56:35	15:13:37	978180	5b8c7161284d9b00019dee13	1	1	main_slash	24	advance_on_keypress_SLASH	14	stimuli_distractor_trianglediamonds.svg	stimuli_target_rectanglediamonds.svg	10	yes	57	0	668	6	1	antiphase_hc_iso.wav	2	6	2	noise_calib_stim_LEFT.wav	1	1	blb_dichoticlistening_ba-ba.mp3	ba	ba	0	left
6.6.1	win	2023-07-11	14:56:35	15:13:39	980004	5b8c7161284d9b00019dee13	1	1	main_slash	24	main_slash	15	stimuli_target_diamondsquares.svg	stimuli_distractor_trianglediamonds.svg	20	yes	53	1	500	6	1	antiphase_hc_iso.wav	2	6	2	noise_calib_stim_LEFT.wav	1	1	blb_dichoticlistening_ba-ba.mp3	ba	ba	0	left
6.6.1	win	2023-07-11	14:56:35	15:13:39	980004	5b8c7161284d9b00019dee13	1	1	main_slash	24	advance_on_keypress_SLASH	16	stimuli_target_diamondsquares.svg	stimuli_distractor_trianglediamonds.svg	20	yes	57	0	685	6	1	antiphase_hc_iso.wav	2	6	2	noise_calib_stim_LEFT.wav	1	1	blb_dichoticlistening_ba-ba.mp3	ba	ba	0	left
6.6.1	win	2023-07-11	14:56:35	15:13:41	981872	5b8c7161284d9b00019dee13	1	1	main_slash	24	main_slash	17	stimuli_target_rectanglediamonds.svg	stimuli_distractor_diamondtriangles.svg	6	yes	53	1	533	6	1	antiphase_hc_iso.wav	2	6	2	noise_calib_stim_LEFT.wav	1	1	blb_dichoticlistening_ba-ba.mp3	ba	ba	0	left
6.6.1	win	2023-07-11	14:56:35	15:13:41	981872	5b8c7161284d9b00019dee13	1	1	main_slash	24	advance_on_keypress_SLASH	18	stimuli_target_rectanglediamonds.svg	stimuli_distractor_diamondtriangles.svg	6	yes	57	0	654	6	1	antiphase_hc_iso.wav	2	6	2	noise_calib_stim_LEFT.wav	1	1	blb_dichoticlistening_ba-ba.mp3	ba	ba	0	left
6.6.1	win	2023-07-11	14:56:35	15:13:42	983656	5b8c7161284d9b00019dee13	1	1	main_slash	24	main_slash	19	stimuli_distractor_diamondtriangles.svg	stimuli_target_trianglesquares.svg	30	yes	53	1	483	6	1	antiphase_hc_iso.wav	2	6	2	noise_calib_stim_LEFT.wav	1	1	blb_dichoticlistening_ba-ba.mp3	ba	ba	0	left
6.6.1	win	2023-07-11	14:56:35	15:13:42	983656	5b8c7161284d9b00019dee13	1	1	main_slash	24	advance_on_keypress_SLASH	20	stimuli_distractor_diamondtriangles.svg	stimuli_target_trianglesquares.svg	30	yes	57	0	524	6	1	antiphase_hc_iso.wav	2	6	2	noise_calib_stim_LEFT.wav	1	1	blb_dichoticlistening_ba-ba.mp3	ba	ba	0	left
6.6.1	win	2023-07-11	14:56:35	15:13:44	985725	5b8c7161284d9b00019dee13	1	1	main_slash	24	main_slash	21	stimuli_distractor_trianglediamonds.svg	stimuli_distractor_trianglediamonds.svg	34	no	53	0	900	6	1	antiphase_hc_iso.wav	2	6	2	noise_calib_stim_LEFT.wav	1	1	blb_dichoticlistening_ba-ba.mp3	ba	ba	0	left
6.6.1	win	2023-07-11	14:56:35	15:13:44	985725	5b8c7161284d9b00019dee13	1	1	main_slash	24	advance_on_keypress_SLASH	22	stimuli_distractor_trianglediamonds.svg	stimuli_distractor_trianglediamonds.svg	34	no	57	0	613	6	1	antiphase_hc_iso.wav	2	6	2	noise_calib_stim_LEFT.wav	1	1	blb_dichoticlistening_ba-ba.mp3	ba	ba	0	left
6.6.1	win	2023-07-11	14:56:35	15:13:48	988994	5b8c7161284d9b00019dee13	1	1	main_slash	24	main_slash	23	stimuli_distractor_diamondtriangles.svg	stimuli_distractor_diamondtriangles.svg	40	no	0	1	2000	6	1	antiphase_hc_iso.wav	2	6	2	noise_calib_stim_LEFT.wav	1	1	blb_dichoticlistening_ba-ba.mp3	ba	ba	0	left
6.6.1	win	2023-07-11	14:56:35	15:13:48	988994	5b8c7161284d9b00019dee13	1	1	main_slash	24	advance_on_keypress_SLASH	24	stimuli_distractor_diamondtriangles.svg	stimuli_distractor_diamondtriangles.svg	40	no	57	0	596	6	1	antiphase_hc_iso.wav	2	6	2	noise_calib_stim_LEFT.wav	1	1	blb_dichoticlistening_ba-ba.mp3	ba	ba	0	left
6.6.1	win	2023-07-11	14:56:35	15:13:50	991204	5b8c7161284d9b00019dee13	1	1	main_slash	24	main_slash	25	stimuli_target_trianglesquares.svg	stimuli_distractor_diamondtriangles.svg	22	yes	53	1	957	6	1	antiphase_hc_iso.wav	2	6	2	noise_calib_stim_LEFT.wav	1	1	blb_dichoticlistening_ba-ba.mp3	ba	ba	0	left
6.6.1	win	2023-07-11	14:56:35	15:13:50	991204	5b8c7161284d9b00019dee13	1	1	main_slash	24	advance_on_keypress_SLASH	26	stimuli_target_trianglesquares.svg	stimuli_distractor_diamondtriangles.svg	22	yes	57	0	1046	6	1	antiphase_hc_iso.wav	2	6	2	noise_calib_stim_LEFT.wav	1	1	blb_dichoticlistening_ba-ba.mp3	ba	ba	0	left
6.6.1	win	2023-07-11	14:56:35	15:13:52	993562	5b8c7161284d9b00019dee13	1	1	main_slash	24	main_slash	27	stimuli_distractor_diamondtriangles.svg	stimuli_target_diamondsquares.svg	32	yes	53	1	662	6	1	antiphase_hc_iso.wav	2	6	2	noise_calib_stim_LEFT.wav	1	1	blb_dichoticlistening_ba-ba.mp3	ba	ba	0	left
6.6.1	win	2023-07-11	14:56:35	15:13:52	993562	5b8c7161284d9b00019dee13	1	1	main_slash	24	advance_on_keypress_SLASH	28	stimuli_distractor_diamondtriangles.svg	stimuli_target_diamondsquares.svg	32	yes	57	0	860	6	1	antiphase_hc_iso.wav	2	6	2	noise_calib_stim_LEFT.wav	1	1	blb_dichoticlistening_ba-ba.mp3	ba	ba	0	left
6.6.1	win	2023-07-11	14:56:35	15:13:56	997069	5b8c7161284d9b00019dee13	1	1	main_slash	24	main_slash	29	stimuli_distractor_diamondtriangles.svg	stimuli_distractor_diamondtriangles.svg	39	no	0	1	2000	6	1	antiphase_hc_iso.wav	2	6	2	noise_calib_stim_LEFT.wav	1	1	blb_dichoticlistening_ba-ba.mp3	ba	ba	0	left
6.6.1	win	2023-07-11	14:56:35	15:13:56	997069	5b8c7161284d9b00019dee13	1	1	main_slash	24	advance_on_keypress_SLASH	30	stimuli_distractor_diamondtriangles.svg	stimuli_distractor_diamondtriangles.svg	39	no	57	0	858	6	1	antiphase_hc_iso.wav	2	6	2	noise_calib_stim_LEFT.wav	1	1	blb_dichoticlistening_ba-ba.mp3	ba	ba	0	left
6.6.1	win	2023-07-11	14:56:35	15:13:58	999356	5b8c7161284d9b00019dee13	1	1	main_slash	24	main_slash	31	stimuli_target_squarediamonds.svg	stimuli_distractor_trianglediamonds.svg	4	yes	53	1	783	6	1	antiphase_hc_iso.wav	2	6	2	noise_calib_stim_LEFT.wav	1	1	blb_dichoticlistening_ba-ba.mp3	ba	ba	0	left
6.6.1	win	2023-07-11	14:56:35	15:13:58	999356	5b8c7161284d9b00019dee13	1	1	main_slash	24	advance_on_keypress_SLASH	32	stimuli_target_squarediamonds.svg	stimuli_distractor_trianglediamonds.svg	4	yes	57	0	1142	6	1	antiphase_hc_iso.wav	2	6	2	noise_calib_stim_LEFT.wav	1	1	blb_dichoticlistening_ba-ba.mp3	ba	ba	0	left
6.6.1	win	2023-07-11	14:56:35	15:14:00	1001802	5b8c7161284d9b00019dee13	1	1	main_slash	24	main_slash	33	stimuli_distractor_trianglediamonds.svg	stimuli_target_trianglesquares.svg	26	yes	53	1	660	6	1	antiphase_hc_iso.wav	2	6	2	noise_calib_stim_LEFT.wav	1	1	blb_dichoticlistening_ba-ba.mp3	ba	ba	0	left
6.6.1	win	2023-07-11	14:56:35	15:14:00	1001802	5b8c7161284d9b00019dee13	1	1	main_slash	24	advance_on_keypress_SLASH	34	stimuli_distractor_trianglediamonds.svg	stimuli_target_trianglesquares.svg	26	yes	57	0	880	6	1	antiphase_hc_iso.wav	2	6	2	noise_calib_stim_LEFT.wav	1	1	blb_dichoticlistening_ba-ba.mp3	ba	ba	0	left
6.6.1	win	2023-07-11	14:56:35	15:14:03	1003981	5b8c7161284d9b00019dee13	1	1	main_slash	24	main_slash	35	stimuli_distractor_diamondtriangles.svg	stimuli_target_squarediamonds.svg	16	yes	53	1	653	6	1	antiphase_hc_iso.wav	2	6	2	noise_calib_stim_LEFT.wav	1	1	blb_dichoticlistening_ba-ba.mp3	ba	ba	0	left
6.6.1	win	2023-07-11	14:56:35	15:14:03	1003981	5b8c7161284d9b00019dee13	1	1	main_slash	24	advance_on_keypress_SLASH	36	stimuli_distractor_diamondtriangles.svg	stimuli_target_squarediamonds.svg	16	yes	57	0	637	6	1	antiphase_hc_iso.wav	2	6	2	noise_calib_stim_LEFT.wav	1	1	blb_dichoticlistening_ba-ba.mp3	ba	ba	0	left
6.6.1	win	2023-07-11	14:56:35	15:14:05	1006080	5b8c7161284d9b00019dee13	1	1	main_slash	24	main_slash	37	stimuli_distractor_diamondtriangles.svg	stimuli_target_rectangletriangles.svg	13	yes	53	1	817	6	1	antiphase_hc_iso.wav	2	6	2	noise_calib_stim_LEFT.wav	1	1	blb_dichoticlistening_ba-ba.mp3	ba	ba	0	left
6.6.1	win	2023-07-11	14:56:35	15:14:05	1006080	5b8c7161284d9b00019dee13	1	1	main_slash	24	advance_on_keypress_SLASH	38	stimuli_distractor_diamondtriangles.svg	stimuli_target_rectangletriangles.svg	13	yes	57	0	478	6	1	antiphase_hc_iso.wav	2	6	2	noise_calib_stim_LEFT.wav	1	1	blb_dichoticlistening_ba-ba.mp3	ba	ba	0	left
6.6.1	win	2023-07-11	14:56:35	15:14:07	1007971	5b8c7161284d9b00019dee13	1	1	main_slash	24	main_slash	39	stimuli_distractor_trianglediamonds.svg	stimuli_distractor_diamondtriangles.svg	35	no	53	0	757	6	1	antiphase_hc_iso.wav	2	6	2	noise_calib_stim_LEFT.wav	1	1	blb_dichoticlistening_ba-ba.mp3	ba	ba	0	left
6.6.1	win	2023-07-11	14:56:35	15:14:07	1007971	5b8c7161284d9b00019dee13	1	1	main_slash	24	advance_on_keypress_SLASH	40	stimuli_distractor_trianglediamonds.svg	stimuli_distractor_diamondtriangles.svg	35	no	57	0	606	6	1	antiphase_hc_iso.wav	2	6	2	noise_calib_stim_LEFT.wav	1	1	blb_dichoticlistening_ba-ba.mp3	ba	ba	0	left
6.6.1	win	2023-07-11	14:56:35	15:14:09	1010076	5b8c7161284d9b00019dee13	1	1	main_slash	24	main_slash	41	stimuli_distractor_diamondtriangles.svg	stimuli_target_rectanglediamonds.svg	14	yes	53	1	859	6	1	antiphase_hc_iso.wav	2	6	2	noise_calib_stim_LEFT.wav	1	1	blb_dichoticlistening_ba-ba.mp3	ba	ba	0	left
6.6.1	win	2023-07-11	14:56:35	15:14:09	1010076	5b8c7161284d9b00019dee13	1	1	main_slash	24	advance_on_keypress_SLASH	42	stimuli_distractor_diamondtriangles.svg	stimuli_target_rectanglediamonds.svg	14	yes	57	0	592	6	1	antiphase_hc_iso.wav	2	6	2	noise_calib_stim_LEFT.wav	1	1	blb_dichoticlistening_ba-ba.mp3	ba	ba	0	left
6.6.1	win	2023-07-11	14:56:35	15:14:11	1012102	5b8c7161284d9b00019dee13	1	1	main_slash	24	main_slash	43	stimuli_distractor_trianglediamonds.svg	stimuli_target_squaretriangles.svg	11	yes	53	1	784	6	1	antiphase_hc_iso.wav	2	6	2	noise_calib_stim_LEFT.wav	1	1	blb_dichoticlistening_ba-ba.mp3	ba	ba	0	left
6.6.1	win	2023-07-11	14:56:35	15:14:11	1012102	5b8c7161284d9b00019dee13	1	1	main_slash	24	advance_on_keypress_SLASH	44	stimuli_distractor_trianglediamonds.svg	stimuli_target_squaretriangles.svg	11	yes	57	0	727	6	1	antiphase_hc_iso.wav	2	6	2	noise_calib_stim_LEFT.wav	1	1	blb_dichoticlistening_ba-ba.mp3	ba	ba	0	left
6.6.1	win	2023-07-11	14:56:35	15:14:14	1015488	5b8c7161284d9b00019dee13	1	1	main_slash	24	main_slash	45	stimuli_distractor_trianglediamonds.svg	stimuli_distractor_diamondtriangles.svg	36	no	0	1	2000	6	1	antiphase_hc_iso.wav	2	6	2	noise_calib_stim_LEFT.wav	1	1	blb_dichoticlistening_ba-ba.mp3	ba	ba	0	left
6.6.1	win	2023-07-11	14:56:35	15:14:14	1015488	5b8c7161284d9b00019dee13	1	1	main_slash	24	advance_on_keypress_SLASH	46	stimuli_distractor_trianglediamonds.svg	stimuli_distractor_diamondtriangles.svg	36	no	57	0	424	6	1	antiphase_hc_iso.wav	2	6	2	noise_calib_stim_LEFT.wav	1	1	blb_dichoticlistening_ba-ba.mp3	ba	ba	0	left
6.6.1	win	2023-07-11	14:56:35	15:14:17	1018557	5b8c7161284d9b00019dee13	1	1	main_slash	24	main_slash	47	stimuli_distractor_trianglediamonds.svg	stimuli_target_trianglerectangles.svg	25	yes	0	0	2000	6	1	antiphase_hc_iso.wav	2	6	2	noise_calib_stim_LEFT.wav	1	1	blb_dichoticlistening_ba-ba.mp3	ba	ba	0	left
6.6.1	win	2023-07-11	14:56:35	15:14:17	1018557	5b8c7161284d9b00019dee13	1	1	main_slash	24	advance_on_keypress_SLASH	48	stimuli_distractor_trianglediamonds.svg	stimuli_target_trianglerectangles.svg	25	yes	57	0	633	6	1	antiphase_hc_iso.wav	2	6	2	noise_calib_stim_LEFT.wav	1	1	blb_dichoticlistening_ba-ba.mp3	ba	ba	0	left
6.6.1	win	2023-07-11	14:56:35	15:14:19	1020310	5b8c7161284d9b00019dee13	1	1	main_slash	24	main_slash	49	stimuli_target_squarediamonds.svg	stimuli_distractor_diamondtriangles.svg	8	yes	53	1	466	6	1	antiphase_hc_iso.wav	2	6	2	noise_calib_stim_LEFT.wav	1	1	blb_dichoticlistening_ba-ba.mp3	ba	ba	0	left
6.6.1	win	2023-07-11	14:56:35	15:14:19	1020310	5b8c7161284d9b00019dee13	1	1	main_slash	24	advance_on_keypress_SLASH	50	stimuli_target_squarediamonds.svg	stimuli_distractor_diamondtriangles.svg	8	yes	57	0	705	6	1	antiphase_hc_iso.wav	2	6	2	noise_calib_stim_LEFT.wav	1	1	blb_dichoticlistening_ba-ba.mp3	ba	ba	0	left
6.6.1	win	2023-07-11	14:56:35	15:14:21	1022396	5b8c7161284d9b00019dee13	1	1	main_slash	24	main_slash	51	stimuli_target_trianglesquares.svg	stimuli_distractor_trianglediamonds.svg	18	yes	53	1	734	6	1	antiphase_hc_iso.wav	2	6	2	noise_calib_stim_LEFT.wav	1	1	blb_dichoticlistening_ba-ba.mp3	ba	ba	0	left
6.6.1	win	2023-07-11	14:56:35	15:14:21	1022396	5b8c7161284d9b00019dee13	1	1	main_slash	24	advance_on_keypress_SLASH	52	stimuli_target_trianglesquares.svg	stimuli_distractor_trianglediamonds.svg	18	yes	57	0	464	6	1	antiphase_hc_iso.wav	2	6	2	noise_calib_stim_LEFT.wav	1	1	blb_dichoticlistening_ba-ba.mp3	ba	ba	0	left
6.6.1	win	2023-07-11	14:56:35	15:14:23	1024130	5b8c7161284d9b00019dee13	1	1	main_slash	24	main_slash	53	stimuli_distractor_diamondtriangles.svg	stimuli_target_trianglerectangles.svg	29	yes	53	1	615	6	1	antiphase_hc_iso.wav	2	6	2	noise_calib_stim_LEFT.wav	1	1	blb_dichoticlistening_ba-ba.mp3	ba	ba	0	left
6.6.1	win	2023-07-11	14:56:35	15:14:23	1024130	5b8c7161284d9b00019dee13	1	1	main_slash	24	advance_on_keypress_SLASH	54	stimuli_distractor_diamondtriangles.svg	stimuli_target_trianglerectangles.svg	29	yes	57	0	530	6	1	antiphase_hc_iso.wav	2	6	2	noise_calib_stim_LEFT.wav	1	1	blb_dichoticlistening_ba-ba.mp3	ba	ba	0	left
6.6.1	win	2023-07-11	14:56:35	15:14:24	1025773	5b8c7161284d9b00019dee13	1	1	main_slash	24	main_slash	55	stimuli_distractor_trianglediamonds.svg	stimuli_target_diamondsquares.svg	28	yes	53	1	458	6	1	antiphase_hc_iso.wav	2	6	2	noise_calib_stim_LEFT.wav	1	1	blb_dichoticlistening_ba-ba.mp3	ba	ba	0	left
6.6.1	win	2023-07-11	14:56:35	15:14:24	1025773	5b8c7161284d9b00019dee13	1	1	main_slash	24	advance_on_keypress_SLASH	56	stimuli_distractor_trianglediamonds.svg	stimuli_target_diamondsquares.svg	28	yes	57	0	679	6	1	antiphase_hc_iso.wav	2	6	2	noise_calib_stim_LEFT.wav	1	1	blb_dichoticlistening_ba-ba.mp3	ba	ba	0	left
6.6.1	win	2023-07-11	14:56:35	15:14:28	1029101	5b8c7161284d9b00019dee13	1	1	main_slash	24	main_slash	57	stimuli_target_trianglerectangles.svg	stimuli_distractor_diamondtriangles.svg	21	yes	0	0	2000	6	1	antiphase_hc_iso.wav	2	6	2	noise_calib_stim_LEFT.wav	1	1	blb_dichoticlistening_ba-ba.mp3	ba	ba	0	left
6.6.1	win	2023-07-11	14:56:35	15:14:28	1029101	5b8c7161284d9b00019dee13	1	1	main_slash	24	advance_on_keypress_SLASH	58	stimuli_target_trianglerectangles.svg	stimuli_distractor_diamondtriangles.svg	21	yes	57	0	426	6	1	antiphase_hc_iso.wav	2	6	2	noise_calib_stim_LEFT.wav	1	1	blb_dichoticlistening_ba-ba.mp3	ba	ba	0	left
6.6.1	win	2023-07-11	14:56:35	15:14:29	1030609	5b8c7161284d9b00019dee13	1	1	main_slash	24	main_slash	59	stimuli_target_rectangletriangles.svg	stimuli_distractor_trianglediamonds.svg	1	yes	53	1	421	6	1	antiphase_hc_iso.wav	2	6	2	noise_calib_stim_LEFT.wav	1	1	blb_dichoticlistening_ba-ba.mp3	ba	ba	0	left
6.6.1	win	2023-07-11	14:56:35	15:14:29	1030609	5b8c7161284d9b00019dee13	1	1	main_slash	24	advance_on_keypress_SLASH	60	stimuli_target_rectangletriangles.svg	stimuli_distractor_trianglediamonds.svg	1	yes	57	0	594	6	1	antiphase_hc_iso.wav	2	6	2	noise_calib_stim_LEFT.wav	1	1	blb_dichoticlistening_ba-ba.mp3	ba	ba	0	left
6.6.1	win	2023-07-11	14:56:35	15:14:31	1032411	5b8c7161284d9b00019dee13	1	1	main_slash	24	main_slash	61	stimuli_target_rectangletriangles.svg	stimuli_distractor_diamondtriangles.svg	5	yes	53	1	556	6	1	antiphase_hc_iso.wav	2	6	2	noise_calib_stim_LEFT.wav	1	1	blb_dichoticlistening_ba-ba.mp3	ba	ba	0	left
6.6.1	win	2023-07-11	14:56:35	15:14:31	1032411	5b8c7161284d9b00019dee13	1	1	main_slash	24	advance_on_keypress_SLASH	62	stimuli_target_rectangletriangles.svg	stimuli_distractor_diamondtriangles.svg	5	yes	57	0	649	6	1	antiphase_hc_iso.wav	2	6	2	noise_calib_stim_LEFT.wav	1	1	blb_dichoticlistening_ba-ba.mp3	ba	ba	0	left
6.6.1	win	2023-07-11	14:56:35	15:14:33	1034232	5b8c7161284d9b00019dee13	1	1	main_slash	24	main_slash	63	stimuli_distractor_trianglediamonds.svg	stimuli_target_rectangletriangles.svg	9	yes	53	1	524	6	1	antiphase_hc_iso.wav	2	6	2	noise_calib_stim_LEFT.wav	1	1	blb_dichoticlistening_ba-ba.mp3	ba	ba	0	left
6.6.1	win	2023-07-11	14:56:35	15:14:33	1034232	5b8c7161284d9b00019dee13	1	1	main_slash	24	advance_on_keypress_SLASH	64	stimuli_distractor_trianglediamonds.svg	stimuli_target_rectangletriangles.svg	9	yes	57	0	464	6	1	antiphase_hc_iso.wav	2	6	2	noise_calib_stim_LEFT.wav	1	1	blb_dichoticlistening_ba-ba.mp3	ba	ba	0	left
6.6.1	win	2023-07-11	14:56:35	15:14:35	1036509	5b8c7161284d9b00019dee13	1	1	main_slash	24	main_slash	65	stimuli_distractor_trianglediamonds.svg	stimuli_distractor_trianglediamonds.svg	33	no	53	0	1167	6	1	antiphase_hc_iso.wav	2	6	2	noise_calib_stim_LEFT.wav	1	1	blb_dichoticlistening_ba-ba.mp3	ba	ba	0	left
6.6.1	win	2023-07-11	14:56:35	15:14:35	1036509	5b8c7161284d9b00019dee13	1	1	main_slash	24	advance_on_keypress_SLASH	66	stimuli_distractor_trianglediamonds.svg	stimuli_distractor_trianglediamonds.svg	33	no	57	0	539	6	1	antiphase_hc_iso.wav	2	6	2	noise_calib_stim_LEFT.wav	1	1	blb_dichoticlistening_ba-ba.mp3	ba	ba	0	left
6.6.1	win	2023-07-11	14:56:35	15:14:38	1039695	5b8c7161284d9b00019dee13	1	1	main_slash	24	main_slash	67	stimuli_distractor_diamondtriangles.svg	stimuli_target_diamondrectangles.svg	31	yes	0	0	2000	6	1	antiphase_hc_iso.wav	2	6	2	noise_calib_stim_LEFT.wav	1	1	blb_dichoticlistening_ba-ba.mp3	ba	ba	0	left
6.6.1	win	2023-07-11	14:56:35	15:14:38	1039695	5b8c7161284d9b00019dee13	1	1	main_slash	24	advance_on_keypress_SLASH	68	stimuli_distractor_diamondtriangles.svg	stimuli_target_diamondrectangles.svg	31	yes	57	0	774	6	1	antiphase_hc_iso.wav	2	6	2	noise_calib_stim_LEFT.wav	1	1	blb_dichoticlistening_ba-ba.mp3	ba	ba	0	left
6.6.1	win	2023-07-11	14:56:35	15:14:40	1041759	5b8c7161284d9b00019dee13	1	1	main_slash	24	main_slash	69	stimuli_target_squaretriangles.svg	stimuli_distractor_trianglediamonds.svg	3	yes	53	1	644	6	1	antiphase_hc_iso.wav	2	6	2	noise_calib_stim_LEFT.wav	1	1	blb_dichoticlistening_ba-ba.mp3	ba	ba	0	left
6.6.1	win	2023-07-11	14:56:35	15:14:40	1041759	5b8c7161284d9b00019dee13	1	1	main_slash	24	advance_on_keypress_SLASH	70	stimuli_target_squaretriangles.svg	stimuli_distractor_trianglediamonds.svg	3	yes	57	0	4836	6	1	antiphase_hc_iso.wav	2	6	2	noise_calib_stim_LEFT.wav	1	1	blb_dichoticlistening_ba-ba.mp3	ba	ba	0	left
6.6.1	win	2023-07-11	14:56:35	15:14:47	1047897	5b8c7161284d9b00019dee13	1	1	main_slash	24	main_slash	71	stimuli_distractor_diamondtriangles.svg	stimuli_target_squaretriangles.svg	15	yes	53	1	643	6	1	antiphase_hc_iso.wav	2	6	2	noise_calib_stim_LEFT.wav	1	1	blb_dichoticlistening_ba-ba.mp3	ba	ba	0	left
6.6.1	win	2023-07-11	14:56:35	15:14:47	1047897	5b8c7161284d9b00019dee13	1	1	main_slash	24	advance_on_keypress_SLASH	72	stimuli_distractor_diamondtriangles.svg	stimuli_target_squaretriangles.svg	15	yes	57	0	762	6	1	antiphase_hc_iso.wav	2	6	2	noise_calib_stim_LEFT.wav	1	1	blb_dichoticlistening_ba-ba.mp3	ba	ba	0	left
6.6.1	win	2023-07-11	14:56:35	15:14:49	1050049	5b8c7161284d9b00019dee13	1	1	main_slash	24	main_slash	73	stimuli_target_diamondsquares.svg	stimuli_distractor_diamondtriangles.svg	24	yes	53	1	742	6	1	antiphase_hc_iso.wav	2	6	2	noise_calib_stim_LEFT.wav	1	1	blb_dichoticlistening_ba-ba.mp3	ba	ba	0	left
6.6.1	win	2023-07-11	14:56:35	15:14:49	1050049	5b8c7161284d9b00019dee13	1	1	main_slash	24	advance_on_keypress_SLASH	74	stimuli_target_diamondsquares.svg	stimuli_distractor_diamondtriangles.svg	24	yes	57	0	717	6	1	antiphase_hc_iso.wav	2	6	2	noise_calib_stim_LEFT.wav	1	1	blb_dichoticlistening_ba-ba.mp3	ba	ba	0	left
6.6.1	win	2023-07-11	14:56:35	15:14:51	1051890	5b8c7161284d9b00019dee13	1	1	main_slash	24	main_slash	75	stimuli_target_trianglerectangles.svg	stimuli_distractor_trianglediamonds.svg	17	yes	53	1	482	6	1	antiphase_hc_iso.wav	2	6	2	noise_calib_stim_LEFT.wav	1	1	blb_dichoticlistening_ba-ba.mp3	ba	ba	0	left
6.6.1	win	2023-07-11	14:56:35	15:14:51	1051890	5b8c7161284d9b00019dee13	1	1	main_slash	24	advance_on_keypress_SLASH	76	stimuli_target_trianglerectangles.svg	stimuli_distractor_trianglediamonds.svg	17	yes	57	0	468	6	1	antiphase_hc_iso.wav	2	6	2	noise_calib_stim_LEFT.wav	1	1	blb_dichoticlistening_ba-ba.mp3	ba	ba	0	left
6.6.1	win	2023-07-11	14:56:35	15:14:52	1053546	5b8c7161284d9b00019dee13	1	1	main_slash	24	main_slash	77	stimuli_target_squaretriangles.svg	stimuli_distractor_diamondtriangles.svg	7	yes	53	1	536	6	1	antiphase_hc_iso.wav	2	6	2	noise_calib_stim_LEFT.wav	1	1	blb_dichoticlistening_ba-ba.mp3	ba	ba	0	left
6.6.1	win	2023-07-11	14:56:35	15:14:52	1053546	5b8c7161284d9b00019dee13	1	1	main_slash	24	advance_on_keypress_SLASH	78	stimuli_target_squaretriangles.svg	stimuli_distractor_diamondtriangles.svg	7	yes	57	0	649	6	1	antiphase_hc_iso.wav	2	6	2	noise_calib_stim_LEFT.wav	1	1	blb_dichoticlistening_ba-ba.mp3	ba	ba	0	left
6.6.1	win	2023-07-11	14:56:35	15:14:55	1056846	5b8c7161284d9b00019dee13	1	1	main_slash	24	main_slash	79	stimuli_target_diamondrectangles.svg	stimuli_distractor_diamondtriangles.svg	23	yes	0	0	2000	6	1	antiphase_hc_iso.wav	2	6	2	noise_calib_stim_LEFT.wav	1	1	blb_dichoticlistening_ba-ba.mp3	ba	ba	0	left
6.6.1	win	2023-07-11	14:56:35	15:14:55	1056846	5b8c7161284d9b00019dee13	1	1	main_slash	24	advance_on_keypress_SLASH	80	stimuli_target_diamondrectangles.svg	stimuli_distractor_diamondtriangles.svg	23	yes	57	0	409	6	1	antiphase_hc_iso.wav	2	6	2	noise_calib_stim_LEFT.wav	1	1	blb_dichoticlistening_ba-ba.mp3	ba	ba	0	left
6.6.1	win	2023-07-11	14:56:35	15:14:57	1058702	5b8c7161284d9b00019dee13	1	1	main_slash	24	main_slash	81	stimuli_target_diamondsquares.svg	stimuli_distractor_trianglediamonds.svg	20	yes	53	1	803	6	1	antiphase_hc_iso.wav	2	6	2	noise_calib_stim_LEFT.wav	1	1	blb_dichoticlistening_ba-ba.mp3	ba	ba	0	left
6.6.1	win	2023-07-11	14:56:35	15:14:57	1058702	5b8c7161284d9b00019dee13	1	1	main_slash	24	advance_on_keypress_SLASH	82	stimuli_target_diamondsquares.svg	stimuli_distractor_trianglediamonds.svg	20	yes	57	0	699	6	1	antiphase_hc_iso.wav	2	6	2	noise_calib_stim_LEFT.wav	1	1	blb_dichoticlistening_ba-ba.mp3	ba	ba	0	left
6.6.1	win	2023-07-11	14:56:35	15:15:01	1062051	5b8c7161284d9b00019dee13	1	1	main_slash	24	main_slash	83	stimuli_distractor_trianglediamonds.svg	stimuli_distractor_trianglediamonds.svg	33	no	0	1	2000	6	1	antiphase_hc_iso.wav	2	6	2	noise_calib_stim_LEFT.wav	1	1	blb_dichoticlistening_ba-ba.mp3	ba	ba	0	left
6.6.1	win	2023-07-11	14:56:35	15:15:01	1062051	5b8c7161284d9b00019dee13	1	1	main_slash	24	advance_on_keypress_SLASH	84	stimuli_distractor_trianglediamonds.svg	stimuli_distractor_trianglediamonds.svg	33	no	57	0	490	6	1	antiphase_hc_iso.wav	2	6	2	noise_calib_stim_LEFT.wav	1	1	blb_dichoticlistening_ba-ba.mp3	ba	ba	0	left
6.6.1	win	2023-07-11	14:56:35	15:15:03	1063880	5b8c7161284d9b00019dee13	1	1	main_slash	24	main_slash	85	stimuli_target_rectanglediamonds.svg	stimuli_distractor_trianglediamonds.svg	2	yes	53	1	692	6	1	antiphase_hc_iso.wav	2	6	2	noise_calib_stim_LEFT.wav	1	1	blb_dichoticlistening_ba-ba.mp3	ba	ba	0	left
6.6.1	win	2023-07-11	14:56:35	15:15:03	1063880	5b8c7161284d9b00019dee13	1	1	main_slash	24	advance_on_keypress_SLASH	86	stimuli_target_rectanglediamonds.svg	stimuli_distractor_trianglediamonds.svg	2	yes	57	0	579	6	1	antiphase_hc_iso.wav	2	6	2	noise_calib_stim_LEFT.wav	1	1	blb_dichoticlistening_ba-ba.mp3	ba	ba	0	left
6.6.1	win	2023-07-11	14:56:35	15:15:06	1067106	5b8c7161284d9b00019dee13	1	1	main_slash	24	main_slash	87	stimuli_target_trianglerectangles.svg	stimuli_distractor_diamondtriangles.svg	21	yes	0	0	2000	6	1	antiphase_hc_iso.wav	2	6	2	noise_calib_stim_LEFT.wav	1	1	blb_dichoticlistening_ba-ba.mp3	ba	ba	0	left
6.6.1	win	2023-07-11	14:56:35	15:15:06	1067106	5b8c7161284d9b00019dee13	1	1	main_slash	24	advance_on_keypress_SLASH	88	stimuli_target_trianglerectangles.svg	stimuli_distractor_diamondtriangles.svg	21	yes	57	0	610	6	1	antiphase_hc_iso.wav	2	6	2	noise_calib_stim_LEFT.wav	1	1	blb_dichoticlistening_ba-ba.mp3	ba	ba	0	left
6.6.1	win	2023-07-11	14:56:35	15:15:08	1069114	5b8c7161284d9b00019dee13	1	1	main_slash	24	main_slash	89	stimuli_distractor_diamondtriangles.svg	stimuli_target_rectangletriangles.svg	13	yes	53	1	738	6	1	antiphase_hc_iso.wav	2	6	2	noise_calib_stim_LEFT.wav	1	1	blb_dichoticlistening_ba-ba.mp3	ba	ba	0	left
6.6.1	win	2023-07-11	14:56:35	15:15:08	1069114	5b8c7161284d9b00019dee13	1	1	main_slash	24	advance_on_keypress_SLASH	90	stimuli_distractor_diamondtriangles.svg	stimuli_target_rectangletriangles.svg	13	yes	57	0	885	6	1	antiphase_hc_iso.wav	2	6	2	noise_calib_stim_LEFT.wav	1	1	blb_dichoticlistening_ba-ba.mp3	ba	ba	0	left
6.6.1	win	2023-07-11	14:56:35	15:15:10	1071506	5b8c7161284d9b00019dee13	1	1	main_slash	24	main_slash	91	stimuli_target_squarediamonds.svg	stimuli_distractor_trianglediamonds.svg	4	yes	53	1	861	6	1	antiphase_hc_iso.wav	2	6	2	noise_calib_stim_LEFT.wav	1	1	blb_dichoticlistening_ba-ba.mp3	ba	ba	0	left
6.6.1	win	2023-07-11	14:56:35	15:15:10	1071506	5b8c7161284d9b00019dee13	1	1	main_slash	24	advance_on_keypress_SLASH	92	stimuli_target_squarediamonds.svg	stimuli_distractor_trianglediamonds.svg	4	yes	57	0	823	6	1	antiphase_hc_iso.wav	2	6	2	noise_calib_stim_LEFT.wav	1	1	blb_dichoticlistening_ba-ba.mp3	ba	ba	0	left
6.6.1	win	2023-07-11	14:56:35	15:15:14	1074981	5b8c7161284d9b00019dee13	1	1	main_slash	24	main_slash	93	stimuli_distractor_diamondtriangles.svg	stimuli_target_trianglerectangles.svg	29	yes	0	0	2000	6	1	antiphase_hc_iso.wav	2	6	2	noise_calib_stim_LEFT.wav	1	1	blb_dichoticlistening_ba-ba.mp3	ba	ba	0	left
6.6.1	win	2023-07-11	14:56:35	15:15:14	1074981	5b8c7161284d9b00019dee13	1	1	main_slash	24	advance_on_keypress_SLASH	94	stimuli_distractor_diamondtriangles.svg	stimuli_target_trianglerectangles.svg	29	yes	57	0	1874	6	1	antiphase_hc_iso.wav	2	6	2	noise_calib_stim_LEFT.wav	1	1	blb_dichoticlistening_ba-ba.mp3	ba	ba	0	left
6.6.1	win	2023-07-11	14:56:35	15:15:17	1078175	5b8c7161284d9b00019dee13	1	1	main_slash	24	main_slash	95	stimuli_target_diamondrectangles.svg	stimuli_distractor_trianglediamonds.svg	19	yes	53	1	674	6	1	antiphase_hc_iso.wav	2	6	2	noise_calib_stim_LEFT.wav	1	1	blb_dichoticlistening_ba-ba.mp3	ba	ba	0	left
6.6.1	win	2023-07-11	14:56:35	15:15:17	1078175	5b8c7161284d9b00019dee13	1	1	main_slash	24	advance_on_keypress_SLASH	96	stimuli_target_diamondrectangles.svg	stimuli_distractor_trianglediamonds.svg	19	yes	57	0	2021	6	1	antiphase_hc_iso.wav	2	6	2	noise_calib_stim_LEFT.wav	1	1	blb_dichoticlistening_ba-ba.mp3	ba	ba	0	left
6.6.1	win	2023-07-11	14:56:35	15:15:20	1081260	5b8c7161284d9b00019dee13	1	1	main_slash	24	main_slash	97	stimuli_distractor_trianglediamonds.svg	stimuli_target_rectanglediamonds.svg	10	yes	53	1	422	6	1	antiphase_hc_iso.wav	2	6	2	noise_calib_stim_LEFT.wav	1	1	blb_dichoticlistening_ba-ba.mp3	ba	ba	0	left
6.6.1	win	2023-07-11	14:56:35	15:15:20	1081260	5b8c7161284d9b00019dee13	1	1	main_slash	24	advance_on_keypress_SLASH	98	stimuli_distractor_trianglediamonds.svg	stimuli_target_rectanglediamonds.svg	10	yes	57	0	611	6	1	antiphase_hc_iso.wav	2	6	2	noise_calib_stim_LEFT.wav	1	1	blb_dichoticlistening_ba-ba.mp3	ba	ba	0	left
6.6.1	win	2023-07-11	14:56:35	15:15:22	1083340	5b8c7161284d9b00019dee13	1	1	main_slash	24	main_slash	99	stimuli_distractor_trianglediamonds.svg	stimuli_distractor_diamondtriangles.svg	36	no	53	0	816	6	1	antiphase_hc_iso.wav	2	6	2	noise_calib_stim_LEFT.wav	1	1	blb_dichoticlistening_ba-ba.mp3	ba	ba	0	left
6.6.1	win	2023-07-11	14:56:35	15:15:22	1083340	5b8c7161284d9b00019dee13	1	1	main_slash	24	advance_on_keypress_SLASH	100	stimuli_distractor_trianglediamonds.svg	stimuli_distractor_diamondtriangles.svg	36	no	57	0	625	6	1	antiphase_hc_iso.wav	2	6	2	noise_calib_stim_LEFT.wav	1	1	blb_dichoticlistening_ba-ba.mp3	ba	ba	0	left
6.6.1	win	2023-07-11	14:56:35	15:15:24	1085125	5b8c7161284d9b00019dee13	1	1	main_slash	24	main_slash	101	stimuli_distractor_diamondtriangles.svg	stimuli_target_rectanglediamonds.svg	14	yes	53	1	504	6	1	antiphase_hc_iso.wav	2	6	2	noise_calib_stim_LEFT.wav	1	1	blb_dichoticlistening_ba-ba.mp3	ba	ba	0	left
6.6.1	win	2023-07-11	14:56:35	15:15:24	1085125	5b8c7161284d9b00019dee13	1	1	main_slash	24	advance_on_keypress_SLASH	102	stimuli_distractor_diamondtriangles.svg	stimuli_target_rectanglediamonds.svg	14	yes	57	0	576	6	1	antiphase_hc_iso.wav	2	6	2	noise_calib_stim_LEFT.wav	1	1	blb_dichoticlistening_ba-ba.mp3	ba	ba	0	left
6.6.1	win	2023-07-11	14:56:35	15:15:26	1086914	5b8c7161284d9b00019dee13	1	1	main_slash	24	main_slash	103	stimuli_target_squaretriangles.svg	stimuli_distractor_trianglediamonds.svg	3	yes	53	1	570	6	1	antiphase_hc_iso.wav	2	6	2	noise_calib_stim_LEFT.wav	1	1	blb_dichoticlistening_ba-ba.mp3	ba	ba	0	left
6.6.1	win	2023-07-11	14:56:35	15:15:26	1086914	5b8c7161284d9b00019dee13	1	1	main_slash	24	advance_on_keypress_SLASH	104	stimuli_target_squaretriangles.svg	stimuli_distractor_trianglediamonds.svg	3	yes	57	0	912	6	1	antiphase_hc_iso.wav	2	6	2	noise_calib_stim_LEFT.wav	1	1	blb_dichoticlistening_ba-ba.mp3	ba	ba	0	left
6.6.1	win	2023-07-11	14:56:35	15:15:28	1089227	5b8c7161284d9b00019dee13	1	1	main_slash	24	main_slash	105	stimuli_distractor_trianglediamonds.svg	stimuli_target_squarediamonds.svg	12	yes	53	1	748	6	1	antiphase_hc_iso.wav	2	6	2	noise_calib_stim_LEFT.wav	1	1	blb_dichoticlistening_ba-ba.mp3	ba	ba	0	left
6.6.1	win	2023-07-11	14:56:35	15:15:28	1089227	5b8c7161284d9b00019dee13	1	1	main_slash	24	advance_on_keypress_SLASH	106	stimuli_distractor_trianglediamonds.svg	stimuli_target_squarediamonds.svg	12	yes	57	0	521	6	1	antiphase_hc_iso.wav	2	6	2	noise_calib_stim_LEFT.wav	1	1	blb_dichoticlistening_ba-ba.mp3	ba	ba	0	left
6.6.1	win	2023-07-11	14:56:35	15:15:30	1090878	5b8c7161284d9b00019dee13	1	1	main_slash	24	main_slash	107	stimuli_distractor_trianglediamonds.svg	stimuli_target_squaretriangles.svg	11	yes	53	1	481	6	1	antiphase_hc_iso.wav	2	6	2	noise_calib_stim_LEFT.wav	1	1	blb_dichoticlistening_ba-ba.mp3	ba	ba	0	left
6.6.1	win	2023-07-11	14:56:35	15:15:30	1090878	5b8c7161284d9b00019dee13	1	1	main_slash	24	advance_on_keypress_SLASH	108	stimuli_distractor_trianglediamonds.svg	stimuli_target_squaretriangles.svg	11	yes	57	0	473	6	1	antiphase_hc_iso.wav	2	6	2	noise_calib_stim_LEFT.wav	1	1	blb_dichoticlistening_ba-ba.mp3	ba	ba	0	left
6.6.1	win	2023-07-11	14:56:35	15:15:31	1092571	5b8c7161284d9b00019dee13	1	1	main_slash	24	main_slash	109	stimuli_target_rectangletriangles.svg	stimuli_distractor_trianglediamonds.svg	1	yes	53	1	572	6	1	antiphase_hc_iso.wav	2	6	2	noise_calib_stim_LEFT.wav	1	1	blb_dichoticlistening_ba-ba.mp3	ba	ba	0	left
6.6.1	win	2023-07-11	14:56:35	15:15:31	1092571	5b8c7161284d9b00019dee13	1	1	main_slash	24	advance_on_keypress_SLASH	110	stimuli_target_rectangletriangles.svg	stimuli_distractor_trianglediamonds.svg	1	yes	57	0	422	6	1	antiphase_hc_iso.wav	2	6	2	noise_calib_stim_LEFT.wav	1	1	blb_dichoticlistening_ba-ba.mp3	ba	ba	0	left
6.6.1	win	2023-07-11	14:56:35	15:15:33	1094510	5b8c7161284d9b00019dee13	1	1	main_slash	24	main_slash	111	stimuli_target_diamondsquares.svg	stimuli_distractor_diamondtriangles.svg	24	yes	53	1	875	6	1	antiphase_hc_iso.wav	2	6	2	noise_calib_stim_LEFT.wav	1	1	blb_dichoticlistening_ba-ba.mp3	ba	ba	0	left
6.6.1	win	2023-07-11	14:56:35	15:15:33	1094510	5b8c7161284d9b00019dee13	1	1	main_slash	24	advance_on_keypress_SLASH	112	stimuli_target_diamondsquares.svg	stimuli_distractor_diamondtriangles.svg	24	yes	57	0	578	6	1	antiphase_hc_iso.wav	2	6	2	noise_calib_stim_LEFT.wav	1	1	blb_dichoticlistening_ba-ba.mp3	ba	ba	0	left
6.6.1	win	2023-07-11	14:56:35	15:15:35	1096539	5b8c7161284d9b00019dee13	1	1	main_slash	24	main_slash	113	stimuli_target_rectanglediamonds.svg	stimuli_distractor_diamondtriangles.svg	6	yes	53	1	802	6	1	antiphase_hc_iso.wav	2	6	2	noise_calib_stim_LEFT.wav	1	1	blb_dichoticlistening_ba-ba.mp3	ba	ba	0	left
6.6.1	win	2023-07-11	14:56:35	15:15:35	1096539	5b8c7161284d9b00019dee13	1	1	main_slash	24	advance_on_keypress_SLASH	114	stimuli_target_rectanglediamonds.svg	stimuli_distractor_diamondtriangles.svg	6	yes	57	0	462	6	1	antiphase_hc_iso.wav	2	6	2	noise_calib_stim_LEFT.wav	1	1	blb_dichoticlistening_ba-ba.mp3	ba	ba	0	left
6.6.1	win	2023-07-11	14:56:35	15:15:37	1098530	5b8c7161284d9b00019dee13	1	1	main_slash	24	main_slash	115	stimuli_target_squaretriangles.svg	stimuli_distractor_diamondtriangles.svg	7	yes	53	1	875	6	1	antiphase_hc_iso.wav	2	6	2	noise_calib_stim_LEFT.wav	1	1	blb_dichoticlistening_ba-ba.mp3	ba	ba	0	left
6.6.1	win	2023-07-11	14:56:35	15:15:37	1098530	5b8c7161284d9b00019dee13	1	1	main_slash	24	advance_on_keypress_SLASH	116	stimuli_target_squaretriangles.svg	stimuli_distractor_diamondtriangles.svg	7	yes	57	0	559	6	1	antiphase_hc_iso.wav	2	6	2	noise_calib_stim_LEFT.wav	1	1	blb_dichoticlistening_ba-ba.mp3	ba	ba	0	left
6.6.1	win	2023-07-11	14:56:35	15:15:40	1101724	5b8c7161284d9b00019dee13	1	1	main_slash	24	main_slash	117	stimuli_target_trianglesquares.svg	stimuli_distractor_diamondtriangles.svg	22	yes	0	0	2000	6	1	antiphase_hc_iso.wav	2	6	2	noise_calib_stim_LEFT.wav	1	1	blb_dichoticlistening_ba-ba.mp3	ba	ba	0	left
6.6.1	win	2023-07-11	14:56:35	15:15:40	1101724	5b8c7161284d9b00019dee13	1	1	main_slash	24	advance_on_keypress_SLASH	118	stimuli_target_trianglesquares.svg	stimuli_distractor_diamondtriangles.svg	22	yes	57	0	675	6	1	antiphase_hc_iso.wav	2	6	2	noise_calib_stim_LEFT.wav	1	1	blb_dichoticlistening_ba-ba.mp3	ba	ba	0	left
6.6.1	win	2023-07-11	14:56:35	15:15:44	1105044	5b8c7161284d9b00019dee13	1	1	main_slash	24	main_slash	119	stimuli_distractor_trianglediamonds.svg	stimuli_distractor_diamondtriangles.svg	35	no	0	1	2000	6	1	antiphase_hc_iso.wav	2	6	2	noise_calib_stim_LEFT.wav	1	1	blb_dichoticlistening_ba-ba.mp3	ba	ba	0	left
6.6.1	win	2023-07-11	14:56:35	15:15:44	1105044	5b8c7161284d9b00019dee13	1	1	main_slash	24	advance_on_keypress_SLASH	120	stimuli_distractor_trianglediamonds.svg	stimuli_distractor_diamondtriangles.svg	35	no	57	0	544	6	1	antiphase_hc_iso.wav	2	6	2	noise_calib_stim_LEFT.wav	1	1	blb_dichoticlistening_ba-ba.mp3	ba	ba	0	left
6.6.1	win	2023-07-11	14:56:35	15:15:45	1106794	5b8c7161284d9b00019dee13	1	1	main_slash	24	main_slash	121	stimuli_target_trianglerectangles.svg	stimuli_distractor_trianglediamonds.svg	17	yes	53	1	547	6	1	antiphase_hc_iso.wav	2	6	2	noise_calib_stim_LEFT.wav	1	1	blb_dichoticlistening_ba-ba.mp3	ba	ba	0	left
6.6.1	win	2023-07-11	14:56:35	15:15:45	1106794	5b8c7161284d9b00019dee13	1	1	main_slash	24	advance_on_keypress_SLASH	122	stimuli_target_trianglerectangles.svg	stimuli_distractor_trianglediamonds.svg	17	yes	57	0	598	6	1	antiphase_hc_iso.wav	2	6	2	noise_calib_stim_LEFT.wav	1	1	blb_dichoticlistening_ba-ba.mp3	ba	ba	0	left
6.6.1	win	2023-07-11	14:56:35	15:15:48	1109114	5b8c7161284d9b00019dee13	1	1	main_slash	24	main_slash	123	stimuli_distractor_diamondtriangles.svg	stimuli_target_trianglesquares.svg	30	yes	53	1	1066	6	1	antiphase_hc_iso.wav	2	6	2	noise_calib_stim_LEFT.wav	1	1	blb_dichoticlistening_ba-ba.mp3	ba	ba	0	left
6.6.1	win	2023-07-11	14:56:35	15:15:48	1109114	5b8c7161284d9b00019dee13	1	1	main_slash	24	advance_on_keypress_SLASH	124	stimuli_distractor_diamondtriangles.svg	stimuli_target_trianglesquares.svg	30	yes	57	0	675	6	1	antiphase_hc_iso.wav	2	6	2	noise_calib_stim_LEFT.wav	1	1	blb_dichoticlistening_ba-ba.mp3	ba	ba	0	left
6.6.1	win	2023-07-11	14:56:35	15:15:51	1112113	5b8c7161284d9b00019dee13	1	1	main_slash	24	main_slash	125	stimuli_distractor_diamondtriangles.svg	stimuli_target_diamondsquares.svg	32	yes	53	1	1679	6	1	antiphase_hc_iso.wav	2	6	2	noise_calib_stim_LEFT.wav	1	1	blb_dichoticlistening_ba-ba.mp3	ba	ba	0	left
6.6.1	win	2023-07-11	14:56:35	15:15:51	1112113	5b8c7161284d9b00019dee13	1	1	main_slash	24	advance_on_keypress_SLASH	126	stimuli_distractor_diamondtriangles.svg	stimuli_target_diamondsquares.svg	32	yes	57	0	364	6	1	antiphase_hc_iso.wav	2	6	2	noise_calib_stim_LEFT.wav	1	1	blb_dichoticlistening_ba-ba.mp3	ba	ba	0	left
6.6.1	win	2023-07-11	14:56:35	15:15:53	1114002	5b8c7161284d9b00019dee13	1	1	main_slash	24	main_slash	127	stimuli_distractor_trianglediamonds.svg	stimuli_target_diamondsquares.svg	28	yes	53	1	864	6	1	antiphase_hc_iso.wav	2	6	2	noise_calib_stim_LEFT.wav	1	1	blb_dichoticlistening_ba-ba.mp3	ba	ba	0	left
6.6.1	win	2023-07-11	14:56:35	15:15:53	1114002	5b8c7161284d9b00019dee13	1	1	main_slash	24	advance_on_keypress_SLASH	128	stimuli_distractor_trianglediamonds.svg	stimuli_target_diamondsquares.svg	28	yes	57	0	528	6	1	antiphase_hc_iso.wav	2	6	2	noise_calib_stim_LEFT.wav	1	1	blb_dichoticlistening_ba-ba.mp3	ba	ba	0	left
6.6.1	win	2023-07-11	14:56:35	15:15:55	1116134	5b8c7161284d9b00019dee13	1	1	main_slash	24	main_slash	129	stimuli_distractor_trianglediamonds.svg	stimuli_target_trianglerectangles.svg	25	yes	53	1	944	6	1	antiphase_hc_iso.wav	2	6	2	noise_calib_stim_LEFT.wav	1	1	blb_dichoticlistening_ba-ba.mp3	ba	ba	0	left
6.6.1	win	2023-07-11	14:56:35	15:15:55	1116134	5b8c7161284d9b00019dee13	1	1	main_slash	24	advance_on_keypress_SLASH	130	stimuli_distractor_trianglediamonds.svg	stimuli_target_trianglerectangles.svg	25	yes	57	0	518	6	1	antiphase_hc_iso.wav	2	6	2	noise_calib_stim_LEFT.wav	1	1	blb_dichoticlistening_ba-ba.mp3	ba	ba	0	left
6.6.1	win	2023-07-11	14:56:35	15:15:57	1118097	5b8c7161284d9b00019dee13	1	1	main_slash	24	main_slash	131	stimuli_distractor_trianglediamonds.svg	stimuli_target_diamondrectangles.svg	27	yes	53	1	789	6	1	antiphase_hc_iso.wav	2	6	2	noise_calib_stim_LEFT.wav	1	1	blb_dichoticlistening_ba-ba.mp3	ba	ba	0	left
6.6.1	win	2023-07-11	14:56:35	15:15:57	1118097	5b8c7161284d9b00019dee13	1	1	main_slash	24	advance_on_keypress_SLASH	132	stimuli_distractor_trianglediamonds.svg	stimuli_target_diamondrectangles.svg	27	yes	57	0	596	6	1	antiphase_hc_iso.wav	2	6	2	noise_calib_stim_LEFT.wav	1	1	blb_dichoticlistening_ba-ba.mp3	ba	ba	0	left
6.6.1	win	2023-07-11	14:56:35	15:16:00	1121344	5b8c7161284d9b00019dee13	1	1	main_slash	24	main_slash	133	stimuli_distractor_trianglediamonds.svg	stimuli_distractor_trianglediamonds.svg	34	no	0	1	2000	6	1	antiphase_hc_iso.wav	2	6	2	noise_calib_stim_LEFT.wav	1	1	blb_dichoticlistening_ba-ba.mp3	ba	ba	0	left
6.6.1	win	2023-07-11	14:56:35	15:16:00	1121344	5b8c7161284d9b00019dee13	1	1	main_slash	24	advance_on_keypress_SLASH	134	stimuli_distractor_trianglediamonds.svg	stimuli_distractor_trianglediamonds.svg	34	no	57	0	1259	6	1	antiphase_hc_iso.wav	2	6	2	noise_calib_stim_LEFT.wav	1	1	blb_dichoticlistening_ba-ba.mp3	ba	ba	0	left
6.6.1	win	2023-07-11	14:56:35	15:16:03	1123880	5b8c7161284d9b00019dee13	1	1	main_slash	24	main_slash	135	stimuli_target_trianglesquares.svg	stimuli_distractor_trianglediamonds.svg	18	yes	53	1	632	6	1	antiphase_hc_iso.wav	2	6	2	noise_calib_stim_LEFT.wav	1	1	blb_dichoticlistening_ba-ba.mp3	ba	ba	0	left
6.6.1	win	2023-07-11	14:56:35	15:16:03	1123880	5b8c7161284d9b00019dee13	1	1	main_slash	24	advance_on_keypress_SLASH	136	stimuli_target_trianglesquares.svg	stimuli_distractor_trianglediamonds.svg	18	yes	57	0	615	6	1	antiphase_hc_iso.wav	2	6	2	noise_calib_stim_LEFT.wav	1	1	blb_dichoticlistening_ba-ba.mp3	ba	ba	0	left
6.6.1	win	2023-07-11	14:56:35	15:16:04	1125687	5b8c7161284d9b00019dee13	1	1	main_slash	24	main_slash	137	stimuli_distractor_diamondtriangles.svg	stimuli_target_squaretriangles.svg	15	yes	53	1	537	6	1	antiphase_hc_iso.wav	2	6	2	noise_calib_stim_LEFT.wav	1	1	blb_dichoticlistening_ba-ba.mp3	ba	ba	0	left
6.6.1	win	2023-07-11	14:56:35	15:16:04	1125687	5b8c7161284d9b00019dee13	1	1	main_slash	24	advance_on_keypress_SLASH	138	stimuli_distractor_diamondtriangles.svg	stimuli_target_squaretriangles.svg	15	yes	57	0	1221	6	1	antiphase_hc_iso.wav	2	6	2	noise_calib_stim_LEFT.wav	1	1	blb_dichoticlistening_ba-ba.mp3	ba	ba	0	left
6.6.1	win	2023-07-11	14:56:35	15:16:07	1128293	5b8c7161284d9b00019dee13	1	1	main_slash	24	main_slash	139	stimuli_distractor_diamondtriangles.svg	stimuli_distractor_diamondtriangles.svg	40	no	53	0	741	6	1	antiphase_hc_iso.wav	2	6	2	noise_calib_stim_LEFT.wav	1	1	blb_dichoticlistening_ba-ba.mp3	ba	ba	0	left
6.6.1	win	2023-07-11	14:56:35	15:16:07	1128293	5b8c7161284d9b00019dee13	1	1	main_slash	24	advance_on_keypress_SLASH	140	stimuli_distractor_diamondtriangles.svg	stimuli_distractor_diamondtriangles.svg	40	no	57	0	433	6	1	antiphase_hc_iso.wav	2	6	2	noise_calib_stim_LEFT.wav	1	1	blb_dichoticlistening_ba-ba.mp3	ba	ba	0	left
6.6.1	win	2023-07-11	14:56:35	15:16:09	1130269	5b8c7161284d9b00019dee13	1	1	main_slash	24	main_slash	141	stimuli_distractor_diamondtriangles.svg	stimuli_distractor_trianglediamonds.svg	37	no	53	0	898	6	1	antiphase_hc_iso.wav	2	6	2	noise_calib_stim_LEFT.wav	1	1	blb_dichoticlistening_ba-ba.mp3	ba	ba	0	left
6.6.1	win	2023-07-11	14:56:35	15:16:09	1130269	5b8c7161284d9b00019dee13	1	1	main_slash	24	advance_on_keypress_SLASH	142	stimuli_distractor_diamondtriangles.svg	stimuli_distractor_trianglediamonds.svg	37	no	57	0	531	6	1	antiphase_hc_iso.wav	2	6	2	noise_calib_stim_LEFT.wav	1	1	blb_dichoticlistening_ba-ba.mp3	ba	ba	0	left
6.6.1	win	2023-07-11	14:56:35	15:16:12	1133456	5b8c7161284d9b00019dee13	1	1	main_slash	24	main_slash	143	stimuli_distractor_diamondtriangles.svg	stimuli_distractor_diamondtriangles.svg	39	no	0	1	2000	6	1	antiphase_hc_iso.wav	2	6	2	noise_calib_stim_LEFT.wav	1	1	blb_dichoticlistening_ba-ba.mp3	ba	ba	0	left
6.6.1	win	2023-07-11	14:56:35	15:16:12	1133456	5b8c7161284d9b00019dee13	1	1	main_slash	24	advance_on_keypress_SLASH	144	stimuli_distractor_diamondtriangles.svg	stimuli_distractor_diamondtriangles.svg	39	no	57	0	416	6	1	antiphase_hc_iso.wav	2	6	2	noise_calib_stim_LEFT.wav	1	1	blb_dichoticlistening_ba-ba.mp3	ba	ba	0	left
6.6.1	win	2023-07-11	14:56:35	15:16:14	1135296	5b8c7161284d9b00019dee13	1	1	main_slash	24	main_slash	145	stimuli_distractor_trianglediamonds.svg	stimuli_target_rectangletriangles.svg	9	yes	53	1	770	6	1	antiphase_hc_iso.wav	2	6	2	noise_calib_stim_LEFT.wav	1	1	blb_dichoticlistening_ba-ba.mp3	ba	ba	0	left
6.6.1	win	2023-07-11	14:56:35	15:16:14	1135296	5b8c7161284d9b00019dee13	1	1	main_slash	24	advance_on_keypress_SLASH	146	stimuli_distractor_trianglediamonds.svg	stimuli_target_rectangletriangles.svg	9	yes	57	0	616	6	1	antiphase_hc_iso.wav	2	6	2	noise_calib_stim_LEFT.wav	1	1	blb_dichoticlistening_ba-ba.mp3	ba	ba	0	left
6.6.1	win	2023-07-11	14:56:35	15:16:16	1137162	5b8c7161284d9b00019dee13	1	1	main_slash	24	main_slash	147	stimuli_distractor_diamondtriangles.svg	stimuli_target_squarediamonds.svg	16	yes	53	1	602	6	1	antiphase_hc_iso.wav	2	6	2	noise_calib_stim_LEFT.wav	1	1	blb_dichoticlistening_ba-ba.mp3	ba	ba	0	left
6.6.1	win	2023-07-11	14:56:35	15:16:16	1137162	5b8c7161284d9b00019dee13	1	1	main_slash	24	advance_on_keypress_SLASH	148	stimuli_distractor_diamondtriangles.svg	stimuli_target_squarediamonds.svg	16	yes	57	0	610	6	1	antiphase_hc_iso.wav	2	6	2	noise_calib_stim_LEFT.wav	1	1	blb_dichoticlistening_ba-ba.mp3	ba	ba	0	left
6.6.1	win	2023-07-11	14:56:35	15:16:19	1140429	5b8c7161284d9b00019dee13	1	1	main_slash	24	main_slash	149	stimuli_target_diamondrectangles.svg	stimuli_distractor_diamondtriangles.svg	23	yes	0	0	2000	6	1	antiphase_hc_iso.wav	2	6	2	noise_calib_stim_LEFT.wav	1	1	blb_dichoticlistening_ba-ba.mp3	ba	ba	0	left
6.6.1	win	2023-07-11	14:56:35	15:16:19	1140429	5b8c7161284d9b00019dee13	1	1	main_slash	24	advance_on_keypress_SLASH	150	stimuli_target_diamondrectangles.svg	stimuli_distractor_diamondtriangles.svg	23	yes	57	0	482	6	1	antiphase_hc_iso.wav	2	6	2	noise_calib_stim_LEFT.wav	1	1	blb_dichoticlistening_ba-ba.mp3	ba	ba	0	left
6.6.1	win	2023-07-11	14:56:35	15:16:22	1143566	5b8c7161284d9b00019dee13	1	1	main_slash	24	main_slash	151	stimuli_distractor_diamondtriangles.svg	stimuli_distractor_trianglediamonds.svg	38	no	0	1	2000	6	1	antiphase_hc_iso.wav	2	6	2	noise_calib_stim_LEFT.wav	1	1	blb_dichoticlistening_ba-ba.mp3	ba	ba	0	left
6.6.1	win	2023-07-11	14:56:35	15:16:22	1143566	5b8c7161284d9b00019dee13	1	1	main_slash	24	advance_on_keypress_SLASH	152	stimuli_distractor_diamondtriangles.svg	stimuli_distractor_trianglediamonds.svg	38	no	57	0	142	6	1	antiphase_hc_iso.wav	2	6	2	noise_calib_stim_LEFT.wav	1	1	blb_dichoticlistening_ba-ba.mp3	ba	ba	0	left
6.6.1	win	2023-07-11	14:56:35	15:16:24	1144903	5b8c7161284d9b00019dee13	1	1	main_slash	24	main_slash	153	stimuli_target_rectangletriangles.svg	stimuli_distractor_diamondtriangles.svg	5	yes	53	1	551	6	1	antiphase_hc_iso.wav	2	6	2	noise_calib_stim_LEFT.wav	1	1	blb_dichoticlistening_ba-ba.mp3	ba	ba	0	left
6.6.1	win	2023-07-11	14:56:35	15:16:24	1144903	5b8c7161284d9b00019dee13	1	1	main_slash	24	advance_on_keypress_SLASH	154	stimuli_target_rectangletriangles.svg	stimuli_distractor_diamondtriangles.svg	5	yes	57	0	1563	6	1	antiphase_hc_iso.wav	2	6	2	noise_calib_stim_LEFT.wav	1	1	blb_dichoticlistening_ba-ba.mp3	ba	ba	0	left
6.6.1	win	2023-07-11	14:56:35	15:16:26	1147813	5b8c7161284d9b00019dee13	1	1	main_slash	24	main_slash	155	stimuli_distractor_diamondtriangles.svg	stimuli_target_diamondrectangles.svg	31	yes	53	1	691	6	1	antiphase_hc_iso.wav	2	6	2	noise_calib_stim_LEFT.wav	1	1	blb_dichoticlistening_ba-ba.mp3	ba	ba	0	left
6.6.1	win	2023-07-11	14:56:35	15:16:26	1147813	5b8c7161284d9b00019dee13	1	1	main_slash	24	advance_on_keypress_SLASH	156	stimuli_distractor_diamondtriangles.svg	stimuli_target_diamondrectangles.svg	31	yes	57	0	581	6	1	antiphase_hc_iso.wav	2	6	2	noise_calib_stim_LEFT.wav	1	1	blb_dichoticlistening_ba-ba.mp3	ba	ba	0	left
6.6.1	win	2023-07-11	14:56:35	15:16:28	1149714	5b8c7161284d9b00019dee13	1	1	main_slash	24	main_slash	157	stimuli_distractor_trianglediamonds.svg	stimuli_target_trianglesquares.svg	26	yes	53	1	675	6	1	antiphase_hc_iso.wav	2	6	2	noise_calib_stim_LEFT.wav	1	1	blb_dichoticlistening_ba-ba.mp3	ba	ba	0	left
6.6.1	win	2023-07-11	14:56:35	15:16:28	1149714	5b8c7161284d9b00019dee13	1	1	main_slash	24	advance_on_keypress_SLASH	158	stimuli_distractor_trianglediamonds.svg	stimuli_target_trianglesquares.svg	26	yes	57	0	574	6	1	antiphase_hc_iso.wav	2	6	2	noise_calib_stim_LEFT.wav	1	1	blb_dichoticlistening_ba-ba.mp3	ba	ba	0	left
6.6.1	win	2023-07-11	14:56:35	15:16:30	1151501	5b8c7161284d9b00019dee13	1	1	main_slash	24	main_slash	159	stimuli_target_squarediamonds.svg	stimuli_distractor_diamondtriangles.svg	8	yes	53	1	577	6	1	antiphase_hc_iso.wav	2	6	2	noise_calib_stim_LEFT.wav	1	1	blb_dichoticlistening_ba-ba.mp3	ba	ba	0	left
6.6.1	win	2023-07-11	14:56:35	15:16:30	1151501	5b8c7161284d9b00019dee13	1	1	main_slash	24	advance_on_keypress_SLASH	160	stimuli_target_squarediamonds.svg	stimuli_distractor_diamondtriangles.svg	8	yes	57	0	489	6	1	antiphase_hc_iso.wav	2	6	2	noise_calib_stim_LEFT.wav	1	1	blb_dichoticlistening_ba-ba.mp3	ba	ba	0	left
6.6.1	win	2023-07-11	14:56:35	15:18:03	1244102	5b8c7161284d9b00019dee13	1	1	practice_z	26	practice_z	1	stimuli_target_squarediamonds.svg	stimuli_distractor_trianglediamonds.svg	5	yes	44	1	468	6	1	antiphase_hc_iso.wav	2	6	2	noise_calib_stim_LEFT.wav	1	1	blb_dichoticlistening_ba-ba.mp3	ba	ba	0	left
6.6.1	win	2023-07-11	14:56:35	15:18:03	1244102	5b8c7161284d9b00019dee13	1	1	practice_z	26	advance_on_keypress_ZEE	2	stimuli_target_squarediamonds.svg	stimuli_distractor_trianglediamonds.svg	5	yes	57	0	434	6	1	antiphase_hc_iso.wav	2	6	2	noise_calib_stim_LEFT.wav	1	1	blb_dichoticlistening_ba-ba.mp3	ba	ba	0	left
6.6.1	win	2023-07-11	14:56:35	15:18:05	1246719	5b8c7161284d9b00019dee13	1	1	practice_z	26	practice_z	3	stimuli_distractor_diamondtriangles.svg	stimuli_target_trianglerectangles.svg	9	yes	44	1	532	6	1	antiphase_hc_iso.wav	2	6	2	noise_calib_stim_LEFT.wav	1	1	blb_dichoticlistening_ba-ba.mp3	ba	ba	0	left
6.6.1	win	2023-07-11	14:56:35	15:18:05	1246719	5b8c7161284d9b00019dee13	1	1	practice_z	26	advance_on_keypress_ZEE	4	stimuli_distractor_diamondtriangles.svg	stimuli_target_trianglerectangles.svg	9	yes	57	0	475	6	1	antiphase_hc_iso.wav	2	6	2	noise_calib_stim_LEFT.wav	1	1	blb_dichoticlistening_ba-ba.mp3	ba	ba	0	left
6.6.1	win	2023-07-11	14:56:35	15:18:08	1249424	5b8c7161284d9b00019dee13	1	1	practice_z	26	practice_z	5	stimuli_target_rectanglediamonds.svg	stimuli_distractor_diamondtriangles.svg	1	yes	44	1	584	6	1	antiphase_hc_iso.wav	2	6	2	noise_calib_stim_LEFT.wav	1	1	blb_dichoticlistening_ba-ba.mp3	ba	ba	0	left
6.6.1	win	2023-07-11	14:56:35	15:18:08	1249424	5b8c7161284d9b00019dee13	1	1	practice_z	26	advance_on_keypress_ZEE	6	stimuli_target_rectanglediamonds.svg	stimuli_distractor_diamondtriangles.svg	1	yes	57	0	393	6	1	antiphase_hc_iso.wav	2	6	2	noise_calib_stim_LEFT.wav	1	1	blb_dichoticlistening_ba-ba.mp3	ba	ba	0	left
6.6.1	win	2023-07-11	14:56:35	15:18:12	1253477	5b8c7161284d9b00019dee13	1	1	practice_z	26	practice_z	7	stimuli_target_diamondsquares.svg	stimuli_distractor_trianglediamonds.svg	6	yes	0	0	2000	6	1	antiphase_hc_iso.wav	2	6	2	noise_calib_stim_LEFT.wav	1	1	blb_dichoticlistening_ba-ba.mp3	ba	ba	0	left
6.6.1	win	2023-07-11	14:56:35	15:18:12	1253477	5b8c7161284d9b00019dee13	1	1	practice_z	26	advance_on_keypress_ZEE	8	stimuli_target_diamondsquares.svg	stimuli_distractor_trianglediamonds.svg	6	yes	57	0	424	6	1	antiphase_hc_iso.wav	2	6	2	noise_calib_stim_LEFT.wav	1	1	blb_dichoticlistening_ba-ba.mp3	ba	ba	0	left
6.6.1	win	2023-07-11	14:56:35	15:18:15	1256012	5b8c7161284d9b00019dee13	1	1	practice_z	26	practice_z	9	stimuli_target_squarediamonds.svg	stimuli_distractor_diamondtriangles.svg	2	yes	44	1	465	6	1	antiphase_hc_iso.wav	2	6	2	noise_calib_stim_LEFT.wav	1	1	blb_dichoticlistening_ba-ba.mp3	ba	ba	0	left
6.6.1	win	2023-07-11	14:56:35	15:18:15	1256012	5b8c7161284d9b00019dee13	1	1	practice_z	26	advance_on_keypress_ZEE	10	stimuli_target_squarediamonds.svg	stimuli_distractor_diamondtriangles.svg	2	yes	57	0	578	6	1	antiphase_hc_iso.wav	2	6	2	noise_calib_stim_LEFT.wav	1	1	blb_dichoticlistening_ba-ba.mp3	ba	ba	0	left
6.6.1	win	2023-07-11	14:56:35	15:18:17	1258819	5b8c7161284d9b00019dee13	1	1	practice_z	26	practice_z	11	stimuli_distractor_diamondtriangles.svg	stimuli_target_rectangletriangles.svg	7	yes	44	1	570	6	1	antiphase_hc_iso.wav	2	6	2	noise_calib_stim_LEFT.wav	1	1	blb_dichoticlistening_ba-ba.mp3	ba	ba	0	left
6.6.1	win	2023-07-11	14:56:35	15:18:17	1258819	5b8c7161284d9b00019dee13	1	1	practice_z	26	advance_on_keypress_ZEE	12	stimuli_distractor_diamondtriangles.svg	stimuli_target_rectangletriangles.svg	7	yes	57	0	260	6	1	antiphase_hc_iso.wav	2	6	2	noise_calib_stim_LEFT.wav	1	1	blb_dichoticlistening_ba-ba.mp3	ba	ba	0	left
6.6.1	win	2023-07-11	14:56:35	15:18:20	1261360	5b8c7161284d9b00019dee13	1	1	practice_z	26	practice_z	13	stimuli_distractor_trianglediamonds.svg	stimuli_target_diamondrectangles.svg	12	yes	44	1	625	6	1	antiphase_hc_iso.wav	2	6	2	noise_calib_stim_LEFT.wav	1	1	blb_dichoticlistening_ba-ba.mp3	ba	ba	0	left
6.6.1	win	2023-07-11	14:56:35	15:18:20	1261360	5b8c7161284d9b00019dee13	1	1	practice_z	26	advance_on_keypress_ZEE	14	stimuli_distractor_trianglediamonds.svg	stimuli_target_diamondrectangles.svg	12	yes	57	0	386	6	1	antiphase_hc_iso.wav	2	6	2	noise_calib_stim_LEFT.wav	1	1	blb_dichoticlistening_ba-ba.mp3	ba	ba	0	left
6.6.1	win	2023-07-11	14:56:35	15:18:22	1263786	5b8c7161284d9b00019dee13	1	1	practice_z	26	practice_z	15	stimuli_distractor_trianglediamonds.svg	stimuli_target_squarediamonds.svg	11	yes	44	1	398	6	1	antiphase_hc_iso.wav	2	6	2	noise_calib_stim_LEFT.wav	1	1	blb_dichoticlistening_ba-ba.mp3	ba	ba	0	left
6.6.1	win	2023-07-11	14:56:35	15:18:22	1263786	5b8c7161284d9b00019dee13	1	1	practice_z	26	advance_on_keypress_ZEE	16	stimuli_distractor_trianglediamonds.svg	stimuli_target_squarediamonds.svg	11	yes	57	0	645	6	1	antiphase_hc_iso.wav	2	6	2	noise_calib_stim_LEFT.wav	1	1	blb_dichoticlistening_ba-ba.mp3	ba	ba	0	left
