build	computer.platform	date	time	timestamp	time_elapsed_ms	subject	group	session	blockcode	blocknum	trialcode	trialnum	stimulus_left	stimulus_right	stim_index	target_present	response	correct	latency	headphonecheck_countTestTrials	headphonecheck_index	headphonecheck_testSound	headphonecheck_correctResponse	stereocheck_countTestTrials	stereocheck_index	stereocheck_testSound	stereocheck_correctResponse	DL_index	DL_soundfile	DL_leftSound	DL_rightSound	DL_dualSound	DL_choice
6.6.1	win	2023-06-24	09:31:31	0	0	63f8a056531af02b77961676	1	1	headphonecheck_calibration	4	headphonecheck_calibrationIntro	1			0		calibrationButton	0	6851	0	0			0	0			1				0	
6.6.1	win	2023-06-24	09:31:31	0	0	63f8a056531af02b77961676	1	1	headphonecheck_testphase	5	test_collectResponse	3			0		first	0	25840	1	5	antiphase_hc_osi.wav	2	0	0			1				0	
6.6.1	win	2023-06-24	09:31:31	0	0	63f8a056531af02b77961676	1	1	headphonecheck_testphase	5	test_collectResponse	6			0		second	0	9738	2	2	antiphase_hc_ios.wav	3	0	0			1				0	
6.6.1	win	2023-06-24	09:31:31	0	0	63f8a056531af02b77961676	1	1	headphonecheck_testphase	5	test_collectResponse	9			0		third	1	5003	3	6	antiphase_hc_ois.wav	3	0	0			1				0	
6.6.1	win	2023-06-24	09:31:31	0	0	63f8a056531af02b77961676	1	1	headphonecheck_testphase	5	test_collectResponse	12			0		second	0	10035	4	4	antiphase_hc_sio.wav	1	0	0			1				0	
6.6.1	win	2023-06-24	09:31:31	0	0	63f8a056531af02b77961676	1	1	headphonecheck_testphase	5	test_collectResponse	15			0		third	0	5894	5	1	antiphase_hc_iso.wav	2	0	0			1				0	
6.6.1	win	2023-06-24	09:31:31	0	0	63f8a056531af02b77961676	1	1	headphonecheck_testphase	5	test_collectResponse	18			0		first	1	7566	6	3	antiphase_hc_soi.wav	1	0	0			1				0	
6.6.1	win	2023-06-24	09:31:31	0	0	63f8a056531af02b77961676	1	1	stereocheck_calibration	7	stereocheck_calibrationIntro	1			0		stereocheck_calibrationButton	0	12645	6	3	antiphase_hc_soi.wav	1	0	0			1				0	
6.6.1	win	2023-06-24	09:31:31	0	0	63f8a056531af02b77961676	1	1	stereocheck_testphase	8	stereocheck_test_collectResponse	3			0		stereocheck_left	1	1871	6	3	antiphase_hc_soi.wav	1	1	1	noise_calib_stim_LEFT.wav	1	1				0	
6.6.1	win	2023-06-24	09:31:31	0	0	63f8a056531af02b77961676	1	1	stereocheck_testphase	8	stereocheck_test_collectResponse	6			0		stereocheck_left	1	37	6	3	antiphase_hc_soi.wav	1	2	3	noise_calib_stim_LEFT.wav	1	1				0	
6.6.1	win	2023-06-24	09:31:31	0	0	63f8a056531af02b77961676	1	1	stereocheck_testphase	8	stereocheck_test_collectResponse	9			0		stereocheck_right	0	1816	6	3	antiphase_hc_soi.wav	1	3	2	noise_calib_stim_LEFT.wav	1	1				0	
6.6.1	win	2023-06-24	09:31:31	0	0	63f8a056531af02b77961676	1	1	stereocheck_testphase	8	stereocheck_test_collectResponse	12			0		stereocheck_left	0	585	6	3	antiphase_hc_soi.wav	1	4	5	noise_calib_stim_RIGHT.wav	2	1				0	
6.6.1	win	2023-06-24	09:31:31	0	0	63f8a056531af02b77961676	1	1	stereocheck_testphase	8	stereocheck_test_collectResponse	15			0		stereocheck_left	0	229	6	3	antiphase_hc_soi.wav	1	5	4	noise_calib_stim_RIGHT.wav	2	1				0	
6.6.1	win	2023-06-24	09:31:31	0	0	63f8a056531af02b77961676	1	1	stereocheck_testphase	8	stereocheck_test_collectResponse	18			0		stereocheck_right	1	1045	6	3	antiphase_hc_soi.wav	1	6	6	noise_calib_stim_RIGHT.wav	2	1				0	
6.6.1	win	2023-06-24	09:31:31	0	0	63f8a056531af02b77961676	1	1	DL_practice	11	DL_practice	2			0		ga	0	3384	6	3	antiphase_hc_soi.wav	1	6	6	noise_calib_stim_RIGHT.wav	2	23	blb_dichoticlistening_ka-pa.mp3	ka	pa	1	other
6.6.1	win	2023-06-24	09:31:31	0	0	63f8a056531af02b77961676	1	1	DL_practice	11	DL_practice	3			0		ka	0	1579	6	3	antiphase_hc_soi.wav	1	6	6	noise_calib_stim_RIGHT.wav	2	29	blb_dichoticlistening_pa-pa.mp3	pa	pa	0	other
6.6.1	win	2023-06-24	09:31:31	0	0	63f8a056531af02b77961676	1	1	DL_practice	11	DL_practice	4			0		ta	1	1609	6	3	antiphase_hc_soi.wav	1	6	6	noise_calib_stim_RIGHT.wav	2	36	blb_dichoticlistening_ta-ta.mp3	ta	ta	0	left
6.6.1	win	2023-06-24	09:31:31	0	0	63f8a056531af02b77961676	1	1	DL_practice	11	DL_practice	5			0		da	1	1471	6	3	antiphase_hc_soi.wav	1	6	6	noise_calib_stim_RIGHT.wav	2	8	blb_dichoticlistening_da-da.mp3	da	da	0	left
6.6.1	win	2023-06-24	09:31:31	0	0	63f8a056531af02b77961676	1	1	DL_practice	11	DL_practice	6			0		ga	1	1367	6	3	antiphase_hc_soi.wav	1	6	6	noise_calib_stim_RIGHT.wav	2	18	blb_dichoticlistening_ga-ta.mp3	ga	ta	1	left
6.6.1	win	2023-06-24	09:31:31	0	0	63f8a056531af02b77961676	1	1	DL_practice	11	DL_practice	7			0		da	0	3075	6	3	antiphase_hc_soi.wav	1	6	6	noise_calib_stim_RIGHT.wav	2	15	blb_dichoticlistening_ga-ga.mp3	ga	ga	0	other
6.6.1	win	2023-06-24	09:31:31	0	0	63f8a056531af02b77961676	1	1	DL_practice	11	DL_practice	8			0		ka	1	1440	6	3	antiphase_hc_soi.wav	1	6	6	noise_calib_stim_RIGHT.wav	2	22	blb_dichoticlistening_ka-ka.mp3	ka	ka	0	left
6.6.1	win	2023-06-24	09:31:31	0	0	63f8a056531af02b77961676	1	1	DL_practice	11	DL_practice	9			0		da	1	1860	6	3	antiphase_hc_soi.wav	1	6	6	noise_calib_stim_RIGHT.wav	2	7	blb_dichoticlistening_da-ba.mp3	da	ba	1	left
6.6.1	win	2023-06-24	09:31:31	0	0	63f8a056531af02b77961676	1	1	DL_practice	11	DL_practice	10			0		ka	0	2073	6	3	antiphase_hc_soi.wav	1	6	6	noise_calib_stim_RIGHT.wav	2	1	blb_dichoticlistening_ba-ba.mp3	ba	ba	0	other
6.6.1	win	2023-06-24	09:31:31	0	0	63f8a056531af02b77961676	1	1	DL_test	13	DL_test	1			0		da	1	1214	6	3	antiphase_hc_soi.wav	1	6	6	noise_calib_stim_RIGHT.wav	2	11	blb_dichoticlistening_da-pa.mp3	da	pa	1	left
6.6.1	win	2023-06-24	09:31:31	0	0	63f8a056531af02b77961676	1	1	DL_test	13	DL_test	2			0		ka	1	1525	6	3	antiphase_hc_soi.wav	1	6	6	noise_calib_stim_RIGHT.wav	2	20	blb_dichoticlistening_ka-da.mp3	ka	da	1	left
6.6.1	win	2023-06-24	09:31:31	0	0	63f8a056531af02b77961676	1	1	DL_test	13	DL_test	3			0		ba	1	1378	6	3	antiphase_hc_soi.wav	1	6	6	noise_calib_stim_RIGHT.wav	2	4	blb_dichoticlistening_ba-ka.mp3	ba	ka	1	left
6.6.1	win	2023-06-24	09:31:31	0	0	63f8a056531af02b77961676	1	1	DL_test	13	DL_test	4			0		pa	0	1063	6	3	antiphase_hc_soi.wav	1	6	6	noise_calib_stim_RIGHT.wav	2	8	blb_dichoticlistening_da-da.mp3	da	da	0	other
6.6.1	win	2023-06-24	09:31:31	0	0	63f8a056531af02b77961676	1	1	DL_test	13	DL_test	5			0		ka	0	1639	6	3	antiphase_hc_soi.wav	1	6	6	noise_calib_stim_RIGHT.wav	2	31	blb_dichoticlistening_ta-ba.mp3	ta	ba	1	other
6.6.1	win	2023-06-24	09:31:31	0	0	63f8a056531af02b77961676	1	1	DL_test	13	DL_test	6			0		ta	0	1322	6	3	antiphase_hc_soi.wav	1	6	6	noise_calib_stim_RIGHT.wav	2	2	blb_dichoticlistening_ba-da.mp3	ba	da	1	other
6.6.1	win	2023-06-24	09:31:31	0	0	63f8a056531af02b77961676	1	1	DL_test	13	DL_test	7			0		ga	0	1347	6	3	antiphase_hc_soi.wav	1	6	6	noise_calib_stim_RIGHT.wav	2	25	blb_dichoticlistening_pa-ba.mp3	pa	ba	1	other
6.6.1	win	2023-06-24	09:31:31	0	0	63f8a056531af02b77961676	1	1	DL_test	13	DL_test	8			0		da	0	1010	6	3	antiphase_hc_soi.wav	1	6	6	noise_calib_stim_RIGHT.wav	2	17	blb_dichoticlistening_ga-pa.mp3	ga	pa	1	other
6.6.1	win	2023-06-24	09:31:31	0	0	63f8a056531af02b77961676	1	1	DL_test	13	DL_test	9			0		ta	1	2066	6	3	antiphase_hc_soi.wav	1	6	6	noise_calib_stim_RIGHT.wav	2	36	blb_dichoticlistening_ta-ta.mp3	ta	ta	0	left
6.6.1	win	2023-06-24	09:31:31	0	0	63f8a056531af02b77961676	1	1	DL_test	13	DL_test	10			0		ba	0	1385	6	3	antiphase_hc_soi.wav	1	6	6	noise_calib_stim_RIGHT.wav	2	26	blb_dichoticlistening_pa-da.mp3	pa	da	1	other
6.6.1	win	2023-06-24	09:31:31	0	0	63f8a056531af02b77961676	1	1	DL_test	13	DL_test	11			0		da	0	626	6	3	antiphase_hc_soi.wav	1	6	6	noise_calib_stim_RIGHT.wav	2	13	blb_dichoticlistening_ga-ba.mp3	ga	ba	1	other
6.6.1	win	2023-06-24	09:31:31	0	0	63f8a056531af02b77961676	1	1	DL_test	13	DL_test	12			0		ga	0	1075	6	3	antiphase_hc_soi.wav	1	6	6	noise_calib_stim_RIGHT.wav	2	10	blb_dichoticlistening_da-ka.mp3	da	ka	1	other
6.6.1	win	2023-06-24	09:31:31	0	0	63f8a056531af02b77961676	1	1	DL_test	13	DL_test	13			0		da	1	519	6	3	antiphase_hc_soi.wav	1	6	6	noise_calib_stim_RIGHT.wav	2	9	blb_dichoticlistening_da-ga.mp3	da	ga	1	left
6.6.1	win	2023-06-24	09:31:31	0	0	63f8a056531af02b77961676	1	1	DL_test	13	DL_test	14			0		ka	1	774	6	3	antiphase_hc_soi.wav	1	6	6	noise_calib_stim_RIGHT.wav	2	19	blb_dichoticlistening_ka-ba.mp3	ka	ba	1	left
6.6.1	win	2023-06-24	09:31:31	0	0	63f8a056531af02b77961676	1	1	DL_test	13	DL_test	15			0		pa	1	767	6	3	antiphase_hc_soi.wav	1	6	6	noise_calib_stim_RIGHT.wav	2	28	blb_dichoticlistening_pa-ka.mp3	pa	ka	1	left
6.6.1	win	2023-06-24	09:31:31	0	0	63f8a056531af02b77961676	1	1	DL_test	13	DL_test	16			0		ka	0	627	6	3	antiphase_hc_soi.wav	1	6	6	noise_calib_stim_RIGHT.wav	2	30	blb_dichoticlistening_pa-ta.mp3	pa	ta	1	other
6.6.1	win	2023-06-24	09:31:31	0	0	63f8a056531af02b77961676	1	1	DL_test	13	DL_test	17			0		ka	1	445	6	3	antiphase_hc_soi.wav	1	6	6	noise_calib_stim_RIGHT.wav	2	24	blb_dichoticlistening_ka-ta.mp3	ka	ta	1	left
6.6.1	win	2023-06-24	09:31:31	0	0	63f8a056531af02b77961676	1	1	DL_test	13	DL_test	18			0		pa	0	1009	6	3	antiphase_hc_soi.wav	1	6	6	noise_calib_stim_RIGHT.wav	2	18	blb_dichoticlistening_ga-ta.mp3	ga	ta	1	other
6.6.1	win	2023-06-24	09:31:31	0	0	63f8a056531af02b77961676	1	1	DL_test	13	DL_test	19			0		ka	1	1258	6	3	antiphase_hc_soi.wav	1	6	6	noise_calib_stim_RIGHT.wav	2	21	blb_dichoticlistening_ka-ga.mp3	ka	ga	1	left
6.6.1	win	2023-06-24	09:31:31	0	0	63f8a056531af02b77961676	1	1	DL_test	13	DL_test	20			0		ba	1	1093	6	3	antiphase_hc_soi.wav	1	6	6	noise_calib_stim_RIGHT.wav	2	6	blb_dichoticlistening_ba-ta.mp3	ba	ta	1	left
6.6.1	win	2023-06-24	09:31:31	0	0	63f8a056531af02b77961676	1	1	DL_test	13	DL_test	21			0		da	0	665	6	3	antiphase_hc_soi.wav	1	6	6	noise_calib_stim_RIGHT.wav	2	34	blb_dichoticlistening_ta-ka.mp3	ta	ka	1	other
6.6.1	win	2023-06-24	09:31:31	0	0	63f8a056531af02b77961676	1	1	DL_test	13	DL_test	22			0		ga	0	806	6	3	antiphase_hc_soi.wav	1	6	6	noise_calib_stim_RIGHT.wav	2	7	blb_dichoticlistening_da-ba.mp3	da	ba	1	other
6.6.1	win	2023-06-24	09:31:31	0	0	63f8a056531af02b77961676	1	1	DL_test	13	DL_test	23			0		da	0	630	6	3	antiphase_hc_soi.wav	1	6	6	noise_calib_stim_RIGHT.wav	2	22	blb_dichoticlistening_ka-ka.mp3	ka	ka	0	other
6.6.1	win	2023-06-24	09:31:31	0	0	63f8a056531af02b77961676	1	1	DL_test	13	DL_test	24			0		ta	1	885	6	3	antiphase_hc_soi.wav	1	6	6	noise_calib_stim_RIGHT.wav	2	35	blb_dichoticlistening_ta-pa.mp3	ta	pa	1	left
6.6.1	win	2023-06-24	09:31:31	0	0	63f8a056531af02b77961676	1	1	DL_test	13	DL_test	25			0		pa	0	443	6	3	antiphase_hc_soi.wav	1	6	6	noise_calib_stim_RIGHT.wav	2	14	blb_dichoticlistening_ga-da.mp3	ga	da	1	other
6.6.1	win	2023-06-24	09:31:31	0	0	63f8a056531af02b77961676	1	1	DL_test	13	DL_test	26			0		ka	0	722	6	3	antiphase_hc_soi.wav	1	6	6	noise_calib_stim_RIGHT.wav	2	33	blb_dichoticlistening_ta-ga.mp3	ta	ga	1	other
6.6.1	win	2023-06-24	09:31:31	0	0	63f8a056531af02b77961676	1	1	DL_test	13	DL_test	27			0		ka	0	427	6	3	antiphase_hc_soi.wav	1	6	6	noise_calib_stim_RIGHT.wav	2	29	blb_dichoticlistening_pa-pa.mp3	pa	pa	0	other
6.6.1	win	2023-06-24	09:31:31	0	0	63f8a056531af02b77961676	1	1	DL_test	13	DL_test	28			0		ga	0	488	6	3	antiphase_hc_soi.wav	1	6	6	noise_calib_stim_RIGHT.wav	2	23	blb_dichoticlistening_ka-pa.mp3	ka	pa	1	other
6.6.1	win	2023-06-24	09:31:31	0	0	63f8a056531af02b77961676	1	1	DL_test	13	DL_test	29			0		da	0	498	6	3	antiphase_hc_soi.wav	1	6	6	noise_calib_stim_RIGHT.wav	2	3	blb_dichoticlistening_ba-ga.mp3	ba	ga	1	other
6.6.1	win	2023-06-24	09:31:31	0	0	63f8a056531af02b77961676	1	1	DL_test	13	DL_test	30			0		ta	1	1709	6	3	antiphase_hc_soi.wav	1	6	6	noise_calib_stim_RIGHT.wav	2	32	blb_dichoticlistening_ta-da.mp3	ta	da	1	left
6.6.1	win	2023-06-24	09:31:31	0	0	63f8a056531af02b77961676	1	1	DL_test	13	DL_test	31			0		ka	0	2235	6	3	antiphase_hc_soi.wav	1	6	6	noise_calib_stim_RIGHT.wav	2	15	blb_dichoticlistening_ga-ga.mp3	ga	ga	0	other
6.6.1	win	2023-06-24	09:31:31	0	0	63f8a056531af02b77961676	1	1	DL_test	13	DL_test	32			0		ga	1	518	6	3	antiphase_hc_soi.wav	1	6	6	noise_calib_stim_RIGHT.wav	2	27	blb_dichoticlistening_pa-ga.mp3	pa	ga	1	right
6.6.1	win	2023-06-24	09:31:31	0	0	63f8a056531af02b77961676	1	1	DL_test	13	DL_test	33			0		ka	0	540	6	3	antiphase_hc_soi.wav	1	6	6	noise_calib_stim_RIGHT.wav	2	1	blb_dichoticlistening_ba-ba.mp3	ba	ba	0	other
6.6.1	win	2023-06-24	09:31:31	0	0	63f8a056531af02b77961676	1	1	DL_test	13	DL_test	34			0		ta	0	476	6	3	antiphase_hc_soi.wav	1	6	6	noise_calib_stim_RIGHT.wav	2	16	blb_dichoticlistening_ga-ka.mp3	ga	ka	1	other
6.6.1	win	2023-06-24	09:31:31	0	0	63f8a056531af02b77961676	1	1	DL_test	13	DL_test	35			0		pa	1	515	6	3	antiphase_hc_soi.wav	1	6	6	noise_calib_stim_RIGHT.wav	2	5	blb_dichoticlistening_ba-pa.mp3	ba	pa	1	right
6.6.1	win	2023-06-24	09:31:31	0	0	63f8a056531af02b77961676	1	1	DL_test	13	DL_test	36			0		ka	0	454	6	3	antiphase_hc_soi.wav	1	6	6	noise_calib_stim_RIGHT.wav	2	12	blb_dichoticlistening_da-ta.mp3	da	ta	1	other
6.6.1	win	2023-06-24	09:31:31	0	0	63f8a056531af02b77961676	1	1	DL_test	14	DL_test	1			0		ka	1	649	6	3	antiphase_hc_soi.wav	1	6	6	noise_calib_stim_RIGHT.wav	2	10	blb_dichoticlistening_da-ka.mp3	da	ka	1	right
6.6.1	win	2023-06-24	09:31:31	0	0	63f8a056531af02b77961676	1	1	DL_test	14	DL_test	2			0		ga	0	689	6	3	antiphase_hc_soi.wav	1	6	6	noise_calib_stim_RIGHT.wav	2	7	blb_dichoticlistening_da-ba.mp3	da	ba	1	other
6.6.1	win	2023-06-24	09:31:31	0	0	63f8a056531af02b77961676	1	1	DL_test	14	DL_test	3			0		da	1	610	6	3	antiphase_hc_soi.wav	1	6	6	noise_calib_stim_RIGHT.wav	2	9	blb_dichoticlistening_da-ga.mp3	da	ga	1	left
6.6.1	win	2023-06-24	09:31:31	0	0	63f8a056531af02b77961676	1	1	DL_test	14	DL_test	4			0		ga	0	449	6	3	antiphase_hc_soi.wav	1	6	6	noise_calib_stim_RIGHT.wav	2	1	blb_dichoticlistening_ba-ba.mp3	ba	ba	0	other
6.6.1	win	2023-06-24	09:31:31	0	0	63f8a056531af02b77961676	1	1	DL_test	14	DL_test	5			0		ka	0	347	6	3	antiphase_hc_soi.wav	1	6	6	noise_calib_stim_RIGHT.wav	2	30	blb_dichoticlistening_pa-ta.mp3	pa	ta	1	other
6.6.1	win	2023-06-24	09:31:31	0	0	63f8a056531af02b77961676	1	1	DL_test	14	DL_test	6			0		pa	0	425	6	3	antiphase_hc_soi.wav	1	6	6	noise_calib_stim_RIGHT.wav	2	16	blb_dichoticlistening_ga-ka.mp3	ga	ka	1	other
6.6.1	win	2023-06-24	09:31:31	0	0	63f8a056531af02b77961676	1	1	DL_test	14	DL_test	7			0		ka	1	505	6	3	antiphase_hc_soi.wav	1	6	6	noise_calib_stim_RIGHT.wav	2	19	blb_dichoticlistening_ka-ba.mp3	ka	ba	1	left
6.6.1	win	2023-06-24	09:31:31	0	0	63f8a056531af02b77961676	1	1	DL_test	14	DL_test	8			0		ta	0	606	6	3	antiphase_hc_soi.wav	1	6	6	noise_calib_stim_RIGHT.wav	2	15	blb_dichoticlistening_ga-ga.mp3	ga	ga	0	other
6.6.1	win	2023-06-24	09:31:31	0	0	63f8a056531af02b77961676	1	1	DL_test	14	DL_test	9			0		pa	0	404	6	3	antiphase_hc_soi.wav	1	6	6	noise_calib_stim_RIGHT.wav	2	8	blb_dichoticlistening_da-da.mp3	da	da	0	other
6.6.1	win	2023-06-24	09:31:31	0	0	63f8a056531af02b77961676	1	1	DL_test	14	DL_test	10			0		ka	1	484	6	3	antiphase_hc_soi.wav	1	6	6	noise_calib_stim_RIGHT.wav	2	23	blb_dichoticlistening_ka-pa.mp3	ka	pa	1	left
6.6.1	win	2023-06-24	09:31:31	0	0	63f8a056531af02b77961676	1	1	DL_test	14	DL_test	11			0		ga	0	521	6	3	antiphase_hc_soi.wav	1	6	6	noise_calib_stim_RIGHT.wav	2	2	blb_dichoticlistening_ba-da.mp3	ba	da	1	other
6.6.1	win	2023-06-24	09:31:31	0	0	63f8a056531af02b77961676	1	1	DL_test	14	DL_test	12			0		ka	0	641	6	3	antiphase_hc_soi.wav	1	6	6	noise_calib_stim_RIGHT.wav	2	32	blb_dichoticlistening_ta-da.mp3	ta	da	1	other
6.6.1	win	2023-06-24	09:31:31	0	0	63f8a056531af02b77961676	1	1	DL_test	14	DL_test	13			0		pa	0	906	6	3	antiphase_hc_soi.wav	1	6	6	noise_calib_stim_RIGHT.wav	2	36	blb_dichoticlistening_ta-ta.mp3	ta	ta	0	other
6.6.1	win	2023-06-24	09:31:31	0	0	63f8a056531af02b77961676	1	1	DL_test	14	DL_test	14			0		ga	0	316	6	3	antiphase_hc_soi.wav	1	6	6	noise_calib_stim_RIGHT.wav	2	5	blb_dichoticlistening_ba-pa.mp3	ba	pa	1	other
6.6.1	win	2023-06-24	09:31:31	0	0	63f8a056531af02b77961676	1	1	DL_test	14	DL_test	15			0		da	0	401	6	3	antiphase_hc_soi.wav	1	6	6	noise_calib_stim_RIGHT.wav	2	27	blb_dichoticlistening_pa-ga.mp3	pa	ga	1	other
6.6.1	win	2023-06-24	09:31:31	0	0	63f8a056531af02b77961676	1	1	DL_test	14	DL_test	16			0		ka	0	1170	6	3	antiphase_hc_soi.wav	1	6	6	noise_calib_stim_RIGHT.wav	2	12	blb_dichoticlistening_da-ta.mp3	da	ta	1	other
6.6.1	win	2023-06-24	09:31:31	0	0	63f8a056531af02b77961676	1	1	DL_test	14	DL_test	17			0		pa	0	821	6	3	antiphase_hc_soi.wav	1	6	6	noise_calib_stim_RIGHT.wav	2	22	blb_dichoticlistening_ka-ka.mp3	ka	ka	0	other
6.6.1	win	2023-06-24	09:31:31	0	0	63f8a056531af02b77961676	1	1	DL_test	14	DL_test	18			0		ta	1	403	6	3	antiphase_hc_soi.wav	1	6	6	noise_calib_stim_RIGHT.wav	2	35	blb_dichoticlistening_ta-pa.mp3	ta	pa	1	left
6.6.1	win	2023-06-24	09:31:31	0	0	63f8a056531af02b77961676	1	1	DL_test	14	DL_test	19			0		ta	0	710	6	3	antiphase_hc_soi.wav	1	6	6	noise_calib_stim_RIGHT.wav	2	11	blb_dichoticlistening_da-pa.mp3	da	pa	1	other
6.6.1	win	2023-06-24	09:31:31	0	0	63f8a056531af02b77961676	1	1	DL_test	14	DL_test	20			0		ka	0	316	6	3	antiphase_hc_soi.wav	1	6	6	noise_calib_stim_RIGHT.wav	2	6	blb_dichoticlistening_ba-ta.mp3	ba	ta	1	other
6.6.1	win	2023-06-24	09:31:31	0	0	63f8a056531af02b77961676	1	1	DL_test	14	DL_test	21			0		ga	0	360	6	3	antiphase_hc_soi.wav	1	6	6	noise_calib_stim_RIGHT.wav	2	34	blb_dichoticlistening_ta-ka.mp3	ta	ka	1	other
6.6.1	win	2023-06-24	09:31:31	0	0	63f8a056531af02b77961676	1	1	DL_test	14	DL_test	22			0		ka	0	580	6	3	antiphase_hc_soi.wav	1	6	6	noise_calib_stim_RIGHT.wav	2	25	blb_dichoticlistening_pa-ba.mp3	pa	ba	1	other
6.6.1	win	2023-06-24	09:31:31	0	0	63f8a056531af02b77961676	1	1	DL_test	14	DL_test	23			0		pa	0	423	6	3	antiphase_hc_soi.wav	1	6	6	noise_calib_stim_RIGHT.wav	2	3	blb_dichoticlistening_ba-ga.mp3	ba	ga	1	other
6.6.1	win	2023-06-24	09:31:31	0	0	63f8a056531af02b77961676	1	1	DL_test	14	DL_test	24			0		ta	1	365	6	3	antiphase_hc_soi.wav	1	6	6	noise_calib_stim_RIGHT.wav	2	18	blb_dichoticlistening_ga-ta.mp3	ga	ta	1	right
6.6.1	win	2023-06-24	09:31:31	0	0	63f8a056531af02b77961676	1	1	DL_test	14	DL_test	25			0		pa	0	551	6	3	antiphase_hc_soi.wav	1	6	6	noise_calib_stim_RIGHT.wav	2	21	blb_dichoticlistening_ka-ga.mp3	ka	ga	1	other
6.6.1	win	2023-06-24	09:31:31	0	0	63f8a056531af02b77961676	1	1	DL_test	14	DL_test	26			0		ka	0	325	6	3	antiphase_hc_soi.wav	1	6	6	noise_calib_stim_RIGHT.wav	2	13	blb_dichoticlistening_ga-ba.mp3	ga	ba	1	other
6.6.1	win	2023-06-24	09:31:31	0	0	63f8a056531af02b77961676	1	1	DL_test	14	DL_test	27			0		pa	0	726	6	3	antiphase_hc_soi.wav	1	6	6	noise_calib_stim_RIGHT.wav	2	20	blb_dichoticlistening_ka-da.mp3	ka	da	1	other
6.6.1	win	2023-06-24	09:31:31	0	0	63f8a056531af02b77961676	1	1	DL_test	14	DL_test	28			0		ga	0	551	6	3	antiphase_hc_soi.wav	1	6	6	noise_calib_stim_RIGHT.wav	2	24	blb_dichoticlistening_ka-ta.mp3	ka	ta	1	other
6.6.1	win	2023-06-24	09:31:31	0	0	63f8a056531af02b77961676	1	1	DL_test	14	DL_test	29			0		ka	0	414	6	3	antiphase_hc_soi.wav	1	6	6	noise_calib_stim_RIGHT.wav	2	26	blb_dichoticlistening_pa-da.mp3	pa	da	1	other
6.6.1	win	2023-06-24	09:31:31	0	0	63f8a056531af02b77961676	1	1	DL_test	14	DL_test	30			0		ga	1	479	6	3	antiphase_hc_soi.wav	1	6	6	noise_calib_stim_RIGHT.wav	2	17	blb_dichoticlistening_ga-pa.mp3	ga	pa	1	left
6.6.1	win	2023-06-24	09:31:31	0	0	63f8a056531af02b77961676	1	1	DL_test	14	DL_test	31			0		ka	1	414	6	3	antiphase_hc_soi.wav	1	6	6	noise_calib_stim_RIGHT.wav	2	4	blb_dichoticlistening_ba-ka.mp3	ba	ka	1	right
6.6.1	win	2023-06-24	09:31:31	0	0	63f8a056531af02b77961676	1	1	DL_test	14	DL_test	32			0		pa	0	327	6	3	antiphase_hc_soi.wav	1	6	6	noise_calib_stim_RIGHT.wav	2	14	blb_dichoticlistening_ga-da.mp3	ga	da	1	other
6.6.1	win	2023-06-24	09:31:31	0	0	63f8a056531af02b77961676	1	1	DL_test	14	DL_test	33			0		ta	1	384	6	3	antiphase_hc_soi.wav	1	6	6	noise_calib_stim_RIGHT.wav	2	33	blb_dichoticlistening_ta-ga.mp3	ta	ga	1	left
6.6.1	win	2023-06-24	09:31:31	0	0	63f8a056531af02b77961676	1	1	DL_test	14	DL_test	34			0		ta	0	377	6	3	antiphase_hc_soi.wav	1	6	6	noise_calib_stim_RIGHT.wav	2	28	blb_dichoticlistening_pa-ka.mp3	pa	ka	1	other
6.6.1	win	2023-06-24	09:31:31	0	0	63f8a056531af02b77961676	1	1	DL_test	14	DL_test	35			0		ka	0	428	6	3	antiphase_hc_soi.wav	1	6	6	noise_calib_stim_RIGHT.wav	2	31	blb_dichoticlistening_ta-ba.mp3	ta	ba	1	other
6.6.1	win	2023-06-24	09:31:31	0	0	63f8a056531af02b77961676	1	1	DL_test	14	DL_test	36			0		pa	1	390	6	3	antiphase_hc_soi.wav	1	6	6	noise_calib_stim_RIGHT.wav	2	29	blb_dichoticlistening_pa-pa.mp3	pa	pa	0	left
6.6.1	win	2023-06-24	09:31:31	0	0	63f8a056531af02b77961676	1	1	DL_test	15	DL_test	1			0		ka	0	638	6	3	antiphase_hc_soi.wav	1	6	6	noise_calib_stim_RIGHT.wav	2	8	blb_dichoticlistening_da-da.mp3	da	da	0	other
6.6.1	win	2023-06-24	09:31:31	0	0	63f8a056531af02b77961676	1	1	DL_test	15	DL_test	2			0		pa	1	556	6	3	antiphase_hc_soi.wav	1	6	6	noise_calib_stim_RIGHT.wav	2	29	blb_dichoticlistening_pa-pa.mp3	pa	pa	0	left
6.6.1	win	2023-06-24	09:31:31	0	0	63f8a056531af02b77961676	1	1	DL_test	15	DL_test	3			0		ka	1	373	6	3	antiphase_hc_soi.wav	1	6	6	noise_calib_stim_RIGHT.wav	2	20	blb_dichoticlistening_ka-da.mp3	ka	da	1	left
6.6.1	win	2023-06-24	09:31:31	0	0	63f8a056531af02b77961676	1	1	DL_test	15	DL_test	4			0		ga	0	602	6	3	antiphase_hc_soi.wav	1	6	6	noise_calib_stim_RIGHT.wav	2	2	blb_dichoticlistening_ba-da.mp3	ba	da	1	other
6.6.1	win	2023-06-24	09:31:31	0	0	63f8a056531af02b77961676	1	1	DL_test	15	DL_test	5			0		da	1	431	6	3	antiphase_hc_soi.wav	1	6	6	noise_calib_stim_RIGHT.wav	2	10	blb_dichoticlistening_da-ka.mp3	da	ka	1	left
6.6.1	win	2023-06-24	09:31:31	0	0	63f8a056531af02b77961676	1	1	DL_test	15	DL_test	6			0		ga	0	367	6	3	antiphase_hc_soi.wav	1	6	6	noise_calib_stim_RIGHT.wav	2	36	blb_dichoticlistening_ta-ta.mp3	ta	ta	0	other
6.6.1	win	2023-06-24	09:31:31	0	0	63f8a056531af02b77961676	1	1	DL_test	15	DL_test	7			0		ka	0	495	6	3	antiphase_hc_soi.wav	1	6	6	noise_calib_stim_RIGHT.wav	2	33	blb_dichoticlistening_ta-ga.mp3	ta	ga	1	other
6.6.1	win	2023-06-24	09:31:31	0	0	63f8a056531af02b77961676	1	1	DL_test	15	DL_test	8			0		ga	0	349	6	3	antiphase_hc_soi.wav	1	6	6	noise_calib_stim_RIGHT.wav	2	22	blb_dichoticlistening_ka-ka.mp3	ka	ka	0	other
6.6.1	win	2023-06-24	09:31:31	0	0	63f8a056531af02b77961676	1	1	DL_test	15	DL_test	9			0		da	0	582	6	3	antiphase_hc_soi.wav	1	6	6	noise_calib_stim_RIGHT.wav	2	31	blb_dichoticlistening_ta-ba.mp3	ta	ba	1	other
6.6.1	win	2023-06-24	09:31:31	0	0	63f8a056531af02b77961676	1	1	DL_test	15	DL_test	10			0		da	0	537	6	3	antiphase_hc_soi.wav	1	6	6	noise_calib_stim_RIGHT.wav	2	34	blb_dichoticlistening_ta-ka.mp3	ta	ka	1	other
6.6.1	win	2023-06-24	09:31:31	0	0	63f8a056531af02b77961676	1	1	DL_test	15	DL_test	11			0		ka	0	1799	6	3	antiphase_hc_soi.wav	1	6	6	noise_calib_stim_RIGHT.wav	2	32	blb_dichoticlistening_ta-da.mp3	ta	da	1	other
6.6.1	win	2023-06-24	09:31:31	0	0	63f8a056531af02b77961676	1	1	DL_test	15	DL_test	12			0		ka	0	1526	6	3	antiphase_hc_soi.wav	1	6	6	noise_calib_stim_RIGHT.wav	2	27	blb_dichoticlistening_pa-ga.mp3	pa	ga	1	other
6.6.1	win	2023-06-24	09:31:31	0	0	63f8a056531af02b77961676	1	1	DL_test	15	DL_test	13			0		ka	1	916	6	3	antiphase_hc_soi.wav	1	6	6	noise_calib_stim_RIGHT.wav	2	23	blb_dichoticlistening_ka-pa.mp3	ka	pa	1	left
6.6.1	win	2023-06-24	09:31:31	0	0	63f8a056531af02b77961676	1	1	DL_test	15	DL_test	14			0		ka	1	609	6	3	antiphase_hc_soi.wav	1	6	6	noise_calib_stim_RIGHT.wav	2	19	blb_dichoticlistening_ka-ba.mp3	ka	ba	1	left
6.6.1	win	2023-06-24	09:31:31	0	0	63f8a056531af02b77961676	1	1	DL_test	15	DL_test	15			0		ga	1	1395	6	3	antiphase_hc_soi.wav	1	6	6	noise_calib_stim_RIGHT.wav	2	17	blb_dichoticlistening_ga-pa.mp3	ga	pa	1	left
6.6.1	win	2023-06-24	09:31:31	0	0	63f8a056531af02b77961676	1	1	DL_test	15	DL_test	16			0		da	1	1195	6	3	antiphase_hc_soi.wav	1	6	6	noise_calib_stim_RIGHT.wav	2	12	blb_dichoticlistening_da-ta.mp3	da	ta	1	left
6.6.1	win	2023-06-24	09:31:31	0	0	63f8a056531af02b77961676	1	1	DL_test	15	DL_test	17			0		ba	0	774	6	3	antiphase_hc_soi.wav	1	6	6	noise_calib_stim_RIGHT.wav	2	14	blb_dichoticlistening_ga-da.mp3	ga	da	1	other
6.6.1	win	2023-06-24	09:31:31	0	0	63f8a056531af02b77961676	1	1	DL_test	15	DL_test	18			0		da	0	748	6	3	antiphase_hc_soi.wav	1	6	6	noise_calib_stim_RIGHT.wav	2	4	blb_dichoticlistening_ba-ka.mp3	ba	ka	1	other
6.6.1	win	2023-06-24	09:31:31	0	0	63f8a056531af02b77961676	1	1	DL_test	15	DL_test	19			0		da	0	567	6	3	antiphase_hc_soi.wav	1	6	6	noise_calib_stim_RIGHT.wav	2	35	blb_dichoticlistening_ta-pa.mp3	ta	pa	1	other
6.6.1	win	2023-06-24	09:31:31	0	0	63f8a056531af02b77961676	1	1	DL_test	15	DL_test	20			0		ka	0	1386	6	3	antiphase_hc_soi.wav	1	6	6	noise_calib_stim_RIGHT.wav	2	26	blb_dichoticlistening_pa-da.mp3	pa	da	1	other
6.6.1	win	2023-06-24	09:31:31	0	0	63f8a056531af02b77961676	1	1	DL_test	15	DL_test	21			0		pa	0	997	6	3	antiphase_hc_soi.wav	1	6	6	noise_calib_stim_RIGHT.wav	2	16	blb_dichoticlistening_ga-ka.mp3	ga	ka	1	other
6.6.1	win	2023-06-24	09:31:31	0	0	63f8a056531af02b77961676	1	1	DL_test	15	DL_test	22			0		pa	0	936	6	3	antiphase_hc_soi.wav	1	6	6	noise_calib_stim_RIGHT.wav	2	13	blb_dichoticlistening_ga-ba.mp3	ga	ba	1	other
6.6.1	win	2023-06-24	09:31:31	0	0	63f8a056531af02b77961676	1	1	DL_test	15	DL_test	23			0		ta	0	593	6	3	antiphase_hc_soi.wav	1	6	6	noise_calib_stim_RIGHT.wav	2	21	blb_dichoticlistening_ka-ga.mp3	ka	ga	1	other
6.6.1	win	2023-06-24	09:31:31	0	0	63f8a056531af02b77961676	1	1	DL_test	15	DL_test	24			0		pa	0	883	6	3	antiphase_hc_soi.wav	1	6	6	noise_calib_stim_RIGHT.wav	2	6	blb_dichoticlistening_ba-ta.mp3	ba	ta	1	other
6.6.1	win	2023-06-24	09:31:31	0	0	63f8a056531af02b77961676	1	1	DL_test	15	DL_test	25			0		ga	0	1071	6	3	antiphase_hc_soi.wav	1	6	6	noise_calib_stim_RIGHT.wav	2	1	blb_dichoticlistening_ba-ba.mp3	ba	ba	0	other
6.6.1	win	2023-06-24	09:31:31	0	0	63f8a056531af02b77961676	1	1	DL_test	15	DL_test	26			0		ka	1	1173	6	3	antiphase_hc_soi.wav	1	6	6	noise_calib_stim_RIGHT.wav	2	28	blb_dichoticlistening_pa-ka.mp3	pa	ka	1	right
6.6.1	win	2023-06-24	09:31:31	0	0	63f8a056531af02b77961676	1	1	DL_test	15	DL_test	27			0		da	0	756	6	3	antiphase_hc_soi.wav	1	6	6	noise_calib_stim_RIGHT.wav	2	3	blb_dichoticlistening_ba-ga.mp3	ba	ga	1	other
6.6.1	win	2023-06-24	09:31:31	0	0	63f8a056531af02b77961676	1	1	DL_test	15	DL_test	28			0		da	1	1503	6	3	antiphase_hc_soi.wav	1	6	6	noise_calib_stim_RIGHT.wav	2	7	blb_dichoticlistening_da-ba.mp3	da	ba	1	left
6.6.1	win	2023-06-24	09:31:31	0	0	63f8a056531af02b77961676	1	1	DL_test	15	DL_test	29			0		ba	0	739	6	3	antiphase_hc_soi.wav	1	6	6	noise_calib_stim_RIGHT.wav	2	9	blb_dichoticlistening_da-ga.mp3	da	ga	1	other
6.6.1	win	2023-06-24	09:31:31	0	0	63f8a056531af02b77961676	1	1	DL_test	15	DL_test	30			0		da	0	1036	6	3	antiphase_hc_soi.wav	1	6	6	noise_calib_stim_RIGHT.wav	2	25	blb_dichoticlistening_pa-ba.mp3	pa	ba	1	other
6.6.1	win	2023-06-24	09:31:31	0	0	63f8a056531af02b77961676	1	1	DL_test	15	DL_test	31			0		ka	1	687	6	3	antiphase_hc_soi.wav	1	6	6	noise_calib_stim_RIGHT.wav	2	24	blb_dichoticlistening_ka-ta.mp3	ka	ta	1	left
6.6.1	win	2023-06-24	09:31:31	0	0	63f8a056531af02b77961676	1	1	DL_test	15	DL_test	32			0		ka	0	603	6	3	antiphase_hc_soi.wav	1	6	6	noise_calib_stim_RIGHT.wav	2	11	blb_dichoticlistening_da-pa.mp3	da	pa	1	other
6.6.1	win	2023-06-24	09:31:31	0	0	63f8a056531af02b77961676	1	1	DL_test	15	DL_test	33			0		ka	0	416	6	3	antiphase_hc_soi.wav	1	6	6	noise_calib_stim_RIGHT.wav	2	5	blb_dichoticlistening_ba-pa.mp3	ba	pa	1	other
6.6.1	win	2023-06-24	09:31:31	0	0	63f8a056531af02b77961676	1	1	DL_test	15	DL_test	34			0		ka	0	410	6	3	antiphase_hc_soi.wav	1	6	6	noise_calib_stim_RIGHT.wav	2	15	blb_dichoticlistening_ga-ga.mp3	ga	ga	0	other
6.6.1	win	2023-06-24	09:31:31	0	0	63f8a056531af02b77961676	1	1	DL_test	15	DL_test	35			0		pa	0	799	6	3	antiphase_hc_soi.wav	1	6	6	noise_calib_stim_RIGHT.wav	2	18	blb_dichoticlistening_ga-ta.mp3	ga	ta	1	other
6.6.1	win	2023-06-24	09:31:31	0	0	63f8a056531af02b77961676	1	1	DL_test	15	DL_test	36			0		pa	1	531	6	3	antiphase_hc_soi.wav	1	6	6	noise_calib_stim_RIGHT.wav	2	30	blb_dichoticlistening_pa-ta.mp3	pa	ta	1	left
6.6.1	win	2023-06-24	09:31:31	0	0	63f8a056531af02b77961676	1	1	DL_test	16	DL_test	1			0		ka	1	186	6	3	antiphase_hc_soi.wav	1	6	6	noise_calib_stim_RIGHT.wav	2	19	blb_dichoticlistening_ka-ba.mp3	ka	ba	1	left
6.6.1	win	2023-06-24	09:31:31	0	0	63f8a056531af02b77961676	1	1	DL_test	16	DL_test	2			0		pa	1	364	6	3	antiphase_hc_soi.wav	1	6	6	noise_calib_stim_RIGHT.wav	2	25	blb_dichoticlistening_pa-ba.mp3	pa	ba	1	left
6.6.1	win	2023-06-24	09:31:31	0	0	63f8a056531af02b77961676	1	1	DL_test	16	DL_test	3			0		pa	0	269	6	3	antiphase_hc_soi.wav	1	6	6	noise_calib_stim_RIGHT.wav	2	34	blb_dichoticlistening_ta-ka.mp3	ta	ka	1	other
6.6.1	win	2023-06-24	09:31:31	0	0	63f8a056531af02b77961676	1	1	DL_test	16	DL_test	4			0		ka	0	420	6	3	antiphase_hc_soi.wav	1	6	6	noise_calib_stim_RIGHT.wav	2	26	blb_dichoticlistening_pa-da.mp3	pa	da	1	other
6.6.1	win	2023-06-24	09:31:31	0	0	63f8a056531af02b77961676	1	1	DL_test	16	DL_test	5			0		ga	1	833	6	3	antiphase_hc_soi.wav	1	6	6	noise_calib_stim_RIGHT.wav	2	16	blb_dichoticlistening_ga-ka.mp3	ga	ka	1	left
6.6.1	win	2023-06-24	09:31:31	0	0	63f8a056531af02b77961676	1	1	DL_test	16	DL_test	6			0		da	0	311	6	3	antiphase_hc_soi.wav	1	6	6	noise_calib_stim_RIGHT.wav	2	27	blb_dichoticlistening_pa-ga.mp3	pa	ga	1	other
6.6.1	win	2023-06-24	09:31:31	0	0	63f8a056531af02b77961676	1	1	DL_test	16	DL_test	7			0		ga	0	141	6	3	antiphase_hc_soi.wav	1	6	6	noise_calib_stim_RIGHT.wav	2	12	blb_dichoticlistening_da-ta.mp3	da	ta	1	other
6.6.1	win	2023-06-24	09:31:31	0	0	63f8a056531af02b77961676	1	1	DL_test	16	DL_test	8			0		ka	1	639	6	3	antiphase_hc_soi.wav	1	6	6	noise_calib_stim_RIGHT.wav	2	22	blb_dichoticlistening_ka-ka.mp3	ka	ka	0	left
6.6.1	win	2023-06-24	09:31:31	0	0	63f8a056531af02b77961676	1	1	DL_test	16	DL_test	9			0		pa	0	763	6	3	antiphase_hc_soi.wav	1	6	6	noise_calib_stim_RIGHT.wav	2	13	blb_dichoticlistening_ga-ba.mp3	ga	ba	1	other
6.6.1	win	2023-06-24	09:31:31	0	0	63f8a056531af02b77961676	1	1	DL_test	16	DL_test	10			0		ka	0	480	6	3	antiphase_hc_soi.wav	1	6	6	noise_calib_stim_RIGHT.wav	2	15	blb_dichoticlistening_ga-ga.mp3	ga	ga	0	other
6.6.1	win	2023-06-24	09:31:31	0	0	63f8a056531af02b77961676	1	1	DL_test	16	DL_test	11			0		ka	0	485	6	3	antiphase_hc_soi.wav	1	6	6	noise_calib_stim_RIGHT.wav	2	9	blb_dichoticlistening_da-ga.mp3	da	ga	1	other
6.6.1	win	2023-06-24	09:31:31	0	0	63f8a056531af02b77961676	1	1	DL_test	16	DL_test	12			0		da	1	455	6	3	antiphase_hc_soi.wav	1	6	6	noise_calib_stim_RIGHT.wav	2	20	blb_dichoticlistening_ka-da.mp3	ka	da	1	right
6.6.1	win	2023-06-24	09:31:31	0	0	63f8a056531af02b77961676	1	1	DL_test	16	DL_test	13			0		da	0	466	6	3	antiphase_hc_soi.wav	1	6	6	noise_calib_stim_RIGHT.wav	2	1	blb_dichoticlistening_ba-ba.mp3	ba	ba	0	other
6.6.1	win	2023-06-24	09:31:31	0	0	63f8a056531af02b77961676	1	1	DL_test	16	DL_test	14			0		ka	0	653	6	3	antiphase_hc_soi.wav	1	6	6	noise_calib_stim_RIGHT.wav	2	8	blb_dichoticlistening_da-da.mp3	da	da	0	other
6.6.1	win	2023-06-24	09:31:31	0	0	63f8a056531af02b77961676	1	1	DL_test	16	DL_test	15			0		ga	1	1736	6	3	antiphase_hc_soi.wav	1	6	6	noise_calib_stim_RIGHT.wav	2	3	blb_dichoticlistening_ba-ga.mp3	ba	ga	1	right
6.6.1	win	2023-06-24	09:31:31	0	0	63f8a056531af02b77961676	1	1	DL_test	16	DL_test	16			0		da	0	384	6	3	antiphase_hc_soi.wav	1	6	6	noise_calib_stim_RIGHT.wav	2	33	blb_dichoticlistening_ta-ga.mp3	ta	ga	1	other
6.6.1	win	2023-06-24	09:31:31	0	0	63f8a056531af02b77961676	1	1	DL_test	16	DL_test	17			0		da	0	602	6	3	antiphase_hc_soi.wav	1	6	6	noise_calib_stim_RIGHT.wav	2	30	blb_dichoticlistening_pa-ta.mp3	pa	ta	1	other
6.6.1	win	2023-06-24	09:31:31	0	0	63f8a056531af02b77961676	1	1	DL_test	16	DL_test	18			0		ba	0	354	6	3	antiphase_hc_soi.wav	1	6	6	noise_calib_stim_RIGHT.wav	2	36	blb_dichoticlistening_ta-ta.mp3	ta	ta	0	other
6.6.1	win	2023-06-24	09:31:31	0	0	63f8a056531af02b77961676	1	1	DL_test	16	DL_test	19			0		ka	0	705	6	3	antiphase_hc_soi.wav	1	6	6	noise_calib_stim_RIGHT.wav	2	29	blb_dichoticlistening_pa-pa.mp3	pa	pa	0	other
6.6.1	win	2023-06-24	09:31:31	0	0	63f8a056531af02b77961676	1	1	DL_test	16	DL_test	20			0		pa	0	474	6	3	antiphase_hc_soi.wav	1	6	6	noise_calib_stim_RIGHT.wav	2	10	blb_dichoticlistening_da-ka.mp3	da	ka	1	other
6.6.1	win	2023-06-24	09:31:31	0	0	63f8a056531af02b77961676	1	1	DL_test	16	DL_test	21			0		ta	1	993	6	3	antiphase_hc_soi.wav	1	6	6	noise_calib_stim_RIGHT.wav	2	6	blb_dichoticlistening_ba-ta.mp3	ba	ta	1	right
6.6.1	win	2023-06-24	09:31:31	0	0	63f8a056531af02b77961676	1	1	DL_test	16	DL_test	22			0		pa	0	112	6	3	antiphase_hc_soi.wav	1	6	6	noise_calib_stim_RIGHT.wav	2	2	blb_dichoticlistening_ba-da.mp3	ba	da	1	other
6.6.1	win	2023-06-24	09:31:31	0	0	63f8a056531af02b77961676	1	1	DL_test	16	DL_test	23			0		ka	1	367	6	3	antiphase_hc_soi.wav	1	6	6	noise_calib_stim_RIGHT.wav	2	23	blb_dichoticlistening_ka-pa.mp3	ka	pa	1	left
6.6.1	win	2023-06-24	09:31:31	0	0	63f8a056531af02b77961676	1	1	DL_test	16	DL_test	24			0		pa	0	462	6	3	antiphase_hc_soi.wav	1	6	6	noise_calib_stim_RIGHT.wav	2	14	blb_dichoticlistening_ga-da.mp3	ga	da	1	other
6.6.1	win	2023-06-24	09:31:31	0	0	63f8a056531af02b77961676	1	1	DL_test	16	DL_test	25			0		ka	1	717	6	3	antiphase_hc_soi.wav	1	6	6	noise_calib_stim_RIGHT.wav	2	24	blb_dichoticlistening_ka-ta.mp3	ka	ta	1	left
6.6.1	win	2023-06-24	09:31:31	0	0	63f8a056531af02b77961676	1	1	DL_test	16	DL_test	26			0		pa	0	249	6	3	antiphase_hc_soi.wav	1	6	6	noise_calib_stim_RIGHT.wav	2	7	blb_dichoticlistening_da-ba.mp3	da	ba	1	other
6.6.1	win	2023-06-24	09:31:31	0	0	63f8a056531af02b77961676	1	1	DL_test	16	DL_test	27			0		ka	0	443	6	3	antiphase_hc_soi.wav	1	6	6	noise_calib_stim_RIGHT.wav	2	11	blb_dichoticlistening_da-pa.mp3	da	pa	1	other
6.6.1	win	2023-06-24	09:31:31	0	0	63f8a056531af02b77961676	1	1	DL_test	16	DL_test	28			0		pa	1	273	6	3	antiphase_hc_soi.wav	1	6	6	noise_calib_stim_RIGHT.wav	2	28	blb_dichoticlistening_pa-ka.mp3	pa	ka	1	left
6.6.1	win	2023-06-24	09:31:31	0	0	63f8a056531af02b77961676	1	1	DL_test	16	DL_test	29			0		ka	1	522	6	3	antiphase_hc_soi.wav	1	6	6	noise_calib_stim_RIGHT.wav	2	21	blb_dichoticlistening_ka-ga.mp3	ka	ga	1	left
6.6.1	win	2023-06-24	09:31:31	0	0	63f8a056531af02b77961676	1	1	DL_test	16	DL_test	30			0		pa	1	470	6	3	antiphase_hc_soi.wav	1	6	6	noise_calib_stim_RIGHT.wav	2	35	blb_dichoticlistening_ta-pa.mp3	ta	pa	1	right
6.6.1	win	2023-06-24	09:31:31	0	0	63f8a056531af02b77961676	1	1	DL_test	16	DL_test	31			0		ka	0	704	6	3	antiphase_hc_soi.wav	1	6	6	noise_calib_stim_RIGHT.wav	2	32	blb_dichoticlistening_ta-da.mp3	ta	da	1	other
6.6.1	win	2023-06-24	09:31:31	0	0	63f8a056531af02b77961676	1	1	DL_test	16	DL_test	32			0		pa	0	173	6	3	antiphase_hc_soi.wav	1	6	6	noise_calib_stim_RIGHT.wav	2	31	blb_dichoticlistening_ta-ba.mp3	ta	ba	1	other
6.6.1	win	2023-06-24	09:31:31	0	0	63f8a056531af02b77961676	1	1	DL_test	16	DL_test	33			0		pa	0	323	6	3	antiphase_hc_soi.wav	1	6	6	noise_calib_stim_RIGHT.wav	2	18	blb_dichoticlistening_ga-ta.mp3	ga	ta	1	other
6.6.1	win	2023-06-24	09:31:31	0	0	63f8a056531af02b77961676	1	1	DL_test	16	DL_test	34			0		ga	0	390	6	3	antiphase_hc_soi.wav	1	6	6	noise_calib_stim_RIGHT.wav	2	4	blb_dichoticlistening_ba-ka.mp3	ba	ka	1	other
6.6.1	win	2023-06-24	09:31:31	0	0	63f8a056531af02b77961676	1	1	DL_test	16	DL_test	35			0		ka	0	91	6	3	antiphase_hc_soi.wav	1	6	6	noise_calib_stim_RIGHT.wav	2	5	blb_dichoticlistening_ba-pa.mp3	ba	pa	1	other
6.6.1	win	2023-06-24	09:31:31	0	0	63f8a056531af02b77961676	1	1	DL_test	16	DL_test	36			0		pa	1	342	6	3	antiphase_hc_soi.wav	1	6	6	noise_calib_stim_RIGHT.wav	2	17	blb_dichoticlistening_ga-pa.mp3	ga	pa	1	right
6.6.1	win	2023-06-24	09:31:31	10:00:35	1556960	63f8a056531af02b77961676	1	1	practice_slash	22	practice_slash	1	stimuli_distractor_trianglediamonds.svg	stimuli_distractor_trianglediamonds.svg	15	no	0	1	2000	6	3	antiphase_hc_soi.wav	1	6	6	noise_calib_stim_RIGHT.wav	2	17	blb_dichoticlistening_ga-pa.mp3	ga	pa	1	right
6.6.1	win	2023-06-24	09:31:31	10:00:35	1556960	63f8a056531af02b77961676	1	1	practice_slash	22	advance_on_keypress_SLASH	2	stimuli_distractor_trianglediamonds.svg	stimuli_distractor_trianglediamonds.svg	15	no	57	0	902	6	3	antiphase_hc_soi.wav	1	6	6	noise_calib_stim_RIGHT.wav	2	17	blb_dichoticlistening_ga-pa.mp3	ga	pa	1	right
6.6.1	win	2023-06-24	09:31:31	10:00:38	1560200	63f8a056531af02b77961676	1	1	practice_slash	22	practice_slash	3	stimuli_distractor_trianglediamonds.svg	stimuli_target_rectanglediamonds.svg	10	yes	53	1	658	6	3	antiphase_hc_soi.wav	1	6	6	noise_calib_stim_RIGHT.wav	2	17	blb_dichoticlistening_ga-pa.mp3	ga	pa	1	right
6.6.1	win	2023-06-24	09:31:31	10:00:38	1560200	63f8a056531af02b77961676	1	1	practice_slash	22	advance_on_keypress_SLASH	4	stimuli_distractor_trianglediamonds.svg	stimuli_target_rectanglediamonds.svg	10	yes	57	0	897	6	3	antiphase_hc_soi.wav	1	6	6	noise_calib_stim_RIGHT.wav	2	17	blb_dichoticlistening_ga-pa.mp3	ga	pa	1	right
6.6.1	win	2023-06-24	09:31:31	10:00:41	1563213	63f8a056531af02b77961676	1	1	practice_slash	22	practice_slash	5	stimuli_distractor_diamondtriangles.svg	stimuli_target_diamondrectangles.svg	8	yes	53	1	441	6	3	antiphase_hc_soi.wav	1	6	6	noise_calib_stim_RIGHT.wav	2	17	blb_dichoticlistening_ga-pa.mp3	ga	pa	1	right
6.6.1	win	2023-06-24	09:31:31	10:00:41	1563213	63f8a056531af02b77961676	1	1	practice_slash	22	advance_on_keypress_SLASH	6	stimuli_distractor_diamondtriangles.svg	stimuli_target_diamondrectangles.svg	8	yes	57	0	1038	6	3	antiphase_hc_soi.wav	1	6	6	noise_calib_stim_RIGHT.wav	2	17	blb_dichoticlistening_ga-pa.mp3	ga	pa	1	right
6.6.1	win	2023-06-24	09:31:31	10:00:45	1567413	63f8a056531af02b77961676	1	1	practice_slash	22	practice_slash	7	stimuli_target_squarediamonds.svg	stimuli_distractor_trianglediamonds.svg	5	yes	53	1	1474	6	3	antiphase_hc_soi.wav	1	6	6	noise_calib_stim_RIGHT.wav	2	17	blb_dichoticlistening_ga-pa.mp3	ga	pa	1	right
6.6.1	win	2023-06-24	09:31:31	10:00:45	1567413	63f8a056531af02b77961676	1	1	practice_slash	22	advance_on_keypress_SLASH	8	stimuli_target_squarediamonds.svg	stimuli_distractor_trianglediamonds.svg	5	yes	57	0	861	6	3	antiphase_hc_soi.wav	1	6	6	noise_calib_stim_RIGHT.wav	2	17	blb_dichoticlistening_ga-pa.mp3	ga	pa	1	right
6.6.1	win	2023-06-24	09:31:31	10:00:50	1571954	63f8a056531af02b77961676	1	1	practice_slash	22	practice_slash	9	stimuli_distractor_diamondtriangles.svg	stimuli_target_trianglerectangles.svg	9	yes	0	0	2000	6	3	antiphase_hc_soi.wav	1	6	6	noise_calib_stim_RIGHT.wav	2	17	blb_dichoticlistening_ga-pa.mp3	ga	pa	1	right
6.6.1	win	2023-06-24	09:31:31	10:00:50	1571954	63f8a056531af02b77961676	1	1	practice_slash	22	advance_on_keypress_SLASH	10	stimuli_distractor_diamondtriangles.svg	stimuli_target_trianglerectangles.svg	9	yes	57	0	884	6	3	antiphase_hc_soi.wav	1	6	6	noise_calib_stim_RIGHT.wav	2	17	blb_dichoticlistening_ga-pa.mp3	ga	pa	1	right
6.6.1	win	2023-06-24	09:31:31	10:00:54	1575468	63f8a056531af02b77961676	1	1	practice_slash	22	practice_slash	11	stimuli_distractor_diamondtriangles.svg	stimuli_distractor_trianglediamonds.svg	14	no	53	0	947	6	3	antiphase_hc_soi.wav	1	6	6	noise_calib_stim_RIGHT.wav	2	17	blb_dichoticlistening_ga-pa.mp3	ga	pa	1	right
6.6.1	win	2023-06-24	09:31:31	10:00:54	1575468	63f8a056531af02b77961676	1	1	practice_slash	22	advance_on_keypress_SLASH	12	stimuli_distractor_diamondtriangles.svg	stimuli_distractor_trianglediamonds.svg	14	no	57	0	191	6	3	antiphase_hc_soi.wav	1	6	6	noise_calib_stim_RIGHT.wav	2	17	blb_dichoticlistening_ga-pa.mp3	ga	pa	1	right
6.6.1	win	2023-06-24	09:31:31	10:00:56	1577494	63f8a056531af02b77961676	1	1	practice_slash	22	practice_slash	13	stimuli_target_rectanglediamonds.svg	stimuli_distractor_trianglediamonds.svg	4	yes	53	1	160	6	3	antiphase_hc_soi.wav	1	6	6	noise_calib_stim_RIGHT.wav	2	17	blb_dichoticlistening_ga-pa.mp3	ga	pa	1	right
6.6.1	win	2023-06-24	09:31:31	10:00:56	1577494	63f8a056531af02b77961676	1	1	practice_slash	22	advance_on_keypress_SLASH	14	stimuli_target_rectanglediamonds.svg	stimuli_distractor_trianglediamonds.svg	4	yes	57	0	669	6	3	antiphase_hc_soi.wav	1	6	6	noise_calib_stim_RIGHT.wav	2	17	blb_dichoticlistening_ga-pa.mp3	ga	pa	1	right
6.6.1	win	2023-06-24	09:31:31	10:00:58	1580005	63f8a056531af02b77961676	1	1	practice_slash	22	practice_slash	15	stimuli_target_rectanglediamonds.svg	stimuli_distractor_diamondtriangles.svg	1	yes	53	1	168	6	3	antiphase_hc_soi.wav	1	6	6	noise_calib_stim_RIGHT.wav	2	17	blb_dichoticlistening_ga-pa.mp3	ga	pa	1	right
6.6.1	win	2023-06-24	09:31:31	10:00:58	1580005	63f8a056531af02b77961676	1	1	practice_slash	22	advance_on_keypress_SLASH	16	stimuli_target_rectanglediamonds.svg	stimuli_distractor_diamondtriangles.svg	1	yes	57	0	355	6	3	antiphase_hc_soi.wav	1	6	6	noise_calib_stim_RIGHT.wav	2	17	blb_dichoticlistening_ga-pa.mp3	ga	pa	1	right
6.6.1	win	2023-06-24	09:31:31	10:01:00	1582048	63f8a056531af02b77961676	1	1	practice_slash	22	practice_slash	17	stimuli_distractor_trianglediamonds.svg	stimuli_target_squarediamonds.svg	11	yes	53	1	17	6	3	antiphase_hc_soi.wav	1	6	6	noise_calib_stim_RIGHT.wav	2	17	blb_dichoticlistening_ga-pa.mp3	ga	pa	1	right
6.6.1	win	2023-06-24	09:31:31	10:01:00	1582048	63f8a056531af02b77961676	1	1	practice_slash	22	advance_on_keypress_SLASH	18	stimuli_distractor_trianglediamonds.svg	stimuli_target_squarediamonds.svg	11	yes	57	0	230	6	3	antiphase_hc_soi.wav	1	6	6	noise_calib_stim_RIGHT.wav	2	17	blb_dichoticlistening_ga-pa.mp3	ga	pa	1	right
6.6.1	win	2023-06-24	09:31:31	10:01:03	1584963	63f8a056531af02b77961676	1	1	practice_slash	22	practice_slash	19	stimuli_distractor_diamondtriangles.svg	stimuli_target_rectangletriangles.svg	7	yes	53	1	992	6	3	antiphase_hc_soi.wav	1	6	6	noise_calib_stim_RIGHT.wav	2	17	blb_dichoticlistening_ga-pa.mp3	ga	pa	1	right
6.6.1	win	2023-06-24	09:31:31	10:01:03	1584963	63f8a056531af02b77961676	1	1	practice_slash	22	advance_on_keypress_SLASH	20	stimuli_distractor_diamondtriangles.svg	stimuli_target_rectangletriangles.svg	7	yes	57	0	729	6	3	antiphase_hc_soi.wav	1	6	6	noise_calib_stim_RIGHT.wav	2	17	blb_dichoticlistening_ga-pa.mp3	ga	pa	1	right
6.6.1	win	2023-06-24	09:31:31	10:01:06	1587493	63f8a056531af02b77961676	1	1	practice_slash	22	practice_slash	21	stimuli_distractor_trianglediamonds.svg	stimuli_distractor_diamondtriangles.svg	16	no	53	0	126	6	3	antiphase_hc_soi.wav	1	6	6	noise_calib_stim_RIGHT.wav	2	17	blb_dichoticlistening_ga-pa.mp3	ga	pa	1	right
6.6.1	win	2023-06-24	09:31:31	10:01:06	1587493	63f8a056531af02b77961676	1	1	practice_slash	22	advance_on_keypress_SLASH	22	stimuli_distractor_trianglediamonds.svg	stimuli_distractor_diamondtriangles.svg	16	no	57	0	877	6	3	antiphase_hc_soi.wav	1	6	6	noise_calib_stim_RIGHT.wav	2	17	blb_dichoticlistening_ga-pa.mp3	ga	pa	1	right
6.6.1	win	2023-06-24	09:31:31	10:01:08	1590161	63f8a056531af02b77961676	1	1	practice_slash	22	practice_slash	23	stimuli_distractor_trianglediamonds.svg	stimuli_target_diamondrectangles.svg	12	yes	53	1	123	6	3	antiphase_hc_soi.wav	1	6	6	noise_calib_stim_RIGHT.wav	2	17	blb_dichoticlistening_ga-pa.mp3	ga	pa	1	right
6.6.1	win	2023-06-24	09:31:31	10:01:08	1590161	63f8a056531af02b77961676	1	1	practice_slash	22	advance_on_keypress_SLASH	24	stimuli_distractor_trianglediamonds.svg	stimuli_target_diamondrectangles.svg	12	yes	57	0	521	6	3	antiphase_hc_soi.wav	1	6	6	noise_calib_stim_RIGHT.wav	2	17	blb_dichoticlistening_ga-pa.mp3	ga	pa	1	right
6.6.1	win	2023-06-24	09:31:31	10:01:11	1592616	63f8a056531af02b77961676	1	1	practice_slash	22	practice_slash	25	stimuli_target_diamondsquares.svg	stimuli_distractor_diamondtriangles.svg	3	yes	53	1	255	6	3	antiphase_hc_soi.wav	1	6	6	noise_calib_stim_RIGHT.wav	2	17	blb_dichoticlistening_ga-pa.mp3	ga	pa	1	right
6.6.1	win	2023-06-24	09:31:31	10:01:11	1592616	63f8a056531af02b77961676	1	1	practice_slash	22	advance_on_keypress_SLASH	26	stimuli_target_diamondsquares.svg	stimuli_distractor_diamondtriangles.svg	3	yes	57	0	421	6	3	antiphase_hc_soi.wav	1	6	6	noise_calib_stim_RIGHT.wav	2	17	blb_dichoticlistening_ga-pa.mp3	ga	pa	1	right
6.6.1	win	2023-06-24	09:31:31	10:01:13	1595036	63f8a056531af02b77961676	1	1	practice_slash	22	practice_slash	27	stimuli_target_diamondsquares.svg	stimuli_distractor_trianglediamonds.svg	6	yes	53	1	325	6	3	antiphase_hc_soi.wav	1	6	6	noise_calib_stim_RIGHT.wav	2	17	blb_dichoticlistening_ga-pa.mp3	ga	pa	1	right
6.6.1	win	2023-06-24	09:31:31	10:01:13	1595036	63f8a056531af02b77961676	1	1	practice_slash	22	advance_on_keypress_SLASH	28	stimuli_target_diamondsquares.svg	stimuli_distractor_trianglediamonds.svg	6	yes	57	0	361	6	3	antiphase_hc_soi.wav	1	6	6	noise_calib_stim_RIGHT.wav	2	17	blb_dichoticlistening_ga-pa.mp3	ga	pa	1	right
6.6.1	win	2023-06-24	09:31:31	10:01:15	1597363	63f8a056531af02b77961676	1	1	practice_slash	22	practice_slash	29	stimuli_distractor_diamondtriangles.svg	stimuli_distractor_diamondtriangles.svg	13	no	53	0	287	6	3	antiphase_hc_soi.wav	1	6	6	noise_calib_stim_RIGHT.wav	2	17	blb_dichoticlistening_ga-pa.mp3	ga	pa	1	right
6.6.1	win	2023-06-24	09:31:31	10:01:15	1597363	63f8a056531af02b77961676	1	1	practice_slash	22	advance_on_keypress_SLASH	30	stimuli_distractor_diamondtriangles.svg	stimuli_distractor_diamondtriangles.svg	13	no	57	0	343	6	3	antiphase_hc_soi.wav	1	6	6	noise_calib_stim_RIGHT.wav	2	17	blb_dichoticlistening_ga-pa.mp3	ga	pa	1	right
6.6.1	win	2023-06-24	09:31:31	10:01:18	1599653	63f8a056531af02b77961676	1	1	practice_slash	22	practice_slash	31	stimuli_target_squarediamonds.svg	stimuli_distractor_diamondtriangles.svg	2	yes	53	1	279	6	3	antiphase_hc_soi.wav	1	6	6	noise_calib_stim_RIGHT.wav	2	17	blb_dichoticlistening_ga-pa.mp3	ga	pa	1	right
6.6.1	win	2023-06-24	09:31:31	10:01:18	1599653	63f8a056531af02b77961676	1	1	practice_slash	22	advance_on_keypress_SLASH	32	stimuli_target_squarediamonds.svg	stimuli_distractor_diamondtriangles.svg	2	yes	57	0	363	6	3	antiphase_hc_soi.wav	1	6	6	noise_calib_stim_RIGHT.wav	2	17	blb_dichoticlistening_ga-pa.mp3	ga	pa	1	right
6.6.1	win	2023-06-24	09:31:31	10:01:35	1616981	63f8a056531af02b77961676	1	1	main_slash	24	main_slash	1	stimuli_target_squaretriangles.svg	stimuli_distractor_diamondtriangles.svg	7	yes	0	0	2000	6	3	antiphase_hc_soi.wav	1	6	6	noise_calib_stim_RIGHT.wav	2	17	blb_dichoticlistening_ga-pa.mp3	ga	pa	1	right
6.6.1	win	2023-06-24	09:31:31	10:01:35	1616981	63f8a056531af02b77961676	1	1	main_slash	24	advance_on_keypress_SLASH	2	stimuli_target_squaretriangles.svg	stimuli_distractor_diamondtriangles.svg	7	yes	57	0	1209	6	3	antiphase_hc_soi.wav	1	6	6	noise_calib_stim_RIGHT.wav	2	17	blb_dichoticlistening_ga-pa.mp3	ga	pa	1	right
6.6.1	win	2023-06-24	09:31:31	10:01:38	1619453	63f8a056531af02b77961676	1	1	main_slash	24	main_slash	3	stimuli_target_squarediamonds.svg	stimuli_distractor_diamondtriangles.svg	8	yes	53	1	590	6	3	antiphase_hc_soi.wav	1	6	6	noise_calib_stim_RIGHT.wav	2	17	blb_dichoticlistening_ga-pa.mp3	ga	pa	1	right
6.6.1	win	2023-06-24	09:31:31	10:01:38	1619453	63f8a056531af02b77961676	1	1	main_slash	24	advance_on_keypress_SLASH	4	stimuli_target_squarediamonds.svg	stimuli_distractor_diamondtriangles.svg	8	yes	57	0	639	6	3	antiphase_hc_soi.wav	1	6	6	noise_calib_stim_RIGHT.wav	2	17	blb_dichoticlistening_ga-pa.mp3	ga	pa	1	right
6.6.1	win	2023-06-24	09:31:31	10:01:39	1621229	63f8a056531af02b77961676	1	1	main_slash	24	main_slash	5	stimuli_distractor_trianglediamonds.svg	stimuli_target_rectanglediamonds.svg	10	yes	53	1	467	6	3	antiphase_hc_soi.wav	1	6	6	noise_calib_stim_RIGHT.wav	2	17	blb_dichoticlistening_ga-pa.mp3	ga	pa	1	right
6.6.1	win	2023-06-24	09:31:31	10:01:39	1621229	63f8a056531af02b77961676	1	1	main_slash	24	advance_on_keypress_SLASH	6	stimuli_distractor_trianglediamonds.svg	stimuli_target_rectanglediamonds.svg	10	yes	57	0	759	6	3	antiphase_hc_soi.wav	1	6	6	noise_calib_stim_RIGHT.wav	2	17	blb_dichoticlistening_ga-pa.mp3	ga	pa	1	right
6.6.1	win	2023-06-24	09:31:31	10:01:41	1623264	63f8a056531af02b77961676	1	1	main_slash	24	main_slash	7	stimuli_target_trianglerectangles.svg	stimuli_distractor_diamondtriangles.svg	21	yes	53	1	621	6	3	antiphase_hc_soi.wav	1	6	6	noise_calib_stim_RIGHT.wav	2	17	blb_dichoticlistening_ga-pa.mp3	ga	pa	1	right
6.6.1	win	2023-06-24	09:31:31	10:01:41	1623264	63f8a056531af02b77961676	1	1	main_slash	24	advance_on_keypress_SLASH	8	stimuli_target_trianglerectangles.svg	stimuli_distractor_diamondtriangles.svg	21	yes	57	0	350	6	3	antiphase_hc_soi.wav	1	6	6	noise_calib_stim_RIGHT.wav	2	17	blb_dichoticlistening_ga-pa.mp3	ga	pa	1	right
6.6.1	win	2023-06-24	09:31:31	10:01:43	1624704	63f8a056531af02b77961676	1	1	main_slash	24	main_slash	9	stimuli_target_squaretriangles.svg	stimuli_distractor_trianglediamonds.svg	3	yes	53	1	440	6	3	antiphase_hc_soi.wav	1	6	6	noise_calib_stim_RIGHT.wav	2	17	blb_dichoticlistening_ga-pa.mp3	ga	pa	1	right
6.6.1	win	2023-06-24	09:31:31	10:01:43	1624704	63f8a056531af02b77961676	1	1	main_slash	24	advance_on_keypress_SLASH	10	stimuli_target_squaretriangles.svg	stimuli_distractor_trianglediamonds.svg	3	yes	57	0	507	6	3	antiphase_hc_soi.wav	1	6	6	noise_calib_stim_RIGHT.wav	2	17	blb_dichoticlistening_ga-pa.mp3	ga	pa	1	right
6.6.1	win	2023-06-24	09:31:31	10:01:44	1626192	63f8a056531af02b77961676	1	1	main_slash	24	main_slash	11	stimuli_distractor_trianglediamonds.svg	stimuli_target_squaretriangles.svg	11	yes	53	1	316	6	3	antiphase_hc_soi.wav	1	6	6	noise_calib_stim_RIGHT.wav	2	17	blb_dichoticlistening_ga-pa.mp3	ga	pa	1	right
6.6.1	win	2023-06-24	09:31:31	10:01:44	1626192	63f8a056531af02b77961676	1	1	main_slash	24	advance_on_keypress_SLASH	12	stimuli_distractor_trianglediamonds.svg	stimuli_target_squaretriangles.svg	11	yes	57	0	435	6	3	antiphase_hc_soi.wav	1	6	6	noise_calib_stim_RIGHT.wav	2	17	blb_dichoticlistening_ga-pa.mp3	ga	pa	1	right
6.6.1	win	2023-06-24	09:31:31	10:01:46	1627620	63f8a056531af02b77961676	1	1	main_slash	24	main_slash	13	stimuli_distractor_diamondtriangles.svg	stimuli_distractor_trianglediamonds.svg	37	no	53	0	344	6	3	antiphase_hc_soi.wav	1	6	6	noise_calib_stim_RIGHT.wav	2	17	blb_dichoticlistening_ga-pa.mp3	ga	pa	1	right
6.6.1	win	2023-06-24	09:31:31	10:01:46	1627620	63f8a056531af02b77961676	1	1	main_slash	24	advance_on_keypress_SLASH	14	stimuli_distractor_diamondtriangles.svg	stimuli_distractor_trianglediamonds.svg	37	no	57	0	672	6	3	antiphase_hc_soi.wav	1	6	6	noise_calib_stim_RIGHT.wav	2	17	blb_dichoticlistening_ga-pa.mp3	ga	pa	1	right
6.6.1	win	2023-06-24	09:31:31	10:01:47	1629089	63f8a056531af02b77961676	1	1	main_slash	24	main_slash	15	stimuli_distractor_diamondtriangles.svg	stimuli_target_diamondsquares.svg	32	yes	53	1	122	6	3	antiphase_hc_soi.wav	1	6	6	noise_calib_stim_RIGHT.wav	2	17	blb_dichoticlistening_ga-pa.mp3	ga	pa	1	right
6.6.1	win	2023-06-24	09:31:31	10:01:47	1629089	63f8a056531af02b77961676	1	1	main_slash	24	advance_on_keypress_SLASH	16	stimuli_distractor_diamondtriangles.svg	stimuli_target_diamondsquares.svg	32	yes	57	0	492	6	3	antiphase_hc_soi.wav	1	6	6	noise_calib_stim_RIGHT.wav	2	17	blb_dichoticlistening_ga-pa.mp3	ga	pa	1	right
6.6.1	win	2023-06-24	09:31:31	10:01:49	1630548	63f8a056531af02b77961676	1	1	main_slash	24	main_slash	17	stimuli_target_diamondsquares.svg	stimuli_distractor_diamondtriangles.svg	24	yes	53	1	308	6	3	antiphase_hc_soi.wav	1	6	6	noise_calib_stim_RIGHT.wav	2	17	blb_dichoticlistening_ga-pa.mp3	ga	pa	1	right
6.6.1	win	2023-06-24	09:31:31	10:01:49	1630548	63f8a056531af02b77961676	1	1	main_slash	24	advance_on_keypress_SLASH	18	stimuli_target_diamondsquares.svg	stimuli_distractor_diamondtriangles.svg	24	yes	57	0	391	6	3	antiphase_hc_soi.wav	1	6	6	noise_calib_stim_RIGHT.wav	2	17	blb_dichoticlistening_ga-pa.mp3	ga	pa	1	right
6.6.1	win	2023-06-24	09:31:31	10:01:50	1631623	63f8a056531af02b77961676	1	1	main_slash	24	main_slash	19	stimuli_distractor_trianglediamonds.svg	stimuli_target_squarediamonds.svg	12	yes	53	1	17	6	3	antiphase_hc_soi.wav	1	6	6	noise_calib_stim_RIGHT.wav	2	17	blb_dichoticlistening_ga-pa.mp3	ga	pa	1	right
6.6.1	win	2023-06-24	09:31:31	10:01:50	1631623	63f8a056531af02b77961676	1	1	main_slash	24	advance_on_keypress_SLASH	20	stimuli_distractor_trianglediamonds.svg	stimuli_target_squarediamonds.svg	12	yes	57	0	490	6	3	antiphase_hc_soi.wav	1	6	6	noise_calib_stim_RIGHT.wav	2	17	blb_dichoticlistening_ga-pa.mp3	ga	pa	1	right
6.6.1	win	2023-06-24	09:31:31	10:01:52	1633617	63f8a056531af02b77961676	1	1	main_slash	24	main_slash	21	stimuli_distractor_diamondtriangles.svg	stimuli_target_rectanglediamonds.svg	14	yes	53	1	844	6	3	antiphase_hc_soi.wav	1	6	6	noise_calib_stim_RIGHT.wav	2	17	blb_dichoticlistening_ga-pa.mp3	ga	pa	1	right
6.6.1	win	2023-06-24	09:31:31	10:01:52	1633617	63f8a056531af02b77961676	1	1	main_slash	24	advance_on_keypress_SLASH	22	stimuli_distractor_diamondtriangles.svg	stimuli_target_rectanglediamonds.svg	14	yes	57	0	550	6	3	antiphase_hc_soi.wav	1	6	6	noise_calib_stim_RIGHT.wav	2	17	blb_dichoticlistening_ga-pa.mp3	ga	pa	1	right
6.6.1	win	2023-06-24	09:31:31	10:01:53	1635017	63f8a056531af02b77961676	1	1	main_slash	24	main_slash	23	stimuli_target_trianglesquares.svg	stimuli_distractor_diamondtriangles.svg	22	yes	53	1	194	6	3	antiphase_hc_soi.wav	1	6	6	noise_calib_stim_RIGHT.wav	2	17	blb_dichoticlistening_ga-pa.mp3	ga	pa	1	right
6.6.1	win	2023-06-24	09:31:31	10:01:53	1635017	63f8a056531af02b77961676	1	1	main_slash	24	advance_on_keypress_SLASH	24	stimuli_target_trianglesquares.svg	stimuli_distractor_diamondtriangles.svg	22	yes	57	0	130	6	3	antiphase_hc_soi.wav	1	6	6	noise_calib_stim_RIGHT.wav	2	17	blb_dichoticlistening_ga-pa.mp3	ga	pa	1	right
6.6.1	win	2023-06-24	09:31:31	10:01:54	1636260	63f8a056531af02b77961676	1	1	main_slash	24	main_slash	25	stimuli_distractor_trianglediamonds.svg	stimuli_target_trianglesquares.svg	26	yes	53	1	455	6	3	antiphase_hc_soi.wav	1	6	6	noise_calib_stim_RIGHT.wav	2	17	blb_dichoticlistening_ga-pa.mp3	ga	pa	1	right
6.6.1	win	2023-06-24	09:31:31	10:01:54	1636260	63f8a056531af02b77961676	1	1	main_slash	24	advance_on_keypress_SLASH	26	stimuli_distractor_trianglediamonds.svg	stimuli_target_trianglesquares.svg	26	yes	57	0	523	6	3	antiphase_hc_soi.wav	1	6	6	noise_calib_stim_RIGHT.wav	2	17	blb_dichoticlistening_ga-pa.mp3	ga	pa	1	right
6.6.1	win	2023-06-24	09:31:31	10:01:56	1637836	63f8a056531af02b77961676	1	1	main_slash	24	main_slash	27	stimuli_distractor_trianglediamonds.svg	stimuli_distractor_trianglediamonds.svg	34	no	53	0	377	6	3	antiphase_hc_soi.wav	1	6	6	noise_calib_stim_RIGHT.wav	2	17	blb_dichoticlistening_ga-pa.mp3	ga	pa	1	right
6.6.1	win	2023-06-24	09:31:31	10:01:56	1637836	63f8a056531af02b77961676	1	1	main_slash	24	advance_on_keypress_SLASH	28	stimuli_distractor_trianglediamonds.svg	stimuli_distractor_trianglediamonds.svg	34	no	57	0	1238	6	3	antiphase_hc_soi.wav	1	6	6	noise_calib_stim_RIGHT.wav	2	17	blb_dichoticlistening_ga-pa.mp3	ga	pa	1	right
6.6.1	win	2023-06-24	09:31:31	10:02:00	1641726	63f8a056531af02b77961676	1	1	main_slash	24	main_slash	29	stimuli_distractor_diamondtriangles.svg	stimuli_target_squaretriangles.svg	15	yes	53	1	1990	6	3	antiphase_hc_soi.wav	1	6	6	noise_calib_stim_RIGHT.wav	2	17	blb_dichoticlistening_ga-pa.mp3	ga	pa	1	right
6.6.1	win	2023-06-24	09:31:31	10:02:00	1641726	63f8a056531af02b77961676	1	1	main_slash	24	advance_on_keypress_SLASH	30	stimuli_distractor_diamondtriangles.svg	stimuli_target_squaretriangles.svg	15	yes	57	0	534	6	3	antiphase_hc_soi.wav	1	6	6	noise_calib_stim_RIGHT.wav	2	17	blb_dichoticlistening_ga-pa.mp3	ga	pa	1	right
6.6.1	win	2023-06-24	09:31:31	10:02:01	1643326	63f8a056531af02b77961676	1	1	main_slash	24	main_slash	31	stimuli_distractor_diamondtriangles.svg	stimuli_distractor_diamondtriangles.svg	39	no	53	0	407	6	3	antiphase_hc_soi.wav	1	6	6	noise_calib_stim_RIGHT.wav	2	17	blb_dichoticlistening_ga-pa.mp3	ga	pa	1	right
6.6.1	win	2023-06-24	09:31:31	10:02:01	1643326	63f8a056531af02b77961676	1	1	main_slash	24	advance_on_keypress_SLASH	32	stimuli_distractor_diamondtriangles.svg	stimuli_distractor_diamondtriangles.svg	39	no	57	0	326	6	3	antiphase_hc_soi.wav	1	6	6	noise_calib_stim_RIGHT.wav	2	17	blb_dichoticlistening_ga-pa.mp3	ga	pa	1	right
6.6.1	win	2023-06-24	09:31:31	10:02:03	1644775	63f8a056531af02b77961676	1	1	main_slash	24	main_slash	33	stimuli_distractor_trianglediamonds.svg	stimuli_distractor_diamondtriangles.svg	35	no	53	0	457	6	3	antiphase_hc_soi.wav	1	6	6	noise_calib_stim_RIGHT.wav	2	17	blb_dichoticlistening_ga-pa.mp3	ga	pa	1	right
6.6.1	win	2023-06-24	09:31:31	10:02:03	1644775	63f8a056531af02b77961676	1	1	main_slash	24	advance_on_keypress_SLASH	34	stimuli_distractor_trianglediamonds.svg	stimuli_distractor_diamondtriangles.svg	35	no	57	0	367	6	3	antiphase_hc_soi.wav	1	6	6	noise_calib_stim_RIGHT.wav	2	17	blb_dichoticlistening_ga-pa.mp3	ga	pa	1	right
6.6.1	win	2023-06-24	09:31:31	10:02:04	1645899	63f8a056531af02b77961676	1	1	main_slash	24	main_slash	35	stimuli_distractor_diamondtriangles.svg	stimuli_target_rectangletriangles.svg	13	yes	53	1	96	6	3	antiphase_hc_soi.wav	1	6	6	noise_calib_stim_RIGHT.wav	2	17	blb_dichoticlistening_ga-pa.mp3	ga	pa	1	right
6.6.1	win	2023-06-24	09:31:31	10:02:04	1645899	63f8a056531af02b77961676	1	1	main_slash	24	advance_on_keypress_SLASH	36	stimuli_distractor_diamondtriangles.svg	stimuli_target_rectangletriangles.svg	13	yes	57	0	502	6	3	antiphase_hc_soi.wav	1	6	6	noise_calib_stim_RIGHT.wav	2	17	blb_dichoticlistening_ga-pa.mp3	ga	pa	1	right
6.6.1	win	2023-06-24	09:31:31	10:02:06	1647757	63f8a056531af02b77961676	1	1	main_slash	24	main_slash	37	stimuli_distractor_trianglediamonds.svg	stimuli_target_rectangletriangles.svg	9	yes	53	1	705	6	3	antiphase_hc_soi.wav	1	6	6	noise_calib_stim_RIGHT.wav	2	17	blb_dichoticlistening_ga-pa.mp3	ga	pa	1	right
6.6.1	win	2023-06-24	09:31:31	10:02:06	1647757	63f8a056531af02b77961676	1	1	main_slash	24	advance_on_keypress_SLASH	38	stimuli_distractor_trianglediamonds.svg	stimuli_target_rectangletriangles.svg	9	yes	57	0	431	6	3	antiphase_hc_soi.wav	1	6	6	noise_calib_stim_RIGHT.wav	2	17	blb_dichoticlistening_ga-pa.mp3	ga	pa	1	right
6.6.1	win	2023-06-24	09:31:31	10:02:08	1649703	63f8a056531af02b77961676	1	1	main_slash	24	main_slash	39	stimuli_distractor_trianglediamonds.svg	stimuli_target_diamondrectangles.svg	27	yes	53	1	853	6	3	antiphase_hc_soi.wav	1	6	6	noise_calib_stim_RIGHT.wav	2	17	blb_dichoticlistening_ga-pa.mp3	ga	pa	1	right
6.6.1	win	2023-06-24	09:31:31	10:02:08	1649703	63f8a056531af02b77961676	1	1	main_slash	24	advance_on_keypress_SLASH	40	stimuli_distractor_trianglediamonds.svg	stimuli_target_diamondrectangles.svg	27	yes	57	0	483	6	3	antiphase_hc_soi.wav	1	6	6	noise_calib_stim_RIGHT.wav	2	17	blb_dichoticlistening_ga-pa.mp3	ga	pa	1	right
6.6.1	win	2023-06-24	09:31:31	10:02:09	1651346	63f8a056531af02b77961676	1	1	main_slash	24	main_slash	41	stimuli_distractor_diamondtriangles.svg	stimuli_target_squarediamonds.svg	16	yes	53	1	509	6	3	antiphase_hc_soi.wav	1	6	6	noise_calib_stim_RIGHT.wav	2	17	blb_dichoticlistening_ga-pa.mp3	ga	pa	1	right
6.6.1	win	2023-06-24	09:31:31	10:02:09	1651346	63f8a056531af02b77961676	1	1	main_slash	24	advance_on_keypress_SLASH	42	stimuli_distractor_diamondtriangles.svg	stimuli_target_squarediamonds.svg	16	yes	57	0	335	6	3	antiphase_hc_soi.wav	1	6	6	noise_calib_stim_RIGHT.wav	2	17	blb_dichoticlistening_ga-pa.mp3	ga	pa	1	right
6.6.1	win	2023-06-24	09:31:31	10:02:11	1653107	63f8a056531af02b77961676	1	1	main_slash	24	main_slash	43	stimuli_target_rectangletriangles.svg	stimuli_distractor_trianglediamonds.svg	1	yes	53	1	773	6	3	antiphase_hc_soi.wav	1	6	6	noise_calib_stim_RIGHT.wav	2	17	blb_dichoticlistening_ga-pa.mp3	ga	pa	1	right
6.6.1	win	2023-06-24	09:31:31	10:02:11	1653107	63f8a056531af02b77961676	1	1	main_slash	24	advance_on_keypress_SLASH	44	stimuli_target_rectangletriangles.svg	stimuli_distractor_trianglediamonds.svg	1	yes	57	0	1042	6	3	antiphase_hc_soi.wav	1	6	6	noise_calib_stim_RIGHT.wav	2	17	blb_dichoticlistening_ga-pa.mp3	ga	pa	1	right
6.6.1	win	2023-06-24	09:31:31	10:02:13	1655388	63f8a056531af02b77961676	1	1	main_slash	24	main_slash	45	stimuli_target_diamondrectangles.svg	stimuli_distractor_trianglediamonds.svg	19	yes	53	1	574	6	3	antiphase_hc_soi.wav	1	6	6	noise_calib_stim_RIGHT.wav	2	17	blb_dichoticlistening_ga-pa.mp3	ga	pa	1	right
6.6.1	win	2023-06-24	09:31:31	10:02:13	1655388	63f8a056531af02b77961676	1	1	main_slash	24	advance_on_keypress_SLASH	46	stimuli_target_diamondrectangles.svg	stimuli_distractor_trianglediamonds.svg	19	yes	57	0	1153	6	3	antiphase_hc_soi.wav	1	6	6	noise_calib_stim_RIGHT.wav	2	17	blb_dichoticlistening_ga-pa.mp3	ga	pa	1	right
6.6.1	win	2023-06-24	09:31:31	10:02:16	1657416	63f8a056531af02b77961676	1	1	main_slash	24	main_slash	47	stimuli_target_trianglesquares.svg	stimuli_distractor_trianglediamonds.svg	18	yes	53	1	202	6	3	antiphase_hc_soi.wav	1	6	6	noise_calib_stim_RIGHT.wav	2	17	blb_dichoticlistening_ga-pa.mp3	ga	pa	1	right
6.6.1	win	2023-06-24	09:31:31	10:02:16	1657416	63f8a056531af02b77961676	1	1	main_slash	24	advance_on_keypress_SLASH	48	stimuli_target_trianglesquares.svg	stimuli_distractor_trianglediamonds.svg	18	yes	57	0	1123	6	3	antiphase_hc_soi.wav	1	6	6	noise_calib_stim_RIGHT.wav	2	17	blb_dichoticlistening_ga-pa.mp3	ga	pa	1	right
6.6.1	win	2023-06-24	09:31:31	10:02:19	1661175	63f8a056531af02b77961676	1	1	main_slash	24	main_slash	49	stimuli_target_squarediamonds.svg	stimuli_distractor_trianglediamonds.svg	4	yes	53	1	1976	6	3	antiphase_hc_soi.wav	1	6	6	noise_calib_stim_RIGHT.wav	2	17	blb_dichoticlistening_ga-pa.mp3	ga	pa	1	right
6.6.1	win	2023-06-24	09:31:31	10:02:19	1661175	63f8a056531af02b77961676	1	1	main_slash	24	advance_on_keypress_SLASH	50	stimuli_target_squarediamonds.svg	stimuli_distractor_trianglediamonds.svg	4	yes	57	0	909	6	3	antiphase_hc_soi.wav	1	6	6	noise_calib_stim_RIGHT.wav	2	17	blb_dichoticlistening_ga-pa.mp3	ga	pa	1	right
6.6.1	win	2023-06-24	09:31:31	10:02:22	1664286	63f8a056531af02b77961676	1	1	main_slash	24	main_slash	51	stimuli_distractor_trianglediamonds.svg	stimuli_target_trianglerectangles.svg	25	yes	53	1	1543	6	3	antiphase_hc_soi.wav	1	6	6	noise_calib_stim_RIGHT.wav	2	17	blb_dichoticlistening_ga-pa.mp3	ga	pa	1	right
6.6.1	win	2023-06-24	09:31:31	10:02:22	1664286	63f8a056531af02b77961676	1	1	main_slash	24	advance_on_keypress_SLASH	52	stimuli_distractor_trianglediamonds.svg	stimuli_target_trianglerectangles.svg	25	yes	57	0	679	6	3	antiphase_hc_soi.wav	1	6	6	noise_calib_stim_RIGHT.wav	2	17	blb_dichoticlistening_ga-pa.mp3	ga	pa	1	right
6.6.1	win	2023-06-24	09:31:31	10:02:24	1665671	63f8a056531af02b77961676	1	1	main_slash	24	main_slash	53	stimuli_distractor_trianglediamonds.svg	stimuli_distractor_diamondtriangles.svg	36	no	53	0	45	6	3	antiphase_hc_soi.wav	1	6	6	noise_calib_stim_RIGHT.wav	2	17	blb_dichoticlistening_ga-pa.mp3	ga	pa	1	right
6.6.1	win	2023-06-24	09:31:31	10:02:24	1665671	63f8a056531af02b77961676	1	1	main_slash	24	advance_on_keypress_SLASH	54	stimuli_distractor_trianglediamonds.svg	stimuli_distractor_diamondtriangles.svg	36	no	57	0	1394	6	3	antiphase_hc_soi.wav	1	6	6	noise_calib_stim_RIGHT.wav	2	17	blb_dichoticlistening_ga-pa.mp3	ga	pa	1	right
6.6.1	win	2023-06-24	09:31:31	10:02:26	1667824	63f8a056531af02b77961676	1	1	main_slash	24	main_slash	55	stimuli_distractor_trianglediamonds.svg	stimuli_target_diamondsquares.svg	28	yes	53	1	100	6	3	antiphase_hc_soi.wav	1	6	6	noise_calib_stim_RIGHT.wav	2	17	blb_dichoticlistening_ga-pa.mp3	ga	pa	1	right
6.6.1	win	2023-06-24	09:31:31	10:02:26	1667824	63f8a056531af02b77961676	1	1	main_slash	24	advance_on_keypress_SLASH	56	stimuli_distractor_trianglediamonds.svg	stimuli_target_diamondsquares.svg	28	yes	57	0	615	6	3	antiphase_hc_soi.wav	1	6	6	noise_calib_stim_RIGHT.wav	2	17	blb_dichoticlistening_ga-pa.mp3	ga	pa	1	right
6.6.1	win	2023-06-24	09:31:31	10:02:29	1671091	63f8a056531af02b77961676	1	1	main_slash	24	main_slash	57	stimuli_target_diamondrectangles.svg	stimuli_distractor_diamondtriangles.svg	23	yes	0	0	2000	6	3	antiphase_hc_soi.wav	1	6	6	noise_calib_stim_RIGHT.wav	2	17	blb_dichoticlistening_ga-pa.mp3	ga	pa	1	right
6.6.1	win	2023-06-24	09:31:31	10:02:29	1671091	63f8a056531af02b77961676	1	1	main_slash	24	advance_on_keypress_SLASH	58	stimuli_target_diamondrectangles.svg	stimuli_distractor_diamondtriangles.svg	23	yes	57	0	508	6	3	antiphase_hc_soi.wav	1	6	6	noise_calib_stim_RIGHT.wav	2	17	blb_dichoticlistening_ga-pa.mp3	ga	pa	1	right
6.6.1	win	2023-06-24	09:31:31	10:02:31	1672980	63f8a056531af02b77961676	1	1	main_slash	24	main_slash	59	stimuli_target_rectangletriangles.svg	stimuli_distractor_diamondtriangles.svg	5	yes	53	1	723	6	3	antiphase_hc_soi.wav	1	6	6	noise_calib_stim_RIGHT.wav	2	17	blb_dichoticlistening_ga-pa.mp3	ga	pa	1	right
6.6.1	win	2023-06-24	09:31:31	10:02:31	1672980	63f8a056531af02b77961676	1	1	main_slash	24	advance_on_keypress_SLASH	60	stimuli_target_rectangletriangles.svg	stimuli_distractor_diamondtriangles.svg	5	yes	57	0	646	6	3	antiphase_hc_soi.wav	1	6	6	noise_calib_stim_RIGHT.wav	2	17	blb_dichoticlistening_ga-pa.mp3	ga	pa	1	right
6.6.1	win	2023-06-24	09:31:31	10:02:33	1674813	63f8a056531af02b77961676	1	1	main_slash	24	main_slash	61	stimuli_target_diamondsquares.svg	stimuli_distractor_trianglediamonds.svg	20	yes	53	1	525	6	3	antiphase_hc_soi.wav	1	6	6	noise_calib_stim_RIGHT.wav	2	17	blb_dichoticlistening_ga-pa.mp3	ga	pa	1	right
6.6.1	win	2023-06-24	09:31:31	10:02:33	1674813	63f8a056531af02b77961676	1	1	main_slash	24	advance_on_keypress_SLASH	62	stimuli_target_diamondsquares.svg	stimuli_distractor_trianglediamonds.svg	20	yes	57	0	920	6	3	antiphase_hc_soi.wav	1	6	6	noise_calib_stim_RIGHT.wav	2	17	blb_dichoticlistening_ga-pa.mp3	ga	pa	1	right
6.6.1	win	2023-06-24	09:31:31	10:02:35	1677234	63f8a056531af02b77961676	1	1	main_slash	24	main_slash	63	stimuli_distractor_diamondtriangles.svg	stimuli_distractor_diamondtriangles.svg	40	no	53	0	847	6	3	antiphase_hc_soi.wav	1	6	6	noise_calib_stim_RIGHT.wav	2	17	blb_dichoticlistening_ga-pa.mp3	ga	pa	1	right
6.6.1	win	2023-06-24	09:31:31	10:02:35	1677234	63f8a056531af02b77961676	1	1	main_slash	24	advance_on_keypress_SLASH	64	stimuli_distractor_diamondtriangles.svg	stimuli_distractor_diamondtriangles.svg	40	no	57	0	640	6	3	antiphase_hc_soi.wav	1	6	6	noise_calib_stim_RIGHT.wav	2	17	blb_dichoticlistening_ga-pa.mp3	ga	pa	1	right
6.6.1	win	2023-06-24	09:31:31	10:02:37	1679246	63f8a056531af02b77961676	1	1	main_slash	24	main_slash	65	stimuli_target_trianglerectangles.svg	stimuli_distractor_trianglediamonds.svg	17	yes	53	1	709	6	3	antiphase_hc_soi.wav	1	6	6	noise_calib_stim_RIGHT.wav	2	17	blb_dichoticlistening_ga-pa.mp3	ga	pa	1	right
6.6.1	win	2023-06-24	09:31:31	10:02:37	1679246	63f8a056531af02b77961676	1	1	main_slash	24	advance_on_keypress_SLASH	66	stimuli_target_trianglerectangles.svg	stimuli_distractor_trianglediamonds.svg	17	yes	57	0	900	6	3	antiphase_hc_soi.wav	1	6	6	noise_calib_stim_RIGHT.wav	2	17	blb_dichoticlistening_ga-pa.mp3	ga	pa	1	right
6.6.1	win	2023-06-24	09:31:31	10:02:40	1681649	63f8a056531af02b77961676	1	1	main_slash	24	main_slash	67	stimuli_distractor_diamondtriangles.svg	stimuli_target_trianglerectangles.svg	29	yes	53	1	847	6	3	antiphase_hc_soi.wav	1	6	6	noise_calib_stim_RIGHT.wav	2	17	blb_dichoticlistening_ga-pa.mp3	ga	pa	1	right
6.6.1	win	2023-06-24	09:31:31	10:02:40	1681649	63f8a056531af02b77961676	1	1	main_slash	24	advance_on_keypress_SLASH	68	stimuli_distractor_diamondtriangles.svg	stimuli_target_trianglerectangles.svg	29	yes	57	0	888	6	3	antiphase_hc_soi.wav	1	6	6	noise_calib_stim_RIGHT.wav	2	17	blb_dichoticlistening_ga-pa.mp3	ga	pa	1	right
6.6.1	win	2023-06-24	09:31:31	10:02:42	1684146	63f8a056531af02b77961676	1	1	main_slash	24	main_slash	69	stimuli_target_rectanglediamonds.svg	stimuli_distractor_trianglediamonds.svg	2	yes	53	1	943	6	3	antiphase_hc_soi.wav	1	6	6	noise_calib_stim_RIGHT.wav	2	17	blb_dichoticlistening_ga-pa.mp3	ga	pa	1	right
6.6.1	win	2023-06-24	09:31:31	10:02:42	1684146	63f8a056531af02b77961676	1	1	main_slash	24	advance_on_keypress_SLASH	70	stimuli_target_rectanglediamonds.svg	stimuli_distractor_trianglediamonds.svg	2	yes	57	0	677	6	3	antiphase_hc_soi.wav	1	6	6	noise_calib_stim_RIGHT.wav	2	17	blb_dichoticlistening_ga-pa.mp3	ga	pa	1	right
6.6.1	win	2023-06-24	09:31:31	10:02:46	1687484	63f8a056531af02b77961676	1	1	main_slash	24	main_slash	71	stimuli_distractor_diamondtriangles.svg	stimuli_distractor_trianglediamonds.svg	38	no	0	1	2000	6	3	antiphase_hc_soi.wav	1	6	6	noise_calib_stim_RIGHT.wav	2	17	blb_dichoticlistening_ga-pa.mp3	ga	pa	1	right
6.6.1	win	2023-06-24	09:31:31	10:02:46	1687484	63f8a056531af02b77961676	1	1	main_slash	24	advance_on_keypress_SLASH	72	stimuli_distractor_diamondtriangles.svg	stimuli_distractor_trianglediamonds.svg	38	no	57	0	645	6	3	antiphase_hc_soi.wav	1	6	6	noise_calib_stim_RIGHT.wav	2	17	blb_dichoticlistening_ga-pa.mp3	ga	pa	1	right
6.6.1	win	2023-06-24	09:31:31	10:02:48	1689996	63f8a056531af02b77961676	1	1	main_slash	24	main_slash	73	stimuli_distractor_diamondtriangles.svg	stimuli_target_diamondrectangles.svg	31	yes	53	1	1213	6	3	antiphase_hc_soi.wav	1	6	6	noise_calib_stim_RIGHT.wav	2	17	blb_dichoticlistening_ga-pa.mp3	ga	pa	1	right
6.6.1	win	2023-06-24	09:31:31	10:02:48	1689996	63f8a056531af02b77961676	1	1	main_slash	24	advance_on_keypress_SLASH	74	stimuli_distractor_diamondtriangles.svg	stimuli_target_diamondrectangles.svg	31	yes	57	0	836	6	3	antiphase_hc_soi.wav	1	6	6	noise_calib_stim_RIGHT.wav	2	17	blb_dichoticlistening_ga-pa.mp3	ga	pa	1	right
6.6.1	win	2023-06-24	09:31:31	10:02:51	1692897	63f8a056531af02b77961676	1	1	main_slash	24	main_slash	75	stimuli_distractor_diamondtriangles.svg	stimuli_target_trianglesquares.svg	30	yes	53	1	1416	6	3	antiphase_hc_soi.wav	1	6	6	noise_calib_stim_RIGHT.wav	2	17	blb_dichoticlistening_ga-pa.mp3	ga	pa	1	right
6.6.1	win	2023-06-24	09:31:31	10:02:51	1692897	63f8a056531af02b77961676	1	1	main_slash	24	advance_on_keypress_SLASH	76	stimuli_distractor_diamondtriangles.svg	stimuli_target_trianglesquares.svg	30	yes	57	0	828	6	3	antiphase_hc_soi.wav	1	6	6	noise_calib_stim_RIGHT.wav	2	17	blb_dichoticlistening_ga-pa.mp3	ga	pa	1	right
6.6.1	win	2023-06-24	09:31:31	10:02:54	1695463	63f8a056531af02b77961676	1	1	main_slash	24	main_slash	77	stimuli_target_rectanglediamonds.svg	stimuli_distractor_diamondtriangles.svg	6	yes	53	1	1083	6	3	antiphase_hc_soi.wav	1	6	6	noise_calib_stim_RIGHT.wav	2	17	blb_dichoticlistening_ga-pa.mp3	ga	pa	1	right
6.6.1	win	2023-06-24	09:31:31	10:02:54	1695463	63f8a056531af02b77961676	1	1	main_slash	24	advance_on_keypress_SLASH	78	stimuli_target_rectanglediamonds.svg	stimuli_distractor_diamondtriangles.svg	6	yes	57	0	525	6	3	antiphase_hc_soi.wav	1	6	6	noise_calib_stim_RIGHT.wav	2	17	blb_dichoticlistening_ga-pa.mp3	ga	pa	1	right
6.6.1	win	2023-06-24	09:31:31	10:02:56	1697514	63f8a056531af02b77961676	1	1	main_slash	24	main_slash	79	stimuli_distractor_trianglediamonds.svg	stimuli_distractor_trianglediamonds.svg	33	no	53	0	869	6	3	antiphase_hc_soi.wav	1	6	6	noise_calib_stim_RIGHT.wav	2	17	blb_dichoticlistening_ga-pa.mp3	ga	pa	1	right
6.6.1	win	2023-06-24	09:31:31	10:02:56	1697514	63f8a056531af02b77961676	1	1	main_slash	24	advance_on_keypress_SLASH	80	stimuli_distractor_trianglediamonds.svg	stimuli_distractor_trianglediamonds.svg	33	no	57	0	459	6	3	antiphase_hc_soi.wav	1	6	6	noise_calib_stim_RIGHT.wav	2	17	blb_dichoticlistening_ga-pa.mp3	ga	pa	1	right
6.6.1	win	2023-06-24	09:31:31	10:02:58	1699676	63f8a056531af02b77961676	1	1	main_slash	24	main_slash	81	stimuli_distractor_trianglediamonds.svg	stimuli_distractor_diamondtriangles.svg	36	no	53	0	1048	6	3	antiphase_hc_soi.wav	1	6	6	noise_calib_stim_RIGHT.wav	2	17	blb_dichoticlistening_ga-pa.mp3	ga	pa	1	right
6.6.1	win	2023-06-24	09:31:31	10:02:58	1699676	63f8a056531af02b77961676	1	1	main_slash	24	advance_on_keypress_SLASH	82	stimuli_distractor_trianglediamonds.svg	stimuli_distractor_diamondtriangles.svg	36	no	57	0	685	6	3	antiphase_hc_soi.wav	1	6	6	noise_calib_stim_RIGHT.wav	2	17	blb_dichoticlistening_ga-pa.mp3	ga	pa	1	right
6.6.1	win	2023-06-24	09:31:31	10:02:59	1701210	63f8a056531af02b77961676	1	1	main_slash	24	main_slash	83	stimuli_target_diamondsquares.svg	stimuli_distractor_diamondtriangles.svg	24	yes	53	1	199	6	3	antiphase_hc_soi.wav	1	6	6	noise_calib_stim_RIGHT.wav	2	17	blb_dichoticlistening_ga-pa.mp3	ga	pa	1	right
6.6.1	win	2023-06-24	09:31:31	10:02:59	1701210	63f8a056531af02b77961676	1	1	main_slash	24	advance_on_keypress_SLASH	84	stimuli_target_diamondsquares.svg	stimuli_distractor_diamondtriangles.svg	24	yes	57	0	553	6	3	antiphase_hc_soi.wav	1	6	6	noise_calib_stim_RIGHT.wav	2	17	blb_dichoticlistening_ga-pa.mp3	ga	pa	1	right
6.6.1	win	2023-06-24	09:31:31	10:03:02	1703483	63f8a056531af02b77961676	1	1	main_slash	24	main_slash	85	stimuli_distractor_trianglediamonds.svg	stimuli_distractor_diamondtriangles.svg	35	no	53	0	1071	6	3	antiphase_hc_soi.wav	1	6	6	noise_calib_stim_RIGHT.wav	2	17	blb_dichoticlistening_ga-pa.mp3	ga	pa	1	right
6.6.1	win	2023-06-24	09:31:31	10:03:02	1703483	63f8a056531af02b77961676	1	1	main_slash	24	advance_on_keypress_SLASH	86	stimuli_distractor_trianglediamonds.svg	stimuli_distractor_diamondtriangles.svg	35	no	57	0	842	6	3	antiphase_hc_soi.wav	1	6	6	noise_calib_stim_RIGHT.wav	2	17	blb_dichoticlistening_ga-pa.mp3	ga	pa	1	right
6.6.1	win	2023-06-24	09:31:31	10:03:04	1706137	63f8a056531af02b77961676	1	1	main_slash	24	main_slash	87	stimuli_distractor_diamondtriangles.svg	stimuli_distractor_trianglediamonds.svg	37	no	53	0	1144	6	3	antiphase_hc_soi.wav	1	6	6	noise_calib_stim_RIGHT.wav	2	17	blb_dichoticlistening_ga-pa.mp3	ga	pa	1	right
6.6.1	win	2023-06-24	09:31:31	10:03:04	1706137	63f8a056531af02b77961676	1	1	main_slash	24	advance_on_keypress_SLASH	88	stimuli_distractor_diamondtriangles.svg	stimuli_distractor_trianglediamonds.svg	37	no	57	0	539	6	3	antiphase_hc_soi.wav	1	6	6	noise_calib_stim_RIGHT.wav	2	17	blb_dichoticlistening_ga-pa.mp3	ga	pa	1	right
6.6.1	win	2023-06-24	09:31:31	10:03:06	1708387	63f8a056531af02b77961676	1	1	main_slash	24	main_slash	89	stimuli_distractor_trianglediamonds.svg	stimuli_distractor_trianglediamonds.svg	34	no	53	0	1046	6	3	antiphase_hc_soi.wav	1	6	6	noise_calib_stim_RIGHT.wav	2	17	blb_dichoticlistening_ga-pa.mp3	ga	pa	1	right
6.6.1	win	2023-06-24	09:31:31	10:03:06	1708387	63f8a056531af02b77961676	1	1	main_slash	24	advance_on_keypress_SLASH	90	stimuli_distractor_trianglediamonds.svg	stimuli_distractor_trianglediamonds.svg	34	no	57	0	538	6	3	antiphase_hc_soi.wav	1	6	6	noise_calib_stim_RIGHT.wav	2	17	blb_dichoticlistening_ga-pa.mp3	ga	pa	1	right
6.6.1	win	2023-06-24	09:31:31	10:03:09	1710429	63f8a056531af02b77961676	1	1	main_slash	24	main_slash	91	stimuli_distractor_diamondtriangles.svg	stimuli_target_rectangletriangles.svg	13	yes	53	1	839	6	3	antiphase_hc_soi.wav	1	6	6	noise_calib_stim_RIGHT.wav	2	17	blb_dichoticlistening_ga-pa.mp3	ga	pa	1	right
6.6.1	win	2023-06-24	09:31:31	10:03:09	1710429	63f8a056531af02b77961676	1	1	main_slash	24	advance_on_keypress_SLASH	92	stimuli_distractor_diamondtriangles.svg	stimuli_target_rectangletriangles.svg	13	yes	57	0	551	6	3	antiphase_hc_soi.wav	1	6	6	noise_calib_stim_RIGHT.wav	2	17	blb_dichoticlistening_ga-pa.mp3	ga	pa	1	right
6.6.1	win	2023-06-24	09:31:31	10:03:10	1712372	63f8a056531af02b77961676	1	1	main_slash	24	main_slash	93	stimuli_distractor_diamondtriangles.svg	stimuli_target_trianglerectangles.svg	29	yes	53	1	733	6	3	antiphase_hc_soi.wav	1	6	6	noise_calib_stim_RIGHT.wav	2	17	blb_dichoticlistening_ga-pa.mp3	ga	pa	1	right
6.6.1	win	2023-06-24	09:31:31	10:03:10	1712372	63f8a056531af02b77961676	1	1	main_slash	24	advance_on_keypress_SLASH	94	stimuli_distractor_diamondtriangles.svg	stimuli_target_trianglerectangles.svg	29	yes	57	0	707	6	3	antiphase_hc_soi.wav	1	6	6	noise_calib_stim_RIGHT.wav	2	17	blb_dichoticlistening_ga-pa.mp3	ga	pa	1	right
6.6.1	win	2023-06-24	09:31:31	10:03:12	1714220	63f8a056531af02b77961676	1	1	main_slash	24	main_slash	95	stimuli_distractor_diamondtriangles.svg	stimuli_target_squaretriangles.svg	15	yes	53	1	482	6	3	antiphase_hc_soi.wav	1	6	6	noise_calib_stim_RIGHT.wav	2	17	blb_dichoticlistening_ga-pa.mp3	ga	pa	1	right
6.6.1	win	2023-06-24	09:31:31	10:03:12	1714220	63f8a056531af02b77961676	1	1	main_slash	24	advance_on_keypress_SLASH	96	stimuli_distractor_diamondtriangles.svg	stimuli_target_squaretriangles.svg	15	yes	57	0	694	6	3	antiphase_hc_soi.wav	1	6	6	noise_calib_stim_RIGHT.wav	2	17	blb_dichoticlistening_ga-pa.mp3	ga	pa	1	right
6.6.1	win	2023-06-24	09:31:31	10:03:14	1715834	63f8a056531af02b77961676	1	1	main_slash	24	main_slash	97	stimuli_distractor_diamondtriangles.svg	stimuli_target_squarediamonds.svg	16	yes	53	1	262	6	3	antiphase_hc_soi.wav	1	6	6	noise_calib_stim_RIGHT.wav	2	17	blb_dichoticlistening_ga-pa.mp3	ga	pa	1	right
6.6.1	win	2023-06-24	09:31:31	10:03:14	1715834	63f8a056531af02b77961676	1	1	main_slash	24	advance_on_keypress_SLASH	98	stimuli_distractor_diamondtriangles.svg	stimuli_target_squarediamonds.svg	16	yes	57	0	1158	6	3	antiphase_hc_soi.wav	1	6	6	noise_calib_stim_RIGHT.wav	2	17	blb_dichoticlistening_ga-pa.mp3	ga	pa	1	right
6.6.1	win	2023-06-24	09:31:31	10:03:17	1718674	63f8a056531af02b77961676	1	1	main_slash	24	main_slash	99	stimuli_target_diamondrectangles.svg	stimuli_distractor_diamondtriangles.svg	23	yes	53	1	1021	6	3	antiphase_hc_soi.wav	1	6	6	noise_calib_stim_RIGHT.wav	2	17	blb_dichoticlistening_ga-pa.mp3	ga	pa	1	right
6.6.1	win	2023-06-24	09:31:31	10:03:17	1718674	63f8a056531af02b77961676	1	1	main_slash	24	advance_on_keypress_SLASH	100	stimuli_target_diamondrectangles.svg	stimuli_distractor_diamondtriangles.svg	23	yes	57	0	1802	6	3	antiphase_hc_soi.wav	1	6	6	noise_calib_stim_RIGHT.wav	2	17	blb_dichoticlistening_ga-pa.mp3	ga	pa	1	right
6.6.1	win	2023-06-24	09:31:31	10:03:19	1721192	63f8a056531af02b77961676	1	1	main_slash	24	main_slash	101	stimuli_target_trianglesquares.svg	stimuli_distractor_diamondtriangles.svg	22	yes	53	1	57	6	3	antiphase_hc_soi.wav	1	6	6	noise_calib_stim_RIGHT.wav	2	17	blb_dichoticlistening_ga-pa.mp3	ga	pa	1	right
6.6.1	win	2023-06-24	09:31:31	10:03:19	1721192	63f8a056531af02b77961676	1	1	main_slash	24	advance_on_keypress_SLASH	102	stimuli_target_trianglesquares.svg	stimuli_distractor_diamondtriangles.svg	22	yes	57	0	1083	6	3	antiphase_hc_soi.wav	1	6	6	noise_calib_stim_RIGHT.wav	2	17	blb_dichoticlistening_ga-pa.mp3	ga	pa	1	right
6.6.1	win	2023-06-24	09:31:31	10:03:21	1723259	63f8a056531af02b77961676	1	1	main_slash	24	main_slash	103	stimuli_distractor_trianglediamonds.svg	stimuli_target_rectangletriangles.svg	9	yes	53	1	325	6	3	antiphase_hc_soi.wav	1	6	6	noise_calib_stim_RIGHT.wav	2	17	blb_dichoticlistening_ga-pa.mp3	ga	pa	1	right
6.6.1	win	2023-06-24	09:31:31	10:03:21	1723259	63f8a056531af02b77961676	1	1	main_slash	24	advance_on_keypress_SLASH	104	stimuli_distractor_trianglediamonds.svg	stimuli_target_rectangletriangles.svg	9	yes	57	0	859	6	3	antiphase_hc_soi.wav	1	6	6	noise_calib_stim_RIGHT.wav	2	17	blb_dichoticlistening_ga-pa.mp3	ga	pa	1	right
6.6.1	win	2023-06-24	09:31:31	10:03:24	1725874	63f8a056531af02b77961676	1	1	main_slash	24	main_slash	105	stimuli_distractor_diamondtriangles.svg	stimuli_target_trianglesquares.svg	30	yes	53	1	1090	6	3	antiphase_hc_soi.wav	1	6	6	noise_calib_stim_RIGHT.wav	2	17	blb_dichoticlistening_ga-pa.mp3	ga	pa	1	right
6.6.1	win	2023-06-24	09:31:31	10:03:24	1725874	63f8a056531af02b77961676	1	1	main_slash	24	advance_on_keypress_SLASH	106	stimuli_distractor_diamondtriangles.svg	stimuli_target_trianglesquares.svg	30	yes	57	0	645	6	3	antiphase_hc_soi.wav	1	6	6	noise_calib_stim_RIGHT.wav	2	17	blb_dichoticlistening_ga-pa.mp3	ga	pa	1	right
6.6.1	win	2023-06-24	09:31:31	10:03:26	1728121	63f8a056531af02b77961676	1	1	main_slash	24	main_slash	107	stimuli_target_squarediamonds.svg	stimuli_distractor_trianglediamonds.svg	4	yes	53	1	939	6	3	antiphase_hc_soi.wav	1	6	6	noise_calib_stim_RIGHT.wav	2	17	blb_dichoticlistening_ga-pa.mp3	ga	pa	1	right
6.6.1	win	2023-06-24	09:31:31	10:03:26	1728121	63f8a056531af02b77961676	1	1	main_slash	24	advance_on_keypress_SLASH	108	stimuli_target_squarediamonds.svg	stimuli_distractor_trianglediamonds.svg	4	yes	57	0	1487	6	3	antiphase_hc_soi.wav	1	6	6	noise_calib_stim_RIGHT.wav	2	17	blb_dichoticlistening_ga-pa.mp3	ga	pa	1	right
6.6.1	win	2023-06-24	09:31:31	10:03:30	1731469	63f8a056531af02b77961676	1	1	main_slash	24	main_slash	109	stimuli_target_diamondrectangles.svg	stimuli_distractor_trianglediamonds.svg	19	yes	53	1	1202	6	3	antiphase_hc_soi.wav	1	6	6	noise_calib_stim_RIGHT.wav	2	17	blb_dichoticlistening_ga-pa.mp3	ga	pa	1	right
6.6.1	win	2023-06-24	09:31:31	10:03:30	1731469	63f8a056531af02b77961676	1	1	main_slash	24	advance_on_keypress_SLASH	110	stimuli_target_diamondrectangles.svg	stimuli_distractor_trianglediamonds.svg	19	yes	57	0	633	6	3	antiphase_hc_soi.wav	1	6	6	noise_calib_stim_RIGHT.wav	2	17	blb_dichoticlistening_ga-pa.mp3	ga	pa	1	right
6.6.1	win	2023-06-24	09:31:31	10:03:31	1732814	63f8a056531af02b77961676	1	1	main_slash	24	main_slash	111	stimuli_target_diamondsquares.svg	stimuli_distractor_trianglediamonds.svg	20	yes	53	1	51	6	3	antiphase_hc_soi.wav	1	6	6	noise_calib_stim_RIGHT.wav	2	17	blb_dichoticlistening_ga-pa.mp3	ga	pa	1	right
6.6.1	win	2023-06-24	09:31:31	10:03:31	1732814	63f8a056531af02b77961676	1	1	main_slash	24	advance_on_keypress_SLASH	112	stimuli_target_diamondsquares.svg	stimuli_distractor_trianglediamonds.svg	20	yes	57	0	853	6	3	antiphase_hc_soi.wav	1	6	6	noise_calib_stim_RIGHT.wav	2	17	blb_dichoticlistening_ga-pa.mp3	ga	pa	1	right
6.6.1	win	2023-06-24	09:31:31	10:03:33	1735280	63f8a056531af02b77961676	1	1	main_slash	24	main_slash	113	stimuli_distractor_diamondtriangles.svg	stimuli_target_diamondrectangles.svg	31	yes	53	1	968	6	3	antiphase_hc_soi.wav	1	6	6	noise_calib_stim_RIGHT.wav	2	17	blb_dichoticlistening_ga-pa.mp3	ga	pa	1	right
6.6.1	win	2023-06-24	09:31:31	10:03:33	1735280	63f8a056531af02b77961676	1	1	main_slash	24	advance_on_keypress_SLASH	114	stimuli_distractor_diamondtriangles.svg	stimuli_target_diamondrectangles.svg	31	yes	57	0	682	6	3	antiphase_hc_soi.wav	1	6	6	noise_calib_stim_RIGHT.wav	2	17	blb_dichoticlistening_ga-pa.mp3	ga	pa	1	right
6.6.1	win	2023-06-24	09:31:31	10:03:35	1736625	63f8a056531af02b77961676	1	1	main_slash	24	main_slash	115	stimuli_target_rectangletriangles.svg	stimuli_distractor_trianglediamonds.svg	1	yes	53	1	14	6	3	antiphase_hc_soi.wav	1	6	6	noise_calib_stim_RIGHT.wav	2	17	blb_dichoticlistening_ga-pa.mp3	ga	pa	1	right
6.6.1	win	2023-06-24	09:31:31	10:03:35	1736625	63f8a056531af02b77961676	1	1	main_slash	24	advance_on_keypress_SLASH	116	stimuli_target_rectangletriangles.svg	stimuli_distractor_trianglediamonds.svg	1	yes	57	0	937	6	3	antiphase_hc_soi.wav	1	6	6	noise_calib_stim_RIGHT.wav	2	17	blb_dichoticlistening_ga-pa.mp3	ga	pa	1	right
6.6.1	win	2023-06-24	09:31:31	10:03:37	1739271	63f8a056531af02b77961676	1	1	main_slash	24	main_slash	117	stimuli_distractor_trianglediamonds.svg	stimuli_target_trianglesquares.svg	26	yes	53	1	1042	6	3	antiphase_hc_soi.wav	1	6	6	noise_calib_stim_RIGHT.wav	2	17	blb_dichoticlistening_ga-pa.mp3	ga	pa	1	right
6.6.1	win	2023-06-24	09:31:31	10:03:37	1739271	63f8a056531af02b77961676	1	1	main_slash	24	advance_on_keypress_SLASH	118	stimuli_distractor_trianglediamonds.svg	stimuli_target_trianglesquares.svg	26	yes	57	0	594	6	3	antiphase_hc_soi.wav	1	6	6	noise_calib_stim_RIGHT.wav	2	17	blb_dichoticlistening_ga-pa.mp3	ga	pa	1	right
6.6.1	win	2023-06-24	09:31:31	10:03:39	1741373	63f8a056531af02b77961676	1	1	main_slash	24	main_slash	119	stimuli_target_squarediamonds.svg	stimuli_distractor_diamondtriangles.svg	8	yes	53	1	846	6	3	antiphase_hc_soi.wav	1	6	6	noise_calib_stim_RIGHT.wav	2	17	blb_dichoticlistening_ga-pa.mp3	ga	pa	1	right
6.6.1	win	2023-06-24	09:31:31	10:03:39	1741373	63f8a056531af02b77961676	1	1	main_slash	24	advance_on_keypress_SLASH	120	stimuli_target_squarediamonds.svg	stimuli_distractor_diamondtriangles.svg	8	yes	57	0	319	6	3	antiphase_hc_soi.wav	1	6	6	noise_calib_stim_RIGHT.wav	2	17	blb_dichoticlistening_ga-pa.mp3	ga	pa	1	right
6.6.1	win	2023-06-24	09:31:31	10:03:41	1743155	63f8a056531af02b77961676	1	1	main_slash	24	main_slash	121	stimuli_distractor_trianglediamonds.svg	stimuli_target_diamondrectangles.svg	27	yes	53	1	812	6	3	antiphase_hc_soi.wav	1	6	6	noise_calib_stim_RIGHT.wav	2	17	blb_dichoticlistening_ga-pa.mp3	ga	pa	1	right
6.6.1	win	2023-06-24	09:31:31	10:03:41	1743155	63f8a056531af02b77961676	1	1	main_slash	24	advance_on_keypress_SLASH	122	stimuli_distractor_trianglediamonds.svg	stimuli_target_diamondrectangles.svg	27	yes	57	0	535	6	3	antiphase_hc_soi.wav	1	6	6	noise_calib_stim_RIGHT.wav	2	17	blb_dichoticlistening_ga-pa.mp3	ga	pa	1	right
6.6.1	win	2023-06-24	09:31:31	10:03:43	1745142	63f8a056531af02b77961676	1	1	main_slash	24	main_slash	123	stimuli_distractor_trianglediamonds.svg	stimuli_distractor_trianglediamonds.svg	33	no	53	0	800	6	3	antiphase_hc_soi.wav	1	6	6	noise_calib_stim_RIGHT.wav	2	17	blb_dichoticlistening_ga-pa.mp3	ga	pa	1	right
6.6.1	win	2023-06-24	09:31:31	10:03:43	1745142	63f8a056531af02b77961676	1	1	main_slash	24	advance_on_keypress_SLASH	124	stimuli_distractor_trianglediamonds.svg	stimuli_distractor_trianglediamonds.svg	33	no	57	0	406	6	3	antiphase_hc_soi.wav	1	6	6	noise_calib_stim_RIGHT.wav	2	17	blb_dichoticlistening_ga-pa.mp3	ga	pa	1	right
6.6.1	win	2023-06-24	09:31:31	10:03:45	1746843	63f8a056531af02b77961676	1	1	main_slash	24	main_slash	125	stimuli_distractor_diamondtriangles.svg	stimuli_distractor_diamondtriangles.svg	39	no	53	0	634	6	3	antiphase_hc_soi.wav	1	6	6	noise_calib_stim_RIGHT.wav	2	17	blb_dichoticlistening_ga-pa.mp3	ga	pa	1	right
6.6.1	win	2023-06-24	09:31:31	10:03:45	1746843	63f8a056531af02b77961676	1	1	main_slash	24	advance_on_keypress_SLASH	126	stimuli_distractor_diamondtriangles.svg	stimuli_distractor_diamondtriangles.svg	39	no	57	0	400	6	3	antiphase_hc_soi.wav	1	6	6	noise_calib_stim_RIGHT.wav	2	17	blb_dichoticlistening_ga-pa.mp3	ga	pa	1	right
6.6.1	win	2023-06-24	09:31:31	10:03:47	1748647	63f8a056531af02b77961676	1	1	main_slash	24	main_slash	127	stimuli_target_squaretriangles.svg	stimuli_distractor_diamondtriangles.svg	7	yes	53	1	756	6	3	antiphase_hc_soi.wav	1	6	6	noise_calib_stim_RIGHT.wav	2	17	blb_dichoticlistening_ga-pa.mp3	ga	pa	1	right
6.6.1	win	2023-06-24	09:31:31	10:03:47	1748647	63f8a056531af02b77961676	1	1	main_slash	24	advance_on_keypress_SLASH	128	stimuli_target_squaretriangles.svg	stimuli_distractor_diamondtriangles.svg	7	yes	57	0	679	6	3	antiphase_hc_soi.wav	1	6	6	noise_calib_stim_RIGHT.wav	2	17	blb_dichoticlistening_ga-pa.mp3	ga	pa	1	right
6.6.1	win	2023-06-24	09:31:31	10:03:49	1750901	63f8a056531af02b77961676	1	1	main_slash	24	main_slash	129	stimuli_target_squaretriangles.svg	stimuli_distractor_trianglediamonds.svg	3	yes	53	1	911	6	3	antiphase_hc_soi.wav	1	6	6	noise_calib_stim_RIGHT.wav	2	17	blb_dichoticlistening_ga-pa.mp3	ga	pa	1	right
6.6.1	win	2023-06-24	09:31:31	10:03:49	1750901	63f8a056531af02b77961676	1	1	main_slash	24	advance_on_keypress_SLASH	130	stimuli_target_squaretriangles.svg	stimuli_distractor_trianglediamonds.svg	3	yes	57	0	466	6	3	antiphase_hc_soi.wav	1	6	6	noise_calib_stim_RIGHT.wav	2	17	blb_dichoticlistening_ga-pa.mp3	ga	pa	1	right
6.6.1	win	2023-06-24	09:31:31	10:03:51	1753077	63f8a056531af02b77961676	1	1	main_slash	24	main_slash	131	stimuli_distractor_diamondtriangles.svg	stimuli_distractor_trianglediamonds.svg	38	no	53	0	1054	6	3	antiphase_hc_soi.wav	1	6	6	noise_calib_stim_RIGHT.wav	2	17	blb_dichoticlistening_ga-pa.mp3	ga	pa	1	right
6.6.1	win	2023-06-24	09:31:31	10:03:51	1753077	63f8a056531af02b77961676	1	1	main_slash	24	advance_on_keypress_SLASH	132	stimuli_distractor_diamondtriangles.svg	stimuli_distractor_trianglediamonds.svg	38	no	57	0	405	6	3	antiphase_hc_soi.wav	1	6	6	noise_calib_stim_RIGHT.wav	2	17	blb_dichoticlistening_ga-pa.mp3	ga	pa	1	right
6.6.1	win	2023-06-24	09:31:31	10:03:53	1755158	63f8a056531af02b77961676	1	1	main_slash	24	main_slash	133	stimuli_distractor_diamondtriangles.svg	stimuli_target_rectanglediamonds.svg	14	yes	53	1	1020	6	3	antiphase_hc_soi.wav	1	6	6	noise_calib_stim_RIGHT.wav	2	17	blb_dichoticlistening_ga-pa.mp3	ga	pa	1	right
6.6.1	win	2023-06-24	09:31:31	10:03:53	1755158	63f8a056531af02b77961676	1	1	main_slash	24	advance_on_keypress_SLASH	134	stimuli_distractor_diamondtriangles.svg	stimuli_target_rectanglediamonds.svg	14	yes	57	0	583	6	3	antiphase_hc_soi.wav	1	6	6	noise_calib_stim_RIGHT.wav	2	17	blb_dichoticlistening_ga-pa.mp3	ga	pa	1	right
6.6.1	win	2023-06-24	09:31:31	10:03:55	1757122	63f8a056531af02b77961676	1	1	main_slash	24	main_slash	135	stimuli_distractor_trianglediamonds.svg	stimuli_target_trianglerectangles.svg	25	yes	53	1	734	6	3	antiphase_hc_soi.wav	1	6	6	noise_calib_stim_RIGHT.wav	2	17	blb_dichoticlistening_ga-pa.mp3	ga	pa	1	right
6.6.1	win	2023-06-24	09:31:31	10:03:55	1757122	63f8a056531af02b77961676	1	1	main_slash	24	advance_on_keypress_SLASH	136	stimuli_distractor_trianglediamonds.svg	stimuli_target_trianglerectangles.svg	25	yes	57	0	815	6	3	antiphase_hc_soi.wav	1	6	6	noise_calib_stim_RIGHT.wav	2	17	blb_dichoticlistening_ga-pa.mp3	ga	pa	1	right
6.6.1	win	2023-06-24	09:31:31	10:03:57	1759222	63f8a056531af02b77961676	1	1	main_slash	24	main_slash	137	stimuli_distractor_diamondtriangles.svg	stimuli_distractor_diamondtriangles.svg	40	no	53	0	636	6	3	antiphase_hc_soi.wav	1	6	6	noise_calib_stim_RIGHT.wav	2	17	blb_dichoticlistening_ga-pa.mp3	ga	pa	1	right
6.6.1	win	2023-06-24	09:31:31	10:03:57	1759222	63f8a056531af02b77961676	1	1	main_slash	24	advance_on_keypress_SLASH	138	stimuli_distractor_diamondtriangles.svg	stimuli_distractor_diamondtriangles.svg	40	no	57	0	1244	6	3	antiphase_hc_soi.wav	1	6	6	noise_calib_stim_RIGHT.wav	2	17	blb_dichoticlistening_ga-pa.mp3	ga	pa	1	right
6.6.1	win	2023-06-24	09:31:31	10:04:00	1762214	63f8a056531af02b77961676	1	1	main_slash	24	main_slash	139	stimuli_distractor_trianglediamonds.svg	stimuli_target_squarediamonds.svg	12	yes	53	1	1096	6	3	antiphase_hc_soi.wav	1	6	6	noise_calib_stim_RIGHT.wav	2	17	blb_dichoticlistening_ga-pa.mp3	ga	pa	1	right
6.6.1	win	2023-06-24	09:31:31	10:04:00	1762214	63f8a056531af02b77961676	1	1	main_slash	24	advance_on_keypress_SLASH	140	stimuli_distractor_trianglediamonds.svg	stimuli_target_squarediamonds.svg	12	yes	57	0	1061	6	3	antiphase_hc_soi.wav	1	6	6	noise_calib_stim_RIGHT.wav	2	17	blb_dichoticlistening_ga-pa.mp3	ga	pa	1	right
6.6.1	win	2023-06-24	09:31:31	10:04:03	1765279	63f8a056531af02b77961676	1	1	main_slash	24	main_slash	141	stimuli_target_rectangletriangles.svg	stimuli_distractor_diamondtriangles.svg	5	yes	53	1	1344	6	3	antiphase_hc_soi.wav	1	6	6	noise_calib_stim_RIGHT.wav	2	17	blb_dichoticlistening_ga-pa.mp3	ga	pa	1	right
6.6.1	win	2023-06-24	09:31:31	10:04:03	1765279	63f8a056531af02b77961676	1	1	main_slash	24	advance_on_keypress_SLASH	142	stimuli_target_rectangletriangles.svg	stimuli_distractor_diamondtriangles.svg	5	yes	57	0	679	6	3	antiphase_hc_soi.wav	1	6	6	noise_calib_stim_RIGHT.wav	2	17	blb_dichoticlistening_ga-pa.mp3	ga	pa	1	right
6.6.1	win	2023-06-24	09:31:31	10:04:06	1767872	63f8a056531af02b77961676	1	1	main_slash	24	main_slash	143	stimuli_distractor_trianglediamonds.svg	stimuli_target_rectanglediamonds.svg	10	yes	53	1	1254	6	3	antiphase_hc_soi.wav	1	6	6	noise_calib_stim_RIGHT.wav	2	17	blb_dichoticlistening_ga-pa.mp3	ga	pa	1	right
6.6.1	win	2023-06-24	09:31:31	10:04:06	1767872	63f8a056531af02b77961676	1	1	main_slash	24	advance_on_keypress_SLASH	144	stimuli_distractor_trianglediamonds.svg	stimuli_target_rectanglediamonds.svg	10	yes	57	0	886	6	3	antiphase_hc_soi.wav	1	6	6	noise_calib_stim_RIGHT.wav	2	17	blb_dichoticlistening_ga-pa.mp3	ga	pa	1	right
6.6.1	win	2023-06-24	09:31:31	10:04:09	1770994	63f8a056531af02b77961676	1	1	main_slash	24	main_slash	145	stimuli_distractor_trianglediamonds.svg	stimuli_target_squaretriangles.svg	11	yes	53	1	1543	6	3	antiphase_hc_soi.wav	1	6	6	noise_calib_stim_RIGHT.wav	2	17	blb_dichoticlistening_ga-pa.mp3	ga	pa	1	right
6.6.1	win	2023-06-24	09:31:31	10:04:09	1770994	63f8a056531af02b77961676	1	1	main_slash	24	advance_on_keypress_SLASH	146	stimuli_distractor_trianglediamonds.svg	stimuli_target_squaretriangles.svg	11	yes	57	0	713	6	3	antiphase_hc_soi.wav	1	6	6	noise_calib_stim_RIGHT.wav	2	17	blb_dichoticlistening_ga-pa.mp3	ga	pa	1	right
6.6.1	win	2023-06-24	09:31:31	10:04:11	1772685	63f8a056531af02b77961676	1	1	main_slash	24	main_slash	147	stimuli_target_rectanglediamonds.svg	stimuli_distractor_diamondtriangles.svg	6	yes	53	1	304	6	3	antiphase_hc_soi.wav	1	6	6	noise_calib_stim_RIGHT.wav	2	17	blb_dichoticlistening_ga-pa.mp3	ga	pa	1	right
6.6.1	win	2023-06-24	09:31:31	10:04:11	1772685	63f8a056531af02b77961676	1	1	main_slash	24	advance_on_keypress_SLASH	148	stimuli_target_rectanglediamonds.svg	stimuli_distractor_diamondtriangles.svg	6	yes	57	0	608	6	3	antiphase_hc_soi.wav	1	6	6	noise_calib_stim_RIGHT.wav	2	17	blb_dichoticlistening_ga-pa.mp3	ga	pa	1	right
6.6.1	win	2023-06-24	09:31:31	10:04:13	1775120	63f8a056531af02b77961676	1	1	main_slash	24	main_slash	149	stimuli_distractor_trianglediamonds.svg	stimuli_target_diamondsquares.svg	28	yes	53	1	1157	6	3	antiphase_hc_soi.wav	1	6	6	noise_calib_stim_RIGHT.wav	2	17	blb_dichoticlistening_ga-pa.mp3	ga	pa	1	right
6.6.1	win	2023-06-24	09:31:31	10:04:13	1775120	63f8a056531af02b77961676	1	1	main_slash	24	advance_on_keypress_SLASH	150	stimuli_distractor_trianglediamonds.svg	stimuli_target_diamondsquares.svg	28	yes	57	0	768	6	3	antiphase_hc_soi.wav	1	6	6	noise_calib_stim_RIGHT.wav	2	17	blb_dichoticlistening_ga-pa.mp3	ga	pa	1	right
6.6.1	win	2023-06-24	09:31:31	10:04:16	1778097	63f8a056531af02b77961676	1	1	main_slash	24	main_slash	151	stimuli_distractor_diamondtriangles.svg	stimuli_target_diamondsquares.svg	32	yes	53	1	1550	6	3	antiphase_hc_soi.wav	1	6	6	noise_calib_stim_RIGHT.wav	2	17	blb_dichoticlistening_ga-pa.mp3	ga	pa	1	right
6.6.1	win	2023-06-24	09:31:31	10:04:16	1778097	63f8a056531af02b77961676	1	1	main_slash	24	advance_on_keypress_SLASH	152	stimuli_distractor_diamondtriangles.svg	stimuli_target_diamondsquares.svg	32	yes	57	0	998	6	3	antiphase_hc_soi.wav	1	6	6	noise_calib_stim_RIGHT.wav	2	17	blb_dichoticlistening_ga-pa.mp3	ga	pa	1	right
6.6.1	win	2023-06-24	09:31:31	10:04:18	1779775	63f8a056531af02b77961676	1	1	main_slash	24	main_slash	153	stimuli_target_trianglerectangles.svg	stimuli_distractor_trianglediamonds.svg	17	yes	53	1	0	6	3	antiphase_hc_soi.wav	1	6	6	noise_calib_stim_RIGHT.wav	2	17	blb_dichoticlistening_ga-pa.mp3	ga	pa	1	right
6.6.1	win	2023-06-24	09:31:31	10:04:18	1779775	63f8a056531af02b77961676	1	1	main_slash	24	advance_on_keypress_SLASH	154	stimuli_target_trianglerectangles.svg	stimuli_distractor_trianglediamonds.svg	17	yes	57	0	1266	6	3	antiphase_hc_soi.wav	1	6	6	noise_calib_stim_RIGHT.wav	2	17	blb_dichoticlistening_ga-pa.mp3	ga	pa	1	right
6.6.1	win	2023-06-24	09:31:31	10:04:21	1783071	63f8a056531af02b77961676	1	1	main_slash	24	main_slash	155	stimuli_target_trianglerectangles.svg	stimuli_distractor_diamondtriangles.svg	21	yes	53	1	1372	6	3	antiphase_hc_soi.wav	1	6	6	noise_calib_stim_RIGHT.wav	2	17	blb_dichoticlistening_ga-pa.mp3	ga	pa	1	right
6.6.1	win	2023-06-24	09:31:31	10:04:21	1783071	63f8a056531af02b77961676	1	1	main_slash	24	advance_on_keypress_SLASH	156	stimuli_target_trianglerectangles.svg	stimuli_distractor_diamondtriangles.svg	21	yes	57	0	875	6	3	antiphase_hc_soi.wav	1	6	6	noise_calib_stim_RIGHT.wav	2	17	blb_dichoticlistening_ga-pa.mp3	ga	pa	1	right
6.6.1	win	2023-06-24	09:31:31	10:04:24	1786107	63f8a056531af02b77961676	1	1	main_slash	24	main_slash	157	stimuli_target_trianglesquares.svg	stimuli_distractor_trianglediamonds.svg	18	yes	53	1	1458	6	3	antiphase_hc_soi.wav	1	6	6	noise_calib_stim_RIGHT.wav	2	17	blb_dichoticlistening_ga-pa.mp3	ga	pa	1	right
6.6.1	win	2023-06-24	09:31:31	10:04:24	1786107	63f8a056531af02b77961676	1	1	main_slash	24	advance_on_keypress_SLASH	158	stimuli_target_trianglesquares.svg	stimuli_distractor_trianglediamonds.svg	18	yes	57	0	1022	6	3	antiphase_hc_soi.wav	1	6	6	noise_calib_stim_RIGHT.wav	2	17	blb_dichoticlistening_ga-pa.mp3	ga	pa	1	right
6.6.1	win	2023-06-24	09:31:31	10:04:27	1789237	63f8a056531af02b77961676	1	1	main_slash	24	main_slash	159	stimuli_target_rectanglediamonds.svg	stimuli_distractor_trianglediamonds.svg	2	yes	53	1	1463	6	3	antiphase_hc_soi.wav	1	6	6	noise_calib_stim_RIGHT.wav	2	17	blb_dichoticlistening_ga-pa.mp3	ga	pa	1	right
6.6.1	win	2023-06-24	09:31:31	10:04:27	1789237	63f8a056531af02b77961676	1	1	main_slash	24	advance_on_keypress_SLASH	160	stimuli_target_rectanglediamonds.svg	stimuli_distractor_trianglediamonds.svg	2	yes	57	0	790	6	3	antiphase_hc_soi.wav	1	6	6	noise_calib_stim_RIGHT.wav	2	17	blb_dichoticlistening_ga-pa.mp3	ga	pa	1	right
6.6.1	win	2023-06-24	09:31:31	10:05:01	1823401	63f8a056531af02b77961676	1	1	practice_z	26	practice_z	1	stimuli_target_squarediamonds.svg	stimuli_distractor_diamondtriangles.svg	2	yes	44	1	653	6	3	antiphase_hc_soi.wav	1	6	6	noise_calib_stim_RIGHT.wav	2	17	blb_dichoticlistening_ga-pa.mp3	ga	pa	1	right
6.6.1	win	2023-06-24	09:31:31	10:05:01	1823401	63f8a056531af02b77961676	1	1	practice_z	26	advance_on_keypress_ZEE	2	stimuli_target_squarediamonds.svg	stimuli_distractor_diamondtriangles.svg	2	yes	57	0	187	6	3	antiphase_hc_soi.wav	1	6	6	noise_calib_stim_RIGHT.wav	2	17	blb_dichoticlistening_ga-pa.mp3	ga	pa	1	right
6.6.1	win	2023-06-24	09:31:31	10:05:04	1825570	63f8a056531af02b77961676	1	1	practice_z	26	practice_z	3	stimuli_distractor_trianglediamonds.svg	stimuli_target_diamondrectangles.svg	12	yes	44	1	223	6	3	antiphase_hc_soi.wav	1	6	6	noise_calib_stim_RIGHT.wav	2	17	blb_dichoticlistening_ga-pa.mp3	ga	pa	1	right
6.6.1	win	2023-06-24	09:31:31	10:05:04	1825570	63f8a056531af02b77961676	1	1	practice_z	26	advance_on_keypress_ZEE	4	stimuli_distractor_trianglediamonds.svg	stimuli_target_diamondrectangles.svg	12	yes	57	0	94	6	3	antiphase_hc_soi.wav	1	6	6	noise_calib_stim_RIGHT.wav	2	17	blb_dichoticlistening_ga-pa.mp3	ga	pa	1	right
6.6.1	win	2023-06-24	09:31:31	10:05:06	1827987	63f8a056531af02b77961676	1	1	practice_z	26	practice_z	5	stimuli_distractor_diamondtriangles.svg	stimuli_target_rectangletriangles.svg	7	yes	44	1	656	6	3	antiphase_hc_soi.wav	1	6	6	noise_calib_stim_RIGHT.wav	2	17	blb_dichoticlistening_ga-pa.mp3	ga	pa	1	right
6.6.1	win	2023-06-24	09:31:31	10:05:06	1827987	63f8a056531af02b77961676	1	1	practice_z	26	advance_on_keypress_ZEE	6	stimuli_distractor_diamondtriangles.svg	stimuli_target_rectangletriangles.svg	7	yes	57	0	270	6	3	antiphase_hc_soi.wav	1	6	6	noise_calib_stim_RIGHT.wav	2	17	blb_dichoticlistening_ga-pa.mp3	ga	pa	1	right
6.6.1	win	2023-06-24	09:31:31	10:05:08	1830247	63f8a056531af02b77961676	1	1	practice_z	26	practice_z	7	stimuli_target_squarediamonds.svg	stimuli_distractor_trianglediamonds.svg	5	yes	44	1	321	6	3	antiphase_hc_soi.wav	1	6	6	noise_calib_stim_RIGHT.wav	2	17	blb_dichoticlistening_ga-pa.mp3	ga	pa	1	right
6.6.1	win	2023-06-24	09:31:31	10:05:08	1830247	63f8a056531af02b77961676	1	1	practice_z	26	advance_on_keypress_ZEE	8	stimuli_target_squarediamonds.svg	stimuli_distractor_trianglediamonds.svg	5	yes	57	0	2291	6	3	antiphase_hc_soi.wav	1	6	6	noise_calib_stim_RIGHT.wav	2	17	blb_dichoticlistening_ga-pa.mp3	ga	pa	1	right
6.6.1	win	2023-06-24	09:31:31	10:05:13	1835112	63f8a056531af02b77961676	1	1	practice_z	26	practice_z	9	stimuli_distractor_trianglediamonds.svg	stimuli_distractor_trianglediamonds.svg	15	no	44	0	882	6	3	antiphase_hc_soi.wav	1	6	6	noise_calib_stim_RIGHT.wav	2	17	blb_dichoticlistening_ga-pa.mp3	ga	pa	1	right
6.6.1	win	2023-06-24	09:31:31	10:05:13	1835112	63f8a056531af02b77961676	1	1	practice_z	26	advance_on_keypress_ZEE	10	stimuli_distractor_trianglediamonds.svg	stimuli_distractor_trianglediamonds.svg	15	no	57	0	434	6	3	antiphase_hc_soi.wav	1	6	6	noise_calib_stim_RIGHT.wav	2	17	blb_dichoticlistening_ga-pa.mp3	ga	pa	1	right
6.6.1	win	2023-06-24	09:31:31	10:05:16	1837981	63f8a056531af02b77961676	1	1	practice_z	26	practice_z	11	stimuli_distractor_diamondtriangles.svg	stimuli_target_trianglerectangles.svg	9	yes	44	1	578	6	3	antiphase_hc_soi.wav	1	6	6	noise_calib_stim_RIGHT.wav	2	17	blb_dichoticlistening_ga-pa.mp3	ga	pa	1	right
6.6.1	win	2023-06-24	09:31:31	10:05:16	1837981	63f8a056531af02b77961676	1	1	practice_z	26	advance_on_keypress_ZEE	12	stimuli_distractor_diamondtriangles.svg	stimuli_target_trianglerectangles.svg	9	yes	57	0	3650	6	3	antiphase_hc_soi.wav	1	6	6	noise_calib_stim_RIGHT.wav	2	17	blb_dichoticlistening_ga-pa.mp3	ga	pa	1	right
6.6.1	win	2023-06-24	09:31:31	10:05:22	1843605	63f8a056531af02b77961676	1	1	practice_z	26	practice_z	13	stimuli_target_rectanglediamonds.svg	stimuli_distractor_trianglediamonds.svg	4	yes	44	1	166	6	3	antiphase_hc_soi.wav	1	6	6	noise_calib_stim_RIGHT.wav	2	17	blb_dichoticlistening_ga-pa.mp3	ga	pa	1	right
