build	computer.platform	date	time	timestamp	time_elapsed_ms	subject	group	session	blockcode	blocknum	trialcode	trialnum	stimulus_left	stimulus_right	stim_index	target_present	response	correct	latency	headphonecheck_countTestTrials	headphonecheck_index	headphonecheck_testSound	headphonecheck_correctResponse	stereocheck_countTestTrials	stereocheck_index	stereocheck_testSound	stereocheck_correctResponse	DL_index	DL_soundfile	DL_leftSound	DL_rightSound	DL_dualSound	DL_choice
6.6.1	win	2023-07-11	21:16:39	0	0	613fa6a4ac727e4d53fcaf38	2	1	headphonecheck_calibration	4	headphonecheck_calibrationIntro	1			0		calibrationButton	0	12407	0	0			0	0			1				0	
6.6.1	win	2023-07-11	21:16:39	0	0	613fa6a4ac727e4d53fcaf38	2	1	headphonecheck_testphase	5	test_collectResponse	3			0		third	1	1034	1	6	antiphase_hc_ois.wav	3	0	0			1				0	
6.6.1	win	2023-07-11	21:16:39	0	0	613fa6a4ac727e4d53fcaf38	2	1	headphonecheck_testphase	5	test_collectResponse	6			0		second	1	4808	2	1	antiphase_hc_iso.wav	2	0	0			1				0	
6.6.1	win	2023-07-11	21:16:39	0	0	613fa6a4ac727e4d53fcaf38	2	1	headphonecheck_testphase	5	test_collectResponse	9			0		first	1	754	3	3	antiphase_hc_soi.wav	1	0	0			1				0	
6.6.1	win	2023-07-11	21:16:39	0	0	613fa6a4ac727e4d53fcaf38	2	1	headphonecheck_testphase	5	test_collectResponse	12			0		second	1	953	4	5	antiphase_hc_osi.wav	2	0	0			1				0	
6.6.1	win	2023-07-11	21:16:39	0	0	613fa6a4ac727e4d53fcaf38	2	1	headphonecheck_testphase	5	test_collectResponse	15			0		first	1	746	5	4	antiphase_hc_sio.wav	1	0	0			1				0	
6.6.1	win	2023-07-11	21:16:39	0	0	613fa6a4ac727e4d53fcaf38	2	1	headphonecheck_testphase	5	test_collectResponse	18			0		third	1	643	6	2	antiphase_hc_ios.wav	3	0	0			1				0	
6.6.1	win	2023-07-11	21:16:39	0	0	613fa6a4ac727e4d53fcaf38	2	1	stereocheck_calibration	7	stereocheck_calibrationIntro	1			0		stereocheck_calibrationButton	0	7453	6	2	antiphase_hc_ios.wav	3	0	0			1				0	
6.6.1	win	2023-07-11	21:16:39	0	0	613fa6a4ac727e4d53fcaf38	2	1	stereocheck_testphase	8	stereocheck_test_collectResponse	3			0		stereocheck_right	1	708	6	2	antiphase_hc_ios.wav	3	1	5	noise_calib_stim_RIGHT.wav	2	1				0	
6.6.1	win	2023-07-11	21:16:39	0	0	613fa6a4ac727e4d53fcaf38	2	1	stereocheck_testphase	8	stereocheck_test_collectResponse	6			0		stereocheck_right	1	1465	6	2	antiphase_hc_ios.wav	3	2	6	noise_calib_stim_RIGHT.wav	2	1				0	
6.6.1	win	2023-07-11	21:16:39	0	0	613fa6a4ac727e4d53fcaf38	2	1	stereocheck_testphase	8	stereocheck_test_collectResponse	9			0		stereocheck_right	1	1079	6	2	antiphase_hc_ios.wav	3	3	4	noise_calib_stim_RIGHT.wav	2	1				0	
6.6.1	win	2023-07-11	21:16:39	0	0	613fa6a4ac727e4d53fcaf38	2	1	stereocheck_testphase	8	stereocheck_test_collectResponse	12			0		stereocheck_left	1	667	6	2	antiphase_hc_ios.wav	3	4	3	noise_calib_stim_LEFT.wav	1	1				0	
6.6.1	win	2023-07-11	21:16:39	0	0	613fa6a4ac727e4d53fcaf38	2	1	stereocheck_testphase	8	stereocheck_test_collectResponse	15			0		stereocheck_left	1	439	6	2	antiphase_hc_ios.wav	3	5	1	noise_calib_stim_LEFT.wav	1	1				0	
6.6.1	win	2023-07-11	21:16:39	0	0	613fa6a4ac727e4d53fcaf38	2	1	stereocheck_testphase	8	stereocheck_test_collectResponse	18			0		stereocheck_left	1	289	6	2	antiphase_hc_ios.wav	3	6	2	noise_calib_stim_LEFT.wav	1	1				0	
6.6.1	win	2023-07-11	21:16:39	0	0	613fa6a4ac727e4d53fcaf38	2	1	DL_practice	11	DL_practice	2			0		ga	1	2085	6	2	antiphase_hc_ios.wav	3	6	2	noise_calib_stim_LEFT.wav	1	15	blb_dichoticlistening_ga-ga.mp3	ga	ga	0	left
6.6.1	win	2023-07-11	21:16:39	0	0	613fa6a4ac727e4d53fcaf38	2	1	DL_practice	11	DL_practice	3			0		ta	1	1871	6	2	antiphase_hc_ios.wav	3	6	2	noise_calib_stim_LEFT.wav	1	36	blb_dichoticlistening_ta-ta.mp3	ta	ta	0	left
6.6.1	win	2023-07-11	21:16:39	0	0	613fa6a4ac727e4d53fcaf38	2	1	DL_practice	11	DL_practice	4			0		ba	1	3326	6	2	antiphase_hc_ios.wav	3	6	2	noise_calib_stim_LEFT.wav	1	7	blb_dichoticlistening_da-ba.mp3	da	ba	1	right
6.6.1	win	2023-07-11	21:16:39	0	0	613fa6a4ac727e4d53fcaf38	2	1	DL_practice	11	DL_practice	5			0		ka	1	1507	6	2	antiphase_hc_ios.wav	3	6	2	noise_calib_stim_LEFT.wav	1	22	blb_dichoticlistening_ka-ka.mp3	ka	ka	0	left
6.6.1	win	2023-07-11	21:16:39	0	0	613fa6a4ac727e4d53fcaf38	2	1	DL_practice	11	DL_practice	6			0		ga	1	2757	6	2	antiphase_hc_ios.wav	3	6	2	noise_calib_stim_LEFT.wav	1	18	blb_dichoticlistening_ga-ta.mp3	ga	ta	1	left
6.6.1	win	2023-07-11	21:16:39	0	0	613fa6a4ac727e4d53fcaf38	2	1	DL_practice	11	DL_practice	7			0		ba	1	1812	6	2	antiphase_hc_ios.wav	3	6	2	noise_calib_stim_LEFT.wav	1	1	blb_dichoticlistening_ba-ba.mp3	ba	ba	0	left
6.6.1	win	2023-07-11	21:16:39	0	0	613fa6a4ac727e4d53fcaf38	2	1	DL_practice	11	DL_practice	8			0		ka	1	3590	6	2	antiphase_hc_ios.wav	3	6	2	noise_calib_stim_LEFT.wav	1	23	blb_dichoticlistening_ka-pa.mp3	ka	pa	1	left
6.6.1	win	2023-07-11	21:16:39	0	0	613fa6a4ac727e4d53fcaf38	2	1	DL_practice	11	DL_practice	9			0		da	1	1498	6	2	antiphase_hc_ios.wav	3	6	2	noise_calib_stim_LEFT.wav	1	8	blb_dichoticlistening_da-da.mp3	da	da	0	left
6.6.1	win	2023-07-11	21:16:39	0	0	613fa6a4ac727e4d53fcaf38	2	1	DL_practice	11	DL_practice	10			0		pa	1	1570	6	2	antiphase_hc_ios.wav	3	6	2	noise_calib_stim_LEFT.wav	1	29	blb_dichoticlistening_pa-pa.mp3	pa	pa	0	left
6.6.1	win	2023-07-11	21:16:39	0	0	613fa6a4ac727e4d53fcaf38	2	1	DL_test	13	DL_test	1			0		da	1	1407	6	2	antiphase_hc_ios.wav	3	6	2	noise_calib_stim_LEFT.wav	1	2	blb_dichoticlistening_ba-da.mp3	ba	da	1	right
6.6.1	win	2023-07-11	21:16:39	0	0	613fa6a4ac727e4d53fcaf38	2	1	DL_test	13	DL_test	2			0		ta	1	2105	6	2	antiphase_hc_ios.wav	3	6	2	noise_calib_stim_LEFT.wav	1	35	blb_dichoticlistening_ta-pa.mp3	ta	pa	1	left
6.6.1	win	2023-07-11	21:16:39	0	0	613fa6a4ac727e4d53fcaf38	2	1	DL_test	13	DL_test	3			0		pa	0	1634	6	2	antiphase_hc_ios.wav	3	6	2	noise_calib_stim_LEFT.wav	1	10	blb_dichoticlistening_da-ka.mp3	da	ka	1	other
6.6.1	win	2023-07-11	21:16:39	0	0	613fa6a4ac727e4d53fcaf38	2	1	DL_test	13	DL_test	4			0		ta	1	1545	6	2	antiphase_hc_ios.wav	3	6	2	noise_calib_stim_LEFT.wav	1	36	blb_dichoticlistening_ta-ta.mp3	ta	ta	0	left
6.6.1	win	2023-07-11	21:16:39	0	0	613fa6a4ac727e4d53fcaf38	2	1	DL_test	13	DL_test	5			0		ka	1	1451	6	2	antiphase_hc_ios.wav	3	6	2	noise_calib_stim_LEFT.wav	1	24	blb_dichoticlistening_ka-ta.mp3	ka	ta	1	left
6.6.1	win	2023-07-11	21:16:39	0	0	613fa6a4ac727e4d53fcaf38	2	1	DL_test	13	DL_test	6			0		da	0	1684	6	2	antiphase_hc_ios.wav	3	6	2	noise_calib_stim_LEFT.wav	1	13	blb_dichoticlistening_ga-ba.mp3	ga	ba	1	other
6.6.1	win	2023-07-11	21:16:39	0	0	613fa6a4ac727e4d53fcaf38	2	1	DL_test	13	DL_test	7			0		pa	1	1958	6	2	antiphase_hc_ios.wav	3	6	2	noise_calib_stim_LEFT.wav	1	17	blb_dichoticlistening_ga-pa.mp3	ga	pa	1	right
6.6.1	win	2023-07-11	21:16:39	0	0	613fa6a4ac727e4d53fcaf38	2	1	DL_test	13	DL_test	8			0		ka	1	1370	6	2	antiphase_hc_ios.wav	3	6	2	noise_calib_stim_LEFT.wav	1	34	blb_dichoticlistening_ta-ka.mp3	ta	ka	1	right
6.6.1	win	2023-07-11	21:16:39	0	0	613fa6a4ac727e4d53fcaf38	2	1	DL_test	13	DL_test	9			0		pa	1	1757	6	2	antiphase_hc_ios.wav	3	6	2	noise_calib_stim_LEFT.wav	1	27	blb_dichoticlistening_pa-ga.mp3	pa	ga	1	left
6.6.1	win	2023-07-11	21:16:39	0	0	613fa6a4ac727e4d53fcaf38	2	1	DL_test	13	DL_test	10			0		da	1	1605	6	2	antiphase_hc_ios.wav	3	6	2	noise_calib_stim_LEFT.wav	1	11	blb_dichoticlistening_da-pa.mp3	da	pa	1	left
6.6.1	win	2023-07-11	21:16:39	0	0	613fa6a4ac727e4d53fcaf38	2	1	DL_test	13	DL_test	11			0		da	1	1016	6	2	antiphase_hc_ios.wav	3	6	2	noise_calib_stim_LEFT.wav	1	9	blb_dichoticlistening_da-ga.mp3	da	ga	1	left
6.6.1	win	2023-07-11	21:16:39	0	0	613fa6a4ac727e4d53fcaf38	2	1	DL_test	13	DL_test	12			0		ka	0	1418	6	2	antiphase_hc_ios.wav	3	6	2	noise_calib_stim_LEFT.wav	1	33	blb_dichoticlistening_ta-ga.mp3	ta	ga	1	other
6.6.1	win	2023-07-11	21:16:39	0	0	613fa6a4ac727e4d53fcaf38	2	1	DL_test	13	DL_test	13			0		ta	1	1657	6	2	antiphase_hc_ios.wav	3	6	2	noise_calib_stim_LEFT.wav	1	31	blb_dichoticlistening_ta-ba.mp3	ta	ba	1	left
6.6.1	win	2023-07-11	21:16:39	0	0	613fa6a4ac727e4d53fcaf38	2	1	DL_test	13	DL_test	14			0		ka	1	3735	6	2	antiphase_hc_ios.wav	3	6	2	noise_calib_stim_LEFT.wav	1	23	blb_dichoticlistening_ka-pa.mp3	ka	pa	1	left
6.6.1	win	2023-07-11	21:16:39	0	0	613fa6a4ac727e4d53fcaf38	2	1	DL_test	13	DL_test	15			0		da	1	1424	6	2	antiphase_hc_ios.wav	3	6	2	noise_calib_stim_LEFT.wav	1	14	blb_dichoticlistening_ga-da.mp3	ga	da	1	right
6.6.1	win	2023-07-11	21:16:39	0	0	613fa6a4ac727e4d53fcaf38	2	1	DL_test	13	DL_test	16			0		ka	1	2600	6	2	antiphase_hc_ios.wav	3	6	2	noise_calib_stim_LEFT.wav	1	28	blb_dichoticlistening_pa-ka.mp3	pa	ka	1	right
6.6.1	win	2023-07-11	21:16:39	0	0	613fa6a4ac727e4d53fcaf38	2	1	DL_test	13	DL_test	17			0		pa	1	2015	6	2	antiphase_hc_ios.wav	3	6	2	noise_calib_stim_LEFT.wav	1	25	blb_dichoticlistening_pa-ba.mp3	pa	ba	1	left
6.6.1	win	2023-07-11	21:16:39	0	0	613fa6a4ac727e4d53fcaf38	2	1	DL_test	13	DL_test	18			0		da	1	2611	6	2	antiphase_hc_ios.wav	3	6	2	noise_calib_stim_LEFT.wav	1	12	blb_dichoticlistening_da-ta.mp3	da	ta	1	left
6.6.1	win	2023-07-11	21:16:39	0	0	613fa6a4ac727e4d53fcaf38	2	1	DL_test	13	DL_test	19			0		ka	1	1817	6	2	antiphase_hc_ios.wav	3	6	2	noise_calib_stim_LEFT.wav	1	16	blb_dichoticlistening_ga-ka.mp3	ga	ka	1	right
6.6.1	win	2023-07-11	21:16:39	0	0	613fa6a4ac727e4d53fcaf38	2	1	DL_test	13	DL_test	20			0		ka	1	1162	6	2	antiphase_hc_ios.wav	3	6	2	noise_calib_stim_LEFT.wav	1	22	blb_dichoticlistening_ka-ka.mp3	ka	ka	0	left
6.6.1	win	2023-07-11	21:16:39	0	0	613fa6a4ac727e4d53fcaf38	2	1	DL_test	13	DL_test	21			0		pa	1	1474	6	2	antiphase_hc_ios.wav	3	6	2	noise_calib_stim_LEFT.wav	1	5	blb_dichoticlistening_ba-pa.mp3	ba	pa	1	right
6.6.1	win	2023-07-11	21:16:39	0	0	613fa6a4ac727e4d53fcaf38	2	1	DL_test	13	DL_test	22			0		ga	0	2570	6	2	antiphase_hc_ios.wav	3	6	2	noise_calib_stim_LEFT.wav	1	19	blb_dichoticlistening_ka-ba.mp3	ka	ba	1	other
6.6.1	win	2023-07-11	21:16:39	0	0	613fa6a4ac727e4d53fcaf38	2	1	DL_test	13	DL_test	23			0		ka	1	1475	6	2	antiphase_hc_ios.wav	3	6	2	noise_calib_stim_LEFT.wav	1	4	blb_dichoticlistening_ba-ka.mp3	ba	ka	1	right
6.6.1	win	2023-07-11	21:16:39	0	0	613fa6a4ac727e4d53fcaf38	2	1	DL_test	13	DL_test	24			0		da	1	1371	6	2	antiphase_hc_ios.wav	3	6	2	noise_calib_stim_LEFT.wav	1	8	blb_dichoticlistening_da-da.mp3	da	da	0	left
6.6.1	win	2023-07-11	21:16:39	0	0	613fa6a4ac727e4d53fcaf38	2	1	DL_test	13	DL_test	25			0		ta	1	1974	6	2	antiphase_hc_ios.wav	3	6	2	noise_calib_stim_LEFT.wav	1	6	blb_dichoticlistening_ba-ta.mp3	ba	ta	1	right
6.6.1	win	2023-07-11	21:16:39	0	0	613fa6a4ac727e4d53fcaf38	2	1	DL_test	13	DL_test	26			0		pa	1	2214	6	2	antiphase_hc_ios.wav	3	6	2	noise_calib_stim_LEFT.wav	1	26	blb_dichoticlistening_pa-da.mp3	pa	da	1	left
6.6.1	win	2023-07-11	21:16:39	0	0	613fa6a4ac727e4d53fcaf38	2	1	DL_test	13	DL_test	27			0		ga	1	1440	6	2	antiphase_hc_ios.wav	3	6	2	noise_calib_stim_LEFT.wav	1	3	blb_dichoticlistening_ba-ga.mp3	ba	ga	1	right
6.6.1	win	2023-07-11	21:16:39	0	0	613fa6a4ac727e4d53fcaf38	2	1	DL_test	13	DL_test	28			0		ta	1	1905	6	2	antiphase_hc_ios.wav	3	6	2	noise_calib_stim_LEFT.wav	1	32	blb_dichoticlistening_ta-da.mp3	ta	da	1	left
6.6.1	win	2023-07-11	21:16:39	0	0	613fa6a4ac727e4d53fcaf38	2	1	DL_test	13	DL_test	29			0		ka	1	2711	6	2	antiphase_hc_ios.wav	3	6	2	noise_calib_stim_LEFT.wav	1	20	blb_dichoticlistening_ka-da.mp3	ka	da	1	left
6.6.1	win	2023-07-11	21:16:39	0	0	613fa6a4ac727e4d53fcaf38	2	1	DL_test	13	DL_test	30			0		ka	1	951	6	2	antiphase_hc_ios.wav	3	6	2	noise_calib_stim_LEFT.wav	1	21	blb_dichoticlistening_ka-ga.mp3	ka	ga	1	left
6.6.1	win	2023-07-11	21:16:39	0	0	613fa6a4ac727e4d53fcaf38	2	1	DL_test	13	DL_test	31			0		ba	1	1716	6	2	antiphase_hc_ios.wav	3	6	2	noise_calib_stim_LEFT.wav	1	1	blb_dichoticlistening_ba-ba.mp3	ba	ba	0	left
6.6.1	win	2023-07-11	21:16:39	0	0	613fa6a4ac727e4d53fcaf38	2	1	DL_test	13	DL_test	32			0		ta	1	1811	6	2	antiphase_hc_ios.wav	3	6	2	noise_calib_stim_LEFT.wav	1	30	blb_dichoticlistening_pa-ta.mp3	pa	ta	1	right
6.6.1	win	2023-07-11	21:16:39	0	0	613fa6a4ac727e4d53fcaf38	2	1	DL_test	13	DL_test	33			0		da	1	1516	6	2	antiphase_hc_ios.wav	3	6	2	noise_calib_stim_LEFT.wav	1	7	blb_dichoticlistening_da-ba.mp3	da	ba	1	left
6.6.1	win	2023-07-11	21:16:39	0	0	613fa6a4ac727e4d53fcaf38	2	1	DL_test	13	DL_test	34			0		ga	1	1712	6	2	antiphase_hc_ios.wav	3	6	2	noise_calib_stim_LEFT.wav	1	15	blb_dichoticlistening_ga-ga.mp3	ga	ga	0	left
6.6.1	win	2023-07-11	21:16:39	0	0	613fa6a4ac727e4d53fcaf38	2	1	DL_test	13	DL_test	35			0		pa	1	1581	6	2	antiphase_hc_ios.wav	3	6	2	noise_calib_stim_LEFT.wav	1	29	blb_dichoticlistening_pa-pa.mp3	pa	pa	0	left
6.6.1	win	2023-07-11	21:16:39	0	0	613fa6a4ac727e4d53fcaf38	2	1	DL_test	13	DL_test	36			0		ka	0	1346	6	2	antiphase_hc_ios.wav	3	6	2	noise_calib_stim_LEFT.wav	1	18	blb_dichoticlistening_ga-ta.mp3	ga	ta	1	other
6.6.1	win	2023-07-11	21:16:39	0	0	613fa6a4ac727e4d53fcaf38	2	1	DL_test	14	DL_test	1			0		ta	1	1693	6	2	antiphase_hc_ios.wav	3	6	2	noise_calib_stim_LEFT.wav	1	6	blb_dichoticlistening_ba-ta.mp3	ba	ta	1	right
6.6.1	win	2023-07-11	21:16:39	0	0	613fa6a4ac727e4d53fcaf38	2	1	DL_test	14	DL_test	2			0		pa	1	1114	6	2	antiphase_hc_ios.wav	3	6	2	noise_calib_stim_LEFT.wav	1	29	blb_dichoticlistening_pa-pa.mp3	pa	pa	0	left
6.6.1	win	2023-07-11	21:16:39	0	0	613fa6a4ac727e4d53fcaf38	2	1	DL_test	14	DL_test	3			0		ka	1	1247	6	2	antiphase_hc_ios.wav	3	6	2	noise_calib_stim_LEFT.wav	1	4	blb_dichoticlistening_ba-ka.mp3	ba	ka	1	right
6.6.1	win	2023-07-11	21:16:39	0	0	613fa6a4ac727e4d53fcaf38	2	1	DL_test	14	DL_test	4			0		pa	1	1309	6	2	antiphase_hc_ios.wav	3	6	2	noise_calib_stim_LEFT.wav	1	30	blb_dichoticlistening_pa-ta.mp3	pa	ta	1	left
6.6.1	win	2023-07-11	21:16:39	0	0	613fa6a4ac727e4d53fcaf38	2	1	DL_test	14	DL_test	5			0		da	1	1578	6	2	antiphase_hc_ios.wav	3	6	2	noise_calib_stim_LEFT.wav	1	7	blb_dichoticlistening_da-ba.mp3	da	ba	1	left
6.6.1	win	2023-07-11	21:16:39	0	0	613fa6a4ac727e4d53fcaf38	2	1	DL_test	14	DL_test	6			0		ba	1	1946	6	2	antiphase_hc_ios.wav	3	6	2	noise_calib_stim_LEFT.wav	1	13	blb_dichoticlistening_ga-ba.mp3	ga	ba	1	right
6.6.1	win	2023-07-11	21:16:39	0	0	613fa6a4ac727e4d53fcaf38	2	1	DL_test	14	DL_test	7			0		pa	1	1558	6	2	antiphase_hc_ios.wav	3	6	2	noise_calib_stim_LEFT.wav	1	26	blb_dichoticlistening_pa-da.mp3	pa	da	1	left
6.6.1	win	2023-07-11	21:16:39	0	0	613fa6a4ac727e4d53fcaf38	2	1	DL_test	14	DL_test	8			0		ga	1	1306	6	2	antiphase_hc_ios.wav	3	6	2	noise_calib_stim_LEFT.wav	1	15	blb_dichoticlistening_ga-ga.mp3	ga	ga	0	left
6.6.1	win	2023-07-11	21:16:39	0	0	613fa6a4ac727e4d53fcaf38	2	1	DL_test	14	DL_test	9			0		ga	1	1068	6	2	antiphase_hc_ios.wav	3	6	2	noise_calib_stim_LEFT.wav	1	3	blb_dichoticlistening_ba-ga.mp3	ba	ga	1	right
6.6.1	win	2023-07-11	21:16:39	0	0	613fa6a4ac727e4d53fcaf38	2	1	DL_test	14	DL_test	10			0		ka	1	1200	6	2	antiphase_hc_ios.wav	3	6	2	noise_calib_stim_LEFT.wav	1	24	blb_dichoticlistening_ka-ta.mp3	ka	ta	1	left
6.6.1	win	2023-07-11	21:16:39	0	0	613fa6a4ac727e4d53fcaf38	2	1	DL_test	14	DL_test	11			0		ba	1	1908	6	2	antiphase_hc_ios.wav	3	6	2	noise_calib_stim_LEFT.wav	1	19	blb_dichoticlistening_ka-ba.mp3	ka	ba	1	right
6.6.1	win	2023-07-11	21:16:39	0	0	613fa6a4ac727e4d53fcaf38	2	1	DL_test	14	DL_test	12			0		ka	1	1162	6	2	antiphase_hc_ios.wav	3	6	2	noise_calib_stim_LEFT.wav	1	22	blb_dichoticlistening_ka-ka.mp3	ka	ka	0	left
6.6.1	win	2023-07-11	21:16:39	0	0	613fa6a4ac727e4d53fcaf38	2	1	DL_test	14	DL_test	13			0		da	1	1167	6	2	antiphase_hc_ios.wav	3	6	2	noise_calib_stim_LEFT.wav	1	8	blb_dichoticlistening_da-da.mp3	da	da	0	left
6.6.1	win	2023-07-11	21:16:39	0	0	613fa6a4ac727e4d53fcaf38	2	1	DL_test	14	DL_test	14			0		pa	1	2645	6	2	antiphase_hc_ios.wav	3	6	2	noise_calib_stim_LEFT.wav	1	35	blb_dichoticlistening_ta-pa.mp3	ta	pa	1	right
6.6.1	win	2023-07-11	21:16:39	0	0	613fa6a4ac727e4d53fcaf38	2	1	DL_test	14	DL_test	15			0		ta	1	1738	6	2	antiphase_hc_ios.wav	3	6	2	noise_calib_stim_LEFT.wav	1	12	blb_dichoticlistening_da-ta.mp3	da	ta	1	right
6.6.1	win	2023-07-11	21:16:39	0	0	613fa6a4ac727e4d53fcaf38	2	1	DL_test	14	DL_test	16			0		pa	0	1402	6	2	antiphase_hc_ios.wav	3	6	2	noise_calib_stim_LEFT.wav	1	10	blb_dichoticlistening_da-ka.mp3	da	ka	1	other
6.6.1	win	2023-07-11	21:16:39	0	0	613fa6a4ac727e4d53fcaf38	2	1	DL_test	14	DL_test	17			0		ta	1	1922	6	2	antiphase_hc_ios.wav	3	6	2	noise_calib_stim_LEFT.wav	1	32	blb_dichoticlistening_ta-da.mp3	ta	da	1	left
6.6.1	win	2023-07-11	21:16:39	0	0	613fa6a4ac727e4d53fcaf38	2	1	DL_test	14	DL_test	18			0		da	1	1310	6	2	antiphase_hc_ios.wav	3	6	2	noise_calib_stim_LEFT.wav	1	9	blb_dichoticlistening_da-ga.mp3	da	ga	1	left
6.6.1	win	2023-07-11	21:16:39	0	0	613fa6a4ac727e4d53fcaf38	2	1	DL_test	14	DL_test	19			0		pa	1	1745	6	2	antiphase_hc_ios.wav	3	6	2	noise_calib_stim_LEFT.wav	1	11	blb_dichoticlistening_da-pa.mp3	da	pa	1	right
6.6.1	win	2023-07-11	21:16:39	0	0	613fa6a4ac727e4d53fcaf38	2	1	DL_test	14	DL_test	20			0		da	1	1315	6	2	antiphase_hc_ios.wav	3	6	2	noise_calib_stim_LEFT.wav	1	14	blb_dichoticlistening_ga-da.mp3	ga	da	1	right
6.6.1	win	2023-07-11	21:16:39	0	0	613fa6a4ac727e4d53fcaf38	2	1	DL_test	14	DL_test	21			0		ka	1	1154	6	2	antiphase_hc_ios.wav	3	6	2	noise_calib_stim_LEFT.wav	1	34	blb_dichoticlistening_ta-ka.mp3	ta	ka	1	right
6.6.1	win	2023-07-11	21:16:39	0	0	613fa6a4ac727e4d53fcaf38	2	1	DL_test	14	DL_test	22			0		pa	1	1373	6	2	antiphase_hc_ios.wav	3	6	2	noise_calib_stim_LEFT.wav	1	5	blb_dichoticlistening_ba-pa.mp3	ba	pa	1	right
6.6.1	win	2023-07-11	21:16:39	0	0	613fa6a4ac727e4d53fcaf38	2	1	DL_test	14	DL_test	23			0		ba	1	1370	6	2	antiphase_hc_ios.wav	3	6	2	noise_calib_stim_LEFT.wav	1	1	blb_dichoticlistening_ba-ba.mp3	ba	ba	0	left
6.6.1	win	2023-07-11	21:16:39	0	0	613fa6a4ac727e4d53fcaf38	2	1	DL_test	14	DL_test	24			0		ka	1	1282	6	2	antiphase_hc_ios.wav	3	6	2	noise_calib_stim_LEFT.wav	1	16	blb_dichoticlistening_ga-ka.mp3	ga	ka	1	right
6.6.1	win	2023-07-11	21:16:39	0	0	613fa6a4ac727e4d53fcaf38	2	1	DL_test	14	DL_test	25			0		pa	1	1120	6	2	antiphase_hc_ios.wav	3	6	2	noise_calib_stim_LEFT.wav	1	25	blb_dichoticlistening_pa-ba.mp3	pa	ba	1	left
6.6.1	win	2023-07-11	21:16:39	0	0	613fa6a4ac727e4d53fcaf38	2	1	DL_test	14	DL_test	26			0		ta	1	2366	6	2	antiphase_hc_ios.wav	3	6	2	noise_calib_stim_LEFT.wav	1	36	blb_dichoticlistening_ta-ta.mp3	ta	ta	0	left
6.6.1	win	2023-07-11	21:16:39	0	0	613fa6a4ac727e4d53fcaf38	2	1	DL_test	14	DL_test	27			0		ka	1	2865	6	2	antiphase_hc_ios.wav	3	6	2	noise_calib_stim_LEFT.wav	1	23	blb_dichoticlistening_ka-pa.mp3	ka	pa	1	left
6.6.1	win	2023-07-11	21:16:39	0	0	613fa6a4ac727e4d53fcaf38	2	1	DL_test	14	DL_test	28			0		ta	1	2701	6	2	antiphase_hc_ios.wav	3	6	2	noise_calib_stim_LEFT.wav	1	33	blb_dichoticlistening_ta-ga.mp3	ta	ga	1	left
6.6.1	win	2023-07-11	21:16:39	0	0	613fa6a4ac727e4d53fcaf38	2	1	DL_test	14	DL_test	29			0		pa	1	1141	6	2	antiphase_hc_ios.wav	3	6	2	noise_calib_stim_LEFT.wav	1	17	blb_dichoticlistening_ga-pa.mp3	ga	pa	1	right
6.6.1	win	2023-07-11	21:16:39	0	0	613fa6a4ac727e4d53fcaf38	2	1	DL_test	14	DL_test	30			0		pa	1	2513	6	2	antiphase_hc_ios.wav	3	6	2	noise_calib_stim_LEFT.wav	1	27	blb_dichoticlistening_pa-ga.mp3	pa	ga	1	left
6.6.1	win	2023-07-11	21:16:39	0	0	613fa6a4ac727e4d53fcaf38	2	1	DL_test	14	DL_test	31			0		ka	1	1147	6	2	antiphase_hc_ios.wav	3	6	2	noise_calib_stim_LEFT.wav	1	20	blb_dichoticlistening_ka-da.mp3	ka	da	1	left
6.6.1	win	2023-07-11	21:16:39	0	0	613fa6a4ac727e4d53fcaf38	2	1	DL_test	14	DL_test	32			0		ga	1	1633	6	2	antiphase_hc_ios.wav	3	6	2	noise_calib_stim_LEFT.wav	1	18	blb_dichoticlistening_ga-ta.mp3	ga	ta	1	left
6.6.1	win	2023-07-11	21:16:39	0	0	613fa6a4ac727e4d53fcaf38	2	1	DL_test	14	DL_test	33			0		ka	1	1755	6	2	antiphase_hc_ios.wav	3	6	2	noise_calib_stim_LEFT.wav	1	21	blb_dichoticlistening_ka-ga.mp3	ka	ga	1	left
6.6.1	win	2023-07-11	21:16:39	0	0	613fa6a4ac727e4d53fcaf38	2	1	DL_test	14	DL_test	34			0		da	1	1196	6	2	antiphase_hc_ios.wav	3	6	2	noise_calib_stim_LEFT.wav	1	2	blb_dichoticlistening_ba-da.mp3	ba	da	1	right
6.6.1	win	2023-07-11	21:16:39	0	0	613fa6a4ac727e4d53fcaf38	2	1	DL_test	14	DL_test	35			0		ta	1	1960	6	2	antiphase_hc_ios.wav	3	6	2	noise_calib_stim_LEFT.wav	1	31	blb_dichoticlistening_ta-ba.mp3	ta	ba	1	left
6.6.1	win	2023-07-11	21:16:39	0	0	613fa6a4ac727e4d53fcaf38	2	1	DL_test	14	DL_test	36			0		ka	1	1535	6	2	antiphase_hc_ios.wav	3	6	2	noise_calib_stim_LEFT.wav	1	28	blb_dichoticlistening_pa-ka.mp3	pa	ka	1	right
6.6.1	win	2023-07-11	21:16:39	0	0	613fa6a4ac727e4d53fcaf38	2	1	DL_test	15	DL_test	1			0		da	1	1515	6	2	antiphase_hc_ios.wav	3	6	2	noise_calib_stim_LEFT.wav	1	12	blb_dichoticlistening_da-ta.mp3	da	ta	1	left
6.6.1	win	2023-07-11	21:16:39	0	0	613fa6a4ac727e4d53fcaf38	2	1	DL_test	15	DL_test	2			0		ka	1	2147	6	2	antiphase_hc_ios.wav	3	6	2	noise_calib_stim_LEFT.wav	1	34	blb_dichoticlistening_ta-ka.mp3	ta	ka	1	right
6.6.1	win	2023-07-11	21:16:39	0	0	613fa6a4ac727e4d53fcaf38	2	1	DL_test	15	DL_test	3			0		da	0	1659	6	2	antiphase_hc_ios.wav	3	6	2	noise_calib_stim_LEFT.wav	1	1	blb_dichoticlistening_ba-ba.mp3	ba	ba	0	other
6.6.1	win	2023-07-11	21:16:39	0	0	613fa6a4ac727e4d53fcaf38	2	1	DL_test	15	DL_test	4			0		ka	1	1333	6	2	antiphase_hc_ios.wav	3	6	2	noise_calib_stim_LEFT.wav	1	19	blb_dichoticlistening_ka-ba.mp3	ka	ba	1	left
6.6.1	win	2023-07-11	21:16:39	0	0	613fa6a4ac727e4d53fcaf38	2	1	DL_test	15	DL_test	5			0		ta	1	1954	6	2	antiphase_hc_ios.wav	3	6	2	noise_calib_stim_LEFT.wav	1	35	blb_dichoticlistening_ta-pa.mp3	ta	pa	1	left
6.6.1	win	2023-07-11	21:16:39	0	0	613fa6a4ac727e4d53fcaf38	2	1	DL_test	15	DL_test	6			0		ta	1	1311	6	2	antiphase_hc_ios.wav	3	6	2	noise_calib_stim_LEFT.wav	1	36	blb_dichoticlistening_ta-ta.mp3	ta	ta	0	left
6.6.1	win	2023-07-11	21:16:39	0	0	613fa6a4ac727e4d53fcaf38	2	1	DL_test	15	DL_test	7			0		ka	1	1262	6	2	antiphase_hc_ios.wav	3	6	2	noise_calib_stim_LEFT.wav	1	4	blb_dichoticlistening_ba-ka.mp3	ba	ka	1	right
6.6.1	win	2023-07-11	21:16:39	0	0	613fa6a4ac727e4d53fcaf38	2	1	DL_test	15	DL_test	8			0		ga	1	1439	6	2	antiphase_hc_ios.wav	3	6	2	noise_calib_stim_LEFT.wav	1	16	blb_dichoticlistening_ga-ka.mp3	ga	ka	1	left
6.6.1	win	2023-07-11	21:16:39	0	0	613fa6a4ac727e4d53fcaf38	2	1	DL_test	15	DL_test	9			0		da	1	1518	6	2	antiphase_hc_ios.wav	3	6	2	noise_calib_stim_LEFT.wav	1	32	blb_dichoticlistening_ta-da.mp3	ta	da	1	right
6.6.1	win	2023-07-11	21:16:39	0	0	613fa6a4ac727e4d53fcaf38	2	1	DL_test	15	DL_test	10			0		da	0	1298	6	2	antiphase_hc_ios.wav	3	6	2	noise_calib_stim_LEFT.wav	1	18	blb_dichoticlistening_ga-ta.mp3	ga	ta	1	other
6.6.1	win	2023-07-11	21:16:39	0	0	613fa6a4ac727e4d53fcaf38	2	1	DL_test	15	DL_test	11			0		ga	1	1234	6	2	antiphase_hc_ios.wav	3	6	2	noise_calib_stim_LEFT.wav	1	15	blb_dichoticlistening_ga-ga.mp3	ga	ga	0	left
6.6.1	win	2023-07-11	21:16:39	0	0	613fa6a4ac727e4d53fcaf38	2	1	DL_test	15	DL_test	12			0		da	1	1320	6	2	antiphase_hc_ios.wav	3	6	2	noise_calib_stim_LEFT.wav	1	8	blb_dichoticlistening_da-da.mp3	da	da	0	left
6.6.1	win	2023-07-11	21:16:39	0	0	613fa6a4ac727e4d53fcaf38	2	1	DL_test	15	DL_test	13			0		ba	1	1236	6	2	antiphase_hc_ios.wav	3	6	2	noise_calib_stim_LEFT.wav	1	7	blb_dichoticlistening_da-ba.mp3	da	ba	1	right
6.6.1	win	2023-07-11	21:16:39	0	0	613fa6a4ac727e4d53fcaf38	2	1	DL_test	15	DL_test	14			0		pa	1	1544	6	2	antiphase_hc_ios.wav	3	6	2	noise_calib_stim_LEFT.wav	1	5	blb_dichoticlistening_ba-pa.mp3	ba	pa	1	right
6.6.1	win	2023-07-11	21:16:39	0	0	613fa6a4ac727e4d53fcaf38	2	1	DL_test	15	DL_test	15			0		pa	0	1007	6	2	antiphase_hc_ios.wav	3	6	2	noise_calib_stim_LEFT.wav	1	10	blb_dichoticlistening_da-ka.mp3	da	ka	1	other
6.6.1	win	2023-07-11	21:16:39	0	0	613fa6a4ac727e4d53fcaf38	2	1	DL_test	15	DL_test	16			0		pa	1	1098	6	2	antiphase_hc_ios.wav	3	6	2	noise_calib_stim_LEFT.wav	1	26	blb_dichoticlistening_pa-da.mp3	pa	da	1	left
6.6.1	win	2023-07-11	21:16:39	0	0	613fa6a4ac727e4d53fcaf38	2	1	DL_test	15	DL_test	17			0		da	0	1713	6	2	antiphase_hc_ios.wav	3	6	2	noise_calib_stim_LEFT.wav	1	17	blb_dichoticlistening_ga-pa.mp3	ga	pa	1	other
6.6.1	win	2023-07-11	21:16:39	0	0	613fa6a4ac727e4d53fcaf38	2	1	DL_test	15	DL_test	18			0		ka	1	1332	6	2	antiphase_hc_ios.wav	3	6	2	noise_calib_stim_LEFT.wav	1	24	blb_dichoticlistening_ka-ta.mp3	ka	ta	1	left
6.6.1	win	2023-07-11	21:16:39	0	0	613fa6a4ac727e4d53fcaf38	2	1	DL_test	15	DL_test	19			0		da	1	1427	6	2	antiphase_hc_ios.wav	3	6	2	noise_calib_stim_LEFT.wav	1	9	blb_dichoticlistening_da-ga.mp3	da	ga	1	left
6.6.1	win	2023-07-11	21:16:39	0	0	613fa6a4ac727e4d53fcaf38	2	1	DL_test	15	DL_test	20			0		da	1	1087	6	2	antiphase_hc_ios.wav	3	6	2	noise_calib_stim_LEFT.wav	1	14	blb_dichoticlistening_ga-da.mp3	ga	da	1	right
6.6.1	win	2023-07-11	21:16:39	0	0	613fa6a4ac727e4d53fcaf38	2	1	DL_test	15	DL_test	21			0		ka	1	1460	6	2	antiphase_hc_ios.wav	3	6	2	noise_calib_stim_LEFT.wav	1	23	blb_dichoticlistening_ka-pa.mp3	ka	pa	1	left
6.6.1	win	2023-07-11	21:16:39	0	0	613fa6a4ac727e4d53fcaf38	2	1	DL_test	15	DL_test	22			0		da	1	1443	6	2	antiphase_hc_ios.wav	3	6	2	noise_calib_stim_LEFT.wav	1	2	blb_dichoticlistening_ba-da.mp3	ba	da	1	right
6.6.1	win	2023-07-11	21:16:39	0	0	613fa6a4ac727e4d53fcaf38	2	1	DL_test	15	DL_test	23			0		ka	1	1794	6	2	antiphase_hc_ios.wav	3	6	2	noise_calib_stim_LEFT.wav	1	21	blb_dichoticlistening_ka-ga.mp3	ka	ga	1	left
6.6.1	win	2023-07-11	21:16:39	0	0	613fa6a4ac727e4d53fcaf38	2	1	DL_test	15	DL_test	24			0		ba	1	1901	6	2	antiphase_hc_ios.wav	3	6	2	noise_calib_stim_LEFT.wav	1	13	blb_dichoticlistening_ga-ba.mp3	ga	ba	1	right
6.6.1	win	2023-07-11	21:16:39	0	0	613fa6a4ac727e4d53fcaf38	2	1	DL_test	15	DL_test	25			0		ga	1	1582	6	2	antiphase_hc_ios.wav	3	6	2	noise_calib_stim_LEFT.wav	1	3	blb_dichoticlistening_ba-ga.mp3	ba	ga	1	right
6.6.1	win	2023-07-11	21:16:39	0	0	613fa6a4ac727e4d53fcaf38	2	1	DL_test	15	DL_test	26			0		pa	1	1738	6	2	antiphase_hc_ios.wav	3	6	2	noise_calib_stim_LEFT.wav	1	25	blb_dichoticlistening_pa-ba.mp3	pa	ba	1	left
6.6.1	win	2023-07-11	21:16:39	0	0	613fa6a4ac727e4d53fcaf38	2	1	DL_test	15	DL_test	27			0		pa	1	1225	6	2	antiphase_hc_ios.wav	3	6	2	noise_calib_stim_LEFT.wav	1	29	blb_dichoticlistening_pa-pa.mp3	pa	pa	0	left
6.6.1	win	2023-07-11	21:16:39	0	0	613fa6a4ac727e4d53fcaf38	2	1	DL_test	15	DL_test	28			0		ta	1	2335	6	2	antiphase_hc_ios.wav	3	6	2	noise_calib_stim_LEFT.wav	1	31	blb_dichoticlistening_ta-ba.mp3	ta	ba	1	left
6.6.1	win	2023-07-11	21:16:39	0	0	613fa6a4ac727e4d53fcaf38	2	1	DL_test	15	DL_test	29			0		ka	0	1666	6	2	antiphase_hc_ios.wav	3	6	2	noise_calib_stim_LEFT.wav	1	33	blb_dichoticlistening_ta-ga.mp3	ta	ga	1	other
6.6.1	win	2023-07-11	21:16:39	0	0	613fa6a4ac727e4d53fcaf38	2	1	DL_test	15	DL_test	30			0		ka	1	957	6	2	antiphase_hc_ios.wav	3	6	2	noise_calib_stim_LEFT.wav	1	22	blb_dichoticlistening_ka-ka.mp3	ka	ka	0	left
6.6.1	win	2023-07-11	21:16:39	0	0	613fa6a4ac727e4d53fcaf38	2	1	DL_test	15	DL_test	31			0		ka	1	1026	6	2	antiphase_hc_ios.wav	3	6	2	noise_calib_stim_LEFT.wav	1	28	blb_dichoticlistening_pa-ka.mp3	pa	ka	1	right
6.6.1	win	2023-07-11	21:16:39	0	0	613fa6a4ac727e4d53fcaf38	2	1	DL_test	15	DL_test	32			0		da	0	1678	6	2	antiphase_hc_ios.wav	3	6	2	noise_calib_stim_LEFT.wav	1	27	blb_dichoticlistening_pa-ga.mp3	pa	ga	1	other
6.6.1	win	2023-07-11	21:16:39	0	0	613fa6a4ac727e4d53fcaf38	2	1	DL_test	15	DL_test	33			0		ta	1	1939	6	2	antiphase_hc_ios.wav	3	6	2	noise_calib_stim_LEFT.wav	1	30	blb_dichoticlistening_pa-ta.mp3	pa	ta	1	right
6.6.1	win	2023-07-11	21:16:39	0	0	613fa6a4ac727e4d53fcaf38	2	1	DL_test	15	DL_test	34			0		pa	1	1538	6	2	antiphase_hc_ios.wav	3	6	2	noise_calib_stim_LEFT.wav	1	11	blb_dichoticlistening_da-pa.mp3	da	pa	1	right
6.6.1	win	2023-07-11	21:16:39	0	0	613fa6a4ac727e4d53fcaf38	2	1	DL_test	15	DL_test	35			0		ka	1	1427	6	2	antiphase_hc_ios.wav	3	6	2	noise_calib_stim_LEFT.wav	1	20	blb_dichoticlistening_ka-da.mp3	ka	da	1	left
6.6.1	win	2023-07-11	21:16:39	0	0	613fa6a4ac727e4d53fcaf38	2	1	DL_test	15	DL_test	36			0		ta	1	1680	6	2	antiphase_hc_ios.wav	3	6	2	noise_calib_stim_LEFT.wav	1	6	blb_dichoticlistening_ba-ta.mp3	ba	ta	1	right
6.6.1	win	2023-07-11	21:16:39	0	0	613fa6a4ac727e4d53fcaf38	2	1	DL_test	16	DL_test	1			0		ka	0	2302	6	2	antiphase_hc_ios.wav	3	6	2	noise_calib_stim_LEFT.wav	1	18	blb_dichoticlistening_ga-ta.mp3	ga	ta	1	other
6.6.1	win	2023-07-11	21:16:39	0	0	613fa6a4ac727e4d53fcaf38	2	1	DL_test	16	DL_test	2			0		pa	1	1416	6	2	antiphase_hc_ios.wav	3	6	2	noise_calib_stim_LEFT.wav	1	25	blb_dichoticlistening_pa-ba.mp3	pa	ba	1	left
6.6.1	win	2023-07-11	21:16:39	0	0	613fa6a4ac727e4d53fcaf38	2	1	DL_test	16	DL_test	3			0		ka	1	1507	6	2	antiphase_hc_ios.wav	3	6	2	noise_calib_stim_LEFT.wav	1	28	blb_dichoticlistening_pa-ka.mp3	pa	ka	1	right
6.6.1	win	2023-07-11	21:16:39	0	0	613fa6a4ac727e4d53fcaf38	2	1	DL_test	16	DL_test	4			0		ba	1	1497	6	2	antiphase_hc_ios.wav	3	6	2	noise_calib_stim_LEFT.wav	1	1	blb_dichoticlistening_ba-ba.mp3	ba	ba	0	left
6.6.1	win	2023-07-11	21:16:39	0	0	613fa6a4ac727e4d53fcaf38	2	1	DL_test	16	DL_test	5			0		ka	1	1270	6	2	antiphase_hc_ios.wav	3	6	2	noise_calib_stim_LEFT.wav	1	4	blb_dichoticlistening_ba-ka.mp3	ba	ka	1	right
6.6.1	win	2023-07-11	21:16:39	0	0	613fa6a4ac727e4d53fcaf38	2	1	DL_test	16	DL_test	6			0		da	1	1851	6	2	antiphase_hc_ios.wav	3	6	2	noise_calib_stim_LEFT.wav	1	32	blb_dichoticlistening_ta-da.mp3	ta	da	1	right
6.6.1	win	2023-07-11	21:16:39	0	0	613fa6a4ac727e4d53fcaf38	2	1	DL_test	16	DL_test	7			0		ka	1	1276	6	2	antiphase_hc_ios.wav	3	6	2	noise_calib_stim_LEFT.wav	1	34	blb_dichoticlistening_ta-ka.mp3	ta	ka	1	right
6.6.1	win	2023-07-11	21:16:39	0	0	613fa6a4ac727e4d53fcaf38	2	1	DL_test	16	DL_test	8			0		da	1	1286	6	2	antiphase_hc_ios.wav	3	6	2	noise_calib_stim_LEFT.wav	1	8	blb_dichoticlistening_da-da.mp3	da	da	0	left
6.6.1	win	2023-07-11	21:16:39	0	0	613fa6a4ac727e4d53fcaf38	2	1	DL_test	16	DL_test	9			0		ka	1	1251	6	2	antiphase_hc_ios.wav	3	6	2	noise_calib_stim_LEFT.wav	1	19	blb_dichoticlistening_ka-ba.mp3	ka	ba	1	left
6.6.1	win	2023-07-11	21:16:39	0	0	613fa6a4ac727e4d53fcaf38	2	1	DL_test	16	DL_test	10			0		ta	1	1643	6	2	antiphase_hc_ios.wav	3	6	2	noise_calib_stim_LEFT.wav	1	24	blb_dichoticlistening_ka-ta.mp3	ka	ta	1	right
6.6.1	win	2023-07-11	21:16:39	0	0	613fa6a4ac727e4d53fcaf38	2	1	DL_test	16	DL_test	11			0		ka	1	1295	6	2	antiphase_hc_ios.wav	3	6	2	noise_calib_stim_LEFT.wav	1	20	blb_dichoticlistening_ka-da.mp3	ka	da	1	left
6.6.1	win	2023-07-11	21:16:39	0	0	613fa6a4ac727e4d53fcaf38	2	1	DL_test	16	DL_test	12			0		ga	1	2300	6	2	antiphase_hc_ios.wav	3	6	2	noise_calib_stim_LEFT.wav	1	16	blb_dichoticlistening_ga-ka.mp3	ga	ka	1	left
6.6.1	win	2023-07-11	21:16:39	0	0	613fa6a4ac727e4d53fcaf38	2	1	DL_test	16	DL_test	13			0		ba	1	1864	6	2	antiphase_hc_ios.wav	3	6	2	noise_calib_stim_LEFT.wav	1	3	blb_dichoticlistening_ba-ga.mp3	ba	ga	1	left
6.6.1	win	2023-07-11	21:16:39	0	0	613fa6a4ac727e4d53fcaf38	2	1	DL_test	16	DL_test	14			0		pa	1	1449	6	2	antiphase_hc_ios.wav	3	6	2	noise_calib_stim_LEFT.wav	1	17	blb_dichoticlistening_ga-pa.mp3	ga	pa	1	right
6.6.1	win	2023-07-11	21:16:39	0	0	613fa6a4ac727e4d53fcaf38	2	1	DL_test	16	DL_test	15			0		pa	0	1038	6	2	antiphase_hc_ios.wav	3	6	2	noise_calib_stim_LEFT.wav	1	10	blb_dichoticlistening_da-ka.mp3	da	ka	1	other
6.6.1	win	2023-07-11	21:16:39	0	0	613fa6a4ac727e4d53fcaf38	2	1	DL_test	16	DL_test	16			0		ga	1	1752	6	2	antiphase_hc_ios.wav	3	6	2	noise_calib_stim_LEFT.wav	1	27	blb_dichoticlistening_pa-ga.mp3	pa	ga	1	right
6.6.1	win	2023-07-11	21:16:39	0	0	613fa6a4ac727e4d53fcaf38	2	1	DL_test	16	DL_test	17			0		da	1	1809	6	2	antiphase_hc_ios.wav	3	6	2	noise_calib_stim_LEFT.wav	1	11	blb_dichoticlistening_da-pa.mp3	da	pa	1	left
6.6.1	win	2023-07-11	21:16:39	0	0	613fa6a4ac727e4d53fcaf38	2	1	DL_test	16	DL_test	18			0		ta	1	2043	6	2	antiphase_hc_ios.wav	3	6	2	noise_calib_stim_LEFT.wav	1	31	blb_dichoticlistening_ta-ba.mp3	ta	ba	1	left
6.6.1	win	2023-07-11	21:16:39	0	0	613fa6a4ac727e4d53fcaf38	2	1	DL_test	16	DL_test	19			0		ta	1	1429	6	2	antiphase_hc_ios.wav	3	6	2	noise_calib_stim_LEFT.wav	1	35	blb_dichoticlistening_ta-pa.mp3	ta	pa	1	left
6.6.1	win	2023-07-11	21:16:39	0	0	613fa6a4ac727e4d53fcaf38	2	1	DL_test	16	DL_test	20			0		da	1	1623	6	2	antiphase_hc_ios.wav	3	6	2	noise_calib_stim_LEFT.wav	1	14	blb_dichoticlistening_ga-da.mp3	ga	da	1	right
6.6.1	win	2023-07-11	21:16:39	0	0	613fa6a4ac727e4d53fcaf38	2	1	DL_test	16	DL_test	21			0		da	1	2857	6	2	antiphase_hc_ios.wav	3	6	2	noise_calib_stim_LEFT.wav	1	2	blb_dichoticlistening_ba-da.mp3	ba	da	1	right
6.6.1	win	2023-07-11	21:16:39	0	0	613fa6a4ac727e4d53fcaf38	2	1	DL_test	16	DL_test	22			0		ga	1	1213	6	2	antiphase_hc_ios.wav	3	6	2	noise_calib_stim_LEFT.wav	1	15	blb_dichoticlistening_ga-ga.mp3	ga	ga	0	left
6.6.1	win	2023-07-11	21:16:39	0	0	613fa6a4ac727e4d53fcaf38	2	1	DL_test	16	DL_test	23			0		ka	1	1151	6	2	antiphase_hc_ios.wav	3	6	2	noise_calib_stim_LEFT.wav	1	22	blb_dichoticlistening_ka-ka.mp3	ka	ka	0	left
6.6.1	win	2023-07-11	21:16:39	0	0	613fa6a4ac727e4d53fcaf38	2	1	DL_test	16	DL_test	24			0		ba	1	2324	6	2	antiphase_hc_ios.wav	3	6	2	noise_calib_stim_LEFT.wav	1	13	blb_dichoticlistening_ga-ba.mp3	ga	ba	1	right
6.6.1	win	2023-07-11	21:16:39	0	0	613fa6a4ac727e4d53fcaf38	2	1	DL_test	16	DL_test	25			0		da	1	1497	6	2	antiphase_hc_ios.wav	3	6	2	noise_calib_stim_LEFT.wav	1	12	blb_dichoticlistening_da-ta.mp3	da	ta	1	left
6.6.1	win	2023-07-11	21:16:39	0	0	613fa6a4ac727e4d53fcaf38	2	1	DL_test	16	DL_test	26			0		da	1	1362	6	2	antiphase_hc_ios.wav	3	6	2	noise_calib_stim_LEFT.wav	1	7	blb_dichoticlistening_da-ba.mp3	da	ba	1	left
6.6.1	win	2023-07-11	21:16:39	0	0	613fa6a4ac727e4d53fcaf38	2	1	DL_test	16	DL_test	27			0		pa	1	1428	6	2	antiphase_hc_ios.wav	3	6	2	noise_calib_stim_LEFT.wav	1	5	blb_dichoticlistening_ba-pa.mp3	ba	pa	1	right
6.6.1	win	2023-07-11	21:16:39	0	0	613fa6a4ac727e4d53fcaf38	2	1	DL_test	16	DL_test	28			0		pa	1	1039	6	2	antiphase_hc_ios.wav	3	6	2	noise_calib_stim_LEFT.wav	1	26	blb_dichoticlistening_pa-da.mp3	pa	da	1	left
6.6.1	win	2023-07-11	21:16:39	0	0	613fa6a4ac727e4d53fcaf38	2	1	DL_test	16	DL_test	29			0		ka	0	1217	6	2	antiphase_hc_ios.wav	3	6	2	noise_calib_stim_LEFT.wav	1	33	blb_dichoticlistening_ta-ga.mp3	ta	ga	1	other
6.6.1	win	2023-07-11	21:16:39	0	0	613fa6a4ac727e4d53fcaf38	2	1	DL_test	16	DL_test	30			0		da	1	1434	6	2	antiphase_hc_ios.wav	3	6	2	noise_calib_stim_LEFT.wav	1	9	blb_dichoticlistening_da-ga.mp3	da	ga	1	left
6.6.1	win	2023-07-11	21:16:39	0	0	613fa6a4ac727e4d53fcaf38	2	1	DL_test	16	DL_test	31			0		pa	1	1327	6	2	antiphase_hc_ios.wav	3	6	2	noise_calib_stim_LEFT.wav	1	29	blb_dichoticlistening_pa-pa.mp3	pa	pa	0	left
6.6.1	win	2023-07-11	21:16:39	0	0	613fa6a4ac727e4d53fcaf38	2	1	DL_test	16	DL_test	32			0		ta	1	1341	6	2	antiphase_hc_ios.wav	3	6	2	noise_calib_stim_LEFT.wav	1	30	blb_dichoticlistening_pa-ta.mp3	pa	ta	1	right
6.6.1	win	2023-07-11	21:16:39	0	0	613fa6a4ac727e4d53fcaf38	2	1	DL_test	16	DL_test	33			0		ta	1	970	6	2	antiphase_hc_ios.wav	3	6	2	noise_calib_stim_LEFT.wav	1	6	blb_dichoticlistening_ba-ta.mp3	ba	ta	1	right
6.6.1	win	2023-07-11	21:16:39	0	0	613fa6a4ac727e4d53fcaf38	2	1	DL_test	16	DL_test	34			0		ta	1	943	6	2	antiphase_hc_ios.wav	3	6	2	noise_calib_stim_LEFT.wav	1	36	blb_dichoticlistening_ta-ta.mp3	ta	ta	0	left
6.6.1	win	2023-07-11	21:16:39	0	0	613fa6a4ac727e4d53fcaf38	2	1	DL_test	16	DL_test	35			0		ka	1	1142	6	2	antiphase_hc_ios.wav	3	6	2	noise_calib_stim_LEFT.wav	1	21	blb_dichoticlistening_ka-ga.mp3	ka	ga	1	left
6.6.1	win	2023-07-11	21:16:39	0	0	613fa6a4ac727e4d53fcaf38	2	1	DL_test	16	DL_test	36			0		pa	1	1993	6	2	antiphase_hc_ios.wav	3	6	2	noise_calib_stim_LEFT.wav	1	23	blb_dichoticlistening_ka-pa.mp3	ka	pa	1	right
6.6.1	win	2023-07-11	21:16:39	21:30:45	840777	613fa6a4ac727e4d53fcaf38	2	1	practice_z	22	practice_z	1	stimuli_distractor_diamondtriangles.svg	stimuli_target_diamondrectangles.svg	8	yes	44	1	930	6	2	antiphase_hc_ios.wav	3	6	2	noise_calib_stim_LEFT.wav	1	23	blb_dichoticlistening_ka-pa.mp3	ka	pa	1	right
6.6.1	win	2023-07-11	21:16:39	21:30:45	840777	613fa6a4ac727e4d53fcaf38	2	1	practice_z	22	advance_on_keypress_ZEE	2	stimuli_distractor_diamondtriangles.svg	stimuli_target_diamondrectangles.svg	8	yes	57	0	3520	6	2	antiphase_hc_ios.wav	3	6	2	noise_calib_stim_LEFT.wav	1	23	blb_dichoticlistening_ka-pa.mp3	ka	pa	1	right
6.6.1	win	2023-07-11	21:16:39	21:30:50	846237	613fa6a4ac727e4d53fcaf38	2	1	practice_z	22	practice_z	3	stimuli_distractor_trianglediamonds.svg	stimuli_distractor_diamondtriangles.svg	16	no	44	0	290	6	2	antiphase_hc_ios.wav	3	6	2	noise_calib_stim_LEFT.wav	1	23	blb_dichoticlistening_ka-pa.mp3	ka	pa	1	right
6.6.1	win	2023-07-11	21:16:39	21:30:50	846237	613fa6a4ac727e4d53fcaf38	2	1	practice_z	22	advance_on_keypress_ZEE	4	stimuli_distractor_trianglediamonds.svg	stimuli_distractor_diamondtriangles.svg	16	no	57	0	1002	6	2	antiphase_hc_ios.wav	3	6	2	noise_calib_stim_LEFT.wav	1	23	blb_dichoticlistening_ka-pa.mp3	ka	pa	1	right
6.6.1	win	2023-07-11	21:16:39	21:30:53	849163	613fa6a4ac727e4d53fcaf38	2	1	practice_z	22	practice_z	5	stimuli_target_squarediamonds.svg	stimuli_distractor_diamondtriangles.svg	2	yes	44	1	268	6	2	antiphase_hc_ios.wav	3	6	2	noise_calib_stim_LEFT.wav	1	23	blb_dichoticlistening_ka-pa.mp3	ka	pa	1	right
6.6.1	win	2023-07-11	21:16:39	21:30:53	849163	613fa6a4ac727e4d53fcaf38	2	1	practice_z	22	advance_on_keypress_ZEE	6	stimuli_target_squarediamonds.svg	stimuli_distractor_diamondtriangles.svg	2	yes	57	0	1230	6	2	antiphase_hc_ios.wav	3	6	2	noise_calib_stim_LEFT.wav	1	23	blb_dichoticlistening_ka-pa.mp3	ka	pa	1	right
6.6.1	win	2023-07-11	21:16:39	21:30:56	852319	613fa6a4ac727e4d53fcaf38	2	1	practice_z	22	practice_z	7	stimuli_distractor_trianglediamonds.svg	stimuli_target_squarediamonds.svg	11	yes	44	1	276	6	2	antiphase_hc_ios.wav	3	6	2	noise_calib_stim_LEFT.wav	1	23	blb_dichoticlistening_ka-pa.mp3	ka	pa	1	right
6.6.1	win	2023-07-11	21:16:39	21:30:56	852319	613fa6a4ac727e4d53fcaf38	2	1	practice_z	22	advance_on_keypress_ZEE	8	stimuli_distractor_trianglediamonds.svg	stimuli_target_squarediamonds.svg	11	yes	57	0	772	6	2	antiphase_hc_ios.wav	3	6	2	noise_calib_stim_LEFT.wav	1	23	blb_dichoticlistening_ka-pa.mp3	ka	pa	1	right
6.6.1	win	2023-07-11	21:16:39	21:31:01	856761	613fa6a4ac727e4d53fcaf38	2	1	practice_z	22	practice_z	9	stimuli_target_rectanglediamonds.svg	stimuli_distractor_diamondtriangles.svg	1	yes	0	0	2000	6	2	antiphase_hc_ios.wav	3	6	2	noise_calib_stim_LEFT.wav	1	23	blb_dichoticlistening_ka-pa.mp3	ka	pa	1	right
6.6.1	win	2023-07-11	21:16:39	21:31:01	856761	613fa6a4ac727e4d53fcaf38	2	1	practice_z	22	advance_on_keypress_ZEE	10	stimuli_target_rectanglediamonds.svg	stimuli_distractor_diamondtriangles.svg	1	yes	57	0	939	6	2	antiphase_hc_ios.wav	3	6	2	noise_calib_stim_LEFT.wav	1	23	blb_dichoticlistening_ka-pa.mp3	ka	pa	1	right
6.6.1	win	2023-07-11	21:16:39	21:31:04	859723	613fa6a4ac727e4d53fcaf38	2	1	practice_z	22	practice_z	11	stimuli_distractor_diamondtriangles.svg	stimuli_target_rectangletriangles.svg	7	yes	44	1	365	6	2	antiphase_hc_ios.wav	3	6	2	noise_calib_stim_LEFT.wav	1	23	blb_dichoticlistening_ka-pa.mp3	ka	pa	1	right
6.6.1	win	2023-07-11	21:16:39	21:31:04	859723	613fa6a4ac727e4d53fcaf38	2	1	practice_z	22	advance_on_keypress_ZEE	12	stimuli_distractor_diamondtriangles.svg	stimuli_target_rectangletriangles.svg	7	yes	57	0	687	6	2	antiphase_hc_ios.wav	3	6	2	noise_calib_stim_LEFT.wav	1	23	blb_dichoticlistening_ka-pa.mp3	ka	pa	1	right
6.6.1	win	2023-07-11	21:16:39	21:31:08	864059	613fa6a4ac727e4d53fcaf38	2	1	practice_z	22	practice_z	13	stimuli_distractor_trianglediamonds.svg	stimuli_target_diamondrectangles.svg	12	yes	0	0	2000	6	2	antiphase_hc_ios.wav	3	6	2	noise_calib_stim_LEFT.wav	1	23	blb_dichoticlistening_ka-pa.mp3	ka	pa	1	right
6.6.1	win	2023-07-11	21:16:39	21:31:08	864059	613fa6a4ac727e4d53fcaf38	2	1	practice_z	22	advance_on_keypress_ZEE	14	stimuli_distractor_trianglediamonds.svg	stimuli_target_diamondrectangles.svg	12	yes	57	0	809	6	2	antiphase_hc_ios.wav	3	6	2	noise_calib_stim_LEFT.wav	1	23	blb_dichoticlistening_ka-pa.mp3	ka	pa	1	right
6.6.1	win	2023-07-11	21:16:39	21:31:12	868508	613fa6a4ac727e4d53fcaf38	2	1	practice_z	22	practice_z	15	stimuli_distractor_trianglediamonds.svg	stimuli_distractor_trianglediamonds.svg	15	no	0	1	2000	6	2	antiphase_hc_ios.wav	3	6	2	noise_calib_stim_LEFT.wav	1	23	blb_dichoticlistening_ka-pa.mp3	ka	pa	1	right
6.6.1	win	2023-07-11	21:16:39	21:31:12	868508	613fa6a4ac727e4d53fcaf38	2	1	practice_z	22	advance_on_keypress_ZEE	16	stimuli_distractor_trianglediamonds.svg	stimuli_distractor_trianglediamonds.svg	15	no	57	0	925	6	2	antiphase_hc_ios.wav	3	6	2	noise_calib_stim_LEFT.wav	1	23	blb_dichoticlistening_ka-pa.mp3	ka	pa	1	right
6.6.1	win	2023-07-11	21:16:39	21:31:17	873073	613fa6a4ac727e4d53fcaf38	2	1	practice_z	22	practice_z	17	stimuli_distractor_diamondtriangles.svg	stimuli_distractor_trianglediamonds.svg	14	no	0	1	2000	6	2	antiphase_hc_ios.wav	3	6	2	noise_calib_stim_LEFT.wav	1	23	blb_dichoticlistening_ka-pa.mp3	ka	pa	1	right
6.6.1	win	2023-07-11	21:16:39	21:31:17	873073	613fa6a4ac727e4d53fcaf38	2	1	practice_z	22	advance_on_keypress_ZEE	18	stimuli_distractor_diamondtriangles.svg	stimuli_distractor_trianglediamonds.svg	14	no	57	0	951	6	2	antiphase_hc_ios.wav	3	6	2	noise_calib_stim_LEFT.wav	1	23	blb_dichoticlistening_ka-pa.mp3	ka	pa	1	right
6.6.1	win	2023-07-11	21:16:39	21:31:20	876016	613fa6a4ac727e4d53fcaf38	2	1	practice_z	22	practice_z	19	stimuli_target_rectanglediamonds.svg	stimuli_distractor_trianglediamonds.svg	4	yes	44	1	342	6	2	antiphase_hc_ios.wav	3	6	2	noise_calib_stim_LEFT.wav	1	23	blb_dichoticlistening_ka-pa.mp3	ka	pa	1	right
6.6.1	win	2023-07-11	21:16:39	21:31:20	876016	613fa6a4ac727e4d53fcaf38	2	1	practice_z	22	advance_on_keypress_ZEE	20	stimuli_target_rectanglediamonds.svg	stimuli_distractor_trianglediamonds.svg	4	yes	57	0	1038	6	2	antiphase_hc_ios.wav	3	6	2	noise_calib_stim_LEFT.wav	1	23	blb_dichoticlistening_ka-pa.mp3	ka	pa	1	right
6.6.1	win	2023-07-11	21:16:39	21:31:23	879198	613fa6a4ac727e4d53fcaf38	2	1	practice_z	22	practice_z	21	stimuli_target_diamondsquares.svg	stimuli_distractor_diamondtriangles.svg	3	yes	44	1	476	6	2	antiphase_hc_ios.wav	3	6	2	noise_calib_stim_LEFT.wav	1	23	blb_dichoticlistening_ka-pa.mp3	ka	pa	1	right
6.6.1	win	2023-07-11	21:16:39	21:31:23	879198	613fa6a4ac727e4d53fcaf38	2	1	practice_z	22	advance_on_keypress_ZEE	22	stimuli_target_diamondsquares.svg	stimuli_distractor_diamondtriangles.svg	3	yes	57	0	1120	6	2	antiphase_hc_ios.wav	3	6	2	noise_calib_stim_LEFT.wav	1	23	blb_dichoticlistening_ka-pa.mp3	ka	pa	1	right
6.6.1	win	2023-07-11	21:16:39	21:31:26	882352	613fa6a4ac727e4d53fcaf38	2	1	practice_z	22	practice_z	23	stimuli_distractor_diamondtriangles.svg	stimuli_target_trianglerectangles.svg	9	yes	44	1	381	6	2	antiphase_hc_ios.wav	3	6	2	noise_calib_stim_LEFT.wav	1	23	blb_dichoticlistening_ka-pa.mp3	ka	pa	1	right
6.6.1	win	2023-07-11	21:16:39	21:31:26	882352	613fa6a4ac727e4d53fcaf38	2	1	practice_z	22	advance_on_keypress_ZEE	24	stimuli_distractor_diamondtriangles.svg	stimuli_target_trianglerectangles.svg	9	yes	57	0	955	6	2	antiphase_hc_ios.wav	3	6	2	noise_calib_stim_LEFT.wav	1	23	blb_dichoticlistening_ka-pa.mp3	ka	pa	1	right
6.6.1	win	2023-07-11	21:16:39	21:31:31	886953	613fa6a4ac727e4d53fcaf38	2	1	practice_z	22	practice_z	25	stimuli_distractor_diamondtriangles.svg	stimuli_distractor_diamondtriangles.svg	13	no	0	1	2000	6	2	antiphase_hc_ios.wav	3	6	2	noise_calib_stim_LEFT.wav	1	23	blb_dichoticlistening_ka-pa.mp3	ka	pa	1	right
6.6.1	win	2023-07-11	21:16:39	21:31:31	886953	613fa6a4ac727e4d53fcaf38	2	1	practice_z	22	advance_on_keypress_ZEE	26	stimuli_distractor_diamondtriangles.svg	stimuli_distractor_diamondtriangles.svg	13	no	57	0	677	6	2	antiphase_hc_ios.wav	3	6	2	noise_calib_stim_LEFT.wav	1	23	blb_dichoticlistening_ka-pa.mp3	ka	pa	1	right
6.6.1	win	2023-07-11	21:16:39	21:31:34	889580	613fa6a4ac727e4d53fcaf38	2	1	practice_z	22	practice_z	27	stimuli_target_squarediamonds.svg	stimuli_distractor_trianglediamonds.svg	5	yes	44	1	294	6	2	antiphase_hc_ios.wav	3	6	2	noise_calib_stim_LEFT.wav	1	23	blb_dichoticlistening_ka-pa.mp3	ka	pa	1	right
6.6.1	win	2023-07-11	21:16:39	21:31:34	889580	613fa6a4ac727e4d53fcaf38	2	1	practice_z	22	advance_on_keypress_ZEE	28	stimuli_target_squarediamonds.svg	stimuli_distractor_trianglediamonds.svg	5	yes	57	0	589	6	2	antiphase_hc_ios.wav	3	6	2	noise_calib_stim_LEFT.wav	1	23	blb_dichoticlistening_ka-pa.mp3	ka	pa	1	right
6.6.1	win	2023-07-11	21:16:39	21:31:36	892270	613fa6a4ac727e4d53fcaf38	2	1	practice_z	22	practice_z	29	stimuli_target_diamondsquares.svg	stimuli_distractor_trianglediamonds.svg	6	yes	44	1	452	6	2	antiphase_hc_ios.wav	3	6	2	noise_calib_stim_LEFT.wav	1	23	blb_dichoticlistening_ka-pa.mp3	ka	pa	1	right
6.6.1	win	2023-07-11	21:16:39	21:31:36	892270	613fa6a4ac727e4d53fcaf38	2	1	practice_z	22	advance_on_keypress_ZEE	30	stimuli_target_diamondsquares.svg	stimuli_distractor_trianglediamonds.svg	6	yes	57	0	753	6	2	antiphase_hc_ios.wav	3	6	2	noise_calib_stim_LEFT.wav	1	23	blb_dichoticlistening_ka-pa.mp3	ka	pa	1	right
6.6.1	win	2023-07-11	21:16:39	21:31:41	896668	613fa6a4ac727e4d53fcaf38	2	1	practice_z	22	practice_z	31	stimuli_distractor_trianglediamonds.svg	stimuli_target_rectanglediamonds.svg	10	yes	0	0	2000	6	2	antiphase_hc_ios.wav	3	6	2	noise_calib_stim_LEFT.wav	1	23	blb_dichoticlistening_ka-pa.mp3	ka	pa	1	right
6.6.1	win	2023-07-11	21:16:39	21:31:41	896668	613fa6a4ac727e4d53fcaf38	2	1	practice_z	22	advance_on_keypress_ZEE	32	stimuli_distractor_trianglediamonds.svg	stimuli_target_rectanglediamonds.svg	10	yes	57	0	1107	6	2	antiphase_hc_ios.wav	3	6	2	noise_calib_stim_LEFT.wav	1	23	blb_dichoticlistening_ka-pa.mp3	ka	pa	1	right
6.6.1	win	2023-07-11	21:16:39	21:31:54	909571	613fa6a4ac727e4d53fcaf38	2	1	main_z	24	main_z	1	stimuli_target_trianglerectangles.svg	stimuli_distractor_diamondtriangles.svg	21	yes	44	1	325	6	2	antiphase_hc_ios.wav	3	6	2	noise_calib_stim_LEFT.wav	1	23	blb_dichoticlistening_ka-pa.mp3	ka	pa	1	right
6.6.1	win	2023-07-11	21:16:39	21:31:54	909571	613fa6a4ac727e4d53fcaf38	2	1	main_z	24	advance_on_keypress_ZEE	2	stimuli_target_trianglerectangles.svg	stimuli_distractor_diamondtriangles.svg	21	yes	57	0	2268	6	2	antiphase_hc_ios.wav	3	6	2	noise_calib_stim_LEFT.wav	1	23	blb_dichoticlistening_ka-pa.mp3	ka	pa	1	right
6.6.1	win	2023-07-11	21:16:39	21:31:57	912731	613fa6a4ac727e4d53fcaf38	2	1	main_z	24	main_z	3	stimuli_distractor_diamondtriangles.svg	stimuli_target_rectanglediamonds.svg	14	yes	44	1	236	6	2	antiphase_hc_ios.wav	3	6	2	noise_calib_stim_LEFT.wav	1	23	blb_dichoticlistening_ka-pa.mp3	ka	pa	1	right
6.6.1	win	2023-07-11	21:16:39	21:31:57	912731	613fa6a4ac727e4d53fcaf38	2	1	main_z	24	advance_on_keypress_ZEE	4	stimuli_distractor_diamondtriangles.svg	stimuli_target_rectanglediamonds.svg	14	yes	57	0	1945	6	2	antiphase_hc_ios.wav	3	6	2	noise_calib_stim_LEFT.wav	1	23	blb_dichoticlistening_ka-pa.mp3	ka	pa	1	right
6.6.1	win	2023-07-11	21:16:39	21:32:01	917328	613fa6a4ac727e4d53fcaf38	2	1	main_z	24	main_z	5	stimuli_target_diamondrectangles.svg	stimuli_distractor_diamondtriangles.svg	23	yes	0	0	2000	6	2	antiphase_hc_ios.wav	3	6	2	noise_calib_stim_LEFT.wav	1	23	blb_dichoticlistening_ka-pa.mp3	ka	pa	1	right
6.6.1	win	2023-07-11	21:16:39	21:32:01	917328	613fa6a4ac727e4d53fcaf38	2	1	main_z	24	advance_on_keypress_ZEE	6	stimuli_target_diamondrectangles.svg	stimuli_distractor_diamondtriangles.svg	23	yes	57	0	1083	6	2	antiphase_hc_ios.wav	3	6	2	noise_calib_stim_LEFT.wav	1	23	blb_dichoticlistening_ka-pa.mp3	ka	pa	1	right
6.6.1	win	2023-07-11	21:16:39	21:32:03	919393	613fa6a4ac727e4d53fcaf38	2	1	main_z	24	main_z	7	stimuli_distractor_trianglediamonds.svg	stimuli_target_squaretriangles.svg	11	yes	44	1	333	6	2	antiphase_hc_ios.wav	3	6	2	noise_calib_stim_LEFT.wav	1	23	blb_dichoticlistening_ka-pa.mp3	ka	pa	1	right
6.6.1	win	2023-07-11	21:16:39	21:32:03	919393	613fa6a4ac727e4d53fcaf38	2	1	main_z	24	advance_on_keypress_ZEE	8	stimuli_distractor_trianglediamonds.svg	stimuli_target_squaretriangles.svg	11	yes	57	0	1358	6	2	antiphase_hc_ios.wav	3	6	2	noise_calib_stim_LEFT.wav	1	23	blb_dichoticlistening_ka-pa.mp3	ka	pa	1	right
6.6.1	win	2023-07-11	21:16:39	21:32:06	921857	613fa6a4ac727e4d53fcaf38	2	1	main_z	24	main_z	9	stimuli_target_squaretriangles.svg	stimuli_distractor_trianglediamonds.svg	3	yes	44	1	465	6	2	antiphase_hc_ios.wav	3	6	2	noise_calib_stim_LEFT.wav	1	23	blb_dichoticlistening_ka-pa.mp3	ka	pa	1	right
6.6.1	win	2023-07-11	21:16:39	21:32:06	921857	613fa6a4ac727e4d53fcaf38	2	1	main_z	24	advance_on_keypress_ZEE	10	stimuli_target_squaretriangles.svg	stimuli_distractor_trianglediamonds.svg	3	yes	57	0	1604	6	2	antiphase_hc_ios.wav	3	6	2	noise_calib_stim_LEFT.wav	1	23	blb_dichoticlistening_ka-pa.mp3	ka	pa	1	right
6.6.1	win	2023-07-11	21:16:39	21:32:10	925740	613fa6a4ac727e4d53fcaf38	2	1	main_z	24	main_z	11	stimuli_distractor_diamondtriangles.svg	stimuli_target_trianglesquares.svg	30	yes	44	1	1631	6	2	antiphase_hc_ios.wav	3	6	2	noise_calib_stim_LEFT.wav	1	23	blb_dichoticlistening_ka-pa.mp3	ka	pa	1	right
6.6.1	win	2023-07-11	21:16:39	21:32:10	925740	613fa6a4ac727e4d53fcaf38	2	1	main_z	24	advance_on_keypress_ZEE	12	stimuli_distractor_diamondtriangles.svg	stimuli_target_trianglesquares.svg	30	yes	57	0	1110	6	2	antiphase_hc_ios.wav	3	6	2	noise_calib_stim_LEFT.wav	1	23	blb_dichoticlistening_ka-pa.mp3	ka	pa	1	right
6.6.1	win	2023-07-11	21:16:39	21:32:12	928012	613fa6a4ac727e4d53fcaf38	2	1	main_z	24	main_z	13	stimuli_distractor_diamondtriangles.svg	stimuli_target_diamondrectangles.svg	31	yes	44	1	522	6	2	antiphase_hc_ios.wav	3	6	2	noise_calib_stim_LEFT.wav	1	23	blb_dichoticlistening_ka-pa.mp3	ka	pa	1	right
6.6.1	win	2023-07-11	21:16:39	21:32:12	928012	613fa6a4ac727e4d53fcaf38	2	1	main_z	24	advance_on_keypress_ZEE	14	stimuli_distractor_diamondtriangles.svg	stimuli_target_diamondrectangles.svg	31	yes	57	0	1538	6	2	antiphase_hc_ios.wav	3	6	2	noise_calib_stim_LEFT.wav	1	23	blb_dichoticlistening_ka-pa.mp3	ka	pa	1	right
6.6.1	win	2023-07-11	21:16:39	21:32:16	932190	613fa6a4ac727e4d53fcaf38	2	1	main_z	24	main_z	15	stimuli_distractor_trianglediamonds.svg	stimuli_distractor_trianglediamonds.svg	34	no	0	1	2000	6	2	antiphase_hc_ios.wav	3	6	2	noise_calib_stim_LEFT.wav	1	23	blb_dichoticlistening_ka-pa.mp3	ka	pa	1	right
6.6.1	win	2023-07-11	21:16:39	21:32:16	932190	613fa6a4ac727e4d53fcaf38	2	1	main_z	24	advance_on_keypress_ZEE	16	stimuli_distractor_trianglediamonds.svg	stimuli_distractor_trianglediamonds.svg	34	no	57	0	896	6	2	antiphase_hc_ios.wav	3	6	2	noise_calib_stim_LEFT.wav	1	23	blb_dichoticlistening_ka-pa.mp3	ka	pa	1	right
6.6.1	win	2023-07-11	21:16:39	21:32:18	934076	613fa6a4ac727e4d53fcaf38	2	1	main_z	24	main_z	17	stimuli_target_rectanglediamonds.svg	stimuli_distractor_diamondtriangles.svg	6	yes	44	1	335	6	2	antiphase_hc_ios.wav	3	6	2	noise_calib_stim_LEFT.wav	1	23	blb_dichoticlistening_ka-pa.mp3	ka	pa	1	right
6.6.1	win	2023-07-11	21:16:39	21:32:18	934076	613fa6a4ac727e4d53fcaf38	2	1	main_z	24	advance_on_keypress_ZEE	18	stimuli_target_rectanglediamonds.svg	stimuli_distractor_diamondtriangles.svg	6	yes	57	0	1198	6	2	antiphase_hc_ios.wav	3	6	2	noise_calib_stim_LEFT.wav	1	23	blb_dichoticlistening_ka-pa.mp3	ka	pa	1	right
6.6.1	win	2023-07-11	21:16:39	21:32:20	936368	613fa6a4ac727e4d53fcaf38	2	1	main_z	24	main_z	19	stimuli_target_squarediamonds.svg	stimuli_distractor_trianglediamonds.svg	4	yes	44	1	444	6	2	antiphase_hc_ios.wav	3	6	2	noise_calib_stim_LEFT.wav	1	23	blb_dichoticlistening_ka-pa.mp3	ka	pa	1	right
6.6.1	win	2023-07-11	21:16:39	21:32:20	936368	613fa6a4ac727e4d53fcaf38	2	1	main_z	24	advance_on_keypress_ZEE	20	stimuli_target_squarediamonds.svg	stimuli_distractor_trianglediamonds.svg	4	yes	57	0	1355	6	2	antiphase_hc_ios.wav	3	6	2	noise_calib_stim_LEFT.wav	1	23	blb_dichoticlistening_ka-pa.mp3	ka	pa	1	right
6.6.1	win	2023-07-11	21:16:39	21:32:23	938947	613fa6a4ac727e4d53fcaf38	2	1	main_z	24	main_z	21	stimuli_distractor_diamondtriangles.svg	stimuli_target_rectangletriangles.svg	13	yes	44	1	575	6	2	antiphase_hc_ios.wav	3	6	2	noise_calib_stim_LEFT.wav	1	23	blb_dichoticlistening_ka-pa.mp3	ka	pa	1	right
6.6.1	win	2023-07-11	21:16:39	21:32:23	938947	613fa6a4ac727e4d53fcaf38	2	1	main_z	24	advance_on_keypress_ZEE	22	stimuli_distractor_diamondtriangles.svg	stimuli_target_rectangletriangles.svg	13	yes	57	0	1315	6	2	antiphase_hc_ios.wav	3	6	2	noise_calib_stim_LEFT.wav	1	23	blb_dichoticlistening_ka-pa.mp3	ka	pa	1	right
6.6.1	win	2023-07-11	21:16:39	21:32:26	941652	613fa6a4ac727e4d53fcaf38	2	1	main_z	24	main_z	23	stimuli_target_trianglerectangles.svg	stimuli_distractor_trianglediamonds.svg	17	yes	44	1	747	6	2	antiphase_hc_ios.wav	3	6	2	noise_calib_stim_LEFT.wav	1	23	blb_dichoticlistening_ka-pa.mp3	ka	pa	1	right
6.6.1	win	2023-07-11	21:16:39	21:32:26	941652	613fa6a4ac727e4d53fcaf38	2	1	main_z	24	advance_on_keypress_ZEE	24	stimuli_target_trianglerectangles.svg	stimuli_distractor_trianglediamonds.svg	17	yes	57	0	2100	6	2	antiphase_hc_ios.wav	3	6	2	noise_calib_stim_LEFT.wav	1	23	blb_dichoticlistening_ka-pa.mp3	ka	pa	1	right
6.6.1	win	2023-07-11	21:16:39	21:32:29	944682	613fa6a4ac727e4d53fcaf38	2	1	main_z	24	main_z	25	stimuli_distractor_trianglediamonds.svg	stimuli_target_squarediamonds.svg	12	yes	44	1	275	6	2	antiphase_hc_ios.wav	3	6	2	noise_calib_stim_LEFT.wav	1	23	blb_dichoticlistening_ka-pa.mp3	ka	pa	1	right
6.6.1	win	2023-07-11	21:16:39	21:32:29	944682	613fa6a4ac727e4d53fcaf38	2	1	main_z	24	advance_on_keypress_ZEE	26	stimuli_distractor_trianglediamonds.svg	stimuli_target_squarediamonds.svg	12	yes	57	0	1567	6	2	antiphase_hc_ios.wav	3	6	2	noise_calib_stim_LEFT.wav	1	23	blb_dichoticlistening_ka-pa.mp3	ka	pa	1	right
6.6.1	win	2023-07-11	21:16:39	21:32:32	947855	613fa6a4ac727e4d53fcaf38	2	1	main_z	24	main_z	27	stimuli_distractor_diamondtriangles.svg	stimuli_target_diamondsquares.svg	32	yes	44	1	950	6	2	antiphase_hc_ios.wav	3	6	2	noise_calib_stim_LEFT.wav	1	23	blb_dichoticlistening_ka-pa.mp3	ka	pa	1	right
6.6.1	win	2023-07-11	21:16:39	21:32:32	947855	613fa6a4ac727e4d53fcaf38	2	1	main_z	24	advance_on_keypress_ZEE	28	stimuli_distractor_diamondtriangles.svg	stimuli_target_diamondsquares.svg	32	yes	57	0	1251	6	2	antiphase_hc_ios.wav	3	6	2	noise_calib_stim_LEFT.wav	1	23	blb_dichoticlistening_ka-pa.mp3	ka	pa	1	right
6.6.1	win	2023-07-11	21:16:39	21:32:34	950047	613fa6a4ac727e4d53fcaf38	2	1	main_z	24	main_z	29	stimuli_target_squarediamonds.svg	stimuli_distractor_diamondtriangles.svg	8	yes	44	1	293	6	2	antiphase_hc_ios.wav	3	6	2	noise_calib_stim_LEFT.wav	1	23	blb_dichoticlistening_ka-pa.mp3	ka	pa	1	right
6.6.1	win	2023-07-11	21:16:39	21:32:34	950047	613fa6a4ac727e4d53fcaf38	2	1	main_z	24	advance_on_keypress_ZEE	30	stimuli_target_squarediamonds.svg	stimuli_distractor_diamondtriangles.svg	8	yes	57	0	1490	6	2	antiphase_hc_ios.wav	3	6	2	noise_calib_stim_LEFT.wav	1	23	blb_dichoticlistening_ka-pa.mp3	ka	pa	1	right
6.6.1	win	2023-07-11	21:16:39	21:32:37	952564	613fa6a4ac727e4d53fcaf38	2	1	main_z	24	main_z	31	stimuli_distractor_trianglediamonds.svg	stimuli_target_rectanglediamonds.svg	10	yes	44	1	395	6	2	antiphase_hc_ios.wav	3	6	2	noise_calib_stim_LEFT.wav	1	23	blb_dichoticlistening_ka-pa.mp3	ka	pa	1	right
6.6.1	win	2023-07-11	21:16:39	21:32:37	952564	613fa6a4ac727e4d53fcaf38	2	1	main_z	24	advance_on_keypress_ZEE	32	stimuli_distractor_trianglediamonds.svg	stimuli_target_rectanglediamonds.svg	10	yes	57	0	1257	6	2	antiphase_hc_ios.wav	3	6	2	noise_calib_stim_LEFT.wav	1	23	blb_dichoticlistening_ka-pa.mp3	ka	pa	1	right
6.6.1	win	2023-07-11	21:16:39	21:32:39	954889	613fa6a4ac727e4d53fcaf38	2	1	main_z	24	main_z	33	stimuli_distractor_diamondtriangles.svg	stimuli_distractor_diamondtriangles.svg	40	no	44	0	418	6	2	antiphase_hc_ios.wav	3	6	2	noise_calib_stim_LEFT.wav	1	23	blb_dichoticlistening_ka-pa.mp3	ka	pa	1	right
6.6.1	win	2023-07-11	21:16:39	21:32:39	954889	613fa6a4ac727e4d53fcaf38	2	1	main_z	24	advance_on_keypress_ZEE	34	stimuli_distractor_diamondtriangles.svg	stimuli_distractor_diamondtriangles.svg	40	no	57	0	1238	6	2	antiphase_hc_ios.wav	3	6	2	noise_calib_stim_LEFT.wav	1	23	blb_dichoticlistening_ka-pa.mp3	ka	pa	1	right
6.6.1	win	2023-07-11	21:16:39	21:32:42	957697	613fa6a4ac727e4d53fcaf38	2	1	main_z	24	main_z	35	stimuli_target_trianglesquares.svg	stimuli_distractor_diamondtriangles.svg	22	yes	44	1	929	6	2	antiphase_hc_ios.wav	3	6	2	noise_calib_stim_LEFT.wav	1	23	blb_dichoticlistening_ka-pa.mp3	ka	pa	1	right
6.6.1	win	2023-07-11	21:16:39	21:32:42	957697	613fa6a4ac727e4d53fcaf38	2	1	main_z	24	advance_on_keypress_ZEE	36	stimuli_target_trianglesquares.svg	stimuli_distractor_diamondtriangles.svg	22	yes	57	0	1141	6	2	antiphase_hc_ios.wav	3	6	2	noise_calib_stim_LEFT.wav	1	23	blb_dichoticlistening_ka-pa.mp3	ka	pa	1	right
6.6.1	win	2023-07-11	21:16:39	21:32:45	961484	613fa6a4ac727e4d53fcaf38	2	1	main_z	24	main_z	37	stimuli_distractor_trianglediamonds.svg	stimuli_target_rectangletriangles.svg	9	yes	0	0	2000	6	2	antiphase_hc_ios.wav	3	6	2	noise_calib_stim_LEFT.wav	1	23	blb_dichoticlistening_ka-pa.mp3	ka	pa	1	right
6.6.1	win	2023-07-11	21:16:39	21:32:45	961484	613fa6a4ac727e4d53fcaf38	2	1	main_z	24	advance_on_keypress_ZEE	38	stimuli_distractor_trianglediamonds.svg	stimuli_target_rectangletriangles.svg	9	yes	57	0	885	6	2	antiphase_hc_ios.wav	3	6	2	noise_calib_stim_LEFT.wav	1	23	blb_dichoticlistening_ka-pa.mp3	ka	pa	1	right
6.6.1	win	2023-07-11	21:16:39	21:32:47	963370	613fa6a4ac727e4d53fcaf38	2	1	main_z	24	main_z	39	stimuli_distractor_trianglediamonds.svg	stimuli_distractor_diamondtriangles.svg	35	no	44	0	352	6	2	antiphase_hc_ios.wav	3	6	2	noise_calib_stim_LEFT.wav	1	23	blb_dichoticlistening_ka-pa.mp3	ka	pa	1	right
6.6.1	win	2023-07-11	21:16:39	21:32:47	963370	613fa6a4ac727e4d53fcaf38	2	1	main_z	24	advance_on_keypress_ZEE	40	stimuli_distractor_trianglediamonds.svg	stimuli_distractor_diamondtriangles.svg	35	no	57	0	2071	6	2	antiphase_hc_ios.wav	3	6	2	noise_calib_stim_LEFT.wav	1	23	blb_dichoticlistening_ka-pa.mp3	ka	pa	1	right
6.6.1	win	2023-07-11	21:16:39	21:32:51	966679	613fa6a4ac727e4d53fcaf38	2	1	main_z	24	main_z	41	stimuli_target_diamondsquares.svg	stimuli_distractor_trianglediamonds.svg	20	yes	44	1	595	6	2	antiphase_hc_ios.wav	3	6	2	noise_calib_stim_LEFT.wav	1	23	blb_dichoticlistening_ka-pa.mp3	ka	pa	1	right
6.6.1	win	2023-07-11	21:16:39	21:32:51	966679	613fa6a4ac727e4d53fcaf38	2	1	main_z	24	advance_on_keypress_ZEE	42	stimuli_target_diamondsquares.svg	stimuli_distractor_trianglediamonds.svg	20	yes	57	0	1377	6	2	antiphase_hc_ios.wav	3	6	2	noise_calib_stim_LEFT.wav	1	23	blb_dichoticlistening_ka-pa.mp3	ka	pa	1	right
6.6.1	win	2023-07-11	21:16:39	21:32:55	970699	613fa6a4ac727e4d53fcaf38	2	1	main_z	24	main_z	43	stimuli_distractor_diamondtriangles.svg	stimuli_distractor_diamondtriangles.svg	39	no	0	1	2000	6	2	antiphase_hc_ios.wav	3	6	2	noise_calib_stim_LEFT.wav	1	23	blb_dichoticlistening_ka-pa.mp3	ka	pa	1	right
6.6.1	win	2023-07-11	21:16:39	21:32:55	970699	613fa6a4ac727e4d53fcaf38	2	1	main_z	24	advance_on_keypress_ZEE	44	stimuli_distractor_diamondtriangles.svg	stimuli_distractor_diamondtriangles.svg	39	no	57	0	1065	6	2	antiphase_hc_ios.wav	3	6	2	noise_calib_stim_LEFT.wav	1	23	blb_dichoticlistening_ka-pa.mp3	ka	pa	1	right
6.6.1	win	2023-07-11	21:16:39	21:32:57	972639	613fa6a4ac727e4d53fcaf38	2	1	main_z	24	main_z	45	stimuli_distractor_trianglediamonds.svg	stimuli_target_diamondrectangles.svg	27	yes	44	1	223	6	2	antiphase_hc_ios.wav	3	6	2	noise_calib_stim_LEFT.wav	1	23	blb_dichoticlistening_ka-pa.mp3	ka	pa	1	right
6.6.1	win	2023-07-11	21:16:39	21:32:57	972639	613fa6a4ac727e4d53fcaf38	2	1	main_z	24	advance_on_keypress_ZEE	46	stimuli_distractor_trianglediamonds.svg	stimuli_target_diamondrectangles.svg	27	yes	57	0	1458	6	2	antiphase_hc_ios.wav	3	6	2	noise_calib_stim_LEFT.wav	1	23	blb_dichoticlistening_ka-pa.mp3	ka	pa	1	right
6.6.1	win	2023-07-11	21:16:39	21:32:59	975276	613fa6a4ac727e4d53fcaf38	2	1	main_z	24	main_z	47	stimuli_distractor_diamondtriangles.svg	stimuli_distractor_trianglediamonds.svg	37	no	44	0	545	6	2	antiphase_hc_ios.wav	3	6	2	noise_calib_stim_LEFT.wav	1	23	blb_dichoticlistening_ka-pa.mp3	ka	pa	1	right
6.6.1	win	2023-07-11	21:16:39	21:32:59	975276	613fa6a4ac727e4d53fcaf38	2	1	main_z	24	advance_on_keypress_ZEE	48	stimuli_distractor_diamondtriangles.svg	stimuli_distractor_trianglediamonds.svg	37	no	57	0	1706	6	2	antiphase_hc_ios.wav	3	6	2	noise_calib_stim_LEFT.wav	1	23	blb_dichoticlistening_ka-pa.mp3	ka	pa	1	right
6.6.1	win	2023-07-11	21:16:39	21:33:02	978226	613fa6a4ac727e4d53fcaf38	2	1	main_z	24	main_z	49	stimuli_distractor_diamondtriangles.svg	stimuli_target_trianglerectangles.svg	29	yes	44	1	595	6	2	antiphase_hc_ios.wav	3	6	2	noise_calib_stim_LEFT.wav	1	23	blb_dichoticlistening_ka-pa.mp3	ka	pa	1	right
6.6.1	win	2023-07-11	21:16:39	21:33:02	978226	613fa6a4ac727e4d53fcaf38	2	1	main_z	24	advance_on_keypress_ZEE	50	stimuli_distractor_diamondtriangles.svg	stimuli_target_trianglerectangles.svg	29	yes	57	0	1586	6	2	antiphase_hc_ios.wav	3	6	2	noise_calib_stim_LEFT.wav	1	23	blb_dichoticlistening_ka-pa.mp3	ka	pa	1	right
6.6.1	win	2023-07-11	21:16:39	21:33:05	980992	613fa6a4ac727e4d53fcaf38	2	1	main_z	24	main_z	51	stimuli_target_trianglesquares.svg	stimuli_distractor_trianglediamonds.svg	18	yes	44	1	529	6	2	antiphase_hc_ios.wav	3	6	2	noise_calib_stim_LEFT.wav	1	23	blb_dichoticlistening_ka-pa.mp3	ka	pa	1	right
6.6.1	win	2023-07-11	21:16:39	21:33:05	980992	613fa6a4ac727e4d53fcaf38	2	1	main_z	24	advance_on_keypress_ZEE	52	stimuli_target_trianglesquares.svg	stimuli_distractor_trianglediamonds.svg	18	yes	57	0	1854	6	2	antiphase_hc_ios.wav	3	6	2	noise_calib_stim_LEFT.wav	1	23	blb_dichoticlistening_ka-pa.mp3	ka	pa	1	right
6.6.1	win	2023-07-11	21:16:39	21:33:08	984045	613fa6a4ac727e4d53fcaf38	2	1	main_z	24	main_z	53	stimuli_distractor_trianglediamonds.svg	stimuli_target_trianglesquares.svg	26	yes	44	1	549	6	2	antiphase_hc_ios.wav	3	6	2	noise_calib_stim_LEFT.wav	1	23	blb_dichoticlistening_ka-pa.mp3	ka	pa	1	right
6.6.1	win	2023-07-11	21:16:39	21:33:08	984045	613fa6a4ac727e4d53fcaf38	2	1	main_z	24	advance_on_keypress_ZEE	54	stimuli_distractor_trianglediamonds.svg	stimuli_target_trianglesquares.svg	26	yes	57	0	1613	6	2	antiphase_hc_ios.wav	3	6	2	noise_calib_stim_LEFT.wav	1	23	blb_dichoticlistening_ka-pa.mp3	ka	pa	1	right
6.6.1	win	2023-07-11	21:16:39	21:33:11	986962	613fa6a4ac727e4d53fcaf38	2	1	main_z	24	main_z	55	stimuli_target_squaretriangles.svg	stimuli_distractor_diamondtriangles.svg	7	yes	44	1	649	6	2	antiphase_hc_ios.wav	3	6	2	noise_calib_stim_LEFT.wav	1	23	blb_dichoticlistening_ka-pa.mp3	ka	pa	1	right
6.6.1	win	2023-07-11	21:16:39	21:33:11	986962	613fa6a4ac727e4d53fcaf38	2	1	main_z	24	advance_on_keypress_ZEE	56	stimuli_target_squaretriangles.svg	stimuli_distractor_diamondtriangles.svg	7	yes	57	0	1357	6	2	antiphase_hc_ios.wav	3	6	2	noise_calib_stim_LEFT.wav	1	23	blb_dichoticlistening_ka-pa.mp3	ka	pa	1	right
6.6.1	win	2023-07-11	21:16:39	21:33:15	990961	613fa6a4ac727e4d53fcaf38	2	1	main_z	24	main_z	57	stimuli_distractor_trianglediamonds.svg	stimuli_distractor_trianglediamonds.svg	33	no	0	1	2000	6	2	antiphase_hc_ios.wav	3	6	2	noise_calib_stim_LEFT.wav	1	23	blb_dichoticlistening_ka-pa.mp3	ka	pa	1	right
6.6.1	win	2023-07-11	21:16:39	21:33:15	990961	613fa6a4ac727e4d53fcaf38	2	1	main_z	24	advance_on_keypress_ZEE	58	stimuli_distractor_trianglediamonds.svg	stimuli_distractor_trianglediamonds.svg	33	no	57	0	819	6	2	antiphase_hc_ios.wav	3	6	2	noise_calib_stim_LEFT.wav	1	23	blb_dichoticlistening_ka-pa.mp3	ka	pa	1	right
6.6.1	win	2023-07-11	21:16:39	21:33:17	993045	613fa6a4ac727e4d53fcaf38	2	1	main_z	24	main_z	59	stimuli_distractor_diamondtriangles.svg	stimuli_target_squaretriangles.svg	15	yes	44	1	617	6	2	antiphase_hc_ios.wav	3	6	2	noise_calib_stim_LEFT.wav	1	23	blb_dichoticlistening_ka-pa.mp3	ka	pa	1	right
6.6.1	win	2023-07-11	21:16:39	21:33:17	993045	613fa6a4ac727e4d53fcaf38	2	1	main_z	24	advance_on_keypress_ZEE	60	stimuli_distractor_diamondtriangles.svg	stimuli_target_squaretriangles.svg	15	yes	57	0	1385	6	2	antiphase_hc_ios.wav	3	6	2	noise_calib_stim_LEFT.wav	1	23	blb_dichoticlistening_ka-pa.mp3	ka	pa	1	right
6.6.1	win	2023-07-11	21:16:39	21:33:20	995829	613fa6a4ac727e4d53fcaf38	2	1	main_z	24	main_z	61	stimuli_target_rectangletriangles.svg	stimuli_distractor_trianglediamonds.svg	1	yes	44	1	753	6	2	antiphase_hc_ios.wav	3	6	2	noise_calib_stim_LEFT.wav	1	23	blb_dichoticlistening_ka-pa.mp3	ka	pa	1	right
6.6.1	win	2023-07-11	21:16:39	21:33:20	995829	613fa6a4ac727e4d53fcaf38	2	1	main_z	24	advance_on_keypress_ZEE	62	stimuli_target_rectangletriangles.svg	stimuli_distractor_trianglediamonds.svg	1	yes	57	0	1395	6	2	antiphase_hc_ios.wav	3	6	2	noise_calib_stim_LEFT.wav	1	23	blb_dichoticlistening_ka-pa.mp3	ka	pa	1	right
6.6.1	win	2023-07-11	21:16:39	21:33:22	998313	613fa6a4ac727e4d53fcaf38	2	1	main_z	24	main_z	63	stimuli_target_diamondrectangles.svg	stimuli_distractor_trianglediamonds.svg	19	yes	44	1	437	6	2	antiphase_hc_ios.wav	3	6	2	noise_calib_stim_LEFT.wav	1	23	blb_dichoticlistening_ka-pa.mp3	ka	pa	1	right
6.6.1	win	2023-07-11	21:16:39	21:33:22	998313	613fa6a4ac727e4d53fcaf38	2	1	main_z	24	advance_on_keypress_ZEE	64	stimuli_target_diamondrectangles.svg	stimuli_distractor_trianglediamonds.svg	19	yes	57	0	1157	6	2	antiphase_hc_ios.wav	3	6	2	noise_calib_stim_LEFT.wav	1	23	blb_dichoticlistening_ka-pa.mp3	ka	pa	1	right
6.6.1	win	2023-07-11	21:16:39	21:33:25	1000620	613fa6a4ac727e4d53fcaf38	2	1	main_z	24	main_z	65	stimuli_target_diamondsquares.svg	stimuli_distractor_diamondtriangles.svg	24	yes	44	1	509	6	2	antiphase_hc_ios.wav	3	6	2	noise_calib_stim_LEFT.wav	1	23	blb_dichoticlistening_ka-pa.mp3	ka	pa	1	right
6.6.1	win	2023-07-11	21:16:39	21:33:25	1000620	613fa6a4ac727e4d53fcaf38	2	1	main_z	24	advance_on_keypress_ZEE	66	stimuli_target_diamondsquares.svg	stimuli_distractor_diamondtriangles.svg	24	yes	57	0	1144	6	2	antiphase_hc_ios.wav	3	6	2	noise_calib_stim_LEFT.wav	1	23	blb_dichoticlistening_ka-pa.mp3	ka	pa	1	right
6.6.1	win	2023-07-11	21:16:39	21:33:27	1002964	613fa6a4ac727e4d53fcaf38	2	1	main_z	24	main_z	67	stimuli_target_rectanglediamonds.svg	stimuli_distractor_trianglediamonds.svg	2	yes	44	1	555	6	2	antiphase_hc_ios.wav	3	6	2	noise_calib_stim_LEFT.wav	1	23	blb_dichoticlistening_ka-pa.mp3	ka	pa	1	right
6.6.1	win	2023-07-11	21:16:39	21:33:27	1002964	613fa6a4ac727e4d53fcaf38	2	1	main_z	24	advance_on_keypress_ZEE	68	stimuli_target_rectanglediamonds.svg	stimuli_distractor_trianglediamonds.svg	2	yes	57	0	1325	6	2	antiphase_hc_ios.wav	3	6	2	noise_calib_stim_LEFT.wav	1	23	blb_dichoticlistening_ka-pa.mp3	ka	pa	1	right
6.6.1	win	2023-07-11	21:16:39	21:33:29	1005389	613fa6a4ac727e4d53fcaf38	2	1	main_z	24	main_z	69	stimuli_distractor_diamondtriangles.svg	stimuli_target_squarediamonds.svg	16	yes	44	1	447	6	2	antiphase_hc_ios.wav	3	6	2	noise_calib_stim_LEFT.wav	1	23	blb_dichoticlistening_ka-pa.mp3	ka	pa	1	right
6.6.1	win	2023-07-11	21:16:39	21:33:29	1005389	613fa6a4ac727e4d53fcaf38	2	1	main_z	24	advance_on_keypress_ZEE	70	stimuli_distractor_diamondtriangles.svg	stimuli_target_squarediamonds.svg	16	yes	57	0	1246	6	2	antiphase_hc_ios.wav	3	6	2	noise_calib_stim_LEFT.wav	1	23	blb_dichoticlistening_ka-pa.mp3	ka	pa	1	right
6.6.1	win	2023-07-11	21:16:39	21:33:32	1007692	613fa6a4ac727e4d53fcaf38	2	1	main_z	24	main_z	71	stimuli_distractor_diamondtriangles.svg	stimuli_distractor_trianglediamonds.svg	38	no	44	0	401	6	2	antiphase_hc_ios.wav	3	6	2	noise_calib_stim_LEFT.wav	1	23	blb_dichoticlistening_ka-pa.mp3	ka	pa	1	right
6.6.1	win	2023-07-11	21:16:39	21:33:32	1007692	613fa6a4ac727e4d53fcaf38	2	1	main_z	24	advance_on_keypress_ZEE	72	stimuli_distractor_diamondtriangles.svg	stimuli_distractor_trianglediamonds.svg	38	no	57	0	1551	6	2	antiphase_hc_ios.wav	3	6	2	noise_calib_stim_LEFT.wav	1	23	blb_dichoticlistening_ka-pa.mp3	ka	pa	1	right
6.6.1	win	2023-07-11	21:16:39	21:33:35	1010703	613fa6a4ac727e4d53fcaf38	2	1	main_z	24	main_z	73	stimuli_target_rectangletriangles.svg	stimuli_distractor_diamondtriangles.svg	5	yes	44	1	812	6	2	antiphase_hc_ios.wav	3	6	2	noise_calib_stim_LEFT.wav	1	23	blb_dichoticlistening_ka-pa.mp3	ka	pa	1	right
6.6.1	win	2023-07-11	21:16:39	21:33:35	1010703	613fa6a4ac727e4d53fcaf38	2	1	main_z	24	advance_on_keypress_ZEE	74	stimuli_target_rectangletriangles.svg	stimuli_distractor_diamondtriangles.svg	5	yes	57	0	1220	6	2	antiphase_hc_ios.wav	3	6	2	noise_calib_stim_LEFT.wav	1	23	blb_dichoticlistening_ka-pa.mp3	ka	pa	1	right
6.6.1	win	2023-07-11	21:16:39	21:33:37	1012957	613fa6a4ac727e4d53fcaf38	2	1	main_z	24	main_z	75	stimuli_distractor_trianglediamonds.svg	stimuli_target_diamondsquares.svg	28	yes	44	1	384	6	2	antiphase_hc_ios.wav	3	6	2	noise_calib_stim_LEFT.wav	1	23	blb_dichoticlistening_ka-pa.mp3	ka	pa	1	right
6.6.1	win	2023-07-11	21:16:39	21:33:37	1012957	613fa6a4ac727e4d53fcaf38	2	1	main_z	24	advance_on_keypress_ZEE	76	stimuli_distractor_trianglediamonds.svg	stimuli_target_diamondsquares.svg	28	yes	57	0	1246	6	2	antiphase_hc_ios.wav	3	6	2	noise_calib_stim_LEFT.wav	1	23	blb_dichoticlistening_ka-pa.mp3	ka	pa	1	right
6.6.1	win	2023-07-11	21:16:39	21:33:39	1015301	613fa6a4ac727e4d53fcaf38	2	1	main_z	24	main_z	77	stimuli_distractor_trianglediamonds.svg	stimuli_target_trianglerectangles.svg	25	yes	44	1	445	6	2	antiphase_hc_ios.wav	3	6	2	noise_calib_stim_LEFT.wav	1	23	blb_dichoticlistening_ka-pa.mp3	ka	pa	1	right
6.6.1	win	2023-07-11	21:16:39	21:33:39	1015301	613fa6a4ac727e4d53fcaf38	2	1	main_z	24	advance_on_keypress_ZEE	78	stimuli_distractor_trianglediamonds.svg	stimuli_target_trianglerectangles.svg	25	yes	57	0	1142	6	2	antiphase_hc_ios.wav	3	6	2	noise_calib_stim_LEFT.wav	1	23	blb_dichoticlistening_ka-pa.mp3	ka	pa	1	right
6.6.1	win	2023-07-11	21:16:39	21:33:43	1019089	613fa6a4ac727e4d53fcaf38	2	1	main_z	24	main_z	79	stimuli_distractor_trianglediamonds.svg	stimuli_distractor_diamondtriangles.svg	36	no	0	1	2000	6	2	antiphase_hc_ios.wav	3	6	2	noise_calib_stim_LEFT.wav	1	23	blb_dichoticlistening_ka-pa.mp3	ka	pa	1	right
6.6.1	win	2023-07-11	21:16:39	21:33:43	1019089	613fa6a4ac727e4d53fcaf38	2	1	main_z	24	advance_on_keypress_ZEE	80	stimuli_distractor_trianglediamonds.svg	stimuli_distractor_diamondtriangles.svg	36	no	57	0	717	6	2	antiphase_hc_ios.wav	3	6	2	noise_calib_stim_LEFT.wav	1	23	blb_dichoticlistening_ka-pa.mp3	ka	pa	1	right
6.6.1	win	2023-07-11	21:16:39	21:33:45	1020820	613fa6a4ac727e4d53fcaf38	2	1	main_z	24	main_z	81	stimuli_distractor_trianglediamonds.svg	stimuli_target_trianglesquares.svg	26	yes	44	1	365	6	2	antiphase_hc_ios.wav	3	6	2	noise_calib_stim_LEFT.wav	1	23	blb_dichoticlistening_ka-pa.mp3	ka	pa	1	right
6.6.1	win	2023-07-11	21:16:39	21:33:45	1020820	613fa6a4ac727e4d53fcaf38	2	1	main_z	24	advance_on_keypress_ZEE	82	stimuli_distractor_trianglediamonds.svg	stimuli_target_trianglesquares.svg	26	yes	57	0	1457	6	2	antiphase_hc_ios.wav	3	6	2	noise_calib_stim_LEFT.wav	1	23	blb_dichoticlistening_ka-pa.mp3	ka	pa	1	right
6.6.1	win	2023-07-11	21:16:39	21:33:47	1023315	613fa6a4ac727e4d53fcaf38	2	1	main_z	24	main_z	83	stimuli_distractor_trianglediamonds.svg	stimuli_target_rectanglediamonds.svg	10	yes	44	1	395	6	2	antiphase_hc_ios.wav	3	6	2	noise_calib_stim_LEFT.wav	1	23	blb_dichoticlistening_ka-pa.mp3	ka	pa	1	right
6.6.1	win	2023-07-11	21:16:39	21:33:47	1023315	613fa6a4ac727e4d53fcaf38	2	1	main_z	24	advance_on_keypress_ZEE	84	stimuli_distractor_trianglediamonds.svg	stimuli_target_rectanglediamonds.svg	10	yes	57	0	1424	6	2	antiphase_hc_ios.wav	3	6	2	noise_calib_stim_LEFT.wav	1	23	blb_dichoticlistening_ka-pa.mp3	ka	pa	1	right
6.6.1	win	2023-07-11	21:16:39	21:33:51	1027370	613fa6a4ac727e4d53fcaf38	2	1	main_z	24	main_z	85	stimuli_distractor_trianglediamonds.svg	stimuli_distractor_diamondtriangles.svg	36	no	0	1	2000	6	2	antiphase_hc_ios.wav	3	6	2	noise_calib_stim_LEFT.wav	1	23	blb_dichoticlistening_ka-pa.mp3	ka	pa	1	right
6.6.1	win	2023-07-11	21:16:39	21:33:51	1027370	613fa6a4ac727e4d53fcaf38	2	1	main_z	24	advance_on_keypress_ZEE	86	stimuli_distractor_trianglediamonds.svg	stimuli_distractor_diamondtriangles.svg	36	no	57	0	840	6	2	antiphase_hc_ios.wav	3	6	2	noise_calib_stim_LEFT.wav	1	23	blb_dichoticlistening_ka-pa.mp3	ka	pa	1	right
6.6.1	win	2023-07-11	21:16:39	21:33:53	1029454	613fa6a4ac727e4d53fcaf38	2	1	main_z	24	main_z	87	stimuli_distractor_diamondtriangles.svg	stimuli_target_trianglesquares.svg	30	yes	44	1	601	6	2	antiphase_hc_ios.wav	3	6	2	noise_calib_stim_LEFT.wav	1	23	blb_dichoticlistening_ka-pa.mp3	ka	pa	1	right
6.6.1	win	2023-07-11	21:16:39	21:33:53	1029454	613fa6a4ac727e4d53fcaf38	2	1	main_z	24	advance_on_keypress_ZEE	88	stimuli_distractor_diamondtriangles.svg	stimuli_target_trianglesquares.svg	30	yes	57	0	1223	6	2	antiphase_hc_ios.wav	3	6	2	noise_calib_stim_LEFT.wav	1	23	blb_dichoticlistening_ka-pa.mp3	ka	pa	1	right
6.6.1	win	2023-07-11	21:16:39	21:33:56	1031816	613fa6a4ac727e4d53fcaf38	2	1	main_z	24	main_z	89	stimuli_distractor_trianglediamonds.svg	stimuli_target_squarediamonds.svg	12	yes	44	1	495	6	2	antiphase_hc_ios.wav	3	6	2	noise_calib_stim_LEFT.wav	1	23	blb_dichoticlistening_ka-pa.mp3	ka	pa	1	right
6.6.1	win	2023-07-11	21:16:39	21:33:56	1031816	613fa6a4ac727e4d53fcaf38	2	1	main_z	24	advance_on_keypress_ZEE	90	stimuli_distractor_trianglediamonds.svg	stimuli_target_squarediamonds.svg	12	yes	57	0	1027	6	2	antiphase_hc_ios.wav	3	6	2	noise_calib_stim_LEFT.wav	1	23	blb_dichoticlistening_ka-pa.mp3	ka	pa	1	right
6.6.1	win	2023-07-11	21:16:39	21:33:59	1035485	613fa6a4ac727e4d53fcaf38	2	1	main_z	24	main_z	91	stimuli_distractor_diamondtriangles.svg	stimuli_target_trianglerectangles.svg	29	yes	0	0	2000	6	2	antiphase_hc_ios.wav	3	6	2	noise_calib_stim_LEFT.wav	1	23	blb_dichoticlistening_ka-pa.mp3	ka	pa	1	right
6.6.1	win	2023-07-11	21:16:39	21:33:59	1035485	613fa6a4ac727e4d53fcaf38	2	1	main_z	24	advance_on_keypress_ZEE	92	stimuli_distractor_diamondtriangles.svg	stimuli_target_trianglerectangles.svg	29	yes	57	0	869	6	2	antiphase_hc_ios.wav	3	6	2	noise_calib_stim_LEFT.wav	1	23	blb_dichoticlistening_ka-pa.mp3	ka	pa	1	right
6.6.1	win	2023-07-11	21:16:39	21:34:01	1037347	613fa6a4ac727e4d53fcaf38	2	1	main_z	24	main_z	93	stimuli_distractor_trianglediamonds.svg	stimuli_target_rectangletriangles.svg	9	yes	44	1	346	6	2	antiphase_hc_ios.wav	3	6	2	noise_calib_stim_LEFT.wav	1	23	blb_dichoticlistening_ka-pa.mp3	ka	pa	1	right
6.6.1	win	2023-07-11	21:16:39	21:34:01	1037347	613fa6a4ac727e4d53fcaf38	2	1	main_z	24	advance_on_keypress_ZEE	94	stimuli_distractor_trianglediamonds.svg	stimuli_target_rectangletriangles.svg	9	yes	57	0	1265	6	2	antiphase_hc_ios.wav	3	6	2	noise_calib_stim_LEFT.wav	1	23	blb_dichoticlistening_ka-pa.mp3	ka	pa	1	right
6.6.1	win	2023-07-11	21:16:39	21:34:04	1039737	613fa6a4ac727e4d53fcaf38	2	1	main_z	24	main_z	95	stimuli_distractor_diamondtriangles.svg	stimuli_target_diamondsquares.svg	32	yes	44	1	469	6	2	antiphase_hc_ios.wav	3	6	2	noise_calib_stim_LEFT.wav	1	23	blb_dichoticlistening_ka-pa.mp3	ka	pa	1	right
6.6.1	win	2023-07-11	21:16:39	21:34:04	1039737	613fa6a4ac727e4d53fcaf38	2	1	main_z	24	advance_on_keypress_ZEE	96	stimuli_distractor_diamondtriangles.svg	stimuli_target_diamondsquares.svg	32	yes	57	0	1114	6	2	antiphase_hc_ios.wav	3	6	2	noise_calib_stim_LEFT.wav	1	23	blb_dichoticlistening_ka-pa.mp3	ka	pa	1	right
6.6.1	win	2023-07-11	21:16:39	21:34:06	1042038	613fa6a4ac727e4d53fcaf38	2	1	main_z	24	main_z	97	stimuli_target_rectangletriangles.svg	stimuli_distractor_diamondtriangles.svg	5	yes	44	1	538	6	2	antiphase_hc_ios.wav	3	6	2	noise_calib_stim_LEFT.wav	1	23	blb_dichoticlistening_ka-pa.mp3	ka	pa	1	right
6.6.1	win	2023-07-11	21:16:39	21:34:06	1042038	613fa6a4ac727e4d53fcaf38	2	1	main_z	24	advance_on_keypress_ZEE	98	stimuli_target_rectangletriangles.svg	stimuli_distractor_diamondtriangles.svg	5	yes	57	0	1259	6	2	antiphase_hc_ios.wav	3	6	2	noise_calib_stim_LEFT.wav	1	23	blb_dichoticlistening_ka-pa.mp3	ka	pa	1	right
6.6.1	win	2023-07-11	21:16:39	21:34:08	1044495	613fa6a4ac727e4d53fcaf38	2	1	main_z	24	main_z	99	stimuli_distractor_diamondtriangles.svg	stimuli_target_diamondrectangles.svg	31	yes	44	1	562	6	2	antiphase_hc_ios.wav	3	6	2	noise_calib_stim_LEFT.wav	1	23	blb_dichoticlistening_ka-pa.mp3	ka	pa	1	right
6.6.1	win	2023-07-11	21:16:39	21:34:08	1044495	613fa6a4ac727e4d53fcaf38	2	1	main_z	24	advance_on_keypress_ZEE	100	stimuli_distractor_diamondtriangles.svg	stimuli_target_diamondrectangles.svg	31	yes	57	0	1132	6	2	antiphase_hc_ios.wav	3	6	2	noise_calib_stim_LEFT.wav	1	23	blb_dichoticlistening_ka-pa.mp3	ka	pa	1	right
6.6.1	win	2023-07-11	21:16:39	21:34:11	1046703	613fa6a4ac727e4d53fcaf38	2	1	main_z	24	main_z	101	stimuli_target_diamondsquares.svg	stimuli_distractor_trianglediamonds.svg	20	yes	44	1	421	6	2	antiphase_hc_ios.wav	3	6	2	noise_calib_stim_LEFT.wav	1	23	blb_dichoticlistening_ka-pa.mp3	ka	pa	1	right
6.6.1	win	2023-07-11	21:16:39	21:34:11	1046703	613fa6a4ac727e4d53fcaf38	2	1	main_z	24	advance_on_keypress_ZEE	102	stimuli_target_diamondsquares.svg	stimuli_distractor_trianglediamonds.svg	20	yes	57	0	1174	6	2	antiphase_hc_ios.wav	3	6	2	noise_calib_stim_LEFT.wav	1	23	blb_dichoticlistening_ka-pa.mp3	ka	pa	1	right
6.6.1	win	2023-07-11	21:16:39	21:34:13	1049152	613fa6a4ac727e4d53fcaf38	2	1	main_z	24	main_z	103	stimuli_target_squaretriangles.svg	stimuli_distractor_trianglediamonds.svg	3	yes	44	1	637	6	2	antiphase_hc_ios.wav	3	6	2	noise_calib_stim_LEFT.wav	1	23	blb_dichoticlistening_ka-pa.mp3	ka	pa	1	right
6.6.1	win	2023-07-11	21:16:39	21:34:13	1049152	613fa6a4ac727e4d53fcaf38	2	1	main_z	24	advance_on_keypress_ZEE	104	stimuli_target_squaretriangles.svg	stimuli_distractor_trianglediamonds.svg	3	yes	57	0	1204	6	2	antiphase_hc_ios.wav	3	6	2	noise_calib_stim_LEFT.wav	1	23	blb_dichoticlistening_ka-pa.mp3	ka	pa	1	right
6.6.1	win	2023-07-11	21:16:39	21:34:17	1052998	613fa6a4ac727e4d53fcaf38	2	1	main_z	24	main_z	105	stimuli_distractor_trianglediamonds.svg	stimuli_distractor_trianglediamonds.svg	33	no	0	1	2000	6	2	antiphase_hc_ios.wav	3	6	2	noise_calib_stim_LEFT.wav	1	23	blb_dichoticlistening_ka-pa.mp3	ka	pa	1	right
6.6.1	win	2023-07-11	21:16:39	21:34:17	1052998	613fa6a4ac727e4d53fcaf38	2	1	main_z	24	advance_on_keypress_ZEE	106	stimuli_distractor_trianglediamonds.svg	stimuli_distractor_trianglediamonds.svg	33	no	57	0	987	6	2	antiphase_hc_ios.wav	3	6	2	noise_calib_stim_LEFT.wav	1	23	blb_dichoticlistening_ka-pa.mp3	ka	pa	1	right
6.6.1	win	2023-07-11	21:16:39	21:34:19	1055063	613fa6a4ac727e4d53fcaf38	2	1	main_z	24	main_z	107	stimuli_distractor_trianglediamonds.svg	stimuli_distractor_diamondtriangles.svg	35	no	44	0	432	6	2	antiphase_hc_ios.wav	3	6	2	noise_calib_stim_LEFT.wav	1	23	blb_dichoticlistening_ka-pa.mp3	ka	pa	1	right
6.6.1	win	2023-07-11	21:16:39	21:34:19	1055063	613fa6a4ac727e4d53fcaf38	2	1	main_z	24	advance_on_keypress_ZEE	108	stimuli_distractor_trianglediamonds.svg	stimuli_distractor_diamondtriangles.svg	35	no	57	0	1375	6	2	antiphase_hc_ios.wav	3	6	2	noise_calib_stim_LEFT.wav	1	23	blb_dichoticlistening_ka-pa.mp3	ka	pa	1	right
6.6.1	win	2023-07-11	21:16:39	21:34:21	1057513	613fa6a4ac727e4d53fcaf38	2	1	main_z	24	main_z	109	stimuli_target_trianglesquares.svg	stimuli_distractor_trianglediamonds.svg	18	yes	44	1	432	6	2	antiphase_hc_ios.wav	3	6	2	noise_calib_stim_LEFT.wav	1	23	blb_dichoticlistening_ka-pa.mp3	ka	pa	1	right
6.6.1	win	2023-07-11	21:16:39	21:34:21	1057513	613fa6a4ac727e4d53fcaf38	2	1	main_z	24	advance_on_keypress_ZEE	110	stimuli_target_trianglesquares.svg	stimuli_distractor_trianglediamonds.svg	18	yes	57	0	1341	6	2	antiphase_hc_ios.wav	3	6	2	noise_calib_stim_LEFT.wav	1	23	blb_dichoticlistening_ka-pa.mp3	ka	pa	1	right
6.6.1	win	2023-07-11	21:16:39	21:34:24	1060113	613fa6a4ac727e4d53fcaf38	2	1	main_z	24	main_z	111	stimuli_target_squaretriangles.svg	stimuli_distractor_diamondtriangles.svg	7	yes	44	1	616	6	2	antiphase_hc_ios.wav	3	6	2	noise_calib_stim_LEFT.wav	1	23	blb_dichoticlistening_ka-pa.mp3	ka	pa	1	right
6.6.1	win	2023-07-11	21:16:39	21:34:24	1060113	613fa6a4ac727e4d53fcaf38	2	1	main_z	24	advance_on_keypress_ZEE	112	stimuli_target_squaretriangles.svg	stimuli_distractor_diamondtriangles.svg	7	yes	57	0	1276	6	2	antiphase_hc_ios.wav	3	6	2	noise_calib_stim_LEFT.wav	1	23	blb_dichoticlistening_ka-pa.mp3	ka	pa	1	right
6.6.1	win	2023-07-11	21:16:39	21:34:27	1062538	613fa6a4ac727e4d53fcaf38	2	1	main_z	24	main_z	113	stimuli_distractor_trianglediamonds.svg	stimuli_target_trianglerectangles.svg	25	yes	44	1	507	6	2	antiphase_hc_ios.wav	3	6	2	noise_calib_stim_LEFT.wav	1	23	blb_dichoticlistening_ka-pa.mp3	ka	pa	1	right
6.6.1	win	2023-07-11	21:16:39	21:34:27	1062538	613fa6a4ac727e4d53fcaf38	2	1	main_z	24	advance_on_keypress_ZEE	114	stimuli_distractor_trianglediamonds.svg	stimuli_target_trianglerectangles.svg	25	yes	57	0	1231	6	2	antiphase_hc_ios.wav	3	6	2	noise_calib_stim_LEFT.wav	1	23	blb_dichoticlistening_ka-pa.mp3	ka	pa	1	right
6.6.1	win	2023-07-11	21:16:39	21:34:30	1065631	613fa6a4ac727e4d53fcaf38	2	1	main_z	24	main_z	115	stimuli_target_trianglerectangles.svg	stimuli_distractor_trianglediamonds.svg	17	yes	44	1	1219	6	2	antiphase_hc_ios.wav	3	6	2	noise_calib_stim_LEFT.wav	1	23	blb_dichoticlistening_ka-pa.mp3	ka	pa	1	right
6.6.1	win	2023-07-11	21:16:39	21:34:30	1065631	613fa6a4ac727e4d53fcaf38	2	1	main_z	24	advance_on_keypress_ZEE	116	stimuli_target_trianglerectangles.svg	stimuli_distractor_trianglediamonds.svg	17	yes	57	0	1205	6	2	antiphase_hc_ios.wav	3	6	2	noise_calib_stim_LEFT.wav	1	23	blb_dichoticlistening_ka-pa.mp3	ka	pa	1	right
6.6.1	win	2023-07-11	21:16:39	21:34:32	1068080	613fa6a4ac727e4d53fcaf38	2	1	main_z	24	main_z	117	stimuli_target_rectangletriangles.svg	stimuli_distractor_trianglediamonds.svg	1	yes	44	1	601	6	2	antiphase_hc_ios.wav	3	6	2	noise_calib_stim_LEFT.wav	1	23	blb_dichoticlistening_ka-pa.mp3	ka	pa	1	right
6.6.1	win	2023-07-11	21:16:39	21:34:32	1068080	613fa6a4ac727e4d53fcaf38	2	1	main_z	24	advance_on_keypress_ZEE	118	stimuli_target_rectangletriangles.svg	stimuli_distractor_trianglediamonds.svg	1	yes	57	0	1270	6	2	antiphase_hc_ios.wav	3	6	2	noise_calib_stim_LEFT.wav	1	23	blb_dichoticlistening_ka-pa.mp3	ka	pa	1	right
6.6.1	win	2023-07-11	21:16:39	21:34:34	1070431	613fa6a4ac727e4d53fcaf38	2	1	main_z	24	main_z	119	stimuli_target_diamondrectangles.svg	stimuli_distractor_trianglediamonds.svg	19	yes	44	1	437	6	2	antiphase_hc_ios.wav	3	6	2	noise_calib_stim_LEFT.wav	1	23	blb_dichoticlistening_ka-pa.mp3	ka	pa	1	right
6.6.1	win	2023-07-11	21:16:39	21:34:34	1070431	613fa6a4ac727e4d53fcaf38	2	1	main_z	24	advance_on_keypress_ZEE	120	stimuli_target_diamondrectangles.svg	stimuli_distractor_trianglediamonds.svg	19	yes	57	0	1374	6	2	antiphase_hc_ios.wav	3	6	2	noise_calib_stim_LEFT.wav	1	23	blb_dichoticlistening_ka-pa.mp3	ka	pa	1	right
6.6.1	win	2023-07-11	21:16:39	21:34:37	1072718	613fa6a4ac727e4d53fcaf38	2	1	main_z	24	main_z	121	stimuli_distractor_diamondtriangles.svg	stimuli_distractor_diamondtriangles.svg	40	no	44	0	275	6	2	antiphase_hc_ios.wav	3	6	2	noise_calib_stim_LEFT.wav	1	23	blb_dichoticlistening_ka-pa.mp3	ka	pa	1	right
6.6.1	win	2023-07-11	21:16:39	21:34:37	1072718	613fa6a4ac727e4d53fcaf38	2	1	main_z	24	advance_on_keypress_ZEE	122	stimuli_distractor_diamondtriangles.svg	stimuli_distractor_diamondtriangles.svg	40	no	57	0	1063	6	2	antiphase_hc_ios.wav	3	6	2	noise_calib_stim_LEFT.wav	1	23	blb_dichoticlistening_ka-pa.mp3	ka	pa	1	right
6.6.1	win	2023-07-11	21:16:39	21:34:39	1074998	613fa6a4ac727e4d53fcaf38	2	1	main_z	24	main_z	123	stimuli_target_trianglesquares.svg	stimuli_distractor_diamondtriangles.svg	22	yes	44	1	571	6	2	antiphase_hc_ios.wav	3	6	2	noise_calib_stim_LEFT.wav	1	23	blb_dichoticlistening_ka-pa.mp3	ka	pa	1	right
6.6.1	win	2023-07-11	21:16:39	21:34:39	1074998	613fa6a4ac727e4d53fcaf38	2	1	main_z	24	advance_on_keypress_ZEE	124	stimuli_target_trianglesquares.svg	stimuli_distractor_diamondtriangles.svg	22	yes	57	0	1259	6	2	antiphase_hc_ios.wav	3	6	2	noise_calib_stim_LEFT.wav	1	23	blb_dichoticlistening_ka-pa.mp3	ka	pa	1	right
6.6.1	win	2023-07-11	21:16:39	21:34:43	1078893	613fa6a4ac727e4d53fcaf38	2	1	main_z	24	main_z	125	stimuli_distractor_diamondtriangles.svg	stimuli_distractor_diamondtriangles.svg	39	no	0	1	2000	6	2	antiphase_hc_ios.wav	3	6	2	noise_calib_stim_LEFT.wav	1	23	blb_dichoticlistening_ka-pa.mp3	ka	pa	1	right
6.6.1	win	2023-07-11	21:16:39	21:34:43	1078893	613fa6a4ac727e4d53fcaf38	2	1	main_z	24	advance_on_keypress_ZEE	126	stimuli_distractor_diamondtriangles.svg	stimuli_distractor_diamondtriangles.svg	39	no	57	0	1196	6	2	antiphase_hc_ios.wav	3	6	2	noise_calib_stim_LEFT.wav	1	23	blb_dichoticlistening_ka-pa.mp3	ka	pa	1	right
6.6.1	win	2023-07-11	21:16:39	21:34:45	1081102	613fa6a4ac727e4d53fcaf38	2	1	main_z	24	main_z	127	stimuli_distractor_diamondtriangles.svg	stimuli_distractor_trianglediamonds.svg	37	no	44	0	359	6	2	antiphase_hc_ios.wav	3	6	2	noise_calib_stim_LEFT.wav	1	23	blb_dichoticlistening_ka-pa.mp3	ka	pa	1	right
6.6.1	win	2023-07-11	21:16:39	21:34:45	1081102	613fa6a4ac727e4d53fcaf38	2	1	main_z	24	advance_on_keypress_ZEE	128	stimuli_distractor_diamondtriangles.svg	stimuli_distractor_trianglediamonds.svg	37	no	57	0	1276	6	2	antiphase_hc_ios.wav	3	6	2	noise_calib_stim_LEFT.wav	1	23	blb_dichoticlistening_ka-pa.mp3	ka	pa	1	right
6.6.1	win	2023-07-11	21:16:39	21:34:49	1085009	613fa6a4ac727e4d53fcaf38	2	1	main_z	24	main_z	129	stimuli_distractor_trianglediamonds.svg	stimuli_distractor_trianglediamonds.svg	34	no	0	1	2000	6	2	antiphase_hc_ios.wav	3	6	2	noise_calib_stim_LEFT.wav	1	23	blb_dichoticlistening_ka-pa.mp3	ka	pa	1	right
6.6.1	win	2023-07-11	21:16:39	21:34:49	1085009	613fa6a4ac727e4d53fcaf38	2	1	main_z	24	advance_on_keypress_ZEE	130	stimuli_distractor_trianglediamonds.svg	stimuli_distractor_trianglediamonds.svg	34	no	57	0	728	6	2	antiphase_hc_ios.wav	3	6	2	noise_calib_stim_LEFT.wav	1	23	blb_dichoticlistening_ka-pa.mp3	ka	pa	1	right
6.6.1	win	2023-07-11	21:16:39	21:34:51	1086677	613fa6a4ac727e4d53fcaf38	2	1	main_z	24	main_z	131	stimuli_target_rectanglediamonds.svg	stimuli_distractor_trianglediamonds.svg	2	yes	44	1	286	6	2	antiphase_hc_ios.wav	3	6	2	noise_calib_stim_LEFT.wav	1	23	blb_dichoticlistening_ka-pa.mp3	ka	pa	1	right
6.6.1	win	2023-07-11	21:16:39	21:34:51	1086677	613fa6a4ac727e4d53fcaf38	2	1	main_z	24	advance_on_keypress_ZEE	132	stimuli_target_rectanglediamonds.svg	stimuli_distractor_trianglediamonds.svg	2	yes	57	0	1478	6	2	antiphase_hc_ios.wav	3	6	2	noise_calib_stim_LEFT.wav	1	23	blb_dichoticlistening_ka-pa.mp3	ka	pa	1	right
6.6.1	win	2023-07-11	21:16:39	21:34:53	1089430	613fa6a4ac727e4d53fcaf38	2	1	main_z	24	main_z	133	stimuli_target_squarediamonds.svg	stimuli_distractor_diamondtriangles.svg	8	yes	44	1	623	6	2	antiphase_hc_ios.wav	3	6	2	noise_calib_stim_LEFT.wav	1	23	blb_dichoticlistening_ka-pa.mp3	ka	pa	1	right
6.6.1	win	2023-07-11	21:16:39	21:34:53	1089430	613fa6a4ac727e4d53fcaf38	2	1	main_z	24	advance_on_keypress_ZEE	134	stimuli_target_squarediamonds.svg	stimuli_distractor_diamondtriangles.svg	8	yes	57	0	1133	6	2	antiphase_hc_ios.wav	3	6	2	noise_calib_stim_LEFT.wav	1	23	blb_dichoticlistening_ka-pa.mp3	ka	pa	1	right
6.6.1	win	2023-07-11	21:16:39	21:34:56	1091731	613fa6a4ac727e4d53fcaf38	2	1	main_z	24	main_z	135	stimuli_distractor_diamondtriangles.svg	stimuli_distractor_trianglediamonds.svg	38	no	44	0	525	6	2	antiphase_hc_ios.wav	3	6	2	noise_calib_stim_LEFT.wav	1	23	blb_dichoticlistening_ka-pa.mp3	ka	pa	1	right
6.6.1	win	2023-07-11	21:16:39	21:34:56	1091731	613fa6a4ac727e4d53fcaf38	2	1	main_z	24	advance_on_keypress_ZEE	136	stimuli_distractor_diamondtriangles.svg	stimuli_distractor_trianglediamonds.svg	38	no	57	0	1309	6	2	antiphase_hc_ios.wav	3	6	2	noise_calib_stim_LEFT.wav	1	23	blb_dichoticlistening_ka-pa.mp3	ka	pa	1	right
6.6.1	win	2023-07-11	21:16:39	21:34:58	1094335	613fa6a4ac727e4d53fcaf38	2	1	main_z	24	main_z	137	stimuli_distractor_trianglediamonds.svg	stimuli_target_diamondsquares.svg	28	yes	44	1	663	6	2	antiphase_hc_ios.wav	3	6	2	noise_calib_stim_LEFT.wav	1	23	blb_dichoticlistening_ka-pa.mp3	ka	pa	1	right
6.6.1	win	2023-07-11	21:16:39	21:34:58	1094335	613fa6a4ac727e4d53fcaf38	2	1	main_z	24	advance_on_keypress_ZEE	138	stimuli_distractor_trianglediamonds.svg	stimuli_target_diamondsquares.svg	28	yes	57	0	967	6	2	antiphase_hc_ios.wav	3	6	2	noise_calib_stim_LEFT.wav	1	23	blb_dichoticlistening_ka-pa.mp3	ka	pa	1	right
6.6.1	win	2023-07-11	21:16:39	21:35:00	1096384	613fa6a4ac727e4d53fcaf38	2	1	main_z	24	main_z	139	stimuli_target_diamondrectangles.svg	stimuli_distractor_diamondtriangles.svg	23	yes	44	1	427	6	2	antiphase_hc_ios.wav	3	6	2	noise_calib_stim_LEFT.wav	1	23	blb_dichoticlistening_ka-pa.mp3	ka	pa	1	right
6.6.1	win	2023-07-11	21:16:39	21:35:00	1096384	613fa6a4ac727e4d53fcaf38	2	1	main_z	24	advance_on_keypress_ZEE	140	stimuli_target_diamondrectangles.svg	stimuli_distractor_diamondtriangles.svg	23	yes	57	0	1119	6	2	antiphase_hc_ios.wav	3	6	2	noise_calib_stim_LEFT.wav	1	23	blb_dichoticlistening_ka-pa.mp3	ka	pa	1	right
6.6.1	win	2023-07-11	21:16:39	21:35:03	1098636	613fa6a4ac727e4d53fcaf38	2	1	main_z	24	main_z	141	stimuli_distractor_trianglediamonds.svg	stimuli_target_diamondrectangles.svg	27	yes	44	1	480	6	2	antiphase_hc_ios.wav	3	6	2	noise_calib_stim_LEFT.wav	1	23	blb_dichoticlistening_ka-pa.mp3	ka	pa	1	right
6.6.1	win	2023-07-11	21:16:39	21:35:03	1098636	613fa6a4ac727e4d53fcaf38	2	1	main_z	24	advance_on_keypress_ZEE	142	stimuli_distractor_trianglediamonds.svg	stimuli_target_diamondrectangles.svg	27	yes	57	0	1179	6	2	antiphase_hc_ios.wav	3	6	2	noise_calib_stim_LEFT.wav	1	23	blb_dichoticlistening_ka-pa.mp3	ka	pa	1	right
6.6.1	win	2023-07-11	21:16:39	21:35:05	1100920	613fa6a4ac727e4d53fcaf38	2	1	main_z	24	main_z	143	stimuli_target_squarediamonds.svg	stimuli_distractor_trianglediamonds.svg	4	yes	44	1	449	6	2	antiphase_hc_ios.wav	3	6	2	noise_calib_stim_LEFT.wav	1	23	blb_dichoticlistening_ka-pa.mp3	ka	pa	1	right
6.6.1	win	2023-07-11	21:16:39	21:35:05	1100920	613fa6a4ac727e4d53fcaf38	2	1	main_z	24	advance_on_keypress_ZEE	144	stimuli_target_squarediamonds.svg	stimuli_distractor_trianglediamonds.svg	4	yes	57	0	1208	6	2	antiphase_hc_ios.wav	3	6	2	noise_calib_stim_LEFT.wav	1	23	blb_dichoticlistening_ka-pa.mp3	ka	pa	1	right
6.6.1	win	2023-07-11	21:16:39	21:35:07	1103145	613fa6a4ac727e4d53fcaf38	2	1	main_z	24	main_z	145	stimuli_distractor_diamondtriangles.svg	stimuli_target_squaretriangles.svg	15	yes	44	1	371	6	2	antiphase_hc_ios.wav	3	6	2	noise_calib_stim_LEFT.wav	1	23	blb_dichoticlistening_ka-pa.mp3	ka	pa	1	right
6.6.1	win	2023-07-11	21:16:39	21:35:07	1103145	613fa6a4ac727e4d53fcaf38	2	1	main_z	24	advance_on_keypress_ZEE	146	stimuli_distractor_diamondtriangles.svg	stimuli_target_squaretriangles.svg	15	yes	57	0	976	6	2	antiphase_hc_ios.wav	3	6	2	noise_calib_stim_LEFT.wav	1	23	blb_dichoticlistening_ka-pa.mp3	ka	pa	1	right
6.6.1	win	2023-07-11	21:16:39	21:35:09	1105209	613fa6a4ac727e4d53fcaf38	2	1	main_z	24	main_z	147	stimuli_distractor_trianglediamonds.svg	stimuli_target_squaretriangles.svg	11	yes	44	1	454	6	2	antiphase_hc_ios.wav	3	6	2	noise_calib_stim_LEFT.wav	1	23	blb_dichoticlistening_ka-pa.mp3	ka	pa	1	right
6.6.1	win	2023-07-11	21:16:39	21:35:09	1105209	613fa6a4ac727e4d53fcaf38	2	1	main_z	24	advance_on_keypress_ZEE	148	stimuli_distractor_trianglediamonds.svg	stimuli_target_squaretriangles.svg	11	yes	57	0	933	6	2	antiphase_hc_ios.wav	3	6	2	noise_calib_stim_LEFT.wav	1	23	blb_dichoticlistening_ka-pa.mp3	ka	pa	1	right
6.6.1	win	2023-07-11	21:16:39	21:35:11	1107106	613fa6a4ac727e4d53fcaf38	2	1	main_z	24	main_z	149	stimuli_target_diamondsquares.svg	stimuli_distractor_diamondtriangles.svg	24	yes	44	1	320	6	2	antiphase_hc_ios.wav	3	6	2	noise_calib_stim_LEFT.wav	1	23	blb_dichoticlistening_ka-pa.mp3	ka	pa	1	right
6.6.1	win	2023-07-11	21:16:39	21:35:11	1107106	613fa6a4ac727e4d53fcaf38	2	1	main_z	24	advance_on_keypress_ZEE	150	stimuli_target_diamondsquares.svg	stimuli_distractor_diamondtriangles.svg	24	yes	57	0	1078	6	2	antiphase_hc_ios.wav	3	6	2	noise_calib_stim_LEFT.wav	1	23	blb_dichoticlistening_ka-pa.mp3	ka	pa	1	right
6.6.1	win	2023-07-11	21:16:39	21:35:13	1109179	613fa6a4ac727e4d53fcaf38	2	1	main_z	24	main_z	151	stimuli_target_rectanglediamonds.svg	stimuli_distractor_diamondtriangles.svg	6	yes	44	1	343	6	2	antiphase_hc_ios.wav	3	6	2	noise_calib_stim_LEFT.wav	1	23	blb_dichoticlistening_ka-pa.mp3	ka	pa	1	right
6.6.1	win	2023-07-11	21:16:39	21:35:13	1109179	613fa6a4ac727e4d53fcaf38	2	1	main_z	24	advance_on_keypress_ZEE	152	stimuli_target_rectanglediamonds.svg	stimuli_distractor_diamondtriangles.svg	6	yes	57	0	1097	6	2	antiphase_hc_ios.wav	3	6	2	noise_calib_stim_LEFT.wav	1	23	blb_dichoticlistening_ka-pa.mp3	ka	pa	1	right
6.6.1	win	2023-07-11	21:16:39	21:35:15	1111385	613fa6a4ac727e4d53fcaf38	2	1	main_z	24	main_z	153	stimuli_target_trianglerectangles.svg	stimuli_distractor_diamondtriangles.svg	21	yes	44	1	467	6	2	antiphase_hc_ios.wav	3	6	2	noise_calib_stim_LEFT.wav	1	23	blb_dichoticlistening_ka-pa.mp3	ka	pa	1	right
6.6.1	win	2023-07-11	21:16:39	21:35:15	1111385	613fa6a4ac727e4d53fcaf38	2	1	main_z	24	advance_on_keypress_ZEE	154	stimuli_target_trianglerectangles.svg	stimuli_distractor_diamondtriangles.svg	21	yes	57	0	1204	6	2	antiphase_hc_ios.wav	3	6	2	noise_calib_stim_LEFT.wav	1	23	blb_dichoticlistening_ka-pa.mp3	ka	pa	1	right
6.6.1	win	2023-07-11	21:16:39	21:35:18	1113617	613fa6a4ac727e4d53fcaf38	2	1	main_z	24	main_z	155	stimuli_distractor_diamondtriangles.svg	stimuli_target_squarediamonds.svg	16	yes	44	1	383	6	2	antiphase_hc_ios.wav	3	6	2	noise_calib_stim_LEFT.wav	1	23	blb_dichoticlistening_ka-pa.mp3	ka	pa	1	right
6.6.1	win	2023-07-11	21:16:39	21:35:18	1113617	613fa6a4ac727e4d53fcaf38	2	1	main_z	24	advance_on_keypress_ZEE	156	stimuli_distractor_diamondtriangles.svg	stimuli_target_squarediamonds.svg	16	yes	57	0	1231	6	2	antiphase_hc_ios.wav	3	6	2	noise_calib_stim_LEFT.wav	1	23	blb_dichoticlistening_ka-pa.mp3	ka	pa	1	right
6.6.1	win	2023-07-11	21:16:39	21:35:20	1115876	613fa6a4ac727e4d53fcaf38	2	1	main_z	24	main_z	157	stimuli_distractor_diamondtriangles.svg	stimuli_target_rectanglediamonds.svg	14	yes	44	1	371	6	2	antiphase_hc_ios.wav	3	6	2	noise_calib_stim_LEFT.wav	1	23	blb_dichoticlistening_ka-pa.mp3	ka	pa	1	right
6.6.1	win	2023-07-11	21:16:39	21:35:20	1115876	613fa6a4ac727e4d53fcaf38	2	1	main_z	24	advance_on_keypress_ZEE	158	stimuli_distractor_diamondtriangles.svg	stimuli_target_rectanglediamonds.svg	14	yes	57	0	1073	6	2	antiphase_hc_ios.wav	3	6	2	noise_calib_stim_LEFT.wav	1	23	blb_dichoticlistening_ka-pa.mp3	ka	pa	1	right
6.6.1	win	2023-07-11	21:16:39	21:35:22	1118039	613fa6a4ac727e4d53fcaf38	2	1	main_z	24	main_z	159	stimuli_distractor_diamondtriangles.svg	stimuli_target_rectangletriangles.svg	13	yes	44	1	455	6	2	antiphase_hc_ios.wav	3	6	2	noise_calib_stim_LEFT.wav	1	23	blb_dichoticlistening_ka-pa.mp3	ka	pa	1	right
6.6.1	win	2023-07-11	21:16:39	21:35:22	1118039	613fa6a4ac727e4d53fcaf38	2	1	main_z	24	advance_on_keypress_ZEE	160	stimuli_distractor_diamondtriangles.svg	stimuli_target_rectangletriangles.svg	13	yes	57	0	1048	6	2	antiphase_hc_ios.wav	3	6	2	noise_calib_stim_LEFT.wav	1	23	blb_dichoticlistening_ka-pa.mp3	ka	pa	1	right
6.6.1	win	2023-07-11	21:16:39	21:35:59	1154773	613fa6a4ac727e4d53fcaf38	2	1	practice_slash	26	practice_slash	1	stimuli_distractor_trianglediamonds.svg	stimuli_distractor_trianglediamonds.svg	15	no	53	0	244	6	2	antiphase_hc_ios.wav	3	6	2	noise_calib_stim_LEFT.wav	1	23	blb_dichoticlistening_ka-pa.mp3	ka	pa	1	right
6.6.1	win	2023-07-11	21:16:39	21:35:59	1154773	613fa6a4ac727e4d53fcaf38	2	1	practice_slash	26	advance_on_keypress_SLASH	2	stimuli_distractor_trianglediamonds.svg	stimuli_distractor_trianglediamonds.svg	15	no	57	0	578	6	2	antiphase_hc_ios.wav	3	6	2	noise_calib_stim_LEFT.wav	1	23	blb_dichoticlistening_ka-pa.mp3	ka	pa	1	right
6.6.1	win	2023-07-11	21:16:39	21:36:01	1157258	613fa6a4ac727e4d53fcaf38	2	1	practice_slash	26	practice_slash	3	stimuli_target_rectanglediamonds.svg	stimuli_distractor_diamondtriangles.svg	1	yes	53	1	247	6	2	antiphase_hc_ios.wav	3	6	2	noise_calib_stim_LEFT.wav	1	23	blb_dichoticlistening_ka-pa.mp3	ka	pa	1	right
6.6.1	win	2023-07-11	21:16:39	21:36:01	1157258	613fa6a4ac727e4d53fcaf38	2	1	practice_slash	26	advance_on_keypress_SLASH	4	stimuli_target_rectanglediamonds.svg	stimuli_distractor_diamondtriangles.svg	1	yes	57	0	628	6	2	antiphase_hc_ios.wav	3	6	2	noise_calib_stim_LEFT.wav	1	23	blb_dichoticlistening_ka-pa.mp3	ka	pa	1	right
6.6.1	win	2023-07-11	21:16:39	21:36:04	1159858	613fa6a4ac727e4d53fcaf38	2	1	practice_slash	26	practice_slash	5	stimuli_distractor_trianglediamonds.svg	stimuli_target_rectanglediamonds.svg	10	yes	53	1	313	6	2	antiphase_hc_ios.wav	3	6	2	noise_calib_stim_LEFT.wav	1	23	blb_dichoticlistening_ka-pa.mp3	ka	pa	1	right
6.6.1	win	2023-07-11	21:16:39	21:36:04	1159858	613fa6a4ac727e4d53fcaf38	2	1	practice_slash	26	advance_on_keypress_SLASH	6	stimuli_distractor_trianglediamonds.svg	stimuli_target_rectanglediamonds.svg	10	yes	57	0	293	6	2	antiphase_hc_ios.wav	3	6	2	noise_calib_stim_LEFT.wav	1	23	blb_dichoticlistening_ka-pa.mp3	ka	pa	1	right
6.6.1	win	2023-07-11	21:16:39	21:36:06	1162101	613fa6a4ac727e4d53fcaf38	2	1	practice_slash	26	practice_slash	7	stimuli_distractor_trianglediamonds.svg	stimuli_target_diamondrectangles.svg	12	yes	53	1	289	6	2	antiphase_hc_ios.wav	3	6	2	noise_calib_stim_LEFT.wav	1	23	blb_dichoticlistening_ka-pa.mp3	ka	pa	1	right
6.6.1	win	2023-07-11	21:16:39	21:36:06	1162101	613fa6a4ac727e4d53fcaf38	2	1	practice_slash	26	advance_on_keypress_SLASH	8	stimuli_distractor_trianglediamonds.svg	stimuli_target_diamondrectangles.svg	12	yes	57	0	371	6	2	antiphase_hc_ios.wav	3	6	2	noise_calib_stim_LEFT.wav	1	23	blb_dichoticlistening_ka-pa.mp3	ka	pa	1	right
6.6.1	win	2023-07-11	21:16:39	21:36:09	1164534	613fa6a4ac727e4d53fcaf38	2	1	practice_slash	26	practice_slash	9	stimuli_target_squarediamonds.svg	stimuli_distractor_diamondtriangles.svg	2	yes	53	1	423	6	2	antiphase_hc_ios.wav	3	6	2	noise_calib_stim_LEFT.wav	1	23	blb_dichoticlistening_ka-pa.mp3	ka	pa	1	right
6.6.1	win	2023-07-11	21:16:39	21:36:09	1164534	613fa6a4ac727e4d53fcaf38	2	1	practice_slash	26	advance_on_keypress_SLASH	10	stimuli_target_squarediamonds.svg	stimuli_distractor_diamondtriangles.svg	2	yes	57	0	300	6	2	antiphase_hc_ios.wav	3	6	2	noise_calib_stim_LEFT.wav	1	23	blb_dichoticlistening_ka-pa.mp3	ka	pa	1	right
6.6.1	win	2023-07-11	21:16:39	21:36:11	1166799	613fa6a4ac727e4d53fcaf38	2	1	practice_slash	26	practice_slash	11	stimuli_distractor_trianglediamonds.svg	stimuli_target_squarediamonds.svg	11	yes	53	1	323	6	2	antiphase_hc_ios.wav	3	6	2	noise_calib_stim_LEFT.wav	1	23	blb_dichoticlistening_ka-pa.mp3	ka	pa	1	right
6.6.1	win	2023-07-11	21:16:39	21:36:11	1166799	613fa6a4ac727e4d53fcaf38	2	1	practice_slash	26	advance_on_keypress_SLASH	12	stimuli_distractor_trianglediamonds.svg	stimuli_target_squarediamonds.svg	11	yes	57	0	403	6	2	antiphase_hc_ios.wav	3	6	2	noise_calib_stim_LEFT.wav	1	23	blb_dichoticlistening_ka-pa.mp3	ka	pa	1	right
6.6.1	win	2023-07-11	21:16:39	21:36:13	1169209	613fa6a4ac727e4d53fcaf38	2	1	practice_slash	26	practice_slash	13	stimuli_distractor_diamondtriangles.svg	stimuli_target_diamondrectangles.svg	8	yes	53	1	367	6	2	antiphase_hc_ios.wav	3	6	2	noise_calib_stim_LEFT.wav	1	23	blb_dichoticlistening_ka-pa.mp3	ka	pa	1	right
6.6.1	win	2023-07-11	21:16:39	21:36:13	1169209	613fa6a4ac727e4d53fcaf38	2	1	practice_slash	26	advance_on_keypress_SLASH	14	stimuli_distractor_diamondtriangles.svg	stimuli_target_diamondrectangles.svg	8	yes	57	0	313	6	2	antiphase_hc_ios.wav	3	6	2	noise_calib_stim_LEFT.wav	1	23	blb_dichoticlistening_ka-pa.mp3	ka	pa	1	right
6.6.1	win	2023-07-11	21:16:39	21:36:16	1171558	613fa6a4ac727e4d53fcaf38	2	1	practice_slash	26	practice_slash	15	stimuli_target_diamondsquares.svg	stimuli_distractor_diamondtriangles.svg	3	yes	53	1	383	6	2	antiphase_hc_ios.wav	3	6	2	noise_calib_stim_LEFT.wav	1	23	blb_dichoticlistening_ka-pa.mp3	ka	pa	1	right
6.6.1	win	2023-07-11	21:16:39	21:36:16	1171558	613fa6a4ac727e4d53fcaf38	2	1	practice_slash	26	advance_on_keypress_SLASH	16	stimuli_target_diamondsquares.svg	stimuli_distractor_diamondtriangles.svg	3	yes	57	0	315	6	2	antiphase_hc_ios.wav	3	6	2	noise_calib_stim_LEFT.wav	1	23	blb_dichoticlistening_ka-pa.mp3	ka	pa	1	right
6.6.1	win	2023-07-11	21:16:39	21:36:18	1173935	613fa6a4ac727e4d53fcaf38	2	1	practice_slash	26	practice_slash	17	stimuli_distractor_trianglediamonds.svg	stimuli_distractor_diamondtriangles.svg	16	no	53	0	410	6	2	antiphase_hc_ios.wav	3	6	2	noise_calib_stim_LEFT.wav	1	23	blb_dichoticlistening_ka-pa.mp3	ka	pa	1	right
6.6.1	win	2023-07-11	21:16:39	21:36:18	1173935	613fa6a4ac727e4d53fcaf38	2	1	practice_slash	26	advance_on_keypress_SLASH	18	stimuli_distractor_trianglediamonds.svg	stimuli_distractor_diamondtriangles.svg	16	no	57	0	571	6	2	antiphase_hc_ios.wav	3	6	2	noise_calib_stim_LEFT.wav	1	23	blb_dichoticlistening_ka-pa.mp3	ka	pa	1	right
