build	computer.platform	date	time	timestamp	time_elapsed_ms	subject	group	session	blockcode	blocknum	trialcode	trialnum	stimulus_left	stimulus_right	stim_index	target_present	response	correct	latency	headphonecheck_countTestTrials	headphonecheck_index	headphonecheck_testSound	headphonecheck_correctResponse	stereocheck_countTestTrials	stereocheck_index	stereocheck_testSound	stereocheck_correctResponse	DL_index	DL_soundfile	DL_leftSound	DL_rightSound	DL_dualSound	DL_choice
6.6.1	win	2023-06-23	12:11:57	12:15:32	206096	5c50046b2b89f500015e5f6b	3	1	practice_slash	5	practice_slash	1	stimuli_distractor_diamondtriangles.svg	stimuli_target_trianglerectangles.svg	9	yes	53	1	1271	0	0			0	0			1				0	
6.6.1	win	2023-06-23	12:11:57	12:15:32	206096	5c50046b2b89f500015e5f6b	3	1	practice_slash	5	advance_on_keypress_SLASH	2	stimuli_distractor_diamondtriangles.svg	stimuli_target_trianglerectangles.svg	9	yes	57	0	1086	0	0			0	0			1				0	
6.6.1	win	2023-06-23	12:11:57	12:15:37	210841	5c50046b2b89f500015e5f6b	3	1	practice_slash	5	practice_slash	3	stimuli_distractor_trianglediamonds.svg	stimuli_distractor_trianglediamonds.svg	15	no	0	1	2000	0	0			0	0			1				0	
6.6.1	win	2023-06-23	12:11:57	12:15:37	210841	5c50046b2b89f500015e5f6b	3	1	practice_slash	5	advance_on_keypress_SLASH	4	stimuli_distractor_trianglediamonds.svg	stimuli_distractor_trianglediamonds.svg	15	no	57	0	489	0	0			0	0			1				0	
6.6.1	win	2023-06-23	12:11:57	12:15:41	214974	5c50046b2b89f500015e5f6b	3	1	practice_slash	5	practice_slash	5	stimuli_distractor_diamondtriangles.svg	stimuli_distractor_trianglediamonds.svg	14	no	0	1	2000	0	0			0	0			1				0	
6.6.1	win	2023-06-23	12:11:57	12:15:41	214974	5c50046b2b89f500015e5f6b	3	1	practice_slash	5	advance_on_keypress_SLASH	6	stimuli_distractor_diamondtriangles.svg	stimuli_distractor_trianglediamonds.svg	14	no	57	0	396	0	0			0	0			1				0	
6.6.1	win	2023-06-23	12:11:57	12:15:45	219023	5c50046b2b89f500015e5f6b	3	1	practice_slash	5	practice_slash	7	stimuli_distractor_diamondtriangles.svg	stimuli_distractor_diamondtriangles.svg	13	no	0	1	2000	0	0			0	0			1				0	
6.6.1	win	2023-06-23	12:11:57	12:15:45	219023	5c50046b2b89f500015e5f6b	3	1	practice_slash	5	advance_on_keypress_SLASH	8	stimuli_distractor_diamondtriangles.svg	stimuli_distractor_diamondtriangles.svg	13	no	57	0	442	0	0			0	0			1				0	
6.6.1	win	2023-06-23	12:11:57	12:15:49	223123	5c50046b2b89f500015e5f6b	3	1	practice_slash	5	practice_slash	9	stimuli_distractor_trianglediamonds.svg	stimuli_distractor_diamondtriangles.svg	16	no	0	1	2000	0	0			0	0			1				0	
6.6.1	win	2023-06-23	12:11:57	12:15:49	223123	5c50046b2b89f500015e5f6b	3	1	practice_slash	5	advance_on_keypress_SLASH	10	stimuli_distractor_trianglediamonds.svg	stimuli_distractor_diamondtriangles.svg	16	no	57	0	324	0	0			0	0			1				0	
6.6.1	win	2023-06-23	12:11:57	12:15:52	226123	5c50046b2b89f500015e5f6b	3	1	practice_slash	5	practice_slash	11	stimuli_target_diamondsquares.svg	stimuli_distractor_trianglediamonds.svg	6	yes	53	1	1017	0	0			0	0			1				0	
6.6.1	win	2023-06-23	12:11:57	12:15:52	226123	5c50046b2b89f500015e5f6b	3	1	practice_slash	5	advance_on_keypress_SLASH	12	stimuli_target_diamondsquares.svg	stimuli_distractor_trianglediamonds.svg	6	yes	57	0	769	0	0			0	0			1				0	
6.6.1	win	2023-06-23	12:11:57	12:15:56	229532	5c50046b2b89f500015e5f6b	3	1	practice_slash	5	practice_slash	13	stimuli_target_squarediamonds.svg	stimuli_distractor_trianglediamonds.svg	5	yes	53	1	993	0	0			0	0			1				0	
6.6.1	win	2023-06-23	12:11:57	12:15:56	229532	5c50046b2b89f500015e5f6b	3	1	practice_slash	5	advance_on_keypress_SLASH	14	stimuli_target_squarediamonds.svg	stimuli_distractor_trianglediamonds.svg	5	yes	57	0	550	0	0			0	0			1				0	
6.6.1	win	2023-06-23	12:11:57	12:15:59	232563	5c50046b2b89f500015e5f6b	3	1	practice_slash	5	practice_slash	15	stimuli_target_squarediamonds.svg	stimuli_distractor_diamondtriangles.svg	2	yes	53	1	825	0	0			0	0			1				0	
6.6.1	win	2023-06-23	12:11:57	12:15:59	232563	5c50046b2b89f500015e5f6b	3	1	practice_slash	5	advance_on_keypress_SLASH	16	stimuli_target_squarediamonds.svg	stimuli_distractor_diamondtriangles.svg	2	yes	57	0	485	0	0			0	0			1				0	
6.6.1	win	2023-06-23	12:11:57	12:16:01	235219	5c50046b2b89f500015e5f6b	3	1	practice_slash	5	practice_slash	17	stimuli_distractor_trianglediamonds.svg	stimuli_target_squarediamonds.svg	11	yes	53	1	501	0	0			0	0			1				0	
6.6.1	win	2023-06-23	12:11:57	12:16:01	235219	5c50046b2b89f500015e5f6b	3	1	practice_slash	5	advance_on_keypress_SLASH	18	stimuli_distractor_trianglediamonds.svg	stimuli_target_squarediamonds.svg	11	yes	57	0	495	0	0			0	0			1				0	
6.6.1	win	2023-06-23	12:11:57	12:16:04	237886	5c50046b2b89f500015e5f6b	3	1	practice_slash	5	practice_slash	19	stimuli_target_diamondsquares.svg	stimuli_distractor_diamondtriangles.svg	3	yes	53	1	504	0	0			0	0			1				0	
6.6.1	win	2023-06-23	12:11:57	12:16:04	237886	5c50046b2b89f500015e5f6b	3	1	practice_slash	5	advance_on_keypress_SLASH	20	stimuli_target_diamondsquares.svg	stimuli_distractor_diamondtriangles.svg	3	yes	57	0	521	0	0			0	0			1				0	
6.6.1	win	2023-06-23	12:11:57	12:16:07	240577	5c50046b2b89f500015e5f6b	3	1	practice_slash	5	practice_slash	21	stimuli_target_rectanglediamonds.svg	stimuli_distractor_trianglediamonds.svg	4	yes	53	1	524	0	0			0	0			1				0	
6.6.1	win	2023-06-23	12:11:57	12:16:07	240577	5c50046b2b89f500015e5f6b	3	1	practice_slash	5	advance_on_keypress_SLASH	22	stimuli_target_rectanglediamonds.svg	stimuli_distractor_trianglediamonds.svg	4	yes	57	0	427	0	0			0	0			1				0	
6.6.1	win	2023-06-23	12:11:57	12:16:09	243291	5c50046b2b89f500015e5f6b	3	1	practice_slash	5	practice_slash	23	stimuli_target_rectanglediamonds.svg	stimuli_distractor_diamondtriangles.svg	1	yes	53	1	637	0	0			0	0			1				0	
6.6.1	win	2023-06-23	12:11:57	12:16:09	243291	5c50046b2b89f500015e5f6b	3	1	practice_slash	5	advance_on_keypress_SLASH	24	stimuli_target_rectanglediamonds.svg	stimuli_distractor_diamondtriangles.svg	1	yes	57	0	332	0	0			0	0			1				0	
6.6.1	win	2023-06-23	12:11:57	12:16:12	245752	5c50046b2b89f500015e5f6b	3	1	practice_slash	5	practice_slash	25	stimuli_distractor_diamondtriangles.svg	stimuli_target_diamondrectangles.svg	8	yes	53	1	482	0	0			0	0			1				0	
6.6.1	win	2023-06-23	12:11:57	12:16:12	245752	5c50046b2b89f500015e5f6b	3	1	practice_slash	5	advance_on_keypress_SLASH	26	stimuli_distractor_diamondtriangles.svg	stimuli_target_diamondrectangles.svg	8	yes	57	0	366	0	0			0	0			1				0	
6.6.1	win	2023-06-23	12:11:57	12:16:15	248489	5c50046b2b89f500015e5f6b	3	1	practice_slash	5	practice_slash	27	stimuli_distractor_trianglediamonds.svg	stimuli_target_diamondrectangles.svg	12	yes	53	1	720	0	0			0	0			1				0	
6.6.1	win	2023-06-23	12:11:57	12:16:15	248489	5c50046b2b89f500015e5f6b	3	1	practice_slash	5	advance_on_keypress_SLASH	28	stimuli_distractor_trianglediamonds.svg	stimuli_target_diamondrectangles.svg	12	yes	57	0	443	0	0			0	0			1				0	
6.6.1	win	2023-06-23	12:11:57	12:16:17	251257	5c50046b2b89f500015e5f6b	3	1	practice_slash	5	practice_slash	29	stimuli_distractor_diamondtriangles.svg	stimuli_target_rectangletriangles.svg	7	yes	53	1	672	0	0			0	0			1				0	
6.6.1	win	2023-06-23	12:11:57	12:16:17	251257	5c50046b2b89f500015e5f6b	3	1	practice_slash	5	advance_on_keypress_SLASH	30	stimuli_distractor_diamondtriangles.svg	stimuli_target_rectangletriangles.svg	7	yes	57	0	353	0	0			0	0			1				0	
6.6.1	win	2023-06-23	12:11:57	12:16:20	254037	5c50046b2b89f500015e5f6b	3	1	practice_slash	5	practice_slash	31	stimuli_distractor_trianglediamonds.svg	stimuli_target_rectanglediamonds.svg	10	yes	53	1	785	0	0			0	0			1				0	
6.6.1	win	2023-06-23	12:11:57	12:16:20	254037	5c50046b2b89f500015e5f6b	3	1	practice_slash	5	advance_on_keypress_SLASH	32	stimuli_distractor_trianglediamonds.svg	stimuli_target_rectanglediamonds.svg	10	yes	57	0	302	0	0			0	0			1				0	
6.6.1	win	2023-06-23	12:11:57	12:16:27	260462	5c50046b2b89f500015e5f6b	3	1	main_slash	7	main_slash	1	stimuli_distractor_trianglediamonds.svg	stimuli_target_squarediamonds.svg	12	yes	53	1	563	0	0			0	0			1				0	
6.6.1	win	2023-06-23	12:11:57	12:16:27	260462	5c50046b2b89f500015e5f6b	3	1	main_slash	7	advance_on_keypress_SLASH	2	stimuli_distractor_trianglediamonds.svg	stimuli_target_squarediamonds.svg	12	yes	57	0	724	0	0			0	0			1				0	
6.6.1	win	2023-06-23	12:11:57	12:16:30	263831	5c50046b2b89f500015e5f6b	3	1	main_slash	7	main_slash	3	stimuli_distractor_trianglediamonds.svg	stimuli_distractor_trianglediamonds.svg	33	no	0	1	2000	0	0			0	0			1				0	
6.6.1	win	2023-06-23	12:11:57	12:16:30	263831	5c50046b2b89f500015e5f6b	3	1	main_slash	7	advance_on_keypress_SLASH	4	stimuli_distractor_trianglediamonds.svg	stimuli_distractor_trianglediamonds.svg	33	no	57	0	379	0	0			0	0			1				0	
6.6.1	win	2023-06-23	12:11:57	12:16:33	266864	5c50046b2b89f500015e5f6b	3	1	main_slash	7	main_slash	5	stimuli_distractor_diamondtriangles.svg	stimuli_distractor_trianglediamonds.svg	38	no	0	1	2000	0	0			0	0			1				0	
6.6.1	win	2023-06-23	12:11:57	12:16:33	266864	5c50046b2b89f500015e5f6b	3	1	main_slash	7	advance_on_keypress_SLASH	6	stimuli_distractor_diamondtriangles.svg	stimuli_distractor_trianglediamonds.svg	38	no	57	0	290	0	0			0	0			1				0	
6.6.1	win	2023-06-23	12:11:57	12:16:36	269797	5c50046b2b89f500015e5f6b	3	1	main_slash	7	main_slash	7	stimuli_distractor_trianglediamonds.svg	stimuli_distractor_diamondtriangles.svg	35	no	0	1	2000	0	0			0	0			1				0	
6.6.1	win	2023-06-23	12:11:57	12:16:36	269797	5c50046b2b89f500015e5f6b	3	1	main_slash	7	advance_on_keypress_SLASH	8	stimuli_distractor_trianglediamonds.svg	stimuli_distractor_diamondtriangles.svg	35	no	57	0	305	0	0			0	0			1				0	
6.6.1	win	2023-06-23	12:11:57	12:16:38	271583	5c50046b2b89f500015e5f6b	3	1	main_slash	7	main_slash	9	stimuli_target_squaretriangles.svg	stimuli_distractor_trianglediamonds.svg	3	yes	53	1	836	0	0			0	0			1				0	
6.6.1	win	2023-06-23	12:11:57	12:16:38	271583	5c50046b2b89f500015e5f6b	3	1	main_slash	7	advance_on_keypress_SLASH	10	stimuli_target_squaretriangles.svg	stimuli_distractor_trianglediamonds.svg	3	yes	57	0	559	0	0			0	0			1				0	
6.6.1	win	2023-06-23	12:11:57	12:16:40	273681	5c50046b2b89f500015e5f6b	3	1	main_slash	7	main_slash	11	stimuli_distractor_trianglediamonds.svg	stimuli_target_diamondrectangles.svg	27	yes	53	1	901	0	0			0	0			1				0	
6.6.1	win	2023-06-23	12:11:57	12:16:40	273681	5c50046b2b89f500015e5f6b	3	1	main_slash	7	advance_on_keypress_SLASH	12	stimuli_distractor_trianglediamonds.svg	stimuli_target_diamondrectangles.svg	27	yes	57	0	825	0	0			0	0			1				0	
6.6.1	win	2023-06-23	12:11:57	12:16:42	276089	5c50046b2b89f500015e5f6b	3	1	main_slash	7	main_slash	13	stimuli_target_rectangletriangles.svg	stimuli_distractor_diamondtriangles.svg	5	yes	53	1	943	0	0			0	0			1				0	
6.6.1	win	2023-06-23	12:11:57	12:16:42	276089	5c50046b2b89f500015e5f6b	3	1	main_slash	7	advance_on_keypress_SLASH	14	stimuli_target_rectangletriangles.svg	stimuli_distractor_diamondtriangles.svg	5	yes	57	0	572	0	0			0	0			1				0	
6.6.1	win	2023-06-23	12:11:57	12:16:44	278093	5c50046b2b89f500015e5f6b	3	1	main_slash	7	main_slash	15	stimuli_target_rectanglediamonds.svg	stimuli_distractor_trianglediamonds.svg	2	yes	53	1	782	0	0			0	0			1				0	
6.6.1	win	2023-06-23	12:11:57	12:16:44	278093	5c50046b2b89f500015e5f6b	3	1	main_slash	7	advance_on_keypress_SLASH	16	stimuli_target_rectanglediamonds.svg	stimuli_distractor_trianglediamonds.svg	2	yes	57	0	497	0	0			0	0			1				0	
6.6.1	win	2023-06-23	12:11:57	12:16:47	281245	5c50046b2b89f500015e5f6b	3	1	main_slash	7	main_slash	17	stimuli_distractor_trianglediamonds.svg	stimuli_distractor_trianglediamonds.svg	34	no	0	1	2000	0	0			0	0			1				0	
6.6.1	win	2023-06-23	12:11:57	12:16:47	281245	5c50046b2b89f500015e5f6b	3	1	main_slash	7	advance_on_keypress_SLASH	18	stimuli_distractor_trianglediamonds.svg	stimuli_distractor_trianglediamonds.svg	34	no	57	0	268	0	0			0	0			1				0	
6.6.1	win	2023-06-23	12:11:57	12:16:49	282840	5c50046b2b89f500015e5f6b	3	1	main_slash	7	main_slash	19	stimuli_distractor_trianglediamonds.svg	stimuli_target_squaretriangles.svg	11	yes	53	1	679	0	0			0	0			1				0	
6.6.1	win	2023-06-23	12:11:57	12:16:49	282840	5c50046b2b89f500015e5f6b	3	1	main_slash	7	advance_on_keypress_SLASH	20	stimuli_distractor_trianglediamonds.svg	stimuli_target_squaretriangles.svg	11	yes	57	0	487	0	0			0	0			1				0	
6.6.1	win	2023-06-23	12:11:57	12:16:51	284789	5c50046b2b89f500015e5f6b	3	1	main_slash	7	main_slash	21	stimuli_target_squaretriangles.svg	stimuli_distractor_diamondtriangles.svg	7	yes	53	1	811	0	0			0	0			1				0	
6.6.1	win	2023-06-23	12:11:57	12:16:51	284789	5c50046b2b89f500015e5f6b	3	1	main_slash	7	advance_on_keypress_SLASH	22	stimuli_target_squaretriangles.svg	stimuli_distractor_diamondtriangles.svg	7	yes	57	0	449	0	0			0	0			1				0	
6.6.1	win	2023-06-23	12:11:57	12:16:53	286703	5c50046b2b89f500015e5f6b	3	1	main_slash	7	main_slash	23	stimuli_target_rectangletriangles.svg	stimuli_distractor_trianglediamonds.svg	1	yes	53	1	809	0	0			0	0			1				0	
6.6.1	win	2023-06-23	12:11:57	12:16:53	286703	5c50046b2b89f500015e5f6b	3	1	main_slash	7	advance_on_keypress_SLASH	24	stimuli_target_rectangletriangles.svg	stimuli_distractor_trianglediamonds.svg	1	yes	57	0	236	0	0			0	0			1				0	
6.6.1	win	2023-06-23	12:11:57	12:16:54	288396	5c50046b2b89f500015e5f6b	3	1	main_slash	7	main_slash	25	stimuli_distractor_trianglediamonds.svg	stimuli_target_trianglesquares.svg	26	yes	53	1	804	0	0			0	0			1				0	
6.6.1	win	2023-06-23	12:11:57	12:16:54	288396	5c50046b2b89f500015e5f6b	3	1	main_slash	7	advance_on_keypress_SLASH	26	stimuli_distractor_trianglediamonds.svg	stimuli_target_trianglesquares.svg	26	yes	57	0	486	0	0			0	0			1				0	
6.6.1	win	2023-06-23	12:11:57	12:16:56	290419	5c50046b2b89f500015e5f6b	3	1	main_slash	7	main_slash	27	stimuli_target_trianglerectangles.svg	stimuli_distractor_diamondtriangles.svg	21	yes	53	1	892	0	0			0	0			1				0	
6.6.1	win	2023-06-23	12:11:57	12:16:56	290419	5c50046b2b89f500015e5f6b	3	1	main_slash	7	advance_on_keypress_SLASH	28	stimuli_target_trianglerectangles.svg	stimuli_distractor_diamondtriangles.svg	21	yes	57	0	428	0	0			0	0			1				0	
6.6.1	win	2023-06-23	12:11:57	12:16:58	292280	5c50046b2b89f500015e5f6b	3	1	main_slash	7	main_slash	29	stimuli_distractor_diamondtriangles.svg	stimuli_target_diamondrectangles.svg	31	yes	53	1	770	0	0			0	0			1				0	
6.6.1	win	2023-06-23	12:11:57	12:16:58	292280	5c50046b2b89f500015e5f6b	3	1	main_slash	7	advance_on_keypress_SLASH	30	stimuli_distractor_diamondtriangles.svg	stimuli_target_diamondrectangles.svg	31	yes	57	0	263	0	0			0	0			1				0	
6.6.1	win	2023-06-23	12:11:57	12:17:00	294020	5c50046b2b89f500015e5f6b	3	1	main_slash	7	main_slash	31	stimuli_distractor_trianglediamonds.svg	stimuli_target_trianglerectangles.svg	25	yes	53	1	827	0	0			0	0			1				0	
6.6.1	win	2023-06-23	12:11:57	12:17:00	294020	5c50046b2b89f500015e5f6b	3	1	main_slash	7	advance_on_keypress_SLASH	32	stimuli_distractor_trianglediamonds.svg	stimuli_target_trianglerectangles.svg	25	yes	57	0	446	0	0			0	0			1				0	
6.6.1	win	2023-06-23	12:11:57	12:17:02	295947	5c50046b2b89f500015e5f6b	3	1	main_slash	7	main_slash	33	stimuli_distractor_diamondtriangles.svg	stimuli_target_squaretriangles.svg	15	yes	53	1	838	0	0			0	0			1				0	
6.6.1	win	2023-06-23	12:11:57	12:17:02	295947	5c50046b2b89f500015e5f6b	3	1	main_slash	7	advance_on_keypress_SLASH	34	stimuli_distractor_diamondtriangles.svg	stimuli_target_squaretriangles.svg	15	yes	57	0	264	0	0			0	0			1				0	
6.6.1	win	2023-06-23	12:11:57	12:17:04	297666	5c50046b2b89f500015e5f6b	3	1	main_slash	7	main_slash	35	stimuli_distractor_trianglediamonds.svg	stimuli_distractor_diamondtriangles.svg	36	no	53	0	807	0	0			0	0			1				0	
6.6.1	win	2023-06-23	12:11:57	12:17:04	297666	5c50046b2b89f500015e5f6b	3	1	main_slash	7	advance_on_keypress_SLASH	36	stimuli_distractor_trianglediamonds.svg	stimuli_distractor_diamondtriangles.svg	36	no	57	0	538	0	0			0	0			1				0	
6.6.1	win	2023-06-23	12:11:57	12:17:06	299660	5c50046b2b89f500015e5f6b	3	1	main_slash	7	main_slash	37	stimuli_distractor_trianglediamonds.svg	stimuli_target_diamondsquares.svg	28	yes	53	1	818	0	0			0	0			1				0	
6.6.1	win	2023-06-23	12:11:57	12:17:06	299660	5c50046b2b89f500015e5f6b	3	1	main_slash	7	advance_on_keypress_SLASH	38	stimuli_distractor_trianglediamonds.svg	stimuli_target_diamondsquares.svg	28	yes	57	0	356	0	0			0	0			1				0	
6.6.1	win	2023-06-23	12:11:57	12:17:08	301623	5c50046b2b89f500015e5f6b	3	1	main_slash	7	main_slash	39	stimuli_distractor_diamondtriangles.svg	stimuli_target_trianglerectangles.svg	29	yes	53	1	964	0	0			0	0			1				0	
6.6.1	win	2023-06-23	12:11:57	12:17:08	301623	5c50046b2b89f500015e5f6b	3	1	main_slash	7	advance_on_keypress_SLASH	40	stimuli_distractor_diamondtriangles.svg	stimuli_target_trianglerectangles.svg	29	yes	57	0	419	0	0			0	0			1				0	
6.6.1	win	2023-06-23	12:11:57	12:17:10	303635	5c50046b2b89f500015e5f6b	3	1	main_slash	7	main_slash	41	stimuli_target_trianglerectangles.svg	stimuli_distractor_trianglediamonds.svg	17	yes	53	1	944	0	0			0	0			1				0	
6.6.1	win	2023-06-23	12:11:57	12:17:10	303635	5c50046b2b89f500015e5f6b	3	1	main_slash	7	advance_on_keypress_SLASH	42	stimuli_target_trianglerectangles.svg	stimuli_distractor_trianglediamonds.svg	17	yes	57	0	406	0	0			0	0			1				0	
6.6.1	win	2023-06-23	12:11:57	12:17:12	305513	5c50046b2b89f500015e5f6b	3	1	main_slash	7	main_slash	43	stimuli_distractor_diamondtriangles.svg	stimuli_target_rectanglediamonds.svg	14	yes	53	1	839	0	0			0	0			1				0	
6.6.1	win	2023-06-23	12:11:57	12:17:12	305513	5c50046b2b89f500015e5f6b	3	1	main_slash	7	advance_on_keypress_SLASH	44	stimuli_distractor_diamondtriangles.svg	stimuli_target_rectanglediamonds.svg	14	yes	57	0	306	0	0			0	0			1				0	
6.6.1	win	2023-06-23	12:11:57	12:17:13	307326	5c50046b2b89f500015e5f6b	3	1	main_slash	7	main_slash	45	stimuli_target_diamondrectangles.svg	stimuli_distractor_trianglediamonds.svg	19	yes	53	1	869	0	0			0	0			1				0	
6.6.1	win	2023-06-23	12:11:57	12:17:13	307326	5c50046b2b89f500015e5f6b	3	1	main_slash	7	advance_on_keypress_SLASH	46	stimuli_target_diamondrectangles.svg	stimuli_distractor_trianglediamonds.svg	19	yes	57	0	246	0	0			0	0			1				0	
6.6.1	win	2023-06-23	12:11:57	12:17:15	309119	5c50046b2b89f500015e5f6b	3	1	main_slash	7	main_slash	47	stimuli_target_trianglesquares.svg	stimuli_distractor_trianglediamonds.svg	18	yes	53	1	895	0	0			0	0			1				0	
6.6.1	win	2023-06-23	12:11:57	12:17:15	309119	5c50046b2b89f500015e5f6b	3	1	main_slash	7	advance_on_keypress_SLASH	48	stimuli_target_trianglesquares.svg	stimuli_distractor_trianglediamonds.svg	18	yes	57	0	247	0	0			0	0			1				0	
6.6.1	win	2023-06-23	12:11:57	12:17:17	310896	5c50046b2b89f500015e5f6b	3	1	main_slash	7	main_slash	49	stimuli_target_squarediamonds.svg	stimuli_distractor_trianglediamonds.svg	4	yes	53	1	889	0	0			0	0			1				0	
6.6.1	win	2023-06-23	12:11:57	12:17:17	310896	5c50046b2b89f500015e5f6b	3	1	main_slash	7	advance_on_keypress_SLASH	50	stimuli_target_squarediamonds.svg	stimuli_distractor_trianglediamonds.svg	4	yes	57	0	290	0	0			0	0			1				0	
6.6.1	win	2023-06-23	12:11:57	12:17:19	312628	5c50046b2b89f500015e5f6b	3	1	main_slash	7	main_slash	51	stimuli_distractor_diamondtriangles.svg	stimuli_target_trianglesquares.svg	30	yes	53	1	806	0	0			0	0			1				0	
6.6.1	win	2023-06-23	12:11:57	12:17:19	312628	5c50046b2b89f500015e5f6b	3	1	main_slash	7	advance_on_keypress_SLASH	52	stimuli_distractor_diamondtriangles.svg	stimuli_target_trianglesquares.svg	30	yes	57	0	434	0	0			0	0			1				0	
6.6.1	win	2023-06-23	12:11:57	12:17:21	314492	5c50046b2b89f500015e5f6b	3	1	main_slash	7	main_slash	53	stimuli_distractor_diamondtriangles.svg	stimuli_target_rectangletriangles.svg	13	yes	53	1	785	0	0			0	0			1				0	
6.6.1	win	2023-06-23	12:11:57	12:17:21	314492	5c50046b2b89f500015e5f6b	3	1	main_slash	7	advance_on_keypress_SLASH	54	stimuli_distractor_diamondtriangles.svg	stimuli_target_rectangletriangles.svg	13	yes	57	0	329	0	0			0	0			1				0	
6.6.1	win	2023-06-23	12:11:57	12:17:22	316284	5c50046b2b89f500015e5f6b	3	1	main_slash	7	main_slash	55	stimuli_target_diamondsquares.svg	stimuli_distractor_trianglediamonds.svg	20	yes	53	1	811	0	0			0	0			1				0	
6.6.1	win	2023-06-23	12:11:57	12:17:22	316284	5c50046b2b89f500015e5f6b	3	1	main_slash	7	advance_on_keypress_SLASH	56	stimuli_target_diamondsquares.svg	stimuli_distractor_trianglediamonds.svg	20	yes	57	0	445	0	0			0	0			1				0	
6.6.1	win	2023-06-23	12:11:57	12:17:24	318195	5c50046b2b89f500015e5f6b	3	1	main_slash	7	main_slash	57	stimuli_target_rectanglediamonds.svg	stimuli_distractor_diamondtriangles.svg	6	yes	53	1	806	0	0			0	0			1				0	
6.6.1	win	2023-06-23	12:11:57	12:17:24	318195	5c50046b2b89f500015e5f6b	3	1	main_slash	7	advance_on_keypress_SLASH	58	stimuli_target_rectanglediamonds.svg	stimuli_distractor_diamondtriangles.svg	6	yes	57	0	480	0	0			0	0			1				0	
6.6.1	win	2023-06-23	12:11:57	12:17:26	320058	5c50046b2b89f500015e5f6b	3	1	main_slash	7	main_slash	59	stimuli_distractor_diamondtriangles.svg	stimuli_target_diamondsquares.svg	32	yes	53	1	735	0	0			0	0			1				0	
6.6.1	win	2023-06-23	12:11:57	12:17:26	320058	5c50046b2b89f500015e5f6b	3	1	main_slash	7	advance_on_keypress_SLASH	60	stimuli_distractor_diamondtriangles.svg	stimuli_target_diamondsquares.svg	32	yes	57	0	430	0	0			0	0			1				0	
6.6.1	win	2023-06-23	12:11:57	12:17:29	323139	5c50046b2b89f500015e5f6b	3	1	main_slash	7	main_slash	61	stimuli_distractor_diamondtriangles.svg	stimuli_target_squarediamonds.svg	16	yes	0	0	2000	0	0			0	0			1				0	
6.6.1	win	2023-06-23	12:11:57	12:17:29	323139	5c50046b2b89f500015e5f6b	3	1	main_slash	7	advance_on_keypress_SLASH	62	stimuli_distractor_diamondtriangles.svg	stimuli_target_squarediamonds.svg	16	yes	57	0	750	0	0			0	0			1				0	
6.6.1	win	2023-06-23	12:11:57	12:17:31	325376	5c50046b2b89f500015e5f6b	3	1	main_slash	7	main_slash	63	stimuli_target_diamondsquares.svg	stimuli_distractor_diamondtriangles.svg	24	yes	53	1	837	0	0			0	0			1				0	
6.6.1	win	2023-06-23	12:11:57	12:17:31	325376	5c50046b2b89f500015e5f6b	3	1	main_slash	7	advance_on_keypress_SLASH	64	stimuli_target_diamondsquares.svg	stimuli_distractor_diamondtriangles.svg	24	yes	57	0	784	0	0			0	0			1				0	
6.6.1	win	2023-06-23	12:11:57	12:17:35	328805	5c50046b2b89f500015e5f6b	3	1	main_slash	7	main_slash	65	stimuli_distractor_diamondtriangles.svg	stimuli_distractor_diamondtriangles.svg	40	no	0	1	2000	0	0			0	0			1				0	
6.6.1	win	2023-06-23	12:11:57	12:17:35	328805	5c50046b2b89f500015e5f6b	3	1	main_slash	7	advance_on_keypress_SLASH	66	stimuli_distractor_diamondtriangles.svg	stimuli_distractor_diamondtriangles.svg	40	no	57	0	429	0	0			0	0			1				0	
6.6.1	win	2023-06-23	12:11:57	12:17:37	330822	5c50046b2b89f500015e5f6b	3	1	main_slash	7	main_slash	67	stimuli_distractor_trianglediamonds.svg	stimuli_target_rectangletriangles.svg	9	yes	53	1	934	0	0			0	0			1				0	
6.6.1	win	2023-06-23	12:11:57	12:17:37	330822	5c50046b2b89f500015e5f6b	3	1	main_slash	7	advance_on_keypress_SLASH	68	stimuli_distractor_trianglediamonds.svg	stimuli_target_rectangletriangles.svg	9	yes	57	0	388	0	0			0	0			1				0	
6.6.1	win	2023-06-23	12:11:57	12:17:39	332736	5c50046b2b89f500015e5f6b	3	1	main_slash	7	main_slash	69	stimuli_target_diamondrectangles.svg	stimuli_distractor_diamondtriangles.svg	23	yes	53	1	880	0	0			0	0			1				0	
6.6.1	win	2023-06-23	12:11:57	12:17:39	332736	5c50046b2b89f500015e5f6b	3	1	main_slash	7	advance_on_keypress_SLASH	70	stimuli_target_diamondrectangles.svg	stimuli_distractor_diamondtriangles.svg	23	yes	57	0	398	0	0			0	0			1				0	
6.6.1	win	2023-06-23	12:11:57	12:17:41	334609	5c50046b2b89f500015e5f6b	3	1	main_slash	7	main_slash	71	stimuli_distractor_trianglediamonds.svg	stimuli_target_rectanglediamonds.svg	10	yes	53	1	822	0	0			0	0			1				0	
6.6.1	win	2023-06-23	12:11:57	12:17:41	334609	5c50046b2b89f500015e5f6b	3	1	main_slash	7	advance_on_keypress_SLASH	72	stimuli_distractor_trianglediamonds.svg	stimuli_target_rectanglediamonds.svg	10	yes	57	0	380	0	0			0	0			1				0	
6.6.1	win	2023-06-23	12:11:57	12:17:43	336490	5c50046b2b89f500015e5f6b	3	1	main_slash	7	main_slash	73	stimuli_target_trianglesquares.svg	stimuli_distractor_diamondtriangles.svg	22	yes	53	1	853	0	0			0	0			1				0	
6.6.1	win	2023-06-23	12:11:57	12:17:43	336490	5c50046b2b89f500015e5f6b	3	1	main_slash	7	advance_on_keypress_SLASH	74	stimuli_target_trianglesquares.svg	stimuli_distractor_diamondtriangles.svg	22	yes	57	0	469	0	0			0	0			1				0	
6.6.1	win	2023-06-23	12:11:57	12:17:46	339603	5c50046b2b89f500015e5f6b	3	1	main_slash	7	main_slash	75	stimuli_distractor_diamondtriangles.svg	stimuli_distractor_diamondtriangles.svg	39	no	0	1	2000	0	0			0	0			1				0	
6.6.1	win	2023-06-23	12:11:57	12:17:46	339603	5c50046b2b89f500015e5f6b	3	1	main_slash	7	advance_on_keypress_SLASH	76	stimuli_distractor_diamondtriangles.svg	stimuli_distractor_diamondtriangles.svg	39	no	57	0	363	0	0			0	0			1				0	
6.6.1	win	2023-06-23	12:11:57	12:17:47	341415	5c50046b2b89f500015e5f6b	3	1	main_slash	7	main_slash	77	stimuli_target_squarediamonds.svg	stimuli_distractor_diamondtriangles.svg	8	yes	53	1	793	0	0			0	0			1				0	
6.6.1	win	2023-06-23	12:11:57	12:17:47	341415	5c50046b2b89f500015e5f6b	3	1	main_slash	7	advance_on_keypress_SLASH	78	stimuli_target_squarediamonds.svg	stimuli_distractor_diamondtriangles.svg	8	yes	57	0	384	0	0			0	0			1				0	
6.6.1	win	2023-06-23	12:11:57	12:17:51	344453	5c50046b2b89f500015e5f6b	3	1	main_slash	7	main_slash	79	stimuli_distractor_diamondtriangles.svg	stimuli_distractor_trianglediamonds.svg	37	no	0	1	2000	0	0			0	0			1				0	
6.6.1	win	2023-06-23	12:11:57	12:17:51	344453	5c50046b2b89f500015e5f6b	3	1	main_slash	7	advance_on_keypress_SLASH	80	stimuli_distractor_diamondtriangles.svg	stimuli_distractor_trianglediamonds.svg	37	no	57	0	318	0	0			0	0			1				0	
6.6.1	win	2023-06-23	12:11:57	12:17:53	347419	5c50046b2b89f500015e5f6b	3	1	main_slash	7	main_slash	81	stimuli_target_trianglerectangles.svg	stimuli_distractor_trianglediamonds.svg	17	yes	0	0	2000	0	0			0	0			1				0	
6.6.1	win	2023-06-23	12:11:57	12:17:53	347419	5c50046b2b89f500015e5f6b	3	1	main_slash	7	advance_on_keypress_SLASH	82	stimuli_target_trianglerectangles.svg	stimuli_distractor_trianglediamonds.svg	17	yes	57	0	365	0	0			0	0			1				0	
6.6.1	win	2023-06-23	12:11:57	12:17:56	350436	5c50046b2b89f500015e5f6b	3	1	main_slash	7	main_slash	83	stimuli_distractor_diamondtriangles.svg	stimuli_distractor_diamondtriangles.svg	39	no	0	1	2000	0	0			0	0			1				0	
6.6.1	win	2023-06-23	12:11:57	12:17:56	350436	5c50046b2b89f500015e5f6b	3	1	main_slash	7	advance_on_keypress_SLASH	84	stimuli_distractor_diamondtriangles.svg	stimuli_distractor_diamondtriangles.svg	39	no	57	0	325	0	0			0	0			1				0	
6.6.1	win	2023-06-23	12:11:57	12:17:59	353402	5c50046b2b89f500015e5f6b	3	1	main_slash	7	main_slash	85	stimuli_distractor_diamondtriangles.svg	stimuli_distractor_diamondtriangles.svg	40	no	0	1	2000	0	0			0	0			1				0	
6.6.1	win	2023-06-23	12:11:57	12:17:59	353402	5c50046b2b89f500015e5f6b	3	1	main_slash	7	advance_on_keypress_SLASH	86	stimuli_distractor_diamondtriangles.svg	stimuli_distractor_diamondtriangles.svg	40	no	57	0	428	0	0			0	0			1				0	
6.6.1	win	2023-06-23	12:11:57	12:18:01	355306	5c50046b2b89f500015e5f6b	3	1	main_slash	7	main_slash	87	stimuli_target_rectangletriangles.svg	stimuli_distractor_trianglediamonds.svg	1	yes	53	1	820	0	0			0	0			1				0	
6.6.1	win	2023-06-23	12:11:57	12:18:01	355306	5c50046b2b89f500015e5f6b	3	1	main_slash	7	advance_on_keypress_SLASH	88	stimuli_target_rectangletriangles.svg	stimuli_distractor_trianglediamonds.svg	1	yes	57	0	626	0	0			0	0			1				0	
6.6.1	win	2023-06-23	12:11:57	12:18:03	357423	5c50046b2b89f500015e5f6b	3	1	main_slash	7	main_slash	89	stimuli_distractor_diamondtriangles.svg	stimuli_target_squaretriangles.svg	15	yes	53	1	839	0	0			0	0			1				0	
6.6.1	win	2023-06-23	12:11:57	12:18:03	357423	5c50046b2b89f500015e5f6b	3	1	main_slash	7	advance_on_keypress_SLASH	90	stimuli_distractor_diamondtriangles.svg	stimuli_target_squaretriangles.svg	15	yes	57	0	462	0	0			0	0			1				0	
6.6.1	win	2023-06-23	12:11:57	12:18:05	359378	5c50046b2b89f500015e5f6b	3	1	main_slash	7	main_slash	91	stimuli_distractor_diamondtriangles.svg	stimuli_target_rectanglediamonds.svg	14	yes	53	1	844	0	0			0	0			1				0	
6.6.1	win	2023-06-23	12:11:57	12:18:05	359378	5c50046b2b89f500015e5f6b	3	1	main_slash	7	advance_on_keypress_SLASH	92	stimuli_distractor_diamondtriangles.svg	stimuli_target_rectanglediamonds.svg	14	yes	57	0	508	0	0			0	0			1				0	
6.6.1	win	2023-06-23	12:11:57	12:18:07	361416	5c50046b2b89f500015e5f6b	3	1	main_slash	7	main_slash	93	stimuli_target_trianglerectangles.svg	stimuli_distractor_diamondtriangles.svg	21	yes	53	1	899	0	0			0	0			1				0	
6.6.1	win	2023-06-23	12:11:57	12:18:07	361416	5c50046b2b89f500015e5f6b	3	1	main_slash	7	advance_on_keypress_SLASH	94	stimuli_target_trianglerectangles.svg	stimuli_distractor_diamondtriangles.svg	21	yes	57	0	416	0	0			0	0			1				0	
6.6.1	win	2023-06-23	12:11:57	12:18:10	363443	5c50046b2b89f500015e5f6b	3	1	main_slash	7	main_slash	95	stimuli_target_diamondrectangles.svg	stimuli_distractor_diamondtriangles.svg	23	yes	53	1	960	0	0			0	0			1				0	
6.6.1	win	2023-06-23	12:11:57	12:18:10	363443	5c50046b2b89f500015e5f6b	3	1	main_slash	7	advance_on_keypress_SLASH	96	stimuli_target_diamondrectangles.svg	stimuli_distractor_diamondtriangles.svg	23	yes	57	0	480	0	0			0	0			1				0	
6.6.1	win	2023-06-23	12:11:57	12:18:12	365505	5c50046b2b89f500015e5f6b	3	1	main_slash	7	main_slash	97	stimuli_distractor_trianglediamonds.svg	stimuli_target_squarediamonds.svg	12	yes	53	1	937	0	0			0	0			1				0	
6.6.1	win	2023-06-23	12:11:57	12:18:12	365505	5c50046b2b89f500015e5f6b	3	1	main_slash	7	advance_on_keypress_SLASH	98	stimuli_distractor_trianglediamonds.svg	stimuli_target_squarediamonds.svg	12	yes	57	0	399	0	0			0	0			1				0	
6.6.1	win	2023-06-23	12:11:57	12:18:13	367418	5c50046b2b89f500015e5f6b	3	1	main_slash	7	main_slash	99	stimuli_distractor_diamondtriangles.svg	stimuli_target_trianglesquares.svg	30	yes	53	1	868	0	0			0	0			1				0	
6.6.1	win	2023-06-23	12:11:57	12:18:13	367418	5c50046b2b89f500015e5f6b	3	1	main_slash	7	advance_on_keypress_SLASH	100	stimuli_distractor_diamondtriangles.svg	stimuli_target_trianglesquares.svg	30	yes	57	0	440	0	0			0	0			1				0	
6.6.1	win	2023-06-23	12:11:57	12:18:17	370500	5c50046b2b89f500015e5f6b	3	1	main_slash	7	main_slash	101	stimuli_distractor_trianglediamonds.svg	stimuli_distractor_trianglediamonds.svg	33	no	0	1	2000	0	0			0	0			1				0	
6.6.1	win	2023-06-23	12:11:57	12:18:17	370500	5c50046b2b89f500015e5f6b	3	1	main_slash	7	advance_on_keypress_SLASH	102	stimuli_distractor_trianglediamonds.svg	stimuli_distractor_trianglediamonds.svg	33	no	57	0	296	0	0			0	0			1				0	
6.6.1	win	2023-06-23	12:11:57	12:18:20	373449	5c50046b2b89f500015e5f6b	3	1	main_slash	7	main_slash	103	stimuli_distractor_diamondtriangles.svg	stimuli_distractor_trianglediamonds.svg	37	no	0	1	2000	0	0			0	0			1				0	
6.6.1	win	2023-06-23	12:11:57	12:18:20	373449	5c50046b2b89f500015e5f6b	3	1	main_slash	7	advance_on_keypress_SLASH	104	stimuli_distractor_diamondtriangles.svg	stimuli_distractor_trianglediamonds.svg	37	no	57	0	369	0	0			0	0			1				0	
6.6.1	win	2023-06-23	12:11:57	12:18:23	376465	5c50046b2b89f500015e5f6b	3	1	main_slash	7	main_slash	105	stimuli_distractor_trianglediamonds.svg	stimuli_distractor_diamondtriangles.svg	35	no	0	1	2000	0	0			0	0			1				0	
6.6.1	win	2023-06-23	12:11:57	12:18:23	376465	5c50046b2b89f500015e5f6b	3	1	main_slash	7	advance_on_keypress_SLASH	106	stimuli_distractor_trianglediamonds.svg	stimuli_distractor_diamondtriangles.svg	35	no	57	0	345	0	0			0	0			1				0	
6.6.1	win	2023-06-23	12:11:57	12:18:24	378398	5c50046b2b89f500015e5f6b	3	1	main_slash	7	main_slash	107	stimuli_distractor_trianglediamonds.svg	stimuli_target_rectanglediamonds.svg	10	yes	53	1	933	0	0			0	0			1				0	
6.6.1	win	2023-06-23	12:11:57	12:18:24	378398	5c50046b2b89f500015e5f6b	3	1	main_slash	7	advance_on_keypress_SLASH	108	stimuli_distractor_trianglediamonds.svg	stimuli_target_rectanglediamonds.svg	10	yes	57	0	383	0	0			0	0			1				0	
6.6.1	win	2023-06-23	12:11:57	12:18:26	380268	5c50046b2b89f500015e5f6b	3	1	main_slash	7	main_slash	109	stimuli_target_trianglesquares.svg	stimuli_distractor_diamondtriangles.svg	22	yes	53	1	836	0	0			0	0			1				0	
6.6.1	win	2023-06-23	12:11:57	12:18:26	380268	5c50046b2b89f500015e5f6b	3	1	main_slash	7	advance_on_keypress_SLASH	110	stimuli_target_trianglesquares.svg	stimuli_distractor_diamondtriangles.svg	22	yes	57	0	420	0	0			0	0			1				0	
6.6.1	win	2023-06-23	12:11:57	12:18:28	382190	5c50046b2b89f500015e5f6b	3	1	main_slash	7	main_slash	111	stimuli_distractor_diamondtriangles.svg	stimuli_target_rectangletriangles.svg	13	yes	53	1	860	0	0			0	0			1				0	
6.6.1	win	2023-06-23	12:11:57	12:18:28	382190	5c50046b2b89f500015e5f6b	3	1	main_slash	7	advance_on_keypress_SLASH	112	stimuli_distractor_diamondtriangles.svg	stimuli_target_rectangletriangles.svg	13	yes	57	0	396	0	0			0	0			1				0	
6.6.1	win	2023-06-23	12:11:57	12:18:30	384105	5c50046b2b89f500015e5f6b	3	1	main_slash	7	main_slash	113	stimuli_target_squarediamonds.svg	stimuli_distractor_diamondtriangles.svg	8	yes	53	1	874	0	0			0	0			1				0	
6.6.1	win	2023-06-23	12:11:57	12:18:30	384105	5c50046b2b89f500015e5f6b	3	1	main_slash	7	advance_on_keypress_SLASH	114	stimuli_target_squarediamonds.svg	stimuli_distractor_diamondtriangles.svg	8	yes	57	0	385	0	0			0	0			1				0	
6.6.1	win	2023-06-23	12:11:57	12:18:32	385993	5c50046b2b89f500015e5f6b	3	1	main_slash	7	main_slash	115	stimuli_distractor_trianglediamonds.svg	stimuli_target_trianglesquares.svg	26	yes	53	1	863	0	0			0	0			1				0	
6.6.1	win	2023-06-23	12:11:57	12:18:32	385993	5c50046b2b89f500015e5f6b	3	1	main_slash	7	advance_on_keypress_SLASH	116	stimuli_distractor_trianglediamonds.svg	stimuli_target_trianglesquares.svg	26	yes	57	0	400	0	0			0	0			1				0	
6.6.1	win	2023-06-23	12:11:57	12:18:35	389047	5c50046b2b89f500015e5f6b	3	1	main_slash	7	main_slash	117	stimuli_distractor_trianglediamonds.svg	stimuli_distractor_diamondtriangles.svg	36	no	0	1	2000	0	0			0	0			1				0	
6.6.1	win	2023-06-23	12:11:57	12:18:35	389047	5c50046b2b89f500015e5f6b	3	1	main_slash	7	advance_on_keypress_SLASH	118	stimuli_distractor_trianglediamonds.svg	stimuli_distractor_diamondtriangles.svg	36	no	57	0	307	0	0			0	0			1				0	
6.6.1	win	2023-06-23	12:11:57	12:18:37	390869	5c50046b2b89f500015e5f6b	3	1	main_slash	7	main_slash	119	stimuli_target_rectanglediamonds.svg	stimuli_distractor_trianglediamonds.svg	2	yes	53	1	872	0	0			0	0			1				0	
6.6.1	win	2023-06-23	12:11:57	12:18:37	390869	5c50046b2b89f500015e5f6b	3	1	main_slash	7	advance_on_keypress_SLASH	120	stimuli_target_rectanglediamonds.svg	stimuli_distractor_trianglediamonds.svg	2	yes	57	0	390	0	0			0	0			1				0	
6.6.1	win	2023-06-23	12:11:57	12:18:40	393897	5c50046b2b89f500015e5f6b	3	1	main_slash	7	main_slash	121	stimuli_distractor_trianglediamonds.svg	stimuli_distractor_trianglediamonds.svg	34	no	0	1	2000	0	0			0	0			1				0	
6.6.1	win	2023-06-23	12:11:57	12:18:40	393897	5c50046b2b89f500015e5f6b	3	1	main_slash	7	advance_on_keypress_SLASH	122	stimuli_distractor_trianglediamonds.svg	stimuli_distractor_trianglediamonds.svg	34	no	57	0	355	0	0			0	0			1				0	
6.6.1	win	2023-06-23	12:11:57	12:18:42	395794	5c50046b2b89f500015e5f6b	3	1	main_slash	7	main_slash	123	stimuli_distractor_diamondtriangles.svg	stimuli_target_diamondrectangles.svg	31	yes	53	1	898	0	0			0	0			1				0	
6.6.1	win	2023-06-23	12:11:57	12:18:42	395794	5c50046b2b89f500015e5f6b	3	1	main_slash	7	advance_on_keypress_SLASH	124	stimuli_distractor_diamondtriangles.svg	stimuli_target_diamondrectangles.svg	31	yes	57	0	298	0	0			0	0			1				0	
6.6.1	win	2023-06-23	12:11:57	12:18:44	397661	5c50046b2b89f500015e5f6b	3	1	main_slash	7	main_slash	125	stimuli_target_rectanglediamonds.svg	stimuli_distractor_diamondtriangles.svg	6	yes	53	1	914	0	0			0	0			1				0	
6.6.1	win	2023-06-23	12:11:57	12:18:44	397661	5c50046b2b89f500015e5f6b	3	1	main_slash	7	advance_on_keypress_SLASH	126	stimuli_target_rectanglediamonds.svg	stimuli_distractor_diamondtriangles.svg	6	yes	57	0	811	0	0			0	0			1				0	
6.6.1	win	2023-06-23	12:11:57	12:18:46	400042	5c50046b2b89f500015e5f6b	3	1	main_slash	7	main_slash	127	stimuli_distractor_trianglediamonds.svg	stimuli_target_trianglerectangles.svg	25	yes	53	1	913	0	0			0	0			1				0	
6.6.1	win	2023-06-23	12:11:57	12:18:46	400042	5c50046b2b89f500015e5f6b	3	1	main_slash	7	advance_on_keypress_SLASH	128	stimuli_distractor_trianglediamonds.svg	stimuli_target_trianglerectangles.svg	25	yes	57	0	326	0	0			0	0			1				0	
6.6.1	win	2023-06-23	12:11:57	12:18:48	402026	5c50046b2b89f500015e5f6b	3	1	main_slash	7	main_slash	129	stimuli_distractor_trianglediamonds.svg	stimuli_target_diamondsquares.svg	28	yes	53	1	1014	0	0			0	0			1				0	
6.6.1	win	2023-06-23	12:11:57	12:18:48	402026	5c50046b2b89f500015e5f6b	3	1	main_slash	7	advance_on_keypress_SLASH	130	stimuli_distractor_trianglediamonds.svg	stimuli_target_diamondsquares.svg	28	yes	57	0	1061	0	0			0	0			1				0	
6.6.1	win	2023-06-23	12:11:57	12:18:51	404725	5c50046b2b89f500015e5f6b	3	1	main_slash	7	main_slash	131	stimuli_distractor_diamondtriangles.svg	stimuli_target_diamondsquares.svg	32	yes	53	1	998	0	0			0	0			1				0	
6.6.1	win	2023-06-23	12:11:57	12:18:51	404725	5c50046b2b89f500015e5f6b	3	1	main_slash	7	advance_on_keypress_SLASH	132	stimuli_distractor_diamondtriangles.svg	stimuli_target_diamondsquares.svg	32	yes	57	0	604	0	0			0	0			1				0	
6.6.1	win	2023-06-23	12:11:57	12:18:53	406761	5c50046b2b89f500015e5f6b	3	1	main_slash	7	main_slash	133	stimuli_target_diamondsquares.svg	stimuli_distractor_diamondtriangles.svg	24	yes	53	1	784	0	0			0	0			1				0	
6.6.1	win	2023-06-23	12:11:57	12:18:53	406761	5c50046b2b89f500015e5f6b	3	1	main_slash	7	advance_on_keypress_SLASH	134	stimuli_target_diamondsquares.svg	stimuli_distractor_diamondtriangles.svg	24	yes	57	0	436	0	0			0	0			1				0	
6.6.1	win	2023-06-23	12:11:57	12:18:55	408712	5c50046b2b89f500015e5f6b	3	1	main_slash	7	main_slash	135	stimuli_distractor_trianglediamonds.svg	stimuli_target_squaretriangles.svg	11	yes	53	1	867	0	0			0	0			1				0	
6.6.1	win	2023-06-23	12:11:57	12:18:55	408712	5c50046b2b89f500015e5f6b	3	1	main_slash	7	advance_on_keypress_SLASH	136	stimuli_distractor_trianglediamonds.svg	stimuli_target_squaretriangles.svg	11	yes	57	0	341	0	0			0	0			1				0	
6.6.1	win	2023-06-23	12:11:57	12:18:57	410640	5c50046b2b89f500015e5f6b	3	1	main_slash	7	main_slash	137	stimuli_target_trianglesquares.svg	stimuli_distractor_trianglediamonds.svg	18	yes	53	1	947	0	0			0	0			1				0	
6.6.1	win	2023-06-23	12:11:57	12:18:57	410640	5c50046b2b89f500015e5f6b	3	1	main_slash	7	advance_on_keypress_SLASH	138	stimuli_target_trianglesquares.svg	stimuli_distractor_trianglediamonds.svg	18	yes	57	0	603	0	0			0	0			1				0	
6.6.1	win	2023-06-23	12:11:57	12:18:59	412854	5c50046b2b89f500015e5f6b	3	1	main_slash	7	main_slash	139	stimuli_target_squaretriangles.svg	stimuli_distractor_diamondtriangles.svg	7	yes	53	1	961	0	0			0	0			1				0	
6.6.1	win	2023-06-23	12:11:57	12:18:59	412854	5c50046b2b89f500015e5f6b	3	1	main_slash	7	advance_on_keypress_SLASH	140	stimuli_target_squaretriangles.svg	stimuli_distractor_diamondtriangles.svg	7	yes	57	0	433	0	0			0	0			1				0	
6.6.1	win	2023-06-23	12:11:57	12:19:01	414860	5c50046b2b89f500015e5f6b	3	1	main_slash	7	main_slash	141	stimuli_distractor_trianglediamonds.svg	stimuli_target_diamondrectangles.svg	27	yes	53	1	933	0	0			0	0			1				0	
6.6.1	win	2023-06-23	12:11:57	12:19:01	414860	5c50046b2b89f500015e5f6b	3	1	main_slash	7	advance_on_keypress_SLASH	142	stimuli_distractor_trianglediamonds.svg	stimuli_target_diamondrectangles.svg	27	yes	57	0	423	0	0			0	0			1				0	
6.6.1	win	2023-06-23	12:11:57	12:19:03	416761	5c50046b2b89f500015e5f6b	3	1	main_slash	7	main_slash	143	stimuli_distractor_diamondtriangles.svg	stimuli_target_squarediamonds.svg	16	yes	53	1	836	0	0			0	0			1				0	
6.6.1	win	2023-06-23	12:11:57	12:19:03	416761	5c50046b2b89f500015e5f6b	3	1	main_slash	7	advance_on_keypress_SLASH	144	stimuli_distractor_diamondtriangles.svg	stimuli_target_squarediamonds.svg	16	yes	57	0	254	0	0			0	0			1				0	
6.6.1	win	2023-06-23	12:11:57	12:19:05	418520	5c50046b2b89f500015e5f6b	3	1	main_slash	7	main_slash	145	stimuli_target_squaretriangles.svg	stimuli_distractor_trianglediamonds.svg	3	yes	53	1	862	0	0			0	0			1				0	
6.6.1	win	2023-06-23	12:11:57	12:19:05	418520	5c50046b2b89f500015e5f6b	3	1	main_slash	7	advance_on_keypress_SLASH	146	stimuli_target_squaretriangles.svg	stimuli_distractor_trianglediamonds.svg	3	yes	57	0	397	0	0			0	0			1				0	
6.6.1	win	2023-06-23	12:11:57	12:19:08	421558	5c50046b2b89f500015e5f6b	3	1	main_slash	7	main_slash	147	stimuli_distractor_diamondtriangles.svg	stimuli_distractor_trianglediamonds.svg	38	no	0	1	2000	0	0			0	0			1				0	
6.6.1	win	2023-06-23	12:11:57	12:19:08	421558	5c50046b2b89f500015e5f6b	3	1	main_slash	7	advance_on_keypress_SLASH	148	stimuli_distractor_diamondtriangles.svg	stimuli_distractor_trianglediamonds.svg	38	no	57	0	291	0	0			0	0			1				0	
6.6.1	win	2023-06-23	12:11:57	12:19:09	423414	5c50046b2b89f500015e5f6b	3	1	main_slash	7	main_slash	149	stimuli_distractor_diamondtriangles.svg	stimuli_target_trianglerectangles.svg	29	yes	53	1	922	0	0			0	0			1				0	
6.6.1	win	2023-06-23	12:11:57	12:19:09	423414	5c50046b2b89f500015e5f6b	3	1	main_slash	7	advance_on_keypress_SLASH	150	stimuli_distractor_diamondtriangles.svg	stimuli_target_trianglerectangles.svg	29	yes	57	0	293	0	0			0	0			1				0	
6.6.1	win	2023-06-23	12:11:57	12:19:11	425331	5c50046b2b89f500015e5f6b	3	1	main_slash	7	main_slash	151	stimuli_target_rectangletriangles.svg	stimuli_distractor_diamondtriangles.svg	5	yes	53	1	990	0	0			0	0			1				0	
6.6.1	win	2023-06-23	12:11:57	12:19:11	425331	5c50046b2b89f500015e5f6b	3	1	main_slash	7	advance_on_keypress_SLASH	152	stimuli_target_rectangletriangles.svg	stimuli_distractor_diamondtriangles.svg	5	yes	57	0	423	0	0			0	0			1				0	
6.6.1	win	2023-06-23	12:11:57	12:19:13	427410	5c50046b2b89f500015e5f6b	3	1	main_slash	7	main_slash	153	stimuli_target_diamondsquares.svg	stimuli_distractor_trianglediamonds.svg	20	yes	53	1	1018	0	0			0	0			1				0	
6.6.1	win	2023-06-23	12:11:57	12:19:13	427410	5c50046b2b89f500015e5f6b	3	1	main_slash	7	advance_on_keypress_SLASH	154	stimuli_target_diamondsquares.svg	stimuli_distractor_trianglediamonds.svg	20	yes	57	0	437	0	0			0	0			1				0	
6.6.1	win	2023-06-23	12:11:57	12:19:15	429409	5c50046b2b89f500015e5f6b	3	1	main_slash	7	main_slash	155	stimuli_target_diamondrectangles.svg	stimuli_distractor_trianglediamonds.svg	19	yes	53	1	917	0	0			0	0			1				0	
6.6.1	win	2023-06-23	12:11:57	12:19:15	429409	5c50046b2b89f500015e5f6b	3	1	main_slash	7	advance_on_keypress_SLASH	156	stimuli_target_diamondrectangles.svg	stimuli_distractor_trianglediamonds.svg	19	yes	57	0	384	0	0			0	0			1				0	
6.6.1	win	2023-06-23	12:11:57	12:19:17	431379	5c50046b2b89f500015e5f6b	3	1	main_slash	7	main_slash	157	stimuli_target_squarediamonds.svg	stimuli_distractor_trianglediamonds.svg	4	yes	53	1	938	0	0			0	0			1				0	
6.6.1	win	2023-06-23	12:11:57	12:19:17	431379	5c50046b2b89f500015e5f6b	3	1	main_slash	7	advance_on_keypress_SLASH	158	stimuli_target_squarediamonds.svg	stimuli_distractor_trianglediamonds.svg	4	yes	57	0	361	0	0			0	0			1				0	
6.6.1	win	2023-06-23	12:11:57	12:19:19	433385	5c50046b2b89f500015e5f6b	3	1	main_slash	7	main_slash	159	stimuli_distractor_trianglediamonds.svg	stimuli_target_rectangletriangles.svg	9	yes	53	1	1010	0	0			0	0			1				0	
6.6.1	win	2023-06-23	12:11:57	12:19:19	433385	5c50046b2b89f500015e5f6b	3	1	main_slash	7	advance_on_keypress_SLASH	160	stimuli_distractor_trianglediamonds.svg	stimuli_target_rectangletriangles.svg	9	yes	57	0	502	0	0			0	0			1				0	
6.6.1	win	2023-06-23	12:11:57	12:19:45	459191	5c50046b2b89f500015e5f6b	3	1	practice_z	9	practice_z	1	stimuli_distractor_trianglediamonds.svg	stimuli_distractor_diamondtriangles.svg	16	no	0	1	2000	0	0			0	0			1				0	
6.6.1	win	2023-06-23	12:11:57	12:19:45	459191	5c50046b2b89f500015e5f6b	3	1	practice_z	9	advance_on_keypress_ZEE	2	stimuli_distractor_trianglediamonds.svg	stimuli_distractor_diamondtriangles.svg	16	no	57	0	361	0	0			0	0			1				0	
6.6.1	win	2023-06-23	12:11:57	12:19:48	462123	5c50046b2b89f500015e5f6b	3	1	practice_z	9	practice_z	3	stimuli_target_diamondsquares.svg	stimuli_distractor_trianglediamonds.svg	6	yes	44	1	918	0	0			0	0			1				0	
6.6.1	win	2023-06-23	12:11:57	12:19:48	462123	5c50046b2b89f500015e5f6b	3	1	practice_z	9	advance_on_keypress_ZEE	4	stimuli_target_diamondsquares.svg	stimuli_distractor_trianglediamonds.svg	6	yes	57	0	592	0	0			0	0			1				0	
6.6.1	win	2023-06-23	12:11:57	12:19:52	466355	5c50046b2b89f500015e5f6b	3	1	practice_z	9	practice_z	5	stimuli_distractor_diamondtriangles.svg	stimuli_distractor_diamondtriangles.svg	13	no	0	1	2000	0	0			0	0			1				0	
6.6.1	win	2023-06-23	12:11:57	12:19:52	466355	5c50046b2b89f500015e5f6b	3	1	practice_z	9	advance_on_keypress_ZEE	6	stimuli_distractor_diamondtriangles.svg	stimuli_distractor_diamondtriangles.svg	13	no	57	0	297	0	0			0	0			1				0	
6.6.1	win	2023-06-23	12:11:57	12:19:56	469586	5c50046b2b89f500015e5f6b	3	1	practice_z	9	practice_z	7	stimuli_distractor_diamondtriangles.svg	stimuli_target_trianglerectangles.svg	9	yes	44	1	1281	0	0			0	0			1				0	
6.6.1	win	2023-06-23	12:11:57	12:19:56	469586	5c50046b2b89f500015e5f6b	3	1	practice_z	9	advance_on_keypress_ZEE	8	stimuli_distractor_diamondtriangles.svg	stimuli_target_trianglerectangles.svg	9	yes	57	0	544	0	0			0	0			1				0	
6.6.1	win	2023-06-23	12:11:57	12:19:59	473033	5c50046b2b89f500015e5f6b	3	1	practice_z	9	practice_z	9	stimuli_target_rectanglediamonds.svg	stimuli_distractor_diamondtriangles.svg	1	yes	44	1	1263	0	0			0	0			1				0	
6.6.1	win	2023-06-23	12:11:57	12:19:59	473033	5c50046b2b89f500015e5f6b	3	1	practice_z	9	advance_on_keypress_ZEE	10	stimuli_target_rectanglediamonds.svg	stimuli_distractor_diamondtriangles.svg	1	yes	57	0	508	0	0			0	0			1				0	
6.6.1	win	2023-06-23	12:11:57	12:20:02	476010	5c50046b2b89f500015e5f6b	3	1	practice_z	9	practice_z	11	stimuli_target_squarediamonds.svg	stimuli_distractor_diamondtriangles.svg	2	yes	44	1	822	0	0			0	0			1				0	
6.6.1	win	2023-06-23	12:11:57	12:20:02	476010	5c50046b2b89f500015e5f6b	3	1	practice_z	9	advance_on_keypress_ZEE	12	stimuli_target_squarediamonds.svg	stimuli_distractor_diamondtriangles.svg	2	yes	57	0	294	0	0			0	0			1				0	
6.6.1	win	2023-06-23	12:11:57	12:20:06	479953	5c50046b2b89f500015e5f6b	3	1	practice_z	9	practice_z	13	stimuli_distractor_diamondtriangles.svg	stimuli_distractor_trianglediamonds.svg	14	no	0	1	2000	0	0			0	0			1				0	
6.6.1	win	2023-06-23	12:11:57	12:20:06	479953	5c50046b2b89f500015e5f6b	3	1	practice_z	9	advance_on_keypress_ZEE	14	stimuli_distractor_diamondtriangles.svg	stimuli_distractor_trianglediamonds.svg	14	no	57	0	415	0	0			0	0			1				0	
6.6.1	win	2023-06-23	12:11:57	12:20:09	482881	5c50046b2b89f500015e5f6b	3	1	practice_z	9	practice_z	15	stimuli_distractor_trianglediamonds.svg	stimuli_target_diamondrectangles.svg	12	yes	44	1	861	0	0			0	0			1				0	
6.6.1	win	2023-06-23	12:11:57	12:20:09	482881	5c50046b2b89f500015e5f6b	3	1	practice_z	9	advance_on_keypress_ZEE	16	stimuli_distractor_trianglediamonds.svg	stimuli_target_diamondrectangles.svg	12	yes	57	0	283	0	0			0	0			1				0	
6.6.1	win	2023-06-23	12:11:57	12:20:12	485647	5c50046b2b89f500015e5f6b	3	1	practice_z	9	practice_z	17	stimuli_distractor_trianglediamonds.svg	stimuli_target_squarediamonds.svg	11	yes	44	1	829	0	0			0	0			1				0	
6.6.1	win	2023-06-23	12:11:57	12:20:12	485647	5c50046b2b89f500015e5f6b	3	1	practice_z	9	advance_on_keypress_ZEE	18	stimuli_distractor_trianglediamonds.svg	stimuli_target_squarediamonds.svg	11	yes	57	0	562	0	0			0	0			1				0	
6.6.1	win	2023-06-23	12:11:57	12:20:15	488718	5c50046b2b89f500015e5f6b	3	1	practice_z	9	practice_z	19	stimuli_distractor_trianglediamonds.svg	stimuli_target_rectanglediamonds.svg	10	yes	44	1	850	0	0			0	0			1				0	
6.6.1	win	2023-06-23	12:11:57	12:20:15	488718	5c50046b2b89f500015e5f6b	3	1	practice_z	9	advance_on_keypress_ZEE	20	stimuli_distractor_trianglediamonds.svg	stimuli_target_rectanglediamonds.svg	10	yes	57	0	380	0	0			0	0			1				0	
6.6.1	win	2023-06-23	12:11:57	12:20:19	492751	5c50046b2b89f500015e5f6b	3	1	practice_z	9	practice_z	21	stimuli_distractor_trianglediamonds.svg	stimuli_distractor_trianglediamonds.svg	15	no	0	1	2000	0	0			0	0			1				0	
6.6.1	win	2023-06-23	12:11:57	12:20:19	492751	5c50046b2b89f500015e5f6b	3	1	practice_z	9	advance_on_keypress_ZEE	22	stimuli_distractor_trianglediamonds.svg	stimuli_distractor_trianglediamonds.svg	15	no	57	0	324	0	0			0	0			1				0	
6.6.1	win	2023-06-23	12:11:57	12:20:21	495233	5c50046b2b89f500015e5f6b	3	1	practice_z	9	practice_z	23	stimuli_distractor_diamondtriangles.svg	stimuli_target_rectangletriangles.svg	7	yes	44	1	509	0	0			0	0			1				0	
6.6.1	win	2023-06-23	12:11:57	12:20:21	495233	5c50046b2b89f500015e5f6b	3	1	practice_z	9	advance_on_keypress_ZEE	24	stimuli_distractor_diamondtriangles.svg	stimuli_target_rectangletriangles.svg	7	yes	57	0	312	0	0			0	0			1				0	
6.6.1	win	2023-06-23	12:11:57	12:20:24	497714	5c50046b2b89f500015e5f6b	3	1	practice_z	9	practice_z	25	stimuli_target_rectanglediamonds.svg	stimuli_distractor_trianglediamonds.svg	4	yes	44	1	504	0	0			0	0			1				0	
6.6.1	win	2023-06-23	12:11:57	12:20:24	497714	5c50046b2b89f500015e5f6b	3	1	practice_z	9	advance_on_keypress_ZEE	26	stimuli_target_rectanglediamonds.svg	stimuli_distractor_trianglediamonds.svg	4	yes	57	0	284	0	0			0	0			1				0	
6.6.1	win	2023-06-23	12:11:57	12:20:26	500174	5c50046b2b89f500015e5f6b	3	1	practice_z	9	practice_z	27	stimuli_target_diamondsquares.svg	stimuli_distractor_diamondtriangles.svg	3	yes	44	1	524	0	0			0	0			1				0	
6.6.1	win	2023-06-23	12:11:57	12:20:26	500174	5c50046b2b89f500015e5f6b	3	1	practice_z	9	advance_on_keypress_ZEE	28	stimuli_target_diamondsquares.svg	stimuli_distractor_diamondtriangles.svg	3	yes	57	0	266	0	0			0	0			1				0	
6.6.1	win	2023-06-23	12:11:57	12:20:29	502514	5c50046b2b89f500015e5f6b	3	1	practice_z	9	practice_z	29	stimuli_distractor_diamondtriangles.svg	stimuli_target_diamondrectangles.svg	8	yes	44	1	432	0	0			0	0			1				0	
6.6.1	win	2023-06-23	12:11:57	12:20:29	502514	5c50046b2b89f500015e5f6b	3	1	practice_z	9	advance_on_keypress_ZEE	30	stimuli_distractor_diamondtriangles.svg	stimuli_target_diamondrectangles.svg	8	yes	57	0	245	0	0			0	0			1				0	
6.6.1	win	2023-06-23	12:11:57	12:20:31	504814	5c50046b2b89f500015e5f6b	3	1	practice_z	9	practice_z	31	stimuli_target_squarediamonds.svg	stimuli_distractor_trianglediamonds.svg	5	yes	44	1	398	0	0			0	0			1				0	
6.6.1	win	2023-06-23	12:11:57	12:20:31	504814	5c50046b2b89f500015e5f6b	3	1	practice_z	9	advance_on_keypress_ZEE	32	stimuli_target_squarediamonds.svg	stimuli_distractor_trianglediamonds.svg	5	yes	57	0	246	0	0			0	0			1				0	
6.6.1	win	2023-06-23	12:11:57	12:20:35	508464	5c50046b2b89f500015e5f6b	3	1	main_z	11	main_z	1	stimuli_target_trianglerectangles.svg	stimuli_distractor_diamondtriangles.svg	21	yes	44	1	584	0	0			0	0			1				0	
6.6.1	win	2023-06-23	12:11:57	12:20:35	508464	5c50046b2b89f500015e5f6b	3	1	main_z	11	advance_on_keypress_ZEE	2	stimuli_target_trianglerectangles.svg	stimuli_distractor_diamondtriangles.svg	21	yes	57	0	825	0	0			0	0			1				0	
6.6.1	win	2023-06-23	12:11:57	12:20:37	510727	5c50046b2b89f500015e5f6b	3	1	main_z	11	main_z	3	stimuli_target_rectangletriangles.svg	stimuli_distractor_diamondtriangles.svg	5	yes	44	1	797	0	0			0	0			1				0	
6.6.1	win	2023-06-23	12:11:57	12:20:37	510727	5c50046b2b89f500015e5f6b	3	1	main_z	11	advance_on_keypress_ZEE	4	stimuli_target_rectangletriangles.svg	stimuli_distractor_diamondtriangles.svg	5	yes	57	0	465	0	0			0	0			1				0	
6.6.1	win	2023-06-23	12:11:57	12:20:38	512243	5c50046b2b89f500015e5f6b	3	1	main_z	11	main_z	5	stimuli_target_diamondrectangles.svg	stimuli_distractor_diamondtriangles.svg	23	yes	44	1	397	0	0			0	0			1				0	
6.6.1	win	2023-06-23	12:11:57	12:20:38	512243	5c50046b2b89f500015e5f6b	3	1	main_z	11	advance_on_keypress_ZEE	6	stimuli_target_diamondrectangles.svg	stimuli_distractor_diamondtriangles.svg	23	yes	57	0	497	0	0			0	0			1				0	
6.6.1	win	2023-06-23	12:11:57	12:20:41	515396	5c50046b2b89f500015e5f6b	3	1	main_z	11	main_z	7	stimuli_distractor_trianglediamonds.svg	stimuli_distractor_diamondtriangles.svg	36	no	0	1	2000	0	0			0	0			1				0	
6.6.1	win	2023-06-23	12:11:57	12:20:41	515396	5c50046b2b89f500015e5f6b	3	1	main_z	11	advance_on_keypress_ZEE	8	stimuli_distractor_trianglediamonds.svg	stimuli_distractor_diamondtriangles.svg	36	no	57	0	257	0	0			0	0			1				0	
6.6.1	win	2023-06-23	12:11:57	12:20:43	516757	5c50046b2b89f500015e5f6b	3	1	main_z	11	main_z	9	stimuli_distractor_trianglediamonds.svg	stimuli_target_squarediamonds.svg	12	yes	44	1	462	0	0			0	0			1				0	
6.6.1	win	2023-06-23	12:11:57	12:20:43	516757	5c50046b2b89f500015e5f6b	3	1	main_z	11	advance_on_keypress_ZEE	10	stimuli_distractor_trianglediamonds.svg	stimuli_target_squarediamonds.svg	12	yes	57	0	504	0	0			0	0			1				0	
6.6.1	win	2023-06-23	12:11:57	12:20:44	518393	5c50046b2b89f500015e5f6b	3	1	main_z	11	main_z	11	stimuli_distractor_trianglediamonds.svg	stimuli_target_trianglesquares.svg	26	yes	44	1	497	0	0			0	0			1				0	
6.6.1	win	2023-06-23	12:11:57	12:20:44	518393	5c50046b2b89f500015e5f6b	3	1	main_z	11	advance_on_keypress_ZEE	12	stimuli_distractor_trianglediamonds.svg	stimuli_target_trianglesquares.svg	26	yes	57	0	400	0	0			0	0			1				0	
6.6.1	win	2023-06-23	12:11:57	12:20:46	519893	5c50046b2b89f500015e5f6b	3	1	main_z	11	main_z	13	stimuli_target_diamondrectangles.svg	stimuli_distractor_trianglediamonds.svg	19	yes	44	1	447	0	0			0	0			1				0	
6.6.1	win	2023-06-23	12:11:57	12:20:46	519893	5c50046b2b89f500015e5f6b	3	1	main_z	11	advance_on_keypress_ZEE	14	stimuli_target_diamondrectangles.svg	stimuli_distractor_trianglediamonds.svg	19	yes	57	0	390	0	0			0	0			1				0	
6.6.1	win	2023-06-23	12:11:57	12:20:47	521311	5c50046b2b89f500015e5f6b	3	1	main_z	11	main_z	15	stimuli_distractor_diamondtriangles.svg	stimuli_target_rectanglediamonds.svg	14	yes	44	1	370	0	0			0	0			1				0	
6.6.1	win	2023-06-23	12:11:57	12:20:47	521311	5c50046b2b89f500015e5f6b	3	1	main_z	11	advance_on_keypress_ZEE	16	stimuli_distractor_diamondtriangles.svg	stimuli_target_rectanglediamonds.svg	14	yes	57	0	393	0	0			0	0			1				0	
6.6.1	win	2023-06-23	12:11:57	12:20:49	522708	5c50046b2b89f500015e5f6b	3	1	main_z	11	main_z	17	stimuli_distractor_diamondtriangles.svg	stimuli_target_trianglesquares.svg	30	yes	44	1	363	0	0			0	0			1				0	
6.6.1	win	2023-06-23	12:11:57	12:20:49	522708	5c50046b2b89f500015e5f6b	3	1	main_z	11	advance_on_keypress_ZEE	18	stimuli_distractor_diamondtriangles.svg	stimuli_target_trianglesquares.svg	30	yes	57	0	416	0	0			0	0			1				0	
6.6.1	win	2023-06-23	12:11:57	12:20:52	525778	5c50046b2b89f500015e5f6b	3	1	main_z	11	main_z	19	stimuli_distractor_diamondtriangles.svg	stimuli_distractor_diamondtriangles.svg	39	no	0	1	2000	0	0			0	0			1				0	
6.6.1	win	2023-06-23	12:11:57	12:20:52	525778	5c50046b2b89f500015e5f6b	3	1	main_z	11	advance_on_keypress_ZEE	20	stimuli_distractor_diamondtriangles.svg	stimuli_distractor_diamondtriangles.svg	39	no	57	0	395	0	0			0	0			1				0	
6.6.1	win	2023-06-23	12:11:57	12:20:53	527327	5c50046b2b89f500015e5f6b	3	1	main_z	11	main_z	21	stimuli_distractor_diamondtriangles.svg	stimuli_target_diamondrectangles.svg	31	yes	44	1	516	0	0			0	0			1				0	
6.6.1	win	2023-06-23	12:11:57	12:20:53	527327	5c50046b2b89f500015e5f6b	3	1	main_z	11	advance_on_keypress_ZEE	22	stimuli_distractor_diamondtriangles.svg	stimuli_target_diamondrectangles.svg	31	yes	57	0	400	0	0			0	0			1				0	
6.6.1	win	2023-06-23	12:11:57	12:20:56	530377	5c50046b2b89f500015e5f6b	3	1	main_z	11	main_z	23	stimuli_distractor_diamondtriangles.svg	stimuli_distractor_diamondtriangles.svg	40	no	0	1	2000	0	0			0	0			1				0	
6.6.1	win	2023-06-23	12:11:57	12:20:56	530377	5c50046b2b89f500015e5f6b	3	1	main_z	11	advance_on_keypress_ZEE	24	stimuli_distractor_diamondtriangles.svg	stimuli_distractor_diamondtriangles.svg	40	no	57	0	264	0	0			0	0			1				0	
6.6.1	win	2023-06-23	12:11:57	12:20:58	531722	5c50046b2b89f500015e5f6b	3	1	main_z	11	main_z	25	stimuli_distractor_trianglediamonds.svg	stimuli_target_diamondsquares.svg	28	yes	44	1	429	0	0			0	0			1				0	
6.6.1	win	2023-06-23	12:11:57	12:20:58	531722	5c50046b2b89f500015e5f6b	3	1	main_z	11	advance_on_keypress_ZEE	26	stimuli_distractor_trianglediamonds.svg	stimuli_target_diamondsquares.svg	28	yes	57	0	261	0	0			0	0			1				0	
6.6.1	win	2023-06-23	12:11:57	12:20:59	533261	5c50046b2b89f500015e5f6b	3	1	main_z	11	main_z	27	stimuli_target_squaretriangles.svg	stimuli_distractor_trianglediamonds.svg	3	yes	44	1	635	0	0			0	0			1				0	
6.6.1	win	2023-06-23	12:11:57	12:20:59	533261	5c50046b2b89f500015e5f6b	3	1	main_z	11	advance_on_keypress_ZEE	28	stimuli_target_squaretriangles.svg	stimuli_distractor_trianglediamonds.svg	3	yes	57	0	261	0	0			0	0			1				0	
6.6.1	win	2023-06-23	12:11:57	12:21:01	534691	5c50046b2b89f500015e5f6b	3	1	main_z	11	main_z	29	stimuli_target_squarediamonds.svg	stimuli_distractor_diamondtriangles.svg	8	yes	44	1	504	0	0			0	0			1				0	
6.6.1	win	2023-06-23	12:11:57	12:21:01	534691	5c50046b2b89f500015e5f6b	3	1	main_z	11	advance_on_keypress_ZEE	30	stimuli_target_squarediamonds.svg	stimuli_distractor_diamondtriangles.svg	8	yes	57	0	333	0	0			0	0			1				0	
6.6.1	win	2023-06-23	12:11:57	12:21:03	536481	5c50046b2b89f500015e5f6b	3	1	main_z	11	main_z	31	stimuli_distractor_trianglediamonds.svg	stimuli_target_rectangletriangles.svg	9	yes	44	1	805	0	0			0	0			1				0	
6.6.1	win	2023-06-23	12:11:57	12:21:03	536481	5c50046b2b89f500015e5f6b	3	1	main_z	11	advance_on_keypress_ZEE	32	stimuli_distractor_trianglediamonds.svg	stimuli_target_rectangletriangles.svg	9	yes	57	0	343	0	0			0	0			1				0	
6.6.1	win	2023-06-23	12:11:57	12:21:06	539459	5c50046b2b89f500015e5f6b	3	1	main_z	11	main_z	33	stimuli_distractor_trianglediamonds.svg	stimuli_distractor_diamondtriangles.svg	35	no	0	1	2000	0	0			0	0			1				0	
6.6.1	win	2023-06-23	12:11:57	12:21:06	539459	5c50046b2b89f500015e5f6b	3	1	main_z	11	advance_on_keypress_ZEE	34	stimuli_distractor_trianglediamonds.svg	stimuli_distractor_diamondtriangles.svg	35	no	57	0	426	0	0			0	0			1				0	
6.6.1	win	2023-06-23	12:11:57	12:21:07	540942	5c50046b2b89f500015e5f6b	3	1	main_z	11	main_z	35	stimuli_distractor_trianglediamonds.svg	stimuli_target_rectanglediamonds.svg	10	yes	44	1	417	0	0			0	0			1				0	
6.6.1	win	2023-06-23	12:11:57	12:21:07	540942	5c50046b2b89f500015e5f6b	3	1	main_z	11	advance_on_keypress_ZEE	36	stimuli_distractor_trianglediamonds.svg	stimuli_target_rectanglediamonds.svg	10	yes	57	0	241	0	0			0	0			1				0	
6.6.1	win	2023-06-23	12:11:57	12:21:08	542372	5c50046b2b89f500015e5f6b	3	1	main_z	11	main_z	37	stimuli_target_trianglesquares.svg	stimuli_distractor_trianglediamonds.svg	18	yes	44	1	548	0	0			0	0			1				0	
6.6.1	win	2023-06-23	12:11:57	12:21:08	542372	5c50046b2b89f500015e5f6b	3	1	main_z	11	advance_on_keypress_ZEE	38	stimuli_target_trianglesquares.svg	stimuli_distractor_trianglediamonds.svg	18	yes	57	0	267	0	0			0	0			1				0	
6.6.1	win	2023-06-23	12:11:57	12:21:10	543757	5c50046b2b89f500015e5f6b	3	1	main_z	11	main_z	39	stimuli_target_trianglesquares.svg	stimuli_distractor_diamondtriangles.svg	22	yes	44	1	465	0	0			0	0			1				0	
6.6.1	win	2023-06-23	12:11:57	12:21:10	543757	5c50046b2b89f500015e5f6b	3	1	main_z	11	advance_on_keypress_ZEE	40	stimuli_target_trianglesquares.svg	stimuli_distractor_diamondtriangles.svg	22	yes	57	0	280	0	0			0	0			1				0	
6.6.1	win	2023-06-23	12:11:57	12:21:11	545161	5c50046b2b89f500015e5f6b	3	1	main_z	11	main_z	41	stimuli_distractor_diamondtriangles.svg	stimuli_target_squaretriangles.svg	15	yes	44	1	469	0	0			0	0			1				0	
6.6.1	win	2023-06-23	12:11:57	12:21:11	545161	5c50046b2b89f500015e5f6b	3	1	main_z	11	advance_on_keypress_ZEE	42	stimuli_distractor_diamondtriangles.svg	stimuli_target_squaretriangles.svg	15	yes	57	0	294	0	0			0	0			1				0	
6.6.1	win	2023-06-23	12:11:57	12:21:13	546545	5c50046b2b89f500015e5f6b	3	1	main_z	11	main_z	43	stimuli_target_squaretriangles.svg	stimuli_distractor_diamondtriangles.svg	7	yes	44	1	453	0	0			0	0			1				0	
6.6.1	win	2023-06-23	12:11:57	12:21:13	546545	5c50046b2b89f500015e5f6b	3	1	main_z	11	advance_on_keypress_ZEE	44	stimuli_target_squaretriangles.svg	stimuli_distractor_diamondtriangles.svg	7	yes	57	0	339	0	0			0	0			1				0	
6.6.1	win	2023-06-23	12:11:57	12:21:16	549524	5c50046b2b89f500015e5f6b	3	1	main_z	11	main_z	45	stimuli_distractor_diamondtriangles.svg	stimuli_distractor_trianglediamonds.svg	37	no	0	1	2000	0	0			0	0			1				0	
6.6.1	win	2023-06-23	12:11:57	12:21:16	549524	5c50046b2b89f500015e5f6b	3	1	main_z	11	advance_on_keypress_ZEE	46	stimuli_distractor_diamondtriangles.svg	stimuli_distractor_trianglediamonds.svg	37	no	57	0	341	0	0			0	0			1				0	
6.6.1	win	2023-06-23	12:11:57	12:21:19	552508	5c50046b2b89f500015e5f6b	3	1	main_z	11	main_z	47	stimuli_distractor_trianglediamonds.svg	stimuli_distractor_trianglediamonds.svg	34	no	0	1	2000	0	0			0	0			1				0	
6.6.1	win	2023-06-23	12:11:57	12:21:19	552508	5c50046b2b89f500015e5f6b	3	1	main_z	11	advance_on_keypress_ZEE	48	stimuli_distractor_trianglediamonds.svg	stimuli_distractor_trianglediamonds.svg	34	no	57	0	313	0	0			0	0			1				0	
6.6.1	win	2023-06-23	12:11:57	12:21:20	554338	5c50046b2b89f500015e5f6b	3	1	main_z	11	main_z	49	stimuli_target_diamondsquares.svg	stimuli_distractor_trianglediamonds.svg	20	yes	44	1	864	0	0			0	0			1				0	
6.6.1	win	2023-06-23	12:11:57	12:21:20	554338	5c50046b2b89f500015e5f6b	3	1	main_z	11	advance_on_keypress_ZEE	50	stimuli_target_diamondsquares.svg	stimuli_distractor_trianglediamonds.svg	20	yes	57	0	330	0	0			0	0			1				0	
6.6.1	win	2023-06-23	12:11:57	12:21:23	557324	5c50046b2b89f500015e5f6b	3	1	main_z	11	main_z	51	stimuli_distractor_trianglediamonds.svg	stimuli_distractor_trianglediamonds.svg	33	no	0	1	2000	0	0			0	0			1				0	
6.6.1	win	2023-06-23	12:11:57	12:21:23	557324	5c50046b2b89f500015e5f6b	3	1	main_z	11	advance_on_keypress_ZEE	52	stimuli_distractor_trianglediamonds.svg	stimuli_distractor_trianglediamonds.svg	33	no	57	0	350	0	0			0	0			1				0	
6.6.1	win	2023-06-23	12:11:57	12:21:25	558705	5c50046b2b89f500015e5f6b	3	1	main_z	11	main_z	53	stimuli_target_rectanglediamonds.svg	stimuli_distractor_trianglediamonds.svg	2	yes	44	1	371	0	0			0	0			1				0	
6.6.1	win	2023-06-23	12:11:57	12:21:25	558705	5c50046b2b89f500015e5f6b	3	1	main_z	11	advance_on_keypress_ZEE	54	stimuli_target_rectanglediamonds.svg	stimuli_distractor_trianglediamonds.svg	2	yes	57	0	236	0	0			0	0			1				0	
6.6.1	win	2023-06-23	12:11:57	12:21:26	559972	5c50046b2b89f500015e5f6b	3	1	main_z	11	main_z	55	stimuli_distractor_diamondtriangles.svg	stimuli_target_rectangletriangles.svg	13	yes	44	1	378	0	0			0	0			1				0	
6.6.1	win	2023-06-23	12:11:57	12:21:26	559972	5c50046b2b89f500015e5f6b	3	1	main_z	11	advance_on_keypress_ZEE	56	stimuli_distractor_diamondtriangles.svg	stimuli_target_rectangletriangles.svg	13	yes	57	0	216	0	0			0	0			1				0	
6.6.1	win	2023-06-23	12:11:57	12:21:28	562254	5c50046b2b89f500015e5f6b	3	1	main_z	11	main_z	57	stimuli_target_trianglerectangles.svg	stimuli_distractor_trianglediamonds.svg	17	yes	44	1	1414	0	0			0	0			1				0	
6.6.1	win	2023-06-23	12:11:57	12:21:28	562254	5c50046b2b89f500015e5f6b	3	1	main_z	11	advance_on_keypress_ZEE	58	stimuli_target_trianglerectangles.svg	stimuli_distractor_trianglediamonds.svg	17	yes	57	0	441	0	0			0	0			1				0	
6.6.1	win	2023-06-23	12:11:57	12:21:30	563894	5c50046b2b89f500015e5f6b	3	1	main_z	11	main_z	59	stimuli_target_diamondsquares.svg	stimuli_distractor_diamondtriangles.svg	24	yes	44	1	555	0	0			0	0			1				0	
6.6.1	win	2023-06-23	12:11:57	12:21:30	563894	5c50046b2b89f500015e5f6b	3	1	main_z	11	advance_on_keypress_ZEE	60	stimuli_target_diamondsquares.svg	stimuli_distractor_diamondtriangles.svg	24	yes	57	0	233	0	0			0	0			1				0	
6.6.1	win	2023-06-23	12:11:57	12:21:31	565203	5c50046b2b89f500015e5f6b	3	1	main_z	11	main_z	61	stimuli_distractor_diamondtriangles.svg	stimuli_target_diamondsquares.svg	32	yes	44	1	429	0	0			0	0			1				0	
6.6.1	win	2023-06-23	12:11:57	12:21:31	565203	5c50046b2b89f500015e5f6b	3	1	main_z	11	advance_on_keypress_ZEE	62	stimuli_distractor_diamondtriangles.svg	stimuli_target_diamondsquares.svg	32	yes	57	0	130	0	0			0	0			1				0	
6.6.1	win	2023-06-23	12:11:57	12:21:33	566509	5c50046b2b89f500015e5f6b	3	1	main_z	11	main_z	63	stimuli_distractor_trianglediamonds.svg	stimuli_target_squaretriangles.svg	11	yes	44	1	520	0	0			0	0			1				0	
6.6.1	win	2023-06-23	12:11:57	12:21:33	566509	5c50046b2b89f500015e5f6b	3	1	main_z	11	advance_on_keypress_ZEE	64	stimuli_distractor_trianglediamonds.svg	stimuli_target_squaretriangles.svg	11	yes	57	0	118	0	0			0	0			1				0	
6.6.1	win	2023-06-23	12:11:57	12:21:35	569273	5c50046b2b89f500015e5f6b	3	1	main_z	11	main_z	65	stimuli_distractor_diamondtriangles.svg	stimuli_distractor_trianglediamonds.svg	38	no	0	1	2000	0	0			0	0			1				0	
6.6.1	win	2023-06-23	12:11:57	12:21:35	569273	5c50046b2b89f500015e5f6b	3	1	main_z	11	advance_on_keypress_ZEE	66	stimuli_distractor_diamondtriangles.svg	stimuli_distractor_trianglediamonds.svg	38	no	57	0	530	0	0			0	0			1				0	
6.6.1	win	2023-06-23	12:11:57	12:21:37	570856	5c50046b2b89f500015e5f6b	3	1	main_z	11	main_z	67	stimuli_target_rectangletriangles.svg	stimuli_distractor_trianglediamonds.svg	1	yes	44	1	418	0	0			0	0			1				0	
6.6.1	win	2023-06-23	12:11:57	12:21:37	570856	5c50046b2b89f500015e5f6b	3	1	main_z	11	advance_on_keypress_ZEE	68	stimuli_target_rectangletriangles.svg	stimuli_distractor_trianglediamonds.svg	1	yes	57	0	65	0	0			0	0			1				0	
6.6.1	win	2023-06-23	12:11:57	12:21:39	572885	5c50046b2b89f500015e5f6b	3	1	main_z	11	main_z	69	stimuli_distractor_trianglediamonds.svg	stimuli_target_trianglerectangles.svg	25	yes	44	1	1313	0	0			0	0			1				0	
6.6.1	win	2023-06-23	12:11:57	12:21:39	572885	5c50046b2b89f500015e5f6b	3	1	main_z	11	advance_on_keypress_ZEE	70	stimuli_distractor_trianglediamonds.svg	stimuli_target_trianglerectangles.svg	25	yes	57	0	61	0	0			0	0			1				0	
6.6.1	win	2023-06-23	12:11:57	12:21:40	574332	5c50046b2b89f500015e5f6b	3	1	main_z	11	main_z	71	stimuli_distractor_trianglediamonds.svg	stimuli_target_diamondrectangles.svg	27	yes	44	1	744	0	0			0	0			1				0	
6.6.1	win	2023-06-23	12:11:57	12:21:40	574332	5c50046b2b89f500015e5f6b	3	1	main_z	11	advance_on_keypress_ZEE	72	stimuli_distractor_trianglediamonds.svg	stimuli_target_diamondrectangles.svg	27	yes	57	0	361	0	0			0	0			1				0	
6.6.1	win	2023-06-23	12:11:57	12:21:42	575876	5c50046b2b89f500015e5f6b	3	1	main_z	11	main_z	73	stimuli_target_squarediamonds.svg	stimuli_distractor_trianglediamonds.svg	4	yes	44	1	539	0	0			0	0			1				0	
6.6.1	win	2023-06-23	12:11:57	12:21:42	575876	5c50046b2b89f500015e5f6b	3	1	main_z	11	advance_on_keypress_ZEE	74	stimuli_target_squarediamonds.svg	stimuli_distractor_trianglediamonds.svg	4	yes	57	0	145	0	0			0	0			1				0	
6.6.1	win	2023-06-23	12:11:57	12:21:43	577306	5c50046b2b89f500015e5f6b	3	1	main_z	11	main_z	75	stimuli_distractor_diamondtriangles.svg	stimuli_target_trianglerectangles.svg	29	yes	44	1	652	0	0			0	0			1				0	
6.6.1	win	2023-06-23	12:11:57	12:21:43	577306	5c50046b2b89f500015e5f6b	3	1	main_z	11	advance_on_keypress_ZEE	76	stimuli_distractor_diamondtriangles.svg	stimuli_target_trianglerectangles.svg	29	yes	57	0	154	0	0			0	0			1				0	
6.6.1	win	2023-06-23	12:11:57	12:21:45	579005	5c50046b2b89f500015e5f6b	3	1	main_z	11	main_z	77	stimuli_target_rectanglediamonds.svg	stimuli_distractor_diamondtriangles.svg	6	yes	44	1	900	0	0			0	0			1				0	
6.6.1	win	2023-06-23	12:11:57	12:21:45	579005	5c50046b2b89f500015e5f6b	3	1	main_z	11	advance_on_keypress_ZEE	78	stimuli_target_rectanglediamonds.svg	stimuli_distractor_diamondtriangles.svg	6	yes	57	0	134	0	0			0	0			1				0	
6.6.1	win	2023-06-23	12:11:57	12:21:46	580433	5c50046b2b89f500015e5f6b	3	1	main_z	11	main_z	79	stimuli_distractor_diamondtriangles.svg	stimuli_target_squarediamonds.svg	16	yes	44	1	646	0	0			0	0			1				0	
6.6.1	win	2023-06-23	12:11:57	12:21:46	580433	5c50046b2b89f500015e5f6b	3	1	main_z	11	advance_on_keypress_ZEE	80	stimuli_distractor_diamondtriangles.svg	stimuli_target_squarediamonds.svg	16	yes	57	0	113	0	0			0	0			1				0	
6.6.1	win	2023-06-23	12:11:57	12:21:48	582164	5c50046b2b89f500015e5f6b	3	1	main_z	11	main_z	81	stimuli_target_trianglesquares.svg	stimuli_distractor_diamondtriangles.svg	22	yes	44	1	959	0	0			0	0			1				0	
6.6.1	win	2023-06-23	12:11:57	12:21:48	582164	5c50046b2b89f500015e5f6b	3	1	main_z	11	advance_on_keypress_ZEE	82	stimuli_target_trianglesquares.svg	stimuli_distractor_diamondtriangles.svg	22	yes	57	0	140	0	0			0	0			1				0	
6.6.1	win	2023-06-23	12:11:57	12:21:49	583401	5c50046b2b89f500015e5f6b	3	1	main_z	11	main_z	83	stimuli_target_diamondsquares.svg	stimuli_distractor_diamondtriangles.svg	24	yes	44	1	464	0	0			0	0			1				0	
6.6.1	win	2023-06-23	12:11:57	12:21:49	583401	5c50046b2b89f500015e5f6b	3	1	main_z	11	advance_on_keypress_ZEE	84	stimuli_target_diamondsquares.svg	stimuli_distractor_diamondtriangles.svg	24	yes	57	0	75	0	0			0	0			1				0	
6.6.1	win	2023-06-23	12:11:57	12:21:51	584585	5c50046b2b89f500015e5f6b	3	1	main_z	11	main_z	85	stimuli_distractor_diamondtriangles.svg	stimuli_target_trianglesquares.svg	30	yes	44	1	466	0	0			0	0			1				0	
6.6.1	win	2023-06-23	12:11:57	12:21:51	584585	5c50046b2b89f500015e5f6b	3	1	main_z	11	advance_on_keypress_ZEE	86	stimuli_distractor_diamondtriangles.svg	stimuli_target_trianglesquares.svg	30	yes	57	0	105	0	0			0	0			1				0	
6.6.1	win	2023-06-23	12:11:57	12:21:52	585765	5c50046b2b89f500015e5f6b	3	1	main_z	11	main_z	87	stimuli_distractor_trianglediamonds.svg	stimuli_target_squarediamonds.svg	12	yes	44	1	429	0	0			0	0			1				0	
6.6.1	win	2023-06-23	12:11:57	12:21:52	585765	5c50046b2b89f500015e5f6b	3	1	main_z	11	advance_on_keypress_ZEE	88	stimuli_distractor_trianglediamonds.svg	stimuli_target_squarediamonds.svg	12	yes	57	0	72	0	0			0	0			1				0	
6.6.1	win	2023-06-23	12:11:57	12:21:53	587001	5c50046b2b89f500015e5f6b	3	1	main_z	11	main_z	89	stimuli_distractor_trianglediamonds.svg	stimuli_target_squaretriangles.svg	11	yes	44	1	504	0	0			0	0			1				0	
6.6.1	win	2023-06-23	12:11:57	12:21:53	587001	5c50046b2b89f500015e5f6b	3	1	main_z	11	advance_on_keypress_ZEE	90	stimuli_distractor_trianglediamonds.svg	stimuli_target_squaretriangles.svg	11	yes	57	0	77	0	0			0	0			1				0	
6.6.1	win	2023-06-23	12:11:57	12:21:54	588195	5c50046b2b89f500015e5f6b	3	1	main_z	11	main_z	91	stimuli_target_rectanglediamonds.svg	stimuli_distractor_diamondtriangles.svg	6	yes	44	1	476	0	0			0	0			1				0	
6.6.1	win	2023-06-23	12:11:57	12:21:54	588195	5c50046b2b89f500015e5f6b	3	1	main_z	11	advance_on_keypress_ZEE	92	stimuli_target_rectanglediamonds.svg	stimuli_distractor_diamondtriangles.svg	6	yes	57	0	118	0	0			0	0			1				0	
6.6.1	win	2023-06-23	12:11:57	12:21:55	589333	5c50046b2b89f500015e5f6b	3	1	main_z	11	main_z	93	stimuli_distractor_trianglediamonds.svg	stimuli_target_rectangletriangles.svg	9	yes	44	1	381	0	0			0	0			1				0	
6.6.1	win	2023-06-23	12:11:57	12:21:55	589333	5c50046b2b89f500015e5f6b	3	1	main_z	11	advance_on_keypress_ZEE	94	stimuli_distractor_trianglediamonds.svg	stimuli_target_rectangletriangles.svg	9	yes	57	0	76	0	0			0	0			1				0	
6.6.1	win	2023-06-23	12:11:57	12:21:57	590470	5c50046b2b89f500015e5f6b	3	1	main_z	11	main_z	95	stimuli_target_rectanglediamonds.svg	stimuli_distractor_trianglediamonds.svg	2	yes	44	1	418	0	0			0	0			1				0	
6.6.1	win	2023-06-23	12:11:57	12:21:57	590470	5c50046b2b89f500015e5f6b	3	1	main_z	11	advance_on_keypress_ZEE	96	stimuli_target_rectanglediamonds.svg	stimuli_distractor_trianglediamonds.svg	2	yes	57	0	107	0	0			0	0			1				0	
6.6.1	win	2023-06-23	12:11:57	12:21:58	591744	5c50046b2b89f500015e5f6b	3	1	main_z	11	main_z	97	stimuli_distractor_diamondtriangles.svg	stimuli_target_squarediamonds.svg	16	yes	44	1	525	0	0			0	0			1				0	
6.6.1	win	2023-06-23	12:11:57	12:21:58	591744	5c50046b2b89f500015e5f6b	3	1	main_z	11	advance_on_keypress_ZEE	98	stimuli_distractor_diamondtriangles.svg	stimuli_target_squarediamonds.svg	16	yes	57	0	102	0	0			0	0			1				0	
6.6.1	win	2023-06-23	12:11:57	12:21:59	592952	5c50046b2b89f500015e5f6b	3	1	main_z	11	main_z	99	stimuli_distractor_trianglediamonds.svg	stimuli_target_diamondrectangles.svg	27	yes	44	1	466	0	0			0	0			1				0	
6.6.1	win	2023-06-23	12:11:57	12:21:59	592952	5c50046b2b89f500015e5f6b	3	1	main_z	11	advance_on_keypress_ZEE	100	stimuli_distractor_trianglediamonds.svg	stimuli_target_diamondrectangles.svg	27	yes	57	0	97	0	0			0	0			1				0	
6.6.1	win	2023-06-23	12:11:57	12:22:00	594083	5c50046b2b89f500015e5f6b	3	1	main_z	11	main_z	101	stimuli_distractor_diamondtriangles.svg	stimuli_distractor_diamondtriangles.svg	40	no	44	0	366	0	0			0	0			1				0	
6.6.1	win	2023-06-23	12:11:57	12:22:00	594083	5c50046b2b89f500015e5f6b	3	1	main_z	11	advance_on_keypress_ZEE	102	stimuli_distractor_diamondtriangles.svg	stimuli_distractor_diamondtriangles.svg	40	no	57	0	672	0	0			0	0			1				0	
6.6.1	win	2023-06-23	12:11:57	12:22:03	597401	5c50046b2b89f500015e5f6b	3	1	main_z	11	main_z	103	stimuli_distractor_diamondtriangles.svg	stimuli_distractor_trianglediamonds.svg	38	no	0	1	2000	0	0			0	0			1				0	
6.6.1	win	2023-06-23	12:11:57	12:22:03	597401	5c50046b2b89f500015e5f6b	3	1	main_z	11	advance_on_keypress_ZEE	104	stimuli_distractor_diamondtriangles.svg	stimuli_distractor_trianglediamonds.svg	38	no	57	0	619	0	0			0	0			1				0	
6.6.1	win	2023-06-23	12:11:57	12:22:05	599117	5c50046b2b89f500015e5f6b	3	1	main_z	11	main_z	105	stimuli_distractor_diamondtriangles.svg	stimuli_target_rectanglediamonds.svg	14	yes	44	1	449	0	0			0	0			1				0	
6.6.1	win	2023-06-23	12:11:57	12:22:05	599117	5c50046b2b89f500015e5f6b	3	1	main_z	11	advance_on_keypress_ZEE	106	stimuli_distractor_diamondtriangles.svg	stimuli_target_rectanglediamonds.svg	14	yes	57	0	95	0	0			0	0			1				0	
6.6.1	win	2023-06-23	12:11:57	12:22:08	601851	5c50046b2b89f500015e5f6b	3	1	main_z	11	main_z	107	stimuli_distractor_trianglediamonds.svg	stimuli_distractor_trianglediamonds.svg	33	no	0	1	2000	0	0			0	0			1				0	
6.6.1	win	2023-06-23	12:11:57	12:22:08	601851	5c50046b2b89f500015e5f6b	3	1	main_z	11	advance_on_keypress_ZEE	108	stimuli_distractor_trianglediamonds.svg	stimuli_distractor_trianglediamonds.svg	33	no	57	0	623	0	0			0	0			1				0	
6.6.1	win	2023-06-23	12:11:57	12:22:10	603498	5c50046b2b89f500015e5f6b	3	1	main_z	11	main_z	109	stimuli_target_rectangletriangles.svg	stimuli_distractor_trianglediamonds.svg	1	yes	44	1	380	0	0			0	0			1				0	
6.6.1	win	2023-06-23	12:11:57	12:22:10	603498	5c50046b2b89f500015e5f6b	3	1	main_z	11	advance_on_keypress_ZEE	110	stimuli_target_rectangletriangles.svg	stimuli_distractor_trianglediamonds.svg	1	yes	57	0	97	0	0			0	0			1				0	
6.6.1	win	2023-06-23	12:11:57	12:22:11	604822	5c50046b2b89f500015e5f6b	3	1	main_z	11	main_z	111	stimuli_target_trianglesquares.svg	stimuli_distractor_trianglediamonds.svg	18	yes	44	1	572	0	0			0	0			1				0	
6.6.1	win	2023-06-23	12:11:57	12:22:11	604822	5c50046b2b89f500015e5f6b	3	1	main_z	11	advance_on_keypress_ZEE	112	stimuli_target_trianglesquares.svg	stimuli_distractor_trianglediamonds.svg	18	yes	57	0	110	0	0			0	0			1				0	
6.6.1	win	2023-06-23	12:11:57	12:22:12	606084	5c50046b2b89f500015e5f6b	3	1	main_z	11	main_z	113	stimuli_distractor_trianglediamonds.svg	stimuli_target_trianglerectangles.svg	25	yes	44	1	518	0	0			0	0			1				0	
6.6.1	win	2023-06-23	12:11:57	12:22:12	606084	5c50046b2b89f500015e5f6b	3	1	main_z	11	advance_on_keypress_ZEE	114	stimuli_distractor_trianglediamonds.svg	stimuli_target_trianglerectangles.svg	25	yes	57	0	113	0	0			0	0			1				0	
6.6.1	win	2023-06-23	12:11:57	12:22:13	607253	5c50046b2b89f500015e5f6b	3	1	main_z	11	main_z	115	stimuli_distractor_trianglediamonds.svg	stimuli_target_trianglesquares.svg	26	yes	44	1	403	0	0			0	0			1				0	
6.6.1	win	2023-06-23	12:11:57	12:22:13	607253	5c50046b2b89f500015e5f6b	3	1	main_z	11	advance_on_keypress_ZEE	116	stimuli_distractor_trianglediamonds.svg	stimuli_target_trianglesquares.svg	26	yes	57	0	90	0	0			0	0			1				0	
6.6.1	win	2023-06-23	12:11:57	12:22:16	609983	5c50046b2b89f500015e5f6b	3	1	main_z	11	main_z	117	stimuli_distractor_trianglediamonds.svg	stimuli_distractor_diamondtriangles.svg	36	no	0	1	2000	0	0			0	0			1				0	
6.6.1	win	2023-06-23	12:11:57	12:22:16	609983	5c50046b2b89f500015e5f6b	3	1	main_z	11	advance_on_keypress_ZEE	118	stimuli_distractor_trianglediamonds.svg	stimuli_distractor_diamondtriangles.svg	36	no	57	0	736	0	0			0	0			1				0	
6.6.1	win	2023-06-23	12:11:57	12:22:18	611883	5c50046b2b89f500015e5f6b	3	1	main_z	11	main_z	119	stimuli_target_trianglerectangles.svg	stimuli_distractor_trianglediamonds.svg	17	yes	44	1	517	0	0			0	0			1				0	
6.6.1	win	2023-06-23	12:11:57	12:22:18	611883	5c50046b2b89f500015e5f6b	3	1	main_z	11	advance_on_keypress_ZEE	120	stimuli_target_trianglerectangles.svg	stimuli_distractor_trianglediamonds.svg	17	yes	57	0	115	0	0			0	0			1				0	
6.6.1	win	2023-06-23	12:11:57	12:22:19	613179	5c50046b2b89f500015e5f6b	3	1	main_z	11	main_z	121	stimuli_target_trianglerectangles.svg	stimuli_distractor_diamondtriangles.svg	21	yes	44	1	530	0	0			0	0			1				0	
6.6.1	win	2023-06-23	12:11:57	12:22:19	613179	5c50046b2b89f500015e5f6b	3	1	main_z	11	advance_on_keypress_ZEE	122	stimuli_target_trianglerectangles.svg	stimuli_distractor_diamondtriangles.svg	21	yes	57	0	85	0	0			0	0			1				0	
6.6.1	win	2023-06-23	12:11:57	12:22:22	615916	5c50046b2b89f500015e5f6b	3	1	main_z	11	main_z	123	stimuli_distractor_trianglediamonds.svg	stimuli_distractor_trianglediamonds.svg	34	no	0	1	2000	0	0			0	0			1				0	
6.6.1	win	2023-06-23	12:11:57	12:22:22	615916	5c50046b2b89f500015e5f6b	3	1	main_z	11	advance_on_keypress_ZEE	124	stimuli_distractor_trianglediamonds.svg	stimuli_distractor_trianglediamonds.svg	34	no	57	0	720	0	0			0	0			1				0	
6.6.1	win	2023-06-23	12:11:57	12:22:24	617754	5c50046b2b89f500015e5f6b	3	1	main_z	11	main_z	125	stimuli_target_diamondsquares.svg	stimuli_distractor_trianglediamonds.svg	20	yes	44	1	472	0	0			0	0			1				0	
6.6.1	win	2023-06-23	12:11:57	12:22:24	617754	5c50046b2b89f500015e5f6b	3	1	main_z	11	advance_on_keypress_ZEE	126	stimuli_target_diamondsquares.svg	stimuli_distractor_trianglediamonds.svg	20	yes	57	0	97	0	0			0	0			1				0	
6.6.1	win	2023-06-23	12:11:57	12:22:27	620498	5c50046b2b89f500015e5f6b	3	1	main_z	11	main_z	127	stimuli_distractor_trianglediamonds.svg	stimuli_distractor_diamondtriangles.svg	35	no	0	1	2000	0	0			0	0			1				0	
6.6.1	win	2023-06-23	12:11:57	12:22:27	620498	5c50046b2b89f500015e5f6b	3	1	main_z	11	advance_on_keypress_ZEE	128	stimuli_distractor_trianglediamonds.svg	stimuli_distractor_diamondtriangles.svg	35	no	57	0	372	0	0			0	0			1				0	
6.6.1	win	2023-06-23	12:11:57	12:22:28	622209	5c50046b2b89f500015e5f6b	3	1	main_z	11	main_z	129	stimuli_distractor_diamondtriangles.svg	stimuli_distractor_trianglediamonds.svg	37	no	44	0	695	0	0			0	0			1				0	
6.6.1	win	2023-06-23	12:11:57	12:22:28	622209	5c50046b2b89f500015e5f6b	3	1	main_z	11	advance_on_keypress_ZEE	130	stimuli_distractor_diamondtriangles.svg	stimuli_distractor_trianglediamonds.svg	37	no	57	0	100	0	0			0	0			1				0	
6.6.1	win	2023-06-23	12:11:57	12:22:29	623346	5c50046b2b89f500015e5f6b	3	1	main_z	11	main_z	131	stimuli_distractor_diamondtriangles.svg	stimuli_target_diamondsquares.svg	32	yes	44	1	398	0	0			0	0			1				0	
6.6.1	win	2023-06-23	12:11:57	12:22:29	623346	5c50046b2b89f500015e5f6b	3	1	main_z	11	advance_on_keypress_ZEE	132	stimuli_distractor_diamondtriangles.svg	stimuli_target_diamondsquares.svg	32	yes	57	0	89	0	0			0	0			1				0	
6.6.1	win	2023-06-23	12:11:57	12:22:31	624550	5c50046b2b89f500015e5f6b	3	1	main_z	11	main_z	133	stimuli_distractor_trianglediamonds.svg	stimuli_target_rectanglediamonds.svg	10	yes	44	1	471	0	0			0	0			1				0	
6.6.1	win	2023-06-23	12:11:57	12:22:31	624550	5c50046b2b89f500015e5f6b	3	1	main_z	11	advance_on_keypress_ZEE	134	stimuli_distractor_trianglediamonds.svg	stimuli_target_rectanglediamonds.svg	10	yes	57	0	106	0	0			0	0			1				0	
6.6.1	win	2023-06-23	12:11:57	12:22:32	625692	5c50046b2b89f500015e5f6b	3	1	main_z	11	main_z	135	stimuli_distractor_trianglediamonds.svg	stimuli_target_diamondsquares.svg	28	yes	44	1	396	0	0			0	0			1				0	
6.6.1	win	2023-06-23	12:11:57	12:22:32	625692	5c50046b2b89f500015e5f6b	3	1	main_z	11	advance_on_keypress_ZEE	136	stimuli_distractor_trianglediamonds.svg	stimuli_target_diamondsquares.svg	28	yes	57	0	129	0	0			0	0			1				0	
6.6.1	win	2023-06-23	12:11:57	12:22:33	626902	5c50046b2b89f500015e5f6b	3	1	main_z	11	main_z	137	stimuli_target_squarediamonds.svg	stimuli_distractor_trianglediamonds.svg	4	yes	44	1	454	0	0			0	0			1				0	
6.6.1	win	2023-06-23	12:11:57	12:22:33	626902	5c50046b2b89f500015e5f6b	3	1	main_z	11	advance_on_keypress_ZEE	138	stimuli_target_squarediamonds.svg	stimuli_distractor_trianglediamonds.svg	4	yes	57	0	125	0	0			0	0			1				0	
6.6.1	win	2023-06-23	12:11:57	12:22:34	628096	5c50046b2b89f500015e5f6b	3	1	main_z	11	main_z	139	stimuli_target_squaretriangles.svg	stimuli_distractor_trianglediamonds.svg	3	yes	44	1	433	0	0			0	0			1				0	
6.6.1	win	2023-06-23	12:11:57	12:22:34	628096	5c50046b2b89f500015e5f6b	3	1	main_z	11	advance_on_keypress_ZEE	140	stimuli_target_squaretriangles.svg	stimuli_distractor_trianglediamonds.svg	3	yes	57	0	120	0	0			0	0			1				0	
6.6.1	win	2023-06-23	12:11:57	12:22:35	629330	5c50046b2b89f500015e5f6b	3	1	main_z	11	main_z	141	stimuli_target_squarediamonds.svg	stimuli_distractor_diamondtriangles.svg	8	yes	44	1	467	0	0			0	0			1				0	
6.6.1	win	2023-06-23	12:11:57	12:22:35	629330	5c50046b2b89f500015e5f6b	3	1	main_z	11	advance_on_keypress_ZEE	142	stimuli_target_squarediamonds.svg	stimuli_distractor_diamondtriangles.svg	8	yes	57	0	96	0	0			0	0			1				0	
6.6.1	win	2023-06-23	12:11:57	12:22:37	630504	5c50046b2b89f500015e5f6b	3	1	main_z	11	main_z	143	stimuli_target_rectangletriangles.svg	stimuli_distractor_diamondtriangles.svg	5	yes	44	1	425	0	0			0	0			1				0	
6.6.1	win	2023-06-23	12:11:57	12:22:37	630504	5c50046b2b89f500015e5f6b	3	1	main_z	11	advance_on_keypress_ZEE	144	stimuli_target_rectangletriangles.svg	stimuli_distractor_diamondtriangles.svg	5	yes	57	0	115	0	0			0	0			1				0	
6.6.1	win	2023-06-23	12:11:57	12:22:38	631733	5c50046b2b89f500015e5f6b	3	1	main_z	11	main_z	145	stimuli_target_squaretriangles.svg	stimuli_distractor_diamondtriangles.svg	7	yes	44	1	470	0	0			0	0			1				0	
6.6.1	win	2023-06-23	12:11:57	12:22:38	631733	5c50046b2b89f500015e5f6b	3	1	main_z	11	advance_on_keypress_ZEE	146	stimuli_target_squaretriangles.svg	stimuli_distractor_diamondtriangles.svg	7	yes	57	0	105	0	0			0	0			1				0	
6.6.1	win	2023-06-23	12:11:57	12:22:39	632920	5c50046b2b89f500015e5f6b	3	1	main_z	11	main_z	147	stimuli_distractor_diamondtriangles.svg	stimuli_target_rectangletriangles.svg	13	yes	44	1	441	0	0			0	0			1				0	
6.6.1	win	2023-06-23	12:11:57	12:22:39	632920	5c50046b2b89f500015e5f6b	3	1	main_z	11	advance_on_keypress_ZEE	148	stimuli_distractor_diamondtriangles.svg	stimuli_target_rectangletriangles.svg	13	yes	57	0	130	0	0			0	0			1				0	
6.6.1	win	2023-06-23	12:11:57	12:22:42	635696	5c50046b2b89f500015e5f6b	3	1	main_z	11	main_z	149	stimuli_distractor_diamondtriangles.svg	stimuli_distractor_diamondtriangles.svg	39	no	0	1	2000	0	0			0	0			1				0	
6.6.1	win	2023-06-23	12:11:57	12:22:42	635696	5c50046b2b89f500015e5f6b	3	1	main_z	11	advance_on_keypress_ZEE	150	stimuli_distractor_diamondtriangles.svg	stimuli_distractor_diamondtriangles.svg	39	no	57	0	334	0	0			0	0			1				0	
6.6.1	win	2023-06-23	12:11:57	12:22:43	637035	5c50046b2b89f500015e5f6b	3	1	main_z	11	main_z	151	stimuli_distractor_diamondtriangles.svg	stimuli_target_squaretriangles.svg	15	yes	44	1	356	0	0			0	0			1				0	
6.6.1	win	2023-06-23	12:11:57	12:22:43	637035	5c50046b2b89f500015e5f6b	3	1	main_z	11	advance_on_keypress_ZEE	152	stimuli_distractor_diamondtriangles.svg	stimuli_target_squaretriangles.svg	15	yes	57	0	73	0	0			0	0			1				0	
6.6.1	win	2023-06-23	12:11:57	12:22:45	639032	5c50046b2b89f500015e5f6b	3	1	main_z	11	main_z	153	stimuli_target_diamondrectangles.svg	stimuli_distractor_trianglediamonds.svg	19	yes	44	1	1287	0	0			0	0			1				0	
6.6.1	win	2023-06-23	12:11:57	12:22:45	639032	5c50046b2b89f500015e5f6b	3	1	main_z	11	advance_on_keypress_ZEE	154	stimuli_target_diamondrectangles.svg	stimuli_distractor_trianglediamonds.svg	19	yes	57	0	82	0	0			0	0			1				0	
6.6.1	win	2023-06-23	12:11:57	12:22:46	640359	5c50046b2b89f500015e5f6b	3	1	main_z	11	main_z	155	stimuli_distractor_diamondtriangles.svg	stimuli_target_diamondrectangles.svg	31	yes	44	1	597	0	0			0	0			1				0	
6.6.1	win	2023-06-23	12:11:57	12:22:46	640359	5c50046b2b89f500015e5f6b	3	1	main_z	11	advance_on_keypress_ZEE	156	stimuli_distractor_diamondtriangles.svg	stimuli_target_diamondrectangles.svg	31	yes	57	0	93	0	0			0	0			1				0	
6.6.1	win	2023-06-23	12:11:57	12:22:48	641806	5c50046b2b89f500015e5f6b	3	1	main_z	11	main_z	157	stimuli_distractor_diamondtriangles.svg	stimuli_target_trianglerectangles.svg	29	yes	44	1	710	0	0			0	0			1				0	
6.6.1	win	2023-06-23	12:11:57	12:22:48	641806	5c50046b2b89f500015e5f6b	3	1	main_z	11	advance_on_keypress_ZEE	158	stimuli_distractor_diamondtriangles.svg	stimuli_target_trianglerectangles.svg	29	yes	57	0	88	0	0			0	0			1				0	
6.6.1	win	2023-06-23	12:11:57	12:22:49	643309	5c50046b2b89f500015e5f6b	3	1	main_z	11	main_z	159	stimuli_target_diamondrectangles.svg	stimuli_distractor_diamondtriangles.svg	23	yes	44	1	780	0	0			0	0			1				0	
6.6.1	win	2023-06-23	12:11:57	12:22:49	643309	5c50046b2b89f500015e5f6b	3	1	main_z	11	advance_on_keypress_ZEE	160	stimuli_target_diamondrectangles.svg	stimuli_distractor_diamondtriangles.svg	23	yes	57	0	113	0	0			0	0			1				0	
6.6.1	win	2023-06-23	12:11:57	12:22:49	643309	5c50046b2b89f500015e5f6b	3	1	headphonecheck_calibration	14	headphonecheck_calibrationIntro	1	stimuli_target_diamondrectangles.svg	stimuli_distractor_diamondtriangles.svg	23	yes	calibrationButton	0	1419	0	0			0	0			1				0	
6.6.1	win	2023-06-23	12:11:57	12:22:49	643309	5c50046b2b89f500015e5f6b	3	1	headphonecheck_testphase	15	test_collectResponse	3	stimuli_target_diamondrectangles.svg	stimuli_distractor_diamondtriangles.svg	23	yes	first	1	9452	1	3	antiphase_hc_soi.wav	1	0	0			1				0	
6.6.1	win	2023-06-23	12:11:57	12:22:49	643309	5c50046b2b89f500015e5f6b	3	1	headphonecheck_testphase	15	test_collectResponse	6	stimuli_target_diamondrectangles.svg	stimuli_distractor_diamondtriangles.svg	23	yes	third	1	574	2	2	antiphase_hc_ios.wav	3	0	0			1				0	
6.6.1	win	2023-06-23	12:11:57	12:22:49	643309	5c50046b2b89f500015e5f6b	3	1	headphonecheck_testphase	15	test_collectResponse	9	stimuli_target_diamondrectangles.svg	stimuli_distractor_diamondtriangles.svg	23	yes	second	1	261	3	1	antiphase_hc_iso.wav	2	0	0			1				0	
6.6.1	win	2023-06-23	12:11:57	12:22:49	643309	5c50046b2b89f500015e5f6b	3	1	headphonecheck_testphase	15	test_collectResponse	12	stimuli_target_diamondrectangles.svg	stimuli_distractor_diamondtriangles.svg	23	yes	second	1	426	4	5	antiphase_hc_osi.wav	2	0	0			1				0	
6.6.1	win	2023-06-23	12:11:57	12:22:49	643309	5c50046b2b89f500015e5f6b	3	1	headphonecheck_testphase	15	test_collectResponse	15	stimuli_target_diamondrectangles.svg	stimuli_distractor_diamondtriangles.svg	23	yes	third	1	501	5	6	antiphase_hc_ois.wav	3	0	0			1				0	
6.6.1	win	2023-06-23	12:11:57	12:22:49	643309	5c50046b2b89f500015e5f6b	3	1	headphonecheck_testphase	15	test_collectResponse	18	stimuli_target_diamondrectangles.svg	stimuli_distractor_diamondtriangles.svg	23	yes	first	1	280	6	4	antiphase_hc_sio.wav	1	0	0			1				0	
6.6.1	win	2023-06-23	12:11:57	12:22:49	643309	5c50046b2b89f500015e5f6b	3	1	stereocheck_calibration	17	stereocheck_calibrationIntro	1	stimuli_target_diamondrectangles.svg	stimuli_distractor_diamondtriangles.svg	23	yes	stereocheck_calibrationButton	0	4857	6	4	antiphase_hc_sio.wav	1	0	0			1				0	
6.6.1	win	2023-06-23	12:11:57	12:22:49	643309	5c50046b2b89f500015e5f6b	3	1	stereocheck_testphase	18	stereocheck_test_collectResponse	3	stimuli_target_diamondrectangles.svg	stimuli_distractor_diamondtriangles.svg	23	yes	stereocheck_right	1	362	6	4	antiphase_hc_sio.wav	1	1	5	noise_calib_stim_RIGHT.wav	2	1				0	
6.6.1	win	2023-06-23	12:11:57	12:22:49	643309	5c50046b2b89f500015e5f6b	3	1	stereocheck_testphase	18	stereocheck_test_collectResponse	6	stimuli_target_diamondrectangles.svg	stimuli_distractor_diamondtriangles.svg	23	yes	stereocheck_left	1	170	6	4	antiphase_hc_sio.wav	1	2	3	noise_calib_stim_LEFT.wav	1	1				0	
6.6.1	win	2023-06-23	12:11:57	12:22:49	643309	5c50046b2b89f500015e5f6b	3	1	stereocheck_testphase	18	stereocheck_test_collectResponse	9	stimuli_target_diamondrectangles.svg	stimuli_distractor_diamondtriangles.svg	23	yes	stereocheck_right	1	294	6	4	antiphase_hc_sio.wav	1	3	6	noise_calib_stim_RIGHT.wav	2	1				0	
6.6.1	win	2023-06-23	12:11:57	12:22:49	643309	5c50046b2b89f500015e5f6b	3	1	stereocheck_testphase	18	stereocheck_test_collectResponse	12	stimuli_target_diamondrectangles.svg	stimuli_distractor_diamondtriangles.svg	23	yes	stereocheck_left	1	187	6	4	antiphase_hc_sio.wav	1	4	1	noise_calib_stim_LEFT.wav	1	1				0	
6.6.1	win	2023-06-23	12:11:57	12:22:49	643309	5c50046b2b89f500015e5f6b	3	1	stereocheck_testphase	18	stereocheck_test_collectResponse	15	stimuli_target_diamondrectangles.svg	stimuli_distractor_diamondtriangles.svg	23	yes	stereocheck_left	1	316	6	4	antiphase_hc_sio.wav	1	5	2	noise_calib_stim_LEFT.wav	1	1				0	
6.6.1	win	2023-06-23	12:11:57	12:22:49	643309	5c50046b2b89f500015e5f6b	3	1	stereocheck_testphase	18	stereocheck_test_collectResponse	18	stimuli_target_diamondrectangles.svg	stimuli_distractor_diamondtriangles.svg	23	yes	stereocheck_right	1	325	6	4	antiphase_hc_sio.wav	1	6	4	noise_calib_stim_RIGHT.wav	2	1				0	
6.6.1	win	2023-06-23	12:11:57	12:22:49	643309	5c50046b2b89f500015e5f6b	3	1	DL_practice	21	DL_practice	2	stimuli_target_diamondrectangles.svg	stimuli_distractor_diamondtriangles.svg	23	yes	da	1	1198	6	4	antiphase_hc_sio.wav	1	6	4	noise_calib_stim_RIGHT.wav	2	7	blb_dichoticlistening_da-ba.mp3	da	ba	1	left
6.6.1	win	2023-06-23	12:11:57	12:22:49	643309	5c50046b2b89f500015e5f6b	3	1	DL_practice	21	DL_practice	3	stimuli_target_diamondrectangles.svg	stimuli_distractor_diamondtriangles.svg	23	yes	pa	1	1334	6	4	antiphase_hc_sio.wav	1	6	4	noise_calib_stim_RIGHT.wav	2	23	blb_dichoticlistening_ka-pa.mp3	ka	pa	1	right
6.6.1	win	2023-06-23	12:11:57	12:22:49	643309	5c50046b2b89f500015e5f6b	3	1	DL_practice	21	DL_practice	4	stimuli_target_diamondrectangles.svg	stimuli_distractor_diamondtriangles.svg	23	yes	ta	1	1236	6	4	antiphase_hc_sio.wav	1	6	4	noise_calib_stim_RIGHT.wav	2	36	blb_dichoticlistening_ta-ta.mp3	ta	ta	0	left
6.6.1	win	2023-06-23	12:11:57	12:22:49	643309	5c50046b2b89f500015e5f6b	3	1	DL_practice	21	DL_practice	5	stimuli_target_diamondrectangles.svg	stimuli_distractor_diamondtriangles.svg	23	yes	ka	0	1591	6	4	antiphase_hc_sio.wav	1	6	4	noise_calib_stim_RIGHT.wav	2	18	blb_dichoticlistening_ga-ta.mp3	ga	ta	1	other
6.6.1	win	2023-06-23	12:11:57	12:22:49	643309	5c50046b2b89f500015e5f6b	3	1	DL_practice	21	DL_practice	6	stimuli_target_diamondrectangles.svg	stimuli_distractor_diamondtriangles.svg	23	yes	ka	1	784	6	4	antiphase_hc_sio.wav	1	6	4	noise_calib_stim_RIGHT.wav	2	22	blb_dichoticlistening_ka-ka.mp3	ka	ka	0	left
6.6.1	win	2023-06-23	12:11:57	12:22:49	643309	5c50046b2b89f500015e5f6b	3	1	DL_practice	21	DL_practice	7	stimuli_target_diamondrectangles.svg	stimuli_distractor_diamondtriangles.svg	23	yes	ga	1	1029	6	4	antiphase_hc_sio.wav	1	6	4	noise_calib_stim_RIGHT.wav	2	15	blb_dichoticlistening_ga-ga.mp3	ga	ga	0	left
6.6.1	win	2023-06-23	12:11:57	12:22:49	643309	5c50046b2b89f500015e5f6b	3	1	DL_practice	21	DL_practice	8	stimuli_target_diamondrectangles.svg	stimuli_distractor_diamondtriangles.svg	23	yes	da	1	825	6	4	antiphase_hc_sio.wav	1	6	4	noise_calib_stim_RIGHT.wav	2	8	blb_dichoticlistening_da-da.mp3	da	da	0	left
6.6.1	win	2023-06-23	12:11:57	12:22:49	643309	5c50046b2b89f500015e5f6b	3	1	DL_practice	21	DL_practice	9	stimuli_target_diamondrectangles.svg	stimuli_distractor_diamondtriangles.svg	23	yes	pa	1	2012	6	4	antiphase_hc_sio.wav	1	6	4	noise_calib_stim_RIGHT.wav	2	29	blb_dichoticlistening_pa-pa.mp3	pa	pa	0	left
6.6.1	win	2023-06-23	12:11:57	12:22:49	643309	5c50046b2b89f500015e5f6b	3	1	DL_practice	21	DL_practice	10	stimuli_target_diamondrectangles.svg	stimuli_distractor_diamondtriangles.svg	23	yes	ba	1	1814	6	4	antiphase_hc_sio.wav	1	6	4	noise_calib_stim_RIGHT.wav	2	1	blb_dichoticlistening_ba-ba.mp3	ba	ba	0	left
6.6.1	win	2023-06-23	12:11:57	12:22:49	643309	5c50046b2b89f500015e5f6b	3	1	DL_test	23	DL_test	1	stimuli_target_diamondrectangles.svg	stimuli_distractor_diamondtriangles.svg	23	yes	ba	1	1198	6	4	antiphase_hc_sio.wav	1	6	4	noise_calib_stim_RIGHT.wav	2	1	blb_dichoticlistening_ba-ba.mp3	ba	ba	0	left
6.6.1	win	2023-06-23	12:11:57	12:22:49	643309	5c50046b2b89f500015e5f6b	3	1	DL_test	23	DL_test	2	stimuli_target_diamondrectangles.svg	stimuli_distractor_diamondtriangles.svg	23	yes	da	1	956	6	4	antiphase_hc_sio.wav	1	6	4	noise_calib_stim_RIGHT.wav	2	2	blb_dichoticlistening_ba-da.mp3	ba	da	1	right
6.6.1	win	2023-06-23	12:11:57	12:22:49	643309	5c50046b2b89f500015e5f6b	3	1	DL_test	23	DL_test	3	stimuli_target_diamondrectangles.svg	stimuli_distractor_diamondtriangles.svg	23	yes	ka	1	927	6	4	antiphase_hc_sio.wav	1	6	4	noise_calib_stim_RIGHT.wav	2	24	blb_dichoticlistening_ka-ta.mp3	ka	ta	1	left
6.6.1	win	2023-06-23	12:11:57	12:22:49	643309	5c50046b2b89f500015e5f6b	3	1	DL_test	23	DL_test	4	stimuli_target_diamondrectangles.svg	stimuli_distractor_diamondtriangles.svg	23	yes	ka	1	1881	6	4	antiphase_hc_sio.wav	1	6	4	noise_calib_stim_RIGHT.wav	2	19	blb_dichoticlistening_ka-ba.mp3	ka	ba	1	left
6.6.1	win	2023-06-23	12:11:57	12:22:49	643309	5c50046b2b89f500015e5f6b	3	1	DL_test	23	DL_test	5	stimuli_target_diamondrectangles.svg	stimuli_distractor_diamondtriangles.svg	23	yes	pa	1	1927	6	4	antiphase_hc_sio.wav	1	6	4	noise_calib_stim_RIGHT.wav	2	5	blb_dichoticlistening_ba-pa.mp3	ba	pa	1	right
6.6.1	win	2023-06-23	12:11:57	12:22:49	643309	5c50046b2b89f500015e5f6b	3	1	DL_test	23	DL_test	6	stimuli_target_diamondrectangles.svg	stimuli_distractor_diamondtriangles.svg	23	yes	da	1	1032	6	4	antiphase_hc_sio.wav	1	6	4	noise_calib_stim_RIGHT.wav	2	14	blb_dichoticlistening_ga-da.mp3	ga	da	1	right
6.6.1	win	2023-06-23	12:11:57	12:22:49	643309	5c50046b2b89f500015e5f6b	3	1	DL_test	23	DL_test	7	stimuli_target_diamondrectangles.svg	stimuli_distractor_diamondtriangles.svg	23	yes	ka	1	1117	6	4	antiphase_hc_sio.wav	1	6	4	noise_calib_stim_RIGHT.wav	2	22	blb_dichoticlistening_ka-ka.mp3	ka	ka	0	left
6.6.1	win	2023-06-23	12:11:57	12:22:49	643309	5c50046b2b89f500015e5f6b	3	1	DL_test	23	DL_test	8	stimuli_target_diamondrectangles.svg	stimuli_distractor_diamondtriangles.svg	23	yes	da	0	1291	6	4	antiphase_hc_sio.wav	1	6	4	noise_calib_stim_RIGHT.wav	2	3	blb_dichoticlistening_ba-ga.mp3	ba	ga	1	other
6.6.1	win	2023-06-23	12:11:57	12:22:49	643309	5c50046b2b89f500015e5f6b	3	1	DL_test	23	DL_test	9	stimuli_target_diamondrectangles.svg	stimuli_distractor_diamondtriangles.svg	23	yes	pa	1	1246	6	4	antiphase_hc_sio.wav	1	6	4	noise_calib_stim_RIGHT.wav	2	35	blb_dichoticlistening_ta-pa.mp3	ta	pa	1	right
6.6.1	win	2023-06-23	12:11:57	12:22:49	643309	5c50046b2b89f500015e5f6b	3	1	DL_test	23	DL_test	10	stimuli_target_diamondrectangles.svg	stimuli_distractor_diamondtriangles.svg	23	yes	ka	1	898	6	4	antiphase_hc_sio.wav	1	6	4	noise_calib_stim_RIGHT.wav	2	4	blb_dichoticlistening_ba-ka.mp3	ba	ka	1	right
6.6.1	win	2023-06-23	12:11:57	12:22:49	643309	5c50046b2b89f500015e5f6b	3	1	DL_test	23	DL_test	11	stimuli_target_diamondrectangles.svg	stimuli_distractor_diamondtriangles.svg	23	yes	ga	1	998	6	4	antiphase_hc_sio.wav	1	6	4	noise_calib_stim_RIGHT.wav	2	27	blb_dichoticlistening_pa-ga.mp3	pa	ga	1	right
6.6.1	win	2023-06-23	12:11:57	12:22:49	643309	5c50046b2b89f500015e5f6b	3	1	DL_test	23	DL_test	12	stimuli_target_diamondrectangles.svg	stimuli_distractor_diamondtriangles.svg	23	yes	ta	1	1243	6	4	antiphase_hc_sio.wav	1	6	4	noise_calib_stim_RIGHT.wav	2	30	blb_dichoticlistening_pa-ta.mp3	pa	ta	1	right
6.6.1	win	2023-06-23	12:11:57	12:22:49	643309	5c50046b2b89f500015e5f6b	3	1	DL_test	23	DL_test	13	stimuli_target_diamondrectangles.svg	stimuli_distractor_diamondtriangles.svg	23	yes	pa	1	940	6	4	antiphase_hc_sio.wav	1	6	4	noise_calib_stim_RIGHT.wav	2	23	blb_dichoticlistening_ka-pa.mp3	ka	pa	1	right
6.6.1	win	2023-06-23	12:11:57	12:22:49	643309	5c50046b2b89f500015e5f6b	3	1	DL_test	23	DL_test	14	stimuli_target_diamondrectangles.svg	stimuli_distractor_diamondtriangles.svg	23	yes	pa	1	736	6	4	antiphase_hc_sio.wav	1	6	4	noise_calib_stim_RIGHT.wav	2	17	blb_dichoticlistening_ga-pa.mp3	ga	pa	1	right
6.6.1	win	2023-06-23	12:11:57	12:22:49	643309	5c50046b2b89f500015e5f6b	3	1	DL_test	23	DL_test	15	stimuli_target_diamondrectangles.svg	stimuli_distractor_diamondtriangles.svg	23	yes	da	1	1339	6	4	antiphase_hc_sio.wav	1	6	4	noise_calib_stim_RIGHT.wav	2	26	blb_dichoticlistening_pa-da.mp3	pa	da	1	right
6.6.1	win	2023-06-23	12:11:57	12:22:49	643309	5c50046b2b89f500015e5f6b	3	1	DL_test	23	DL_test	16	stimuli_target_diamondrectangles.svg	stimuli_distractor_diamondtriangles.svg	23	yes	da	1	678	6	4	antiphase_hc_sio.wav	1	6	4	noise_calib_stim_RIGHT.wav	2	20	blb_dichoticlistening_ka-da.mp3	ka	da	1	right
6.6.1	win	2023-06-23	12:11:57	12:22:49	643309	5c50046b2b89f500015e5f6b	3	1	DL_test	23	DL_test	17	stimuli_target_diamondrectangles.svg	stimuli_distractor_diamondtriangles.svg	23	yes	ga	1	1056	6	4	antiphase_hc_sio.wav	1	6	4	noise_calib_stim_RIGHT.wav	2	9	blb_dichoticlistening_da-ga.mp3	da	ga	1	right
6.6.1	win	2023-06-23	12:11:57	12:22:49	643309	5c50046b2b89f500015e5f6b	3	1	DL_test	23	DL_test	18	stimuli_target_diamondrectangles.svg	stimuli_distractor_diamondtriangles.svg	23	yes	da	1	1130	6	4	antiphase_hc_sio.wav	1	6	4	noise_calib_stim_RIGHT.wav	2	8	blb_dichoticlistening_da-da.mp3	da	da	0	left
6.6.1	win	2023-06-23	12:11:57	12:22:49	643309	5c50046b2b89f500015e5f6b	3	1	DL_test	23	DL_test	19	stimuli_target_diamondrectangles.svg	stimuli_distractor_diamondtriangles.svg	23	yes	pa	1	1108	6	4	antiphase_hc_sio.wav	1	6	4	noise_calib_stim_RIGHT.wav	2	29	blb_dichoticlistening_pa-pa.mp3	pa	pa	0	left
6.6.1	win	2023-06-23	12:11:57	12:22:49	643309	5c50046b2b89f500015e5f6b	3	1	DL_test	23	DL_test	20	stimuli_target_diamondrectangles.svg	stimuli_distractor_diamondtriangles.svg	23	yes	ta	0	1708	6	4	antiphase_hc_sio.wav	1	6	4	noise_calib_stim_RIGHT.wav	2	10	blb_dichoticlistening_da-ka.mp3	da	ka	1	other
6.6.1	win	2023-06-23	12:11:57	12:22:49	643309	5c50046b2b89f500015e5f6b	3	1	DL_test	23	DL_test	21	stimuli_target_diamondrectangles.svg	stimuli_distractor_diamondtriangles.svg	23	yes	ga	1	1444	6	4	antiphase_hc_sio.wav	1	6	4	noise_calib_stim_RIGHT.wav	2	21	blb_dichoticlistening_ka-ga.mp3	ka	ga	1	right
6.6.1	win	2023-06-23	12:11:57	12:22:49	643309	5c50046b2b89f500015e5f6b	3	1	DL_test	23	DL_test	22	stimuli_target_diamondrectangles.svg	stimuli_distractor_diamondtriangles.svg	23	yes	ka	1	1658	6	4	antiphase_hc_sio.wav	1	6	4	noise_calib_stim_RIGHT.wav	2	34	blb_dichoticlistening_ta-ka.mp3	ta	ka	1	right
6.6.1	win	2023-06-23	12:11:57	12:22:49	643309	5c50046b2b89f500015e5f6b	3	1	DL_test	23	DL_test	23	stimuli_target_diamondrectangles.svg	stimuli_distractor_diamondtriangles.svg	23	yes	ka	0	794	6	4	antiphase_hc_sio.wav	1	6	4	noise_calib_stim_RIGHT.wav	2	31	blb_dichoticlistening_ta-ba.mp3	ta	ba	1	other
6.6.1	win	2023-06-23	12:11:57	12:22:49	643309	5c50046b2b89f500015e5f6b	3	1	DL_test	23	DL_test	24	stimuli_target_diamondrectangles.svg	stimuli_distractor_diamondtriangles.svg	23	yes	ga	1	986	6	4	antiphase_hc_sio.wav	1	6	4	noise_calib_stim_RIGHT.wav	2	15	blb_dichoticlistening_ga-ga.mp3	ga	ga	0	left
6.6.1	win	2023-06-23	12:11:57	12:22:49	643309	5c50046b2b89f500015e5f6b	3	1	DL_test	23	DL_test	25	stimuli_target_diamondrectangles.svg	stimuli_distractor_diamondtriangles.svg	23	yes	ta	1	1553	6	4	antiphase_hc_sio.wav	1	6	4	noise_calib_stim_RIGHT.wav	2	32	blb_dichoticlistening_ta-da.mp3	ta	da	1	left
6.6.1	win	2023-06-23	12:11:57	12:22:49	643309	5c50046b2b89f500015e5f6b	3	1	DL_test	23	DL_test	26	stimuli_target_diamondrectangles.svg	stimuli_distractor_diamondtriangles.svg	23	yes	ka	1	1366	6	4	antiphase_hc_sio.wav	1	6	4	noise_calib_stim_RIGHT.wav	2	16	blb_dichoticlistening_ga-ka.mp3	ga	ka	1	right
