build	computer.platform	date	time	timestamp	time_elapsed_ms	subject	group	session	blockcode	blocknum	trialcode	trialnum	stimulus_left	stimulus_right	stim_index	target_present	response	correct	latency	headphonecheck_countTestTrials	headphonecheck_index	headphonecheck_testSound	headphonecheck_correctResponse	stereocheck_countTestTrials	stereocheck_index	stereocheck_testSound	stereocheck_correctResponse	DL_index	DL_soundfile	DL_leftSound	DL_rightSound	DL_dualSound	DL_choice
6.6.1	win	2023-07-13	13:02:24	13:05:50	197889	61020197f83a83260d8c78b4	4	1	practice_z	5	practice_z	1	stimuli_target_squarediamonds.svg	stimuli_distractor_trianglediamonds.svg	5	yes	0	0	2000	0	0			0	0			1				0	
6.6.1	win	2023-07-13	13:02:24	13:05:50	197889	61020197f83a83260d8c78b4	4	1	practice_z	5	advance_on_keypress_ZEE	2	stimuli_target_squarediamonds.svg	stimuli_distractor_trianglediamonds.svg	5	yes	57	0	2153	0	0			0	0			1				0	
6.6.1	win	2023-07-13	13:02:24	13:05:55	203727	61020197f83a83260d8c78b4	4	1	practice_z	5	practice_z	3	stimuli_distractor_trianglediamonds.svg	stimuli_target_diamondrectangles.svg	12	yes	0	0	2000	0	0			0	0			1				0	
6.6.1	win	2023-07-13	13:02:24	13:05:55	203727	61020197f83a83260d8c78b4	4	1	practice_z	5	advance_on_keypress_ZEE	4	stimuli_distractor_trianglediamonds.svg	stimuli_target_diamondrectangles.svg	12	yes	57	0	587	0	0			0	0			1				0	
6.6.1	win	2023-07-13	13:02:24	13:05:59	207421	61020197f83a83260d8c78b4	4	1	practice_z	5	practice_z	5	stimuli_target_squarediamonds.svg	stimuli_distractor_diamondtriangles.svg	2	yes	44	1	1457	0	0			0	0			1				0	
6.6.1	win	2023-07-13	13:02:24	13:05:59	207421	61020197f83a83260d8c78b4	4	1	practice_z	5	advance_on_keypress_ZEE	6	stimuli_target_squarediamonds.svg	stimuli_distractor_diamondtriangles.svg	2	yes	57	0	971	0	0			0	0			1				0	
6.6.1	win	2023-07-13	13:02:24	13:06:04	212074	61020197f83a83260d8c78b4	4	1	practice_z	5	practice_z	7	stimuli_distractor_trianglediamonds.svg	stimuli_distractor_trianglediamonds.svg	15	no	0	1	2000	0	0			0	0			1				0	
6.6.1	win	2023-07-13	13:02:24	13:06:04	212074	61020197f83a83260d8c78b4	4	1	practice_z	5	advance_on_keypress_ZEE	8	stimuli_distractor_trianglediamonds.svg	stimuli_distractor_trianglediamonds.svg	15	no	57	0	388	0	0			0	0			1				0	
6.6.1	win	2023-07-13	13:02:24	13:06:07	215161	61020197f83a83260d8c78b4	4	1	practice_z	5	practice_z	9	stimuli_target_diamondsquares.svg	stimuli_distractor_diamondtriangles.svg	3	yes	44	1	1019	0	0			0	0			1				0	
6.6.1	win	2023-07-13	13:02:24	13:06:07	215161	61020197f83a83260d8c78b4	4	1	practice_z	5	advance_on_keypress_ZEE	10	stimuli_target_diamondsquares.svg	stimuli_distractor_diamondtriangles.svg	3	yes	57	0	495	0	0			0	0			1				0	
6.6.1	win	2023-07-13	13:02:24	13:06:10	218335	61020197f83a83260d8c78b4	4	1	practice_z	5	practice_z	11	stimuli_target_rectanglediamonds.svg	stimuli_distractor_trianglediamonds.svg	4	yes	44	1	1008	0	0			0	0			1				0	
6.6.1	win	2023-07-13	13:02:24	13:06:10	218335	61020197f83a83260d8c78b4	4	1	practice_z	5	advance_on_keypress_ZEE	12	stimuli_target_rectanglediamonds.svg	stimuli_distractor_trianglediamonds.svg	4	yes	57	0	619	0	0			0	0			1				0	
6.6.1	win	2023-07-13	13:02:24	13:06:14	222630	61020197f83a83260d8c78b4	4	1	practice_z	5	practice_z	13	stimuli_distractor_trianglediamonds.svg	stimuli_distractor_diamondtriangles.svg	16	no	0	1	2000	0	0			0	0			1				0	
6.6.1	win	2023-07-13	13:02:24	13:06:14	222630	61020197f83a83260d8c78b4	4	1	practice_z	5	advance_on_keypress_ZEE	14	stimuli_distractor_trianglediamonds.svg	stimuli_distractor_diamondtriangles.svg	16	no	57	0	541	0	0			0	0			1				0	
6.6.1	win	2023-07-13	13:02:24	13:06:18	226466	61020197f83a83260d8c78b4	4	1	practice_z	5	practice_z	15	stimuli_distractor_diamondtriangles.svg	stimuli_distractor_trianglediamonds.svg	14	no	44	0	1628	0	0			0	0			1				0	
6.6.1	win	2023-07-13	13:02:24	13:06:18	226466	61020197f83a83260d8c78b4	4	1	practice_z	5	advance_on_keypress_ZEE	16	stimuli_distractor_diamondtriangles.svg	stimuli_distractor_trianglediamonds.svg	14	no	57	0	751	0	0			0	0			1				0	
6.6.1	win	2023-07-13	13:02:24	13:06:22	230870	61020197f83a83260d8c78b4	4	1	practice_z	5	practice_z	17	stimuli_distractor_diamondtriangles.svg	stimuli_distractor_diamondtriangles.svg	13	no	0	1	2000	0	0			0	0			1				0	
6.6.1	win	2023-07-13	13:02:24	13:06:22	230870	61020197f83a83260d8c78b4	4	1	practice_z	5	advance_on_keypress_ZEE	18	stimuli_distractor_diamondtriangles.svg	stimuli_distractor_diamondtriangles.svg	13	no	57	0	354	0	0			0	0			1				0	
6.6.1	win	2023-07-13	13:02:24	13:06:25	233789	61020197f83a83260d8c78b4	4	1	practice_z	5	practice_z	19	stimuli_distractor_diamondtriangles.svg	stimuli_target_rectangletriangles.svg	7	yes	44	1	898	0	0			0	0			1				0	
6.6.1	win	2023-07-13	13:02:24	13:06:25	233789	61020197f83a83260d8c78b4	4	1	practice_z	5	advance_on_keypress_ZEE	20	stimuli_distractor_diamondtriangles.svg	stimuli_target_rectangletriangles.svg	7	yes	57	0	378	0	0			0	0			1				0	
6.6.1	win	2023-07-13	13:02:24	13:06:28	236733	61020197f83a83260d8c78b4	4	1	practice_z	5	practice_z	21	stimuli_distractor_diamondtriangles.svg	stimuli_target_trianglerectangles.svg	9	yes	44	1	906	0	0			0	0			1				0	
6.6.1	win	2023-07-13	13:02:24	13:06:28	236733	61020197f83a83260d8c78b4	4	1	practice_z	5	advance_on_keypress_ZEE	22	stimuli_distractor_diamondtriangles.svg	stimuli_target_trianglerectangles.svg	9	yes	57	0	466	0	0			0	0			1				0	
6.6.1	win	2023-07-13	13:02:24	13:06:32	239959	61020197f83a83260d8c78b4	4	1	practice_z	5	practice_z	23	stimuli_distractor_diamondtriangles.svg	stimuli_target_diamondrectangles.svg	8	yes	44	1	1094	0	0			0	0			1				0	
6.6.1	win	2023-07-13	13:02:24	13:06:32	239959	61020197f83a83260d8c78b4	4	1	practice_z	5	advance_on_keypress_ZEE	24	stimuli_distractor_diamondtriangles.svg	stimuli_target_diamondrectangles.svg	8	yes	57	0	319	0	0			0	0			1				0	
6.6.1	win	2023-07-13	13:02:24	13:06:35	243398	61020197f83a83260d8c78b4	4	1	practice_z	5	practice_z	25	stimuli_distractor_trianglediamonds.svg	stimuli_target_rectanglediamonds.svg	10	yes	44	1	1463	0	0			0	0			1				0	
6.6.1	win	2023-07-13	13:02:24	13:06:35	243398	61020197f83a83260d8c78b4	4	1	practice_z	5	advance_on_keypress_ZEE	26	stimuli_distractor_trianglediamonds.svg	stimuli_target_rectanglediamonds.svg	10	yes	57	0	425	0	0			0	0			1				0	
6.6.1	win	2023-07-13	13:02:24	13:06:38	246606	61020197f83a83260d8c78b4	4	1	practice_z	5	practice_z	27	stimuli_target_rectanglediamonds.svg	stimuli_distractor_diamondtriangles.svg	1	yes	44	1	1118	0	0			0	0			1				0	
6.6.1	win	2023-07-13	13:02:24	13:06:38	246606	61020197f83a83260d8c78b4	4	1	practice_z	5	advance_on_keypress_ZEE	28	stimuli_target_rectanglediamonds.svg	stimuli_distractor_diamondtriangles.svg	1	yes	57	0	574	0	0			0	0			1				0	
6.6.1	win	2023-07-13	13:02:24	13:06:42	249870	61020197f83a83260d8c78b4	4	1	practice_z	5	practice_z	29	stimuli_target_diamondsquares.svg	stimuli_distractor_trianglediamonds.svg	6	yes	44	1	1028	0	0			0	0			1				0	
6.6.1	win	2023-07-13	13:02:24	13:06:42	249870	61020197f83a83260d8c78b4	4	1	practice_z	5	advance_on_keypress_ZEE	30	stimuli_target_diamondsquares.svg	stimuli_distractor_trianglediamonds.svg	6	yes	57	0	353	0	0			0	0			1				0	
6.6.1	win	2023-07-13	13:02:24	13:06:44	252857	61020197f83a83260d8c78b4	4	1	practice_z	5	practice_z	31	stimuli_distractor_trianglediamonds.svg	stimuli_target_squarediamonds.svg	11	yes	44	1	977	0	0			0	0			1				0	
6.6.1	win	2023-07-13	13:02:24	13:06:44	252857	61020197f83a83260d8c78b4	4	1	practice_z	5	advance_on_keypress_ZEE	32	stimuli_distractor_trianglediamonds.svg	stimuli_target_squarediamonds.svg	11	yes	57	0	437	0	0			0	0			1				0	
6.6.1	win	2023-07-13	13:02:24	13:07:01	269146	61020197f83a83260d8c78b4	4	1	main_z	7	main_z	1	stimuli_target_trianglesquares.svg	stimuli_distractor_trianglediamonds.svg	18	yes	44	1	1989	0	0			0	0			1				0	
6.6.1	win	2023-07-13	13:02:24	13:07:01	269146	61020197f83a83260d8c78b4	4	1	main_z	7	advance_on_keypress_ZEE	2	stimuli_target_trianglesquares.svg	stimuli_distractor_trianglediamonds.svg	18	yes	57	0	874	0	0			0	0			1				0	
6.6.1	win	2023-07-13	13:02:24	13:07:04	272138	61020197f83a83260d8c78b4	4	1	main_z	7	main_z	3	stimuli_distractor_trianglediamonds.svg	stimuli_distractor_trianglediamonds.svg	34	no	44	0	1445	0	0			0	0			1				0	
6.6.1	win	2023-07-13	13:02:24	13:07:04	272138	61020197f83a83260d8c78b4	4	1	main_z	7	advance_on_keypress_ZEE	4	stimuli_distractor_trianglediamonds.svg	stimuli_distractor_trianglediamonds.svg	34	no	57	0	744	0	0			0	0			1				0	
6.6.1	win	2023-07-13	13:02:24	13:07:06	274714	61020197f83a83260d8c78b4	4	1	main_z	7	main_z	5	stimuli_distractor_diamondtriangles.svg	stimuli_target_diamondsquares.svg	32	yes	44	1	1167	0	0			0	0			1				0	
6.6.1	win	2023-07-13	13:02:24	13:07:06	274714	61020197f83a83260d8c78b4	4	1	main_z	7	advance_on_keypress_ZEE	6	stimuli_distractor_diamondtriangles.svg	stimuli_target_diamondsquares.svg	32	yes	57	0	486	0	0			0	0			1				0	
6.6.1	win	2023-07-13	13:02:24	13:07:09	277850	61020197f83a83260d8c78b4	4	1	main_z	7	main_z	7	stimuli_distractor_diamondtriangles.svg	stimuli_distractor_diamondtriangles.svg	40	no	0	1	2000	0	0			0	0			1				0	
6.6.1	win	2023-07-13	13:02:24	13:07:09	277850	61020197f83a83260d8c78b4	4	1	main_z	7	advance_on_keypress_ZEE	8	stimuli_distractor_diamondtriangles.svg	stimuli_distractor_diamondtriangles.svg	40	no	57	0	582	0	0			0	0			1				0	
6.6.1	win	2023-07-13	13:02:24	13:07:12	280026	61020197f83a83260d8c78b4	4	1	main_z	7	main_z	9	stimuli_distractor_trianglediamonds.svg	stimuli_target_diamondrectangles.svg	27	yes	44	1	941	0	0			0	0			1				0	
6.6.1	win	2023-07-13	13:02:24	13:07:12	280026	61020197f83a83260d8c78b4	4	1	main_z	7	advance_on_keypress_ZEE	10	stimuli_distractor_trianglediamonds.svg	stimuli_target_diamondrectangles.svg	27	yes	57	0	637	0	0			0	0			1				0	
6.6.1	win	2023-07-13	13:02:24	13:07:14	282427	61020197f83a83260d8c78b4	4	1	main_z	7	main_z	11	stimuli_distractor_diamondtriangles.svg	stimuli_target_rectangletriangles.svg	13	yes	44	1	1106	0	0			0	0			1				0	
6.6.1	win	2023-07-13	13:02:24	13:07:14	282427	61020197f83a83260d8c78b4	4	1	main_z	7	advance_on_keypress_ZEE	12	stimuli_distractor_diamondtriangles.svg	stimuli_target_rectangletriangles.svg	13	yes	57	0	507	0	0			0	0			1				0	
6.6.1	win	2023-07-13	13:02:24	13:07:17	285475	61020197f83a83260d8c78b4	4	1	main_z	7	main_z	13	stimuli_target_trianglesquares.svg	stimuli_distractor_diamondtriangles.svg	22	yes	44	1	1884	0	0			0	0			1				0	
6.6.1	win	2023-07-13	13:02:24	13:07:17	285475	61020197f83a83260d8c78b4	4	1	main_z	7	advance_on_keypress_ZEE	14	stimuli_target_trianglesquares.svg	stimuli_distractor_diamondtriangles.svg	22	yes	57	0	821	0	0			0	0			1				0	
6.6.1	win	2023-07-13	13:02:24	13:07:20	288034	61020197f83a83260d8c78b4	4	1	main_z	7	main_z	15	stimuli_distractor_trianglediamonds.svg	stimuli_target_trianglesquares.svg	26	yes	44	1	1091	0	0			0	0			1				0	
6.6.1	win	2023-07-13	13:02:24	13:07:20	288034	61020197f83a83260d8c78b4	4	1	main_z	7	advance_on_keypress_ZEE	16	stimuli_distractor_trianglediamonds.svg	stimuli_target_trianglesquares.svg	26	yes	57	0	533	0	0			0	0			1				0	
6.6.1	win	2023-07-13	13:02:24	13:07:22	290570	61020197f83a83260d8c78b4	4	1	main_z	7	main_z	17	stimuli_target_diamondrectangles.svg	stimuli_distractor_diamondtriangles.svg	23	yes	44	1	1341	0	0			0	0			1				0	
6.6.1	win	2023-07-13	13:02:24	13:07:22	290570	61020197f83a83260d8c78b4	4	1	main_z	7	advance_on_keypress_ZEE	18	stimuli_target_diamondrectangles.svg	stimuli_distractor_diamondtriangles.svg	23	yes	57	0	668	0	0			0	0			1				0	
6.6.1	win	2023-07-13	13:02:24	13:07:26	293902	61020197f83a83260d8c78b4	4	1	main_z	7	main_z	19	stimuli_distractor_diamondtriangles.svg	stimuli_distractor_trianglediamonds.svg	38	no	0	1	2000	0	0			0	0			1				0	
6.6.1	win	2023-07-13	13:02:24	13:07:26	293902	61020197f83a83260d8c78b4	4	1	main_z	7	advance_on_keypress_ZEE	20	stimuli_distractor_diamondtriangles.svg	stimuli_distractor_trianglediamonds.svg	38	no	57	0	1116	0	0			0	0			1				0	
6.6.1	win	2023-07-13	13:02:24	13:07:29	297230	61020197f83a83260d8c78b4	4	1	main_z	7	main_z	21	stimuli_distractor_diamondtriangles.svg	stimuli_target_squaretriangles.svg	15	yes	44	1	1558	0	0			0	0			1				0	
6.6.1	win	2023-07-13	13:02:24	13:07:29	297230	61020197f83a83260d8c78b4	4	1	main_z	7	advance_on_keypress_ZEE	22	stimuli_distractor_diamondtriangles.svg	stimuli_target_squaretriangles.svg	15	yes	57	0	805	0	0			0	0			1				0	
6.6.1	win	2023-07-13	13:02:24	13:07:31	299754	61020197f83a83260d8c78b4	4	1	main_z	7	main_z	23	stimuli_distractor_diamondtriangles.svg	stimuli_target_trianglerectangles.svg	29	yes	44	1	1049	0	0			0	0			1				0	
6.6.1	win	2023-07-13	13:02:24	13:07:31	299754	61020197f83a83260d8c78b4	4	1	main_z	7	advance_on_keypress_ZEE	24	stimuli_distractor_diamondtriangles.svg	stimuli_target_trianglerectangles.svg	29	yes	57	0	597	0	0			0	0			1				0	
6.6.1	win	2023-07-13	13:02:24	13:07:34	302018	61020197f83a83260d8c78b4	4	1	main_z	7	main_z	25	stimuli_distractor_diamondtriangles.svg	stimuli_target_rectanglediamonds.svg	14	yes	44	1	1011	0	0			0	0			1				0	
6.6.1	win	2023-07-13	13:02:24	13:07:34	302018	61020197f83a83260d8c78b4	4	1	main_z	7	advance_on_keypress_ZEE	26	stimuli_distractor_diamondtriangles.svg	stimuli_target_rectanglediamonds.svg	14	yes	57	0	607	0	0			0	0			1				0	
6.6.1	win	2023-07-13	13:02:24	13:07:36	304475	61020197f83a83260d8c78b4	4	1	main_z	7	main_z	27	stimuli_distractor_trianglediamonds.svg	stimuli_target_rectangletriangles.svg	9	yes	44	1	1181	0	0			0	0			1				0	
6.6.1	win	2023-07-13	13:02:24	13:07:36	304475	61020197f83a83260d8c78b4	4	1	main_z	7	advance_on_keypress_ZEE	28	stimuli_distractor_trianglediamonds.svg	stimuli_target_rectangletriangles.svg	9	yes	57	0	596	0	0			0	0			1				0	
6.6.1	win	2023-07-13	13:02:24	13:07:38	306706	61020197f83a83260d8c78b4	4	1	main_z	7	main_z	29	stimuli_target_trianglerectangles.svg	stimuli_distractor_diamondtriangles.svg	21	yes	44	1	977	0	0			0	0			1				0	
6.6.1	win	2023-07-13	13:02:24	13:07:38	306706	61020197f83a83260d8c78b4	4	1	main_z	7	advance_on_keypress_ZEE	30	stimuli_target_trianglerectangles.svg	stimuli_distractor_diamondtriangles.svg	21	yes	57	0	576	0	0			0	0			1				0	
6.6.1	win	2023-07-13	13:02:24	13:07:41	308934	61020197f83a83260d8c78b4	4	1	main_z	7	main_z	31	stimuli_distractor_trianglediamonds.svg	stimuli_target_squaretriangles.svg	11	yes	44	1	983	0	0			0	0			1				0	
6.6.1	win	2023-07-13	13:02:24	13:07:41	308934	61020197f83a83260d8c78b4	4	1	main_z	7	advance_on_keypress_ZEE	32	stimuli_distractor_trianglediamonds.svg	stimuli_target_squaretriangles.svg	11	yes	57	0	453	0	0			0	0			1				0	
6.6.1	win	2023-07-13	13:02:24	13:07:43	310954	61020197f83a83260d8c78b4	4	1	main_z	7	main_z	33	stimuli_target_squarediamonds.svg	stimuli_distractor_diamondtriangles.svg	8	yes	44	1	922	0	0			0	0			1				0	
6.6.1	win	2023-07-13	13:02:24	13:07:43	310954	61020197f83a83260d8c78b4	4	1	main_z	7	advance_on_keypress_ZEE	34	stimuli_target_squarediamonds.svg	stimuli_distractor_diamondtriangles.svg	8	yes	57	0	586	0	0			0	0			1				0	
6.6.1	win	2023-07-13	13:02:24	13:07:45	313028	61020197f83a83260d8c78b4	4	1	main_z	7	main_z	35	stimuli_target_squaretriangles.svg	stimuli_distractor_diamondtriangles.svg	7	yes	44	1	824	0	0			0	0			1				0	
6.6.1	win	2023-07-13	13:02:24	13:07:45	313028	61020197f83a83260d8c78b4	4	1	main_z	7	advance_on_keypress_ZEE	36	stimuli_target_squaretriangles.svg	stimuli_distractor_diamondtriangles.svg	7	yes	57	0	637	0	0			0	0			1				0	
6.6.1	win	2023-07-13	13:02:24	13:07:47	315827	61020197f83a83260d8c78b4	4	1	main_z	7	main_z	37	stimuli_distractor_diamondtriangles.svg	stimuli_target_trianglesquares.svg	30	yes	44	1	1506	0	0			0	0			1				0	
6.6.1	win	2023-07-13	13:02:24	13:07:47	315827	61020197f83a83260d8c78b4	4	1	main_z	7	advance_on_keypress_ZEE	38	stimuli_distractor_diamondtriangles.svg	stimuli_target_trianglesquares.svg	30	yes	57	0	587	0	0			0	0			1				0	
6.6.1	win	2023-07-13	13:02:24	13:07:51	319075	61020197f83a83260d8c78b4	4	1	main_z	7	main_z	39	stimuli_distractor_diamondtriangles.svg	stimuli_target_squarediamonds.svg	16	yes	0	0	2000	0	0			0	0			1				0	
6.6.1	win	2023-07-13	13:02:24	13:07:51	319075	61020197f83a83260d8c78b4	4	1	main_z	7	advance_on_keypress_ZEE	40	stimuli_distractor_diamondtriangles.svg	stimuli_target_squarediamonds.svg	16	yes	57	0	630	0	0			0	0			1				0	
6.6.1	win	2023-07-13	13:02:24	13:07:53	321366	61020197f83a83260d8c78b4	4	1	main_z	7	main_z	41	stimuli_target_rectangletriangles.svg	stimuli_distractor_diamondtriangles.svg	5	yes	44	1	1003	0	0			0	0			1				0	
6.6.1	win	2023-07-13	13:02:24	13:07:53	321366	61020197f83a83260d8c78b4	4	1	main_z	7	advance_on_keypress_ZEE	42	stimuli_target_rectangletriangles.svg	stimuli_distractor_diamondtriangles.svg	5	yes	57	0	575	0	0			0	0			1				0	
6.6.1	win	2023-07-13	13:02:24	13:07:55	323395	61020197f83a83260d8c78b4	4	1	main_z	7	main_z	43	stimuli_target_squaretriangles.svg	stimuli_distractor_trianglediamonds.svg	3	yes	44	1	782	0	0			0	0			1				0	
6.6.1	win	2023-07-13	13:02:24	13:07:55	323395	61020197f83a83260d8c78b4	4	1	main_z	7	advance_on_keypress_ZEE	44	stimuli_target_squaretriangles.svg	stimuli_distractor_trianglediamonds.svg	3	yes	57	0	557	0	0			0	0			1				0	
6.6.1	win	2023-07-13	13:02:24	13:07:57	325487	61020197f83a83260d8c78b4	4	1	main_z	7	main_z	45	stimuli_target_rectangletriangles.svg	stimuli_distractor_trianglediamonds.svg	1	yes	44	1	870	0	0			0	0			1				0	
6.6.1	win	2023-07-13	13:02:24	13:07:57	325487	61020197f83a83260d8c78b4	4	1	main_z	7	advance_on_keypress_ZEE	46	stimuli_target_rectangletriangles.svg	stimuli_distractor_trianglediamonds.svg	1	yes	57	0	703	0	0			0	0			1				0	
6.6.1	win	2023-07-13	13:02:24	13:07:59	327810	61020197f83a83260d8c78b4	4	1	main_z	7	main_z	47	stimuli_distractor_trianglediamonds.svg	stimuli_target_rectanglediamonds.svg	10	yes	44	1	960	0	0			0	0			1				0	
6.6.1	win	2023-07-13	13:02:24	13:07:59	327810	61020197f83a83260d8c78b4	4	1	main_z	7	advance_on_keypress_ZEE	48	stimuli_distractor_trianglediamonds.svg	stimuli_target_rectanglediamonds.svg	10	yes	57	0	552	0	0			0	0			1				0	
6.6.1	win	2023-07-13	13:02:24	13:08:01	329868	61020197f83a83260d8c78b4	4	1	main_z	7	main_z	49	stimuli_target_rectanglediamonds.svg	stimuli_distractor_trianglediamonds.svg	2	yes	44	1	847	0	0			0	0			1				0	
6.6.1	win	2023-07-13	13:02:24	13:08:01	329868	61020197f83a83260d8c78b4	4	1	main_z	7	advance_on_keypress_ZEE	50	stimuli_target_rectanglediamonds.svg	stimuli_distractor_trianglediamonds.svg	2	yes	57	0	813	0	0			0	0			1				0	
6.6.1	win	2023-07-13	13:02:24	13:08:05	333338	61020197f83a83260d8c78b4	4	1	main_z	7	main_z	51	stimuli_distractor_diamondtriangles.svg	stimuli_distractor_diamondtriangles.svg	39	no	0	1	2000	0	0			0	0			1				0	
6.6.1	win	2023-07-13	13:02:24	13:08:05	333338	61020197f83a83260d8c78b4	4	1	main_z	7	advance_on_keypress_ZEE	52	stimuli_distractor_diamondtriangles.svg	stimuli_distractor_diamondtriangles.svg	39	no	57	0	605	0	0			0	0			1				0	
6.6.1	win	2023-07-13	13:02:24	13:08:07	335690	61020197f83a83260d8c78b4	4	1	main_z	7	main_z	53	stimuli_target_trianglerectangles.svg	stimuli_distractor_trianglediamonds.svg	17	yes	44	1	1100	0	0			0	0			1				0	
6.6.1	win	2023-07-13	13:02:24	13:08:07	335690	61020197f83a83260d8c78b4	4	1	main_z	7	advance_on_keypress_ZEE	54	stimuli_target_trianglerectangles.svg	stimuli_distractor_trianglediamonds.svg	17	yes	57	0	686	0	0			0	0			1				0	
6.6.1	win	2023-07-13	13:02:24	13:08:10	338516	61020197f83a83260d8c78b4	4	1	main_z	7	main_z	55	stimuli_distractor_diamondtriangles.svg	stimuli_target_diamondrectangles.svg	31	yes	44	1	1488	0	0			0	0			1				0	
6.6.1	win	2023-07-13	13:02:24	13:08:10	338516	61020197f83a83260d8c78b4	4	1	main_z	7	advance_on_keypress_ZEE	56	stimuli_distractor_diamondtriangles.svg	stimuli_target_diamondrectangles.svg	31	yes	57	0	530	0	0			0	0			1				0	
6.6.1	win	2023-07-13	13:02:24	13:08:12	340610	61020197f83a83260d8c78b4	4	1	main_z	7	main_z	57	stimuli_target_rectanglediamonds.svg	stimuli_distractor_diamondtriangles.svg	6	yes	44	1	914	0	0			0	0			1				0	
6.6.1	win	2023-07-13	13:02:24	13:08:12	340610	61020197f83a83260d8c78b4	4	1	main_z	7	advance_on_keypress_ZEE	58	stimuli_target_rectanglediamonds.svg	stimuli_distractor_diamondtriangles.svg	6	yes	57	0	604	0	0			0	0			1				0	
6.6.1	win	2023-07-13	13:02:24	13:08:14	342860	61020197f83a83260d8c78b4	4	1	main_z	7	main_z	59	stimuli_target_squarediamonds.svg	stimuli_distractor_trianglediamonds.svg	4	yes	44	1	977	0	0			0	0			1				0	
6.6.1	win	2023-07-13	13:02:24	13:08:14	342860	61020197f83a83260d8c78b4	4	1	main_z	7	advance_on_keypress_ZEE	60	stimuli_target_squarediamonds.svg	stimuli_distractor_trianglediamonds.svg	4	yes	57	0	520	0	0			0	0			1				0	
6.6.1	win	2023-07-13	13:02:24	13:08:17	344938	61020197f83a83260d8c78b4	4	1	main_z	7	main_z	61	stimuli_distractor_trianglediamonds.svg	stimuli_target_squarediamonds.svg	12	yes	44	1	888	0	0			0	0			1				0	
6.6.1	win	2023-07-13	13:02:24	13:08:17	344938	61020197f83a83260d8c78b4	4	1	main_z	7	advance_on_keypress_ZEE	62	stimuli_distractor_trianglediamonds.svg	stimuli_target_squarediamonds.svg	12	yes	57	0	570	0	0			0	0			1				0	
6.6.1	win	2023-07-13	13:02:24	13:08:19	347130	61020197f83a83260d8c78b4	4	1	main_z	7	main_z	63	stimuli_target_diamondrectangles.svg	stimuli_distractor_trianglediamonds.svg	19	yes	44	1	978	0	0			0	0			1				0	
6.6.1	win	2023-07-13	13:02:24	13:08:19	347130	61020197f83a83260d8c78b4	4	1	main_z	7	advance_on_keypress_ZEE	64	stimuli_target_diamondrectangles.svg	stimuli_distractor_trianglediamonds.svg	19	yes	57	0	528	0	0			0	0			1				0	
6.6.1	win	2023-07-13	13:02:24	13:08:21	349454	61020197f83a83260d8c78b4	4	1	main_z	7	main_z	65	stimuli_target_diamondsquares.svg	stimuli_distractor_trianglediamonds.svg	20	yes	44	1	1130	0	0			0	0			1				0	
6.6.1	win	2023-07-13	13:02:24	13:08:21	349454	61020197f83a83260d8c78b4	4	1	main_z	7	advance_on_keypress_ZEE	66	stimuli_target_diamondsquares.svg	stimuli_distractor_trianglediamonds.svg	20	yes	57	0	497	0	0			0	0			1				0	
6.6.1	win	2023-07-13	13:02:24	13:08:23	351843	61020197f83a83260d8c78b4	4	1	main_z	7	main_z	67	stimuli_target_diamondsquares.svg	stimuli_distractor_diamondtriangles.svg	24	yes	44	1	1236	0	0			0	0			1				0	
6.6.1	win	2023-07-13	13:02:24	13:08:23	351843	61020197f83a83260d8c78b4	4	1	main_z	7	advance_on_keypress_ZEE	68	stimuli_target_diamondsquares.svg	stimuli_distractor_diamondtriangles.svg	24	yes	57	0	463	0	0			0	0			1				0	
6.6.1	win	2023-07-13	13:02:24	13:08:27	354959	61020197f83a83260d8c78b4	4	1	main_z	7	main_z	69	stimuli_distractor_trianglediamonds.svg	stimuli_distractor_diamondtriangles.svg	36	no	0	1	2000	0	0			0	0			1				0	
6.6.1	win	2023-07-13	13:02:24	13:08:27	354959	61020197f83a83260d8c78b4	4	1	main_z	7	advance_on_keypress_ZEE	70	stimuli_distractor_trianglediamonds.svg	stimuli_distractor_diamondtriangles.svg	36	no	57	0	743	0	0			0	0			1				0	
6.6.1	win	2023-07-13	13:02:24	13:08:30	358363	61020197f83a83260d8c78b4	4	1	main_z	7	main_z	71	stimuli_distractor_trianglediamonds.svg	stimuli_distractor_trianglediamonds.svg	33	no	0	1	2000	0	0			0	0			1				0	
6.6.1	win	2023-07-13	13:02:24	13:08:30	358363	61020197f83a83260d8c78b4	4	1	main_z	7	advance_on_keypress_ZEE	72	stimuli_distractor_trianglediamonds.svg	stimuli_distractor_trianglediamonds.svg	33	no	57	0	837	0	0			0	0			1				0	
6.6.1	win	2023-07-13	13:02:24	13:08:33	361850	61020197f83a83260d8c78b4	4	1	main_z	7	main_z	73	stimuli_distractor_diamondtriangles.svg	stimuli_distractor_trianglediamonds.svg	37	no	0	1	2000	0	0			0	0			1				0	
6.6.1	win	2023-07-13	13:02:24	13:08:33	361850	61020197f83a83260d8c78b4	4	1	main_z	7	advance_on_keypress_ZEE	74	stimuli_distractor_diamondtriangles.svg	stimuli_distractor_trianglediamonds.svg	37	no	57	0	637	0	0			0	0			1				0	
6.6.1	win	2023-07-13	13:02:24	13:08:36	363978	61020197f83a83260d8c78b4	4	1	main_z	7	main_z	75	stimuli_distractor_trianglediamonds.svg	stimuli_target_trianglerectangles.svg	25	yes	44	1	842	0	0			0	0			1				0	
6.6.1	win	2023-07-13	13:02:24	13:08:36	363978	61020197f83a83260d8c78b4	4	1	main_z	7	advance_on_keypress_ZEE	76	stimuli_distractor_trianglediamonds.svg	stimuli_target_trianglerectangles.svg	25	yes	57	0	518	0	0			0	0			1				0	
6.6.1	win	2023-07-13	13:02:24	13:08:38	366426	61020197f83a83260d8c78b4	4	1	main_z	7	main_z	77	stimuli_distractor_trianglediamonds.svg	stimuli_distractor_diamondtriangles.svg	35	no	44	0	1272	0	0			0	0			1				0	
6.6.1	win	2023-07-13	13:02:24	13:08:38	366426	61020197f83a83260d8c78b4	4	1	main_z	7	advance_on_keypress_ZEE	78	stimuli_distractor_trianglediamonds.svg	stimuli_distractor_diamondtriangles.svg	35	no	57	0	491	0	0			0	0			1				0	
6.6.1	win	2023-07-13	13:02:24	13:08:40	368525	61020197f83a83260d8c78b4	4	1	main_z	7	main_z	79	stimuli_distractor_trianglediamonds.svg	stimuli_target_diamondsquares.svg	28	yes	44	1	949	0	0			0	0			1				0	
6.6.1	win	2023-07-13	13:02:24	13:08:40	368525	61020197f83a83260d8c78b4	4	1	main_z	7	advance_on_keypress_ZEE	80	stimuli_distractor_trianglediamonds.svg	stimuli_target_diamondsquares.svg	28	yes	57	0	486	0	0			0	0			1				0	
6.6.1	win	2023-07-13	13:02:24	13:08:43	371661	61020197f83a83260d8c78b4	4	1	main_z	7	main_z	81	stimuli_target_rectanglediamonds.svg	stimuli_distractor_diamondtriangles.svg	6	yes	0	0	2000	0	0			0	0			1				0	
6.6.1	win	2023-07-13	13:02:24	13:08:43	371661	61020197f83a83260d8c78b4	4	1	main_z	7	advance_on_keypress_ZEE	82	stimuli_target_rectanglediamonds.svg	stimuli_distractor_diamondtriangles.svg	6	yes	57	0	779	0	0			0	0			1				0	
6.6.1	win	2023-07-13	13:02:24	13:08:46	374042	61020197f83a83260d8c78b4	4	1	main_z	7	main_z	83	stimuli_target_diamondrectangles.svg	stimuli_distractor_diamondtriangles.svg	23	yes	44	1	946	0	0			0	0			1				0	
6.6.1	win	2023-07-13	13:02:24	13:08:46	374042	61020197f83a83260d8c78b4	4	1	main_z	7	advance_on_keypress_ZEE	84	stimuli_target_diamondrectangles.svg	stimuli_distractor_diamondtriangles.svg	23	yes	57	0	442	0	0			0	0			1				0	
6.6.1	win	2023-07-13	13:02:24	13:08:48	376131	61020197f83a83260d8c78b4	4	1	main_z	7	main_z	85	stimuli_target_rectangletriangles.svg	stimuli_distractor_diamondtriangles.svg	5	yes	44	1	983	0	0			0	0			1				0	
6.6.1	win	2023-07-13	13:02:24	13:08:48	376131	61020197f83a83260d8c78b4	4	1	main_z	7	advance_on_keypress_ZEE	86	stimuli_target_rectangletriangles.svg	stimuli_distractor_diamondtriangles.svg	5	yes	57	0	445	0	0			0	0			1				0	
6.6.1	win	2023-07-13	13:02:24	13:08:50	378190	61020197f83a83260d8c78b4	4	1	main_z	7	main_z	87	stimuli_target_diamondrectangles.svg	stimuli_distractor_trianglediamonds.svg	19	yes	44	1	953	0	0			0	0			1				0	
6.6.1	win	2023-07-13	13:02:24	13:08:50	378190	61020197f83a83260d8c78b4	4	1	main_z	7	advance_on_keypress_ZEE	88	stimuli_target_diamondrectangles.svg	stimuli_distractor_trianglediamonds.svg	19	yes	57	0	431	0	0			0	0			1				0	
6.6.1	win	2023-07-13	13:02:24	13:08:52	380314	61020197f83a83260d8c78b4	4	1	main_z	7	main_z	89	stimuli_distractor_trianglediamonds.svg	stimuli_target_squaretriangles.svg	11	yes	44	1	1029	0	0			0	0			1				0	
6.6.1	win	2023-07-13	13:02:24	13:08:52	380314	61020197f83a83260d8c78b4	4	1	main_z	7	advance_on_keypress_ZEE	90	stimuli_distractor_trianglediamonds.svg	stimuli_target_squaretriangles.svg	11	yes	57	0	441	0	0			0	0			1				0	
6.6.1	win	2023-07-13	13:02:24	13:08:54	382546	61020197f83a83260d8c78b4	4	1	main_z	7	main_z	91	stimuli_target_squaretriangles.svg	stimuli_distractor_trianglediamonds.svg	3	yes	44	1	1125	0	0			0	0			1				0	
6.6.1	win	2023-07-13	13:02:24	13:08:54	382546	61020197f83a83260d8c78b4	4	1	main_z	7	advance_on_keypress_ZEE	92	stimuli_target_squaretriangles.svg	stimuli_distractor_trianglediamonds.svg	3	yes	57	0	446	0	0			0	0			1				0	
6.6.1	win	2023-07-13	13:02:24	13:08:57	384994	61020197f83a83260d8c78b4	4	1	main_z	7	main_z	93	stimuli_distractor_diamondtriangles.svg	stimuli_target_rectanglediamonds.svg	14	yes	44	1	1337	0	0			0	0			1				0	
6.6.1	win	2023-07-13	13:02:24	13:08:57	384994	61020197f83a83260d8c78b4	4	1	main_z	7	advance_on_keypress_ZEE	94	stimuli_distractor_diamondtriangles.svg	stimuli_target_rectanglediamonds.svg	14	yes	57	0	434	0	0			0	0			1				0	
6.6.1	win	2023-07-13	13:02:24	13:09:00	388076	61020197f83a83260d8c78b4	4	1	main_z	7	main_z	95	stimuli_distractor_diamondtriangles.svg	stimuli_distractor_diamondtriangles.svg	40	no	0	1	2000	0	0			0	0			1				0	
6.6.1	win	2023-07-13	13:02:24	13:09:00	388076	61020197f83a83260d8c78b4	4	1	main_z	7	advance_on_keypress_ZEE	96	stimuli_distractor_diamondtriangles.svg	stimuli_distractor_diamondtriangles.svg	40	no	57	0	795	0	0			0	0			1				0	
6.6.1	win	2023-07-13	13:02:24	13:09:03	391531	61020197f83a83260d8c78b4	4	1	main_z	7	main_z	97	stimuli_distractor_trianglediamonds.svg	stimuli_distractor_trianglediamonds.svg	33	no	0	1	2000	0	0			0	0			1				0	
6.6.1	win	2023-07-13	13:02:24	13:09:03	391531	61020197f83a83260d8c78b4	4	1	main_z	7	advance_on_keypress_ZEE	98	stimuli_distractor_trianglediamonds.svg	stimuli_distractor_trianglediamonds.svg	33	no	57	0	405	0	0			0	0			1				0	
6.6.1	win	2023-07-13	13:02:24	13:09:05	393378	61020197f83a83260d8c78b4	4	1	main_z	7	main_z	99	stimuli_target_squarediamonds.svg	stimuli_distractor_diamondtriangles.svg	8	yes	44	1	779	0	0			0	0			1				0	
6.6.1	win	2023-07-13	13:02:24	13:09:05	393378	61020197f83a83260d8c78b4	4	1	main_z	7	advance_on_keypress_ZEE	100	stimuli_target_squarediamonds.svg	stimuli_distractor_diamondtriangles.svg	8	yes	57	0	499	0	0			0	0			1				0	
6.6.1	win	2023-07-13	13:02:24	13:09:08	395883	61020197f83a83260d8c78b4	4	1	main_z	7	main_z	101	stimuli_target_squarediamonds.svg	stimuli_distractor_trianglediamonds.svg	4	yes	44	1	1348	0	0			0	0			1				0	
6.6.1	win	2023-07-13	13:02:24	13:09:08	395883	61020197f83a83260d8c78b4	4	1	main_z	7	advance_on_keypress_ZEE	102	stimuli_target_squarediamonds.svg	stimuli_distractor_trianglediamonds.svg	4	yes	57	0	451	0	0			0	0			1				0	
6.6.1	win	2023-07-13	13:02:24	13:09:10	398002	61020197f83a83260d8c78b4	4	1	main_z	7	main_z	103	stimuli_target_diamondsquares.svg	stimuli_distractor_trianglediamonds.svg	20	yes	44	1	1016	0	0			0	0			1				0	
6.6.1	win	2023-07-13	13:02:24	13:09:10	398002	61020197f83a83260d8c78b4	4	1	main_z	7	advance_on_keypress_ZEE	104	stimuli_target_diamondsquares.svg	stimuli_distractor_trianglediamonds.svg	20	yes	57	0	420	0	0			0	0			1				0	
6.6.1	win	2023-07-13	13:02:24	13:09:12	400180	61020197f83a83260d8c78b4	4	1	main_z	7	main_z	105	stimuli_distractor_diamondtriangles.svg	stimuli_target_squaretriangles.svg	15	yes	44	1	1090	0	0			0	0			1				0	
6.6.1	win	2023-07-13	13:02:24	13:09:12	400180	61020197f83a83260d8c78b4	4	1	main_z	7	advance_on_keypress_ZEE	106	stimuli_distractor_diamondtriangles.svg	stimuli_target_squaretriangles.svg	15	yes	57	0	468	0	0			0	0			1				0	
6.6.1	win	2023-07-13	13:02:24	13:09:14	402620	61020197f83a83260d8c78b4	4	1	main_z	7	main_z	107	stimuli_target_trianglerectangles.svg	stimuli_distractor_diamondtriangles.svg	21	yes	44	1	1295	0	0			0	0			1				0	
6.6.1	win	2023-07-13	13:02:24	13:09:14	402620	61020197f83a83260d8c78b4	4	1	main_z	7	advance_on_keypress_ZEE	108	stimuli_target_trianglerectangles.svg	stimuli_distractor_diamondtriangles.svg	21	yes	57	0	415	0	0			0	0			1				0	
6.6.1	win	2023-07-13	13:02:24	13:09:17	404938	61020197f83a83260d8c78b4	4	1	main_z	7	main_z	109	stimuli_distractor_trianglediamonds.svg	stimuli_target_diamondsquares.svg	28	yes	44	1	1245	0	0			0	0			1				0	
6.6.1	win	2023-07-13	13:02:24	13:09:17	404938	61020197f83a83260d8c78b4	4	1	main_z	7	advance_on_keypress_ZEE	110	stimuli_distractor_trianglediamonds.svg	stimuli_target_diamondsquares.svg	28	yes	57	0	424	0	0			0	0			1				0	
6.6.1	win	2023-07-13	13:02:24	13:09:19	407070	61020197f83a83260d8c78b4	4	1	main_z	7	main_z	111	stimuli_distractor_trianglediamonds.svg	stimuli_distractor_diamondtriangles.svg	36	no	44	0	1038	0	0			0	0			1				0	
6.6.1	win	2023-07-13	13:02:24	13:09:19	407070	61020197f83a83260d8c78b4	4	1	main_z	7	advance_on_keypress_ZEE	112	stimuli_distractor_trianglediamonds.svg	stimuli_distractor_diamondtriangles.svg	36	no	57	0	514	0	0			0	0			1				0	
6.6.1	win	2023-07-13	13:02:24	13:09:21	409237	61020197f83a83260d8c78b4	4	1	main_z	7	main_z	113	stimuli_target_trianglesquares.svg	stimuli_distractor_trianglediamonds.svg	18	yes	44	1	987	0	0			0	0			1				0	
6.6.1	win	2023-07-13	13:02:24	13:09:21	409237	61020197f83a83260d8c78b4	4	1	main_z	7	advance_on_keypress_ZEE	114	stimuli_target_trianglesquares.svg	stimuli_distractor_trianglediamonds.svg	18	yes	57	0	465	0	0			0	0			1				0	
6.6.1	win	2023-07-13	13:02:24	13:09:23	411387	61020197f83a83260d8c78b4	4	1	main_z	7	main_z	115	stimuli_distractor_trianglediamonds.svg	stimuli_target_squarediamonds.svg	12	yes	44	1	1037	0	0			0	0			1				0	
6.6.1	win	2023-07-13	13:02:24	13:09:23	411387	61020197f83a83260d8c78b4	4	1	main_z	7	advance_on_keypress_ZEE	116	stimuli_distractor_trianglediamonds.svg	stimuli_target_squarediamonds.svg	12	yes	57	0	424	0	0			0	0			1				0	
6.6.1	win	2023-07-13	13:02:24	13:09:25	413482	61020197f83a83260d8c78b4	4	1	main_z	7	main_z	117	stimuli_target_rectanglediamonds.svg	stimuli_distractor_trianglediamonds.svg	2	yes	44	1	1013	0	0			0	0			1				0	
6.6.1	win	2023-07-13	13:02:24	13:09:25	413482	61020197f83a83260d8c78b4	4	1	main_z	7	advance_on_keypress_ZEE	118	stimuli_target_rectanglediamonds.svg	stimuli_distractor_trianglediamonds.svg	2	yes	57	0	466	0	0			0	0			1				0	
6.6.1	win	2023-07-13	13:02:24	13:09:27	415748	61020197f83a83260d8c78b4	4	1	main_z	7	main_z	119	stimuli_target_rectangletriangles.svg	stimuli_distractor_trianglediamonds.svg	1	yes	44	1	1143	0	0			0	0			1				0	
6.6.1	win	2023-07-13	13:02:24	13:09:27	415748	61020197f83a83260d8c78b4	4	1	main_z	7	advance_on_keypress_ZEE	120	stimuli_target_rectangletriangles.svg	stimuli_distractor_trianglediamonds.svg	1	yes	57	0	477	0	0			0	0			1				0	
6.6.1	win	2023-07-13	13:02:24	13:09:30	418183	61020197f83a83260d8c78b4	4	1	main_z	7	main_z	121	stimuli_distractor_diamondtriangles.svg	stimuli_target_rectangletriangles.svg	13	yes	44	1	1290	0	0			0	0			1				0	
6.6.1	win	2023-07-13	13:02:24	13:09:30	418183	61020197f83a83260d8c78b4	4	1	main_z	7	advance_on_keypress_ZEE	122	stimuli_distractor_diamondtriangles.svg	stimuli_target_rectangletriangles.svg	13	yes	57	0	489	0	0			0	0			1				0	
6.6.1	win	2023-07-13	13:02:24	13:09:32	420354	61020197f83a83260d8c78b4	4	1	main_z	7	main_z	123	stimuli_distractor_trianglediamonds.svg	stimuli_target_trianglesquares.svg	26	yes	44	1	1013	0	0			0	0			1				0	
6.6.1	win	2023-07-13	13:02:24	13:09:32	420354	61020197f83a83260d8c78b4	4	1	main_z	7	advance_on_keypress_ZEE	124	stimuli_distractor_trianglediamonds.svg	stimuli_target_trianglesquares.svg	26	yes	57	0	474	0	0			0	0			1				0	
6.6.1	win	2023-07-13	13:02:24	13:09:35	423498	61020197f83a83260d8c78b4	4	1	main_z	7	main_z	125	stimuli_distractor_diamondtriangles.svg	stimuli_distractor_trianglediamonds.svg	37	no	0	1	2000	0	0			0	0			1				0	
6.6.1	win	2023-07-13	13:02:24	13:09:35	423498	61020197f83a83260d8c78b4	4	1	main_z	7	advance_on_keypress_ZEE	126	stimuli_distractor_diamondtriangles.svg	stimuli_distractor_trianglediamonds.svg	37	no	57	0	1161	0	0			0	0			1				0	
6.6.1	win	2023-07-13	13:02:24	13:09:38	426203	61020197f83a83260d8c78b4	4	1	main_z	7	main_z	127	stimuli_target_diamondsquares.svg	stimuli_distractor_diamondtriangles.svg	24	yes	44	1	888	0	0			0	0			1				0	
6.6.1	win	2023-07-13	13:02:24	13:09:38	426203	61020197f83a83260d8c78b4	4	1	main_z	7	advance_on_keypress_ZEE	128	stimuli_target_diamondsquares.svg	stimuli_distractor_diamondtriangles.svg	24	yes	57	0	315	0	0			0	0			1				0	
6.6.1	win	2023-07-13	13:02:24	13:09:40	428602	61020197f83a83260d8c78b4	4	1	main_z	7	main_z	129	stimuli_distractor_diamondtriangles.svg	stimuli_target_trianglesquares.svg	30	yes	44	1	1436	0	0			0	0			1				0	
6.6.1	win	2023-07-13	13:02:24	13:09:40	428602	61020197f83a83260d8c78b4	4	1	main_z	7	advance_on_keypress_ZEE	130	stimuli_distractor_diamondtriangles.svg	stimuli_target_trianglesquares.svg	30	yes	57	0	560	0	0			0	0			1				0	
6.6.1	win	2023-07-13	13:02:24	13:09:42	430730	61020197f83a83260d8c78b4	4	1	main_z	7	main_z	131	stimuli_target_trianglerectangles.svg	stimuli_distractor_trianglediamonds.svg	17	yes	44	1	912	0	0			0	0			1				0	
6.6.1	win	2023-07-13	13:02:24	13:09:42	430730	61020197f83a83260d8c78b4	4	1	main_z	7	advance_on_keypress_ZEE	132	stimuli_target_trianglerectangles.svg	stimuli_distractor_trianglediamonds.svg	17	yes	57	0	409	0	0			0	0			1				0	
6.6.1	win	2023-07-13	13:02:24	13:09:45	433186	61020197f83a83260d8c78b4	4	1	main_z	7	main_z	133	stimuli_distractor_trianglediamonds.svg	stimuli_distractor_trianglediamonds.svg	34	no	44	0	1381	0	0			0	0			1				0	
6.6.1	win	2023-07-13	13:02:24	13:09:45	433186	61020197f83a83260d8c78b4	4	1	main_z	7	advance_on_keypress_ZEE	134	stimuli_distractor_trianglediamonds.svg	stimuli_distractor_trianglediamonds.svg	34	no	57	0	372	0	0			0	0			1				0	
6.6.1	win	2023-07-13	13:02:24	13:09:47	434954	61020197f83a83260d8c78b4	4	1	main_z	7	main_z	135	stimuli_target_trianglesquares.svg	stimuli_distractor_diamondtriangles.svg	22	yes	44	1	747	0	0			0	0			1				0	
6.6.1	win	2023-07-13	13:02:24	13:09:47	434954	61020197f83a83260d8c78b4	4	1	main_z	7	advance_on_keypress_ZEE	136	stimuli_target_trianglesquares.svg	stimuli_distractor_diamondtriangles.svg	22	yes	57	0	452	0	0			0	0			1				0	
6.6.1	win	2023-07-13	13:02:24	13:09:50	438060	61020197f83a83260d8c78b4	4	1	main_z	7	main_z	137	stimuli_distractor_diamondtriangles.svg	stimuli_distractor_trianglediamonds.svg	38	no	0	1	2000	0	0			0	0			1				0	
6.6.1	win	2023-07-13	13:02:24	13:09:50	438060	61020197f83a83260d8c78b4	4	1	main_z	7	advance_on_keypress_ZEE	138	stimuli_distractor_diamondtriangles.svg	stimuli_distractor_trianglediamonds.svg	38	no	57	0	877	0	0			0	0			1				0	
6.6.1	win	2023-07-13	13:02:24	13:09:52	440515	61020197f83a83260d8c78b4	4	1	main_z	7	main_z	139	stimuli_distractor_trianglediamonds.svg	stimuli_target_diamondrectangles.svg	27	yes	44	1	918	0	0			0	0			1				0	
6.6.1	win	2023-07-13	13:02:24	13:09:52	440515	61020197f83a83260d8c78b4	4	1	main_z	7	advance_on_keypress_ZEE	140	stimuli_distractor_trianglediamonds.svg	stimuli_target_diamondrectangles.svg	27	yes	57	0	407	0	0			0	0			1				0	
6.6.1	win	2023-07-13	13:02:24	13:09:54	442638	61020197f83a83260d8c78b4	4	1	main_z	7	main_z	141	stimuli_distractor_diamondtriangles.svg	stimuli_target_squarediamonds.svg	16	yes	44	1	1054	0	0			0	0			1				0	
6.6.1	win	2023-07-13	13:02:24	13:09:54	442638	61020197f83a83260d8c78b4	4	1	main_z	7	advance_on_keypress_ZEE	142	stimuli_distractor_diamondtriangles.svg	stimuli_target_squarediamonds.svg	16	yes	57	0	417	0	0			0	0			1				0	
6.6.1	win	2023-07-13	13:02:24	13:09:57	445674	61020197f83a83260d8c78b4	4	1	main_z	7	main_z	143	stimuli_distractor_diamondtriangles.svg	stimuli_target_diamondrectangles.svg	31	yes	44	1	1957	0	0			0	0			1				0	
6.6.1	win	2023-07-13	13:02:24	13:09:57	445674	61020197f83a83260d8c78b4	4	1	main_z	7	advance_on_keypress_ZEE	144	stimuli_distractor_diamondtriangles.svg	stimuli_target_diamondrectangles.svg	31	yes	57	0	413	0	0			0	0			1				0	
6.6.1	win	2023-07-13	13:02:24	13:09:59	447683	61020197f83a83260d8c78b4	4	1	main_z	7	main_z	145	stimuli_distractor_trianglediamonds.svg	stimuli_target_rectangletriangles.svg	9	yes	44	1	947	0	0			0	0			1				0	
6.6.1	win	2023-07-13	13:02:24	13:09:59	447683	61020197f83a83260d8c78b4	4	1	main_z	7	advance_on_keypress_ZEE	146	stimuli_distractor_trianglediamonds.svg	stimuli_target_rectangletriangles.svg	9	yes	57	0	394	0	0			0	0			1				0	
6.6.1	win	2023-07-13	13:02:24	13:10:02	450738	61020197f83a83260d8c78b4	4	1	main_z	7	main_z	147	stimuli_distractor_diamondtriangles.svg	stimuli_distractor_diamondtriangles.svg	39	no	0	1	2000	0	0			0	0			1				0	
6.6.1	win	2023-07-13	13:02:24	13:10:02	450738	61020197f83a83260d8c78b4	4	1	main_z	7	advance_on_keypress_ZEE	148	stimuli_distractor_diamondtriangles.svg	stimuli_distractor_diamondtriangles.svg	39	no	57	0	469	0	0			0	0			1				0	
6.6.1	win	2023-07-13	13:02:24	13:10:04	452722	61020197f83a83260d8c78b4	4	1	main_z	7	main_z	149	stimuli_distractor_trianglediamonds.svg	stimuli_target_trianglerectangles.svg	25	yes	44	1	864	0	0			0	0			1				0	
6.6.1	win	2023-07-13	13:02:24	13:10:04	452722	61020197f83a83260d8c78b4	4	1	main_z	7	advance_on_keypress_ZEE	150	stimuli_distractor_trianglediamonds.svg	stimuli_target_trianglerectangles.svg	25	yes	57	0	387	0	0			0	0			1				0	
6.6.1	win	2023-07-13	13:02:24	13:10:06	454611	61020197f83a83260d8c78b4	4	1	main_z	7	main_z	151	stimuli_distractor_diamondtriangles.svg	stimuli_target_trianglerectangles.svg	29	yes	44	1	850	0	0			0	0			1				0	
6.6.1	win	2023-07-13	13:02:24	13:10:06	454611	61020197f83a83260d8c78b4	4	1	main_z	7	advance_on_keypress_ZEE	152	stimuli_distractor_diamondtriangles.svg	stimuli_target_trianglerectangles.svg	29	yes	57	0	455	0	0			0	0			1				0	
6.6.1	win	2023-07-13	13:02:24	13:10:09	457712	61020197f83a83260d8c78b4	4	1	main_z	7	main_z	153	stimuli_distractor_trianglediamonds.svg	stimuli_target_rectanglediamonds.svg	10	yes	0	0	2000	0	0			0	0			1				0	
6.6.1	win	2023-07-13	13:02:24	13:10:09	457712	61020197f83a83260d8c78b4	4	1	main_z	7	advance_on_keypress_ZEE	154	stimuli_distractor_trianglediamonds.svg	stimuli_target_rectanglediamonds.svg	10	yes	57	0	591	0	0			0	0			1				0	
6.6.1	win	2023-07-13	13:02:24	13:10:13	460966	61020197f83a83260d8c78b4	4	1	main_z	7	main_z	155	stimuli_distractor_trianglediamonds.svg	stimuli_distractor_diamondtriangles.svg	35	no	0	1	2000	0	0			0	0			1				0	
6.6.1	win	2023-07-13	13:02:24	13:10:13	460966	61020197f83a83260d8c78b4	4	1	main_z	7	advance_on_keypress_ZEE	156	stimuli_distractor_trianglediamonds.svg	stimuli_distractor_diamondtriangles.svg	35	no	57	0	386	0	0			0	0			1				0	
6.6.1	win	2023-07-13	13:02:24	13:10:14	462795	61020197f83a83260d8c78b4	4	1	main_z	7	main_z	157	stimuli_distractor_diamondtriangles.svg	stimuli_target_diamondsquares.svg	32	yes	44	1	777	0	0			0	0			1				0	
6.6.1	win	2023-07-13	13:02:24	13:10:14	462795	61020197f83a83260d8c78b4	4	1	main_z	7	advance_on_keypress_ZEE	158	stimuli_distractor_diamondtriangles.svg	stimuli_target_diamondsquares.svg	32	yes	57	0	375	0	0			0	0			1				0	
6.6.1	win	2023-07-13	13:02:24	13:10:16	464723	61020197f83a83260d8c78b4	4	1	main_z	7	main_z	159	stimuli_target_squaretriangles.svg	stimuli_distractor_diamondtriangles.svg	7	yes	44	1	886	0	0			0	0			1				0	
6.6.1	win	2023-07-13	13:02:24	13:10:16	464723	61020197f83a83260d8c78b4	4	1	main_z	7	advance_on_keypress_ZEE	160	stimuli_target_squaretriangles.svg	stimuli_distractor_diamondtriangles.svg	7	yes	57	0	385	0	0			0	0			1				0	
6.6.1	win	2023-07-13	13:02:24	13:10:50	498225	61020197f83a83260d8c78b4	4	1	practice_slash	9	practice_slash	1	stimuli_target_rectanglediamonds.svg	stimuli_distractor_diamondtriangles.svg	1	yes	0	0	2000	0	0			0	0			1				0	
6.6.1	win	2023-07-13	13:02:24	13:10:50	498225	61020197f83a83260d8c78b4	4	1	practice_slash	9	advance_on_keypress_SLASH	2	stimuli_target_rectanglediamonds.svg	stimuli_distractor_diamondtriangles.svg	1	yes	57	0	2388	0	0			0	0			1				0	
6.6.1	win	2023-07-13	13:02:24	13:10:55	502981	61020197f83a83260d8c78b4	4	1	practice_slash	9	practice_slash	3	stimuli_target_diamondsquares.svg	stimuli_distractor_trianglediamonds.svg	6	yes	53	1	704	0	0			0	0			1				0	
6.6.1	win	2023-07-13	13:02:24	13:10:55	502981	61020197f83a83260d8c78b4	4	1	practice_slash	9	advance_on_keypress_SLASH	4	stimuli_target_diamondsquares.svg	stimuli_distractor_trianglediamonds.svg	6	yes	57	0	642	0	0			0	0			1				0	
6.6.1	win	2023-07-13	13:02:24	13:10:58	506184	61020197f83a83260d8c78b4	4	1	practice_slash	9	practice_slash	5	stimuli_target_squarediamonds.svg	stimuli_distractor_trianglediamonds.svg	5	yes	53	1	902	0	0			0	0			1				0	
6.6.1	win	2023-07-13	13:02:24	13:10:58	506184	61020197f83a83260d8c78b4	4	1	practice_slash	9	advance_on_keypress_SLASH	6	stimuli_target_squarediamonds.svg	stimuli_distractor_trianglediamonds.svg	5	yes	57	0	3158	0	0			0	0			1				0	
6.6.1	win	2023-07-13	13:02:24	13:11:04	512242	61020197f83a83260d8c78b4	4	1	practice_slash	9	practice_slash	7	stimuli_distractor_trianglediamonds.svg	stimuli_distractor_diamondtriangles.svg	16	no	53	0	1236	0	0			0	0			1				0	
6.6.1	win	2023-07-13	13:02:24	13:11:04	512242	61020197f83a83260d8c78b4	4	1	practice_slash	9	advance_on_keypress_SLASH	8	stimuli_distractor_trianglediamonds.svg	stimuli_distractor_diamondtriangles.svg	16	no	57	0	589	0	0			0	0			1				0	
6.6.1	win	2023-07-13	13:02:24	13:11:07	515366	61020197f83a83260d8c78b4	4	1	practice_slash	9	practice_slash	9	stimuli_distractor_diamondtriangles.svg	stimuli_target_diamondrectangles.svg	8	yes	53	1	860	0	0			0	0			1				0	
6.6.1	win	2023-07-13	13:02:24	13:11:07	515366	61020197f83a83260d8c78b4	4	1	practice_slash	9	advance_on_keypress_SLASH	10	stimuli_distractor_diamondtriangles.svg	stimuli_target_diamondrectangles.svg	8	yes	57	0	534	0	0			0	0			1				0	
6.6.1	win	2023-07-13	13:02:24	13:11:11	519563	61020197f83a83260d8c78b4	4	1	practice_slash	9	practice_slash	11	stimuli_distractor_diamondtriangles.svg	stimuli_distractor_trianglediamonds.svg	14	no	0	1	2000	0	0			0	0			1				0	
6.6.1	win	2023-07-13	13:02:24	13:11:11	519563	61020197f83a83260d8c78b4	4	1	practice_slash	9	advance_on_keypress_SLASH	12	stimuli_distractor_diamondtriangles.svg	stimuli_distractor_trianglediamonds.svg	14	no	57	0	498	0	0			0	0			1				0	
6.6.1	win	2023-07-13	13:02:24	13:11:14	522550	61020197f83a83260d8c78b4	4	1	practice_slash	9	practice_slash	13	stimuli_target_diamondsquares.svg	stimuli_distractor_diamondtriangles.svg	3	yes	53	1	837	0	0			0	0			1				0	
6.6.1	win	2023-07-13	13:02:24	13:11:14	522550	61020197f83a83260d8c78b4	4	1	practice_slash	9	advance_on_keypress_SLASH	14	stimuli_target_diamondsquares.svg	stimuli_distractor_diamondtriangles.svg	3	yes	57	0	326	0	0			0	0			1				0	
6.6.1	win	2023-07-13	13:02:24	13:11:18	526556	61020197f83a83260d8c78b4	4	1	practice_slash	9	practice_slash	15	stimuli_distractor_diamondtriangles.svg	stimuli_distractor_diamondtriangles.svg	13	no	0	1	2000	0	0			0	0			1				0	
6.6.1	win	2023-07-13	13:02:24	13:11:18	526556	61020197f83a83260d8c78b4	4	1	practice_slash	9	advance_on_keypress_SLASH	16	stimuli_distractor_diamondtriangles.svg	stimuli_distractor_diamondtriangles.svg	13	no	57	0	323	0	0			0	0			1				0	
6.6.1	win	2023-07-13	13:02:24	13:11:21	529518	61020197f83a83260d8c78b4	4	1	practice_slash	9	practice_slash	17	stimuli_target_rectanglediamonds.svg	stimuli_distractor_trianglediamonds.svg	4	yes	53	1	964	0	0			0	0			1				0	
6.6.1	win	2023-07-13	13:02:24	13:11:21	529518	61020197f83a83260d8c78b4	4	1	practice_slash	9	advance_on_keypress_SLASH	18	stimuli_target_rectanglediamonds.svg	stimuli_distractor_trianglediamonds.svg	4	yes	57	0	347	0	0			0	0			1				0	
6.6.1	win	2023-07-13	13:02:24	13:11:24	532638	61020197f83a83260d8c78b4	4	1	practice_slash	9	practice_slash	19	stimuli_distractor_diamondtriangles.svg	stimuli_target_rectangletriangles.svg	7	yes	53	1	1114	0	0			0	0			1				0	
6.6.1	win	2023-07-13	13:02:24	13:11:24	532638	61020197f83a83260d8c78b4	4	1	practice_slash	9	advance_on_keypress_SLASH	20	stimuli_distractor_diamondtriangles.svg	stimuli_target_rectangletriangles.svg	7	yes	57	0	459	0	0			0	0			1				0	
6.6.1	win	2023-07-13	13:02:24	13:11:27	535862	61020197f83a83260d8c78b4	4	1	practice_slash	9	practice_slash	21	stimuli_distractor_diamondtriangles.svg	stimuli_target_trianglerectangles.svg	9	yes	53	1	1102	0	0			0	0			1				0	
6.6.1	win	2023-07-13	13:02:24	13:11:27	535862	61020197f83a83260d8c78b4	4	1	practice_slash	9	advance_on_keypress_SLASH	22	stimuli_distractor_diamondtriangles.svg	stimuli_target_trianglerectangles.svg	9	yes	57	0	390	0	0			0	0			1				0	
6.6.1	win	2023-07-13	13:02:24	13:11:32	539913	61020197f83a83260d8c78b4	4	1	practice_slash	9	practice_slash	23	stimuli_distractor_trianglediamonds.svg	stimuli_target_rectanglediamonds.svg	10	yes	0	0	2000	0	0			0	0			1				0	
6.6.1	win	2023-07-13	13:02:24	13:11:32	539913	61020197f83a83260d8c78b4	4	1	practice_slash	9	advance_on_keypress_SLASH	24	stimuli_distractor_trianglediamonds.svg	stimuli_target_rectanglediamonds.svg	10	yes	57	0	424	0	0			0	0			1				0	
6.6.1	win	2023-07-13	13:02:24	13:11:34	542847	61020197f83a83260d8c78b4	4	1	practice_slash	9	practice_slash	25	stimuli_target_squarediamonds.svg	stimuli_distractor_diamondtriangles.svg	2	yes	53	1	845	0	0			0	0			1				0	
6.6.1	win	2023-07-13	13:02:24	13:11:34	542847	61020197f83a83260d8c78b4	4	1	practice_slash	9	advance_on_keypress_SLASH	26	stimuli_target_squarediamonds.svg	stimuli_distractor_diamondtriangles.svg	2	yes	57	0	321	0	0			0	0			1				0	
6.6.1	win	2023-07-13	13:02:24	13:11:37	545740	61020197f83a83260d8c78b4	4	1	practice_slash	9	practice_slash	27	stimuli_distractor_trianglediamonds.svg	stimuli_target_diamondrectangles.svg	12	yes	53	1	897	0	0			0	0			1				0	
6.6.1	win	2023-07-13	13:02:24	13:11:37	545740	61020197f83a83260d8c78b4	4	1	practice_slash	9	advance_on_keypress_SLASH	28	stimuli_distractor_trianglediamonds.svg	stimuli_target_diamondrectangles.svg	12	yes	57	0	329	0	0			0	0			1				0	
6.6.1	win	2023-07-13	13:02:24	13:11:40	548749	61020197f83a83260d8c78b4	4	1	practice_slash	9	practice_slash	29	stimuli_distractor_trianglediamonds.svg	stimuli_distractor_trianglediamonds.svg	15	no	53	0	1004	0	0			0	0			1				0	
6.6.1	win	2023-07-13	13:02:24	13:11:40	548749	61020197f83a83260d8c78b4	4	1	practice_slash	9	advance_on_keypress_SLASH	30	stimuli_distractor_trianglediamonds.svg	stimuli_distractor_trianglediamonds.svg	15	no	57	0	1038	0	0			0	0			1				0	
6.6.1	win	2023-07-13	13:02:24	13:11:44	552345	61020197f83a83260d8c78b4	4	1	practice_slash	9	practice_slash	31	stimuli_distractor_trianglediamonds.svg	stimuli_target_squarediamonds.svg	11	yes	53	1	899	0	0			0	0			1				0	
6.6.1	win	2023-07-13	13:02:24	13:11:44	552345	61020197f83a83260d8c78b4	4	1	practice_slash	9	advance_on_keypress_SLASH	32	stimuli_distractor_trianglediamonds.svg	stimuli_target_squarediamonds.svg	11	yes	57	0	356	0	0			0	0			1				0	
6.6.1	win	2023-07-13	13:02:24	13:11:51	559097	61020197f83a83260d8c78b4	4	1	main_slash	11	main_slash	1	stimuli_distractor_diamondtriangles.svg	stimuli_distractor_diamondtriangles.svg	40	no	0	1	2000	0	0			0	0			1				0	
6.6.1	win	2023-07-13	13:02:24	13:11:51	559097	61020197f83a83260d8c78b4	4	1	main_slash	11	advance_on_keypress_SLASH	2	stimuli_distractor_diamondtriangles.svg	stimuli_distractor_diamondtriangles.svg	40	no	57	0	375	0	0			0	0			1				0	
6.6.1	win	2023-07-13	13:02:24	13:11:53	560955	61020197f83a83260d8c78b4	4	1	main_slash	11	main_slash	3	stimuli_target_diamondrectangles.svg	stimuli_distractor_diamondtriangles.svg	23	yes	53	1	821	0	0			0	0			1				0	
6.6.1	win	2023-07-13	13:02:24	13:11:53	560955	61020197f83a83260d8c78b4	4	1	main_slash	11	advance_on_keypress_SLASH	4	stimuli_target_diamondrectangles.svg	stimuli_distractor_diamondtriangles.svg	23	yes	57	0	651	0	0			0	0			1				0	
6.6.1	win	2023-07-13	13:02:24	13:11:55	563074	61020197f83a83260d8c78b4	4	1	main_slash	11	main_slash	5	stimuli_target_diamondrectangles.svg	stimuli_distractor_trianglediamonds.svg	19	yes	53	1	822	0	0			0	0			1				0	
6.6.1	win	2023-07-13	13:02:24	13:11:55	563074	61020197f83a83260d8c78b4	4	1	main_slash	11	advance_on_keypress_SLASH	6	stimuli_target_diamondrectangles.svg	stimuli_distractor_trianglediamonds.svg	19	yes	57	0	452	0	0			0	0			1				0	
6.6.1	win	2023-07-13	13:02:24	13:11:57	565246	61020197f83a83260d8c78b4	4	1	main_slash	11	main_slash	7	stimuli_target_squarediamonds.svg	stimuli_distractor_trianglediamonds.svg	4	yes	53	1	1073	0	0			0	0			1				0	
6.6.1	win	2023-07-13	13:02:24	13:11:57	565246	61020197f83a83260d8c78b4	4	1	main_slash	11	advance_on_keypress_SLASH	8	stimuli_target_squarediamonds.svg	stimuli_distractor_trianglediamonds.svg	4	yes	57	0	563	0	0			0	0			1				0	
6.6.1	win	2023-07-13	13:02:24	13:11:59	567299	61020197f83a83260d8c78b4	4	1	main_slash	11	main_slash	9	stimuli_target_rectangletriangles.svg	stimuli_distractor_trianglediamonds.svg	1	yes	53	1	826	0	0			0	0			1				0	
6.6.1	win	2023-07-13	13:02:24	13:11:59	567299	61020197f83a83260d8c78b4	4	1	main_slash	11	advance_on_keypress_SLASH	10	stimuli_target_rectangletriangles.svg	stimuli_distractor_trianglediamonds.svg	1	yes	57	0	511	0	0			0	0			1				0	
6.6.1	win	2023-07-13	13:02:24	13:12:01	569379	61020197f83a83260d8c78b4	4	1	main_slash	11	main_slash	11	stimuli_distractor_trianglediamonds.svg	stimuli_target_squarediamonds.svg	12	yes	53	1	904	0	0			0	0			1				0	
6.6.1	win	2023-07-13	13:02:24	13:12:01	569379	61020197f83a83260d8c78b4	4	1	main_slash	11	advance_on_keypress_SLASH	12	stimuli_distractor_trianglediamonds.svg	stimuli_target_squarediamonds.svg	12	yes	57	0	441	0	0			0	0			1				0	
6.6.1	win	2023-07-13	13:02:24	13:12:03	571402	61020197f83a83260d8c78b4	4	1	main_slash	11	main_slash	13	stimuli_distractor_trianglediamonds.svg	stimuli_target_diamondrectangles.svg	27	yes	53	1	926	0	0			0	0			1				0	
6.6.1	win	2023-07-13	13:02:24	13:12:03	571402	61020197f83a83260d8c78b4	4	1	main_slash	11	advance_on_keypress_SLASH	14	stimuli_distractor_trianglediamonds.svg	stimuli_target_diamondrectangles.svg	27	yes	57	0	390	0	0			0	0			1				0	
6.6.1	win	2023-07-13	13:02:24	13:12:05	573474	61020197f83a83260d8c78b4	4	1	main_slash	11	main_slash	15	stimuli_distractor_diamondtriangles.svg	stimuli_distractor_trianglediamonds.svg	37	no	53	0	1012	0	0			0	0			1				0	
6.6.1	win	2023-07-13	13:02:24	13:12:05	573474	61020197f83a83260d8c78b4	4	1	main_slash	11	advance_on_keypress_SLASH	16	stimuli_distractor_diamondtriangles.svg	stimuli_distractor_trianglediamonds.svg	37	no	57	0	402	0	0			0	0			1				0	
6.6.1	win	2023-07-13	13:02:24	13:12:07	575563	61020197f83a83260d8c78b4	4	1	main_slash	11	main_slash	17	stimuli_target_trianglerectangles.svg	stimuli_distractor_diamondtriangles.svg	21	yes	53	1	1032	0	0			0	0			1				0	
6.6.1	win	2023-07-13	13:02:24	13:12:07	575563	61020197f83a83260d8c78b4	4	1	main_slash	11	advance_on_keypress_SLASH	18	stimuli_target_trianglerectangles.svg	stimuli_distractor_diamondtriangles.svg	21	yes	57	0	403	0	0			0	0			1				0	
6.6.1	win	2023-07-13	13:02:24	13:12:10	577990	61020197f83a83260d8c78b4	4	1	main_slash	11	main_slash	19	stimuli_distractor_diamondtriangles.svg	stimuli_target_rectangletriangles.svg	13	yes	53	1	1354	0	0			0	0			1				0	
6.6.1	win	2023-07-13	13:02:24	13:12:10	577990	61020197f83a83260d8c78b4	4	1	main_slash	11	advance_on_keypress_SLASH	20	stimuli_distractor_diamondtriangles.svg	stimuli_target_rectangletriangles.svg	13	yes	57	0	569	0	0			0	0			1				0	
6.6.1	win	2023-07-13	13:02:24	13:12:12	580701	61020197f83a83260d8c78b4	4	1	main_slash	11	main_slash	21	stimuli_distractor_diamondtriangles.svg	stimuli_distractor_trianglediamonds.svg	38	no	53	0	1480	0	0			0	0			1				0	
6.6.1	win	2023-07-13	13:02:24	13:12:12	580701	61020197f83a83260d8c78b4	4	1	main_slash	11	advance_on_keypress_SLASH	22	stimuli_distractor_diamondtriangles.svg	stimuli_distractor_trianglediamonds.svg	38	no	57	0	570	0	0			0	0			1				0	
6.6.1	win	2023-07-13	13:02:24	13:12:14	582810	61020197f83a83260d8c78b4	4	1	main_slash	11	main_slash	23	stimuli_distractor_trianglediamonds.svg	stimuli_target_rectanglediamonds.svg	10	yes	53	1	872	0	0			0	0			1				0	
6.6.1	win	2023-07-13	13:02:24	13:12:14	582810	61020197f83a83260d8c78b4	4	1	main_slash	11	advance_on_keypress_SLASH	24	stimuli_distractor_trianglediamonds.svg	stimuli_target_rectanglediamonds.svg	10	yes	57	0	452	0	0			0	0			1				0	
6.6.1	win	2023-07-13	13:02:24	13:12:18	585908	61020197f83a83260d8c78b4	4	1	main_slash	11	main_slash	25	stimuli_distractor_diamondtriangles.svg	stimuli_distractor_diamondtriangles.svg	39	no	0	1	2000	0	0			0	0			1				0	
6.6.1	win	2023-07-13	13:02:24	13:12:18	585908	61020197f83a83260d8c78b4	4	1	main_slash	11	advance_on_keypress_SLASH	26	stimuli_distractor_diamondtriangles.svg	stimuli_distractor_diamondtriangles.svg	39	no	57	0	645	0	0			0	0			1				0	
6.6.1	win	2023-07-13	13:02:24	13:12:20	587892	61020197f83a83260d8c78b4	4	1	main_slash	11	main_slash	27	stimuli_target_squarediamonds.svg	stimuli_distractor_diamondtriangles.svg	8	yes	53	1	682	0	0			0	0			1				0	
6.6.1	win	2023-07-13	13:02:24	13:12:20	587892	61020197f83a83260d8c78b4	4	1	main_slash	11	advance_on_keypress_SLASH	28	stimuli_target_squarediamonds.svg	stimuli_distractor_diamondtriangles.svg	8	yes	57	0	531	0	0			0	0			1				0	
6.6.1	win	2023-07-13	13:02:24	13:12:22	589882	61020197f83a83260d8c78b4	4	1	main_slash	11	main_slash	29	stimuli_target_trianglesquares.svg	stimuli_distractor_trianglediamonds.svg	18	yes	53	1	804	0	0			0	0			1				0	
6.6.1	win	2023-07-13	13:02:24	13:12:22	589882	61020197f83a83260d8c78b4	4	1	main_slash	11	advance_on_keypress_SLASH	30	stimuli_target_trianglesquares.svg	stimuli_distractor_trianglediamonds.svg	18	yes	57	0	434	0	0			0	0			1				0	
6.6.1	win	2023-07-13	13:02:24	13:12:23	591779	61020197f83a83260d8c78b4	4	1	main_slash	11	main_slash	31	stimuli_target_rectanglediamonds.svg	stimuli_distractor_diamondtriangles.svg	6	yes	53	1	815	0	0			0	0			1				0	
6.6.1	win	2023-07-13	13:02:24	13:12:23	591779	61020197f83a83260d8c78b4	4	1	main_slash	11	advance_on_keypress_SLASH	32	stimuli_target_rectanglediamonds.svg	stimuli_distractor_diamondtriangles.svg	6	yes	57	0	476	0	0			0	0			1				0	
6.6.1	win	2023-07-13	13:02:24	13:12:26	593974	61020197f83a83260d8c78b4	4	1	main_slash	11	main_slash	33	stimuli_distractor_diamondtriangles.svg	stimuli_target_trianglerectangles.svg	29	yes	53	1	1055	0	0			0	0			1				0	
6.6.1	win	2023-07-13	13:02:24	13:12:26	593974	61020197f83a83260d8c78b4	4	1	main_slash	11	advance_on_keypress_SLASH	34	stimuli_distractor_diamondtriangles.svg	stimuli_target_trianglerectangles.svg	29	yes	57	0	385	0	0			0	0			1				0	
6.6.1	win	2023-07-13	13:02:24	13:12:28	596578	61020197f83a83260d8c78b4	4	1	main_slash	11	main_slash	35	stimuli_target_diamondsquares.svg	stimuli_distractor_diamondtriangles.svg	24	yes	53	1	1560	0	0			0	0			1				0	
6.6.1	win	2023-07-13	13:02:24	13:12:28	596578	61020197f83a83260d8c78b4	4	1	main_slash	11	advance_on_keypress_SLASH	36	stimuli_target_diamondsquares.svg	stimuli_distractor_diamondtriangles.svg	24	yes	57	0	352	0	0			0	0			1				0	
6.6.1	win	2023-07-13	13:02:24	13:12:31	599605	61020197f83a83260d8c78b4	4	1	main_slash	11	main_slash	37	stimuli_distractor_trianglediamonds.svg	stimuli_distractor_trianglediamonds.svg	34	no	0	1	2000	0	0			0	0			1				0	
6.6.1	win	2023-07-13	13:02:24	13:12:31	599605	61020197f83a83260d8c78b4	4	1	main_slash	11	advance_on_keypress_SLASH	38	stimuli_distractor_trianglediamonds.svg	stimuli_distractor_trianglediamonds.svg	34	no	57	0	588	0	0			0	0			1				0	
6.6.1	win	2023-07-13	13:02:24	13:12:34	602841	61020197f83a83260d8c78b4	4	1	main_slash	11	main_slash	39	stimuli_distractor_trianglediamonds.svg	stimuli_distractor_trianglediamonds.svg	33	no	0	1	2000	0	0			0	0			1				0	
6.6.1	win	2023-07-13	13:02:24	13:12:34	602841	61020197f83a83260d8c78b4	4	1	main_slash	11	advance_on_keypress_SLASH	40	stimuli_distractor_trianglediamonds.svg	stimuli_distractor_trianglediamonds.svg	33	no	57	0	487	0	0			0	0			1				0	
6.6.1	win	2023-07-13	13:02:24	13:12:36	604734	61020197f83a83260d8c78b4	4	1	main_slash	11	main_slash	41	stimuli_distractor_diamondtriangles.svg	stimuli_target_diamondrectangles.svg	31	yes	53	1	754	0	0			0	0			1				0	
6.6.1	win	2023-07-13	13:02:24	13:12:36	604734	61020197f83a83260d8c78b4	4	1	main_slash	11	advance_on_keypress_SLASH	42	stimuli_distractor_diamondtriangles.svg	stimuli_target_diamondrectangles.svg	31	yes	57	0	401	0	0			0	0			1				0	
6.6.1	win	2023-07-13	13:02:24	13:12:38	606558	61020197f83a83260d8c78b4	4	1	main_slash	11	main_slash	43	stimuli_distractor_trianglediamonds.svg	stimuli_target_trianglerectangles.svg	25	yes	53	1	760	0	0			0	0			1				0	
6.6.1	win	2023-07-13	13:02:24	13:12:38	606558	61020197f83a83260d8c78b4	4	1	main_slash	11	advance_on_keypress_SLASH	44	stimuli_distractor_trianglediamonds.svg	stimuli_target_trianglerectangles.svg	25	yes	57	0	399	0	0			0	0			1				0	
6.6.1	win	2023-07-13	13:02:24	13:12:40	608366	61020197f83a83260d8c78b4	4	1	main_slash	11	main_slash	45	stimuli_target_squaretriangles.svg	stimuli_distractor_trianglediamonds.svg	3	yes	53	1	749	0	0			0	0			1				0	
6.6.1	win	2023-07-13	13:02:24	13:12:40	608366	61020197f83a83260d8c78b4	4	1	main_slash	11	advance_on_keypress_SLASH	46	stimuli_target_squaretriangles.svg	stimuli_distractor_trianglediamonds.svg	3	yes	57	0	412	0	0			0	0			1				0	
6.6.1	win	2023-07-13	13:02:24	13:12:42	610315	61020197f83a83260d8c78b4	4	1	main_slash	11	main_slash	47	stimuli_target_trianglerectangles.svg	stimuli_distractor_trianglediamonds.svg	17	yes	53	1	883	0	0			0	0			1				0	
6.6.1	win	2023-07-13	13:02:24	13:12:42	610315	61020197f83a83260d8c78b4	4	1	main_slash	11	advance_on_keypress_SLASH	48	stimuli_target_trianglerectangles.svg	stimuli_distractor_trianglediamonds.svg	17	yes	57	0	373	0	0			0	0			1				0	
6.6.1	win	2023-07-13	13:02:24	13:12:45	613351	61020197f83a83260d8c78b4	4	1	main_slash	11	main_slash	49	stimuli_distractor_trianglediamonds.svg	stimuli_distractor_diamondtriangles.svg	36	no	0	1	2000	0	0			0	0			1				0	
6.6.1	win	2023-07-13	13:02:24	13:12:45	613351	61020197f83a83260d8c78b4	4	1	main_slash	11	advance_on_keypress_SLASH	50	stimuli_distractor_trianglediamonds.svg	stimuli_distractor_diamondtriangles.svg	36	no	57	0	528	0	0			0	0			1				0	
6.6.1	win	2023-07-13	13:02:24	13:12:47	615394	61020197f83a83260d8c78b4	4	1	main_slash	11	main_slash	51	stimuli_distractor_diamondtriangles.svg	stimuli_target_squarediamonds.svg	16	yes	53	1	857	0	0			0	0			1				0	
6.6.1	win	2023-07-13	13:02:24	13:12:47	615394	61020197f83a83260d8c78b4	4	1	main_slash	11	advance_on_keypress_SLASH	52	stimuli_distractor_diamondtriangles.svg	stimuli_target_squarediamonds.svg	16	yes	57	0	348	0	0			0	0			1				0	
6.6.1	win	2023-07-13	13:02:24	13:12:49	617163	61020197f83a83260d8c78b4	4	1	main_slash	11	main_slash	53	stimuli_target_rectanglediamonds.svg	stimuli_distractor_trianglediamonds.svg	2	yes	53	1	773	0	0			0	0			1				0	
6.6.1	win	2023-07-13	13:02:24	13:12:49	617163	61020197f83a83260d8c78b4	4	1	main_slash	11	advance_on_keypress_SLASH	54	stimuli_target_rectanglediamonds.svg	stimuli_distractor_trianglediamonds.svg	2	yes	57	0	404	0	0			0	0			1				0	
6.6.1	win	2023-07-13	13:02:24	13:12:51	618924	61020197f83a83260d8c78b4	4	1	main_slash	11	main_slash	55	stimuli_target_squaretriangles.svg	stimuli_distractor_diamondtriangles.svg	7	yes	53	1	714	0	0			0	0			1				0	
6.6.1	win	2023-07-13	13:02:24	13:12:51	618924	61020197f83a83260d8c78b4	4	1	main_slash	11	advance_on_keypress_SLASH	56	stimuli_target_squaretriangles.svg	stimuli_distractor_diamondtriangles.svg	7	yes	57	0	524	0	0			0	0			1				0	
6.6.1	win	2023-07-13	13:02:24	13:12:53	621035	61020197f83a83260d8c78b4	4	1	main_slash	11	main_slash	57	stimuli_distractor_diamondtriangles.svg	stimuli_target_trianglesquares.svg	30	yes	53	1	925	0	0			0	0			1				0	
6.6.1	win	2023-07-13	13:02:24	13:12:53	621035	61020197f83a83260d8c78b4	4	1	main_slash	11	advance_on_keypress_SLASH	58	stimuli_distractor_diamondtriangles.svg	stimuli_target_trianglesquares.svg	30	yes	57	0	390	0	0			0	0			1				0	
6.6.1	win	2023-07-13	13:02:24	13:12:55	622890	61020197f83a83260d8c78b4	4	1	main_slash	11	main_slash	59	stimuli_target_rectangletriangles.svg	stimuli_distractor_diamondtriangles.svg	5	yes	53	1	795	0	0			0	0			1				0	
6.6.1	win	2023-07-13	13:02:24	13:12:55	622890	61020197f83a83260d8c78b4	4	1	main_slash	11	advance_on_keypress_SLASH	60	stimuli_target_rectangletriangles.svg	stimuli_distractor_diamondtriangles.svg	5	yes	57	0	394	0	0			0	0			1				0	
6.6.1	win	2023-07-13	13:02:24	13:12:57	624979	61020197f83a83260d8c78b4	4	1	main_slash	11	main_slash	61	stimuli_distractor_trianglediamonds.svg	stimuli_distractor_diamondtriangles.svg	35	no	53	0	1032	0	0			0	0			1				0	
6.6.1	win	2023-07-13	13:02:24	13:12:57	624979	61020197f83a83260d8c78b4	4	1	main_slash	11	advance_on_keypress_SLASH	62	stimuli_distractor_trianglediamonds.svg	stimuli_distractor_diamondtriangles.svg	35	no	57	0	404	0	0			0	0			1				0	
6.6.1	win	2023-07-13	13:02:24	13:12:58	626794	61020197f83a83260d8c78b4	4	1	main_slash	11	main_slash	63	stimuli_distractor_trianglediamonds.svg	stimuli_target_rectangletriangles.svg	9	yes	53	1	762	0	0			0	0			1				0	
6.6.1	win	2023-07-13	13:02:24	13:12:58	626794	61020197f83a83260d8c78b4	4	1	main_slash	11	advance_on_keypress_SLASH	64	stimuli_distractor_trianglediamonds.svg	stimuli_target_rectangletriangles.svg	9	yes	57	0	434	0	0			0	0			1				0	
6.6.1	win	2023-07-13	13:02:24	13:13:00	628699	61020197f83a83260d8c78b4	4	1	main_slash	11	main_slash	65	stimuli_distractor_diamondtriangles.svg	stimuli_target_squaretriangles.svg	15	yes	53	1	815	0	0			0	0			1				0	
6.6.1	win	2023-07-13	13:02:24	13:13:00	628699	61020197f83a83260d8c78b4	4	1	main_slash	11	advance_on_keypress_SLASH	66	stimuli_distractor_diamondtriangles.svg	stimuli_target_squaretriangles.svg	15	yes	57	0	436	0	0			0	0			1				0	
6.6.1	win	2023-07-13	13:02:24	13:13:02	630755	61020197f83a83260d8c78b4	4	1	main_slash	11	main_slash	67	stimuli_target_trianglesquares.svg	stimuli_distractor_diamondtriangles.svg	22	yes	53	1	969	0	0			0	0			1				0	
6.6.1	win	2023-07-13	13:02:24	13:13:02	630755	61020197f83a83260d8c78b4	4	1	main_slash	11	advance_on_keypress_SLASH	68	stimuli_target_trianglesquares.svg	stimuli_distractor_diamondtriangles.svg	22	yes	57	0	391	0	0			0	0			1				0	
6.6.1	win	2023-07-13	13:02:24	13:13:04	632714	61020197f83a83260d8c78b4	4	1	main_slash	11	main_slash	69	stimuli_distractor_diamondtriangles.svg	stimuli_target_diamondsquares.svg	32	yes	53	1	910	0	0			0	0			1				0	
6.6.1	win	2023-07-13	13:02:24	13:13:04	632714	61020197f83a83260d8c78b4	4	1	main_slash	11	advance_on_keypress_SLASH	70	stimuli_distractor_diamondtriangles.svg	stimuli_target_diamondsquares.svg	32	yes	57	0	439	0	0			0	0			1				0	
6.6.1	win	2023-07-13	13:02:24	13:13:06	634546	61020197f83a83260d8c78b4	4	1	main_slash	11	main_slash	71	stimuli_distractor_trianglediamonds.svg	stimuli_target_trianglesquares.svg	26	yes	53	1	724	0	0			0	0			1				0	
6.6.1	win	2023-07-13	13:02:24	13:13:06	634546	61020197f83a83260d8c78b4	4	1	main_slash	11	advance_on_keypress_SLASH	72	stimuli_distractor_trianglediamonds.svg	stimuli_target_trianglesquares.svg	26	yes	57	0	438	0	0			0	0			1				0	
6.6.1	win	2023-07-13	13:02:24	13:13:09	636922	61020197f83a83260d8c78b4	4	1	main_slash	11	main_slash	73	stimuli_distractor_diamondtriangles.svg	stimuli_target_rectanglediamonds.svg	14	yes	53	1	1280	0	0			0	0			1				0	
6.6.1	win	2023-07-13	13:02:24	13:13:09	636922	61020197f83a83260d8c78b4	4	1	main_slash	11	advance_on_keypress_SLASH	74	stimuli_distractor_diamondtriangles.svg	stimuli_target_rectanglediamonds.svg	14	yes	57	0	355	0	0			0	0			1				0	
6.6.1	win	2023-07-13	13:02:24	13:13:10	638778	61020197f83a83260d8c78b4	4	1	main_slash	11	main_slash	75	stimuli_distractor_trianglediamonds.svg	stimuli_target_squaretriangles.svg	11	yes	53	1	834	0	0			0	0			1				0	
6.6.1	win	2023-07-13	13:02:24	13:13:10	638778	61020197f83a83260d8c78b4	4	1	main_slash	11	advance_on_keypress_SLASH	76	stimuli_distractor_trianglediamonds.svg	stimuli_target_squaretriangles.svg	11	yes	57	0	462	0	0			0	0			1				0	
6.6.1	win	2023-07-13	13:02:24	13:13:12	640843	61020197f83a83260d8c78b4	4	1	main_slash	11	main_slash	77	stimuli_target_diamondsquares.svg	stimuli_distractor_trianglediamonds.svg	20	yes	53	1	947	0	0			0	0			1				0	
6.6.1	win	2023-07-13	13:02:24	13:13:12	640843	61020197f83a83260d8c78b4	4	1	main_slash	11	advance_on_keypress_SLASH	78	stimuli_target_diamondsquares.svg	stimuli_distractor_trianglediamonds.svg	20	yes	57	0	396	0	0			0	0			1				0	
6.6.1	win	2023-07-13	13:02:24	13:13:14	642658	61020197f83a83260d8c78b4	4	1	main_slash	11	main_slash	79	stimuli_distractor_trianglediamonds.svg	stimuli_target_diamondsquares.svg	28	yes	53	1	759	0	0			0	0			1				0	
6.6.1	win	2023-07-13	13:02:24	13:13:14	642658	61020197f83a83260d8c78b4	4	1	main_slash	11	advance_on_keypress_SLASH	80	stimuli_distractor_trianglediamonds.svg	stimuli_target_diamondsquares.svg	28	yes	57	0	399	0	0			0	0			1				0	
6.6.1	win	2023-07-13	13:02:24	13:13:16	644626	61020197f83a83260d8c78b4	4	1	main_slash	11	main_slash	81	stimuli_target_diamondsquares.svg	stimuli_distractor_trianglediamonds.svg	20	yes	53	1	910	0	0			0	0			1				0	
6.6.1	win	2023-07-13	13:02:24	13:13:16	644626	61020197f83a83260d8c78b4	4	1	main_slash	11	advance_on_keypress_SLASH	82	stimuli_target_diamondsquares.svg	stimuli_distractor_trianglediamonds.svg	20	yes	57	0	367	0	0			0	0			1				0	
6.6.1	win	2023-07-13	13:02:24	13:13:18	646710	61020197f83a83260d8c78b4	4	1	main_slash	11	main_slash	83	stimuli_target_squaretriangles.svg	stimuli_distractor_trianglediamonds.svg	3	yes	53	1	1055	0	0			0	0			1				0	
6.6.1	win	2023-07-13	13:02:24	13:13:18	646710	61020197f83a83260d8c78b4	4	1	main_slash	11	advance_on_keypress_SLASH	84	stimuli_target_squaretriangles.svg	stimuli_distractor_trianglediamonds.svg	3	yes	57	0	385	0	0			0	0			1				0	
6.6.1	win	2023-07-13	13:02:24	13:13:20	648834	61020197f83a83260d8c78b4	4	1	main_slash	11	main_slash	85	stimuli_distractor_trianglediamonds.svg	stimuli_target_rectangletriangles.svg	9	yes	53	1	1081	0	0			0	0			1				0	
6.6.1	win	2023-07-13	13:02:24	13:13:20	648834	61020197f83a83260d8c78b4	4	1	main_slash	11	advance_on_keypress_SLASH	86	stimuli_distractor_trianglediamonds.svg	stimuli_target_rectangletriangles.svg	9	yes	57	0	394	0	0			0	0			1				0	
6.6.1	win	2023-07-13	13:02:24	13:13:23	651514	61020197f83a83260d8c78b4	4	1	main_slash	11	main_slash	87	stimuli_distractor_diamondtriangles.svg	stimuli_target_squarediamonds.svg	16	yes	53	1	1625	0	0			0	0			1				0	
6.6.1	win	2023-07-13	13:02:24	13:13:23	651514	61020197f83a83260d8c78b4	4	1	main_slash	11	advance_on_keypress_SLASH	88	stimuli_distractor_diamondtriangles.svg	stimuli_target_squarediamonds.svg	16	yes	57	0	350	0	0			0	0			1				0	
6.6.1	win	2023-07-13	13:02:24	13:13:26	654526	61020197f83a83260d8c78b4	4	1	main_slash	11	main_slash	89	stimuli_distractor_diamondtriangles.svg	stimuli_distractor_trianglediamonds.svg	38	no	0	1	2000	0	0			0	0			1				0	
6.6.1	win	2023-07-13	13:02:24	13:13:26	654526	61020197f83a83260d8c78b4	4	1	main_slash	11	advance_on_keypress_SLASH	90	stimuli_distractor_diamondtriangles.svg	stimuli_distractor_trianglediamonds.svg	38	no	57	0	1146	0	0			0	0			1				0	
6.6.1	win	2023-07-13	13:02:24	13:13:29	657803	61020197f83a83260d8c78b4	4	1	main_slash	11	main_slash	91	stimuli_distractor_trianglediamonds.svg	stimuli_target_diamondsquares.svg	28	yes	53	1	1474	0	0			0	0			1				0	
6.6.1	win	2023-07-13	13:02:24	13:13:29	657803	61020197f83a83260d8c78b4	4	1	main_slash	11	advance_on_keypress_SLASH	92	stimuli_distractor_trianglediamonds.svg	stimuli_target_diamondsquares.svg	28	yes	57	0	340	0	0			0	0			1				0	
6.6.1	win	2023-07-13	13:02:24	13:13:31	659594	61020197f83a83260d8c78b4	4	1	main_slash	11	main_slash	93	stimuli_distractor_trianglediamonds.svg	stimuli_target_trianglerectangles.svg	25	yes	53	1	797	0	0			0	0			1				0	
6.6.1	win	2023-07-13	13:02:24	13:13:31	659594	61020197f83a83260d8c78b4	4	1	main_slash	11	advance_on_keypress_SLASH	94	stimuli_distractor_trianglediamonds.svg	stimuli_target_trianglerectangles.svg	25	yes	57	0	385	0	0			0	0			1				0	
6.6.1	win	2023-07-13	13:02:24	13:13:34	662042	61020197f83a83260d8c78b4	4	1	main_slash	11	main_slash	95	stimuli_target_rectangletriangles.svg	stimuli_distractor_diamondtriangles.svg	5	yes	53	1	1409	0	0			0	0			1				0	
6.6.1	win	2023-07-13	13:02:24	13:13:34	662042	61020197f83a83260d8c78b4	4	1	main_slash	11	advance_on_keypress_SLASH	96	stimuli_target_rectangletriangles.svg	stimuli_distractor_diamondtriangles.svg	5	yes	57	0	390	0	0			0	0			1				0	
6.6.1	win	2023-07-13	13:02:24	13:13:36	663962	61020197f83a83260d8c78b4	4	1	main_slash	11	main_slash	97	stimuli_distractor_trianglediamonds.svg	stimuli_target_squaretriangles.svg	11	yes	53	1	860	0	0			0	0			1				0	
6.6.1	win	2023-07-13	13:02:24	13:13:36	663962	61020197f83a83260d8c78b4	4	1	main_slash	11	advance_on_keypress_SLASH	98	stimuli_distractor_trianglediamonds.svg	stimuli_target_squaretriangles.svg	11	yes	57	0	406	0	0			0	0			1				0	
6.6.1	win	2023-07-13	13:02:24	13:13:38	666307	61020197f83a83260d8c78b4	4	1	main_slash	11	main_slash	99	stimuli_target_squarediamonds.svg	stimuli_distractor_trianglediamonds.svg	4	yes	53	1	1269	0	0			0	0			1				0	
6.6.1	win	2023-07-13	13:02:24	13:13:38	666307	61020197f83a83260d8c78b4	4	1	main_slash	11	advance_on_keypress_SLASH	100	stimuli_target_squarediamonds.svg	stimuli_distractor_trianglediamonds.svg	4	yes	57	0	391	0	0			0	0			1				0	
6.6.1	win	2023-07-13	13:02:24	13:13:41	669357	61020197f83a83260d8c78b4	4	1	main_slash	11	main_slash	101	stimuli_distractor_diamondtriangles.svg	stimuli_target_squaretriangles.svg	15	yes	0	0	2000	0	0			0	0			1				0	
6.6.1	win	2023-07-13	13:02:24	13:13:41	669357	61020197f83a83260d8c78b4	4	1	main_slash	11	advance_on_keypress_SLASH	102	stimuli_distractor_diamondtriangles.svg	stimuli_target_squaretriangles.svg	15	yes	57	0	635	0	0			0	0			1				0	
6.6.1	win	2023-07-13	13:02:24	13:13:43	671330	61020197f83a83260d8c78b4	4	1	main_slash	11	main_slash	103	stimuli_distractor_trianglediamonds.svg	stimuli_target_diamondrectangles.svg	27	yes	53	1	686	0	0			0	0			1				0	
6.6.1	win	2023-07-13	13:02:24	13:13:43	671330	61020197f83a83260d8c78b4	4	1	main_slash	11	advance_on_keypress_SLASH	104	stimuli_distractor_trianglediamonds.svg	stimuli_target_diamondrectangles.svg	27	yes	57	0	330	0	0			0	0			1				0	
6.6.1	win	2023-07-13	13:02:24	13:13:45	673450	61020197f83a83260d8c78b4	4	1	main_slash	11	main_slash	105	stimuli_target_diamondrectangles.svg	stimuli_distractor_trianglediamonds.svg	19	yes	53	1	1139	0	0			0	0			1				0	
6.6.1	win	2023-07-13	13:02:24	13:13:45	673450	61020197f83a83260d8c78b4	4	1	main_slash	11	advance_on_keypress_SLASH	106	stimuli_target_diamondrectangles.svg	stimuli_distractor_trianglediamonds.svg	19	yes	57	0	403	0	0			0	0			1				0	
6.6.1	win	2023-07-13	13:02:24	13:13:47	675484	61020197f83a83260d8c78b4	4	1	main_slash	11	main_slash	107	stimuli_target_diamondsquares.svg	stimuli_distractor_diamondtriangles.svg	24	yes	53	1	987	0	0			0	0			1				0	
6.6.1	win	2023-07-13	13:02:24	13:13:47	675484	61020197f83a83260d8c78b4	4	1	main_slash	11	advance_on_keypress_SLASH	108	stimuli_target_diamondsquares.svg	stimuli_distractor_diamondtriangles.svg	24	yes	57	0	312	0	0			0	0			1				0	
6.6.1	win	2023-07-13	13:02:24	13:13:49	677222	61020197f83a83260d8c78b4	4	1	main_slash	11	main_slash	109	stimuli_distractor_diamondtriangles.svg	stimuli_target_trianglerectangles.svg	29	yes	53	1	770	0	0			0	0			1				0	
6.6.1	win	2023-07-13	13:02:24	13:13:49	677222	61020197f83a83260d8c78b4	4	1	main_slash	11	advance_on_keypress_SLASH	110	stimuli_distractor_diamondtriangles.svg	stimuli_target_trianglerectangles.svg	29	yes	57	0	401	0	0			0	0			1				0	
6.6.1	win	2023-07-13	13:02:24	13:13:51	679083	61020197f83a83260d8c78b4	4	1	main_slash	11	main_slash	111	stimuli_target_diamondrectangles.svg	stimuli_distractor_diamondtriangles.svg	23	yes	53	1	782	0	0			0	0			1				0	
6.6.1	win	2023-07-13	13:02:24	13:13:51	679083	61020197f83a83260d8c78b4	4	1	main_slash	11	advance_on_keypress_SLASH	112	stimuli_target_diamondrectangles.svg	stimuli_distractor_diamondtriangles.svg	23	yes	57	0	420	0	0			0	0			1				0	
6.6.1	win	2023-07-13	13:02:24	13:13:53	681282	61020197f83a83260d8c78b4	4	1	main_slash	11	main_slash	113	stimuli_target_squarediamonds.svg	stimuli_distractor_diamondtriangles.svg	8	yes	53	1	1130	0	0			0	0			1				0	
6.6.1	win	2023-07-13	13:02:24	13:13:53	681282	61020197f83a83260d8c78b4	4	1	main_slash	11	advance_on_keypress_SLASH	114	stimuli_target_squarediamonds.svg	stimuli_distractor_diamondtriangles.svg	8	yes	57	0	394	0	0			0	0			1				0	
6.6.1	win	2023-07-13	13:02:24	13:13:55	683371	61020197f83a83260d8c78b4	4	1	main_slash	11	main_slash	115	stimuli_distractor_trianglediamonds.svg	stimuli_target_trianglesquares.svg	26	yes	53	1	1031	0	0			0	0			1				0	
6.6.1	win	2023-07-13	13:02:24	13:13:55	683371	61020197f83a83260d8c78b4	4	1	main_slash	11	advance_on_keypress_SLASH	116	stimuli_distractor_trianglediamonds.svg	stimuli_target_trianglesquares.svg	26	yes	57	0	341	0	0			0	0			1				0	
6.6.1	win	2023-07-13	13:02:24	13:13:57	685139	61020197f83a83260d8c78b4	4	1	main_slash	11	main_slash	117	stimuli_distractor_diamondtriangles.svg	stimuli_target_trianglesquares.svg	30	yes	53	1	765	0	0			0	0			1				0	
6.6.1	win	2023-07-13	13:02:24	13:13:57	685139	61020197f83a83260d8c78b4	4	1	main_slash	11	advance_on_keypress_SLASH	118	stimuli_distractor_diamondtriangles.svg	stimuli_target_trianglesquares.svg	30	yes	57	0	372	0	0			0	0			1				0	
6.6.1	win	2023-07-13	13:02:24	13:13:59	686970	61020197f83a83260d8c78b4	4	1	main_slash	11	main_slash	119	stimuli_distractor_diamondtriangles.svg	stimuli_target_diamondrectangles.svg	31	yes	53	1	795	0	0			0	0			1				0	
6.6.1	win	2023-07-13	13:02:24	13:13:59	686970	61020197f83a83260d8c78b4	4	1	main_slash	11	advance_on_keypress_SLASH	120	stimuli_distractor_diamondtriangles.svg	stimuli_target_diamondrectangles.svg	31	yes	57	0	369	0	0			0	0			1				0	
6.6.1	win	2023-07-13	13:02:24	13:14:00	688795	61020197f83a83260d8c78b4	4	1	main_slash	11	main_slash	121	stimuli_target_trianglerectangles.svg	stimuli_distractor_diamondtriangles.svg	21	yes	53	1	801	0	0			0	0			1				0	
6.6.1	win	2023-07-13	13:02:24	13:14:00	688795	61020197f83a83260d8c78b4	4	1	main_slash	11	advance_on_keypress_SLASH	122	stimuli_target_trianglerectangles.svg	stimuli_distractor_diamondtriangles.svg	21	yes	57	0	367	0	0			0	0			1				0	
6.6.1	win	2023-07-13	13:02:24	13:14:03	691188	61020197f83a83260d8c78b4	4	1	main_slash	11	main_slash	123	stimuli_distractor_trianglediamonds.svg	stimuli_distractor_diamondtriangles.svg	36	no	53	0	1374	0	0			0	0			1				0	
6.6.1	win	2023-07-13	13:02:24	13:14:03	691188	61020197f83a83260d8c78b4	4	1	main_slash	11	advance_on_keypress_SLASH	124	stimuli_distractor_trianglediamonds.svg	stimuli_distractor_diamondtriangles.svg	36	no	57	0	443	0	0			0	0			1				0	
6.6.1	win	2023-07-13	13:02:24	13:14:06	694299	61020197f83a83260d8c78b4	4	1	main_slash	11	main_slash	125	stimuli_distractor_trianglediamonds.svg	stimuli_distractor_trianglediamonds.svg	33	no	0	1	2000	0	0			0	0			1				0	
6.6.1	win	2023-07-13	13:02:24	13:14:06	694299	61020197f83a83260d8c78b4	4	1	main_slash	11	advance_on_keypress_SLASH	126	stimuli_distractor_trianglediamonds.svg	stimuli_distractor_trianglediamonds.svg	33	no	57	0	749	0	0			0	0			1				0	
6.6.1	win	2023-07-13	13:02:24	13:14:09	697702	61020197f83a83260d8c78b4	4	1	main_slash	11	main_slash	127	stimuli_distractor_trianglediamonds.svg	stimuli_distractor_trianglediamonds.svg	34	no	0	1	2000	0	0			0	0			1				0	
6.6.1	win	2023-07-13	13:02:24	13:14:09	697702	61020197f83a83260d8c78b4	4	1	main_slash	11	advance_on_keypress_SLASH	128	stimuli_distractor_trianglediamonds.svg	stimuli_distractor_trianglediamonds.svg	34	no	57	0	441	0	0			0	0			1				0	
6.6.1	win	2023-07-13	13:02:24	13:14:11	699426	61020197f83a83260d8c78b4	4	1	main_slash	11	main_slash	129	stimuli_target_trianglesquares.svg	stimuli_distractor_trianglediamonds.svg	18	yes	53	1	622	0	0			0	0			1				0	
6.6.1	win	2023-07-13	13:02:24	13:14:11	699426	61020197f83a83260d8c78b4	4	1	main_slash	11	advance_on_keypress_SLASH	130	stimuli_target_trianglesquares.svg	stimuli_distractor_trianglediamonds.svg	18	yes	57	0	403	0	0			0	0			1				0	
6.6.1	win	2023-07-13	13:02:24	13:14:14	702491	61020197f83a83260d8c78b4	4	1	main_slash	11	main_slash	131	stimuli_distractor_diamondtriangles.svg	stimuli_distractor_diamondtriangles.svg	39	no	0	1	2000	0	0			0	0			1				0	
6.6.1	win	2023-07-13	13:02:24	13:14:14	702491	61020197f83a83260d8c78b4	4	1	main_slash	11	advance_on_keypress_SLASH	132	stimuli_distractor_diamondtriangles.svg	stimuli_distractor_diamondtriangles.svg	39	no	57	0	494	0	0			0	0			1				0	
6.6.1	win	2023-07-13	13:02:24	13:14:16	704413	61020197f83a83260d8c78b4	4	1	main_slash	11	main_slash	133	stimuli_distractor_diamondtriangles.svg	stimuli_target_diamondsquares.svg	32	yes	53	1	768	0	0			0	0			1				0	
6.6.1	win	2023-07-13	13:02:24	13:14:16	704413	61020197f83a83260d8c78b4	4	1	main_slash	11	advance_on_keypress_SLASH	134	stimuli_distractor_diamondtriangles.svg	stimuli_target_diamondsquares.svg	32	yes	57	0	343	0	0			0	0			1				0	
6.6.1	win	2023-07-13	13:02:24	13:14:19	707412	61020197f83a83260d8c78b4	4	1	main_slash	11	main_slash	135	stimuli_distractor_diamondtriangles.svg	stimuli_distractor_trianglediamonds.svg	37	no	0	1	2000	0	0			0	0			1				0	
6.6.1	win	2023-07-13	13:02:24	13:14:19	707412	61020197f83a83260d8c78b4	4	1	main_slash	11	advance_on_keypress_SLASH	136	stimuli_distractor_diamondtriangles.svg	stimuli_distractor_trianglediamonds.svg	37	no	57	0	332	0	0			0	0			1				0	
6.6.1	win	2023-07-13	13:02:24	13:14:21	709364	61020197f83a83260d8c78b4	4	1	main_slash	11	main_slash	137	stimuli_distractor_diamondtriangles.svg	stimuli_target_rectanglediamonds.svg	14	yes	53	1	964	0	0			0	0			1				0	
6.6.1	win	2023-07-13	13:02:24	13:14:21	709364	61020197f83a83260d8c78b4	4	1	main_slash	11	advance_on_keypress_SLASH	138	stimuli_distractor_diamondtriangles.svg	stimuli_target_rectanglediamonds.svg	14	yes	57	0	388	0	0			0	0			1				0	
6.6.1	win	2023-07-13	13:02:24	13:14:24	711986	61020197f83a83260d8c78b4	4	1	main_slash	11	main_slash	139	stimuli_distractor_trianglediamonds.svg	stimuli_target_rectanglediamonds.svg	10	yes	53	1	1587	0	0			0	0			1				0	
6.6.1	win	2023-07-13	13:02:24	13:14:24	711986	61020197f83a83260d8c78b4	4	1	main_slash	11	advance_on_keypress_SLASH	140	stimuli_distractor_trianglediamonds.svg	stimuli_target_rectanglediamonds.svg	10	yes	57	0	761	0	0			0	0			1				0	
6.6.1	win	2023-07-13	13:02:24	13:14:26	714227	61020197f83a83260d8c78b4	4	1	main_slash	11	main_slash	141	stimuli_target_rectangletriangles.svg	stimuli_distractor_trianglediamonds.svg	1	yes	53	1	824	0	0			0	0			1				0	
6.6.1	win	2023-07-13	13:02:24	13:14:26	714227	61020197f83a83260d8c78b4	4	1	main_slash	11	advance_on_keypress_SLASH	142	stimuli_target_rectangletriangles.svg	stimuli_distractor_trianglediamonds.svg	1	yes	57	0	357	0	0			0	0			1				0	
6.6.1	win	2023-07-13	13:02:24	13:14:29	717238	61020197f83a83260d8c78b4	4	1	main_slash	11	main_slash	143	stimuli_distractor_diamondtriangles.svg	stimuli_distractor_diamondtriangles.svg	40	no	0	1	2000	0	0			0	0			1				0	
6.6.1	win	2023-07-13	13:02:24	13:14:29	717238	61020197f83a83260d8c78b4	4	1	main_slash	11	advance_on_keypress_SLASH	144	stimuli_distractor_diamondtriangles.svg	stimuli_distractor_diamondtriangles.svg	40	no	57	0	337	0	0			0	0			1				0	
6.6.1	win	2023-07-13	13:02:24	13:14:32	720226	61020197f83a83260d8c78b4	4	1	main_slash	11	main_slash	145	stimuli_distractor_trianglediamonds.svg	stimuli_distractor_diamondtriangles.svg	35	no	0	1	2000	0	0			0	0			1				0	
6.6.1	win	2023-07-13	13:02:24	13:14:32	720226	61020197f83a83260d8c78b4	4	1	main_slash	11	advance_on_keypress_SLASH	146	stimuli_distractor_trianglediamonds.svg	stimuli_distractor_diamondtriangles.svg	35	no	57	0	719	0	0			0	0			1				0	
6.6.1	win	2023-07-13	13:02:24	13:14:34	722122	61020197f83a83260d8c78b4	4	1	main_slash	11	main_slash	147	stimuli_target_trianglesquares.svg	stimuli_distractor_diamondtriangles.svg	22	yes	53	1	528	0	0			0	0			1				0	
6.6.1	win	2023-07-13	13:02:24	13:14:34	722122	61020197f83a83260d8c78b4	4	1	main_slash	11	advance_on_keypress_SLASH	148	stimuli_target_trianglesquares.svg	stimuli_distractor_diamondtriangles.svg	22	yes	57	0	416	0	0			0	0			1				0	
6.6.1	win	2023-07-13	13:02:24	13:14:35	723661	61020197f83a83260d8c78b4	4	1	main_slash	11	main_slash	149	stimuli_target_trianglerectangles.svg	stimuli_distractor_trianglediamonds.svg	17	yes	53	1	463	0	0			0	0			1				0	
6.6.1	win	2023-07-13	13:02:24	13:14:35	723661	61020197f83a83260d8c78b4	4	1	main_slash	11	advance_on_keypress_SLASH	150	stimuli_target_trianglerectangles.svg	stimuli_distractor_trianglediamonds.svg	17	yes	57	0	362	0	0			0	0			1				0	
6.6.1	win	2023-07-13	13:02:24	13:14:38	726682	61020197f83a83260d8c78b4	4	1	main_slash	11	main_slash	151	stimuli_distractor_diamondtriangles.svg	stimuli_target_rectangletriangles.svg	13	yes	0	0	2000	0	0			0	0			1				0	
6.6.1	win	2023-07-13	13:02:24	13:14:38	726682	61020197f83a83260d8c78b4	4	1	main_slash	11	advance_on_keypress_SLASH	152	stimuli_distractor_diamondtriangles.svg	stimuli_target_rectangletriangles.svg	13	yes	57	0	320	0	0			0	0			1				0	
6.6.1	win	2023-07-13	13:02:24	13:14:40	728237	61020197f83a83260d8c78b4	4	1	main_slash	11	main_slash	153	stimuli_target_rectanglediamonds.svg	stimuli_distractor_diamondtriangles.svg	6	yes	53	1	584	0	0			0	0			1				0	
6.6.1	win	2023-07-13	13:02:24	13:14:40	728237	61020197f83a83260d8c78b4	4	1	main_slash	11	advance_on_keypress_SLASH	154	stimuli_target_rectanglediamonds.svg	stimuli_distractor_diamondtriangles.svg	6	yes	57	0	399	0	0			0	0			1				0	
6.6.1	win	2023-07-13	13:02:24	13:14:41	729742	61020197f83a83260d8c78b4	4	1	main_slash	11	main_slash	155	stimuli_target_squaretriangles.svg	stimuli_distractor_diamondtriangles.svg	7	yes	53	1	453	0	0			0	0			1				0	
6.6.1	win	2023-07-13	13:02:24	13:14:41	729742	61020197f83a83260d8c78b4	4	1	main_slash	11	advance_on_keypress_SLASH	156	stimuli_target_squaretriangles.svg	stimuli_distractor_diamondtriangles.svg	7	yes	57	0	329	0	0			0	0			1				0	
6.6.1	win	2023-07-13	13:02:24	13:14:43	731155	61020197f83a83260d8c78b4	4	1	main_slash	11	main_slash	157	stimuli_target_rectanglediamonds.svg	stimuli_distractor_trianglediamonds.svg	2	yes	53	1	419	0	0			0	0			1				0	
6.6.1	win	2023-07-13	13:02:24	13:14:43	731155	61020197f83a83260d8c78b4	4	1	main_slash	11	advance_on_keypress_SLASH	158	stimuli_target_rectanglediamonds.svg	stimuli_distractor_trianglediamonds.svg	2	yes	57	0	368	0	0			0	0			1				0	
6.6.1	win	2023-07-13	13:02:24	13:14:44	732762	61020197f83a83260d8c78b4	4	1	main_slash	11	main_slash	159	stimuli_distractor_trianglediamonds.svg	stimuli_target_squarediamonds.svg	12	yes	53	1	591	0	0			0	0			1				0	
6.6.1	win	2023-07-13	13:02:24	13:14:44	732762	61020197f83a83260d8c78b4	4	1	main_slash	11	advance_on_keypress_SLASH	160	stimuli_distractor_trianglediamonds.svg	stimuli_target_squarediamonds.svg	12	yes	57	0	558	0	0			0	0			1				0	
6.6.1	win	2023-07-13	13:02:24	13:14:44	732762	61020197f83a83260d8c78b4	4	1	headphonecheck_calibration	14	headphonecheck_calibrationIntro	1	stimuli_distractor_trianglediamonds.svg	stimuli_target_squarediamonds.svg	12	yes	calibrationButton	0	2985	0	0			0	0			1				0	
6.6.1	win	2023-07-13	13:02:24	13:14:44	732762	61020197f83a83260d8c78b4	4	1	headphonecheck_testphase	15	test_collectResponse	3	stimuli_distractor_trianglediamonds.svg	stimuli_target_squarediamonds.svg	12	yes	second	0	5501	1	3	antiphase_hc_soi.wav	1	0	0			1				0	
6.6.1	win	2023-07-13	13:02:24	13:14:44	732762	61020197f83a83260d8c78b4	4	1	headphonecheck_testphase	15	test_collectResponse	6	stimuli_distractor_trianglediamonds.svg	stimuli_target_squarediamonds.svg	12	yes	third	0	1387	2	1	antiphase_hc_iso.wav	2	0	0			1				0	
6.6.1	win	2023-07-13	13:02:24	13:14:44	732762	61020197f83a83260d8c78b4	4	1	headphonecheck_testphase	15	test_collectResponse	9	stimuli_distractor_trianglediamonds.svg	stimuli_target_squarediamonds.svg	12	yes	first	0	6831	3	6	antiphase_hc_ois.wav	3	0	0			1				0	
6.6.1	win	2023-07-13	13:02:24	13:14:44	732762	61020197f83a83260d8c78b4	4	1	headphonecheck_testphase	15	test_collectResponse	12	stimuli_distractor_trianglediamonds.svg	stimuli_target_squarediamonds.svg	12	yes	first	0	43940	4	2	antiphase_hc_ios.wav	3	0	0			1				0	
6.6.1	win	2023-07-13	13:02:24	13:14:44	732762	61020197f83a83260d8c78b4	4	1	headphonecheck_testphase	15	test_collectResponse	15	stimuli_distractor_trianglediamonds.svg	stimuli_target_squarediamonds.svg	12	yes	first	1	6323	5	4	antiphase_hc_sio.wav	1	0	0			1				0	
6.6.1	win	2023-07-13	13:02:24	13:14:44	732762	61020197f83a83260d8c78b4	4	1	headphonecheck_testphase	15	test_collectResponse	18	stimuli_distractor_trianglediamonds.svg	stimuli_target_squarediamonds.svg	12	yes	second	1	541	6	5	antiphase_hc_osi.wav	2	0	0			1				0	
6.6.1	win	2023-07-13	13:02:24	13:14:44	732762	61020197f83a83260d8c78b4	4	1	stereocheck_calibration	17	stereocheck_calibrationIntro	1	stimuli_distractor_trianglediamonds.svg	stimuli_target_squarediamonds.svg	12	yes	stereocheck_calibrationButton	0	5537	6	5	antiphase_hc_osi.wav	2	0	0			1				0	
6.6.1	win	2023-07-13	13:02:24	13:14:44	732762	61020197f83a83260d8c78b4	4	1	stereocheck_testphase	18	stereocheck_test_collectResponse	3	stimuli_distractor_trianglediamonds.svg	stimuli_target_squarediamonds.svg	12	yes	stereocheck_right	1	581	6	5	antiphase_hc_osi.wav	2	1	4	noise_calib_stim_RIGHT.wav	2	1				0	
6.6.1	win	2023-07-13	13:02:24	13:14:44	732762	61020197f83a83260d8c78b4	4	1	stereocheck_testphase	18	stereocheck_test_collectResponse	6	stimuli_distractor_trianglediamonds.svg	stimuli_target_squarediamonds.svg	12	yes	stereocheck_left	1	357	6	5	antiphase_hc_osi.wav	2	2	1	noise_calib_stim_LEFT.wav	1	1				0	
6.6.1	win	2023-07-13	13:02:24	13:14:44	732762	61020197f83a83260d8c78b4	4	1	stereocheck_testphase	18	stereocheck_test_collectResponse	9	stimuli_distractor_trianglediamonds.svg	stimuli_target_squarediamonds.svg	12	yes	stereocheck_left	1	517	6	5	antiphase_hc_osi.wav	2	3	2	noise_calib_stim_LEFT.wav	1	1				0	
6.6.1	win	2023-07-13	13:02:24	13:14:44	732762	61020197f83a83260d8c78b4	4	1	stereocheck_testphase	18	stereocheck_test_collectResponse	12	stimuli_distractor_trianglediamonds.svg	stimuli_target_squarediamonds.svg	12	yes	stereocheck_right	1	676	6	5	antiphase_hc_osi.wav	2	4	5	noise_calib_stim_RIGHT.wav	2	1				0	
6.6.1	win	2023-07-13	13:02:24	13:14:44	732762	61020197f83a83260d8c78b4	4	1	stereocheck_testphase	18	stereocheck_test_collectResponse	15	stimuli_distractor_trianglediamonds.svg	stimuli_target_squarediamonds.svg	12	yes	stereocheck_right	1	1932	6	5	antiphase_hc_osi.wav	2	5	6	noise_calib_stim_RIGHT.wav	2	1				0	
6.6.1	win	2023-07-13	13:02:24	13:14:44	732762	61020197f83a83260d8c78b4	4	1	stereocheck_testphase	18	stereocheck_test_collectResponse	18	stimuli_distractor_trianglediamonds.svg	stimuli_target_squarediamonds.svg	12	yes	stereocheck_left	1	480	6	5	antiphase_hc_osi.wav	2	6	3	noise_calib_stim_LEFT.wav	1	1				0	
6.6.1	win	2023-07-13	13:02:24	13:14:44	732762	61020197f83a83260d8c78b4	4	1	DL_practice	21	DL_practice	2	stimuli_distractor_trianglediamonds.svg	stimuli_target_squarediamonds.svg	12	yes	ka	1	1336	6	5	antiphase_hc_osi.wav	2	6	3	noise_calib_stim_LEFT.wav	1	22	blb_dichoticlistening_ka-ka.mp3	ka	ka	0	left
6.6.1	win	2023-07-13	13:02:24	13:14:44	732762	61020197f83a83260d8c78b4	4	1	DL_practice	21	DL_practice	3	stimuli_distractor_trianglediamonds.svg	stimuli_target_squarediamonds.svg	12	yes	da	1	930	6	5	antiphase_hc_osi.wav	2	6	3	noise_calib_stim_LEFT.wav	1	8	blb_dichoticlistening_da-da.mp3	da	da	0	left
6.6.1	win	2023-07-13	13:02:24	13:14:44	732762	61020197f83a83260d8c78b4	4	1	DL_practice	21	DL_practice	4	stimuli_distractor_trianglediamonds.svg	stimuli_target_squarediamonds.svg	12	yes	pa	1	3548	6	5	antiphase_hc_osi.wav	2	6	3	noise_calib_stim_LEFT.wav	1	29	blb_dichoticlistening_pa-pa.mp3	pa	pa	0	left
6.6.1	win	2023-07-13	13:02:24	13:14:44	732762	61020197f83a83260d8c78b4	4	1	DL_practice	21	DL_practice	5	stimuli_distractor_trianglediamonds.svg	stimuli_target_squarediamonds.svg	12	yes	ba	1	3786	6	5	antiphase_hc_osi.wav	2	6	3	noise_calib_stim_LEFT.wav	1	7	blb_dichoticlistening_da-ba.mp3	da	ba	1	right
6.6.1	win	2023-07-13	13:02:24	13:14:44	732762	61020197f83a83260d8c78b4	4	1	DL_practice	21	DL_practice	6	stimuli_distractor_trianglediamonds.svg	stimuli_target_squarediamonds.svg	12	yes	ta	1	1322	6	5	antiphase_hc_osi.wav	2	6	3	noise_calib_stim_LEFT.wav	1	36	blb_dichoticlistening_ta-ta.mp3	ta	ta	0	left
6.6.1	win	2023-07-13	13:02:24	13:14:44	732762	61020197f83a83260d8c78b4	4	1	DL_practice	21	DL_practice	7	stimuli_distractor_trianglediamonds.svg	stimuli_target_squarediamonds.svg	12	yes	ba	1	1254	6	5	antiphase_hc_osi.wav	2	6	3	noise_calib_stim_LEFT.wav	1	1	blb_dichoticlistening_ba-ba.mp3	ba	ba	0	left
6.6.1	win	2023-07-13	13:02:24	13:14:44	732762	61020197f83a83260d8c78b4	4	1	DL_practice	21	DL_practice	8	stimuli_distractor_trianglediamonds.svg	stimuli_target_squarediamonds.svg	12	yes	ka	1	1059	6	5	antiphase_hc_osi.wav	2	6	3	noise_calib_stim_LEFT.wav	1	23	blb_dichoticlistening_ka-pa.mp3	ka	pa	1	left
6.6.1	win	2023-07-13	13:02:24	13:14:44	732762	61020197f83a83260d8c78b4	4	1	DL_practice	21	DL_practice	9	stimuli_distractor_trianglediamonds.svg	stimuli_target_squarediamonds.svg	12	yes	ga	1	1112	6	5	antiphase_hc_osi.wav	2	6	3	noise_calib_stim_LEFT.wav	1	15	blb_dichoticlistening_ga-ga.mp3	ga	ga	0	left
6.6.1	win	2023-07-13	13:02:24	13:14:44	732762	61020197f83a83260d8c78b4	4	1	DL_practice	21	DL_practice	10	stimuli_distractor_trianglediamonds.svg	stimuli_target_squarediamonds.svg	12	yes	da	0	2270	6	5	antiphase_hc_osi.wav	2	6	3	noise_calib_stim_LEFT.wav	1	18	blb_dichoticlistening_ga-ta.mp3	ga	ta	1	other
6.6.1	win	2023-07-13	13:02:24	13:14:44	732762	61020197f83a83260d8c78b4	4	1	DL_test	23	DL_test	1	stimuli_distractor_trianglediamonds.svg	stimuli_target_squarediamonds.svg	12	yes	ta	1	1154	6	5	antiphase_hc_osi.wav	2	6	3	noise_calib_stim_LEFT.wav	1	36	blb_dichoticlistening_ta-ta.mp3	ta	ta	0	left
6.6.1	win	2023-07-13	13:02:24	13:14:44	732762	61020197f83a83260d8c78b4	4	1	DL_test	23	DL_test	2	stimuli_distractor_trianglediamonds.svg	stimuli_target_squarediamonds.svg	12	yes	ka	1	973	6	5	antiphase_hc_osi.wav	2	6	3	noise_calib_stim_LEFT.wav	1	34	blb_dichoticlistening_ta-ka.mp3	ta	ka	1	right
6.6.1	win	2023-07-13	13:02:24	13:14:44	732762	61020197f83a83260d8c78b4	4	1	DL_test	23	DL_test	3	stimuli_distractor_trianglediamonds.svg	stimuli_target_squarediamonds.svg	12	yes	pa	1	1262	6	5	antiphase_hc_osi.wav	2	6	3	noise_calib_stim_LEFT.wav	1	5	blb_dichoticlistening_ba-pa.mp3	ba	pa	1	right
6.6.1	win	2023-07-13	13:02:24	13:14:44	732762	61020197f83a83260d8c78b4	4	1	DL_test	23	DL_test	4	stimuli_distractor_trianglediamonds.svg	stimuli_target_squarediamonds.svg	12	yes	da	1	1272	6	5	antiphase_hc_osi.wav	2	6	3	noise_calib_stim_LEFT.wav	1	14	blb_dichoticlistening_ga-da.mp3	ga	da	1	right
6.6.1	win	2023-07-13	13:02:24	13:14:44	732762	61020197f83a83260d8c78b4	4	1	DL_test	23	DL_test	5	stimuli_distractor_trianglediamonds.svg	stimuli_target_squarediamonds.svg	12	yes	ba	1	1318	6	5	antiphase_hc_osi.wav	2	6	3	noise_calib_stim_LEFT.wav	1	1	blb_dichoticlistening_ba-ba.mp3	ba	ba	0	left
6.6.1	win	2023-07-13	13:02:24	13:14:44	732762	61020197f83a83260d8c78b4	4	1	DL_test	23	DL_test	6	stimuli_distractor_trianglediamonds.svg	stimuli_target_squarediamonds.svg	12	yes	ka	1	879	6	5	antiphase_hc_osi.wav	2	6	3	noise_calib_stim_LEFT.wav	1	22	blb_dichoticlistening_ka-ka.mp3	ka	ka	0	left
6.6.1	win	2023-07-13	13:02:24	13:14:44	732762	61020197f83a83260d8c78b4	4	1	DL_test	23	DL_test	7	stimuli_distractor_trianglediamonds.svg	stimuli_target_squarediamonds.svg	12	yes	ka	1	2068	6	5	antiphase_hc_osi.wav	2	6	3	noise_calib_stim_LEFT.wav	1	19	blb_dichoticlistening_ka-ba.mp3	ka	ba	1	left
6.6.1	win	2023-07-13	13:02:24	13:14:44	732762	61020197f83a83260d8c78b4	4	1	DL_test	23	DL_test	8	stimuli_distractor_trianglediamonds.svg	stimuli_target_squarediamonds.svg	12	yes	ka	1	989	6	5	antiphase_hc_osi.wav	2	6	3	noise_calib_stim_LEFT.wav	1	23	blb_dichoticlistening_ka-pa.mp3	ka	pa	1	left
6.6.1	win	2023-07-13	13:02:24	13:14:44	732762	61020197f83a83260d8c78b4	4	1	DL_test	23	DL_test	9	stimuli_distractor_trianglediamonds.svg	stimuli_target_squarediamonds.svg	12	yes	ga	0	2203	6	5	antiphase_hc_osi.wav	2	6	3	noise_calib_stim_LEFT.wav	1	20	blb_dichoticlistening_ka-da.mp3	ka	da	1	other
6.6.1	win	2023-07-13	13:02:24	13:14:44	732762	61020197f83a83260d8c78b4	4	1	DL_test	23	DL_test	10	stimuli_distractor_trianglediamonds.svg	stimuli_target_squarediamonds.svg	12	yes	ka	1	1112	6	5	antiphase_hc_osi.wav	2	6	3	noise_calib_stim_LEFT.wav	1	4	blb_dichoticlistening_ba-ka.mp3	ba	ka	1	right
6.6.1	win	2023-07-13	13:02:24	13:14:44	732762	61020197f83a83260d8c78b4	4	1	DL_test	23	DL_test	11	stimuli_distractor_trianglediamonds.svg	stimuli_target_squarediamonds.svg	12	yes	ka	1	3164	6	5	antiphase_hc_osi.wav	2	6	3	noise_calib_stim_LEFT.wav	1	16	blb_dichoticlistening_ga-ka.mp3	ga	ka	1	right
6.6.1	win	2023-07-13	13:02:24	13:14:44	732762	61020197f83a83260d8c78b4	4	1	DL_test	23	DL_test	12	stimuli_distractor_trianglediamonds.svg	stimuli_target_squarediamonds.svg	12	yes	ga	1	3165	6	5	antiphase_hc_osi.wav	2	6	3	noise_calib_stim_LEFT.wav	1	27	blb_dichoticlistening_pa-ga.mp3	pa	ga	1	right
6.6.1	win	2023-07-13	13:02:24	13:14:44	732762	61020197f83a83260d8c78b4	4	1	DL_test	23	DL_test	13	stimuli_distractor_trianglediamonds.svg	stimuli_target_squarediamonds.svg	12	yes	pa	1	2916	6	5	antiphase_hc_osi.wav	2	6	3	noise_calib_stim_LEFT.wav	1	28	blb_dichoticlistening_pa-ka.mp3	pa	ka	1	left
6.6.1	win	2023-07-13	13:02:24	13:14:44	732762	61020197f83a83260d8c78b4	4	1	DL_test	23	DL_test	14	stimuli_distractor_trianglediamonds.svg	stimuli_target_squarediamonds.svg	12	yes	pa	1	1213	6	5	antiphase_hc_osi.wav	2	6	3	noise_calib_stim_LEFT.wav	1	11	blb_dichoticlistening_da-pa.mp3	da	pa	1	right
6.6.1	win	2023-07-13	13:02:24	13:14:44	732762	61020197f83a83260d8c78b4	4	1	DL_test	23	DL_test	15	stimuli_distractor_trianglediamonds.svg	stimuli_target_squarediamonds.svg	12	yes	ga	1	983	6	5	antiphase_hc_osi.wav	2	6	3	noise_calib_stim_LEFT.wav	1	3	blb_dichoticlistening_ba-ga.mp3	ba	ga	1	right
6.6.1	win	2023-07-13	13:02:24	13:14:44	732762	61020197f83a83260d8c78b4	4	1	DL_test	23	DL_test	16	stimuli_distractor_trianglediamonds.svg	stimuli_target_squarediamonds.svg	12	yes	ga	1	1382	6	5	antiphase_hc_osi.wav	2	6	3	noise_calib_stim_LEFT.wav	1	18	blb_dichoticlistening_ga-ta.mp3	ga	ta	1	left
6.6.1	win	2023-07-13	13:02:24	13:14:44	732762	61020197f83a83260d8c78b4	4	1	DL_test	23	DL_test	17	stimuli_distractor_trianglediamonds.svg	stimuli_target_squarediamonds.svg	12	yes	da	1	1163	6	5	antiphase_hc_osi.wav	2	6	3	noise_calib_stim_LEFT.wav	1	26	blb_dichoticlistening_pa-da.mp3	pa	da	1	right
6.6.1	win	2023-07-13	13:02:24	13:14:44	732762	61020197f83a83260d8c78b4	4	1	DL_test	23	DL_test	18	stimuli_distractor_trianglediamonds.svg	stimuli_target_squarediamonds.svg	12	yes	pa	1	1520	6	5	antiphase_hc_osi.wav	2	6	3	noise_calib_stim_LEFT.wav	1	25	blb_dichoticlistening_pa-ba.mp3	pa	ba	1	left
6.6.1	win	2023-07-13	13:02:24	13:14:44	732762	61020197f83a83260d8c78b4	4	1	DL_test	23	DL_test	19	stimuli_distractor_trianglediamonds.svg	stimuli_target_squarediamonds.svg	12	yes	da	1	1190	6	5	antiphase_hc_osi.wav	2	6	3	noise_calib_stim_LEFT.wav	1	7	blb_dichoticlistening_da-ba.mp3	da	ba	1	left
6.6.1	win	2023-07-13	13:02:24	13:14:44	732762	61020197f83a83260d8c78b4	4	1	DL_test	23	DL_test	20	stimuli_distractor_trianglediamonds.svg	stimuli_target_squarediamonds.svg	12	yes	pa	1	1389	6	5	antiphase_hc_osi.wav	2	6	3	noise_calib_stim_LEFT.wav	1	30	blb_dichoticlistening_pa-ta.mp3	pa	ta	1	left
6.6.1	win	2023-07-13	13:02:24	13:14:44	732762	61020197f83a83260d8c78b4	4	1	DL_test	23	DL_test	21	stimuli_distractor_trianglediamonds.svg	stimuli_target_squarediamonds.svg	12	yes	ta	1	2449	6	5	antiphase_hc_osi.wav	2	6	3	noise_calib_stim_LEFT.wav	1	31	blb_dichoticlistening_ta-ba.mp3	ta	ba	1	left
6.6.1	win	2023-07-13	13:02:24	13:14:44	732762	61020197f83a83260d8c78b4	4	1	DL_test	23	DL_test	22	stimuli_distractor_trianglediamonds.svg	stimuli_target_squarediamonds.svg	12	yes	ta	1	2096	6	5	antiphase_hc_osi.wav	2	6	3	noise_calib_stim_LEFT.wav	1	35	blb_dichoticlistening_ta-pa.mp3	ta	pa	1	left
6.6.1	win	2023-07-13	13:02:24	13:14:44	732762	61020197f83a83260d8c78b4	4	1	DL_test	23	DL_test	23	stimuli_distractor_trianglediamonds.svg	stimuli_target_squarediamonds.svg	12	yes	ga	1	2532	6	5	antiphase_hc_osi.wav	2	6	3	noise_calib_stim_LEFT.wav	1	17	blb_dichoticlistening_ga-pa.mp3	ga	pa	1	left
6.6.1	win	2023-07-13	13:02:24	13:14:44	732762	61020197f83a83260d8c78b4	4	1	DL_test	23	DL_test	24	stimuli_distractor_trianglediamonds.svg	stimuli_target_squarediamonds.svg	12	yes	ga	1	1142	6	5	antiphase_hc_osi.wav	2	6	3	noise_calib_stim_LEFT.wav	1	33	blb_dichoticlistening_ta-ga.mp3	ta	ga	1	right
6.6.1	win	2023-07-13	13:02:24	13:14:44	732762	61020197f83a83260d8c78b4	4	1	DL_test	23	DL_test	25	stimuli_distractor_trianglediamonds.svg	stimuli_target_squarediamonds.svg	12	yes	ba	1	2048	6	5	antiphase_hc_osi.wav	2	6	3	noise_calib_stim_LEFT.wav	1	6	blb_dichoticlistening_ba-ta.mp3	ba	ta	1	left
6.6.1	win	2023-07-13	13:02:24	13:14:44	732762	61020197f83a83260d8c78b4	4	1	DL_test	23	DL_test	26	stimuli_distractor_trianglediamonds.svg	stimuli_target_squarediamonds.svg	12	yes	ga	1	1295	6	5	antiphase_hc_osi.wav	2	6	3	noise_calib_stim_LEFT.wav	1	13	blb_dichoticlistening_ga-ba.mp3	ga	ba	1	left
