build	computer.platform	date	time	timestamp	time_elapsed_ms	subject	group	session	blockcode	blocknum	trialcode	trialnum	stimulus_left	stimulus_right	stim_index	target_present	response	correct	latency	headphonecheck_countTestTrials	headphonecheck_index	headphonecheck_testSound	headphonecheck_correctResponse	stereocheck_countTestTrials	stereocheck_index	stereocheck_testSound	stereocheck_correctResponse	DL_index	DL_soundfile	DL_leftSound	DL_rightSound	DL_dualSound	DL_choice
6.6.1	win	2023-06-01	23:43:21	0	0	6090578fb2299eacaec32b7a	2	1	headphonecheck_calibration	4	headphonecheck_calibrationIntro	1			0		calibrationButton	0	1817	0	0			0	0			1				0	
6.6.1	win	2023-06-01	23:43:21	0	0	6090578fb2299eacaec32b7a	2	1	headphonecheck_testphase	5	test_collectResponse	3			0		third	1	640	1	6	antiphase_hc_ois.wav	3	0	0			1				0	
6.6.1	win	2023-06-01	23:43:21	0	0	6090578fb2299eacaec32b7a	2	1	headphonecheck_testphase	5	test_collectResponse	6			0		first	1	174	2	3	antiphase_hc_soi.wav	1	0	0			1				0	
6.6.1	win	2023-06-01	23:43:21	0	0	6090578fb2299eacaec32b7a	2	1	headphonecheck_testphase	5	test_collectResponse	9			0		third	1	129	3	2	antiphase_hc_ios.wav	3	0	0			1				0	
6.6.1	win	2023-06-01	23:43:21	0	0	6090578fb2299eacaec32b7a	2	1	headphonecheck_testphase	5	test_collectResponse	12			0		second	1	591	4	1	antiphase_hc_iso.wav	2	0	0			1				0	
6.6.1	win	2023-06-01	23:43:21	0	0	6090578fb2299eacaec32b7a	2	1	headphonecheck_testphase	5	test_collectResponse	15			0		first	1	203	5	4	antiphase_hc_sio.wav	1	0	0			1				0	
6.6.1	win	2023-06-01	23:43:21	0	0	6090578fb2299eacaec32b7a	2	1	headphonecheck_testphase	5	test_collectResponse	18			0		second	1	108	6	5	antiphase_hc_osi.wav	2	0	0			1				0	
6.6.1	win	2023-06-01	23:43:21	0	0	6090578fb2299eacaec32b7a	2	1	stereocheck_calibration	7	stereocheck_calibrationIntro	1			0		stereocheck_calibrationButton	0	2892	6	5	antiphase_hc_osi.wav	2	0	0			1				0	
6.6.1	win	2023-06-01	23:43:21	0	0	6090578fb2299eacaec32b7a	2	1	stereocheck_testphase	8	stereocheck_test_collectResponse	3			0		stereocheck_left	1	2266	6	5	antiphase_hc_osi.wav	2	1	1	noise_calib_stim_LEFT.wav	1	1				0	
6.6.1	win	2023-06-01	23:43:21	0	0	6090578fb2299eacaec32b7a	2	1	stereocheck_testphase	8	stereocheck_test_collectResponse	6			0		stereocheck_right	1	365	6	5	antiphase_hc_osi.wav	2	2	5	noise_calib_stim_RIGHT.wav	2	1				0	
6.6.1	win	2023-06-01	23:43:21	0	0	6090578fb2299eacaec32b7a	2	1	stereocheck_testphase	8	stereocheck_test_collectResponse	9			0		stereocheck_right	1	282	6	5	antiphase_hc_osi.wav	2	3	6	noise_calib_stim_RIGHT.wav	2	1				0	
6.6.1	win	2023-06-01	23:43:21	0	0	6090578fb2299eacaec32b7a	2	1	stereocheck_testphase	8	stereocheck_test_collectResponse	12			0		stereocheck_left	1	215	6	5	antiphase_hc_osi.wav	2	4	3	noise_calib_stim_LEFT.wav	1	1				0	
6.6.1	win	2023-06-01	23:43:21	0	0	6090578fb2299eacaec32b7a	2	1	stereocheck_testphase	8	stereocheck_test_collectResponse	15			0		stereocheck_right	1	451	6	5	antiphase_hc_osi.wav	2	5	4	noise_calib_stim_RIGHT.wav	2	1				0	
6.6.1	win	2023-06-01	23:43:21	0	0	6090578fb2299eacaec32b7a	2	1	stereocheck_testphase	8	stereocheck_test_collectResponse	18			0		stereocheck_left	1	80	6	5	antiphase_hc_osi.wav	2	6	2	noise_calib_stim_LEFT.wav	1	1				0	
6.6.1	win	2023-06-01	23:43:21	0	0	6090578fb2299eacaec32b7a	2	1	DL_practice	11	DL_practice	2			0		ba	1	3851	6	5	antiphase_hc_osi.wav	2	6	2	noise_calib_stim_LEFT.wav	1	7	blb_dichoticlistening_da-ba.mp3	da	ba	1	right
6.6.1	win	2023-06-01	23:43:21	0	0	6090578fb2299eacaec32b7a	2	1	DL_practice	11	DL_practice	3			0		ka	1	936	6	5	antiphase_hc_osi.wav	2	6	2	noise_calib_stim_LEFT.wav	1	22	blb_dichoticlistening_ka-ka.mp3	ka	ka	0	left
6.6.1	win	2023-06-01	23:43:21	0	0	6090578fb2299eacaec32b7a	2	1	DL_practice	11	DL_practice	4			0		da	1	868	6	5	antiphase_hc_osi.wav	2	6	2	noise_calib_stim_LEFT.wav	1	8	blb_dichoticlistening_da-da.mp3	da	da	0	left
6.6.1	win	2023-06-01	23:43:21	0	0	6090578fb2299eacaec32b7a	2	1	DL_practice	11	DL_practice	5			0		pa	1	877	6	5	antiphase_hc_osi.wav	2	6	2	noise_calib_stim_LEFT.wav	1	29	blb_dichoticlistening_pa-pa.mp3	pa	pa	0	left
6.6.1	win	2023-06-01	23:43:21	0	0	6090578fb2299eacaec32b7a	2	1	DL_practice	11	DL_practice	6			0		ka	0	1047	6	5	antiphase_hc_osi.wav	2	6	2	noise_calib_stim_LEFT.wav	1	18	blb_dichoticlistening_ga-ta.mp3	ga	ta	1	other
6.6.1	win	2023-06-01	23:43:21	0	0	6090578fb2299eacaec32b7a	2	1	DL_practice	11	DL_practice	7			0		ta	1	989	6	5	antiphase_hc_osi.wav	2	6	2	noise_calib_stim_LEFT.wav	1	36	blb_dichoticlistening_ta-ta.mp3	ta	ta	0	left
6.6.1	win	2023-06-01	23:43:21	0	0	6090578fb2299eacaec32b7a	2	1	DL_practice	11	DL_practice	8			0		ba	1	935	6	5	antiphase_hc_osi.wav	2	6	2	noise_calib_stim_LEFT.wav	1	1	blb_dichoticlistening_ba-ba.mp3	ba	ba	0	left
6.6.1	win	2023-06-01	23:43:21	0	0	6090578fb2299eacaec32b7a	2	1	DL_practice	11	DL_practice	9			0		ga	1	733	6	5	antiphase_hc_osi.wav	2	6	2	noise_calib_stim_LEFT.wav	1	15	blb_dichoticlistening_ga-ga.mp3	ga	ga	0	left
6.6.1	win	2023-06-01	23:43:21	0	0	6090578fb2299eacaec32b7a	2	1	DL_practice	11	DL_practice	10			0		ka	1	959	6	5	antiphase_hc_osi.wav	2	6	2	noise_calib_stim_LEFT.wav	1	23	blb_dichoticlistening_ka-pa.mp3	ka	pa	1	left
6.6.1	win	2023-06-01	23:43:21	0	0	6090578fb2299eacaec32b7a	2	1	DL_test	13	DL_test	1			0		ga	1	820	6	5	antiphase_hc_osi.wav	2	6	2	noise_calib_stim_LEFT.wav	1	9	blb_dichoticlistening_da-ga.mp3	da	ga	1	right
6.6.1	win	2023-06-01	23:43:21	0	0	6090578fb2299eacaec32b7a	2	1	DL_test	13	DL_test	2			0		ga	1	2641	6	5	antiphase_hc_osi.wav	2	6	2	noise_calib_stim_LEFT.wav	1	3	blb_dichoticlistening_ba-ga.mp3	ba	ga	1	right
6.6.1	win	2023-06-01	23:43:21	0	0	6090578fb2299eacaec32b7a	2	1	DL_test	13	DL_test	3			0		ba	1	1149	6	5	antiphase_hc_osi.wav	2	6	2	noise_calib_stim_LEFT.wav	1	13	blb_dichoticlistening_ga-ba.mp3	ga	ba	1	right
6.6.1	win	2023-06-01	23:43:21	0	0	6090578fb2299eacaec32b7a	2	1	DL_test	13	DL_test	4			0		da	1	1084	6	5	antiphase_hc_osi.wav	2	6	2	noise_calib_stim_LEFT.wav	1	32	blb_dichoticlistening_ta-da.mp3	ta	da	1	right
6.6.1	win	2023-06-01	23:43:21	0	0	6090578fb2299eacaec32b7a	2	1	DL_test	13	DL_test	5			0		ga	1	1791	6	5	antiphase_hc_osi.wav	2	6	2	noise_calib_stim_LEFT.wav	1	33	blb_dichoticlistening_ta-ga.mp3	ta	ga	1	right
6.6.1	win	2023-06-01	23:43:21	0	0	6090578fb2299eacaec32b7a	2	1	DL_test	13	DL_test	6			0		da	0	1987	6	5	antiphase_hc_osi.wav	2	6	2	noise_calib_stim_LEFT.wav	1	27	blb_dichoticlistening_pa-ga.mp3	pa	ga	1	other
6.6.1	win	2023-06-01	23:43:21	0	0	6090578fb2299eacaec32b7a	2	1	DL_test	13	DL_test	7			0		ka	1	839	6	5	antiphase_hc_osi.wav	2	6	2	noise_calib_stim_LEFT.wav	1	22	blb_dichoticlistening_ka-ka.mp3	ka	ka	0	left
6.6.1	win	2023-06-01	23:43:21	0	0	6090578fb2299eacaec32b7a	2	1	DL_test	13	DL_test	8			0		ka	0	723	6	5	antiphase_hc_osi.wav	2	6	2	noise_calib_stim_LEFT.wav	1	18	blb_dichoticlistening_ga-ta.mp3	ga	ta	1	other
6.6.1	win	2023-06-01	23:43:21	0	0	6090578fb2299eacaec32b7a	2	1	DL_test	13	DL_test	9			0		ta	1	841	6	5	antiphase_hc_osi.wav	2	6	2	noise_calib_stim_LEFT.wav	1	6	blb_dichoticlistening_ba-ta.mp3	ba	ta	1	right
6.6.1	win	2023-06-01	23:43:21	0	0	6090578fb2299eacaec32b7a	2	1	DL_test	13	DL_test	10			0		pa	1	1155	6	5	antiphase_hc_osi.wav	2	6	2	noise_calib_stim_LEFT.wav	1	17	blb_dichoticlistening_ga-pa.mp3	ga	pa	1	right
6.6.1	win	2023-06-01	23:43:21	0	0	6090578fb2299eacaec32b7a	2	1	DL_test	13	DL_test	11			0		da	1	853	6	5	antiphase_hc_osi.wav	2	6	2	noise_calib_stim_LEFT.wav	1	8	blb_dichoticlistening_da-da.mp3	da	da	0	left
6.6.1	win	2023-06-01	23:43:21	0	0	6090578fb2299eacaec32b7a	2	1	DL_test	13	DL_test	12			0		ka	1	836	6	5	antiphase_hc_osi.wav	2	6	2	noise_calib_stim_LEFT.wav	1	23	blb_dichoticlistening_ka-pa.mp3	ka	pa	1	left
6.6.1	win	2023-06-01	23:43:21	0	0	6090578fb2299eacaec32b7a	2	1	DL_test	13	DL_test	13			0		ta	1	771	6	5	antiphase_hc_osi.wav	2	6	2	noise_calib_stim_LEFT.wav	1	30	blb_dichoticlistening_pa-ta.mp3	pa	ta	1	right
6.6.1	win	2023-06-01	23:43:21	0	0	6090578fb2299eacaec32b7a	2	1	DL_test	13	DL_test	14			0		ta	1	802	6	5	antiphase_hc_osi.wav	2	6	2	noise_calib_stim_LEFT.wav	1	12	blb_dichoticlistening_da-ta.mp3	da	ta	1	right
6.6.1	win	2023-06-01	23:43:21	0	0	6090578fb2299eacaec32b7a	2	1	DL_test	13	DL_test	15			0		ta	1	622	6	5	antiphase_hc_osi.wav	2	6	2	noise_calib_stim_LEFT.wav	1	36	blb_dichoticlistening_ta-ta.mp3	ta	ta	0	left
6.6.1	win	2023-06-01	23:43:21	0	0	6090578fb2299eacaec32b7a	2	1	DL_test	13	DL_test	16			0		ba	1	3740	6	5	antiphase_hc_osi.wav	2	6	2	noise_calib_stim_LEFT.wav	1	2	blb_dichoticlistening_ba-da.mp3	ba	da	1	left
6.6.1	win	2023-06-01	23:43:21	0	0	6090578fb2299eacaec32b7a	2	1	DL_test	13	DL_test	17			0		da	1	1375	6	5	antiphase_hc_osi.wav	2	6	2	noise_calib_stim_LEFT.wav	1	20	blb_dichoticlistening_ka-da.mp3	ka	da	1	right
6.6.1	win	2023-06-01	23:43:21	0	0	6090578fb2299eacaec32b7a	2	1	DL_test	13	DL_test	18			0		ka	1	828	6	5	antiphase_hc_osi.wav	2	6	2	noise_calib_stim_LEFT.wav	1	4	blb_dichoticlistening_ba-ka.mp3	ba	ka	1	right
6.6.1	win	2023-06-01	23:43:21	0	0	6090578fb2299eacaec32b7a	2	1	DL_test	13	DL_test	19			0		pa	1	1064	6	5	antiphase_hc_osi.wav	2	6	2	noise_calib_stim_LEFT.wav	1	11	blb_dichoticlistening_da-pa.mp3	da	pa	1	right
6.6.1	win	2023-06-01	23:43:21	0	0	6090578fb2299eacaec32b7a	2	1	DL_test	13	DL_test	20			0		ka	0	844	6	5	antiphase_hc_osi.wav	2	6	2	noise_calib_stim_LEFT.wav	1	5	blb_dichoticlistening_ba-pa.mp3	ba	pa	1	other
6.6.1	win	2023-06-01	23:43:21	0	0	6090578fb2299eacaec32b7a	2	1	DL_test	13	DL_test	21			0		ka	1	1442	6	5	antiphase_hc_osi.wav	2	6	2	noise_calib_stim_LEFT.wav	1	16	blb_dichoticlistening_ga-ka.mp3	ga	ka	1	right
6.6.1	win	2023-06-01	23:43:21	0	0	6090578fb2299eacaec32b7a	2	1	DL_test	13	DL_test	22			0		ba	1	918	6	5	antiphase_hc_osi.wav	2	6	2	noise_calib_stim_LEFT.wav	1	25	blb_dichoticlistening_pa-ba.mp3	pa	ba	1	right
6.6.1	win	2023-06-01	23:43:21	0	0	6090578fb2299eacaec32b7a	2	1	DL_test	13	DL_test	23			0		ba	1	1652	6	5	antiphase_hc_osi.wav	2	6	2	noise_calib_stim_LEFT.wav	1	7	blb_dichoticlistening_da-ba.mp3	da	ba	1	right
6.6.1	win	2023-06-01	23:43:21	0	0	6090578fb2299eacaec32b7a	2	1	DL_test	13	DL_test	24			0		pa	0	1080	6	5	antiphase_hc_osi.wav	2	6	2	noise_calib_stim_LEFT.wav	1	10	blb_dichoticlistening_da-ka.mp3	da	ka	1	other
6.6.1	win	2023-06-01	23:43:21	0	0	6090578fb2299eacaec32b7a	2	1	DL_test	13	DL_test	25			0		ka	1	810	6	5	antiphase_hc_osi.wav	2	6	2	noise_calib_stim_LEFT.wav	1	24	blb_dichoticlistening_ka-ta.mp3	ka	ta	1	left
6.6.1	win	2023-06-01	23:43:21	0	0	6090578fb2299eacaec32b7a	2	1	DL_test	13	DL_test	26			0		ga	1	1067	6	5	antiphase_hc_osi.wav	2	6	2	noise_calib_stim_LEFT.wav	1	21	blb_dichoticlistening_ka-ga.mp3	ka	ga	1	right
6.6.1	win	2023-06-01	23:43:21	0	0	6090578fb2299eacaec32b7a	2	1	DL_test	13	DL_test	27			0		ka	1	733	6	5	antiphase_hc_osi.wav	2	6	2	noise_calib_stim_LEFT.wav	1	34	blb_dichoticlistening_ta-ka.mp3	ta	ka	1	right
6.6.1	win	2023-06-01	23:43:21	0	0	6090578fb2299eacaec32b7a	2	1	DL_test	13	DL_test	28			0		ba	1	1046	6	5	antiphase_hc_osi.wav	2	6	2	noise_calib_stim_LEFT.wav	1	1	blb_dichoticlistening_ba-ba.mp3	ba	ba	0	left
6.6.1	win	2023-06-01	23:43:21	0	0	6090578fb2299eacaec32b7a	2	1	DL_test	13	DL_test	29			0		ta	1	916	6	5	antiphase_hc_osi.wav	2	6	2	noise_calib_stim_LEFT.wav	1	35	blb_dichoticlistening_ta-pa.mp3	ta	pa	1	left
6.6.1	win	2023-06-01	23:43:21	0	0	6090578fb2299eacaec32b7a	2	1	DL_test	13	DL_test	30			0		da	1	1006	6	5	antiphase_hc_osi.wav	2	6	2	noise_calib_stim_LEFT.wav	1	26	blb_dichoticlistening_pa-da.mp3	pa	da	1	right
6.6.1	win	2023-06-01	23:43:21	0	0	6090578fb2299eacaec32b7a	2	1	DL_test	13	DL_test	31			0		ga	1	990	6	5	antiphase_hc_osi.wav	2	6	2	noise_calib_stim_LEFT.wav	1	14	blb_dichoticlistening_ga-da.mp3	ga	da	1	left
6.6.1	win	2023-06-01	23:43:21	0	0	6090578fb2299eacaec32b7a	2	1	DL_test	13	DL_test	32			0		ga	1	720	6	5	antiphase_hc_osi.wav	2	6	2	noise_calib_stim_LEFT.wav	1	15	blb_dichoticlistening_ga-ga.mp3	ga	ga	0	left
6.6.1	win	2023-06-01	23:43:21	0	0	6090578fb2299eacaec32b7a	2	1	DL_test	13	DL_test	33			0		ka	1	726	6	5	antiphase_hc_osi.wav	2	6	2	noise_calib_stim_LEFT.wav	1	28	blb_dichoticlistening_pa-ka.mp3	pa	ka	1	right
6.6.1	win	2023-06-01	23:43:21	0	0	6090578fb2299eacaec32b7a	2	1	DL_test	13	DL_test	34			0		ba	1	937	6	5	antiphase_hc_osi.wav	2	6	2	noise_calib_stim_LEFT.wav	1	31	blb_dichoticlistening_ta-ba.mp3	ta	ba	1	right
6.6.1	win	2023-06-01	23:43:21	0	0	6090578fb2299eacaec32b7a	2	1	DL_test	13	DL_test	35			0		ba	1	1647	6	5	antiphase_hc_osi.wav	2	6	2	noise_calib_stim_LEFT.wav	1	19	blb_dichoticlistening_ka-ba.mp3	ka	ba	1	right
6.6.1	win	2023-06-01	23:43:21	0	0	6090578fb2299eacaec32b7a	2	1	DL_test	13	DL_test	36			0		pa	1	707	6	5	antiphase_hc_osi.wav	2	6	2	noise_calib_stim_LEFT.wav	1	29	blb_dichoticlistening_pa-pa.mp3	pa	pa	0	left
6.6.1	win	2023-06-01	23:43:21	0	0	6090578fb2299eacaec32b7a	2	1	DL_test	14	DL_test	1			0		ba	1	2199	6	5	antiphase_hc_osi.wav	2	6	2	noise_calib_stim_LEFT.wav	1	1	blb_dichoticlistening_ba-ba.mp3	ba	ba	0	left
6.6.1	win	2023-06-01	23:43:21	0	0	6090578fb2299eacaec32b7a	2	1	DL_test	14	DL_test	2			0		da	1	1956	6	5	antiphase_hc_osi.wav	2	6	2	noise_calib_stim_LEFT.wav	1	20	blb_dichoticlistening_ka-da.mp3	ka	da	1	right
6.6.1	win	2023-06-01	23:43:21	0	0	6090578fb2299eacaec32b7a	2	1	DL_test	14	DL_test	3			0		ga	1	1163	6	5	antiphase_hc_osi.wav	2	6	2	noise_calib_stim_LEFT.wav	1	33	blb_dichoticlistening_ta-ga.mp3	ta	ga	1	right
6.6.1	win	2023-06-01	23:43:21	0	0	6090578fb2299eacaec32b7a	2	1	DL_test	14	DL_test	4			0		ba	1	1252	6	5	antiphase_hc_osi.wav	2	6	2	noise_calib_stim_LEFT.wav	1	19	blb_dichoticlistening_ka-ba.mp3	ka	ba	1	right
6.6.1	win	2023-06-01	23:43:21	0	0	6090578fb2299eacaec32b7a	2	1	DL_test	14	DL_test	5			0		pa	1	1454	6	5	antiphase_hc_osi.wav	2	6	2	noise_calib_stim_LEFT.wav	1	11	blb_dichoticlistening_da-pa.mp3	da	pa	1	right
6.6.1	win	2023-06-01	23:43:21	0	0	6090578fb2299eacaec32b7a	2	1	DL_test	14	DL_test	6			0		ka	0	835	6	5	antiphase_hc_osi.wav	2	6	2	noise_calib_stim_LEFT.wav	1	6	blb_dichoticlistening_ba-ta.mp3	ba	ta	1	other
6.6.1	win	2023-06-01	23:43:21	0	0	6090578fb2299eacaec32b7a	2	1	DL_test	14	DL_test	7			0		ba	1	1557	6	5	antiphase_hc_osi.wav	2	6	2	noise_calib_stim_LEFT.wav	1	7	blb_dichoticlistening_da-ba.mp3	da	ba	1	right
6.6.1	win	2023-06-01	23:43:21	0	0	6090578fb2299eacaec32b7a	2	1	DL_test	14	DL_test	8			0		pa	1	877	6	5	antiphase_hc_osi.wav	2	6	2	noise_calib_stim_LEFT.wav	1	17	blb_dichoticlistening_ga-pa.mp3	ga	pa	1	right
6.6.1	win	2023-06-01	23:43:21	0	0	6090578fb2299eacaec32b7a	2	1	DL_test	14	DL_test	9			0		ta	1	1046	6	5	antiphase_hc_osi.wav	2	6	2	noise_calib_stim_LEFT.wav	1	35	blb_dichoticlistening_ta-pa.mp3	ta	pa	1	left
6.6.1	win	2023-06-01	23:43:21	0	0	6090578fb2299eacaec32b7a	2	1	DL_test	14	DL_test	10			0		ta	1	1160	6	5	antiphase_hc_osi.wav	2	6	2	noise_calib_stim_LEFT.wav	1	12	blb_dichoticlistening_da-ta.mp3	da	ta	1	right
6.6.1	win	2023-06-01	23:43:21	0	0	6090578fb2299eacaec32b7a	2	1	DL_test	14	DL_test	11			0		pa	0	1023	6	5	antiphase_hc_osi.wav	2	6	2	noise_calib_stim_LEFT.wav	1	10	blb_dichoticlistening_da-ka.mp3	da	ka	1	other
6.6.1	win	2023-06-01	23:43:21	0	0	6090578fb2299eacaec32b7a	2	1	DL_test	14	DL_test	12			0		pa	1	744	6	5	antiphase_hc_osi.wav	2	6	2	noise_calib_stim_LEFT.wav	1	29	blb_dichoticlistening_pa-pa.mp3	pa	pa	0	left
6.6.1	win	2023-06-01	23:43:21	0	0	6090578fb2299eacaec32b7a	2	1	DL_test	14	DL_test	13			0		ga	1	908	6	5	antiphase_hc_osi.wav	2	6	2	noise_calib_stim_LEFT.wav	1	27	blb_dichoticlistening_pa-ga.mp3	pa	ga	1	right
6.6.1	win	2023-06-01	23:43:21	0	0	6090578fb2299eacaec32b7a	2	1	DL_test	14	DL_test	14			0		ta	1	923	6	5	antiphase_hc_osi.wav	2	6	2	noise_calib_stim_LEFT.wav	1	36	blb_dichoticlistening_ta-ta.mp3	ta	ta	0	left
6.6.1	win	2023-06-01	23:43:21	0	0	6090578fb2299eacaec32b7a	2	1	DL_test	14	DL_test	15			0		ga	1	1110	6	5	antiphase_hc_osi.wav	2	6	2	noise_calib_stim_LEFT.wav	1	3	blb_dichoticlistening_ba-ga.mp3	ba	ga	1	right
6.6.1	win	2023-06-01	23:43:21	0	0	6090578fb2299eacaec32b7a	2	1	DL_test	14	DL_test	16			0		ka	1	1017	6	5	antiphase_hc_osi.wav	2	6	2	noise_calib_stim_LEFT.wav	1	23	blb_dichoticlistening_ka-pa.mp3	ka	pa	1	left
6.6.1	win	2023-06-01	23:43:21	0	0	6090578fb2299eacaec32b7a	2	1	DL_test	14	DL_test	17			0		ba	1	1076	6	5	antiphase_hc_osi.wav	2	6	2	noise_calib_stim_LEFT.wav	1	13	blb_dichoticlistening_ga-ba.mp3	ga	ba	1	right
6.6.1	win	2023-06-01	23:43:21	0	0	6090578fb2299eacaec32b7a	2	1	DL_test	14	DL_test	18			0		ga	1	865	6	5	antiphase_hc_osi.wav	2	6	2	noise_calib_stim_LEFT.wav	1	15	blb_dichoticlistening_ga-ga.mp3	ga	ga	0	left
6.6.1	win	2023-06-01	23:43:21	0	0	6090578fb2299eacaec32b7a	2	1	DL_test	14	DL_test	19			0		ka	1	764	6	5	antiphase_hc_osi.wav	2	6	2	noise_calib_stim_LEFT.wav	1	22	blb_dichoticlistening_ka-ka.mp3	ka	ka	0	left
6.6.1	win	2023-06-01	23:43:21	0	0	6090578fb2299eacaec32b7a	2	1	DL_test	14	DL_test	20			0		ga	1	1142	6	5	antiphase_hc_osi.wav	2	6	2	noise_calib_stim_LEFT.wav	1	9	blb_dichoticlistening_da-ga.mp3	da	ga	1	right
6.6.1	win	2023-06-01	23:43:21	0	0	6090578fb2299eacaec32b7a	2	1	DL_test	14	DL_test	21			0		ka	1	736	6	5	antiphase_hc_osi.wav	2	6	2	noise_calib_stim_LEFT.wav	1	4	blb_dichoticlistening_ba-ka.mp3	ba	ka	1	right
6.6.1	win	2023-06-01	23:43:21	0	0	6090578fb2299eacaec32b7a	2	1	DL_test	14	DL_test	22			0		ba	1	1304	6	5	antiphase_hc_osi.wav	2	6	2	noise_calib_stim_LEFT.wav	1	31	blb_dichoticlistening_ta-ba.mp3	ta	ba	1	right
6.6.1	win	2023-06-01	23:43:21	0	0	6090578fb2299eacaec32b7a	2	1	DL_test	14	DL_test	23			0		ka	1	847	6	5	antiphase_hc_osi.wav	2	6	2	noise_calib_stim_LEFT.wav	1	34	blb_dichoticlistening_ta-ka.mp3	ta	ka	1	right
6.6.1	win	2023-06-01	23:43:21	0	0	6090578fb2299eacaec32b7a	2	1	DL_test	14	DL_test	24			0		pa	1	861	6	5	antiphase_hc_osi.wav	2	6	2	noise_calib_stim_LEFT.wav	1	5	blb_dichoticlistening_ba-pa.mp3	ba	pa	1	right
6.6.1	win	2023-06-01	23:43:21	0	0	6090578fb2299eacaec32b7a	2	1	DL_test	14	DL_test	25			0		ka	0	974	6	5	antiphase_hc_osi.wav	2	6	2	noise_calib_stim_LEFT.wav	1	18	blb_dichoticlistening_ga-ta.mp3	ga	ta	1	other
6.6.1	win	2023-06-01	23:43:21	0	0	6090578fb2299eacaec32b7a	2	1	DL_test	14	DL_test	26			0		ga	1	1196	6	5	antiphase_hc_osi.wav	2	6	2	noise_calib_stim_LEFT.wav	1	21	blb_dichoticlistening_ka-ga.mp3	ka	ga	1	right
6.6.1	win	2023-06-01	23:43:21	0	0	6090578fb2299eacaec32b7a	2	1	DL_test	14	DL_test	27			0		da	1	1041	6	5	antiphase_hc_osi.wav	2	6	2	noise_calib_stim_LEFT.wav	1	2	blb_dichoticlistening_ba-da.mp3	ba	da	1	right
6.6.1	win	2023-06-01	23:43:21	0	0	6090578fb2299eacaec32b7a	2	1	DL_test	14	DL_test	28			0		da	1	2281	6	5	antiphase_hc_osi.wav	2	6	2	noise_calib_stim_LEFT.wav	1	32	blb_dichoticlistening_ta-da.mp3	ta	da	1	right
6.6.1	win	2023-06-01	23:43:21	0	0	6090578fb2299eacaec32b7a	2	1	DL_test	14	DL_test	29			0		ga	1	1452	6	5	antiphase_hc_osi.wav	2	6	2	noise_calib_stim_LEFT.wav	1	14	blb_dichoticlistening_ga-da.mp3	ga	da	1	left
6.6.1	win	2023-06-01	23:43:21	0	0	6090578fb2299eacaec32b7a	2	1	DL_test	14	DL_test	30			0		ka	1	1622	6	5	antiphase_hc_osi.wav	2	6	2	noise_calib_stim_LEFT.wav	1	24	blb_dichoticlistening_ka-ta.mp3	ka	ta	1	left
6.6.1	win	2023-06-01	23:43:21	0	0	6090578fb2299eacaec32b7a	2	1	DL_test	14	DL_test	31			0		ka	1	1016	6	5	antiphase_hc_osi.wav	2	6	2	noise_calib_stim_LEFT.wav	1	16	blb_dichoticlistening_ga-ka.mp3	ga	ka	1	right
6.6.1	win	2023-06-01	23:43:21	0	0	6090578fb2299eacaec32b7a	2	1	DL_test	14	DL_test	32			0		pa	1	1126	6	5	antiphase_hc_osi.wav	2	6	2	noise_calib_stim_LEFT.wav	1	26	blb_dichoticlistening_pa-da.mp3	pa	da	1	left
6.6.1	win	2023-06-01	23:43:21	0	0	6090578fb2299eacaec32b7a	2	1	DL_test	14	DL_test	33			0		ka	1	878	6	5	antiphase_hc_osi.wav	2	6	2	noise_calib_stim_LEFT.wav	1	28	blb_dichoticlistening_pa-ka.mp3	pa	ka	1	right
6.6.1	win	2023-06-01	23:43:21	0	0	6090578fb2299eacaec32b7a	2	1	DL_test	14	DL_test	34			0		da	1	1071	6	5	antiphase_hc_osi.wav	2	6	2	noise_calib_stim_LEFT.wav	1	8	blb_dichoticlistening_da-da.mp3	da	da	0	left
6.6.1	win	2023-06-01	23:43:21	0	0	6090578fb2299eacaec32b7a	2	1	DL_test	14	DL_test	35			0		pa	1	1614	6	5	antiphase_hc_osi.wav	2	6	2	noise_calib_stim_LEFT.wav	1	25	blb_dichoticlistening_pa-ba.mp3	pa	ba	1	left
6.6.1	win	2023-06-01	23:43:21	0	0	6090578fb2299eacaec32b7a	2	1	DL_test	14	DL_test	36			0		ta	1	1081	6	5	antiphase_hc_osi.wav	2	6	2	noise_calib_stim_LEFT.wav	1	30	blb_dichoticlistening_pa-ta.mp3	pa	ta	1	right
6.6.1	win	2023-06-01	23:43:21	0	0	6090578fb2299eacaec32b7a	2	1	DL_test	15	DL_test	1			0		pa	1	1054	6	5	antiphase_hc_osi.wav	2	6	2	noise_calib_stim_LEFT.wav	1	17	blb_dichoticlistening_ga-pa.mp3	ga	pa	1	right
6.6.1	win	2023-06-01	23:43:21	0	0	6090578fb2299eacaec32b7a	2	1	DL_test	15	DL_test	2			0		ka	1	897	6	5	antiphase_hc_osi.wav	2	6	2	noise_calib_stim_LEFT.wav	1	23	blb_dichoticlistening_ka-pa.mp3	ka	pa	1	left
6.6.1	win	2023-06-01	23:43:21	0	0	6090578fb2299eacaec32b7a	2	1	DL_test	15	DL_test	3			0		ga	1	1253	6	5	antiphase_hc_osi.wav	2	6	2	noise_calib_stim_LEFT.wav	1	18	blb_dichoticlistening_ga-ta.mp3	ga	ta	1	left
6.6.1	win	2023-06-01	23:43:21	0	0	6090578fb2299eacaec32b7a	2	1	DL_test	15	DL_test	4			0		ta	1	1184	6	5	antiphase_hc_osi.wav	2	6	2	noise_calib_stim_LEFT.wav	1	36	blb_dichoticlistening_ta-ta.mp3	ta	ta	0	left
6.6.1	win	2023-06-01	23:43:21	0	0	6090578fb2299eacaec32b7a	2	1	DL_test	15	DL_test	5			0		ga	1	843	6	5	antiphase_hc_osi.wav	2	6	2	noise_calib_stim_LEFT.wav	1	21	blb_dichoticlistening_ka-ga.mp3	ka	ga	1	right
6.6.1	win	2023-06-01	23:43:21	0	0	6090578fb2299eacaec32b7a	2	1	DL_test	15	DL_test	6			0		ba	1	1496	6	5	antiphase_hc_osi.wav	2	6	2	noise_calib_stim_LEFT.wav	1	3	blb_dichoticlistening_ba-ga.mp3	ba	ga	1	left
6.6.1	win	2023-06-01	23:43:21	0	0	6090578fb2299eacaec32b7a	2	1	DL_test	15	DL_test	7			0		ka	1	991	6	5	antiphase_hc_osi.wav	2	6	2	noise_calib_stim_LEFT.wav	1	16	blb_dichoticlistening_ga-ka.mp3	ga	ka	1	right
6.6.1	win	2023-06-01	23:43:21	0	0	6090578fb2299eacaec32b7a	2	1	DL_test	15	DL_test	8			0		ka	1	882	6	5	antiphase_hc_osi.wav	2	6	2	noise_calib_stim_LEFT.wav	1	34	blb_dichoticlistening_ta-ka.mp3	ta	ka	1	right
6.6.1	win	2023-06-01	23:43:21	0	0	6090578fb2299eacaec32b7a	2	1	DL_test	15	DL_test	9			0		ta	1	711	6	5	antiphase_hc_osi.wav	2	6	2	noise_calib_stim_LEFT.wav	1	30	blb_dichoticlistening_pa-ta.mp3	pa	ta	1	right
6.6.1	win	2023-06-01	23:43:21	0	0	6090578fb2299eacaec32b7a	2	1	DL_test	15	DL_test	10			0		ga	1	849	6	5	antiphase_hc_osi.wav	2	6	2	noise_calib_stim_LEFT.wav	1	9	blb_dichoticlistening_da-ga.mp3	da	ga	1	right
6.6.1	win	2023-06-01	23:43:21	0	0	6090578fb2299eacaec32b7a	2	1	DL_test	15	DL_test	11			0		da	1	877	6	5	antiphase_hc_osi.wav	2	6	2	noise_calib_stim_LEFT.wav	1	8	blb_dichoticlistening_da-da.mp3	da	da	0	left
6.6.1	win	2023-06-01	23:43:21	0	0	6090578fb2299eacaec32b7a	2	1	DL_test	15	DL_test	12			0		pa	1	1019	6	5	antiphase_hc_osi.wav	2	6	2	noise_calib_stim_LEFT.wav	1	11	blb_dichoticlistening_da-pa.mp3	da	pa	1	right
6.6.1	win	2023-06-01	23:43:21	0	0	6090578fb2299eacaec32b7a	2	1	DL_test	15	DL_test	13			0		da	1	1054	6	5	antiphase_hc_osi.wav	2	6	2	noise_calib_stim_LEFT.wav	1	2	blb_dichoticlistening_ba-da.mp3	ba	da	1	right
6.6.1	win	2023-06-01	23:43:21	0	0	6090578fb2299eacaec32b7a	2	1	DL_test	15	DL_test	14			0		ga	1	955	6	5	antiphase_hc_osi.wav	2	6	2	noise_calib_stim_LEFT.wav	1	15	blb_dichoticlistening_ga-ga.mp3	ga	ga	0	left
6.6.1	win	2023-06-01	23:43:21	0	0	6090578fb2299eacaec32b7a	2	1	DL_test	15	DL_test	15			0		da	1	1719	6	5	antiphase_hc_osi.wav	2	6	2	noise_calib_stim_LEFT.wav	1	10	blb_dichoticlistening_da-ka.mp3	da	ka	1	left
6.6.1	win	2023-06-01	23:43:21	0	0	6090578fb2299eacaec32b7a	2	1	DL_test	15	DL_test	16			0		ba	1	1551	6	5	antiphase_hc_osi.wav	2	6	2	noise_calib_stim_LEFT.wav	1	19	blb_dichoticlistening_ka-ba.mp3	ka	ba	1	right
6.6.1	win	2023-06-01	23:43:21	0	0	6090578fb2299eacaec32b7a	2	1	DL_test	15	DL_test	17			0		pa	1	843	6	5	antiphase_hc_osi.wav	2	6	2	noise_calib_stim_LEFT.wav	1	25	blb_dichoticlistening_pa-ba.mp3	pa	ba	1	left
6.6.1	win	2023-06-01	23:43:21	0	0	6090578fb2299eacaec32b7a	2	1	DL_test	15	DL_test	18			0		da	1	1464	6	5	antiphase_hc_osi.wav	2	6	2	noise_calib_stim_LEFT.wav	1	26	blb_dichoticlistening_pa-da.mp3	pa	da	1	right
6.6.1	win	2023-06-01	23:43:21	0	0	6090578fb2299eacaec32b7a	2	1	DL_test	15	DL_test	19			0		ba	1	1138	6	5	antiphase_hc_osi.wav	2	6	2	noise_calib_stim_LEFT.wav	1	7	blb_dichoticlistening_da-ba.mp3	da	ba	1	right
6.6.1	win	2023-06-01	23:43:21	0	0	6090578fb2299eacaec32b7a	2	1	DL_test	15	DL_test	20			0		ba	1	832	6	5	antiphase_hc_osi.wav	2	6	2	noise_calib_stim_LEFT.wav	1	1	blb_dichoticlistening_ba-ba.mp3	ba	ba	0	left
6.6.1	win	2023-06-01	23:43:21	0	0	6090578fb2299eacaec32b7a	2	1	DL_test	15	DL_test	21			0		da	1	949	6	5	antiphase_hc_osi.wav	2	6	2	noise_calib_stim_LEFT.wav	1	32	blb_dichoticlistening_ta-da.mp3	ta	da	1	right
6.6.1	win	2023-06-01	23:43:21	0	0	6090578fb2299eacaec32b7a	2	1	DL_test	15	DL_test	22			0		ta	1	1435	6	5	antiphase_hc_osi.wav	2	6	2	noise_calib_stim_LEFT.wav	1	12	blb_dichoticlistening_da-ta.mp3	da	ta	1	right
6.6.1	win	2023-06-01	23:43:21	0	0	6090578fb2299eacaec32b7a	2	1	DL_test	15	DL_test	23			0		ta	1	889	6	5	antiphase_hc_osi.wav	2	6	2	noise_calib_stim_LEFT.wav	1	6	blb_dichoticlistening_ba-ta.mp3	ba	ta	1	right
6.6.1	win	2023-06-01	23:43:21	0	0	6090578fb2299eacaec32b7a	2	1	DL_test	15	DL_test	24			0		da	1	943	6	5	antiphase_hc_osi.wav	2	6	2	noise_calib_stim_LEFT.wav	1	20	blb_dichoticlistening_ka-da.mp3	ka	da	1	right
6.6.1	win	2023-06-01	23:43:21	0	0	6090578fb2299eacaec32b7a	2	1	DL_test	15	DL_test	25			0		ta	1	1027	6	5	antiphase_hc_osi.wav	2	6	2	noise_calib_stim_LEFT.wav	1	24	blb_dichoticlistening_ka-ta.mp3	ka	ta	1	right
6.6.1	win	2023-06-01	23:43:21	0	0	6090578fb2299eacaec32b7a	2	1	DL_test	15	DL_test	26			0		ka	1	850	6	5	antiphase_hc_osi.wav	2	6	2	noise_calib_stim_LEFT.wav	1	28	blb_dichoticlistening_pa-ka.mp3	pa	ka	1	right
6.6.1	win	2023-06-01	23:43:21	0	0	6090578fb2299eacaec32b7a	2	1	DL_test	15	DL_test	27			0		ka	1	1071	6	5	antiphase_hc_osi.wav	2	6	2	noise_calib_stim_LEFT.wav	1	4	blb_dichoticlistening_ba-ka.mp3	ba	ka	1	right
6.6.1	win	2023-06-01	23:43:21	0	0	6090578fb2299eacaec32b7a	2	1	DL_test	15	DL_test	28			0		ba	1	1406	6	5	antiphase_hc_osi.wav	2	6	2	noise_calib_stim_LEFT.wav	1	13	blb_dichoticlistening_ga-ba.mp3	ga	ba	1	right
6.6.1	win	2023-06-01	23:43:21	0	0	6090578fb2299eacaec32b7a	2	1	DL_test	15	DL_test	29			0		da	1	988	6	5	antiphase_hc_osi.wav	2	6	2	noise_calib_stim_LEFT.wav	1	14	blb_dichoticlistening_ga-da.mp3	ga	da	1	right
6.6.1	win	2023-06-01	23:43:21	0	0	6090578fb2299eacaec32b7a	2	1	DL_test	15	DL_test	30			0		pa	1	896	6	5	antiphase_hc_osi.wav	2	6	2	noise_calib_stim_LEFT.wav	1	5	blb_dichoticlistening_ba-pa.mp3	ba	pa	1	right
6.6.1	win	2023-06-01	23:43:21	0	0	6090578fb2299eacaec32b7a	2	1	DL_test	15	DL_test	31			0		ka	1	1007	6	5	antiphase_hc_osi.wav	2	6	2	noise_calib_stim_LEFT.wav	1	22	blb_dichoticlistening_ka-ka.mp3	ka	ka	0	left
6.6.1	win	2023-06-01	23:43:21	0	0	6090578fb2299eacaec32b7a	2	1	DL_test	15	DL_test	32			0		ga	1	809	6	5	antiphase_hc_osi.wav	2	6	2	noise_calib_stim_LEFT.wav	1	27	blb_dichoticlistening_pa-ga.mp3	pa	ga	1	right
6.6.1	win	2023-06-01	23:43:21	0	0	6090578fb2299eacaec32b7a	2	1	DL_test	15	DL_test	33			0		ba	1	1365	6	5	antiphase_hc_osi.wav	2	6	2	noise_calib_stim_LEFT.wav	1	31	blb_dichoticlistening_ta-ba.mp3	ta	ba	1	right
6.6.1	win	2023-06-01	23:43:21	0	0	6090578fb2299eacaec32b7a	2	1	DL_test	15	DL_test	34			0		ta	1	1618	6	5	antiphase_hc_osi.wav	2	6	2	noise_calib_stim_LEFT.wav	1	33	blb_dichoticlistening_ta-ga.mp3	ta	ga	1	left
6.6.1	win	2023-06-01	23:43:21	0	0	6090578fb2299eacaec32b7a	2	1	DL_test	15	DL_test	35			0		ta	1	750	6	5	antiphase_hc_osi.wav	2	6	2	noise_calib_stim_LEFT.wav	1	35	blb_dichoticlistening_ta-pa.mp3	ta	pa	1	left
6.6.1	win	2023-06-01	23:43:21	0	0	6090578fb2299eacaec32b7a	2	1	DL_test	15	DL_test	36			0		pa	1	888	6	5	antiphase_hc_osi.wav	2	6	2	noise_calib_stim_LEFT.wav	1	29	blb_dichoticlistening_pa-pa.mp3	pa	pa	0	left
6.6.1	win	2023-06-01	23:43:21	0	0	6090578fb2299eacaec32b7a	2	1	DL_test	16	DL_test	1			0		ta	1	795	6	5	antiphase_hc_osi.wav	2	6	2	noise_calib_stim_LEFT.wav	1	35	blb_dichoticlistening_ta-pa.mp3	ta	pa	1	left
6.6.1	win	2023-06-01	23:43:21	0	0	6090578fb2299eacaec32b7a	2	1	DL_test	16	DL_test	2			0		ga	1	1003	6	5	antiphase_hc_osi.wav	2	6	2	noise_calib_stim_LEFT.wav	1	33	blb_dichoticlistening_ta-ga.mp3	ta	ga	1	right
6.6.1	win	2023-06-01	23:43:21	0	0	6090578fb2299eacaec32b7a	2	1	DL_test	16	DL_test	3			0		ka	1	983	6	5	antiphase_hc_osi.wav	2	6	2	noise_calib_stim_LEFT.wav	1	16	blb_dichoticlistening_ga-ka.mp3	ga	ka	1	right
6.6.1	win	2023-06-01	23:43:21	0	0	6090578fb2299eacaec32b7a	2	1	DL_test	16	DL_test	4			0		da	1	1550	6	5	antiphase_hc_osi.wav	2	6	2	noise_calib_stim_LEFT.wav	1	10	blb_dichoticlistening_da-ka.mp3	da	ka	1	left
6.6.1	win	2023-06-01	23:43:21	0	0	6090578fb2299eacaec32b7a	2	1	DL_test	16	DL_test	5			0		ga	1	1133	6	5	antiphase_hc_osi.wav	2	6	2	noise_calib_stim_LEFT.wav	1	27	blb_dichoticlistening_pa-ga.mp3	pa	ga	1	right
6.6.1	win	2023-06-01	23:43:21	0	0	6090578fb2299eacaec32b7a	2	1	DL_test	16	DL_test	6			0		ga	1	807	6	5	antiphase_hc_osi.wav	2	6	2	noise_calib_stim_LEFT.wav	1	15	blb_dichoticlistening_ga-ga.mp3	ga	ga	0	left
6.6.1	win	2023-06-01	23:43:21	0	0	6090578fb2299eacaec32b7a	2	1	DL_test	16	DL_test	7			0		pa	1	982	6	5	antiphase_hc_osi.wav	2	6	2	noise_calib_stim_LEFT.wav	1	5	blb_dichoticlistening_ba-pa.mp3	ba	pa	1	right
6.6.1	win	2023-06-01	23:43:21	0	0	6090578fb2299eacaec32b7a	2	1	DL_test	16	DL_test	8			0		pa	1	995	6	5	antiphase_hc_osi.wav	2	6	2	noise_calib_stim_LEFT.wav	1	29	blb_dichoticlistening_pa-pa.mp3	pa	pa	0	left
6.6.1	win	2023-06-01	23:43:21	0	0	6090578fb2299eacaec32b7a	2	1	DL_test	16	DL_test	9			0		da	1	991	6	5	antiphase_hc_osi.wav	2	6	2	noise_calib_stim_LEFT.wav	1	20	blb_dichoticlistening_ka-da.mp3	ka	da	1	right
6.6.1	win	2023-06-01	23:43:21	0	0	6090578fb2299eacaec32b7a	2	1	DL_test	16	DL_test	10			0		ba	1	1492	6	5	antiphase_hc_osi.wav	2	6	2	noise_calib_stim_LEFT.wav	1	25	blb_dichoticlistening_pa-ba.mp3	pa	ba	1	right
6.6.1	win	2023-06-01	23:43:21	0	0	6090578fb2299eacaec32b7a	2	1	DL_test	16	DL_test	11			0		ga	1	1007	6	5	antiphase_hc_osi.wav	2	6	2	noise_calib_stim_LEFT.wav	1	21	blb_dichoticlistening_ka-ga.mp3	ka	ga	1	right
6.6.1	win	2023-06-01	23:43:21	0	0	6090578fb2299eacaec32b7a	2	1	DL_test	16	DL_test	12			0		ka	1	932	6	5	antiphase_hc_osi.wav	2	6	2	noise_calib_stim_LEFT.wav	1	28	blb_dichoticlistening_pa-ka.mp3	pa	ka	1	right
6.6.1	win	2023-06-01	23:43:21	0	0	6090578fb2299eacaec32b7a	2	1	DL_test	16	DL_test	13			0		ka	1	871	6	5	antiphase_hc_osi.wav	2	6	2	noise_calib_stim_LEFT.wav	1	34	blb_dichoticlistening_ta-ka.mp3	ta	ka	1	right
6.6.1	win	2023-06-01	23:43:21	0	0	6090578fb2299eacaec32b7a	2	1	DL_test	16	DL_test	14			0		da	1	1506	6	5	antiphase_hc_osi.wav	2	6	2	noise_calib_stim_LEFT.wav	1	11	blb_dichoticlistening_da-pa.mp3	da	pa	1	left
6.6.1	win	2023-06-01	23:43:21	0	0	6090578fb2299eacaec32b7a	2	1	DL_test	16	DL_test	15			0		ta	1	954	6	5	antiphase_hc_osi.wav	2	6	2	noise_calib_stim_LEFT.wav	1	6	blb_dichoticlistening_ba-ta.mp3	ba	ta	1	right
6.6.1	win	2023-06-01	23:43:21	0	0	6090578fb2299eacaec32b7a	2	1	DL_test	16	DL_test	16			0		ta	1	595	6	5	antiphase_hc_osi.wav	2	6	2	noise_calib_stim_LEFT.wav	1	36	blb_dichoticlistening_ta-ta.mp3	ta	ta	0	left
6.6.1	win	2023-06-01	23:43:21	0	0	6090578fb2299eacaec32b7a	2	1	DL_test	16	DL_test	17			0		ka	1	791	6	5	antiphase_hc_osi.wav	2	6	2	noise_calib_stim_LEFT.wav	1	24	blb_dichoticlistening_ka-ta.mp3	ka	ta	1	left
6.6.1	win	2023-06-01	23:43:21	0	0	6090578fb2299eacaec32b7a	2	1	DL_test	16	DL_test	18			0		ta	1	1232	6	5	antiphase_hc_osi.wav	2	6	2	noise_calib_stim_LEFT.wav	1	12	blb_dichoticlistening_da-ta.mp3	da	ta	1	right
6.6.1	win	2023-06-01	23:43:21	0	0	6090578fb2299eacaec32b7a	2	1	DL_test	16	DL_test	19			0		ga	1	1702	6	5	antiphase_hc_osi.wav	2	6	2	noise_calib_stim_LEFT.wav	1	17	blb_dichoticlistening_ga-pa.mp3	ga	pa	1	left
6.6.1	win	2023-06-01	23:43:21	0	0	6090578fb2299eacaec32b7a	2	1	DL_test	16	DL_test	20			0		ba	1	1375	6	5	antiphase_hc_osi.wav	2	6	2	noise_calib_stim_LEFT.wav	1	31	blb_dichoticlistening_ta-ba.mp3	ta	ba	1	right
6.6.1	win	2023-06-01	23:43:21	0	0	6090578fb2299eacaec32b7a	2	1	DL_test	16	DL_test	21			0		ga	1	836	6	5	antiphase_hc_osi.wav	2	6	2	noise_calib_stim_LEFT.wav	1	9	blb_dichoticlistening_da-ga.mp3	da	ga	1	right
6.6.1	win	2023-06-01	23:43:21	0	0	6090578fb2299eacaec32b7a	2	1	DL_test	16	DL_test	22			0		da	1	765	6	5	antiphase_hc_osi.wav	2	6	2	noise_calib_stim_LEFT.wav	1	32	blb_dichoticlistening_ta-da.mp3	ta	da	1	right
6.6.1	win	2023-06-01	23:43:21	0	0	6090578fb2299eacaec32b7a	2	1	DL_test	16	DL_test	23			0		ka	1	910	6	5	antiphase_hc_osi.wav	2	6	2	noise_calib_stim_LEFT.wav	1	4	blb_dichoticlistening_ba-ka.mp3	ba	ka	1	right
6.6.1	win	2023-06-01	23:43:21	0	0	6090578fb2299eacaec32b7a	2	1	DL_test	16	DL_test	24			0		ka	0	2291	6	5	antiphase_hc_osi.wav	2	6	2	noise_calib_stim_LEFT.wav	1	18	blb_dichoticlistening_ga-ta.mp3	ga	ta	1	other
6.6.1	win	2023-06-01	23:43:21	0	0	6090578fb2299eacaec32b7a	2	1	DL_test	16	DL_test	25			0		da	1	841	6	5	antiphase_hc_osi.wav	2	6	2	noise_calib_stim_LEFT.wav	1	26	blb_dichoticlistening_pa-da.mp3	pa	da	1	right
6.6.1	win	2023-06-01	23:43:21	0	0	6090578fb2299eacaec32b7a	2	1	DL_test	16	DL_test	26			0		ba	1	1160	6	5	antiphase_hc_osi.wav	2	6	2	noise_calib_stim_LEFT.wav	1	7	blb_dichoticlistening_da-ba.mp3	da	ba	1	right
6.6.1	win	2023-06-01	23:43:21	0	0	6090578fb2299eacaec32b7a	2	1	DL_test	16	DL_test	27			0		ka	1	776	6	5	antiphase_hc_osi.wav	2	6	2	noise_calib_stim_LEFT.wav	1	22	blb_dichoticlistening_ka-ka.mp3	ka	ka	0	left
6.6.1	win	2023-06-01	23:43:21	0	0	6090578fb2299eacaec32b7a	2	1	DL_test	16	DL_test	28			0		ka	1	717	6	5	antiphase_hc_osi.wav	2	6	2	noise_calib_stim_LEFT.wav	1	23	blb_dichoticlistening_ka-pa.mp3	ka	pa	1	left
6.6.1	win	2023-06-01	23:43:21	0	0	6090578fb2299eacaec32b7a	2	1	DL_test	16	DL_test	29			0		ba	1	1169	6	5	antiphase_hc_osi.wav	2	6	2	noise_calib_stim_LEFT.wav	1	1	blb_dichoticlistening_ba-ba.mp3	ba	ba	0	left
6.6.1	win	2023-06-01	23:43:21	0	0	6090578fb2299eacaec32b7a	2	1	DL_test	16	DL_test	30			0		ga	1	908	6	5	antiphase_hc_osi.wav	2	6	2	noise_calib_stim_LEFT.wav	1	14	blb_dichoticlistening_ga-da.mp3	ga	da	1	left
6.6.1	win	2023-06-01	23:43:21	0	0	6090578fb2299eacaec32b7a	2	1	DL_test	16	DL_test	31			0		ba	1	2481	6	5	antiphase_hc_osi.wav	2	6	2	noise_calib_stim_LEFT.wav	1	19	blb_dichoticlistening_ka-ba.mp3	ka	ba	1	right
6.6.1	win	2023-06-01	23:43:21	0	0	6090578fb2299eacaec32b7a	2	1	DL_test	16	DL_test	32			0		da	1	892	6	5	antiphase_hc_osi.wav	2	6	2	noise_calib_stim_LEFT.wav	1	2	blb_dichoticlistening_ba-da.mp3	ba	da	1	right
6.6.1	win	2023-06-01	23:43:21	0	0	6090578fb2299eacaec32b7a	2	1	DL_test	16	DL_test	33			0		ba	1	1050	6	5	antiphase_hc_osi.wav	2	6	2	noise_calib_stim_LEFT.wav	1	13	blb_dichoticlistening_ga-ba.mp3	ga	ba	1	right
6.6.1	win	2023-06-01	23:43:21	0	0	6090578fb2299eacaec32b7a	2	1	DL_test	16	DL_test	34			0		ta	1	1065	6	5	antiphase_hc_osi.wav	2	6	2	noise_calib_stim_LEFT.wav	1	30	blb_dichoticlistening_pa-ta.mp3	pa	ta	1	right
6.6.1	win	2023-06-01	23:43:21	0	0	6090578fb2299eacaec32b7a	2	1	DL_test	16	DL_test	35			0		da	1	964	6	5	antiphase_hc_osi.wav	2	6	2	noise_calib_stim_LEFT.wav	1	8	blb_dichoticlistening_da-da.mp3	da	da	0	left
6.6.1	win	2023-06-01	23:43:21	0	0	6090578fb2299eacaec32b7a	2	1	DL_test	16	DL_test	36			0		ga	1	972	6	5	antiphase_hc_osi.wav	2	6	2	noise_calib_stim_LEFT.wav	1	3	blb_dichoticlistening_ba-ga.mp3	ba	ga	1	right
6.6.1	win	2023-06-01	23:43:21	23:52:12	528922	6090578fb2299eacaec32b7a	2	1	practice_z	22	practice_z	1	stimuli_distractor_diamondtriangles.svg	stimuli_target_trianglerectangles.svg	9	yes	44	1	1310	6	5	antiphase_hc_osi.wav	2	6	2	noise_calib_stim_LEFT.wav	1	3	blb_dichoticlistening_ba-ga.mp3	ba	ga	1	right
6.6.1	win	2023-06-01	23:43:21	23:52:12	528922	6090578fb2299eacaec32b7a	2	1	practice_z	22	advance_on_keypress_ZEE	2	stimuli_distractor_diamondtriangles.svg	stimuli_target_trianglerectangles.svg	9	yes	57	0	1398	6	5	antiphase_hc_osi.wav	2	6	2	noise_calib_stim_LEFT.wav	1	3	blb_dichoticlistening_ba-ga.mp3	ba	ga	1	right
6.6.1	win	2023-06-01	23:43:21	23:52:17	533980	6090578fb2299eacaec32b7a	2	1	practice_z	22	practice_z	3	stimuli_distractor_diamondtriangles.svg	stimuli_distractor_trianglediamonds.svg	14	no	0	1	2000	6	5	antiphase_hc_osi.wav	2	6	2	noise_calib_stim_LEFT.wav	1	3	blb_dichoticlistening_ba-ga.mp3	ba	ga	1	right
6.6.1	win	2023-06-01	23:43:21	23:52:17	533980	6090578fb2299eacaec32b7a	2	1	practice_z	22	advance_on_keypress_ZEE	4	stimuli_distractor_diamondtriangles.svg	stimuli_distractor_trianglediamonds.svg	14	no	57	0	1089	6	5	antiphase_hc_osi.wav	2	6	2	noise_calib_stim_LEFT.wav	1	3	blb_dichoticlistening_ba-ga.mp3	ba	ga	1	right
6.6.1	win	2023-06-01	23:43:21	23:52:21	538724	6090578fb2299eacaec32b7a	2	1	practice_z	22	practice_z	5	stimuli_distractor_trianglediamonds.svg	stimuli_distractor_diamondtriangles.svg	16	no	0	1	2000	6	5	antiphase_hc_osi.wav	2	6	2	noise_calib_stim_LEFT.wav	1	3	blb_dichoticlistening_ba-ga.mp3	ba	ga	1	right
6.6.1	win	2023-06-01	23:43:21	23:52:21	538724	6090578fb2299eacaec32b7a	2	1	practice_z	22	advance_on_keypress_ZEE	6	stimuli_distractor_trianglediamonds.svg	stimuli_distractor_diamondtriangles.svg	16	no	57	0	627	6	5	antiphase_hc_osi.wav	2	6	2	noise_calib_stim_LEFT.wav	1	3	blb_dichoticlistening_ba-ga.mp3	ba	ga	1	right
6.6.1	win	2023-06-01	23:43:21	23:52:24	541674	6090578fb2299eacaec32b7a	2	1	practice_z	22	practice_z	7	stimuli_target_diamondsquares.svg	stimuli_distractor_diamondtriangles.svg	3	yes	44	1	683	6	5	antiphase_hc_osi.wav	2	6	2	noise_calib_stim_LEFT.wav	1	3	blb_dichoticlistening_ba-ga.mp3	ba	ga	1	right
6.6.1	win	2023-06-01	23:43:21	23:52:24	541674	6090578fb2299eacaec32b7a	2	1	practice_z	22	advance_on_keypress_ZEE	8	stimuli_target_diamondsquares.svg	stimuli_distractor_diamondtriangles.svg	3	yes	57	0	606	6	5	antiphase_hc_osi.wav	2	6	2	noise_calib_stim_LEFT.wav	1	3	blb_dichoticlistening_ba-ga.mp3	ba	ga	1	right
6.6.1	win	2023-06-01	23:43:21	23:52:29	545934	6090578fb2299eacaec32b7a	2	1	practice_z	22	practice_z	9	stimuli_distractor_trianglediamonds.svg	stimuli_distractor_trianglediamonds.svg	15	no	0	1	2000	6	5	antiphase_hc_osi.wav	2	6	2	noise_calib_stim_LEFT.wav	1	3	blb_dichoticlistening_ba-ga.mp3	ba	ga	1	right
6.6.1	win	2023-06-01	23:43:21	23:52:29	545934	6090578fb2299eacaec32b7a	2	1	practice_z	22	advance_on_keypress_ZEE	10	stimuli_distractor_trianglediamonds.svg	stimuli_distractor_trianglediamonds.svg	15	no	57	0	373	6	5	antiphase_hc_osi.wav	2	6	2	noise_calib_stim_LEFT.wav	1	3	blb_dichoticlistening_ba-ga.mp3	ba	ga	1	right
6.6.1	win	2023-06-01	23:43:21	23:52:31	548652	6090578fb2299eacaec32b7a	2	1	practice_z	22	practice_z	11	stimuli_target_squarediamonds.svg	stimuli_distractor_trianglediamonds.svg	5	yes	44	1	697	6	5	antiphase_hc_osi.wav	2	6	2	noise_calib_stim_LEFT.wav	1	3	blb_dichoticlistening_ba-ga.mp3	ba	ga	1	right
6.6.1	win	2023-06-01	23:43:21	23:52:31	548652	6090578fb2299eacaec32b7a	2	1	practice_z	22	advance_on_keypress_ZEE	12	stimuli_target_squarediamonds.svg	stimuli_distractor_trianglediamonds.svg	5	yes	57	0	886	6	5	antiphase_hc_osi.wav	2	6	2	noise_calib_stim_LEFT.wav	1	3	blb_dichoticlistening_ba-ga.mp3	ba	ga	1	right
6.6.1	win	2023-06-01	23:43:21	23:52:36	553181	6090578fb2299eacaec32b7a	2	1	practice_z	22	practice_z	13	stimuli_distractor_diamondtriangles.svg	stimuli_target_rectangletriangles.svg	7	yes	0	0	2000	6	5	antiphase_hc_osi.wav	2	6	2	noise_calib_stim_LEFT.wav	1	3	blb_dichoticlistening_ba-ga.mp3	ba	ga	1	right
6.6.1	win	2023-06-01	23:43:21	23:52:36	553181	6090578fb2299eacaec32b7a	2	1	practice_z	22	advance_on_keypress_ZEE	14	stimuli_distractor_diamondtriangles.svg	stimuli_target_rectangletriangles.svg	7	yes	57	0	547	6	5	antiphase_hc_osi.wav	2	6	2	noise_calib_stim_LEFT.wav	1	3	blb_dichoticlistening_ba-ga.mp3	ba	ga	1	right
6.6.1	win	2023-06-01	23:43:21	23:52:39	556036	6090578fb2299eacaec32b7a	2	1	practice_z	22	practice_z	15	stimuli_distractor_diamondtriangles.svg	stimuli_target_diamondrectangles.svg	8	yes	44	1	687	6	5	antiphase_hc_osi.wav	2	6	2	noise_calib_stim_LEFT.wav	1	3	blb_dichoticlistening_ba-ga.mp3	ba	ga	1	right
6.6.1	win	2023-06-01	23:43:21	23:52:39	556036	6090578fb2299eacaec32b7a	2	1	practice_z	22	advance_on_keypress_ZEE	16	stimuli_distractor_diamondtriangles.svg	stimuli_target_diamondrectangles.svg	8	yes	57	0	543	6	5	antiphase_hc_osi.wav	2	6	2	noise_calib_stim_LEFT.wav	1	3	blb_dichoticlistening_ba-ga.mp3	ba	ga	1	right
6.6.1	win	2023-06-01	23:43:21	23:52:42	558996	6090578fb2299eacaec32b7a	2	1	practice_z	22	practice_z	17	stimuli_target_rectanglediamonds.svg	stimuli_distractor_trianglediamonds.svg	4	yes	44	1	755	6	5	antiphase_hc_osi.wav	2	6	2	noise_calib_stim_LEFT.wav	1	3	blb_dichoticlistening_ba-ga.mp3	ba	ga	1	right
6.6.1	win	2023-06-01	23:43:21	23:52:42	558996	6090578fb2299eacaec32b7a	2	1	practice_z	22	advance_on_keypress_ZEE	18	stimuli_target_rectanglediamonds.svg	stimuli_distractor_trianglediamonds.svg	4	yes	57	0	735	6	5	antiphase_hc_osi.wav	2	6	2	noise_calib_stim_LEFT.wav	1	3	blb_dichoticlistening_ba-ga.mp3	ba	ga	1	right
6.6.1	win	2023-06-01	23:43:21	23:52:45	561940	6090578fb2299eacaec32b7a	2	1	practice_z	22	practice_z	19	stimuli_distractor_trianglediamonds.svg	stimuli_target_squarediamonds.svg	11	yes	44	1	570	6	5	antiphase_hc_osi.wav	2	6	2	noise_calib_stim_LEFT.wav	1	3	blb_dichoticlistening_ba-ga.mp3	ba	ga	1	right
6.6.1	win	2023-06-01	23:43:21	23:52:45	561940	6090578fb2299eacaec32b7a	2	1	practice_z	22	advance_on_keypress_ZEE	20	stimuli_distractor_trianglediamonds.svg	stimuli_target_squarediamonds.svg	11	yes	57	0	464	6	5	antiphase_hc_osi.wav	2	6	2	noise_calib_stim_LEFT.wav	1	3	blb_dichoticlistening_ba-ga.mp3	ba	ga	1	right
6.6.1	win	2023-06-01	23:43:21	23:52:49	566070	6090578fb2299eacaec32b7a	2	1	practice_z	22	practice_z	21	stimuli_distractor_diamondtriangles.svg	stimuli_distractor_diamondtriangles.svg	13	no	0	1	2000	6	5	antiphase_hc_osi.wav	2	6	2	noise_calib_stim_LEFT.wav	1	3	blb_dichoticlistening_ba-ga.mp3	ba	ga	1	right
6.6.1	win	2023-06-01	23:43:21	23:52:49	566070	6090578fb2299eacaec32b7a	2	1	practice_z	22	advance_on_keypress_ZEE	22	stimuli_distractor_diamondtriangles.svg	stimuli_distractor_diamondtriangles.svg	13	no	57	0	319	6	5	antiphase_hc_osi.wav	2	6	2	noise_calib_stim_LEFT.wav	1	3	blb_dichoticlistening_ba-ga.mp3	ba	ga	1	right
6.6.1	win	2023-06-01	23:43:21	23:52:51	568649	6090578fb2299eacaec32b7a	2	1	practice_z	22	practice_z	23	stimuli_target_squarediamonds.svg	stimuli_distractor_diamondtriangles.svg	2	yes	44	1	609	6	5	antiphase_hc_osi.wav	2	6	2	noise_calib_stim_LEFT.wav	1	3	blb_dichoticlistening_ba-ga.mp3	ba	ga	1	right
6.6.1	win	2023-06-01	23:43:21	23:52:51	568649	6090578fb2299eacaec32b7a	2	1	practice_z	22	advance_on_keypress_ZEE	24	stimuli_target_squarediamonds.svg	stimuli_distractor_diamondtriangles.svg	2	yes	57	0	1369	6	5	antiphase_hc_osi.wav	2	6	2	noise_calib_stim_LEFT.wav	1	3	blb_dichoticlistening_ba-ga.mp3	ba	ga	1	right
6.6.1	win	2023-06-01	23:43:21	23:52:55	572208	6090578fb2299eacaec32b7a	2	1	practice_z	22	practice_z	25	stimuli_distractor_trianglediamonds.svg	stimuli_target_diamondrectangles.svg	12	yes	44	1	553	6	5	antiphase_hc_osi.wav	2	6	2	noise_calib_stim_LEFT.wav	1	3	blb_dichoticlistening_ba-ga.mp3	ba	ga	1	right
6.6.1	win	2023-06-01	23:43:21	23:52:55	572208	6090578fb2299eacaec32b7a	2	1	practice_z	22	advance_on_keypress_ZEE	26	stimuli_distractor_trianglediamonds.svg	stimuli_target_diamondrectangles.svg	12	yes	57	0	689	6	5	antiphase_hc_osi.wav	2	6	2	noise_calib_stim_LEFT.wav	1	3	blb_dichoticlistening_ba-ga.mp3	ba	ga	1	right
6.6.1	win	2023-06-01	23:43:21	23:52:58	575125	6090578fb2299eacaec32b7a	2	1	practice_z	22	practice_z	27	stimuli_distractor_trianglediamonds.svg	stimuli_target_rectanglediamonds.svg	10	yes	44	1	565	6	5	antiphase_hc_osi.wav	2	6	2	noise_calib_stim_LEFT.wav	1	3	blb_dichoticlistening_ba-ga.mp3	ba	ga	1	right
6.6.1	win	2023-06-01	23:43:21	23:52:58	575125	6090578fb2299eacaec32b7a	2	1	practice_z	22	advance_on_keypress_ZEE	28	stimuli_distractor_trianglediamonds.svg	stimuli_target_rectanglediamonds.svg	10	yes	57	0	769	6	5	antiphase_hc_osi.wav	2	6	2	noise_calib_stim_LEFT.wav	1	3	blb_dichoticlistening_ba-ga.mp3	ba	ga	1	right
6.6.1	win	2023-06-01	23:43:21	23:53:01	578365	6090578fb2299eacaec32b7a	2	1	practice_z	22	practice_z	29	stimuli_target_diamondsquares.svg	stimuli_distractor_trianglediamonds.svg	6	yes	44	1	842	6	5	antiphase_hc_osi.wav	2	6	2	noise_calib_stim_LEFT.wav	1	3	blb_dichoticlistening_ba-ga.mp3	ba	ga	1	right
6.6.1	win	2023-06-01	23:43:21	23:53:01	578365	6090578fb2299eacaec32b7a	2	1	practice_z	22	advance_on_keypress_ZEE	30	stimuli_target_diamondsquares.svg	stimuli_distractor_trianglediamonds.svg	6	yes	57	0	549	6	5	antiphase_hc_osi.wav	2	6	2	noise_calib_stim_LEFT.wav	1	3	blb_dichoticlistening_ba-ga.mp3	ba	ga	1	right
6.6.1	win	2023-06-01	23:43:21	23:53:04	581202	6090578fb2299eacaec32b7a	2	1	practice_z	22	practice_z	31	stimuli_target_rectanglediamonds.svg	stimuli_distractor_diamondtriangles.svg	1	yes	44	1	652	6	5	antiphase_hc_osi.wav	2	6	2	noise_calib_stim_LEFT.wav	1	3	blb_dichoticlistening_ba-ga.mp3	ba	ga	1	right
6.6.1	win	2023-06-01	23:43:21	23:53:04	581202	6090578fb2299eacaec32b7a	2	1	practice_z	22	advance_on_keypress_ZEE	32	stimuli_target_rectanglediamonds.svg	stimuli_distractor_diamondtriangles.svg	1	yes	57	0	443	6	5	antiphase_hc_osi.wav	2	6	2	noise_calib_stim_LEFT.wav	1	3	blb_dichoticlistening_ba-ga.mp3	ba	ga	1	right
6.6.1	win	2023-06-01	23:43:21	23:53:10	587090	6090578fb2299eacaec32b7a	2	1	main_z	24	main_z	1	stimuli_distractor_trianglediamonds.svg	stimuli_distractor_trianglediamonds.svg	33	no	0	1	2000	6	5	antiphase_hc_osi.wav	2	6	2	noise_calib_stim_LEFT.wav	1	3	blb_dichoticlistening_ba-ga.mp3	ba	ga	1	right
6.6.1	win	2023-06-01	23:43:21	23:53:10	587090	6090578fb2299eacaec32b7a	2	1	main_z	24	advance_on_keypress_ZEE	2	stimuli_distractor_trianglediamonds.svg	stimuli_distractor_trianglediamonds.svg	33	no	57	0	794	6	5	antiphase_hc_osi.wav	2	6	2	noise_calib_stim_LEFT.wav	1	3	blb_dichoticlistening_ba-ga.mp3	ba	ga	1	right
6.6.1	win	2023-06-01	23:43:21	23:53:13	590531	6090578fb2299eacaec32b7a	2	1	main_z	24	main_z	3	stimuli_target_diamondsquares.svg	stimuli_distractor_trianglediamonds.svg	20	yes	0	0	2000	6	5	antiphase_hc_osi.wav	2	6	2	noise_calib_stim_LEFT.wav	1	3	blb_dichoticlistening_ba-ga.mp3	ba	ga	1	right
6.6.1	win	2023-06-01	23:43:21	23:53:13	590531	6090578fb2299eacaec32b7a	2	1	main_z	24	advance_on_keypress_ZEE	4	stimuli_target_diamondsquares.svg	stimuli_distractor_trianglediamonds.svg	20	yes	57	0	504	6	5	antiphase_hc_osi.wav	2	6	2	noise_calib_stim_LEFT.wav	1	3	blb_dichoticlistening_ba-ga.mp3	ba	ga	1	right
6.6.1	win	2023-06-01	23:43:21	23:53:15	592132	6090578fb2299eacaec32b7a	2	1	main_z	24	main_z	5	stimuli_target_trianglesquares.svg	stimuli_distractor_trianglediamonds.svg	18	yes	44	1	481	6	5	antiphase_hc_osi.wav	2	6	2	noise_calib_stim_LEFT.wav	1	3	blb_dichoticlistening_ba-ga.mp3	ba	ga	1	right
6.6.1	win	2023-06-01	23:43:21	23:53:15	592132	6090578fb2299eacaec32b7a	2	1	main_z	24	advance_on_keypress_ZEE	6	stimuli_target_trianglesquares.svg	stimuli_distractor_trianglediamonds.svg	18	yes	57	0	1163	6	5	antiphase_hc_osi.wav	2	6	2	noise_calib_stim_LEFT.wav	1	3	blb_dichoticlistening_ba-ga.mp3	ba	ga	1	right
6.6.1	win	2023-06-01	23:43:21	23:53:17	594506	6090578fb2299eacaec32b7a	2	1	main_z	24	main_z	7	stimuli_distractor_trianglediamonds.svg	stimuli_target_trianglesquares.svg	26	yes	44	1	574	6	5	antiphase_hc_osi.wav	2	6	2	noise_calib_stim_LEFT.wav	1	3	blb_dichoticlistening_ba-ga.mp3	ba	ga	1	right
6.6.1	win	2023-06-01	23:43:21	23:53:17	594506	6090578fb2299eacaec32b7a	2	1	main_z	24	advance_on_keypress_ZEE	8	stimuli_distractor_trianglediamonds.svg	stimuli_target_trianglesquares.svg	26	yes	57	0	954	6	5	antiphase_hc_osi.wav	2	6	2	noise_calib_stim_LEFT.wav	1	3	blb_dichoticlistening_ba-ga.mp3	ba	ga	1	right
6.6.1	win	2023-06-01	23:43:21	23:53:19	596618	6090578fb2299eacaec32b7a	2	1	main_z	24	main_z	9	stimuli_distractor_diamondtriangles.svg	stimuli_target_squarediamonds.svg	16	yes	44	1	524	6	5	antiphase_hc_osi.wav	2	6	2	noise_calib_stim_LEFT.wav	1	3	blb_dichoticlistening_ba-ga.mp3	ba	ga	1	right
6.6.1	win	2023-06-01	23:43:21	23:53:19	596618	6090578fb2299eacaec32b7a	2	1	main_z	24	advance_on_keypress_ZEE	10	stimuli_distractor_diamondtriangles.svg	stimuli_target_squarediamonds.svg	16	yes	57	0	628	6	5	antiphase_hc_osi.wav	2	6	2	noise_calib_stim_LEFT.wav	1	3	blb_dichoticlistening_ba-ga.mp3	ba	ga	1	right
6.6.1	win	2023-06-01	23:43:21	23:53:21	598380	6090578fb2299eacaec32b7a	2	1	main_z	24	main_z	11	stimuli_distractor_diamondtriangles.svg	stimuli_target_trianglerectangles.svg	29	yes	44	1	501	6	5	antiphase_hc_osi.wav	2	6	2	noise_calib_stim_LEFT.wav	1	3	blb_dichoticlistening_ba-ga.mp3	ba	ga	1	right
6.6.1	win	2023-06-01	23:43:21	23:53:21	598380	6090578fb2299eacaec32b7a	2	1	main_z	24	advance_on_keypress_ZEE	12	stimuli_distractor_diamondtriangles.svg	stimuli_target_trianglerectangles.svg	29	yes	57	0	621	6	5	antiphase_hc_osi.wav	2	6	2	noise_calib_stim_LEFT.wav	1	3	blb_dichoticlistening_ba-ga.mp3	ba	ga	1	right
6.6.1	win	2023-06-01	23:43:21	23:53:24	601630	6090578fb2299eacaec32b7a	2	1	main_z	24	main_z	13	stimuli_distractor_trianglediamonds.svg	stimuli_target_squaretriangles.svg	11	yes	0	0	2000	6	5	antiphase_hc_osi.wav	2	6	2	noise_calib_stim_LEFT.wav	1	3	blb_dichoticlistening_ba-ga.mp3	ba	ga	1	right
6.6.1	win	2023-06-01	23:43:21	23:53:24	601630	6090578fb2299eacaec32b7a	2	1	main_z	24	advance_on_keypress_ZEE	14	stimuli_distractor_trianglediamonds.svg	stimuli_target_squaretriangles.svg	11	yes	57	0	729	6	5	antiphase_hc_osi.wav	2	6	2	noise_calib_stim_LEFT.wav	1	3	blb_dichoticlistening_ba-ga.mp3	ba	ga	1	right
6.6.1	win	2023-06-01	23:43:21	23:53:26	603529	6090578fb2299eacaec32b7a	2	1	main_z	24	main_z	15	stimuli_target_squaretriangles.svg	stimuli_distractor_diamondtriangles.svg	7	yes	44	1	520	6	5	antiphase_hc_osi.wav	2	6	2	noise_calib_stim_LEFT.wav	1	3	blb_dichoticlistening_ba-ga.mp3	ba	ga	1	right
6.6.1	win	2023-06-01	23:43:21	23:53:26	603529	6090578fb2299eacaec32b7a	2	1	main_z	24	advance_on_keypress_ZEE	16	stimuli_target_squaretriangles.svg	stimuli_distractor_diamondtriangles.svg	7	yes	57	0	779	6	5	antiphase_hc_osi.wav	2	6	2	noise_calib_stim_LEFT.wav	1	3	blb_dichoticlistening_ba-ga.mp3	ba	ga	1	right
6.6.1	win	2023-06-01	23:43:21	23:53:30	606947	6090578fb2299eacaec32b7a	2	1	main_z	24	main_z	17	stimuli_distractor_trianglediamonds.svg	stimuli_distractor_diamondtriangles.svg	35	no	0	1	2000	6	5	antiphase_hc_osi.wav	2	6	2	noise_calib_stim_LEFT.wav	1	3	blb_dichoticlistening_ba-ga.mp3	ba	ga	1	right
6.6.1	win	2023-06-01	23:43:21	23:53:30	606947	6090578fb2299eacaec32b7a	2	1	main_z	24	advance_on_keypress_ZEE	18	stimuli_distractor_trianglediamonds.svg	stimuli_distractor_diamondtriangles.svg	35	no	57	0	629	6	5	antiphase_hc_osi.wav	2	6	2	noise_calib_stim_LEFT.wav	1	3	blb_dichoticlistening_ba-ga.mp3	ba	ga	1	right
6.6.1	win	2023-06-01	23:43:21	23:53:31	608695	6090578fb2299eacaec32b7a	2	1	main_z	24	main_z	19	stimuli_distractor_trianglediamonds.svg	stimuli_target_trianglerectangles.svg	25	yes	44	1	502	6	5	antiphase_hc_osi.wav	2	6	2	noise_calib_stim_LEFT.wav	1	3	blb_dichoticlistening_ba-ga.mp3	ba	ga	1	right
6.6.1	win	2023-06-01	23:43:21	23:53:31	608695	6090578fb2299eacaec32b7a	2	1	main_z	24	advance_on_keypress_ZEE	20	stimuli_distractor_trianglediamonds.svg	stimuli_target_trianglerectangles.svg	25	yes	57	0	692	6	5	antiphase_hc_osi.wav	2	6	2	noise_calib_stim_LEFT.wav	1	3	blb_dichoticlistening_ba-ga.mp3	ba	ga	1	right
6.6.1	win	2023-06-01	23:43:21	23:53:33	610755	6090578fb2299eacaec32b7a	2	1	main_z	24	main_z	21	stimuli_target_diamondrectangles.svg	stimuli_distractor_trianglediamonds.svg	19	yes	44	1	724	6	5	antiphase_hc_osi.wav	2	6	2	noise_calib_stim_LEFT.wav	1	3	blb_dichoticlistening_ba-ga.mp3	ba	ga	1	right
6.6.1	win	2023-06-01	23:43:21	23:53:33	610755	6090578fb2299eacaec32b7a	2	1	main_z	24	advance_on_keypress_ZEE	22	stimuli_target_diamondrectangles.svg	stimuli_distractor_trianglediamonds.svg	19	yes	57	0	525	6	5	antiphase_hc_osi.wav	2	6	2	noise_calib_stim_LEFT.wav	1	3	blb_dichoticlistening_ba-ga.mp3	ba	ga	1	right
6.6.1	win	2023-06-01	23:43:21	23:53:35	612554	6090578fb2299eacaec32b7a	2	1	main_z	24	main_z	23	stimuli_target_diamondrectangles.svg	stimuli_distractor_diamondtriangles.svg	23	yes	44	1	626	6	5	antiphase_hc_osi.wav	2	6	2	noise_calib_stim_LEFT.wav	1	3	blb_dichoticlistening_ba-ga.mp3	ba	ga	1	right
6.6.1	win	2023-06-01	23:43:21	23:53:35	612554	6090578fb2299eacaec32b7a	2	1	main_z	24	advance_on_keypress_ZEE	24	stimuli_target_diamondrectangles.svg	stimuli_distractor_diamondtriangles.svg	23	yes	57	0	579	6	5	antiphase_hc_osi.wav	2	6	2	noise_calib_stim_LEFT.wav	1	3	blb_dichoticlistening_ba-ga.mp3	ba	ga	1	right
6.6.1	win	2023-06-01	23:43:21	23:53:37	614629	6090578fb2299eacaec32b7a	2	1	main_z	24	main_z	25	stimuli_target_squaretriangles.svg	stimuli_distractor_trianglediamonds.svg	3	yes	44	1	868	6	5	antiphase_hc_osi.wav	2	6	2	noise_calib_stim_LEFT.wav	1	3	blb_dichoticlistening_ba-ga.mp3	ba	ga	1	right
6.6.1	win	2023-06-01	23:43:21	23:53:37	614629	6090578fb2299eacaec32b7a	2	1	main_z	24	advance_on_keypress_ZEE	26	stimuli_target_squaretriangles.svg	stimuli_distractor_trianglediamonds.svg	3	yes	57	0	625	6	5	antiphase_hc_osi.wav	2	6	2	noise_calib_stim_LEFT.wav	1	3	blb_dichoticlistening_ba-ga.mp3	ba	ga	1	right
6.6.1	win	2023-06-01	23:43:21	23:53:40	617003	6090578fb2299eacaec32b7a	2	1	main_z	24	main_z	27	stimuli_distractor_trianglediamonds.svg	stimuli_target_squarediamonds.svg	12	yes	44	1	1105	6	5	antiphase_hc_osi.wav	2	6	2	noise_calib_stim_LEFT.wav	1	3	blb_dichoticlistening_ba-ga.mp3	ba	ga	1	right
6.6.1	win	2023-06-01	23:43:21	23:53:40	617003	6090578fb2299eacaec32b7a	2	1	main_z	24	advance_on_keypress_ZEE	28	stimuli_distractor_trianglediamonds.svg	stimuli_target_squarediamonds.svg	12	yes	57	0	720	6	5	antiphase_hc_osi.wav	2	6	2	noise_calib_stim_LEFT.wav	1	3	blb_dichoticlistening_ba-ga.mp3	ba	ga	1	right
6.6.1	win	2023-06-01	23:43:21	23:53:43	620367	6090578fb2299eacaec32b7a	2	1	main_z	24	main_z	29	stimuli_target_trianglesquares.svg	stimuli_distractor_diamondtriangles.svg	22	yes	0	0	2000	6	5	antiphase_hc_osi.wav	2	6	2	noise_calib_stim_LEFT.wav	1	3	blb_dichoticlistening_ba-ga.mp3	ba	ga	1	right
6.6.1	win	2023-06-01	23:43:21	23:53:43	620367	6090578fb2299eacaec32b7a	2	1	main_z	24	advance_on_keypress_ZEE	30	stimuli_target_trianglesquares.svg	stimuli_distractor_diamondtriangles.svg	22	yes	57	0	667	6	5	antiphase_hc_osi.wav	2	6	2	noise_calib_stim_LEFT.wav	1	3	blb_dichoticlistening_ba-ga.mp3	ba	ga	1	right
6.6.1	win	2023-06-01	23:43:21	23:53:46	623670	6090578fb2299eacaec32b7a	2	1	main_z	24	main_z	31	stimuli_distractor_trianglediamonds.svg	stimuli_target_rectangletriangles.svg	9	yes	0	0	2000	6	5	antiphase_hc_osi.wav	2	6	2	noise_calib_stim_LEFT.wav	1	3	blb_dichoticlistening_ba-ga.mp3	ba	ga	1	right
6.6.1	win	2023-06-01	23:43:21	23:53:46	623670	6090578fb2299eacaec32b7a	2	1	main_z	24	advance_on_keypress_ZEE	32	stimuli_distractor_trianglediamonds.svg	stimuli_target_rectangletriangles.svg	9	yes	57	0	536	6	5	antiphase_hc_osi.wav	2	6	2	noise_calib_stim_LEFT.wav	1	3	blb_dichoticlistening_ba-ga.mp3	ba	ga	1	right
6.6.1	win	2023-06-01	23:43:21	23:53:50	626819	6090578fb2299eacaec32b7a	2	1	main_z	24	main_z	33	stimuli_distractor_diamondtriangles.svg	stimuli_distractor_trianglediamonds.svg	38	no	0	1	2000	6	5	antiphase_hc_osi.wav	2	6	2	noise_calib_stim_LEFT.wav	1	3	blb_dichoticlistening_ba-ga.mp3	ba	ga	1	right
6.6.1	win	2023-06-01	23:43:21	23:53:50	626819	6090578fb2299eacaec32b7a	2	1	main_z	24	advance_on_keypress_ZEE	34	stimuli_distractor_diamondtriangles.svg	stimuli_distractor_trianglediamonds.svg	38	no	57	0	2202	6	5	antiphase_hc_osi.wav	2	6	2	noise_calib_stim_LEFT.wav	1	3	blb_dichoticlistening_ba-ga.mp3	ba	ga	1	right
6.6.1	win	2023-06-01	23:43:21	23:53:54	631670	6090578fb2299eacaec32b7a	2	1	main_z	24	main_z	35	stimuli_distractor_diamondtriangles.svg	stimuli_distractor_trianglediamonds.svg	37	no	0	1	2000	6	5	antiphase_hc_osi.wav	2	6	2	noise_calib_stim_LEFT.wav	1	3	blb_dichoticlistening_ba-ga.mp3	ba	ga	1	right
6.6.1	win	2023-06-01	23:43:21	23:53:54	631670	6090578fb2299eacaec32b7a	2	1	main_z	24	advance_on_keypress_ZEE	36	stimuli_distractor_diamondtriangles.svg	stimuli_distractor_trianglediamonds.svg	37	no	57	0	527	6	5	antiphase_hc_osi.wav	2	6	2	noise_calib_stim_LEFT.wav	1	3	blb_dichoticlistening_ba-ga.mp3	ba	ga	1	right
6.6.1	win	2023-06-01	23:43:21	23:53:56	633749	6090578fb2299eacaec32b7a	2	1	main_z	24	main_z	37	stimuli_target_rectanglediamonds.svg	stimuli_distractor_diamondtriangles.svg	6	yes	44	1	915	6	5	antiphase_hc_osi.wav	2	6	2	noise_calib_stim_LEFT.wav	1	3	blb_dichoticlistening_ba-ga.mp3	ba	ga	1	right
6.6.1	win	2023-06-01	23:43:21	23:53:56	633749	6090578fb2299eacaec32b7a	2	1	main_z	24	advance_on_keypress_ZEE	38	stimuli_target_rectanglediamonds.svg	stimuli_distractor_diamondtriangles.svg	6	yes	57	0	642	6	5	antiphase_hc_osi.wav	2	6	2	noise_calib_stim_LEFT.wav	1	3	blb_dichoticlistening_ba-ga.mp3	ba	ga	1	right
6.6.1	win	2023-06-01	23:43:21	23:54:00	637018	6090578fb2299eacaec32b7a	2	1	main_z	24	main_z	39	stimuli_target_rectanglediamonds.svg	stimuli_distractor_trianglediamonds.svg	2	yes	0	0	2000	6	5	antiphase_hc_osi.wav	2	6	2	noise_calib_stim_LEFT.wav	1	3	blb_dichoticlistening_ba-ga.mp3	ba	ga	1	right
6.6.1	win	2023-06-01	23:43:21	23:54:00	637018	6090578fb2299eacaec32b7a	2	1	main_z	24	advance_on_keypress_ZEE	40	stimuli_target_rectanglediamonds.svg	stimuli_distractor_trianglediamonds.svg	2	yes	57	0	659	6	5	antiphase_hc_osi.wav	2	6	2	noise_calib_stim_LEFT.wav	1	3	blb_dichoticlistening_ba-ga.mp3	ba	ga	1	right
6.6.1	win	2023-06-01	23:43:21	23:54:02	638885	6090578fb2299eacaec32b7a	2	1	main_z	24	main_z	41	stimuli_distractor_diamondtriangles.svg	stimuli_target_squaretriangles.svg	15	yes	44	1	574	6	5	antiphase_hc_osi.wav	2	6	2	noise_calib_stim_LEFT.wav	1	3	blb_dichoticlistening_ba-ga.mp3	ba	ga	1	right
6.6.1	win	2023-06-01	23:43:21	23:54:02	638885	6090578fb2299eacaec32b7a	2	1	main_z	24	advance_on_keypress_ZEE	42	stimuli_distractor_diamondtriangles.svg	stimuli_target_squaretriangles.svg	15	yes	57	0	1286	6	5	antiphase_hc_osi.wav	2	6	2	noise_calib_stim_LEFT.wav	1	3	blb_dichoticlistening_ba-ga.mp3	ba	ga	1	right
6.6.1	win	2023-06-01	23:43:21	23:54:04	641736	6090578fb2299eacaec32b7a	2	1	main_z	24	main_z	43	stimuli_distractor_diamondtriangles.svg	stimuli_target_rectanglediamonds.svg	14	yes	44	1	949	6	5	antiphase_hc_osi.wav	2	6	2	noise_calib_stim_LEFT.wav	1	3	blb_dichoticlistening_ba-ga.mp3	ba	ga	1	right
6.6.1	win	2023-06-01	23:43:21	23:54:04	641736	6090578fb2299eacaec32b7a	2	1	main_z	24	advance_on_keypress_ZEE	44	stimuli_distractor_diamondtriangles.svg	stimuli_target_rectanglediamonds.svg	14	yes	57	0	449	6	5	antiphase_hc_osi.wav	2	6	2	noise_calib_stim_LEFT.wav	1	3	blb_dichoticlistening_ba-ga.mp3	ba	ga	1	right
6.6.1	win	2023-06-01	23:43:21	23:54:08	644818	6090578fb2299eacaec32b7a	2	1	main_z	24	main_z	45	stimuli_distractor_diamondtriangles.svg	stimuli_distractor_diamondtriangles.svg	40	no	0	1	2000	6	5	antiphase_hc_osi.wav	2	6	2	noise_calib_stim_LEFT.wav	1	3	blb_dichoticlistening_ba-ga.mp3	ba	ga	1	right
6.6.1	win	2023-06-01	23:43:21	23:54:08	644818	6090578fb2299eacaec32b7a	2	1	main_z	24	advance_on_keypress_ZEE	46	stimuli_distractor_diamondtriangles.svg	stimuli_distractor_diamondtriangles.svg	40	no	57	0	301	6	5	antiphase_hc_osi.wav	2	6	2	noise_calib_stim_LEFT.wav	1	3	blb_dichoticlistening_ba-ga.mp3	ba	ga	1	right
6.6.1	win	2023-06-01	23:43:21	23:54:09	646462	6090578fb2299eacaec32b7a	2	1	main_z	24	main_z	47	stimuli_target_rectangletriangles.svg	stimuli_distractor_trianglediamonds.svg	1	yes	44	1	710	6	5	antiphase_hc_osi.wav	2	6	2	noise_calib_stim_LEFT.wav	1	3	blb_dichoticlistening_ba-ga.mp3	ba	ga	1	right
6.6.1	win	2023-06-01	23:43:21	23:54:09	646462	6090578fb2299eacaec32b7a	2	1	main_z	24	advance_on_keypress_ZEE	48	stimuli_target_rectangletriangles.svg	stimuli_distractor_trianglediamonds.svg	1	yes	57	0	693	6	5	antiphase_hc_osi.wav	2	6	2	noise_calib_stim_LEFT.wav	1	3	blb_dichoticlistening_ba-ga.mp3	ba	ga	1	right
6.6.1	win	2023-06-01	23:43:21	23:54:11	648385	6090578fb2299eacaec32b7a	2	1	main_z	24	main_z	49	stimuli_distractor_diamondtriangles.svg	stimuli_target_rectangletriangles.svg	13	yes	44	1	589	6	5	antiphase_hc_osi.wav	2	6	2	noise_calib_stim_LEFT.wav	1	3	blb_dichoticlistening_ba-ga.mp3	ba	ga	1	right
6.6.1	win	2023-06-01	23:43:21	23:54:11	648385	6090578fb2299eacaec32b7a	2	1	main_z	24	advance_on_keypress_ZEE	50	stimuli_distractor_diamondtriangles.svg	stimuli_target_rectangletriangles.svg	13	yes	57	0	443	6	5	antiphase_hc_osi.wav	2	6	2	noise_calib_stim_LEFT.wav	1	3	blb_dichoticlistening_ba-ga.mp3	ba	ga	1	right
6.6.1	win	2023-06-01	23:43:21	23:54:13	650364	6090578fb2299eacaec32b7a	2	1	main_z	24	main_z	51	stimuli_distractor_trianglediamonds.svg	stimuli_target_diamondrectangles.svg	27	yes	44	1	908	6	5	antiphase_hc_osi.wav	2	6	2	noise_calib_stim_LEFT.wav	1	3	blb_dichoticlistening_ba-ga.mp3	ba	ga	1	right
6.6.1	win	2023-06-01	23:43:21	23:54:13	650364	6090578fb2299eacaec32b7a	2	1	main_z	24	advance_on_keypress_ZEE	52	stimuli_distractor_trianglediamonds.svg	stimuli_target_diamondrectangles.svg	27	yes	57	0	408	6	5	antiphase_hc_osi.wav	2	6	2	noise_calib_stim_LEFT.wav	1	3	blb_dichoticlistening_ba-ga.mp3	ba	ga	1	right
6.6.1	win	2023-06-01	23:43:21	23:54:16	653425	6090578fb2299eacaec32b7a	2	1	main_z	24	main_z	53	stimuli_distractor_trianglediamonds.svg	stimuli_distractor_trianglediamonds.svg	34	no	0	1	2000	6	5	antiphase_hc_osi.wav	2	6	2	noise_calib_stim_LEFT.wav	1	3	blb_dichoticlistening_ba-ga.mp3	ba	ga	1	right
6.6.1	win	2023-06-01	23:43:21	23:54:16	653425	6090578fb2299eacaec32b7a	2	1	main_z	24	advance_on_keypress_ZEE	54	stimuli_distractor_trianglediamonds.svg	stimuli_distractor_trianglediamonds.svg	34	no	57	0	448	6	5	antiphase_hc_osi.wav	2	6	2	noise_calib_stim_LEFT.wav	1	3	blb_dichoticlistening_ba-ga.mp3	ba	ga	1	right
6.6.1	win	2023-06-01	23:43:21	23:54:18	655199	6090578fb2299eacaec32b7a	2	1	main_z	24	main_z	55	stimuli_target_squarediamonds.svg	stimuli_distractor_diamondtriangles.svg	8	yes	44	1	680	6	5	antiphase_hc_osi.wav	2	6	2	noise_calib_stim_LEFT.wav	1	3	blb_dichoticlistening_ba-ga.mp3	ba	ga	1	right
6.6.1	win	2023-06-01	23:43:21	23:54:18	655199	6090578fb2299eacaec32b7a	2	1	main_z	24	advance_on_keypress_ZEE	56	stimuli_target_squarediamonds.svg	stimuli_distractor_diamondtriangles.svg	8	yes	57	0	435	6	5	antiphase_hc_osi.wav	2	6	2	noise_calib_stim_LEFT.wav	1	3	blb_dichoticlistening_ba-ga.mp3	ba	ga	1	right
6.6.1	win	2023-06-01	23:43:21	23:54:20	656887	6090578fb2299eacaec32b7a	2	1	main_z	24	main_z	57	stimuli_distractor_diamondtriangles.svg	stimuli_target_trianglesquares.svg	30	yes	44	1	623	6	5	antiphase_hc_osi.wav	2	6	2	noise_calib_stim_LEFT.wav	1	3	blb_dichoticlistening_ba-ga.mp3	ba	ga	1	right
6.6.1	win	2023-06-01	23:43:21	23:54:20	656887	6090578fb2299eacaec32b7a	2	1	main_z	24	advance_on_keypress_ZEE	58	stimuli_distractor_diamondtriangles.svg	stimuli_target_trianglesquares.svg	30	yes	57	0	501	6	5	antiphase_hc_osi.wav	2	6	2	noise_calib_stim_LEFT.wav	1	3	blb_dichoticlistening_ba-ga.mp3	ba	ga	1	right
6.6.1	win	2023-06-01	23:43:21	23:54:22	658872	6090578fb2299eacaec32b7a	2	1	main_z	24	main_z	59	stimuli_target_rectangletriangles.svg	stimuli_distractor_diamondtriangles.svg	5	yes	44	1	843	6	5	antiphase_hc_osi.wav	2	6	2	noise_calib_stim_LEFT.wav	1	3	blb_dichoticlistening_ba-ga.mp3	ba	ga	1	right
6.6.1	win	2023-06-01	23:43:21	23:54:22	658872	6090578fb2299eacaec32b7a	2	1	main_z	24	advance_on_keypress_ZEE	60	stimuli_target_rectangletriangles.svg	stimuli_distractor_diamondtriangles.svg	5	yes	57	0	392	6	5	antiphase_hc_osi.wav	2	6	2	noise_calib_stim_LEFT.wav	1	3	blb_dichoticlistening_ba-ga.mp3	ba	ga	1	right
6.6.1	win	2023-06-01	23:43:21	23:54:23	660703	6090578fb2299eacaec32b7a	2	1	main_z	24	main_z	61	stimuli_distractor_diamondtriangles.svg	stimuli_target_diamondsquares.svg	32	yes	44	1	798	6	5	antiphase_hc_osi.wav	2	6	2	noise_calib_stim_LEFT.wav	1	3	blb_dichoticlistening_ba-ga.mp3	ba	ga	1	right
6.6.1	win	2023-06-01	23:43:21	23:54:23	660703	6090578fb2299eacaec32b7a	2	1	main_z	24	advance_on_keypress_ZEE	62	stimuli_distractor_diamondtriangles.svg	stimuli_target_diamondsquares.svg	32	yes	57	0	513	6	5	antiphase_hc_osi.wav	2	6	2	noise_calib_stim_LEFT.wav	1	3	blb_dichoticlistening_ba-ga.mp3	ba	ga	1	right
6.6.1	win	2023-06-01	23:43:21	23:54:27	663860	6090578fb2299eacaec32b7a	2	1	main_z	24	main_z	63	stimuli_distractor_diamondtriangles.svg	stimuli_distractor_diamondtriangles.svg	39	no	0	1	2000	6	5	antiphase_hc_osi.wav	2	6	2	noise_calib_stim_LEFT.wav	1	3	blb_dichoticlistening_ba-ga.mp3	ba	ga	1	right
6.6.1	win	2023-06-01	23:43:21	23:54:27	663860	6090578fb2299eacaec32b7a	2	1	main_z	24	advance_on_keypress_ZEE	64	stimuli_distractor_diamondtriangles.svg	stimuli_distractor_diamondtriangles.svg	39	no	57	0	480	6	5	antiphase_hc_osi.wav	2	6	2	noise_calib_stim_LEFT.wav	1	3	blb_dichoticlistening_ba-ga.mp3	ba	ga	1	right
6.6.1	win	2023-06-01	23:43:21	23:54:28	665452	6090578fb2299eacaec32b7a	2	1	main_z	24	main_z	65	stimuli_distractor_diamondtriangles.svg	stimuli_target_diamondrectangles.svg	31	yes	44	1	475	6	5	antiphase_hc_osi.wav	2	6	2	noise_calib_stim_LEFT.wav	1	3	blb_dichoticlistening_ba-ga.mp3	ba	ga	1	right
6.6.1	win	2023-06-01	23:43:21	23:54:28	665452	6090578fb2299eacaec32b7a	2	1	main_z	24	advance_on_keypress_ZEE	66	stimuli_distractor_diamondtriangles.svg	stimuli_target_diamondrectangles.svg	31	yes	57	0	517	6	5	antiphase_hc_osi.wav	2	6	2	noise_calib_stim_LEFT.wav	1	3	blb_dichoticlistening_ba-ga.mp3	ba	ga	1	right
6.6.1	win	2023-06-01	23:43:21	23:54:30	667191	6090578fb2299eacaec32b7a	2	1	main_z	24	main_z	67	stimuli_target_diamondsquares.svg	stimuli_distractor_diamondtriangles.svg	24	yes	44	1	600	6	5	antiphase_hc_osi.wav	2	6	2	noise_calib_stim_LEFT.wav	1	3	blb_dichoticlistening_ba-ga.mp3	ba	ga	1	right
6.6.1	win	2023-06-01	23:43:21	23:54:30	667191	6090578fb2299eacaec32b7a	2	1	main_z	24	advance_on_keypress_ZEE	68	stimuli_target_diamondsquares.svg	stimuli_distractor_diamondtriangles.svg	24	yes	57	0	505	6	5	antiphase_hc_osi.wav	2	6	2	noise_calib_stim_LEFT.wav	1	3	blb_dichoticlistening_ba-ga.mp3	ba	ga	1	right
6.6.1	win	2023-06-01	23:43:21	23:54:33	670325	6090578fb2299eacaec32b7a	2	1	main_z	24	main_z	69	stimuli_distractor_trianglediamonds.svg	stimuli_target_rectanglediamonds.svg	10	yes	0	0	2000	6	5	antiphase_hc_osi.wav	2	6	2	noise_calib_stim_LEFT.wav	1	3	blb_dichoticlistening_ba-ga.mp3	ba	ga	1	right
6.6.1	win	2023-06-01	23:43:21	23:54:33	670325	6090578fb2299eacaec32b7a	2	1	main_z	24	advance_on_keypress_ZEE	70	stimuli_distractor_trianglediamonds.svg	stimuli_target_rectanglediamonds.svg	10	yes	57	0	1421	6	5	antiphase_hc_osi.wav	2	6	2	noise_calib_stim_LEFT.wav	1	3	blb_dichoticlistening_ba-ga.mp3	ba	ga	1	right
6.6.1	win	2023-06-01	23:43:21	23:54:36	673270	6090578fb2299eacaec32b7a	2	1	main_z	24	main_z	71	stimuli_target_trianglerectangles.svg	stimuli_distractor_trianglediamonds.svg	17	yes	44	1	881	6	5	antiphase_hc_osi.wav	2	6	2	noise_calib_stim_LEFT.wav	1	3	blb_dichoticlistening_ba-ga.mp3	ba	ga	1	right
6.6.1	win	2023-06-01	23:43:21	23:54:36	673270	6090578fb2299eacaec32b7a	2	1	main_z	24	advance_on_keypress_ZEE	72	stimuli_target_trianglerectangles.svg	stimuli_distractor_trianglediamonds.svg	17	yes	57	0	1136	6	5	antiphase_hc_osi.wav	2	6	2	noise_calib_stim_LEFT.wav	1	3	blb_dichoticlistening_ba-ga.mp3	ba	ga	1	right
6.6.1	win	2023-06-01	23:43:21	23:54:40	677032	6090578fb2299eacaec32b7a	2	1	main_z	24	main_z	73	stimuli_distractor_trianglediamonds.svg	stimuli_distractor_diamondtriangles.svg	36	no	0	1	2000	6	5	antiphase_hc_osi.wav	2	6	2	noise_calib_stim_LEFT.wav	1	3	blb_dichoticlistening_ba-ga.mp3	ba	ga	1	right
6.6.1	win	2023-06-01	23:43:21	23:54:40	677032	6090578fb2299eacaec32b7a	2	1	main_z	24	advance_on_keypress_ZEE	74	stimuli_distractor_trianglediamonds.svg	stimuli_distractor_diamondtriangles.svg	36	no	57	0	395	6	5	antiphase_hc_osi.wav	2	6	2	noise_calib_stim_LEFT.wav	1	3	blb_dichoticlistening_ba-ga.mp3	ba	ga	1	right
6.6.1	win	2023-06-01	23:43:21	23:54:41	678662	6090578fb2299eacaec32b7a	2	1	main_z	24	main_z	75	stimuli_target_trianglerectangles.svg	stimuli_distractor_diamondtriangles.svg	21	yes	44	1	604	6	5	antiphase_hc_osi.wav	2	6	2	noise_calib_stim_LEFT.wav	1	3	blb_dichoticlistening_ba-ga.mp3	ba	ga	1	right
6.6.1	win	2023-06-01	23:43:21	23:54:41	678662	6090578fb2299eacaec32b7a	2	1	main_z	24	advance_on_keypress_ZEE	76	stimuli_target_trianglerectangles.svg	stimuli_distractor_diamondtriangles.svg	21	yes	57	0	466	6	5	antiphase_hc_osi.wav	2	6	2	noise_calib_stim_LEFT.wav	1	3	blb_dichoticlistening_ba-ga.mp3	ba	ga	1	right
6.6.1	win	2023-06-01	23:43:21	23:54:44	681758	6090578fb2299eacaec32b7a	2	1	main_z	24	main_z	77	stimuli_target_squarediamonds.svg	stimuli_distractor_trianglediamonds.svg	4	yes	0	0	2000	6	5	antiphase_hc_osi.wav	2	6	2	noise_calib_stim_LEFT.wav	1	3	blb_dichoticlistening_ba-ga.mp3	ba	ga	1	right
6.6.1	win	2023-06-01	23:43:21	23:54:44	681758	6090578fb2299eacaec32b7a	2	1	main_z	24	advance_on_keypress_ZEE	78	stimuli_target_squarediamonds.svg	stimuli_distractor_trianglediamonds.svg	4	yes	57	0	491	6	5	antiphase_hc_osi.wav	2	6	2	noise_calib_stim_LEFT.wav	1	3	blb_dichoticlistening_ba-ga.mp3	ba	ga	1	right
6.6.1	win	2023-06-01	23:43:21	23:54:46	683486	6090578fb2299eacaec32b7a	2	1	main_z	24	main_z	79	stimuli_distractor_trianglediamonds.svg	stimuli_target_diamondsquares.svg	28	yes	44	1	592	6	5	antiphase_hc_osi.wav	2	6	2	noise_calib_stim_LEFT.wav	1	3	blb_dichoticlistening_ba-ga.mp3	ba	ga	1	right
6.6.1	win	2023-06-01	23:43:21	23:54:46	683486	6090578fb2299eacaec32b7a	2	1	main_z	24	advance_on_keypress_ZEE	80	stimuli_distractor_trianglediamonds.svg	stimuli_target_diamondsquares.svg	28	yes	57	0	554	6	5	antiphase_hc_osi.wav	2	6	2	noise_calib_stim_LEFT.wav	1	3	blb_dichoticlistening_ba-ga.mp3	ba	ga	1	right
6.6.1	win	2023-06-01	23:43:21	23:54:49	686668	6090578fb2299eacaec32b7a	2	1	main_z	24	main_z	81	stimuli_distractor_diamondtriangles.svg	stimuli_target_squarediamonds.svg	16	yes	0	0	2000	6	5	antiphase_hc_osi.wav	2	6	2	noise_calib_stim_LEFT.wav	1	3	blb_dichoticlistening_ba-ga.mp3	ba	ga	1	right
6.6.1	win	2023-06-01	23:43:21	23:54:49	686668	6090578fb2299eacaec32b7a	2	1	main_z	24	advance_on_keypress_ZEE	82	stimuli_distractor_diamondtriangles.svg	stimuli_target_squarediamonds.svg	16	yes	57	0	279	6	5	antiphase_hc_osi.wav	2	6	2	noise_calib_stim_LEFT.wav	1	3	blb_dichoticlistening_ba-ga.mp3	ba	ga	1	right
6.6.1	win	2023-06-01	23:43:21	23:54:52	689573	6090578fb2299eacaec32b7a	2	1	main_z	24	main_z	83	stimuli_target_squaretriangles.svg	stimuli_distractor_diamondtriangles.svg	7	yes	0	0	2000	6	5	antiphase_hc_osi.wav	2	6	2	noise_calib_stim_LEFT.wav	1	3	blb_dichoticlistening_ba-ga.mp3	ba	ga	1	right
6.6.1	win	2023-06-01	23:43:21	23:54:52	689573	6090578fb2299eacaec32b7a	2	1	main_z	24	advance_on_keypress_ZEE	84	stimuli_target_squaretriangles.svg	stimuli_distractor_diamondtriangles.svg	7	yes	57	0	318	6	5	antiphase_hc_osi.wav	2	6	2	noise_calib_stim_LEFT.wav	1	3	blb_dichoticlistening_ba-ga.mp3	ba	ga	1	right
6.6.1	win	2023-06-01	23:43:21	23:54:55	692512	6090578fb2299eacaec32b7a	2	1	main_z	24	main_z	85	stimuli_distractor_trianglediamonds.svg	stimuli_target_rectangletriangles.svg	9	yes	0	0	2000	6	5	antiphase_hc_osi.wav	2	6	2	noise_calib_stim_LEFT.wav	1	3	blb_dichoticlistening_ba-ga.mp3	ba	ga	1	right
6.6.1	win	2023-06-01	23:43:21	23:54:55	692512	6090578fb2299eacaec32b7a	2	1	main_z	24	advance_on_keypress_ZEE	86	stimuli_distractor_trianglediamonds.svg	stimuli_target_rectangletriangles.svg	9	yes	57	0	330	6	5	antiphase_hc_osi.wav	2	6	2	noise_calib_stim_LEFT.wav	1	3	blb_dichoticlistening_ba-ga.mp3	ba	ga	1	right
6.6.1	win	2023-06-01	23:43:21	23:54:57	694017	6090578fb2299eacaec32b7a	2	1	main_z	24	main_z	87	stimuli_distractor_trianglediamonds.svg	stimuli_target_trianglerectangles.svg	25	yes	44	1	532	6	5	antiphase_hc_osi.wav	2	6	2	noise_calib_stim_LEFT.wav	1	3	blb_dichoticlistening_ba-ga.mp3	ba	ga	1	right
6.6.1	win	2023-06-01	23:43:21	23:54:57	694017	6090578fb2299eacaec32b7a	2	1	main_z	24	advance_on_keypress_ZEE	88	stimuli_distractor_trianglediamonds.svg	stimuli_target_trianglerectangles.svg	25	yes	57	0	494	6	5	antiphase_hc_osi.wav	2	6	2	noise_calib_stim_LEFT.wav	1	3	blb_dichoticlistening_ba-ga.mp3	ba	ga	1	right
6.6.1	win	2023-06-01	23:43:21	23:55:00	697143	6090578fb2299eacaec32b7a	2	1	main_z	24	main_z	89	stimuli_distractor_trianglediamonds.svg	stimuli_distractor_diamondtriangles.svg	36	no	0	1	2000	6	5	antiphase_hc_osi.wav	2	6	2	noise_calib_stim_LEFT.wav	1	3	blb_dichoticlistening_ba-ga.mp3	ba	ga	1	right
6.6.1	win	2023-06-01	23:43:21	23:55:00	697143	6090578fb2299eacaec32b7a	2	1	main_z	24	advance_on_keypress_ZEE	90	stimuli_distractor_trianglediamonds.svg	stimuli_distractor_diamondtriangles.svg	36	no	57	0	314	6	5	antiphase_hc_osi.wav	2	6	2	noise_calib_stim_LEFT.wav	1	3	blb_dichoticlistening_ba-ga.mp3	ba	ga	1	right
6.6.1	win	2023-06-01	23:43:21	23:55:01	698527	6090578fb2299eacaec32b7a	2	1	main_z	24	main_z	91	stimuli_distractor_diamondtriangles.svg	stimuli_target_trianglesquares.svg	30	yes	44	1	429	6	5	antiphase_hc_osi.wav	2	6	2	noise_calib_stim_LEFT.wav	1	3	blb_dichoticlistening_ba-ga.mp3	ba	ga	1	right
6.6.1	win	2023-06-01	23:43:21	23:55:01	698527	6090578fb2299eacaec32b7a	2	1	main_z	24	advance_on_keypress_ZEE	92	stimuli_distractor_diamondtriangles.svg	stimuli_target_trianglesquares.svg	30	yes	57	0	465	6	5	antiphase_hc_osi.wav	2	6	2	noise_calib_stim_LEFT.wav	1	3	blb_dichoticlistening_ba-ga.mp3	ba	ga	1	right
6.6.1	win	2023-06-01	23:43:21	23:55:03	700244	6090578fb2299eacaec32b7a	2	1	main_z	24	main_z	93	stimuli_target_diamondrectangles.svg	stimuli_distractor_diamondtriangles.svg	23	yes	44	1	618	6	5	antiphase_hc_osi.wav	2	6	2	noise_calib_stim_LEFT.wav	1	3	blb_dichoticlistening_ba-ga.mp3	ba	ga	1	right
6.6.1	win	2023-06-01	23:43:21	23:55:03	700244	6090578fb2299eacaec32b7a	2	1	main_z	24	advance_on_keypress_ZEE	94	stimuli_target_diamondrectangles.svg	stimuli_distractor_diamondtriangles.svg	23	yes	57	0	385	6	5	antiphase_hc_osi.wav	2	6	2	noise_calib_stim_LEFT.wav	1	3	blb_dichoticlistening_ba-ga.mp3	ba	ga	1	right
6.6.1	win	2023-06-01	23:43:21	23:55:04	701791	6090578fb2299eacaec32b7a	2	1	main_z	24	main_z	95	stimuli_distractor_trianglediamonds.svg	stimuli_target_diamondrectangles.svg	27	yes	44	1	511	6	5	antiphase_hc_osi.wav	2	6	2	noise_calib_stim_LEFT.wav	1	3	blb_dichoticlistening_ba-ga.mp3	ba	ga	1	right
6.6.1	win	2023-06-01	23:43:21	23:55:04	701791	6090578fb2299eacaec32b7a	2	1	main_z	24	advance_on_keypress_ZEE	96	stimuli_distractor_trianglediamonds.svg	stimuli_target_diamondrectangles.svg	27	yes	57	0	395	6	5	antiphase_hc_osi.wav	2	6	2	noise_calib_stim_LEFT.wav	1	3	blb_dichoticlistening_ba-ga.mp3	ba	ga	1	right
6.6.1	win	2023-06-01	23:43:21	23:55:08	704809	6090578fb2299eacaec32b7a	2	1	main_z	24	main_z	97	stimuli_distractor_trianglediamonds.svg	stimuli_distractor_trianglediamonds.svg	33	no	0	1	2000	6	5	antiphase_hc_osi.wav	2	6	2	noise_calib_stim_LEFT.wav	1	3	blb_dichoticlistening_ba-ga.mp3	ba	ga	1	right
6.6.1	win	2023-06-01	23:43:21	23:55:08	704809	6090578fb2299eacaec32b7a	2	1	main_z	24	advance_on_keypress_ZEE	98	stimuli_distractor_trianglediamonds.svg	stimuli_distractor_trianglediamonds.svg	33	no	57	0	335	6	5	antiphase_hc_osi.wav	2	6	2	noise_calib_stim_LEFT.wav	1	3	blb_dichoticlistening_ba-ga.mp3	ba	ga	1	right
6.6.1	win	2023-06-01	23:43:21	23:55:10	707476	6090578fb2299eacaec32b7a	2	1	main_z	24	main_z	99	stimuli_distractor_diamondtriangles.svg	stimuli_target_rectanglediamonds.svg	14	yes	44	1	1714	6	5	antiphase_hc_osi.wav	2	6	2	noise_calib_stim_LEFT.wav	1	3	blb_dichoticlistening_ba-ga.mp3	ba	ga	1	right
6.6.1	win	2023-06-01	23:43:21	23:55:10	707476	6090578fb2299eacaec32b7a	2	1	main_z	24	advance_on_keypress_ZEE	100	stimuli_distractor_diamondtriangles.svg	stimuli_target_rectanglediamonds.svg	14	yes	57	0	518	6	5	antiphase_hc_osi.wav	2	6	2	noise_calib_stim_LEFT.wav	1	3	blb_dichoticlistening_ba-ga.mp3	ba	ga	1	right
6.6.1	win	2023-06-01	23:43:21	23:55:12	709140	6090578fb2299eacaec32b7a	2	1	main_z	24	main_z	101	stimuli_target_squaretriangles.svg	stimuli_distractor_trianglediamonds.svg	3	yes	44	1	518	6	5	antiphase_hc_osi.wav	2	6	2	noise_calib_stim_LEFT.wav	1	3	blb_dichoticlistening_ba-ga.mp3	ba	ga	1	right
6.6.1	win	2023-06-01	23:43:21	23:55:12	709140	6090578fb2299eacaec32b7a	2	1	main_z	24	advance_on_keypress_ZEE	102	stimuli_target_squaretriangles.svg	stimuli_distractor_trianglediamonds.svg	3	yes	57	0	422	6	5	antiphase_hc_osi.wav	2	6	2	noise_calib_stim_LEFT.wav	1	3	blb_dichoticlistening_ba-ga.mp3	ba	ga	1	right
6.6.1	win	2023-06-01	23:43:21	23:55:13	710673	6090578fb2299eacaec32b7a	2	1	main_z	24	main_z	103	stimuli_target_squarediamonds.svg	stimuli_distractor_trianglediamonds.svg	4	yes	44	1	476	6	5	antiphase_hc_osi.wav	2	6	2	noise_calib_stim_LEFT.wav	1	3	blb_dichoticlistening_ba-ga.mp3	ba	ga	1	right
6.6.1	win	2023-06-01	23:43:21	23:55:13	710673	6090578fb2299eacaec32b7a	2	1	main_z	24	advance_on_keypress_ZEE	104	stimuli_target_squarediamonds.svg	stimuli_distractor_trianglediamonds.svg	4	yes	57	0	571	6	5	antiphase_hc_osi.wav	2	6	2	noise_calib_stim_LEFT.wav	1	3	blb_dichoticlistening_ba-ga.mp3	ba	ga	1	right
6.6.1	win	2023-06-01	23:43:21	23:55:15	712675	6090578fb2299eacaec32b7a	2	1	main_z	24	main_z	105	stimuli_distractor_diamondtriangles.svg	stimuli_target_diamondrectangles.svg	31	yes	44	1	790	6	5	antiphase_hc_osi.wav	2	6	2	noise_calib_stim_LEFT.wav	1	3	blb_dichoticlistening_ba-ga.mp3	ba	ga	1	right
6.6.1	win	2023-06-01	23:43:21	23:55:15	712675	6090578fb2299eacaec32b7a	2	1	main_z	24	advance_on_keypress_ZEE	106	stimuli_distractor_diamondtriangles.svg	stimuli_target_diamondrectangles.svg	31	yes	57	0	474	6	5	antiphase_hc_osi.wav	2	6	2	noise_calib_stim_LEFT.wav	1	3	blb_dichoticlistening_ba-ga.mp3	ba	ga	1	right
6.6.1	win	2023-06-01	23:43:21	23:55:17	714345	6090578fb2299eacaec32b7a	2	1	main_z	24	main_z	107	stimuli_target_trianglesquares.svg	stimuli_distractor_diamondtriangles.svg	22	yes	44	1	550	6	5	antiphase_hc_osi.wav	2	6	2	noise_calib_stim_LEFT.wav	1	3	blb_dichoticlistening_ba-ga.mp3	ba	ga	1	right
6.6.1	win	2023-06-01	23:43:21	23:55:17	714345	6090578fb2299eacaec32b7a	2	1	main_z	24	advance_on_keypress_ZEE	108	stimuli_target_trianglesquares.svg	stimuli_distractor_diamondtriangles.svg	22	yes	57	0	366	6	5	antiphase_hc_osi.wav	2	6	2	noise_calib_stim_LEFT.wav	1	3	blb_dichoticlistening_ba-ga.mp3	ba	ga	1	right
6.6.1	win	2023-06-01	23:43:21	23:55:18	715771	6090578fb2299eacaec32b7a	2	1	main_z	24	main_z	109	stimuli_distractor_trianglediamonds.svg	stimuli_target_diamondsquares.svg	28	yes	44	1	446	6	5	antiphase_hc_osi.wav	2	6	2	noise_calib_stim_LEFT.wav	1	3	blb_dichoticlistening_ba-ga.mp3	ba	ga	1	right
6.6.1	win	2023-06-01	23:43:21	23:55:18	715771	6090578fb2299eacaec32b7a	2	1	main_z	24	advance_on_keypress_ZEE	110	stimuli_distractor_trianglediamonds.svg	stimuli_target_diamondsquares.svg	28	yes	57	0	409	6	5	antiphase_hc_osi.wav	2	6	2	noise_calib_stim_LEFT.wav	1	3	blb_dichoticlistening_ba-ga.mp3	ba	ga	1	right
6.6.1	win	2023-06-01	23:43:21	23:55:20	717355	6090578fb2299eacaec32b7a	2	1	main_z	24	main_z	111	stimuli_distractor_trianglediamonds.svg	stimuli_target_squarediamonds.svg	12	yes	44	1	562	6	5	antiphase_hc_osi.wav	2	6	2	noise_calib_stim_LEFT.wav	1	3	blb_dichoticlistening_ba-ga.mp3	ba	ga	1	right
6.6.1	win	2023-06-01	23:43:21	23:55:20	717355	6090578fb2299eacaec32b7a	2	1	main_z	24	advance_on_keypress_ZEE	112	stimuli_distractor_trianglediamonds.svg	stimuli_target_squarediamonds.svg	12	yes	57	0	405	6	5	antiphase_hc_osi.wav	2	6	2	noise_calib_stim_LEFT.wav	1	3	blb_dichoticlistening_ba-ga.mp3	ba	ga	1	right
6.6.1	win	2023-06-01	23:43:21	23:55:22	719051	6090578fb2299eacaec32b7a	2	1	main_z	24	main_z	113	stimuli_distractor_diamondtriangles.svg	stimuli_target_diamondsquares.svg	32	yes	44	1	658	6	5	antiphase_hc_osi.wav	2	6	2	noise_calib_stim_LEFT.wav	1	3	blb_dichoticlistening_ba-ga.mp3	ba	ga	1	right
6.6.1	win	2023-06-01	23:43:21	23:55:22	719051	6090578fb2299eacaec32b7a	2	1	main_z	24	advance_on_keypress_ZEE	114	stimuli_distractor_diamondtriangles.svg	stimuli_target_diamondsquares.svg	32	yes	57	0	385	6	5	antiphase_hc_osi.wav	2	6	2	noise_calib_stim_LEFT.wav	1	3	blb_dichoticlistening_ba-ga.mp3	ba	ga	1	right
6.6.1	win	2023-06-01	23:43:21	23:55:23	720603	6090578fb2299eacaec32b7a	2	1	main_z	24	main_z	115	stimuli_target_squarediamonds.svg	stimuli_distractor_diamondtriangles.svg	8	yes	44	1	555	6	5	antiphase_hc_osi.wav	2	6	2	noise_calib_stim_LEFT.wav	1	3	blb_dichoticlistening_ba-ga.mp3	ba	ga	1	right
6.6.1	win	2023-06-01	23:43:21	23:55:23	720603	6090578fb2299eacaec32b7a	2	1	main_z	24	advance_on_keypress_ZEE	116	stimuli_target_squarediamonds.svg	stimuli_distractor_diamondtriangles.svg	8	yes	57	0	357	6	5	antiphase_hc_osi.wav	2	6	2	noise_calib_stim_LEFT.wav	1	3	blb_dichoticlistening_ba-ga.mp3	ba	ga	1	right
6.6.1	win	2023-06-01	23:43:21	23:55:25	722112	6090578fb2299eacaec32b7a	2	1	main_z	24	main_z	117	stimuli_distractor_trianglediamonds.svg	stimuli_target_rectanglediamonds.svg	10	yes	44	1	534	6	5	antiphase_hc_osi.wav	2	6	2	noise_calib_stim_LEFT.wav	1	3	blb_dichoticlistening_ba-ga.mp3	ba	ga	1	right
6.6.1	win	2023-06-01	23:43:21	23:55:25	722112	6090578fb2299eacaec32b7a	2	1	main_z	24	advance_on_keypress_ZEE	118	stimuli_distractor_trianglediamonds.svg	stimuli_target_rectanglediamonds.svg	10	yes	57	0	367	6	5	antiphase_hc_osi.wav	2	6	2	noise_calib_stim_LEFT.wav	1	3	blb_dichoticlistening_ba-ga.mp3	ba	ga	1	right
6.6.1	win	2023-06-01	23:43:21	23:55:28	725114	6090578fb2299eacaec32b7a	2	1	main_z	24	main_z	119	stimuli_target_diamondrectangles.svg	stimuli_distractor_trianglediamonds.svg	19	yes	0	0	2000	6	5	antiphase_hc_osi.wav	2	6	2	noise_calib_stim_LEFT.wav	1	3	blb_dichoticlistening_ba-ga.mp3	ba	ga	1	right
6.6.1	win	2023-06-01	23:43:21	23:55:28	725114	6090578fb2299eacaec32b7a	2	1	main_z	24	advance_on_keypress_ZEE	120	stimuli_target_diamondrectangles.svg	stimuli_distractor_trianglediamonds.svg	19	yes	57	0	377	6	5	antiphase_hc_osi.wav	2	6	2	noise_calib_stim_LEFT.wav	1	3	blb_dichoticlistening_ba-ga.mp3	ba	ga	1	right
6.6.1	win	2023-06-01	23:43:21	23:55:29	726623	6090578fb2299eacaec32b7a	2	1	main_z	24	main_z	121	stimuli_target_diamondsquares.svg	stimuli_distractor_diamondtriangles.svg	24	yes	44	1	501	6	5	antiphase_hc_osi.wav	2	6	2	noise_calib_stim_LEFT.wav	1	3	blb_dichoticlistening_ba-ga.mp3	ba	ga	1	right
6.6.1	win	2023-06-01	23:43:21	23:55:29	726623	6090578fb2299eacaec32b7a	2	1	main_z	24	advance_on_keypress_ZEE	122	stimuli_target_diamondsquares.svg	stimuli_distractor_diamondtriangles.svg	24	yes	57	0	331	6	5	antiphase_hc_osi.wav	2	6	2	noise_calib_stim_LEFT.wav	1	3	blb_dichoticlistening_ba-ga.mp3	ba	ga	1	right
6.6.1	win	2023-06-01	23:43:21	23:55:31	728282	6090578fb2299eacaec32b7a	2	1	main_z	24	main_z	123	stimuli_distractor_diamondtriangles.svg	stimuli_target_squaretriangles.svg	15	yes	44	1	703	6	5	antiphase_hc_osi.wav	2	6	2	noise_calib_stim_LEFT.wav	1	3	blb_dichoticlistening_ba-ga.mp3	ba	ga	1	right
6.6.1	win	2023-06-01	23:43:21	23:55:31	728282	6090578fb2299eacaec32b7a	2	1	main_z	24	advance_on_keypress_ZEE	124	stimuli_distractor_diamondtriangles.svg	stimuli_target_squaretriangles.svg	15	yes	57	0	342	6	5	antiphase_hc_osi.wav	2	6	2	noise_calib_stim_LEFT.wav	1	3	blb_dichoticlistening_ba-ga.mp3	ba	ga	1	right
6.6.1	win	2023-06-01	23:43:21	23:55:32	729755	6090578fb2299eacaec32b7a	2	1	main_z	24	main_z	125	stimuli_distractor_diamondtriangles.svg	stimuli_target_trianglerectangles.svg	29	yes	44	1	514	6	5	antiphase_hc_osi.wav	2	6	2	noise_calib_stim_LEFT.wav	1	3	blb_dichoticlistening_ba-ga.mp3	ba	ga	1	right
6.6.1	win	2023-06-01	23:43:21	23:55:32	729755	6090578fb2299eacaec32b7a	2	1	main_z	24	advance_on_keypress_ZEE	126	stimuli_distractor_diamondtriangles.svg	stimuli_target_trianglerectangles.svg	29	yes	57	0	328	6	5	antiphase_hc_osi.wav	2	6	2	noise_calib_stim_LEFT.wav	1	3	blb_dichoticlistening_ba-ga.mp3	ba	ga	1	right
6.6.1	win	2023-06-01	23:43:21	23:55:35	732729	6090578fb2299eacaec32b7a	2	1	main_z	24	main_z	127	stimuli_distractor_trianglediamonds.svg	stimuli_distractor_trianglediamonds.svg	34	no	0	1	2000	6	5	antiphase_hc_osi.wav	2	6	2	noise_calib_stim_LEFT.wav	1	3	blb_dichoticlistening_ba-ga.mp3	ba	ga	1	right
6.6.1	win	2023-06-01	23:43:21	23:55:35	732729	6090578fb2299eacaec32b7a	2	1	main_z	24	advance_on_keypress_ZEE	128	stimuli_distractor_trianglediamonds.svg	stimuli_distractor_trianglediamonds.svg	34	no	57	0	321	6	5	antiphase_hc_osi.wav	2	6	2	noise_calib_stim_LEFT.wav	1	3	blb_dichoticlistening_ba-ga.mp3	ba	ga	1	right
6.6.1	win	2023-06-01	23:43:21	23:55:37	734335	6090578fb2299eacaec32b7a	2	1	main_z	24	main_z	129	stimuli_target_diamondsquares.svg	stimuli_distractor_trianglediamonds.svg	20	yes	44	1	653	6	5	antiphase_hc_osi.wav	2	6	2	noise_calib_stim_LEFT.wav	1	3	blb_dichoticlistening_ba-ga.mp3	ba	ga	1	right
6.6.1	win	2023-06-01	23:43:21	23:55:37	734335	6090578fb2299eacaec32b7a	2	1	main_z	24	advance_on_keypress_ZEE	130	stimuli_target_diamondsquares.svg	stimuli_distractor_trianglediamonds.svg	20	yes	57	0	378	6	5	antiphase_hc_osi.wav	2	6	2	noise_calib_stim_LEFT.wav	1	3	blb_dichoticlistening_ba-ga.mp3	ba	ga	1	right
6.6.1	win	2023-06-01	23:43:21	23:55:39	735853	6090578fb2299eacaec32b7a	2	1	main_z	24	main_z	131	stimuli_target_trianglerectangles.svg	stimuli_distractor_trianglediamonds.svg	17	yes	44	1	491	6	5	antiphase_hc_osi.wav	2	6	2	noise_calib_stim_LEFT.wav	1	3	blb_dichoticlistening_ba-ga.mp3	ba	ga	1	right
6.6.1	win	2023-06-01	23:43:21	23:55:39	735853	6090578fb2299eacaec32b7a	2	1	main_z	24	advance_on_keypress_ZEE	132	stimuli_target_trianglerectangles.svg	stimuli_distractor_trianglediamonds.svg	17	yes	57	0	394	6	5	antiphase_hc_osi.wav	2	6	2	noise_calib_stim_LEFT.wav	1	3	blb_dichoticlistening_ba-ga.mp3	ba	ga	1	right
6.6.1	win	2023-06-01	23:43:21	23:55:40	737332	6090578fb2299eacaec32b7a	2	1	main_z	24	main_z	133	stimuli_distractor_trianglediamonds.svg	stimuli_target_trianglesquares.svg	26	yes	44	1	468	6	5	antiphase_hc_osi.wav	2	6	2	noise_calib_stim_LEFT.wav	1	3	blb_dichoticlistening_ba-ga.mp3	ba	ga	1	right
6.6.1	win	2023-06-01	23:43:21	23:55:40	737332	6090578fb2299eacaec32b7a	2	1	main_z	24	advance_on_keypress_ZEE	134	stimuli_distractor_trianglediamonds.svg	stimuli_target_trianglesquares.svg	26	yes	57	0	374	6	5	antiphase_hc_osi.wav	2	6	2	noise_calib_stim_LEFT.wav	1	3	blb_dichoticlistening_ba-ga.mp3	ba	ga	1	right
6.6.1	win	2023-06-01	23:43:21	23:55:43	740334	6090578fb2299eacaec32b7a	2	1	main_z	24	main_z	135	stimuli_distractor_diamondtriangles.svg	stimuli_distractor_trianglediamonds.svg	38	no	0	1	2000	6	5	antiphase_hc_osi.wav	2	6	2	noise_calib_stim_LEFT.wav	1	3	blb_dichoticlistening_ba-ga.mp3	ba	ga	1	right
6.6.1	win	2023-06-01	23:43:21	23:55:43	740334	6090578fb2299eacaec32b7a	2	1	main_z	24	advance_on_keypress_ZEE	136	stimuli_distractor_diamondtriangles.svg	stimuli_distractor_trianglediamonds.svg	38	no	57	0	784	6	5	antiphase_hc_osi.wav	2	6	2	noise_calib_stim_LEFT.wav	1	3	blb_dichoticlistening_ba-ga.mp3	ba	ga	1	right
6.6.1	win	2023-06-01	23:43:21	23:55:45	742298	6090578fb2299eacaec32b7a	2	1	main_z	24	main_z	137	stimuli_target_rectangletriangles.svg	stimuli_distractor_diamondtriangles.svg	5	yes	44	1	550	6	5	antiphase_hc_osi.wav	2	6	2	noise_calib_stim_LEFT.wav	1	3	blb_dichoticlistening_ba-ga.mp3	ba	ga	1	right
6.6.1	win	2023-06-01	23:43:21	23:55:45	742298	6090578fb2299eacaec32b7a	2	1	main_z	24	advance_on_keypress_ZEE	138	stimuli_target_rectangletriangles.svg	stimuli_distractor_diamondtriangles.svg	5	yes	57	0	311	6	5	antiphase_hc_osi.wav	2	6	2	noise_calib_stim_LEFT.wav	1	3	blb_dichoticlistening_ba-ga.mp3	ba	ga	1	right
6.6.1	win	2023-06-01	23:43:21	23:55:46	743638	6090578fb2299eacaec32b7a	2	1	main_z	24	main_z	139	stimuli_target_rectangletriangles.svg	stimuli_distractor_trianglediamonds.svg	1	yes	44	1	395	6	5	antiphase_hc_osi.wav	2	6	2	noise_calib_stim_LEFT.wav	1	3	blb_dichoticlistening_ba-ga.mp3	ba	ga	1	right
6.6.1	win	2023-06-01	23:43:21	23:55:46	743638	6090578fb2299eacaec32b7a	2	1	main_z	24	advance_on_keypress_ZEE	140	stimuli_target_rectangletriangles.svg	stimuli_distractor_trianglediamonds.svg	1	yes	57	0	404	6	5	antiphase_hc_osi.wav	2	6	2	noise_calib_stim_LEFT.wav	1	3	blb_dichoticlistening_ba-ga.mp3	ba	ga	1	right
6.6.1	win	2023-06-01	23:43:21	23:55:48	745056	6090578fb2299eacaec32b7a	2	1	main_z	24	main_z	141	stimuli_target_rectanglediamonds.svg	stimuli_distractor_trianglediamonds.svg	2	yes	44	1	389	6	5	antiphase_hc_osi.wav	2	6	2	noise_calib_stim_LEFT.wav	1	3	blb_dichoticlistening_ba-ga.mp3	ba	ga	1	right
6.6.1	win	2023-06-01	23:43:21	23:55:48	745056	6090578fb2299eacaec32b7a	2	1	main_z	24	advance_on_keypress_ZEE	142	stimuli_target_rectanglediamonds.svg	stimuli_distractor_trianglediamonds.svg	2	yes	57	0	348	6	5	antiphase_hc_osi.wav	2	6	2	noise_calib_stim_LEFT.wav	1	3	blb_dichoticlistening_ba-ga.mp3	ba	ga	1	right
6.6.1	win	2023-06-01	23:43:21	23:55:51	748041	6090578fb2299eacaec32b7a	2	1	main_z	24	main_z	143	stimuli_distractor_trianglediamonds.svg	stimuli_distractor_diamondtriangles.svg	35	no	0	1	2000	6	5	antiphase_hc_osi.wav	2	6	2	noise_calib_stim_LEFT.wav	1	3	blb_dichoticlistening_ba-ga.mp3	ba	ga	1	right
6.6.1	win	2023-06-01	23:43:21	23:55:51	748041	6090578fb2299eacaec32b7a	2	1	main_z	24	advance_on_keypress_ZEE	144	stimuli_distractor_trianglediamonds.svg	stimuli_distractor_diamondtriangles.svg	35	no	57	0	445	6	5	antiphase_hc_osi.wav	2	6	2	noise_calib_stim_LEFT.wav	1	3	blb_dichoticlistening_ba-ga.mp3	ba	ga	1	right
6.6.1	win	2023-06-01	23:43:21	23:55:52	749597	6090578fb2299eacaec32b7a	2	1	main_z	24	main_z	145	stimuli_distractor_diamondtriangles.svg	stimuli_target_rectangletriangles.svg	13	yes	44	1	498	6	5	antiphase_hc_osi.wav	2	6	2	noise_calib_stim_LEFT.wav	1	3	blb_dichoticlistening_ba-ga.mp3	ba	ga	1	right
6.6.1	win	2023-06-01	23:43:21	23:55:52	749597	6090578fb2299eacaec32b7a	2	1	main_z	24	advance_on_keypress_ZEE	146	stimuli_distractor_diamondtriangles.svg	stimuli_target_rectangletriangles.svg	13	yes	57	0	367	6	5	antiphase_hc_osi.wav	2	6	2	noise_calib_stim_LEFT.wav	1	3	blb_dichoticlistening_ba-ga.mp3	ba	ga	1	right
6.6.1	win	2023-06-01	23:43:21	23:55:54	751051	6090578fb2299eacaec32b7a	2	1	main_z	24	main_z	147	stimuli_target_trianglesquares.svg	stimuli_distractor_trianglediamonds.svg	18	yes	44	1	472	6	5	antiphase_hc_osi.wav	2	6	2	noise_calib_stim_LEFT.wav	1	3	blb_dichoticlistening_ba-ga.mp3	ba	ga	1	right
6.6.1	win	2023-06-01	23:43:21	23:55:54	751051	6090578fb2299eacaec32b7a	2	1	main_z	24	advance_on_keypress_ZEE	148	stimuli_target_trianglesquares.svg	stimuli_distractor_trianglediamonds.svg	18	yes	57	0	371	6	5	antiphase_hc_osi.wav	2	6	2	noise_calib_stim_LEFT.wav	1	3	blb_dichoticlistening_ba-ga.mp3	ba	ga	1	right
6.6.1	win	2023-06-01	23:43:21	23:55:57	754051	6090578fb2299eacaec32b7a	2	1	main_z	24	main_z	149	stimuli_distractor_diamondtriangles.svg	stimuli_distractor_diamondtriangles.svg	40	no	0	1	2000	6	5	antiphase_hc_osi.wav	2	6	2	noise_calib_stim_LEFT.wav	1	3	blb_dichoticlistening_ba-ga.mp3	ba	ga	1	right
6.6.1	win	2023-06-01	23:43:21	23:55:57	754051	6090578fb2299eacaec32b7a	2	1	main_z	24	advance_on_keypress_ZEE	150	stimuli_distractor_diamondtriangles.svg	stimuli_distractor_diamondtriangles.svg	40	no	57	0	493	6	5	antiphase_hc_osi.wav	2	6	2	noise_calib_stim_LEFT.wav	1	3	blb_dichoticlistening_ba-ga.mp3	ba	ga	1	right
6.6.1	win	2023-06-01	23:43:21	23:55:58	755687	6090578fb2299eacaec32b7a	2	1	main_z	24	main_z	151	stimuli_target_trianglerectangles.svg	stimuli_distractor_diamondtriangles.svg	21	yes	44	1	501	6	5	antiphase_hc_osi.wav	2	6	2	noise_calib_stim_LEFT.wav	1	3	blb_dichoticlistening_ba-ga.mp3	ba	ga	1	right
6.6.1	win	2023-06-01	23:43:21	23:55:58	755687	6090578fb2299eacaec32b7a	2	1	main_z	24	advance_on_keypress_ZEE	152	stimuli_target_trianglerectangles.svg	stimuli_distractor_diamondtriangles.svg	21	yes	57	0	351	6	5	antiphase_hc_osi.wav	2	6	2	noise_calib_stim_LEFT.wav	1	3	blb_dichoticlistening_ba-ga.mp3	ba	ga	1	right
6.6.1	win	2023-06-01	23:43:21	23:56:01	758666	6090578fb2299eacaec32b7a	2	1	main_z	24	main_z	153	stimuli_distractor_diamondtriangles.svg	stimuli_distractor_diamondtriangles.svg	39	no	0	1	2000	6	5	antiphase_hc_osi.wav	2	6	2	noise_calib_stim_LEFT.wav	1	3	blb_dichoticlistening_ba-ga.mp3	ba	ga	1	right
6.6.1	win	2023-06-01	23:43:21	23:56:01	758666	6090578fb2299eacaec32b7a	2	1	main_z	24	advance_on_keypress_ZEE	154	stimuli_distractor_diamondtriangles.svg	stimuli_distractor_diamondtriangles.svg	39	no	57	0	396	6	5	antiphase_hc_osi.wav	2	6	2	noise_calib_stim_LEFT.wav	1	3	blb_dichoticlistening_ba-ga.mp3	ba	ga	1	right
6.6.1	win	2023-06-01	23:43:21	23:56:03	760189	6090578fb2299eacaec32b7a	2	1	main_z	24	main_z	155	stimuli_target_rectanglediamonds.svg	stimuli_distractor_diamondtriangles.svg	6	yes	44	1	476	6	5	antiphase_hc_osi.wav	2	6	2	noise_calib_stim_LEFT.wav	1	3	blb_dichoticlistening_ba-ga.mp3	ba	ga	1	right
6.6.1	win	2023-06-01	23:43:21	23:56:03	760189	6090578fb2299eacaec32b7a	2	1	main_z	24	advance_on_keypress_ZEE	156	stimuli_target_rectanglediamonds.svg	stimuli_distractor_diamondtriangles.svg	6	yes	57	0	409	6	5	antiphase_hc_osi.wav	2	6	2	noise_calib_stim_LEFT.wav	1	3	blb_dichoticlistening_ba-ga.mp3	ba	ga	1	right
6.6.1	win	2023-06-01	23:43:21	23:56:05	761860	6090578fb2299eacaec32b7a	2	1	main_z	24	main_z	157	stimuli_distractor_trianglediamonds.svg	stimuli_target_squaretriangles.svg	11	yes	44	1	619	6	5	antiphase_hc_osi.wav	2	6	2	noise_calib_stim_LEFT.wav	1	3	blb_dichoticlistening_ba-ga.mp3	ba	ga	1	right
6.6.1	win	2023-06-01	23:43:21	23:56:05	761860	6090578fb2299eacaec32b7a	2	1	main_z	24	advance_on_keypress_ZEE	158	stimuli_distractor_trianglediamonds.svg	stimuli_target_squaretriangles.svg	11	yes	57	0	413	6	5	antiphase_hc_osi.wav	2	6	2	noise_calib_stim_LEFT.wav	1	3	blb_dichoticlistening_ba-ga.mp3	ba	ga	1	right
6.6.1	win	2023-06-01	23:43:21	23:56:08	764916	6090578fb2299eacaec32b7a	2	1	main_z	24	main_z	159	stimuli_distractor_diamondtriangles.svg	stimuli_distractor_trianglediamonds.svg	37	no	0	1	2000	6	5	antiphase_hc_osi.wav	2	6	2	noise_calib_stim_LEFT.wav	1	3	blb_dichoticlistening_ba-ga.mp3	ba	ga	1	right
6.6.1	win	2023-06-01	23:43:21	23:56:08	764916	6090578fb2299eacaec32b7a	2	1	main_z	24	advance_on_keypress_ZEE	160	stimuli_distractor_diamondtriangles.svg	stimuli_distractor_trianglediamonds.svg	37	no	57	0	898	6	5	antiphase_hc_osi.wav	2	6	2	noise_calib_stim_LEFT.wav	1	3	blb_dichoticlistening_ba-ga.mp3	ba	ga	1	right
6.6.1	win	2023-06-01	23:43:21	23:56:26	783459	6090578fb2299eacaec32b7a	2	1	practice_slash	26	practice_slash	1	stimuli_distractor_trianglediamonds.svg	stimuli_target_diamondrectangles.svg	12	yes	53	1	452	6	5	antiphase_hc_osi.wav	2	6	2	noise_calib_stim_LEFT.wav	1	3	blb_dichoticlistening_ba-ga.mp3	ba	ga	1	right
6.6.1	win	2023-06-01	23:43:21	23:56:26	783459	6090578fb2299eacaec32b7a	2	1	practice_slash	26	advance_on_keypress_SLASH	2	stimuli_distractor_trianglediamonds.svg	stimuli_target_diamondrectangles.svg	12	yes	57	0	1840	6	5	antiphase_hc_osi.wav	2	6	2	noise_calib_stim_LEFT.wav	1	3	blb_dichoticlistening_ba-ga.mp3	ba	ga	1	right
6.6.1	win	2023-06-01	23:43:21	23:56:30	787468	6090578fb2299eacaec32b7a	2	1	practice_slash	26	practice_slash	3	stimuli_distractor_trianglediamonds.svg	stimuli_target_rectanglediamonds.svg	10	yes	53	1	550	6	5	antiphase_hc_osi.wav	2	6	2	noise_calib_stim_LEFT.wav	1	3	blb_dichoticlistening_ba-ga.mp3	ba	ga	1	right
6.6.1	win	2023-06-01	23:43:21	23:56:30	787468	6090578fb2299eacaec32b7a	2	1	practice_slash	26	advance_on_keypress_SLASH	4	stimuli_distractor_trianglediamonds.svg	stimuli_target_rectanglediamonds.svg	10	yes	57	0	512	6	5	antiphase_hc_osi.wav	2	6	2	noise_calib_stim_LEFT.wav	1	3	blb_dichoticlistening_ba-ga.mp3	ba	ga	1	right
6.6.1	win	2023-06-01	23:43:21	23:56:33	790095	6090578fb2299eacaec32b7a	2	1	practice_slash	26	practice_slash	5	stimuli_distractor_trianglediamonds.svg	stimuli_target_squarediamonds.svg	11	yes	53	1	470	6	5	antiphase_hc_osi.wav	2	6	2	noise_calib_stim_LEFT.wav	1	3	blb_dichoticlistening_ba-ga.mp3	ba	ga	1	right
6.6.1	win	2023-06-01	23:43:21	23:56:33	790095	6090578fb2299eacaec32b7a	2	1	practice_slash	26	advance_on_keypress_SLASH	6	stimuli_distractor_trianglediamonds.svg	stimuli_target_squarediamonds.svg	11	yes	57	0	470	6	5	antiphase_hc_osi.wav	2	6	2	noise_calib_stim_LEFT.wav	1	3	blb_dichoticlistening_ba-ga.mp3	ba	ga	1	right
6.6.1	win	2023-06-01	23:43:21	23:56:35	792733	6090578fb2299eacaec32b7a	2	1	practice_slash	26	practice_slash	7	stimuli_target_rectanglediamonds.svg	stimuli_distractor_trianglediamonds.svg	4	yes	53	1	519	6	5	antiphase_hc_osi.wav	2	6	2	noise_calib_stim_LEFT.wav	1	3	blb_dichoticlistening_ba-ga.mp3	ba	ga	1	right
6.6.1	win	2023-06-01	23:43:21	23:56:35	792733	6090578fb2299eacaec32b7a	2	1	practice_slash	26	advance_on_keypress_SLASH	8	stimuli_target_rectanglediamonds.svg	stimuli_distractor_trianglediamonds.svg	4	yes	57	0	796	6	5	antiphase_hc_osi.wav	2	6	2	noise_calib_stim_LEFT.wav	1	3	blb_dichoticlistening_ba-ga.mp3	ba	ga	1	right
6.6.1	win	2023-06-01	23:43:21	23:56:38	795652	6090578fb2299eacaec32b7a	2	1	practice_slash	26	practice_slash	9	stimuli_distractor_diamondtriangles.svg	stimuli_target_trianglerectangles.svg	9	yes	53	1	486	6	5	antiphase_hc_osi.wav	2	6	2	noise_calib_stim_LEFT.wav	1	3	blb_dichoticlistening_ba-ga.mp3	ba	ga	1	right
6.6.1	win	2023-06-01	23:43:21	23:56:38	795652	6090578fb2299eacaec32b7a	2	1	practice_slash	26	advance_on_keypress_SLASH	10	stimuli_distractor_diamondtriangles.svg	stimuli_target_trianglerectangles.svg	9	yes	57	0	395	6	5	antiphase_hc_osi.wav	2	6	2	noise_calib_stim_LEFT.wav	1	3	blb_dichoticlistening_ba-ga.mp3	ba	ga	1	right
6.6.1	win	2023-06-01	23:43:21	23:56:42	799662	6090578fb2299eacaec32b7a	2	1	practice_slash	26	practice_slash	11	stimuli_distractor_diamondtriangles.svg	stimuli_distractor_diamondtriangles.svg	13	no	0	1	2000	6	5	antiphase_hc_osi.wav	2	6	2	noise_calib_stim_LEFT.wav	1	3	blb_dichoticlistening_ba-ga.mp3	ba	ga	1	right
6.6.1	win	2023-06-01	23:43:21	23:56:42	799662	6090578fb2299eacaec32b7a	2	1	practice_slash	26	advance_on_keypress_SLASH	12	stimuli_distractor_diamondtriangles.svg	stimuli_distractor_diamondtriangles.svg	13	no	57	0	837	6	5	antiphase_hc_osi.wav	2	6	2	noise_calib_stim_LEFT.wav	1	3	blb_dichoticlistening_ba-ga.mp3	ba	ga	1	right
6.6.1	win	2023-06-01	23:43:21	23:56:45	802577	6090578fb2299eacaec32b7a	2	1	practice_slash	26	practice_slash	13	stimuli_target_rectanglediamonds.svg	stimuli_distractor_diamondtriangles.svg	1	yes	53	1	420	6	5	antiphase_hc_osi.wav	2	6	2	noise_calib_stim_LEFT.wav	1	3	blb_dichoticlistening_ba-ga.mp3	ba	ga	1	right
6.6.1	win	2023-06-01	23:43:21	23:56:45	802577	6090578fb2299eacaec32b7a	2	1	practice_slash	26	advance_on_keypress_SLASH	14	stimuli_target_rectanglediamonds.svg	stimuli_distractor_diamondtriangles.svg	1	yes	57	0	1058	6	5	antiphase_hc_osi.wav	2	6	2	noise_calib_stim_LEFT.wav	1	3	blb_dichoticlistening_ba-ga.mp3	ba	ga	1	right
6.6.1	win	2023-06-01	23:43:21	23:56:49	805801	6090578fb2299eacaec32b7a	2	1	practice_slash	26	practice_slash	15	stimuli_target_diamondsquares.svg	stimuli_distractor_diamondtriangles.svg	3	yes	53	1	540	6	5	antiphase_hc_osi.wav	2	6	2	noise_calib_stim_LEFT.wav	1	3	blb_dichoticlistening_ba-ga.mp3	ba	ga	1	right
6.6.1	win	2023-06-01	23:43:21	23:56:49	805801	6090578fb2299eacaec32b7a	2	1	practice_slash	26	advance_on_keypress_SLASH	16	stimuli_target_diamondsquares.svg	stimuli_distractor_diamondtriangles.svg	3	yes	57	0	552	6	5	antiphase_hc_osi.wav	2	6	2	noise_calib_stim_LEFT.wav	1	3	blb_dichoticlistening_ba-ga.mp3	ba	ga	1	right
6.6.1	win	2023-06-01	23:43:21	23:56:53	809989	6090578fb2299eacaec32b7a	2	1	practice_slash	26	practice_slash	17	stimuli_distractor_diamondtriangles.svg	stimuli_distractor_trianglediamonds.svg	14	no	0	1	2000	6	5	antiphase_hc_osi.wav	2	6	2	noise_calib_stim_LEFT.wav	1	3	blb_dichoticlistening_ba-ga.mp3	ba	ga	1	right
6.6.1	win	2023-06-01	23:43:21	23:56:53	809989	6090578fb2299eacaec32b7a	2	1	practice_slash	26	advance_on_keypress_SLASH	18	stimuli_distractor_diamondtriangles.svg	stimuli_distractor_trianglediamonds.svg	14	no	57	0	253	6	5	antiphase_hc_osi.wav	2	6	2	noise_calib_stim_LEFT.wav	1	3	blb_dichoticlistening_ba-ga.mp3	ba	ga	1	right
6.6.1	win	2023-06-01	23:43:21	23:56:55	812318	6090578fb2299eacaec32b7a	2	1	practice_slash	26	practice_slash	19	stimuli_distractor_diamondtriangles.svg	stimuli_target_diamondrectangles.svg	8	yes	53	1	448	6	5	antiphase_hc_osi.wav	2	6	2	noise_calib_stim_LEFT.wav	1	3	blb_dichoticlistening_ba-ga.mp3	ba	ga	1	right
6.6.1	win	2023-06-01	23:43:21	23:56:55	812318	6090578fb2299eacaec32b7a	2	1	practice_slash	26	advance_on_keypress_SLASH	20	stimuli_distractor_diamondtriangles.svg	stimuli_target_diamondrectangles.svg	8	yes	57	0	681	6	5	antiphase_hc_osi.wav	2	6	2	noise_calib_stim_LEFT.wav	1	3	blb_dichoticlistening_ba-ga.mp3	ba	ga	1	right
