build	computer.platform	date	time	timestamp	time_elapsed_ms	subject	group	session	blockcode	blocknum	trialcode	trialnum	stimulus_left	stimulus_right	stim_index	target_present	response	correct	latency	headphonecheck_countTestTrials	headphonecheck_index	headphonecheck_testSound	headphonecheck_correctResponse	stereocheck_countTestTrials	stereocheck_index	stereocheck_testSound	stereocheck_correctResponse	DL_index	DL_soundfile	DL_leftSound	DL_rightSound	DL_dualSound	DL_choice
6.6.1	win	2023-06-27	21:28:38	21:32:09	202753	641364d0e4356f62a8c4532d	4	1	practice_z	5	practice_z	1	stimuli_distractor_diamondtriangles.svg	stimuli_distractor_diamondtriangles.svg	13	no	0	1	2000	0	0			0	0			1				0	
6.6.1	win	2023-06-27	21:28:38	21:32:09	202753	641364d0e4356f62a8c4532d	4	1	practice_z	5	advance_on_keypress_ZEE	2	stimuli_distractor_diamondtriangles.svg	stimuli_distractor_diamondtriangles.svg	13	no	57	0	1518	0	0			0	0			1				0	
6.6.1	win	2023-06-27	21:28:38	21:32:14	207549	641364d0e4356f62a8c4532d	4	1	practice_z	5	practice_z	3	stimuli_distractor_diamondtriangles.svg	stimuli_target_trianglerectangles.svg	9	yes	44	1	1183	0	0			0	0			1				0	
6.6.1	win	2023-06-27	21:28:38	21:32:14	207549	641364d0e4356f62a8c4532d	4	1	practice_z	5	advance_on_keypress_ZEE	4	stimuli_distractor_diamondtriangles.svg	stimuli_target_trianglerectangles.svg	9	yes	57	0	718	0	0			0	0			1				0	
6.6.1	win	2023-06-27	21:28:38	21:32:18	211958	641364d0e4356f62a8c4532d	4	1	practice_z	5	practice_z	5	stimuli_distractor_trianglediamonds.svg	stimuli_distractor_trianglediamonds.svg	15	no	0	1	2000	0	0			0	0			1				0	
6.6.1	win	2023-06-27	21:28:38	21:32:18	211958	641364d0e4356f62a8c4532d	4	1	practice_z	5	advance_on_keypress_ZEE	6	stimuli_distractor_trianglediamonds.svg	stimuli_distractor_trianglediamonds.svg	15	no	57	0	766	0	0			0	0			1				0	
6.6.1	win	2023-06-27	21:28:38	21:32:22	215115	641364d0e4356f62a8c4532d	4	1	practice_z	5	practice_z	7	stimuli_target_rectanglediamonds.svg	stimuli_distractor_trianglediamonds.svg	4	yes	44	1	720	0	0			0	0			1				0	
6.6.1	win	2023-06-27	21:28:38	21:32:22	215115	641364d0e4356f62a8c4532d	4	1	practice_z	5	advance_on_keypress_ZEE	8	stimuli_target_rectanglediamonds.svg	stimuli_distractor_trianglediamonds.svg	4	yes	57	0	724	0	0			0	0			1				0	
6.6.1	win	2023-06-27	21:28:38	21:32:25	218241	641364d0e4356f62a8c4532d	4	1	practice_z	5	practice_z	9	stimuli_target_squarediamonds.svg	stimuli_distractor_diamondtriangles.svg	2	yes	44	1	744	0	0			0	0			1				0	
6.6.1	win	2023-06-27	21:28:38	21:32:25	218241	641364d0e4356f62a8c4532d	4	1	practice_z	5	advance_on_keypress_ZEE	10	stimuli_target_squarediamonds.svg	stimuli_distractor_diamondtriangles.svg	2	yes	57	0	373	0	0			0	0			1				0	
6.6.1	win	2023-06-27	21:28:38	21:32:28	221795	641364d0e4356f62a8c4532d	4	1	practice_z	5	practice_z	11	stimuli_distractor_diamondtriangles.svg	stimuli_target_rectangletriangles.svg	7	yes	44	1	1515	0	0			0	0			1				0	
6.6.1	win	2023-06-27	21:28:38	21:32:28	221795	641364d0e4356f62a8c4532d	4	1	practice_z	5	advance_on_keypress_ZEE	12	stimuli_distractor_diamondtriangles.svg	stimuli_target_rectangletriangles.svg	7	yes	57	0	545	0	0			0	0			1				0	
6.6.1	win	2023-06-27	21:28:38	21:32:32	225231	641364d0e4356f62a8c4532d	4	1	practice_z	5	practice_z	13	stimuli_distractor_trianglediamonds.svg	stimuli_target_diamondrectangles.svg	12	yes	44	1	1225	0	0			0	0			1				0	
6.6.1	win	2023-06-27	21:28:38	21:32:32	225231	641364d0e4356f62a8c4532d	4	1	practice_z	5	advance_on_keypress_ZEE	14	stimuli_distractor_trianglediamonds.svg	stimuli_target_diamondrectangles.svg	12	yes	57	0	605	0	0			0	0			1				0	
6.6.1	win	2023-06-27	21:28:38	21:32:36	229505	641364d0e4356f62a8c4532d	4	1	practice_z	5	practice_z	15	stimuli_distractor_trianglediamonds.svg	stimuli_distractor_diamondtriangles.svg	16	no	0	1	2000	0	0			0	0			1				0	
6.6.1	win	2023-06-27	21:28:38	21:32:36	229505	641364d0e4356f62a8c4532d	4	1	practice_z	5	advance_on_keypress_ZEE	16	stimuli_distractor_trianglediamonds.svg	stimuli_distractor_diamondtriangles.svg	16	no	57	0	345	0	0			0	0			1				0	
6.6.1	win	2023-06-27	21:28:38	21:32:39	232115	641364d0e4356f62a8c4532d	4	1	practice_z	5	practice_z	17	stimuli_target_squarediamonds.svg	stimuli_distractor_trianglediamonds.svg	5	yes	44	1	611	0	0			0	0			1				0	
6.6.1	win	2023-06-27	21:28:38	21:32:39	232115	641364d0e4356f62a8c4532d	4	1	practice_z	5	advance_on_keypress_ZEE	18	stimuli_target_squarediamonds.svg	stimuli_distractor_trianglediamonds.svg	5	yes	57	0	457	0	0			0	0			1				0	
6.6.1	win	2023-06-27	21:28:38	21:32:41	234826	641364d0e4356f62a8c4532d	4	1	practice_z	5	practice_z	19	stimuli_distractor_trianglediamonds.svg	stimuli_target_squarediamonds.svg	11	yes	44	1	591	0	0			0	0			1				0	
6.6.1	win	2023-06-27	21:28:38	21:32:41	234826	641364d0e4356f62a8c4532d	4	1	practice_z	5	advance_on_keypress_ZEE	20	stimuli_distractor_trianglediamonds.svg	stimuli_target_squarediamonds.svg	11	yes	57	0	498	0	0			0	0			1				0	
6.6.1	win	2023-06-27	21:28:38	21:32:44	237694	641364d0e4356f62a8c4532d	4	1	practice_z	5	practice_z	21	stimuli_target_rectanglediamonds.svg	stimuli_distractor_diamondtriangles.svg	1	yes	44	1	712	0	0			0	0			1				0	
6.6.1	win	2023-06-27	21:28:38	21:32:44	237694	641364d0e4356f62a8c4532d	4	1	practice_z	5	advance_on_keypress_ZEE	22	stimuli_target_rectanglediamonds.svg	stimuli_distractor_diamondtriangles.svg	1	yes	57	0	359	0	0			0	0			1				0	
6.6.1	win	2023-06-27	21:28:38	21:32:48	241338	641364d0e4356f62a8c4532d	4	1	practice_z	5	practice_z	23	stimuli_target_diamondsquares.svg	stimuli_distractor_trianglediamonds.svg	6	yes	44	1	1619	0	0			0	0			1				0	
6.6.1	win	2023-06-27	21:28:38	21:32:48	241338	641364d0e4356f62a8c4532d	4	1	practice_z	5	advance_on_keypress_ZEE	24	stimuli_target_diamondsquares.svg	stimuli_distractor_trianglediamonds.svg	6	yes	57	0	423	0	0			0	0			1				0	
6.6.1	win	2023-06-27	21:28:38	21:32:51	244243	641364d0e4356f62a8c4532d	4	1	practice_z	5	practice_z	25	stimuli_distractor_trianglediamonds.svg	stimuli_target_rectanglediamonds.svg	10	yes	44	1	800	0	0			0	0			1				0	
6.6.1	win	2023-06-27	21:28:38	21:32:51	244243	641364d0e4356f62a8c4532d	4	1	practice_z	5	advance_on_keypress_ZEE	26	stimuli_distractor_trianglediamonds.svg	stimuli_target_rectanglediamonds.svg	10	yes	57	0	425	0	0			0	0			1				0	
6.6.1	win	2023-06-27	21:28:38	21:32:54	247167	641364d0e4356f62a8c4532d	4	1	practice_z	5	practice_z	27	stimuli_target_diamondsquares.svg	stimuli_distractor_diamondtriangles.svg	3	yes	44	1	836	0	0			0	0			1				0	
6.6.1	win	2023-06-27	21:28:38	21:32:54	247167	641364d0e4356f62a8c4532d	4	1	practice_z	5	advance_on_keypress_ZEE	28	stimuli_target_diamondsquares.svg	stimuli_distractor_diamondtriangles.svg	3	yes	57	0	420	0	0			0	0			1				0	
6.6.1	win	2023-06-27	21:28:38	21:32:57	250485	641364d0e4356f62a8c4532d	4	1	practice_z	5	practice_z	29	stimuli_distractor_diamondtriangles.svg	stimuli_target_diamondrectangles.svg	8	yes	44	1	1216	0	0			0	0			1				0	
6.6.1	win	2023-06-27	21:28:38	21:32:57	250485	641364d0e4356f62a8c4532d	4	1	practice_z	5	advance_on_keypress_ZEE	30	stimuli_distractor_diamondtriangles.svg	stimuli_target_diamondrectangles.svg	8	yes	57	0	410	0	0			0	0			1				0	
6.6.1	win	2023-06-27	21:28:38	21:33:01	254575	641364d0e4356f62a8c4532d	4	1	practice_z	5	practice_z	31	stimuli_distractor_diamondtriangles.svg	stimuli_distractor_trianglediamonds.svg	14	no	0	1	2000	0	0			0	0			1				0	
6.6.1	win	2023-06-27	21:28:38	21:33:01	254575	641364d0e4356f62a8c4532d	4	1	practice_z	5	advance_on_keypress_ZEE	32	stimuli_distractor_diamondtriangles.svg	stimuli_distractor_trianglediamonds.svg	14	no	57	0	467	0	0			0	0			1				0	
6.6.1	win	2023-06-27	21:28:38	21:33:14	267267	641364d0e4356f62a8c4532d	4	1	main_z	7	main_z	1	stimuli_distractor_trianglediamonds.svg	stimuli_distractor_diamondtriangles.svg	36	no	0	1	2000	0	0			0	0			1				0	
6.6.1	win	2023-06-27	21:28:38	21:33:14	267267	641364d0e4356f62a8c4532d	4	1	main_z	7	advance_on_keypress_ZEE	2	stimuli_distractor_trianglediamonds.svg	stimuli_distractor_diamondtriangles.svg	36	no	57	0	656	0	0			0	0			1				0	
6.6.1	win	2023-06-27	21:28:38	21:33:16	269170	641364d0e4356f62a8c4532d	4	1	main_z	7	main_z	3	stimuli_target_squarediamonds.svg	stimuli_distractor_trianglediamonds.svg	4	yes	44	1	604	0	0			0	0			1				0	
6.6.1	win	2023-06-27	21:28:38	21:33:16	269170	641364d0e4356f62a8c4532d	4	1	main_z	7	advance_on_keypress_ZEE	4	stimuli_target_squarediamonds.svg	stimuli_distractor_trianglediamonds.svg	4	yes	57	0	1153	0	0			0	0			1				0	
6.6.1	win	2023-06-27	21:28:38	21:33:19	272964	641364d0e4356f62a8c4532d	4	1	main_z	7	main_z	5	stimuli_distractor_trianglediamonds.svg	stimuli_distractor_trianglediamonds.svg	34	no	0	1	2000	0	0			0	0			1				0	
6.6.1	win	2023-06-27	21:28:38	21:33:19	272964	641364d0e4356f62a8c4532d	4	1	main_z	7	advance_on_keypress_ZEE	6	stimuli_distractor_trianglediamonds.svg	stimuli_distractor_trianglediamonds.svg	34	no	57	0	433	0	0			0	0			1				0	
6.6.1	win	2023-06-27	21:28:38	21:33:22	276046	641364d0e4356f62a8c4532d	4	1	main_z	7	main_z	7	stimuli_target_trianglerectangles.svg	stimuli_distractor_diamondtriangles.svg	21	yes	0	0	2000	0	0			0	0			1				0	
6.6.1	win	2023-06-27	21:28:38	21:33:22	276046	641364d0e4356f62a8c4532d	4	1	main_z	7	advance_on_keypress_ZEE	8	stimuli_target_trianglerectangles.svg	stimuli_distractor_diamondtriangles.svg	21	yes	57	0	397	0	0			0	0			1				0	
6.6.1	win	2023-06-27	21:28:38	21:33:24	277912	641364d0e4356f62a8c4532d	4	1	main_z	7	main_z	9	stimuli_distractor_diamondtriangles.svg	stimuli_target_trianglesquares.svg	30	yes	44	1	799	0	0			0	0			1				0	
6.6.1	win	2023-06-27	21:28:38	21:33:24	277912	641364d0e4356f62a8c4532d	4	1	main_z	7	advance_on_keypress_ZEE	10	stimuli_distractor_diamondtriangles.svg	stimuli_target_trianglesquares.svg	30	yes	57	0	588	0	0			0	0			1				0	
6.6.1	win	2023-06-27	21:28:38	21:33:26	280064	641364d0e4356f62a8c4532d	4	1	main_z	7	main_z	11	stimuli_target_trianglesquares.svg	stimuli_distractor_diamondtriangles.svg	22	yes	44	1	917	0	0			0	0			1				0	
6.6.1	win	2023-06-27	21:28:38	21:33:26	280064	641364d0e4356f62a8c4532d	4	1	main_z	7	advance_on_keypress_ZEE	12	stimuli_target_trianglesquares.svg	stimuli_distractor_diamondtriangles.svg	22	yes	57	0	604	0	0			0	0			1				0	
6.6.1	win	2023-06-27	21:28:38	21:33:29	282231	641364d0e4356f62a8c4532d	4	1	main_z	7	main_z	13	stimuli_distractor_trianglediamonds.svg	stimuli_target_trianglesquares.svg	26	yes	44	1	921	0	0			0	0			1				0	
6.6.1	win	2023-06-27	21:28:38	21:33:29	282231	641364d0e4356f62a8c4532d	4	1	main_z	7	advance_on_keypress_ZEE	14	stimuli_distractor_trianglediamonds.svg	stimuli_target_trianglesquares.svg	26	yes	57	0	758	0	0			0	0			1				0	
6.6.1	win	2023-06-27	21:28:38	21:33:31	284525	641364d0e4356f62a8c4532d	4	1	main_z	7	main_z	15	stimuli_target_trianglesquares.svg	stimuli_distractor_trianglediamonds.svg	18	yes	44	1	883	0	0			0	0			1				0	
6.6.1	win	2023-06-27	21:28:38	21:33:31	284525	641364d0e4356f62a8c4532d	4	1	main_z	7	advance_on_keypress_ZEE	16	stimuli_target_trianglesquares.svg	stimuli_distractor_trianglediamonds.svg	18	yes	57	0	505	0	0			0	0			1				0	
6.6.1	win	2023-06-27	21:28:38	21:33:33	286552	641364d0e4356f62a8c4532d	4	1	main_z	7	main_z	17	stimuli_distractor_trianglediamonds.svg	stimuli_target_diamondsquares.svg	28	yes	44	1	875	0	0			0	0			1				0	
6.6.1	win	2023-06-27	21:28:38	21:33:33	286552	641364d0e4356f62a8c4532d	4	1	main_z	7	advance_on_keypress_ZEE	18	stimuli_distractor_trianglediamonds.svg	stimuli_target_diamondsquares.svg	28	yes	57	0	757	0	0			0	0			1				0	
6.6.1	win	2023-06-27	21:28:38	21:33:36	289957	641364d0e4356f62a8c4532d	4	1	main_z	7	main_z	19	stimuli_distractor_trianglediamonds.svg	stimuli_distractor_diamondtriangles.svg	35	no	0	1	2000	0	0			0	0			1				0	
6.6.1	win	2023-06-27	21:28:38	21:33:36	289957	641364d0e4356f62a8c4532d	4	1	main_z	7	advance_on_keypress_ZEE	20	stimuli_distractor_trianglediamonds.svg	stimuli_distractor_diamondtriangles.svg	35	no	57	0	555	0	0			0	0			1				0	
6.6.1	win	2023-06-27	21:28:38	21:33:40	293159	641364d0e4356f62a8c4532d	4	1	main_z	7	main_z	21	stimuli_distractor_diamondtriangles.svg	stimuli_distractor_diamondtriangles.svg	40	no	0	1	2000	0	0			0	0			1				0	
6.6.1	win	2023-06-27	21:28:38	21:33:40	293159	641364d0e4356f62a8c4532d	4	1	main_z	7	advance_on_keypress_ZEE	22	stimuli_distractor_diamondtriangles.svg	stimuli_distractor_diamondtriangles.svg	40	no	57	0	560	0	0			0	0			1				0	
6.6.1	win	2023-06-27	21:28:38	21:33:42	295179	641364d0e4356f62a8c4532d	4	1	main_z	7	main_z	23	stimuli_target_rectangletriangles.svg	stimuli_distractor_trianglediamonds.svg	1	yes	44	1	823	0	0			0	0			1				0	
6.6.1	win	2023-06-27	21:28:38	21:33:42	295179	641364d0e4356f62a8c4532d	4	1	main_z	7	advance_on_keypress_ZEE	24	stimuli_target_rectangletriangles.svg	stimuli_distractor_trianglediamonds.svg	1	yes	57	0	821	0	0			0	0			1				0	
6.6.1	win	2023-06-27	21:28:38	21:33:44	297418	641364d0e4356f62a8c4532d	4	1	main_z	7	main_z	25	stimuli_distractor_diamondtriangles.svg	stimuli_target_squaretriangles.svg	15	yes	44	1	781	0	0			0	0			1				0	
6.6.1	win	2023-06-27	21:28:38	21:33:44	297418	641364d0e4356f62a8c4532d	4	1	main_z	7	advance_on_keypress_ZEE	26	stimuli_distractor_diamondtriangles.svg	stimuli_target_squaretriangles.svg	15	yes	57	0	570	0	0			0	0			1				0	
6.6.1	win	2023-06-27	21:28:38	21:33:46	299464	641364d0e4356f62a8c4532d	4	1	main_z	7	main_z	27	stimuli_distractor_trianglediamonds.svg	stimuli_target_squaretriangles.svg	11	yes	44	1	828	0	0			0	0			1				0	
6.6.1	win	2023-06-27	21:28:38	21:33:46	299464	641364d0e4356f62a8c4532d	4	1	main_z	7	advance_on_keypress_ZEE	28	stimuli_distractor_trianglediamonds.svg	stimuli_target_squaretriangles.svg	11	yes	57	0	611	0	0			0	0			1				0	
6.6.1	win	2023-06-27	21:28:38	21:33:48	302046	641364d0e4356f62a8c4532d	4	1	main_z	7	main_z	29	stimuli_target_trianglerectangles.svg	stimuli_distractor_trianglediamonds.svg	17	yes	44	1	1311	0	0			0	0			1				0	
6.6.1	win	2023-06-27	21:28:38	21:33:48	302046	641364d0e4356f62a8c4532d	4	1	main_z	7	advance_on_keypress_ZEE	30	stimuli_target_trianglerectangles.svg	stimuli_distractor_trianglediamonds.svg	17	yes	57	0	815	0	0			0	0			1				0	
6.6.1	win	2023-06-27	21:28:38	21:33:51	304466	641364d0e4356f62a8c4532d	4	1	main_z	7	main_z	31	stimuli_target_rectangletriangles.svg	stimuli_distractor_diamondtriangles.svg	5	yes	44	1	949	0	0			0	0			1				0	
6.6.1	win	2023-06-27	21:28:38	21:33:51	304466	641364d0e4356f62a8c4532d	4	1	main_z	7	advance_on_keypress_ZEE	32	stimuli_target_rectangletriangles.svg	stimuli_distractor_diamondtriangles.svg	5	yes	57	0	758	0	0			0	0			1				0	
6.6.1	win	2023-06-27	21:28:38	21:33:53	306680	641364d0e4356f62a8c4532d	4	1	main_z	7	main_z	33	stimuli_target_squaretriangles.svg	stimuli_distractor_trianglediamonds.svg	3	yes	44	1	815	0	0			0	0			1				0	
6.6.1	win	2023-06-27	21:28:38	21:33:53	306680	641364d0e4356f62a8c4532d	4	1	main_z	7	advance_on_keypress_ZEE	34	stimuli_target_squaretriangles.svg	stimuli_distractor_trianglediamonds.svg	3	yes	57	0	688	0	0			0	0			1				0	
6.6.1	win	2023-06-27	21:28:38	21:33:55	308839	641364d0e4356f62a8c4532d	4	1	main_z	7	main_z	35	stimuli_target_rectanglediamonds.svg	stimuli_distractor_diamondtriangles.svg	6	yes	44	1	825	0	0			0	0			1				0	
6.6.1	win	2023-06-27	21:28:38	21:33:55	308839	641364d0e4356f62a8c4532d	4	1	main_z	7	advance_on_keypress_ZEE	36	stimuli_target_rectanglediamonds.svg	stimuli_distractor_diamondtriangles.svg	6	yes	57	0	671	0	0			0	0			1				0	
6.6.1	win	2023-06-27	21:28:38	21:33:57	311002	641364d0e4356f62a8c4532d	4	1	main_z	7	main_z	37	stimuli_target_rectanglediamonds.svg	stimuli_distractor_trianglediamonds.svg	2	yes	44	1	855	0	0			0	0			1				0	
6.6.1	win	2023-06-27	21:28:38	21:33:57	311002	641364d0e4356f62a8c4532d	4	1	main_z	7	advance_on_keypress_ZEE	38	stimuli_target_rectanglediamonds.svg	stimuli_distractor_trianglediamonds.svg	2	yes	57	0	612	0	0			0	0			1				0	
6.6.1	win	2023-06-27	21:28:38	21:34:00	313165	641364d0e4356f62a8c4532d	4	1	main_z	7	main_z	39	stimuli_distractor_diamondtriangles.svg	stimuli_target_rectangletriangles.svg	13	yes	44	1	885	0	0			0	0			1				0	
6.6.1	win	2023-06-27	21:28:38	21:34:00	313165	641364d0e4356f62a8c4532d	4	1	main_z	7	advance_on_keypress_ZEE	40	stimuli_distractor_diamondtriangles.svg	stimuli_target_rectangletriangles.svg	13	yes	57	0	698	0	0			0	0			1				0	
6.6.1	win	2023-06-27	21:28:38	21:34:02	315437	641364d0e4356f62a8c4532d	4	1	main_z	7	main_z	41	stimuli_target_diamondrectangles.svg	stimuli_distractor_trianglediamonds.svg	19	yes	44	1	926	0	0			0	0			1				0	
6.6.1	win	2023-06-27	21:28:38	21:34:02	315437	641364d0e4356f62a8c4532d	4	1	main_z	7	advance_on_keypress_ZEE	42	stimuli_target_diamondrectangles.svg	stimuli_distractor_trianglediamonds.svg	19	yes	57	0	689	0	0			0	0			1				0	
6.6.1	win	2023-06-27	21:28:38	21:34:04	317546	641364d0e4356f62a8c4532d	4	1	main_z	7	main_z	43	stimuli_distractor_trianglediamonds.svg	stimuli_target_diamondrectangles.svg	27	yes	44	1	786	0	0			0	0			1				0	
6.6.1	win	2023-06-27	21:28:38	21:34:04	317546	641364d0e4356f62a8c4532d	4	1	main_z	7	advance_on_keypress_ZEE	44	stimuli_distractor_trianglediamonds.svg	stimuli_target_diamondrectangles.svg	27	yes	57	0	680	0	0			0	0			1				0	
6.6.1	win	2023-06-27	21:28:38	21:34:06	319705	641364d0e4356f62a8c4532d	4	1	main_z	7	main_z	45	stimuli_distractor_diamondtriangles.svg	stimuli_target_squarediamonds.svg	16	yes	44	1	829	0	0			0	0			1				0	
6.6.1	win	2023-06-27	21:28:38	21:34:06	319705	641364d0e4356f62a8c4532d	4	1	main_z	7	advance_on_keypress_ZEE	46	stimuli_distractor_diamondtriangles.svg	stimuli_target_squarediamonds.svg	16	yes	57	0	636	0	0			0	0			1				0	
6.6.1	win	2023-06-27	21:28:38	21:34:09	322992	641364d0e4356f62a8c4532d	4	1	main_z	7	main_z	47	stimuli_distractor_diamondtriangles.svg	stimuli_distractor_trianglediamonds.svg	37	no	0	1	2000	0	0			0	0			1				0	
6.6.1	win	2023-06-27	21:28:38	21:34:09	322992	641364d0e4356f62a8c4532d	4	1	main_z	7	advance_on_keypress_ZEE	48	stimuli_distractor_diamondtriangles.svg	stimuli_distractor_trianglediamonds.svg	37	no	57	0	420	0	0			0	0			1				0	
6.6.1	win	2023-06-27	21:28:38	21:34:11	324838	641364d0e4356f62a8c4532d	4	1	main_z	7	main_z	49	stimuli_distractor_diamondtriangles.svg	stimuli_target_diamondsquares.svg	32	yes	44	1	781	0	0			0	0			1				0	
6.6.1	win	2023-06-27	21:28:38	21:34:11	324838	641364d0e4356f62a8c4532d	4	1	main_z	7	advance_on_keypress_ZEE	50	stimuli_distractor_diamondtriangles.svg	stimuli_target_diamondsquares.svg	32	yes	57	0	627	0	0			0	0			1				0	
6.6.1	win	2023-06-27	21:28:38	21:34:14	328106	641364d0e4356f62a8c4532d	4	1	main_z	7	main_z	51	stimuli_distractor_trianglediamonds.svg	stimuli_distractor_trianglediamonds.svg	33	no	0	1	2000	0	0			0	0			1				0	
6.6.1	win	2023-06-27	21:28:38	21:34:14	328106	641364d0e4356f62a8c4532d	4	1	main_z	7	advance_on_keypress_ZEE	52	stimuli_distractor_trianglediamonds.svg	stimuli_distractor_trianglediamonds.svg	33	no	57	0	481	0	0			0	0			1				0	
6.6.1	win	2023-06-27	21:28:38	21:34:16	329997	641364d0e4356f62a8c4532d	4	1	main_z	7	main_z	53	stimuli_target_squarediamonds.svg	stimuli_distractor_diamondtriangles.svg	8	yes	44	1	760	0	0			0	0			1				0	
6.6.1	win	2023-06-27	21:28:38	21:34:16	329997	641364d0e4356f62a8c4532d	4	1	main_z	7	advance_on_keypress_ZEE	54	stimuli_target_squarediamonds.svg	stimuli_distractor_diamondtriangles.svg	8	yes	57	0	496	0	0			0	0			1				0	
6.6.1	win	2023-06-27	21:28:38	21:34:19	332239	641364d0e4356f62a8c4532d	4	1	main_z	7	main_z	55	stimuli_distractor_diamondtriangles.svg	stimuli_distractor_trianglediamonds.svg	38	no	44	0	1102	0	0			0	0			1				0	
6.6.1	win	2023-06-27	21:28:38	21:34:19	332239	641364d0e4356f62a8c4532d	4	1	main_z	7	advance_on_keypress_ZEE	56	stimuli_distractor_diamondtriangles.svg	stimuli_distractor_trianglediamonds.svg	38	no	57	0	560	0	0			0	0			1				0	
6.6.1	win	2023-06-27	21:28:38	21:34:21	334221	641364d0e4356f62a8c4532d	4	1	main_z	7	main_z	57	stimuli_distractor_trianglediamonds.svg	stimuli_target_rectanglediamonds.svg	10	yes	44	1	784	0	0			0	0			1				0	
6.6.1	win	2023-06-27	21:28:38	21:34:21	334221	641364d0e4356f62a8c4532d	4	1	main_z	7	advance_on_keypress_ZEE	58	stimuli_distractor_trianglediamonds.svg	stimuli_target_rectanglediamonds.svg	10	yes	57	0	557	0	0			0	0			1				0	
6.6.1	win	2023-06-27	21:28:38	21:34:23	336247	641364d0e4356f62a8c4532d	4	1	main_z	7	main_z	59	stimuli_target_diamondrectangles.svg	stimuli_distractor_diamondtriangles.svg	23	yes	44	1	829	0	0			0	0			1				0	
6.6.1	win	2023-06-27	21:28:38	21:34:23	336247	641364d0e4356f62a8c4532d	4	1	main_z	7	advance_on_keypress_ZEE	60	stimuli_target_diamondrectangles.svg	stimuli_distractor_diamondtriangles.svg	23	yes	57	0	538	0	0			0	0			1				0	
6.6.1	win	2023-06-27	21:28:38	21:34:25	338273	641364d0e4356f62a8c4532d	4	1	main_z	7	main_z	61	stimuli_distractor_trianglediamonds.svg	stimuli_target_rectangletriangles.svg	9	yes	44	1	823	0	0			0	0			1				0	
6.6.1	win	2023-06-27	21:28:38	21:34:25	338273	641364d0e4356f62a8c4532d	4	1	main_z	7	advance_on_keypress_ZEE	62	stimuli_distractor_trianglediamonds.svg	stimuli_target_rectangletriangles.svg	9	yes	57	0	563	0	0			0	0			1				0	
6.6.1	win	2023-06-27	21:28:38	21:34:27	340241	641364d0e4356f62a8c4532d	4	1	main_z	7	main_z	63	stimuli_distractor_diamondtriangles.svg	stimuli_target_diamondrectangles.svg	31	yes	44	1	758	0	0			0	0			1				0	
6.6.1	win	2023-06-27	21:28:38	21:34:27	340241	641364d0e4356f62a8c4532d	4	1	main_z	7	advance_on_keypress_ZEE	64	stimuli_distractor_diamondtriangles.svg	stimuli_target_diamondrectangles.svg	31	yes	57	0	562	0	0			0	0			1				0	
6.6.1	win	2023-06-27	21:28:38	21:34:30	343449	641364d0e4356f62a8c4532d	4	1	main_z	7	main_z	65	stimuli_distractor_diamondtriangles.svg	stimuli_distractor_diamondtriangles.svg	39	no	0	1	2000	0	0			0	0			1				0	
6.6.1	win	2023-06-27	21:28:38	21:34:30	343449	641364d0e4356f62a8c4532d	4	1	main_z	7	advance_on_keypress_ZEE	66	stimuli_distractor_diamondtriangles.svg	stimuli_distractor_diamondtriangles.svg	39	no	57	0	375	0	0			0	0			1				0	
6.6.1	win	2023-06-27	21:28:38	21:34:32	345292	641364d0e4356f62a8c4532d	4	1	main_z	7	main_z	67	stimuli_target_squaretriangles.svg	stimuli_distractor_diamondtriangles.svg	7	yes	44	1	827	0	0			0	0			1				0	
6.6.1	win	2023-06-27	21:28:38	21:34:32	345292	641364d0e4356f62a8c4532d	4	1	main_z	7	advance_on_keypress_ZEE	68	stimuli_target_squaretriangles.svg	stimuli_distractor_diamondtriangles.svg	7	yes	57	0	675	0	0			0	0			1				0	
6.6.1	win	2023-06-27	21:28:38	21:34:34	347468	641364d0e4356f62a8c4532d	4	1	main_z	7	main_z	69	stimuli_target_diamondsquares.svg	stimuli_distractor_trianglediamonds.svg	20	yes	44	1	855	0	0			0	0			1				0	
6.6.1	win	2023-06-27	21:28:38	21:34:34	347468	641364d0e4356f62a8c4532d	4	1	main_z	7	advance_on_keypress_ZEE	70	stimuli_target_diamondsquares.svg	stimuli_distractor_trianglediamonds.svg	20	yes	57	0	647	0	0			0	0			1				0	
6.6.1	win	2023-06-27	21:28:38	21:34:36	349502	641364d0e4356f62a8c4532d	4	1	main_z	7	main_z	71	stimuli_distractor_trianglediamonds.svg	stimuli_target_squarediamonds.svg	12	yes	44	1	740	0	0			0	0			1				0	
6.6.1	win	2023-06-27	21:28:38	21:34:36	349502	641364d0e4356f62a8c4532d	4	1	main_z	7	advance_on_keypress_ZEE	72	stimuli_distractor_trianglediamonds.svg	stimuli_target_squarediamonds.svg	12	yes	57	0	587	0	0			0	0			1				0	
6.6.1	win	2023-06-27	21:28:38	21:34:38	351518	641364d0e4356f62a8c4532d	4	1	main_z	7	main_z	73	stimuli_distractor_diamondtriangles.svg	stimuli_target_trianglerectangles.svg	29	yes	44	1	790	0	0			0	0			1				0	
6.6.1	win	2023-06-27	21:28:38	21:34:38	351518	641364d0e4356f62a8c4532d	4	1	main_z	7	advance_on_keypress_ZEE	74	stimuli_distractor_diamondtriangles.svg	stimuli_target_trianglerectangles.svg	29	yes	57	0	597	0	0			0	0			1				0	
6.6.1	win	2023-06-27	21:28:38	21:34:40	353523	641364d0e4356f62a8c4532d	4	1	main_z	7	main_z	75	stimuli_distractor_diamondtriangles.svg	stimuli_target_rectanglediamonds.svg	14	yes	44	1	762	0	0			0	0			1				0	
6.6.1	win	2023-06-27	21:28:38	21:34:40	353523	641364d0e4356f62a8c4532d	4	1	main_z	7	advance_on_keypress_ZEE	76	stimuli_distractor_diamondtriangles.svg	stimuli_target_rectanglediamonds.svg	14	yes	57	0	553	0	0			0	0			1				0	
6.6.1	win	2023-06-27	21:28:38	21:34:42	355455	641364d0e4356f62a8c4532d	4	1	main_z	7	main_z	77	stimuli_target_diamondsquares.svg	stimuli_distractor_diamondtriangles.svg	24	yes	44	1	729	0	0			0	0			1				0	
6.6.1	win	2023-06-27	21:28:38	21:34:42	355455	641364d0e4356f62a8c4532d	4	1	main_z	7	advance_on_keypress_ZEE	78	stimuli_target_diamondsquares.svg	stimuli_distractor_diamondtriangles.svg	24	yes	57	0	554	0	0			0	0			1				0	
6.6.1	win	2023-06-27	21:28:38	21:34:44	357558	641364d0e4356f62a8c4532d	4	1	main_z	7	main_z	79	stimuli_distractor_trianglediamonds.svg	stimuli_target_trianglerectangles.svg	25	yes	44	1	900	0	0			0	0			1				0	
6.6.1	win	2023-06-27	21:28:38	21:34:44	357558	641364d0e4356f62a8c4532d	4	1	main_z	7	advance_on_keypress_ZEE	80	stimuli_distractor_trianglediamonds.svg	stimuli_target_trianglerectangles.svg	25	yes	57	0	630	0	0			0	0			1				0	
6.6.1	win	2023-06-27	21:28:38	21:34:46	359660	641364d0e4356f62a8c4532d	4	1	main_z	7	main_z	81	stimuli_distractor_trianglediamonds.svg	stimuli_target_trianglesquares.svg	26	yes	44	1	818	0	0			0	0			1				0	
6.6.1	win	2023-06-27	21:28:38	21:34:46	359660	641364d0e4356f62a8c4532d	4	1	main_z	7	advance_on_keypress_ZEE	82	stimuli_distractor_trianglediamonds.svg	stimuli_target_trianglesquares.svg	26	yes	57	0	616	0	0			0	0			1				0	
6.6.1	win	2023-06-27	21:28:38	21:34:48	361631	641364d0e4356f62a8c4532d	4	1	main_z	7	main_z	83	stimuli_target_squaretriangles.svg	stimuli_distractor_trianglediamonds.svg	3	yes	44	1	708	0	0			0	0			1				0	
6.6.1	win	2023-06-27	21:28:38	21:34:48	361631	641364d0e4356f62a8c4532d	4	1	main_z	7	advance_on_keypress_ZEE	84	stimuli_target_squaretriangles.svg	stimuli_distractor_trianglediamonds.svg	3	yes	57	0	576	0	0			0	0			1				0	
6.6.1	win	2023-06-27	21:28:38	21:34:50	363598	641364d0e4356f62a8c4532d	4	1	main_z	7	main_z	85	stimuli_target_rectanglediamonds.svg	stimuli_distractor_diamondtriangles.svg	6	yes	44	1	742	0	0			0	0			1				0	
6.6.1	win	2023-06-27	21:28:38	21:34:50	363598	641364d0e4356f62a8c4532d	4	1	main_z	7	advance_on_keypress_ZEE	86	stimuli_target_rectanglediamonds.svg	stimuli_distractor_diamondtriangles.svg	6	yes	57	0	583	0	0			0	0			1				0	
6.6.1	win	2023-06-27	21:28:38	21:34:52	365562	641364d0e4356f62a8c4532d	4	1	main_z	7	main_z	87	stimuli_distractor_trianglediamonds.svg	stimuli_target_squaretriangles.svg	11	yes	44	1	739	0	0			0	0			1				0	
6.6.1	win	2023-06-27	21:28:38	21:34:52	365562	641364d0e4356f62a8c4532d	4	1	main_z	7	advance_on_keypress_ZEE	88	stimuli_distractor_trianglediamonds.svg	stimuli_target_squaretriangles.svg	11	yes	57	0	561	0	0			0	0			1				0	
6.6.1	win	2023-06-27	21:28:38	21:34:54	367480	641364d0e4356f62a8c4532d	4	1	main_z	7	main_z	89	stimuli_distractor_diamondtriangles.svg	stimuli_target_squaretriangles.svg	15	yes	44	1	710	0	0			0	0			1				0	
6.6.1	win	2023-06-27	21:28:38	21:34:54	367480	641364d0e4356f62a8c4532d	4	1	main_z	7	advance_on_keypress_ZEE	90	stimuli_distractor_diamondtriangles.svg	stimuli_target_squaretriangles.svg	15	yes	57	0	534	0	0			0	0			1				0	
6.6.1	win	2023-06-27	21:28:38	21:34:56	369389	641364d0e4356f62a8c4532d	4	1	main_z	7	main_z	91	stimuli_target_trianglesquares.svg	stimuli_distractor_diamondtriangles.svg	22	yes	44	1	736	0	0			0	0			1				0	
6.6.1	win	2023-06-27	21:28:38	21:34:56	369389	641364d0e4356f62a8c4532d	4	1	main_z	7	advance_on_keypress_ZEE	92	stimuli_target_trianglesquares.svg	stimuli_distractor_diamondtriangles.svg	22	yes	57	0	556	0	0			0	0			1				0	
6.6.1	win	2023-06-27	21:28:38	21:34:58	371362	641364d0e4356f62a8c4532d	4	1	main_z	7	main_z	93	stimuli_target_diamondrectangles.svg	stimuli_distractor_diamondtriangles.svg	23	yes	44	1	776	0	0			0	0			1				0	
6.6.1	win	2023-06-27	21:28:38	21:34:58	371362	641364d0e4356f62a8c4532d	4	1	main_z	7	advance_on_keypress_ZEE	94	stimuli_target_diamondrectangles.svg	stimuli_distractor_diamondtriangles.svg	23	yes	57	0	530	0	0			0	0			1				0	
6.6.1	win	2023-06-27	21:28:38	21:35:01	374535	641364d0e4356f62a8c4532d	4	1	main_z	7	main_z	95	stimuli_target_trianglerectangles.svg	stimuli_distractor_trianglediamonds.svg	17	yes	0	0	2000	0	0			0	0			1				0	
6.6.1	win	2023-06-27	21:28:38	21:35:01	374535	641364d0e4356f62a8c4532d	4	1	main_z	7	advance_on_keypress_ZEE	96	stimuli_target_trianglerectangles.svg	stimuli_distractor_trianglediamonds.svg	17	yes	57	0	421	0	0			0	0			1				0	
6.6.1	win	2023-06-27	21:28:38	21:35:03	376302	641364d0e4356f62a8c4532d	4	1	main_z	7	main_z	97	stimuli_target_squarediamonds.svg	stimuli_distractor_diamondtriangles.svg	8	yes	44	1	702	0	0			0	0			1				0	
6.6.1	win	2023-06-27	21:28:38	21:35:03	376302	641364d0e4356f62a8c4532d	4	1	main_z	7	advance_on_keypress_ZEE	98	stimuli_target_squarediamonds.svg	stimuli_distractor_diamondtriangles.svg	8	yes	57	0	484	0	0			0	0			1				0	
6.6.1	win	2023-06-27	21:28:38	21:35:06	379435	641364d0e4356f62a8c4532d	4	1	main_z	7	main_z	99	stimuli_distractor_trianglediamonds.svg	stimuli_distractor_diamondtriangles.svg	35	no	0	1	2000	0	0			0	0			1				0	
6.6.1	win	2023-06-27	21:28:38	21:35:06	379435	641364d0e4356f62a8c4532d	4	1	main_z	7	advance_on_keypress_ZEE	100	stimuli_distractor_trianglediamonds.svg	stimuli_distractor_diamondtriangles.svg	35	no	57	0	319	0	0			0	0			1				0	
6.6.1	win	2023-06-27	21:28:38	21:35:07	381106	641364d0e4356f62a8c4532d	4	1	main_z	7	main_z	101	stimuli_distractor_trianglediamonds.svg	stimuli_target_rectanglediamonds.svg	10	yes	44	1	708	0	0			0	0			1				0	
6.6.1	win	2023-06-27	21:28:38	21:35:07	381106	641364d0e4356f62a8c4532d	4	1	main_z	7	advance_on_keypress_ZEE	102	stimuli_distractor_trianglediamonds.svg	stimuli_target_rectanglediamonds.svg	10	yes	57	0	495	0	0			0	0			1				0	
6.6.1	win	2023-06-27	21:28:38	21:35:09	382977	641364d0e4356f62a8c4532d	4	1	main_z	7	main_z	103	stimuli_distractor_diamondtriangles.svg	stimuli_target_squarediamonds.svg	16	yes	44	1	730	0	0			0	0			1				0	
6.6.1	win	2023-06-27	21:28:38	21:35:09	382977	641364d0e4356f62a8c4532d	4	1	main_z	7	advance_on_keypress_ZEE	104	stimuli_distractor_diamondtriangles.svg	stimuli_target_squarediamonds.svg	16	yes	57	0	503	0	0			0	0			1				0	
6.6.1	win	2023-06-27	21:28:38	21:35:11	384900	641364d0e4356f62a8c4532d	4	1	main_z	7	main_z	105	stimuli_distractor_trianglediamonds.svg	stimuli_target_diamondrectangles.svg	27	yes	44	1	771	0	0			0	0			1				0	
6.6.1	win	2023-06-27	21:28:38	21:35:11	384900	641364d0e4356f62a8c4532d	4	1	main_z	7	advance_on_keypress_ZEE	106	stimuli_distractor_trianglediamonds.svg	stimuli_target_diamondrectangles.svg	27	yes	57	0	500	0	0			0	0			1				0	
6.6.1	win	2023-06-27	21:28:38	21:35:14	388045	641364d0e4356f62a8c4532d	4	1	main_z	7	main_z	107	stimuli_distractor_trianglediamonds.svg	stimuli_distractor_diamondtriangles.svg	36	no	0	1	2000	0	0			0	0			1				0	
6.6.1	win	2023-06-27	21:28:38	21:35:14	388045	641364d0e4356f62a8c4532d	4	1	main_z	7	advance_on_keypress_ZEE	108	stimuli_distractor_trianglediamonds.svg	stimuli_distractor_diamondtriangles.svg	36	no	57	0	505	0	0			0	0			1				0	
6.6.1	win	2023-06-27	21:28:38	21:35:16	389977	641364d0e4356f62a8c4532d	4	1	main_z	7	main_z	109	stimuli_target_squarediamonds.svg	stimuli_distractor_trianglediamonds.svg	4	yes	44	1	783	0	0			0	0			1				0	
6.6.1	win	2023-06-27	21:28:38	21:35:16	389977	641364d0e4356f62a8c4532d	4	1	main_z	7	advance_on_keypress_ZEE	110	stimuli_target_squarediamonds.svg	stimuli_distractor_trianglediamonds.svg	4	yes	57	0	563	0	0			0	0			1				0	
6.6.1	win	2023-06-27	21:28:38	21:35:18	392048	641364d0e4356f62a8c4532d	4	1	main_z	7	main_z	111	stimuli_target_diamondsquares.svg	stimuli_distractor_trianglediamonds.svg	20	yes	44	1	855	0	0			0	0			1				0	
6.6.1	win	2023-06-27	21:28:38	21:35:18	392048	641364d0e4356f62a8c4532d	4	1	main_z	7	advance_on_keypress_ZEE	112	stimuli_target_diamondsquares.svg	stimuli_distractor_trianglediamonds.svg	20	yes	57	0	486	0	0			0	0			1				0	
6.6.1	win	2023-06-27	21:28:38	21:35:20	393958	641364d0e4356f62a8c4532d	4	1	main_z	7	main_z	113	stimuli_target_rectanglediamonds.svg	stimuli_distractor_trianglediamonds.svg	2	yes	44	1	782	0	0			0	0			1				0	
6.6.1	win	2023-06-27	21:28:38	21:35:20	393958	641364d0e4356f62a8c4532d	4	1	main_z	7	advance_on_keypress_ZEE	114	stimuli_target_rectanglediamonds.svg	stimuli_distractor_trianglediamonds.svg	2	yes	57	0	433	0	0			0	0			1				0	
6.6.1	win	2023-06-27	21:28:38	21:35:23	397041	641364d0e4356f62a8c4532d	4	1	main_z	7	main_z	115	stimuli_distractor_diamondtriangles.svg	stimuli_distractor_diamondtriangles.svg	39	no	0	1	2000	0	0			0	0			1				0	
6.6.1	win	2023-06-27	21:28:38	21:35:23	397041	641364d0e4356f62a8c4532d	4	1	main_z	7	advance_on_keypress_ZEE	116	stimuli_distractor_diamondtriangles.svg	stimuli_distractor_diamondtriangles.svg	39	no	57	0	331	0	0			0	0			1				0	
6.6.1	win	2023-06-27	21:28:38	21:35:25	398693	641364d0e4356f62a8c4532d	4	1	main_z	7	main_z	117	stimuli_target_trianglerectangles.svg	stimuli_distractor_diamondtriangles.svg	21	yes	44	1	669	0	0			0	0			1				0	
6.6.1	win	2023-06-27	21:28:38	21:35:25	398693	641364d0e4356f62a8c4532d	4	1	main_z	7	advance_on_keypress_ZEE	118	stimuli_target_trianglerectangles.svg	stimuli_distractor_diamondtriangles.svg	21	yes	57	0	443	0	0			0	0			1				0	
6.6.1	win	2023-06-27	21:28:38	21:35:27	400486	641364d0e4356f62a8c4532d	4	1	main_z	7	main_z	119	stimuli_target_diamondrectangles.svg	stimuli_distractor_trianglediamonds.svg	19	yes	44	1	714	0	0			0	0			1				0	
6.6.1	win	2023-06-27	21:28:38	21:35:27	400486	641364d0e4356f62a8c4532d	4	1	main_z	7	advance_on_keypress_ZEE	120	stimuli_target_diamondrectangles.svg	stimuli_distractor_trianglediamonds.svg	19	yes	57	0	397	0	0			0	0			1				0	
6.6.1	win	2023-06-27	21:28:38	21:35:29	402214	641364d0e4356f62a8c4532d	4	1	main_z	7	main_z	121	stimuli_target_rectangletriangles.svg	stimuli_distractor_diamondtriangles.svg	5	yes	44	1	672	0	0			0	0			1				0	
6.6.1	win	2023-06-27	21:28:38	21:35:29	402214	641364d0e4356f62a8c4532d	4	1	main_z	7	advance_on_keypress_ZEE	122	stimuli_target_rectangletriangles.svg	stimuli_distractor_diamondtriangles.svg	5	yes	57	0	381	0	0			0	0			1				0	
6.6.1	win	2023-06-27	21:28:38	21:35:32	405237	641364d0e4356f62a8c4532d	4	1	main_z	7	main_z	123	stimuli_distractor_trianglediamonds.svg	stimuli_distractor_trianglediamonds.svg	34	no	0	1	2000	0	0			0	0			1				0	
6.6.1	win	2023-06-27	21:28:38	21:35:32	405237	641364d0e4356f62a8c4532d	4	1	main_z	7	advance_on_keypress_ZEE	124	stimuli_distractor_trianglediamonds.svg	stimuli_distractor_trianglediamonds.svg	34	no	57	0	380	0	0			0	0			1				0	
6.6.1	win	2023-06-27	21:28:38	21:35:33	406852	641364d0e4356f62a8c4532d	4	1	main_z	7	main_z	125	stimuli_distractor_trianglediamonds.svg	stimuli_target_squarediamonds.svg	12	yes	44	1	583	0	0			0	0			1				0	
6.6.1	win	2023-06-27	21:28:38	21:35:33	406852	641364d0e4356f62a8c4532d	4	1	main_z	7	advance_on_keypress_ZEE	126	stimuli_distractor_trianglediamonds.svg	stimuli_target_squarediamonds.svg	12	yes	57	0	437	0	0			0	0			1				0	
6.6.1	win	2023-06-27	21:28:38	21:35:36	409936	641364d0e4356f62a8c4532d	4	1	main_z	7	main_z	127	stimuli_distractor_diamondtriangles.svg	stimuli_distractor_trianglediamonds.svg	37	no	0	1	2000	0	0			0	0			1				0	
6.6.1	win	2023-06-27	21:28:38	21:35:36	409936	641364d0e4356f62a8c4532d	4	1	main_z	7	advance_on_keypress_ZEE	128	stimuli_distractor_diamondtriangles.svg	stimuli_distractor_trianglediamonds.svg	37	no	57	0	418	0	0			0	0			1				0	
6.6.1	win	2023-06-27	21:28:38	21:35:38	411692	641364d0e4356f62a8c4532d	4	1	main_z	7	main_z	129	stimuli_distractor_diamondtriangles.svg	stimuli_target_trianglerectangles.svg	29	yes	44	1	692	0	0			0	0			1				0	
6.6.1	win	2023-06-27	21:28:38	21:35:38	411692	641364d0e4356f62a8c4532d	4	1	main_z	7	advance_on_keypress_ZEE	130	stimuli_distractor_diamondtriangles.svg	stimuli_target_trianglerectangles.svg	29	yes	57	0	406	0	0			0	0			1				0	
6.6.1	win	2023-06-27	21:28:38	21:35:41	414750	641364d0e4356f62a8c4532d	4	1	main_z	7	main_z	131	stimuli_distractor_trianglediamonds.svg	stimuli_distractor_trianglediamonds.svg	33	no	0	1	2000	0	0			0	0			1				0	
6.6.1	win	2023-06-27	21:28:38	21:35:41	414750	641364d0e4356f62a8c4532d	4	1	main_z	7	advance_on_keypress_ZEE	132	stimuli_distractor_trianglediamonds.svg	stimuli_distractor_trianglediamonds.svg	33	no	57	0	302	0	0			0	0			1				0	
6.6.1	win	2023-06-27	21:28:38	21:35:43	416355	641364d0e4356f62a8c4532d	4	1	main_z	7	main_z	133	stimuli_distractor_trianglediamonds.svg	stimuli_target_diamondsquares.svg	28	yes	44	1	657	0	0			0	0			1				0	
6.6.1	win	2023-06-27	21:28:38	21:35:43	416355	641364d0e4356f62a8c4532d	4	1	main_z	7	advance_on_keypress_ZEE	134	stimuli_distractor_trianglediamonds.svg	stimuli_target_diamondsquares.svg	28	yes	57	0	419	0	0			0	0			1				0	
6.6.1	win	2023-06-27	21:28:38	21:35:46	419415	641364d0e4356f62a8c4532d	4	1	main_z	7	main_z	135	stimuli_distractor_diamondtriangles.svg	stimuli_distractor_trianglediamonds.svg	38	no	0	1	2000	0	0			0	0			1				0	
6.6.1	win	2023-06-27	21:28:38	21:35:46	419415	641364d0e4356f62a8c4532d	4	1	main_z	7	advance_on_keypress_ZEE	136	stimuli_distractor_diamondtriangles.svg	stimuli_distractor_trianglediamonds.svg	38	no	57	0	308	0	0			0	0			1				0	
6.6.1	win	2023-06-27	21:28:38	21:35:48	421265	641364d0e4356f62a8c4532d	4	1	main_z	7	main_z	137	stimuli_distractor_trianglediamonds.svg	stimuli_target_rectangletriangles.svg	9	yes	44	1	901	0	0			0	0			1				0	
6.6.1	win	2023-06-27	21:28:38	21:35:48	421265	641364d0e4356f62a8c4532d	4	1	main_z	7	advance_on_keypress_ZEE	138	stimuli_distractor_trianglediamonds.svg	stimuli_target_rectangletriangles.svg	9	yes	57	0	304	0	0			0	0			1				0	
6.6.1	win	2023-06-27	21:28:38	21:35:49	423051	641364d0e4356f62a8c4532d	4	1	main_z	7	main_z	139	stimuli_distractor_diamondtriangles.svg	stimuli_target_trianglesquares.svg	30	yes	44	1	838	0	0			0	0			1				0	
6.6.1	win	2023-06-27	21:28:38	21:35:49	423051	641364d0e4356f62a8c4532d	4	1	main_z	7	advance_on_keypress_ZEE	140	stimuli_distractor_diamondtriangles.svg	stimuli_target_trianglesquares.svg	30	yes	57	0	327	0	0			0	0			1				0	
6.6.1	win	2023-06-27	21:28:38	21:35:51	424740	641364d0e4356f62a8c4532d	4	1	main_z	7	main_z	141	stimuli_distractor_trianglediamonds.svg	stimuli_target_trianglerectangles.svg	25	yes	44	1	729	0	0			0	0			1				0	
6.6.1	win	2023-06-27	21:28:38	21:35:51	424740	641364d0e4356f62a8c4532d	4	1	main_z	7	advance_on_keypress_ZEE	142	stimuli_distractor_trianglediamonds.svg	stimuli_target_trianglerectangles.svg	25	yes	57	0	336	0	0			0	0			1				0	
6.6.1	win	2023-06-27	21:28:38	21:35:53	426337	641364d0e4356f62a8c4532d	4	1	main_z	7	main_z	143	stimuli_distractor_diamondtriangles.svg	stimuli_target_diamondrectangles.svg	31	yes	44	1	610	0	0			0	0			1				0	
6.6.1	win	2023-06-27	21:28:38	21:35:53	426337	641364d0e4356f62a8c4532d	4	1	main_z	7	advance_on_keypress_ZEE	144	stimuli_distractor_diamondtriangles.svg	stimuli_target_diamondrectangles.svg	31	yes	57	0	301	0	0			0	0			1				0	
6.6.1	win	2023-06-27	21:28:38	21:35:54	427941	641364d0e4356f62a8c4532d	4	1	main_z	7	main_z	145	stimuli_distractor_diamondtriangles.svg	stimuli_target_diamondsquares.svg	32	yes	44	1	648	0	0			0	0			1				0	
6.6.1	win	2023-06-27	21:28:38	21:35:54	427941	641364d0e4356f62a8c4532d	4	1	main_z	7	advance_on_keypress_ZEE	146	stimuli_distractor_diamondtriangles.svg	stimuli_target_diamondsquares.svg	32	yes	57	0	240	0	0			0	0			1				0	
6.6.1	win	2023-06-27	21:28:38	21:35:56	429460	641364d0e4356f62a8c4532d	4	1	main_z	7	main_z	147	stimuli_target_diamondsquares.svg	stimuli_distractor_diamondtriangles.svg	24	yes	44	1	634	0	0			0	0			1				0	
6.6.1	win	2023-06-27	21:28:38	21:35:56	429460	641364d0e4356f62a8c4532d	4	1	main_z	7	advance_on_keypress_ZEE	148	stimuli_target_diamondsquares.svg	stimuli_distractor_diamondtriangles.svg	24	yes	57	0	251	0	0			0	0			1				0	
6.6.1	win	2023-06-27	21:28:38	21:35:57	430896	641364d0e4356f62a8c4532d	4	1	main_z	7	main_z	149	stimuli_target_rectangletriangles.svg	stimuli_distractor_trianglediamonds.svg	1	yes	44	1	538	0	0			0	0			1				0	
6.6.1	win	2023-06-27	21:28:38	21:35:57	430896	641364d0e4356f62a8c4532d	4	1	main_z	7	advance_on_keypress_ZEE	150	stimuli_target_rectangletriangles.svg	stimuli_distractor_trianglediamonds.svg	1	yes	57	0	300	0	0			0	0			1				0	
6.6.1	win	2023-06-27	21:28:38	21:35:59	432355	641364d0e4356f62a8c4532d	4	1	main_z	7	main_z	151	stimuli_target_trianglesquares.svg	stimuli_distractor_trianglediamonds.svg	18	yes	44	1	504	0	0			0	0			1				0	
6.6.1	win	2023-06-27	21:28:38	21:35:59	432355	641364d0e4356f62a8c4532d	4	1	main_z	7	advance_on_keypress_ZEE	152	stimuli_target_trianglesquares.svg	stimuli_distractor_trianglediamonds.svg	18	yes	57	0	203	0	0			0	0			1				0	
6.6.1	win	2023-06-27	21:28:38	21:36:00	433803	641364d0e4356f62a8c4532d	4	1	main_z	7	main_z	153	stimuli_distractor_diamondtriangles.svg	stimuli_target_rectangletriangles.svg	13	yes	44	1	594	0	0			0	0			1				0	
6.6.1	win	2023-06-27	21:28:38	21:36:00	433803	641364d0e4356f62a8c4532d	4	1	main_z	7	advance_on_keypress_ZEE	154	stimuli_distractor_diamondtriangles.svg	stimuli_target_rectangletriangles.svg	13	yes	57	0	241	0	0			0	0			1				0	
6.6.1	win	2023-06-27	21:28:38	21:36:02	435251	641364d0e4356f62a8c4532d	4	1	main_z	7	main_z	155	stimuli_distractor_diamondtriangles.svg	stimuli_target_rectanglediamonds.svg	14	yes	44	1	560	0	0			0	0			1				0	
6.6.1	win	2023-06-27	21:28:38	21:36:02	435251	641364d0e4356f62a8c4532d	4	1	main_z	7	advance_on_keypress_ZEE	156	stimuli_distractor_diamondtriangles.svg	stimuli_target_rectanglediamonds.svg	14	yes	57	0	216	0	0			0	0			1				0	
6.6.1	win	2023-06-27	21:28:38	21:36:05	438123	641364d0e4356f62a8c4532d	4	1	main_z	7	main_z	157	stimuli_distractor_diamondtriangles.svg	stimuli_distractor_diamondtriangles.svg	40	no	0	1	2000	0	0			0	0			1				0	
6.6.1	win	2023-06-27	21:28:38	21:36:05	438123	641364d0e4356f62a8c4532d	4	1	main_z	7	advance_on_keypress_ZEE	158	stimuli_distractor_diamondtriangles.svg	stimuli_distractor_diamondtriangles.svg	40	no	57	0	628	0	0			0	0			1				0	
6.6.1	win	2023-06-27	21:28:38	21:36:06	440039	641364d0e4356f62a8c4532d	4	1	main_z	7	main_z	159	stimuli_target_squaretriangles.svg	stimuli_distractor_diamondtriangles.svg	7	yes	44	1	635	0	0			0	0			1				0	
6.6.1	win	2023-06-27	21:28:38	21:36:06	440039	641364d0e4356f62a8c4532d	4	1	main_z	7	advance_on_keypress_ZEE	160	stimuli_target_squaretriangles.svg	stimuli_distractor_diamondtriangles.svg	7	yes	57	0	293	0	0			0	0			1				0	
6.6.1	win	2023-06-27	21:28:38	21:36:35	468316	641364d0e4356f62a8c4532d	4	1	practice_slash	9	practice_slash	1	stimuli_distractor_trianglediamonds.svg	stimuli_target_rectanglediamonds.svg	10	yes	53	1	620	0	0			0	0			1				0	
6.6.1	win	2023-06-27	21:28:38	21:36:35	468316	641364d0e4356f62a8c4532d	4	1	practice_slash	9	advance_on_keypress_SLASH	2	stimuli_distractor_trianglediamonds.svg	stimuli_target_rectanglediamonds.svg	10	yes	57	0	491	0	0			0	0			1				0	
6.6.1	win	2023-06-27	21:28:38	21:36:38	471148	641364d0e4356f62a8c4532d	4	1	practice_slash	9	practice_slash	3	stimuli_distractor_diamondtriangles.svg	stimuli_target_diamondrectangles.svg	8	yes	53	1	668	0	0			0	0			1				0	
6.6.1	win	2023-06-27	21:28:38	21:36:38	471148	641364d0e4356f62a8c4532d	4	1	practice_slash	9	advance_on_keypress_SLASH	4	stimuli_distractor_diamondtriangles.svg	stimuli_target_diamondrectangles.svg	8	yes	57	0	460	0	0			0	0			1				0	
6.6.1	win	2023-06-27	21:28:38	21:36:40	473855	641364d0e4356f62a8c4532d	4	1	practice_slash	9	practice_slash	5	stimuli_target_squarediamonds.svg	stimuli_distractor_trianglediamonds.svg	5	yes	53	1	596	0	0			0	0			1				0	
6.6.1	win	2023-06-27	21:28:38	21:36:40	473855	641364d0e4356f62a8c4532d	4	1	practice_slash	9	advance_on_keypress_SLASH	6	stimuli_target_squarediamonds.svg	stimuli_distractor_trianglediamonds.svg	5	yes	57	0	324	0	0			0	0			1				0	
6.6.1	win	2023-06-27	21:28:38	21:36:43	476615	641364d0e4356f62a8c4532d	4	1	practice_slash	9	practice_slash	7	stimuli_target_rectanglediamonds.svg	stimuli_distractor_diamondtriangles.svg	1	yes	53	1	775	0	0			0	0			1				0	
6.6.1	win	2023-06-27	21:28:38	21:36:43	476615	641364d0e4356f62a8c4532d	4	1	practice_slash	9	advance_on_keypress_SLASH	8	stimuli_target_rectanglediamonds.svg	stimuli_distractor_diamondtriangles.svg	1	yes	57	0	310	0	0			0	0			1				0	
6.6.1	win	2023-06-27	21:28:38	21:36:46	479363	641364d0e4356f62a8c4532d	4	1	practice_slash	9	practice_slash	9	stimuli_distractor_diamondtriangles.svg	stimuli_target_rectangletriangles.svg	7	yes	53	1	787	0	0			0	0			1				0	
6.6.1	win	2023-06-27	21:28:38	21:36:46	479363	641364d0e4356f62a8c4532d	4	1	practice_slash	9	advance_on_keypress_SLASH	10	stimuli_distractor_diamondtriangles.svg	stimuli_target_rectangletriangles.svg	7	yes	57	0	281	0	0			0	0			1				0	
6.6.1	win	2023-06-27	21:28:38	21:36:48	482074	641364d0e4356f62a8c4532d	4	1	practice_slash	9	practice_slash	11	stimuli_target_diamondsquares.svg	stimuli_distractor_trianglediamonds.svg	6	yes	53	1	785	0	0			0	0			1				0	
6.6.1	win	2023-06-27	21:28:38	21:36:48	482074	641364d0e4356f62a8c4532d	4	1	practice_slash	9	advance_on_keypress_SLASH	12	stimuli_target_diamondsquares.svg	stimuli_distractor_trianglediamonds.svg	6	yes	57	0	292	0	0			0	0			1				0	
6.6.1	win	2023-06-27	21:28:38	21:36:51	484884	641364d0e4356f62a8c4532d	4	1	practice_slash	9	practice_slash	13	stimuli_distractor_diamondtriangles.svg	stimuli_distractor_diamondtriangles.svg	13	no	53	0	863	0	0			0	0			1				0	
6.6.1	win	2023-06-27	21:28:38	21:36:51	484884	641364d0e4356f62a8c4532d	4	1	practice_slash	9	advance_on_keypress_SLASH	14	stimuli_distractor_diamondtriangles.svg	stimuli_distractor_diamondtriangles.svg	13	no	57	0	512	0	0			0	0			1				0	
6.6.1	win	2023-06-27	21:28:38	21:36:55	489052	641364d0e4356f62a8c4532d	4	1	practice_slash	9	practice_slash	15	stimuli_distractor_trianglediamonds.svg	stimuli_distractor_trianglediamonds.svg	15	no	0	1	2000	0	0			0	0			1				0	
6.6.1	win	2023-06-27	21:28:38	21:36:55	489052	641364d0e4356f62a8c4532d	4	1	practice_slash	9	advance_on_keypress_SLASH	16	stimuli_distractor_trianglediamonds.svg	stimuli_distractor_trianglediamonds.svg	15	no	57	0	282	0	0			0	0			1				0	
6.6.1	win	2023-06-27	21:28:38	21:36:59	492984	641364d0e4356f62a8c4532d	4	1	practice_slash	9	practice_slash	17	stimuli_distractor_trianglediamonds.svg	stimuli_distractor_diamondtriangles.svg	16	no	0	1	2000	0	0			0	0			1				0	
6.6.1	win	2023-06-27	21:28:38	21:36:59	492984	641364d0e4356f62a8c4532d	4	1	practice_slash	9	advance_on_keypress_SLASH	18	stimuli_distractor_trianglediamonds.svg	stimuli_distractor_diamondtriangles.svg	16	no	57	0	433	0	0			0	0			1				0	
6.6.1	win	2023-06-27	21:28:38	21:37:02	495961	641364d0e4356f62a8c4532d	4	1	practice_slash	9	practice_slash	19	stimuli_distractor_diamondtriangles.svg	stimuli_target_trianglerectangles.svg	9	yes	53	1	895	0	0			0	0			1				0	
6.6.1	win	2023-06-27	21:28:38	21:37:02	495961	641364d0e4356f62a8c4532d	4	1	practice_slash	9	advance_on_keypress_SLASH	20	stimuli_distractor_diamondtriangles.svg	stimuli_target_trianglerectangles.svg	9	yes	57	0	553	0	0			0	0			1				0	
6.6.1	win	2023-06-27	21:28:38	21:37:06	499140	641364d0e4356f62a8c4532d	4	1	practice_slash	9	practice_slash	21	stimuli_target_squarediamonds.svg	stimuli_distractor_diamondtriangles.svg	2	yes	53	1	976	0	0			0	0			1				0	
6.6.1	win	2023-06-27	21:28:38	21:37:06	499140	641364d0e4356f62a8c4532d	4	1	practice_slash	9	advance_on_keypress_SLASH	22	stimuli_target_squarediamonds.svg	stimuli_distractor_diamondtriangles.svg	2	yes	57	0	481	0	0			0	0			1				0	
6.6.1	win	2023-06-27	21:28:38	21:37:09	502183	641364d0e4356f62a8c4532d	4	1	practice_slash	9	practice_slash	23	stimuli_target_rectanglediamonds.svg	stimuli_distractor_trianglediamonds.svg	4	yes	53	1	905	0	0			0	0			1				0	
6.6.1	win	2023-06-27	21:28:38	21:37:09	502183	641364d0e4356f62a8c4532d	4	1	practice_slash	9	advance_on_keypress_SLASH	24	stimuli_target_rectanglediamonds.svg	stimuli_distractor_trianglediamonds.svg	4	yes	57	0	458	0	0			0	0			1				0	
6.6.1	win	2023-06-27	21:28:38	21:37:11	505105	641364d0e4356f62a8c4532d	4	1	practice_slash	9	practice_slash	25	stimuli_target_diamondsquares.svg	stimuli_distractor_diamondtriangles.svg	3	yes	53	1	828	0	0			0	0			1				0	
6.6.1	win	2023-06-27	21:28:38	21:37:11	505105	641364d0e4356f62a8c4532d	4	1	practice_slash	9	advance_on_keypress_SLASH	26	stimuli_target_diamondsquares.svg	stimuli_distractor_diamondtriangles.svg	3	yes	57	0	444	0	0			0	0			1				0	
6.6.1	win	2023-06-27	21:28:38	21:37:14	508027	641364d0e4356f62a8c4532d	4	1	practice_slash	9	practice_slash	27	stimuli_distractor_trianglediamonds.svg	stimuli_target_squarediamonds.svg	11	yes	53	1	818	0	0			0	0			1				0	
6.6.1	win	2023-06-27	21:28:38	21:37:14	508027	641364d0e4356f62a8c4532d	4	1	practice_slash	9	advance_on_keypress_SLASH	28	stimuli_distractor_trianglediamonds.svg	stimuli_target_squarediamonds.svg	11	yes	57	0	356	0	0			0	0			1				0	
6.6.1	win	2023-06-27	21:28:38	21:37:17	510853	641364d0e4356f62a8c4532d	4	1	practice_slash	9	practice_slash	29	stimuli_distractor_trianglediamonds.svg	stimuli_target_diamondrectangles.svg	12	yes	53	1	811	0	0			0	0			1				0	
6.6.1	win	2023-06-27	21:28:38	21:37:17	510853	641364d0e4356f62a8c4532d	4	1	practice_slash	9	advance_on_keypress_SLASH	30	stimuli_distractor_trianglediamonds.svg	stimuli_target_diamondrectangles.svg	12	yes	57	0	621	0	0			0	0			1				0	
6.6.1	win	2023-06-27	21:28:38	21:37:22	515140	641364d0e4356f62a8c4532d	4	1	practice_slash	9	practice_slash	31	stimuli_distractor_diamondtriangles.svg	stimuli_distractor_trianglediamonds.svg	14	no	0	1	2000	0	0			0	0			1				0	
6.6.1	win	2023-06-27	21:28:38	21:37:22	515140	641364d0e4356f62a8c4532d	4	1	practice_slash	9	advance_on_keypress_SLASH	32	stimuli_distractor_diamondtriangles.svg	stimuli_distractor_trianglediamonds.svg	14	no	57	0	344	0	0			0	0			1				0	
6.6.1	win	2023-06-27	21:28:38	21:37:32	526086	641364d0e4356f62a8c4532d	4	1	main_slash	11	main_slash	1	stimuli_distractor_trianglediamonds.svg	stimuli_target_squarediamonds.svg	12	yes	53	1	721	0	0			0	0			1				0	
6.6.1	win	2023-06-27	21:28:38	21:37:32	526086	641364d0e4356f62a8c4532d	4	1	main_slash	11	advance_on_keypress_SLASH	2	stimuli_distractor_trianglediamonds.svg	stimuli_target_squarediamonds.svg	12	yes	57	0	1028	0	0			0	0			1				0	
6.6.1	win	2023-06-27	21:28:38	21:37:35	528377	641364d0e4356f62a8c4532d	4	1	main_slash	11	main_slash	3	stimuli_distractor_diamondtriangles.svg	stimuli_target_rectanglediamonds.svg	14	yes	53	1	612	0	0			0	0			1				0	
6.6.1	win	2023-06-27	21:28:38	21:37:35	528377	641364d0e4356f62a8c4532d	4	1	main_slash	11	advance_on_keypress_SLASH	4	stimuli_distractor_diamondtriangles.svg	stimuli_target_rectanglediamonds.svg	14	yes	57	0	545	0	0			0	0			1				0	
6.6.1	win	2023-06-27	21:28:38	21:37:37	530152	641364d0e4356f62a8c4532d	4	1	main_slash	11	main_slash	5	stimuli_distractor_trianglediamonds.svg	stimuli_target_trianglesquares.svg	26	yes	53	1	567	0	0			0	0			1				0	
6.6.1	win	2023-06-27	21:28:38	21:37:37	530152	641364d0e4356f62a8c4532d	4	1	main_slash	11	advance_on_keypress_SLASH	6	stimuli_distractor_trianglediamonds.svg	stimuli_target_trianglesquares.svg	26	yes	57	0	522	0	0			0	0			1				0	
6.6.1	win	2023-06-27	21:28:38	21:37:38	531951	641364d0e4356f62a8c4532d	4	1	main_slash	11	main_slash	7	stimuli_target_trianglesquares.svg	stimuli_distractor_trianglediamonds.svg	18	yes	53	1	639	0	0			0	0			1				0	
6.6.1	win	2023-06-27	21:28:38	21:37:38	531951	641364d0e4356f62a8c4532d	4	1	main_slash	11	advance_on_keypress_SLASH	8	stimuli_target_trianglesquares.svg	stimuli_distractor_trianglediamonds.svg	18	yes	57	0	527	0	0			0	0			1				0	
6.6.1	win	2023-06-27	21:28:38	21:37:40	533799	641364d0e4356f62a8c4532d	4	1	main_slash	11	main_slash	9	stimuli_target_rectangletriangles.svg	stimuli_distractor_diamondtriangles.svg	5	yes	53	1	687	0	0			0	0			1				0	
6.6.1	win	2023-06-27	21:28:38	21:37:40	533799	641364d0e4356f62a8c4532d	4	1	main_slash	11	advance_on_keypress_SLASH	10	stimuli_target_rectangletriangles.svg	stimuli_distractor_diamondtriangles.svg	5	yes	57	0	433	0	0			0	0			1				0	
6.6.1	win	2023-06-27	21:28:38	21:37:42	535732	641364d0e4356f62a8c4532d	4	1	main_slash	11	main_slash	11	stimuli_distractor_diamondtriangles.svg	stimuli_target_squaretriangles.svg	15	yes	53	1	854	0	0			0	0			1				0	
6.6.1	win	2023-06-27	21:28:38	21:37:42	535732	641364d0e4356f62a8c4532d	4	1	main_slash	11	advance_on_keypress_SLASH	12	stimuli_distractor_diamondtriangles.svg	stimuli_target_squaretriangles.svg	15	yes	57	0	431	0	0			0	0			1				0	
6.6.1	win	2023-06-27	21:28:38	21:37:44	537267	641364d0e4356f62a8c4532d	4	1	main_slash	11	main_slash	13	stimuli_target_rectangletriangles.svg	stimuli_distractor_trianglediamonds.svg	1	yes	53	1	456	0	0			0	0			1				0	
6.6.1	win	2023-06-27	21:28:38	21:37:44	537267	641364d0e4356f62a8c4532d	4	1	main_slash	11	advance_on_keypress_SLASH	14	stimuli_target_rectangletriangles.svg	stimuli_distractor_trianglediamonds.svg	1	yes	57	0	457	0	0			0	0			1				0	
6.6.1	win	2023-06-27	21:28:38	21:37:45	538864	641364d0e4356f62a8c4532d	4	1	main_slash	11	main_slash	15	stimuli_target_squarediamonds.svg	stimuli_distractor_diamondtriangles.svg	8	yes	53	1	485	0	0			0	0			1				0	
6.6.1	win	2023-06-27	21:28:38	21:37:45	538864	641364d0e4356f62a8c4532d	4	1	main_slash	11	advance_on_keypress_SLASH	16	stimuli_target_squarediamonds.svg	stimuli_distractor_diamondtriangles.svg	8	yes	57	0	332	0	0			0	0			1				0	
6.6.1	win	2023-06-27	21:28:38	21:37:47	540362	641364d0e4356f62a8c4532d	4	1	main_slash	11	main_slash	17	stimuli_distractor_trianglediamonds.svg	stimuli_target_squaretriangles.svg	11	yes	53	1	520	0	0			0	0			1				0	
6.6.1	win	2023-06-27	21:28:38	21:37:47	540362	641364d0e4356f62a8c4532d	4	1	main_slash	11	advance_on_keypress_SLASH	18	stimuli_distractor_trianglediamonds.svg	stimuli_target_squaretriangles.svg	11	yes	57	0	322	0	0			0	0			1				0	
6.6.1	win	2023-06-27	21:28:38	21:37:48	541838	641364d0e4356f62a8c4532d	4	1	main_slash	11	main_slash	19	stimuli_distractor_diamondtriangles.svg	stimuli_target_rectangletriangles.svg	13	yes	53	1	512	0	0			0	0			1				0	
6.6.1	win	2023-06-27	21:28:38	21:37:48	541838	641364d0e4356f62a8c4532d	4	1	main_slash	11	advance_on_keypress_SLASH	20	stimuli_distractor_diamondtriangles.svg	stimuli_target_rectangletriangles.svg	13	yes	57	0	345	0	0			0	0			1				0	
6.6.1	win	2023-06-27	21:28:38	21:37:51	544841	641364d0e4356f62a8c4532d	4	1	main_slash	11	main_slash	21	stimuli_distractor_trianglediamonds.svg	stimuli_distractor_trianglediamonds.svg	34	no	0	1	2000	0	0			0	0			1				0	
6.6.1	win	2023-06-27	21:28:38	21:37:51	544841	641364d0e4356f62a8c4532d	4	1	main_slash	11	advance_on_keypress_SLASH	22	stimuli_distractor_trianglediamonds.svg	stimuli_distractor_trianglediamonds.svg	34	no	57	0	319	0	0			0	0			1				0	
6.6.1	win	2023-06-27	21:28:38	21:37:54	547806	641364d0e4356f62a8c4532d	4	1	main_slash	11	main_slash	23	stimuli_distractor_trianglediamonds.svg	stimuli_distractor_diamondtriangles.svg	36	no	0	1	2000	0	0			0	0			1				0	
6.6.1	win	2023-06-27	21:28:38	21:37:54	547806	641364d0e4356f62a8c4532d	4	1	main_slash	11	advance_on_keypress_SLASH	24	stimuli_distractor_trianglediamonds.svg	stimuli_distractor_diamondtriangles.svg	36	no	57	0	246	0	0			0	0			1				0	
6.6.1	win	2023-06-27	21:28:38	21:37:56	549172	641364d0e4356f62a8c4532d	4	1	main_slash	11	main_slash	25	stimuli_target_diamondsquares.svg	stimuli_distractor_diamondtriangles.svg	24	yes	53	1	468	0	0			0	0			1				0	
6.6.1	win	2023-06-27	21:28:38	21:37:56	549172	641364d0e4356f62a8c4532d	4	1	main_slash	11	advance_on_keypress_SLASH	26	stimuli_target_diamondsquares.svg	stimuli_distractor_diamondtriangles.svg	24	yes	57	0	399	0	0			0	0			1				0	
6.6.1	win	2023-06-27	21:28:38	21:37:59	552221	641364d0e4356f62a8c4532d	4	1	main_slash	11	main_slash	27	stimuli_distractor_diamondtriangles.svg	stimuli_distractor_diamondtriangles.svg	39	no	0	1	2000	0	0			0	0			1				0	
6.6.1	win	2023-06-27	21:28:38	21:37:59	552221	641364d0e4356f62a8c4532d	4	1	main_slash	11	advance_on_keypress_SLASH	28	stimuli_distractor_diamondtriangles.svg	stimuli_distractor_diamondtriangles.svg	39	no	57	0	319	0	0			0	0			1				0	
6.6.1	win	2023-06-27	21:28:38	21:38:00	553669	641364d0e4356f62a8c4532d	4	1	main_slash	11	main_slash	29	stimuli_target_rectanglediamonds.svg	stimuli_distractor_diamondtriangles.svg	6	yes	53	1	483	0	0			0	0			1				0	
6.6.1	win	2023-06-27	21:28:38	21:38:00	553669	641364d0e4356f62a8c4532d	4	1	main_slash	11	advance_on_keypress_SLASH	30	stimuli_target_rectanglediamonds.svg	stimuli_distractor_diamondtriangles.svg	6	yes	57	0	354	0	0			0	0			1				0	
6.6.1	win	2023-06-27	21:28:38	21:38:02	555118	641364d0e4356f62a8c4532d	4	1	main_slash	11	main_slash	31	stimuli_distractor_diamondtriangles.svg	stimuli_target_trianglerectangles.svg	29	yes	53	1	450	0	0			0	0			1				0	
6.6.1	win	2023-06-27	21:28:38	21:38:02	555118	641364d0e4356f62a8c4532d	4	1	main_slash	11	advance_on_keypress_SLASH	32	stimuli_distractor_diamondtriangles.svg	stimuli_target_trianglerectangles.svg	29	yes	57	0	411	0	0			0	0			1				0	
6.6.1	win	2023-06-27	21:28:38	21:38:05	558185	641364d0e4356f62a8c4532d	4	1	main_slash	11	main_slash	33	stimuli_distractor_trianglediamonds.svg	stimuli_distractor_diamondtriangles.svg	35	no	0	1	2000	0	0			0	0			1				0	
6.6.1	win	2023-06-27	21:28:38	21:38:05	558185	641364d0e4356f62a8c4532d	4	1	main_slash	11	advance_on_keypress_SLASH	34	stimuli_distractor_trianglediamonds.svg	stimuli_distractor_diamondtriangles.svg	35	no	57	0	316	0	0			0	0			1				0	
6.6.1	win	2023-06-27	21:28:38	21:38:06	559552	641364d0e4356f62a8c4532d	4	1	main_slash	11	main_slash	35	stimuli_target_squaretriangles.svg	stimuli_distractor_diamondtriangles.svg	7	yes	53	1	401	0	0			0	0			1				0	
6.6.1	win	2023-06-27	21:28:38	21:38:06	559552	641364d0e4356f62a8c4532d	4	1	main_slash	11	advance_on_keypress_SLASH	36	stimuli_target_squaretriangles.svg	stimuli_distractor_diamondtriangles.svg	7	yes	57	0	328	0	0			0	0			1				0	
6.6.1	win	2023-06-27	21:28:38	21:38:08	561130	641364d0e4356f62a8c4532d	4	1	main_slash	11	main_slash	37	stimuli_target_trianglesquares.svg	stimuli_distractor_diamondtriangles.svg	22	yes	53	1	598	0	0			0	0			1				0	
6.6.1	win	2023-06-27	21:28:38	21:38:08	561130	641364d0e4356f62a8c4532d	4	1	main_slash	11	advance_on_keypress_SLASH	38	stimuli_target_trianglesquares.svg	stimuli_distractor_diamondtriangles.svg	22	yes	57	0	307	0	0			0	0			1				0	
6.6.1	win	2023-06-27	21:28:38	21:38:09	562536	641364d0e4356f62a8c4532d	4	1	main_slash	11	main_slash	39	stimuli_distractor_trianglediamonds.svg	stimuli_target_diamondsquares.svg	28	yes	53	1	438	0	0			0	0			1				0	
6.6.1	win	2023-06-27	21:28:38	21:38:09	562536	641364d0e4356f62a8c4532d	4	1	main_slash	11	advance_on_keypress_SLASH	40	stimuli_distractor_trianglediamonds.svg	stimuli_target_diamondsquares.svg	28	yes	57	0	307	0	0			0	0			1				0	
6.6.1	win	2023-06-27	21:28:38	21:38:10	563862	641364d0e4356f62a8c4532d	4	1	main_slash	11	main_slash	41	stimuli_distractor_diamondtriangles.svg	stimuli_target_diamondrectangles.svg	31	yes	53	1	376	0	0			0	0			1				0	
6.6.1	win	2023-06-27	21:28:38	21:38:10	563862	641364d0e4356f62a8c4532d	4	1	main_slash	11	advance_on_keypress_SLASH	42	stimuli_distractor_diamondtriangles.svg	stimuli_target_diamondrectangles.svg	31	yes	57	0	314	0	0			0	0			1				0	
6.6.1	win	2023-06-27	21:28:38	21:38:12	565180	641364d0e4356f62a8c4532d	4	1	main_slash	11	main_slash	43	stimuli_distractor_trianglediamonds.svg	stimuli_target_diamondrectangles.svg	27	yes	53	1	350	0	0			0	0			1				0	
6.6.1	win	2023-06-27	21:28:38	21:38:12	565180	641364d0e4356f62a8c4532d	4	1	main_slash	11	advance_on_keypress_SLASH	44	stimuli_distractor_trianglediamonds.svg	stimuli_target_diamondrectangles.svg	27	yes	57	0	317	0	0			0	0			1				0	
6.6.1	win	2023-06-27	21:28:38	21:38:13	566768	641364d0e4356f62a8c4532d	4	1	main_slash	11	main_slash	45	stimuli_target_squaretriangles.svg	stimuli_distractor_trianglediamonds.svg	3	yes	53	1	621	0	0			0	0			1				0	
6.6.1	win	2023-06-27	21:28:38	21:38:13	566768	641364d0e4356f62a8c4532d	4	1	main_slash	11	advance_on_keypress_SLASH	46	stimuli_target_squaretriangles.svg	stimuli_distractor_trianglediamonds.svg	3	yes	57	0	306	0	0			0	0			1				0	
6.6.1	win	2023-06-27	21:28:38	21:38:15	568208	641364d0e4356f62a8c4532d	4	1	main_slash	11	main_slash	47	stimuli_target_diamondsquares.svg	stimuli_distractor_trianglediamonds.svg	20	yes	53	1	495	0	0			0	0			1				0	
6.6.1	win	2023-06-27	21:28:38	21:38:15	568208	641364d0e4356f62a8c4532d	4	1	main_slash	11	advance_on_keypress_SLASH	48	stimuli_target_diamondsquares.svg	stimuli_distractor_trianglediamonds.svg	20	yes	57	0	317	0	0			0	0			1				0	
6.6.1	win	2023-06-27	21:28:38	21:38:16	569578	641364d0e4356f62a8c4532d	4	1	main_slash	11	main_slash	49	stimuli_distractor_trianglediamonds.svg	stimuli_target_rectanglediamonds.svg	10	yes	53	1	399	0	0			0	0			1				0	
6.6.1	win	2023-06-27	21:28:38	21:38:16	569578	641364d0e4356f62a8c4532d	4	1	main_slash	11	advance_on_keypress_SLASH	50	stimuli_distractor_trianglediamonds.svg	stimuli_target_rectanglediamonds.svg	10	yes	57	0	290	0	0			0	0			1				0	
6.6.1	win	2023-06-27	21:28:38	21:38:17	570982	641364d0e4356f62a8c4532d	4	1	main_slash	11	main_slash	51	stimuli_distractor_trianglediamonds.svg	stimuli_target_trianglerectangles.svg	25	yes	53	1	470	0	0			0	0			1				0	
6.6.1	win	2023-06-27	21:28:38	21:38:17	570982	641364d0e4356f62a8c4532d	4	1	main_slash	11	advance_on_keypress_SLASH	52	stimuli_distractor_trianglediamonds.svg	stimuli_target_trianglerectangles.svg	25	yes	57	0	309	0	0			0	0			1				0	
6.6.1	win	2023-06-27	21:28:38	21:38:19	572316	641364d0e4356f62a8c4532d	4	1	main_slash	11	main_slash	53	stimuli_target_squarediamonds.svg	stimuli_distractor_trianglediamonds.svg	4	yes	53	1	389	0	0			0	0			1				0	
6.6.1	win	2023-06-27	21:28:38	21:38:19	572316	641364d0e4356f62a8c4532d	4	1	main_slash	11	advance_on_keypress_SLASH	54	stimuli_target_squarediamonds.svg	stimuli_distractor_trianglediamonds.svg	4	yes	57	0	566	0	0			0	0			1				0	
6.6.1	win	2023-06-27	21:28:38	21:38:20	574018	641364d0e4356f62a8c4532d	4	1	main_slash	11	main_slash	55	stimuli_target_diamondrectangles.svg	stimuli_distractor_diamondtriangles.svg	23	yes	53	1	490	0	0			0	0			1				0	
6.6.1	win	2023-06-27	21:28:38	21:38:20	574018	641364d0e4356f62a8c4532d	4	1	main_slash	11	advance_on_keypress_SLASH	56	stimuli_target_diamondrectangles.svg	stimuli_distractor_diamondtriangles.svg	23	yes	57	0	401	0	0			0	0			1				0	
6.6.1	win	2023-06-27	21:28:38	21:38:23	577060	641364d0e4356f62a8c4532d	4	1	main_slash	11	main_slash	57	stimuli_distractor_diamondtriangles.svg	stimuli_distractor_trianglediamonds.svg	37	no	0	1	2000	0	0			0	0			1				0	
6.6.1	win	2023-06-27	21:28:38	21:38:23	577060	641364d0e4356f62a8c4532d	4	1	main_slash	11	advance_on_keypress_SLASH	58	stimuli_distractor_diamondtriangles.svg	stimuli_distractor_trianglediamonds.svg	37	no	57	0	317	0	0			0	0			1				0	
6.6.1	win	2023-06-27	21:28:38	21:38:25	578539	641364d0e4356f62a8c4532d	4	1	main_slash	11	main_slash	59	stimuli_distractor_trianglediamonds.svg	stimuli_target_rectangletriangles.svg	9	yes	53	1	503	0	0			0	0			1				0	
6.6.1	win	2023-06-27	21:28:38	21:38:25	578539	641364d0e4356f62a8c4532d	4	1	main_slash	11	advance_on_keypress_SLASH	60	stimuli_distractor_trianglediamonds.svg	stimuli_target_rectangletriangles.svg	9	yes	57	0	313	0	0			0	0			1				0	
6.6.1	win	2023-06-27	21:28:38	21:38:26	580085	641364d0e4356f62a8c4532d	4	1	main_slash	11	main_slash	61	stimuli_distractor_diamondtriangles.svg	stimuli_target_squarediamonds.svg	16	yes	53	1	577	0	0			0	0			1				0	
6.6.1	win	2023-06-27	21:28:38	21:38:26	580085	641364d0e4356f62a8c4532d	4	1	main_slash	11	advance_on_keypress_SLASH	62	stimuli_distractor_diamondtriangles.svg	stimuli_target_squarediamonds.svg	16	yes	57	0	303	0	0			0	0			1				0	
6.6.1	win	2023-06-27	21:28:38	21:38:28	581699	641364d0e4356f62a8c4532d	4	1	main_slash	11	main_slash	63	stimuli_distractor_diamondtriangles.svg	stimuli_target_trianglesquares.svg	30	yes	53	1	659	0	0			0	0			1				0	
6.6.1	win	2023-06-27	21:28:38	21:38:28	581699	641364d0e4356f62a8c4532d	4	1	main_slash	11	advance_on_keypress_SLASH	64	stimuli_distractor_diamondtriangles.svg	stimuli_target_trianglesquares.svg	30	yes	57	0	293	0	0			0	0			1				0	
6.6.1	win	2023-06-27	21:28:38	21:38:30	583137	641364d0e4356f62a8c4532d	4	1	main_slash	11	main_slash	65	stimuli_target_rectanglediamonds.svg	stimuli_distractor_trianglediamonds.svg	2	yes	53	1	508	0	0			0	0			1				0	
6.6.1	win	2023-06-27	21:28:38	21:38:30	583137	641364d0e4356f62a8c4532d	4	1	main_slash	11	advance_on_keypress_SLASH	66	stimuli_target_rectanglediamonds.svg	stimuli_distractor_trianglediamonds.svg	2	yes	57	0	325	0	0			0	0			1				0	
6.6.1	win	2023-06-27	21:28:38	21:38:31	584968	641364d0e4356f62a8c4532d	4	1	main_slash	11	main_slash	67	stimuli_target_trianglerectangles.svg	stimuli_distractor_diamondtriangles.svg	21	yes	53	1	846	0	0			0	0			1				0	
6.6.1	win	2023-06-27	21:28:38	21:38:31	584968	641364d0e4356f62a8c4532d	4	1	main_slash	11	advance_on_keypress_SLASH	68	stimuli_target_trianglerectangles.svg	stimuli_distractor_diamondtriangles.svg	21	yes	57	0	324	0	0			0	0			1				0	
6.6.1	win	2023-06-27	21:28:38	21:38:34	587938	641364d0e4356f62a8c4532d	4	1	main_slash	11	main_slash	69	stimuli_distractor_diamondtriangles.svg	stimuli_distractor_diamondtriangles.svg	40	no	0	1	2000	0	0			0	0			1				0	
6.6.1	win	2023-06-27	21:28:38	21:38:34	587938	641364d0e4356f62a8c4532d	4	1	main_slash	11	advance_on_keypress_SLASH	70	stimuli_distractor_diamondtriangles.svg	stimuli_distractor_diamondtriangles.svg	40	no	57	0	421	0	0			0	0			1				0	
6.6.1	win	2023-06-27	21:28:38	21:38:36	589526	641364d0e4356f62a8c4532d	4	1	main_slash	11	main_slash	71	stimuli_distractor_diamondtriangles.svg	stimuli_target_diamondsquares.svg	32	yes	53	1	523	0	0			0	0			1				0	
6.6.1	win	2023-06-27	21:28:38	21:38:36	589526	641364d0e4356f62a8c4532d	4	1	main_slash	11	advance_on_keypress_SLASH	72	stimuli_distractor_diamondtriangles.svg	stimuli_target_diamondsquares.svg	32	yes	57	0	331	0	0			0	0			1				0	
6.6.1	win	2023-06-27	21:28:38	21:38:38	591496	641364d0e4356f62a8c4532d	4	1	main_slash	11	main_slash	73	stimuli_distractor_trianglediamonds.svg	stimuli_distractor_trianglediamonds.svg	33	no	53	0	994	0	0			0	0			1				0	
6.6.1	win	2023-06-27	21:28:38	21:38:38	591496	641364d0e4356f62a8c4532d	4	1	main_slash	11	advance_on_keypress_SLASH	74	stimuli_distractor_trianglediamonds.svg	stimuli_distractor_trianglediamonds.svg	33	no	57	0	1062	0	0			0	0			1				0	
6.6.1	win	2023-06-27	21:28:38	21:38:40	594107	641364d0e4356f62a8c4532d	4	1	main_slash	11	main_slash	75	stimuli_target_trianglerectangles.svg	stimuli_distractor_trianglediamonds.svg	17	yes	53	1	906	0	0			0	0			1				0	
6.6.1	win	2023-06-27	21:28:38	21:38:40	594107	641364d0e4356f62a8c4532d	4	1	main_slash	11	advance_on_keypress_SLASH	76	stimuli_target_trianglerectangles.svg	stimuli_distractor_trianglediamonds.svg	17	yes	57	0	376	0	0			0	0			1				0	
6.6.1	win	2023-06-27	21:28:38	21:38:42	595810	641364d0e4356f62a8c4532d	4	1	main_slash	11	main_slash	77	stimuli_target_diamondrectangles.svg	stimuli_distractor_trianglediamonds.svg	19	yes	53	1	692	0	0			0	0			1				0	
6.6.1	win	2023-06-27	21:28:38	21:38:42	595810	641364d0e4356f62a8c4532d	4	1	main_slash	11	advance_on_keypress_SLASH	78	stimuli_target_diamondrectangles.svg	stimuli_distractor_trianglediamonds.svg	19	yes	57	0	309	0	0			0	0			1				0	
6.6.1	win	2023-06-27	21:28:38	21:38:45	598767	641364d0e4356f62a8c4532d	4	1	main_slash	11	main_slash	79	stimuli_distractor_diamondtriangles.svg	stimuli_distractor_trianglediamonds.svg	38	no	0	1	2000	0	0			0	0			1				0	
6.6.1	win	2023-06-27	21:28:38	21:38:45	598767	641364d0e4356f62a8c4532d	4	1	main_slash	11	advance_on_keypress_SLASH	80	stimuli_distractor_diamondtriangles.svg	stimuli_distractor_trianglediamonds.svg	38	no	57	0	312	0	0			0	0			1				0	
6.6.1	win	2023-06-27	21:28:38	21:38:47	600504	641364d0e4356f62a8c4532d	4	1	main_slash	11	main_slash	81	stimuli_target_squaretriangles.svg	stimuli_distractor_trianglediamonds.svg	3	yes	53	1	789	0	0			0	0			1				0	
6.6.1	win	2023-06-27	21:28:38	21:38:47	600504	641364d0e4356f62a8c4532d	4	1	main_slash	11	advance_on_keypress_SLASH	82	stimuli_target_squaretriangles.svg	stimuli_distractor_trianglediamonds.svg	3	yes	57	0	494	0	0			0	0			1				0	
6.6.1	win	2023-06-27	21:28:38	21:38:49	602415	641364d0e4356f62a8c4532d	4	1	main_slash	11	main_slash	83	stimuli_target_rectanglediamonds.svg	stimuli_distractor_diamondtriangles.svg	6	yes	53	1	784	0	0			0	0			1				0	
6.6.1	win	2023-06-27	21:28:38	21:38:49	602415	641364d0e4356f62a8c4532d	4	1	main_slash	11	advance_on_keypress_SLASH	84	stimuli_target_rectanglediamonds.svg	stimuli_distractor_diamondtriangles.svg	6	yes	57	0	304	0	0			0	0			1				0	
6.6.1	win	2023-06-27	21:28:38	21:38:52	605363	641364d0e4356f62a8c4532d	4	1	main_slash	11	main_slash	85	stimuli_distractor_trianglediamonds.svg	stimuli_distractor_diamondtriangles.svg	35	no	0	1	2000	0	0			0	0			1				0	
6.6.1	win	2023-06-27	21:28:38	21:38:52	605363	641364d0e4356f62a8c4532d	4	1	main_slash	11	advance_on_keypress_SLASH	86	stimuli_distractor_trianglediamonds.svg	stimuli_distractor_diamondtriangles.svg	35	no	57	0	283	0	0			0	0			1				0	
6.6.1	win	2023-06-27	21:28:38	21:38:53	607022	641364d0e4356f62a8c4532d	4	1	main_slash	11	main_slash	87	stimuli_distractor_diamondtriangles.svg	stimuli_target_rectanglediamonds.svg	14	yes	53	1	727	0	0			0	0			1				0	
6.6.1	win	2023-06-27	21:28:38	21:38:53	607022	641364d0e4356f62a8c4532d	4	1	main_slash	11	advance_on_keypress_SLASH	88	stimuli_distractor_diamondtriangles.svg	stimuli_target_rectanglediamonds.svg	14	yes	57	0	267	0	0			0	0			1				0	
6.6.1	win	2023-06-27	21:28:38	21:38:55	608568	641364d0e4356f62a8c4532d	4	1	main_slash	11	main_slash	89	stimuli_target_diamondsquares.svg	stimuli_distractor_trianglediamonds.svg	20	yes	53	1	624	0	0			0	0			1				0	
6.6.1	win	2023-06-27	21:28:38	21:38:55	608568	641364d0e4356f62a8c4532d	4	1	main_slash	11	advance_on_keypress_SLASH	90	stimuli_target_diamondsquares.svg	stimuli_distractor_trianglediamonds.svg	20	yes	57	0	298	0	0			0	0			1				0	
6.6.1	win	2023-06-27	21:28:38	21:38:58	611511	641364d0e4356f62a8c4532d	4	1	main_slash	11	main_slash	91	stimuli_distractor_diamondtriangles.svg	stimuli_distractor_trianglediamonds.svg	37	no	0	1	2000	0	0			0	0			1				0	
6.6.1	win	2023-06-27	21:28:38	21:38:58	611511	641364d0e4356f62a8c4532d	4	1	main_slash	11	advance_on_keypress_SLASH	92	stimuli_distractor_diamondtriangles.svg	stimuli_distractor_trianglediamonds.svg	37	no	57	0	305	0	0			0	0			1				0	
6.6.1	win	2023-06-27	21:28:38	21:39:00	613174	641364d0e4356f62a8c4532d	4	1	main_slash	11	main_slash	93	stimuli_distractor_diamondtriangles.svg	stimuli_target_rectangletriangles.svg	13	yes	53	1	715	0	0			0	0			1				0	
6.6.1	win	2023-06-27	21:28:38	21:39:00	613174	641364d0e4356f62a8c4532d	4	1	main_slash	11	advance_on_keypress_SLASH	94	stimuli_distractor_diamondtriangles.svg	stimuli_target_rectangletriangles.svg	13	yes	57	0	305	0	0			0	0			1				0	
6.6.1	win	2023-06-27	21:28:38	21:39:03	616125	641364d0e4356f62a8c4532d	4	1	main_slash	11	main_slash	95	stimuli_distractor_trianglediamonds.svg	stimuli_distractor_diamondtriangles.svg	36	no	0	1	2000	0	0			0	0			1				0	
6.6.1	win	2023-06-27	21:28:38	21:39:03	616125	641364d0e4356f62a8c4532d	4	1	main_slash	11	advance_on_keypress_SLASH	96	stimuli_distractor_trianglediamonds.svg	stimuli_distractor_diamondtriangles.svg	36	no	57	0	280	0	0			0	0			1				0	
6.6.1	win	2023-06-27	21:28:38	21:39:04	617770	641364d0e4356f62a8c4532d	4	1	main_slash	11	main_slash	97	stimuli_target_rectangletriangles.svg	stimuli_distractor_trianglediamonds.svg	1	yes	53	1	712	0	0			0	0			1				0	
6.6.1	win	2023-06-27	21:28:38	21:39:04	617770	641364d0e4356f62a8c4532d	4	1	main_slash	11	advance_on_keypress_SLASH	98	stimuli_target_rectangletriangles.svg	stimuli_distractor_trianglediamonds.svg	1	yes	57	0	281	0	0			0	0			1				0	
6.6.1	win	2023-06-27	21:28:38	21:39:07	620707	641364d0e4356f62a8c4532d	4	1	main_slash	11	main_slash	99	stimuli_distractor_trianglediamonds.svg	stimuli_distractor_trianglediamonds.svg	34	no	0	1	2000	0	0			0	0			1				0	
6.6.1	win	2023-06-27	21:28:38	21:39:07	620707	641364d0e4356f62a8c4532d	4	1	main_slash	11	advance_on_keypress_SLASH	100	stimuli_distractor_trianglediamonds.svg	stimuli_distractor_trianglediamonds.svg	34	no	57	0	328	0	0			0	0			1				0	
6.6.1	win	2023-06-27	21:28:38	21:39:09	622291	641364d0e4356f62a8c4532d	4	1	main_slash	11	main_slash	101	stimuli_target_squarediamonds.svg	stimuli_distractor_trianglediamonds.svg	4	yes	53	1	620	0	0			0	0			1				0	
6.6.1	win	2023-06-27	21:28:38	21:39:09	622291	641364d0e4356f62a8c4532d	4	1	main_slash	11	advance_on_keypress_SLASH	102	stimuli_target_squarediamonds.svg	stimuli_distractor_trianglediamonds.svg	4	yes	57	0	302	0	0			0	0			1				0	
6.6.1	win	2023-06-27	21:28:38	21:39:12	625238	641364d0e4356f62a8c4532d	4	1	main_slash	11	main_slash	103	stimuli_distractor_diamondtriangles.svg	stimuli_distractor_diamondtriangles.svg	39	no	0	1	2000	0	0			0	0			1				0	
6.6.1	win	2023-06-27	21:28:38	21:39:12	625238	641364d0e4356f62a8c4532d	4	1	main_slash	11	advance_on_keypress_SLASH	104	stimuli_distractor_diamondtriangles.svg	stimuli_distractor_diamondtriangles.svg	39	no	57	0	304	0	0			0	0			1				0	
6.6.1	win	2023-06-27	21:28:38	21:39:13	626871	641364d0e4356f62a8c4532d	4	1	main_slash	11	main_slash	105	stimuli_target_trianglesquares.svg	stimuli_distractor_diamondtriangles.svg	22	yes	53	1	684	0	0			0	0			1				0	
6.6.1	win	2023-06-27	21:28:38	21:39:13	626871	641364d0e4356f62a8c4532d	4	1	main_slash	11	advance_on_keypress_SLASH	106	stimuli_target_trianglesquares.svg	stimuli_distractor_diamondtriangles.svg	22	yes	57	0	297	0	0			0	0			1				0	
6.6.1	win	2023-06-27	21:28:38	21:39:15	628482	641364d0e4356f62a8c4532d	4	1	main_slash	11	main_slash	107	stimuli_target_squaretriangles.svg	stimuli_distractor_diamondtriangles.svg	7	yes	53	1	663	0	0			0	0			1				0	
6.6.1	win	2023-06-27	21:28:38	21:39:15	628482	641364d0e4356f62a8c4532d	4	1	main_slash	11	advance_on_keypress_SLASH	108	stimuli_target_squaretriangles.svg	stimuli_distractor_diamondtriangles.svg	7	yes	57	0	250	0	0			0	0			1				0	
6.6.1	win	2023-06-27	21:28:38	21:39:16	629955	641364d0e4356f62a8c4532d	4	1	main_slash	11	main_slash	109	stimuli_distractor_diamondtriangles.svg	stimuli_target_squarediamonds.svg	16	yes	53	1	570	0	0			0	0			1				0	
6.6.1	win	2023-06-27	21:28:38	21:39:16	629955	641364d0e4356f62a8c4532d	4	1	main_slash	11	advance_on_keypress_SLASH	110	stimuli_distractor_diamondtriangles.svg	stimuli_target_squarediamonds.svg	16	yes	57	0	259	0	0			0	0			1				0	
6.6.1	win	2023-06-27	21:28:38	21:39:19	632854	641364d0e4356f62a8c4532d	4	1	main_slash	11	main_slash	111	stimuli_distractor_diamondtriangles.svg	stimuli_distractor_diamondtriangles.svg	40	no	0	1	2000	0	0			0	0			1				0	
6.6.1	win	2023-06-27	21:28:38	21:39:19	632854	641364d0e4356f62a8c4532d	4	1	main_slash	11	advance_on_keypress_SLASH	112	stimuli_distractor_diamondtriangles.svg	stimuli_distractor_diamondtriangles.svg	40	no	57	0	335	0	0			0	0			1				0	
6.6.1	win	2023-06-27	21:28:38	21:39:21	634589	641364d0e4356f62a8c4532d	4	1	main_slash	11	main_slash	113	stimuli_target_trianglerectangles.svg	stimuli_distractor_trianglediamonds.svg	17	yes	53	1	757	0	0			0	0			1				0	
6.6.1	win	2023-06-27	21:28:38	21:39:21	634589	641364d0e4356f62a8c4532d	4	1	main_slash	11	advance_on_keypress_SLASH	114	stimuli_target_trianglerectangles.svg	stimuli_distractor_trianglediamonds.svg	17	yes	57	0	292	0	0			0	0			1				0	
6.6.1	win	2023-06-27	21:28:38	21:39:23	636272	641364d0e4356f62a8c4532d	4	1	main_slash	11	main_slash	115	stimuli_target_trianglerectangles.svg	stimuli_distractor_diamondtriangles.svg	21	yes	53	1	757	0	0			0	0			1				0	
6.6.1	win	2023-06-27	21:28:38	21:39:23	636272	641364d0e4356f62a8c4532d	4	1	main_slash	11	advance_on_keypress_SLASH	116	stimuli_target_trianglerectangles.svg	stimuli_distractor_diamondtriangles.svg	21	yes	57	0	223	0	0			0	0			1				0	
6.6.1	win	2023-06-27	21:28:38	21:39:24	637903	641364d0e4356f62a8c4532d	4	1	main_slash	11	main_slash	117	stimuli_target_rectangletriangles.svg	stimuli_distractor_diamondtriangles.svg	5	yes	53	1	772	0	0			0	0			1				0	
6.6.1	win	2023-06-27	21:28:38	21:39:24	637903	641364d0e4356f62a8c4532d	4	1	main_slash	11	advance_on_keypress_SLASH	118	stimuli_target_rectangletriangles.svg	stimuli_distractor_diamondtriangles.svg	5	yes	57	0	235	0	0			0	0			1				0	
6.6.1	win	2023-06-27	21:28:38	21:39:26	639409	641364d0e4356f62a8c4532d	4	1	main_slash	11	main_slash	119	stimuli_target_diamondsquares.svg	stimuli_distractor_diamondtriangles.svg	24	yes	53	1	629	0	0			0	0			1				0	
6.6.1	win	2023-06-27	21:28:38	21:39:26	639409	641364d0e4356f62a8c4532d	4	1	main_slash	11	advance_on_keypress_SLASH	120	stimuli_target_diamondsquares.svg	stimuli_distractor_diamondtriangles.svg	24	yes	57	0	209	0	0			0	0			1				0	
6.6.1	win	2023-06-27	21:28:38	21:39:27	640849	641364d0e4356f62a8c4532d	4	1	main_slash	11	main_slash	121	stimuli_target_diamondrectangles.svg	stimuli_distractor_diamondtriangles.svg	23	yes	53	1	586	0	0			0	0			1				0	
6.6.1	win	2023-06-27	21:28:38	21:39:27	640849	641364d0e4356f62a8c4532d	4	1	main_slash	11	advance_on_keypress_SLASH	122	stimuli_target_diamondrectangles.svg	stimuli_distractor_diamondtriangles.svg	23	yes	57	0	208	0	0			0	0			1				0	
6.6.1	win	2023-06-27	21:28:38	21:39:29	642375	641364d0e4356f62a8c4532d	4	1	main_slash	11	main_slash	123	stimuli_distractor_diamondtriangles.svg	stimuli_target_trianglesquares.svg	30	yes	53	1	662	0	0			0	0			1				0	
6.6.1	win	2023-06-27	21:28:38	21:39:29	642375	641364d0e4356f62a8c4532d	4	1	main_slash	11	advance_on_keypress_SLASH	124	stimuli_distractor_diamondtriangles.svg	stimuli_target_trianglesquares.svg	30	yes	57	0	306	0	0			0	0			1				0	
6.6.1	win	2023-06-27	21:28:38	21:39:32	645329	641364d0e4356f62a8c4532d	4	1	main_slash	11	main_slash	125	stimuli_distractor_trianglediamonds.svg	stimuli_distractor_trianglediamonds.svg	33	no	0	1	2000	0	0			0	0			1				0	
6.6.1	win	2023-06-27	21:28:38	21:39:32	645329	641364d0e4356f62a8c4532d	4	1	main_slash	11	advance_on_keypress_SLASH	126	stimuli_distractor_trianglediamonds.svg	stimuli_distractor_trianglediamonds.svg	33	no	57	0	315	0	0			0	0			1				0	
6.6.1	win	2023-06-27	21:28:38	21:39:33	647002	641364d0e4356f62a8c4532d	4	1	main_slash	11	main_slash	127	stimuli_target_diamondrectangles.svg	stimuli_distractor_trianglediamonds.svg	19	yes	53	1	708	0	0			0	0			1				0	
6.6.1	win	2023-06-27	21:28:38	21:39:33	647002	641364d0e4356f62a8c4532d	4	1	main_slash	11	advance_on_keypress_SLASH	128	stimuli_target_diamondrectangles.svg	stimuli_distractor_trianglediamonds.svg	19	yes	57	0	258	0	0			0	0			1				0	
6.6.1	win	2023-06-27	21:28:38	21:39:35	648526	641364d0e4356f62a8c4532d	4	1	main_slash	11	main_slash	129	stimuli_distractor_diamondtriangles.svg	stimuli_target_diamondrectangles.svg	31	yes	53	1	632	0	0			0	0			1				0	
6.6.1	win	2023-06-27	21:28:38	21:39:35	648526	641364d0e4356f62a8c4532d	4	1	main_slash	11	advance_on_keypress_SLASH	130	stimuli_distractor_diamondtriangles.svg	stimuli_target_diamondrectangles.svg	31	yes	57	0	199	0	0			0	0			1				0	
6.6.1	win	2023-06-27	21:28:38	21:39:36	649987	641364d0e4356f62a8c4532d	4	1	main_slash	11	main_slash	131	stimuli_distractor_trianglediamonds.svg	stimuli_target_trianglesquares.svg	26	yes	53	1	612	0	0			0	0			1				0	
6.6.1	win	2023-06-27	21:28:38	21:39:36	649987	641364d0e4356f62a8c4532d	4	1	main_slash	11	advance_on_keypress_SLASH	132	stimuli_distractor_trianglediamonds.svg	stimuli_target_trianglesquares.svg	26	yes	57	0	221	0	0			0	0			1				0	
6.6.1	win	2023-06-27	21:28:38	21:39:38	651459	641364d0e4356f62a8c4532d	4	1	main_slash	11	main_slash	133	stimuli_distractor_trianglediamonds.svg	stimuli_target_trianglerectangles.svg	25	yes	53	1	601	0	0			0	0			1				0	
6.6.1	win	2023-06-27	21:28:38	21:39:38	651459	641364d0e4356f62a8c4532d	4	1	main_slash	11	advance_on_keypress_SLASH	134	stimuli_distractor_trianglediamonds.svg	stimuli_target_trianglerectangles.svg	25	yes	57	0	178	0	0			0	0			1				0	
6.6.1	win	2023-06-27	21:28:38	21:39:41	654291	641364d0e4356f62a8c4532d	4	1	main_slash	11	main_slash	135	stimuli_distractor_diamondtriangles.svg	stimuli_distractor_trianglediamonds.svg	38	no	0	1	2000	0	0			0	0			1				0	
6.6.1	win	2023-06-27	21:28:38	21:39:41	654291	641364d0e4356f62a8c4532d	4	1	main_slash	11	advance_on_keypress_SLASH	136	stimuli_distractor_diamondtriangles.svg	stimuli_distractor_trianglediamonds.svg	38	no	57	0	304	0	0			0	0			1				0	
6.6.1	win	2023-06-27	21:28:38	21:39:42	655832	641364d0e4356f62a8c4532d	4	1	main_slash	11	main_slash	137	stimuli_distractor_diamondtriangles.svg	stimuli_target_diamondsquares.svg	32	yes	53	1	593	0	0			0	0			1				0	
6.6.1	win	2023-06-27	21:28:38	21:39:42	655832	641364d0e4356f62a8c4532d	4	1	main_slash	11	advance_on_keypress_SLASH	138	stimuli_distractor_diamondtriangles.svg	stimuli_target_diamondsquares.svg	32	yes	57	0	186	0	0			0	0			1				0	
6.6.1	win	2023-06-27	21:28:38	21:39:44	657701	641364d0e4356f62a8c4532d	4	1	main_slash	11	main_slash	139	stimuli_distractor_trianglediamonds.svg	stimuli_target_squarediamonds.svg	12	yes	53	1	1045	0	0			0	0			1				0	
6.6.1	win	2023-06-27	21:28:38	21:39:44	657701	641364d0e4356f62a8c4532d	4	1	main_slash	11	advance_on_keypress_SLASH	140	stimuli_distractor_trianglediamonds.svg	stimuli_target_squarediamonds.svg	12	yes	57	0	637	0	0			0	0			1				0	
6.6.1	win	2023-06-27	21:28:38	21:39:46	659603	641364d0e4356f62a8c4532d	4	1	main_slash	11	main_slash	141	stimuli_distractor_trianglediamonds.svg	stimuli_target_diamondrectangles.svg	27	yes	53	1	615	0	0			0	0			1				0	
6.6.1	win	2023-06-27	21:28:38	21:39:46	659603	641364d0e4356f62a8c4532d	4	1	main_slash	11	advance_on_keypress_SLASH	142	stimuli_distractor_trianglediamonds.svg	stimuli_target_diamondrectangles.svg	27	yes	57	0	185	0	0			0	0			1				0	
6.6.1	win	2023-06-27	21:28:38	21:39:47	661035	641364d0e4356f62a8c4532d	4	1	main_slash	11	main_slash	143	stimuli_distractor_trianglediamonds.svg	stimuli_target_rectangletriangles.svg	9	yes	53	1	594	0	0			0	0			1				0	
6.6.1	win	2023-06-27	21:28:38	21:39:47	661035	641364d0e4356f62a8c4532d	4	1	main_slash	11	advance_on_keypress_SLASH	144	stimuli_distractor_trianglediamonds.svg	stimuli_target_rectangletriangles.svg	9	yes	57	0	212	0	0			0	0			1				0	
6.6.1	win	2023-06-27	21:28:38	21:39:49	662525	641364d0e4356f62a8c4532d	4	1	main_slash	11	main_slash	145	stimuli_target_trianglesquares.svg	stimuli_distractor_trianglediamonds.svg	18	yes	53	1	618	0	0			0	0			1				0	
6.6.1	win	2023-06-27	21:28:38	21:39:49	662525	641364d0e4356f62a8c4532d	4	1	main_slash	11	advance_on_keypress_SLASH	146	stimuli_target_trianglesquares.svg	stimuli_distractor_trianglediamonds.svg	18	yes	57	0	175	0	0			0	0			1				0	
6.6.1	win	2023-06-27	21:28:38	21:39:50	663952	641364d0e4356f62a8c4532d	4	1	main_slash	11	main_slash	147	stimuli_target_squarediamonds.svg	stimuli_distractor_diamondtriangles.svg	8	yes	53	1	600	0	0			0	0			1				0	
6.6.1	win	2023-06-27	21:28:38	21:39:50	663952	641364d0e4356f62a8c4532d	4	1	main_slash	11	advance_on_keypress_SLASH	148	stimuli_target_squarediamonds.svg	stimuli_distractor_diamondtriangles.svg	8	yes	57	0	195	0	0			0	0			1				0	
6.6.1	win	2023-06-27	21:28:38	21:39:52	665356	641364d0e4356f62a8c4532d	4	1	main_slash	11	main_slash	149	stimuli_distractor_trianglediamonds.svg	stimuli_target_rectanglediamonds.svg	10	yes	53	1	554	0	0			0	0			1				0	
6.6.1	win	2023-06-27	21:28:38	21:39:52	665356	641364d0e4356f62a8c4532d	4	1	main_slash	11	advance_on_keypress_SLASH	150	stimuli_distractor_trianglediamonds.svg	stimuli_target_rectanglediamonds.svg	10	yes	57	0	189	0	0			0	0			1				0	
6.6.1	win	2023-06-27	21:28:38	21:39:53	666834	641364d0e4356f62a8c4532d	4	1	main_slash	11	main_slash	151	stimuli_distractor_trianglediamonds.svg	stimuli_target_squaretriangles.svg	11	yes	53	1	633	0	0			0	0			1				0	
6.6.1	win	2023-06-27	21:28:38	21:39:53	666834	641364d0e4356f62a8c4532d	4	1	main_slash	11	advance_on_keypress_SLASH	152	stimuli_distractor_trianglediamonds.svg	stimuli_target_squaretriangles.svg	11	yes	57	0	177	0	0			0	0			1				0	
6.6.1	win	2023-06-27	21:28:38	21:39:55	668265	641364d0e4356f62a8c4532d	4	1	main_slash	11	main_slash	153	stimuli_distractor_trianglediamonds.svg	stimuli_target_diamondsquares.svg	28	yes	53	1	597	0	0			0	0			1				0	
6.6.1	win	2023-06-27	21:28:38	21:39:55	668265	641364d0e4356f62a8c4532d	4	1	main_slash	11	advance_on_keypress_SLASH	154	stimuli_distractor_trianglediamonds.svg	stimuli_target_diamondsquares.svg	28	yes	57	0	170	0	0			0	0			1				0	
6.6.1	win	2023-06-27	21:28:38	21:39:56	669599	641364d0e4356f62a8c4532d	4	1	main_slash	11	main_slash	155	stimuli_distractor_diamondtriangles.svg	stimuli_target_trianglerectangles.svg	29	yes	53	1	515	0	0			0	0			1				0	
6.6.1	win	2023-06-27	21:28:38	21:39:56	669599	641364d0e4356f62a8c4532d	4	1	main_slash	11	advance_on_keypress_SLASH	156	stimuli_distractor_diamondtriangles.svg	stimuli_target_trianglerectangles.svg	29	yes	57	0	146	0	0			0	0			1				0	
6.6.1	win	2023-06-27	21:28:38	21:39:57	670920	641364d0e4356f62a8c4532d	4	1	main_slash	11	main_slash	157	stimuli_distractor_diamondtriangles.svg	stimuli_target_squaretriangles.svg	15	yes	53	1	521	0	0			0	0			1				0	
6.6.1	win	2023-06-27	21:28:38	21:39:57	670920	641364d0e4356f62a8c4532d	4	1	main_slash	11	advance_on_keypress_SLASH	158	stimuli_distractor_diamondtriangles.svg	stimuli_target_squaretriangles.svg	15	yes	57	0	167	0	0			0	0			1				0	
6.6.1	win	2023-06-27	21:28:38	21:39:59	672258	641364d0e4356f62a8c4532d	4	1	main_slash	11	main_slash	159	stimuli_target_rectanglediamonds.svg	stimuli_distractor_trianglediamonds.svg	2	yes	53	1	524	0	0			0	0			1				0	
6.6.1	win	2023-06-27	21:28:38	21:39:59	672258	641364d0e4356f62a8c4532d	4	1	main_slash	11	advance_on_keypress_SLASH	160	stimuli_target_rectanglediamonds.svg	stimuli_distractor_trianglediamonds.svg	2	yes	57	0	165	0	0			0	0			1				0	
6.6.1	win	2023-06-27	21:28:38	21:39:59	672258	641364d0e4356f62a8c4532d	4	1	headphonecheck_calibration	14	headphonecheck_calibrationIntro	1	stimuli_target_rectanglediamonds.svg	stimuli_distractor_trianglediamonds.svg	2	yes	calibrationButton	0	4061	0	0			0	0			1				0	
6.6.1	win	2023-06-27	21:28:38	21:39:59	672258	641364d0e4356f62a8c4532d	4	1	headphonecheck_testphase	15	test_collectResponse	3	stimuli_target_rectanglediamonds.svg	stimuli_distractor_trianglediamonds.svg	2	yes	second	0	1126	1	3	antiphase_hc_soi.wav	1	0	0			1				0	
6.6.1	win	2023-06-27	21:28:38	21:39:59	672258	641364d0e4356f62a8c4532d	4	1	headphonecheck_testphase	15	test_collectResponse	6	stimuli_target_rectanglediamonds.svg	stimuli_distractor_trianglediamonds.svg	2	yes	third	0	547	2	1	antiphase_hc_iso.wav	2	0	0			1				0	
6.6.1	win	2023-06-27	21:28:38	21:39:59	672258	641364d0e4356f62a8c4532d	4	1	headphonecheck_testphase	15	test_collectResponse	9	stimuli_target_rectanglediamonds.svg	stimuli_distractor_trianglediamonds.svg	2	yes	third	0	699	3	5	antiphase_hc_osi.wav	2	0	0			1				0	
6.6.1	win	2023-06-27	21:28:38	21:39:59	672258	641364d0e4356f62a8c4532d	4	1	headphonecheck_testphase	15	test_collectResponse	12	stimuli_target_rectanglediamonds.svg	stimuli_distractor_trianglediamonds.svg	2	yes	second	0	738	4	6	antiphase_hc_ois.wav	3	0	0			1				0	
6.6.1	win	2023-06-27	21:28:38	21:39:59	672258	641364d0e4356f62a8c4532d	4	1	headphonecheck_testphase	15	test_collectResponse	15	stimuli_target_rectanglediamonds.svg	stimuli_distractor_trianglediamonds.svg	2	yes	second	0	659	5	4	antiphase_hc_sio.wav	1	0	0			1				0	
6.6.1	win	2023-06-27	21:28:38	21:39:59	672258	641364d0e4356f62a8c4532d	4	1	headphonecheck_testphase	15	test_collectResponse	18	stimuli_target_rectanglediamonds.svg	stimuli_distractor_trianglediamonds.svg	2	yes	first	0	2150	6	2	antiphase_hc_ios.wav	3	0	0			1				0	
6.6.1	win	2023-06-27	21:28:38	21:39:59	672258	641364d0e4356f62a8c4532d	4	1	stereocheck_calibration	17	stereocheck_calibrationIntro	1	stimuli_target_rectanglediamonds.svg	stimuli_distractor_trianglediamonds.svg	2	yes	stereocheck_calibrationButton	0	5751	6	2	antiphase_hc_ios.wav	3	0	0			1				0	
6.6.1	win	2023-06-27	21:28:38	21:39:59	672258	641364d0e4356f62a8c4532d	4	1	stereocheck_testphase	18	stereocheck_test_collectResponse	3	stimuli_target_rectanglediamonds.svg	stimuli_distractor_trianglediamonds.svg	2	yes	stereocheck_left	1	3469	6	2	antiphase_hc_ios.wav	3	1	2	noise_calib_stim_LEFT.wav	1	1				0	
6.6.1	win	2023-06-27	21:28:38	21:39:59	672258	641364d0e4356f62a8c4532d	4	1	stereocheck_testphase	18	stereocheck_test_collectResponse	6	stimuli_target_rectanglediamonds.svg	stimuli_distractor_trianglediamonds.svg	2	yes	stereocheck_right	1	462	6	2	antiphase_hc_ios.wav	3	2	4	noise_calib_stim_RIGHT.wav	2	1				0	
6.6.1	win	2023-06-27	21:28:38	21:39:59	672258	641364d0e4356f62a8c4532d	4	1	stereocheck_testphase	18	stereocheck_test_collectResponse	9	stimuli_target_rectanglediamonds.svg	stimuli_distractor_trianglediamonds.svg	2	yes	stereocheck_right	1	391	6	2	antiphase_hc_ios.wav	3	3	6	noise_calib_stim_RIGHT.wav	2	1				0	
6.6.1	win	2023-06-27	21:28:38	21:39:59	672258	641364d0e4356f62a8c4532d	4	1	stereocheck_testphase	18	stereocheck_test_collectResponse	12	stimuli_target_rectanglediamonds.svg	stimuli_distractor_trianglediamonds.svg	2	yes	stereocheck_left	1	382	6	2	antiphase_hc_ios.wav	3	4	3	noise_calib_stim_LEFT.wav	1	1				0	
6.6.1	win	2023-06-27	21:28:38	21:39:59	672258	641364d0e4356f62a8c4532d	4	1	stereocheck_testphase	18	stereocheck_test_collectResponse	15	stimuli_target_rectanglediamonds.svg	stimuli_distractor_trianglediamonds.svg	2	yes	stereocheck_left	1	386	6	2	antiphase_hc_ios.wav	3	5	1	noise_calib_stim_LEFT.wav	1	1				0	
6.6.1	win	2023-06-27	21:28:38	21:39:59	672258	641364d0e4356f62a8c4532d	4	1	stereocheck_testphase	18	stereocheck_test_collectResponse	18	stimuli_target_rectanglediamonds.svg	stimuli_distractor_trianglediamonds.svg	2	yes	stereocheck_right	1	375	6	2	antiphase_hc_ios.wav	3	6	5	noise_calib_stim_RIGHT.wav	2	1				0	
6.6.1	win	2023-06-27	21:28:38	21:39:59	672258	641364d0e4356f62a8c4532d	4	1	DL_practice	21	DL_practice	2	stimuli_target_rectanglediamonds.svg	stimuli_distractor_trianglediamonds.svg	2	yes	ta	1	1196	6	2	antiphase_hc_ios.wav	3	6	5	noise_calib_stim_RIGHT.wav	2	36	blb_dichoticlistening_ta-ta.mp3	ta	ta	0	left
6.6.1	win	2023-06-27	21:28:38	21:39:59	672258	641364d0e4356f62a8c4532d	4	1	DL_practice	21	DL_practice	3	stimuli_target_rectanglediamonds.svg	stimuli_distractor_trianglediamonds.svg	2	yes	pa	1	1134	6	2	antiphase_hc_ios.wav	3	6	5	noise_calib_stim_RIGHT.wav	2	29	blb_dichoticlistening_pa-pa.mp3	pa	pa	0	left
6.6.1	win	2023-06-27	21:28:38	21:39:59	672258	641364d0e4356f62a8c4532d	4	1	DL_practice	21	DL_practice	4	stimuli_target_rectanglediamonds.svg	stimuli_distractor_trianglediamonds.svg	2	yes	ga	1	1431	6	2	antiphase_hc_ios.wav	3	6	5	noise_calib_stim_RIGHT.wav	2	15	blb_dichoticlistening_ga-ga.mp3	ga	ga	0	left
6.6.1	win	2023-06-27	21:28:38	21:39:59	672258	641364d0e4356f62a8c4532d	4	1	DL_practice	21	DL_practice	5	stimuli_target_rectanglediamonds.svg	stimuli_distractor_trianglediamonds.svg	2	yes	ba	1	1147	6	2	antiphase_hc_ios.wav	3	6	5	noise_calib_stim_RIGHT.wav	2	1	blb_dichoticlistening_ba-ba.mp3	ba	ba	0	left
6.6.1	win	2023-06-27	21:28:38	21:39:59	672258	641364d0e4356f62a8c4532d	4	1	DL_practice	21	DL_practice	6	stimuli_target_rectanglediamonds.svg	stimuli_distractor_trianglediamonds.svg	2	yes	da	1	1036	6	2	antiphase_hc_ios.wav	3	6	5	noise_calib_stim_RIGHT.wav	2	8	blb_dichoticlistening_da-da.mp3	da	da	0	left
6.6.1	win	2023-06-27	21:28:38	21:39:59	672258	641364d0e4356f62a8c4532d	4	1	DL_practice	21	DL_practice	7	stimuli_target_rectanglediamonds.svg	stimuli_distractor_trianglediamonds.svg	2	yes	ba	1	1951	6	2	antiphase_hc_ios.wav	3	6	5	noise_calib_stim_RIGHT.wav	2	7	blb_dichoticlistening_da-ba.mp3	da	ba	1	right
6.6.1	win	2023-06-27	21:28:38	21:39:59	672258	641364d0e4356f62a8c4532d	4	1	DL_practice	21	DL_practice	8	stimuli_target_rectanglediamonds.svg	stimuli_distractor_trianglediamonds.svg	2	yes	ka	1	1143	6	2	antiphase_hc_ios.wav	3	6	5	noise_calib_stim_RIGHT.wav	2	22	blb_dichoticlistening_ka-ka.mp3	ka	ka	0	left
6.6.1	win	2023-06-27	21:28:38	21:39:59	672258	641364d0e4356f62a8c4532d	4	1	DL_practice	21	DL_practice	9	stimuli_target_rectanglediamonds.svg	stimuli_distractor_trianglediamonds.svg	2	yes	ka	0	1372	6	2	antiphase_hc_ios.wav	3	6	5	noise_calib_stim_RIGHT.wav	2	18	blb_dichoticlistening_ga-ta.mp3	ga	ta	1	other
6.6.1	win	2023-06-27	21:28:38	21:39:59	672258	641364d0e4356f62a8c4532d	4	1	DL_practice	21	DL_practice	10	stimuli_target_rectanglediamonds.svg	stimuli_distractor_trianglediamonds.svg	2	yes	pa	1	1297	6	2	antiphase_hc_ios.wav	3	6	5	noise_calib_stim_RIGHT.wav	2	23	blb_dichoticlistening_ka-pa.mp3	ka	pa	1	right
6.6.1	win	2023-06-27	21:28:38	21:39:59	672258	641364d0e4356f62a8c4532d	4	1	DL_test	23	DL_test	1	stimuli_target_rectanglediamonds.svg	stimuli_distractor_trianglediamonds.svg	2	yes	ta	1	1682	6	2	antiphase_hc_ios.wav	3	6	5	noise_calib_stim_RIGHT.wav	2	12	blb_dichoticlistening_da-ta.mp3	da	ta	1	right
6.6.1	win	2023-06-27	21:28:38	21:39:59	672258	641364d0e4356f62a8c4532d	4	1	DL_test	23	DL_test	2	stimuli_target_rectanglediamonds.svg	stimuli_distractor_trianglediamonds.svg	2	yes	ba	1	1222	6	2	antiphase_hc_ios.wav	3	6	5	noise_calib_stim_RIGHT.wav	2	13	blb_dichoticlistening_ga-ba.mp3	ga	ba	1	right
6.6.1	win	2023-06-27	21:28:38	21:39:59	672258	641364d0e4356f62a8c4532d	4	1	DL_test	23	DL_test	3	stimuli_target_rectanglediamonds.svg	stimuli_distractor_trianglediamonds.svg	2	yes	pa	0	1114	6	2	antiphase_hc_ios.wav	3	6	5	noise_calib_stim_RIGHT.wav	2	10	blb_dichoticlistening_da-ka.mp3	da	ka	1	other
6.6.1	win	2023-06-27	21:28:38	21:39:59	672258	641364d0e4356f62a8c4532d	4	1	DL_test	23	DL_test	4	stimuli_target_rectanglediamonds.svg	stimuli_distractor_trianglediamonds.svg	2	yes	pa	1	1427	6	2	antiphase_hc_ios.wav	3	6	5	noise_calib_stim_RIGHT.wav	2	26	blb_dichoticlistening_pa-da.mp3	pa	da	1	left
6.6.1	win	2023-06-27	21:28:38	21:39:59	672258	641364d0e4356f62a8c4532d	4	1	DL_test	23	DL_test	5	stimuli_target_rectanglediamonds.svg	stimuli_distractor_trianglediamonds.svg	2	yes	ga	1	1079	6	2	antiphase_hc_ios.wav	3	6	5	noise_calib_stim_RIGHT.wav	2	15	blb_dichoticlistening_ga-ga.mp3	ga	ga	0	left
6.6.1	win	2023-06-27	21:28:38	21:39:59	672258	641364d0e4356f62a8c4532d	4	1	DL_test	23	DL_test	6	stimuli_target_rectanglediamonds.svg	stimuli_distractor_trianglediamonds.svg	2	yes	ba	1	1525	6	2	antiphase_hc_ios.wav	3	6	5	noise_calib_stim_RIGHT.wav	2	1	blb_dichoticlistening_ba-ba.mp3	ba	ba	0	left
6.6.1	win	2023-06-27	21:28:38	21:39:59	672258	641364d0e4356f62a8c4532d	4	1	DL_test	23	DL_test	7	stimuli_target_rectanglediamonds.svg	stimuli_distractor_trianglediamonds.svg	2	yes	pa	1	1131	6	2	antiphase_hc_ios.wav	3	6	5	noise_calib_stim_RIGHT.wav	2	5	blb_dichoticlistening_ba-pa.mp3	ba	pa	1	right
6.6.1	win	2023-06-27	21:28:38	21:39:59	672258	641364d0e4356f62a8c4532d	4	1	DL_test	23	DL_test	8	stimuli_target_rectanglediamonds.svg	stimuli_distractor_trianglediamonds.svg	2	yes	pa	1	1618	6	2	antiphase_hc_ios.wav	3	6	5	noise_calib_stim_RIGHT.wav	2	29	blb_dichoticlistening_pa-pa.mp3	pa	pa	0	left
6.6.1	win	2023-06-27	21:28:38	21:39:59	672258	641364d0e4356f62a8c4532d	4	1	DL_test	23	DL_test	9	stimuli_target_rectanglediamonds.svg	stimuli_distractor_trianglediamonds.svg	2	yes	ga	1	897	6	2	antiphase_hc_ios.wav	3	6	5	noise_calib_stim_RIGHT.wav	2	33	blb_dichoticlistening_ta-ga.mp3	ta	ga	1	right
6.6.1	win	2023-06-27	21:28:38	21:39:59	672258	641364d0e4356f62a8c4532d	4	1	DL_test	23	DL_test	10	stimuli_target_rectanglediamonds.svg	stimuli_distractor_trianglediamonds.svg	2	yes	ba	1	2368	6	2	antiphase_hc_ios.wav	3	6	5	noise_calib_stim_RIGHT.wav	2	19	blb_dichoticlistening_ka-ba.mp3	ka	ba	1	right
6.6.1	win	2023-06-27	21:28:38	21:39:59	672258	641364d0e4356f62a8c4532d	4	1	DL_test	23	DL_test	11	stimuli_target_rectanglediamonds.svg	stimuli_distractor_trianglediamonds.svg	2	yes	pa	1	1918	6	2	antiphase_hc_ios.wav	3	6	5	noise_calib_stim_RIGHT.wav	2	23	blb_dichoticlistening_ka-pa.mp3	ka	pa	1	right
6.6.1	win	2023-06-27	21:28:38	21:39:59	672258	641364d0e4356f62a8c4532d	4	1	DL_test	23	DL_test	12	stimuli_target_rectanglediamonds.svg	stimuli_distractor_trianglediamonds.svg	2	yes	ka	1	1370	6	2	antiphase_hc_ios.wav	3	6	5	noise_calib_stim_RIGHT.wav	2	4	blb_dichoticlistening_ba-ka.mp3	ba	ka	1	right
6.6.1	win	2023-06-27	21:28:38	21:39:59	672258	641364d0e4356f62a8c4532d	4	1	DL_test	23	DL_test	13	stimuli_target_rectanglediamonds.svg	stimuli_distractor_trianglediamonds.svg	2	yes	ga	1	1106	6	2	antiphase_hc_ios.wav	3	6	5	noise_calib_stim_RIGHT.wav	2	14	blb_dichoticlistening_ga-da.mp3	ga	da	1	left
6.6.1	win	2023-06-27	21:28:38	21:39:59	672258	641364d0e4356f62a8c4532d	4	1	DL_test	23	DL_test	14	stimuli_target_rectanglediamonds.svg	stimuli_distractor_trianglediamonds.svg	2	yes	ka	1	1374	6	2	antiphase_hc_ios.wav	3	6	5	noise_calib_stim_RIGHT.wav	2	34	blb_dichoticlistening_ta-ka.mp3	ta	ka	1	right
6.6.1	win	2023-06-27	21:28:38	21:39:59	672258	641364d0e4356f62a8c4532d	4	1	DL_test	23	DL_test	15	stimuli_target_rectanglediamonds.svg	stimuli_distractor_trianglediamonds.svg	2	yes	da	1	1681	6	2	antiphase_hc_ios.wav	3	6	5	noise_calib_stim_RIGHT.wav	2	32	blb_dichoticlistening_ta-da.mp3	ta	da	1	right
6.6.1	win	2023-06-27	21:28:38	21:39:59	672258	641364d0e4356f62a8c4532d	4	1	DL_test	23	DL_test	16	stimuli_target_rectanglediamonds.svg	stimuli_distractor_trianglediamonds.svg	2	yes	da	1	1005	6	2	antiphase_hc_ios.wav	3	6	5	noise_calib_stim_RIGHT.wav	2	8	blb_dichoticlistening_da-da.mp3	da	da	0	left
6.6.1	win	2023-06-27	21:28:38	21:39:59	672258	641364d0e4356f62a8c4532d	4	1	DL_test	23	DL_test	17	stimuli_target_rectanglediamonds.svg	stimuli_distractor_trianglediamonds.svg	2	yes	pa	1	2247	6	2	antiphase_hc_ios.wav	3	6	5	noise_calib_stim_RIGHT.wav	2	27	blb_dichoticlistening_pa-ga.mp3	pa	ga	1	left
6.6.1	win	2023-06-27	21:28:38	21:39:59	672258	641364d0e4356f62a8c4532d	4	1	DL_test	23	DL_test	18	stimuli_target_rectanglediamonds.svg	stimuli_distractor_trianglediamonds.svg	2	yes	pa	1	1268	6	2	antiphase_hc_ios.wav	3	6	5	noise_calib_stim_RIGHT.wav	2	11	blb_dichoticlistening_da-pa.mp3	da	pa	1	right
6.6.1	win	2023-06-27	21:28:38	21:39:59	672258	641364d0e4356f62a8c4532d	4	1	DL_test	23	DL_test	19	stimuli_target_rectanglediamonds.svg	stimuli_distractor_trianglediamonds.svg	2	yes	ka	1	1374	6	2	antiphase_hc_ios.wav	3	6	5	noise_calib_stim_RIGHT.wav	2	24	blb_dichoticlistening_ka-ta.mp3	ka	ta	1	left
6.6.1	win	2023-06-27	21:28:38	21:39:59	672258	641364d0e4356f62a8c4532d	4	1	DL_test	23	DL_test	20	stimuli_target_rectanglediamonds.svg	stimuli_distractor_trianglediamonds.svg	2	yes	ta	1	2071	6	2	antiphase_hc_ios.wav	3	6	5	noise_calib_stim_RIGHT.wav	2	35	blb_dichoticlistening_ta-pa.mp3	ta	pa	1	left
6.6.1	win	2023-06-27	21:28:38	21:39:59	672258	641364d0e4356f62a8c4532d	4	1	DL_test	23	DL_test	21	stimuli_target_rectanglediamonds.svg	stimuli_distractor_trianglediamonds.svg	2	yes	ba	1	1719	6	2	antiphase_hc_ios.wav	3	6	5	noise_calib_stim_RIGHT.wav	2	31	blb_dichoticlistening_ta-ba.mp3	ta	ba	1	right
6.6.1	win	2023-06-27	21:28:38	21:39:59	672258	641364d0e4356f62a8c4532d	4	1	DL_test	23	DL_test	22	stimuli_target_rectanglediamonds.svg	stimuli_distractor_trianglediamonds.svg	2	yes	ka	1	1229	6	2	antiphase_hc_ios.wav	3	6	5	noise_calib_stim_RIGHT.wav	2	22	blb_dichoticlistening_ka-ka.mp3	ka	ka	0	left
6.6.1	win	2023-06-27	21:28:38	21:39:59	672258	641364d0e4356f62a8c4532d	4	1	DL_test	23	DL_test	23	stimuli_target_rectanglediamonds.svg	stimuli_distractor_trianglediamonds.svg	2	yes	ga	1	971	6	2	antiphase_hc_ios.wav	3	6	5	noise_calib_stim_RIGHT.wav	2	9	blb_dichoticlistening_da-ga.mp3	da	ga	1	right
6.6.1	win	2023-06-27	21:28:38	21:39:59	672258	641364d0e4356f62a8c4532d	4	1	DL_test	23	DL_test	24	stimuli_target_rectanglediamonds.svg	stimuli_distractor_trianglediamonds.svg	2	yes	ka	1	1745	6	2	antiphase_hc_ios.wav	3	6	5	noise_calib_stim_RIGHT.wav	2	21	blb_dichoticlistening_ka-ga.mp3	ka	ga	1	left
6.6.1	win	2023-06-27	21:28:38	21:39:59	672258	641364d0e4356f62a8c4532d	4	1	DL_test	23	DL_test	25	stimuli_target_rectanglediamonds.svg	stimuli_distractor_trianglediamonds.svg	2	yes	ga	1	1717	6	2	antiphase_hc_ios.wav	3	6	5	noise_calib_stim_RIGHT.wav	2	3	blb_dichoticlistening_ba-ga.mp3	ba	ga	1	right
6.6.1	win	2023-06-27	21:28:38	21:39:59	672258	641364d0e4356f62a8c4532d	4	1	DL_test	23	DL_test	26	stimuli_target_rectanglediamonds.svg	stimuli_distractor_trianglediamonds.svg	2	yes	da	1	933	6	2	antiphase_hc_ios.wav	3	6	5	noise_calib_stim_RIGHT.wav	2	2	blb_dichoticlistening_ba-da.mp3	ba	da	1	right
