build	computer.platform	date	time	timestamp	time_elapsed_ms	subject	group	session	blockcode	blocknum	trialcode	trialnum	stimulus_left	stimulus_right	stim_index	target_present	response	correct	latency	headphonecheck_countTestTrials	headphonecheck_index	headphonecheck_testSound	headphonecheck_correctResponse	stereocheck_countTestTrials	stereocheck_index	stereocheck_testSound	stereocheck_correctResponse	DL_index	DL_soundfile	DL_leftSound	DL_rightSound	DL_dualSound	DL_choice
6.6.1	win	2023-06-01	23:02:33	23:05:51	195318	5dd742a140460e6e2b707d58	4	1	practice_z	5	practice_z	1	stimuli_distractor_trianglediamonds.svg	stimuli_target_diamondrectangles.svg	12	yes	44	1	781	0	0			0	0			1				0	
6.6.1	win	2023-06-01	23:02:33	23:05:51	195318	5dd742a140460e6e2b707d58	4	1	practice_z	5	advance_on_keypress_ZEE	2	stimuli_distractor_trianglediamonds.svg	stimuli_target_diamondrectangles.svg	12	yes	57	0	2527	0	0			0	0			1				0	
6.6.1	win	2023-06-01	23:02:33	23:05:56	200772	5dd742a140460e6e2b707d58	4	1	practice_z	5	practice_z	3	stimuli_distractor_trianglediamonds.svg	stimuli_target_rectanglediamonds.svg	10	yes	44	1	1276	0	0			0	0			1				0	
6.6.1	win	2023-06-01	23:02:33	23:05:56	200772	5dd742a140460e6e2b707d58	4	1	practice_z	5	advance_on_keypress_ZEE	4	stimuli_distractor_trianglediamonds.svg	stimuli_target_rectanglediamonds.svg	10	yes	57	0	1057	0	0			0	0			1				0	
6.6.1	win	2023-06-01	23:02:33	23:06:00	204605	5dd742a140460e6e2b707d58	4	1	practice_z	5	practice_z	5	stimuli_target_squarediamonds.svg	stimuli_distractor_diamondtriangles.svg	2	yes	44	1	1147	0	0			0	0			1				0	
6.6.1	win	2023-06-01	23:02:33	23:06:00	204605	5dd742a140460e6e2b707d58	4	1	practice_z	5	advance_on_keypress_ZEE	6	stimuli_target_squarediamonds.svg	stimuli_distractor_diamondtriangles.svg	2	yes	57	0	579	0	0			0	0			1				0	
6.6.1	win	2023-06-01	23:02:33	23:06:03	207831	5dd742a140460e6e2b707d58	4	1	practice_z	5	practice_z	7	stimuli_distractor_diamondtriangles.svg	stimuli_target_rectangletriangles.svg	7	yes	44	1	999	0	0			0	0			1				0	
6.6.1	win	2023-06-01	23:02:33	23:06:03	207831	5dd742a140460e6e2b707d58	4	1	practice_z	5	advance_on_keypress_ZEE	8	stimuli_distractor_diamondtriangles.svg	stimuli_target_rectangletriangles.svg	7	yes	57	0	2446	0	0			0	0			1				0	
6.6.1	win	2023-06-01	23:02:33	23:06:09	212926	5dd742a140460e6e2b707d58	4	1	practice_z	5	practice_z	9	stimuli_target_squarediamonds.svg	stimuli_distractor_trianglediamonds.svg	5	yes	44	1	1014	0	0			0	0			1				0	
6.6.1	win	2023-06-01	23:02:33	23:06:09	212926	5dd742a140460e6e2b707d58	4	1	practice_z	5	advance_on_keypress_ZEE	10	stimuli_target_squarediamonds.svg	stimuli_distractor_trianglediamonds.svg	5	yes	57	0	1091	0	0			0	0			1				0	
6.6.1	win	2023-06-01	23:02:33	23:06:13	217140	5dd742a140460e6e2b707d58	4	1	practice_z	5	practice_z	11	stimuli_distractor_diamondtriangles.svg	stimuli_distractor_diamondtriangles.svg	13	no	44	0	1480	0	0			0	0			1				0	
6.6.1	win	2023-06-01	23:02:33	23:06:13	217140	5dd742a140460e6e2b707d58	4	1	practice_z	5	advance_on_keypress_ZEE	12	stimuli_distractor_diamondtriangles.svg	stimuli_distractor_diamondtriangles.svg	13	no	57	0	523	0	0			0	0			1				0	
6.6.1	win	2023-06-01	23:02:33	23:06:17	221300	5dd742a140460e6e2b707d58	4	1	practice_z	5	practice_z	13	stimuli_distractor_diamondtriangles.svg	stimuli_distractor_trianglediamonds.svg	14	no	0	1	2000	0	0			0	0			1				0	
6.6.1	win	2023-06-01	23:02:33	23:06:17	221300	5dd742a140460e6e2b707d58	4	1	practice_z	5	advance_on_keypress_ZEE	14	stimuli_distractor_diamondtriangles.svg	stimuli_distractor_trianglediamonds.svg	14	no	57	0	514	0	0			0	0			1				0	
6.6.1	win	2023-06-01	23:02:33	23:06:21	225447	5dd742a140460e6e2b707d58	4	1	practice_z	5	practice_z	15	stimuli_distractor_trianglediamonds.svg	stimuli_distractor_diamondtriangles.svg	16	no	0	1	2000	0	0			0	0			1				0	
6.6.1	win	2023-06-01	23:02:33	23:06:21	225447	5dd742a140460e6e2b707d58	4	1	practice_z	5	advance_on_keypress_ZEE	16	stimuli_distractor_trianglediamonds.svg	stimuli_distractor_diamondtriangles.svg	16	no	57	0	517	0	0			0	0			1				0	
6.6.1	win	2023-06-01	23:02:33	23:06:25	229030	5dd742a140460e6e2b707d58	4	1	practice_z	5	practice_z	17	stimuli_distractor_trianglediamonds.svg	stimuli_target_squarediamonds.svg	11	yes	44	1	1423	0	0			0	0			1				0	
6.6.1	win	2023-06-01	23:02:33	23:06:25	229030	5dd742a140460e6e2b707d58	4	1	practice_z	5	advance_on_keypress_ZEE	18	stimuli_distractor_trianglediamonds.svg	stimuli_target_squarediamonds.svg	11	yes	57	0	591	0	0			0	0			1				0	
6.6.1	win	2023-06-01	23:02:33	23:06:29	233261	5dd742a140460e6e2b707d58	4	1	practice_z	5	practice_z	19	stimuli_target_rectanglediamonds.svg	stimuli_distractor_trianglediamonds.svg	4	yes	0	0	2000	0	0			0	0			1				0	
6.6.1	win	2023-06-01	23:02:33	23:06:29	233261	5dd742a140460e6e2b707d58	4	1	practice_z	5	advance_on_keypress_ZEE	20	stimuli_target_rectanglediamonds.svg	stimuli_distractor_trianglediamonds.svg	4	yes	57	0	814	0	0			0	0			1				0	
6.6.1	win	2023-06-01	23:02:33	23:06:33	237714	5dd742a140460e6e2b707d58	4	1	practice_z	5	practice_z	21	stimuli_distractor_diamondtriangles.svg	stimuli_target_trianglerectangles.svg	9	yes	0	0	2000	0	0			0	0			1				0	
6.6.1	win	2023-06-01	23:02:33	23:06:33	237714	5dd742a140460e6e2b707d58	4	1	practice_z	5	advance_on_keypress_ZEE	22	stimuli_distractor_diamondtriangles.svg	stimuli_target_trianglerectangles.svg	9	yes	57	0	562	0	0			0	0			1				0	
6.6.1	win	2023-06-01	23:02:33	23:06:36	240862	5dd742a140460e6e2b707d58	4	1	practice_z	5	practice_z	23	stimuli_distractor_diamondtriangles.svg	stimuli_target_diamondrectangles.svg	8	yes	44	1	949	0	0			0	0			1				0	
6.6.1	win	2023-06-01	23:02:33	23:06:36	240862	5dd742a140460e6e2b707d58	4	1	practice_z	5	advance_on_keypress_ZEE	24	stimuli_distractor_diamondtriangles.svg	stimuli_target_diamondrectangles.svg	8	yes	57	0	648	0	0			0	0			1				0	
6.6.1	win	2023-06-01	23:02:33	23:06:41	245153	5dd742a140460e6e2b707d58	4	1	practice_z	5	practice_z	25	stimuli_target_diamondsquares.svg	stimuli_distractor_trianglediamonds.svg	6	yes	0	0	2000	0	0			0	0			1				0	
6.6.1	win	2023-06-01	23:02:33	23:06:41	245153	5dd742a140460e6e2b707d58	4	1	practice_z	5	advance_on_keypress_ZEE	26	stimuli_target_diamondsquares.svg	stimuli_distractor_trianglediamonds.svg	6	yes	57	0	565	0	0			0	0			1				0	
6.6.1	win	2023-06-01	23:02:33	23:06:44	248328	5dd742a140460e6e2b707d58	4	1	practice_z	5	practice_z	27	stimuli_distractor_trianglediamonds.svg	stimuli_distractor_trianglediamonds.svg	15	no	44	0	975	0	0			0	0			1				0	
6.6.1	win	2023-06-01	23:02:33	23:06:44	248328	5dd742a140460e6e2b707d58	4	1	practice_z	5	advance_on_keypress_ZEE	28	stimuli_distractor_trianglediamonds.svg	stimuli_distractor_trianglediamonds.svg	15	no	57	0	596	0	0			0	0			1				0	
6.6.1	win	2023-06-01	23:02:33	23:06:47	251684	5dd742a140460e6e2b707d58	4	1	practice_z	5	practice_z	29	stimuli_target_rectanglediamonds.svg	stimuli_distractor_diamondtriangles.svg	1	yes	44	1	1132	0	0			0	0			1				0	
6.6.1	win	2023-06-01	23:02:33	23:06:47	251684	5dd742a140460e6e2b707d58	4	1	practice_z	5	advance_on_keypress_ZEE	30	stimuli_target_rectanglediamonds.svg	stimuli_distractor_diamondtriangles.svg	1	yes	57	0	730	0	0			0	0			1				0	
6.6.1	win	2023-06-01	23:02:33	23:06:52	256047	5dd742a140460e6e2b707d58	4	1	practice_z	5	practice_z	31	stimuli_target_diamondsquares.svg	stimuli_distractor_diamondtriangles.svg	3	yes	0	0	2000	0	0			0	0			1				0	
6.6.1	win	2023-06-01	23:02:33	23:06:52	256047	5dd742a140460e6e2b707d58	4	1	practice_z	5	advance_on_keypress_ZEE	32	stimuli_target_diamondsquares.svg	stimuli_distractor_diamondtriangles.svg	3	yes	57	0	508	0	0			0	0			1				0	
6.6.1	win	2023-06-01	23:02:33	23:07:06	270453	5dd742a140460e6e2b707d58	4	1	main_z	7	main_z	1	stimuli_distractor_trianglediamonds.svg	stimuli_target_squaretriangles.svg	11	yes	44	1	846	0	0			0	0			1				0	
6.6.1	win	2023-06-01	23:02:33	23:07:06	270453	5dd742a140460e6e2b707d58	4	1	main_z	7	advance_on_keypress_ZEE	2	stimuli_distractor_trianglediamonds.svg	stimuli_target_squaretriangles.svg	11	yes	57	0	970	0	0			0	0			1				0	
6.6.1	win	2023-06-01	23:02:33	23:07:10	274048	5dd742a140460e6e2b707d58	4	1	main_z	7	main_z	3	stimuli_distractor_diamondtriangles.svg	stimuli_distractor_diamondtriangles.svg	39	no	0	1	2000	0	0			0	0			1				0	
6.6.1	win	2023-06-01	23:02:33	23:07:10	274048	5dd742a140460e6e2b707d58	4	1	main_z	7	advance_on_keypress_ZEE	4	stimuli_distractor_diamondtriangles.svg	stimuli_distractor_diamondtriangles.svg	39	no	57	0	582	0	0			0	0			1				0	
6.6.1	win	2023-06-01	23:02:33	23:07:12	276054	5dd742a140460e6e2b707d58	4	1	main_z	7	main_z	5	stimuli_target_diamondsquares.svg	stimuli_distractor_diamondtriangles.svg	24	yes	44	1	791	0	0			0	0			1				0	
6.6.1	win	2023-06-01	23:02:33	23:07:12	276054	5dd742a140460e6e2b707d58	4	1	main_z	7	advance_on_keypress_ZEE	6	stimuli_target_diamondsquares.svg	stimuli_distractor_diamondtriangles.svg	24	yes	57	0	571	0	0			0	0			1				0	
6.6.1	win	2023-06-01	23:02:33	23:07:14	278073	5dd742a140460e6e2b707d58	4	1	main_z	7	main_z	7	stimuli_distractor_trianglediamonds.svg	stimuli_target_rectangletriangles.svg	9	yes	44	1	812	0	0			0	0			1				0	
6.6.1	win	2023-06-01	23:02:33	23:07:14	278073	5dd742a140460e6e2b707d58	4	1	main_z	7	advance_on_keypress_ZEE	8	stimuli_distractor_trianglediamonds.svg	stimuli_target_rectangletriangles.svg	9	yes	57	0	346	0	0			0	0			1				0	
6.6.1	win	2023-06-01	23:02:33	23:07:17	281062	5dd742a140460e6e2b707d58	4	1	main_z	7	main_z	9	stimuli_distractor_diamondtriangles.svg	stimuli_target_trianglesquares.svg	30	yes	0	0	2000	0	0			0	0			1				0	
6.6.1	win	2023-06-01	23:02:33	23:07:17	281062	5dd742a140460e6e2b707d58	4	1	main_z	7	advance_on_keypress_ZEE	10	stimuli_distractor_diamondtriangles.svg	stimuli_target_trianglesquares.svg	30	yes	57	0	432	0	0			0	0			1				0	
6.6.1	win	2023-06-01	23:02:33	23:07:19	283017	5dd742a140460e6e2b707d58	4	1	main_z	7	main_z	11	stimuli_distractor_trianglediamonds.svg	stimuli_target_rectanglediamonds.svg	10	yes	44	1	888	0	0			0	0			1				0	
6.6.1	win	2023-06-01	23:02:33	23:07:19	283017	5dd742a140460e6e2b707d58	4	1	main_z	7	advance_on_keypress_ZEE	12	stimuli_distractor_trianglediamonds.svg	stimuli_target_rectanglediamonds.svg	10	yes	57	0	427	0	0			0	0			1				0	
6.6.1	win	2023-06-01	23:02:33	23:07:21	285037	5dd742a140460e6e2b707d58	4	1	main_z	7	main_z	13	stimuli_target_rectanglediamonds.svg	stimuli_distractor_trianglediamonds.svg	2	yes	44	1	961	0	0			0	0			1				0	
6.6.1	win	2023-06-01	23:02:33	23:07:21	285037	5dd742a140460e6e2b707d58	4	1	main_z	7	advance_on_keypress_ZEE	14	stimuli_target_rectanglediamonds.svg	stimuli_distractor_trianglediamonds.svg	2	yes	57	0	369	0	0			0	0			1				0	
6.6.1	win	2023-06-01	23:02:33	23:07:24	288036	5dd742a140460e6e2b707d58	4	1	main_z	7	main_z	15	stimuli_target_trianglesquares.svg	stimuli_distractor_diamondtriangles.svg	22	yes	0	0	2000	0	0			0	0			1				0	
6.6.1	win	2023-06-01	23:02:33	23:07:24	288036	5dd742a140460e6e2b707d58	4	1	main_z	7	advance_on_keypress_ZEE	16	stimuli_target_trianglesquares.svg	stimuli_distractor_diamondtriangles.svg	22	yes	57	0	514	0	0			0	0			1				0	
6.6.1	win	2023-06-01	23:02:33	23:07:26	290100	5dd742a140460e6e2b707d58	4	1	main_z	7	main_z	17	stimuli_distractor_diamondtriangles.svg	stimuli_target_squaretriangles.svg	15	yes	44	1	916	0	0			0	0			1				0	
6.6.1	win	2023-06-01	23:02:33	23:07:26	290100	5dd742a140460e6e2b707d58	4	1	main_z	7	advance_on_keypress_ZEE	18	stimuli_distractor_diamondtriangles.svg	stimuli_target_squaretriangles.svg	15	yes	57	0	580	0	0			0	0			1				0	
6.6.1	win	2023-06-01	23:02:33	23:07:28	292312	5dd742a140460e6e2b707d58	4	1	main_z	7	main_z	19	stimuli_target_squarediamonds.svg	stimuli_distractor_diamondtriangles.svg	8	yes	44	1	1009	0	0			0	0			1				0	
6.6.1	win	2023-06-01	23:02:33	23:07:28	292312	5dd742a140460e6e2b707d58	4	1	main_z	7	advance_on_keypress_ZEE	20	stimuli_target_squarediamonds.svg	stimuli_distractor_diamondtriangles.svg	8	yes	57	0	436	0	0			0	0			1				0	
6.6.1	win	2023-06-01	23:02:33	23:07:30	294429	5dd742a140460e6e2b707d58	4	1	main_z	7	main_z	21	stimuli_distractor_diamondtriangles.svg	stimuli_distractor_trianglediamonds.svg	37	no	44	0	1059	0	0			0	0			1				0	
6.6.1	win	2023-06-01	23:02:33	23:07:30	294429	5dd742a140460e6e2b707d58	4	1	main_z	7	advance_on_keypress_ZEE	22	stimuli_distractor_diamondtriangles.svg	stimuli_distractor_trianglediamonds.svg	37	no	57	0	741	0	0			0	0			1				0	
6.6.1	win	2023-06-01	23:02:33	23:07:33	297796	5dd742a140460e6e2b707d58	4	1	main_z	7	main_z	23	stimuli_distractor_diamondtriangles.svg	stimuli_distractor_trianglediamonds.svg	38	no	0	1	2000	0	0			0	0			1				0	
6.6.1	win	2023-06-01	23:02:33	23:07:33	297796	5dd742a140460e6e2b707d58	4	1	main_z	7	advance_on_keypress_ZEE	24	stimuli_distractor_diamondtriangles.svg	stimuli_distractor_trianglediamonds.svg	38	no	57	0	292	0	0			0	0			1				0	
6.6.1	win	2023-06-01	23:02:33	23:07:36	300731	5dd742a140460e6e2b707d58	4	1	main_z	7	main_z	25	stimuli_distractor_trianglediamonds.svg	stimuli_target_diamondrectangles.svg	27	yes	0	0	2000	0	0			0	0			1				0	
6.6.1	win	2023-06-01	23:02:33	23:07:36	300731	5dd742a140460e6e2b707d58	4	1	main_z	7	advance_on_keypress_ZEE	26	stimuli_distractor_trianglediamonds.svg	stimuli_target_diamondrectangles.svg	27	yes	57	0	276	0	0			0	0			1				0	
6.6.1	win	2023-06-01	23:02:33	23:07:38	302633	5dd742a140460e6e2b707d58	4	1	main_z	7	main_z	27	stimuli_target_trianglesquares.svg	stimuli_distractor_trianglediamonds.svg	18	yes	44	1	996	0	0			0	0			1				0	
6.6.1	win	2023-06-01	23:02:33	23:07:38	302633	5dd742a140460e6e2b707d58	4	1	main_z	7	advance_on_keypress_ZEE	28	stimuli_target_trianglesquares.svg	stimuli_distractor_trianglediamonds.svg	18	yes	57	0	452	0	0			0	0			1				0	
6.6.1	win	2023-06-01	23:02:33	23:07:41	305717	5dd742a140460e6e2b707d58	4	1	main_z	7	main_z	29	stimuli_distractor_diamondtriangles.svg	stimuli_target_trianglerectangles.svg	29	yes	0	0	2000	0	0			0	0			1				0	
6.6.1	win	2023-06-01	23:02:33	23:07:41	305717	5dd742a140460e6e2b707d58	4	1	main_z	7	advance_on_keypress_ZEE	30	stimuli_distractor_diamondtriangles.svg	stimuli_target_trianglerectangles.svg	29	yes	57	0	444	0	0			0	0			1				0	
6.6.1	win	2023-06-01	23:02:33	23:07:44	308060	5dd742a140460e6e2b707d58	4	1	main_z	7	main_z	31	stimuli_distractor_diamondtriangles.svg	stimuli_target_rectanglediamonds.svg	14	yes	44	1	1263	0	0			0	0			1				0	
6.6.1	win	2023-06-01	23:02:33	23:07:44	308060	5dd742a140460e6e2b707d58	4	1	main_z	7	advance_on_keypress_ZEE	32	stimuli_distractor_diamondtriangles.svg	stimuli_target_rectanglediamonds.svg	14	yes	57	0	392	0	0			0	0			1				0	
6.6.1	win	2023-06-01	23:02:33	23:07:47	311077	5dd742a140460e6e2b707d58	4	1	main_z	7	main_z	33	stimuli_distractor_trianglediamonds.svg	stimuli_distractor_diamondtriangles.svg	35	no	0	1	2000	0	0			0	0			1				0	
6.6.1	win	2023-06-01	23:02:33	23:07:47	311077	5dd742a140460e6e2b707d58	4	1	main_z	7	advance_on_keypress_ZEE	34	stimuli_distractor_trianglediamonds.svg	stimuli_distractor_diamondtriangles.svg	35	no	57	0	374	0	0			0	0			1				0	
6.6.1	win	2023-06-01	23:02:33	23:07:49	313230	5dd742a140460e6e2b707d58	4	1	main_z	7	main_z	35	stimuli_distractor_diamondtriangles.svg	stimuli_distractor_diamondtriangles.svg	40	no	44	0	1139	0	0			0	0			1				0	
6.6.1	win	2023-06-01	23:02:33	23:07:49	313230	5dd742a140460e6e2b707d58	4	1	main_z	7	advance_on_keypress_ZEE	36	stimuli_distractor_diamondtriangles.svg	stimuli_distractor_diamondtriangles.svg	40	no	57	0	544	0	0			0	0			1				0	
6.6.1	win	2023-06-01	23:02:33	23:07:52	316398	5dd742a140460e6e2b707d58	4	1	main_z	7	main_z	37	stimuli_target_diamondsquares.svg	stimuli_distractor_trianglediamonds.svg	20	yes	0	0	2000	0	0			0	0			1				0	
6.6.1	win	2023-06-01	23:02:33	23:07:52	316398	5dd742a140460e6e2b707d58	4	1	main_z	7	advance_on_keypress_ZEE	38	stimuli_target_diamondsquares.svg	stimuli_distractor_trianglediamonds.svg	20	yes	57	0	273	0	0			0	0			1				0	
6.6.1	win	2023-06-01	23:02:33	23:07:54	318252	5dd742a140460e6e2b707d58	4	1	main_z	7	main_z	39	stimuli_target_rectangletriangles.svg	stimuli_distractor_diamondtriangles.svg	5	yes	44	1	947	0	0			0	0			1				0	
6.6.1	win	2023-06-01	23:02:33	23:07:54	318252	5dd742a140460e6e2b707d58	4	1	main_z	7	advance_on_keypress_ZEE	40	stimuli_target_rectangletriangles.svg	stimuli_distractor_diamondtriangles.svg	5	yes	57	0	447	0	0			0	0			1				0	
6.6.1	win	2023-06-01	23:02:33	23:07:56	320553	5dd742a140460e6e2b707d58	4	1	main_z	7	main_z	41	stimuli_target_diamondrectangles.svg	stimuli_distractor_diamondtriangles.svg	23	yes	44	1	1221	0	0			0	0			1				0	
6.6.1	win	2023-06-01	23:02:33	23:07:56	320553	5dd742a140460e6e2b707d58	4	1	main_z	7	advance_on_keypress_ZEE	42	stimuli_target_diamondrectangles.svg	stimuli_distractor_diamondtriangles.svg	23	yes	57	0	311	0	0			0	0			1				0	
6.6.1	win	2023-06-01	23:02:33	23:07:59	323492	5dd742a140460e6e2b707d58	4	1	main_z	7	main_z	43	stimuli_target_diamondrectangles.svg	stimuli_distractor_trianglediamonds.svg	19	yes	0	0	2000	0	0			0	0			1				0	
6.6.1	win	2023-06-01	23:02:33	23:07:59	323492	5dd742a140460e6e2b707d58	4	1	main_z	7	advance_on_keypress_ZEE	44	stimuli_target_diamondrectangles.svg	stimuli_distractor_trianglediamonds.svg	19	yes	57	0	314	0	0			0	0			1				0	
6.6.1	win	2023-06-01	23:02:33	23:08:01	325473	5dd742a140460e6e2b707d58	4	1	main_z	7	main_z	45	stimuli_distractor_diamondtriangles.svg	stimuli_target_diamondsquares.svg	32	yes	44	1	1033	0	0			0	0			1				0	
6.6.1	win	2023-06-01	23:02:33	23:08:01	325473	5dd742a140460e6e2b707d58	4	1	main_z	7	advance_on_keypress_ZEE	46	stimuli_distractor_diamondtriangles.svg	stimuli_target_diamondsquares.svg	32	yes	57	0	301	0	0			0	0			1				0	
6.6.1	win	2023-06-01	23:02:33	23:08:04	328399	5dd742a140460e6e2b707d58	4	1	main_z	7	main_z	47	stimuli_distractor_trianglediamonds.svg	stimuli_target_diamondsquares.svg	28	yes	0	0	2000	0	0			0	0			1				0	
6.6.1	win	2023-06-01	23:02:33	23:08:04	328399	5dd742a140460e6e2b707d58	4	1	main_z	7	advance_on_keypress_ZEE	48	stimuli_distractor_trianglediamonds.svg	stimuli_target_diamondsquares.svg	28	yes	57	0	330	0	0			0	0			1				0	
6.6.1	win	2023-06-01	23:02:33	23:08:07	331359	5dd742a140460e6e2b707d58	4	1	main_z	7	main_z	49	stimuli_distractor_trianglediamonds.svg	stimuli_distractor_trianglediamonds.svg	34	no	0	1	2000	0	0			0	0			1				0	
6.6.1	win	2023-06-01	23:02:33	23:08:07	331359	5dd742a140460e6e2b707d58	4	1	main_z	7	advance_on_keypress_ZEE	50	stimuli_distractor_trianglediamonds.svg	stimuli_distractor_trianglediamonds.svg	34	no	57	0	298	0	0			0	0			1				0	
6.6.1	win	2023-06-01	23:02:33	23:08:09	333184	5dd742a140460e6e2b707d58	4	1	main_z	7	main_z	51	stimuli_distractor_trianglediamonds.svg	stimuli_target_squarediamonds.svg	12	yes	44	1	892	0	0			0	0			1				0	
6.6.1	win	2023-06-01	23:02:33	23:08:09	333184	5dd742a140460e6e2b707d58	4	1	main_z	7	advance_on_keypress_ZEE	52	stimuli_distractor_trianglediamonds.svg	stimuli_target_squarediamonds.svg	12	yes	57	0	453	0	0			0	0			1				0	
6.6.1	win	2023-06-01	23:02:33	23:08:11	335241	5dd742a140460e6e2b707d58	4	1	main_z	7	main_z	53	stimuli_target_rectanglediamonds.svg	stimuli_distractor_diamondtriangles.svg	6	yes	44	1	962	0	0			0	0			1				0	
6.6.1	win	2023-06-01	23:02:33	23:08:11	335241	5dd742a140460e6e2b707d58	4	1	main_z	7	advance_on_keypress_ZEE	54	stimuli_target_rectanglediamonds.svg	stimuli_distractor_diamondtriangles.svg	6	yes	57	0	356	0	0			0	0			1				0	
6.6.1	win	2023-06-01	23:02:33	23:08:14	338226	5dd742a140460e6e2b707d58	4	1	main_z	7	main_z	55	stimuli_target_trianglerectangles.svg	stimuli_distractor_trianglediamonds.svg	17	yes	0	0	2000	0	0			0	0			1				0	
6.6.1	win	2023-06-01	23:02:33	23:08:14	338226	5dd742a140460e6e2b707d58	4	1	main_z	7	advance_on_keypress_ZEE	56	stimuli_target_trianglerectangles.svg	stimuli_distractor_trianglediamonds.svg	17	yes	57	0	343	0	0			0	0			1				0	
6.6.1	win	2023-06-01	23:02:33	23:08:17	341200	5dd742a140460e6e2b707d58	4	1	main_z	7	main_z	57	stimuli_distractor_trianglediamonds.svg	stimuli_distractor_trianglediamonds.svg	33	no	0	1	2000	0	0			0	0			1				0	
6.6.1	win	2023-06-01	23:02:33	23:08:17	341200	5dd742a140460e6e2b707d58	4	1	main_z	7	advance_on_keypress_ZEE	58	stimuli_distractor_trianglediamonds.svg	stimuli_distractor_trianglediamonds.svg	33	no	57	0	320	0	0			0	0			1				0	
6.6.1	win	2023-06-01	23:02:33	23:08:20	344160	5dd742a140460e6e2b707d58	4	1	main_z	7	main_z	59	stimuli_distractor_diamondtriangles.svg	stimuli_target_diamondrectangles.svg	31	yes	0	0	2000	0	0			0	0			1				0	
6.6.1	win	2023-06-01	23:02:33	23:08:20	344160	5dd742a140460e6e2b707d58	4	1	main_z	7	advance_on_keypress_ZEE	60	stimuli_distractor_diamondtriangles.svg	stimuli_target_diamondrectangles.svg	31	yes	57	0	285	0	0			0	0			1				0	
6.6.1	win	2023-06-01	23:02:33	23:08:21	345883	5dd742a140460e6e2b707d58	4	1	main_z	7	main_z	61	stimuli_target_squarediamonds.svg	stimuli_distractor_trianglediamonds.svg	4	yes	44	1	803	0	0			0	0			1				0	
6.6.1	win	2023-06-01	23:02:33	23:08:21	345883	5dd742a140460e6e2b707d58	4	1	main_z	7	advance_on_keypress_ZEE	62	stimuli_target_squarediamonds.svg	stimuli_distractor_trianglediamonds.svg	4	yes	57	0	444	0	0			0	0			1				0	
6.6.1	win	2023-06-01	23:02:33	23:08:24	348323	5dd742a140460e6e2b707d58	4	1	main_z	7	main_z	63	stimuli_distractor_trianglediamonds.svg	stimuli_target_trianglerectangles.svg	25	yes	44	1	1364	0	0			0	0			1				0	
6.6.1	win	2023-06-01	23:02:33	23:08:24	348323	5dd742a140460e6e2b707d58	4	1	main_z	7	advance_on_keypress_ZEE	64	stimuli_distractor_trianglediamonds.svg	stimuli_target_trianglerectangles.svg	25	yes	57	0	258	0	0			0	0			1				0	
6.6.1	win	2023-06-01	23:02:33	23:08:27	351214	5dd742a140460e6e2b707d58	4	1	main_z	7	main_z	65	stimuli_distractor_trianglediamonds.svg	stimuli_distractor_diamondtriangles.svg	36	no	0	1	2000	0	0			0	0			1				0	
6.6.1	win	2023-06-01	23:02:33	23:08:27	351214	5dd742a140460e6e2b707d58	4	1	main_z	7	advance_on_keypress_ZEE	66	stimuli_distractor_trianglediamonds.svg	stimuli_distractor_diamondtriangles.svg	36	no	57	0	359	0	0			0	0			1				0	
6.6.1	win	2023-06-01	23:02:33	23:08:29	353365	5dd742a140460e6e2b707d58	4	1	main_z	7	main_z	67	stimuli_distractor_diamondtriangles.svg	stimuli_target_squarediamonds.svg	16	yes	44	1	1152	0	0			0	0			1				0	
6.6.1	win	2023-06-01	23:02:33	23:08:29	353365	5dd742a140460e6e2b707d58	4	1	main_z	7	advance_on_keypress_ZEE	68	stimuli_distractor_diamondtriangles.svg	stimuli_target_squarediamonds.svg	16	yes	57	0	365	0	0			0	0			1				0	
6.6.1	win	2023-06-01	23:02:33	23:08:32	356361	5dd742a140460e6e2b707d58	4	1	main_z	7	main_z	69	stimuli_target_trianglerectangles.svg	stimuli_distractor_diamondtriangles.svg	21	yes	0	0	2000	0	0			0	0			1				0	
6.6.1	win	2023-06-01	23:02:33	23:08:32	356361	5dd742a140460e6e2b707d58	4	1	main_z	7	advance_on_keypress_ZEE	70	stimuli_target_trianglerectangles.svg	stimuli_distractor_diamondtriangles.svg	21	yes	57	0	334	0	0			0	0			1				0	
6.6.1	win	2023-06-01	23:02:33	23:08:34	358558	5dd742a140460e6e2b707d58	4	1	main_z	7	main_z	71	stimuli_target_rectangletriangles.svg	stimuli_distractor_trianglediamonds.svg	1	yes	44	1	1223	0	0			0	0			1				0	
6.6.1	win	2023-06-01	23:02:33	23:08:34	358558	5dd742a140460e6e2b707d58	4	1	main_z	7	advance_on_keypress_ZEE	72	stimuli_target_rectangletriangles.svg	stimuli_distractor_trianglediamonds.svg	1	yes	57	0	581	0	0			0	0			1				0	
6.6.1	win	2023-06-01	23:02:33	23:08:36	360663	5dd742a140460e6e2b707d58	4	1	main_z	7	main_z	73	stimuli_distractor_diamondtriangles.svg	stimuli_target_rectangletriangles.svg	13	yes	44	1	902	0	0			0	0			1				0	
6.6.1	win	2023-06-01	23:02:33	23:08:36	360663	5dd742a140460e6e2b707d58	4	1	main_z	7	advance_on_keypress_ZEE	74	stimuli_distractor_diamondtriangles.svg	stimuli_target_rectangletriangles.svg	13	yes	57	0	355	0	0			0	0			1				0	
6.6.1	win	2023-06-01	23:02:33	23:08:38	362525	5dd742a140460e6e2b707d58	4	1	main_z	7	main_z	75	stimuli_target_squaretriangles.svg	stimuli_distractor_trianglediamonds.svg	3	yes	44	1	882	0	0			0	0			1				0	
6.6.1	win	2023-06-01	23:02:33	23:08:38	362525	5dd742a140460e6e2b707d58	4	1	main_z	7	advance_on_keypress_ZEE	76	stimuli_target_squaretriangles.svg	stimuli_distractor_trianglediamonds.svg	3	yes	57	0	225	0	0			0	0			1				0	
6.6.1	win	2023-06-01	23:02:33	23:08:40	364169	5dd742a140460e6e2b707d58	4	1	main_z	7	main_z	77	stimuli_target_squaretriangles.svg	stimuli_distractor_diamondtriangles.svg	7	yes	44	1	781	0	0			0	0			1				0	
6.6.1	win	2023-06-01	23:02:33	23:08:40	364169	5dd742a140460e6e2b707d58	4	1	main_z	7	advance_on_keypress_ZEE	78	stimuli_target_squaretriangles.svg	stimuli_distractor_diamondtriangles.svg	7	yes	57	0	210	0	0			0	0			1				0	
6.6.1	win	2023-06-01	23:02:33	23:08:43	367003	5dd742a140460e6e2b707d58	4	1	main_z	7	main_z	79	stimuli_distractor_trianglediamonds.svg	stimuli_target_trianglesquares.svg	26	yes	0	0	2000	0	0			0	0			1				0	
6.6.1	win	2023-06-01	23:02:33	23:08:43	367003	5dd742a140460e6e2b707d58	4	1	main_z	7	advance_on_keypress_ZEE	80	stimuli_distractor_trianglediamonds.svg	stimuli_target_trianglesquares.svg	26	yes	57	0	259	0	0			0	0			1				0	
6.6.1	win	2023-06-01	23:02:33	23:08:46	369896	5dd742a140460e6e2b707d58	4	1	main_z	7	main_z	81	stimuli_distractor_trianglediamonds.svg	stimuli_target_trianglerectangles.svg	25	yes	0	0	2000	0	0			0	0			1				0	
6.6.1	win	2023-06-01	23:02:33	23:08:46	369896	5dd742a140460e6e2b707d58	4	1	main_z	7	advance_on_keypress_ZEE	82	stimuli_distractor_trianglediamonds.svg	stimuli_target_trianglerectangles.svg	25	yes	57	0	307	0	0			0	0			1				0	
6.6.1	win	2023-06-01	23:02:33	23:08:48	372843	5dd742a140460e6e2b707d58	4	1	main_z	7	main_z	83	stimuli_target_squaretriangles.svg	stimuli_distractor_trianglediamonds.svg	3	yes	0	0	2000	0	0			0	0			1				0	
6.6.1	win	2023-06-01	23:02:33	23:08:48	372843	5dd742a140460e6e2b707d58	4	1	main_z	7	advance_on_keypress_ZEE	84	stimuli_target_squaretriangles.svg	stimuli_distractor_trianglediamonds.svg	3	yes	57	0	331	0	0			0	0			1				0	
6.6.1	win	2023-06-01	23:02:33	23:08:51	375803	5dd742a140460e6e2b707d58	4	1	main_z	7	main_z	85	stimuli_target_trianglesquares.svg	stimuli_distractor_diamondtriangles.svg	22	yes	0	0	2000	0	0			0	0			1				0	
6.6.1	win	2023-06-01	23:02:33	23:08:51	375803	5dd742a140460e6e2b707d58	4	1	main_z	7	advance_on_keypress_ZEE	86	stimuli_target_trianglesquares.svg	stimuli_distractor_diamondtriangles.svg	22	yes	57	0	275	0	0			0	0			1				0	
6.6.1	win	2023-06-01	23:02:33	23:08:53	377584	5dd742a140460e6e2b707d58	4	1	main_z	7	main_z	87	stimuli_target_rectangletriangles.svg	stimuli_distractor_diamondtriangles.svg	5	yes	44	1	875	0	0			0	0			1				0	
6.6.1	win	2023-06-01	23:02:33	23:08:53	377584	5dd742a140460e6e2b707d58	4	1	main_z	7	advance_on_keypress_ZEE	88	stimuli_target_rectangletriangles.svg	stimuli_distractor_diamondtriangles.svg	5	yes	57	0	519	0	0			0	0			1				0	
6.6.1	win	2023-06-01	23:02:33	23:08:56	380737	5dd742a140460e6e2b707d58	4	1	main_z	7	main_z	89	stimuli_distractor_trianglediamonds.svg	stimuli_distractor_trianglediamonds.svg	33	no	0	1	2000	0	0			0	0			1				0	
6.6.1	win	2023-06-01	23:02:33	23:08:56	380737	5dd742a140460e6e2b707d58	4	1	main_z	7	advance_on_keypress_ZEE	90	stimuli_distractor_trianglediamonds.svg	stimuli_distractor_trianglediamonds.svg	33	no	57	0	307	0	0			0	0			1				0	
6.6.1	win	2023-06-01	23:02:33	23:08:58	382618	5dd742a140460e6e2b707d58	4	1	main_z	7	main_z	91	stimuli_target_diamondsquares.svg	stimuli_distractor_diamondtriangles.svg	24	yes	44	1	935	0	0			0	0			1				0	
6.6.1	win	2023-06-01	23:02:33	23:08:58	382618	5dd742a140460e6e2b707d58	4	1	main_z	7	advance_on_keypress_ZEE	92	stimuli_target_diamondsquares.svg	stimuli_distractor_diamondtriangles.svg	24	yes	57	0	219	0	0			0	0			1				0	
6.6.1	win	2023-06-01	23:02:33	23:09:01	385471	5dd742a140460e6e2b707d58	4	1	main_z	7	main_z	93	stimuli_distractor_trianglediamonds.svg	stimuli_target_diamondsquares.svg	28	yes	0	0	2000	0	0			0	0			1				0	
6.6.1	win	2023-06-01	23:02:33	23:09:01	385471	5dd742a140460e6e2b707d58	4	1	main_z	7	advance_on_keypress_ZEE	94	stimuli_distractor_trianglediamonds.svg	stimuli_target_diamondsquares.svg	28	yes	57	0	289	0	0			0	0			1				0	
6.6.1	win	2023-06-01	23:02:33	23:09:03	387200	5dd742a140460e6e2b707d58	4	1	main_z	7	main_z	95	stimuli_distractor_diamondtriangles.svg	stimuli_target_trianglesquares.svg	30	yes	44	1	809	0	0			0	0			1				0	
6.6.1	win	2023-06-01	23:02:33	23:09:03	387200	5dd742a140460e6e2b707d58	4	1	main_z	7	advance_on_keypress_ZEE	96	stimuli_distractor_diamondtriangles.svg	stimuli_target_trianglesquares.svg	30	yes	57	0	280	0	0			0	0			1				0	
6.6.1	win	2023-06-01	23:02:33	23:09:06	390111	5dd742a140460e6e2b707d58	4	1	main_z	7	main_z	97	stimuli_distractor_diamondtriangles.svg	stimuli_distractor_diamondtriangles.svg	39	no	0	1	2000	0	0			0	0			1				0	
6.6.1	win	2023-06-01	23:02:33	23:09:06	390111	5dd742a140460e6e2b707d58	4	1	main_z	7	advance_on_keypress_ZEE	98	stimuli_distractor_diamondtriangles.svg	stimuli_distractor_diamondtriangles.svg	39	no	57	0	275	0	0			0	0			1				0	
6.6.1	win	2023-06-01	23:02:33	23:09:07	391779	5dd742a140460e6e2b707d58	4	1	main_z	7	main_z	99	stimuli_target_rectanglediamonds.svg	stimuli_distractor_trianglediamonds.svg	2	yes	44	1	762	0	0			0	0			1				0	
6.6.1	win	2023-06-01	23:02:33	23:09:07	391779	5dd742a140460e6e2b707d58	4	1	main_z	7	advance_on_keypress_ZEE	100	stimuli_target_rectanglediamonds.svg	stimuli_distractor_trianglediamonds.svg	2	yes	57	0	301	0	0			0	0			1				0	
6.6.1	win	2023-06-01	23:02:33	23:09:09	393556	5dd742a140460e6e2b707d58	4	1	main_z	7	main_z	101	stimuli_target_squarediamonds.svg	stimuli_distractor_diamondtriangles.svg	8	yes	44	1	846	0	0			0	0			1				0	
6.6.1	win	2023-06-01	23:02:33	23:09:09	393556	5dd742a140460e6e2b707d58	4	1	main_z	7	advance_on_keypress_ZEE	102	stimuli_target_squarediamonds.svg	stimuli_distractor_diamondtriangles.svg	8	yes	57	0	188	0	0			0	0			1				0	
6.6.1	win	2023-06-01	23:02:33	23:09:12	396377	5dd742a140460e6e2b707d58	4	1	main_z	7	main_z	103	stimuli_target_diamondsquares.svg	stimuli_distractor_trianglediamonds.svg	20	yes	0	0	2000	0	0			0	0			1				0	
6.6.1	win	2023-06-01	23:02:33	23:09:12	396377	5dd742a140460e6e2b707d58	4	1	main_z	7	advance_on_keypress_ZEE	104	stimuli_target_diamondsquares.svg	stimuli_distractor_trianglediamonds.svg	20	yes	57	0	288	0	0			0	0			1				0	
6.6.1	win	2023-06-01	23:02:33	23:09:14	397917	5dd742a140460e6e2b707d58	4	1	main_z	7	main_z	105	stimuli_distractor_trianglediamonds.svg	stimuli_target_squaretriangles.svg	11	yes	44	1	620	0	0			0	0			1				0	
6.6.1	win	2023-06-01	23:02:33	23:09:14	397917	5dd742a140460e6e2b707d58	4	1	main_z	7	advance_on_keypress_ZEE	106	stimuli_distractor_trianglediamonds.svg	stimuli_target_squaretriangles.svg	11	yes	57	0	270	0	0			0	0			1				0	
6.6.1	win	2023-06-01	23:02:33	23:09:16	400817	5dd742a140460e6e2b707d58	4	1	main_z	7	main_z	107	stimuli_target_trianglerectangles.svg	stimuli_distractor_diamondtriangles.svg	21	yes	0	0	2000	0	0			0	0			1				0	
6.6.1	win	2023-06-01	23:02:33	23:09:16	400817	5dd742a140460e6e2b707d58	4	1	main_z	7	advance_on_keypress_ZEE	108	stimuli_target_trianglerectangles.svg	stimuli_distractor_diamondtriangles.svg	21	yes	57	0	268	0	0			0	0			1				0	
6.6.1	win	2023-06-01	23:02:33	23:09:19	403724	5dd742a140460e6e2b707d58	4	1	main_z	7	main_z	109	stimuli_distractor_trianglediamonds.svg	stimuli_distractor_diamondtriangles.svg	36	no	0	1	2000	0	0			0	0			1				0	
6.6.1	win	2023-06-01	23:02:33	23:09:19	403724	5dd742a140460e6e2b707d58	4	1	main_z	7	advance_on_keypress_ZEE	110	stimuli_distractor_trianglediamonds.svg	stimuli_distractor_diamondtriangles.svg	36	no	57	0	234	0	0			0	0			1				0	
6.6.1	win	2023-06-01	23:02:33	23:09:22	406591	5dd742a140460e6e2b707d58	4	1	main_z	7	main_z	111	stimuli_distractor_diamondtriangles.svg	stimuli_target_diamondrectangles.svg	31	yes	0	0	2000	0	0			0	0			1				0	
6.6.1	win	2023-06-01	23:02:33	23:09:22	406591	5dd742a140460e6e2b707d58	4	1	main_z	7	advance_on_keypress_ZEE	112	stimuli_distractor_diamondtriangles.svg	stimuli_target_diamondrectangles.svg	31	yes	57	0	422	0	0			0	0			1				0	
6.6.1	win	2023-06-01	23:02:33	23:09:25	409644	5dd742a140460e6e2b707d58	4	1	main_z	7	main_z	113	stimuli_distractor_diamondtriangles.svg	stimuli_distractor_trianglediamonds.svg	38	no	0	1	2000	0	0			0	0			1				0	
6.6.1	win	2023-06-01	23:02:33	23:09:25	409644	5dd742a140460e6e2b707d58	4	1	main_z	7	advance_on_keypress_ZEE	114	stimuli_distractor_diamondtriangles.svg	stimuli_distractor_trianglediamonds.svg	38	no	57	0	266	0	0			0	0			1				0	
6.6.1	win	2023-06-01	23:02:33	23:09:27	411241	5dd742a140460e6e2b707d58	4	1	main_z	7	main_z	115	stimuli_distractor_diamondtriangles.svg	stimuli_target_rectangletriangles.svg	13	yes	44	1	691	0	0			0	0			1				0	
6.6.1	win	2023-06-01	23:02:33	23:09:27	411241	5dd742a140460e6e2b707d58	4	1	main_z	7	advance_on_keypress_ZEE	116	stimuli_distractor_diamondtriangles.svg	stimuli_target_rectangletriangles.svg	13	yes	57	0	213	0	0			0	0			1				0	
6.6.1	win	2023-06-01	23:02:33	23:09:28	412789	5dd742a140460e6e2b707d58	4	1	main_z	7	main_z	117	stimuli_distractor_trianglediamonds.svg	stimuli_target_squarediamonds.svg	12	yes	44	1	704	0	0			0	0			1				0	
6.6.1	win	2023-06-01	23:02:33	23:09:28	412789	5dd742a140460e6e2b707d58	4	1	main_z	7	advance_on_keypress_ZEE	118	stimuli_distractor_trianglediamonds.svg	stimuli_target_squarediamonds.svg	12	yes	57	0	178	0	0			0	0			1				0	
6.6.1	win	2023-06-01	23:02:33	23:09:30	414324	5dd742a140460e6e2b707d58	4	1	main_z	7	main_z	119	stimuli_distractor_diamondtriangles.svg	stimuli_target_squaretriangles.svg	15	yes	44	1	718	0	0			0	0			1				0	
6.6.1	win	2023-06-01	23:02:33	23:09:30	414324	5dd742a140460e6e2b707d58	4	1	main_z	7	advance_on_keypress_ZEE	120	stimuli_distractor_diamondtriangles.svg	stimuli_target_squaretriangles.svg	15	yes	57	0	260	0	0			0	0			1				0	
6.6.1	win	2023-06-01	23:02:33	23:09:32	415909	5dd742a140460e6e2b707d58	4	1	main_z	7	main_z	121	stimuli_target_squaretriangles.svg	stimuli_distractor_diamondtriangles.svg	7	yes	44	1	689	0	0			0	0			1				0	
6.6.1	win	2023-06-01	23:02:33	23:09:32	415909	5dd742a140460e6e2b707d58	4	1	main_z	7	advance_on_keypress_ZEE	122	stimuli_target_squaretriangles.svg	stimuli_distractor_diamondtriangles.svg	7	yes	57	0	167	0	0			0	0			1				0	
6.6.1	win	2023-06-01	23:02:33	23:09:34	418699	5dd742a140460e6e2b707d58	4	1	main_z	7	main_z	123	stimuli_distractor_trianglediamonds.svg	stimuli_distractor_diamondtriangles.svg	35	no	0	1	2000	0	0			0	0			1				0	
6.6.1	win	2023-06-01	23:02:33	23:09:34	418699	5dd742a140460e6e2b707d58	4	1	main_z	7	advance_on_keypress_ZEE	124	stimuli_distractor_trianglediamonds.svg	stimuli_distractor_diamondtriangles.svg	35	no	57	0	289	0	0			0	0			1				0	
6.6.1	win	2023-06-01	23:02:33	23:09:36	420090	5dd742a140460e6e2b707d58	4	1	main_z	7	main_z	125	stimuli_distractor_trianglediamonds.svg	stimuli_target_rectangletriangles.svg	9	yes	44	1	471	0	0			0	0			1				0	
6.6.1	win	2023-06-01	23:02:33	23:09:36	420090	5dd742a140460e6e2b707d58	4	1	main_z	7	advance_on_keypress_ZEE	126	stimuli_distractor_trianglediamonds.svg	stimuli_target_rectangletriangles.svg	9	yes	57	0	195	0	0			0	0			1				0	
6.6.1	win	2023-06-01	23:02:33	23:09:39	422913	5dd742a140460e6e2b707d58	4	1	main_z	7	main_z	127	stimuli_distractor_diamondtriangles.svg	stimuli_target_trianglerectangles.svg	29	yes	0	0	2000	0	0			0	0			1				0	
6.6.1	win	2023-06-01	23:02:33	23:09:39	422913	5dd742a140460e6e2b707d58	4	1	main_z	7	advance_on_keypress_ZEE	128	stimuli_distractor_diamondtriangles.svg	stimuli_target_trianglerectangles.svg	29	yes	57	0	302	0	0			0	0			1				0	
6.6.1	win	2023-06-01	23:02:33	23:09:40	424628	5dd742a140460e6e2b707d58	4	1	main_z	7	main_z	129	stimuli_distractor_trianglediamonds.svg	stimuli_target_trianglesquares.svg	26	yes	44	1	782	0	0			0	0			1				0	
6.6.1	win	2023-06-01	23:02:33	23:09:40	424628	5dd742a140460e6e2b707d58	4	1	main_z	7	advance_on_keypress_ZEE	130	stimuli_distractor_trianglediamonds.svg	stimuli_target_trianglesquares.svg	26	yes	57	0	131	0	0			0	0			1				0	
6.6.1	win	2023-06-01	23:02:33	23:09:43	427394	5dd742a140460e6e2b707d58	4	1	main_z	7	main_z	131	stimuli_distractor_diamondtriangles.svg	stimuli_target_diamondsquares.svg	32	yes	0	0	2000	0	0			0	0			1				0	
6.6.1	win	2023-06-01	23:02:33	23:09:43	427394	5dd742a140460e6e2b707d58	4	1	main_z	7	advance_on_keypress_ZEE	132	stimuli_distractor_diamondtriangles.svg	stimuli_target_diamondsquares.svg	32	yes	57	0	292	0	0			0	0			1				0	
6.6.1	win	2023-06-01	23:02:33	23:09:45	429047	5dd742a140460e6e2b707d58	4	1	main_z	7	main_z	133	stimuli_distractor_diamondtriangles.svg	stimuli_distractor_diamondtriangles.svg	40	no	44	0	720	0	0			0	0			1				0	
6.6.1	win	2023-06-01	23:02:33	23:09:45	429047	5dd742a140460e6e2b707d58	4	1	main_z	7	advance_on_keypress_ZEE	134	stimuli_distractor_diamondtriangles.svg	stimuli_distractor_diamondtriangles.svg	40	no	57	0	546	0	0			0	0			1				0	
6.6.1	win	2023-06-01	23:02:33	23:09:48	432234	5dd742a140460e6e2b707d58	4	1	main_z	7	main_z	135	stimuli_distractor_trianglediamonds.svg	stimuli_target_diamondrectangles.svg	27	yes	0	0	2000	0	0			0	0			1				0	
6.6.1	win	2023-06-01	23:02:33	23:09:48	432234	5dd742a140460e6e2b707d58	4	1	main_z	7	advance_on_keypress_ZEE	136	stimuli_distractor_trianglediamonds.svg	stimuli_target_diamondrectangles.svg	27	yes	57	0	285	0	0			0	0			1				0	
6.6.1	win	2023-06-01	23:02:33	23:09:49	433645	5dd742a140460e6e2b707d58	4	1	main_z	7	main_z	137	stimuli_target_rectanglediamonds.svg	stimuli_distractor_diamondtriangles.svg	6	yes	44	1	491	0	0			0	0			1				0	
6.6.1	win	2023-06-01	23:02:33	23:09:49	433645	5dd742a140460e6e2b707d58	4	1	main_z	7	advance_on_keypress_ZEE	138	stimuli_target_rectanglediamonds.svg	stimuli_distractor_diamondtriangles.svg	6	yes	57	0	160	0	0			0	0			1				0	
6.6.1	win	2023-06-01	23:02:33	23:09:51	434977	5dd742a140460e6e2b707d58	4	1	main_z	7	main_z	139	stimuli_distractor_diamondtriangles.svg	stimuli_target_rectanglediamonds.svg	14	yes	44	1	530	0	0			0	0			1				0	
6.6.1	win	2023-06-01	23:02:33	23:09:51	434977	5dd742a140460e6e2b707d58	4	1	main_z	7	advance_on_keypress_ZEE	140	stimuli_distractor_diamondtriangles.svg	stimuli_target_rectanglediamonds.svg	14	yes	57	0	185	0	0			0	0			1				0	
6.6.1	win	2023-06-01	23:02:33	23:09:53	437795	5dd742a140460e6e2b707d58	4	1	main_z	7	main_z	141	stimuli_target_diamondrectangles.svg	stimuli_distractor_diamondtriangles.svg	23	yes	0	0	2000	0	0			0	0			1				0	
6.6.1	win	2023-06-01	23:02:33	23:09:53	437795	5dd742a140460e6e2b707d58	4	1	main_z	7	advance_on_keypress_ZEE	142	stimuli_target_diamondrectangles.svg	stimuli_distractor_diamondtriangles.svg	23	yes	57	0	219	0	0			0	0			1				0	
6.6.1	win	2023-06-01	23:02:33	23:09:55	439147	5dd742a140460e6e2b707d58	4	1	main_z	7	main_z	143	stimuli_target_rectangletriangles.svg	stimuli_distractor_trianglediamonds.svg	1	yes	44	1	500	0	0			0	0			1				0	
6.6.1	win	2023-06-01	23:02:33	23:09:55	439147	5dd742a140460e6e2b707d58	4	1	main_z	7	advance_on_keypress_ZEE	144	stimuli_target_rectangletriangles.svg	stimuli_distractor_trianglediamonds.svg	1	yes	57	0	189	0	0			0	0			1				0	
6.6.1	win	2023-06-01	23:02:33	23:09:57	441032	5dd742a140460e6e2b707d58	4	1	main_z	7	main_z	145	stimuli_distractor_diamondtriangles.svg	stimuli_target_squarediamonds.svg	16	yes	44	1	1065	0	0			0	0			1				0	
6.6.1	win	2023-06-01	23:02:33	23:09:57	441032	5dd742a140460e6e2b707d58	4	1	main_z	7	advance_on_keypress_ZEE	146	stimuli_distractor_diamondtriangles.svg	stimuli_target_squarediamonds.svg	16	yes	57	0	153	0	0			0	0			1				0	
6.6.1	win	2023-06-01	23:02:33	23:09:58	442577	5dd742a140460e6e2b707d58	4	1	main_z	7	main_z	147	stimuli_target_squarediamonds.svg	stimuli_distractor_trianglediamonds.svg	4	yes	44	1	756	0	0			0	0			1				0	
6.6.1	win	2023-06-01	23:02:33	23:09:58	442577	5dd742a140460e6e2b707d58	4	1	main_z	7	advance_on_keypress_ZEE	148	stimuli_target_squarediamonds.svg	stimuli_distractor_trianglediamonds.svg	4	yes	57	0	175	0	0			0	0			1				0	
6.6.1	win	2023-06-01	23:02:33	23:10:01	445382	5dd742a140460e6e2b707d58	4	1	main_z	7	main_z	149	stimuli_distractor_trianglediamonds.svg	stimuli_distractor_trianglediamonds.svg	34	no	0	1	2000	0	0			0	0			1				0	
6.6.1	win	2023-06-01	23:02:33	23:10:01	445382	5dd742a140460e6e2b707d58	4	1	main_z	7	advance_on_keypress_ZEE	150	stimuli_distractor_trianglediamonds.svg	stimuli_distractor_trianglediamonds.svg	34	no	57	0	277	0	0			0	0			1				0	
6.6.1	win	2023-06-01	23:02:33	23:10:04	448289	5dd742a140460e6e2b707d58	4	1	main_z	7	main_z	151	stimuli_target_trianglerectangles.svg	stimuli_distractor_trianglediamonds.svg	17	yes	0	0	2000	0	0			0	0			1				0	
6.6.1	win	2023-06-01	23:02:33	23:10:04	448289	5dd742a140460e6e2b707d58	4	1	main_z	7	advance_on_keypress_ZEE	152	stimuli_target_trianglerectangles.svg	stimuli_distractor_trianglediamonds.svg	17	yes	57	0	235	0	0			0	0			1				0	
6.6.1	win	2023-06-01	23:02:33	23:10:05	449777	5dd742a140460e6e2b707d58	4	1	main_z	7	main_z	153	stimuli_target_trianglesquares.svg	stimuli_distractor_trianglediamonds.svg	18	yes	44	1	622	0	0			0	0			1				0	
6.6.1	win	2023-06-01	23:02:33	23:10:05	449777	5dd742a140460e6e2b707d58	4	1	main_z	7	advance_on_keypress_ZEE	154	stimuli_target_trianglesquares.svg	stimuli_distractor_trianglediamonds.svg	18	yes	57	0	172	0	0			0	0			1				0	
6.6.1	win	2023-06-01	23:02:33	23:10:08	452582	5dd742a140460e6e2b707d58	4	1	main_z	7	main_z	155	stimuli_target_diamondrectangles.svg	stimuli_distractor_trianglediamonds.svg	19	yes	0	0	2000	0	0			0	0			1				0	
6.6.1	win	2023-06-01	23:02:33	23:10:08	452582	5dd742a140460e6e2b707d58	4	1	main_z	7	advance_on_keypress_ZEE	156	stimuli_target_diamondrectangles.svg	stimuli_distractor_trianglediamonds.svg	19	yes	57	0	277	0	0			0	0			1				0	
6.6.1	win	2023-06-01	23:02:33	23:10:11	455502	5dd742a140460e6e2b707d58	4	1	main_z	7	main_z	157	stimuli_distractor_diamondtriangles.svg	stimuli_distractor_trianglediamonds.svg	37	no	0	1	2000	0	0			0	0			1				0	
6.6.1	win	2023-06-01	23:02:33	23:10:11	455502	5dd742a140460e6e2b707d58	4	1	main_z	7	advance_on_keypress_ZEE	158	stimuli_distractor_diamondtriangles.svg	stimuli_distractor_trianglediamonds.svg	37	no	57	0	267	0	0			0	0			1				0	
6.6.1	win	2023-06-01	23:02:33	23:10:13	457007	5dd742a140460e6e2b707d58	4	1	main_z	7	main_z	159	stimuli_distractor_trianglediamonds.svg	stimuli_target_rectanglediamonds.svg	10	yes	44	1	598	0	0			0	0			1				0	
6.6.1	win	2023-06-01	23:02:33	23:10:13	457007	5dd742a140460e6e2b707d58	4	1	main_z	7	advance_on_keypress_ZEE	160	stimuli_distractor_trianglediamonds.svg	stimuli_target_rectanglediamonds.svg	10	yes	57	0	165	0	0			0	0			1				0	
6.6.1	win	2023-06-01	23:02:33	23:10:42	486510	5dd742a140460e6e2b707d58	4	1	practice_slash	9	practice_slash	1	stimuli_target_diamondsquares.svg	stimuli_distractor_diamondtriangles.svg	3	yes	53	1	1006	0	0			0	0			1				0	
6.6.1	win	2023-06-01	23:02:33	23:10:42	486510	5dd742a140460e6e2b707d58	4	1	practice_slash	9	advance_on_keypress_SLASH	2	stimuli_target_diamondsquares.svg	stimuli_distractor_diamondtriangles.svg	3	yes	57	0	786	0	0			0	0			1				0	
6.6.1	win	2023-06-01	23:02:33	23:10:47	490931	5dd742a140460e6e2b707d58	4	1	practice_slash	9	practice_slash	3	stimuli_distractor_trianglediamonds.svg	stimuli_distractor_diamondtriangles.svg	16	no	0	1	2000	0	0			0	0			1				0	
6.6.1	win	2023-06-01	23:02:33	23:10:47	490931	5dd742a140460e6e2b707d58	4	1	practice_slash	9	advance_on_keypress_SLASH	4	stimuli_distractor_trianglediamonds.svg	stimuli_distractor_diamondtriangles.svg	16	no	57	0	553	0	0			0	0			1				0	
6.6.1	win	2023-06-01	23:02:33	23:10:49	493808	5dd742a140460e6e2b707d58	4	1	practice_slash	9	practice_slash	5	stimuli_distractor_trianglediamonds.svg	stimuli_target_diamondrectangles.svg	12	yes	53	1	691	0	0			0	0			1				0	
6.6.1	win	2023-06-01	23:02:33	23:10:49	493808	5dd742a140460e6e2b707d58	4	1	practice_slash	9	advance_on_keypress_SLASH	6	stimuli_distractor_trianglediamonds.svg	stimuli_target_diamondrectangles.svg	12	yes	57	0	498	0	0			0	0			1				0	
6.6.1	win	2023-06-01	23:02:33	23:10:52	496514	5dd742a140460e6e2b707d58	4	1	practice_slash	9	practice_slash	7	stimuli_target_rectanglediamonds.svg	stimuli_distractor_trianglediamonds.svg	4	yes	53	1	583	0	0			0	0			1				0	
6.6.1	win	2023-06-01	23:02:33	23:10:52	496514	5dd742a140460e6e2b707d58	4	1	practice_slash	9	advance_on_keypress_SLASH	8	stimuli_target_rectanglediamonds.svg	stimuli_distractor_trianglediamonds.svg	4	yes	57	0	328	0	0			0	0			1				0	
6.6.1	win	2023-06-01	23:02:33	23:10:56	500465	5dd742a140460e6e2b707d58	4	1	practice_slash	9	practice_slash	9	stimuli_distractor_diamondtriangles.svg	stimuli_distractor_trianglediamonds.svg	14	no	0	1	2000	0	0			0	0			1				0	
6.6.1	win	2023-06-01	23:02:33	23:10:56	500465	5dd742a140460e6e2b707d58	4	1	practice_slash	9	advance_on_keypress_SLASH	10	stimuli_distractor_diamondtriangles.svg	stimuli_distractor_trianglediamonds.svg	14	no	57	0	459	0	0			0	0			1				0	
6.6.1	win	2023-06-01	23:02:33	23:10:59	503041	5dd742a140460e6e2b707d58	4	1	practice_slash	9	practice_slash	11	stimuli_distractor_trianglediamonds.svg	stimuli_target_rectanglediamonds.svg	10	yes	53	1	483	0	0			0	0			1				0	
6.6.1	win	2023-06-01	23:02:33	23:10:59	503041	5dd742a140460e6e2b707d58	4	1	practice_slash	9	advance_on_keypress_SLASH	12	stimuli_distractor_trianglediamonds.svg	stimuli_target_rectanglediamonds.svg	10	yes	57	0	469	0	0			0	0			1				0	
6.6.1	win	2023-06-01	23:02:33	23:11:01	505671	5dd742a140460e6e2b707d58	4	1	practice_slash	9	practice_slash	13	stimuli_distractor_trianglediamonds.svg	stimuli_target_squarediamonds.svg	11	yes	53	1	525	0	0			0	0			1				0	
6.6.1	win	2023-06-01	23:02:33	23:11:01	505671	5dd742a140460e6e2b707d58	4	1	practice_slash	9	advance_on_keypress_SLASH	14	stimuli_distractor_trianglediamonds.svg	stimuli_target_squarediamonds.svg	11	yes	57	0	333	0	0			0	0			1				0	
6.6.1	win	2023-06-01	23:02:33	23:11:04	508372	5dd742a140460e6e2b707d58	4	1	practice_slash	9	practice_slash	15	stimuli_target_diamondsquares.svg	stimuli_distractor_trianglediamonds.svg	6	yes	53	1	734	0	0			0	0			1				0	
6.6.1	win	2023-06-01	23:02:33	23:11:04	508372	5dd742a140460e6e2b707d58	4	1	practice_slash	9	advance_on_keypress_SLASH	16	stimuli_target_diamondsquares.svg	stimuli_distractor_trianglediamonds.svg	6	yes	57	0	410	0	0			0	0			1				0	
6.6.1	win	2023-06-01	23:02:33	23:11:08	512412	5dd742a140460e6e2b707d58	4	1	practice_slash	9	practice_slash	17	stimuli_distractor_diamondtriangles.svg	stimuli_target_diamondrectangles.svg	8	yes	0	0	2000	0	0			0	0			1				0	
6.6.1	win	2023-06-01	23:02:33	23:11:08	512412	5dd742a140460e6e2b707d58	4	1	practice_slash	9	advance_on_keypress_SLASH	18	stimuli_distractor_diamondtriangles.svg	stimuli_target_diamondrectangles.svg	8	yes	57	0	466	0	0			0	0			1				0	
6.6.1	win	2023-06-01	23:02:33	23:11:11	515197	5dd742a140460e6e2b707d58	4	1	practice_slash	9	practice_slash	19	stimuli_distractor_diamondtriangles.svg	stimuli_distractor_diamondtriangles.svg	13	no	53	0	678	0	0			0	0			1				0	
6.6.1	win	2023-06-01	23:02:33	23:11:11	515197	5dd742a140460e6e2b707d58	4	1	practice_slash	9	advance_on_keypress_SLASH	20	stimuli_distractor_diamondtriangles.svg	stimuli_distractor_diamondtriangles.svg	13	no	57	0	454	0	0			0	0			1				0	
6.6.1	win	2023-06-01	23:02:33	23:11:14	517999	5dd742a140460e6e2b707d58	4	1	practice_slash	9	practice_slash	21	stimuli_target_squarediamonds.svg	stimuli_distractor_trianglediamonds.svg	5	yes	53	1	706	0	0			0	0			1				0	
6.6.1	win	2023-06-01	23:02:33	23:11:14	517999	5dd742a140460e6e2b707d58	4	1	practice_slash	9	advance_on_keypress_SLASH	22	stimuli_target_squarediamonds.svg	stimuli_distractor_trianglediamonds.svg	5	yes	57	0	302	0	0			0	0			1				0	
6.6.1	win	2023-06-01	23:02:33	23:11:16	520538	5dd742a140460e6e2b707d58	4	1	practice_slash	9	practice_slash	23	stimuli_target_rectanglediamonds.svg	stimuli_distractor_diamondtriangles.svg	1	yes	53	1	604	0	0			0	0			1				0	
6.6.1	win	2023-06-01	23:02:33	23:11:16	520538	5dd742a140460e6e2b707d58	4	1	practice_slash	9	advance_on_keypress_SLASH	24	stimuli_target_rectanglediamonds.svg	stimuli_distractor_diamondtriangles.svg	1	yes	57	0	522	0	0			0	0			1				0	
6.6.1	win	2023-06-01	23:02:33	23:11:20	524693	5dd742a140460e6e2b707d58	4	1	practice_slash	9	practice_slash	25	stimuli_distractor_diamondtriangles.svg	stimuli_target_rectangletriangles.svg	7	yes	0	0	2000	0	0			0	0			1				0	
6.6.1	win	2023-06-01	23:02:33	23:11:20	524693	5dd742a140460e6e2b707d58	4	1	practice_slash	9	advance_on_keypress_SLASH	26	stimuli_distractor_diamondtriangles.svg	stimuli_target_rectangletriangles.svg	7	yes	57	0	464	0	0			0	0			1				0	
6.6.1	win	2023-06-01	23:02:33	23:11:24	528787	5dd742a140460e6e2b707d58	4	1	practice_slash	9	practice_slash	27	stimuli_distractor_trianglediamonds.svg	stimuli_distractor_trianglediamonds.svg	15	no	0	1	2000	0	0			0	0			1				0	
6.6.1	win	2023-06-01	23:02:33	23:11:24	528787	5dd742a140460e6e2b707d58	4	1	practice_slash	9	advance_on_keypress_SLASH	28	stimuli_distractor_trianglediamonds.svg	stimuli_distractor_trianglediamonds.svg	15	no	57	0	324	0	0			0	0			1				0	
6.6.1	win	2023-06-01	23:02:33	23:11:27	531520	5dd742a140460e6e2b707d58	4	1	practice_slash	9	practice_slash	29	stimuli_distractor_diamondtriangles.svg	stimuli_target_trianglerectangles.svg	9	yes	53	1	773	0	0			0	0			1				0	
6.6.1	win	2023-06-01	23:02:33	23:11:27	531520	5dd742a140460e6e2b707d58	4	1	practice_slash	9	advance_on_keypress_SLASH	30	stimuli_distractor_diamondtriangles.svg	stimuli_target_trianglerectangles.svg	9	yes	57	0	283	0	0			0	0			1				0	
6.6.1	win	2023-06-01	23:02:33	23:11:30	534219	5dd742a140460e6e2b707d58	4	1	practice_slash	9	practice_slash	31	stimuli_target_squarediamonds.svg	stimuli_distractor_diamondtriangles.svg	2	yes	53	1	778	0	0			0	0			1				0	
6.6.1	win	2023-06-01	23:02:33	23:11:30	534219	5dd742a140460e6e2b707d58	4	1	practice_slash	9	advance_on_keypress_SLASH	32	stimuli_target_squarediamonds.svg	stimuli_distractor_diamondtriangles.svg	2	yes	57	0	439	0	0			0	0			1				0	
6.6.1	win	2023-06-01	23:02:33	23:11:38	541945	5dd742a140460e6e2b707d58	4	1	main_slash	11	main_slash	1	stimuli_target_rectanglediamonds.svg	stimuli_distractor_trianglediamonds.svg	2	yes	53	1	584	0	0			0	0			1				0	
6.6.1	win	2023-06-01	23:02:33	23:11:38	541945	5dd742a140460e6e2b707d58	4	1	main_slash	11	advance_on_keypress_SLASH	2	stimuli_target_rectanglediamonds.svg	stimuli_distractor_trianglediamonds.svg	2	yes	57	0	428	0	0			0	0			1				0	
6.6.1	win	2023-06-01	23:02:33	23:11:41	545015	5dd742a140460e6e2b707d58	4	1	main_slash	11	main_slash	3	stimuli_target_diamondsquares.svg	stimuli_distractor_diamondtriangles.svg	24	yes	0	0	2000	0	0			0	0			1				0	
6.6.1	win	2023-06-01	23:02:33	23:11:41	545015	5dd742a140460e6e2b707d58	4	1	main_slash	11	advance_on_keypress_SLASH	4	stimuli_target_diamondsquares.svg	stimuli_distractor_diamondtriangles.svg	24	yes	57	0	480	0	0			0	0			1				0	
6.6.1	win	2023-06-01	23:02:33	23:11:42	546677	5dd742a140460e6e2b707d58	4	1	main_slash	11	main_slash	5	stimuli_distractor_trianglediamonds.svg	stimuli_target_squarediamonds.svg	12	yes	53	1	540	0	0			0	0			1				0	
6.6.1	win	2023-06-01	23:02:33	23:11:42	546677	5dd742a140460e6e2b707d58	4	1	main_slash	11	advance_on_keypress_SLASH	6	stimuli_distractor_trianglediamonds.svg	stimuli_target_squarediamonds.svg	12	yes	57	0	254	0	0			0	0			1				0	
6.6.1	win	2023-06-01	23:02:33	23:11:45	549561	5dd742a140460e6e2b707d58	4	1	main_slash	11	main_slash	7	stimuli_distractor_diamondtriangles.svg	stimuli_distractor_trianglediamonds.svg	37	no	0	1	2000	0	0			0	0			1				0	
6.6.1	win	2023-06-01	23:02:33	23:11:45	549561	5dd742a140460e6e2b707d58	4	1	main_slash	11	advance_on_keypress_SLASH	8	stimuli_distractor_diamondtriangles.svg	stimuli_distractor_trianglediamonds.svg	37	no	57	0	330	0	0			0	0			1				0	
6.6.1	win	2023-06-01	23:02:33	23:11:47	551046	5dd742a140460e6e2b707d58	4	1	main_slash	11	main_slash	9	stimuli_target_rectangletriangles.svg	stimuli_distractor_trianglediamonds.svg	1	yes	53	1	524	0	0			0	0			1				0	
6.6.1	win	2023-06-01	23:02:33	23:11:47	551046	5dd742a140460e6e2b707d58	4	1	main_slash	11	advance_on_keypress_SLASH	10	stimuli_target_rectangletriangles.svg	stimuli_distractor_trianglediamonds.svg	1	yes	57	0	343	0	0			0	0			1				0	
6.6.1	win	2023-06-01	23:02:33	23:11:50	554015	5dd742a140460e6e2b707d58	4	1	main_slash	11	main_slash	11	stimuli_distractor_diamondtriangles.svg	stimuli_distractor_diamondtriangles.svg	40	no	0	1	2000	0	0			0	0			1				0	
6.6.1	win	2023-06-01	23:02:33	23:11:50	554015	5dd742a140460e6e2b707d58	4	1	main_slash	11	advance_on_keypress_SLASH	12	stimuli_distractor_diamondtriangles.svg	stimuli_distractor_diamondtriangles.svg	40	no	57	0	312	0	0			0	0			1				0	
6.6.1	win	2023-06-01	23:02:33	23:11:51	555482	5dd742a140460e6e2b707d58	4	1	main_slash	11	main_slash	13	stimuli_distractor_diamondtriangles.svg	stimuli_target_rectangletriangles.svg	13	yes	53	1	518	0	0			0	0			1				0	
6.6.1	win	2023-06-01	23:02:33	23:11:51	555482	5dd742a140460e6e2b707d58	4	1	main_slash	11	advance_on_keypress_SLASH	14	stimuli_distractor_diamondtriangles.svg	stimuli_target_rectangletriangles.svg	13	yes	57	0	326	0	0			0	0			1				0	
6.6.1	win	2023-06-01	23:02:33	23:11:53	557018	5dd742a140460e6e2b707d58	4	1	main_slash	11	main_slash	15	stimuli_target_squaretriangles.svg	stimuli_distractor_trianglediamonds.svg	3	yes	53	1	575	0	0			0	0			1				0	
6.6.1	win	2023-06-01	23:02:33	23:11:53	557018	5dd742a140460e6e2b707d58	4	1	main_slash	11	advance_on_keypress_SLASH	16	stimuli_target_squaretriangles.svg	stimuli_distractor_trianglediamonds.svg	3	yes	57	0	344	0	0			0	0			1				0	
6.6.1	win	2023-06-01	23:02:33	23:11:54	558570	5dd742a140460e6e2b707d58	4	1	main_slash	11	main_slash	17	stimuli_distractor_diamondtriangles.svg	stimuli_target_rectanglediamonds.svg	14	yes	53	1	568	0	0			0	0			1				0	
6.6.1	win	2023-06-01	23:02:33	23:11:54	558570	5dd742a140460e6e2b707d58	4	1	main_slash	11	advance_on_keypress_SLASH	18	stimuli_distractor_diamondtriangles.svg	stimuli_target_rectanglediamonds.svg	14	yes	57	0	278	0	0			0	0			1				0	
6.6.1	win	2023-06-01	23:02:33	23:11:56	560319	5dd742a140460e6e2b707d58	4	1	main_slash	11	main_slash	19	stimuli_target_rectangletriangles.svg	stimuli_distractor_diamondtriangles.svg	5	yes	53	1	838	0	0			0	0			1				0	
6.6.1	win	2023-06-01	23:02:33	23:11:56	560319	5dd742a140460e6e2b707d58	4	1	main_slash	11	advance_on_keypress_SLASH	20	stimuli_target_rectangletriangles.svg	stimuli_distractor_diamondtriangles.svg	5	yes	57	0	289	0	0			0	0			1				0	
6.6.1	win	2023-06-01	23:02:33	23:11:58	562003	5dd742a140460e6e2b707d58	4	1	main_slash	11	main_slash	21	stimuli_distractor_diamondtriangles.svg	stimuli_target_squarediamonds.svg	16	yes	53	1	774	0	0			0	0			1				0	
6.6.1	win	2023-06-01	23:02:33	23:11:58	562003	5dd742a140460e6e2b707d58	4	1	main_slash	11	advance_on_keypress_SLASH	22	stimuli_distractor_diamondtriangles.svg	stimuli_target_squarediamonds.svg	16	yes	57	0	288	0	0			0	0			1				0	
6.6.1	win	2023-06-01	23:02:33	23:12:01	564922	5dd742a140460e6e2b707d58	4	1	main_slash	11	main_slash	23	stimuli_target_trianglerectangles.svg	stimuli_distractor_trianglediamonds.svg	17	yes	0	0	2000	0	0			0	0			1				0	
6.6.1	win	2023-06-01	23:02:33	23:12:01	564922	5dd742a140460e6e2b707d58	4	1	main_slash	11	advance_on_keypress_SLASH	24	stimuli_target_trianglerectangles.svg	stimuli_distractor_trianglediamonds.svg	17	yes	57	0	393	0	0			0	0			1				0	
6.6.1	win	2023-06-01	23:02:33	23:12:02	566566	5dd742a140460e6e2b707d58	4	1	main_slash	11	main_slash	25	stimuli_target_squarediamonds.svg	stimuli_distractor_trianglediamonds.svg	4	yes	53	1	616	0	0			0	0			1				0	
6.6.1	win	2023-06-01	23:02:33	23:12:02	566566	5dd742a140460e6e2b707d58	4	1	main_slash	11	advance_on_keypress_SLASH	26	stimuli_target_squarediamonds.svg	stimuli_distractor_trianglediamonds.svg	4	yes	57	0	361	0	0			0	0			1				0	
6.6.1	win	2023-06-01	23:02:33	23:12:05	569563	5dd742a140460e6e2b707d58	4	1	main_slash	11	main_slash	27	stimuli_target_diamondsquares.svg	stimuli_distractor_trianglediamonds.svg	20	yes	0	0	2000	0	0			0	0			1				0	
6.6.1	win	2023-06-01	23:02:33	23:12:05	569563	5dd742a140460e6e2b707d58	4	1	main_slash	11	advance_on_keypress_SLASH	28	stimuli_target_diamondsquares.svg	stimuli_distractor_trianglediamonds.svg	20	yes	57	0	291	0	0			0	0			1				0	
6.6.1	win	2023-06-01	23:02:33	23:12:07	571159	5dd742a140460e6e2b707d58	4	1	main_slash	11	main_slash	29	stimuli_distractor_trianglediamonds.svg	stimuli_target_rectangletriangles.svg	9	yes	53	1	676	0	0			0	0			1				0	
6.6.1	win	2023-06-01	23:02:33	23:12:07	571159	5dd742a140460e6e2b707d58	4	1	main_slash	11	advance_on_keypress_SLASH	30	stimuli_distractor_trianglediamonds.svg	stimuli_target_rectangletriangles.svg	9	yes	57	0	308	0	0			0	0			1				0	
6.6.1	win	2023-06-01	23:02:33	23:12:08	572688	5dd742a140460e6e2b707d58	4	1	main_slash	11	main_slash	31	stimuli_distractor_trianglediamonds.svg	stimuli_target_rectanglediamonds.svg	10	yes	53	1	591	0	0			0	0			1				0	
6.6.1	win	2023-06-01	23:02:33	23:12:08	572688	5dd742a140460e6e2b707d58	4	1	main_slash	11	advance_on_keypress_SLASH	32	stimuli_distractor_trianglediamonds.svg	stimuli_target_rectanglediamonds.svg	10	yes	57	0	308	0	0			0	0			1				0	
6.6.1	win	2023-06-01	23:02:33	23:12:11	575630	5dd742a140460e6e2b707d58	4	1	main_slash	11	main_slash	33	stimuli_distractor_diamondtriangles.svg	stimuli_distractor_diamondtriangles.svg	39	no	0	1	2000	0	0			0	0			1				0	
6.6.1	win	2023-06-01	23:02:33	23:12:11	575630	5dd742a140460e6e2b707d58	4	1	main_slash	11	advance_on_keypress_SLASH	34	stimuli_distractor_diamondtriangles.svg	stimuli_distractor_diamondtriangles.svg	39	no	57	0	409	0	0			0	0			1				0	
6.6.1	win	2023-06-01	23:02:33	23:12:14	578670	5dd742a140460e6e2b707d58	4	1	main_slash	11	main_slash	35	stimuli_target_diamondrectangles.svg	stimuli_distractor_diamondtriangles.svg	23	yes	0	0	2000	0	0			0	0			1				0	
6.6.1	win	2023-06-01	23:02:33	23:12:14	578670	5dd742a140460e6e2b707d58	4	1	main_slash	11	advance_on_keypress_SLASH	36	stimuli_target_diamondrectangles.svg	stimuli_distractor_diamondtriangles.svg	23	yes	57	0	291	0	0			0	0			1				0	
6.6.1	win	2023-06-01	23:02:33	23:12:17	581604	5dd742a140460e6e2b707d58	4	1	main_slash	11	main_slash	37	stimuli_distractor_diamondtriangles.svg	stimuli_distractor_trianglediamonds.svg	38	no	0	1	2000	0	0			0	0			1				0	
6.6.1	win	2023-06-01	23:02:33	23:12:17	581604	5dd742a140460e6e2b707d58	4	1	main_slash	11	advance_on_keypress_SLASH	38	stimuli_distractor_diamondtriangles.svg	stimuli_distractor_trianglediamonds.svg	38	no	57	0	341	0	0			0	0			1				0	
6.6.1	win	2023-06-01	23:02:33	23:12:19	583169	5dd742a140460e6e2b707d58	4	1	main_slash	11	main_slash	39	stimuli_target_squaretriangles.svg	stimuli_distractor_diamondtriangles.svg	7	yes	53	1	592	0	0			0	0			1				0	
6.6.1	win	2023-06-01	23:02:33	23:12:19	583169	5dd742a140460e6e2b707d58	4	1	main_slash	11	advance_on_keypress_SLASH	40	stimuli_target_squaretriangles.svg	stimuli_distractor_diamondtriangles.svg	7	yes	57	0	604	0	0			0	0			1				0	
6.6.1	win	2023-06-01	23:02:33	23:12:21	584934	5dd742a140460e6e2b707d58	4	1	main_slash	11	main_slash	41	stimuli_target_rectanglediamonds.svg	stimuli_distractor_diamondtriangles.svg	6	yes	53	1	530	0	0			0	0			1				0	
6.6.1	win	2023-06-01	23:02:33	23:12:21	584934	5dd742a140460e6e2b707d58	4	1	main_slash	11	advance_on_keypress_SLASH	42	stimuli_target_rectanglediamonds.svg	stimuli_distractor_diamondtriangles.svg	6	yes	57	0	337	0	0			0	0			1				0	
6.6.1	win	2023-06-01	23:02:33	23:12:22	586478	5dd742a140460e6e2b707d58	4	1	main_slash	11	main_slash	43	stimuli_target_squarediamonds.svg	stimuli_distractor_diamondtriangles.svg	8	yes	53	1	580	0	0			0	0			1				0	
6.6.1	win	2023-06-01	23:02:33	23:12:22	586478	5dd742a140460e6e2b707d58	4	1	main_slash	11	advance_on_keypress_SLASH	44	stimuli_target_squarediamonds.svg	stimuli_distractor_diamondtriangles.svg	8	yes	57	0	331	0	0			0	0			1				0	
6.6.1	win	2023-06-01	23:02:33	23:12:24	588375	5dd742a140460e6e2b707d58	4	1	main_slash	11	main_slash	45	stimuli_distractor_diamondtriangles.svg	stimuli_target_trianglesquares.svg	30	yes	53	1	944	0	0			0	0			1				0	
6.6.1	win	2023-06-01	23:02:33	23:12:24	588375	5dd742a140460e6e2b707d58	4	1	main_slash	11	advance_on_keypress_SLASH	46	stimuli_distractor_diamondtriangles.svg	stimuli_target_trianglesquares.svg	30	yes	57	0	349	0	0			0	0			1				0	
6.6.1	win	2023-06-01	23:02:33	23:12:27	591351	5dd742a140460e6e2b707d58	4	1	main_slash	11	main_slash	47	stimuli_distractor_trianglediamonds.svg	stimuli_target_trianglerectangles.svg	25	yes	0	0	2000	0	0			0	0			1				0	
6.6.1	win	2023-06-01	23:02:33	23:12:27	591351	5dd742a140460e6e2b707d58	4	1	main_slash	11	advance_on_keypress_SLASH	48	stimuli_distractor_trianglediamonds.svg	stimuli_target_trianglerectangles.svg	25	yes	57	0	300	0	0			0	0			1				0	
6.6.1	win	2023-06-01	23:02:33	23:12:30	594285	5dd742a140460e6e2b707d58	4	1	main_slash	11	main_slash	49	stimuli_distractor_trianglediamonds.svg	stimuli_distractor_diamondtriangles.svg	36	no	0	1	2000	0	0			0	0			1				0	
6.6.1	win	2023-06-01	23:02:33	23:12:30	594285	5dd742a140460e6e2b707d58	4	1	main_slash	11	advance_on_keypress_SLASH	50	stimuli_distractor_trianglediamonds.svg	stimuli_distractor_diamondtriangles.svg	36	no	57	0	284	0	0			0	0			1				0	
6.6.1	win	2023-06-01	23:02:33	23:12:32	596035	5dd742a140460e6e2b707d58	4	1	main_slash	11	main_slash	51	stimuli_distractor_diamondtriangles.svg	stimuli_target_diamondrectangles.svg	31	yes	53	1	830	0	0			0	0			1				0	
6.6.1	win	2023-06-01	23:02:33	23:12:32	596035	5dd742a140460e6e2b707d58	4	1	main_slash	11	advance_on_keypress_SLASH	52	stimuli_distractor_diamondtriangles.svg	stimuli_target_diamondrectangles.svg	31	yes	57	0	318	0	0			0	0			1				0	
6.6.1	win	2023-06-01	23:02:33	23:12:35	598979	5dd742a140460e6e2b707d58	4	1	main_slash	11	main_slash	53	stimuli_distractor_trianglediamonds.svg	stimuli_target_diamondsquares.svg	28	yes	0	0	2000	0	0			0	0			1				0	
6.6.1	win	2023-06-01	23:02:33	23:12:35	598979	5dd742a140460e6e2b707d58	4	1	main_slash	11	advance_on_keypress_SLASH	54	stimuli_distractor_trianglediamonds.svg	stimuli_target_diamondsquares.svg	28	yes	57	0	304	0	0			0	0			1				0	
6.6.1	win	2023-06-01	23:02:33	23:12:36	600669	5dd742a140460e6e2b707d58	4	1	main_slash	11	main_slash	55	stimuli_distractor_trianglediamonds.svg	stimuli_target_squaretriangles.svg	11	yes	53	1	744	0	0			0	0			1				0	
6.6.1	win	2023-06-01	23:02:33	23:12:36	600669	5dd742a140460e6e2b707d58	4	1	main_slash	11	advance_on_keypress_SLASH	56	stimuli_distractor_trianglediamonds.svg	stimuli_target_squaretriangles.svg	11	yes	57	0	277	0	0			0	0			1				0	
6.6.1	win	2023-06-01	23:02:33	23:12:39	603565	5dd742a140460e6e2b707d58	4	1	main_slash	11	main_slash	57	stimuli_distractor_trianglediamonds.svg	stimuli_target_diamondrectangles.svg	27	yes	0	0	2000	0	0			0	0			1				0	
6.6.1	win	2023-06-01	23:02:33	23:12:39	603565	5dd742a140460e6e2b707d58	4	1	main_slash	11	advance_on_keypress_SLASH	58	stimuli_distractor_trianglediamonds.svg	stimuli_target_diamondrectangles.svg	27	yes	57	0	299	0	0			0	0			1				0	
6.6.1	win	2023-06-01	23:02:33	23:12:41	605039	5dd742a140460e6e2b707d58	4	1	main_slash	11	main_slash	59	stimuli_distractor_diamondtriangles.svg	stimuli_target_squaretriangles.svg	15	yes	53	1	541	0	0			0	0			1				0	
6.6.1	win	2023-06-01	23:02:33	23:12:41	605039	5dd742a140460e6e2b707d58	4	1	main_slash	11	advance_on_keypress_SLASH	60	stimuli_distractor_diamondtriangles.svg	stimuli_target_squaretriangles.svg	15	yes	57	0	325	0	0			0	0			1				0	
6.6.1	win	2023-06-01	23:02:33	23:12:44	607992	5dd742a140460e6e2b707d58	4	1	main_slash	11	main_slash	61	stimuli_distractor_diamondtriangles.svg	stimuli_target_diamondsquares.svg	32	yes	0	0	2000	0	0			0	0			1				0	
6.6.1	win	2023-06-01	23:02:33	23:12:44	607992	5dd742a140460e6e2b707d58	4	1	main_slash	11	advance_on_keypress_SLASH	62	stimuli_distractor_diamondtriangles.svg	stimuli_target_diamondsquares.svg	32	yes	57	0	322	0	0			0	0			1				0	
6.6.1	win	2023-06-01	23:02:33	23:12:47	610952	5dd742a140460e6e2b707d58	4	1	main_slash	11	main_slash	63	stimuli_target_diamondrectangles.svg	stimuli_distractor_trianglediamonds.svg	19	yes	0	0	2000	0	0			0	0			1				0	
6.6.1	win	2023-06-01	23:02:33	23:12:47	610952	5dd742a140460e6e2b707d58	4	1	main_slash	11	advance_on_keypress_SLASH	64	stimuli_target_diamondrectangles.svg	stimuli_distractor_trianglediamonds.svg	19	yes	57	0	284	0	0			0	0			1				0	
6.6.1	win	2023-06-01	23:02:33	23:12:49	613874	5dd742a140460e6e2b707d58	4	1	main_slash	11	main_slash	65	stimuli_target_trianglesquares.svg	stimuli_distractor_diamondtriangles.svg	22	yes	0	0	2000	0	0			0	0			1				0	
6.6.1	win	2023-06-01	23:02:33	23:12:49	613874	5dd742a140460e6e2b707d58	4	1	main_slash	11	advance_on_keypress_SLASH	66	stimuli_target_trianglesquares.svg	stimuli_distractor_diamondtriangles.svg	22	yes	57	0	365	0	0			0	0			1				0	
6.6.1	win	2023-06-01	23:02:33	23:12:52	616873	5dd742a140460e6e2b707d58	4	1	main_slash	11	main_slash	67	stimuli_distractor_trianglediamonds.svg	stimuli_distractor_trianglediamonds.svg	33	no	0	1	2000	0	0			0	0			1				0	
6.6.1	win	2023-06-01	23:02:33	23:12:52	616873	5dd742a140460e6e2b707d58	4	1	main_slash	11	advance_on_keypress_SLASH	68	stimuli_distractor_trianglediamonds.svg	stimuli_distractor_trianglediamonds.svg	33	no	57	0	338	0	0			0	0			1				0	
6.6.1	win	2023-06-01	23:02:33	23:12:55	619846	5dd742a140460e6e2b707d58	4	1	main_slash	11	main_slash	69	stimuli_distractor_trianglediamonds.svg	stimuli_distractor_trianglediamonds.svg	34	no	0	1	2000	0	0			0	0			1				0	
6.6.1	win	2023-06-01	23:02:33	23:12:55	619846	5dd742a140460e6e2b707d58	4	1	main_slash	11	advance_on_keypress_SLASH	70	stimuli_distractor_trianglediamonds.svg	stimuli_distractor_trianglediamonds.svg	34	no	57	0	361	0	0			0	0			1				0	
6.6.1	win	2023-06-01	23:02:33	23:12:58	621986	5dd742a140460e6e2b707d58	4	1	main_slash	11	main_slash	71	stimuli_target_trianglesquares.svg	stimuli_distractor_trianglediamonds.svg	18	yes	53	1	1139	0	0			0	0			1				0	
6.6.1	win	2023-06-01	23:02:33	23:12:58	621986	5dd742a140460e6e2b707d58	4	1	main_slash	11	advance_on_keypress_SLASH	72	stimuli_target_trianglesquares.svg	stimuli_distractor_trianglediamonds.svg	18	yes	57	0	533	0	0			0	0			1				0	
6.6.1	win	2023-06-01	23:02:33	23:13:01	625155	5dd742a140460e6e2b707d58	4	1	main_slash	11	main_slash	73	stimuli_target_trianglerectangles.svg	stimuli_distractor_diamondtriangles.svg	21	yes	0	0	2000	0	0			0	0			1				0	
6.6.1	win	2023-06-01	23:02:33	23:13:01	625155	5dd742a140460e6e2b707d58	4	1	main_slash	11	advance_on_keypress_SLASH	74	stimuli_target_trianglerectangles.svg	stimuli_distractor_diamondtriangles.svg	21	yes	57	0	341	0	0			0	0			1				0	
6.6.1	win	2023-06-01	23:02:33	23:13:02	626777	5dd742a140460e6e2b707d58	4	1	main_slash	11	main_slash	75	stimuli_distractor_diamondtriangles.svg	stimuli_target_trianglerectangles.svg	29	yes	53	1	649	0	0			0	0			1				0	
6.6.1	win	2023-06-01	23:02:33	23:13:02	626777	5dd742a140460e6e2b707d58	4	1	main_slash	11	advance_on_keypress_SLASH	76	stimuli_distractor_diamondtriangles.svg	stimuli_target_trianglerectangles.svg	29	yes	57	0	432	0	0			0	0			1				0	
6.6.1	win	2023-06-01	23:02:33	23:13:05	629835	5dd742a140460e6e2b707d58	4	1	main_slash	11	main_slash	77	stimuli_distractor_trianglediamonds.svg	stimuli_distractor_diamondtriangles.svg	35	no	0	1	2000	0	0			0	0			1				0	
6.6.1	win	2023-06-01	23:02:33	23:13:05	629835	5dd742a140460e6e2b707d58	4	1	main_slash	11	advance_on_keypress_SLASH	78	stimuli_distractor_trianglediamonds.svg	stimuli_distractor_diamondtriangles.svg	35	no	57	0	715	0	0			0	0			1				0	
6.6.1	win	2023-06-01	23:02:33	23:13:07	631783	5dd742a140460e6e2b707d58	4	1	main_slash	11	main_slash	79	stimuli_distractor_trianglediamonds.svg	stimuli_target_trianglesquares.svg	26	yes	53	1	602	0	0			0	0			1				0	
6.6.1	win	2023-06-01	23:02:33	23:13:07	631783	5dd742a140460e6e2b707d58	4	1	main_slash	11	advance_on_keypress_SLASH	80	stimuli_distractor_trianglediamonds.svg	stimuli_target_trianglesquares.svg	26	yes	57	0	309	0	0			0	0			1				0	
6.6.1	win	2023-06-01	23:02:33	23:13:09	633296	5dd742a140460e6e2b707d58	4	1	main_slash	11	main_slash	81	stimuli_target_squarediamonds.svg	stimuli_distractor_trianglediamonds.svg	4	yes	53	1	567	0	0			0	0			1				0	
6.6.1	win	2023-06-01	23:02:33	23:13:09	633296	5dd742a140460e6e2b707d58	4	1	main_slash	11	advance_on_keypress_SLASH	82	stimuli_target_squarediamonds.svg	stimuli_distractor_trianglediamonds.svg	4	yes	57	0	326	0	0			0	0			1				0	
6.6.1	win	2023-06-01	23:02:33	23:13:11	635189	5dd742a140460e6e2b707d58	4	1	main_slash	11	main_slash	83	stimuli_distractor_trianglediamonds.svg	stimuli_target_trianglesquares.svg	26	yes	53	1	940	0	0			0	0			1				0	
6.6.1	win	2023-06-01	23:02:33	23:13:11	635189	5dd742a140460e6e2b707d58	4	1	main_slash	11	advance_on_keypress_SLASH	84	stimuli_distractor_trianglediamonds.svg	stimuli_target_trianglesquares.svg	26	yes	57	0	266	0	0			0	0			1				0	
6.6.1	win	2023-06-01	23:02:33	23:13:12	636653	5dd742a140460e6e2b707d58	4	1	main_slash	11	main_slash	85	stimuli_target_squaretriangles.svg	stimuli_distractor_diamondtriangles.svg	7	yes	53	1	564	0	0			0	0			1				0	
6.6.1	win	2023-06-01	23:02:33	23:13:12	636653	5dd742a140460e6e2b707d58	4	1	main_slash	11	advance_on_keypress_SLASH	86	stimuli_target_squaretriangles.svg	stimuli_distractor_diamondtriangles.svg	7	yes	57	0	319	0	0			0	0			1				0	
6.6.1	win	2023-06-01	23:02:33	23:13:14	638330	5dd742a140460e6e2b707d58	4	1	main_slash	11	main_slash	87	stimuli_distractor_trianglediamonds.svg	stimuli_target_squaretriangles.svg	11	yes	53	1	721	0	0			0	0			1				0	
6.6.1	win	2023-06-01	23:02:33	23:13:14	638330	5dd742a140460e6e2b707d58	4	1	main_slash	11	advance_on_keypress_SLASH	88	stimuli_distractor_trianglediamonds.svg	stimuli_target_squaretriangles.svg	11	yes	57	0	260	0	0			0	0			1				0	
6.6.1	win	2023-06-01	23:02:33	23:13:17	641222	5dd742a140460e6e2b707d58	4	1	main_slash	11	main_slash	89	stimuli_target_diamondsquares.svg	stimuli_distractor_diamondtriangles.svg	24	yes	0	0	2000	0	0			0	0			1				0	
6.6.1	win	2023-06-01	23:02:33	23:13:17	641222	5dd742a140460e6e2b707d58	4	1	main_slash	11	advance_on_keypress_SLASH	90	stimuli_target_diamondsquares.svg	stimuli_distractor_diamondtriangles.svg	24	yes	57	0	295	0	0			0	0			1				0	
6.6.1	win	2023-06-01	23:02:33	23:13:20	644156	5dd742a140460e6e2b707d58	4	1	main_slash	11	main_slash	91	stimuli_distractor_trianglediamonds.svg	stimuli_distractor_trianglediamonds.svg	34	no	0	1	2000	0	0			0	0			1				0	
6.6.1	win	2023-06-01	23:02:33	23:13:20	644156	5dd742a140460e6e2b707d58	4	1	main_slash	11	advance_on_keypress_SLASH	92	stimuli_distractor_trianglediamonds.svg	stimuli_distractor_trianglediamonds.svg	34	no	57	0	296	0	0			0	0			1				0	
6.6.1	win	2023-06-01	23:02:33	23:13:21	645725	5dd742a140460e6e2b707d58	4	1	main_slash	11	main_slash	93	stimuli_target_trianglesquares.svg	stimuli_distractor_trianglediamonds.svg	18	yes	53	1	636	0	0			0	0			1				0	
6.6.1	win	2023-06-01	23:02:33	23:13:21	645725	5dd742a140460e6e2b707d58	4	1	main_slash	11	advance_on_keypress_SLASH	94	stimuli_target_trianglesquares.svg	stimuli_distractor_trianglediamonds.svg	18	yes	57	0	315	0	0			0	0			1				0	
6.6.1	win	2023-06-01	23:02:33	23:13:24	648663	5dd742a140460e6e2b707d58	4	1	main_slash	11	main_slash	95	stimuli_distractor_diamondtriangles.svg	stimuli_target_trianglerectangles.svg	29	yes	0	0	2000	0	0			0	0			1				0	
6.6.1	win	2023-06-01	23:02:33	23:13:24	648663	5dd742a140460e6e2b707d58	4	1	main_slash	11	advance_on_keypress_SLASH	96	stimuli_distractor_diamondtriangles.svg	stimuli_target_trianglerectangles.svg	29	yes	57	0	299	0	0			0	0			1				0	
6.6.1	win	2023-06-01	23:02:33	23:13:27	651597	5dd742a140460e6e2b707d58	4	1	main_slash	11	main_slash	97	stimuli_distractor_diamondtriangles.svg	stimuli_distractor_trianglediamonds.svg	38	no	0	1	2000	0	0			0	0			1				0	
6.6.1	win	2023-06-01	23:02:33	23:13:27	651597	5dd742a140460e6e2b707d58	4	1	main_slash	11	advance_on_keypress_SLASH	98	stimuli_distractor_diamondtriangles.svg	stimuli_distractor_trianglediamonds.svg	38	no	57	0	310	0	0			0	0			1				0	
6.6.1	win	2023-06-01	23:02:33	23:13:29	653036	5dd742a140460e6e2b707d58	4	1	main_slash	11	main_slash	99	stimuli_distractor_diamondtriangles.svg	stimuli_target_rectangletriangles.svg	13	yes	53	1	493	0	0			0	0			1				0	
6.6.1	win	2023-06-01	23:02:33	23:13:29	653036	5dd742a140460e6e2b707d58	4	1	main_slash	11	advance_on_keypress_SLASH	100	stimuli_distractor_diamondtriangles.svg	stimuli_target_rectangletriangles.svg	13	yes	57	0	378	0	0			0	0			1				0	
6.6.1	win	2023-06-01	23:02:33	23:13:32	656050	5dd742a140460e6e2b707d58	4	1	main_slash	11	main_slash	101	stimuli_target_trianglerectangles.svg	stimuli_distractor_diamondtriangles.svg	21	yes	0	0	2000	0	0			0	0			1				0	
6.6.1	win	2023-06-01	23:02:33	23:13:32	656050	5dd742a140460e6e2b707d58	4	1	main_slash	11	advance_on_keypress_SLASH	102	stimuli_target_trianglerectangles.svg	stimuli_distractor_diamondtriangles.svg	21	yes	57	0	1162	0	0			0	0			1				0	
6.6.1	win	2023-06-01	23:02:33	23:13:35	659850	5dd742a140460e6e2b707d58	4	1	main_slash	11	main_slash	103	stimuli_target_trianglerectangles.svg	stimuli_distractor_trianglediamonds.svg	17	yes	0	0	2000	0	0			0	0			1				0	
6.6.1	win	2023-06-01	23:02:33	23:13:35	659850	5dd742a140460e6e2b707d58	4	1	main_slash	11	advance_on_keypress_SLASH	104	stimuli_target_trianglerectangles.svg	stimuli_distractor_trianglediamonds.svg	17	yes	57	0	356	0	0			0	0			1				0	
6.6.1	win	2023-06-01	23:02:33	23:13:38	662837	5dd742a140460e6e2b707d58	4	1	main_slash	11	main_slash	105	stimuli_distractor_trianglediamonds.svg	stimuli_distractor_diamondtriangles.svg	36	no	0	1	2000	0	0			0	0			1				0	
6.6.1	win	2023-06-01	23:02:33	23:13:38	662837	5dd742a140460e6e2b707d58	4	1	main_slash	11	advance_on_keypress_SLASH	106	stimuli_distractor_trianglediamonds.svg	stimuli_distractor_diamondtriangles.svg	36	no	57	0	267	0	0			0	0			1				0	
6.6.1	win	2023-06-01	23:02:33	23:13:40	664346	5dd742a140460e6e2b707d58	4	1	main_slash	11	main_slash	107	stimuli_distractor_diamondtriangles.svg	stimuli_target_trianglesquares.svg	30	yes	53	1	602	0	0			0	0			1				0	
6.6.1	win	2023-06-01	23:02:33	23:13:40	664346	5dd742a140460e6e2b707d58	4	1	main_slash	11	advance_on_keypress_SLASH	108	stimuli_distractor_diamondtriangles.svg	stimuli_target_trianglesquares.svg	30	yes	57	0	521	0	0			0	0			1				0	
6.6.1	win	2023-06-01	23:02:33	23:13:43	667504	5dd742a140460e6e2b707d58	4	1	main_slash	11	main_slash	109	stimuli_distractor_diamondtriangles.svg	stimuli_distractor_diamondtriangles.svg	40	no	0	1	2000	0	0			0	0			1				0	
6.6.1	win	2023-06-01	23:02:33	23:13:43	667504	5dd742a140460e6e2b707d58	4	1	main_slash	11	advance_on_keypress_SLASH	110	stimuli_distractor_diamondtriangles.svg	stimuli_distractor_diamondtriangles.svg	40	no	57	0	302	0	0			0	0			1				0	
6.6.1	win	2023-06-01	23:02:33	23:13:46	670437	5dd742a140460e6e2b707d58	4	1	main_slash	11	main_slash	111	stimuli_distractor_diamondtriangles.svg	stimuli_distractor_trianglediamonds.svg	37	no	0	1	2000	0	0			0	0			1				0	
6.6.1	win	2023-06-01	23:02:33	23:13:46	670437	5dd742a140460e6e2b707d58	4	1	main_slash	11	advance_on_keypress_SLASH	112	stimuli_distractor_diamondtriangles.svg	stimuli_distractor_trianglediamonds.svg	37	no	57	0	294	0	0			0	0			1				0	
6.6.1	win	2023-06-01	23:02:33	23:13:48	671954	5dd742a140460e6e2b707d58	4	1	main_slash	11	main_slash	113	stimuli_target_rectanglediamonds.svg	stimuli_distractor_diamondtriangles.svg	6	yes	53	1	583	0	0			0	0			1				0	
6.6.1	win	2023-06-01	23:02:33	23:13:48	671954	5dd742a140460e6e2b707d58	4	1	main_slash	11	advance_on_keypress_SLASH	114	stimuli_target_rectanglediamonds.svg	stimuli_distractor_diamondtriangles.svg	6	yes	57	0	524	0	0			0	0			1				0	
6.6.1	win	2023-06-01	23:02:33	23:13:51	675105	5dd742a140460e6e2b707d58	4	1	main_slash	11	main_slash	115	stimuli_distractor_diamondtriangles.svg	stimuli_target_diamondrectangles.svg	31	yes	0	0	2000	0	0			0	0			1				0	
6.6.1	win	2023-06-01	23:02:33	23:13:51	675105	5dd742a140460e6e2b707d58	4	1	main_slash	11	advance_on_keypress_SLASH	116	stimuli_distractor_diamondtriangles.svg	stimuli_target_diamondrectangles.svg	31	yes	57	0	249	0	0			0	0			1				0	
6.6.1	win	2023-06-01	23:02:33	23:13:52	676584	5dd742a140460e6e2b707d58	4	1	main_slash	11	main_slash	117	stimuli_distractor_diamondtriangles.svg	stimuli_target_squaretriangles.svg	15	yes	53	1	599	0	0			0	0			1				0	
6.6.1	win	2023-06-01	23:02:33	23:13:52	676584	5dd742a140460e6e2b707d58	4	1	main_slash	11	advance_on_keypress_SLASH	118	stimuli_distractor_diamondtriangles.svg	stimuli_target_squaretriangles.svg	15	yes	57	0	374	0	0			0	0			1				0	
6.6.1	win	2023-06-01	23:02:33	23:13:54	678153	5dd742a140460e6e2b707d58	4	1	main_slash	11	main_slash	119	stimuli_target_rectangletriangles.svg	stimuli_distractor_trianglediamonds.svg	1	yes	53	1	556	0	0			0	0			1				0	
6.6.1	win	2023-06-01	23:02:33	23:13:54	678153	5dd742a140460e6e2b707d58	4	1	main_slash	11	advance_on_keypress_SLASH	120	stimuli_target_rectangletriangles.svg	stimuli_distractor_trianglediamonds.svg	1	yes	57	0	514	0	0			0	0			1				0	
6.6.1	win	2023-06-01	23:02:33	23:13:55	679853	5dd742a140460e6e2b707d58	4	1	main_slash	11	main_slash	121	stimuli_distractor_diamondtriangles.svg	stimuli_target_squarediamonds.svg	16	yes	53	1	562	0	0			0	0			1				0	
6.6.1	win	2023-06-01	23:02:33	23:13:55	679853	5dd742a140460e6e2b707d58	4	1	main_slash	11	advance_on_keypress_SLASH	122	stimuli_distractor_diamondtriangles.svg	stimuli_target_squarediamonds.svg	16	yes	57	0	229	0	0			0	0			1				0	
6.6.1	win	2023-06-01	23:02:33	23:13:58	682719	5dd742a140460e6e2b707d58	4	1	main_slash	11	main_slash	123	stimuli_distractor_trianglediamonds.svg	stimuli_target_diamondrectangles.svg	27	yes	0	0	2000	0	0			0	0			1				0	
6.6.1	win	2023-06-01	23:02:33	23:13:58	682719	5dd742a140460e6e2b707d58	4	1	main_slash	11	advance_on_keypress_SLASH	124	stimuli_distractor_trianglediamonds.svg	stimuli_target_diamondrectangles.svg	27	yes	57	0	303	0	0			0	0			1				0	
6.6.1	win	2023-06-01	23:02:33	23:14:00	684187	5dd742a140460e6e2b707d58	4	1	main_slash	11	main_slash	125	stimuli_distractor_trianglediamonds.svg	stimuli_target_rectanglediamonds.svg	10	yes	53	1	536	0	0			0	0			1				0	
6.6.1	win	2023-06-01	23:02:33	23:14:00	684187	5dd742a140460e6e2b707d58	4	1	main_slash	11	advance_on_keypress_SLASH	126	stimuli_distractor_trianglediamonds.svg	stimuli_target_rectanglediamonds.svg	10	yes	57	0	313	0	0			0	0			1				0	
6.6.1	win	2023-06-01	23:02:33	23:14:01	685651	5dd742a140460e6e2b707d58	4	1	main_slash	11	main_slash	127	stimuli_target_rectanglediamonds.svg	stimuli_distractor_trianglediamonds.svg	2	yes	53	1	510	0	0			0	0			1				0	
6.6.1	win	2023-06-01	23:02:33	23:14:01	685651	5dd742a140460e6e2b707d58	4	1	main_slash	11	advance_on_keypress_SLASH	128	stimuli_target_rectanglediamonds.svg	stimuli_distractor_trianglediamonds.svg	2	yes	57	0	227	0	0			0	0			1				0	
6.6.1	win	2023-06-01	23:02:33	23:14:04	688518	5dd742a140460e6e2b707d58	4	1	main_slash	11	main_slash	129	stimuli_target_diamondrectangles.svg	stimuli_distractor_diamondtriangles.svg	23	yes	0	0	2000	0	0			0	0			1				0	
6.6.1	win	2023-06-01	23:02:33	23:14:04	688518	5dd742a140460e6e2b707d58	4	1	main_slash	11	advance_on_keypress_SLASH	130	stimuli_target_diamondrectangles.svg	stimuli_distractor_diamondtriangles.svg	23	yes	57	0	285	0	0			0	0			1				0	
6.6.1	win	2023-06-01	23:02:33	23:14:06	690093	5dd742a140460e6e2b707d58	4	1	main_slash	11	main_slash	131	stimuli_target_diamondrectangles.svg	stimuli_distractor_trianglediamonds.svg	19	yes	53	1	655	0	0			0	0			1				0	
6.6.1	win	2023-06-01	23:02:33	23:14:06	690093	5dd742a140460e6e2b707d58	4	1	main_slash	11	advance_on_keypress_SLASH	132	stimuli_target_diamondrectangles.svg	stimuli_distractor_trianglediamonds.svg	19	yes	57	0	248	0	0			0	0			1				0	
6.6.1	win	2023-06-01	23:02:33	23:14:09	692972	5dd742a140460e6e2b707d58	4	1	main_slash	11	main_slash	133	stimuli_distractor_trianglediamonds.svg	stimuli_target_diamondsquares.svg	28	yes	0	0	2000	0	0			0	0			1				0	
6.6.1	win	2023-06-01	23:02:33	23:14:09	692972	5dd742a140460e6e2b707d58	4	1	main_slash	11	advance_on_keypress_SLASH	134	stimuli_distractor_trianglediamonds.svg	stimuli_target_diamondsquares.svg	28	yes	57	0	1	0	0			0	0			1				0	
6.6.1	win	2023-06-01	23:02:33	23:14:10	694145	5dd742a140460e6e2b707d58	4	1	main_slash	11	main_slash	135	stimuli_distractor_diamondtriangles.svg	stimuli_target_rectanglediamonds.svg	14	yes	53	1	514	0	0			0	0			1				0	
6.6.1	win	2023-06-01	23:02:33	23:14:10	694145	5dd742a140460e6e2b707d58	4	1	main_slash	11	advance_on_keypress_SLASH	136	stimuli_distractor_diamondtriangles.svg	stimuli_target_rectanglediamonds.svg	14	yes	57	0	232	0	0			0	0			1				0	
6.6.1	win	2023-06-01	23:02:33	23:14:11	695616	5dd742a140460e6e2b707d58	4	1	main_slash	11	main_slash	137	stimuli_target_diamondsquares.svg	stimuli_distractor_trianglediamonds.svg	20	yes	53	1	604	0	0			0	0			1				0	
6.6.1	win	2023-06-01	23:02:33	23:14:11	695616	5dd742a140460e6e2b707d58	4	1	main_slash	11	advance_on_keypress_SLASH	138	stimuli_target_diamondsquares.svg	stimuli_distractor_trianglediamonds.svg	20	yes	57	0	507	0	0			0	0			1				0	
6.6.1	win	2023-06-01	23:02:33	23:14:14	698759	5dd742a140460e6e2b707d58	4	1	main_slash	11	main_slash	139	stimuli_distractor_trianglediamonds.svg	stimuli_target_trianglerectangles.svg	25	yes	0	0	2000	0	0			0	0			1				0	
6.6.1	win	2023-06-01	23:02:33	23:14:14	698759	5dd742a140460e6e2b707d58	4	1	main_slash	11	advance_on_keypress_SLASH	140	stimuli_distractor_trianglediamonds.svg	stimuli_target_trianglerectangles.svg	25	yes	57	0	306	0	0			0	0			1				0	
6.6.1	win	2023-06-01	23:02:33	23:14:16	700206	5dd742a140460e6e2b707d58	4	1	main_slash	11	main_slash	141	stimuli_target_squaretriangles.svg	stimuli_distractor_trianglediamonds.svg	3	yes	53	1	500	0	0			0	0			1				0	
6.6.1	win	2023-06-01	23:02:33	23:14:16	700206	5dd742a140460e6e2b707d58	4	1	main_slash	11	advance_on_keypress_SLASH	142	stimuli_target_squaretriangles.svg	stimuli_distractor_trianglediamonds.svg	3	yes	57	0	251	0	0			0	0			1				0	
6.6.1	win	2023-06-01	23:02:33	23:14:17	701610	5dd742a140460e6e2b707d58	4	1	main_slash	11	main_slash	143	stimuli_target_rectangletriangles.svg	stimuli_distractor_diamondtriangles.svg	5	yes	53	1	532	0	0			0	0			1				0	
6.6.1	win	2023-06-01	23:02:33	23:14:17	701610	5dd742a140460e6e2b707d58	4	1	main_slash	11	advance_on_keypress_SLASH	144	stimuli_target_rectangletriangles.svg	stimuli_distractor_diamondtriangles.svg	5	yes	57	0	253	0	0			0	0			1				0	
6.6.1	win	2023-06-01	23:02:33	23:14:20	704507	5dd742a140460e6e2b707d58	4	1	main_slash	11	main_slash	145	stimuli_distractor_trianglediamonds.svg	stimuli_distractor_diamondtriangles.svg	35	no	0	1	2000	0	0			0	0			1				0	
6.6.1	win	2023-06-01	23:02:33	23:14:20	704507	5dd742a140460e6e2b707d58	4	1	main_slash	11	advance_on_keypress_SLASH	146	stimuli_distractor_trianglediamonds.svg	stimuli_distractor_diamondtriangles.svg	35	no	57	0	306	0	0			0	0			1				0	
6.6.1	win	2023-06-01	23:02:33	23:14:22	705931	5dd742a140460e6e2b707d58	4	1	main_slash	11	main_slash	147	stimuli_target_squarediamonds.svg	stimuli_distractor_diamondtriangles.svg	8	yes	53	1	477	0	0			0	0			1				0	
6.6.1	win	2023-06-01	23:02:33	23:14:22	705931	5dd742a140460e6e2b707d58	4	1	main_slash	11	advance_on_keypress_SLASH	148	stimuli_target_squarediamonds.svg	stimuli_distractor_diamondtriangles.svg	8	yes	57	0	240	0	0			0	0			1				0	
6.6.1	win	2023-06-01	23:02:33	23:14:24	708813	5dd742a140460e6e2b707d58	4	1	main_slash	11	main_slash	149	stimuli_distractor_trianglediamonds.svg	stimuli_distractor_trianglediamonds.svg	33	no	0	1	2000	0	0			0	0			1				0	
6.6.1	win	2023-06-01	23:02:33	23:14:24	708813	5dd742a140460e6e2b707d58	4	1	main_slash	11	advance_on_keypress_SLASH	150	stimuli_distractor_trianglediamonds.svg	stimuli_distractor_trianglediamonds.svg	33	no	57	0	497	0	0			0	0			1				0	
6.6.1	win	2023-06-01	23:02:33	23:14:28	711946	5dd742a140460e6e2b707d58	4	1	main_slash	11	main_slash	151	stimuli_distractor_diamondtriangles.svg	stimuli_target_diamondsquares.svg	32	yes	0	0	2000	0	0			0	0			1				0	
6.6.1	win	2023-06-01	23:02:33	23:14:28	711946	5dd742a140460e6e2b707d58	4	1	main_slash	11	advance_on_keypress_SLASH	152	stimuli_distractor_diamondtriangles.svg	stimuli_target_diamondsquares.svg	32	yes	57	0	492	0	0			0	0			1				0	
6.6.1	win	2023-06-01	23:02:33	23:14:31	715080	5dd742a140460e6e2b707d58	4	1	main_slash	11	main_slash	153	stimuli_distractor_diamondtriangles.svg	stimuli_distractor_diamondtriangles.svg	39	no	0	1	2000	0	0			0	0			1				0	
6.6.1	win	2023-06-01	23:02:33	23:14:31	715080	5dd742a140460e6e2b707d58	4	1	main_slash	11	advance_on_keypress_SLASH	154	stimuli_distractor_diamondtriangles.svg	stimuli_distractor_diamondtriangles.svg	39	no	57	0	272	0	0			0	0			1				0	
6.6.1	win	2023-06-01	23:02:33	23:14:32	716435	5dd742a140460e6e2b707d58	4	1	main_slash	11	main_slash	155	stimuli_distractor_trianglediamonds.svg	stimuli_target_rectangletriangles.svg	9	yes	53	1	447	0	0			0	0			1				0	
6.6.1	win	2023-06-01	23:02:33	23:14:32	716435	5dd742a140460e6e2b707d58	4	1	main_slash	11	advance_on_keypress_SLASH	156	stimuli_distractor_trianglediamonds.svg	stimuli_target_rectangletriangles.svg	9	yes	57	0	270	0	0			0	0			1				0	
6.6.1	win	2023-06-01	23:02:33	23:14:34	718076	5dd742a140460e6e2b707d58	4	1	main_slash	11	main_slash	157	stimuli_target_trianglesquares.svg	stimuli_distractor_diamondtriangles.svg	22	yes	53	1	741	0	0			0	0			1				0	
6.6.1	win	2023-06-01	23:02:33	23:14:34	718076	5dd742a140460e6e2b707d58	4	1	main_slash	11	advance_on_keypress_SLASH	158	stimuli_target_trianglesquares.svg	stimuli_distractor_diamondtriangles.svg	22	yes	57	0	299	0	0			0	0			1				0	
6.6.1	win	2023-06-01	23:02:33	23:14:35	719451	5dd742a140460e6e2b707d58	4	1	main_slash	11	main_slash	159	stimuli_distractor_trianglediamonds.svg	stimuli_target_squarediamonds.svg	12	yes	53	1	450	0	0			0	0			1				0	
6.6.1	win	2023-06-01	23:02:33	23:14:35	719451	5dd742a140460e6e2b707d58	4	1	main_slash	11	advance_on_keypress_SLASH	160	stimuli_distractor_trianglediamonds.svg	stimuli_target_squarediamonds.svg	12	yes	57	0	189	0	0			0	0			1				0	
6.6.1	win	2023-06-01	23:02:33	23:14:35	719451	5dd742a140460e6e2b707d58	4	1	headphonecheck_calibration	14	headphonecheck_calibrationIntro	1	stimuli_distractor_trianglediamonds.svg	stimuli_target_squarediamonds.svg	12	yes	calibrationButton	0	5108	0	0			0	0			1				0	
6.6.1	win	2023-06-01	23:02:33	23:14:35	719451	5dd742a140460e6e2b707d58	4	1	headphonecheck_testphase	15	test_collectResponse	3	stimuli_distractor_trianglediamonds.svg	stimuli_target_squarediamonds.svg	12	yes	third	1	8442	1	2	antiphase_hc_ios.wav	3	0	0			1				0	
6.6.1	win	2023-06-01	23:02:33	23:14:35	719451	5dd742a140460e6e2b707d58	4	1	headphonecheck_testphase	15	test_collectResponse	6	stimuli_distractor_trianglediamonds.svg	stimuli_target_squarediamonds.svg	12	yes	second	1	309	2	1	antiphase_hc_iso.wav	2	0	0			1				0	
6.6.1	win	2023-06-01	23:02:33	23:14:35	719451	5dd742a140460e6e2b707d58	4	1	headphonecheck_testphase	15	test_collectResponse	9	stimuli_distractor_trianglediamonds.svg	stimuli_target_squarediamonds.svg	12	yes	first	1	412	3	3	antiphase_hc_soi.wav	1	0	0			1				0	
6.6.1	win	2023-06-01	23:02:33	23:14:35	719451	5dd742a140460e6e2b707d58	4	1	headphonecheck_testphase	15	test_collectResponse	12	stimuli_distractor_trianglediamonds.svg	stimuli_target_squarediamonds.svg	12	yes	third	1	396	4	6	antiphase_hc_ois.wav	3	0	0			1				0	
6.6.1	win	2023-06-01	23:02:33	23:14:35	719451	5dd742a140460e6e2b707d58	4	1	headphonecheck_testphase	15	test_collectResponse	15	stimuli_distractor_trianglediamonds.svg	stimuli_target_squarediamonds.svg	12	yes	second	1	282	5	5	antiphase_hc_osi.wav	2	0	0			1				0	
6.6.1	win	2023-06-01	23:02:33	23:14:35	719451	5dd742a140460e6e2b707d58	4	1	headphonecheck_testphase	15	test_collectResponse	18	stimuli_distractor_trianglediamonds.svg	stimuli_target_squarediamonds.svg	12	yes	first	1	295	6	4	antiphase_hc_sio.wav	1	0	0			1				0	
6.6.1	win	2023-06-01	23:02:33	23:14:35	719451	5dd742a140460e6e2b707d58	4	1	stereocheck_calibration	17	stereocheck_calibrationIntro	1	stimuli_distractor_trianglediamonds.svg	stimuli_target_squarediamonds.svg	12	yes	stereocheck_calibrationButton	0	5316	6	4	antiphase_hc_sio.wav	1	0	0			1				0	
6.6.1	win	2023-06-01	23:02:33	23:14:35	719451	5dd742a140460e6e2b707d58	4	1	stereocheck_testphase	18	stereocheck_test_collectResponse	3	stimuli_distractor_trianglediamonds.svg	stimuli_target_squarediamonds.svg	12	yes	stereocheck_left	1	631	6	4	antiphase_hc_sio.wav	1	1	1	noise_calib_stim_LEFT.wav	1	1				0	
6.6.1	win	2023-06-01	23:02:33	23:14:35	719451	5dd742a140460e6e2b707d58	4	1	stereocheck_testphase	18	stereocheck_test_collectResponse	6	stimuli_distractor_trianglediamonds.svg	stimuli_target_squarediamonds.svg	12	yes	stereocheck_left	1	328	6	4	antiphase_hc_sio.wav	1	2	3	noise_calib_stim_LEFT.wav	1	1				0	
6.6.1	win	2023-06-01	23:02:33	23:14:35	719451	5dd742a140460e6e2b707d58	4	1	stereocheck_testphase	18	stereocheck_test_collectResponse	9	stimuli_distractor_trianglediamonds.svg	stimuli_target_squarediamonds.svg	12	yes	stereocheck_left	1	249	6	4	antiphase_hc_sio.wav	1	3	2	noise_calib_stim_LEFT.wav	1	1				0	
6.6.1	win	2023-06-01	23:02:33	23:14:35	719451	5dd742a140460e6e2b707d58	4	1	stereocheck_testphase	18	stereocheck_test_collectResponse	12	stimuli_distractor_trianglediamonds.svg	stimuli_target_squarediamonds.svg	12	yes	stereocheck_right	1	359	6	4	antiphase_hc_sio.wav	1	4	4	noise_calib_stim_RIGHT.wav	2	1				0	
6.6.1	win	2023-06-01	23:02:33	23:14:35	719451	5dd742a140460e6e2b707d58	4	1	stereocheck_testphase	18	stereocheck_test_collectResponse	15	stimuli_distractor_trianglediamonds.svg	stimuli_target_squarediamonds.svg	12	yes	stereocheck_right	1	256	6	4	antiphase_hc_sio.wav	1	5	5	noise_calib_stim_RIGHT.wav	2	1				0	
6.6.1	win	2023-06-01	23:02:33	23:14:35	719451	5dd742a140460e6e2b707d58	4	1	stereocheck_testphase	18	stereocheck_test_collectResponse	18	stimuli_distractor_trianglediamonds.svg	stimuli_target_squarediamonds.svg	12	yes	stereocheck_right	1	261	6	4	antiphase_hc_sio.wav	1	6	6	noise_calib_stim_RIGHT.wav	2	1				0	
6.6.1	win	2023-06-01	23:02:33	23:14:35	719451	5dd742a140460e6e2b707d58	4	1	DL_practice	21	DL_practice	2	stimuli_distractor_trianglediamonds.svg	stimuli_target_squarediamonds.svg	12	yes	ga	1	1151	6	4	antiphase_hc_sio.wav	1	6	6	noise_calib_stim_RIGHT.wav	2	18	blb_dichoticlistening_ga-ta.mp3	ga	ta	1	left
6.6.1	win	2023-06-01	23:02:33	23:14:35	719451	5dd742a140460e6e2b707d58	4	1	DL_practice	21	DL_practice	3	stimuli_distractor_trianglediamonds.svg	stimuli_target_squarediamonds.svg	12	yes	ka	1	1537	6	4	antiphase_hc_sio.wav	1	6	6	noise_calib_stim_RIGHT.wav	2	22	blb_dichoticlistening_ka-ka.mp3	ka	ka	0	left
6.6.1	win	2023-06-01	23:02:33	23:14:35	719451	5dd742a140460e6e2b707d58	4	1	DL_practice	21	DL_practice	4	stimuli_distractor_trianglediamonds.svg	stimuli_target_squarediamonds.svg	12	yes	pa	1	1260	6	4	antiphase_hc_sio.wav	1	6	6	noise_calib_stim_RIGHT.wav	2	29	blb_dichoticlistening_pa-pa.mp3	pa	pa	0	left
6.6.1	win	2023-06-01	23:02:33	23:14:35	719451	5dd742a140460e6e2b707d58	4	1	DL_practice	21	DL_practice	5	stimuli_distractor_trianglediamonds.svg	stimuli_target_squarediamonds.svg	12	yes	da	1	1033	6	4	antiphase_hc_sio.wav	1	6	6	noise_calib_stim_RIGHT.wav	2	8	blb_dichoticlistening_da-da.mp3	da	da	0	left
6.6.1	win	2023-06-01	23:02:33	23:14:35	719451	5dd742a140460e6e2b707d58	4	1	DL_practice	21	DL_practice	6	stimuli_distractor_trianglediamonds.svg	stimuli_target_squarediamonds.svg	12	yes	da	1	1154	6	4	antiphase_hc_sio.wav	1	6	6	noise_calib_stim_RIGHT.wav	2	7	blb_dichoticlistening_da-ba.mp3	da	ba	1	left
6.6.1	win	2023-06-01	23:02:33	23:14:35	719451	5dd742a140460e6e2b707d58	4	1	DL_practice	21	DL_practice	7	stimuli_distractor_trianglediamonds.svg	stimuli_target_squarediamonds.svg	12	yes	pa	0	1560	6	4	antiphase_hc_sio.wav	1	6	6	noise_calib_stim_RIGHT.wav	2	1	blb_dichoticlistening_ba-ba.mp3	ba	ba	0	other
6.6.1	win	2023-06-01	23:02:33	23:14:35	719451	5dd742a140460e6e2b707d58	4	1	DL_practice	21	DL_practice	8	stimuli_distractor_trianglediamonds.svg	stimuli_target_squarediamonds.svg	12	yes	ta	1	1621	6	4	antiphase_hc_sio.wav	1	6	6	noise_calib_stim_RIGHT.wav	2	36	blb_dichoticlistening_ta-ta.mp3	ta	ta	0	left
6.6.1	win	2023-06-01	23:02:33	23:14:35	719451	5dd742a140460e6e2b707d58	4	1	DL_practice	21	DL_practice	9	stimuli_distractor_trianglediamonds.svg	stimuli_target_squarediamonds.svg	12	yes	ta	0	1153	6	4	antiphase_hc_sio.wav	1	6	6	noise_calib_stim_RIGHT.wav	2	23	blb_dichoticlistening_ka-pa.mp3	ka	pa	1	other
6.6.1	win	2023-06-01	23:02:33	23:14:35	719451	5dd742a140460e6e2b707d58	4	1	DL_practice	21	DL_practice	10	stimuli_distractor_trianglediamonds.svg	stimuli_target_squarediamonds.svg	12	yes	da	0	1735	6	4	antiphase_hc_sio.wav	1	6	6	noise_calib_stim_RIGHT.wav	2	15	blb_dichoticlistening_ga-ga.mp3	ga	ga	0	other
6.6.1	win	2023-06-01	23:02:33	23:14:35	719451	5dd742a140460e6e2b707d58	4	1	DL_test	23	DL_test	1	stimuli_distractor_trianglediamonds.svg	stimuli_target_squarediamonds.svg	12	yes	ta	0	1291	6	4	antiphase_hc_sio.wav	1	6	6	noise_calib_stim_RIGHT.wav	2	26	blb_dichoticlistening_pa-da.mp3	pa	da	1	other
6.6.1	win	2023-06-01	23:02:33	23:14:35	719451	5dd742a140460e6e2b707d58	4	1	DL_test	23	DL_test	2	stimuli_distractor_trianglediamonds.svg	stimuli_target_squarediamonds.svg	12	yes	da	0	1591	6	4	antiphase_hc_sio.wav	1	6	6	noise_calib_stim_RIGHT.wav	2	3	blb_dichoticlistening_ba-ga.mp3	ba	ga	1	other
6.6.1	win	2023-06-01	23:02:33	23:14:35	719451	5dd742a140460e6e2b707d58	4	1	DL_test	23	DL_test	3	stimuli_distractor_trianglediamonds.svg	stimuli_target_squarediamonds.svg	12	yes	ta	1	1141	6	4	antiphase_hc_sio.wav	1	6	6	noise_calib_stim_RIGHT.wav	2	12	blb_dichoticlistening_da-ta.mp3	da	ta	1	right
6.6.1	win	2023-06-01	23:02:33	23:14:35	719451	5dd742a140460e6e2b707d58	4	1	DL_test	23	DL_test	4	stimuli_distractor_trianglediamonds.svg	stimuli_target_squarediamonds.svg	12	yes	ta	1	795	6	4	antiphase_hc_sio.wav	1	6	6	noise_calib_stim_RIGHT.wav	2	31	blb_dichoticlistening_ta-ba.mp3	ta	ba	1	left
6.6.1	win	2023-06-01	23:02:33	23:14:35	719451	5dd742a140460e6e2b707d58	4	1	DL_test	23	DL_test	5	stimuli_distractor_trianglediamonds.svg	stimuli_target_squarediamonds.svg	12	yes	ka	1	1380	6	4	antiphase_hc_sio.wav	1	6	6	noise_calib_stim_RIGHT.wav	2	4	blb_dichoticlistening_ba-ka.mp3	ba	ka	1	right
6.6.1	win	2023-06-01	23:02:33	23:14:35	719451	5dd742a140460e6e2b707d58	4	1	DL_test	23	DL_test	6	stimuli_distractor_trianglediamonds.svg	stimuli_target_squarediamonds.svg	12	yes	ta	1	1466	6	4	antiphase_hc_sio.wav	1	6	6	noise_calib_stim_RIGHT.wav	2	33	blb_dichoticlistening_ta-ga.mp3	ta	ga	1	left
6.6.1	win	2023-06-01	23:02:33	23:14:35	719451	5dd742a140460e6e2b707d58	4	1	DL_test	23	DL_test	7	stimuli_distractor_trianglediamonds.svg	stimuli_target_squarediamonds.svg	12	yes	ta	0	903	6	4	antiphase_hc_sio.wav	1	6	6	noise_calib_stim_RIGHT.wav	2	10	blb_dichoticlistening_da-ka.mp3	da	ka	1	other
6.6.1	win	2023-06-01	23:02:33	23:14:35	719451	5dd742a140460e6e2b707d58	4	1	DL_test	23	DL_test	8	stimuli_distractor_trianglediamonds.svg	stimuli_target_squarediamonds.svg	12	yes	da	1	1275	6	4	antiphase_hc_sio.wav	1	6	6	noise_calib_stim_RIGHT.wav	2	2	blb_dichoticlistening_ba-da.mp3	ba	da	1	right
6.6.1	win	2023-06-01	23:02:33	23:14:35	719451	5dd742a140460e6e2b707d58	4	1	DL_test	23	DL_test	9	stimuli_distractor_trianglediamonds.svg	stimuli_target_squarediamonds.svg	12	yes	pa	1	1530	6	4	antiphase_hc_sio.wav	1	6	6	noise_calib_stim_RIGHT.wav	2	35	blb_dichoticlistening_ta-pa.mp3	ta	pa	1	right
6.6.1	win	2023-06-01	23:02:33	23:14:35	719451	5dd742a140460e6e2b707d58	4	1	DL_test	23	DL_test	10	stimuli_distractor_trianglediamonds.svg	stimuli_target_squarediamonds.svg	12	yes	ka	1	1393	6	4	antiphase_hc_sio.wav	1	6	6	noise_calib_stim_RIGHT.wav	2	16	blb_dichoticlistening_ga-ka.mp3	ga	ka	1	right
6.6.1	win	2023-06-01	23:02:33	23:14:35	719451	5dd742a140460e6e2b707d58	4	1	DL_test	23	DL_test	11	stimuli_distractor_trianglediamonds.svg	stimuli_target_squarediamonds.svg	12	yes	ka	1	1595	6	4	antiphase_hc_sio.wav	1	6	6	noise_calib_stim_RIGHT.wav	2	24	blb_dichoticlistening_ka-ta.mp3	ka	ta	1	left
6.6.1	win	2023-06-01	23:02:33	23:14:35	719451	5dd742a140460e6e2b707d58	4	1	DL_test	23	DL_test	12	stimuli_distractor_trianglediamonds.svg	stimuli_target_squarediamonds.svg	12	yes	da	0	1489	6	4	antiphase_hc_sio.wav	1	6	6	noise_calib_stim_RIGHT.wav	2	13	blb_dichoticlistening_ga-ba.mp3	ga	ba	1	other
6.6.1	win	2023-06-01	23:02:33	23:14:35	719451	5dd742a140460e6e2b707d58	4	1	DL_test	23	DL_test	13	stimuli_distractor_trianglediamonds.svg	stimuli_target_squarediamonds.svg	12	yes	ta	0	1598	6	4	antiphase_hc_sio.wav	1	6	6	noise_calib_stim_RIGHT.wav	2	20	blb_dichoticlistening_ka-da.mp3	ka	da	1	other
6.6.1	win	2023-06-01	23:02:33	23:14:35	719451	5dd742a140460e6e2b707d58	4	1	DL_test	23	DL_test	14	stimuli_distractor_trianglediamonds.svg	stimuli_target_squarediamonds.svg	12	yes	ta	0	1400	6	4	antiphase_hc_sio.wav	1	6	6	noise_calib_stim_RIGHT.wav	2	19	blb_dichoticlistening_ka-ba.mp3	ka	ba	1	other
6.6.1	win	2023-06-01	23:02:33	23:14:35	719451	5dd742a140460e6e2b707d58	4	1	DL_test	23	DL_test	15	stimuli_distractor_trianglediamonds.svg	stimuli_target_squarediamonds.svg	12	yes	pa	1	1822	6	4	antiphase_hc_sio.wav	1	6	6	noise_calib_stim_RIGHT.wav	2	11	blb_dichoticlistening_da-pa.mp3	da	pa	1	right
6.6.1	win	2023-06-01	23:02:33	23:14:35	719451	5dd742a140460e6e2b707d58	4	1	DL_test	23	DL_test	16	stimuli_distractor_trianglediamonds.svg	stimuli_target_squarediamonds.svg	12	yes	ta	1	1888	6	4	antiphase_hc_sio.wav	1	6	6	noise_calib_stim_RIGHT.wav	2	32	blb_dichoticlistening_ta-da.mp3	ta	da	1	left
6.6.1	win	2023-06-01	23:02:33	23:14:35	719451	5dd742a140460e6e2b707d58	4	1	DL_test	23	DL_test	17	stimuli_distractor_trianglediamonds.svg	stimuli_target_squarediamonds.svg	12	yes	da	0	1159	6	4	antiphase_hc_sio.wav	1	6	6	noise_calib_stim_RIGHT.wav	2	15	blb_dichoticlistening_ga-ga.mp3	ga	ga	0	other
6.6.1	win	2023-06-01	23:02:33	23:14:35	719451	5dd742a140460e6e2b707d58	4	1	DL_test	23	DL_test	18	stimuli_distractor_trianglediamonds.svg	stimuli_target_squarediamonds.svg	12	yes	ka	1	1276	6	4	antiphase_hc_sio.wav	1	6	6	noise_calib_stim_RIGHT.wav	2	28	blb_dichoticlistening_pa-ka.mp3	pa	ka	1	right
6.6.1	win	2023-06-01	23:02:33	23:14:35	719451	5dd742a140460e6e2b707d58	4	1	DL_test	23	DL_test	19	stimuli_distractor_trianglediamonds.svg	stimuli_target_squarediamonds.svg	12	yes	ba	1	911	6	4	antiphase_hc_sio.wav	1	6	6	noise_calib_stim_RIGHT.wav	2	1	blb_dichoticlistening_ba-ba.mp3	ba	ba	0	left
6.6.1	win	2023-06-01	23:02:33	23:14:35	719451	5dd742a140460e6e2b707d58	4	1	DL_test	23	DL_test	20	stimuli_distractor_trianglediamonds.svg	stimuli_target_squarediamonds.svg	12	yes	pa	1	1347	6	4	antiphase_hc_sio.wav	1	6	6	noise_calib_stim_RIGHT.wav	2	29	blb_dichoticlistening_pa-pa.mp3	pa	pa	0	left
6.6.1	win	2023-06-01	23:02:33	23:14:35	719451	5dd742a140460e6e2b707d58	4	1	DL_test	23	DL_test	21	stimuli_distractor_trianglediamonds.svg	stimuli_target_squarediamonds.svg	12	yes	ta	0	1128	6	4	antiphase_hc_sio.wav	1	6	6	noise_calib_stim_RIGHT.wav	2	17	blb_dichoticlistening_ga-pa.mp3	ga	pa	1	other
6.6.1	win	2023-06-01	23:02:33	23:14:35	719451	5dd742a140460e6e2b707d58	4	1	DL_test	23	DL_test	22	stimuli_distractor_trianglediamonds.svg	stimuli_target_squarediamonds.svg	12	yes	ka	1	887	6	4	antiphase_hc_sio.wav	1	6	6	noise_calib_stim_RIGHT.wav	2	34	blb_dichoticlistening_ta-ka.mp3	ta	ka	1	right
6.6.1	win	2023-06-01	23:02:33	23:14:35	719451	5dd742a140460e6e2b707d58	4	1	DL_test	23	DL_test	23	stimuli_distractor_trianglediamonds.svg	stimuli_target_squarediamonds.svg	12	yes	da	1	999	6	4	antiphase_hc_sio.wav	1	6	6	noise_calib_stim_RIGHT.wav	2	7	blb_dichoticlistening_da-ba.mp3	da	ba	1	left
6.6.1	win	2023-06-01	23:02:33	23:14:35	719451	5dd742a140460e6e2b707d58	4	1	DL_test	23	DL_test	24	stimuli_distractor_trianglediamonds.svg	stimuli_target_squarediamonds.svg	12	yes	da	1	1002	6	4	antiphase_hc_sio.wav	1	6	6	noise_calib_stim_RIGHT.wav	2	9	blb_dichoticlistening_da-ga.mp3	da	ga	1	left
6.6.1	win	2023-06-01	23:02:33	23:14:35	719451	5dd742a140460e6e2b707d58	4	1	DL_test	23	DL_test	25	stimuli_distractor_trianglediamonds.svg	stimuli_target_squarediamonds.svg	12	yes	da	1	683	6	4	antiphase_hc_sio.wav	1	6	6	noise_calib_stim_RIGHT.wav	2	14	blb_dichoticlistening_ga-da.mp3	ga	da	1	right
6.6.1	win	2023-06-01	23:02:33	23:14:35	719451	5dd742a140460e6e2b707d58	4	1	DL_test	23	DL_test	26	stimuli_distractor_trianglediamonds.svg	stimuli_target_squarediamonds.svg	12	yes	ka	1	1065	6	4	antiphase_hc_sio.wav	1	6	6	noise_calib_stim_RIGHT.wav	2	22	blb_dichoticlistening_ka-ka.mp3	ka	ka	0	left
