build	computer.platform	date	time	timestamp	time_elapsed_ms	subject	group	session	blockcode	blocknum	trialcode	trialnum	stimulus_left	stimulus_right	stim_index	target_present	response	correct	latency	headphonecheck_countTestTrials	headphonecheck_index	headphonecheck_testSound	headphonecheck_correctResponse	stereocheck_countTestTrials	stereocheck_index	stereocheck_testSound	stereocheck_correctResponse	DL_index	DL_soundfile	DL_leftSound	DL_rightSound	DL_dualSound	DL_choice
6.6.1	win	2023-06-02	05:16:07	05:18:07	116232	60b8198defba8da1d95a93b8	3	1	practice_slash	5	practice_slash	1	stimuli_distractor_trianglediamonds.svg	stimuli_target_rectanglediamonds.svg	10	yes	53	1	412	0	0			0	0			1				0	
6.6.1	win	2023-06-02	05:16:07	05:18:07	116232	60b8198defba8da1d95a93b8	3	1	practice_slash	5	advance_on_keypress_SLASH	2	stimuli_distractor_trianglediamonds.svg	stimuli_target_rectanglediamonds.svg	10	yes	57	0	4027	0	0			0	0			1				0	
6.6.1	win	2023-06-02	05:16:07	05:18:13	122337	60b8198defba8da1d95a93b8	3	1	practice_slash	5	practice_slash	3	stimuli_distractor_trianglediamonds.svg	stimuli_target_squarediamonds.svg	11	yes	53	1	423	0	0			0	0			1				0	
6.6.1	win	2023-06-02	05:16:07	05:18:13	122337	60b8198defba8da1d95a93b8	3	1	practice_slash	5	advance_on_keypress_SLASH	4	stimuli_distractor_trianglediamonds.svg	stimuli_target_squarediamonds.svg	11	yes	57	0	560	0	0			0	0			1				0	
6.6.1	win	2023-06-02	05:16:07	05:18:16	125246	60b8198defba8da1d95a93b8	3	1	practice_slash	5	practice_slash	5	stimuli_target_diamondsquares.svg	stimuli_distractor_diamondtriangles.svg	3	yes	53	1	701	0	0			0	0			1				0	
6.6.1	win	2023-06-02	05:16:07	05:18:16	125246	60b8198defba8da1d95a93b8	3	1	practice_slash	5	advance_on_keypress_SLASH	6	stimuli_target_diamondsquares.svg	stimuli_distractor_diamondtriangles.svg	3	yes	57	0	520	0	0			0	0			1				0	
6.6.1	win	2023-06-02	05:16:07	05:18:19	128517	60b8198defba8da1d95a93b8	3	1	practice_slash	5	practice_slash	7	stimuli_distractor_diamondtriangles.svg	stimuli_target_diamondrectangles.svg	8	yes	53	1	1109	0	0			0	0			1				0	
6.6.1	win	2023-06-02	05:16:07	05:18:19	128517	60b8198defba8da1d95a93b8	3	1	practice_slash	5	advance_on_keypress_SLASH	8	stimuli_distractor_diamondtriangles.svg	stimuli_target_diamondrectangles.svg	8	yes	57	0	410	0	0			0	0			1				0	
6.6.1	win	2023-06-02	05:16:07	05:18:23	132593	60b8198defba8da1d95a93b8	3	1	practice_slash	5	practice_slash	9	stimuli_distractor_trianglediamonds.svg	stimuli_distractor_diamondtriangles.svg	16	no	0	1	2000	0	0			0	0			1				0	
6.6.1	win	2023-06-02	05:16:07	05:18:23	132593	60b8198defba8da1d95a93b8	3	1	practice_slash	5	advance_on_keypress_SLASH	10	stimuli_distractor_trianglediamonds.svg	stimuli_distractor_diamondtriangles.svg	16	no	57	0	412	0	0			0	0			1				0	
6.6.1	win	2023-06-02	05:16:07	05:18:27	136667	60b8198defba8da1d95a93b8	3	1	practice_slash	5	practice_slash	11	stimuli_distractor_trianglediamonds.svg	stimuli_distractor_trianglediamonds.svg	15	no	0	1	2000	0	0			0	0			1				0	
6.6.1	win	2023-06-02	05:16:07	05:18:27	136667	60b8198defba8da1d95a93b8	3	1	practice_slash	5	advance_on_keypress_SLASH	12	stimuli_distractor_trianglediamonds.svg	stimuli_distractor_trianglediamonds.svg	15	no	57	0	671	0	0			0	0			1				0	
6.6.1	win	2023-06-02	05:16:07	05:18:30	139711	60b8198defba8da1d95a93b8	3	1	practice_slash	5	practice_slash	13	stimuli_target_squarediamonds.svg	stimuli_distractor_diamondtriangles.svg	2	yes	53	1	732	0	0			0	0			1				0	
6.6.1	win	2023-06-02	05:16:07	05:18:30	139711	60b8198defba8da1d95a93b8	3	1	practice_slash	5	advance_on_keypress_SLASH	14	stimuli_target_squarediamonds.svg	stimuli_distractor_diamondtriangles.svg	2	yes	57	0	572	0	0			0	0			1				0	
6.6.1	win	2023-06-02	05:16:07	05:18:34	142947	60b8198defba8da1d95a93b8	3	1	practice_slash	5	practice_slash	15	stimuli_target_squarediamonds.svg	stimuli_distractor_trianglediamonds.svg	5	yes	53	1	1020	0	0			0	0			1				0	
6.6.1	win	2023-06-02	05:16:07	05:18:34	142947	60b8198defba8da1d95a93b8	3	1	practice_slash	5	advance_on_keypress_SLASH	16	stimuli_target_squarediamonds.svg	stimuli_distractor_trianglediamonds.svg	5	yes	57	0	679	0	0			0	0			1				0	
6.6.1	win	2023-06-02	05:16:07	05:18:38	147275	60b8198defba8da1d95a93b8	3	1	practice_slash	5	practice_slash	17	stimuli_distractor_diamondtriangles.svg	stimuli_distractor_trianglediamonds.svg	14	no	0	1	2000	0	0			0	0			1				0	
6.6.1	win	2023-06-02	05:16:07	05:18:38	147275	60b8198defba8da1d95a93b8	3	1	practice_slash	5	advance_on_keypress_SLASH	18	stimuli_distractor_diamondtriangles.svg	stimuli_distractor_trianglediamonds.svg	14	no	57	0	530	0	0			0	0			1				0	
6.6.1	win	2023-06-02	05:16:07	05:18:41	150429	60b8198defba8da1d95a93b8	3	1	practice_slash	5	practice_slash	19	stimuli_distractor_diamondtriangles.svg	stimuli_target_trianglerectangles.svg	9	yes	53	1	977	0	0			0	0			1				0	
6.6.1	win	2023-06-02	05:16:07	05:18:41	150429	60b8198defba8da1d95a93b8	3	1	practice_slash	5	advance_on_keypress_SLASH	20	stimuli_distractor_diamondtriangles.svg	stimuli_target_trianglerectangles.svg	9	yes	57	0	798	0	0			0	0			1				0	
6.6.1	win	2023-06-02	05:16:07	05:18:44	153726	60b8198defba8da1d95a93b8	3	1	practice_slash	5	practice_slash	21	stimuli_target_rectanglediamonds.svg	stimuli_distractor_trianglediamonds.svg	4	yes	53	1	844	0	0			0	0			1				0	
6.6.1	win	2023-06-02	05:16:07	05:18:44	153726	60b8198defba8da1d95a93b8	3	1	practice_slash	5	advance_on_keypress_SLASH	22	stimuli_target_rectanglediamonds.svg	stimuli_distractor_trianglediamonds.svg	4	yes	57	0	1147	0	0			0	0			1				0	
6.6.1	win	2023-06-02	05:16:07	05:18:49	158530	60b8198defba8da1d95a93b8	3	1	practice_slash	5	practice_slash	23	stimuli_distractor_diamondtriangles.svg	stimuli_distractor_diamondtriangles.svg	13	no	0	1	2000	0	0			0	0			1				0	
6.6.1	win	2023-06-02	05:16:07	05:18:49	158530	60b8198defba8da1d95a93b8	3	1	practice_slash	5	advance_on_keypress_SLASH	24	stimuli_distractor_diamondtriangles.svg	stimuli_distractor_diamondtriangles.svg	13	no	57	0	477	0	0			0	0			1				0	
6.6.1	win	2023-06-02	05:16:07	05:18:52	161477	60b8198defba8da1d95a93b8	3	1	practice_slash	5	practice_slash	25	stimuli_distractor_diamondtriangles.svg	stimuli_target_rectangletriangles.svg	7	yes	53	1	818	0	0			0	0			1				0	
6.6.1	win	2023-06-02	05:16:07	05:18:52	161477	60b8198defba8da1d95a93b8	3	1	practice_slash	5	advance_on_keypress_SLASH	26	stimuli_distractor_diamondtriangles.svg	stimuli_target_rectangletriangles.svg	7	yes	57	0	676	0	0			0	0			1				0	
6.6.1	win	2023-06-02	05:16:07	05:18:55	164654	60b8198defba8da1d95a93b8	3	1	practice_slash	5	practice_slash	27	stimuli_target_rectanglediamonds.svg	stimuli_distractor_diamondtriangles.svg	1	yes	53	1	864	0	0			0	0			1				0	
6.6.1	win	2023-06-02	05:16:07	05:18:55	164654	60b8198defba8da1d95a93b8	3	1	practice_slash	5	advance_on_keypress_SLASH	28	stimuli_target_rectanglediamonds.svg	stimuli_distractor_diamondtriangles.svg	1	yes	57	0	390	0	0			0	0			1				0	
6.6.1	win	2023-06-02	05:16:07	05:18:58	167627	60b8198defba8da1d95a93b8	3	1	practice_slash	5	practice_slash	29	stimuli_target_diamondsquares.svg	stimuli_distractor_trianglediamonds.svg	6	yes	53	1	941	0	0			0	0			1				0	
6.6.1	win	2023-06-02	05:16:07	05:18:58	167627	60b8198defba8da1d95a93b8	3	1	practice_slash	5	advance_on_keypress_SLASH	30	stimuli_target_diamondsquares.svg	stimuli_distractor_trianglediamonds.svg	6	yes	57	0	469	0	0			0	0			1				0	
6.6.1	win	2023-06-02	05:16:07	05:19:02	170934	60b8198defba8da1d95a93b8	3	1	practice_slash	5	practice_slash	31	stimuli_distractor_trianglediamonds.svg	stimuli_target_diamondrectangles.svg	12	yes	53	1	1184	0	0			0	0			1				0	
6.6.1	win	2023-06-02	05:16:07	05:19:02	170934	60b8198defba8da1d95a93b8	3	1	practice_slash	5	advance_on_keypress_SLASH	32	stimuli_distractor_trianglediamonds.svg	stimuli_target_diamondrectangles.svg	12	yes	57	0	469	0	0			0	0			1				0	
6.6.1	win	2023-06-02	05:16:07	05:19:10	178999	60b8198defba8da1d95a93b8	3	1	main_slash	7	main_slash	1	stimuli_distractor_diamondtriangles.svg	stimuli_target_trianglerectangles.svg	29	yes	53	1	1676	0	0			0	0			1				0	
6.6.1	win	2023-06-02	05:16:07	05:19:10	178999	60b8198defba8da1d95a93b8	3	1	main_slash	7	advance_on_keypress_SLASH	2	stimuli_distractor_diamondtriangles.svg	stimuli_target_trianglerectangles.svg	29	yes	57	0	778	0	0			0	0			1				0	
6.6.1	win	2023-06-02	05:16:07	05:19:12	181235	60b8198defba8da1d95a93b8	3	1	main_slash	7	main_slash	3	stimuli_target_diamondsquares.svg	stimuli_distractor_trianglediamonds.svg	20	yes	53	1	799	0	0			0	0			1				0	
6.6.1	win	2023-06-02	05:16:07	05:19:12	181235	60b8198defba8da1d95a93b8	3	1	main_slash	7	advance_on_keypress_SLASH	4	stimuli_target_diamondsquares.svg	stimuli_distractor_trianglediamonds.svg	20	yes	57	0	1466	0	0			0	0			1				0	
6.6.1	win	2023-06-02	05:16:07	05:19:15	184064	60b8198defba8da1d95a93b8	3	1	main_slash	7	main_slash	5	stimuli_distractor_trianglediamonds.svg	stimuli_target_diamondrectangles.svg	27	yes	53	1	713	0	0			0	0			1				0	
6.6.1	win	2023-06-02	05:16:07	05:19:15	184064	60b8198defba8da1d95a93b8	3	1	main_slash	7	advance_on_keypress_SLASH	6	stimuli_distractor_trianglediamonds.svg	stimuli_target_diamondrectangles.svg	27	yes	57	0	2299	0	0			0	0			1				0	
6.6.1	win	2023-06-02	05:16:07	05:19:18	187812	60b8198defba8da1d95a93b8	3	1	main_slash	7	main_slash	7	stimuli_target_squaretriangles.svg	stimuli_distractor_trianglediamonds.svg	3	yes	53	1	799	0	0			0	0			1				0	
6.6.1	win	2023-06-02	05:16:07	05:19:18	187812	60b8198defba8da1d95a93b8	3	1	main_slash	7	advance_on_keypress_SLASH	8	stimuli_target_squaretriangles.svg	stimuli_distractor_trianglediamonds.svg	3	yes	57	0	1502	0	0			0	0			1				0	
6.6.1	win	2023-06-02	05:16:07	05:19:21	190686	60b8198defba8da1d95a93b8	3	1	main_slash	7	main_slash	9	stimuli_distractor_diamondtriangles.svg	stimuli_target_diamondrectangles.svg	31	yes	53	1	726	0	0			0	0			1				0	
6.6.1	win	2023-06-02	05:16:07	05:19:21	190686	60b8198defba8da1d95a93b8	3	1	main_slash	7	advance_on_keypress_SLASH	10	stimuli_distractor_diamondtriangles.svg	stimuli_target_diamondrectangles.svg	31	yes	57	0	431	0	0			0	0			1				0	
6.6.1	win	2023-06-02	05:16:07	05:19:23	192430	60b8198defba8da1d95a93b8	3	1	main_slash	7	main_slash	11	stimuli_target_squarediamonds.svg	stimuli_distractor_diamondtriangles.svg	8	yes	53	1	672	0	0			0	0			1				0	
6.6.1	win	2023-06-02	05:16:07	05:19:23	192430	60b8198defba8da1d95a93b8	3	1	main_slash	7	advance_on_keypress_SLASH	12	stimuli_target_squarediamonds.svg	stimuli_distractor_diamondtriangles.svg	8	yes	57	0	331	0	0			0	0			1				0	
6.6.1	win	2023-06-02	05:16:07	05:19:26	195407	60b8198defba8da1d95a93b8	3	1	main_slash	7	main_slash	13	stimuli_distractor_trianglediamonds.svg	stimuli_distractor_diamondtriangles.svg	35	no	0	1	2000	0	0			0	0			1				0	
6.6.1	win	2023-06-02	05:16:07	05:19:26	195407	60b8198defba8da1d95a93b8	3	1	main_slash	7	advance_on_keypress_SLASH	14	stimuli_distractor_trianglediamonds.svg	stimuli_distractor_diamondtriangles.svg	35	no	57	0	537	0	0			0	0			1				0	
6.6.1	win	2023-06-02	05:16:07	05:19:28	197328	60b8198defba8da1d95a93b8	3	1	main_slash	7	main_slash	15	stimuli_distractor_diamondtriangles.svg	stimuli_target_trianglesquares.svg	30	yes	53	1	741	0	0			0	0			1				0	
6.6.1	win	2023-06-02	05:16:07	05:19:28	197328	60b8198defba8da1d95a93b8	3	1	main_slash	7	advance_on_keypress_SLASH	16	stimuli_distractor_diamondtriangles.svg	stimuli_target_trianglesquares.svg	30	yes	57	0	1546	0	0			0	0			1				0	
6.6.1	win	2023-06-02	05:16:07	05:19:31	200117	60b8198defba8da1d95a93b8	3	1	main_slash	7	main_slash	17	stimuli_distractor_diamondtriangles.svg	stimuli_target_squarediamonds.svg	16	yes	53	1	600	0	0			0	0			1				0	
6.6.1	win	2023-06-02	05:16:07	05:19:31	200117	60b8198defba8da1d95a93b8	3	1	main_slash	7	advance_on_keypress_SLASH	18	stimuli_distractor_diamondtriangles.svg	stimuli_target_squarediamonds.svg	16	yes	57	0	385	0	0			0	0			1				0	
6.6.1	win	2023-06-02	05:16:07	05:19:32	201840	60b8198defba8da1d95a93b8	3	1	main_slash	7	main_slash	19	stimuli_distractor_trianglediamonds.svg	stimuli_target_diamondsquares.svg	28	yes	53	1	691	0	0			0	0			1				0	
6.6.1	win	2023-06-02	05:16:07	05:19:32	201840	60b8198defba8da1d95a93b8	3	1	main_slash	7	advance_on_keypress_SLASH	20	stimuli_distractor_trianglediamonds.svg	stimuli_target_diamondsquares.svg	28	yes	57	0	349	0	0			0	0			1				0	
6.6.1	win	2023-06-02	05:16:07	05:19:34	203819	60b8198defba8da1d95a93b8	3	1	main_slash	7	main_slash	21	stimuli_distractor_diamondtriangles.svg	stimuli_distractor_trianglediamonds.svg	38	no	53	0	989	0	0			0	0			1				0	
6.6.1	win	2023-06-02	05:16:07	05:19:34	203819	60b8198defba8da1d95a93b8	3	1	main_slash	7	advance_on_keypress_SLASH	22	stimuli_distractor_diamondtriangles.svg	stimuli_distractor_trianglediamonds.svg	38	no	57	0	478	0	0			0	0			1				0	
6.6.1	win	2023-06-02	05:16:07	05:19:38	206945	60b8198defba8da1d95a93b8	3	1	main_slash	7	main_slash	23	stimuli_distractor_diamondtriangles.svg	stimuli_distractor_diamondtriangles.svg	40	no	0	1	2000	0	0			0	0			1				0	
6.6.1	win	2023-06-02	05:16:07	05:19:38	206945	60b8198defba8da1d95a93b8	3	1	main_slash	7	advance_on_keypress_SLASH	24	stimuli_distractor_diamondtriangles.svg	stimuli_distractor_diamondtriangles.svg	40	no	57	0	504	0	0			0	0			1				0	
6.6.1	win	2023-06-02	05:16:07	05:19:39	208784	60b8198defba8da1d95a93b8	3	1	main_slash	7	main_slash	25	stimuli_target_trianglesquares.svg	stimuli_distractor_trianglediamonds.svg	18	yes	53	1	691	0	0			0	0			1				0	
6.6.1	win	2023-06-02	05:16:07	05:19:39	208784	60b8198defba8da1d95a93b8	3	1	main_slash	7	advance_on_keypress_SLASH	26	stimuli_target_trianglesquares.svg	stimuli_distractor_trianglediamonds.svg	18	yes	57	0	395	0	0			0	0			1				0	
6.6.1	win	2023-06-02	05:16:07	05:19:42	211824	60b8198defba8da1d95a93b8	3	1	main_slash	7	main_slash	27	stimuli_distractor_trianglediamonds.svg	stimuli_distractor_trianglediamonds.svg	34	no	0	1	2000	0	0			0	0			1				0	
6.6.1	win	2023-06-02	05:16:07	05:19:42	211824	60b8198defba8da1d95a93b8	3	1	main_slash	7	advance_on_keypress_SLASH	28	stimuli_distractor_trianglediamonds.svg	stimuli_distractor_trianglediamonds.svg	34	no	57	0	477	0	0			0	0			1				0	
6.6.1	win	2023-06-02	05:16:07	05:19:44	213803	60b8198defba8da1d95a93b8	3	1	main_slash	7	main_slash	29	stimuli_distractor_diamondtriangles.svg	stimuli_target_rectanglediamonds.svg	14	yes	53	1	866	0	0			0	0			1				0	
6.6.1	win	2023-06-02	05:16:07	05:19:44	213803	60b8198defba8da1d95a93b8	3	1	main_slash	7	advance_on_keypress_SLASH	30	stimuli_distractor_diamondtriangles.svg	stimuli_target_rectanglediamonds.svg	14	yes	57	0	402	0	0			0	0			1				0	
6.6.1	win	2023-06-02	05:16:07	05:19:47	216853	60b8198defba8da1d95a93b8	3	1	main_slash	7	main_slash	31	stimuli_distractor_diamondtriangles.svg	stimuli_distractor_trianglediamonds.svg	37	no	0	1	2000	0	0			0	0			1				0	
6.6.1	win	2023-06-02	05:16:07	05:19:47	216853	60b8198defba8da1d95a93b8	3	1	main_slash	7	advance_on_keypress_SLASH	32	stimuli_distractor_diamondtriangles.svg	stimuli_distractor_trianglediamonds.svg	37	no	57	0	298	0	0			0	0			1				0	
6.6.1	win	2023-06-02	05:16:07	05:19:49	218686	60b8198defba8da1d95a93b8	3	1	main_slash	7	main_slash	33	stimuli_distractor_diamondtriangles.svg	stimuli_target_rectangletriangles.svg	13	yes	53	1	887	0	0			0	0			1				0	
6.6.1	win	2023-06-02	05:16:07	05:19:49	218686	60b8198defba8da1d95a93b8	3	1	main_slash	7	advance_on_keypress_SLASH	34	stimuli_distractor_diamondtriangles.svg	stimuli_target_rectangletriangles.svg	13	yes	57	0	803	0	0			0	0			1				0	
6.6.1	win	2023-06-02	05:16:07	05:19:52	220983	60b8198defba8da1d95a93b8	3	1	main_slash	7	main_slash	35	stimuli_distractor_trianglediamonds.svg	stimuli_target_rectangletriangles.svg	9	yes	53	1	852	0	0			0	0			1				0	
6.6.1	win	2023-06-02	05:16:07	05:19:52	220983	60b8198defba8da1d95a93b8	3	1	main_slash	7	advance_on_keypress_SLASH	36	stimuli_distractor_trianglediamonds.svg	stimuli_target_rectangletriangles.svg	9	yes	57	0	621	0	0			0	0			1				0	
6.6.1	win	2023-06-02	05:16:07	05:19:53	222721	60b8198defba8da1d95a93b8	3	1	main_slash	7	main_slash	37	stimuli_distractor_trianglediamonds.svg	stimuli_target_rectanglediamonds.svg	10	yes	53	1	476	0	0			0	0			1				0	
6.6.1	win	2023-06-02	05:16:07	05:19:53	222721	60b8198defba8da1d95a93b8	3	1	main_slash	7	advance_on_keypress_SLASH	38	stimuli_distractor_trianglediamonds.svg	stimuli_target_rectanglediamonds.svg	10	yes	57	0	677	0	0			0	0			1				0	
6.6.1	win	2023-06-02	05:16:07	05:19:56	225781	60b8198defba8da1d95a93b8	3	1	main_slash	7	main_slash	39	stimuli_target_diamondrectangles.svg	stimuli_distractor_trianglediamonds.svg	19	yes	53	1	1755	0	0			0	0			1				0	
6.6.1	win	2023-06-02	05:16:07	05:19:56	225781	60b8198defba8da1d95a93b8	3	1	main_slash	7	advance_on_keypress_SLASH	40	stimuli_target_diamondrectangles.svg	stimuli_distractor_trianglediamonds.svg	19	yes	57	0	859	0	0			0	0			1				0	
6.6.1	win	2023-06-02	05:16:07	05:19:59	228143	60b8198defba8da1d95a93b8	3	1	main_slash	7	main_slash	41	stimuli_target_trianglesquares.svg	stimuli_distractor_diamondtriangles.svg	22	yes	53	1	869	0	0			0	0			1				0	
6.6.1	win	2023-06-02	05:16:07	05:19:59	228143	60b8198defba8da1d95a93b8	3	1	main_slash	7	advance_on_keypress_SLASH	42	stimuli_target_trianglesquares.svg	stimuli_distractor_diamondtriangles.svg	22	yes	57	0	501	0	0			0	0			1				0	
6.6.1	win	2023-06-02	05:16:07	05:20:01	230022	60b8198defba8da1d95a93b8	3	1	main_slash	7	main_slash	43	stimuli_distractor_trianglediamonds.svg	stimuli_target_trianglesquares.svg	26	yes	53	1	734	0	0			0	0			1				0	
6.6.1	win	2023-06-02	05:16:07	05:20:01	230022	60b8198defba8da1d95a93b8	3	1	main_slash	7	advance_on_keypress_SLASH	44	stimuli_distractor_trianglediamonds.svg	stimuli_target_trianglesquares.svg	26	yes	57	0	513	0	0			0	0			1				0	
6.6.1	win	2023-06-02	05:16:07	05:20:03	232172	60b8198defba8da1d95a93b8	3	1	main_slash	7	main_slash	45	stimuli_target_trianglerectangles.svg	stimuli_distractor_diamondtriangles.svg	21	yes	53	1	986	0	0			0	0			1				0	
6.6.1	win	2023-06-02	05:16:07	05:20:03	232172	60b8198defba8da1d95a93b8	3	1	main_slash	7	advance_on_keypress_SLASH	46	stimuli_target_trianglerectangles.svg	stimuli_distractor_diamondtriangles.svg	21	yes	57	0	427	0	0			0	0			1				0	
6.6.1	win	2023-06-02	05:16:07	05:20:05	234066	60b8198defba8da1d95a93b8	3	1	main_slash	7	main_slash	47	stimuli_target_squarediamonds.svg	stimuli_distractor_trianglediamonds.svg	4	yes	53	1	832	0	0			0	0			1				0	
6.6.1	win	2023-06-02	05:16:07	05:20:05	234066	60b8198defba8da1d95a93b8	3	1	main_slash	7	advance_on_keypress_SLASH	48	stimuli_target_squarediamonds.svg	stimuli_distractor_trianglediamonds.svg	4	yes	57	0	687	0	0			0	0			1				0	
6.6.1	win	2023-06-02	05:16:07	05:20:08	237399	60b8198defba8da1d95a93b8	3	1	main_slash	7	main_slash	49	stimuli_target_diamondsquares.svg	stimuli_distractor_diamondtriangles.svg	24	yes	0	0	2000	0	0			0	0			1				0	
6.6.1	win	2023-06-02	05:16:07	05:20:08	237399	60b8198defba8da1d95a93b8	3	1	main_slash	7	advance_on_keypress_SLASH	50	stimuli_target_diamondsquares.svg	stimuli_distractor_diamondtriangles.svg	24	yes	57	0	431	0	0			0	0			1				0	
6.6.1	win	2023-06-02	05:16:07	05:20:10	239358	60b8198defba8da1d95a93b8	3	1	main_slash	7	main_slash	51	stimuli_target_diamondrectangles.svg	stimuli_distractor_diamondtriangles.svg	23	yes	53	1	879	0	0			0	0			1				0	
6.6.1	win	2023-06-02	05:16:07	05:20:10	239358	60b8198defba8da1d95a93b8	3	1	main_slash	7	advance_on_keypress_SLASH	52	stimuli_target_diamondrectangles.svg	stimuli_distractor_diamondtriangles.svg	23	yes	57	0	829	0	0			0	0			1				0	
6.6.1	win	2023-06-02	05:16:07	05:20:12	241663	60b8198defba8da1d95a93b8	3	1	main_slash	7	main_slash	53	stimuli_target_squaretriangles.svg	stimuli_distractor_diamondtriangles.svg	7	yes	53	1	820	0	0			0	0			1				0	
6.6.1	win	2023-06-02	05:16:07	05:20:12	241663	60b8198defba8da1d95a93b8	3	1	main_slash	7	advance_on_keypress_SLASH	54	stimuli_target_squaretriangles.svg	stimuli_distractor_diamondtriangles.svg	7	yes	57	0	421	0	0			0	0			1				0	
6.6.1	win	2023-06-02	05:16:07	05:20:14	243589	60b8198defba8da1d95a93b8	3	1	main_slash	7	main_slash	55	stimuli_distractor_trianglediamonds.svg	stimuli_target_trianglerectangles.svg	25	yes	53	1	863	0	0			0	0			1				0	
6.6.1	win	2023-06-02	05:16:07	05:20:14	243589	60b8198defba8da1d95a93b8	3	1	main_slash	7	advance_on_keypress_SLASH	56	stimuli_distractor_trianglediamonds.svg	stimuli_target_trianglerectangles.svg	25	yes	57	0	443	0	0			0	0			1				0	
6.6.1	win	2023-06-02	05:16:07	05:20:16	245733	60b8198defba8da1d95a93b8	3	1	main_slash	7	main_slash	57	stimuli_distractor_trianglediamonds.svg	stimuli_distractor_trianglediamonds.svg	33	no	53	0	1060	0	0			0	0			1				0	
6.6.1	win	2023-06-02	05:16:07	05:20:16	245733	60b8198defba8da1d95a93b8	3	1	main_slash	7	advance_on_keypress_SLASH	58	stimuli_distractor_trianglediamonds.svg	stimuli_distractor_trianglediamonds.svg	33	no	57	0	503	0	0			0	0			1				0	
6.6.1	win	2023-06-02	05:16:07	05:20:19	247904	60b8198defba8da1d95a93b8	3	1	main_slash	7	main_slash	59	stimuli_distractor_diamondtriangles.svg	stimuli_target_diamondsquares.svg	32	yes	53	1	1017	0	0			0	0			1				0	
6.6.1	win	2023-06-02	05:16:07	05:20:19	247904	60b8198defba8da1d95a93b8	3	1	main_slash	7	advance_on_keypress_SLASH	60	stimuli_distractor_diamondtriangles.svg	stimuli_target_diamondsquares.svg	32	yes	57	0	548	0	0			0	0			1				0	
6.6.1	win	2023-06-02	05:16:07	05:20:21	250190	60b8198defba8da1d95a93b8	3	1	main_slash	7	main_slash	61	stimuli_distractor_trianglediamonds.svg	stimuli_target_squarediamonds.svg	12	yes	53	1	1088	0	0			0	0			1				0	
6.6.1	win	2023-06-02	05:16:07	05:20:21	250190	60b8198defba8da1d95a93b8	3	1	main_slash	7	advance_on_keypress_SLASH	62	stimuli_distractor_trianglediamonds.svg	stimuli_target_squarediamonds.svg	12	yes	57	0	618	0	0			0	0			1				0	
6.6.1	win	2023-06-02	05:16:07	05:20:23	252497	60b8198defba8da1d95a93b8	3	1	main_slash	7	main_slash	63	stimuli_target_rectanglediamonds.svg	stimuli_distractor_trianglediamonds.svg	2	yes	53	1	1046	0	0			0	0			1				0	
6.6.1	win	2023-06-02	05:16:07	05:20:23	252497	60b8198defba8da1d95a93b8	3	1	main_slash	7	advance_on_keypress_SLASH	64	stimuli_target_rectanglediamonds.svg	stimuli_distractor_trianglediamonds.svg	2	yes	57	0	756	0	0			0	0			1				0	
6.6.1	win	2023-06-02	05:16:07	05:20:25	254847	60b8198defba8da1d95a93b8	3	1	main_slash	7	main_slash	65	stimuli_distractor_diamondtriangles.svg	stimuli_target_squaretriangles.svg	15	yes	53	1	950	0	0			0	0			1				0	
6.6.1	win	2023-06-02	05:16:07	05:20:25	254847	60b8198defba8da1d95a93b8	3	1	main_slash	7	advance_on_keypress_SLASH	66	stimuli_distractor_diamondtriangles.svg	stimuli_target_squaretriangles.svg	15	yes	57	0	508	0	0			0	0			1				0	
6.6.1	win	2023-06-02	05:16:07	05:20:28	256908	60b8198defba8da1d95a93b8	3	1	main_slash	7	main_slash	67	stimuli_distractor_trianglediamonds.svg	stimuli_target_squaretriangles.svg	11	yes	53	1	913	0	0			0	0			1				0	
6.6.1	win	2023-06-02	05:16:07	05:20:28	256908	60b8198defba8da1d95a93b8	3	1	main_slash	7	advance_on_keypress_SLASH	68	stimuli_distractor_trianglediamonds.svg	stimuli_target_squaretriangles.svg	11	yes	57	0	725	0	0			0	0			1				0	
6.6.1	win	2023-06-02	05:16:07	05:20:30	259250	60b8198defba8da1d95a93b8	3	1	main_slash	7	main_slash	69	stimuli_target_trianglerectangles.svg	stimuli_distractor_trianglediamonds.svg	17	yes	53	1	973	0	0			0	0			1				0	
6.6.1	win	2023-06-02	05:16:07	05:20:30	259250	60b8198defba8da1d95a93b8	3	1	main_slash	7	advance_on_keypress_SLASH	70	stimuli_target_trianglerectangles.svg	stimuli_distractor_trianglediamonds.svg	17	yes	57	0	558	0	0			0	0			1				0	
6.6.1	win	2023-06-02	05:16:07	05:20:32	261515	60b8198defba8da1d95a93b8	3	1	main_slash	7	main_slash	71	stimuli_target_rectangletriangles.svg	stimuli_distractor_diamondtriangles.svg	5	yes	53	1	1074	0	0			0	0			1				0	
6.6.1	win	2023-06-02	05:16:07	05:20:32	261515	60b8198defba8da1d95a93b8	3	1	main_slash	7	advance_on_keypress_SLASH	72	stimuli_target_rectangletriangles.svg	stimuli_distractor_diamondtriangles.svg	5	yes	57	0	615	0	0			0	0			1				0	
6.6.1	win	2023-06-02	05:16:07	05:20:34	263847	60b8198defba8da1d95a93b8	3	1	main_slash	7	main_slash	73	stimuli_target_rectanglediamonds.svg	stimuli_distractor_diamondtriangles.svg	6	yes	53	1	1074	0	0			0	0			1				0	
6.6.1	win	2023-06-02	05:16:07	05:20:34	263847	60b8198defba8da1d95a93b8	3	1	main_slash	7	advance_on_keypress_SLASH	74	stimuli_target_rectanglediamonds.svg	stimuli_distractor_diamondtriangles.svg	6	yes	57	0	535	0	0			0	0			1				0	
6.6.1	win	2023-06-02	05:16:07	05:20:38	267020	60b8198defba8da1d95a93b8	3	1	main_slash	7	main_slash	75	stimuli_distractor_diamondtriangles.svg	stimuli_distractor_diamondtriangles.svg	39	no	0	1	2000	0	0			0	0			1				0	
6.6.1	win	2023-06-02	05:16:07	05:20:38	267020	60b8198defba8da1d95a93b8	3	1	main_slash	7	advance_on_keypress_SLASH	76	stimuli_distractor_diamondtriangles.svg	stimuli_distractor_diamondtriangles.svg	39	no	57	0	615	0	0			0	0			1				0	
6.6.1	win	2023-06-02	05:16:07	05:20:40	269387	60b8198defba8da1d95a93b8	3	1	main_slash	7	main_slash	77	stimuli_distractor_trianglediamonds.svg	stimuli_distractor_diamondtriangles.svg	36	no	53	0	1104	0	0			0	0			1				0	
6.6.1	win	2023-06-02	05:16:07	05:20:40	269387	60b8198defba8da1d95a93b8	3	1	main_slash	7	advance_on_keypress_SLASH	78	stimuli_distractor_trianglediamonds.svg	stimuli_distractor_diamondtriangles.svg	36	no	57	0	512	0	0			0	0			1				0	
6.6.1	win	2023-06-02	05:16:07	05:20:42	271477	60b8198defba8da1d95a93b8	3	1	main_slash	7	main_slash	79	stimuli_target_rectangletriangles.svg	stimuli_distractor_trianglediamonds.svg	1	yes	53	1	929	0	0			0	0			1				0	
6.6.1	win	2023-06-02	05:16:07	05:20:42	271477	60b8198defba8da1d95a93b8	3	1	main_slash	7	advance_on_keypress_SLASH	80	stimuli_target_rectangletriangles.svg	stimuli_distractor_trianglediamonds.svg	1	yes	57	0	488	0	0			0	0			1				0	
6.6.1	win	2023-06-02	05:16:07	05:20:44	273543	60b8198defba8da1d95a93b8	3	1	main_slash	7	main_slash	81	stimuli_target_rectanglediamonds.svg	stimuli_distractor_trianglediamonds.svg	2	yes	53	1	931	0	0			0	0			1				0	
6.6.1	win	2023-06-02	05:16:07	05:20:44	273543	60b8198defba8da1d95a93b8	3	1	main_slash	7	advance_on_keypress_SLASH	82	stimuli_target_rectanglediamonds.svg	stimuli_distractor_trianglediamonds.svg	2	yes	57	0	518	0	0			0	0			1				0	
6.6.1	win	2023-06-02	05:16:07	05:20:46	275587	60b8198defba8da1d95a93b8	3	1	main_slash	7	main_slash	83	stimuli_target_diamondrectangles.svg	stimuli_distractor_trianglediamonds.svg	19	yes	53	1	877	0	0			0	0			1				0	
6.6.1	win	2023-06-02	05:16:07	05:20:46	275587	60b8198defba8da1d95a93b8	3	1	main_slash	7	advance_on_keypress_SLASH	84	stimuli_target_diamondrectangles.svg	stimuli_distractor_trianglediamonds.svg	19	yes	57	0	503	0	0			0	0			1				0	
6.6.1	win	2023-06-02	05:16:07	05:20:48	277808	60b8198defba8da1d95a93b8	3	1	main_slash	7	main_slash	85	stimuli_distractor_trianglediamonds.svg	stimuli_target_squarediamonds.svg	12	yes	53	1	1083	0	0			0	0			1				0	
6.6.1	win	2023-06-02	05:16:07	05:20:48	277808	60b8198defba8da1d95a93b8	3	1	main_slash	7	advance_on_keypress_SLASH	86	stimuli_distractor_trianglediamonds.svg	stimuli_target_squarediamonds.svg	12	yes	57	0	593	0	0			0	0			1				0	
6.6.1	win	2023-06-02	05:16:07	05:20:51	280164	60b8198defba8da1d95a93b8	3	1	main_slash	7	main_slash	87	stimuli_target_trianglerectangles.svg	stimuli_distractor_diamondtriangles.svg	21	yes	53	1	1125	0	0			0	0			1				0	
6.6.1	win	2023-06-02	05:16:07	05:20:51	280164	60b8198defba8da1d95a93b8	3	1	main_slash	7	advance_on_keypress_SLASH	88	stimuli_target_trianglerectangles.svg	stimuli_distractor_diamondtriangles.svg	21	yes	57	0	597	0	0			0	0			1				0	
6.6.1	win	2023-06-02	05:16:07	05:20:53	282374	60b8198defba8da1d95a93b8	3	1	main_slash	7	main_slash	89	stimuli_distractor_trianglediamonds.svg	stimuli_target_diamondsquares.svg	28	yes	53	1	970	0	0			0	0			1				0	
6.6.1	win	2023-06-02	05:16:07	05:20:53	282374	60b8198defba8da1d95a93b8	3	1	main_slash	7	advance_on_keypress_SLASH	90	stimuli_distractor_trianglediamonds.svg	stimuli_target_diamondsquares.svg	28	yes	57	0	452	0	0			0	0			1				0	
6.6.1	win	2023-06-02	05:16:07	05:20:56	285468	60b8198defba8da1d95a93b8	3	1	main_slash	7	main_slash	91	stimuli_distractor_trianglediamonds.svg	stimuli_distractor_trianglediamonds.svg	34	no	0	1	2000	0	0			0	0			1				0	
6.6.1	win	2023-06-02	05:16:07	05:20:56	285468	60b8198defba8da1d95a93b8	3	1	main_slash	7	advance_on_keypress_SLASH	92	stimuli_distractor_trianglediamonds.svg	stimuli_distractor_trianglediamonds.svg	34	no	57	0	469	0	0			0	0			1				0	
6.6.1	win	2023-06-02	05:16:07	05:20:58	287519	60b8198defba8da1d95a93b8	3	1	main_slash	7	main_slash	93	stimuli_distractor_trianglediamonds.svg	stimuli_target_squaretriangles.svg	11	yes	53	1	937	0	0			0	0			1				0	
6.6.1	win	2023-06-02	05:16:07	05:20:58	287519	60b8198defba8da1d95a93b8	3	1	main_slash	7	advance_on_keypress_SLASH	94	stimuli_distractor_trianglediamonds.svg	stimuli_target_squaretriangles.svg	11	yes	57	0	385	0	0			0	0			1				0	
6.6.1	win	2023-06-02	05:16:07	05:21:00	289498	60b8198defba8da1d95a93b8	3	1	main_slash	7	main_slash	95	stimuli_target_squarediamonds.svg	stimuli_distractor_diamondtriangles.svg	8	yes	53	1	951	0	0			0	0			1				0	
6.6.1	win	2023-06-02	05:16:07	05:21:00	289498	60b8198defba8da1d95a93b8	3	1	main_slash	7	advance_on_keypress_SLASH	96	stimuli_target_squarediamonds.svg	stimuli_distractor_diamondtriangles.svg	8	yes	57	0	443	0	0			0	0			1				0	
6.6.1	win	2023-06-02	05:16:07	05:21:02	291644	60b8198defba8da1d95a93b8	3	1	main_slash	7	main_slash	97	stimuli_distractor_diamondtriangles.svg	stimuli_target_squarediamonds.svg	16	yes	53	1	1065	0	0			0	0			1				0	
6.6.1	win	2023-06-02	05:16:07	05:21:02	291644	60b8198defba8da1d95a93b8	3	1	main_slash	7	advance_on_keypress_SLASH	98	stimuli_distractor_diamondtriangles.svg	stimuli_target_squarediamonds.svg	16	yes	57	0	552	0	0			0	0			1				0	
6.6.1	win	2023-06-02	05:16:07	05:21:04	293895	60b8198defba8da1d95a93b8	3	1	main_slash	7	main_slash	99	stimuli_distractor_diamondtriangles.svg	stimuli_target_squaretriangles.svg	15	yes	53	1	1053	0	0			0	0			1				0	
6.6.1	win	2023-06-02	05:16:07	05:21:04	293895	60b8198defba8da1d95a93b8	3	1	main_slash	7	advance_on_keypress_SLASH	100	stimuli_distractor_diamondtriangles.svg	stimuli_target_squaretriangles.svg	15	yes	57	0	555	0	0			0	0			1				0	
6.6.1	win	2023-06-02	05:16:07	05:21:07	296111	60b8198defba8da1d95a93b8	3	1	main_slash	7	main_slash	101	stimuli_target_squarediamonds.svg	stimuli_distractor_trianglediamonds.svg	4	yes	53	1	1021	0	0			0	0			1				0	
6.6.1	win	2023-06-02	05:16:07	05:21:07	296111	60b8198defba8da1d95a93b8	3	1	main_slash	7	advance_on_keypress_SLASH	102	stimuli_target_squarediamonds.svg	stimuli_distractor_trianglediamonds.svg	4	yes	57	0	575	0	0			0	0			1				0	
6.6.1	win	2023-06-02	05:16:07	05:21:09	298441	60b8198defba8da1d95a93b8	3	1	main_slash	7	main_slash	103	stimuli_distractor_trianglediamonds.svg	stimuli_target_rectangletriangles.svg	9	yes	53	1	1120	0	0			0	0			1				0	
6.6.1	win	2023-06-02	05:16:07	05:21:09	298441	60b8198defba8da1d95a93b8	3	1	main_slash	7	advance_on_keypress_SLASH	104	stimuli_distractor_trianglediamonds.svg	stimuli_target_rectangletriangles.svg	9	yes	57	0	565	0	0			0	0			1				0	
6.6.1	win	2023-06-02	05:16:07	05:21:11	300627	60b8198defba8da1d95a93b8	3	1	main_slash	7	main_slash	105	stimuli_distractor_diamondtriangles.svg	stimuli_target_trianglesquares.svg	30	yes	53	1	974	0	0			0	0			1				0	
6.6.1	win	2023-06-02	05:16:07	05:21:11	300627	60b8198defba8da1d95a93b8	3	1	main_slash	7	advance_on_keypress_SLASH	106	stimuli_distractor_diamondtriangles.svg	stimuli_target_trianglesquares.svg	30	yes	57	0	454	0	0			0	0			1				0	
6.6.1	win	2023-06-02	05:16:07	05:21:14	303022	60b8198defba8da1d95a93b8	3	1	main_slash	7	main_slash	107	stimuli_target_rectangletriangles.svg	stimuli_distractor_diamondtriangles.svg	5	yes	53	1	1305	0	0			0	0			1				0	
6.6.1	win	2023-06-02	05:16:07	05:21:14	303022	60b8198defba8da1d95a93b8	3	1	main_slash	7	advance_on_keypress_SLASH	108	stimuli_target_rectangletriangles.svg	stimuli_distractor_diamondtriangles.svg	5	yes	57	0	538	0	0			0	0			1				0	
6.6.1	win	2023-06-02	05:16:07	05:21:16	305072	60b8198defba8da1d95a93b8	3	1	main_slash	7	main_slash	109	stimuli_distractor_trianglediamonds.svg	stimuli_target_diamondrectangles.svg	27	yes	53	1	874	0	0			0	0			1				0	
6.6.1	win	2023-06-02	05:16:07	05:21:16	305072	60b8198defba8da1d95a93b8	3	1	main_slash	7	advance_on_keypress_SLASH	110	stimuli_distractor_trianglediamonds.svg	stimuli_target_diamondrectangles.svg	27	yes	57	0	479	0	0			0	0			1				0	
6.6.1	win	2023-06-02	05:16:07	05:21:18	306962	60b8198defba8da1d95a93b8	3	1	main_slash	7	main_slash	111	stimuli_distractor_diamondtriangles.svg	stimuli_target_rectanglediamonds.svg	14	yes	53	1	766	0	0			0	0			1				0	
6.6.1	win	2023-06-02	05:16:07	05:21:18	306962	60b8198defba8da1d95a93b8	3	1	main_slash	7	advance_on_keypress_SLASH	112	stimuli_distractor_diamondtriangles.svg	stimuli_target_rectanglediamonds.svg	14	yes	57	0	400	0	0			0	0			1				0	
6.6.1	win	2023-06-02	05:16:07	05:21:19	308624	60b8198defba8da1d95a93b8	3	1	main_slash	7	main_slash	113	stimuli_target_trianglerectangles.svg	stimuli_distractor_trianglediamonds.svg	17	yes	53	1	613	0	0			0	0			1				0	
6.6.1	win	2023-06-02	05:16:07	05:21:19	308624	60b8198defba8da1d95a93b8	3	1	main_slash	7	advance_on_keypress_SLASH	114	stimuli_target_trianglerectangles.svg	stimuli_distractor_trianglediamonds.svg	17	yes	57	0	387	0	0			0	0			1				0	
6.6.1	win	2023-06-02	05:16:07	05:21:21	310372	60b8198defba8da1d95a93b8	3	1	main_slash	7	main_slash	115	stimuli_distractor_diamondtriangles.svg	stimuli_target_diamondrectangles.svg	31	yes	53	1	713	0	0			0	0			1				0	
6.6.1	win	2023-06-02	05:16:07	05:21:21	310372	60b8198defba8da1d95a93b8	3	1	main_slash	7	advance_on_keypress_SLASH	116	stimuli_distractor_diamondtriangles.svg	stimuli_target_diamondrectangles.svg	31	yes	57	0	371	0	0			0	0			1				0	
6.6.1	win	2023-06-02	05:16:07	05:21:23	312331	60b8198defba8da1d95a93b8	3	1	main_slash	7	main_slash	117	stimuli_target_trianglesquares.svg	stimuli_distractor_trianglediamonds.svg	18	yes	53	1	940	0	0			0	0			1				0	
6.6.1	win	2023-06-02	05:16:07	05:21:23	312331	60b8198defba8da1d95a93b8	3	1	main_slash	7	advance_on_keypress_SLASH	118	stimuli_target_trianglesquares.svg	stimuli_distractor_trianglediamonds.svg	18	yes	57	0	429	0	0			0	0			1				0	
6.6.1	win	2023-06-02	05:16:07	05:21:26	315406	60b8198defba8da1d95a93b8	3	1	main_slash	7	main_slash	119	stimuli_distractor_diamondtriangles.svg	stimuli_distractor_diamondtriangles.svg	39	no	0	1	2000	0	0			0	0			1				0	
6.6.1	win	2023-06-02	05:16:07	05:21:26	315406	60b8198defba8da1d95a93b8	3	1	main_slash	7	advance_on_keypress_SLASH	120	stimuli_distractor_diamondtriangles.svg	stimuli_distractor_diamondtriangles.svg	39	no	57	0	509	0	0			0	0			1				0	
6.6.1	win	2023-06-02	05:16:07	05:21:28	317475	60b8198defba8da1d95a93b8	3	1	main_slash	7	main_slash	121	stimuli_distractor_trianglediamonds.svg	stimuli_target_trianglesquares.svg	26	yes	53	1	922	0	0			0	0			1				0	
6.6.1	win	2023-06-02	05:16:07	05:21:28	317475	60b8198defba8da1d95a93b8	3	1	main_slash	7	advance_on_keypress_SLASH	122	stimuli_distractor_trianglediamonds.svg	stimuli_target_trianglesquares.svg	26	yes	57	0	363	0	0			0	0			1				0	
6.6.1	win	2023-06-02	05:16:07	05:21:31	320484	60b8198defba8da1d95a93b8	3	1	main_slash	7	main_slash	123	stimuli_distractor_trianglediamonds.svg	stimuli_distractor_trianglediamonds.svg	33	no	0	1	2000	0	0			0	0			1				0	
6.6.1	win	2023-06-02	05:16:07	05:21:31	320484	60b8198defba8da1d95a93b8	3	1	main_slash	7	advance_on_keypress_SLASH	124	stimuli_distractor_trianglediamonds.svg	stimuli_distractor_trianglediamonds.svg	33	no	57	0	480	0	0			0	0			1				0	
6.6.1	win	2023-06-02	05:16:07	05:21:33	322363	60b8198defba8da1d95a93b8	3	1	main_slash	7	main_slash	125	stimuli_distractor_diamondtriangles.svg	stimuli_target_diamondsquares.svg	32	yes	53	1	749	0	0			0	0			1				0	
6.6.1	win	2023-06-02	05:16:07	05:21:33	322363	60b8198defba8da1d95a93b8	3	1	main_slash	7	advance_on_keypress_SLASH	126	stimuli_distractor_diamondtriangles.svg	stimuli_target_diamondsquares.svg	32	yes	57	0	361	0	0			0	0			1				0	
6.6.1	win	2023-06-02	05:16:07	05:21:35	324141	60b8198defba8da1d95a93b8	3	1	main_slash	7	main_slash	127	stimuli_distractor_diamondtriangles.svg	stimuli_distractor_trianglediamonds.svg	37	no	53	0	779	0	0			0	0			1				0	
6.6.1	win	2023-06-02	05:16:07	05:21:35	324141	60b8198defba8da1d95a93b8	3	1	main_slash	7	advance_on_keypress_SLASH	128	stimuli_distractor_diamondtriangles.svg	stimuli_distractor_trianglediamonds.svg	37	no	57	0	378	0	0			0	0			1				0	
6.6.1	win	2023-06-02	05:16:07	05:21:37	326026	60b8198defba8da1d95a93b8	3	1	main_slash	7	main_slash	129	stimuli_distractor_trianglediamonds.svg	stimuli_target_trianglerectangles.svg	25	yes	53	1	865	0	0			0	0			1				0	
6.6.1	win	2023-06-02	05:16:07	05:21:37	326026	60b8198defba8da1d95a93b8	3	1	main_slash	7	advance_on_keypress_SLASH	130	stimuli_distractor_trianglediamonds.svg	stimuli_target_trianglerectangles.svg	25	yes	57	0	414	0	0			0	0			1				0	
6.6.1	win	2023-06-02	05:16:07	05:21:39	328135	60b8198defba8da1d95a93b8	3	1	main_slash	7	main_slash	131	stimuli_distractor_diamondtriangles.svg	stimuli_distractor_trianglediamonds.svg	38	no	53	0	1043	0	0			0	0			1				0	
6.6.1	win	2023-06-02	05:16:07	05:21:39	328135	60b8198defba8da1d95a93b8	3	1	main_slash	7	advance_on_keypress_SLASH	132	stimuli_distractor_diamondtriangles.svg	stimuli_distractor_trianglediamonds.svg	38	no	57	0	443	0	0			0	0			1				0	
6.6.1	win	2023-06-02	05:16:07	05:21:41	330129	60b8198defba8da1d95a93b8	3	1	main_slash	7	main_slash	133	stimuli_target_trianglesquares.svg	stimuli_distractor_diamondtriangles.svg	22	yes	53	1	922	0	0			0	0			1				0	
6.6.1	win	2023-06-02	05:16:07	05:21:41	330129	60b8198defba8da1d95a93b8	3	1	main_slash	7	advance_on_keypress_SLASH	134	stimuli_target_trianglesquares.svg	stimuli_distractor_diamondtriangles.svg	22	yes	57	0	383	0	0			0	0			1				0	
6.6.1	win	2023-06-02	05:16:07	05:21:44	333155	60b8198defba8da1d95a93b8	3	1	main_slash	7	main_slash	135	stimuli_distractor_trianglediamonds.svg	stimuli_distractor_diamondtriangles.svg	36	no	0	1	2000	0	0			0	0			1				0	
6.6.1	win	2023-06-02	05:16:07	05:21:44	333155	60b8198defba8da1d95a93b8	3	1	main_slash	7	advance_on_keypress_SLASH	136	stimuli_distractor_trianglediamonds.svg	stimuli_distractor_diamondtriangles.svg	36	no	57	0	668	0	0			0	0			1				0	
6.6.1	win	2023-06-02	05:16:07	05:21:47	336468	60b8198defba8da1d95a93b8	3	1	main_slash	7	main_slash	137	stimuli_distractor_trianglediamonds.svg	stimuli_distractor_diamondtriangles.svg	35	no	0	1	2000	0	0			0	0			1				0	
6.6.1	win	2023-06-02	05:16:07	05:21:47	336468	60b8198defba8da1d95a93b8	3	1	main_slash	7	advance_on_keypress_SLASH	138	stimuli_distractor_trianglediamonds.svg	stimuli_distractor_diamondtriangles.svg	35	no	57	0	303	0	0			0	0			1				0	
6.6.1	win	2023-06-02	05:16:07	05:21:49	338167	60b8198defba8da1d95a93b8	3	1	main_slash	7	main_slash	139	stimuli_target_diamondsquares.svg	stimuli_distractor_diamondtriangles.svg	24	yes	53	1	752	0	0			0	0			1				0	
6.6.1	win	2023-06-02	05:16:07	05:21:49	338167	60b8198defba8da1d95a93b8	3	1	main_slash	7	advance_on_keypress_SLASH	140	stimuli_target_diamondsquares.svg	stimuli_distractor_diamondtriangles.svg	24	yes	57	0	363	0	0			0	0			1				0	
6.6.1	win	2023-06-02	05:16:07	05:21:51	339966	60b8198defba8da1d95a93b8	3	1	main_slash	7	main_slash	141	stimuli_target_diamondsquares.svg	stimuli_distractor_trianglediamonds.svg	20	yes	53	1	785	0	0			0	0			1				0	
6.6.1	win	2023-06-02	05:16:07	05:21:51	339966	60b8198defba8da1d95a93b8	3	1	main_slash	7	advance_on_keypress_SLASH	142	stimuli_target_diamondsquares.svg	stimuli_distractor_trianglediamonds.svg	20	yes	57	0	353	0	0			0	0			1				0	
6.6.1	win	2023-06-02	05:16:07	05:21:53	342076	60b8198defba8da1d95a93b8	3	1	main_slash	7	main_slash	143	stimuli_target_squaretriangles.svg	stimuli_distractor_diamondtriangles.svg	7	yes	53	1	1114	0	0			0	0			1				0	
6.6.1	win	2023-06-02	05:16:07	05:21:53	342076	60b8198defba8da1d95a93b8	3	1	main_slash	7	advance_on_keypress_SLASH	144	stimuli_target_squaretriangles.svg	stimuli_distractor_diamondtriangles.svg	7	yes	57	0	380	0	0			0	0			1				0	
6.6.1	win	2023-06-02	05:16:07	05:21:55	344081	60b8198defba8da1d95a93b8	3	1	main_slash	7	main_slash	145	stimuli_distractor_trianglediamonds.svg	stimuli_target_rectanglediamonds.svg	10	yes	53	1	971	0	0			0	0			1				0	
6.6.1	win	2023-06-02	05:16:07	05:21:55	344081	60b8198defba8da1d95a93b8	3	1	main_slash	7	advance_on_keypress_SLASH	146	stimuli_distractor_trianglediamonds.svg	stimuli_target_rectanglediamonds.svg	10	yes	57	0	356	0	0			0	0			1				0	
6.6.1	win	2023-06-02	05:16:07	05:21:57	346240	60b8198defba8da1d95a93b8	3	1	main_slash	7	main_slash	147	stimuli_target_diamondrectangles.svg	stimuli_distractor_diamondtriangles.svg	23	yes	53	1	1166	0	0			0	0			1				0	
6.6.1	win	2023-06-02	05:16:07	05:21:57	346240	60b8198defba8da1d95a93b8	3	1	main_slash	7	advance_on_keypress_SLASH	148	stimuli_target_diamondrectangles.svg	stimuli_distractor_diamondtriangles.svg	23	yes	57	0	420	0	0			0	0			1				0	
6.6.1	win	2023-06-02	05:16:07	05:21:59	348249	60b8198defba8da1d95a93b8	3	1	main_slash	7	main_slash	149	stimuli_distractor_diamondtriangles.svg	stimuli_target_trianglerectangles.svg	29	yes	53	1	943	0	0			0	0			1				0	
6.6.1	win	2023-06-02	05:16:07	05:21:59	348249	60b8198defba8da1d95a93b8	3	1	main_slash	7	advance_on_keypress_SLASH	150	stimuli_distractor_diamondtriangles.svg	stimuli_target_trianglerectangles.svg	29	yes	57	0	344	0	0			0	0			1				0	
6.6.1	win	2023-06-02	05:16:07	05:22:02	351237	60b8198defba8da1d95a93b8	3	1	main_slash	7	main_slash	151	stimuli_distractor_diamondtriangles.svg	stimuli_distractor_diamondtriangles.svg	40	no	0	1	2000	0	0			0	0			1				0	
6.6.1	win	2023-06-02	05:16:07	05:22:02	351237	60b8198defba8da1d95a93b8	3	1	main_slash	7	advance_on_keypress_SLASH	152	stimuli_distractor_diamondtriangles.svg	stimuli_distractor_diamondtriangles.svg	40	no	57	0	263	0	0			0	0			1				0	
6.6.1	win	2023-06-02	05:16:07	05:22:04	352926	60b8198defba8da1d95a93b8	3	1	main_slash	7	main_slash	153	stimuli_target_squaretriangles.svg	stimuli_distractor_trianglediamonds.svg	3	yes	53	1	775	0	0			0	0			1				0	
6.6.1	win	2023-06-02	05:16:07	05:22:04	352926	60b8198defba8da1d95a93b8	3	1	main_slash	7	advance_on_keypress_SLASH	154	stimuli_target_squaretriangles.svg	stimuli_distractor_trianglediamonds.svg	3	yes	57	0	450	0	0			0	0			1				0	
6.6.1	win	2023-06-02	05:16:07	05:22:06	354905	60b8198defba8da1d95a93b8	3	1	main_slash	7	main_slash	155	stimuli_target_rectanglediamonds.svg	stimuli_distractor_diamondtriangles.svg	6	yes	53	1	889	0	0			0	0			1				0	
6.6.1	win	2023-06-02	05:16:07	05:22:06	354905	60b8198defba8da1d95a93b8	3	1	main_slash	7	advance_on_keypress_SLASH	156	stimuli_target_rectanglediamonds.svg	stimuli_distractor_diamondtriangles.svg	6	yes	57	0	348	0	0			0	0			1				0	
6.6.1	win	2023-06-02	05:16:07	05:22:08	356995	60b8198defba8da1d95a93b8	3	1	main_slash	7	main_slash	157	stimuli_target_rectangletriangles.svg	stimuli_distractor_trianglediamonds.svg	1	yes	53	1	1098	0	0			0	0			1				0	
6.6.1	win	2023-06-02	05:16:07	05:22:08	356995	60b8198defba8da1d95a93b8	3	1	main_slash	7	advance_on_keypress_SLASH	158	stimuli_target_rectangletriangles.svg	stimuli_distractor_trianglediamonds.svg	1	yes	57	0	379	0	0			0	0			1				0	
6.6.1	win	2023-06-02	05:16:07	05:22:10	359152	60b8198defba8da1d95a93b8	3	1	main_slash	7	main_slash	159	stimuli_distractor_diamondtriangles.svg	stimuli_target_rectangletriangles.svg	13	yes	53	1	1122	0	0			0	0			1				0	
6.6.1	win	2023-06-02	05:16:07	05:22:10	359152	60b8198defba8da1d95a93b8	3	1	main_slash	7	advance_on_keypress_SLASH	160	stimuli_distractor_diamondtriangles.svg	stimuli_target_rectangletriangles.svg	13	yes	57	0	482	0	0			0	0			1				0	
6.6.1	win	2023-06-02	05:16:07	05:22:29	378103	60b8198defba8da1d95a93b8	3	1	practice_z	9	practice_z	1	stimuli_distractor_trianglediamonds.svg	stimuli_target_diamondrectangles.svg	12	yes	44	1	439	0	0			0	0			1				0	
6.6.1	win	2023-06-02	05:16:07	05:22:29	378103	60b8198defba8da1d95a93b8	3	1	practice_z	9	advance_on_keypress_ZEE	2	stimuli_distractor_trianglediamonds.svg	stimuli_target_diamondrectangles.svg	12	yes	57	0	1119	0	0			0	0			1				0	
6.6.1	win	2023-06-02	05:16:07	05:22:32	381462	60b8198defba8da1d95a93b8	3	1	practice_z	9	practice_z	3	stimuli_distractor_diamondtriangles.svg	stimuli_target_diamondrectangles.svg	8	yes	44	1	585	0	0			0	0			1				0	
6.6.1	win	2023-06-02	05:16:07	05:22:32	381462	60b8198defba8da1d95a93b8	3	1	practice_z	9	advance_on_keypress_ZEE	4	stimuli_distractor_diamondtriangles.svg	stimuli_target_diamondrectangles.svg	8	yes	57	0	504	0	0			0	0			1				0	
6.6.1	win	2023-06-02	05:16:07	05:22:35	384321	60b8198defba8da1d95a93b8	3	1	practice_z	9	practice_z	5	stimuli_target_diamondsquares.svg	stimuli_distractor_trianglediamonds.svg	6	yes	44	1	714	0	0			0	0			1				0	
6.6.1	win	2023-06-02	05:16:07	05:22:35	384321	60b8198defba8da1d95a93b8	3	1	practice_z	9	advance_on_keypress_ZEE	6	stimuli_target_diamondsquares.svg	stimuli_distractor_trianglediamonds.svg	6	yes	57	0	508	0	0			0	0			1				0	
6.6.1	win	2023-06-02	05:16:07	05:22:38	387315	60b8198defba8da1d95a93b8	3	1	practice_z	9	practice_z	7	stimuli_target_squarediamonds.svg	stimuli_distractor_diamondtriangles.svg	2	yes	44	1	845	0	0			0	0			1				0	
6.6.1	win	2023-06-02	05:16:07	05:22:38	387315	60b8198defba8da1d95a93b8	3	1	practice_z	9	advance_on_keypress_ZEE	8	stimuli_target_squarediamonds.svg	stimuli_distractor_diamondtriangles.svg	2	yes	57	0	150	0	0			0	0			1				0	
6.6.1	win	2023-06-02	05:16:07	05:22:40	389499	60b8198defba8da1d95a93b8	3	1	practice_z	9	practice_z	9	stimuli_target_rectanglediamonds.svg	stimuli_distractor_diamondtriangles.svg	1	yes	44	1	370	0	0			0	0			1				0	
6.6.1	win	2023-06-02	05:16:07	05:22:40	389499	60b8198defba8da1d95a93b8	3	1	practice_z	9	advance_on_keypress_ZEE	10	stimuli_target_rectanglediamonds.svg	stimuli_distractor_diamondtriangles.svg	1	yes	57	0	288	0	0			0	0			1				0	
6.6.1	win	2023-06-02	05:16:07	05:22:43	392182	60b8198defba8da1d95a93b8	3	1	practice_z	9	practice_z	11	stimuli_distractor_diamondtriangles.svg	stimuli_target_rectangletriangles.svg	7	yes	44	1	750	0	0			0	0			1				0	
6.6.1	win	2023-06-02	05:16:07	05:22:43	392182	60b8198defba8da1d95a93b8	3	1	practice_z	9	advance_on_keypress_ZEE	12	stimuli_distractor_diamondtriangles.svg	stimuli_target_rectangletriangles.svg	7	yes	57	0	352	0	0			0	0			1				0	
6.6.1	win	2023-06-02	05:16:07	05:22:46	394925	60b8198defba8da1d95a93b8	3	1	practice_z	9	practice_z	13	stimuli_distractor_trianglediamonds.svg	stimuli_target_squarediamonds.svg	11	yes	44	1	745	0	0			0	0			1				0	
6.6.1	win	2023-06-02	05:16:07	05:22:46	394925	60b8198defba8da1d95a93b8	3	1	practice_z	9	advance_on_keypress_ZEE	14	stimuli_distractor_trianglediamonds.svg	stimuli_target_squarediamonds.svg	11	yes	57	0	261	0	0			0	0			1				0	
6.6.1	win	2023-06-02	05:16:07	05:22:49	398844	60b8198defba8da1d95a93b8	3	1	practice_z	9	practice_z	15	stimuli_distractor_trianglediamonds.svg	stimuli_distractor_diamondtriangles.svg	16	no	0	1	2000	0	0			0	0			1				0	
6.6.1	win	2023-06-02	05:16:07	05:22:49	398844	60b8198defba8da1d95a93b8	3	1	practice_z	9	advance_on_keypress_ZEE	16	stimuli_distractor_trianglediamonds.svg	stimuli_distractor_diamondtriangles.svg	16	no	57	0	603	0	0			0	0			1				0	
6.6.1	win	2023-06-02	05:16:07	05:22:53	401972	60b8198defba8da1d95a93b8	3	1	practice_z	9	practice_z	17	stimuli_distractor_diamondtriangles.svg	stimuli_distractor_trianglediamonds.svg	14	no	44	0	882	0	0			0	0			1				0	
6.6.1	win	2023-06-02	05:16:07	05:22:53	401972	60b8198defba8da1d95a93b8	3	1	practice_z	9	advance_on_keypress_ZEE	18	stimuli_distractor_diamondtriangles.svg	stimuli_distractor_trianglediamonds.svg	14	no	57	0	748	0	0			0	0			1				0	
6.6.1	win	2023-06-02	05:16:07	05:22:57	406371	60b8198defba8da1d95a93b8	3	1	practice_z	9	practice_z	19	stimuli_distractor_trianglediamonds.svg	stimuli_distractor_trianglediamonds.svg	15	no	0	1	2000	0	0			0	0			1				0	
6.6.1	win	2023-06-02	05:16:07	05:22:57	406371	60b8198defba8da1d95a93b8	3	1	practice_z	9	advance_on_keypress_ZEE	20	stimuli_distractor_trianglediamonds.svg	stimuli_distractor_trianglediamonds.svg	15	no	57	0	493	0	0			0	0			1				0	
6.6.1	win	2023-06-02	05:16:07	05:23:00	409136	60b8198defba8da1d95a93b8	3	1	practice_z	9	practice_z	21	stimuli_target_diamondsquares.svg	stimuli_distractor_diamondtriangles.svg	3	yes	44	1	636	0	0			0	0			1				0	
6.6.1	win	2023-06-02	05:16:07	05:23:00	409136	60b8198defba8da1d95a93b8	3	1	practice_z	9	advance_on_keypress_ZEE	22	stimuli_target_diamondsquares.svg	stimuli_distractor_diamondtriangles.svg	3	yes	57	0	261	0	0			0	0			1				0	
6.6.1	win	2023-06-02	05:16:07	05:23:02	411673	60b8198defba8da1d95a93b8	3	1	practice_z	9	practice_z	23	stimuli_target_squarediamonds.svg	stimuli_distractor_trianglediamonds.svg	5	yes	44	1	642	0	0			0	0			1				0	
6.6.1	win	2023-06-02	05:16:07	05:23:02	411673	60b8198defba8da1d95a93b8	3	1	practice_z	9	advance_on_keypress_ZEE	24	stimuli_target_squarediamonds.svg	stimuli_distractor_trianglediamonds.svg	5	yes	57	0	409	0	0			0	0			1				0	
6.6.1	win	2023-06-02	05:16:07	05:23:06	415727	60b8198defba8da1d95a93b8	3	1	practice_z	9	practice_z	25	stimuli_distractor_diamondtriangles.svg	stimuli_distractor_diamondtriangles.svg	13	no	0	1	2000	0	0			0	0			1				0	
6.6.1	win	2023-06-02	05:16:07	05:23:06	415727	60b8198defba8da1d95a93b8	3	1	practice_z	9	advance_on_keypress_ZEE	26	stimuli_distractor_diamondtriangles.svg	stimuli_distractor_diamondtriangles.svg	13	no	57	0	543	0	0			0	0			1				0	
6.6.1	win	2023-06-02	05:16:07	05:23:09	418540	60b8198defba8da1d95a93b8	3	1	practice_z	9	practice_z	27	stimuli_distractor_diamondtriangles.svg	stimuli_target_trianglerectangles.svg	9	yes	44	1	633	0	0			0	0			1				0	
6.6.1	win	2023-06-02	05:16:07	05:23:09	418540	60b8198defba8da1d95a93b8	3	1	practice_z	9	advance_on_keypress_ZEE	28	stimuli_distractor_diamondtriangles.svg	stimuli_target_trianglerectangles.svg	9	yes	57	0	293	0	0			0	0			1				0	
6.6.1	win	2023-06-02	05:16:07	05:23:12	421187	60b8198defba8da1d95a93b8	3	1	practice_z	9	practice_z	29	stimuli_distractor_trianglediamonds.svg	stimuli_target_rectanglediamonds.svg	10	yes	44	1	716	0	0			0	0			1				0	
6.6.1	win	2023-06-02	05:16:07	05:23:12	421187	60b8198defba8da1d95a93b8	3	1	practice_z	9	advance_on_keypress_ZEE	30	stimuli_distractor_trianglediamonds.svg	stimuli_target_rectanglediamonds.svg	10	yes	57	0	307	0	0			0	0			1				0	
6.6.1	win	2023-06-02	05:16:07	05:23:14	423750	60b8198defba8da1d95a93b8	3	1	practice_z	9	practice_z	31	stimuli_target_rectanglediamonds.svg	stimuli_distractor_trianglediamonds.svg	4	yes	44	1	614	0	0			0	0			1				0	
6.6.1	win	2023-06-02	05:16:07	05:23:14	423750	60b8198defba8da1d95a93b8	3	1	practice_z	9	advance_on_keypress_ZEE	32	stimuli_target_rectanglediamonds.svg	stimuli_distractor_trianglediamonds.svg	4	yes	57	0	395	0	0			0	0			1				0	
6.6.1	win	2023-06-02	05:16:07	05:23:18	427279	60b8198defba8da1d95a93b8	3	1	main_z	11	main_z	1	stimuli_target_rectanglediamonds.svg	stimuli_distractor_diamondtriangles.svg	6	yes	44	1	468	0	0			0	0			1				0	
6.6.1	win	2023-06-02	05:16:07	05:23:18	427279	60b8198defba8da1d95a93b8	3	1	main_z	11	advance_on_keypress_ZEE	2	stimuli_target_rectanglediamonds.svg	stimuli_distractor_diamondtriangles.svg	6	yes	57	0	523	0	0			0	0			1				0	
6.6.1	win	2023-06-02	05:16:07	05:23:19	428865	60b8198defba8da1d95a93b8	3	1	main_z	11	main_z	3	stimuli_target_rectangletriangles.svg	stimuli_distractor_diamondtriangles.svg	5	yes	44	1	422	0	0			0	0			1				0	
6.6.1	win	2023-06-02	05:16:07	05:23:19	428865	60b8198defba8da1d95a93b8	3	1	main_z	11	advance_on_keypress_ZEE	4	stimuli_target_rectangletriangles.svg	stimuli_distractor_diamondtriangles.svg	5	yes	57	0	412	0	0			0	0			1				0	
6.6.1	win	2023-06-02	05:16:07	05:23:23	431925	60b8198defba8da1d95a93b8	3	1	main_z	11	main_z	5	stimuli_distractor_diamondtriangles.svg	stimuli_distractor_diamondtriangles.svg	40	no	0	1	2000	0	0			0	0			1				0	
6.6.1	win	2023-06-02	05:16:07	05:23:23	431925	60b8198defba8da1d95a93b8	3	1	main_z	11	advance_on_keypress_ZEE	6	stimuli_distractor_diamondtriangles.svg	stimuli_distractor_diamondtriangles.svg	40	no	57	0	554	0	0			0	0			1				0	
6.6.1	win	2023-06-02	05:16:07	05:23:24	433884	60b8198defba8da1d95a93b8	3	1	main_z	11	main_z	7	stimuli_target_diamondsquares.svg	stimuli_distractor_trianglediamonds.svg	20	yes	44	1	762	0	0			0	0			1				0	
6.6.1	win	2023-06-02	05:16:07	05:23:24	433884	60b8198defba8da1d95a93b8	3	1	main_z	11	advance_on_keypress_ZEE	8	stimuli_target_diamondsquares.svg	stimuli_distractor_trianglediamonds.svg	20	yes	57	0	397	0	0			0	0			1				0	
6.6.1	win	2023-06-02	05:16:07	05:23:26	435682	60b8198defba8da1d95a93b8	3	1	main_z	11	main_z	9	stimuli_distractor_trianglediamonds.svg	stimuli_target_diamondsquares.svg	28	yes	44	1	745	0	0			0	0			1				0	
6.6.1	win	2023-06-02	05:16:07	05:23:26	435682	60b8198defba8da1d95a93b8	3	1	main_z	11	advance_on_keypress_ZEE	10	stimuli_distractor_trianglediamonds.svg	stimuli_target_diamondsquares.svg	28	yes	57	0	362	0	0			0	0			1				0	
6.6.1	win	2023-06-02	05:16:07	05:23:28	437371	60b8198defba8da1d95a93b8	3	1	main_z	11	main_z	11	stimuli_target_diamondsquares.svg	stimuli_distractor_diamondtriangles.svg	24	yes	44	1	670	0	0			0	0			1				0	
6.6.1	win	2023-06-02	05:16:07	05:23:28	437371	60b8198defba8da1d95a93b8	3	1	main_z	11	advance_on_keypress_ZEE	12	stimuli_target_diamondsquares.svg	stimuli_distractor_diamondtriangles.svg	24	yes	57	0	324	0	0			0	0			1				0	
6.6.1	win	2023-06-02	05:16:07	05:23:30	439279	60b8198defba8da1d95a93b8	3	1	main_z	11	main_z	13	stimuli_distractor_trianglediamonds.svg	stimuli_distractor_diamondtriangles.svg	35	no	44	0	946	0	0			0	0			1				0	
6.6.1	win	2023-06-02	05:16:07	05:23:30	439279	60b8198defba8da1d95a93b8	3	1	main_z	11	advance_on_keypress_ZEE	14	stimuli_distractor_trianglediamonds.svg	stimuli_distractor_diamondtriangles.svg	35	no	57	0	444	0	0			0	0			1				0	
6.6.1	win	2023-06-02	05:16:07	05:23:32	441344	60b8198defba8da1d95a93b8	3	1	main_z	11	main_z	15	stimuli_distractor_trianglediamonds.svg	stimuli_target_trianglesquares.svg	26	yes	44	1	980	0	0			0	0			1				0	
6.6.1	win	2023-06-02	05:16:07	05:23:32	441344	60b8198defba8da1d95a93b8	3	1	main_z	11	advance_on_keypress_ZEE	16	stimuli_distractor_trianglediamonds.svg	stimuli_target_trianglesquares.svg	26	yes	57	0	549	0	0			0	0			1				0	
6.6.1	win	2023-06-02	05:16:07	05:23:34	443288	60b8198defba8da1d95a93b8	3	1	main_z	11	main_z	17	stimuli_target_rectangletriangles.svg	stimuli_distractor_trianglediamonds.svg	1	yes	44	1	742	0	0			0	0			1				0	
6.6.1	win	2023-06-02	05:16:07	05:23:34	443288	60b8198defba8da1d95a93b8	3	1	main_z	11	advance_on_keypress_ZEE	18	stimuli_target_rectangletriangles.svg	stimuli_distractor_trianglediamonds.svg	1	yes	57	0	426	0	0			0	0			1				0	
6.6.1	win	2023-06-02	05:16:07	05:23:36	444981	60b8198defba8da1d95a93b8	3	1	main_z	11	main_z	19	stimuli_distractor_trianglediamonds.svg	stimuli_target_rectanglediamonds.svg	10	yes	44	1	637	0	0			0	0			1				0	
6.6.1	win	2023-06-02	05:16:07	05:23:36	444981	60b8198defba8da1d95a93b8	3	1	main_z	11	advance_on_keypress_ZEE	20	stimuli_distractor_trianglediamonds.svg	stimuli_target_rectanglediamonds.svg	10	yes	57	0	425	0	0			0	0			1				0	
6.6.1	win	2023-06-02	05:16:07	05:23:37	446725	60b8198defba8da1d95a93b8	3	1	main_z	11	main_z	21	stimuli_target_squaretriangles.svg	stimuli_distractor_trianglediamonds.svg	3	yes	44	1	682	0	0			0	0			1				0	
6.6.1	win	2023-06-02	05:16:07	05:23:37	446725	60b8198defba8da1d95a93b8	3	1	main_z	11	advance_on_keypress_ZEE	22	stimuli_target_squaretriangles.svg	stimuli_distractor_trianglediamonds.svg	3	yes	57	0	406	0	0			0	0			1				0	
6.6.1	win	2023-06-02	05:16:07	05:23:39	448477	60b8198defba8da1d95a93b8	3	1	main_z	11	main_z	23	stimuli_target_rectanglediamonds.svg	stimuli_distractor_trianglediamonds.svg	2	yes	44	1	703	0	0			0	0			1				0	
6.6.1	win	2023-06-02	05:16:07	05:23:39	448477	60b8198defba8da1d95a93b8	3	1	main_z	11	advance_on_keypress_ZEE	24	stimuli_target_rectanglediamonds.svg	stimuli_distractor_trianglediamonds.svg	2	yes	57	0	385	0	0			0	0			1				0	
6.6.1	win	2023-06-02	05:16:07	05:23:41	450000	60b8198defba8da1d95a93b8	3	1	main_z	11	main_z	25	stimuli_target_squarediamonds.svg	stimuli_distractor_trianglediamonds.svg	4	yes	44	1	493	0	0			0	0			1				0	
6.6.1	win	2023-06-02	05:16:07	05:23:41	450000	60b8198defba8da1d95a93b8	3	1	main_z	11	advance_on_keypress_ZEE	26	stimuli_target_squarediamonds.svg	stimuli_distractor_trianglediamonds.svg	4	yes	57	0	447	0	0			0	0			1				0	
6.6.1	win	2023-06-02	05:16:07	05:23:42	451708	60b8198defba8da1d95a93b8	3	1	main_z	11	main_z	27	stimuli_target_trianglerectangles.svg	stimuli_distractor_trianglediamonds.svg	17	yes	44	1	621	0	0			0	0			1				0	
6.6.1	win	2023-06-02	05:16:07	05:23:42	451708	60b8198defba8da1d95a93b8	3	1	main_z	11	advance_on_keypress_ZEE	28	stimuli_target_trianglerectangles.svg	stimuli_distractor_trianglediamonds.svg	17	yes	57	0	401	0	0			0	0			1				0	
6.6.1	win	2023-06-02	05:16:07	05:23:44	453405	60b8198defba8da1d95a93b8	3	1	main_z	11	main_z	29	stimuli_target_squarediamonds.svg	stimuli_distractor_diamondtriangles.svg	8	yes	44	1	653	0	0			0	0			1				0	
6.6.1	win	2023-06-02	05:16:07	05:23:44	453405	60b8198defba8da1d95a93b8	3	1	main_z	11	advance_on_keypress_ZEE	30	stimuli_target_squarediamonds.svg	stimuli_distractor_diamondtriangles.svg	8	yes	57	0	394	0	0			0	0			1				0	
6.6.1	win	2023-06-02	05:16:07	05:23:46	455203	60b8198defba8da1d95a93b8	3	1	main_z	11	main_z	31	stimuli_target_trianglesquares.svg	stimuli_distractor_diamondtriangles.svg	22	yes	44	1	769	0	0			0	0			1				0	
6.6.1	win	2023-06-02	05:16:07	05:23:46	455203	60b8198defba8da1d95a93b8	3	1	main_z	11	advance_on_keypress_ZEE	32	stimuli_target_trianglesquares.svg	stimuli_distractor_diamondtriangles.svg	22	yes	57	0	380	0	0			0	0			1				0	
6.6.1	win	2023-06-02	05:16:07	05:23:48	456961	60b8198defba8da1d95a93b8	3	1	main_z	11	main_z	33	stimuli_target_trianglerectangles.svg	stimuli_distractor_diamondtriangles.svg	21	yes	44	1	729	0	0			0	0			1				0	
6.6.1	win	2023-06-02	05:16:07	05:23:48	456961	60b8198defba8da1d95a93b8	3	1	main_z	11	advance_on_keypress_ZEE	34	stimuli_target_trianglerectangles.svg	stimuli_distractor_diamondtriangles.svg	21	yes	57	0	382	0	0			0	0			1				0	
6.6.1	win	2023-06-02	05:16:07	05:23:49	458660	60b8198defba8da1d95a93b8	3	1	main_z	11	main_z	35	stimuli_distractor_diamondtriangles.svg	stimuli_target_trianglesquares.svg	30	yes	44	1	663	0	0			0	0			1				0	
6.6.1	win	2023-06-02	05:16:07	05:23:49	458660	60b8198defba8da1d95a93b8	3	1	main_z	11	advance_on_keypress_ZEE	36	stimuli_distractor_diamondtriangles.svg	stimuli_target_trianglesquares.svg	30	yes	57	0	372	0	0			0	0			1				0	
6.6.1	win	2023-06-02	05:16:07	05:23:51	460468	60b8198defba8da1d95a93b8	3	1	main_z	11	main_z	37	stimuli_distractor_trianglediamonds.svg	stimuli_target_diamondrectangles.svg	27	yes	44	1	789	0	0			0	0			1				0	
6.6.1	win	2023-06-02	05:16:07	05:23:51	460468	60b8198defba8da1d95a93b8	3	1	main_z	11	advance_on_keypress_ZEE	38	stimuli_distractor_trianglediamonds.svg	stimuli_target_diamondrectangles.svg	27	yes	57	0	386	0	0			0	0			1				0	
6.6.1	win	2023-06-02	05:16:07	05:23:53	462091	60b8198defba8da1d95a93b8	3	1	main_z	11	main_z	39	stimuli_distractor_diamondtriangles.svg	stimuli_target_rectangletriangles.svg	13	yes	44	1	597	0	0			0	0			1				0	
6.6.1	win	2023-06-02	05:16:07	05:23:53	462091	60b8198defba8da1d95a93b8	3	1	main_z	11	advance_on_keypress_ZEE	40	stimuli_distractor_diamondtriangles.svg	stimuli_target_rectangletriangles.svg	13	yes	57	0	378	0	0			0	0			1				0	
6.6.1	win	2023-06-02	05:16:07	05:23:56	465109	60b8198defba8da1d95a93b8	3	1	main_z	11	main_z	41	stimuli_distractor_trianglediamonds.svg	stimuli_distractor_diamondtriangles.svg	36	no	0	1	2000	0	0			0	0			1				0	
6.6.1	win	2023-06-02	05:16:07	05:23:56	465109	60b8198defba8da1d95a93b8	3	1	main_z	11	advance_on_keypress_ZEE	42	stimuli_distractor_trianglediamonds.svg	stimuli_distractor_diamondtriangles.svg	36	no	57	0	448	0	0			0	0			1				0	
6.6.1	win	2023-06-02	05:16:07	05:23:58	466912	60b8198defba8da1d95a93b8	3	1	main_z	11	main_z	43	stimuli_distractor_diamondtriangles.svg	stimuli_target_diamondrectangles.svg	31	yes	44	1	706	0	0			0	0			1				0	
6.6.1	win	2023-06-02	05:16:07	05:23:58	466912	60b8198defba8da1d95a93b8	3	1	main_z	11	advance_on_keypress_ZEE	44	stimuli_distractor_diamondtriangles.svg	stimuli_target_diamondrectangles.svg	31	yes	57	0	403	0	0			0	0			1				0	
6.6.1	win	2023-06-02	05:16:07	05:23:59	468540	60b8198defba8da1d95a93b8	3	1	main_z	11	main_z	45	stimuli_target_diamondrectangles.svg	stimuli_distractor_trianglediamonds.svg	19	yes	44	1	585	0	0			0	0			1				0	
6.6.1	win	2023-06-02	05:16:07	05:23:59	468540	60b8198defba8da1d95a93b8	3	1	main_z	11	advance_on_keypress_ZEE	46	stimuli_target_diamondrectangles.svg	stimuli_distractor_trianglediamonds.svg	19	yes	57	0	373	0	0			0	0			1				0	
6.6.1	win	2023-06-02	05:16:07	05:24:01	470112	60b8198defba8da1d95a93b8	3	1	main_z	11	main_z	47	stimuli_distractor_diamondtriangles.svg	stimuli_target_squarediamonds.svg	16	yes	44	1	543	0	0			0	0			1				0	
6.6.1	win	2023-06-02	05:16:07	05:24:01	470112	60b8198defba8da1d95a93b8	3	1	main_z	11	advance_on_keypress_ZEE	48	stimuli_distractor_diamondtriangles.svg	stimuli_target_squarediamonds.svg	16	yes	57	0	391	0	0			0	0			1				0	
6.6.1	win	2023-06-02	05:16:07	05:24:04	473134	60b8198defba8da1d95a93b8	3	1	main_z	11	main_z	49	stimuli_distractor_diamondtriangles.svg	stimuli_distractor_diamondtriangles.svg	39	no	0	1	2000	0	0			0	0			1				0	
6.6.1	win	2023-06-02	05:16:07	05:24:04	473134	60b8198defba8da1d95a93b8	3	1	main_z	11	advance_on_keypress_ZEE	50	stimuli_distractor_diamondtriangles.svg	stimuli_distractor_diamondtriangles.svg	39	no	57	0	526	0	0			0	0			1				0	
6.6.1	win	2023-06-02	05:16:07	05:24:06	475225	60b8198defba8da1d95a93b8	3	1	main_z	11	main_z	51	stimuli_target_trianglesquares.svg	stimuli_distractor_trianglediamonds.svg	18	yes	44	1	927	0	0			0	0			1				0	
6.6.1	win	2023-06-02	05:16:07	05:24:06	475225	60b8198defba8da1d95a93b8	3	1	main_z	11	advance_on_keypress_ZEE	52	stimuli_target_trianglesquares.svg	stimuli_distractor_trianglediamonds.svg	18	yes	57	0	416	0	0			0	0			1				0	
6.6.1	win	2023-06-02	05:16:07	05:24:08	477787	60b8198defba8da1d95a93b8	3	1	main_z	11	main_z	53	stimuli_distractor_diamondtriangles.svg	stimuli_distractor_trianglediamonds.svg	37	no	44	0	1491	0	0			0	0			1				0	
6.6.1	win	2023-06-02	05:16:07	05:24:08	477787	60b8198defba8da1d95a93b8	3	1	main_z	11	advance_on_keypress_ZEE	54	stimuli_distractor_diamondtriangles.svg	stimuli_distractor_trianglediamonds.svg	37	no	57	0	656	0	0			0	0			1				0	
6.6.1	win	2023-06-02	05:16:07	05:24:10	479692	60b8198defba8da1d95a93b8	3	1	main_z	11	main_z	55	stimuli_distractor_trianglediamonds.svg	stimuli_distractor_trianglediamonds.svg	34	no	44	0	615	0	0			0	0			1				0	
6.6.1	win	2023-06-02	05:16:07	05:24:10	479692	60b8198defba8da1d95a93b8	3	1	main_z	11	advance_on_keypress_ZEE	56	stimuli_distractor_trianglediamonds.svg	stimuli_distractor_trianglediamonds.svg	34	no	57	0	383	0	0			0	0			1				0	
6.6.1	win	2023-06-02	05:16:07	05:24:12	481717	60b8198defba8da1d95a93b8	3	1	main_z	11	main_z	57	stimuli_distractor_diamondtriangles.svg	stimuli_target_squaretriangles.svg	15	yes	44	1	992	0	0			0	0			1				0	
6.6.1	win	2023-06-02	05:16:07	05:24:12	481717	60b8198defba8da1d95a93b8	3	1	main_z	11	advance_on_keypress_ZEE	58	stimuli_distractor_diamondtriangles.svg	stimuli_target_squaretriangles.svg	15	yes	57	0	419	0	0			0	0			1				0	
6.6.1	win	2023-06-02	05:16:07	05:24:14	483644	60b8198defba8da1d95a93b8	3	1	main_z	11	main_z	59	stimuli_distractor_trianglediamonds.svg	stimuli_target_trianglerectangles.svg	25	yes	44	1	871	0	0			0	0			1				0	
6.6.1	win	2023-06-02	05:16:07	05:24:14	483644	60b8198defba8da1d95a93b8	3	1	main_z	11	advance_on_keypress_ZEE	60	stimuli_distractor_trianglediamonds.svg	stimuli_target_trianglerectangles.svg	25	yes	57	0	411	0	0			0	0			1				0	
6.6.1	win	2023-06-02	05:16:07	05:24:16	485587	60b8198defba8da1d95a93b8	3	1	main_z	11	main_z	61	stimuli_target_diamondrectangles.svg	stimuli_distractor_diamondtriangles.svg	23	yes	44	1	899	0	0			0	0			1				0	
6.6.1	win	2023-06-02	05:16:07	05:24:16	485587	60b8198defba8da1d95a93b8	3	1	main_z	11	advance_on_keypress_ZEE	62	stimuli_target_diamondrectangles.svg	stimuli_distractor_diamondtriangles.svg	23	yes	57	0	452	0	0			0	0			1				0	
6.6.1	win	2023-06-02	05:16:07	05:24:18	487587	60b8198defba8da1d95a93b8	3	1	main_z	11	main_z	63	stimuli_distractor_diamondtriangles.svg	stimuli_distractor_trianglediamonds.svg	38	no	44	0	901	0	0			0	0			1				0	
6.6.1	win	2023-06-02	05:16:07	05:24:18	487587	60b8198defba8da1d95a93b8	3	1	main_z	11	advance_on_keypress_ZEE	64	stimuli_distractor_diamondtriangles.svg	stimuli_distractor_trianglediamonds.svg	38	no	57	0	463	0	0			0	0			1				0	
6.6.1	win	2023-06-02	05:16:07	05:24:20	489718	60b8198defba8da1d95a93b8	3	1	main_z	11	main_z	65	stimuli_distractor_diamondtriangles.svg	stimuli_target_trianglerectangles.svg	29	yes	44	1	1017	0	0			0	0			1				0	
6.6.1	win	2023-06-02	05:16:07	05:24:20	489718	60b8198defba8da1d95a93b8	3	1	main_z	11	advance_on_keypress_ZEE	66	stimuli_distractor_diamondtriangles.svg	stimuli_target_trianglerectangles.svg	29	yes	57	0	416	0	0			0	0			1				0	
6.6.1	win	2023-06-02	05:16:07	05:24:22	491706	60b8198defba8da1d95a93b8	3	1	main_z	11	main_z	67	stimuli_distractor_diamondtriangles.svg	stimuli_target_diamondsquares.svg	32	yes	44	1	923	0	0			0	0			1				0	
6.6.1	win	2023-06-02	05:16:07	05:24:22	491706	60b8198defba8da1d95a93b8	3	1	main_z	11	advance_on_keypress_ZEE	68	stimuli_distractor_diamondtriangles.svg	stimuli_target_diamondsquares.svg	32	yes	57	0	439	0	0			0	0			1				0	
6.6.1	win	2023-06-02	05:16:07	05:24:24	493664	60b8198defba8da1d95a93b8	3	1	main_z	11	main_z	69	stimuli_distractor_trianglediamonds.svg	stimuli_distractor_trianglediamonds.svg	33	no	44	0	884	0	0			0	0			1				0	
6.6.1	win	2023-06-02	05:16:07	05:24:24	493664	60b8198defba8da1d95a93b8	3	1	main_z	11	advance_on_keypress_ZEE	70	stimuli_distractor_trianglediamonds.svg	stimuli_distractor_trianglediamonds.svg	33	no	57	0	393	0	0			0	0			1				0	
6.6.1	win	2023-06-02	05:16:07	05:24:26	495619	60b8198defba8da1d95a93b8	3	1	main_z	11	main_z	71	stimuli_distractor_trianglediamonds.svg	stimuli_target_rectangletriangles.svg	9	yes	44	1	924	0	0			0	0			1				0	
6.6.1	win	2023-06-02	05:16:07	05:24:26	495619	60b8198defba8da1d95a93b8	3	1	main_z	11	advance_on_keypress_ZEE	72	stimuli_distractor_trianglediamonds.svg	stimuli_target_rectangletriangles.svg	9	yes	57	0	530	0	0			0	0			1				0	
6.6.1	win	2023-06-02	05:16:07	05:24:28	497785	60b8198defba8da1d95a93b8	3	1	main_z	11	main_z	73	stimuli_distractor_trianglediamonds.svg	stimuli_target_squaretriangles.svg	11	yes	44	1	992	0	0			0	0			1				0	
6.6.1	win	2023-06-02	05:16:07	05:24:28	497785	60b8198defba8da1d95a93b8	3	1	main_z	11	advance_on_keypress_ZEE	74	stimuli_distractor_trianglediamonds.svg	stimuli_target_squaretriangles.svg	11	yes	57	0	445	0	0			0	0			1				0	
6.6.1	win	2023-06-02	05:16:07	05:24:30	499840	60b8198defba8da1d95a93b8	3	1	main_z	11	main_z	75	stimuli_distractor_diamondtriangles.svg	stimuli_target_rectanglediamonds.svg	14	yes	44	1	982	0	0			0	0			1				0	
6.6.1	win	2023-06-02	05:16:07	05:24:30	499840	60b8198defba8da1d95a93b8	3	1	main_z	11	advance_on_keypress_ZEE	76	stimuli_distractor_diamondtriangles.svg	stimuli_target_rectanglediamonds.svg	14	yes	57	0	434	0	0			0	0			1				0	
6.6.1	win	2023-06-02	05:16:07	05:24:33	502098	60b8198defba8da1d95a93b8	3	1	main_z	11	main_z	77	stimuli_distractor_trianglediamonds.svg	stimuli_target_squarediamonds.svg	12	yes	44	1	1176	0	0			0	0			1				0	
6.6.1	win	2023-06-02	05:16:07	05:24:33	502098	60b8198defba8da1d95a93b8	3	1	main_z	11	advance_on_keypress_ZEE	78	stimuli_distractor_trianglediamonds.svg	stimuli_target_squarediamonds.svg	12	yes	57	0	634	0	0			0	0			1				0	
6.6.1	win	2023-06-02	05:16:07	05:24:35	504328	60b8198defba8da1d95a93b8	3	1	main_z	11	main_z	79	stimuli_target_squaretriangles.svg	stimuli_distractor_diamondtriangles.svg	7	yes	44	1	959	0	0			0	0			1				0	
6.6.1	win	2023-06-02	05:16:07	05:24:35	504328	60b8198defba8da1d95a93b8	3	1	main_z	11	advance_on_keypress_ZEE	80	stimuli_target_squaretriangles.svg	stimuli_distractor_diamondtriangles.svg	7	yes	57	0	472	0	0			0	0			1				0	
6.6.1	win	2023-06-02	05:16:07	05:24:38	507434	60b8198defba8da1d95a93b8	3	1	main_z	11	main_z	81	stimuli_distractor_diamondtriangles.svg	stimuli_distractor_diamondtriangles.svg	40	no	0	1	2000	0	0			0	0			1				0	
6.6.1	win	2023-06-02	05:16:07	05:24:38	507434	60b8198defba8da1d95a93b8	3	1	main_z	11	advance_on_keypress_ZEE	82	stimuli_distractor_diamondtriangles.svg	stimuli_distractor_diamondtriangles.svg	40	no	57	0	914	0	0			0	0			1				0	
6.6.1	win	2023-06-02	05:16:07	05:24:40	509896	60b8198defba8da1d95a93b8	3	1	main_z	11	main_z	83	stimuli_target_squarediamonds.svg	stimuli_distractor_trianglediamonds.svg	4	yes	44	1	898	0	0			0	0			1				0	
6.6.1	win	2023-06-02	05:16:07	05:24:40	509896	60b8198defba8da1d95a93b8	3	1	main_z	11	advance_on_keypress_ZEE	84	stimuli_target_squarediamonds.svg	stimuli_distractor_trianglediamonds.svg	4	yes	57	0	399	0	0			0	0			1				0	
6.6.1	win	2023-06-02	05:16:07	05:24:42	511642	60b8198defba8da1d95a93b8	3	1	main_z	11	main_z	85	stimuli_target_trianglesquares.svg	stimuli_distractor_trianglediamonds.svg	18	yes	44	1	697	0	0			0	0			1				0	
6.6.1	win	2023-06-02	05:16:07	05:24:42	511642	60b8198defba8da1d95a93b8	3	1	main_z	11	advance_on_keypress_ZEE	86	stimuli_target_trianglesquares.svg	stimuli_distractor_trianglediamonds.svg	18	yes	57	0	876	0	0			0	0			1				0	
6.6.1	win	2023-06-02	05:16:07	05:24:45	513988	60b8198defba8da1d95a93b8	3	1	main_z	11	main_z	87	stimuli_distractor_trianglediamonds.svg	stimuli_target_trianglerectangles.svg	25	yes	44	1	828	0	0			0	0			1				0	
6.6.1	win	2023-06-02	05:16:07	05:24:45	513988	60b8198defba8da1d95a93b8	3	1	main_z	11	advance_on_keypress_ZEE	88	stimuli_distractor_trianglediamonds.svg	stimuli_target_trianglerectangles.svg	25	yes	57	0	412	0	0			0	0			1				0	
6.6.1	win	2023-06-02	05:16:07	05:24:47	515998	60b8198defba8da1d95a93b8	3	1	main_z	11	main_z	89	stimuli_distractor_trianglediamonds.svg	stimuli_target_diamondsquares.svg	28	yes	44	1	940	0	0			0	0			1				0	
6.6.1	win	2023-06-02	05:16:07	05:24:47	515998	60b8198defba8da1d95a93b8	3	1	main_z	11	advance_on_keypress_ZEE	90	stimuli_distractor_trianglediamonds.svg	stimuli_target_diamondsquares.svg	28	yes	57	0	509	0	0			0	0			1				0	
6.6.1	win	2023-06-02	05:16:07	05:24:49	518263	60b8198defba8da1d95a93b8	3	1	main_z	11	main_z	91	stimuli_target_trianglerectangles.svg	stimuli_distractor_trianglediamonds.svg	17	yes	44	1	1124	0	0			0	0			1				0	
6.6.1	win	2023-06-02	05:16:07	05:24:49	518263	60b8198defba8da1d95a93b8	3	1	main_z	11	advance_on_keypress_ZEE	92	stimuli_target_trianglerectangles.svg	stimuli_distractor_trianglediamonds.svg	17	yes	57	0	424	0	0			0	0			1				0	
6.6.1	win	2023-06-02	05:16:07	05:24:52	521321	60b8198defba8da1d95a93b8	3	1	main_z	11	main_z	93	stimuli_distractor_diamondtriangles.svg	stimuli_distractor_trianglediamonds.svg	37	no	0	1	2000	0	0			0	0			1				0	
6.6.1	win	2023-06-02	05:16:07	05:24:52	521321	60b8198defba8da1d95a93b8	3	1	main_z	11	advance_on_keypress_ZEE	94	stimuli_distractor_diamondtriangles.svg	stimuli_distractor_trianglediamonds.svg	37	no	57	0	626	0	0			0	0			1				0	
6.6.1	win	2023-06-02	05:16:07	05:24:55	524584	60b8198defba8da1d95a93b8	3	1	main_z	11	main_z	95	stimuli_distractor_trianglediamonds.svg	stimuli_distractor_trianglediamonds.svg	34	no	0	1	2000	0	0			0	0			1				0	
6.6.1	win	2023-06-02	05:16:07	05:24:55	524584	60b8198defba8da1d95a93b8	3	1	main_z	11	advance_on_keypress_ZEE	96	stimuli_distractor_trianglediamonds.svg	stimuli_distractor_trianglediamonds.svg	34	no	57	0	321	0	0			0	0			1				0	
6.6.1	win	2023-06-02	05:16:07	05:24:57	526477	60b8198defba8da1d95a93b8	3	1	main_z	11	main_z	97	stimuli_target_diamondsquares.svg	stimuli_distractor_trianglediamonds.svg	20	yes	44	1	929	0	0			0	0			1				0	
6.6.1	win	2023-06-02	05:16:07	05:24:57	526477	60b8198defba8da1d95a93b8	3	1	main_z	11	advance_on_keypress_ZEE	98	stimuli_target_diamondsquares.svg	stimuli_distractor_trianglediamonds.svg	20	yes	57	0	454	0	0			0	0			1				0	
6.6.1	win	2023-06-02	05:16:07	05:24:59	528596	60b8198defba8da1d95a93b8	3	1	main_z	11	main_z	99	stimuli_distractor_trianglediamonds.svg	stimuli_target_diamondrectangles.svg	27	yes	44	1	1017	0	0			0	0			1				0	
6.6.1	win	2023-06-02	05:16:07	05:24:59	528596	60b8198defba8da1d95a93b8	3	1	main_z	11	advance_on_keypress_ZEE	100	stimuli_distractor_trianglediamonds.svg	stimuli_target_diamondrectangles.svg	27	yes	57	0	457	0	0			0	0			1				0	
6.6.1	win	2023-06-02	05:16:07	05:25:01	530601	60b8198defba8da1d95a93b8	3	1	main_z	11	main_z	101	stimuli_target_squarediamonds.svg	stimuli_distractor_diamondtriangles.svg	8	yes	44	1	907	0	0			0	0			1				0	
6.6.1	win	2023-06-02	05:16:07	05:25:01	530601	60b8198defba8da1d95a93b8	3	1	main_z	11	advance_on_keypress_ZEE	102	stimuli_target_squarediamonds.svg	stimuli_distractor_diamondtriangles.svg	8	yes	57	0	504	0	0			0	0			1				0	
6.6.1	win	2023-06-02	05:16:07	05:25:03	532439	60b8198defba8da1d95a93b8	3	1	main_z	11	main_z	103	stimuli_distractor_diamondtriangles.svg	stimuli_target_diamondsquares.svg	32	yes	44	1	697	0	0			0	0			1				0	
6.6.1	win	2023-06-02	05:16:07	05:25:03	532439	60b8198defba8da1d95a93b8	3	1	main_z	11	advance_on_keypress_ZEE	104	stimuli_distractor_diamondtriangles.svg	stimuli_target_diamondsquares.svg	32	yes	57	0	363	0	0			0	0			1				0	
6.6.1	win	2023-06-02	05:16:07	05:25:06	535457	60b8198defba8da1d95a93b8	3	1	main_z	11	main_z	105	stimuli_distractor_diamondtriangles.svg	stimuli_distractor_diamondtriangles.svg	39	no	0	1	2000	0	0			0	0			1				0	
6.6.1	win	2023-06-02	05:16:07	05:25:06	535457	60b8198defba8da1d95a93b8	3	1	main_z	11	advance_on_keypress_ZEE	106	stimuli_distractor_diamondtriangles.svg	stimuli_distractor_diamondtriangles.svg	39	no	57	0	556	0	0			0	0			1				0	
6.6.1	win	2023-06-02	05:16:07	05:25:08	537547	60b8198defba8da1d95a93b8	3	1	main_z	11	main_z	107	stimuli_target_squaretriangles.svg	stimuli_distractor_trianglediamonds.svg	3	yes	44	1	894	0	0			0	0			1				0	
6.6.1	win	2023-06-02	05:16:07	05:25:08	537547	60b8198defba8da1d95a93b8	3	1	main_z	11	advance_on_keypress_ZEE	108	stimuli_target_squaretriangles.svg	stimuli_distractor_trianglediamonds.svg	3	yes	57	0	438	0	0			0	0			1				0	
6.6.1	win	2023-06-02	05:16:07	05:25:10	539332	60b8198defba8da1d95a93b8	3	1	main_z	11	main_z	109	stimuli_target_trianglesquares.svg	stimuli_distractor_diamondtriangles.svg	22	yes	44	1	713	0	0			0	0			1				0	
6.6.1	win	2023-06-02	05:16:07	05:25:10	539332	60b8198defba8da1d95a93b8	3	1	main_z	11	advance_on_keypress_ZEE	110	stimuli_target_trianglesquares.svg	stimuli_distractor_diamondtriangles.svg	22	yes	57	0	368	0	0			0	0			1				0	
6.6.1	win	2023-06-02	05:16:07	05:25:12	541165	60b8198defba8da1d95a93b8	3	1	main_z	11	main_z	111	stimuli_target_rectanglediamonds.svg	stimuli_distractor_diamondtriangles.svg	6	yes	44	1	814	0	0			0	0			1				0	
6.6.1	win	2023-06-02	05:16:07	05:25:12	541165	60b8198defba8da1d95a93b8	3	1	main_z	11	advance_on_keypress_ZEE	112	stimuli_target_rectanglediamonds.svg	stimuli_distractor_diamondtriangles.svg	6	yes	57	0	424	0	0			0	0			1				0	
6.6.1	win	2023-06-02	05:16:07	05:25:14	543044	60b8198defba8da1d95a93b8	3	1	main_z	11	main_z	113	stimuli_target_rectangletriangles.svg	stimuli_distractor_diamondtriangles.svg	5	yes	44	1	812	0	0			0	0			1				0	
6.6.1	win	2023-06-02	05:16:07	05:25:14	543044	60b8198defba8da1d95a93b8	3	1	main_z	11	advance_on_keypress_ZEE	114	stimuli_target_rectangletriangles.svg	stimuli_distractor_diamondtriangles.svg	5	yes	57	0	462	0	0			0	0			1				0	
6.6.1	win	2023-06-02	05:16:07	05:25:17	546163	60b8198defba8da1d95a93b8	3	1	main_z	11	main_z	115	stimuli_distractor_trianglediamonds.svg	stimuli_distractor_trianglediamonds.svg	33	no	0	1	2000	0	0			0	0			1				0	
6.6.1	win	2023-06-02	05:16:07	05:25:17	546163	60b8198defba8da1d95a93b8	3	1	main_z	11	advance_on_keypress_ZEE	116	stimuli_distractor_trianglediamonds.svg	stimuli_distractor_trianglediamonds.svg	33	no	57	0	442	0	0			0	0			1				0	
6.6.1	win	2023-06-02	05:16:07	05:25:18	547840	60b8198defba8da1d95a93b8	3	1	main_z	11	main_z	117	stimuli_distractor_diamondtriangles.svg	stimuli_target_trianglerectangles.svg	29	yes	44	1	579	0	0			0	0			1				0	
6.6.1	win	2023-06-02	05:16:07	05:25:18	547840	60b8198defba8da1d95a93b8	3	1	main_z	11	advance_on_keypress_ZEE	118	stimuli_distractor_diamondtriangles.svg	stimuli_target_trianglerectangles.svg	29	yes	57	0	327	0	0			0	0			1				0	
6.6.1	win	2023-06-02	05:16:07	05:25:20	549463	60b8198defba8da1d95a93b8	3	1	main_z	11	main_z	119	stimuli_target_trianglerectangles.svg	stimuli_distractor_diamondtriangles.svg	21	yes	44	1	655	0	0			0	0			1				0	
6.6.1	win	2023-06-02	05:16:07	05:25:20	549463	60b8198defba8da1d95a93b8	3	1	main_z	11	advance_on_keypress_ZEE	120	stimuli_target_trianglerectangles.svg	stimuli_distractor_diamondtriangles.svg	21	yes	57	0	375	0	0			0	0			1				0	
6.6.1	win	2023-06-02	05:16:07	05:25:22	551140	60b8198defba8da1d95a93b8	3	1	main_z	11	main_z	121	stimuli_target_diamondsquares.svg	stimuli_distractor_diamondtriangles.svg	24	yes	44	1	667	0	0			0	0			1				0	
6.6.1	win	2023-06-02	05:16:07	05:25:22	551140	60b8198defba8da1d95a93b8	3	1	main_z	11	advance_on_keypress_ZEE	122	stimuli_target_diamondsquares.svg	stimuli_distractor_diamondtriangles.svg	24	yes	57	0	366	0	0			0	0			1				0	
6.6.1	win	2023-06-02	05:16:07	05:25:23	552787	60b8198defba8da1d95a93b8	3	1	main_z	11	main_z	123	stimuli_distractor_diamondtriangles.svg	stimuli_target_diamondrectangles.svg	31	yes	44	1	631	0	0			0	0			1				0	
6.6.1	win	2023-06-02	05:16:07	05:25:23	552787	60b8198defba8da1d95a93b8	3	1	main_z	11	advance_on_keypress_ZEE	124	stimuli_distractor_diamondtriangles.svg	stimuli_target_diamondrectangles.svg	31	yes	57	0	400	0	0			0	0			1				0	
6.6.1	win	2023-06-02	05:16:07	05:25:25	554646	60b8198defba8da1d95a93b8	3	1	main_z	11	main_z	125	stimuli_distractor_diamondtriangles.svg	stimuli_target_squarediamonds.svg	16	yes	44	1	809	0	0			0	0			1				0	
6.6.1	win	2023-06-02	05:16:07	05:25:25	554646	60b8198defba8da1d95a93b8	3	1	main_z	11	advance_on_keypress_ZEE	126	stimuli_distractor_diamondtriangles.svg	stimuli_target_squarediamonds.svg	16	yes	57	0	392	0	0			0	0			1				0	
6.6.1	win	2023-06-02	05:16:07	05:25:27	556575	60b8198defba8da1d95a93b8	3	1	main_z	11	main_z	127	stimuli_target_rectangletriangles.svg	stimuli_distractor_trianglediamonds.svg	1	yes	44	1	905	0	0			0	0			1				0	
6.6.1	win	2023-06-02	05:16:07	05:25:27	556575	60b8198defba8da1d95a93b8	3	1	main_z	11	advance_on_keypress_ZEE	128	stimuli_target_rectangletriangles.svg	stimuli_distractor_trianglediamonds.svg	1	yes	57	0	454	0	0			0	0			1				0	
6.6.1	win	2023-06-02	05:16:07	05:25:29	558644	60b8198defba8da1d95a93b8	3	1	main_z	11	main_z	129	stimuli_target_squaretriangles.svg	stimuli_distractor_diamondtriangles.svg	7	yes	44	1	978	0	0			0	0			1				0	
6.6.1	win	2023-06-02	05:16:07	05:25:29	558644	60b8198defba8da1d95a93b8	3	1	main_z	11	advance_on_keypress_ZEE	130	stimuli_target_squaretriangles.svg	stimuli_distractor_diamondtriangles.svg	7	yes	57	0	427	0	0			0	0			1				0	
6.6.1	win	2023-06-02	05:16:07	05:25:31	560694	60b8198defba8da1d95a93b8	3	1	main_z	11	main_z	131	stimuli_distractor_trianglediamonds.svg	stimuli_target_squarediamonds.svg	12	yes	44	1	980	0	0			0	0			1				0	
6.6.1	win	2023-06-02	05:16:07	05:25:31	560694	60b8198defba8da1d95a93b8	3	1	main_z	11	advance_on_keypress_ZEE	132	stimuli_distractor_trianglediamonds.svg	stimuli_target_squarediamonds.svg	12	yes	57	0	458	0	0			0	0			1				0	
6.6.1	win	2023-06-02	05:16:07	05:25:34	562929	60b8198defba8da1d95a93b8	3	1	main_z	11	main_z	133	stimuli_distractor_trianglediamonds.svg	stimuli_target_rectanglediamonds.svg	10	yes	44	1	1133	0	0			0	0			1				0	
6.6.1	win	2023-06-02	05:16:07	05:25:34	562929	60b8198defba8da1d95a93b8	3	1	main_z	11	advance_on_keypress_ZEE	134	stimuli_distractor_trianglediamonds.svg	stimuli_target_rectanglediamonds.svg	10	yes	57	0	417	0	0			0	0			1				0	
6.6.1	win	2023-06-02	05:16:07	05:25:36	565018	60b8198defba8da1d95a93b8	3	1	main_z	11	main_z	135	stimuli_distractor_trianglediamonds.svg	stimuli_target_trianglesquares.svg	26	yes	44	1	1024	0	0			0	0			1				0	
6.6.1	win	2023-06-02	05:16:07	05:25:36	565018	60b8198defba8da1d95a93b8	3	1	main_z	11	advance_on_keypress_ZEE	136	stimuli_distractor_trianglediamonds.svg	stimuli_target_trianglesquares.svg	26	yes	57	0	395	0	0			0	0			1				0	
6.6.1	win	2023-06-02	05:16:07	05:25:38	567023	60b8198defba8da1d95a93b8	3	1	main_z	11	main_z	137	stimuli_distractor_diamondtriangles.svg	stimuli_target_squaretriangles.svg	15	yes	44	1	965	0	0			0	0			1				0	
6.6.1	win	2023-06-02	05:16:07	05:25:38	567023	60b8198defba8da1d95a93b8	3	1	main_z	11	advance_on_keypress_ZEE	138	stimuli_distractor_diamondtriangles.svg	stimuli_target_squaretriangles.svg	15	yes	57	0	510	0	0			0	0			1				0	
6.6.1	win	2023-06-02	05:16:07	05:25:39	568665	60b8198defba8da1d95a93b8	3	1	main_z	11	main_z	139	stimuli_distractor_diamondtriangles.svg	stimuli_target_rectanglediamonds.svg	14	yes	44	1	492	0	0			0	0			1				0	
6.6.1	win	2023-06-02	05:16:07	05:25:39	568665	60b8198defba8da1d95a93b8	3	1	main_z	11	advance_on_keypress_ZEE	140	stimuli_distractor_diamondtriangles.svg	stimuli_target_rectanglediamonds.svg	14	yes	57	0	422	0	0			0	0			1				0	
6.6.1	win	2023-06-02	05:16:07	05:25:41	570123	60b8198defba8da1d95a93b8	3	1	main_z	11	main_z	141	stimuli_target_rectanglediamonds.svg	stimuli_distractor_trianglediamonds.svg	2	yes	44	1	402	0	0			0	0			1				0	
6.6.1	win	2023-06-02	05:16:07	05:25:41	570123	60b8198defba8da1d95a93b8	3	1	main_z	11	advance_on_keypress_ZEE	142	stimuli_target_rectanglediamonds.svg	stimuli_distractor_trianglediamonds.svg	2	yes	57	0	362	0	0			0	0			1				0	
6.6.1	win	2023-06-02	05:16:07	05:25:42	571517	60b8198defba8da1d95a93b8	3	1	main_z	11	main_z	143	stimuli_distractor_trianglediamonds.svg	stimuli_target_rectangletriangles.svg	9	yes	44	1	372	0	0			0	0			1				0	
6.6.1	win	2023-06-02	05:16:07	05:25:42	571517	60b8198defba8da1d95a93b8	3	1	main_z	11	advance_on_keypress_ZEE	144	stimuli_distractor_trianglediamonds.svg	stimuli_target_rectangletriangles.svg	9	yes	57	0	375	0	0			0	0			1				0	
6.6.1	win	2023-06-02	05:16:07	05:25:44	573448	60b8198defba8da1d95a93b8	3	1	main_z	11	main_z	145	stimuli_target_diamondrectangles.svg	stimuli_distractor_diamondtriangles.svg	23	yes	44	1	912	0	0			0	0			1				0	
6.6.1	win	2023-06-02	05:16:07	05:25:44	573448	60b8198defba8da1d95a93b8	3	1	main_z	11	advance_on_keypress_ZEE	146	stimuli_target_diamondrectangles.svg	stimuli_distractor_diamondtriangles.svg	23	yes	57	0	267	0	0			0	0			1				0	
6.6.1	win	2023-06-02	05:16:07	05:25:46	575226	60b8198defba8da1d95a93b8	3	1	main_z	11	main_z	147	stimuli_target_diamondrectangles.svg	stimuli_distractor_trianglediamonds.svg	19	yes	44	1	859	0	0			0	0			1				0	
6.6.1	win	2023-06-02	05:16:07	05:25:46	575226	60b8198defba8da1d95a93b8	3	1	main_z	11	advance_on_keypress_ZEE	148	stimuli_target_diamondrectangles.svg	stimuli_distractor_trianglediamonds.svg	19	yes	57	0	345	0	0			0	0			1				0	
6.6.1	win	2023-06-02	05:16:07	05:25:47	576779	60b8198defba8da1d95a93b8	3	1	main_z	11	main_z	149	stimuli_distractor_diamondtriangles.svg	stimuli_target_rectangletriangles.svg	13	yes	44	1	564	0	0			0	0			1				0	
6.6.1	win	2023-06-02	05:16:07	05:25:47	576779	60b8198defba8da1d95a93b8	3	1	main_z	11	advance_on_keypress_ZEE	150	stimuli_distractor_diamondtriangles.svg	stimuli_target_rectangletriangles.svg	13	yes	57	0	252	0	0			0	0			1				0	
6.6.1	win	2023-06-02	05:16:07	05:25:50	579680	60b8198defba8da1d95a93b8	3	1	main_z	11	main_z	151	stimuli_distractor_trianglediamonds.svg	stimuli_distractor_diamondtriangles.svg	35	no	0	1	2000	0	0			0	0			1				0	
6.6.1	win	2023-06-02	05:16:07	05:25:50	579680	60b8198defba8da1d95a93b8	3	1	main_z	11	advance_on_keypress_ZEE	152	stimuli_distractor_trianglediamonds.svg	stimuli_distractor_diamondtriangles.svg	35	no	57	0	602	0	0			0	0			1				0	
6.6.1	win	2023-06-02	05:16:07	05:25:52	581320	60b8198defba8da1d95a93b8	3	1	main_z	11	main_z	153	stimuli_distractor_diamondtriangles.svg	stimuli_target_trianglesquares.svg	30	yes	44	1	393	0	0			0	0			1				0	
6.6.1	win	2023-06-02	05:16:07	05:25:52	581320	60b8198defba8da1d95a93b8	3	1	main_z	11	advance_on_keypress_ZEE	154	stimuli_distractor_diamondtriangles.svg	stimuli_target_trianglesquares.svg	30	yes	57	0	299	0	0			0	0			1				0	
6.6.1	win	2023-06-02	05:16:07	05:25:53	582646	60b8198defba8da1d95a93b8	3	1	main_z	11	main_z	155	stimuli_distractor_trianglediamonds.svg	stimuli_target_squaretriangles.svg	11	yes	44	1	387	0	0			0	0			1				0	
6.6.1	win	2023-06-02	05:16:07	05:25:53	582646	60b8198defba8da1d95a93b8	3	1	main_z	11	advance_on_keypress_ZEE	156	stimuli_distractor_trianglediamonds.svg	stimuli_target_squaretriangles.svg	11	yes	57	0	224	0	0			0	0			1				0	
6.6.1	win	2023-06-02	05:16:07	05:25:56	585508	60b8198defba8da1d95a93b8	3	1	main_z	11	main_z	157	stimuli_distractor_diamondtriangles.svg	stimuli_distractor_trianglediamonds.svg	38	no	0	1	2000	0	0			0	0			1				0	
6.6.1	win	2023-06-02	05:16:07	05:25:56	585508	60b8198defba8da1d95a93b8	3	1	main_z	11	advance_on_keypress_ZEE	158	stimuli_distractor_diamondtriangles.svg	stimuli_distractor_trianglediamonds.svg	38	no	57	0	656	0	0			0	0			1				0	
6.6.1	win	2023-06-02	05:16:07	05:25:59	588804	60b8198defba8da1d95a93b8	3	1	main_z	11	main_z	159	stimuli_distractor_trianglediamonds.svg	stimuli_distractor_diamondtriangles.svg	36	no	0	1	2000	0	0			0	0			1				0	
6.6.1	win	2023-06-02	05:16:07	05:25:59	588804	60b8198defba8da1d95a93b8	3	1	main_z	11	advance_on_keypress_ZEE	160	stimuli_distractor_trianglediamonds.svg	stimuli_distractor_diamondtriangles.svg	36	no	57	0	347	0	0			0	0			1				0	
6.6.1	win	2023-06-02	05:16:07	05:25:59	588804	60b8198defba8da1d95a93b8	3	1	headphonecheck_calibration	14	headphonecheck_calibrationIntro	1	stimuli_distractor_trianglediamonds.svg	stimuli_distractor_diamondtriangles.svg	36	no	calibrationButton	0	2349	0	0			0	0			1				0	
6.6.1	win	2023-06-02	05:16:07	05:25:59	588804	60b8198defba8da1d95a93b8	3	1	headphonecheck_testphase	15	test_collectResponse	3	stimuli_distractor_trianglediamonds.svg	stimuli_distractor_diamondtriangles.svg	36	no	second	1	449	1	1	antiphase_hc_iso.wav	2	0	0			1				0	
6.6.1	win	2023-06-02	05:16:07	05:25:59	588804	60b8198defba8da1d95a93b8	3	1	headphonecheck_testphase	15	test_collectResponse	6	stimuli_distractor_trianglediamonds.svg	stimuli_distractor_diamondtriangles.svg	36	no	first	1	438	2	3	antiphase_hc_soi.wav	1	0	0			1				0	
6.6.1	win	2023-06-02	05:16:07	05:25:59	588804	60b8198defba8da1d95a93b8	3	1	headphonecheck_testphase	15	test_collectResponse	9	stimuli_distractor_trianglediamonds.svg	stimuli_distractor_diamondtriangles.svg	36	no	first	1	278	3	4	antiphase_hc_sio.wav	1	0	0			1				0	
6.6.1	win	2023-06-02	05:16:07	05:25:59	588804	60b8198defba8da1d95a93b8	3	1	headphonecheck_testphase	15	test_collectResponse	12	stimuli_distractor_trianglediamonds.svg	stimuli_distractor_diamondtriangles.svg	36	no	third	1	286	4	6	antiphase_hc_ois.wav	3	0	0			1				0	
6.6.1	win	2023-06-02	05:16:07	05:25:59	588804	60b8198defba8da1d95a93b8	3	1	headphonecheck_testphase	15	test_collectResponse	15	stimuli_distractor_trianglediamonds.svg	stimuli_distractor_diamondtriangles.svg	36	no	third	1	227	5	2	antiphase_hc_ios.wav	3	0	0			1				0	
6.6.1	win	2023-06-02	05:16:07	05:25:59	588804	60b8198defba8da1d95a93b8	3	1	headphonecheck_testphase	15	test_collectResponse	18	stimuli_distractor_trianglediamonds.svg	stimuli_distractor_diamondtriangles.svg	36	no	second	1	363	6	5	antiphase_hc_osi.wav	2	0	0			1				0	
6.6.1	win	2023-06-02	05:16:07	05:25:59	588804	60b8198defba8da1d95a93b8	3	1	stereocheck_calibration	17	stereocheck_calibrationIntro	1	stimuli_distractor_trianglediamonds.svg	stimuli_distractor_diamondtriangles.svg	36	no	stereocheck_calibrationButton	0	1925	6	5	antiphase_hc_osi.wav	2	0	0			1				0	
6.6.1	win	2023-06-02	05:16:07	05:25:59	588804	60b8198defba8da1d95a93b8	3	1	stereocheck_testphase	18	stereocheck_test_collectResponse	3	stimuli_distractor_trianglediamonds.svg	stimuli_distractor_diamondtriangles.svg	36	no	stereocheck_right	1	6500	6	5	antiphase_hc_osi.wav	2	1	6	noise_calib_stim_RIGHT.wav	2	1				0	
6.6.1	win	2023-06-02	05:16:07	05:25:59	588804	60b8198defba8da1d95a93b8	3	1	stereocheck_testphase	18	stereocheck_test_collectResponse	6	stimuli_distractor_trianglediamonds.svg	stimuli_distractor_diamondtriangles.svg	36	no	stereocheck_right	1	315	6	5	antiphase_hc_osi.wav	2	2	4	noise_calib_stim_RIGHT.wav	2	1				0	
6.6.1	win	2023-06-02	05:16:07	05:25:59	588804	60b8198defba8da1d95a93b8	3	1	stereocheck_testphase	18	stereocheck_test_collectResponse	9	stimuli_distractor_trianglediamonds.svg	stimuli_distractor_diamondtriangles.svg	36	no	stereocheck_right	1	365	6	5	antiphase_hc_osi.wav	2	3	5	noise_calib_stim_RIGHT.wav	2	1				0	
6.6.1	win	2023-06-02	05:16:07	05:25:59	588804	60b8198defba8da1d95a93b8	3	1	stereocheck_testphase	18	stereocheck_test_collectResponse	12	stimuli_distractor_trianglediamonds.svg	stimuli_distractor_diamondtriangles.svg	36	no	stereocheck_left	1	294	6	5	antiphase_hc_osi.wav	2	4	3	noise_calib_stim_LEFT.wav	1	1				0	
6.6.1	win	2023-06-02	05:16:07	05:25:59	588804	60b8198defba8da1d95a93b8	3	1	stereocheck_testphase	18	stereocheck_test_collectResponse	15	stimuli_distractor_trianglediamonds.svg	stimuli_distractor_diamondtriangles.svg	36	no	stereocheck_left	1	382	6	5	antiphase_hc_osi.wav	2	5	1	noise_calib_stim_LEFT.wav	1	1				0	
6.6.1	win	2023-06-02	05:16:07	05:25:59	588804	60b8198defba8da1d95a93b8	3	1	stereocheck_testphase	18	stereocheck_test_collectResponse	18	stimuli_distractor_trianglediamonds.svg	stimuli_distractor_diamondtriangles.svg	36	no	stereocheck_left	1	396	6	5	antiphase_hc_osi.wav	2	6	2	noise_calib_stim_LEFT.wav	1	1				0	
6.6.1	win	2023-06-02	05:16:07	05:25:59	588804	60b8198defba8da1d95a93b8	3	1	DL_practice	21	DL_practice	2	stimuli_distractor_trianglediamonds.svg	stimuli_distractor_diamondtriangles.svg	36	no	ga	1	817	6	5	antiphase_hc_osi.wav	2	6	2	noise_calib_stim_LEFT.wav	1	15	blb_dichoticlistening_ga-ga.mp3	ga	ga	0	left
6.6.1	win	2023-06-02	05:16:07	05:25:59	588804	60b8198defba8da1d95a93b8	3	1	DL_practice	21	DL_practice	3	stimuli_distractor_trianglediamonds.svg	stimuli_distractor_diamondtriangles.svg	36	no	pa	1	1356	6	5	antiphase_hc_osi.wav	2	6	2	noise_calib_stim_LEFT.wav	1	29	blb_dichoticlistening_pa-pa.mp3	pa	pa	0	left
6.6.1	win	2023-06-02	05:16:07	05:25:59	588804	60b8198defba8da1d95a93b8	3	1	DL_practice	21	DL_practice	4	stimuli_distractor_trianglediamonds.svg	stimuli_distractor_diamondtriangles.svg	36	no	ba	1	1735	6	5	antiphase_hc_osi.wav	2	6	2	noise_calib_stim_LEFT.wav	1	1	blb_dichoticlistening_ba-ba.mp3	ba	ba	0	left
6.6.1	win	2023-06-02	05:16:07	05:25:59	588804	60b8198defba8da1d95a93b8	3	1	DL_practice	21	DL_practice	5	stimuli_distractor_trianglediamonds.svg	stimuli_distractor_diamondtriangles.svg	36	no	da	1	708	6	5	antiphase_hc_osi.wav	2	6	2	noise_calib_stim_LEFT.wav	1	8	blb_dichoticlistening_da-da.mp3	da	da	0	left
6.6.1	win	2023-06-02	05:16:07	05:25:59	588804	60b8198defba8da1d95a93b8	3	1	DL_practice	21	DL_practice	6	stimuli_distractor_trianglediamonds.svg	stimuli_distractor_diamondtriangles.svg	36	no	ka	1	984	6	5	antiphase_hc_osi.wav	2	6	2	noise_calib_stim_LEFT.wav	1	23	blb_dichoticlistening_ka-pa.mp3	ka	pa	1	left
6.6.1	win	2023-06-02	05:16:07	05:25:59	588804	60b8198defba8da1d95a93b8	3	1	DL_practice	21	DL_practice	7	stimuli_distractor_trianglediamonds.svg	stimuli_distractor_diamondtriangles.svg	36	no	ta	1	1212	6	5	antiphase_hc_osi.wav	2	6	2	noise_calib_stim_LEFT.wav	1	36	blb_dichoticlistening_ta-ta.mp3	ta	ta	0	left
6.6.1	win	2023-06-02	05:16:07	05:25:59	588804	60b8198defba8da1d95a93b8	3	1	DL_practice	21	DL_practice	8	stimuli_distractor_trianglediamonds.svg	stimuli_distractor_diamondtriangles.svg	36	no	ba	1	1067	6	5	antiphase_hc_osi.wav	2	6	2	noise_calib_stim_LEFT.wav	1	7	blb_dichoticlistening_da-ba.mp3	da	ba	1	right
6.6.1	win	2023-06-02	05:16:07	05:25:59	588804	60b8198defba8da1d95a93b8	3	1	DL_practice	21	DL_practice	9	stimuli_distractor_trianglediamonds.svg	stimuli_distractor_diamondtriangles.svg	36	no	ka	1	1115	6	5	antiphase_hc_osi.wav	2	6	2	noise_calib_stim_LEFT.wav	1	22	blb_dichoticlistening_ka-ka.mp3	ka	ka	0	left
6.6.1	win	2023-06-02	05:16:07	05:25:59	588804	60b8198defba8da1d95a93b8	3	1	DL_practice	21	DL_practice	10	stimuli_distractor_trianglediamonds.svg	stimuli_distractor_diamondtriangles.svg	36	no	ga	1	893	6	5	antiphase_hc_osi.wav	2	6	2	noise_calib_stim_LEFT.wav	1	18	blb_dichoticlistening_ga-ta.mp3	ga	ta	1	left
6.6.1	win	2023-06-02	05:16:07	05:25:59	588804	60b8198defba8da1d95a93b8	3	1	DL_test	23	DL_test	1	stimuli_distractor_trianglediamonds.svg	stimuli_distractor_diamondtriangles.svg	36	no	ga	1	728	6	5	antiphase_hc_osi.wav	2	6	2	noise_calib_stim_LEFT.wav	1	21	blb_dichoticlistening_ka-ga.mp3	ka	ga	1	right
6.6.1	win	2023-06-02	05:16:07	05:25:59	588804	60b8198defba8da1d95a93b8	3	1	DL_test	23	DL_test	2	stimuli_distractor_trianglediamonds.svg	stimuli_distractor_diamondtriangles.svg	36	no	da	1	1749	6	5	antiphase_hc_osi.wav	2	6	2	noise_calib_stim_LEFT.wav	1	11	blb_dichoticlistening_da-pa.mp3	da	pa	1	left
6.6.1	win	2023-06-02	05:16:07	05:25:59	588804	60b8198defba8da1d95a93b8	3	1	DL_test	23	DL_test	3	stimuli_distractor_trianglediamonds.svg	stimuli_distractor_diamondtriangles.svg	36	no	ba	1	1536	6	5	antiphase_hc_osi.wav	2	6	2	noise_calib_stim_LEFT.wav	1	3	blb_dichoticlistening_ba-ga.mp3	ba	ga	1	left
6.6.1	win	2023-06-02	05:16:07	05:25:59	588804	60b8198defba8da1d95a93b8	3	1	DL_test	23	DL_test	4	stimuli_distractor_trianglediamonds.svg	stimuli_distractor_diamondtriangles.svg	36	no	ta	1	1060	6	5	antiphase_hc_osi.wav	2	6	2	noise_calib_stim_LEFT.wav	1	30	blb_dichoticlistening_pa-ta.mp3	pa	ta	1	right
6.6.1	win	2023-06-02	05:16:07	05:25:59	588804	60b8198defba8da1d95a93b8	3	1	DL_test	23	DL_test	5	stimuli_distractor_trianglediamonds.svg	stimuli_distractor_diamondtriangles.svg	36	no	da	1	1010	6	5	antiphase_hc_osi.wav	2	6	2	noise_calib_stim_LEFT.wav	1	32	blb_dichoticlistening_ta-da.mp3	ta	da	1	right
6.6.1	win	2023-06-02	05:16:07	05:25:59	588804	60b8198defba8da1d95a93b8	3	1	DL_test	23	DL_test	6	stimuli_distractor_trianglediamonds.svg	stimuli_distractor_diamondtriangles.svg	36	no	ga	1	643	6	5	antiphase_hc_osi.wav	2	6	2	noise_calib_stim_LEFT.wav	1	33	blb_dichoticlistening_ta-ga.mp3	ta	ga	1	right
6.6.1	win	2023-06-02	05:16:07	05:25:59	588804	60b8198defba8da1d95a93b8	3	1	DL_test	23	DL_test	7	stimuli_distractor_trianglediamonds.svg	stimuli_distractor_diamondtriangles.svg	36	no	ta	1	952	6	5	antiphase_hc_osi.wav	2	6	2	noise_calib_stim_LEFT.wav	1	35	blb_dichoticlistening_ta-pa.mp3	ta	pa	1	left
6.6.1	win	2023-06-02	05:16:07	05:25:59	588804	60b8198defba8da1d95a93b8	3	1	DL_test	23	DL_test	8	stimuli_distractor_trianglediamonds.svg	stimuli_distractor_diamondtriangles.svg	36	no	da	1	1036	6	5	antiphase_hc_osi.wav	2	6	2	noise_calib_stim_LEFT.wav	1	10	blb_dichoticlistening_da-ka.mp3	da	ka	1	left
6.6.1	win	2023-06-02	05:16:07	05:25:59	588804	60b8198defba8da1d95a93b8	3	1	DL_test	23	DL_test	9	stimuli_distractor_trianglediamonds.svg	stimuli_distractor_diamondtriangles.svg	36	no	ga	1	947	6	5	antiphase_hc_osi.wav	2	6	2	noise_calib_stim_LEFT.wav	1	16	blb_dichoticlistening_ga-ka.mp3	ga	ka	1	left
6.6.1	win	2023-06-02	05:16:07	05:25:59	588804	60b8198defba8da1d95a93b8	3	1	DL_test	23	DL_test	10	stimuli_distractor_trianglediamonds.svg	stimuli_distractor_diamondtriangles.svg	36	no	ka	1	967	6	5	antiphase_hc_osi.wav	2	6	2	noise_calib_stim_LEFT.wav	1	34	blb_dichoticlistening_ta-ka.mp3	ta	ka	1	right
6.6.1	win	2023-06-02	05:16:07	05:25:59	588804	60b8198defba8da1d95a93b8	3	1	DL_test	23	DL_test	11	stimuli_distractor_trianglediamonds.svg	stimuli_distractor_diamondtriangles.svg	36	no	ka	1	706	6	5	antiphase_hc_osi.wav	2	6	2	noise_calib_stim_LEFT.wav	1	24	blb_dichoticlistening_ka-ta.mp3	ka	ta	1	left
6.6.1	win	2023-06-02	05:16:07	05:25:59	588804	60b8198defba8da1d95a93b8	3	1	DL_test	23	DL_test	12	stimuli_distractor_trianglediamonds.svg	stimuli_distractor_diamondtriangles.svg	36	no	ga	1	781	6	5	antiphase_hc_osi.wav	2	6	2	noise_calib_stim_LEFT.wav	1	17	blb_dichoticlistening_ga-pa.mp3	ga	pa	1	left
6.6.1	win	2023-06-02	05:16:07	05:25:59	588804	60b8198defba8da1d95a93b8	3	1	DL_test	23	DL_test	13	stimuli_distractor_trianglediamonds.svg	stimuli_distractor_diamondtriangles.svg	36	no	da	1	751	6	5	antiphase_hc_osi.wav	2	6	2	noise_calib_stim_LEFT.wav	1	14	blb_dichoticlistening_ga-da.mp3	ga	da	1	right
6.6.1	win	2023-06-02	05:16:07	05:25:59	588804	60b8198defba8da1d95a93b8	3	1	DL_test	23	DL_test	14	stimuli_distractor_trianglediamonds.svg	stimuli_distractor_diamondtriangles.svg	36	no	ga	1	1427	6	5	antiphase_hc_osi.wav	2	6	2	noise_calib_stim_LEFT.wav	1	27	blb_dichoticlistening_pa-ga.mp3	pa	ga	1	right
6.6.1	win	2023-06-02	05:16:07	05:25:59	588804	60b8198defba8da1d95a93b8	3	1	DL_test	23	DL_test	15	stimuli_distractor_trianglediamonds.svg	stimuli_distractor_diamondtriangles.svg	36	no	ka	1	892	6	5	antiphase_hc_osi.wav	2	6	2	noise_calib_stim_LEFT.wav	1	28	blb_dichoticlistening_pa-ka.mp3	pa	ka	1	right
6.6.1	win	2023-06-02	05:16:07	05:25:59	588804	60b8198defba8da1d95a93b8	3	1	DL_test	23	DL_test	16	stimuli_distractor_trianglediamonds.svg	stimuli_distractor_diamondtriangles.svg	36	no	da	1	926	6	5	antiphase_hc_osi.wav	2	6	2	noise_calib_stim_LEFT.wav	1	12	blb_dichoticlistening_da-ta.mp3	da	ta	1	left
6.6.1	win	2023-06-02	05:16:07	05:25:59	588804	60b8198defba8da1d95a93b8	3	1	DL_test	23	DL_test	17	stimuli_distractor_trianglediamonds.svg	stimuli_distractor_diamondtriangles.svg	36	no	ta	1	989	6	5	antiphase_hc_osi.wav	2	6	2	noise_calib_stim_LEFT.wav	1	36	blb_dichoticlistening_ta-ta.mp3	ta	ta	0	left
6.6.1	win	2023-06-02	05:16:07	05:25:59	588804	60b8198defba8da1d95a93b8	3	1	DL_test	23	DL_test	18	stimuli_distractor_trianglediamonds.svg	stimuli_distractor_diamondtriangles.svg	36	no	ga	1	1069	6	5	antiphase_hc_osi.wav	2	6	2	noise_calib_stim_LEFT.wav	1	9	blb_dichoticlistening_da-ga.mp3	da	ga	1	right
6.6.1	win	2023-06-02	05:16:07	05:25:59	588804	60b8198defba8da1d95a93b8	3	1	DL_test	23	DL_test	19	stimuli_distractor_trianglediamonds.svg	stimuli_distractor_diamondtriangles.svg	36	no	ba	1	1562	6	5	antiphase_hc_osi.wav	2	6	2	noise_calib_stim_LEFT.wav	1	5	blb_dichoticlistening_ba-pa.mp3	ba	pa	1	left
6.6.1	win	2023-06-02	05:16:07	05:25:59	588804	60b8198defba8da1d95a93b8	3	1	DL_test	23	DL_test	20	stimuli_distractor_trianglediamonds.svg	stimuli_distractor_diamondtriangles.svg	36	no	pa	1	1233	6	5	antiphase_hc_osi.wav	2	6	2	noise_calib_stim_LEFT.wav	1	25	blb_dichoticlistening_pa-ba.mp3	pa	ba	1	left
6.6.1	win	2023-06-02	05:16:07	05:25:59	588804	60b8198defba8da1d95a93b8	3	1	DL_test	23	DL_test	21	stimuli_distractor_trianglediamonds.svg	stimuli_distractor_diamondtriangles.svg	36	no	ka	1	670	6	5	antiphase_hc_osi.wav	2	6	2	noise_calib_stim_LEFT.wav	1	22	blb_dichoticlistening_ka-ka.mp3	ka	ka	0	left
6.6.1	win	2023-06-02	05:16:07	05:25:59	588804	60b8198defba8da1d95a93b8	3	1	DL_test	23	DL_test	22	stimuli_distractor_trianglediamonds.svg	stimuli_distractor_diamondtriangles.svg	36	no	ba	1	1035	6	5	antiphase_hc_osi.wav	2	6	2	noise_calib_stim_LEFT.wav	1	13	blb_dichoticlistening_ga-ba.mp3	ga	ba	1	right
6.6.1	win	2023-06-02	05:16:07	05:25:59	588804	60b8198defba8da1d95a93b8	3	1	DL_test	23	DL_test	23	stimuli_distractor_trianglediamonds.svg	stimuli_distractor_diamondtriangles.svg	36	no	ka	1	779	6	5	antiphase_hc_osi.wav	2	6	2	noise_calib_stim_LEFT.wav	1	23	blb_dichoticlistening_ka-pa.mp3	ka	pa	1	left
6.6.1	win	2023-06-02	05:16:07	05:25:59	588804	60b8198defba8da1d95a93b8	3	1	DL_test	23	DL_test	24	stimuli_distractor_trianglediamonds.svg	stimuli_distractor_diamondtriangles.svg	36	no	ka	1	1108	6	5	antiphase_hc_osi.wav	2	6	2	noise_calib_stim_LEFT.wav	1	4	blb_dichoticlistening_ba-ka.mp3	ba	ka	1	right
6.6.1	win	2023-06-02	05:16:07	05:25:59	588804	60b8198defba8da1d95a93b8	3	1	DL_test	23	DL_test	25	stimuli_distractor_trianglediamonds.svg	stimuli_distractor_diamondtriangles.svg	36	no	ba	1	1100	6	5	antiphase_hc_osi.wav	2	6	2	noise_calib_stim_LEFT.wav	1	1	blb_dichoticlistening_ba-ba.mp3	ba	ba	0	left
6.6.1	win	2023-06-02	05:16:07	05:25:59	588804	60b8198defba8da1d95a93b8	3	1	DL_test	23	DL_test	26	stimuli_distractor_trianglediamonds.svg	stimuli_distractor_diamondtriangles.svg	36	no	da	1	696	6	5	antiphase_hc_osi.wav	2	6	2	noise_calib_stim_LEFT.wav	1	26	blb_dichoticlistening_pa-da.mp3	pa	da	1	right
