build	computer.platform	date	time	timestamp	time_elapsed_ms	subject	group	session	blockcode	blocknum	trialcode	trialnum	stimulus_left	stimulus_right	stim_index	target_present	response	correct	latency	headphonecheck_countTestTrials	headphonecheck_index	headphonecheck_testSound	headphonecheck_correctResponse	stereocheck_countTestTrials	stereocheck_index	stereocheck_testSound	stereocheck_correctResponse	DL_index	DL_soundfile	DL_leftSound	DL_rightSound	DL_dualSound	DL_choice
6.6.1	win	2023-06-27	21:08:59	21:11:42	157633	54676961fdf99b7ba4d35cd6	4	1	practice_z	5	practice_z	1	stimuli_distractor_diamondtriangles.svg	stimuli_distractor_trianglediamonds.svg	14	no	0	1	2000	0	0			0	0			1				0	
6.6.1	win	2023-06-27	21:08:59	21:11:42	157633	54676961fdf99b7ba4d35cd6	4	1	practice_z	5	advance_on_keypress_ZEE	2	stimuli_distractor_diamondtriangles.svg	stimuli_distractor_trianglediamonds.svg	14	no	57	0	1277	0	0			0	0			1				0	
6.6.1	win	2023-06-27	21:08:59	21:11:46	161644	54676961fdf99b7ba4d35cd6	4	1	practice_z	5	practice_z	3	stimuli_target_squarediamonds.svg	stimuli_distractor_diamondtriangles.svg	2	yes	44	1	1079	0	0			0	0			1				0	
6.6.1	win	2023-06-27	21:08:59	21:11:46	161644	54676961fdf99b7ba4d35cd6	4	1	practice_z	5	advance_on_keypress_ZEE	4	stimuli_target_squarediamonds.svg	stimuli_distractor_diamondtriangles.svg	2	yes	57	0	787	0	0			0	0			1				0	
6.6.1	win	2023-06-27	21:08:59	21:11:51	166097	54676961fdf99b7ba4d35cd6	4	1	practice_z	5	practice_z	5	stimuli_distractor_trianglediamonds.svg	stimuli_target_diamondrectangles.svg	12	yes	0	0	2000	0	0			0	0			1				0	
6.6.1	win	2023-06-27	21:08:59	21:11:51	166097	54676961fdf99b7ba4d35cd6	4	1	practice_z	5	advance_on_keypress_ZEE	6	stimuli_distractor_trianglediamonds.svg	stimuli_target_diamondrectangles.svg	12	yes	57	0	1033	0	0			0	0			1				0	
6.6.1	win	2023-06-27	21:08:59	21:11:56	170781	54676961fdf99b7ba4d35cd6	4	1	practice_z	5	practice_z	7	stimuli_distractor_diamondtriangles.svg	stimuli_distractor_diamondtriangles.svg	13	no	0	1	2000	0	0			0	0			1				0	
6.6.1	win	2023-06-27	21:08:59	21:11:56	170781	54676961fdf99b7ba4d35cd6	4	1	practice_z	5	advance_on_keypress_ZEE	8	stimuli_distractor_diamondtriangles.svg	stimuli_distractor_diamondtriangles.svg	13	no	57	0	787	0	0			0	0			1				0	
6.6.1	win	2023-06-27	21:08:59	21:12:00	175214	54676961fdf99b7ba4d35cd6	4	1	practice_z	5	practice_z	9	stimuli_distractor_trianglediamonds.svg	stimuli_distractor_trianglediamonds.svg	15	no	0	1	2000	0	0			0	0			1				0	
6.6.1	win	2023-06-27	21:08:59	21:12:00	175214	54676961fdf99b7ba4d35cd6	4	1	practice_z	5	advance_on_keypress_ZEE	10	stimuli_distractor_trianglediamonds.svg	stimuli_distractor_trianglediamonds.svg	15	no	57	0	630	0	0			0	0			1				0	
6.6.1	win	2023-06-27	21:08:59	21:12:03	178562	54676961fdf99b7ba4d35cd6	4	1	practice_z	5	practice_z	11	stimuli_distractor_trianglediamonds.svg	stimuli_distractor_diamondtriangles.svg	16	no	44	0	1063	0	0			0	0			1				0	
6.6.1	win	2023-06-27	21:08:59	21:12:03	178562	54676961fdf99b7ba4d35cd6	4	1	practice_z	5	advance_on_keypress_ZEE	12	stimuli_distractor_trianglediamonds.svg	stimuli_distractor_diamondtriangles.svg	16	no	57	0	765	0	0			0	0			1				0	
6.6.1	win	2023-06-27	21:08:59	21:12:07	182105	54676961fdf99b7ba4d35cd6	4	1	practice_z	5	practice_z	13	stimuli_target_rectanglediamonds.svg	stimuli_distractor_trianglediamonds.svg	4	yes	44	1	1108	0	0			0	0			1				0	
6.6.1	win	2023-06-27	21:08:59	21:12:07	182105	54676961fdf99b7ba4d35cd6	4	1	practice_z	5	advance_on_keypress_ZEE	14	stimuli_target_rectanglediamonds.svg	stimuli_distractor_trianglediamonds.svg	4	yes	57	0	483	0	0			0	0			1				0	
6.6.1	win	2023-06-27	21:08:59	21:12:10	185344	54676961fdf99b7ba4d35cd6	4	1	practice_z	5	practice_z	15	stimuli_distractor_trianglediamonds.svg	stimuli_target_squarediamonds.svg	11	yes	44	1	1113	0	0			0	0			1				0	
6.6.1	win	2023-06-27	21:08:59	21:12:10	185344	54676961fdf99b7ba4d35cd6	4	1	practice_z	5	advance_on_keypress_ZEE	16	stimuli_distractor_trianglediamonds.svg	stimuli_target_squarediamonds.svg	11	yes	57	0	410	0	0			0	0			1				0	
6.6.1	win	2023-06-27	21:08:59	21:12:14	188873	54676961fdf99b7ba4d35cd6	4	1	practice_z	5	practice_z	17	stimuli_distractor_diamondtriangles.svg	stimuli_target_rectangletriangles.svg	7	yes	44	1	1459	0	0			0	0			1				0	
6.6.1	win	2023-06-27	21:08:59	21:12:14	188873	54676961fdf99b7ba4d35cd6	4	1	practice_z	5	advance_on_keypress_ZEE	18	stimuli_distractor_diamondtriangles.svg	stimuli_target_rectangletriangles.svg	7	yes	57	0	457	0	0			0	0			1				0	
6.6.1	win	2023-06-27	21:08:59	21:12:18	193013	54676961fdf99b7ba4d35cd6	4	1	practice_z	5	practice_z	19	stimuli_target_diamondsquares.svg	stimuli_distractor_trianglediamonds.svg	6	yes	0	0	2000	0	0			0	0			1				0	
6.6.1	win	2023-06-27	21:08:59	21:12:18	193013	54676961fdf99b7ba4d35cd6	4	1	practice_z	5	advance_on_keypress_ZEE	20	stimuli_target_diamondsquares.svg	stimuli_distractor_trianglediamonds.svg	6	yes	57	0	504	0	0			0	0			1				0	
6.6.1	win	2023-06-27	21:08:59	21:12:22	197197	54676961fdf99b7ba4d35cd6	4	1	practice_z	5	practice_z	21	stimuli_distractor_diamondtriangles.svg	stimuli_target_trianglerectangles.svg	9	yes	0	0	2000	0	0			0	0			1				0	
6.6.1	win	2023-06-27	21:08:59	21:12:22	197197	54676961fdf99b7ba4d35cd6	4	1	practice_z	5	advance_on_keypress_ZEE	22	stimuli_distractor_diamondtriangles.svg	stimuli_target_trianglerectangles.svg	9	yes	57	0	557	0	0			0	0			1				0	
6.6.1	win	2023-06-27	21:08:59	21:12:25	200215	54676961fdf99b7ba4d35cd6	4	1	practice_z	5	practice_z	23	stimuli_target_squarediamonds.svg	stimuli_distractor_trianglediamonds.svg	5	yes	44	1	819	0	0			0	0			1				0	
6.6.1	win	2023-06-27	21:08:59	21:12:25	200215	54676961fdf99b7ba4d35cd6	4	1	practice_z	5	advance_on_keypress_ZEE	24	stimuli_target_squarediamonds.svg	stimuli_distractor_trianglediamonds.svg	5	yes	57	0	520	0	0			0	0			1				0	
6.6.1	win	2023-06-27	21:08:59	21:12:29	204380	54676961fdf99b7ba4d35cd6	4	1	practice_z	5	practice_z	25	stimuli_target_diamondsquares.svg	stimuli_distractor_diamondtriangles.svg	3	yes	0	0	2000	0	0			0	0			1				0	
6.6.1	win	2023-06-27	21:08:59	21:12:29	204380	54676961fdf99b7ba4d35cd6	4	1	practice_z	5	advance_on_keypress_ZEE	26	stimuli_target_diamondsquares.svg	stimuli_distractor_diamondtriangles.svg	3	yes	57	0	553	0	0			0	0			1				0	
6.6.1	win	2023-06-27	21:08:59	21:12:33	208578	54676961fdf99b7ba4d35cd6	4	1	practice_z	5	practice_z	27	stimuli_distractor_diamondtriangles.svg	stimuli_target_diamondrectangles.svg	8	yes	0	0	2000	0	0			0	0			1				0	
6.6.1	win	2023-06-27	21:08:59	21:12:33	208578	54676961fdf99b7ba4d35cd6	4	1	practice_z	5	advance_on_keypress_ZEE	28	stimuli_distractor_diamondtriangles.svg	stimuli_target_diamondrectangles.svg	8	yes	57	0	562	0	0			0	0			1				0	
6.6.1	win	2023-06-27	21:08:59	21:12:38	212796	54676961fdf99b7ba4d35cd6	4	1	practice_z	5	practice_z	29	stimuli_distractor_trianglediamonds.svg	stimuli_target_rectanglediamonds.svg	10	yes	0	0	2000	0	0			0	0			1				0	
6.6.1	win	2023-06-27	21:08:59	21:12:38	212796	54676961fdf99b7ba4d35cd6	4	1	practice_z	5	advance_on_keypress_ZEE	30	stimuli_distractor_trianglediamonds.svg	stimuli_target_rectanglediamonds.svg	10	yes	57	0	139	0	0			0	0			1				0	
6.6.1	win	2023-06-27	21:08:59	21:12:40	215366	54676961fdf99b7ba4d35cd6	4	1	practice_z	5	practice_z	31	stimuli_target_rectanglediamonds.svg	stimuli_distractor_diamondtriangles.svg	1	yes	44	1	787	0	0			0	0			1				0	
6.6.1	win	2023-06-27	21:08:59	21:12:40	215366	54676961fdf99b7ba4d35cd6	4	1	practice_z	5	advance_on_keypress_ZEE	32	stimuli_target_rectanglediamonds.svg	stimuli_distractor_diamondtriangles.svg	1	yes	57	0	817	0	0			0	0			1				0	
6.6.1	win	2023-06-27	21:08:59	21:12:52	227460	54676961fdf99b7ba4d35cd6	4	1	main_z	7	main_z	1	stimuli_target_diamondrectangles.svg	stimuli_distractor_trianglediamonds.svg	19	yes	0	0	2000	0	0			0	0			1				0	
6.6.1	win	2023-06-27	21:08:59	21:12:52	227460	54676961fdf99b7ba4d35cd6	4	1	main_z	7	advance_on_keypress_ZEE	2	stimuli_target_diamondrectangles.svg	stimuli_distractor_trianglediamonds.svg	19	yes	57	0	1886	0	0			0	0			1				0	
6.6.1	win	2023-06-27	21:08:59	21:12:56	231193	54676961fdf99b7ba4d35cd6	4	1	main_z	7	main_z	3	stimuli_distractor_trianglediamonds.svg	stimuli_target_diamondrectangles.svg	27	yes	44	1	1201	0	0			0	0			1				0	
6.6.1	win	2023-06-27	21:08:59	21:12:56	231193	54676961fdf99b7ba4d35cd6	4	1	main_z	7	advance_on_keypress_ZEE	4	stimuli_distractor_trianglediamonds.svg	stimuli_target_diamondrectangles.svg	27	yes	57	0	698	0	0			0	0			1				0	
6.6.1	win	2023-06-27	21:08:59	21:12:59	234542	54676961fdf99b7ba4d35cd6	4	1	main_z	7	main_z	5	stimuli_target_diamondrectangles.svg	stimuli_distractor_diamondtriangles.svg	23	yes	0	0	2000	0	0			0	0			1				0	
6.6.1	win	2023-06-27	21:08:59	21:12:59	234542	54676961fdf99b7ba4d35cd6	4	1	main_z	7	advance_on_keypress_ZEE	6	stimuli_target_diamondrectangles.svg	stimuli_distractor_diamondtriangles.svg	23	yes	57	0	409	0	0			0	0			1				0	
6.6.1	win	2023-06-27	21:08:59	21:13:01	236373	54676961fdf99b7ba4d35cd6	4	1	main_z	7	main_z	7	stimuli_distractor_trianglediamonds.svg	stimuli_distractor_diamondtriangles.svg	36	no	44	0	781	0	0			0	0			1				0	
6.6.1	win	2023-06-27	21:08:59	21:13:01	236373	54676961fdf99b7ba4d35cd6	4	1	main_z	7	advance_on_keypress_ZEE	8	stimuli_distractor_trianglediamonds.svg	stimuli_distractor_diamondtriangles.svg	36	no	57	0	771	0	0			0	0			1				0	
6.6.1	win	2023-06-27	21:08:59	21:13:05	239791	54676961fdf99b7ba4d35cd6	4	1	main_z	7	main_z	9	stimuli_distractor_trianglediamonds.svg	stimuli_distractor_diamondtriangles.svg	35	no	0	1	2000	0	0			0	0			1				0	
6.6.1	win	2023-06-27	21:08:59	21:13:05	239791	54676961fdf99b7ba4d35cd6	4	1	main_z	7	advance_on_keypress_ZEE	10	stimuli_distractor_trianglediamonds.svg	stimuli_distractor_diamondtriangles.svg	35	no	57	0	423	0	0			0	0			1				0	
6.6.1	win	2023-06-27	21:08:59	21:13:06	241750	54676961fdf99b7ba4d35cd6	4	1	main_z	7	main_z	11	stimuli_distractor_trianglediamonds.svg	stimuli_target_squaretriangles.svg	11	yes	44	1	874	0	0			0	0			1				0	
6.6.1	win	2023-06-27	21:08:59	21:13:06	241750	54676961fdf99b7ba4d35cd6	4	1	main_z	7	advance_on_keypress_ZEE	12	stimuli_distractor_trianglediamonds.svg	stimuli_target_squaretriangles.svg	11	yes	57	0	557	0	0			0	0			1				0	
6.6.1	win	2023-06-27	21:08:59	21:13:10	244906	54676961fdf99b7ba4d35cd6	4	1	main_z	7	main_z	13	stimuli_target_trianglesquares.svg	stimuli_distractor_trianglediamonds.svg	18	yes	44	1	1964	0	0			0	0			1				0	
6.6.1	win	2023-06-27	21:08:59	21:13:10	244906	54676961fdf99b7ba4d35cd6	4	1	main_z	7	advance_on_keypress_ZEE	14	stimuli_target_trianglesquares.svg	stimuli_distractor_trianglediamonds.svg	18	yes	57	0	608	0	0			0	0			1				0	
6.6.1	win	2023-06-27	21:08:59	21:13:13	248175	54676961fdf99b7ba4d35cd6	4	1	main_z	7	main_z	15	stimuli_distractor_diamondtriangles.svg	stimuli_target_diamondrectangles.svg	31	yes	0	0	2000	0	0			0	0			1				0	
6.6.1	win	2023-06-27	21:08:59	21:13:13	248175	54676961fdf99b7ba4d35cd6	4	1	main_z	7	advance_on_keypress_ZEE	16	stimuli_distractor_diamondtriangles.svg	stimuli_target_diamondrectangles.svg	31	yes	57	0	520	0	0			0	0			1				0	
6.6.1	win	2023-06-27	21:08:59	21:13:16	251342	54676961fdf99b7ba4d35cd6	4	1	main_z	7	main_z	17	stimuli_target_trianglerectangles.svg	stimuli_distractor_diamondtriangles.svg	21	yes	0	0	2000	0	0			0	0			1				0	
6.6.1	win	2023-06-27	21:08:59	21:13:16	251342	54676961fdf99b7ba4d35cd6	4	1	main_z	7	advance_on_keypress_ZEE	18	stimuli_target_trianglerectangles.svg	stimuli_distractor_diamondtriangles.svg	21	yes	57	0	348	0	0			0	0			1				0	
6.6.1	win	2023-06-27	21:08:59	21:13:18	253096	54676961fdf99b7ba4d35cd6	4	1	main_z	7	main_z	19	stimuli_target_rectangletriangles.svg	stimuli_distractor_trianglediamonds.svg	1	yes	44	1	754	0	0			0	0			1				0	
6.6.1	win	2023-06-27	21:08:59	21:13:18	253096	54676961fdf99b7ba4d35cd6	4	1	main_z	7	advance_on_keypress_ZEE	20	stimuli_target_rectangletriangles.svg	stimuli_distractor_trianglediamonds.svg	1	yes	57	0	676	0	0			0	0			1				0	
6.6.1	win	2023-06-27	21:08:59	21:13:20	255548	54676961fdf99b7ba4d35cd6	4	1	main_z	7	main_z	21	stimuli_distractor_trianglediamonds.svg	stimuli_target_diamondsquares.svg	28	yes	44	1	1141	0	0			0	0			1				0	
6.6.1	win	2023-06-27	21:08:59	21:13:20	255548	54676961fdf99b7ba4d35cd6	4	1	main_z	7	advance_on_keypress_ZEE	22	stimuli_distractor_trianglediamonds.svg	stimuli_target_diamondsquares.svg	28	yes	57	0	308	0	0			0	0			1				0	
6.6.1	win	2023-06-27	21:08:59	21:13:23	257832	54676961fdf99b7ba4d35cd6	4	1	main_z	7	main_z	23	stimuli_target_squaretriangles.svg	stimuli_distractor_diamondtriangles.svg	7	yes	44	1	1340	0	0			0	0			1				0	
6.6.1	win	2023-06-27	21:08:59	21:13:23	257832	54676961fdf99b7ba4d35cd6	4	1	main_z	7	advance_on_keypress_ZEE	24	stimuli_target_squaretriangles.svg	stimuli_distractor_diamondtriangles.svg	7	yes	57	0	334	0	0			0	0			1				0	
6.6.1	win	2023-06-27	21:08:59	21:13:26	260770	54676961fdf99b7ba4d35cd6	4	1	main_z	7	main_z	25	stimuli_distractor_trianglediamonds.svg	stimuli_target_rectangletriangles.svg	9	yes	44	1	1946	0	0			0	0			1				0	
6.6.1	win	2023-06-27	21:08:59	21:13:26	260770	54676961fdf99b7ba4d35cd6	4	1	main_z	7	advance_on_keypress_ZEE	26	stimuli_distractor_trianglediamonds.svg	stimuli_target_rectangletriangles.svg	9	yes	57	0	563	0	0			0	0			1				0	
6.6.1	win	2023-06-27	21:08:59	21:13:29	263991	54676961fdf99b7ba4d35cd6	4	1	main_z	7	main_z	27	stimuli_distractor_trianglediamonds.svg	stimuli_distractor_trianglediamonds.svg	34	no	0	1	2000	0	0			0	0			1				0	
6.6.1	win	2023-06-27	21:08:59	21:13:29	263991	54676961fdf99b7ba4d35cd6	4	1	main_z	7	advance_on_keypress_ZEE	28	stimuli_distractor_trianglediamonds.svg	stimuli_distractor_trianglediamonds.svg	34	no	57	0	479	0	0			0	0			1				0	
6.6.1	win	2023-06-27	21:08:59	21:13:32	267124	54676961fdf99b7ba4d35cd6	4	1	main_z	7	main_z	29	stimuli_target_diamondsquares.svg	stimuli_distractor_diamondtriangles.svg	24	yes	0	0	2000	0	0			0	0			1				0	
6.6.1	win	2023-06-27	21:08:59	21:13:32	267124	54676961fdf99b7ba4d35cd6	4	1	main_z	7	advance_on_keypress_ZEE	30	stimuli_target_diamondsquares.svg	stimuli_distractor_diamondtriangles.svg	24	yes	57	0	361	0	0			0	0			1				0	
6.6.1	win	2023-06-27	21:08:59	21:13:34	269039	54676961fdf99b7ba4d35cd6	4	1	main_z	7	main_z	31	stimuli_target_rectanglediamonds.svg	stimuli_distractor_diamondtriangles.svg	6	yes	44	1	899	0	0			0	0			1				0	
6.6.1	win	2023-06-27	21:08:59	21:13:34	269039	54676961fdf99b7ba4d35cd6	4	1	main_z	7	advance_on_keypress_ZEE	32	stimuli_target_rectanglediamonds.svg	stimuli_distractor_diamondtriangles.svg	6	yes	57	0	3816	0	0			0	0			1				0	
6.6.1	win	2023-06-27	21:08:59	21:13:40	275507	54676961fdf99b7ba4d35cd6	4	1	main_z	7	main_z	33	stimuli_distractor_trianglediamonds.svg	stimuli_target_trianglerectangles.svg	25	yes	0	0	2000	0	0			0	0			1				0	
6.6.1	win	2023-06-27	21:08:59	21:13:40	275507	54676961fdf99b7ba4d35cd6	4	1	main_z	7	advance_on_keypress_ZEE	34	stimuli_distractor_trianglediamonds.svg	stimuli_target_trianglerectangles.svg	25	yes	57	0	1397	0	0			0	0			1				0	
6.6.1	win	2023-06-27	21:08:59	21:13:43	278285	54676961fdf99b7ba4d35cd6	4	1	main_z	7	main_z	35	stimuli_distractor_diamondtriangles.svg	stimuli_target_rectangletriangles.svg	13	yes	44	1	728	0	0			0	0			1				0	
6.6.1	win	2023-06-27	21:08:59	21:13:43	278285	54676961fdf99b7ba4d35cd6	4	1	main_z	7	advance_on_keypress_ZEE	36	stimuli_distractor_diamondtriangles.svg	stimuli_target_rectangletriangles.svg	13	yes	57	0	1331	0	0			0	0			1				0	
6.6.1	win	2023-06-27	21:08:59	21:13:46	281171	54676961fdf99b7ba4d35cd6	4	1	main_z	7	main_z	37	stimuli_target_rectanglediamonds.svg	stimuli_distractor_trianglediamonds.svg	2	yes	44	1	897	0	0			0	0			1				0	
6.6.1	win	2023-06-27	21:08:59	21:13:46	281171	54676961fdf99b7ba4d35cd6	4	1	main_z	7	advance_on_keypress_ZEE	38	stimuli_target_rectanglediamonds.svg	stimuli_distractor_trianglediamonds.svg	2	yes	57	0	775	0	0			0	0			1				0	
6.6.1	win	2023-06-27	21:08:59	21:13:48	283632	54676961fdf99b7ba4d35cd6	4	1	main_z	7	main_z	39	stimuli_distractor_diamondtriangles.svg	stimuli_distractor_trianglediamonds.svg	37	no	44	0	1042	0	0			0	0			1				0	
6.6.1	win	2023-06-27	21:08:59	21:13:48	283632	54676961fdf99b7ba4d35cd6	4	1	main_z	7	advance_on_keypress_ZEE	40	stimuli_distractor_diamondtriangles.svg	stimuli_distractor_trianglediamonds.svg	37	no	57	0	1725	0	0			0	0			1				0	
6.6.1	win	2023-06-27	21:08:59	21:13:53	287989	54676961fdf99b7ba4d35cd6	4	1	main_z	7	main_z	41	stimuli_distractor_trianglediamonds.svg	stimuli_target_trianglesquares.svg	26	yes	0	0	2000	0	0			0	0			1				0	
6.6.1	win	2023-06-27	21:08:59	21:13:53	287989	54676961fdf99b7ba4d35cd6	4	1	main_z	7	advance_on_keypress_ZEE	42	stimuli_distractor_trianglediamonds.svg	stimuli_target_trianglesquares.svg	26	yes	57	0	302	0	0			0	0			1				0	
6.6.1	win	2023-06-27	21:08:59	21:13:54	289737	54676961fdf99b7ba4d35cd6	4	1	main_z	7	main_z	43	stimuli_distractor_diamondtriangles.svg	stimuli_target_rectanglediamonds.svg	14	yes	44	1	798	0	0			0	0			1				0	
6.6.1	win	2023-06-27	21:08:59	21:13:54	289737	54676961fdf99b7ba4d35cd6	4	1	main_z	7	advance_on_keypress_ZEE	44	stimuli_distractor_diamondtriangles.svg	stimuli_target_rectanglediamonds.svg	14	yes	57	0	516	0	0			0	0			1				0	
6.6.1	win	2023-06-27	21:08:59	21:13:57	291975	54676961fdf99b7ba4d35cd6	4	1	main_z	7	main_z	45	stimuli_distractor_diamondtriangles.svg	stimuli_target_squaretriangles.svg	15	yes	44	1	1069	0	0			0	0			1				0	
6.6.1	win	2023-06-27	21:08:59	21:13:57	291975	54676961fdf99b7ba4d35cd6	4	1	main_z	7	advance_on_keypress_ZEE	46	stimuli_distractor_diamondtriangles.svg	stimuli_target_squaretriangles.svg	15	yes	57	0	285	0	0			0	0			1				0	
6.6.1	win	2023-06-27	21:08:59	21:13:59	294541	54676961fdf99b7ba4d35cd6	4	1	main_z	7	main_z	47	stimuli_target_trianglerectangles.svg	stimuli_distractor_trianglediamonds.svg	17	yes	44	1	1634	0	0			0	0			1				0	
6.6.1	win	2023-06-27	21:08:59	21:13:59	294541	54676961fdf99b7ba4d35cd6	4	1	main_z	7	advance_on_keypress_ZEE	48	stimuli_target_trianglerectangles.svg	stimuli_distractor_trianglediamonds.svg	17	yes	57	0	1100	0	0			0	0			1				0	
6.6.1	win	2023-06-27	21:08:59	21:14:02	297500	54676961fdf99b7ba4d35cd6	4	1	main_z	7	main_z	49	stimuli_distractor_trianglediamonds.svg	stimuli_target_rectanglediamonds.svg	10	yes	44	1	1212	0	0			0	0			1				0	
6.6.1	win	2023-06-27	21:08:59	21:14:02	297500	54676961fdf99b7ba4d35cd6	4	1	main_z	7	advance_on_keypress_ZEE	50	stimuli_distractor_trianglediamonds.svg	stimuli_target_rectanglediamonds.svg	10	yes	57	0	431	0	0			0	0			1				0	
6.6.1	win	2023-06-27	21:08:59	21:14:05	299929	54676961fdf99b7ba4d35cd6	4	1	main_z	7	main_z	51	stimuli_distractor_diamondtriangles.svg	stimuli_target_trianglerectangles.svg	29	yes	44	1	1340	0	0			0	0			1				0	
6.6.1	win	2023-06-27	21:08:59	21:14:05	299929	54676961fdf99b7ba4d35cd6	4	1	main_z	7	advance_on_keypress_ZEE	52	stimuli_distractor_diamondtriangles.svg	stimuli_target_trianglerectangles.svg	29	yes	57	0	265	0	0			0	0			1				0	
6.6.1	win	2023-06-27	21:08:59	21:14:06	301682	54676961fdf99b7ba4d35cd6	4	1	main_z	7	main_z	53	stimuli_target_squaretriangles.svg	stimuli_distractor_trianglediamonds.svg	3	yes	44	1	841	0	0			0	0			1				0	
6.6.1	win	2023-06-27	21:08:59	21:14:06	301682	54676961fdf99b7ba4d35cd6	4	1	main_z	7	advance_on_keypress_ZEE	54	stimuli_target_squaretriangles.svg	stimuli_distractor_trianglediamonds.svg	3	yes	57	0	276	0	0			0	0			1				0	
6.6.1	win	2023-06-27	21:08:59	21:14:09	304588	54676961fdf99b7ba4d35cd6	4	1	main_z	7	main_z	55	stimuli_target_diamondsquares.svg	stimuli_distractor_trianglediamonds.svg	20	yes	0	0	2000	0	0			0	0			1				0	
6.6.1	win	2023-06-27	21:08:59	21:14:09	304588	54676961fdf99b7ba4d35cd6	4	1	main_z	7	advance_on_keypress_ZEE	56	stimuli_target_diamondsquares.svg	stimuli_distractor_trianglediamonds.svg	20	yes	57	0	1101	0	0			0	0			1				0	
6.6.1	win	2023-06-27	21:08:59	21:14:13	308339	54676961fdf99b7ba4d35cd6	4	1	main_z	7	main_z	57	stimuli_distractor_diamondtriangles.svg	stimuli_distractor_diamondtriangles.svg	39	no	0	1	2000	0	0			0	0			1				0	
6.6.1	win	2023-06-27	21:08:59	21:14:13	308339	54676961fdf99b7ba4d35cd6	4	1	main_z	7	advance_on_keypress_ZEE	58	stimuli_distractor_diamondtriangles.svg	stimuli_distractor_diamondtriangles.svg	39	no	57	0	296	0	0			0	0			1				0	
6.6.1	win	2023-06-27	21:08:59	21:14:15	310045	54676961fdf99b7ba4d35cd6	4	1	main_z	7	main_z	59	stimuli_distractor_trianglediamonds.svg	stimuli_target_squarediamonds.svg	12	yes	44	1	756	0	0			0	0			1				0	
6.6.1	win	2023-06-27	21:08:59	21:14:15	310045	54676961fdf99b7ba4d35cd6	4	1	main_z	7	advance_on_keypress_ZEE	60	stimuli_distractor_trianglediamonds.svg	stimuli_target_squarediamonds.svg	12	yes	57	0	578	0	0			0	0			1				0	
6.6.1	win	2023-06-27	21:08:59	21:14:17	312552	54676961fdf99b7ba4d35cd6	4	1	main_z	7	main_z	61	stimuli_target_squarediamonds.svg	stimuli_distractor_trianglediamonds.svg	4	yes	44	1	1280	0	0			0	0			1				0	
6.6.1	win	2023-06-27	21:08:59	21:14:17	312552	54676961fdf99b7ba4d35cd6	4	1	main_z	7	advance_on_keypress_ZEE	62	stimuli_target_squarediamonds.svg	stimuli_distractor_trianglediamonds.svg	4	yes	57	0	321	0	0			0	0			1				0	
6.6.1	win	2023-06-27	21:08:59	21:14:19	314458	54676961fdf99b7ba4d35cd6	4	1	main_z	7	main_z	63	stimuli_distractor_diamondtriangles.svg	stimuli_target_squarediamonds.svg	16	yes	44	1	936	0	0			0	0			1				0	
6.6.1	win	2023-06-27	21:08:59	21:14:19	314458	54676961fdf99b7ba4d35cd6	4	1	main_z	7	advance_on_keypress_ZEE	64	stimuli_distractor_diamondtriangles.svg	stimuli_target_squarediamonds.svg	16	yes	57	0	286	0	0			0	0			1				0	
6.6.1	win	2023-06-27	21:08:59	21:14:22	317389	54676961fdf99b7ba4d35cd6	4	1	main_z	7	main_z	65	stimuli_target_rectangletriangles.svg	stimuli_distractor_diamondtriangles.svg	5	yes	0	0	2000	0	0			0	0			1				0	
6.6.1	win	2023-06-27	21:08:59	21:14:22	317389	54676961fdf99b7ba4d35cd6	4	1	main_z	7	advance_on_keypress_ZEE	66	stimuli_target_rectangletriangles.svg	stimuli_distractor_diamondtriangles.svg	5	yes	57	0	372	0	0			0	0			1				0	
6.6.1	win	2023-06-27	21:08:59	21:14:25	320405	54676961fdf99b7ba4d35cd6	4	1	main_z	7	main_z	67	stimuli_distractor_trianglediamonds.svg	stimuli_distractor_trianglediamonds.svg	33	no	0	1	2000	0	0			0	0			1				0	
6.6.1	win	2023-06-27	21:08:59	21:14:25	320405	54676961fdf99b7ba4d35cd6	4	1	main_z	7	advance_on_keypress_ZEE	68	stimuli_distractor_trianglediamonds.svg	stimuli_distractor_trianglediamonds.svg	33	no	57	0	313	0	0			0	0			1				0	
6.6.1	win	2023-06-27	21:08:59	21:14:28	323372	54676961fdf99b7ba4d35cd6	4	1	main_z	7	main_z	69	stimuli_distractor_diamondtriangles.svg	stimuli_target_diamondsquares.svg	32	yes	0	0	2000	0	0			0	0			1				0	
6.6.1	win	2023-06-27	21:08:59	21:14:28	323372	54676961fdf99b7ba4d35cd6	4	1	main_z	7	advance_on_keypress_ZEE	70	stimuli_distractor_diamondtriangles.svg	stimuli_target_diamondsquares.svg	32	yes	57	0	371	0	0			0	0			1				0	
6.6.1	win	2023-06-27	21:08:59	21:14:30	325293	54676961fdf99b7ba4d35cd6	4	1	main_z	7	main_z	71	stimuli_distractor_diamondtriangles.svg	stimuli_distractor_trianglediamonds.svg	38	no	44	0	905	0	0			0	0			1				0	
6.6.1	win	2023-06-27	21:08:59	21:14:30	325293	54676961fdf99b7ba4d35cd6	4	1	main_z	7	advance_on_keypress_ZEE	72	stimuli_distractor_diamondtriangles.svg	stimuli_distractor_trianglediamonds.svg	38	no	57	0	1253	0	0			0	0			1				0	
6.6.1	win	2023-06-27	21:08:59	21:14:33	328123	54676961fdf99b7ba4d35cd6	4	1	main_z	7	main_z	73	stimuli_target_squarediamonds.svg	stimuli_distractor_diamondtriangles.svg	8	yes	44	1	935	0	0			0	0			1				0	
6.6.1	win	2023-06-27	21:08:59	21:14:33	328123	54676961fdf99b7ba4d35cd6	4	1	main_z	7	advance_on_keypress_ZEE	74	stimuli_target_squarediamonds.svg	stimuli_distractor_diamondtriangles.svg	8	yes	57	0	427	0	0			0	0			1				0	
6.6.1	win	2023-06-27	21:08:59	21:14:36	331188	54676961fdf99b7ba4d35cd6	4	1	main_z	7	main_z	75	stimuli_distractor_diamondtriangles.svg	stimuli_distractor_diamondtriangles.svg	40	no	0	1	2000	0	0			0	0			1				0	
6.6.1	win	2023-06-27	21:08:59	21:14:36	331188	54676961fdf99b7ba4d35cd6	4	1	main_z	7	advance_on_keypress_ZEE	76	stimuli_distractor_diamondtriangles.svg	stimuli_distractor_diamondtriangles.svg	40	no	57	0	700	0	0			0	0			1				0	
6.6.1	win	2023-06-27	21:08:59	21:14:39	334538	54676961fdf99b7ba4d35cd6	4	1	main_z	7	main_z	77	stimuli_distractor_diamondtriangles.svg	stimuli_target_trianglesquares.svg	30	yes	0	0	2000	0	0			0	0			1				0	
6.6.1	win	2023-06-27	21:08:59	21:14:39	334538	54676961fdf99b7ba4d35cd6	4	1	main_z	7	advance_on_keypress_ZEE	78	stimuli_distractor_diamondtriangles.svg	stimuli_target_trianglesquares.svg	30	yes	57	0	297	0	0			0	0			1				0	
6.6.1	win	2023-06-27	21:08:59	21:14:41	336095	54676961fdf99b7ba4d35cd6	4	1	main_z	7	main_z	79	stimuli_target_trianglesquares.svg	stimuli_distractor_diamondtriangles.svg	22	yes	44	1	609	0	0			0	0			1				0	
6.6.1	win	2023-06-27	21:08:59	21:14:41	336095	54676961fdf99b7ba4d35cd6	4	1	main_z	7	advance_on_keypress_ZEE	80	stimuli_target_trianglesquares.svg	stimuli_distractor_diamondtriangles.svg	22	yes	57	0	1397	0	0			0	0			1				0	
6.6.1	win	2023-06-27	21:08:59	21:14:44	338986	54676961fdf99b7ba4d35cd6	4	1	main_z	7	main_z	81	stimuli_distractor_trianglediamonds.svg	stimuli_target_squaretriangles.svg	11	yes	44	1	849	0	0			0	0			1				0	
6.6.1	win	2023-06-27	21:08:59	21:14:44	338986	54676961fdf99b7ba4d35cd6	4	1	main_z	7	advance_on_keypress_ZEE	82	stimuli_distractor_trianglediamonds.svg	stimuli_target_squaretriangles.svg	11	yes	57	0	401	0	0			0	0			1				0	
6.6.1	win	2023-06-27	21:08:59	21:14:47	342037	54676961fdf99b7ba4d35cd6	4	1	main_z	7	main_z	83	stimuli_distractor_trianglediamonds.svg	stimuli_distractor_diamondtriangles.svg	36	no	0	1	2000	0	0			0	0			1				0	
6.6.1	win	2023-06-27	21:08:59	21:14:47	342037	54676961fdf99b7ba4d35cd6	4	1	main_z	7	advance_on_keypress_ZEE	84	stimuli_distractor_trianglediamonds.svg	stimuli_distractor_diamondtriangles.svg	36	no	57	0	438	0	0			0	0			1				0	
6.6.1	win	2023-06-27	21:08:59	21:14:49	344259	54676961fdf99b7ba4d35cd6	4	1	main_z	7	main_z	85	stimuli_distractor_diamondtriangles.svg	stimuli_target_diamondrectangles.svg	31	yes	44	1	1139	0	0			0	0			1				0	
6.6.1	win	2023-06-27	21:08:59	21:14:49	344259	54676961fdf99b7ba4d35cd6	4	1	main_z	7	advance_on_keypress_ZEE	86	stimuli_distractor_diamondtriangles.svg	stimuli_target_diamondrectangles.svg	31	yes	57	0	380	0	0			0	0			1				0	
6.6.1	win	2023-06-27	21:08:59	21:14:52	347287	54676961fdf99b7ba4d35cd6	4	1	main_z	7	main_z	87	stimuli_target_rectanglediamonds.svg	stimuli_distractor_diamondtriangles.svg	6	yes	0	0	2000	0	0			0	0			1				0	
6.6.1	win	2023-06-27	21:08:59	21:14:52	347287	54676961fdf99b7ba4d35cd6	4	1	main_z	7	advance_on_keypress_ZEE	88	stimuli_target_rectanglediamonds.svg	stimuli_distractor_diamondtriangles.svg	6	yes	57	0	512	0	0			0	0			1				0	
6.6.1	win	2023-06-27	21:08:59	21:14:54	349621	54676961fdf99b7ba4d35cd6	4	1	main_z	7	main_z	89	stimuli_target_squarediamonds.svg	stimuli_distractor_diamondtriangles.svg	8	yes	44	1	1167	0	0			0	0			1				0	
6.6.1	win	2023-06-27	21:08:59	21:14:54	349621	54676961fdf99b7ba4d35cd6	4	1	main_z	7	advance_on_keypress_ZEE	90	stimuli_target_squarediamonds.svg	stimuli_distractor_diamondtriangles.svg	8	yes	57	0	465	0	0			0	0			1				0	
6.6.1	win	2023-06-27	21:08:59	21:14:57	352150	54676961fdf99b7ba4d35cd6	4	1	main_z	7	main_z	91	stimuli_target_diamondrectangles.svg	stimuli_distractor_diamondtriangles.svg	23	yes	44	1	1412	0	0			0	0			1				0	
6.6.1	win	2023-06-27	21:08:59	21:14:57	352150	54676961fdf99b7ba4d35cd6	4	1	main_z	7	advance_on_keypress_ZEE	92	stimuli_target_diamondrectangles.svg	stimuli_distractor_diamondtriangles.svg	23	yes	57	0	396	0	0			0	0			1				0	
6.6.1	win	2023-06-27	21:08:59	21:14:59	354127	54676961fdf99b7ba4d35cd6	4	1	main_z	7	main_z	93	stimuli_target_rectangletriangles.svg	stimuli_distractor_diamondtriangles.svg	5	yes	44	1	923	0	0			0	0			1				0	
6.6.1	win	2023-06-27	21:08:59	21:14:59	354127	54676961fdf99b7ba4d35cd6	4	1	main_z	7	advance_on_keypress_ZEE	94	stimuli_target_rectangletriangles.svg	stimuli_distractor_diamondtriangles.svg	5	yes	57	0	1113	0	0			0	0			1				0	
6.6.1	win	2023-06-27	21:08:59	21:15:03	357887	54676961fdf99b7ba4d35cd6	4	1	main_z	7	main_z	95	stimuli_distractor_trianglediamonds.svg	stimuli_target_diamondsquares.svg	28	yes	0	0	2000	0	0			0	0			1				0	
6.6.1	win	2023-06-27	21:08:59	21:15:03	357887	54676961fdf99b7ba4d35cd6	4	1	main_z	7	advance_on_keypress_ZEE	96	stimuli_distractor_trianglediamonds.svg	stimuli_target_diamondsquares.svg	28	yes	57	0	755	0	0			0	0			1				0	
6.6.1	win	2023-06-27	21:08:59	21:15:06	361286	54676961fdf99b7ba4d35cd6	4	1	main_z	7	main_z	97	stimuli_target_diamondsquares.svg	stimuli_distractor_diamondtriangles.svg	24	yes	0	0	2000	0	0			0	0			1				0	
6.6.1	win	2023-06-27	21:08:59	21:15:06	361286	54676961fdf99b7ba4d35cd6	4	1	main_z	7	advance_on_keypress_ZEE	98	stimuli_target_diamondsquares.svg	stimuli_distractor_diamondtriangles.svg	24	yes	57	0	655	0	0			0	0			1				0	
6.6.1	win	2023-06-27	21:08:59	21:15:09	364585	54676961fdf99b7ba4d35cd6	4	1	main_z	7	main_z	99	stimuli_target_squaretriangles.svg	stimuli_distractor_trianglediamonds.svg	3	yes	0	0	2000	0	0			0	0			1				0	
6.6.1	win	2023-06-27	21:08:59	21:15:09	364585	54676961fdf99b7ba4d35cd6	4	1	main_z	7	advance_on_keypress_ZEE	100	stimuli_target_squaretriangles.svg	stimuli_distractor_trianglediamonds.svg	3	yes	57	0	1315	0	0			0	0			1				0	
6.6.1	win	2023-06-27	21:08:59	21:15:13	368552	54676961fdf99b7ba4d35cd6	4	1	main_z	7	main_z	101	stimuli_distractor_diamondtriangles.svg	stimuli_distractor_trianglediamonds.svg	38	no	0	1	2000	0	0			0	0			1				0	
6.6.1	win	2023-06-27	21:08:59	21:15:13	368552	54676961fdf99b7ba4d35cd6	4	1	main_z	7	advance_on_keypress_ZEE	102	stimuli_distractor_diamondtriangles.svg	stimuli_distractor_trianglediamonds.svg	38	no	57	0	762	0	0			0	0			1				0	
6.6.1	win	2023-06-27	21:08:59	21:15:17	371969	54676961fdf99b7ba4d35cd6	4	1	main_z	7	main_z	103	stimuli_distractor_trianglediamonds.svg	stimuli_distractor_diamondtriangles.svg	35	no	0	1	2000	0	0			0	0			1				0	
6.6.1	win	2023-06-27	21:08:59	21:15:17	371969	54676961fdf99b7ba4d35cd6	4	1	main_z	7	advance_on_keypress_ZEE	104	stimuli_distractor_trianglediamonds.svg	stimuli_distractor_diamondtriangles.svg	35	no	57	0	771	0	0			0	0			1				0	
6.6.1	win	2023-06-27	21:08:59	21:15:20	375385	54676961fdf99b7ba4d35cd6	4	1	main_z	7	main_z	105	stimuli_distractor_trianglediamonds.svg	stimuli_target_rectanglediamonds.svg	10	yes	0	0	2000	0	0			0	0			1				0	
6.6.1	win	2023-06-27	21:08:59	21:15:20	375385	54676961fdf99b7ba4d35cd6	4	1	main_z	7	advance_on_keypress_ZEE	106	stimuli_distractor_trianglediamonds.svg	stimuli_target_rectanglediamonds.svg	10	yes	57	0	783	0	0			0	0			1				0	
6.6.1	win	2023-06-27	21:08:59	21:15:23	377764	54676961fdf99b7ba4d35cd6	4	1	main_z	7	main_z	107	stimuli_target_trianglerectangles.svg	stimuli_distractor_diamondtriangles.svg	21	yes	44	1	946	0	0			0	0			1				0	
6.6.1	win	2023-06-27	21:08:59	21:15:23	377764	54676961fdf99b7ba4d35cd6	4	1	main_z	7	advance_on_keypress_ZEE	108	stimuli_target_trianglerectangles.svg	stimuli_distractor_diamondtriangles.svg	21	yes	57	0	1002	0	0			0	0			1				0	
6.6.1	win	2023-06-27	21:08:59	21:15:25	380137	54676961fdf99b7ba4d35cd6	4	1	main_z	7	main_z	109	stimuli_target_rectangletriangles.svg	stimuli_distractor_trianglediamonds.svg	1	yes	44	1	718	0	0			0	0			1				0	
6.6.1	win	2023-06-27	21:08:59	21:15:25	380137	54676961fdf99b7ba4d35cd6	4	1	main_z	7	advance_on_keypress_ZEE	110	stimuli_target_rectangletriangles.svg	stimuli_distractor_trianglediamonds.svg	1	yes	57	0	1133	0	0			0	0			1				0	
6.6.1	win	2023-06-27	21:08:59	21:15:28	382851	54676961fdf99b7ba4d35cd6	4	1	main_z	7	main_z	111	stimuli_distractor_diamondtriangles.svg	stimuli_target_squaretriangles.svg	15	yes	44	1	933	0	0			0	0			1				0	
6.6.1	win	2023-06-27	21:08:59	21:15:28	382851	54676961fdf99b7ba4d35cd6	4	1	main_z	7	advance_on_keypress_ZEE	112	stimuli_distractor_diamondtriangles.svg	stimuli_target_squaretriangles.svg	15	yes	57	0	595	0	0			0	0			1				0	
6.6.1	win	2023-06-27	21:08:59	21:15:30	385661	54676961fdf99b7ba4d35cd6	4	1	main_z	7	main_z	113	stimuli_distractor_trianglediamonds.svg	stimuli_target_squarediamonds.svg	12	yes	44	1	1576	0	0			0	0			1				0	
6.6.1	win	2023-06-27	21:08:59	21:15:30	385661	54676961fdf99b7ba4d35cd6	4	1	main_z	7	advance_on_keypress_ZEE	114	stimuli_distractor_trianglediamonds.svg	stimuli_target_squarediamonds.svg	12	yes	57	0	509	0	0			0	0			1				0	
6.6.1	win	2023-06-27	21:08:59	21:15:34	388801	54676961fdf99b7ba4d35cd6	4	1	main_z	7	main_z	115	stimuli_distractor_diamondtriangles.svg	stimuli_target_trianglesquares.svg	30	yes	0	0	2000	0	0			0	0			1				0	
6.6.1	win	2023-06-27	21:08:59	21:15:34	388801	54676961fdf99b7ba4d35cd6	4	1	main_z	7	advance_on_keypress_ZEE	116	stimuli_distractor_diamondtriangles.svg	stimuli_target_trianglesquares.svg	30	yes	57	0	360	0	0			0	0			1				0	
6.6.1	win	2023-06-27	21:08:59	21:15:37	391801	54676961fdf99b7ba4d35cd6	4	1	main_z	7	main_z	117	stimuli_distractor_diamondtriangles.svg	stimuli_distractor_diamondtriangles.svg	40	no	0	1	2000	0	0			0	0			1				0	
6.6.1	win	2023-06-27	21:08:59	21:15:37	391801	54676961fdf99b7ba4d35cd6	4	1	main_z	7	advance_on_keypress_ZEE	118	stimuli_distractor_diamondtriangles.svg	stimuli_distractor_diamondtriangles.svg	40	no	57	0	742	0	0			0	0			1				0	
6.6.1	win	2023-06-27	21:08:59	21:15:40	394770	54676961fdf99b7ba4d35cd6	4	1	main_z	7	main_z	119	stimuli_target_diamondrectangles.svg	stimuli_distractor_trianglediamonds.svg	19	yes	44	1	1586	0	0			0	0			1				0	
6.6.1	win	2023-06-27	21:08:59	21:15:40	394770	54676961fdf99b7ba4d35cd6	4	1	main_z	7	advance_on_keypress_ZEE	120	stimuli_target_diamondrectangles.svg	stimuli_distractor_trianglediamonds.svg	19	yes	57	0	1250	0	0			0	0			1				0	
6.6.1	win	2023-06-27	21:08:59	21:15:43	398668	54676961fdf99b7ba4d35cd6	4	1	main_z	7	main_z	121	stimuli_distractor_trianglediamonds.svg	stimuli_distractor_trianglediamonds.svg	34	no	0	1	2000	0	0			0	0			1				0	
6.6.1	win	2023-06-27	21:08:59	21:15:43	398668	54676961fdf99b7ba4d35cd6	4	1	main_z	7	advance_on_keypress_ZEE	122	stimuli_distractor_trianglediamonds.svg	stimuli_distractor_trianglediamonds.svg	34	no	57	0	544	0	0			0	0			1				0	
6.6.1	win	2023-06-27	21:08:59	21:15:47	401851	54676961fdf99b7ba4d35cd6	4	1	main_z	7	main_z	123	stimuli_distractor_diamondtriangles.svg	stimuli_distractor_diamondtriangles.svg	39	no	0	1	2000	0	0			0	0			1				0	
6.6.1	win	2023-06-27	21:08:59	21:15:47	401851	54676961fdf99b7ba4d35cd6	4	1	main_z	7	advance_on_keypress_ZEE	124	stimuli_distractor_diamondtriangles.svg	stimuli_distractor_diamondtriangles.svg	39	no	57	0	668	0	0			0	0			1				0	
6.6.1	win	2023-06-27	21:08:59	21:15:49	404036	54676961fdf99b7ba4d35cd6	4	1	main_z	7	main_z	125	stimuli_target_squarediamonds.svg	stimuli_distractor_trianglediamonds.svg	4	yes	44	1	868	0	0			0	0			1				0	
6.6.1	win	2023-06-27	21:08:59	21:15:49	404036	54676961fdf99b7ba4d35cd6	4	1	main_z	7	advance_on_keypress_ZEE	126	stimuli_target_squarediamonds.svg	stimuli_distractor_trianglediamonds.svg	4	yes	57	0	1304	0	0			0	0			1				0	
6.6.1	win	2023-06-27	21:08:59	21:15:52	406954	54676961fdf99b7ba4d35cd6	4	1	main_z	7	main_z	127	stimuli_target_squaretriangles.svg	stimuli_distractor_diamondtriangles.svg	7	yes	44	1	970	0	0			0	0			1				0	
6.6.1	win	2023-06-27	21:08:59	21:15:52	406954	54676961fdf99b7ba4d35cd6	4	1	main_z	7	advance_on_keypress_ZEE	128	stimuli_target_squaretriangles.svg	stimuli_distractor_diamondtriangles.svg	7	yes	57	0	815	0	0			0	0			1				0	
6.6.1	win	2023-06-27	21:08:59	21:15:55	410417	54676961fdf99b7ba4d35cd6	4	1	main_z	7	main_z	129	stimuli_distractor_diamondtriangles.svg	stimuli_target_trianglerectangles.svg	29	yes	0	0	2000	0	0			0	0			1				0	
6.6.1	win	2023-06-27	21:08:59	21:15:55	410417	54676961fdf99b7ba4d35cd6	4	1	main_z	7	advance_on_keypress_ZEE	130	stimuli_distractor_diamondtriangles.svg	stimuli_target_trianglerectangles.svg	29	yes	57	0	605	0	0			0	0			1				0	
6.6.1	win	2023-06-27	21:08:59	21:15:57	412656	54676961fdf99b7ba4d35cd6	4	1	main_z	7	main_z	131	stimuli_distractor_diamondtriangles.svg	stimuli_target_diamondsquares.svg	32	yes	44	1	990	0	0			0	0			1				0	
6.6.1	win	2023-06-27	21:08:59	21:15:57	412656	54676961fdf99b7ba4d35cd6	4	1	main_z	7	advance_on_keypress_ZEE	132	stimuli_distractor_diamondtriangles.svg	stimuli_target_diamondsquares.svg	32	yes	57	0	447	0	0			0	0			1				0	
6.6.1	win	2023-06-27	21:08:59	21:16:01	415751	54676961fdf99b7ba4d35cd6	4	1	main_z	7	main_z	133	stimuli_target_trianglerectangles.svg	stimuli_distractor_trianglediamonds.svg	17	yes	0	0	2000	0	0			0	0			1				0	
6.6.1	win	2023-06-27	21:08:59	21:16:01	415751	54676961fdf99b7ba4d35cd6	4	1	main_z	7	advance_on_keypress_ZEE	134	stimuli_target_trianglerectangles.svg	stimuli_distractor_trianglediamonds.svg	17	yes	57	0	264	0	0			0	0			1				0	
6.6.1	win	2023-06-27	21:08:59	21:16:02	417597	54676961fdf99b7ba4d35cd6	4	1	main_z	7	main_z	135	stimuli_target_rectanglediamonds.svg	stimuli_distractor_trianglediamonds.svg	2	yes	44	1	930	0	0			0	0			1				0	
6.6.1	win	2023-06-27	21:08:59	21:16:02	417597	54676961fdf99b7ba4d35cd6	4	1	main_z	7	advance_on_keypress_ZEE	136	stimuli_target_rectanglediamonds.svg	stimuli_distractor_trianglediamonds.svg	2	yes	57	0	1333	0	0			0	0			1				0	
6.6.1	win	2023-06-27	21:08:59	21:16:06	421065	54676961fdf99b7ba4d35cd6	4	1	main_z	7	main_z	137	stimuli_target_trianglesquares.svg	stimuli_distractor_diamondtriangles.svg	22	yes	44	1	1483	0	0			0	0			1				0	
6.6.1	win	2023-06-27	21:08:59	21:16:06	421065	54676961fdf99b7ba4d35cd6	4	1	main_z	7	advance_on_keypress_ZEE	138	stimuli_target_trianglesquares.svg	stimuli_distractor_diamondtriangles.svg	22	yes	57	0	479	0	0			0	0			1				0	
6.6.1	win	2023-06-27	21:08:59	21:16:09	424200	54676961fdf99b7ba4d35cd6	4	1	main_z	7	main_z	139	stimuli_distractor_trianglediamonds.svg	stimuli_target_diamondrectangles.svg	27	yes	0	0	2000	0	0			0	0			1				0	
6.6.1	win	2023-06-27	21:08:59	21:16:09	424200	54676961fdf99b7ba4d35cd6	4	1	main_z	7	advance_on_keypress_ZEE	140	stimuli_distractor_trianglediamonds.svg	stimuli_target_diamondrectangles.svg	27	yes	57	0	1076	0	0			0	0			1				0	
6.6.1	win	2023-06-27	21:08:59	21:16:12	426858	54676961fdf99b7ba4d35cd6	4	1	main_z	7	main_z	141	stimuli_distractor_diamondtriangles.svg	stimuli_target_rectangletriangles.svg	13	yes	44	1	941	0	0			0	0			1				0	
6.6.1	win	2023-06-27	21:08:59	21:16:12	426858	54676961fdf99b7ba4d35cd6	4	1	main_z	7	advance_on_keypress_ZEE	142	stimuli_distractor_diamondtriangles.svg	stimuli_target_rectangletriangles.svg	13	yes	57	0	669	0	0			0	0			1				0	
6.6.1	win	2023-06-27	21:08:59	21:16:14	429018	54676961fdf99b7ba4d35cd6	4	1	main_z	7	main_z	143	stimuli_distractor_diamondtriangles.svg	stimuli_target_squarediamonds.svg	16	yes	44	1	852	0	0			0	0			1				0	
6.6.1	win	2023-06-27	21:08:59	21:16:14	429018	54676961fdf99b7ba4d35cd6	4	1	main_z	7	advance_on_keypress_ZEE	144	stimuli_distractor_diamondtriangles.svg	stimuli_target_squarediamonds.svg	16	yes	57	0	502	0	0			0	0			1				0	
6.6.1	win	2023-06-27	21:08:59	21:16:16	430835	54676961fdf99b7ba4d35cd6	4	1	main_z	7	main_z	145	stimuli_distractor_trianglediamonds.svg	stimuli_target_rectangletriangles.svg	9	yes	44	1	668	0	0			0	0			1				0	
6.6.1	win	2023-06-27	21:08:59	21:16:16	430835	54676961fdf99b7ba4d35cd6	4	1	main_z	7	advance_on_keypress_ZEE	146	stimuli_distractor_trianglediamonds.svg	stimuli_target_rectangletriangles.svg	9	yes	57	0	769	0	0			0	0			1				0	
6.6.1	win	2023-06-27	21:08:59	21:16:19	434250	54676961fdf99b7ba4d35cd6	4	1	main_z	7	main_z	147	stimuli_distractor_diamondtriangles.svg	stimuli_distractor_trianglediamonds.svg	37	no	0	1	2000	0	0			0	0			1				0	
6.6.1	win	2023-06-27	21:08:59	21:16:19	434250	54676961fdf99b7ba4d35cd6	4	1	main_z	7	advance_on_keypress_ZEE	148	stimuli_distractor_diamondtriangles.svg	stimuli_distractor_trianglediamonds.svg	37	no	57	0	807	0	0			0	0			1				0	
6.6.1	win	2023-06-27	21:08:59	21:16:22	437699	54676961fdf99b7ba4d35cd6	4	1	main_z	7	main_z	149	stimuli_distractor_trianglediamonds.svg	stimuli_target_trianglerectangles.svg	25	yes	0	0	2000	0	0			0	0			1				0	
6.6.1	win	2023-06-27	21:08:59	21:16:22	437699	54676961fdf99b7ba4d35cd6	4	1	main_z	7	advance_on_keypress_ZEE	150	stimuli_distractor_trianglediamonds.svg	stimuli_target_trianglerectangles.svg	25	yes	57	0	250	0	0			0	0			1				0	
6.6.1	win	2023-06-27	21:08:59	21:16:25	440599	54676961fdf99b7ba4d35cd6	4	1	main_z	7	main_z	151	stimuli_distractor_trianglediamonds.svg	stimuli_target_trianglesquares.svg	26	yes	0	0	2000	0	0			0	0			1				0	
6.6.1	win	2023-06-27	21:08:59	21:16:25	440599	54676961fdf99b7ba4d35cd6	4	1	main_z	7	advance_on_keypress_ZEE	152	stimuli_distractor_trianglediamonds.svg	stimuli_target_trianglesquares.svg	26	yes	57	0	48	0	0			0	0			1				0	
6.6.1	win	2023-06-27	21:08:59	21:16:28	443299	54676961fdf99b7ba4d35cd6	4	1	main_z	7	main_z	153	stimuli_distractor_trianglediamonds.svg	stimuli_distractor_trianglediamonds.svg	33	no	0	1	2000	0	0			0	0			1				0	
6.6.1	win	2023-06-27	21:08:59	21:16:28	443299	54676961fdf99b7ba4d35cd6	4	1	main_z	7	advance_on_keypress_ZEE	154	stimuli_distractor_trianglediamonds.svg	stimuli_distractor_trianglediamonds.svg	33	no	57	0	299	0	0			0	0			1				0	
6.6.1	win	2023-06-27	21:08:59	21:16:31	446250	54676961fdf99b7ba4d35cd6	4	1	main_z	7	main_z	155	stimuli_target_trianglesquares.svg	stimuli_distractor_trianglediamonds.svg	18	yes	0	0	2000	0	0			0	0			1				0	
6.6.1	win	2023-06-27	21:08:59	21:16:31	446250	54676961fdf99b7ba4d35cd6	4	1	main_z	7	advance_on_keypress_ZEE	156	stimuli_target_trianglesquares.svg	stimuli_distractor_trianglediamonds.svg	18	yes	57	0	832	0	0			0	0			1				0	
6.6.1	win	2023-06-27	21:08:59	21:16:33	448713	54676961fdf99b7ba4d35cd6	4	1	main_z	7	main_z	157	stimuli_target_diamondsquares.svg	stimuli_distractor_trianglediamonds.svg	20	yes	44	1	981	0	0			0	0			1				0	
6.6.1	win	2023-06-27	21:08:59	21:16:33	448713	54676961fdf99b7ba4d35cd6	4	1	main_z	7	advance_on_keypress_ZEE	158	stimuli_target_diamondsquares.svg	stimuli_distractor_trianglediamonds.svg	20	yes	57	0	454	0	0			0	0			1				0	
6.6.1	win	2023-06-27	21:08:59	21:16:36	450925	54676961fdf99b7ba4d35cd6	4	1	main_z	7	main_z	159	stimuli_distractor_diamondtriangles.svg	stimuli_target_rectanglediamonds.svg	14	yes	44	1	1110	0	0			0	0			1				0	
6.6.1	win	2023-06-27	21:08:59	21:16:36	450925	54676961fdf99b7ba4d35cd6	4	1	main_z	7	advance_on_keypress_ZEE	160	stimuli_distractor_diamondtriangles.svg	stimuli_target_rectanglediamonds.svg	14	yes	57	0	455	0	0			0	0			1				0	
6.6.1	win	2023-06-27	21:08:59	21:18:52	586966	54676961fdf99b7ba4d35cd6	4	1	practice_slash	9	practice_slash	1	stimuli_target_diamondsquares.svg	stimuli_distractor_diamondtriangles.svg	3	yes	53	1	970	0	0			0	0			1				0	
6.6.1	win	2023-06-27	21:08:59	21:18:52	586966	54676961fdf99b7ba4d35cd6	4	1	practice_slash	9	advance_on_keypress_SLASH	2	stimuli_target_diamondsquares.svg	stimuli_distractor_diamondtriangles.svg	3	yes	57	0	745	0	0			0	0			1				0	
6.6.1	win	2023-06-27	21:08:59	21:18:55	590142	54676961fdf99b7ba4d35cd6	4	1	practice_slash	9	practice_slash	3	stimuli_distractor_diamondtriangles.svg	stimuli_target_rectangletriangles.svg	7	yes	53	1	764	0	0			0	0			1				0	
6.6.1	win	2023-06-27	21:08:59	21:18:55	590142	54676961fdf99b7ba4d35cd6	4	1	practice_slash	9	advance_on_keypress_SLASH	4	stimuli_distractor_diamondtriangles.svg	stimuli_target_rectangletriangles.svg	7	yes	57	0	382	0	0			0	0			1				0	
6.6.1	win	2023-06-27	21:08:59	21:18:59	594179	54676961fdf99b7ba4d35cd6	4	1	practice_slash	9	practice_slash	5	stimuli_distractor_diamondtriangles.svg	stimuli_distractor_trianglediamonds.svg	14	no	0	1	2000	0	0			0	0			1				0	
6.6.1	win	2023-06-27	21:08:59	21:18:59	594179	54676961fdf99b7ba4d35cd6	4	1	practice_slash	9	advance_on_keypress_SLASH	6	stimuli_distractor_diamondtriangles.svg	stimuli_distractor_trianglediamonds.svg	14	no	57	0	628	0	0			0	0			1				0	
6.6.1	win	2023-06-27	21:08:59	21:19:02	597349	54676961fdf99b7ba4d35cd6	4	1	practice_slash	9	practice_slash	7	stimuli_target_squarediamonds.svg	stimuli_distractor_trianglediamonds.svg	5	yes	53	1	887	0	0			0	0			1				0	
6.6.1	win	2023-06-27	21:08:59	21:19:02	597349	54676961fdf99b7ba4d35cd6	4	1	practice_slash	9	advance_on_keypress_SLASH	8	stimuli_target_squarediamonds.svg	stimuli_distractor_trianglediamonds.svg	5	yes	57	0	322	0	0			0	0			1				0	
6.6.1	win	2023-06-27	21:08:59	21:19:06	601310	54676961fdf99b7ba4d35cd6	4	1	practice_slash	9	practice_slash	9	stimuli_distractor_trianglediamonds.svg	stimuli_distractor_trianglediamonds.svg	15	no	0	1	2000	0	0			0	0			1				0	
6.6.1	win	2023-06-27	21:08:59	21:19:06	601310	54676961fdf99b7ba4d35cd6	4	1	practice_slash	9	advance_on_keypress_SLASH	10	stimuli_distractor_trianglediamonds.svg	stimuli_distractor_trianglediamonds.svg	15	no	57	0	677	0	0			0	0			1				0	
6.6.1	win	2023-06-27	21:08:59	21:19:10	605645	54676961fdf99b7ba4d35cd6	4	1	practice_slash	9	practice_slash	11	stimuli_distractor_diamondtriangles.svg	stimuli_distractor_diamondtriangles.svg	13	no	0	1	2000	0	0			0	0			1				0	
6.6.1	win	2023-06-27	21:08:59	21:19:10	605645	54676961fdf99b7ba4d35cd6	4	1	practice_slash	9	advance_on_keypress_SLASH	12	stimuli_distractor_diamondtriangles.svg	stimuli_distractor_diamondtriangles.svg	13	no	57	0	676	0	0			0	0			1				0	
6.6.1	win	2023-06-27	21:08:59	21:19:14	609158	54676961fdf99b7ba4d35cd6	4	1	practice_slash	9	practice_slash	13	stimuli_distractor_diamondtriangles.svg	stimuli_target_trianglerectangles.svg	9	yes	53	1	1182	0	0			0	0			1				0	
6.6.1	win	2023-06-27	21:08:59	21:19:14	609158	54676961fdf99b7ba4d35cd6	4	1	practice_slash	9	advance_on_keypress_SLASH	14	stimuli_distractor_diamondtriangles.svg	stimuli_target_trianglerectangles.svg	9	yes	57	0	359	0	0			0	0			1				0	
6.6.1	win	2023-06-27	21:08:59	21:19:17	612238	54676961fdf99b7ba4d35cd6	4	1	practice_slash	9	practice_slash	15	stimuli_distractor_trianglediamonds.svg	stimuli_target_rectanglediamonds.svg	10	yes	53	1	1061	0	0			0	0			1				0	
6.6.1	win	2023-06-27	21:08:59	21:19:17	612238	54676961fdf99b7ba4d35cd6	4	1	practice_slash	9	advance_on_keypress_SLASH	16	stimuli_distractor_trianglediamonds.svg	stimuli_target_rectanglediamonds.svg	10	yes	57	0	134	0	0			0	0			1				0	
6.6.1	win	2023-06-27	21:08:59	21:19:21	616029	54676961fdf99b7ba4d35cd6	4	1	practice_slash	9	practice_slash	17	stimuli_distractor_trianglediamonds.svg	stimuli_target_diamondrectangles.svg	12	yes	0	0	2000	0	0			0	0			1				0	
6.6.1	win	2023-06-27	21:08:59	21:19:21	616029	54676961fdf99b7ba4d35cd6	4	1	practice_slash	9	advance_on_keypress_SLASH	18	stimuli_distractor_trianglediamonds.svg	stimuli_target_diamondrectangles.svg	12	yes	57	0	810	0	0			0	0			1				0	
6.6.1	win	2023-06-27	21:08:59	21:19:24	619709	54676961fdf99b7ba4d35cd6	4	1	practice_slash	9	practice_slash	19	stimuli_target_diamondsquares.svg	stimuli_distractor_trianglediamonds.svg	6	yes	53	1	1215	0	0			0	0			1				0	
6.6.1	win	2023-06-27	21:08:59	21:19:24	619709	54676961fdf99b7ba4d35cd6	4	1	practice_slash	9	advance_on_keypress_SLASH	20	stimuli_target_diamondsquares.svg	stimuli_distractor_trianglediamonds.svg	6	yes	57	0	394	0	0			0	0			1				0	
6.6.1	win	2023-06-27	21:08:59	21:19:27	622607	54676961fdf99b7ba4d35cd6	4	1	practice_slash	9	practice_slash	21	stimuli_distractor_diamondtriangles.svg	stimuli_target_diamondrectangles.svg	8	yes	53	1	846	0	0			0	0			1				0	
6.6.1	win	2023-06-27	21:08:59	21:19:27	622607	54676961fdf99b7ba4d35cd6	4	1	practice_slash	9	advance_on_keypress_SLASH	22	stimuli_distractor_diamondtriangles.svg	stimuli_target_diamondrectangles.svg	8	yes	57	0	1103	0	0			0	0			1				0	
6.6.1	win	2023-06-27	21:08:59	21:19:31	626239	54676961fdf99b7ba4d35cd6	4	1	practice_slash	9	practice_slash	23	stimuli_target_squarediamonds.svg	stimuli_distractor_diamondtriangles.svg	2	yes	53	1	880	0	0			0	0			1				0	
6.6.1	win	2023-06-27	21:08:59	21:19:31	626239	54676961fdf99b7ba4d35cd6	4	1	practice_slash	9	advance_on_keypress_SLASH	24	stimuli_target_squarediamonds.svg	stimuli_distractor_diamondtriangles.svg	2	yes	57	0	1595	0	0			0	0			1				0	
6.6.1	win	2023-06-27	21:08:59	21:19:35	630357	54676961fdf99b7ba4d35cd6	4	1	practice_slash	9	practice_slash	25	stimuli_target_rectanglediamonds.svg	stimuli_distractor_trianglediamonds.svg	4	yes	53	1	863	0	0			0	0			1				0	
6.6.1	win	2023-06-27	21:08:59	21:19:35	630357	54676961fdf99b7ba4d35cd6	4	1	practice_slash	9	advance_on_keypress_SLASH	26	stimuli_target_rectanglediamonds.svg	stimuli_distractor_trianglediamonds.svg	4	yes	57	0	293	0	0			0	0			1				0	
6.6.1	win	2023-06-27	21:08:59	21:19:38	633298	54676961fdf99b7ba4d35cd6	4	1	practice_slash	9	practice_slash	27	stimuli_target_rectanglediamonds.svg	stimuli_distractor_diamondtriangles.svg	1	yes	53	1	1006	0	0			0	0			1				0	
6.6.1	win	2023-06-27	21:08:59	21:19:38	633298	54676961fdf99b7ba4d35cd6	4	1	practice_slash	9	advance_on_keypress_SLASH	28	stimuli_target_rectanglediamonds.svg	stimuli_distractor_diamondtriangles.svg	1	yes	57	0	39	0	0			0	0			1				0	
6.6.1	win	2023-06-27	21:08:59	21:19:41	636154	54676961fdf99b7ba4d35cd6	4	1	practice_slash	9	practice_slash	29	stimuli_distractor_trianglediamonds.svg	stimuli_target_squarediamonds.svg	11	yes	53	1	1178	0	0			0	0			1				0	
6.6.1	win	2023-06-27	21:08:59	21:19:41	636154	54676961fdf99b7ba4d35cd6	4	1	practice_slash	9	advance_on_keypress_SLASH	30	stimuli_distractor_trianglediamonds.svg	stimuli_target_squarediamonds.svg	11	yes	57	0	113	0	0			0	0			1				0	
6.6.1	win	2023-06-27	21:08:59	21:19:45	639926	54676961fdf99b7ba4d35cd6	4	1	practice_slash	9	practice_slash	31	stimuli_distractor_trianglediamonds.svg	stimuli_distractor_diamondtriangles.svg	16	no	0	1	2000	0	0			0	0			1				0	
6.6.1	win	2023-06-27	21:08:59	21:19:45	639926	54676961fdf99b7ba4d35cd6	4	1	practice_slash	9	advance_on_keypress_SLASH	32	stimuli_distractor_trianglediamonds.svg	stimuli_distractor_diamondtriangles.svg	16	no	57	0	508	0	0			0	0			1				0	
6.6.1	win	2023-06-27	21:08:59	21:19:51	646706	54676961fdf99b7ba4d35cd6	4	1	main_slash	11	main_slash	1	stimuli_target_diamondsquares.svg	stimuli_distractor_diamondtriangles.svg	24	yes	0	0	2000	0	0			0	0			1				0	
6.6.1	win	2023-06-27	21:08:59	21:19:51	646706	54676961fdf99b7ba4d35cd6	4	1	main_slash	11	advance_on_keypress_SLASH	2	stimuli_target_diamondsquares.svg	stimuli_distractor_diamondtriangles.svg	24	yes	57	0	742	0	0			0	0			1				0	
6.6.1	win	2023-06-27	21:08:59	21:19:55	650089	54676961fdf99b7ba4d35cd6	4	1	main_slash	11	main_slash	3	stimuli_distractor_trianglediamonds.svg	stimuli_target_trianglesquares.svg	26	yes	0	0	2000	0	0			0	0			1				0	
6.6.1	win	2023-06-27	21:08:59	21:19:55	650089	54676961fdf99b7ba4d35cd6	4	1	main_slash	11	advance_on_keypress_SLASH	4	stimuli_distractor_trianglediamonds.svg	stimuli_target_trianglesquares.svg	26	yes	57	0	656	0	0			0	0			1				0	
6.6.1	win	2023-06-27	21:08:59	21:19:57	652120	54676961fdf99b7ba4d35cd6	4	1	main_slash	11	main_slash	5	stimuli_target_squarediamonds.svg	stimuli_distractor_diamondtriangles.svg	8	yes	53	1	730	0	0			0	0			1				0	
6.6.1	win	2023-06-27	21:08:59	21:19:57	652120	54676961fdf99b7ba4d35cd6	4	1	main_slash	11	advance_on_keypress_SLASH	6	stimuli_target_squarediamonds.svg	stimuli_distractor_diamondtriangles.svg	8	yes	57	0	653	0	0			0	0			1				0	
6.6.1	win	2023-06-27	21:08:59	21:20:00	655423	54676961fdf99b7ba4d35cd6	4	1	main_slash	11	main_slash	7	stimuli_distractor_diamondtriangles.svg	stimuli_distractor_trianglediamonds.svg	38	no	0	1	2000	0	0			0	0			1				0	
6.6.1	win	2023-06-27	21:08:59	21:20:00	655423	54676961fdf99b7ba4d35cd6	4	1	main_slash	11	advance_on_keypress_SLASH	8	stimuli_distractor_diamondtriangles.svg	stimuli_distractor_trianglediamonds.svg	38	no	57	0	599	0	0			0	0			1				0	
6.6.1	win	2023-06-27	21:08:59	21:20:02	657352	54676961fdf99b7ba4d35cd6	4	1	main_slash	11	main_slash	9	stimuli_distractor_trianglediamonds.svg	stimuli_target_squaretriangles.svg	11	yes	53	1	679	0	0			0	0			1				0	
6.6.1	win	2023-06-27	21:08:59	21:20:02	657352	54676961fdf99b7ba4d35cd6	4	1	main_slash	11	advance_on_keypress_SLASH	10	stimuli_distractor_trianglediamonds.svg	stimuli_target_squaretriangles.svg	11	yes	57	0	831	0	0			0	0			1				0	
6.6.1	win	2023-06-27	21:08:59	21:20:04	659551	54676961fdf99b7ba4d35cd6	4	1	main_slash	11	main_slash	11	stimuli_distractor_trianglediamonds.svg	stimuli_target_diamondrectangles.svg	27	yes	53	1	713	0	0			0	0			1				0	
6.6.1	win	2023-06-27	21:08:59	21:20:04	659551	54676961fdf99b7ba4d35cd6	4	1	main_slash	11	advance_on_keypress_SLASH	12	stimuli_distractor_trianglediamonds.svg	stimuli_target_diamondrectangles.svg	27	yes	57	0	1128	0	0			0	0			1				0	
6.6.1	win	2023-06-27	21:08:59	21:20:07	662270	54676961fdf99b7ba4d35cd6	4	1	main_slash	11	main_slash	13	stimuli_target_squarediamonds.svg	stimuli_distractor_trianglediamonds.svg	4	yes	53	1	931	0	0			0	0			1				0	
6.6.1	win	2023-06-27	21:08:59	21:20:07	662270	54676961fdf99b7ba4d35cd6	4	1	main_slash	11	advance_on_keypress_SLASH	14	stimuli_target_squarediamonds.svg	stimuli_distractor_trianglediamonds.svg	4	yes	57	0	536	0	0			0	0			1				0	
6.6.1	win	2023-06-27	21:08:59	21:20:09	664359	54676961fdf99b7ba4d35cd6	4	1	main_slash	11	main_slash	15	stimuli_distractor_diamondtriangles.svg	stimuli_target_rectangletriangles.svg	13	yes	53	1	904	0	0			0	0			1				0	
6.6.1	win	2023-06-27	21:08:59	21:20:09	664359	54676961fdf99b7ba4d35cd6	4	1	main_slash	11	advance_on_keypress_SLASH	16	stimuli_distractor_diamondtriangles.svg	stimuli_target_rectangletriangles.svg	13	yes	57	0	861	0	0			0	0			1				0	
6.6.1	win	2023-06-27	21:08:59	21:20:13	667872	54676961fdf99b7ba4d35cd6	4	1	main_slash	11	main_slash	17	stimuli_target_trianglesquares.svg	stimuli_distractor_diamondtriangles.svg	22	yes	0	0	2000	0	0			0	0			1				0	
6.6.1	win	2023-06-27	21:08:59	21:20:13	667872	54676961fdf99b7ba4d35cd6	4	1	main_slash	11	advance_on_keypress_SLASH	18	stimuli_target_trianglesquares.svg	stimuli_distractor_diamondtriangles.svg	22	yes	57	0	395	0	0			0	0			1				0	
6.6.1	win	2023-06-27	21:08:59	21:20:14	669671	54676961fdf99b7ba4d35cd6	4	1	main_slash	11	main_slash	19	stimuli_target_diamondrectangles.svg	stimuli_distractor_trianglediamonds.svg	19	yes	53	1	748	0	0			0	0			1				0	
6.6.1	win	2023-06-27	21:08:59	21:20:14	669671	54676961fdf99b7ba4d35cd6	4	1	main_slash	11	advance_on_keypress_SLASH	20	stimuli_target_diamondrectangles.svg	stimuli_distractor_trianglediamonds.svg	19	yes	57	0	513	0	0			0	0			1				0	
6.6.1	win	2023-06-27	21:08:59	21:20:18	672839	54676961fdf99b7ba4d35cd6	4	1	main_slash	11	main_slash	21	stimuli_distractor_diamondtriangles.svg	stimuli_distractor_diamondtriangles.svg	39	no	0	1	2000	0	0			0	0			1				0	
6.6.1	win	2023-06-27	21:08:59	21:20:18	672839	54676961fdf99b7ba4d35cd6	4	1	main_slash	11	advance_on_keypress_SLASH	22	stimuli_distractor_diamondtriangles.svg	stimuli_distractor_diamondtriangles.svg	39	no	57	0	248	0	0			0	0			1				0	
6.6.1	win	2023-06-27	21:08:59	21:20:19	674502	54676961fdf99b7ba4d35cd6	4	1	main_slash	11	main_slash	23	stimuli_distractor_trianglediamonds.svg	stimuli_target_diamondsquares.svg	28	yes	53	1	763	0	0			0	0			1				0	
6.6.1	win	2023-06-27	21:08:59	21:20:19	674502	54676961fdf99b7ba4d35cd6	4	1	main_slash	11	advance_on_keypress_SLASH	24	stimuli_distractor_trianglediamonds.svg	stimuli_target_diamondsquares.svg	28	yes	57	0	2073	0	0			0	0			1				0	
6.6.1	win	2023-06-27	21:08:59	21:20:23	677992	54676961fdf99b7ba4d35cd6	4	1	main_slash	11	main_slash	25	stimuli_target_rectanglediamonds.svg	stimuli_distractor_diamondtriangles.svg	6	yes	53	1	770	0	0			0	0			1				0	
6.6.1	win	2023-06-27	21:08:59	21:20:23	677992	54676961fdf99b7ba4d35cd6	4	1	main_slash	11	advance_on_keypress_SLASH	26	stimuli_target_rectanglediamonds.svg	stimuli_distractor_diamondtriangles.svg	6	yes	57	0	642	0	0			0	0			1				0	
6.6.1	win	2023-06-27	21:08:59	21:20:25	680415	54676961fdf99b7ba4d35cd6	4	1	main_slash	11	main_slash	27	stimuli_target_rectangletriangles.svg	stimuli_distractor_trianglediamonds.svg	1	yes	53	1	1145	0	0			0	0			1				0	
6.6.1	win	2023-06-27	21:08:59	21:20:25	680415	54676961fdf99b7ba4d35cd6	4	1	main_slash	11	advance_on_keypress_SLASH	28	stimuli_target_rectangletriangles.svg	stimuli_distractor_trianglediamonds.svg	1	yes	57	0	853	0	0			0	0			1				0	
6.6.1	win	2023-06-27	21:08:59	21:20:29	683904	54676961fdf99b7ba4d35cd6	4	1	main_slash	11	main_slash	29	stimuli_distractor_diamondtriangles.svg	stimuli_target_diamondrectangles.svg	31	yes	0	0	2000	0	0			0	0			1				0	
6.6.1	win	2023-06-27	21:08:59	21:20:29	683904	54676961fdf99b7ba4d35cd6	4	1	main_slash	11	advance_on_keypress_SLASH	30	stimuli_distractor_diamondtriangles.svg	stimuli_target_diamondrectangles.svg	31	yes	57	0	387	0	0			0	0			1				0	
6.6.1	win	2023-06-27	21:08:59	21:20:31	685947	54676961fdf99b7ba4d35cd6	4	1	main_slash	11	main_slash	31	stimuli_target_diamondsquares.svg	stimuli_distractor_trianglediamonds.svg	20	yes	53	1	1010	0	0			0	0			1				0	
6.6.1	win	2023-06-27	21:08:59	21:20:31	685947	54676961fdf99b7ba4d35cd6	4	1	main_slash	11	advance_on_keypress_SLASH	32	stimuli_target_diamondsquares.svg	stimuli_distractor_trianglediamonds.svg	20	yes	57	0	326	0	0			0	0			1				0	
6.6.1	win	2023-06-27	21:08:59	21:20:33	687792	54676961fdf99b7ba4d35cd6	4	1	main_slash	11	main_slash	33	stimuli_distractor_trianglediamonds.svg	stimuli_target_rectanglediamonds.svg	10	yes	53	1	889	0	0			0	0			1				0	
6.6.1	win	2023-06-27	21:08:59	21:20:33	687792	54676961fdf99b7ba4d35cd6	4	1	main_slash	11	advance_on_keypress_SLASH	34	stimuli_distractor_trianglediamonds.svg	stimuli_target_rectanglediamonds.svg	10	yes	57	0	311	0	0			0	0			1				0	
6.6.1	win	2023-06-27	21:08:59	21:20:34	689719	54676961fdf99b7ba4d35cd6	4	1	main_slash	11	main_slash	35	stimuli_distractor_trianglediamonds.svg	stimuli_distractor_diamondtriangles.svg	35	no	53	0	982	0	0			0	0			1				0	
6.6.1	win	2023-06-27	21:08:59	21:20:34	689719	54676961fdf99b7ba4d35cd6	4	1	main_slash	11	advance_on_keypress_SLASH	36	stimuli_distractor_trianglediamonds.svg	stimuli_distractor_diamondtriangles.svg	35	no	57	0	234	0	0			0	0			1				0	
6.6.1	win	2023-06-27	21:08:59	21:20:37	692604	54676961fdf99b7ba4d35cd6	4	1	main_slash	11	main_slash	37	stimuli_distractor_diamondtriangles.svg	stimuli_target_trianglesquares.svg	30	yes	0	0	2000	0	0			0	0			1				0	
6.6.1	win	2023-06-27	21:08:59	21:20:37	692604	54676961fdf99b7ba4d35cd6	4	1	main_slash	11	advance_on_keypress_SLASH	38	stimuli_distractor_diamondtriangles.svg	stimuli_target_trianglesquares.svg	30	yes	57	0	798	0	0			0	0			1				0	
6.6.1	win	2023-06-27	21:08:59	21:20:40	694985	54676961fdf99b7ba4d35cd6	4	1	main_slash	11	main_slash	39	stimuli_target_squaretriangles.svg	stimuli_distractor_trianglediamonds.svg	3	yes	53	1	932	0	0			0	0			1				0	
6.6.1	win	2023-06-27	21:08:59	21:20:40	694985	54676961fdf99b7ba4d35cd6	4	1	main_slash	11	advance_on_keypress_SLASH	40	stimuli_target_squaretriangles.svg	stimuli_distractor_trianglediamonds.svg	3	yes	57	0	279	0	0			0	0			1				0	
6.6.1	win	2023-06-27	21:08:59	21:20:42	697493	54676961fdf99b7ba4d35cd6	4	1	main_slash	11	main_slash	41	stimuli_distractor_trianglediamonds.svg	stimuli_target_squarediamonds.svg	12	yes	53	1	1573	0	0			0	0			1				0	
6.6.1	win	2023-06-27	21:08:59	21:20:42	697493	54676961fdf99b7ba4d35cd6	4	1	main_slash	11	advance_on_keypress_SLASH	42	stimuli_distractor_trianglediamonds.svg	stimuli_target_squarediamonds.svg	12	yes	57	0	472	0	0			0	0			1				0	
6.6.1	win	2023-06-27	21:08:59	21:20:45	700604	54676961fdf99b7ba4d35cd6	4	1	main_slash	11	main_slash	43	stimuli_target_trianglerectangles.svg	stimuli_distractor_trianglediamonds.svg	17	yes	0	0	2000	0	0			0	0			1				0	
6.6.1	win	2023-06-27	21:08:59	21:20:45	700604	54676961fdf99b7ba4d35cd6	4	1	main_slash	11	advance_on_keypress_SLASH	44	stimuli_target_trianglerectangles.svg	stimuli_distractor_trianglediamonds.svg	17	yes	57	0	389	0	0			0	0			1				0	
6.6.1	win	2023-06-27	21:08:59	21:20:48	703637	54676961fdf99b7ba4d35cd6	4	1	main_slash	11	main_slash	45	stimuli_target_trianglesquares.svg	stimuli_distractor_trianglediamonds.svg	18	yes	0	0	2000	0	0			0	0			1				0	
6.6.1	win	2023-06-27	21:08:59	21:20:48	703637	54676961fdf99b7ba4d35cd6	4	1	main_slash	11	advance_on_keypress_SLASH	46	stimuli_target_trianglesquares.svg	stimuli_distractor_trianglediamonds.svg	18	yes	57	0	709	0	0			0	0			1				0	
6.6.1	win	2023-06-27	21:08:59	21:20:51	705764	54676961fdf99b7ba4d35cd6	4	1	main_slash	11	main_slash	47	stimuli_distractor_diamondtriangles.svg	stimuli_target_squarediamonds.svg	16	yes	53	1	778	0	0			0	0			1				0	
6.6.1	win	2023-06-27	21:08:59	21:20:51	705764	54676961fdf99b7ba4d35cd6	4	1	main_slash	11	advance_on_keypress_SLASH	48	stimuli_distractor_diamondtriangles.svg	stimuli_target_squarediamonds.svg	16	yes	57	0	491	0	0			0	0			1				0	
6.6.1	win	2023-06-27	21:08:59	21:20:52	707604	54676961fdf99b7ba4d35cd6	4	1	main_slash	11	main_slash	49	stimuli_distractor_diamondtriangles.svg	stimuli_target_rectanglediamonds.svg	14	yes	53	1	717	0	0			0	0			1				0	
6.6.1	win	2023-06-27	21:08:59	21:20:52	707604	54676961fdf99b7ba4d35cd6	4	1	main_slash	11	advance_on_keypress_SLASH	50	stimuli_distractor_diamondtriangles.svg	stimuli_target_rectanglediamonds.svg	14	yes	57	0	468	0	0			0	0			1				0	
6.6.1	win	2023-06-27	21:08:59	21:20:54	709641	54676961fdf99b7ba4d35cd6	4	1	main_slash	11	main_slash	51	stimuli_target_trianglerectangles.svg	stimuli_distractor_diamondtriangles.svg	21	yes	53	1	920	0	0			0	0			1				0	
6.6.1	win	2023-06-27	21:08:59	21:20:54	709641	54676961fdf99b7ba4d35cd6	4	1	main_slash	11	advance_on_keypress_SLASH	52	stimuli_target_trianglerectangles.svg	stimuli_distractor_diamondtriangles.svg	21	yes	57	0	359	0	0			0	0			1				0	
6.6.1	win	2023-06-27	21:08:59	21:20:57	712637	54676961fdf99b7ba4d35cd6	4	1	main_slash	11	main_slash	53	stimuli_distractor_diamondtriangles.svg	stimuli_target_trianglerectangles.svg	29	yes	0	0	2000	0	0			0	0			1				0	
6.6.1	win	2023-06-27	21:08:59	21:20:57	712637	54676961fdf99b7ba4d35cd6	4	1	main_slash	11	advance_on_keypress_SLASH	54	stimuli_distractor_diamondtriangles.svg	stimuli_target_trianglerectangles.svg	29	yes	57	0	1058	0	0			0	0			1				0	
6.6.1	win	2023-06-27	21:08:59	21:21:00	715105	54676961fdf99b7ba4d35cd6	4	1	main_slash	11	main_slash	55	stimuli_target_rectangletriangles.svg	stimuli_distractor_diamondtriangles.svg	5	yes	53	1	770	0	0			0	0			1				0	
6.6.1	win	2023-06-27	21:08:59	21:21:00	715105	54676961fdf99b7ba4d35cd6	4	1	main_slash	11	advance_on_keypress_SLASH	56	stimuli_target_rectangletriangles.svg	stimuli_distractor_diamondtriangles.svg	5	yes	57	0	349	0	0			0	0			1				0	
6.6.1	win	2023-06-27	21:08:59	21:21:03	718103	54676961fdf99b7ba4d35cd6	4	1	main_slash	11	main_slash	57	stimuli_distractor_diamondtriangles.svg	stimuli_distractor_trianglediamonds.svg	37	no	0	1	2000	0	0			0	0			1				0	
6.6.1	win	2023-06-27	21:08:59	21:21:03	718103	54676961fdf99b7ba4d35cd6	4	1	main_slash	11	advance_on_keypress_SLASH	58	stimuli_distractor_diamondtriangles.svg	stimuli_distractor_trianglediamonds.svg	37	no	57	0	799	0	0			0	0			1				0	
6.6.1	win	2023-06-27	21:08:59	21:21:05	720425	54676961fdf99b7ba4d35cd6	4	1	main_slash	11	main_slash	59	stimuli_target_diamondrectangles.svg	stimuli_distractor_diamondtriangles.svg	23	yes	53	1	872	0	0			0	0			1				0	
6.6.1	win	2023-06-27	21:08:59	21:21:05	720425	54676961fdf99b7ba4d35cd6	4	1	main_slash	11	advance_on_keypress_SLASH	60	stimuli_target_diamondrectangles.svg	stimuli_distractor_diamondtriangles.svg	23	yes	57	0	572	0	0			0	0			1				0	
6.6.1	win	2023-06-27	21:08:59	21:21:08	722827	54676961fdf99b7ba4d35cd6	4	1	main_slash	11	main_slash	61	stimuli_distractor_trianglediamonds.svg	stimuli_distractor_diamondtriangles.svg	36	no	53	0	1192	0	0			0	0			1				0	
6.6.1	win	2023-06-27	21:08:59	21:21:08	722827	54676961fdf99b7ba4d35cd6	4	1	main_slash	11	advance_on_keypress_SLASH	62	stimuli_distractor_trianglediamonds.svg	stimuli_distractor_diamondtriangles.svg	36	no	57	0	425	0	0			0	0			1				0	
6.6.1	win	2023-06-27	21:08:59	21:21:11	725886	54676961fdf99b7ba4d35cd6	4	1	main_slash	11	main_slash	63	stimuli_distractor_trianglediamonds.svg	stimuli_target_trianglerectangles.svg	25	yes	0	0	2000	0	0			0	0			1				0	
6.6.1	win	2023-06-27	21:08:59	21:21:11	725886	54676961fdf99b7ba4d35cd6	4	1	main_slash	11	advance_on_keypress_SLASH	64	stimuli_distractor_trianglediamonds.svg	stimuli_target_trianglerectangles.svg	25	yes	57	0	1134	0	0			0	0			1				0	
6.6.1	win	2023-06-27	21:08:59	21:21:13	728366	54676961fdf99b7ba4d35cd6	4	1	main_slash	11	main_slash	65	stimuli_target_rectanglediamonds.svg	stimuli_distractor_trianglediamonds.svg	2	yes	53	1	697	0	0			0	0			1				0	
6.6.1	win	2023-06-27	21:08:59	21:21:13	728366	54676961fdf99b7ba4d35cd6	4	1	main_slash	11	advance_on_keypress_SLASH	66	stimuli_target_rectanglediamonds.svg	stimuli_distractor_trianglediamonds.svg	2	yes	57	0	383	0	0			0	0			1				0	
6.6.1	win	2023-06-27	21:08:59	21:21:16	731402	54676961fdf99b7ba4d35cd6	4	1	main_slash	11	main_slash	67	stimuli_distractor_diamondtriangles.svg	stimuli_target_diamondsquares.svg	32	yes	0	0	2000	0	0			0	0			1				0	
6.6.1	win	2023-06-27	21:08:59	21:21:16	731402	54676961fdf99b7ba4d35cd6	4	1	main_slash	11	advance_on_keypress_SLASH	68	stimuli_distractor_diamondtriangles.svg	stimuli_target_diamondsquares.svg	32	yes	57	0	561	0	0			0	0			1				0	
6.6.1	win	2023-06-27	21:08:59	21:21:18	733409	54676961fdf99b7ba4d35cd6	4	1	main_slash	11	main_slash	69	stimuli_distractor_diamondtriangles.svg	stimuli_target_squaretriangles.svg	15	yes	53	1	789	0	0			0	0			1				0	
6.6.1	win	2023-06-27	21:08:59	21:21:18	733409	54676961fdf99b7ba4d35cd6	4	1	main_slash	11	advance_on_keypress_SLASH	70	stimuli_distractor_diamondtriangles.svg	stimuli_target_squaretriangles.svg	15	yes	57	0	468	0	0			0	0			1				0	
6.6.1	win	2023-06-27	21:08:59	21:21:21	736332	54676961fdf99b7ba4d35cd6	4	1	main_slash	11	main_slash	71	stimuli_distractor_trianglediamonds.svg	stimuli_target_rectangletriangles.svg	9	yes	53	1	1813	0	0			0	0			1				0	
6.6.1	win	2023-06-27	21:08:59	21:21:21	736332	54676961fdf99b7ba4d35cd6	4	1	main_slash	11	advance_on_keypress_SLASH	72	stimuli_distractor_trianglediamonds.svg	stimuli_target_rectangletriangles.svg	9	yes	57	0	1039	0	0			0	0			1				0	
6.6.1	win	2023-06-27	21:08:59	21:21:25	740018	54676961fdf99b7ba4d35cd6	4	1	main_slash	11	main_slash	73	stimuli_distractor_trianglediamonds.svg	stimuli_distractor_trianglediamonds.svg	33	no	0	1	2000	0	0			0	0			1				0	
6.6.1	win	2023-06-27	21:08:59	21:21:25	740018	54676961fdf99b7ba4d35cd6	4	1	main_slash	11	advance_on_keypress_SLASH	74	stimuli_distractor_trianglediamonds.svg	stimuli_distractor_trianglediamonds.svg	33	no	57	0	823	0	0			0	0			1				0	
6.6.1	win	2023-06-27	21:08:59	21:21:27	742753	54676961fdf99b7ba4d35cd6	4	1	main_slash	11	main_slash	75	stimuli_distractor_trianglediamonds.svg	stimuli_distractor_trianglediamonds.svg	34	no	53	0	1267	0	0			0	0			1				0	
6.6.1	win	2023-06-27	21:08:59	21:21:27	742753	54676961fdf99b7ba4d35cd6	4	1	main_slash	11	advance_on_keypress_SLASH	76	stimuli_distractor_trianglediamonds.svg	stimuli_distractor_trianglediamonds.svg	34	no	57	0	954	0	0			0	0			1				0	
6.6.1	win	2023-06-27	21:08:59	21:21:31	746351	54676961fdf99b7ba4d35cd6	4	1	main_slash	11	main_slash	77	stimuli_distractor_diamondtriangles.svg	stimuli_distractor_diamondtriangles.svg	40	no	0	1	2000	0	0			0	0			1				0	
6.6.1	win	2023-06-27	21:08:59	21:21:31	746351	54676961fdf99b7ba4d35cd6	4	1	main_slash	11	advance_on_keypress_SLASH	78	stimuli_distractor_diamondtriangles.svg	stimuli_distractor_diamondtriangles.svg	40	no	57	0	557	0	0			0	0			1				0	
6.6.1	win	2023-06-27	21:08:59	21:21:33	748309	54676961fdf99b7ba4d35cd6	4	1	main_slash	11	main_slash	79	stimuli_target_squaretriangles.svg	stimuli_distractor_diamondtriangles.svg	7	yes	53	1	757	0	0			0	0			1				0	
6.6.1	win	2023-06-27	21:08:59	21:21:33	748309	54676961fdf99b7ba4d35cd6	4	1	main_slash	11	advance_on_keypress_SLASH	80	stimuli_target_squaretriangles.svg	stimuli_distractor_diamondtriangles.svg	7	yes	57	0	795	0	0			0	0			1				0	
6.6.1	win	2023-06-27	21:08:59	21:21:35	750496	54676961fdf99b7ba4d35cd6	4	1	main_slash	11	main_slash	81	stimuli_target_rectangletriangles.svg	stimuli_distractor_trianglediamonds.svg	1	yes	53	1	744	0	0			0	0			1				0	
6.6.1	win	2023-06-27	21:08:59	21:21:35	750496	54676961fdf99b7ba4d35cd6	4	1	main_slash	11	advance_on_keypress_SLASH	82	stimuli_target_rectangletriangles.svg	stimuli_distractor_trianglediamonds.svg	1	yes	57	0	556	0	0			0	0			1				0	
6.6.1	win	2023-06-27	21:08:59	21:21:37	752539	54676961fdf99b7ba4d35cd6	4	1	main_slash	11	main_slash	83	stimuli_target_rectanglediamonds.svg	stimuli_distractor_diamondtriangles.svg	6	yes	53	1	838	0	0			0	0			1				0	
6.6.1	win	2023-06-27	21:08:59	21:21:37	752539	54676961fdf99b7ba4d35cd6	4	1	main_slash	11	advance_on_keypress_SLASH	84	stimuli_target_rectanglediamonds.svg	stimuli_distractor_diamondtriangles.svg	6	yes	57	0	350	0	0			0	0			1				0	
6.6.1	win	2023-06-27	21:08:59	21:21:39	754616	54676961fdf99b7ba4d35cd6	4	1	main_slash	11	main_slash	85	stimuli_distractor_trianglediamonds.svg	stimuli_target_diamondrectangles.svg	27	yes	53	1	1081	0	0			0	0			1				0	
6.6.1	win	2023-06-27	21:08:59	21:21:39	754616	54676961fdf99b7ba4d35cd6	4	1	main_slash	11	advance_on_keypress_SLASH	86	stimuli_distractor_trianglediamonds.svg	stimuli_target_diamondrectangles.svg	27	yes	57	0	284	0	0			0	0			1				0	
6.6.1	win	2023-06-27	21:08:59	21:21:41	756745	54676961fdf99b7ba4d35cd6	4	1	main_slash	11	main_slash	87	stimuli_target_squaretriangles.svg	stimuli_distractor_trianglediamonds.svg	3	yes	53	1	1195	0	0			0	0			1				0	
6.6.1	win	2023-06-27	21:08:59	21:21:41	756745	54676961fdf99b7ba4d35cd6	4	1	main_slash	11	advance_on_keypress_SLASH	88	stimuli_target_squaretriangles.svg	stimuli_distractor_trianglediamonds.svg	3	yes	57	0	277	0	0			0	0			1				0	
6.6.1	win	2023-06-27	21:08:59	21:21:43	758465	54676961fdf99b7ba4d35cd6	4	1	main_slash	11	main_slash	89	stimuli_distractor_diamondtriangles.svg	stimuli_target_rectangletriangles.svg	13	yes	53	1	814	0	0			0	0			1				0	
6.6.1	win	2023-06-27	21:08:59	21:21:43	758465	54676961fdf99b7ba4d35cd6	4	1	main_slash	11	advance_on_keypress_SLASH	90	stimuli_distractor_diamondtriangles.svg	stimuli_target_rectangletriangles.svg	13	yes	57	0	315	0	0			0	0			1				0	
6.6.1	win	2023-06-27	21:08:59	21:21:45	760343	54676961fdf99b7ba4d35cd6	4	1	main_slash	11	main_slash	91	stimuli_distractor_trianglediamonds.svg	stimuli_target_squaretriangles.svg	11	yes	53	1	909	0	0			0	0			1				0	
6.6.1	win	2023-06-27	21:08:59	21:21:45	760343	54676961fdf99b7ba4d35cd6	4	1	main_slash	11	advance_on_keypress_SLASH	92	stimuli_distractor_trianglediamonds.svg	stimuli_target_squaretriangles.svg	11	yes	57	0	921	0	0			0	0			1				0	
6.6.1	win	2023-06-27	21:08:59	21:21:48	762807	54676961fdf99b7ba4d35cd6	4	1	main_slash	11	main_slash	93	stimuli_distractor_trianglediamonds.svg	stimuli_target_rectanglediamonds.svg	10	yes	53	1	906	0	0			0	0			1				0	
6.6.1	win	2023-06-27	21:08:59	21:21:48	762807	54676961fdf99b7ba4d35cd6	4	1	main_slash	11	advance_on_keypress_SLASH	94	stimuli_distractor_trianglediamonds.svg	stimuli_target_rectanglediamonds.svg	10	yes	57	0	340	0	0			0	0			1				0	
6.6.1	win	2023-06-27	21:08:59	21:21:51	765784	54676961fdf99b7ba4d35cd6	4	1	main_slash	11	main_slash	95	stimuli_distractor_diamondtriangles.svg	stimuli_distractor_diamondtriangles.svg	39	no	0	1	2000	0	0			0	0			1				0	
6.6.1	win	2023-06-27	21:08:59	21:21:51	765784	54676961fdf99b7ba4d35cd6	4	1	main_slash	11	advance_on_keypress_SLASH	96	stimuli_distractor_diamondtriangles.svg	stimuli_distractor_diamondtriangles.svg	39	no	57	0	1035	0	0			0	0			1				0	
6.6.1	win	2023-06-27	21:08:59	21:21:53	768324	54676961fdf99b7ba4d35cd6	4	1	main_slash	11	main_slash	97	stimuli_distractor_trianglediamonds.svg	stimuli_distractor_diamondtriangles.svg	35	no	53	0	857	0	0			0	0			1				0	
6.6.1	win	2023-06-27	21:08:59	21:21:53	768324	54676961fdf99b7ba4d35cd6	4	1	main_slash	11	advance_on_keypress_SLASH	98	stimuli_distractor_trianglediamonds.svg	stimuli_distractor_diamondtriangles.svg	35	no	57	0	293	0	0			0	0			1				0	
6.6.1	win	2023-06-27	21:08:59	21:21:55	769987	54676961fdf99b7ba4d35cd6	4	1	main_slash	11	main_slash	99	stimuli_distractor_diamondtriangles.svg	stimuli_target_rectanglediamonds.svg	14	yes	53	1	737	0	0			0	0			1				0	
6.6.1	win	2023-06-27	21:08:59	21:21:55	769987	54676961fdf99b7ba4d35cd6	4	1	main_slash	11	advance_on_keypress_SLASH	100	stimuli_distractor_diamondtriangles.svg	stimuli_target_rectanglediamonds.svg	14	yes	57	0	246	0	0			0	0			1				0	
6.6.1	win	2023-06-27	21:08:59	21:21:58	772884	54676961fdf99b7ba4d35cd6	4	1	main_slash	11	main_slash	101	stimuli_distractor_diamondtriangles.svg	stimuli_target_trianglerectangles.svg	29	yes	0	0	2000	0	0			0	0			1				0	
6.6.1	win	2023-06-27	21:08:59	21:21:58	772884	54676961fdf99b7ba4d35cd6	4	1	main_slash	11	advance_on_keypress_SLASH	102	stimuli_distractor_diamondtriangles.svg	stimuli_target_trianglerectangles.svg	29	yes	57	0	339	0	0			0	0			1				0	
6.6.1	win	2023-06-27	21:08:59	21:21:59	774673	54676961fdf99b7ba4d35cd6	4	1	main_slash	11	main_slash	103	stimuli_target_diamondsquares.svg	stimuli_distractor_diamondtriangles.svg	24	yes	53	1	807	0	0			0	0			1				0	
6.6.1	win	2023-06-27	21:08:59	21:21:59	774673	54676961fdf99b7ba4d35cd6	4	1	main_slash	11	advance_on_keypress_SLASH	104	stimuli_target_diamondsquares.svg	stimuli_distractor_diamondtriangles.svg	24	yes	57	0	388	0	0			0	0			1				0	
6.6.1	win	2023-06-27	21:08:59	21:22:01	776173	54676961fdf99b7ba4d35cd6	4	1	main_slash	11	main_slash	105	stimuli_distractor_diamondtriangles.svg	stimuli_target_squarediamonds.svg	16	yes	53	1	474	0	0			0	0			1				0	
6.6.1	win	2023-06-27	21:08:59	21:22:01	776173	54676961fdf99b7ba4d35cd6	4	1	main_slash	11	advance_on_keypress_SLASH	106	stimuli_distractor_diamondtriangles.svg	stimuli_target_squarediamonds.svg	16	yes	57	0	493	0	0			0	0			1				0	
6.6.1	win	2023-06-27	21:08:59	21:22:03	778076	54676961fdf99b7ba4d35cd6	4	1	main_slash	11	main_slash	107	stimuli_distractor_trianglediamonds.svg	stimuli_target_rectangletriangles.svg	9	yes	53	1	777	0	0			0	0			1				0	
6.6.1	win	2023-06-27	21:08:59	21:22:03	778076	54676961fdf99b7ba4d35cd6	4	1	main_slash	11	advance_on_keypress_SLASH	108	stimuli_distractor_trianglediamonds.svg	stimuli_target_rectangletriangles.svg	9	yes	57	0	427	0	0			0	0			1				0	
6.6.1	win	2023-06-27	21:08:59	21:22:06	781151	54676961fdf99b7ba4d35cd6	4	1	main_slash	11	main_slash	109	stimuli_target_trianglerectangles.svg	stimuli_distractor_trianglediamonds.svg	17	yes	0	0	2000	0	0			0	0			1				0	
6.6.1	win	2023-06-27	21:08:59	21:22:06	781151	54676961fdf99b7ba4d35cd6	4	1	main_slash	11	advance_on_keypress_SLASH	110	stimuli_target_trianglerectangles.svg	stimuli_distractor_trianglediamonds.svg	17	yes	57	0	855	0	0			0	0			1				0	
6.6.1	win	2023-06-27	21:08:59	21:22:09	784649	54676961fdf99b7ba4d35cd6	4	1	main_slash	11	main_slash	111	stimuli_distractor_diamondtriangles.svg	stimuli_target_diamondrectangles.svg	31	yes	0	0	2000	0	0			0	0			1				0	
6.6.1	win	2023-06-27	21:08:59	21:22:09	784649	54676961fdf99b7ba4d35cd6	4	1	main_slash	11	advance_on_keypress_SLASH	112	stimuli_distractor_diamondtriangles.svg	stimuli_target_diamondrectangles.svg	31	yes	57	0	880	0	0			0	0			1				0	
6.6.1	win	2023-06-27	21:08:59	21:22:12	787569	54676961fdf99b7ba4d35cd6	4	1	main_slash	11	main_slash	113	stimuli_distractor_diamondtriangles.svg	stimuli_target_diamondsquares.svg	32	yes	53	1	1386	0	0			0	0			1				0	
6.6.1	win	2023-06-27	21:08:59	21:22:12	787569	54676961fdf99b7ba4d35cd6	4	1	main_slash	11	advance_on_keypress_SLASH	114	stimuli_distractor_diamondtriangles.svg	stimuli_target_diamondsquares.svg	32	yes	57	0	933	0	0			0	0			1				0	
6.6.1	win	2023-06-27	21:08:59	21:22:16	791149	54676961fdf99b7ba4d35cd6	4	1	main_slash	11	main_slash	115	stimuli_target_diamondrectangles.svg	stimuli_distractor_diamondtriangles.svg	23	yes	0	0	2000	0	0			0	0			1				0	
6.6.1	win	2023-06-27	21:08:59	21:22:16	791149	54676961fdf99b7ba4d35cd6	4	1	main_slash	11	advance_on_keypress_SLASH	116	stimuli_target_diamondrectangles.svg	stimuli_distractor_diamondtriangles.svg	23	yes	57	0	315	0	0			0	0			1				0	
6.6.1	win	2023-06-27	21:08:59	21:22:19	793837	54676961fdf99b7ba4d35cd6	4	1	main_slash	11	main_slash	117	stimuli_distractor_diamondtriangles.svg	stimuli_target_squaretriangles.svg	15	yes	53	1	1722	0	0			0	0			1				0	
6.6.1	win	2023-06-27	21:08:59	21:22:19	793837	54676961fdf99b7ba4d35cd6	4	1	main_slash	11	advance_on_keypress_SLASH	118	stimuli_distractor_diamondtriangles.svg	stimuli_target_squaretriangles.svg	15	yes	57	0	447	0	0			0	0			1				0	
6.6.1	win	2023-06-27	21:08:59	21:22:22	796933	54676961fdf99b7ba4d35cd6	4	1	main_slash	11	main_slash	119	stimuli_target_diamondrectangles.svg	stimuli_distractor_trianglediamonds.svg	19	yes	0	0	2000	0	0			0	0			1				0	
6.6.1	win	2023-06-27	21:08:59	21:22:22	796933	54676961fdf99b7ba4d35cd6	4	1	main_slash	11	advance_on_keypress_SLASH	120	stimuli_target_diamondrectangles.svg	stimuli_distractor_trianglediamonds.svg	19	yes	57	0	387	0	0			0	0			1				0	
6.6.1	win	2023-06-27	21:08:59	21:22:24	798840	54676961fdf99b7ba4d35cd6	4	1	main_slash	11	main_slash	121	stimuli_target_trianglesquares.svg	stimuli_distractor_trianglediamonds.svg	18	yes	53	1	874	0	0			0	0			1				0	
6.6.1	win	2023-06-27	21:08:59	21:22:24	798840	54676961fdf99b7ba4d35cd6	4	1	main_slash	11	advance_on_keypress_SLASH	122	stimuli_target_trianglesquares.svg	stimuli_distractor_trianglediamonds.svg	18	yes	57	0	256	0	0			0	0			1				0	
6.6.1	win	2023-06-27	21:08:59	21:22:25	800459	54676961fdf99b7ba4d35cd6	4	1	main_slash	11	main_slash	123	stimuli_target_trianglesquares.svg	stimuli_distractor_diamondtriangles.svg	22	yes	53	1	726	0	0			0	0			1				0	
6.6.1	win	2023-06-27	21:08:59	21:22:25	800459	54676961fdf99b7ba4d35cd6	4	1	main_slash	11	advance_on_keypress_SLASH	124	stimuli_target_trianglesquares.svg	stimuli_distractor_diamondtriangles.svg	22	yes	57	0	270	0	0			0	0			1				0	
6.6.1	win	2023-06-27	21:08:59	21:22:28	803366	54676961fdf99b7ba4d35cd6	4	1	main_slash	11	main_slash	125	stimuli_distractor_trianglediamonds.svg	stimuli_distractor_trianglediamonds.svg	33	no	0	1	2000	0	0			0	0			1				0	
6.6.1	win	2023-06-27	21:08:59	21:22:28	803366	54676961fdf99b7ba4d35cd6	4	1	main_slash	11	advance_on_keypress_SLASH	126	stimuli_distractor_trianglediamonds.svg	stimuli_distractor_trianglediamonds.svg	33	no	57	0	627	0	0			0	0			1				0	
6.6.1	win	2023-06-27	21:08:59	21:22:31	806649	54676961fdf99b7ba4d35cd6	4	1	main_slash	11	main_slash	127	stimuli_target_diamondsquares.svg	stimuli_distractor_trianglediamonds.svg	20	yes	0	0	2000	0	0			0	0			1				0	
6.6.1	win	2023-06-27	21:08:59	21:22:31	806649	54676961fdf99b7ba4d35cd6	4	1	main_slash	11	advance_on_keypress_SLASH	128	stimuli_target_diamondsquares.svg	stimuli_distractor_trianglediamonds.svg	20	yes	57	0	609	0	0			0	0			1				0	
6.6.1	win	2023-06-27	21:08:59	21:22:33	808725	54676961fdf99b7ba4d35cd6	4	1	main_slash	11	main_slash	129	stimuli_distractor_trianglediamonds.svg	stimuli_distractor_trianglediamonds.svg	34	no	53	0	826	0	0			0	0			1				0	
6.6.1	win	2023-06-27	21:08:59	21:22:33	808725	54676961fdf99b7ba4d35cd6	4	1	main_slash	11	advance_on_keypress_SLASH	130	stimuli_distractor_trianglediamonds.svg	stimuli_distractor_trianglediamonds.svg	34	no	57	0	388	0	0			0	0			1				0	
6.6.1	win	2023-06-27	21:08:59	21:22:36	811539	54676961fdf99b7ba4d35cd6	4	1	main_slash	11	main_slash	131	stimuli_target_squaretriangles.svg	stimuli_distractor_diamondtriangles.svg	7	yes	53	1	1791	0	0			0	0			1				0	
6.6.1	win	2023-06-27	21:08:59	21:22:36	811539	54676961fdf99b7ba4d35cd6	4	1	main_slash	11	advance_on_keypress_SLASH	132	stimuli_target_squaretriangles.svg	stimuli_distractor_diamondtriangles.svg	7	yes	57	0	642	0	0			0	0			1				0	
6.6.1	win	2023-06-27	21:08:59	21:22:38	813619	54676961fdf99b7ba4d35cd6	4	1	main_slash	11	main_slash	133	stimuli_distractor_diamondtriangles.svg	stimuli_distractor_trianglediamonds.svg	38	no	53	0	804	0	0			0	0			1				0	
6.6.1	win	2023-06-27	21:08:59	21:22:38	813619	54676961fdf99b7ba4d35cd6	4	1	main_slash	11	advance_on_keypress_SLASH	134	stimuli_distractor_diamondtriangles.svg	stimuli_distractor_trianglediamonds.svg	38	no	57	0	275	0	0			0	0			1				0	
6.6.1	win	2023-06-27	21:08:59	21:22:40	815284	54676961fdf99b7ba4d35cd6	4	1	main_slash	11	main_slash	135	stimuli_distractor_diamondtriangles.svg	stimuli_distractor_diamondtriangles.svg	40	no	53	0	752	0	0			0	0			1				0	
6.6.1	win	2023-06-27	21:08:59	21:22:40	815284	54676961fdf99b7ba4d35cd6	4	1	main_slash	11	advance_on_keypress_SLASH	136	stimuli_distractor_diamondtriangles.svg	stimuli_distractor_diamondtriangles.svg	40	no	57	0	267	0	0			0	0			1				0	
6.6.1	win	2023-06-27	21:08:59	21:22:42	817126	54676961fdf99b7ba4d35cd6	4	1	main_slash	11	main_slash	137	stimuli_target_trianglerectangles.svg	stimuli_distractor_diamondtriangles.svg	21	yes	53	1	928	0	0			0	0			1				0	
6.6.1	win	2023-06-27	21:08:59	21:22:42	817126	54676961fdf99b7ba4d35cd6	4	1	main_slash	11	advance_on_keypress_SLASH	138	stimuli_target_trianglerectangles.svg	stimuli_distractor_diamondtriangles.svg	21	yes	57	0	262	0	0			0	0			1				0	
6.6.1	win	2023-06-27	21:08:59	21:22:44	818914	54676961fdf99b7ba4d35cd6	4	1	main_slash	11	main_slash	139	stimuli_distractor_trianglediamonds.svg	stimuli_target_diamondsquares.svg	28	yes	53	1	865	0	0			0	0			1				0	
6.6.1	win	2023-06-27	21:08:59	21:22:44	818914	54676961fdf99b7ba4d35cd6	4	1	main_slash	11	advance_on_keypress_SLASH	140	stimuli_distractor_trianglediamonds.svg	stimuli_target_diamondsquares.svg	28	yes	57	0	212	0	0			0	0			1				0	
6.6.1	win	2023-06-27	21:08:59	21:22:45	820591	54676961fdf99b7ba4d35cd6	4	1	main_slash	11	main_slash	141	stimuli_distractor_trianglediamonds.svg	stimuli_target_squarediamonds.svg	12	yes	53	1	809	0	0			0	0			1				0	
6.6.1	win	2023-06-27	21:08:59	21:22:45	820591	54676961fdf99b7ba4d35cd6	4	1	main_slash	11	advance_on_keypress_SLASH	142	stimuli_distractor_trianglediamonds.svg	stimuli_target_squarediamonds.svg	12	yes	57	0	381	0	0			0	0			1				0	
6.6.1	win	2023-06-27	21:08:59	21:22:48	823616	54676961fdf99b7ba4d35cd6	4	1	main_slash	11	main_slash	143	stimuli_distractor_trianglediamonds.svg	stimuli_target_trianglesquares.svg	26	yes	0	0	2000	0	0			0	0			1				0	
6.6.1	win	2023-06-27	21:08:59	21:22:48	823616	54676961fdf99b7ba4d35cd6	4	1	main_slash	11	advance_on_keypress_SLASH	144	stimuli_distractor_trianglediamonds.svg	stimuli_target_trianglesquares.svg	26	yes	57	0	868	0	0			0	0			1				0	
6.6.1	win	2023-06-27	21:08:59	21:22:52	827131	54676961fdf99b7ba4d35cd6	4	1	main_slash	11	main_slash	145	stimuli_target_squarediamonds.svg	stimuli_distractor_trianglediamonds.svg	4	yes	0	0	2000	0	0			0	0			1				0	
6.6.1	win	2023-06-27	21:08:59	21:22:52	827131	54676961fdf99b7ba4d35cd6	4	1	main_slash	11	advance_on_keypress_SLASH	146	stimuli_target_squarediamonds.svg	stimuli_distractor_trianglediamonds.svg	4	yes	57	0	657	0	0			0	0			1				0	
6.6.1	win	2023-06-27	21:08:59	21:22:54	829265	54676961fdf99b7ba4d35cd6	4	1	main_slash	11	main_slash	147	stimuli_distractor_trianglediamonds.svg	stimuli_target_trianglerectangles.svg	25	yes	53	1	834	0	0			0	0			1				0	
6.6.1	win	2023-06-27	21:08:59	21:22:54	829265	54676961fdf99b7ba4d35cd6	4	1	main_slash	11	advance_on_keypress_SLASH	148	stimuli_distractor_trianglediamonds.svg	stimuli_target_trianglerectangles.svg	25	yes	57	0	256	0	0			0	0			1				0	
6.6.1	win	2023-06-27	21:08:59	21:22:57	832164	54676961fdf99b7ba4d35cd6	4	1	main_slash	11	main_slash	149	stimuli_distractor_diamondtriangles.svg	stimuli_distractor_trianglediamonds.svg	37	no	0	1	2000	0	0			0	0			1				0	
6.6.1	win	2023-06-27	21:08:59	21:22:57	832164	54676961fdf99b7ba4d35cd6	4	1	main_slash	11	advance_on_keypress_SLASH	150	stimuli_distractor_diamondtriangles.svg	stimuli_distractor_trianglediamonds.svg	37	no	57	0	690	0	0			0	0			1				0	
6.6.1	win	2023-06-27	21:08:59	21:22:59	834325	54676961fdf99b7ba4d35cd6	4	1	main_slash	11	main_slash	151	stimuli_distractor_trianglediamonds.svg	stimuli_distractor_diamondtriangles.svg	36	no	53	0	827	0	0			0	0			1				0	
6.6.1	win	2023-06-27	21:08:59	21:22:59	834325	54676961fdf99b7ba4d35cd6	4	1	main_slash	11	advance_on_keypress_SLASH	152	stimuli_distractor_trianglediamonds.svg	stimuli_distractor_diamondtriangles.svg	36	no	57	0	306	0	0			0	0			1				0	
6.6.1	win	2023-06-27	21:08:59	21:23:01	836162	54676961fdf99b7ba4d35cd6	4	1	main_slash	11	main_slash	153	stimuli_target_rectangletriangles.svg	stimuli_distractor_diamondtriangles.svg	5	yes	53	1	899	0	0			0	0			1				0	
6.6.1	win	2023-06-27	21:08:59	21:23:01	836162	54676961fdf99b7ba4d35cd6	4	1	main_slash	11	advance_on_keypress_SLASH	154	stimuli_target_rectangletriangles.svg	stimuli_distractor_diamondtriangles.svg	5	yes	57	0	236	0	0			0	0			1				0	
6.6.1	win	2023-06-27	21:08:59	21:23:03	837783	54676961fdf99b7ba4d35cd6	4	1	main_slash	11	main_slash	155	stimuli_target_rectanglediamonds.svg	stimuli_distractor_trianglediamonds.svg	2	yes	53	1	736	0	0			0	0			1				0	
6.6.1	win	2023-06-27	21:08:59	21:23:03	837783	54676961fdf99b7ba4d35cd6	4	1	main_slash	11	advance_on_keypress_SLASH	156	stimuli_target_rectanglediamonds.svg	stimuli_distractor_trianglediamonds.svg	2	yes	57	0	331	0	0			0	0			1				0	
6.6.1	win	2023-06-27	21:08:59	21:23:04	839538	54676961fdf99b7ba4d35cd6	4	1	main_slash	11	main_slash	157	stimuli_distractor_diamondtriangles.svg	stimuli_target_trianglesquares.svg	30	yes	53	1	773	0	0			0	0			1				0	
6.6.1	win	2023-06-27	21:08:59	21:23:04	839538	54676961fdf99b7ba4d35cd6	4	1	main_slash	11	advance_on_keypress_SLASH	158	stimuli_distractor_diamondtriangles.svg	stimuli_target_trianglesquares.svg	30	yes	57	0	369	0	0			0	0			1				0	
6.6.1	win	2023-06-27	21:08:59	21:23:06	841650	54676961fdf99b7ba4d35cd6	4	1	main_slash	11	main_slash	159	stimuli_target_squarediamonds.svg	stimuli_distractor_diamondtriangles.svg	8	yes	53	1	1103	0	0			0	0			1				0	
6.6.1	win	2023-06-27	21:08:59	21:23:06	841650	54676961fdf99b7ba4d35cd6	4	1	main_slash	11	advance_on_keypress_SLASH	160	stimuli_target_squarediamonds.svg	stimuli_distractor_diamondtriangles.svg	8	yes	57	0	4866	0	0			0	0			1				0	
6.6.1	win	2023-06-27	21:08:59	21:23:06	841650	54676961fdf99b7ba4d35cd6	4	1	headphonecheck_calibration	14	headphonecheck_calibrationIntro	1	stimuli_target_squarediamonds.svg	stimuli_distractor_diamondtriangles.svg	8	yes	calibrationButton	0	1600	0	0			0	0			1				0	
6.6.1	win	2023-06-27	21:08:59	21:23:06	841650	54676961fdf99b7ba4d35cd6	4	1	headphonecheck_testphase	15	test_collectResponse	3	stimuli_target_squarediamonds.svg	stimuli_distractor_diamondtriangles.svg	8	yes	third	1	752	1	2	antiphase_hc_ios.wav	3	0	0			1				0	
6.6.1	win	2023-06-27	21:08:59	21:23:06	841650	54676961fdf99b7ba4d35cd6	4	1	headphonecheck_testphase	15	test_collectResponse	6	stimuli_target_squarediamonds.svg	stimuli_distractor_diamondtriangles.svg	8	yes	third	1	1287	2	6	antiphase_hc_ois.wav	3	0	0			1				0	
6.6.1	win	2023-06-27	21:08:59	21:23:06	841650	54676961fdf99b7ba4d35cd6	4	1	headphonecheck_testphase	15	test_collectResponse	9	stimuli_target_squarediamonds.svg	stimuli_distractor_diamondtriangles.svg	8	yes	first	0	215	3	1	antiphase_hc_iso.wav	2	0	0			1				0	
6.6.1	win	2023-06-27	21:08:59	21:23:06	841650	54676961fdf99b7ba4d35cd6	4	1	headphonecheck_testphase	15	test_collectResponse	12	stimuli_target_squarediamonds.svg	stimuli_distractor_diamondtriangles.svg	8	yes	second	1	478	4	5	antiphase_hc_osi.wav	2	0	0			1				0	
6.6.1	win	2023-06-27	21:08:59	21:23:06	841650	54676961fdf99b7ba4d35cd6	4	1	headphonecheck_testphase	15	test_collectResponse	15	stimuli_target_squarediamonds.svg	stimuli_distractor_diamondtriangles.svg	8	yes	first	1	687	5	4	antiphase_hc_sio.wav	1	0	0			1				0	
6.6.1	win	2023-06-27	21:08:59	21:23:06	841650	54676961fdf99b7ba4d35cd6	4	1	headphonecheck_testphase	15	test_collectResponse	18	stimuli_target_squarediamonds.svg	stimuli_distractor_diamondtriangles.svg	8	yes	first	1	209	6	3	antiphase_hc_soi.wav	1	0	0			1				0	
6.6.1	win	2023-06-27	21:08:59	21:23:06	841650	54676961fdf99b7ba4d35cd6	4	1	stereocheck_calibration	17	stereocheck_calibrationIntro	1	stimuli_target_squarediamonds.svg	stimuli_distractor_diamondtriangles.svg	8	yes	stereocheck_calibrationButton	0	3459	6	3	antiphase_hc_soi.wav	1	0	0			1				0	
6.6.1	win	2023-06-27	21:08:59	21:23:06	841650	54676961fdf99b7ba4d35cd6	4	1	stereocheck_testphase	18	stereocheck_test_collectResponse	3	stimuli_target_squarediamonds.svg	stimuli_distractor_diamondtriangles.svg	8	yes	stereocheck_left	1	7065	6	3	antiphase_hc_soi.wav	1	1	1	noise_calib_stim_LEFT.wav	1	1				0	
6.6.1	win	2023-06-27	21:08:59	21:23:06	841650	54676961fdf99b7ba4d35cd6	4	1	stereocheck_testphase	18	stereocheck_test_collectResponse	6	stimuli_target_squarediamonds.svg	stimuli_distractor_diamondtriangles.svg	8	yes	stereocheck_left	1	600	6	3	antiphase_hc_soi.wav	1	2	2	noise_calib_stim_LEFT.wav	1	1				0	
6.6.1	win	2023-06-27	21:08:59	21:23:06	841650	54676961fdf99b7ba4d35cd6	4	1	stereocheck_testphase	18	stereocheck_test_collectResponse	9	stimuli_target_squarediamonds.svg	stimuli_distractor_diamondtriangles.svg	8	yes	stereocheck_right	1	416	6	3	antiphase_hc_soi.wav	1	3	5	noise_calib_stim_RIGHT.wav	2	1				0	
6.6.1	win	2023-06-27	21:08:59	21:23:06	841650	54676961fdf99b7ba4d35cd6	4	1	stereocheck_testphase	18	stereocheck_test_collectResponse	12	stimuli_target_squarediamonds.svg	stimuli_distractor_diamondtriangles.svg	8	yes	stereocheck_right	1	342	6	3	antiphase_hc_soi.wav	1	4	6	noise_calib_stim_RIGHT.wav	2	1				0	
6.6.1	win	2023-06-27	21:08:59	21:23:06	841650	54676961fdf99b7ba4d35cd6	4	1	stereocheck_testphase	18	stereocheck_test_collectResponse	15	stimuli_target_squarediamonds.svg	stimuli_distractor_diamondtriangles.svg	8	yes	stereocheck_right	1	783	6	3	antiphase_hc_soi.wav	1	5	4	noise_calib_stim_RIGHT.wav	2	1				0	
6.6.1	win	2023-06-27	21:08:59	21:23:06	841650	54676961fdf99b7ba4d35cd6	4	1	stereocheck_testphase	18	stereocheck_test_collectResponse	18	stimuli_target_squarediamonds.svg	stimuli_distractor_diamondtriangles.svg	8	yes	stereocheck_left	1	319	6	3	antiphase_hc_soi.wav	1	6	3	noise_calib_stim_LEFT.wav	1	1				0	
6.6.1	win	2023-06-27	21:08:59	21:23:06	841650	54676961fdf99b7ba4d35cd6	4	1	DL_practice	21	DL_practice	2	stimuli_target_squarediamonds.svg	stimuli_distractor_diamondtriangles.svg	8	yes	pa	1	1403	6	3	antiphase_hc_soi.wav	1	6	3	noise_calib_stim_LEFT.wav	1	29	blb_dichoticlistening_pa-pa.mp3	pa	pa	0	left
6.6.1	win	2023-06-27	21:08:59	21:23:06	841650	54676961fdf99b7ba4d35cd6	4	1	DL_practice	21	DL_practice	3	stimuli_target_squarediamonds.svg	stimuli_distractor_diamondtriangles.svg	8	yes	ka	1	1189	6	3	antiphase_hc_soi.wav	1	6	3	noise_calib_stim_LEFT.wav	1	22	blb_dichoticlistening_ka-ka.mp3	ka	ka	0	left
6.6.1	win	2023-06-27	21:08:59	21:23:06	841650	54676961fdf99b7ba4d35cd6	4	1	DL_practice	21	DL_practice	4	stimuli_target_squarediamonds.svg	stimuli_distractor_diamondtriangles.svg	8	yes	ba	1	2332	6	3	antiphase_hc_soi.wav	1	6	3	noise_calib_stim_LEFT.wav	1	7	blb_dichoticlistening_da-ba.mp3	da	ba	1	right
6.6.1	win	2023-06-27	21:08:59	21:23:06	841650	54676961fdf99b7ba4d35cd6	4	1	DL_practice	21	DL_practice	5	stimuli_target_squarediamonds.svg	stimuli_distractor_diamondtriangles.svg	8	yes	ba	0	898	6	3	antiphase_hc_soi.wav	1	6	3	noise_calib_stim_LEFT.wav	1	15	blb_dichoticlistening_ga-ga.mp3	ga	ga	0	other
6.6.1	win	2023-06-27	21:08:59	21:23:06	841650	54676961fdf99b7ba4d35cd6	4	1	DL_practice	21	DL_practice	6	stimuli_target_squarediamonds.svg	stimuli_distractor_diamondtriangles.svg	8	yes	ka	1	1224	6	3	antiphase_hc_soi.wav	1	6	3	noise_calib_stim_LEFT.wav	1	23	blb_dichoticlistening_ka-pa.mp3	ka	pa	1	left
6.6.1	win	2023-06-27	21:08:59	21:23:06	841650	54676961fdf99b7ba4d35cd6	4	1	DL_practice	21	DL_practice	7	stimuli_target_squarediamonds.svg	stimuli_distractor_diamondtriangles.svg	8	yes	ta	1	1642	6	3	antiphase_hc_soi.wav	1	6	3	noise_calib_stim_LEFT.wav	1	36	blb_dichoticlistening_ta-ta.mp3	ta	ta	0	left
6.6.1	win	2023-06-27	21:08:59	21:23:06	841650	54676961fdf99b7ba4d35cd6	4	1	DL_practice	21	DL_practice	8	stimuli_target_squarediamonds.svg	stimuli_distractor_diamondtriangles.svg	8	yes	ga	1	1481	6	3	antiphase_hc_soi.wav	1	6	3	noise_calib_stim_LEFT.wav	1	18	blb_dichoticlistening_ga-ta.mp3	ga	ta	1	left
6.6.1	win	2023-06-27	21:08:59	21:23:06	841650	54676961fdf99b7ba4d35cd6	4	1	DL_practice	21	DL_practice	9	stimuli_target_squarediamonds.svg	stimuli_distractor_diamondtriangles.svg	8	yes	da	1	2124	6	3	antiphase_hc_soi.wav	1	6	3	noise_calib_stim_LEFT.wav	1	8	blb_dichoticlistening_da-da.mp3	da	da	0	left
6.6.1	win	2023-06-27	21:08:59	21:23:06	841650	54676961fdf99b7ba4d35cd6	4	1	DL_practice	21	DL_practice	10	stimuli_target_squarediamonds.svg	stimuli_distractor_diamondtriangles.svg	8	yes	ba	1	1121	6	3	antiphase_hc_soi.wav	1	6	3	noise_calib_stim_LEFT.wav	1	1	blb_dichoticlistening_ba-ba.mp3	ba	ba	0	left
6.6.1	win	2023-06-27	21:08:59	21:23:06	841650	54676961fdf99b7ba4d35cd6	4	1	DL_test	23	DL_test	1	stimuli_target_squarediamonds.svg	stimuli_distractor_diamondtriangles.svg	8	yes	da	0	1533	6	3	antiphase_hc_soi.wav	1	6	3	noise_calib_stim_LEFT.wav	1	17	blb_dichoticlistening_ga-pa.mp3	ga	pa	1	other
6.6.1	win	2023-06-27	21:08:59	21:23:06	841650	54676961fdf99b7ba4d35cd6	4	1	DL_test	23	DL_test	2	stimuli_target_squarediamonds.svg	stimuli_distractor_diamondtriangles.svg	8	yes	da	1	738	6	3	antiphase_hc_soi.wav	1	6	3	noise_calib_stim_LEFT.wav	1	8	blb_dichoticlistening_da-da.mp3	da	da	0	left
6.6.1	win	2023-06-27	21:08:59	21:23:06	841650	54676961fdf99b7ba4d35cd6	4	1	DL_test	23	DL_test	3	stimuli_target_squarediamonds.svg	stimuli_distractor_diamondtriangles.svg	8	yes	da	1	897	6	3	antiphase_hc_soi.wav	1	6	3	noise_calib_stim_LEFT.wav	1	11	blb_dichoticlistening_da-pa.mp3	da	pa	1	left
6.6.1	win	2023-06-27	21:08:59	21:23:06	841650	54676961fdf99b7ba4d35cd6	4	1	DL_test	23	DL_test	4	stimuli_target_squarediamonds.svg	stimuli_distractor_diamondtriangles.svg	8	yes	ga	1	1601	6	3	antiphase_hc_soi.wav	1	6	3	noise_calib_stim_LEFT.wav	1	33	blb_dichoticlistening_ta-ga.mp3	ta	ga	1	right
6.6.1	win	2023-06-27	21:08:59	21:23:06	841650	54676961fdf99b7ba4d35cd6	4	1	DL_test	23	DL_test	5	stimuli_target_squarediamonds.svg	stimuli_distractor_diamondtriangles.svg	8	yes	da	1	1768	6	3	antiphase_hc_soi.wav	1	6	3	noise_calib_stim_LEFT.wav	1	2	blb_dichoticlistening_ba-da.mp3	ba	da	1	right
6.6.1	win	2023-06-27	21:08:59	21:23:06	841650	54676961fdf99b7ba4d35cd6	4	1	DL_test	23	DL_test	6	stimuli_target_squarediamonds.svg	stimuli_distractor_diamondtriangles.svg	8	yes	ta	1	1313	6	3	antiphase_hc_soi.wav	1	6	3	noise_calib_stim_LEFT.wav	1	36	blb_dichoticlistening_ta-ta.mp3	ta	ta	0	left
6.6.1	win	2023-06-27	21:08:59	21:23:06	841650	54676961fdf99b7ba4d35cd6	4	1	DL_test	23	DL_test	7	stimuli_target_squarediamonds.svg	stimuli_distractor_diamondtriangles.svg	8	yes	ba	1	1675	6	3	antiphase_hc_soi.wav	1	6	3	noise_calib_stim_LEFT.wav	1	3	blb_dichoticlistening_ba-ga.mp3	ba	ga	1	left
6.6.1	win	2023-06-27	21:08:59	21:23:06	841650	54676961fdf99b7ba4d35cd6	4	1	DL_test	23	DL_test	8	stimuli_target_squarediamonds.svg	stimuli_distractor_diamondtriangles.svg	8	yes	ba	1	1443	6	3	antiphase_hc_soi.wav	1	6	3	noise_calib_stim_LEFT.wav	1	13	blb_dichoticlistening_ga-ba.mp3	ga	ba	1	right
6.6.1	win	2023-06-27	21:08:59	21:23:06	841650	54676961fdf99b7ba4d35cd6	4	1	DL_test	23	DL_test	9	stimuli_target_squarediamonds.svg	stimuli_distractor_diamondtriangles.svg	8	yes	ta	1	1453	6	3	antiphase_hc_soi.wav	1	6	3	noise_calib_stim_LEFT.wav	1	30	blb_dichoticlistening_pa-ta.mp3	pa	ta	1	right
6.6.1	win	2023-06-27	21:08:59	21:23:06	841650	54676961fdf99b7ba4d35cd6	4	1	DL_test	23	DL_test	10	stimuli_target_squarediamonds.svg	stimuli_distractor_diamondtriangles.svg	8	yes	pa	0	980	6	3	antiphase_hc_soi.wav	1	6	3	noise_calib_stim_LEFT.wav	1	6	blb_dichoticlistening_ba-ta.mp3	ba	ta	1	other
6.6.1	win	2023-06-27	21:08:59	21:23:06	841650	54676961fdf99b7ba4d35cd6	4	1	DL_test	23	DL_test	11	stimuli_target_squarediamonds.svg	stimuli_distractor_diamondtriangles.svg	8	yes	ka	1	756	6	3	antiphase_hc_soi.wav	1	6	3	noise_calib_stim_LEFT.wav	1	23	blb_dichoticlistening_ka-pa.mp3	ka	pa	1	left
6.6.1	win	2023-06-27	21:08:59	21:23:06	841650	54676961fdf99b7ba4d35cd6	4	1	DL_test	23	DL_test	12	stimuli_target_squarediamonds.svg	stimuli_distractor_diamondtriangles.svg	8	yes	pa	0	1848	6	3	antiphase_hc_soi.wav	1	6	3	noise_calib_stim_LEFT.wav	1	7	blb_dichoticlistening_da-ba.mp3	da	ba	1	other
6.6.1	win	2023-06-27	21:08:59	21:23:06	841650	54676961fdf99b7ba4d35cd6	4	1	DL_test	23	DL_test	13	stimuli_target_squarediamonds.svg	stimuli_distractor_diamondtriangles.svg	8	yes	ka	1	1639	6	3	antiphase_hc_soi.wav	1	6	3	noise_calib_stim_LEFT.wav	1	34	blb_dichoticlistening_ta-ka.mp3	ta	ka	1	right
6.6.1	win	2023-06-27	21:08:59	21:23:06	841650	54676961fdf99b7ba4d35cd6	4	1	DL_test	23	DL_test	14	stimuli_target_squarediamonds.svg	stimuli_distractor_diamondtriangles.svg	8	yes	pa	1	1721	6	3	antiphase_hc_soi.wav	1	6	3	noise_calib_stim_LEFT.wav	1	29	blb_dichoticlistening_pa-pa.mp3	pa	pa	0	left
6.6.1	win	2023-06-27	21:08:59	21:23:06	841650	54676961fdf99b7ba4d35cd6	4	1	DL_test	23	DL_test	15	stimuli_target_squarediamonds.svg	stimuli_distractor_diamondtriangles.svg	8	yes	da	1	1237	6	3	antiphase_hc_soi.wav	1	6	3	noise_calib_stim_LEFT.wav	1	12	blb_dichoticlistening_da-ta.mp3	da	ta	1	left
6.6.1	win	2023-06-27	21:08:59	21:23:06	841650	54676961fdf99b7ba4d35cd6	4	1	DL_test	23	DL_test	16	stimuli_target_squarediamonds.svg	stimuli_distractor_diamondtriangles.svg	8	yes	ka	1	2695	6	3	antiphase_hc_soi.wav	1	6	3	noise_calib_stim_LEFT.wav	1	28	blb_dichoticlistening_pa-ka.mp3	pa	ka	1	right
6.6.1	win	2023-06-27	21:08:59	21:23:06	841650	54676961fdf99b7ba4d35cd6	4	1	DL_test	23	DL_test	17	stimuli_target_squarediamonds.svg	stimuli_distractor_diamondtriangles.svg	8	yes	da	0	1736	6	3	antiphase_hc_soi.wav	1	6	3	noise_calib_stim_LEFT.wav	1	31	blb_dichoticlistening_ta-ba.mp3	ta	ba	1	other
6.6.1	win	2023-06-27	21:08:59	21:23:06	841650	54676961fdf99b7ba4d35cd6	4	1	DL_test	23	DL_test	18	stimuli_target_squarediamonds.svg	stimuli_distractor_diamondtriangles.svg	8	yes	ba	1	1048	6	3	antiphase_hc_soi.wav	1	6	3	noise_calib_stim_LEFT.wav	1	5	blb_dichoticlistening_ba-pa.mp3	ba	pa	1	left
6.6.1	win	2023-06-27	21:08:59	21:23:06	841650	54676961fdf99b7ba4d35cd6	4	1	DL_test	23	DL_test	19	stimuli_target_squarediamonds.svg	stimuli_distractor_diamondtriangles.svg	8	yes	ga	1	930	6	3	antiphase_hc_soi.wav	1	6	3	noise_calib_stim_LEFT.wav	1	21	blb_dichoticlistening_ka-ga.mp3	ka	ga	1	right
6.6.1	win	2023-06-27	21:08:59	21:23:06	841650	54676961fdf99b7ba4d35cd6	4	1	DL_test	23	DL_test	20	stimuli_target_squarediamonds.svg	stimuli_distractor_diamondtriangles.svg	8	yes	ga	1	871	6	3	antiphase_hc_soi.wav	1	6	3	noise_calib_stim_LEFT.wav	1	18	blb_dichoticlistening_ga-ta.mp3	ga	ta	1	left
6.6.1	win	2023-06-27	21:08:59	21:23:06	841650	54676961fdf99b7ba4d35cd6	4	1	DL_test	23	DL_test	21	stimuli_target_squarediamonds.svg	stimuli_distractor_diamondtriangles.svg	8	yes	ga	1	1294	6	3	antiphase_hc_soi.wav	1	6	3	noise_calib_stim_LEFT.wav	1	9	blb_dichoticlistening_da-ga.mp3	da	ga	1	right
6.6.1	win	2023-06-27	21:08:59	21:23:06	841650	54676961fdf99b7ba4d35cd6	4	1	DL_test	23	DL_test	22	stimuli_target_squarediamonds.svg	stimuli_distractor_diamondtriangles.svg	8	yes	ba	1	1685	6	3	antiphase_hc_soi.wav	1	6	3	noise_calib_stim_LEFT.wav	1	25	blb_dichoticlistening_pa-ba.mp3	pa	ba	1	right
6.6.1	win	2023-06-27	21:08:59	21:23:06	841650	54676961fdf99b7ba4d35cd6	4	1	DL_test	23	DL_test	23	stimuli_target_squarediamonds.svg	stimuli_distractor_diamondtriangles.svg	8	yes	ga	1	2543	6	3	antiphase_hc_soi.wav	1	6	3	noise_calib_stim_LEFT.wav	1	15	blb_dichoticlistening_ga-ga.mp3	ga	ga	0	left
6.6.1	win	2023-06-27	21:08:59	21:23:06	841650	54676961fdf99b7ba4d35cd6	4	1	DL_test	23	DL_test	24	stimuli_target_squarediamonds.svg	stimuli_distractor_diamondtriangles.svg	8	yes	pa	0	1551	6	3	antiphase_hc_soi.wav	1	6	3	noise_calib_stim_LEFT.wav	1	19	blb_dichoticlistening_ka-ba.mp3	ka	ba	1	other
6.6.1	win	2023-06-27	21:08:59	21:23:06	841650	54676961fdf99b7ba4d35cd6	4	1	DL_test	23	DL_test	25	stimuli_target_squarediamonds.svg	stimuli_distractor_diamondtriangles.svg	8	yes	ba	1	1550	6	3	antiphase_hc_soi.wav	1	6	3	noise_calib_stim_LEFT.wav	1	1	blb_dichoticlistening_ba-ba.mp3	ba	ba	0	left
6.6.1	win	2023-06-27	21:08:59	21:23:06	841650	54676961fdf99b7ba4d35cd6	4	1	DL_test	23	DL_test	26	stimuli_target_squarediamonds.svg	stimuli_distractor_diamondtriangles.svg	8	yes	da	1	932	6	3	antiphase_hc_soi.wav	1	6	3	noise_calib_stim_LEFT.wav	1	14	blb_dichoticlistening_ga-da.mp3	ga	da	1	right
