build	computer.platform	date	time	timestamp	time_elapsed_ms	subject	group	session	blockcode	blocknum	trialcode	trialnum	stimulus_left	stimulus_right	stim_index	target_present	response	correct	latency	headphonecheck_countTestTrials	headphonecheck_index	headphonecheck_testSound	headphonecheck_correctResponse	stereocheck_countTestTrials	stereocheck_index	stereocheck_testSound	stereocheck_correctResponse	DL_index	DL_soundfile	DL_leftSound	DL_rightSound	DL_dualSound	DL_choice
6.6.1	mac	2023-06-02	08:15:49	08:19:59	246792	641363233e3398da82fcb757	3	1	practice_slash	5	practice_slash	1	stimuli_target_squarediamonds.svg	stimuli_distractor_diamondtriangles.svg	2	yes	53	1	600	0	0			0	0			1				0	
6.6.1	mac	2023-06-02	08:15:49	08:19:59	246792	641363233e3398da82fcb757	3	1	practice_slash	5	advance_on_keypress_SLASH	2	stimuli_target_squarediamonds.svg	stimuli_distractor_diamondtriangles.svg	2	yes	57	0	6681	0	0			0	0			1				0	
6.6.1	mac	2023-06-02	08:15:49	08:20:08	255567	641363233e3398da82fcb757	3	1	practice_slash	5	practice_slash	3	stimuli_target_diamondsquares.svg	stimuli_distractor_trianglediamonds.svg	6	yes	53	1	443	0	0			0	0			1				0	
6.6.1	mac	2023-06-02	08:15:49	08:20:08	255567	641363233e3398da82fcb757	3	1	practice_slash	5	advance_on_keypress_SLASH	4	stimuli_target_diamondsquares.svg	stimuli_distractor_trianglediamonds.svg	6	yes	57	0	1583	0	0			0	0			1				0	
6.6.1	mac	2023-06-02	08:15:49	08:20:12	259097	641363233e3398da82fcb757	3	1	practice_slash	5	practice_slash	5	stimuli_distractor_diamondtriangles.svg	stimuli_target_trianglerectangles.svg	9	yes	53	1	306	0	0			0	0			1				0	
6.6.1	mac	2023-06-02	08:15:49	08:20:12	259097	641363233e3398da82fcb757	3	1	practice_slash	5	advance_on_keypress_SLASH	6	stimuli_distractor_diamondtriangles.svg	stimuli_target_trianglerectangles.svg	9	yes	57	0	1042	0	0			0	0			1				0	
6.6.1	mac	2023-06-02	08:15:49	08:20:16	263166	641363233e3398da82fcb757	3	1	practice_slash	5	practice_slash	7	stimuli_distractor_diamondtriangles.svg	stimuli_target_rectangletriangles.svg	7	yes	53	1	1376	0	0			0	0			1				0	
6.6.1	mac	2023-06-02	08:15:49	08:20:16	263166	641363233e3398da82fcb757	3	1	practice_slash	5	advance_on_keypress_SLASH	8	stimuli_distractor_diamondtriangles.svg	stimuli_target_rectangletriangles.svg	7	yes	57	0	726	0	0			0	0			1				0	
6.6.1	mac	2023-06-02	08:15:49	08:20:19	265981	641363233e3398da82fcb757	3	1	practice_slash	5	practice_slash	9	stimuli_target_squarediamonds.svg	stimuli_distractor_trianglediamonds.svg	5	yes	53	1	440	0	0			0	0			1				0	
6.6.1	mac	2023-06-02	08:15:49	08:20:19	265981	641363233e3398da82fcb757	3	1	practice_slash	5	advance_on_keypress_SLASH	10	stimuli_target_squarediamonds.svg	stimuli_distractor_trianglediamonds.svg	5	yes	57	0	952	0	0			0	0			1				0	
6.6.1	mac	2023-06-02	08:15:49	08:20:22	268991	641363233e3398da82fcb757	3	1	practice_slash	5	practice_slash	11	stimuli_distractor_diamondtriangles.svg	stimuli_distractor_trianglediamonds.svg	14	no	53	0	416	0	0			0	0			1				0	
6.6.1	mac	2023-06-02	08:15:49	08:20:22	268991	641363233e3398da82fcb757	3	1	practice_slash	5	advance_on_keypress_SLASH	12	stimuli_distractor_diamondtriangles.svg	stimuli_distractor_trianglediamonds.svg	14	no	57	0	544	0	0			0	0			1				0	
6.6.1	mac	2023-06-02	08:15:49	08:20:24	271565	641363233e3398da82fcb757	3	1	practice_slash	5	practice_slash	13	stimuli_target_diamondsquares.svg	stimuli_distractor_diamondtriangles.svg	3	yes	53	1	389	0	0			0	0			1				0	
6.6.1	mac	2023-06-02	08:15:49	08:20:24	271565	641363233e3398da82fcb757	3	1	practice_slash	5	advance_on_keypress_SLASH	14	stimuli_target_diamondsquares.svg	stimuli_distractor_diamondtriangles.svg	3	yes	57	0	1957	0	0			0	0			1				0	
6.6.1	mac	2023-06-02	08:15:49	08:20:30	277175	641363233e3398da82fcb757	3	1	practice_slash	5	practice_slash	15	stimuli_distractor_diamondtriangles.svg	stimuli_distractor_diamondtriangles.svg	13	no	0	1	2000	0	0			0	0			1				0	
6.6.1	mac	2023-06-02	08:15:49	08:20:30	277175	641363233e3398da82fcb757	3	1	practice_slash	5	advance_on_keypress_SLASH	16	stimuli_distractor_diamondtriangles.svg	stimuli_distractor_diamondtriangles.svg	13	no	57	0	845	0	0			0	0			1				0	
6.6.1	mac	2023-06-02	08:15:49	08:20:34	281655	641363233e3398da82fcb757	3	1	practice_slash	5	practice_slash	17	stimuli_distractor_trianglediamonds.svg	stimuli_distractor_diamondtriangles.svg	16	no	0	1	2000	0	0			0	0			1				0	
6.6.1	mac	2023-06-02	08:15:49	08:20:34	281655	641363233e3398da82fcb757	3	1	practice_slash	5	advance_on_keypress_SLASH	18	stimuli_distractor_trianglediamonds.svg	stimuli_distractor_diamondtriangles.svg	16	no	57	0	615	0	0			0	0			1				0	
6.6.1	mac	2023-06-02	08:15:49	08:20:37	284372	641363233e3398da82fcb757	3	1	practice_slash	5	practice_slash	19	stimuli_distractor_diamondtriangles.svg	stimuli_target_diamondrectangles.svg	8	yes	53	1	453	0	0			0	0			1				0	
6.6.1	mac	2023-06-02	08:15:49	08:20:37	284372	641363233e3398da82fcb757	3	1	practice_slash	5	advance_on_keypress_SLASH	20	stimuli_distractor_diamondtriangles.svg	stimuli_target_diamondrectangles.svg	8	yes	57	0	1459	0	0			0	0			1				0	
6.6.1	mac	2023-06-02	08:15:49	08:20:42	289474	641363233e3398da82fcb757	3	1	practice_slash	5	practice_slash	21	stimuli_target_rectanglediamonds.svg	stimuli_distractor_trianglediamonds.svg	4	yes	0	0	2000	0	0			0	0			1				0	
6.6.1	mac	2023-06-02	08:15:49	08:20:42	289474	641363233e3398da82fcb757	3	1	practice_slash	5	advance_on_keypress_SLASH	22	stimuli_target_rectanglediamonds.svg	stimuli_distractor_trianglediamonds.svg	4	yes	57	0	718	0	0			0	0			1				0	
6.6.1	mac	2023-06-02	08:15:49	08:20:45	292345	641363233e3398da82fcb757	3	1	practice_slash	5	practice_slash	23	stimuli_target_rectanglediamonds.svg	stimuli_distractor_diamondtriangles.svg	1	yes	53	1	520	0	0			0	0			1				0	
6.6.1	mac	2023-06-02	08:15:49	08:20:45	292345	641363233e3398da82fcb757	3	1	practice_slash	5	advance_on_keypress_SLASH	24	stimuli_target_rectanglediamonds.svg	stimuli_distractor_diamondtriangles.svg	1	yes	57	0	798	0	0			0	0			1				0	
6.6.1	mac	2023-06-02	08:15:49	08:20:48	295181	641363233e3398da82fcb757	3	1	practice_slash	5	practice_slash	25	stimuli_distractor_trianglediamonds.svg	stimuli_target_rectanglediamonds.svg	10	yes	53	1	405	0	0			0	0			1				0	
6.6.1	mac	2023-06-02	08:15:49	08:20:48	295181	641363233e3398da82fcb757	3	1	practice_slash	5	advance_on_keypress_SLASH	26	stimuli_distractor_trianglediamonds.svg	stimuli_target_rectanglediamonds.svg	10	yes	57	0	3544	0	0			0	0			1				0	
6.6.1	mac	2023-06-02	08:15:49	08:20:53	300728	641363233e3398da82fcb757	3	1	practice_slash	5	practice_slash	27	stimuli_distractor_trianglediamonds.svg	stimuli_target_diamondrectangles.svg	12	yes	53	1	366	0	0			0	0			1				0	
6.6.1	mac	2023-06-02	08:15:49	08:20:53	300728	641363233e3398da82fcb757	3	1	practice_slash	5	advance_on_keypress_SLASH	28	stimuli_distractor_trianglediamonds.svg	stimuli_target_diamondrectangles.svg	12	yes	57	0	1720	0	0			0	0			1				0	
6.6.1	mac	2023-06-02	08:15:49	08:20:59	306075	641363233e3398da82fcb757	3	1	practice_slash	5	practice_slash	29	stimuli_distractor_trianglediamonds.svg	stimuli_distractor_trianglediamonds.svg	15	no	0	1	2000	0	0			0	0			1				0	
6.6.1	mac	2023-06-02	08:15:49	08:20:59	306075	641363233e3398da82fcb757	3	1	practice_slash	5	advance_on_keypress_SLASH	30	stimuli_distractor_trianglediamonds.svg	stimuli_distractor_trianglediamonds.svg	15	no	57	0	2378	0	0			0	0			1				0	
6.6.1	mac	2023-06-02	08:15:49	08:21:03	310607	641363233e3398da82fcb757	3	1	practice_slash	5	practice_slash	31	stimuli_distractor_trianglediamonds.svg	stimuli_target_squarediamonds.svg	11	yes	53	1	512	0	0			0	0			1				0	
6.6.1	mac	2023-06-02	08:15:49	08:21:03	310607	641363233e3398da82fcb757	3	1	practice_slash	5	advance_on_keypress_SLASH	32	stimuli_distractor_trianglediamonds.svg	stimuli_target_squarediamonds.svg	11	yes	57	0	1417	0	0			0	0			1				0	
6.6.1	mac	2023-06-02	08:15:49	08:21:23	329913	641363233e3398da82fcb757	3	1	main_slash	7	main_slash	1	stimuli_target_trianglesquares.svg	stimuli_distractor_diamondtriangles.svg	22	yes	53	1	301	0	0			0	0			1				0	
6.6.1	mac	2023-06-02	08:15:49	08:21:23	329913	641363233e3398da82fcb757	3	1	main_slash	7	advance_on_keypress_SLASH	2	stimuli_target_trianglesquares.svg	stimuli_distractor_diamondtriangles.svg	22	yes	57	0	2612	0	0			0	0			1				0	
6.6.1	mac	2023-06-02	08:15:49	08:21:26	333573	641363233e3398da82fcb757	3	1	main_slash	7	main_slash	3	stimuli_target_squarediamonds.svg	stimuli_distractor_trianglediamonds.svg	4	yes	53	1	410	0	0			0	0			1				0	
6.6.1	mac	2023-06-02	08:15:49	08:21:26	333573	641363233e3398da82fcb757	3	1	main_slash	7	advance_on_keypress_SLASH	4	stimuli_target_squarediamonds.svg	stimuli_distractor_trianglediamonds.svg	4	yes	57	0	1479	0	0			0	0			1				0	
6.6.1	mac	2023-06-02	08:15:49	08:21:29	336114	641363233e3398da82fcb757	3	1	main_slash	7	main_slash	5	stimuli_target_squarediamonds.svg	stimuli_distractor_diamondtriangles.svg	8	yes	53	1	418	0	0			0	0			1				0	
6.6.1	mac	2023-06-02	08:15:49	08:21:29	336114	641363233e3398da82fcb757	3	1	main_slash	7	advance_on_keypress_SLASH	6	stimuli_target_squarediamonds.svg	stimuli_distractor_diamondtriangles.svg	8	yes	57	0	983	0	0			0	0			1				0	
6.6.1	mac	2023-06-02	08:15:49	08:21:32	339744	641363233e3398da82fcb757	3	1	main_slash	7	main_slash	7	stimuli_distractor_trianglediamonds.svg	stimuli_distractor_trianglediamonds.svg	34	no	0	1	2000	0	0			0	0			1				0	
6.6.1	mac	2023-06-02	08:15:49	08:21:32	339744	641363233e3398da82fcb757	3	1	main_slash	7	advance_on_keypress_SLASH	8	stimuli_distractor_trianglediamonds.svg	stimuli_distractor_trianglediamonds.svg	34	no	57	0	660	0	0			0	0			1				0	
6.6.1	mac	2023-06-02	08:15:49	08:21:34	341650	641363233e3398da82fcb757	3	1	main_slash	7	main_slash	9	stimuli_target_diamondsquares.svg	stimuli_distractor_diamondtriangles.svg	24	yes	53	1	604	0	0			0	0			1				0	
6.6.1	mac	2023-06-02	08:15:49	08:21:34	341650	641363233e3398da82fcb757	3	1	main_slash	7	advance_on_keypress_SLASH	10	stimuli_target_diamondsquares.svg	stimuli_distractor_diamondtriangles.svg	24	yes	57	0	1222	0	0			0	0			1				0	
6.6.1	mac	2023-06-02	08:15:49	08:21:37	343953	641363233e3398da82fcb757	3	1	main_slash	7	main_slash	11	stimuli_distractor_trianglediamonds.svg	stimuli_target_rectangletriangles.svg	9	yes	53	1	458	0	0			0	0			1				0	
6.6.1	mac	2023-06-02	08:15:49	08:21:37	343953	641363233e3398da82fcb757	3	1	main_slash	7	advance_on_keypress_SLASH	12	stimuli_distractor_trianglediamonds.svg	stimuli_target_rectangletriangles.svg	9	yes	57	0	1113	0	0			0	0			1				0	
6.6.1	mac	2023-06-02	08:15:49	08:21:40	347711	641363233e3398da82fcb757	3	1	main_slash	7	main_slash	13	stimuli_distractor_diamondtriangles.svg	stimuli_distractor_trianglediamonds.svg	38	no	0	1	2000	0	0			0	0			1				0	
6.6.1	mac	2023-06-02	08:15:49	08:21:40	347711	641363233e3398da82fcb757	3	1	main_slash	7	advance_on_keypress_SLASH	14	stimuli_distractor_diamondtriangles.svg	stimuli_distractor_trianglediamonds.svg	38	no	57	0	505	0	0			0	0			1				0	
6.6.1	mac	2023-06-02	08:15:49	08:21:42	349390	641363233e3398da82fcb757	3	1	main_slash	7	main_slash	15	stimuli_distractor_trianglediamonds.svg	stimuli_target_diamondsquares.svg	28	yes	53	1	544	0	0			0	0			1				0	
6.6.1	mac	2023-06-02	08:15:49	08:21:42	349390	641363233e3398da82fcb757	3	1	main_slash	7	advance_on_keypress_SLASH	16	stimuli_distractor_trianglediamonds.svg	stimuli_target_diamondsquares.svg	28	yes	57	0	1419	0	0			0	0			1				0	
6.6.1	mac	2023-06-02	08:15:49	08:21:45	352174	641363233e3398da82fcb757	3	1	main_slash	7	main_slash	17	stimuli_target_trianglesquares.svg	stimuli_distractor_trianglediamonds.svg	18	yes	53	1	728	0	0			0	0			1				0	
6.6.1	mac	2023-06-02	08:15:49	08:21:45	352174	641363233e3398da82fcb757	3	1	main_slash	7	advance_on_keypress_SLASH	18	stimuli_target_trianglesquares.svg	stimuli_distractor_trianglediamonds.svg	18	yes	57	0	928	0	0			0	0			1				0	
6.6.1	mac	2023-06-02	08:15:49	08:21:47	354280	641363233e3398da82fcb757	3	1	main_slash	7	main_slash	19	stimuli_target_squaretriangles.svg	stimuli_distractor_trianglediamonds.svg	3	yes	53	1	534	0	0			0	0			1				0	
6.6.1	mac	2023-06-02	08:15:49	08:21:47	354280	641363233e3398da82fcb757	3	1	main_slash	7	advance_on_keypress_SLASH	20	stimuli_target_squaretriangles.svg	stimuli_distractor_trianglediamonds.svg	3	yes	57	0	803	0	0			0	0			1				0	
6.6.1	mac	2023-06-02	08:15:49	08:21:49	356672	641363233e3398da82fcb757	3	1	main_slash	7	main_slash	21	stimuli_target_rectanglediamonds.svg	stimuli_distractor_trianglediamonds.svg	2	yes	53	1	924	0	0			0	0			1				0	
6.6.1	mac	2023-06-02	08:15:49	08:21:49	356672	641363233e3398da82fcb757	3	1	main_slash	7	advance_on_keypress_SLASH	22	stimuli_target_rectanglediamonds.svg	stimuli_distractor_trianglediamonds.svg	2	yes	57	0	1134	0	0			0	0			1				0	
6.6.1	mac	2023-06-02	08:15:49	08:21:53	360444	641363233e3398da82fcb757	3	1	main_slash	7	main_slash	23	stimuli_distractor_diamondtriangles.svg	stimuli_distractor_diamondtriangles.svg	40	no	0	1	2000	0	0			0	0			1				0	
6.6.1	mac	2023-06-02	08:15:49	08:21:53	360444	641363233e3398da82fcb757	3	1	main_slash	7	advance_on_keypress_SLASH	24	stimuli_distractor_diamondtriangles.svg	stimuli_distractor_diamondtriangles.svg	40	no	57	0	1665	0	0			0	0			1				0	
6.6.1	mac	2023-06-02	08:15:49	08:21:56	363203	641363233e3398da82fcb757	3	1	main_slash	7	main_slash	25	stimuli_distractor_trianglediamonds.svg	stimuli_target_trianglesquares.svg	26	yes	53	1	456	0	0			0	0			1				0	
6.6.1	mac	2023-06-02	08:15:49	08:21:56	363203	641363233e3398da82fcb757	3	1	main_slash	7	advance_on_keypress_SLASH	26	stimuli_distractor_trianglediamonds.svg	stimuli_target_trianglesquares.svg	26	yes	57	0	966	0	0			0	0			1				0	
6.6.1	mac	2023-06-02	08:15:49	08:21:58	365208	641363233e3398da82fcb757	3	1	main_slash	7	main_slash	27	stimuli_distractor_diamondtriangles.svg	stimuli_target_rectangletriangles.svg	13	yes	53	1	411	0	0			0	0			1				0	
6.6.1	mac	2023-06-02	08:15:49	08:21:58	365208	641363233e3398da82fcb757	3	1	main_slash	7	advance_on_keypress_SLASH	28	stimuli_distractor_diamondtriangles.svg	stimuli_target_rectangletriangles.svg	13	yes	57	0	779	0	0			0	0			1				0	
6.6.1	mac	2023-06-02	08:15:49	08:22:00	367005	641363233e3398da82fcb757	3	1	main_slash	7	main_slash	29	stimuli_target_rectangletriangles.svg	stimuli_distractor_trianglediamonds.svg	1	yes	53	1	373	0	0			0	0			1				0	
6.6.1	mac	2023-06-02	08:15:49	08:22:00	367005	641363233e3398da82fcb757	3	1	main_slash	7	advance_on_keypress_SLASH	30	stimuli_target_rectangletriangles.svg	stimuli_distractor_trianglediamonds.svg	1	yes	57	0	851	0	0			0	0			1				0	
6.6.1	mac	2023-06-02	08:15:49	08:22:02	368969	641363233e3398da82fcb757	3	1	main_slash	7	main_slash	31	stimuli_target_squaretriangles.svg	stimuli_distractor_diamondtriangles.svg	7	yes	53	1	471	0	0			0	0			1				0	
6.6.1	mac	2023-06-02	08:15:49	08:22:02	368969	641363233e3398da82fcb757	3	1	main_slash	7	advance_on_keypress_SLASH	32	stimuli_target_squaretriangles.svg	stimuli_distractor_diamondtriangles.svg	7	yes	57	0	599	0	0			0	0			1				0	
6.6.1	mac	2023-06-02	08:15:49	08:22:05	372195	641363233e3398da82fcb757	3	1	main_slash	7	main_slash	33	stimuli_distractor_trianglediamonds.svg	stimuli_distractor_diamondtriangles.svg	35	no	0	1	2000	0	0			0	0			1				0	
6.6.1	mac	2023-06-02	08:15:49	08:22:05	372195	641363233e3398da82fcb757	3	1	main_slash	7	advance_on_keypress_SLASH	34	stimuli_distractor_trianglediamonds.svg	stimuli_distractor_diamondtriangles.svg	35	no	57	0	661	0	0			0	0			1				0	
6.6.1	mac	2023-06-02	08:15:49	08:22:07	374401	641363233e3398da82fcb757	3	1	main_slash	7	main_slash	35	stimuli_distractor_diamondtriangles.svg	stimuli_target_diamondrectangles.svg	31	yes	53	1	903	0	0			0	0			1				0	
6.6.1	mac	2023-06-02	08:15:49	08:22:07	374401	641363233e3398da82fcb757	3	1	main_slash	7	advance_on_keypress_SLASH	36	stimuli_distractor_diamondtriangles.svg	stimuli_target_diamondrectangles.svg	31	yes	57	0	775	0	0			0	0			1				0	
6.6.1	mac	2023-06-02	08:15:49	08:22:09	376198	641363233e3398da82fcb757	3	1	main_slash	7	main_slash	37	stimuli_distractor_trianglediamonds.svg	stimuli_target_squaretriangles.svg	11	yes	53	1	383	0	0			0	0			1				0	
6.6.1	mac	2023-06-02	08:15:49	08:22:09	376198	641363233e3398da82fcb757	3	1	main_slash	7	advance_on_keypress_SLASH	38	stimuli_distractor_trianglediamonds.svg	stimuli_target_squaretriangles.svg	11	yes	57	0	696	0	0			0	0			1				0	
6.6.1	mac	2023-06-02	08:15:49	08:22:11	377988	641363233e3398da82fcb757	3	1	main_slash	7	main_slash	39	stimuli_target_trianglerectangles.svg	stimuli_distractor_diamondtriangles.svg	21	yes	53	1	457	0	0			0	0			1				0	
6.6.1	mac	2023-06-02	08:15:49	08:22:11	377988	641363233e3398da82fcb757	3	1	main_slash	7	advance_on_keypress_SLASH	40	stimuli_target_trianglerectangles.svg	stimuli_distractor_diamondtriangles.svg	21	yes	57	0	816	0	0			0	0			1				0	
6.6.1	mac	2023-06-02	08:15:49	08:22:13	379865	641363233e3398da82fcb757	3	1	main_slash	7	main_slash	41	stimuli_target_diamondrectangles.svg	stimuli_distractor_diamondtriangles.svg	23	yes	53	1	433	0	0			0	0			1				0	
6.6.1	mac	2023-06-02	08:15:49	08:22:13	379865	641363233e3398da82fcb757	3	1	main_slash	7	advance_on_keypress_SLASH	42	stimuli_target_diamondrectangles.svg	stimuli_distractor_diamondtriangles.svg	23	yes	57	0	855	0	0			0	0			1				0	
6.6.1	mac	2023-06-02	08:15:49	08:22:14	381738	641363233e3398da82fcb757	3	1	main_slash	7	main_slash	43	stimuli_distractor_diamondtriangles.svg	stimuli_distractor_trianglediamonds.svg	37	no	53	0	390	0	0			0	0			1				0	
6.6.1	mac	2023-06-02	08:15:49	08:22:14	381738	641363233e3398da82fcb757	3	1	main_slash	7	advance_on_keypress_SLASH	44	stimuli_distractor_diamondtriangles.svg	stimuli_distractor_trianglediamonds.svg	37	no	57	0	1451	0	0			0	0			1				0	
6.6.1	mac	2023-06-02	08:15:49	08:22:17	384265	641363233e3398da82fcb757	3	1	main_slash	7	main_slash	45	stimuli_target_rectangletriangles.svg	stimuli_distractor_diamondtriangles.svg	5	yes	53	1	433	0	0			0	0			1				0	
6.6.1	mac	2023-06-02	08:15:49	08:22:17	384265	641363233e3398da82fcb757	3	1	main_slash	7	advance_on_keypress_SLASH	46	stimuli_target_rectangletriangles.svg	stimuli_distractor_diamondtriangles.svg	5	yes	57	0	766	0	0			0	0			1				0	
6.6.1	mac	2023-06-02	08:15:49	08:22:19	386094	641363233e3398da82fcb757	3	1	main_slash	7	main_slash	47	stimuli_distractor_trianglediamonds.svg	stimuli_target_squarediamonds.svg	12	yes	53	1	428	0	0			0	0			1				0	
6.6.1	mac	2023-06-02	08:15:49	08:22:19	386094	641363233e3398da82fcb757	3	1	main_slash	7	advance_on_keypress_SLASH	48	stimuli_distractor_trianglediamonds.svg	stimuli_target_squarediamonds.svg	12	yes	57	0	710	0	0			0	0			1				0	
6.6.1	mac	2023-06-02	08:15:49	08:22:21	388073	641363233e3398da82fcb757	3	1	main_slash	7	main_slash	49	stimuli_distractor_diamondtriangles.svg	stimuli_target_trianglesquares.svg	30	yes	53	1	623	0	0			0	0			1				0	
6.6.1	mac	2023-06-02	08:15:49	08:22:21	388073	641363233e3398da82fcb757	3	1	main_slash	7	advance_on_keypress_SLASH	50	stimuli_distractor_diamondtriangles.svg	stimuli_target_trianglesquares.svg	30	yes	57	0	1745	0	0			0	0			1				0	
6.6.1	mac	2023-06-02	08:15:49	08:22:24	390889	641363233e3398da82fcb757	3	1	main_slash	7	main_slash	51	stimuli_target_diamondrectangles.svg	stimuli_distractor_trianglediamonds.svg	19	yes	53	1	423	0	0			0	0			1				0	
6.6.1	mac	2023-06-02	08:15:49	08:22:24	390889	641363233e3398da82fcb757	3	1	main_slash	7	advance_on_keypress_SLASH	52	stimuli_target_diamondrectangles.svg	stimuli_distractor_trianglediamonds.svg	19	yes	57	0	1319	0	0			0	0			1				0	
6.6.1	mac	2023-06-02	08:15:49	08:22:27	394847	641363233e3398da82fcb757	3	1	main_slash	7	main_slash	53	stimuli_distractor_trianglediamonds.svg	stimuli_distractor_trianglediamonds.svg	33	no	0	1	2000	0	0			0	0			1				0	
6.6.1	mac	2023-06-02	08:15:49	08:22:27	394847	641363233e3398da82fcb757	3	1	main_slash	7	advance_on_keypress_SLASH	54	stimuli_distractor_trianglediamonds.svg	stimuli_distractor_trianglediamonds.svg	33	no	57	0	681	0	0			0	0			1				0	
6.6.1	mac	2023-06-02	08:15:49	08:22:29	396576	641363233e3398da82fcb757	3	1	main_slash	7	main_slash	55	stimuli_distractor_diamondtriangles.svg	stimuli_target_rectanglediamonds.svg	14	yes	53	1	410	0	0			0	0			1				0	
6.6.1	mac	2023-06-02	08:15:49	08:22:29	396576	641363233e3398da82fcb757	3	1	main_slash	7	advance_on_keypress_SLASH	56	stimuli_distractor_diamondtriangles.svg	stimuli_target_rectanglediamonds.svg	14	yes	57	0	552	0	0			0	0			1				0	
6.6.1	mac	2023-06-02	08:15:49	08:22:31	398219	641363233e3398da82fcb757	3	1	main_slash	7	main_slash	57	stimuli_distractor_diamondtriangles.svg	stimuli_target_diamondsquares.svg	32	yes	53	1	453	0	0			0	0			1				0	
6.6.1	mac	2023-06-02	08:15:49	08:22:31	398219	641363233e3398da82fcb757	3	1	main_slash	7	advance_on_keypress_SLASH	58	stimuli_distractor_diamondtriangles.svg	stimuli_target_diamondsquares.svg	32	yes	57	0	571	0	0			0	0			1				0	
6.6.1	mac	2023-06-02	08:15:49	08:22:34	401414	641363233e3398da82fcb757	3	1	main_slash	7	main_slash	59	stimuli_distractor_diamondtriangles.svg	stimuli_distractor_diamondtriangles.svg	39	no	0	1	2000	0	0			0	0			1				0	
6.6.1	mac	2023-06-02	08:15:49	08:22:34	401414	641363233e3398da82fcb757	3	1	main_slash	7	advance_on_keypress_SLASH	60	stimuli_distractor_diamondtriangles.svg	stimuli_distractor_diamondtriangles.svg	39	no	57	0	352	0	0			0	0			1				0	
6.6.1	mac	2023-06-02	08:15:49	08:22:37	404398	641363233e3398da82fcb757	3	1	main_slash	7	main_slash	61	stimuli_distractor_trianglediamonds.svg	stimuli_distractor_diamondtriangles.svg	36	no	0	1	2000	0	0			0	0			1				0	
6.6.1	mac	2023-06-02	08:15:49	08:22:37	404398	641363233e3398da82fcb757	3	1	main_slash	7	advance_on_keypress_SLASH	62	stimuli_distractor_trianglediamonds.svg	stimuli_distractor_diamondtriangles.svg	36	no	57	0	1374	0	0			0	0			1				0	
6.6.1	mac	2023-06-02	08:15:49	08:22:40	406857	641363233e3398da82fcb757	3	1	main_slash	7	main_slash	63	stimuli_distractor_trianglediamonds.svg	stimuli_target_diamondrectangles.svg	27	yes	53	1	441	0	0			0	0			1				0	
6.6.1	mac	2023-06-02	08:15:49	08:22:40	406857	641363233e3398da82fcb757	3	1	main_slash	7	advance_on_keypress_SLASH	64	stimuli_distractor_trianglediamonds.svg	stimuli_target_diamondrectangles.svg	27	yes	57	0	797	0	0			0	0			1				0	
6.6.1	mac	2023-06-02	08:15:49	08:22:43	410280	641363233e3398da82fcb757	3	1	main_slash	7	main_slash	65	stimuli_target_trianglerectangles.svg	stimuli_distractor_trianglediamonds.svg	17	yes	0	0	2000	0	0			0	0			1				0	
6.6.1	mac	2023-06-02	08:15:49	08:22:43	410280	641363233e3398da82fcb757	3	1	main_slash	7	advance_on_keypress_SLASH	66	stimuli_target_trianglerectangles.svg	stimuli_distractor_trianglediamonds.svg	17	yes	57	0	756	0	0			0	0			1				0	
6.6.1	mac	2023-06-02	08:15:49	08:22:45	412099	641363233e3398da82fcb757	3	1	main_slash	7	main_slash	67	stimuli_distractor_diamondtriangles.svg	stimuli_target_squaretriangles.svg	15	yes	53	1	415	0	0			0	0			1				0	
6.6.1	mac	2023-06-02	08:15:49	08:22:45	412099	641363233e3398da82fcb757	3	1	main_slash	7	advance_on_keypress_SLASH	68	stimuli_distractor_diamondtriangles.svg	stimuli_target_squaretriangles.svg	15	yes	57	0	709	0	0			0	0			1				0	
6.6.1	mac	2023-06-02	08:15:49	08:22:47	414052	641363233e3398da82fcb757	3	1	main_slash	7	main_slash	69	stimuli_target_diamondsquares.svg	stimuli_distractor_trianglediamonds.svg	20	yes	53	1	602	0	0			0	0			1				0	
6.6.1	mac	2023-06-02	08:15:49	08:22:47	414052	641363233e3398da82fcb757	3	1	main_slash	7	advance_on_keypress_SLASH	70	stimuli_target_diamondsquares.svg	stimuli_distractor_trianglediamonds.svg	20	yes	57	0	869	0	0			0	0			1				0	
6.6.1	mac	2023-06-02	08:15:49	08:22:49	416387	641363233e3398da82fcb757	3	1	main_slash	7	main_slash	71	stimuli_distractor_trianglediamonds.svg	stimuli_target_trianglerectangles.svg	25	yes	53	1	836	0	0			0	0			1				0	
6.6.1	mac	2023-06-02	08:15:49	08:22:49	416387	641363233e3398da82fcb757	3	1	main_slash	7	advance_on_keypress_SLASH	72	stimuli_distractor_trianglediamonds.svg	stimuli_target_trianglerectangles.svg	25	yes	57	0	838	0	0			0	0			1				0	
6.6.1	mac	2023-06-02	08:15:49	08:22:52	418970	641363233e3398da82fcb757	3	1	main_slash	7	main_slash	73	stimuli_distractor_diamondtriangles.svg	stimuli_target_squarediamonds.svg	16	yes	53	1	1119	0	0			0	0			1				0	
6.6.1	mac	2023-06-02	08:15:49	08:22:52	418970	641363233e3398da82fcb757	3	1	main_slash	7	advance_on_keypress_SLASH	74	stimuli_distractor_diamondtriangles.svg	stimuli_target_squarediamonds.svg	16	yes	57	0	560	0	0			0	0			1				0	
6.6.1	mac	2023-06-02	08:15:49	08:22:53	420850	641363233e3398da82fcb757	3	1	main_slash	7	main_slash	75	stimuli_distractor_diamondtriangles.svg	stimuli_target_trianglerectangles.svg	29	yes	53	1	681	0	0			0	0			1				0	
6.6.1	mac	2023-06-02	08:15:49	08:22:53	420850	641363233e3398da82fcb757	3	1	main_slash	7	advance_on_keypress_SLASH	76	stimuli_distractor_diamondtriangles.svg	stimuli_target_trianglerectangles.svg	29	yes	57	0	551	0	0			0	0			1				0	
6.6.1	mac	2023-06-02	08:15:49	08:22:55	422654	641363233e3398da82fcb757	3	1	main_slash	7	main_slash	77	stimuli_distractor_trianglediamonds.svg	stimuli_target_rectanglediamonds.svg	10	yes	53	1	620	0	0			0	0			1				0	
6.6.1	mac	2023-06-02	08:15:49	08:22:55	422654	641363233e3398da82fcb757	3	1	main_slash	7	advance_on_keypress_SLASH	78	stimuli_distractor_trianglediamonds.svg	stimuli_target_rectanglediamonds.svg	10	yes	57	0	705	0	0			0	0			1				0	
6.6.1	mac	2023-06-02	08:15:49	08:22:57	424500	641363233e3398da82fcb757	3	1	main_slash	7	main_slash	79	stimuli_target_rectanglediamonds.svg	stimuli_distractor_diamondtriangles.svg	6	yes	53	1	513	0	0			0	0			1				0	
6.6.1	mac	2023-06-02	08:15:49	08:22:57	424500	641363233e3398da82fcb757	3	1	main_slash	7	advance_on_keypress_SLASH	80	stimuli_target_rectanglediamonds.svg	stimuli_distractor_diamondtriangles.svg	6	yes	57	0	644	0	0			0	0			1				0	
6.6.1	mac	2023-06-02	08:15:49	08:23:00	427781	641363233e3398da82fcb757	3	1	main_slash	7	main_slash	81	stimuli_distractor_trianglediamonds.svg	stimuli_distractor_trianglediamonds.svg	33	no	0	1	2000	0	0			0	0			1				0	
6.6.1	mac	2023-06-02	08:15:49	08:23:00	427781	641363233e3398da82fcb757	3	1	main_slash	7	advance_on_keypress_SLASH	82	stimuli_distractor_trianglediamonds.svg	stimuli_distractor_trianglediamonds.svg	33	no	57	0	579	0	0			0	0			1				0	
6.6.1	mac	2023-06-02	08:15:49	08:23:02	429462	641363233e3398da82fcb757	3	1	main_slash	7	main_slash	83	stimuli_target_rectangletriangles.svg	stimuli_distractor_diamondtriangles.svg	5	yes	53	1	461	0	0			0	0			1				0	
6.6.1	mac	2023-06-02	08:15:49	08:23:02	429462	641363233e3398da82fcb757	3	1	main_slash	7	advance_on_keypress_SLASH	84	stimuli_target_rectangletriangles.svg	stimuli_distractor_diamondtriangles.svg	5	yes	57	0	603	0	0			0	0			1				0	
6.6.1	mac	2023-06-02	08:15:49	08:23:04	431126	641363233e3398da82fcb757	3	1	main_slash	7	main_slash	85	stimuli_target_squarediamonds.svg	stimuli_distractor_trianglediamonds.svg	4	yes	53	1	425	0	0			0	0			1				0	
6.6.1	mac	2023-06-02	08:15:49	08:23:04	431126	641363233e3398da82fcb757	3	1	main_slash	7	advance_on_keypress_SLASH	86	stimuli_target_squarediamonds.svg	stimuli_distractor_trianglediamonds.svg	4	yes	57	0	551	0	0			0	0			1				0	
6.6.1	mac	2023-06-02	08:15:49	08:23:06	432864	641363233e3398da82fcb757	3	1	main_slash	7	main_slash	87	stimuli_target_diamondsquares.svg	stimuli_distractor_trianglediamonds.svg	20	yes	53	1	546	0	0			0	0			1				0	
6.6.1	mac	2023-06-02	08:15:49	08:23:06	432864	641363233e3398da82fcb757	3	1	main_slash	7	advance_on_keypress_SLASH	88	stimuli_target_diamondsquares.svg	stimuli_distractor_trianglediamonds.svg	20	yes	57	0	498	0	0			0	0			1				0	
6.6.1	mac	2023-06-02	08:15:49	08:23:09	436000	641363233e3398da82fcb757	3	1	main_slash	7	main_slash	89	stimuli_distractor_diamondtriangles.svg	stimuli_distractor_diamondtriangles.svg	40	no	0	1	2000	0	0			0	0			1				0	
6.6.1	mac	2023-06-02	08:15:49	08:23:09	436000	641363233e3398da82fcb757	3	1	main_slash	7	advance_on_keypress_SLASH	90	stimuli_distractor_diamondtriangles.svg	stimuli_distractor_diamondtriangles.svg	40	no	57	0	288	0	0			0	0			1				0	
6.6.1	mac	2023-06-02	08:15:49	08:23:10	437355	641363233e3398da82fcb757	3	1	main_slash	7	main_slash	91	stimuli_target_diamondrectangles.svg	stimuli_distractor_trianglediamonds.svg	19	yes	53	1	436	0	0			0	0			1				0	
6.6.1	mac	2023-06-02	08:15:49	08:23:10	437355	641363233e3398da82fcb757	3	1	main_slash	7	advance_on_keypress_SLASH	92	stimuli_target_diamondrectangles.svg	stimuli_distractor_trianglediamonds.svg	19	yes	57	0	1045	0	0			0	0			1				0	
6.6.1	mac	2023-06-02	08:15:49	08:23:12	439526	641363233e3398da82fcb757	3	1	main_slash	7	main_slash	93	stimuli_distractor_diamondtriangles.svg	stimuli_target_squarediamonds.svg	16	yes	53	1	489	0	0			0	0			1				0	
6.6.1	mac	2023-06-02	08:15:49	08:23:12	439526	641363233e3398da82fcb757	3	1	main_slash	7	advance_on_keypress_SLASH	94	stimuli_distractor_diamondtriangles.svg	stimuli_target_squarediamonds.svg	16	yes	57	0	502	0	0			0	0			1				0	
6.6.1	mac	2023-06-02	08:15:49	08:23:14	441083	641363233e3398da82fcb757	3	1	main_slash	7	main_slash	95	stimuli_distractor_trianglediamonds.svg	stimuli_target_rectanglediamonds.svg	10	yes	53	1	430	0	0			0	0			1				0	
6.6.1	mac	2023-06-02	08:15:49	08:23:14	441083	641363233e3398da82fcb757	3	1	main_slash	7	advance_on_keypress_SLASH	96	stimuli_distractor_trianglediamonds.svg	stimuli_target_rectanglediamonds.svg	10	yes	57	0	708	0	0			0	0			1				0	
6.6.1	mac	2023-06-02	08:15:49	08:23:16	442896	641363233e3398da82fcb757	3	1	main_slash	7	main_slash	97	stimuli_target_squarediamonds.svg	stimuli_distractor_diamondtriangles.svg	8	yes	53	1	460	0	0			0	0			1				0	
6.6.1	mac	2023-06-02	08:15:49	08:23:16	442896	641363233e3398da82fcb757	3	1	main_slash	7	advance_on_keypress_SLASH	98	stimuli_target_squarediamonds.svg	stimuli_distractor_diamondtriangles.svg	8	yes	57	0	564	0	0			0	0			1				0	
6.6.1	mac	2023-06-02	08:15:49	08:23:17	444521	641363233e3398da82fcb757	3	1	main_slash	7	main_slash	99	stimuli_distractor_trianglediamonds.svg	stimuli_target_diamondrectangles.svg	27	yes	53	1	418	0	0			0	0			1				0	
6.6.1	mac	2023-06-02	08:15:49	08:23:17	444521	641363233e3398da82fcb757	3	1	main_slash	7	advance_on_keypress_SLASH	100	stimuli_distractor_trianglediamonds.svg	stimuli_target_diamondrectangles.svg	27	yes	57	0	537	0	0			0	0			1				0	
6.6.1	mac	2023-06-02	08:15:49	08:23:19	446085	641363233e3398da82fcb757	3	1	main_slash	7	main_slash	101	stimuli_distractor_trianglediamonds.svg	stimuli_target_squarediamonds.svg	12	yes	53	1	380	0	0			0	0			1				0	
6.6.1	mac	2023-06-02	08:15:49	08:23:19	446085	641363233e3398da82fcb757	3	1	main_slash	7	advance_on_keypress_SLASH	102	stimuli_distractor_trianglediamonds.svg	stimuli_target_squarediamonds.svg	12	yes	57	0	680	0	0			0	0			1				0	
6.6.1	mac	2023-06-02	08:15:49	08:23:22	449401	641363233e3398da82fcb757	3	1	main_slash	7	main_slash	103	stimuli_distractor_trianglediamonds.svg	stimuli_distractor_trianglediamonds.svg	34	no	0	1	2000	0	0			0	0			1				0	
6.6.1	mac	2023-06-02	08:15:49	08:23:22	449401	641363233e3398da82fcb757	3	1	main_slash	7	advance_on_keypress_SLASH	104	stimuli_distractor_trianglediamonds.svg	stimuli_distractor_trianglediamonds.svg	34	no	57	0	557	0	0			0	0			1				0	
6.6.1	mac	2023-06-02	08:15:49	08:23:24	451010	641363233e3398da82fcb757	3	1	main_slash	7	main_slash	105	stimuli_distractor_trianglediamonds.svg	stimuli_target_trianglesquares.svg	26	yes	53	1	407	0	0			0	0			1				0	
6.6.1	mac	2023-06-02	08:15:49	08:23:24	451010	641363233e3398da82fcb757	3	1	main_slash	7	advance_on_keypress_SLASH	106	stimuli_distractor_trianglediamonds.svg	stimuli_target_trianglesquares.svg	26	yes	57	0	620	0	0			0	0			1				0	
6.6.1	mac	2023-06-02	08:15:49	08:23:27	454267	641363233e3398da82fcb757	3	1	main_slash	7	main_slash	107	stimuli_distractor_diamondtriangles.svg	stimuli_distractor_diamondtriangles.svg	39	no	0	1	2000	0	0			0	0			1				0	
6.6.1	mac	2023-06-02	08:15:49	08:23:27	454267	641363233e3398da82fcb757	3	1	main_slash	7	advance_on_keypress_SLASH	108	stimuli_distractor_diamondtriangles.svg	stimuli_distractor_diamondtriangles.svg	39	no	57	0	533	0	0			0	0			1				0	
6.6.1	mac	2023-06-02	08:15:49	08:23:30	457434	641363233e3398da82fcb757	3	1	main_slash	7	main_slash	109	stimuli_distractor_diamondtriangles.svg	stimuli_target_trianglerectangles.svg	29	yes	0	0	2000	0	0			0	0			1				0	
6.6.1	mac	2023-06-02	08:15:49	08:23:30	457434	641363233e3398da82fcb757	3	1	main_slash	7	advance_on_keypress_SLASH	110	stimuli_distractor_diamondtriangles.svg	stimuli_target_trianglerectangles.svg	29	yes	57	0	418	0	0			0	0			1				0	
6.6.1	mac	2023-06-02	08:15:49	08:23:32	458970	641363233e3398da82fcb757	3	1	main_slash	7	main_slash	111	stimuli_target_squaretriangles.svg	stimuli_distractor_diamondtriangles.svg	7	yes	53	1	482	0	0			0	0			1				0	
6.6.1	mac	2023-06-02	08:15:49	08:23:32	458970	641363233e3398da82fcb757	3	1	main_slash	7	advance_on_keypress_SLASH	112	stimuli_target_squaretriangles.svg	stimuli_distractor_diamondtriangles.svg	7	yes	57	0	458	0	0			0	0			1				0	
6.6.1	mac	2023-06-02	08:15:49	08:23:33	460854	641363233e3398da82fcb757	3	1	main_slash	7	main_slash	113	stimuli_target_trianglerectangles.svg	stimuli_distractor_diamondtriangles.svg	21	yes	53	1	784	0	0			0	0			1				0	
6.6.1	mac	2023-06-02	08:15:49	08:23:33	460854	641363233e3398da82fcb757	3	1	main_slash	7	advance_on_keypress_SLASH	114	stimuli_target_trianglerectangles.svg	stimuli_distractor_diamondtriangles.svg	21	yes	57	0	770	0	0			0	0			1				0	
6.6.1	mac	2023-06-02	08:15:49	08:23:35	462776	641363233e3398da82fcb757	3	1	main_slash	7	main_slash	115	stimuli_distractor_trianglediamonds.svg	stimuli_target_diamondsquares.svg	28	yes	53	1	522	0	0			0	0			1				0	
6.6.1	mac	2023-06-02	08:15:49	08:23:35	462776	641363233e3398da82fcb757	3	1	main_slash	7	advance_on_keypress_SLASH	116	stimuli_distractor_trianglediamonds.svg	stimuli_target_diamondsquares.svg	28	yes	57	0	532	0	0			0	0			1				0	
6.6.1	mac	2023-06-02	08:15:49	08:23:37	464326	641363233e3398da82fcb757	3	1	main_slash	7	main_slash	117	stimuli_target_rectanglediamonds.svg	stimuli_distractor_trianglediamonds.svg	2	yes	53	1	390	0	0			0	0			1				0	
6.6.1	mac	2023-06-02	08:15:49	08:23:37	464326	641363233e3398da82fcb757	3	1	main_slash	7	advance_on_keypress_SLASH	118	stimuli_target_rectanglediamonds.svg	stimuli_distractor_trianglediamonds.svg	2	yes	57	0	542	0	0			0	0			1				0	
6.6.1	mac	2023-06-02	08:15:49	08:23:39	465907	641363233e3398da82fcb757	3	1	main_slash	7	main_slash	119	stimuli_target_squaretriangles.svg	stimuli_distractor_trianglediamonds.svg	3	yes	53	1	404	0	0			0	0			1				0	
6.6.1	mac	2023-06-02	08:15:49	08:23:39	465907	641363233e3398da82fcb757	3	1	main_slash	7	advance_on_keypress_SLASH	120	stimuli_target_squaretriangles.svg	stimuli_distractor_trianglediamonds.svg	3	yes	57	0	496	0	0			0	0			1				0	
6.6.1	mac	2023-06-02	08:15:49	08:23:42	469035	641363233e3398da82fcb757	3	1	main_slash	7	main_slash	121	stimuli_distractor_diamondtriangles.svg	stimuli_distractor_trianglediamonds.svg	37	no	0	1	2000	0	0			0	0			1				0	
6.6.1	mac	2023-06-02	08:15:49	08:23:42	469035	641363233e3398da82fcb757	3	1	main_slash	7	advance_on_keypress_SLASH	122	stimuli_distractor_diamondtriangles.svg	stimuli_distractor_trianglediamonds.svg	37	no	57	0	454	0	0			0	0			1				0	
6.6.1	mac	2023-06-02	08:15:49	08:23:43	470712	641363233e3398da82fcb757	3	1	main_slash	7	main_slash	123	stimuli_target_diamondsquares.svg	stimuli_distractor_diamondtriangles.svg	24	yes	53	1	591	0	0			0	0			1				0	
6.6.1	mac	2023-06-02	08:15:49	08:23:43	470712	641363233e3398da82fcb757	3	1	main_slash	7	advance_on_keypress_SLASH	124	stimuli_target_diamondsquares.svg	stimuli_distractor_diamondtriangles.svg	24	yes	57	0	556	0	0			0	0			1				0	
6.6.1	mac	2023-06-02	08:15:49	08:23:45	472327	641363233e3398da82fcb757	3	1	main_slash	7	main_slash	125	stimuli_distractor_diamondtriangles.svg	stimuli_target_diamondsquares.svg	32	yes	53	1	405	0	0			0	0			1				0	
6.6.1	mac	2023-06-02	08:15:49	08:23:45	472327	641363233e3398da82fcb757	3	1	main_slash	7	advance_on_keypress_SLASH	126	stimuli_distractor_diamondtriangles.svg	stimuli_target_diamondsquares.svg	32	yes	57	0	530	0	0			0	0			1				0	
6.6.1	mac	2023-06-02	08:15:49	08:23:47	474128	641363233e3398da82fcb757	3	1	main_slash	7	main_slash	127	stimuli_distractor_trianglediamonds.svg	stimuli_target_rectangletriangles.svg	9	yes	53	1	640	0	0			0	0			1				0	
6.6.1	mac	2023-06-02	08:15:49	08:23:47	474128	641363233e3398da82fcb757	3	1	main_slash	7	advance_on_keypress_SLASH	128	stimuli_distractor_trianglediamonds.svg	stimuli_target_rectangletriangles.svg	9	yes	57	0	515	0	0			0	0			1				0	
6.6.1	mac	2023-06-02	08:15:49	08:23:49	475928	641363233e3398da82fcb757	3	1	main_slash	7	main_slash	129	stimuli_target_trianglesquares.svg	stimuli_distractor_trianglediamonds.svg	18	yes	53	1	637	0	0			0	0			1				0	
6.6.1	mac	2023-06-02	08:15:49	08:23:49	475928	641363233e3398da82fcb757	3	1	main_slash	7	advance_on_keypress_SLASH	130	stimuli_target_trianglesquares.svg	stimuli_distractor_trianglediamonds.svg	18	yes	57	0	695	0	0			0	0			1				0	
6.6.1	mac	2023-06-02	08:15:49	08:23:50	477823	641363233e3398da82fcb757	3	1	main_slash	7	main_slash	131	stimuli_distractor_diamondtriangles.svg	stimuli_target_rectanglediamonds.svg	14	yes	53	1	568	0	0			0	0			1				0	
6.6.1	mac	2023-06-02	08:15:49	08:23:50	477823	641363233e3398da82fcb757	3	1	main_slash	7	advance_on_keypress_SLASH	132	stimuli_distractor_diamondtriangles.svg	stimuli_target_rectanglediamonds.svg	14	yes	57	0	513	0	0			0	0			1				0	
6.6.1	mac	2023-06-02	08:15:49	08:23:52	479351	641363233e3398da82fcb757	3	1	main_slash	7	main_slash	133	stimuli_distractor_diamondtriangles.svg	stimuli_target_diamondrectangles.svg	31	yes	53	1	378	0	0			0	0			1				0	
6.6.1	mac	2023-06-02	08:15:49	08:23:52	479351	641363233e3398da82fcb757	3	1	main_slash	7	advance_on_keypress_SLASH	134	stimuli_distractor_diamondtriangles.svg	stimuli_target_diamondrectangles.svg	31	yes	57	0	553	0	0			0	0			1				0	
6.6.1	mac	2023-06-02	08:15:49	08:23:54	480967	641363233e3398da82fcb757	3	1	main_slash	7	main_slash	135	stimuli_distractor_diamondtriangles.svg	stimuli_target_squaretriangles.svg	15	yes	53	1	429	0	0			0	0			1				0	
6.6.1	mac	2023-06-02	08:15:49	08:23:54	480967	641363233e3398da82fcb757	3	1	main_slash	7	advance_on_keypress_SLASH	136	stimuli_distractor_diamondtriangles.svg	stimuli_target_squaretriangles.svg	15	yes	57	0	410	0	0			0	0			1				0	
6.6.1	mac	2023-06-02	08:15:49	08:23:55	482420	641363233e3398da82fcb757	3	1	main_slash	7	main_slash	137	stimuli_target_rectanglediamonds.svg	stimuli_distractor_diamondtriangles.svg	6	yes	53	1	398	0	0			0	0			1				0	
6.6.1	mac	2023-06-02	08:15:49	08:23:55	482420	641363233e3398da82fcb757	3	1	main_slash	7	advance_on_keypress_SLASH	138	stimuli_target_rectanglediamonds.svg	stimuli_distractor_diamondtriangles.svg	6	yes	57	0	488	0	0			0	0			1				0	
6.6.1	mac	2023-06-02	08:15:49	08:23:57	484052	641363233e3398da82fcb757	3	1	main_slash	7	main_slash	139	stimuli_distractor_diamondtriangles.svg	stimuli_distractor_trianglediamonds.svg	38	no	53	0	513	0	0			0	0			1				0	
6.6.1	mac	2023-06-02	08:15:49	08:23:57	484052	641363233e3398da82fcb757	3	1	main_slash	7	advance_on_keypress_SLASH	140	stimuli_distractor_diamondtriangles.svg	stimuli_distractor_trianglediamonds.svg	38	no	57	0	1096	0	0			0	0			1				0	
6.6.1	mac	2023-06-02	08:15:49	08:23:59	486358	641363233e3398da82fcb757	3	1	main_slash	7	main_slash	141	stimuli_target_diamondrectangles.svg	stimuli_distractor_diamondtriangles.svg	23	yes	53	1	569	0	0			0	0			1				0	
6.6.1	mac	2023-06-02	08:15:49	08:23:59	486358	641363233e3398da82fcb757	3	1	main_slash	7	advance_on_keypress_SLASH	142	stimuli_target_diamondrectangles.svg	stimuli_distractor_diamondtriangles.svg	23	yes	57	0	379	0	0			0	0			1				0	
6.6.1	mac	2023-06-02	08:15:49	08:24:00	487830	641363233e3398da82fcb757	3	1	main_slash	7	main_slash	143	stimuli_distractor_diamondtriangles.svg	stimuli_target_trianglesquares.svg	30	yes	53	1	457	0	0			0	0			1				0	
6.6.1	mac	2023-06-02	08:15:49	08:24:00	487830	641363233e3398da82fcb757	3	1	main_slash	7	advance_on_keypress_SLASH	144	stimuli_distractor_diamondtriangles.svg	stimuli_target_trianglesquares.svg	30	yes	57	0	519	0	0			0	0			1				0	
6.6.1	mac	2023-06-02	08:15:49	08:24:02	489397	641363233e3398da82fcb757	3	1	main_slash	7	main_slash	145	stimuli_target_rectangletriangles.svg	stimuli_distractor_trianglediamonds.svg	1	yes	53	1	407	0	0			0	0			1				0	
6.6.1	mac	2023-06-02	08:15:49	08:24:02	489397	641363233e3398da82fcb757	3	1	main_slash	7	advance_on_keypress_SLASH	146	stimuli_target_rectangletriangles.svg	stimuli_distractor_trianglediamonds.svg	1	yes	57	0	473	0	0			0	0			1				0	
6.6.1	mac	2023-06-02	08:15:49	08:24:05	492519	641363233e3398da82fcb757	3	1	main_slash	7	main_slash	147	stimuli_distractor_trianglediamonds.svg	stimuli_distractor_diamondtriangles.svg	36	no	0	1	2000	0	0			0	0			1				0	
6.6.1	mac	2023-06-02	08:15:49	08:24:05	492519	641363233e3398da82fcb757	3	1	main_slash	7	advance_on_keypress_SLASH	148	stimuli_distractor_trianglediamonds.svg	stimuli_distractor_diamondtriangles.svg	36	no	57	0	617	0	0			0	0			1				0	
6.6.1	mac	2023-06-02	08:15:49	08:24:07	494199	641363233e3398da82fcb757	3	1	main_slash	7	main_slash	149	stimuli_distractor_trianglediamonds.svg	stimuli_distractor_diamondtriangles.svg	35	no	53	0	426	0	0			0	0			1				0	
6.6.1	mac	2023-06-02	08:15:49	08:24:07	494199	641363233e3398da82fcb757	3	1	main_slash	7	advance_on_keypress_SLASH	150	stimuli_distractor_trianglediamonds.svg	stimuli_distractor_diamondtriangles.svg	35	no	57	0	973	0	0			0	0			1				0	
6.6.1	mac	2023-06-02	08:15:49	08:24:09	496226	641363233e3398da82fcb757	3	1	main_slash	7	main_slash	151	stimuli_distractor_trianglediamonds.svg	stimuli_target_squaretriangles.svg	11	yes	53	1	403	0	0			0	0			1				0	
6.6.1	mac	2023-06-02	08:15:49	08:24:09	496226	641363233e3398da82fcb757	3	1	main_slash	7	advance_on_keypress_SLASH	152	stimuli_distractor_trianglediamonds.svg	stimuli_target_squaretriangles.svg	11	yes	57	0	387	0	0			0	0			1				0	
6.6.1	mac	2023-06-02	08:15:49	08:24:10	497794	641363233e3398da82fcb757	3	1	main_slash	7	main_slash	153	stimuli_distractor_trianglediamonds.svg	stimuli_target_trianglerectangles.svg	25	yes	53	1	537	0	0			0	0			1				0	
6.6.1	mac	2023-06-02	08:15:49	08:24:10	497794	641363233e3398da82fcb757	3	1	main_slash	7	advance_on_keypress_SLASH	154	stimuli_distractor_trianglediamonds.svg	stimuli_target_trianglerectangles.svg	25	yes	57	0	458	0	0			0	0			1				0	
6.6.1	mac	2023-06-02	08:15:49	08:24:14	500887	641363233e3398da82fcb757	3	1	main_slash	7	main_slash	155	stimuli_target_trianglerectangles.svg	stimuli_distractor_trianglediamonds.svg	17	yes	0	0	2000	0	0			0	0			1				0	
6.6.1	mac	2023-06-02	08:15:49	08:24:14	500887	641363233e3398da82fcb757	3	1	main_slash	7	advance_on_keypress_SLASH	156	stimuli_target_trianglerectangles.svg	stimuli_distractor_trianglediamonds.svg	17	yes	57	0	620	0	0			0	0			1				0	
6.6.1	mac	2023-06-02	08:15:49	08:24:15	502784	641363233e3398da82fcb757	3	1	main_slash	7	main_slash	157	stimuli_distractor_diamondtriangles.svg	stimuli_target_rectangletriangles.svg	13	yes	53	1	644	0	0			0	0			1				0	
6.6.1	mac	2023-06-02	08:15:49	08:24:15	502784	641363233e3398da82fcb757	3	1	main_slash	7	advance_on_keypress_SLASH	158	stimuli_distractor_diamondtriangles.svg	stimuli_target_rectangletriangles.svg	13	yes	57	0	500	0	0			0	0			1				0	
6.6.1	mac	2023-06-02	08:15:49	08:24:17	504489	641363233e3398da82fcb757	3	1	main_slash	7	main_slash	159	stimuli_target_trianglesquares.svg	stimuli_distractor_diamondtriangles.svg	22	yes	53	1	565	0	0			0	0			1				0	
6.6.1	mac	2023-06-02	08:15:49	08:24:17	504489	641363233e3398da82fcb757	3	1	main_slash	7	advance_on_keypress_SLASH	160	stimuli_target_trianglesquares.svg	stimuli_distractor_diamondtriangles.svg	22	yes	57	0	426	0	0			0	0			1				0	
6.6.1	mac	2023-06-02	08:15:49	08:24:46	533353	641363233e3398da82fcb757	3	1	practice_z	9	practice_z	1	stimuli_distractor_trianglediamonds.svg	stimuli_target_squarediamonds.svg	11	yes	44	1	360	0	0			0	0			1				0	
6.6.1	mac	2023-06-02	08:15:49	08:24:46	533353	641363233e3398da82fcb757	3	1	practice_z	9	advance_on_keypress_ZEE	2	stimuli_distractor_trianglediamonds.svg	stimuli_target_squarediamonds.svg	11	yes	57	0	933	0	0			0	0			1				0	
6.6.1	mac	2023-06-02	08:15:49	08:24:49	536339	641363233e3398da82fcb757	3	1	practice_z	9	practice_z	3	stimuli_target_squarediamonds.svg	stimuli_distractor_trianglediamonds.svg	5	yes	44	1	413	0	0			0	0			1				0	
6.6.1	mac	2023-06-02	08:15:49	08:24:49	536339	641363233e3398da82fcb757	3	1	practice_z	9	advance_on_keypress_ZEE	4	stimuli_target_squarediamonds.svg	stimuli_distractor_trianglediamonds.svg	5	yes	57	0	808	0	0			0	0			1				0	
6.6.1	mac	2023-06-02	08:15:49	08:24:52	539409	641363233e3398da82fcb757	3	1	practice_z	9	practice_z	5	stimuli_distractor_trianglediamonds.svg	stimuli_target_diamondrectangles.svg	12	yes	44	1	616	0	0			0	0			1				0	
6.6.1	mac	2023-06-02	08:15:49	08:24:52	539409	641363233e3398da82fcb757	3	1	practice_z	9	advance_on_keypress_ZEE	6	stimuli_distractor_trianglediamonds.svg	stimuli_target_diamondrectangles.svg	12	yes	57	0	531	0	0			0	0			1				0	
6.6.1	mac	2023-06-02	08:15:49	08:24:55	542085	641363233e3398da82fcb757	3	1	practice_z	9	practice_z	7	stimuli_distractor_diamondtriangles.svg	stimuli_target_rectangletriangles.svg	7	yes	44	1	507	0	0			0	0			1				0	
6.6.1	mac	2023-06-02	08:15:49	08:24:55	542085	641363233e3398da82fcb757	3	1	practice_z	9	advance_on_keypress_ZEE	8	stimuli_distractor_diamondtriangles.svg	stimuli_target_rectangletriangles.svg	7	yes	57	0	475	0	0			0	0			1				0	
6.6.1	mac	2023-06-02	08:15:49	08:24:57	544568	641363233e3398da82fcb757	3	1	practice_z	9	practice_z	9	stimuli_distractor_trianglediamonds.svg	stimuli_target_rectanglediamonds.svg	10	yes	44	1	359	0	0			0	0			1				0	
6.6.1	mac	2023-06-02	08:15:49	08:24:57	544568	641363233e3398da82fcb757	3	1	practice_z	9	advance_on_keypress_ZEE	10	stimuli_distractor_trianglediamonds.svg	stimuli_target_rectanglediamonds.svg	10	yes	57	0	786	0	0			0	0			1				0	
6.6.1	mac	2023-06-02	08:15:49	08:25:02	548992	641363233e3398da82fcb757	3	1	practice_z	9	practice_z	11	stimuli_distractor_trianglediamonds.svg	stimuli_distractor_trianglediamonds.svg	15	no	0	1	2000	0	0			0	0			1				0	
6.6.1	mac	2023-06-02	08:15:49	08:25:02	548992	641363233e3398da82fcb757	3	1	practice_z	9	advance_on_keypress_ZEE	12	stimuli_distractor_trianglediamonds.svg	stimuli_distractor_trianglediamonds.svg	15	no	57	0	327	0	0			0	0			1				0	
6.6.1	mac	2023-06-02	08:15:49	08:25:06	552958	641363233e3398da82fcb757	3	1	practice_z	9	practice_z	13	stimuli_distractor_diamondtriangles.svg	stimuli_distractor_trianglediamonds.svg	14	no	0	1	2000	0	0			0	0			1				0	
6.6.1	mac	2023-06-02	08:15:49	08:25:06	552958	641363233e3398da82fcb757	3	1	practice_z	9	advance_on_keypress_ZEE	14	stimuli_distractor_diamondtriangles.svg	stimuli_distractor_trianglediamonds.svg	14	no	57	0	751	0	0			0	0			1				0	
6.6.1	mac	2023-06-02	08:15:49	08:25:09	556321	641363233e3398da82fcb757	3	1	practice_z	9	practice_z	15	stimuli_distractor_diamondtriangles.svg	stimuli_target_trianglerectangles.svg	9	yes	44	1	977	0	0			0	0			1				0	
6.6.1	mac	2023-06-02	08:15:49	08:25:09	556321	641363233e3398da82fcb757	3	1	practice_z	9	advance_on_keypress_ZEE	16	stimuli_distractor_diamondtriangles.svg	stimuli_target_trianglerectangles.svg	9	yes	57	0	620	0	0			0	0			1				0	
6.6.1	mac	2023-06-02	08:15:49	08:25:12	559079	641363233e3398da82fcb757	3	1	practice_z	9	practice_z	17	stimuli_target_rectanglediamonds.svg	stimuli_distractor_trianglediamonds.svg	4	yes	44	1	500	0	0			0	0			1				0	
6.6.1	mac	2023-06-02	08:15:49	08:25:12	559079	641363233e3398da82fcb757	3	1	practice_z	9	advance_on_keypress_ZEE	18	stimuli_target_rectanglediamonds.svg	stimuli_distractor_trianglediamonds.svg	4	yes	57	0	672	0	0			0	0			1				0	
6.6.1	mac	2023-06-02	08:15:49	08:25:14	561815	641363233e3398da82fcb757	3	1	practice_z	9	practice_z	19	stimuli_target_rectanglediamonds.svg	stimuli_distractor_diamondtriangles.svg	1	yes	44	1	418	0	0			0	0			1				0	
6.6.1	mac	2023-06-02	08:15:49	08:25:14	561815	641363233e3398da82fcb757	3	1	practice_z	9	advance_on_keypress_ZEE	20	stimuli_target_rectanglediamonds.svg	stimuli_distractor_diamondtriangles.svg	1	yes	57	0	319	0	0			0	0			1				0	
6.6.1	mac	2023-06-02	08:15:49	08:25:17	564192	641363233e3398da82fcb757	3	1	practice_z	9	practice_z	21	stimuli_target_diamondsquares.svg	stimuli_distractor_diamondtriangles.svg	3	yes	44	1	429	0	0			0	0			1				0	
6.6.1	mac	2023-06-02	08:15:49	08:25:17	564192	641363233e3398da82fcb757	3	1	practice_z	9	advance_on_keypress_ZEE	22	stimuli_target_diamondsquares.svg	stimuli_distractor_diamondtriangles.svg	3	yes	57	0	528	0	0			0	0			1				0	
6.6.1	mac	2023-06-02	08:15:49	08:25:21	568361	641363233e3398da82fcb757	3	1	practice_z	9	practice_z	23	stimuli_distractor_diamondtriangles.svg	stimuli_distractor_diamondtriangles.svg	13	no	0	1	2000	0	0			0	0			1				0	
6.6.1	mac	2023-06-02	08:15:49	08:25:21	568361	641363233e3398da82fcb757	3	1	practice_z	9	advance_on_keypress_ZEE	24	stimuli_distractor_diamondtriangles.svg	stimuli_distractor_diamondtriangles.svg	13	no	57	0	939	0	0			0	0			1				0	
6.6.1	mac	2023-06-02	08:15:49	08:25:24	571350	641363233e3398da82fcb757	3	1	practice_z	9	practice_z	25	stimuli_target_squarediamonds.svg	stimuli_distractor_diamondtriangles.svg	2	yes	44	1	404	0	0			0	0			1				0	
6.6.1	mac	2023-06-02	08:15:49	08:25:24	571350	641363233e3398da82fcb757	3	1	practice_z	9	advance_on_keypress_ZEE	26	stimuli_target_squarediamonds.svg	stimuli_distractor_diamondtriangles.svg	2	yes	57	0	585	0	0			0	0			1				0	
6.6.1	mac	2023-06-02	08:15:49	08:25:27	574036	641363233e3398da82fcb757	3	1	practice_z	9	practice_z	27	stimuli_distractor_diamondtriangles.svg	stimuli_target_diamondrectangles.svg	8	yes	44	1	475	0	0			0	0			1				0	
6.6.1	mac	2023-06-02	08:15:49	08:25:27	574036	641363233e3398da82fcb757	3	1	practice_z	9	advance_on_keypress_ZEE	28	stimuli_distractor_diamondtriangles.svg	stimuli_target_diamondrectangles.svg	8	yes	57	0	486	0	0			0	0			1				0	
6.6.1	mac	2023-06-02	08:15:49	08:25:29	576666	641363233e3398da82fcb757	3	1	practice_z	9	practice_z	29	stimuli_target_diamondsquares.svg	stimuli_distractor_trianglediamonds.svg	6	yes	44	1	502	0	0			0	0			1				0	
6.6.1	mac	2023-06-02	08:15:49	08:25:29	576666	641363233e3398da82fcb757	3	1	practice_z	9	advance_on_keypress_ZEE	30	stimuli_target_diamondsquares.svg	stimuli_distractor_trianglediamonds.svg	6	yes	57	0	258	0	0			0	0			1				0	
6.6.1	mac	2023-06-02	08:15:49	08:25:33	580561	641363233e3398da82fcb757	3	1	practice_z	9	practice_z	31	stimuli_distractor_trianglediamonds.svg	stimuli_distractor_diamondtriangles.svg	16	no	0	1	2000	0	0			0	0			1				0	
6.6.1	mac	2023-06-02	08:15:49	08:25:33	580561	641363233e3398da82fcb757	3	1	practice_z	9	advance_on_keypress_ZEE	32	stimuli_distractor_trianglediamonds.svg	stimuli_distractor_diamondtriangles.svg	16	no	57	0	755	0	0			0	0			1				0	
6.6.1	mac	2023-06-02	08:15:49	08:25:44	591175	641363233e3398da82fcb757	3	1	main_z	11	main_z	1	stimuli_target_diamondsquares.svg	stimuli_distractor_trianglediamonds.svg	20	yes	44	1	478	0	0			0	0			1				0	
6.6.1	mac	2023-06-02	08:15:49	08:25:44	591175	641363233e3398da82fcb757	3	1	main_z	11	advance_on_keypress_ZEE	2	stimuli_target_diamondsquares.svg	stimuli_distractor_trianglediamonds.svg	20	yes	57	0	519	0	0			0	0			1				0	
6.6.1	mac	2023-06-02	08:15:49	08:25:46	593185	641363233e3398da82fcb757	3	1	main_z	11	main_z	3	stimuli_distractor_trianglediamonds.svg	stimuli_target_squarediamonds.svg	12	yes	44	1	854	0	0			0	0			1				0	
6.6.1	mac	2023-06-02	08:15:49	08:25:46	593185	641363233e3398da82fcb757	3	1	main_z	11	advance_on_keypress_ZEE	4	stimuli_distractor_trianglediamonds.svg	stimuli_target_squarediamonds.svg	12	yes	57	0	904	0	0			0	0			1				0	
6.6.1	mac	2023-06-02	08:15:49	08:25:48	595112	641363233e3398da82fcb757	3	1	main_z	11	main_z	5	stimuli_distractor_trianglediamonds.svg	stimuli_target_squaretriangles.svg	11	yes	44	1	400	0	0			0	0			1				0	
6.6.1	mac	2023-06-02	08:15:49	08:25:48	595112	641363233e3398da82fcb757	3	1	main_z	11	advance_on_keypress_ZEE	6	stimuli_distractor_trianglediamonds.svg	stimuli_target_squaretriangles.svg	11	yes	57	0	450	0	0			0	0			1				0	
6.6.1	mac	2023-06-02	08:15:49	08:25:49	596677	641363233e3398da82fcb757	3	1	main_z	11	main_z	7	stimuli_distractor_diamondtriangles.svg	stimuli_target_squarediamonds.svg	16	yes	44	1	482	0	0			0	0			1				0	
6.6.1	mac	2023-06-02	08:15:49	08:25:49	596677	641363233e3398da82fcb757	3	1	main_z	11	advance_on_keypress_ZEE	8	stimuli_distractor_diamondtriangles.svg	stimuli_target_squarediamonds.svg	16	yes	57	0	486	0	0			0	0			1				0	
6.6.1	mac	2023-06-02	08:15:49	08:25:51	598280	641363233e3398da82fcb757	3	1	main_z	11	main_z	9	stimuli_target_diamondrectangles.svg	stimuli_distractor_diamondtriangles.svg	23	yes	44	1	484	0	0			0	0			1				0	
6.6.1	mac	2023-06-02	08:15:49	08:25:51	598280	641363233e3398da82fcb757	3	1	main_z	11	advance_on_keypress_ZEE	10	stimuli_target_diamondrectangles.svg	stimuli_distractor_diamondtriangles.svg	23	yes	57	0	444	0	0			0	0			1				0	
6.6.1	mac	2023-06-02	08:15:49	08:25:52	599819	641363233e3398da82fcb757	3	1	main_z	11	main_z	11	stimuli_distractor_trianglediamonds.svg	stimuli_target_diamondrectangles.svg	27	yes	44	1	455	0	0			0	0			1				0	
6.6.1	mac	2023-06-02	08:15:49	08:25:52	599819	641363233e3398da82fcb757	3	1	main_z	11	advance_on_keypress_ZEE	12	stimuli_distractor_trianglediamonds.svg	stimuli_target_diamondrectangles.svg	27	yes	57	0	390	0	0			0	0			1				0	
6.6.1	mac	2023-06-02	08:15:49	08:25:55	602828	641363233e3398da82fcb757	3	1	main_z	11	main_z	13	stimuli_distractor_trianglediamonds.svg	stimuli_distractor_diamondtriangles.svg	35	no	0	1	2000	0	0			0	0			1				0	
6.6.1	mac	2023-06-02	08:15:49	08:25:55	602828	641363233e3398da82fcb757	3	1	main_z	11	advance_on_keypress_ZEE	14	stimuli_distractor_trianglediamonds.svg	stimuli_distractor_diamondtriangles.svg	35	no	57	0	549	0	0			0	0			1				0	
6.6.1	mac	2023-06-02	08:15:49	08:25:57	604397	641363233e3398da82fcb757	3	1	main_z	11	main_z	15	stimuli_distractor_trianglediamonds.svg	stimuli_target_rectanglediamonds.svg	10	yes	44	1	384	0	0			0	0			1				0	
6.6.1	mac	2023-06-02	08:15:49	08:25:57	604397	641363233e3398da82fcb757	3	1	main_z	11	advance_on_keypress_ZEE	16	stimuli_distractor_trianglediamonds.svg	stimuli_target_rectanglediamonds.svg	10	yes	57	0	399	0	0			0	0			1				0	
6.6.1	mac	2023-06-02	08:15:49	08:25:59	605960	641363233e3398da82fcb757	3	1	main_z	11	main_z	17	stimuli_distractor_diamondtriangles.svg	stimuli_target_diamondrectangles.svg	31	yes	44	1	530	0	0			0	0			1				0	
6.6.1	mac	2023-06-02	08:15:49	08:25:59	605960	641363233e3398da82fcb757	3	1	main_z	11	advance_on_keypress_ZEE	18	stimuli_distractor_diamondtriangles.svg	stimuli_target_diamondrectangles.svg	31	yes	57	0	392	0	0			0	0			1				0	
6.6.1	mac	2023-06-02	08:15:49	08:26:00	607411	641363233e3398da82fcb757	3	1	main_z	11	main_z	19	stimuli_target_trianglesquares.svg	stimuli_distractor_trianglediamonds.svg	18	yes	44	1	414	0	0			0	0			1				0	
6.6.1	mac	2023-06-02	08:15:49	08:26:00	607411	641363233e3398da82fcb757	3	1	main_z	11	advance_on_keypress_ZEE	20	stimuli_target_trianglesquares.svg	stimuli_distractor_trianglediamonds.svg	18	yes	57	0	502	0	0			0	0			1				0	
6.6.1	mac	2023-06-02	08:15:49	08:26:02	608935	641363233e3398da82fcb757	3	1	main_z	11	main_z	21	stimuli_target_diamondsquares.svg	stimuli_distractor_diamondtriangles.svg	24	yes	44	1	387	0	0			0	0			1				0	
6.6.1	mac	2023-06-02	08:15:49	08:26:02	608935	641363233e3398da82fcb757	3	1	main_z	11	advance_on_keypress_ZEE	22	stimuli_target_diamondsquares.svg	stimuli_distractor_diamondtriangles.svg	24	yes	57	0	341	0	0			0	0			1				0	
6.6.1	mac	2023-06-02	08:15:49	08:26:03	610437	641363233e3398da82fcb757	3	1	main_z	11	main_z	23	stimuli_distractor_diamondtriangles.svg	stimuli_target_trianglerectangles.svg	29	yes	44	1	524	0	0			0	0			1				0	
6.6.1	mac	2023-06-02	08:15:49	08:26:03	610437	641363233e3398da82fcb757	3	1	main_z	11	advance_on_keypress_ZEE	24	stimuli_distractor_diamondtriangles.svg	stimuli_target_trianglerectangles.svg	29	yes	57	0	1042	0	0			0	0			1				0	
6.6.1	mac	2023-06-02	08:15:49	08:26:05	612671	641363233e3398da82fcb757	3	1	main_z	11	main_z	25	stimuli_distractor_trianglediamonds.svg	stimuli_target_trianglerectangles.svg	25	yes	44	1	539	0	0			0	0			1				0	
6.6.1	mac	2023-06-02	08:15:49	08:26:05	612671	641363233e3398da82fcb757	3	1	main_z	11	advance_on_keypress_ZEE	26	stimuli_distractor_trianglediamonds.svg	stimuli_target_trianglerectangles.svg	25	yes	57	0	1054	0	0			0	0			1				0	
6.6.1	mac	2023-06-02	08:15:49	08:26:08	614984	641363233e3398da82fcb757	3	1	main_z	11	main_z	27	stimuli_distractor_diamondtriangles.svg	stimuli_target_squaretriangles.svg	15	yes	44	1	619	0	0			0	0			1				0	
6.6.1	mac	2023-06-02	08:15:49	08:26:08	614984	641363233e3398da82fcb757	3	1	main_z	11	advance_on_keypress_ZEE	28	stimuli_distractor_diamondtriangles.svg	stimuli_target_squaretriangles.svg	15	yes	57	0	746	0	0			0	0			1				0	
6.6.1	mac	2023-06-02	08:15:49	08:26:09	616720	641363233e3398da82fcb757	3	1	main_z	11	main_z	29	stimuli_distractor_diamondtriangles.svg	stimuli_target_rectangletriangles.svg	13	yes	44	1	355	0	0			0	0			1				0	
6.6.1	mac	2023-06-02	08:15:49	08:26:09	616720	641363233e3398da82fcb757	3	1	main_z	11	advance_on_keypress_ZEE	30	stimuli_distractor_diamondtriangles.svg	stimuli_target_rectangletriangles.svg	13	yes	57	0	1339	0	0			0	0			1				0	
6.6.1	mac	2023-06-02	08:15:49	08:26:13	620680	641363233e3398da82fcb757	3	1	main_z	11	main_z	31	stimuli_distractor_diamondtriangles.svg	stimuli_distractor_diamondtriangles.svg	39	no	0	1	2000	0	0			0	0			1				0	
6.6.1	mac	2023-06-02	08:15:49	08:26:13	620680	641363233e3398da82fcb757	3	1	main_z	11	advance_on_keypress_ZEE	32	stimuli_distractor_diamondtriangles.svg	stimuli_distractor_diamondtriangles.svg	39	no	57	0	740	0	0			0	0			1				0	
6.6.1	mac	2023-06-02	08:15:49	08:26:15	622469	641363233e3398da82fcb757	3	1	main_z	11	main_z	33	stimuli_distractor_trianglediamonds.svg	stimuli_target_rectangletriangles.svg	9	yes	44	1	404	0	0			0	0			1				0	
6.6.1	mac	2023-06-02	08:15:49	08:26:15	622469	641363233e3398da82fcb757	3	1	main_z	11	advance_on_keypress_ZEE	34	stimuli_distractor_trianglediamonds.svg	stimuli_target_rectangletriangles.svg	9	yes	57	0	924	0	0			0	0			1				0	
6.6.1	mac	2023-06-02	08:15:49	08:26:17	624415	641363233e3398da82fcb757	3	1	main_z	11	main_z	35	stimuli_target_rectanglediamonds.svg	stimuli_distractor_trianglediamonds.svg	2	yes	44	1	383	0	0			0	0			1				0	
6.6.1	mac	2023-06-02	08:15:49	08:26:17	624415	641363233e3398da82fcb757	3	1	main_z	11	advance_on_keypress_ZEE	36	stimuli_target_rectanglediamonds.svg	stimuli_distractor_trianglediamonds.svg	2	yes	57	0	667	0	0			0	0			1				0	
6.6.1	mac	2023-06-02	08:15:49	08:26:19	626105	641363233e3398da82fcb757	3	1	main_z	11	main_z	37	stimuli_target_squaretriangles.svg	stimuli_distractor_trianglediamonds.svg	3	yes	44	1	388	0	0			0	0			1				0	
6.6.1	mac	2023-06-02	08:15:49	08:26:19	626105	641363233e3398da82fcb757	3	1	main_z	11	advance_on_keypress_ZEE	38	stimuli_target_squaretriangles.svg	stimuli_distractor_trianglediamonds.svg	3	yes	57	0	707	0	0			0	0			1				0	
6.6.1	mac	2023-06-02	08:15:49	08:26:21	627988	641363233e3398da82fcb757	3	1	main_z	11	main_z	39	stimuli_distractor_diamondtriangles.svg	stimuli_distractor_trianglediamonds.svg	38	no	44	0	523	0	0			0	0			1				0	
6.6.1	mac	2023-06-02	08:15:49	08:26:21	627988	641363233e3398da82fcb757	3	1	main_z	11	advance_on_keypress_ZEE	40	stimuli_distractor_diamondtriangles.svg	stimuli_distractor_trianglediamonds.svg	38	no	57	0	643	0	0			0	0			1				0	
6.6.1	mac	2023-06-02	08:15:49	08:26:22	629671	641363233e3398da82fcb757	3	1	main_z	11	main_z	41	stimuli_target_squarediamonds.svg	stimuli_distractor_trianglediamonds.svg	4	yes	44	1	388	0	0			0	0			1				0	
6.6.1	mac	2023-06-02	08:15:49	08:26:22	629671	641363233e3398da82fcb757	3	1	main_z	11	advance_on_keypress_ZEE	42	stimuli_target_squarediamonds.svg	stimuli_distractor_trianglediamonds.svg	4	yes	57	0	701	0	0			0	0			1				0	
6.6.1	mac	2023-06-02	08:15:49	08:26:24	631515	641363233e3398da82fcb757	3	1	main_z	11	main_z	43	stimuli_target_trianglesquares.svg	stimuli_distractor_diamondtriangles.svg	22	yes	44	1	498	0	0			0	0			1				0	
6.6.1	mac	2023-06-02	08:15:49	08:26:24	631515	641363233e3398da82fcb757	3	1	main_z	11	advance_on_keypress_ZEE	44	stimuli_target_trianglesquares.svg	stimuli_distractor_diamondtriangles.svg	22	yes	57	0	677	0	0			0	0			1				0	
6.6.1	mac	2023-06-02	08:15:49	08:26:27	634830	641363233e3398da82fcb757	3	1	main_z	11	main_z	45	stimuli_distractor_trianglediamonds.svg	stimuli_distractor_trianglediamonds.svg	34	no	0	1	2000	0	0			0	0			1				0	
6.6.1	mac	2023-06-02	08:15:49	08:26:27	634830	641363233e3398da82fcb757	3	1	main_z	11	advance_on_keypress_ZEE	46	stimuli_distractor_trianglediamonds.svg	stimuli_distractor_trianglediamonds.svg	34	no	57	0	1292	0	0			0	0			1				0	
6.6.1	mac	2023-06-02	08:15:49	08:26:30	637224	641363233e3398da82fcb757	3	1	main_z	11	main_z	47	stimuli_distractor_trianglediamonds.svg	stimuli_target_trianglesquares.svg	26	yes	44	1	458	0	0			0	0			1				0	
6.6.1	mac	2023-06-02	08:15:49	08:26:30	637224	641363233e3398da82fcb757	3	1	main_z	11	advance_on_keypress_ZEE	48	stimuli_distractor_trianglediamonds.svg	stimuli_target_trianglesquares.svg	26	yes	57	0	537	0	0			0	0			1				0	
6.6.1	mac	2023-06-02	08:15:49	08:26:31	638776	641363233e3398da82fcb757	3	1	main_z	11	main_z	49	stimuli_target_squaretriangles.svg	stimuli_distractor_diamondtriangles.svg	7	yes	44	1	377	0	0			0	0			1				0	
6.6.1	mac	2023-06-02	08:15:49	08:26:31	638776	641363233e3398da82fcb757	3	1	main_z	11	advance_on_keypress_ZEE	50	stimuli_target_squaretriangles.svg	stimuli_distractor_diamondtriangles.svg	7	yes	57	0	457	0	0			0	0			1				0	
6.6.1	mac	2023-06-02	08:15:49	08:26:33	640432	641363233e3398da82fcb757	3	1	main_z	11	main_z	51	stimuli_target_diamondrectangles.svg	stimuli_distractor_trianglediamonds.svg	19	yes	44	1	549	0	0			0	0			1				0	
6.6.1	mac	2023-06-02	08:15:49	08:26:33	640432	641363233e3398da82fcb757	3	1	main_z	11	advance_on_keypress_ZEE	52	stimuli_target_diamondrectangles.svg	stimuli_distractor_trianglediamonds.svg	19	yes	57	0	464	0	0			0	0			1				0	
6.6.1	mac	2023-06-02	08:15:49	08:26:35	641901	641363233e3398da82fcb757	3	1	main_z	11	main_z	53	stimuli_distractor_trianglediamonds.svg	stimuli_target_diamondsquares.svg	28	yes	44	1	367	0	0			0	0			1				0	
6.6.1	mac	2023-06-02	08:15:49	08:26:35	641901	641363233e3398da82fcb757	3	1	main_z	11	advance_on_keypress_ZEE	54	stimuli_distractor_trianglediamonds.svg	stimuli_target_diamondsquares.svg	28	yes	57	0	499	0	0			0	0			1				0	
6.6.1	mac	2023-06-02	08:15:49	08:26:36	643426	641363233e3398da82fcb757	3	1	main_z	11	main_z	55	stimuli_target_rectangletriangles.svg	stimuli_distractor_trianglediamonds.svg	1	yes	44	1	394	0	0			0	0			1				0	
6.6.1	mac	2023-06-02	08:15:49	08:26:36	643426	641363233e3398da82fcb757	3	1	main_z	11	advance_on_keypress_ZEE	56	stimuli_target_rectangletriangles.svg	stimuli_distractor_trianglediamonds.svg	1	yes	57	0	456	0	0			0	0			1				0	
6.6.1	mac	2023-06-02	08:15:49	08:26:39	646514	641363233e3398da82fcb757	3	1	main_z	11	main_z	57	stimuli_target_trianglerectangles.svg	stimuli_distractor_diamondtriangles.svg	21	yes	0	0	2000	0	0			0	0			1				0	
6.6.1	mac	2023-06-02	08:15:49	08:26:39	646514	641363233e3398da82fcb757	3	1	main_z	11	advance_on_keypress_ZEE	58	stimuli_target_trianglerectangles.svg	stimuli_distractor_diamondtriangles.svg	21	yes	57	0	767	0	0			0	0			1				0	
6.6.1	mac	2023-06-02	08:15:49	08:26:41	648299	641363233e3398da82fcb757	3	1	main_z	11	main_z	59	stimuli_target_rectanglediamonds.svg	stimuli_distractor_diamondtriangles.svg	6	yes	44	1	383	0	0			0	0			1				0	
6.6.1	mac	2023-06-02	08:15:49	08:26:41	648299	641363233e3398da82fcb757	3	1	main_z	11	advance_on_keypress_ZEE	60	stimuli_target_rectanglediamonds.svg	stimuli_distractor_diamondtriangles.svg	6	yes	57	0	504	0	0			0	0			1				0	
6.6.1	mac	2023-06-02	08:15:49	08:26:42	649824	641363233e3398da82fcb757	3	1	main_z	11	main_z	61	stimuli_target_squarediamonds.svg	stimuli_distractor_diamondtriangles.svg	8	yes	44	1	392	0	0			0	0			1				0	
6.6.1	mac	2023-06-02	08:15:49	08:26:42	649824	641363233e3398da82fcb757	3	1	main_z	11	advance_on_keypress_ZEE	62	stimuli_target_squarediamonds.svg	stimuli_distractor_diamondtriangles.svg	8	yes	57	0	475	0	0			0	0			1				0	
6.6.1	mac	2023-06-02	08:15:49	08:26:44	651413	641363233e3398da82fcb757	3	1	main_z	11	main_z	63	stimuli_distractor_diamondtriangles.svg	stimuli_distractor_diamondtriangles.svg	40	no	44	0	463	0	0			0	0			1				0	
6.6.1	mac	2023-06-02	08:15:49	08:26:44	651413	641363233e3398da82fcb757	3	1	main_z	11	advance_on_keypress_ZEE	64	stimuli_distractor_diamondtriangles.svg	stimuli_distractor_diamondtriangles.svg	40	no	57	0	927	0	0			0	0			1				0	
6.6.1	mac	2023-06-02	08:15:49	08:26:46	653413	641363233e3398da82fcb757	3	1	main_z	11	main_z	65	stimuli_distractor_diamondtriangles.svg	stimuli_target_trianglesquares.svg	30	yes	44	1	429	0	0			0	0			1				0	
6.6.1	mac	2023-06-02	08:15:49	08:26:46	653413	641363233e3398da82fcb757	3	1	main_z	11	advance_on_keypress_ZEE	66	stimuli_distractor_diamondtriangles.svg	stimuli_target_trianglesquares.svg	30	yes	57	0	852	0	0			0	0			1				0	
6.6.1	mac	2023-06-02	08:15:49	08:26:48	655723	641363233e3398da82fcb757	3	1	main_z	11	main_z	67	stimuli_target_trianglerectangles.svg	stimuli_distractor_trianglediamonds.svg	17	yes	44	1	821	0	0			0	0			1				0	
6.6.1	mac	2023-06-02	08:15:49	08:26:48	655723	641363233e3398da82fcb757	3	1	main_z	11	advance_on_keypress_ZEE	68	stimuli_target_trianglerectangles.svg	stimuli_distractor_trianglediamonds.svg	17	yes	57	0	525	0	0			0	0			1				0	
6.6.1	mac	2023-06-02	08:15:49	08:26:51	658309	641363233e3398da82fcb757	3	1	main_z	11	main_z	69	stimuli_distractor_trianglediamonds.svg	stimuli_distractor_diamondtriangles.svg	36	no	44	0	1425	0	0			0	0			1				0	
6.6.1	mac	2023-06-02	08:15:49	08:26:51	658309	641363233e3398da82fcb757	3	1	main_z	11	advance_on_keypress_ZEE	70	stimuli_distractor_trianglediamonds.svg	stimuli_distractor_diamondtriangles.svg	36	no	57	0	527	0	0			0	0			1				0	
6.6.1	mac	2023-06-02	08:15:49	08:26:53	659864	641363233e3398da82fcb757	3	1	main_z	11	main_z	71	stimuli_target_rectangletriangles.svg	stimuli_distractor_diamondtriangles.svg	5	yes	44	1	378	0	0			0	0			1				0	
6.6.1	mac	2023-06-02	08:15:49	08:26:53	659864	641363233e3398da82fcb757	3	1	main_z	11	advance_on_keypress_ZEE	72	stimuli_target_rectangletriangles.svg	stimuli_distractor_diamondtriangles.svg	5	yes	57	0	380	0	0			0	0			1				0	
6.6.1	mac	2023-06-02	08:15:49	08:26:56	662882	641363233e3398da82fcb757	3	1	main_z	11	main_z	73	stimuli_distractor_diamondtriangles.svg	stimuli_distractor_trianglediamonds.svg	37	no	0	1	2000	0	0			0	0			1				0	
6.6.1	mac	2023-06-02	08:15:49	08:26:56	662882	641363233e3398da82fcb757	3	1	main_z	11	advance_on_keypress_ZEE	74	stimuli_distractor_diamondtriangles.svg	stimuli_distractor_trianglediamonds.svg	37	no	57	0	598	0	0			0	0			1				0	
6.6.1	mac	2023-06-02	08:15:49	08:26:59	666115	641363233e3398da82fcb757	3	1	main_z	11	main_z	75	stimuli_distractor_trianglediamonds.svg	stimuli_distractor_trianglediamonds.svg	33	no	0	1	2000	0	0			0	0			1				0	
6.6.1	mac	2023-06-02	08:15:49	08:26:59	666115	641363233e3398da82fcb757	3	1	main_z	11	advance_on_keypress_ZEE	76	stimuli_distractor_trianglediamonds.svg	stimuli_distractor_trianglediamonds.svg	33	no	57	0	319	0	0			0	0			1				0	
6.6.1	mac	2023-06-02	08:15:49	08:27:00	667564	641363233e3398da82fcb757	3	1	main_z	11	main_z	77	stimuli_distractor_diamondtriangles.svg	stimuli_target_diamondsquares.svg	32	yes	44	1	496	0	0			0	0			1				0	
6.6.1	mac	2023-06-02	08:15:49	08:27:00	667564	641363233e3398da82fcb757	3	1	main_z	11	advance_on_keypress_ZEE	78	stimuli_distractor_diamondtriangles.svg	stimuli_target_diamondsquares.svg	32	yes	57	0	414	0	0			0	0			1				0	
6.6.1	mac	2023-06-02	08:15:49	08:27:02	669049	641363233e3398da82fcb757	3	1	main_z	11	main_z	79	stimuli_distractor_diamondtriangles.svg	stimuli_target_rectanglediamonds.svg	14	yes	44	1	431	0	0			0	0			1				0	
6.6.1	mac	2023-06-02	08:15:49	08:27:02	669049	641363233e3398da82fcb757	3	1	main_z	11	advance_on_keypress_ZEE	80	stimuli_distractor_diamondtriangles.svg	stimuli_target_rectanglediamonds.svg	14	yes	57	0	386	0	0			0	0			1				0	
6.6.1	mac	2023-06-02	08:15:49	08:27:03	670504	641363233e3398da82fcb757	3	1	main_z	11	main_z	81	stimuli_target_rectangletriangles.svg	stimuli_distractor_diamondtriangles.svg	5	yes	44	1	436	0	0			0	0			1				0	
6.6.1	mac	2023-06-02	08:15:49	08:27:03	670504	641363233e3398da82fcb757	3	1	main_z	11	advance_on_keypress_ZEE	82	stimuli_target_rectangletriangles.svg	stimuli_distractor_diamondtriangles.svg	5	yes	57	0	308	0	0			0	0			1				0	
6.6.1	mac	2023-06-02	08:15:49	08:27:04	671842	641363233e3398da82fcb757	3	1	main_z	11	main_z	83	stimuli_distractor_trianglediamonds.svg	stimuli_target_trianglesquares.svg	26	yes	44	1	391	0	0			0	0			1				0	
6.6.1	mac	2023-06-02	08:15:49	08:27:04	671842	641363233e3398da82fcb757	3	1	main_z	11	advance_on_keypress_ZEE	84	stimuli_distractor_trianglediamonds.svg	stimuli_target_trianglesquares.svg	26	yes	57	0	382	0	0			0	0			1				0	
6.6.1	mac	2023-06-02	08:15:49	08:27:08	674866	641363233e3398da82fcb757	3	1	main_z	11	main_z	85	stimuli_distractor_trianglediamonds.svg	stimuli_distractor_trianglediamonds.svg	34	no	0	1	2000	0	0			0	0			1				0	
6.6.1	mac	2023-06-02	08:15:49	08:27:08	674866	641363233e3398da82fcb757	3	1	main_z	11	advance_on_keypress_ZEE	86	stimuli_distractor_trianglediamonds.svg	stimuli_distractor_trianglediamonds.svg	34	no	57	0	702	0	0			0	0			1				0	
6.6.1	mac	2023-06-02	08:15:49	08:27:09	676644	641363233e3398da82fcb757	3	1	main_z	11	main_z	87	stimuli_target_diamondrectangles.svg	stimuli_distractor_diamondtriangles.svg	23	yes	44	1	442	0	0			0	0			1				0	
6.6.1	mac	2023-06-02	08:15:49	08:27:09	676644	641363233e3398da82fcb757	3	1	main_z	11	advance_on_keypress_ZEE	88	stimuli_target_diamondrectangles.svg	stimuli_distractor_diamondtriangles.svg	23	yes	57	0	804	0	0			0	0			1				0	
6.6.1	mac	2023-06-02	08:15:49	08:27:13	680083	641363233e3398da82fcb757	3	1	main_z	11	main_z	89	stimuli_distractor_trianglediamonds.svg	stimuli_distractor_diamondtriangles.svg	36	no	0	1	2000	0	0			0	0			1				0	
6.6.1	mac	2023-06-02	08:15:49	08:27:13	680083	641363233e3398da82fcb757	3	1	main_z	11	advance_on_keypress_ZEE	90	stimuli_distractor_trianglediamonds.svg	stimuli_distractor_diamondtriangles.svg	36	no	57	0	489	0	0			0	0			1				0	
6.6.1	mac	2023-06-02	08:15:49	08:27:14	681573	641363233e3398da82fcb757	3	1	main_z	11	main_z	91	stimuli_distractor_diamondtriangles.svg	stimuli_target_diamondsquares.svg	32	yes	44	1	371	0	0			0	0			1				0	
6.6.1	mac	2023-06-02	08:15:49	08:27:14	681573	641363233e3398da82fcb757	3	1	main_z	11	advance_on_keypress_ZEE	92	stimuli_distractor_diamondtriangles.svg	stimuli_target_diamondsquares.svg	32	yes	57	0	351	0	0			0	0			1				0	
6.6.1	mac	2023-06-02	08:15:49	08:27:16	682940	641363233e3398da82fcb757	3	1	main_z	11	main_z	93	stimuli_target_rectangletriangles.svg	stimuli_distractor_trianglediamonds.svg	1	yes	44	1	370	0	0			0	0			1				0	
6.6.1	mac	2023-06-02	08:15:49	08:27:16	682940	641363233e3398da82fcb757	3	1	main_z	11	advance_on_keypress_ZEE	94	stimuli_target_rectangletriangles.svg	stimuli_distractor_trianglediamonds.svg	1	yes	57	0	340	0	0			0	0			1				0	
6.6.1	mac	2023-06-02	08:15:49	08:27:17	684292	641363233e3398da82fcb757	3	1	main_z	11	main_z	95	stimuli_target_rectanglediamonds.svg	stimuli_distractor_diamondtriangles.svg	6	yes	44	1	392	0	0			0	0			1				0	
6.6.1	mac	2023-06-02	08:15:49	08:27:17	684292	641363233e3398da82fcb757	3	1	main_z	11	advance_on_keypress_ZEE	96	stimuli_target_rectanglediamonds.svg	stimuli_distractor_diamondtriangles.svg	6	yes	57	0	390	0	0			0	0			1				0	
6.6.1	mac	2023-06-02	08:15:49	08:27:20	687333	641363233e3398da82fcb757	3	1	main_z	11	main_z	97	stimuli_distractor_diamondtriangles.svg	stimuli_distractor_diamondtriangles.svg	39	no	0	1	2000	0	0			0	0			1				0	
6.6.1	mac	2023-06-02	08:15:49	08:27:20	687333	641363233e3398da82fcb757	3	1	main_z	11	advance_on_keypress_ZEE	98	stimuli_distractor_diamondtriangles.svg	stimuli_distractor_diamondtriangles.svg	39	no	57	0	382	0	0			0	0			1				0	
6.6.1	mac	2023-06-02	08:15:49	08:27:21	688765	641363233e3398da82fcb757	3	1	main_z	11	main_z	99	stimuli_target_trianglerectangles.svg	stimuli_distractor_trianglediamonds.svg	17	yes	44	1	412	0	0			0	0			1				0	
6.6.1	mac	2023-06-02	08:15:49	08:27:21	688765	641363233e3398da82fcb757	3	1	main_z	11	advance_on_keypress_ZEE	100	stimuli_target_trianglerectangles.svg	stimuli_distractor_trianglediamonds.svg	17	yes	57	0	545	0	0			0	0			1				0	
6.6.1	mac	2023-06-02	08:15:49	08:27:23	690541	641363233e3398da82fcb757	3	1	main_z	11	main_z	101	stimuli_distractor_diamondtriangles.svg	stimuli_target_squarediamonds.svg	16	yes	44	1	587	0	0			0	0			1				0	
6.6.1	mac	2023-06-02	08:15:49	08:27:23	690541	641363233e3398da82fcb757	3	1	main_z	11	advance_on_keypress_ZEE	102	stimuli_distractor_diamondtriangles.svg	stimuli_target_squarediamonds.svg	16	yes	57	0	401	0	0			0	0			1				0	
6.6.1	mac	2023-06-02	08:15:49	08:27:26	693567	641363233e3398da82fcb757	3	1	main_z	11	main_z	103	stimuli_target_trianglerectangles.svg	stimuli_distractor_diamondtriangles.svg	21	yes	0	0	2000	0	0			0	0			1				0	
6.6.1	mac	2023-06-02	08:15:49	08:27:26	693567	641363233e3398da82fcb757	3	1	main_z	11	advance_on_keypress_ZEE	104	stimuli_target_trianglerectangles.svg	stimuli_distractor_diamondtriangles.svg	21	yes	57	0	598	0	0			0	0			1				0	
6.6.1	mac	2023-06-02	08:15:49	08:27:28	695195	641363233e3398da82fcb757	3	1	main_z	11	main_z	105	stimuli_target_squaretriangles.svg	stimuli_distractor_trianglediamonds.svg	3	yes	44	1	393	0	0			0	0			1				0	
6.6.1	mac	2023-06-02	08:15:49	08:27:28	695195	641363233e3398da82fcb757	3	1	main_z	11	advance_on_keypress_ZEE	106	stimuli_target_squaretriangles.svg	stimuli_distractor_trianglediamonds.svg	3	yes	57	0	378	0	0			0	0			1				0	
6.6.1	mac	2023-06-02	08:15:49	08:27:29	696641	641363233e3398da82fcb757	3	1	main_z	11	main_z	107	stimuli_distractor_diamondtriangles.svg	stimuli_target_diamondrectangles.svg	31	yes	44	1	420	0	0			0	0			1				0	
6.6.1	mac	2023-06-02	08:15:49	08:27:29	696641	641363233e3398da82fcb757	3	1	main_z	11	advance_on_keypress_ZEE	108	stimuli_distractor_diamondtriangles.svg	stimuli_target_diamondrectangles.svg	31	yes	57	0	372	0	0			0	0			1				0	
6.6.1	mac	2023-06-02	08:15:49	08:27:31	698411	641363233e3398da82fcb757	3	1	main_z	11	main_z	109	stimuli_distractor_diamondtriangles.svg	stimuli_target_rectanglediamonds.svg	14	yes	44	1	758	0	0			0	0			1				0	
6.6.1	mac	2023-06-02	08:15:49	08:27:31	698411	641363233e3398da82fcb757	3	1	main_z	11	advance_on_keypress_ZEE	110	stimuli_distractor_diamondtriangles.svg	stimuli_target_rectanglediamonds.svg	14	yes	57	0	391	0	0			0	0			1				0	
6.6.1	mac	2023-06-02	08:15:49	08:27:33	700036	641363233e3398da82fcb757	3	1	main_z	11	main_z	111	stimuli_distractor_trianglediamonds.svg	stimuli_target_diamondrectangles.svg	27	yes	44	1	582	0	0			0	0			1				0	
6.6.1	mac	2023-06-02	08:15:49	08:27:33	700036	641363233e3398da82fcb757	3	1	main_z	11	advance_on_keypress_ZEE	112	stimuli_distractor_trianglediamonds.svg	stimuli_target_diamondrectangles.svg	27	yes	57	0	368	0	0			0	0			1				0	
6.6.1	mac	2023-06-02	08:15:49	08:27:34	701451	641363233e3398da82fcb757	3	1	main_z	11	main_z	113	stimuli_target_diamondsquares.svg	stimuli_distractor_trianglediamonds.svg	20	yes	44	1	414	0	0			0	0			1				0	
6.6.1	mac	2023-06-02	08:15:49	08:27:34	701451	641363233e3398da82fcb757	3	1	main_z	11	advance_on_keypress_ZEE	114	stimuli_target_diamondsquares.svg	stimuli_distractor_trianglediamonds.svg	20	yes	57	0	398	0	0			0	0			1				0	
6.6.1	mac	2023-06-02	08:15:49	08:27:36	703286	641363233e3398da82fcb757	3	1	main_z	11	main_z	115	stimuli_distractor_diamondtriangles.svg	stimuli_target_trianglerectangles.svg	29	yes	44	1	799	0	0			0	0			1				0	
6.6.1	mac	2023-06-02	08:15:49	08:27:36	703286	641363233e3398da82fcb757	3	1	main_z	11	advance_on_keypress_ZEE	116	stimuli_distractor_diamondtriangles.svg	stimuli_target_trianglerectangles.svg	29	yes	57	0	359	0	0			0	0			1				0	
6.6.1	mac	2023-06-02	08:15:49	08:27:37	704746	641363233e3398da82fcb757	3	1	main_z	11	main_z	117	stimuli_distractor_trianglediamonds.svg	stimuli_target_diamondsquares.svg	28	yes	44	1	459	0	0			0	0			1				0	
6.6.1	mac	2023-06-02	08:15:49	08:27:37	704746	641363233e3398da82fcb757	3	1	main_z	11	advance_on_keypress_ZEE	118	stimuli_distractor_trianglediamonds.svg	stimuli_target_diamondsquares.svg	28	yes	57	0	342	0	0			0	0			1				0	
6.6.1	mac	2023-06-02	08:15:49	08:27:39	706244	641363233e3398da82fcb757	3	1	main_z	11	main_z	119	stimuli_target_squaretriangles.svg	stimuli_distractor_diamondtriangles.svg	7	yes	44	1	507	0	0			0	0			1				0	
6.6.1	mac	2023-06-02	08:15:49	08:27:39	706244	641363233e3398da82fcb757	3	1	main_z	11	advance_on_keypress_ZEE	120	stimuli_target_squaretriangles.svg	stimuli_distractor_diamondtriangles.svg	7	yes	57	0	310	0	0			0	0			1				0	
6.6.1	mac	2023-06-02	08:15:49	08:27:41	707907	641363233e3398da82fcb757	3	1	main_z	11	main_z	121	stimuli_target_trianglesquares.svg	stimuli_distractor_diamondtriangles.svg	22	yes	44	1	703	0	0			0	0			1				0	
6.6.1	mac	2023-06-02	08:15:49	08:27:41	707907	641363233e3398da82fcb757	3	1	main_z	11	advance_on_keypress_ZEE	122	stimuli_target_trianglesquares.svg	stimuli_distractor_diamondtriangles.svg	22	yes	57	0	296	0	0			0	0			1				0	
6.6.1	mac	2023-06-02	08:15:49	08:27:42	709221	641363233e3398da82fcb757	3	1	main_z	11	main_z	123	stimuli_distractor_trianglediamonds.svg	stimuli_target_rectanglediamonds.svg	10	yes	44	1	385	0	0			0	0			1				0	
6.6.1	mac	2023-06-02	08:15:49	08:27:42	709221	641363233e3398da82fcb757	3	1	main_z	11	advance_on_keypress_ZEE	124	stimuli_distractor_trianglediamonds.svg	stimuli_target_rectanglediamonds.svg	10	yes	57	0	331	0	0			0	0			1				0	
6.6.1	mac	2023-06-02	08:15:49	08:27:45	712185	641363233e3398da82fcb757	3	1	main_z	11	main_z	125	stimuli_distractor_diamondtriangles.svg	stimuli_distractor_diamondtriangles.svg	40	no	0	1	2000	0	0			0	0			1				0	
6.6.1	mac	2023-06-02	08:15:49	08:27:45	712185	641363233e3398da82fcb757	3	1	main_z	11	advance_on_keypress_ZEE	126	stimuli_distractor_diamondtriangles.svg	stimuli_distractor_diamondtriangles.svg	40	no	57	0	618	0	0			0	0			1				0	
6.6.1	mac	2023-06-02	08:15:49	08:27:46	713810	641363233e3398da82fcb757	3	1	main_z	11	main_z	127	stimuli_target_rectanglediamonds.svg	stimuli_distractor_trianglediamonds.svg	2	yes	44	1	371	0	0			0	0			1				0	
6.6.1	mac	2023-06-02	08:15:49	08:27:46	713810	641363233e3398da82fcb757	3	1	main_z	11	advance_on_keypress_ZEE	128	stimuli_target_rectanglediamonds.svg	stimuli_distractor_trianglediamonds.svg	2	yes	57	0	329	0	0			0	0			1				0	
6.6.1	mac	2023-06-02	08:15:49	08:27:48	715190	641363233e3398da82fcb757	3	1	main_z	11	main_z	129	stimuli_distractor_diamondtriangles.svg	stimuli_target_trianglesquares.svg	30	yes	44	1	402	0	0			0	0			1				0	
6.6.1	mac	2023-06-02	08:15:49	08:27:48	715190	641363233e3398da82fcb757	3	1	main_z	11	advance_on_keypress_ZEE	130	stimuli_distractor_diamondtriangles.svg	stimuli_target_trianglesquares.svg	30	yes	57	0	334	0	0			0	0			1				0	
6.6.1	mac	2023-06-02	08:15:49	08:27:51	718169	641363233e3398da82fcb757	3	1	main_z	11	main_z	131	stimuli_distractor_diamondtriangles.svg	stimuli_distractor_trianglediamonds.svg	37	no	0	1	2000	0	0			0	0			1				0	
6.6.1	mac	2023-06-02	08:15:49	08:27:51	718169	641363233e3398da82fcb757	3	1	main_z	11	advance_on_keypress_ZEE	132	stimuli_distractor_diamondtriangles.svg	stimuli_distractor_trianglediamonds.svg	37	no	57	0	322	0	0			0	0			1				0	
6.6.1	mac	2023-06-02	08:15:49	08:27:52	719526	641363233e3398da82fcb757	3	1	main_z	11	main_z	133	stimuli_distractor_trianglediamonds.svg	stimuli_distractor_diamondtriangles.svg	35	no	44	0	404	0	0			0	0			1				0	
6.6.1	mac	2023-06-02	08:15:49	08:27:52	719526	641363233e3398da82fcb757	3	1	main_z	11	advance_on_keypress_ZEE	134	stimuli_distractor_trianglediamonds.svg	stimuli_distractor_diamondtriangles.svg	35	no	57	0	749	0	0			0	0			1				0	
6.6.1	mac	2023-06-02	08:15:49	08:27:54	721483	641363233e3398da82fcb757	3	1	main_z	11	main_z	135	stimuli_distractor_trianglediamonds.svg	stimuli_target_squarediamonds.svg	12	yes	44	1	578	0	0			0	0			1				0	
6.6.1	mac	2023-06-02	08:15:49	08:27:54	721483	641363233e3398da82fcb757	3	1	main_z	11	advance_on_keypress_ZEE	136	stimuli_distractor_trianglediamonds.svg	stimuli_target_squarediamonds.svg	12	yes	57	0	275	0	0			0	0			1				0	
6.6.1	mac	2023-06-02	08:15:49	08:27:56	723076	641363233e3398da82fcb757	3	1	main_z	11	main_z	137	stimuli_target_diamondrectangles.svg	stimuli_distractor_trianglediamonds.svg	19	yes	44	1	671	0	0			0	0			1				0	
6.6.1	mac	2023-06-02	08:15:49	08:27:56	723076	641363233e3398da82fcb757	3	1	main_z	11	advance_on_keypress_ZEE	138	stimuli_target_diamondrectangles.svg	stimuli_distractor_trianglediamonds.svg	19	yes	57	0	325	0	0			0	0			1				0	
6.6.1	mac	2023-06-02	08:15:49	08:27:57	724480	641363233e3398da82fcb757	3	1	main_z	11	main_z	139	stimuli_target_squarediamonds.svg	stimuli_distractor_trianglediamonds.svg	4	yes	44	1	441	0	0			0	0			1				0	
6.6.1	mac	2023-06-02	08:15:49	08:27:57	724480	641363233e3398da82fcb757	3	1	main_z	11	advance_on_keypress_ZEE	140	stimuli_target_squarediamonds.svg	stimuli_distractor_trianglediamonds.svg	4	yes	57	0	326	0	0			0	0			1				0	
6.6.1	mac	2023-06-02	08:15:49	08:27:58	725838	641363233e3398da82fcb757	3	1	main_z	11	main_z	141	stimuli_distractor_trianglediamonds.svg	stimuli_target_squaretriangles.svg	11	yes	44	1	384	0	0			0	0			1				0	
6.6.1	mac	2023-06-02	08:15:49	08:27:58	725838	641363233e3398da82fcb757	3	1	main_z	11	advance_on_keypress_ZEE	142	stimuli_distractor_trianglediamonds.svg	stimuli_target_squaretriangles.svg	11	yes	57	0	345	0	0			0	0			1				0	
6.6.1	mac	2023-06-02	08:15:49	08:28:00	727225	641363233e3398da82fcb757	3	1	main_z	11	main_z	143	stimuli_distractor_trianglediamonds.svg	stimuli_target_rectangletriangles.svg	9	yes	44	1	403	0	0			0	0			1				0	
6.6.1	mac	2023-06-02	08:15:49	08:28:00	727225	641363233e3398da82fcb757	3	1	main_z	11	advance_on_keypress_ZEE	144	stimuli_distractor_trianglediamonds.svg	stimuli_target_rectangletriangles.svg	9	yes	57	0	627	0	0			0	0			1				0	
6.6.1	mac	2023-06-02	08:15:49	08:28:02	729037	641363233e3398da82fcb757	3	1	main_z	11	main_z	145	stimuli_target_squarediamonds.svg	stimuli_distractor_diamondtriangles.svg	8	yes	44	1	547	0	0			0	0			1				0	
6.6.1	mac	2023-06-02	08:15:49	08:28:02	729037	641363233e3398da82fcb757	3	1	main_z	11	advance_on_keypress_ZEE	146	stimuli_target_squarediamonds.svg	stimuli_distractor_diamondtriangles.svg	8	yes	57	0	265	0	0			0	0			1				0	
6.6.1	mac	2023-06-02	08:15:49	08:28:03	730429	641363233e3398da82fcb757	3	1	main_z	11	main_z	147	stimuli_target_diamondsquares.svg	stimuli_distractor_diamondtriangles.svg	24	yes	44	1	490	0	0			0	0			1				0	
6.6.1	mac	2023-06-02	08:15:49	08:28:03	730429	641363233e3398da82fcb757	3	1	main_z	11	advance_on_keypress_ZEE	148	stimuli_target_diamondsquares.svg	stimuli_distractor_diamondtriangles.svg	24	yes	57	0	312	0	0			0	0			1				0	
6.6.1	mac	2023-06-02	08:15:49	08:28:05	731865	641363233e3398da82fcb757	3	1	main_z	11	main_z	149	stimuli_distractor_diamondtriangles.svg	stimuli_target_squaretriangles.svg	15	yes	44	1	475	0	0			0	0			1				0	
6.6.1	mac	2023-06-02	08:15:49	08:28:05	731865	641363233e3398da82fcb757	3	1	main_z	11	advance_on_keypress_ZEE	150	stimuli_distractor_diamondtriangles.svg	stimuli_target_squaretriangles.svg	15	yes	57	0	312	0	0			0	0			1				0	
6.6.1	mac	2023-06-02	08:15:49	08:28:06	733177	641363233e3398da82fcb757	3	1	main_z	11	main_z	151	stimuli_distractor_diamondtriangles.svg	stimuli_target_rectangletriangles.svg	13	yes	44	1	354	0	0			0	0			1				0	
6.6.1	mac	2023-06-02	08:15:49	08:28:06	733177	641363233e3398da82fcb757	3	1	main_z	11	advance_on_keypress_ZEE	152	stimuli_distractor_diamondtriangles.svg	stimuli_target_rectangletriangles.svg	13	yes	57	0	386	0	0			0	0			1				0	
6.6.1	mac	2023-06-02	08:15:49	08:28:07	734579	641363233e3398da82fcb757	3	1	main_z	11	main_z	153	stimuli_distractor_diamondtriangles.svg	stimuli_distractor_trianglediamonds.svg	38	no	44	0	389	0	0			0	0			1				0	
6.6.1	mac	2023-06-02	08:15:49	08:28:07	734579	641363233e3398da82fcb757	3	1	main_z	11	advance_on_keypress_ZEE	154	stimuli_distractor_diamondtriangles.svg	stimuli_distractor_trianglediamonds.svg	38	no	57	0	3423	0	0			0	0			1				0	
6.6.1	mac	2023-06-02	08:15:49	08:28:12	739306	641363233e3398da82fcb757	3	1	main_z	11	main_z	155	stimuli_distractor_trianglediamonds.svg	stimuli_target_trianglerectangles.svg	25	yes	44	1	667	0	0			0	0			1				0	
6.6.1	mac	2023-06-02	08:15:49	08:28:12	739306	641363233e3398da82fcb757	3	1	main_z	11	advance_on_keypress_ZEE	156	stimuli_distractor_trianglediamonds.svg	stimuli_target_trianglerectangles.svg	25	yes	57	0	437	0	0			0	0			1				0	
6.6.1	mac	2023-06-02	08:15:49	08:28:15	742371	641363233e3398da82fcb757	3	1	main_z	11	main_z	157	stimuli_distractor_trianglediamonds.svg	stimuli_distractor_trianglediamonds.svg	33	no	0	1	2000	0	0			0	0			1				0	
6.6.1	mac	2023-06-02	08:15:49	08:28:15	742371	641363233e3398da82fcb757	3	1	main_z	11	advance_on_keypress_ZEE	158	stimuli_distractor_trianglediamonds.svg	stimuli_distractor_trianglediamonds.svg	33	no	57	0	328	0	0			0	0			1				0	
6.6.1	mac	2023-06-02	08:15:49	08:28:17	744024	641363233e3398da82fcb757	3	1	main_z	11	main_z	159	stimuli_target_trianglesquares.svg	stimuli_distractor_trianglediamonds.svg	18	yes	44	1	684	0	0			0	0			1				0	
6.6.1	mac	2023-06-02	08:15:49	08:28:17	744024	641363233e3398da82fcb757	3	1	main_z	11	advance_on_keypress_ZEE	160	stimuli_target_trianglesquares.svg	stimuli_distractor_trianglediamonds.svg	18	yes	57	0	309	0	0			0	0			1				0	
6.6.1	mac	2023-06-02	08:15:49	08:28:17	744024	641363233e3398da82fcb757	3	1	headphonecheck_calibration	14	headphonecheck_calibrationIntro	1	stimuli_target_trianglesquares.svg	stimuli_distractor_trianglediamonds.svg	18	yes	calibrationButton	0	4855	0	0			0	0			1				0	
6.6.1	mac	2023-06-02	08:15:49	08:28:17	744024	641363233e3398da82fcb757	3	1	headphonecheck_testphase	15	test_collectResponse	3	stimuli_target_trianglesquares.svg	stimuli_distractor_trianglediamonds.svg	18	yes	first	1	22162	1	3	antiphase_hc_soi.wav	1	0	0			1				0	
6.6.1	mac	2023-06-02	08:15:49	08:28:17	744024	641363233e3398da82fcb757	3	1	headphonecheck_testphase	15	test_collectResponse	6	stimuli_target_trianglesquares.svg	stimuli_distractor_trianglediamonds.svg	18	yes	third	1	753	2	2	antiphase_hc_ios.wav	3	0	0			1				0	
6.6.1	mac	2023-06-02	08:15:49	08:28:17	744024	641363233e3398da82fcb757	3	1	headphonecheck_testphase	15	test_collectResponse	9	stimuli_target_trianglesquares.svg	stimuli_distractor_trianglediamonds.svg	18	yes	second	1	431	3	5	antiphase_hc_osi.wav	2	0	0			1				0	
6.6.1	mac	2023-06-02	08:15:49	08:28:17	744024	641363233e3398da82fcb757	3	1	headphonecheck_testphase	15	test_collectResponse	12	stimuli_target_trianglesquares.svg	stimuli_distractor_trianglediamonds.svg	18	yes	first	1	323	4	4	antiphase_hc_sio.wav	1	0	0			1				0	
6.6.1	mac	2023-06-02	08:15:49	08:28:17	744024	641363233e3398da82fcb757	3	1	headphonecheck_testphase	15	test_collectResponse	15	stimuli_target_trianglesquares.svg	stimuli_distractor_trianglediamonds.svg	18	yes	second	1	278	5	1	antiphase_hc_iso.wav	2	0	0			1				0	
6.6.1	mac	2023-06-02	08:15:49	08:28:17	744024	641363233e3398da82fcb757	3	1	headphonecheck_testphase	15	test_collectResponse	18	stimuli_target_trianglesquares.svg	stimuli_distractor_trianglediamonds.svg	18	yes	third	1	282	6	6	antiphase_hc_ois.wav	3	0	0			1				0	
6.6.1	mac	2023-06-02	08:15:49	08:28:17	744024	641363233e3398da82fcb757	3	1	stereocheck_calibration	17	stereocheck_calibrationIntro	1	stimuli_target_trianglesquares.svg	stimuli_distractor_trianglediamonds.svg	18	yes	stereocheck_calibrationButton	0	6143	6	6	antiphase_hc_ois.wav	3	0	0			1				0	
6.6.1	mac	2023-06-02	08:15:49	08:28:17	744024	641363233e3398da82fcb757	3	1	stereocheck_testphase	18	stereocheck_test_collectResponse	3	stimuli_target_trianglesquares.svg	stimuli_distractor_trianglediamonds.svg	18	yes	stereocheck_left	1	391	6	6	antiphase_hc_ois.wav	3	1	1	noise_calib_stim_LEFT.wav	1	1				0	
6.6.1	mac	2023-06-02	08:15:49	08:28:17	744024	641363233e3398da82fcb757	3	1	stereocheck_testphase	18	stereocheck_test_collectResponse	6	stimuli_target_trianglesquares.svg	stimuli_distractor_trianglediamonds.svg	18	yes	stereocheck_left	1	353	6	6	antiphase_hc_ois.wav	3	2	2	noise_calib_stim_LEFT.wav	1	1				0	
6.6.1	mac	2023-06-02	08:15:49	08:28:17	744024	641363233e3398da82fcb757	3	1	stereocheck_testphase	18	stereocheck_test_collectResponse	9	stimuli_target_trianglesquares.svg	stimuli_distractor_trianglediamonds.svg	18	yes	stereocheck_right	1	375	6	6	antiphase_hc_ois.wav	3	3	4	noise_calib_stim_RIGHT.wav	2	1				0	
6.6.1	mac	2023-06-02	08:15:49	08:28:17	744024	641363233e3398da82fcb757	3	1	stereocheck_testphase	18	stereocheck_test_collectResponse	12	stimuli_target_trianglesquares.svg	stimuli_distractor_trianglediamonds.svg	18	yes	stereocheck_right	1	388	6	6	antiphase_hc_ois.wav	3	4	5	noise_calib_stim_RIGHT.wav	2	1				0	
6.6.1	mac	2023-06-02	08:15:49	08:28:17	744024	641363233e3398da82fcb757	3	1	stereocheck_testphase	18	stereocheck_test_collectResponse	15	stimuli_target_trianglesquares.svg	stimuli_distractor_trianglediamonds.svg	18	yes	stereocheck_right	1	614	6	6	antiphase_hc_ois.wav	3	5	6	noise_calib_stim_RIGHT.wav	2	1				0	
6.6.1	mac	2023-06-02	08:15:49	08:28:17	744024	641363233e3398da82fcb757	3	1	stereocheck_testphase	18	stereocheck_test_collectResponse	18	stimuli_target_trianglesquares.svg	stimuli_distractor_trianglediamonds.svg	18	yes	stereocheck_left	1	433	6	6	antiphase_hc_ois.wav	3	6	3	noise_calib_stim_LEFT.wav	1	1				0	
6.6.1	mac	2023-06-02	08:15:49	08:28:17	744024	641363233e3398da82fcb757	3	1	DL_practice	21	DL_practice	2	stimuli_target_trianglesquares.svg	stimuli_distractor_trianglediamonds.svg	18	yes	pa	1	1640	6	6	antiphase_hc_ois.wav	3	6	3	noise_calib_stim_LEFT.wav	1	29	blb_dichoticlistening_pa-pa.mp3	pa	pa	0	left
6.6.1	mac	2023-06-02	08:15:49	08:28:17	744024	641363233e3398da82fcb757	3	1	DL_practice	21	DL_practice	3	stimuli_target_trianglesquares.svg	stimuli_distractor_trianglediamonds.svg	18	yes	ka	1	3637	6	6	antiphase_hc_ois.wav	3	6	3	noise_calib_stim_LEFT.wav	1	23	blb_dichoticlistening_ka-pa.mp3	ka	pa	1	left
6.6.1	mac	2023-06-02	08:15:49	08:28:17	744024	641363233e3398da82fcb757	3	1	DL_practice	21	DL_practice	4	stimuli_target_trianglesquares.svg	stimuli_distractor_trianglediamonds.svg	18	yes	da	1	1228	6	6	antiphase_hc_ois.wav	3	6	3	noise_calib_stim_LEFT.wav	1	8	blb_dichoticlistening_da-da.mp3	da	da	0	left
6.6.1	mac	2023-06-02	08:15:49	08:28:17	744024	641363233e3398da82fcb757	3	1	DL_practice	21	DL_practice	5	stimuli_target_trianglesquares.svg	stimuli_distractor_trianglediamonds.svg	18	yes	da	1	2031	6	6	antiphase_hc_ois.wav	3	6	3	noise_calib_stim_LEFT.wav	1	7	blb_dichoticlistening_da-ba.mp3	da	ba	1	left
6.6.1	mac	2023-06-02	08:15:49	08:28:17	744024	641363233e3398da82fcb757	3	1	DL_practice	21	DL_practice	6	stimuli_target_trianglesquares.svg	stimuli_distractor_trianglediamonds.svg	18	yes	ta	1	2061	6	6	antiphase_hc_ois.wav	3	6	3	noise_calib_stim_LEFT.wav	1	36	blb_dichoticlistening_ta-ta.mp3	ta	ta	0	left
6.6.1	mac	2023-06-02	08:15:49	08:28:17	744024	641363233e3398da82fcb757	3	1	DL_practice	21	DL_practice	7	stimuli_target_trianglesquares.svg	stimuli_distractor_trianglediamonds.svg	18	yes	ka	0	2913	6	6	antiphase_hc_ois.wav	3	6	3	noise_calib_stim_LEFT.wav	1	18	blb_dichoticlistening_ga-ta.mp3	ga	ta	1	other
6.6.1	mac	2023-06-02	08:15:49	08:28:17	744024	641363233e3398da82fcb757	3	1	DL_practice	21	DL_practice	8	stimuli_target_trianglesquares.svg	stimuli_distractor_trianglediamonds.svg	18	yes	ba	1	1679	6	6	antiphase_hc_ois.wav	3	6	3	noise_calib_stim_LEFT.wav	1	1	blb_dichoticlistening_ba-ba.mp3	ba	ba	0	left
6.6.1	mac	2023-06-02	08:15:49	08:28:17	744024	641363233e3398da82fcb757	3	1	DL_practice	21	DL_practice	9	stimuli_target_trianglesquares.svg	stimuli_distractor_trianglediamonds.svg	18	yes	ga	1	1924	6	6	antiphase_hc_ois.wav	3	6	3	noise_calib_stim_LEFT.wav	1	15	blb_dichoticlistening_ga-ga.mp3	ga	ga	0	left
6.6.1	mac	2023-06-02	08:15:49	08:28:17	744024	641363233e3398da82fcb757	3	1	DL_practice	21	DL_practice	10	stimuli_target_trianglesquares.svg	stimuli_distractor_trianglediamonds.svg	18	yes	ka	1	1258	6	6	antiphase_hc_ois.wav	3	6	3	noise_calib_stim_LEFT.wav	1	22	blb_dichoticlistening_ka-ka.mp3	ka	ka	0	left
6.6.1	mac	2023-06-02	08:15:49	08:28:17	744024	641363233e3398da82fcb757	3	1	DL_test	23	DL_test	1	stimuli_target_trianglesquares.svg	stimuli_distractor_trianglediamonds.svg	18	yes	da	1	1243	6	6	antiphase_hc_ois.wav	3	6	3	noise_calib_stim_LEFT.wav	1	8	blb_dichoticlistening_da-da.mp3	da	da	0	left
6.6.1	mac	2023-06-02	08:15:49	08:28:17	744024	641363233e3398da82fcb757	3	1	DL_test	23	DL_test	2	stimuli_target_trianglesquares.svg	stimuli_distractor_trianglediamonds.svg	18	yes	ka	1	1719	6	6	antiphase_hc_ois.wav	3	6	3	noise_calib_stim_LEFT.wav	1	20	blb_dichoticlistening_ka-da.mp3	ka	da	1	left
6.6.1	mac	2023-06-02	08:15:49	08:28:17	744024	641363233e3398da82fcb757	3	1	DL_test	23	DL_test	3	stimuli_target_trianglesquares.svg	stimuli_distractor_trianglediamonds.svg	18	yes	ta	1	1675	6	6	antiphase_hc_ois.wav	3	6	3	noise_calib_stim_LEFT.wav	1	35	blb_dichoticlistening_ta-pa.mp3	ta	pa	1	left
6.6.1	mac	2023-06-02	08:15:49	08:28:17	744024	641363233e3398da82fcb757	3	1	DL_test	23	DL_test	4	stimuli_target_trianglesquares.svg	stimuli_distractor_trianglediamonds.svg	18	yes	pa	1	1035	6	6	antiphase_hc_ois.wav	3	6	3	noise_calib_stim_LEFT.wav	1	27	blb_dichoticlistening_pa-ga.mp3	pa	ga	1	left
6.6.1	mac	2023-06-02	08:15:49	08:28:17	744024	641363233e3398da82fcb757	3	1	DL_test	23	DL_test	5	stimuli_target_trianglesquares.svg	stimuli_distractor_trianglediamonds.svg	18	yes	ga	1	1652	6	6	antiphase_hc_ois.wav	3	6	3	noise_calib_stim_LEFT.wav	1	33	blb_dichoticlistening_ta-ga.mp3	ta	ga	1	right
6.6.1	mac	2023-06-02	08:15:49	08:28:17	744024	641363233e3398da82fcb757	3	1	DL_test	23	DL_test	6	stimuli_target_trianglesquares.svg	stimuli_distractor_trianglediamonds.svg	18	yes	ba	1	1296	6	6	antiphase_hc_ois.wav	3	6	3	noise_calib_stim_LEFT.wav	1	3	blb_dichoticlistening_ba-ga.mp3	ba	ga	1	left
6.6.1	mac	2023-06-02	08:15:49	08:28:17	744024	641363233e3398da82fcb757	3	1	DL_test	23	DL_test	7	stimuli_target_trianglesquares.svg	stimuli_distractor_trianglediamonds.svg	18	yes	ta	1	1471	6	6	antiphase_hc_ois.wav	3	6	3	noise_calib_stim_LEFT.wav	1	12	blb_dichoticlistening_da-ta.mp3	da	ta	1	right
6.6.1	mac	2023-06-02	08:15:49	08:28:17	744024	641363233e3398da82fcb757	3	1	DL_test	23	DL_test	8	stimuli_target_trianglesquares.svg	stimuli_distractor_trianglediamonds.svg	18	yes	ba	1	1339	6	6	antiphase_hc_ois.wav	3	6	3	noise_calib_stim_LEFT.wav	1	13	blb_dichoticlistening_ga-ba.mp3	ga	ba	1	right
6.6.1	mac	2023-06-02	08:15:49	08:28:17	744024	641363233e3398da82fcb757	3	1	DL_test	23	DL_test	9	stimuli_target_trianglesquares.svg	stimuli_distractor_trianglediamonds.svg	18	yes	ga	1	1104	6	6	antiphase_hc_ois.wav	3	6	3	noise_calib_stim_LEFT.wav	1	15	blb_dichoticlistening_ga-ga.mp3	ga	ga	0	left
6.6.1	mac	2023-06-02	08:15:49	08:28:17	744024	641363233e3398da82fcb757	3	1	DL_test	23	DL_test	10	stimuli_target_trianglesquares.svg	stimuli_distractor_trianglediamonds.svg	18	yes	ta	1	1409	6	6	antiphase_hc_ois.wav	3	6	3	noise_calib_stim_LEFT.wav	1	6	blb_dichoticlistening_ba-ta.mp3	ba	ta	1	right
6.6.1	mac	2023-06-02	08:15:49	08:28:17	744024	641363233e3398da82fcb757	3	1	DL_test	23	DL_test	11	stimuli_target_trianglesquares.svg	stimuli_distractor_trianglediamonds.svg	18	yes	ta	1	1555	6	6	antiphase_hc_ois.wav	3	6	3	noise_calib_stim_LEFT.wav	1	32	blb_dichoticlistening_ta-da.mp3	ta	da	1	left
6.6.1	mac	2023-06-02	08:15:49	08:28:17	744024	641363233e3398da82fcb757	3	1	DL_test	23	DL_test	12	stimuli_target_trianglesquares.svg	stimuli_distractor_trianglediamonds.svg	18	yes	ta	1	1634	6	6	antiphase_hc_ois.wav	3	6	3	noise_calib_stim_LEFT.wav	1	31	blb_dichoticlistening_ta-ba.mp3	ta	ba	1	left
6.6.1	mac	2023-06-02	08:15:49	08:28:17	744024	641363233e3398da82fcb757	3	1	DL_test	23	DL_test	13	stimuli_target_trianglesquares.svg	stimuli_distractor_trianglediamonds.svg	18	yes	da	1	1364	6	6	antiphase_hc_ois.wav	3	6	3	noise_calib_stim_LEFT.wav	1	9	blb_dichoticlistening_da-ga.mp3	da	ga	1	left
6.6.1	mac	2023-06-02	08:15:49	08:28:17	744024	641363233e3398da82fcb757	3	1	DL_test	23	DL_test	14	stimuli_target_trianglesquares.svg	stimuli_distractor_trianglediamonds.svg	18	yes	ta	1	1372	6	6	antiphase_hc_ois.wav	3	6	3	noise_calib_stim_LEFT.wav	1	36	blb_dichoticlistening_ta-ta.mp3	ta	ta	0	left
6.6.1	mac	2023-06-02	08:15:49	08:28:17	744024	641363233e3398da82fcb757	3	1	DL_test	23	DL_test	15	stimuli_target_trianglesquares.svg	stimuli_distractor_trianglediamonds.svg	18	yes	ka	1	1367	6	6	antiphase_hc_ois.wav	3	6	3	noise_calib_stim_LEFT.wav	1	19	blb_dichoticlistening_ka-ba.mp3	ka	ba	1	left
6.6.1	mac	2023-06-02	08:15:49	08:28:17	744024	641363233e3398da82fcb757	3	1	DL_test	23	DL_test	16	stimuli_target_trianglesquares.svg	stimuli_distractor_trianglediamonds.svg	18	yes	da	1	1120	6	6	antiphase_hc_ois.wav	3	6	3	noise_calib_stim_LEFT.wav	1	14	blb_dichoticlistening_ga-da.mp3	ga	da	1	right
6.6.1	mac	2023-06-02	08:15:49	08:28:17	744024	641363233e3398da82fcb757	3	1	DL_test	23	DL_test	17	stimuli_target_trianglesquares.svg	stimuli_distractor_trianglediamonds.svg	18	yes	pa	1	1357	6	6	antiphase_hc_ois.wav	3	6	3	noise_calib_stim_LEFT.wav	1	17	blb_dichoticlistening_ga-pa.mp3	ga	pa	1	right
6.6.1	mac	2023-06-02	08:15:49	08:28:17	744024	641363233e3398da82fcb757	3	1	DL_test	23	DL_test	18	stimuli_target_trianglesquares.svg	stimuli_distractor_trianglediamonds.svg	18	yes	ta	1	1308	6	6	antiphase_hc_ois.wav	3	6	3	noise_calib_stim_LEFT.wav	1	30	blb_dichoticlistening_pa-ta.mp3	pa	ta	1	right
6.6.1	mac	2023-06-02	08:15:49	08:28:17	744024	641363233e3398da82fcb757	3	1	DL_test	23	DL_test	19	stimuli_target_trianglesquares.svg	stimuli_distractor_trianglediamonds.svg	18	yes	pa	1	1459	6	6	antiphase_hc_ois.wav	3	6	3	noise_calib_stim_LEFT.wav	1	5	blb_dichoticlistening_ba-pa.mp3	ba	pa	1	right
6.6.1	mac	2023-06-02	08:15:49	08:28:17	744024	641363233e3398da82fcb757	3	1	DL_test	23	DL_test	20	stimuli_target_trianglesquares.svg	stimuli_distractor_trianglediamonds.svg	18	yes	pa	1	1412	6	6	antiphase_hc_ois.wav	3	6	3	noise_calib_stim_LEFT.wav	1	26	blb_dichoticlistening_pa-da.mp3	pa	da	1	left
6.6.1	mac	2023-06-02	08:15:49	08:28:17	744024	641363233e3398da82fcb757	3	1	DL_test	23	DL_test	21	stimuli_target_trianglesquares.svg	stimuli_distractor_trianglediamonds.svg	18	yes	da	1	1274	6	6	antiphase_hc_ois.wav	3	6	3	noise_calib_stim_LEFT.wav	1	2	blb_dichoticlistening_ba-da.mp3	ba	da	1	right
6.6.1	mac	2023-06-02	08:15:49	08:28:17	744024	641363233e3398da82fcb757	3	1	DL_test	23	DL_test	22	stimuli_target_trianglesquares.svg	stimuli_distractor_trianglediamonds.svg	18	yes	pa	1	1010	6	6	antiphase_hc_ois.wav	3	6	3	noise_calib_stim_LEFT.wav	1	25	blb_dichoticlistening_pa-ba.mp3	pa	ba	1	left
6.6.1	mac	2023-06-02	08:15:49	08:28:17	744024	641363233e3398da82fcb757	3	1	DL_test	23	DL_test	23	stimuli_target_trianglesquares.svg	stimuli_distractor_trianglediamonds.svg	18	yes	ka	1	1172	6	6	antiphase_hc_ois.wav	3	6	3	noise_calib_stim_LEFT.wav	1	23	blb_dichoticlistening_ka-pa.mp3	ka	pa	1	left
6.6.1	mac	2023-06-02	08:15:49	08:28:17	744024	641363233e3398da82fcb757	3	1	DL_test	23	DL_test	24	stimuli_target_trianglesquares.svg	stimuli_distractor_trianglediamonds.svg	18	yes	da	1	1118	6	6	antiphase_hc_ois.wav	3	6	3	noise_calib_stim_LEFT.wav	1	11	blb_dichoticlistening_da-pa.mp3	da	pa	1	left
6.6.1	mac	2023-06-02	08:15:49	08:28:17	744024	641363233e3398da82fcb757	3	1	DL_test	23	DL_test	25	stimuli_target_trianglesquares.svg	stimuli_distractor_trianglediamonds.svg	18	yes	ga	1	1667	6	6	antiphase_hc_ois.wav	3	6	3	noise_calib_stim_LEFT.wav	1	16	blb_dichoticlistening_ga-ka.mp3	ga	ka	1	left
6.6.1	mac	2023-06-02	08:15:49	08:28:17	744024	641363233e3398da82fcb757	3	1	DL_test	23	DL_test	26	stimuli_target_trianglesquares.svg	stimuli_distractor_trianglediamonds.svg	18	yes	ka	1	1054	6	6	antiphase_hc_ois.wav	3	6	3	noise_calib_stim_LEFT.wav	1	28	blb_dichoticlistening_pa-ka.mp3	pa	ka	1	right
