build	computer.platform	date	time	timestamp	time_elapsed_ms	subject	group	session	blockcode	blocknum	trialcode	trialnum	stimulus_left	stimulus_right	stim_index	target_present	response	correct	latency	headphonecheck_countTestTrials	headphonecheck_index	headphonecheck_testSound	headphonecheck_correctResponse	stereocheck_countTestTrials	stereocheck_index	stereocheck_testSound	stereocheck_correctResponse	DL_index	DL_soundfile	DL_leftSound	DL_rightSound	DL_dualSound	DL_choice
6.6.1	win	2023-06-28	09:47:40	0	0	6400e8b1a2889ce16019eb23	2	1	headphonecheck_calibration	4	headphonecheck_calibrationIntro	1			0		calibrationButton	0	20923	0	0			0	0			1				0	
6.6.1	win	2023-06-28	09:47:40	0	0	6400e8b1a2889ce16019eb23	2	1	headphonecheck_testphase	5	test_collectResponse	3			0		second	1	1052	1	5	antiphase_hc_osi.wav	2	0	0			1				0	
6.6.1	win	2023-06-28	09:47:40	0	0	6400e8b1a2889ce16019eb23	2	1	headphonecheck_testphase	5	test_collectResponse	6			0		first	1	811	2	4	antiphase_hc_sio.wav	1	0	0			1				0	
6.6.1	win	2023-06-28	09:47:40	0	0	6400e8b1a2889ce16019eb23	2	1	headphonecheck_testphase	5	test_collectResponse	9			0		second	1	590	3	1	antiphase_hc_iso.wav	2	0	0			1				0	
6.6.1	win	2023-06-28	09:47:40	0	0	6400e8b1a2889ce16019eb23	2	1	headphonecheck_testphase	5	test_collectResponse	12			0		third	1	542	4	6	antiphase_hc_ois.wav	3	0	0			1				0	
6.6.1	win	2023-06-28	09:47:40	0	0	6400e8b1a2889ce16019eb23	2	1	headphonecheck_testphase	5	test_collectResponse	15			0		first	1	884	5	3	antiphase_hc_soi.wav	1	0	0			1				0	
6.6.1	win	2023-06-28	09:47:40	0	0	6400e8b1a2889ce16019eb23	2	1	headphonecheck_testphase	5	test_collectResponse	18			0		third	1	441	6	2	antiphase_hc_ios.wav	3	0	0			1				0	
6.6.1	win	2023-06-28	09:47:40	0	0	6400e8b1a2889ce16019eb23	2	1	stereocheck_calibration	7	stereocheck_calibrationIntro	1			0		stereocheck_calibrationButton	0	19664	6	2	antiphase_hc_ios.wav	3	0	0			1				0	
6.6.1	win	2023-06-28	09:47:40	0	0	6400e8b1a2889ce16019eb23	2	1	stereocheck_testphase	8	stereocheck_test_collectResponse	3			0		stereocheck_right	1	1520	6	2	antiphase_hc_ios.wav	3	1	4	noise_calib_stim_RIGHT.wav	2	1				0	
6.6.1	win	2023-06-28	09:47:40	0	0	6400e8b1a2889ce16019eb23	2	1	stereocheck_testphase	8	stereocheck_test_collectResponse	6			0		stereocheck_right	1	1224	6	2	antiphase_hc_ios.wav	3	2	6	noise_calib_stim_RIGHT.wav	2	1				0	
6.6.1	win	2023-06-28	09:47:40	0	0	6400e8b1a2889ce16019eb23	2	1	stereocheck_testphase	8	stereocheck_test_collectResponse	9			0		stereocheck_left	1	592	6	2	antiphase_hc_ios.wav	3	3	1	noise_calib_stim_LEFT.wav	1	1				0	
6.6.1	win	2023-06-28	09:47:40	0	0	6400e8b1a2889ce16019eb23	2	1	stereocheck_testphase	8	stereocheck_test_collectResponse	12			0		stereocheck_right	1	1031	6	2	antiphase_hc_ios.wav	3	4	5	noise_calib_stim_RIGHT.wav	2	1				0	
6.6.1	win	2023-06-28	09:47:40	0	0	6400e8b1a2889ce16019eb23	2	1	stereocheck_testphase	8	stereocheck_test_collectResponse	15			0		stereocheck_left	1	1342	6	2	antiphase_hc_ios.wav	3	5	2	noise_calib_stim_LEFT.wav	1	1				0	
6.6.1	win	2023-06-28	09:47:40	0	0	6400e8b1a2889ce16019eb23	2	1	stereocheck_testphase	8	stereocheck_test_collectResponse	18			0		stereocheck_left	1	644	6	2	antiphase_hc_ios.wav	3	6	3	noise_calib_stim_LEFT.wav	1	1				0	
6.6.1	win	2023-06-28	09:47:40	0	0	6400e8b1a2889ce16019eb23	2	1	DL_practice	11	DL_practice	2			0		pa	1	1359	6	2	antiphase_hc_ios.wav	3	6	3	noise_calib_stim_LEFT.wav	1	29	blb_dichoticlistening_pa-pa.mp3	pa	pa	0	left
6.6.1	win	2023-06-28	09:47:40	0	0	6400e8b1a2889ce16019eb23	2	1	DL_practice	11	DL_practice	3			0		ga	1	1431	6	2	antiphase_hc_ios.wav	3	6	3	noise_calib_stim_LEFT.wav	1	15	blb_dichoticlistening_ga-ga.mp3	ga	ga	0	left
6.6.1	win	2023-06-28	09:47:40	0	0	6400e8b1a2889ce16019eb23	2	1	DL_practice	11	DL_practice	4			0		ka	0	996	6	2	antiphase_hc_ios.wav	3	6	3	noise_calib_stim_LEFT.wav	1	36	blb_dichoticlistening_ta-ta.mp3	ta	ta	0	other
6.6.1	win	2023-06-28	09:47:40	0	0	6400e8b1a2889ce16019eb23	2	1	DL_practice	11	DL_practice	5			0		ka	1	1506	6	2	antiphase_hc_ios.wav	3	6	3	noise_calib_stim_LEFT.wav	1	22	blb_dichoticlistening_ka-ka.mp3	ka	ka	0	left
6.6.1	win	2023-06-28	09:47:40	0	0	6400e8b1a2889ce16019eb23	2	1	DL_practice	11	DL_practice	6			0		ga	1	1509	6	2	antiphase_hc_ios.wav	3	6	3	noise_calib_stim_LEFT.wav	1	18	blb_dichoticlistening_ga-ta.mp3	ga	ta	1	left
6.6.1	win	2023-06-28	09:47:40	0	0	6400e8b1a2889ce16019eb23	2	1	DL_practice	11	DL_practice	7			0		ba	1	2095	6	2	antiphase_hc_ios.wav	3	6	3	noise_calib_stim_LEFT.wav	1	1	blb_dichoticlistening_ba-ba.mp3	ba	ba	0	left
6.6.1	win	2023-06-28	09:47:40	0	0	6400e8b1a2889ce16019eb23	2	1	DL_practice	11	DL_practice	8			0		pa	1	1657	6	2	antiphase_hc_ios.wav	3	6	3	noise_calib_stim_LEFT.wav	1	23	blb_dichoticlistening_ka-pa.mp3	ka	pa	1	right
6.6.1	win	2023-06-28	09:47:40	0	0	6400e8b1a2889ce16019eb23	2	1	DL_practice	11	DL_practice	9			0		da	1	1684	6	2	antiphase_hc_ios.wav	3	6	3	noise_calib_stim_LEFT.wav	1	7	blb_dichoticlistening_da-ba.mp3	da	ba	1	left
6.6.1	win	2023-06-28	09:47:40	0	0	6400e8b1a2889ce16019eb23	2	1	DL_practice	11	DL_practice	10			0		da	1	976	6	2	antiphase_hc_ios.wav	3	6	3	noise_calib_stim_LEFT.wav	1	8	blb_dichoticlistening_da-da.mp3	da	da	0	left
6.6.1	win	2023-06-28	09:47:40	0	0	6400e8b1a2889ce16019eb23	2	1	DL_test	13	DL_test	1			0		pa	0	1740	6	2	antiphase_hc_ios.wav	3	6	3	noise_calib_stim_LEFT.wav	1	10	blb_dichoticlistening_da-ka.mp3	da	ka	1	other
6.6.1	win	2023-06-28	09:47:40	0	0	6400e8b1a2889ce16019eb23	2	1	DL_test	13	DL_test	2			0		ga	1	1301	6	2	antiphase_hc_ios.wav	3	6	3	noise_calib_stim_LEFT.wav	1	9	blb_dichoticlistening_da-ga.mp3	da	ga	1	right
6.6.1	win	2023-06-28	09:47:40	0	0	6400e8b1a2889ce16019eb23	2	1	DL_test	13	DL_test	3			0		ba	1	3726	6	2	antiphase_hc_ios.wav	3	6	3	noise_calib_stim_LEFT.wav	1	31	blb_dichoticlistening_ta-ba.mp3	ta	ba	1	right
6.6.1	win	2023-06-28	09:47:40	0	0	6400e8b1a2889ce16019eb23	2	1	DL_test	13	DL_test	4			0		pa	1	1511	6	2	antiphase_hc_ios.wav	3	6	3	noise_calib_stim_LEFT.wav	1	29	blb_dichoticlistening_pa-pa.mp3	pa	pa	0	left
6.6.1	win	2023-06-28	09:47:40	0	0	6400e8b1a2889ce16019eb23	2	1	DL_test	13	DL_test	5			0		pa	1	1425	6	2	antiphase_hc_ios.wav	3	6	3	noise_calib_stim_LEFT.wav	1	5	blb_dichoticlistening_ba-pa.mp3	ba	pa	1	right
6.6.1	win	2023-06-28	09:47:40	0	0	6400e8b1a2889ce16019eb23	2	1	DL_test	13	DL_test	6			0		ka	1	1214	6	2	antiphase_hc_ios.wav	3	6	3	noise_calib_stim_LEFT.wav	1	22	blb_dichoticlistening_ka-ka.mp3	ka	ka	0	left
6.6.1	win	2023-06-28	09:47:40	0	0	6400e8b1a2889ce16019eb23	2	1	DL_test	13	DL_test	7			0		pa	1	1739	6	2	antiphase_hc_ios.wav	3	6	3	noise_calib_stim_LEFT.wav	1	17	blb_dichoticlistening_ga-pa.mp3	ga	pa	1	right
6.6.1	win	2023-06-28	09:47:40	0	0	6400e8b1a2889ce16019eb23	2	1	DL_test	13	DL_test	8			0		ka	1	971	6	2	antiphase_hc_ios.wav	3	6	3	noise_calib_stim_LEFT.wav	1	16	blb_dichoticlistening_ga-ka.mp3	ga	ka	1	right
6.6.1	win	2023-06-28	09:47:40	0	0	6400e8b1a2889ce16019eb23	2	1	DL_test	13	DL_test	9			0		ka	1	1225	6	2	antiphase_hc_ios.wav	3	6	3	noise_calib_stim_LEFT.wav	1	4	blb_dichoticlistening_ba-ka.mp3	ba	ka	1	right
6.6.1	win	2023-06-28	09:47:40	0	0	6400e8b1a2889ce16019eb23	2	1	DL_test	13	DL_test	10			0		ka	1	1023	6	2	antiphase_hc_ios.wav	3	6	3	noise_calib_stim_LEFT.wav	1	34	blb_dichoticlistening_ta-ka.mp3	ta	ka	1	right
6.6.1	win	2023-06-28	09:47:40	0	0	6400e8b1a2889ce16019eb23	2	1	DL_test	13	DL_test	11			0		pa	1	1581	6	2	antiphase_hc_ios.wav	3	6	3	noise_calib_stim_LEFT.wav	1	23	blb_dichoticlistening_ka-pa.mp3	ka	pa	1	right
6.6.1	win	2023-06-28	09:47:40	0	0	6400e8b1a2889ce16019eb23	2	1	DL_test	13	DL_test	12			0		pa	1	1458	6	2	antiphase_hc_ios.wav	3	6	3	noise_calib_stim_LEFT.wav	1	28	blb_dichoticlistening_pa-ka.mp3	pa	ka	1	left
6.6.1	win	2023-06-28	09:47:40	0	0	6400e8b1a2889ce16019eb23	2	1	DL_test	13	DL_test	13			0		ka	0	1031	6	2	antiphase_hc_ios.wav	3	6	3	noise_calib_stim_LEFT.wav	1	36	blb_dichoticlistening_ta-ta.mp3	ta	ta	0	other
6.6.1	win	2023-06-28	09:47:40	0	0	6400e8b1a2889ce16019eb23	2	1	DL_test	13	DL_test	14			0		pa	1	1725	6	2	antiphase_hc_ios.wav	3	6	3	noise_calib_stim_LEFT.wav	1	30	blb_dichoticlistening_pa-ta.mp3	pa	ta	1	left
6.6.1	win	2023-06-28	09:47:40	0	0	6400e8b1a2889ce16019eb23	2	1	DL_test	13	DL_test	15			0		da	1	1525	6	2	antiphase_hc_ios.wav	3	6	3	noise_calib_stim_LEFT.wav	1	32	blb_dichoticlistening_ta-da.mp3	ta	da	1	right
6.6.1	win	2023-06-28	09:47:40	0	0	6400e8b1a2889ce16019eb23	2	1	DL_test	13	DL_test	16			0		ba	1	1797	6	2	antiphase_hc_ios.wav	3	6	3	noise_calib_stim_LEFT.wav	1	25	blb_dichoticlistening_pa-ba.mp3	pa	ba	1	right
6.6.1	win	2023-06-28	09:47:40	0	0	6400e8b1a2889ce16019eb23	2	1	DL_test	13	DL_test	17			0		ka	1	1355	6	2	antiphase_hc_ios.wav	3	6	3	noise_calib_stim_LEFT.wav	1	24	blb_dichoticlistening_ka-ta.mp3	ka	ta	1	left
6.6.1	win	2023-06-28	09:47:40	0	0	6400e8b1a2889ce16019eb23	2	1	DL_test	13	DL_test	18			0		ga	1	1459	6	2	antiphase_hc_ios.wav	3	6	3	noise_calib_stim_LEFT.wav	1	14	blb_dichoticlistening_ga-da.mp3	ga	da	1	left
6.6.1	win	2023-06-28	09:47:40	0	0	6400e8b1a2889ce16019eb23	2	1	DL_test	13	DL_test	19			0		ba	1	1640	6	2	antiphase_hc_ios.wav	3	6	3	noise_calib_stim_LEFT.wav	1	1	blb_dichoticlistening_ba-ba.mp3	ba	ba	0	left
6.6.1	win	2023-06-28	09:47:40	0	0	6400e8b1a2889ce16019eb23	2	1	DL_test	13	DL_test	20			0		ga	1	3660	6	2	antiphase_hc_ios.wav	3	6	3	noise_calib_stim_LEFT.wav	1	27	blb_dichoticlistening_pa-ga.mp3	pa	ga	1	right
6.6.1	win	2023-06-28	09:47:40	0	0	6400e8b1a2889ce16019eb23	2	1	DL_test	13	DL_test	21			0		ka	0	1126	6	2	antiphase_hc_ios.wav	3	6	3	noise_calib_stim_LEFT.wav	1	6	blb_dichoticlistening_ba-ta.mp3	ba	ta	1	other
6.6.1	win	2023-06-28	09:47:40	0	0	6400e8b1a2889ce16019eb23	2	1	DL_test	13	DL_test	22			0		ka	1	1263	6	2	antiphase_hc_ios.wav	3	6	3	noise_calib_stim_LEFT.wav	1	19	blb_dichoticlistening_ka-ba.mp3	ka	ba	1	left
6.6.1	win	2023-06-28	09:47:40	0	0	6400e8b1a2889ce16019eb23	2	1	DL_test	13	DL_test	23			0		da	1	1379	6	2	antiphase_hc_ios.wav	3	6	3	noise_calib_stim_LEFT.wav	1	7	blb_dichoticlistening_da-ba.mp3	da	ba	1	left
6.6.1	win	2023-06-28	09:47:40	0	0	6400e8b1a2889ce16019eb23	2	1	DL_test	13	DL_test	24			0		da	0	2827	6	2	antiphase_hc_ios.wav	3	6	3	noise_calib_stim_LEFT.wav	1	33	blb_dichoticlistening_ta-ga.mp3	ta	ga	1	other
6.6.1	win	2023-06-28	09:47:40	0	0	6400e8b1a2889ce16019eb23	2	1	DL_test	13	DL_test	25			0		ka	1	1304	6	2	antiphase_hc_ios.wav	3	6	3	noise_calib_stim_LEFT.wav	1	21	blb_dichoticlistening_ka-ga.mp3	ka	ga	1	left
6.6.1	win	2023-06-28	09:47:40	0	0	6400e8b1a2889ce16019eb23	2	1	DL_test	13	DL_test	26			0		pa	1	1098	6	2	antiphase_hc_ios.wav	3	6	3	noise_calib_stim_LEFT.wav	1	35	blb_dichoticlistening_ta-pa.mp3	ta	pa	1	right
6.6.1	win	2023-06-28	09:47:40	0	0	6400e8b1a2889ce16019eb23	2	1	DL_test	13	DL_test	27			0		da	1	1860	6	2	antiphase_hc_ios.wav	3	6	3	noise_calib_stim_LEFT.wav	1	26	blb_dichoticlistening_pa-da.mp3	pa	da	1	right
6.6.1	win	2023-06-28	09:47:40	0	0	6400e8b1a2889ce16019eb23	2	1	DL_test	13	DL_test	28			0		ba	1	1775	6	2	antiphase_hc_ios.wav	3	6	3	noise_calib_stim_LEFT.wav	1	3	blb_dichoticlistening_ba-ga.mp3	ba	ga	1	left
6.6.1	win	2023-06-28	09:47:40	0	0	6400e8b1a2889ce16019eb23	2	1	DL_test	13	DL_test	29			0		ka	1	2589	6	2	antiphase_hc_ios.wav	3	6	3	noise_calib_stim_LEFT.wav	1	20	blb_dichoticlistening_ka-da.mp3	ka	da	1	left
6.6.1	win	2023-06-28	09:47:40	0	0	6400e8b1a2889ce16019eb23	2	1	DL_test	13	DL_test	30			0		da	1	1461	6	2	antiphase_hc_ios.wav	3	6	3	noise_calib_stim_LEFT.wav	1	8	blb_dichoticlistening_da-da.mp3	da	da	0	left
6.6.1	win	2023-06-28	09:47:40	0	0	6400e8b1a2889ce16019eb23	2	1	DL_test	13	DL_test	31			0		ga	1	912	6	2	antiphase_hc_ios.wav	3	6	3	noise_calib_stim_LEFT.wav	1	15	blb_dichoticlistening_ga-ga.mp3	ga	ga	0	left
6.6.1	win	2023-06-28	09:47:40	0	0	6400e8b1a2889ce16019eb23	2	1	DL_test	13	DL_test	32			0		da	1	1465	6	2	antiphase_hc_ios.wav	3	6	3	noise_calib_stim_LEFT.wav	1	2	blb_dichoticlistening_ba-da.mp3	ba	da	1	right
6.6.1	win	2023-06-28	09:47:40	0	0	6400e8b1a2889ce16019eb23	2	1	DL_test	13	DL_test	33			0		ka	0	1822	6	2	antiphase_hc_ios.wav	3	6	3	noise_calib_stim_LEFT.wav	1	12	blb_dichoticlistening_da-ta.mp3	da	ta	1	other
6.6.1	win	2023-06-28	09:47:40	0	0	6400e8b1a2889ce16019eb23	2	1	DL_test	13	DL_test	34			0		ka	0	1372	6	2	antiphase_hc_ios.wav	3	6	3	noise_calib_stim_LEFT.wav	1	18	blb_dichoticlistening_ga-ta.mp3	ga	ta	1	other
6.6.1	win	2023-06-28	09:47:40	0	0	6400e8b1a2889ce16019eb23	2	1	DL_test	13	DL_test	35			0		ba	1	1585	6	2	antiphase_hc_ios.wav	3	6	3	noise_calib_stim_LEFT.wav	1	13	blb_dichoticlistening_ga-ba.mp3	ga	ba	1	right
6.6.1	win	2023-06-28	09:47:40	0	0	6400e8b1a2889ce16019eb23	2	1	DL_test	13	DL_test	36			0		pa	1	1264	6	2	antiphase_hc_ios.wav	3	6	3	noise_calib_stim_LEFT.wav	1	11	blb_dichoticlistening_da-pa.mp3	da	pa	1	right
6.6.1	win	2023-06-28	09:47:40	0	0	6400e8b1a2889ce16019eb23	2	1	DL_test	14	DL_test	1			0		ka	1	1030	6	2	antiphase_hc_ios.wav	3	6	3	noise_calib_stim_LEFT.wav	1	24	blb_dichoticlistening_ka-ta.mp3	ka	ta	1	left
6.6.1	win	2023-06-28	09:47:40	0	0	6400e8b1a2889ce16019eb23	2	1	DL_test	14	DL_test	2			0		ba	1	1523	6	2	antiphase_hc_ios.wav	3	6	3	noise_calib_stim_LEFT.wav	1	25	blb_dichoticlistening_pa-ba.mp3	pa	ba	1	right
6.6.1	win	2023-06-28	09:47:40	0	0	6400e8b1a2889ce16019eb23	2	1	DL_test	14	DL_test	3			0		ka	1	1477	6	2	antiphase_hc_ios.wav	3	6	3	noise_calib_stim_LEFT.wav	1	20	blb_dichoticlistening_ka-da.mp3	ka	da	1	left
6.6.1	win	2023-06-28	09:47:40	0	0	6400e8b1a2889ce16019eb23	2	1	DL_test	14	DL_test	4			0		pa	1	1193	6	2	antiphase_hc_ios.wav	3	6	3	noise_calib_stim_LEFT.wav	1	23	blb_dichoticlistening_ka-pa.mp3	ka	pa	1	right
6.6.1	win	2023-06-28	09:47:40	0	0	6400e8b1a2889ce16019eb23	2	1	DL_test	14	DL_test	5			0		ba	1	1591	6	2	antiphase_hc_ios.wav	3	6	3	noise_calib_stim_LEFT.wav	1	13	blb_dichoticlistening_ga-ba.mp3	ga	ba	1	right
6.6.1	win	2023-06-28	09:47:40	0	0	6400e8b1a2889ce16019eb23	2	1	DL_test	14	DL_test	6			0		ka	0	1350	6	2	antiphase_hc_ios.wav	3	6	3	noise_calib_stim_LEFT.wav	1	12	blb_dichoticlistening_da-ta.mp3	da	ta	1	other
6.6.1	win	2023-06-28	09:47:40	0	0	6400e8b1a2889ce16019eb23	2	1	DL_test	14	DL_test	7			0		ga	1	1053	6	2	antiphase_hc_ios.wav	3	6	3	noise_calib_stim_LEFT.wav	1	33	blb_dichoticlistening_ta-ga.mp3	ta	ga	1	right
6.6.1	win	2023-06-28	09:47:40	0	0	6400e8b1a2889ce16019eb23	2	1	DL_test	14	DL_test	8			0		ba	1	1650	6	2	antiphase_hc_ios.wav	3	6	3	noise_calib_stim_LEFT.wav	1	19	blb_dichoticlistening_ka-ba.mp3	ka	ba	1	right
6.6.1	win	2023-06-28	09:47:40	0	0	6400e8b1a2889ce16019eb23	2	1	DL_test	14	DL_test	9			0		pa	1	1367	6	2	antiphase_hc_ios.wav	3	6	3	noise_calib_stim_LEFT.wav	1	30	blb_dichoticlistening_pa-ta.mp3	pa	ta	1	left
6.6.1	win	2023-06-28	09:47:40	0	0	6400e8b1a2889ce16019eb23	2	1	DL_test	14	DL_test	10			0		pa	1	1351	6	2	antiphase_hc_ios.wav	3	6	3	noise_calib_stim_LEFT.wav	1	29	blb_dichoticlistening_pa-pa.mp3	pa	pa	0	left
6.6.1	win	2023-06-28	09:47:40	0	0	6400e8b1a2889ce16019eb23	2	1	DL_test	14	DL_test	11			0		ga	1	1309	6	2	antiphase_hc_ios.wav	3	6	3	noise_calib_stim_LEFT.wav	1	15	blb_dichoticlistening_ga-ga.mp3	ga	ga	0	left
6.6.1	win	2023-06-28	09:47:40	0	0	6400e8b1a2889ce16019eb23	2	1	DL_test	14	DL_test	12			0		ga	1	2649	6	2	antiphase_hc_ios.wav	3	6	3	noise_calib_stim_LEFT.wav	1	18	blb_dichoticlistening_ga-ta.mp3	ga	ta	1	left
6.6.1	win	2023-06-28	09:47:40	0	0	6400e8b1a2889ce16019eb23	2	1	DL_test	14	DL_test	13			0		da	1	1293	6	2	antiphase_hc_ios.wav	3	6	3	noise_calib_stim_LEFT.wav	1	2	blb_dichoticlistening_ba-da.mp3	ba	da	1	right
6.6.1	win	2023-06-28	09:47:40	0	0	6400e8b1a2889ce16019eb23	2	1	DL_test	14	DL_test	14			0		ga	1	1680	6	2	antiphase_hc_ios.wav	3	6	3	noise_calib_stim_LEFT.wav	1	9	blb_dichoticlistening_da-ga.mp3	da	ga	1	right
6.6.1	win	2023-06-28	09:47:40	0	0	6400e8b1a2889ce16019eb23	2	1	DL_test	14	DL_test	15			0		ka	0	1139	6	2	antiphase_hc_ios.wav	3	6	3	noise_calib_stim_LEFT.wav	1	6	blb_dichoticlistening_ba-ta.mp3	ba	ta	1	other
6.6.1	win	2023-06-28	09:47:40	0	0	6400e8b1a2889ce16019eb23	2	1	DL_test	14	DL_test	16			0		pa	1	1476	6	2	antiphase_hc_ios.wav	3	6	3	noise_calib_stim_LEFT.wav	1	35	blb_dichoticlistening_ta-pa.mp3	ta	pa	1	right
6.6.1	win	2023-06-28	09:47:40	0	0	6400e8b1a2889ce16019eb23	2	1	DL_test	14	DL_test	17			0		da	1	1535	6	2	antiphase_hc_ios.wav	3	6	3	noise_calib_stim_LEFT.wav	1	14	blb_dichoticlistening_ga-da.mp3	ga	da	1	right
6.6.1	win	2023-06-28	09:47:40	0	0	6400e8b1a2889ce16019eb23	2	1	DL_test	14	DL_test	18			0		ka	1	1073	6	2	antiphase_hc_ios.wav	3	6	3	noise_calib_stim_LEFT.wav	1	22	blb_dichoticlistening_ka-ka.mp3	ka	ka	0	left
6.6.1	win	2023-06-28	09:47:40	0	0	6400e8b1a2889ce16019eb23	2	1	DL_test	14	DL_test	19			0		ka	1	1012	6	2	antiphase_hc_ios.wav	3	6	3	noise_calib_stim_LEFT.wav	1	16	blb_dichoticlistening_ga-ka.mp3	ga	ka	1	right
6.6.1	win	2023-06-28	09:47:40	0	0	6400e8b1a2889ce16019eb23	2	1	DL_test	14	DL_test	20			0		da	1	1547	6	2	antiphase_hc_ios.wav	3	6	3	noise_calib_stim_LEFT.wav	1	26	blb_dichoticlistening_pa-da.mp3	pa	da	1	right
6.6.1	win	2023-06-28	09:47:40	0	0	6400e8b1a2889ce16019eb23	2	1	DL_test	14	DL_test	21			0		da	1	1323	6	2	antiphase_hc_ios.wav	3	6	3	noise_calib_stim_LEFT.wav	1	8	blb_dichoticlistening_da-da.mp3	da	da	0	left
6.6.1	win	2023-06-28	09:47:40	0	0	6400e8b1a2889ce16019eb23	2	1	DL_test	14	DL_test	22			0		pa	1	1587	6	2	antiphase_hc_ios.wav	3	6	3	noise_calib_stim_LEFT.wav	1	27	blb_dichoticlistening_pa-ga.mp3	pa	ga	1	left
6.6.1	win	2023-06-28	09:47:40	0	0	6400e8b1a2889ce16019eb23	2	1	DL_test	14	DL_test	23			0		ba	1	1931	6	2	antiphase_hc_ios.wav	3	6	3	noise_calib_stim_LEFT.wav	1	3	blb_dichoticlistening_ba-ga.mp3	ba	ga	1	left
6.6.1	win	2023-06-28	09:47:40	0	0	6400e8b1a2889ce16019eb23	2	1	DL_test	14	DL_test	24			0		pa	0	1716	6	2	antiphase_hc_ios.wav	3	6	3	noise_calib_stim_LEFT.wav	1	10	blb_dichoticlistening_da-ka.mp3	da	ka	1	other
6.6.1	win	2023-06-28	09:47:40	0	0	6400e8b1a2889ce16019eb23	2	1	DL_test	14	DL_test	25			0		pa	1	1366	6	2	antiphase_hc_ios.wav	3	6	3	noise_calib_stim_LEFT.wav	1	17	blb_dichoticlistening_ga-pa.mp3	ga	pa	1	right
6.6.1	win	2023-06-28	09:47:40	0	0	6400e8b1a2889ce16019eb23	2	1	DL_test	14	DL_test	26			0		da	1	1309	6	2	antiphase_hc_ios.wav	3	6	3	noise_calib_stim_LEFT.wav	1	7	blb_dichoticlistening_da-ba.mp3	da	ba	1	left
6.6.1	win	2023-06-28	09:47:40	0	0	6400e8b1a2889ce16019eb23	2	1	DL_test	14	DL_test	27			0		ka	0	1024	6	2	antiphase_hc_ios.wav	3	6	3	noise_calib_stim_LEFT.wav	1	36	blb_dichoticlistening_ta-ta.mp3	ta	ta	0	other
6.6.1	win	2023-06-28	09:47:40	0	0	6400e8b1a2889ce16019eb23	2	1	DL_test	14	DL_test	28			0		ka	1	1190	6	2	antiphase_hc_ios.wav	3	6	3	noise_calib_stim_LEFT.wav	1	4	blb_dichoticlistening_ba-ka.mp3	ba	ka	1	right
6.6.1	win	2023-06-28	09:47:40	0	0	6400e8b1a2889ce16019eb23	2	1	DL_test	14	DL_test	29			0		ka	1	877	6	2	antiphase_hc_ios.wav	3	6	3	noise_calib_stim_LEFT.wav	1	34	blb_dichoticlistening_ta-ka.mp3	ta	ka	1	right
6.6.1	win	2023-06-28	09:47:40	0	0	6400e8b1a2889ce16019eb23	2	1	DL_test	14	DL_test	30			0		pa	1	1287	6	2	antiphase_hc_ios.wav	3	6	3	noise_calib_stim_LEFT.wav	1	5	blb_dichoticlistening_ba-pa.mp3	ba	pa	1	right
6.6.1	win	2023-06-28	09:47:40	0	0	6400e8b1a2889ce16019eb23	2	1	DL_test	14	DL_test	31			0		ba	1	1690	6	2	antiphase_hc_ios.wav	3	6	3	noise_calib_stim_LEFT.wav	1	31	blb_dichoticlistening_ta-ba.mp3	ta	ba	1	right
6.6.1	win	2023-06-28	09:47:40	0	0	6400e8b1a2889ce16019eb23	2	1	DL_test	14	DL_test	32			0		ba	1	1711	6	2	antiphase_hc_ios.wav	3	6	3	noise_calib_stim_LEFT.wav	1	1	blb_dichoticlistening_ba-ba.mp3	ba	ba	0	left
6.6.1	win	2023-06-28	09:47:40	0	0	6400e8b1a2889ce16019eb23	2	1	DL_test	14	DL_test	33			0		pa	1	1423	6	2	antiphase_hc_ios.wav	3	6	3	noise_calib_stim_LEFT.wav	1	28	blb_dichoticlistening_pa-ka.mp3	pa	ka	1	left
6.6.1	win	2023-06-28	09:47:40	0	0	6400e8b1a2889ce16019eb23	2	1	DL_test	14	DL_test	34			0		pa	1	1134	6	2	antiphase_hc_ios.wav	3	6	3	noise_calib_stim_LEFT.wav	1	11	blb_dichoticlistening_da-pa.mp3	da	pa	1	right
6.6.1	win	2023-06-28	09:47:40	0	0	6400e8b1a2889ce16019eb23	2	1	DL_test	14	DL_test	35			0		ga	1	1653	6	2	antiphase_hc_ios.wav	3	6	3	noise_calib_stim_LEFT.wav	1	21	blb_dichoticlistening_ka-ga.mp3	ka	ga	1	right
6.6.1	win	2023-06-28	09:47:40	0	0	6400e8b1a2889ce16019eb23	2	1	DL_test	14	DL_test	36			0		ga	0	1556	6	2	antiphase_hc_ios.wav	3	6	3	noise_calib_stim_LEFT.wav	1	32	blb_dichoticlistening_ta-da.mp3	ta	da	1	other
6.6.1	win	2023-06-28	09:47:40	0	0	6400e8b1a2889ce16019eb23	2	1	DL_test	15	DL_test	1			0		ga	1	1731	6	2	antiphase_hc_ios.wav	3	6	3	noise_calib_stim_LEFT.wav	1	15	blb_dichoticlistening_ga-ga.mp3	ga	ga	0	left
6.6.1	win	2023-06-28	09:47:40	0	0	6400e8b1a2889ce16019eb23	2	1	DL_test	15	DL_test	2			0		pa	0	1793	6	2	antiphase_hc_ios.wav	3	6	3	noise_calib_stim_LEFT.wav	1	19	blb_dichoticlistening_ka-ba.mp3	ka	ba	1	other
6.6.1	win	2023-06-28	09:47:40	0	0	6400e8b1a2889ce16019eb23	2	1	DL_test	15	DL_test	3			0		da	1	1792	6	2	antiphase_hc_ios.wav	3	6	3	noise_calib_stim_LEFT.wav	1	14	blb_dichoticlistening_ga-da.mp3	ga	da	1	right
6.6.1	win	2023-06-28	09:47:40	0	0	6400e8b1a2889ce16019eb23	2	1	DL_test	15	DL_test	4			0		ka	1	1463	6	2	antiphase_hc_ios.wav	3	6	3	noise_calib_stim_LEFT.wav	1	21	blb_dichoticlistening_ka-ga.mp3	ka	ga	1	left
6.6.1	win	2023-06-28	09:47:40	0	0	6400e8b1a2889ce16019eb23	2	1	DL_test	15	DL_test	5			0		ta	1	2074	6	2	antiphase_hc_ios.wav	3	6	3	noise_calib_stim_LEFT.wav	1	6	blb_dichoticlistening_ba-ta.mp3	ba	ta	1	right
6.6.1	win	2023-06-28	09:47:40	0	0	6400e8b1a2889ce16019eb23	2	1	DL_test	15	DL_test	6			0		pa	1	1140	6	2	antiphase_hc_ios.wav	3	6	3	noise_calib_stim_LEFT.wav	1	17	blb_dichoticlistening_ga-pa.mp3	ga	pa	1	right
6.6.1	win	2023-06-28	09:47:40	0	0	6400e8b1a2889ce16019eb23	2	1	DL_test	15	DL_test	7			0		ka	1	3606	6	2	antiphase_hc_ios.wav	3	6	3	noise_calib_stim_LEFT.wav	1	24	blb_dichoticlistening_ka-ta.mp3	ka	ta	1	left
6.6.1	win	2023-06-28	09:47:40	0	0	6400e8b1a2889ce16019eb23	2	1	DL_test	15	DL_test	8			0		ka	1	731	6	2	antiphase_hc_ios.wav	3	6	3	noise_calib_stim_LEFT.wav	1	34	blb_dichoticlistening_ta-ka.mp3	ta	ka	1	right
6.6.1	win	2023-06-28	09:47:40	0	0	6400e8b1a2889ce16019eb23	2	1	DL_test	15	DL_test	9			0		ba	1	1966	6	2	antiphase_hc_ios.wav	3	6	3	noise_calib_stim_LEFT.wav	1	25	blb_dichoticlistening_pa-ba.mp3	pa	ba	1	right
6.6.1	win	2023-06-28	09:47:40	0	0	6400e8b1a2889ce16019eb23	2	1	DL_test	15	DL_test	10			0		pa	1	1581	6	2	antiphase_hc_ios.wav	3	6	3	noise_calib_stim_LEFT.wav	1	29	blb_dichoticlistening_pa-pa.mp3	pa	pa	0	left
6.6.1	win	2023-06-28	09:47:40	0	0	6400e8b1a2889ce16019eb23	2	1	DL_test	15	DL_test	11			0		da	1	1324	6	2	antiphase_hc_ios.wav	3	6	3	noise_calib_stim_LEFT.wav	1	2	blb_dichoticlistening_ba-da.mp3	ba	da	1	right
6.6.1	win	2023-06-28	09:47:40	0	0	6400e8b1a2889ce16019eb23	2	1	DL_test	15	DL_test	12			0		ka	0	1278	6	2	antiphase_hc_ios.wav	3	6	3	noise_calib_stim_LEFT.wav	1	12	blb_dichoticlistening_da-ta.mp3	da	ta	1	other
6.6.1	win	2023-06-28	09:47:40	0	0	6400e8b1a2889ce16019eb23	2	1	DL_test	15	DL_test	13			0		ka	1	1333	6	2	antiphase_hc_ios.wav	3	6	3	noise_calib_stim_LEFT.wav	1	4	blb_dichoticlistening_ba-ka.mp3	ba	ka	1	right
6.6.1	win	2023-06-28	09:47:40	0	0	6400e8b1a2889ce16019eb23	2	1	DL_test	15	DL_test	14			0		ba	1	1506	6	2	antiphase_hc_ios.wav	3	6	3	noise_calib_stim_LEFT.wav	1	1	blb_dichoticlistening_ba-ba.mp3	ba	ba	0	left
6.6.1	win	2023-06-28	09:47:40	0	0	6400e8b1a2889ce16019eb23	2	1	DL_test	15	DL_test	15			0		da	1	2237	6	2	antiphase_hc_ios.wav	3	6	3	noise_calib_stim_LEFT.wav	1	32	blb_dichoticlistening_ta-da.mp3	ta	da	1	right
6.6.1	win	2023-06-28	09:47:40	0	0	6400e8b1a2889ce16019eb23	2	1	DL_test	15	DL_test	16			0		pa	1	1944	6	2	antiphase_hc_ios.wav	3	6	3	noise_calib_stim_LEFT.wav	1	28	blb_dichoticlistening_pa-ka.mp3	pa	ka	1	left
6.6.1	win	2023-06-28	09:47:40	0	0	6400e8b1a2889ce16019eb23	2	1	DL_test	15	DL_test	17			0		ta	0	1370	6	2	antiphase_hc_ios.wav	3	6	3	noise_calib_stim_LEFT.wav	1	16	blb_dichoticlistening_ga-ka.mp3	ga	ka	1	other
6.6.1	win	2023-06-28	09:47:40	0	0	6400e8b1a2889ce16019eb23	2	1	DL_test	15	DL_test	18			0		da	1	2134	6	2	antiphase_hc_ios.wav	3	6	3	noise_calib_stim_LEFT.wav	1	7	blb_dichoticlistening_da-ba.mp3	da	ba	1	left
6.6.1	win	2023-06-28	09:47:40	0	0	6400e8b1a2889ce16019eb23	2	1	DL_test	15	DL_test	19			0		ba	1	2450	6	2	antiphase_hc_ios.wav	3	6	3	noise_calib_stim_LEFT.wav	1	31	blb_dichoticlistening_ta-ba.mp3	ta	ba	1	right
6.6.1	win	2023-06-28	09:47:40	0	0	6400e8b1a2889ce16019eb23	2	1	DL_test	15	DL_test	20			0		da	1	2998	6	2	antiphase_hc_ios.wav	3	6	3	noise_calib_stim_LEFT.wav	1	20	blb_dichoticlistening_ka-da.mp3	ka	da	1	right
6.6.1	win	2023-06-28	09:47:40	0	0	6400e8b1a2889ce16019eb23	2	1	DL_test	15	DL_test	21			0		da	1	1965	6	2	antiphase_hc_ios.wav	3	6	3	noise_calib_stim_LEFT.wav	1	26	blb_dichoticlistening_pa-da.mp3	pa	da	1	right
6.6.1	win	2023-06-28	09:47:40	0	0	6400e8b1a2889ce16019eb23	2	1	DL_test	15	DL_test	22			0		pa	1	1573	6	2	antiphase_hc_ios.wav	3	6	3	noise_calib_stim_LEFT.wav	1	5	blb_dichoticlistening_ba-pa.mp3	ba	pa	1	right
6.6.1	win	2023-06-28	09:47:40	0	0	6400e8b1a2889ce16019eb23	2	1	DL_test	15	DL_test	23			0		pa	1	821	6	2	antiphase_hc_ios.wav	3	6	3	noise_calib_stim_LEFT.wav	1	23	blb_dichoticlistening_ka-pa.mp3	ka	pa	1	right
6.6.1	win	2023-06-28	09:47:40	0	0	6400e8b1a2889ce16019eb23	2	1	DL_test	15	DL_test	24			0		ga	1	1761	6	2	antiphase_hc_ios.wav	3	6	3	noise_calib_stim_LEFT.wav	1	33	blb_dichoticlistening_ta-ga.mp3	ta	ga	1	right
6.6.1	win	2023-06-28	09:47:40	0	0	6400e8b1a2889ce16019eb23	2	1	DL_test	15	DL_test	25			0		ba	1	1841	6	2	antiphase_hc_ios.wav	3	6	3	noise_calib_stim_LEFT.wav	1	13	blb_dichoticlistening_ga-ba.mp3	ga	ba	1	right
6.6.1	win	2023-06-28	09:47:40	0	0	6400e8b1a2889ce16019eb23	2	1	DL_test	15	DL_test	26			0		pa	1	2079	6	2	antiphase_hc_ios.wav	3	6	3	noise_calib_stim_LEFT.wav	1	27	blb_dichoticlistening_pa-ga.mp3	pa	ga	1	left
6.6.1	win	2023-06-28	09:47:40	0	0	6400e8b1a2889ce16019eb23	2	1	DL_test	15	DL_test	27			0		ka	1	4650	6	2	antiphase_hc_ios.wav	3	6	3	noise_calib_stim_LEFT.wav	1	22	blb_dichoticlistening_ka-ka.mp3	ka	ka	0	left
6.6.1	win	2023-06-28	09:47:40	0	0	6400e8b1a2889ce16019eb23	2	1	DL_test	15	DL_test	28			0		ta	1	1703	6	2	antiphase_hc_ios.wav	3	6	3	noise_calib_stim_LEFT.wav	1	30	blb_dichoticlistening_pa-ta.mp3	pa	ta	1	right
6.6.1	win	2023-06-28	09:47:40	0	0	6400e8b1a2889ce16019eb23	2	1	DL_test	15	DL_test	29			0		pa	1	1585	6	2	antiphase_hc_ios.wav	3	6	3	noise_calib_stim_LEFT.wav	1	11	blb_dichoticlistening_da-pa.mp3	da	pa	1	right
6.6.1	win	2023-06-28	09:47:40	0	0	6400e8b1a2889ce16019eb23	2	1	DL_test	15	DL_test	30			0		ka	0	3025	6	2	antiphase_hc_ios.wav	3	6	3	noise_calib_stim_LEFT.wav	1	18	blb_dichoticlistening_ga-ta.mp3	ga	ta	1	other
6.6.1	win	2023-06-28	09:47:40	0	0	6400e8b1a2889ce16019eb23	2	1	DL_test	15	DL_test	31			0		da	1	1422	6	2	antiphase_hc_ios.wav	3	6	3	noise_calib_stim_LEFT.wav	1	9	blb_dichoticlistening_da-ga.mp3	da	ga	1	left
6.6.1	win	2023-06-28	09:47:40	0	0	6400e8b1a2889ce16019eb23	2	1	DL_test	15	DL_test	32			0		ta	1	2364	6	2	antiphase_hc_ios.wav	3	6	3	noise_calib_stim_LEFT.wav	1	36	blb_dichoticlistening_ta-ta.mp3	ta	ta	0	left
6.6.1	win	2023-06-28	09:47:40	0	0	6400e8b1a2889ce16019eb23	2	1	DL_test	15	DL_test	33			0		pa	0	1524	6	2	antiphase_hc_ios.wav	3	6	3	noise_calib_stim_LEFT.wav	1	10	blb_dichoticlistening_da-ka.mp3	da	ka	1	other
6.6.1	win	2023-06-28	09:47:40	0	0	6400e8b1a2889ce16019eb23	2	1	DL_test	15	DL_test	34			0		da	1	1319	6	2	antiphase_hc_ios.wav	3	6	3	noise_calib_stim_LEFT.wav	1	8	blb_dichoticlistening_da-da.mp3	da	da	0	left
6.6.1	win	2023-06-28	09:47:40	0	0	6400e8b1a2889ce16019eb23	2	1	DL_test	15	DL_test	35			0		pa	1	1286	6	2	antiphase_hc_ios.wav	3	6	3	noise_calib_stim_LEFT.wav	1	35	blb_dichoticlistening_ta-pa.mp3	ta	pa	1	right
6.6.1	win	2023-06-28	09:47:40	0	0	6400e8b1a2889ce16019eb23	2	1	DL_test	15	DL_test	36			0		ga	1	1202	6	2	antiphase_hc_ios.wav	3	6	3	noise_calib_stim_LEFT.wav	1	3	blb_dichoticlistening_ba-ga.mp3	ba	ga	1	right
6.6.1	win	2023-06-28	09:47:40	0	0	6400e8b1a2889ce16019eb23	2	1	DL_test	16	DL_test	1			0		ka	1	1050	6	2	antiphase_hc_ios.wav	3	6	3	noise_calib_stim_LEFT.wav	1	24	blb_dichoticlistening_ka-ta.mp3	ka	ta	1	left
6.6.1	win	2023-06-28	09:47:40	0	0	6400e8b1a2889ce16019eb23	2	1	DL_test	16	DL_test	2			0		da	1	1206	6	2	antiphase_hc_ios.wav	3	6	3	noise_calib_stim_LEFT.wav	1	8	blb_dichoticlistening_da-da.mp3	da	da	0	left
6.6.1	win	2023-06-28	09:47:40	0	0	6400e8b1a2889ce16019eb23	2	1	DL_test	16	DL_test	3			0		ba	1	1717	6	2	antiphase_hc_ios.wav	3	6	3	noise_calib_stim_LEFT.wav	1	25	blb_dichoticlistening_pa-ba.mp3	pa	ba	1	right
6.6.1	win	2023-06-28	09:47:40	0	0	6400e8b1a2889ce16019eb23	2	1	DL_test	16	DL_test	4			0		da	1	1005	6	2	antiphase_hc_ios.wav	3	6	3	noise_calib_stim_LEFT.wav	1	7	blb_dichoticlistening_da-ba.mp3	da	ba	1	left
6.6.1	win	2023-06-28	09:47:40	0	0	6400e8b1a2889ce16019eb23	2	1	DL_test	16	DL_test	5			0		pa	1	1604	6	2	antiphase_hc_ios.wav	3	6	3	noise_calib_stim_LEFT.wav	1	17	blb_dichoticlistening_ga-pa.mp3	ga	pa	1	right
6.6.1	win	2023-06-28	09:47:40	0	0	6400e8b1a2889ce16019eb23	2	1	DL_test	16	DL_test	6			0		ka	1	1139	6	2	antiphase_hc_ios.wav	3	6	3	noise_calib_stim_LEFT.wav	1	16	blb_dichoticlistening_ga-ka.mp3	ga	ka	1	right
6.6.1	win	2023-06-28	09:47:40	0	0	6400e8b1a2889ce16019eb23	2	1	DL_test	16	DL_test	7			0		ga	1	1123	6	2	antiphase_hc_ios.wav	3	6	3	noise_calib_stim_LEFT.wav	1	3	blb_dichoticlistening_ba-ga.mp3	ba	ga	1	right
6.6.1	win	2023-06-28	09:47:40	0	0	6400e8b1a2889ce16019eb23	2	1	DL_test	16	DL_test	8			0		ta	1	2173	6	2	antiphase_hc_ios.wav	3	6	3	noise_calib_stim_LEFT.wav	1	18	blb_dichoticlistening_ga-ta.mp3	ga	ta	1	right
6.6.1	win	2023-06-28	09:47:40	0	0	6400e8b1a2889ce16019eb23	2	1	DL_test	16	DL_test	9			0		ka	0	3570	6	2	antiphase_hc_ios.wav	3	6	3	noise_calib_stim_LEFT.wav	1	31	blb_dichoticlistening_ta-ba.mp3	ta	ba	1	other
6.6.1	win	2023-06-28	09:47:40	0	0	6400e8b1a2889ce16019eb23	2	1	DL_test	16	DL_test	10			0		ga	1	1469	6	2	antiphase_hc_ios.wav	3	6	3	noise_calib_stim_LEFT.wav	1	15	blb_dichoticlistening_ga-ga.mp3	ga	ga	0	left
6.6.1	win	2023-06-28	09:47:40	0	0	6400e8b1a2889ce16019eb23	2	1	DL_test	16	DL_test	11			0		ta	0	1967	6	2	antiphase_hc_ios.wav	3	6	3	noise_calib_stim_LEFT.wav	1	19	blb_dichoticlistening_ka-ba.mp3	ka	ba	1	other
6.6.1	win	2023-06-28	09:47:40	0	0	6400e8b1a2889ce16019eb23	2	1	DL_test	16	DL_test	12			0		pa	1	1301	6	2	antiphase_hc_ios.wav	3	6	3	noise_calib_stim_LEFT.wav	1	5	blb_dichoticlistening_ba-pa.mp3	ba	pa	1	right
6.6.1	win	2023-06-28	09:47:40	0	0	6400e8b1a2889ce16019eb23	2	1	DL_test	16	DL_test	13			0		pa	1	2070	6	2	antiphase_hc_ios.wav	3	6	3	noise_calib_stim_LEFT.wav	1	30	blb_dichoticlistening_pa-ta.mp3	pa	ta	1	left
6.6.1	win	2023-06-28	09:47:40	0	0	6400e8b1a2889ce16019eb23	2	1	DL_test	16	DL_test	14			0		pa	1	1189	6	2	antiphase_hc_ios.wav	3	6	3	noise_calib_stim_LEFT.wav	1	27	blb_dichoticlistening_pa-ga.mp3	pa	ga	1	left
6.6.1	win	2023-06-28	09:47:40	0	0	6400e8b1a2889ce16019eb23	2	1	DL_test	16	DL_test	15			0		ka	1	1644	6	2	antiphase_hc_ios.wav	3	6	3	noise_calib_stim_LEFT.wav	1	34	blb_dichoticlistening_ta-ka.mp3	ta	ka	1	right
6.6.1	win	2023-06-28	09:47:40	0	0	6400e8b1a2889ce16019eb23	2	1	DL_test	16	DL_test	16			0		ka	0	1145	6	2	antiphase_hc_ios.wav	3	6	3	noise_calib_stim_LEFT.wav	1	12	blb_dichoticlistening_da-ta.mp3	da	ta	1	other
6.6.1	win	2023-06-28	09:47:40	0	0	6400e8b1a2889ce16019eb23	2	1	DL_test	16	DL_test	17			0		da	1	1370	6	2	antiphase_hc_ios.wav	3	6	3	noise_calib_stim_LEFT.wav	1	2	blb_dichoticlistening_ba-da.mp3	ba	da	1	right
6.6.1	win	2023-06-28	09:47:40	0	0	6400e8b1a2889ce16019eb23	2	1	DL_test	16	DL_test	18			0		ka	1	2441	6	2	antiphase_hc_ios.wav	3	6	3	noise_calib_stim_LEFT.wav	1	21	blb_dichoticlistening_ka-ga.mp3	ka	ga	1	left
6.6.1	win	2023-06-28	09:47:40	0	0	6400e8b1a2889ce16019eb23	2	1	DL_test	16	DL_test	19			0		pa	1	1302	6	2	antiphase_hc_ios.wav	3	6	3	noise_calib_stim_LEFT.wav	1	29	blb_dichoticlistening_pa-pa.mp3	pa	pa	0	left
6.6.1	win	2023-06-28	09:47:40	0	0	6400e8b1a2889ce16019eb23	2	1	DL_test	16	DL_test	20			0		ga	0	1305	6	2	antiphase_hc_ios.wav	3	6	3	noise_calib_stim_LEFT.wav	1	32	blb_dichoticlistening_ta-da.mp3	ta	da	1	other
6.6.1	win	2023-06-28	09:47:40	0	0	6400e8b1a2889ce16019eb23	2	1	DL_test	16	DL_test	21			0		pa	1	1683	6	2	antiphase_hc_ios.wav	3	6	3	noise_calib_stim_LEFT.wav	1	35	blb_dichoticlistening_ta-pa.mp3	ta	pa	1	right
6.6.1	win	2023-06-28	09:47:40	0	0	6400e8b1a2889ce16019eb23	2	1	DL_test	16	DL_test	22			0		ka	0	1956	6	2	antiphase_hc_ios.wav	3	6	3	noise_calib_stim_LEFT.wav	1	6	blb_dichoticlistening_ba-ta.mp3	ba	ta	1	other
6.6.1	win	2023-06-28	09:47:40	0	0	6400e8b1a2889ce16019eb23	2	1	DL_test	16	DL_test	23			0		ba	1	2230	6	2	antiphase_hc_ios.wav	3	6	3	noise_calib_stim_LEFT.wav	1	1	blb_dichoticlistening_ba-ba.mp3	ba	ba	0	left
6.6.1	win	2023-06-28	09:47:40	0	0	6400e8b1a2889ce16019eb23	2	1	DL_test	16	DL_test	24			0		pa	1	3522	6	2	antiphase_hc_ios.wav	3	6	3	noise_calib_stim_LEFT.wav	1	23	blb_dichoticlistening_ka-pa.mp3	ka	pa	1	right
6.6.1	win	2023-06-28	09:47:40	0	0	6400e8b1a2889ce16019eb23	2	1	DL_test	16	DL_test	25			0		da	1	1493	6	2	antiphase_hc_ios.wav	3	6	3	noise_calib_stim_LEFT.wav	1	26	blb_dichoticlistening_pa-da.mp3	pa	da	1	right
6.6.1	win	2023-06-28	09:47:40	0	0	6400e8b1a2889ce16019eb23	2	1	DL_test	16	DL_test	26			0		ba	1	1656	6	2	antiphase_hc_ios.wav	3	6	3	noise_calib_stim_LEFT.wav	1	13	blb_dichoticlistening_ga-ba.mp3	ga	ba	1	right
6.6.1	win	2023-06-28	09:47:40	0	0	6400e8b1a2889ce16019eb23	2	1	DL_test	16	DL_test	27			0		ka	1	1300	6	2	antiphase_hc_ios.wav	3	6	3	noise_calib_stim_LEFT.wav	1	22	blb_dichoticlistening_ka-ka.mp3	ka	ka	0	left
6.6.1	win	2023-06-28	09:47:40	0	0	6400e8b1a2889ce16019eb23	2	1	DL_test	16	DL_test	28			0		ka	1	3430	6	2	antiphase_hc_ios.wav	3	6	3	noise_calib_stim_LEFT.wav	1	20	blb_dichoticlistening_ka-da.mp3	ka	da	1	left
6.6.1	win	2023-06-28	09:47:40	0	0	6400e8b1a2889ce16019eb23	2	1	DL_test	16	DL_test	29			0		pa	1	2019	6	2	antiphase_hc_ios.wav	3	6	3	noise_calib_stim_LEFT.wav	1	11	blb_dichoticlistening_da-pa.mp3	da	pa	1	right
6.6.1	win	2023-06-28	09:47:40	0	0	6400e8b1a2889ce16019eb23	2	1	DL_test	16	DL_test	30			0		da	1	1496	6	2	antiphase_hc_ios.wav	3	6	3	noise_calib_stim_LEFT.wav	1	14	blb_dichoticlistening_ga-da.mp3	ga	da	1	right
6.6.1	win	2023-06-28	09:47:40	0	0	6400e8b1a2889ce16019eb23	2	1	DL_test	16	DL_test	31			0		ka	0	2148	6	2	antiphase_hc_ios.wav	3	6	3	noise_calib_stim_LEFT.wav	1	36	blb_dichoticlistening_ta-ta.mp3	ta	ta	0	other
6.6.1	win	2023-06-28	09:47:40	0	0	6400e8b1a2889ce16019eb23	2	1	DL_test	16	DL_test	32			0		ka	1	1236	6	2	antiphase_hc_ios.wav	3	6	3	noise_calib_stim_LEFT.wav	1	4	blb_dichoticlistening_ba-ka.mp3	ba	ka	1	right
6.6.1	win	2023-06-28	09:47:40	0	0	6400e8b1a2889ce16019eb23	2	1	DL_test	16	DL_test	33			0		pa	0	1576	6	2	antiphase_hc_ios.wav	3	6	3	noise_calib_stim_LEFT.wav	1	10	blb_dichoticlistening_da-ka.mp3	da	ka	1	other
6.6.1	win	2023-06-28	09:47:40	0	0	6400e8b1a2889ce16019eb23	2	1	DL_test	16	DL_test	34			0		ga	1	4153	6	2	antiphase_hc_ios.wav	3	6	3	noise_calib_stim_LEFT.wav	1	33	blb_dichoticlistening_ta-ga.mp3	ta	ga	1	right
6.6.1	win	2023-06-28	09:47:40	0	0	6400e8b1a2889ce16019eb23	2	1	DL_test	16	DL_test	35			0		da	1	1624	6	2	antiphase_hc_ios.wav	3	6	3	noise_calib_stim_LEFT.wav	1	9	blb_dichoticlistening_da-ga.mp3	da	ga	1	left
6.6.1	win	2023-06-28	09:47:40	0	0	6400e8b1a2889ce16019eb23	2	1	DL_test	16	DL_test	36			0		pa	1	1479	6	2	antiphase_hc_ios.wav	3	6	3	noise_calib_stim_LEFT.wav	1	28	blb_dichoticlistening_pa-ka.mp3	pa	ka	1	left
6.6.1	win	2023-06-28	09:47:40	10:07:11	1163476	6400e8b1a2889ce16019eb23	2	1	practice_z	22	practice_z	1	stimuli_distractor_trianglediamonds.svg	stimuli_distractor_trianglediamonds.svg	15	no	44	0	1256	6	2	antiphase_hc_ios.wav	3	6	3	noise_calib_stim_LEFT.wav	1	28	blb_dichoticlistening_pa-ka.mp3	pa	ka	1	left
6.6.1	win	2023-06-28	09:47:40	10:07:11	1163476	6400e8b1a2889ce16019eb23	2	1	practice_z	22	advance_on_keypress_ZEE	2	stimuli_distractor_trianglediamonds.svg	stimuli_distractor_trianglediamonds.svg	15	no	57	0	5236	6	2	antiphase_hc_ios.wav	3	6	3	noise_calib_stim_LEFT.wav	1	28	blb_dichoticlistening_pa-ka.mp3	pa	ka	1	left
6.6.1	win	2023-06-28	09:47:40	10:07:18	1171308	6400e8b1a2889ce16019eb23	2	1	practice_z	22	practice_z	3	stimuli_distractor_diamondtriangles.svg	stimuli_target_diamondrectangles.svg	8	yes	44	1	938	6	2	antiphase_hc_ios.wav	3	6	3	noise_calib_stim_LEFT.wav	1	28	blb_dichoticlistening_pa-ka.mp3	pa	ka	1	left
6.6.1	win	2023-06-28	09:47:40	10:07:18	1171308	6400e8b1a2889ce16019eb23	2	1	practice_z	22	advance_on_keypress_ZEE	4	stimuli_distractor_diamondtriangles.svg	stimuli_target_diamondrectangles.svg	8	yes	57	0	3587	6	2	antiphase_hc_ios.wav	3	6	3	noise_calib_stim_LEFT.wav	1	28	blb_dichoticlistening_pa-ka.mp3	pa	ka	1	left
6.6.1	win	2023-06-28	09:47:40	10:07:26	1178535	6400e8b1a2889ce16019eb23	2	1	practice_z	22	practice_z	5	stimuli_target_diamondsquares.svg	stimuli_distractor_diamondtriangles.svg	3	yes	0	0	2000	6	2	antiphase_hc_ios.wav	3	6	3	noise_calib_stim_LEFT.wav	1	28	blb_dichoticlistening_pa-ka.mp3	pa	ka	1	left
6.6.1	win	2023-06-28	09:47:40	10:07:26	1178535	6400e8b1a2889ce16019eb23	2	1	practice_z	22	advance_on_keypress_ZEE	6	stimuli_target_diamondsquares.svg	stimuli_distractor_diamondtriangles.svg	3	yes	57	0	1034	6	2	antiphase_hc_ios.wav	3	6	3	noise_calib_stim_LEFT.wav	1	28	blb_dichoticlistening_pa-ka.mp3	pa	ka	1	left
6.6.1	win	2023-06-28	09:47:40	10:07:29	1181746	6400e8b1a2889ce16019eb23	2	1	practice_z	22	practice_z	7	stimuli_distractor_trianglediamonds.svg	stimuli_target_rectanglediamonds.svg	10	yes	44	1	528	6	2	antiphase_hc_ios.wav	3	6	3	noise_calib_stim_LEFT.wav	1	28	blb_dichoticlistening_pa-ka.mp3	pa	ka	1	left
6.6.1	win	2023-06-28	09:47:40	10:07:29	1181746	6400e8b1a2889ce16019eb23	2	1	practice_z	22	advance_on_keypress_ZEE	8	stimuli_distractor_trianglediamonds.svg	stimuli_target_rectanglediamonds.svg	10	yes	57	0	1423	6	2	antiphase_hc_ios.wav	3	6	3	noise_calib_stim_LEFT.wav	1	28	blb_dichoticlistening_pa-ka.mp3	pa	ka	1	left
6.6.1	win	2023-06-28	09:47:40	10:07:33	1185641	6400e8b1a2889ce16019eb23	2	1	practice_z	22	practice_z	9	stimuli_distractor_trianglediamonds.svg	stimuli_target_squarediamonds.svg	11	yes	44	1	821	6	2	antiphase_hc_ios.wav	3	6	3	noise_calib_stim_LEFT.wav	1	28	blb_dichoticlistening_pa-ka.mp3	pa	ka	1	left
6.6.1	win	2023-06-28	09:47:40	10:07:33	1185641	6400e8b1a2889ce16019eb23	2	1	practice_z	22	advance_on_keypress_ZEE	10	stimuli_distractor_trianglediamonds.svg	stimuli_target_squarediamonds.svg	11	yes	57	0	1010	6	2	antiphase_hc_ios.wav	3	6	3	noise_calib_stim_LEFT.wav	1	28	blb_dichoticlistening_pa-ka.mp3	pa	ka	1	left
6.6.1	win	2023-06-28	09:47:40	10:07:37	1189495	6400e8b1a2889ce16019eb23	2	1	practice_z	22	practice_z	11	stimuli_distractor_diamondtriangles.svg	stimuli_distractor_trianglediamonds.svg	14	no	44	0	1208	6	2	antiphase_hc_ios.wav	3	6	3	noise_calib_stim_LEFT.wav	1	28	blb_dichoticlistening_pa-ka.mp3	pa	ka	1	left
6.6.1	win	2023-06-28	09:47:40	10:07:37	1189495	6400e8b1a2889ce16019eb23	2	1	practice_z	22	advance_on_keypress_ZEE	12	stimuli_distractor_diamondtriangles.svg	stimuli_distractor_trianglediamonds.svg	14	no	57	0	913	6	2	antiphase_hc_ios.wav	3	6	3	noise_calib_stim_LEFT.wav	1	28	blb_dichoticlistening_pa-ka.mp3	pa	ka	1	left
6.6.1	win	2023-06-28	09:47:40	10:07:41	1194069	6400e8b1a2889ce16019eb23	2	1	practice_z	22	practice_z	13	stimuli_distractor_trianglediamonds.svg	stimuli_distractor_diamondtriangles.svg	16	no	0	1	2000	6	2	antiphase_hc_ios.wav	3	6	3	noise_calib_stim_LEFT.wav	1	28	blb_dichoticlistening_pa-ka.mp3	pa	ka	1	left
6.6.1	win	2023-06-28	09:47:40	10:07:41	1194069	6400e8b1a2889ce16019eb23	2	1	practice_z	22	advance_on_keypress_ZEE	14	stimuli_distractor_trianglediamonds.svg	stimuli_distractor_diamondtriangles.svg	16	no	57	0	788	6	2	antiphase_hc_ios.wav	3	6	3	noise_calib_stim_LEFT.wav	1	28	blb_dichoticlistening_pa-ka.mp3	pa	ka	1	left
6.6.1	win	2023-06-28	09:47:40	10:07:44	1197408	6400e8b1a2889ce16019eb23	2	1	practice_z	22	practice_z	15	stimuli_target_squarediamonds.svg	stimuli_distractor_diamondtriangles.svg	2	yes	44	1	904	6	2	antiphase_hc_ios.wav	3	6	3	noise_calib_stim_LEFT.wav	1	28	blb_dichoticlistening_pa-ka.mp3	pa	ka	1	left
6.6.1	win	2023-06-28	09:47:40	10:07:44	1197408	6400e8b1a2889ce16019eb23	2	1	practice_z	22	advance_on_keypress_ZEE	16	stimuli_target_squarediamonds.svg	stimuli_distractor_diamondtriangles.svg	2	yes	57	0	1226	6	2	antiphase_hc_ios.wav	3	6	3	noise_calib_stim_LEFT.wav	1	28	blb_dichoticlistening_pa-ka.mp3	pa	ka	1	left
6.6.1	win	2023-06-28	09:47:40	10:07:48	1201051	6400e8b1a2889ce16019eb23	2	1	practice_z	22	practice_z	17	stimuli_target_rectanglediamonds.svg	stimuli_distractor_diamondtriangles.svg	1	yes	44	1	782	6	2	antiphase_hc_ios.wav	3	6	3	noise_calib_stim_LEFT.wav	1	28	blb_dichoticlistening_pa-ka.mp3	pa	ka	1	left
6.6.1	win	2023-06-28	09:47:40	10:07:48	1201051	6400e8b1a2889ce16019eb23	2	1	practice_z	22	advance_on_keypress_ZEE	18	stimuli_target_rectanglediamonds.svg	stimuli_distractor_diamondtriangles.svg	1	yes	57	0	1692	6	2	antiphase_hc_ios.wav	3	6	3	noise_calib_stim_LEFT.wav	1	28	blb_dichoticlistening_pa-ka.mp3	pa	ka	1	left
6.6.1	win	2023-06-28	09:47:40	10:07:52	1205199	6400e8b1a2889ce16019eb23	2	1	practice_z	22	practice_z	19	stimuli_distractor_diamondtriangles.svg	stimuli_target_trianglerectangles.svg	9	yes	44	1	796	6	2	antiphase_hc_ios.wav	3	6	3	noise_calib_stim_LEFT.wav	1	28	blb_dichoticlistening_pa-ka.mp3	pa	ka	1	left
6.6.1	win	2023-06-28	09:47:40	10:07:52	1205199	6400e8b1a2889ce16019eb23	2	1	practice_z	22	advance_on_keypress_ZEE	20	stimuli_distractor_diamondtriangles.svg	stimuli_target_trianglerectangles.svg	9	yes	57	0	742	6	2	antiphase_hc_ios.wav	3	6	3	noise_calib_stim_LEFT.wav	1	28	blb_dichoticlistening_pa-ka.mp3	pa	ka	1	left
6.6.1	win	2023-06-28	09:47:40	10:07:56	1208592	6400e8b1a2889ce16019eb23	2	1	practice_z	22	practice_z	21	stimuli_distractor_diamondtriangles.svg	stimuli_target_rectangletriangles.svg	7	yes	44	1	988	6	2	antiphase_hc_ios.wav	3	6	3	noise_calib_stim_LEFT.wav	1	28	blb_dichoticlistening_pa-ka.mp3	pa	ka	1	left
6.6.1	win	2023-06-28	09:47:40	10:07:56	1208592	6400e8b1a2889ce16019eb23	2	1	practice_z	22	advance_on_keypress_ZEE	22	stimuli_distractor_diamondtriangles.svg	stimuli_target_rectangletriangles.svg	7	yes	57	0	1995	6	2	antiphase_hc_ios.wav	3	6	3	noise_calib_stim_LEFT.wav	1	28	blb_dichoticlistening_pa-ka.mp3	pa	ka	1	left
6.6.1	win	2023-06-28	09:47:40	10:08:00	1213320	6400e8b1a2889ce16019eb23	2	1	practice_z	22	practice_z	23	stimuli_target_diamondsquares.svg	stimuli_distractor_trianglediamonds.svg	6	yes	44	1	1082	6	2	antiphase_hc_ios.wav	3	6	3	noise_calib_stim_LEFT.wav	1	28	blb_dichoticlistening_pa-ka.mp3	pa	ka	1	left
6.6.1	win	2023-06-28	09:47:40	10:08:00	1213320	6400e8b1a2889ce16019eb23	2	1	practice_z	22	advance_on_keypress_ZEE	24	stimuli_target_diamondsquares.svg	stimuli_distractor_trianglediamonds.svg	6	yes	57	0	1226	6	2	antiphase_hc_ios.wav	3	6	3	noise_calib_stim_LEFT.wav	1	28	blb_dichoticlistening_pa-ka.mp3	pa	ka	1	left
6.6.1	win	2023-06-28	09:47:40	10:08:04	1217106	6400e8b1a2889ce16019eb23	2	1	practice_z	22	practice_z	25	stimuli_target_rectanglediamonds.svg	stimuli_distractor_trianglediamonds.svg	4	yes	44	1	903	6	2	antiphase_hc_ios.wav	3	6	3	noise_calib_stim_LEFT.wav	1	28	blb_dichoticlistening_pa-ka.mp3	pa	ka	1	left
6.6.1	win	2023-06-28	09:47:40	10:08:04	1217106	6400e8b1a2889ce16019eb23	2	1	practice_z	22	advance_on_keypress_ZEE	26	stimuli_target_rectanglediamonds.svg	stimuli_distractor_trianglediamonds.svg	4	yes	57	0	804	6	2	antiphase_hc_ios.wav	3	6	3	noise_calib_stim_LEFT.wav	1	28	blb_dichoticlistening_pa-ka.mp3	pa	ka	1	left
6.6.1	win	2023-06-28	09:47:40	10:08:08	1220711	6400e8b1a2889ce16019eb23	2	1	practice_z	22	practice_z	27	stimuli_distractor_trianglediamonds.svg	stimuli_target_diamondrectangles.svg	12	yes	44	1	1157	6	2	antiphase_hc_ios.wav	3	6	3	noise_calib_stim_LEFT.wav	1	28	blb_dichoticlistening_pa-ka.mp3	pa	ka	1	left
6.6.1	win	2023-06-28	09:47:40	10:08:08	1220711	6400e8b1a2889ce16019eb23	2	1	practice_z	22	advance_on_keypress_ZEE	28	stimuli_distractor_trianglediamonds.svg	stimuli_target_diamondrectangles.svg	12	yes	57	0	2018	6	2	antiphase_hc_ios.wav	3	6	3	noise_calib_stim_LEFT.wav	1	28	blb_dichoticlistening_pa-ka.mp3	pa	ka	1	left
6.6.1	win	2023-06-28	09:47:40	10:08:13	1225480	6400e8b1a2889ce16019eb23	2	1	practice_z	22	practice_z	29	stimuli_distractor_diamondtriangles.svg	stimuli_distractor_diamondtriangles.svg	13	no	44	0	1109	6	2	antiphase_hc_ios.wav	3	6	3	noise_calib_stim_LEFT.wav	1	28	blb_dichoticlistening_pa-ka.mp3	pa	ka	1	left
6.6.1	win	2023-06-28	09:47:40	10:08:13	1225480	6400e8b1a2889ce16019eb23	2	1	practice_z	22	advance_on_keypress_ZEE	30	stimuli_distractor_diamondtriangles.svg	stimuli_distractor_diamondtriangles.svg	13	no	57	0	1376	6	2	antiphase_hc_ios.wav	3	6	3	noise_calib_stim_LEFT.wav	1	28	blb_dichoticlistening_pa-ka.mp3	pa	ka	1	left
6.6.1	win	2023-06-28	09:47:40	10:08:16	1229411	6400e8b1a2889ce16019eb23	2	1	practice_z	22	practice_z	31	stimuli_target_squarediamonds.svg	stimuli_distractor_trianglediamonds.svg	5	yes	44	1	907	6	2	antiphase_hc_ios.wav	3	6	3	noise_calib_stim_LEFT.wav	1	28	blb_dichoticlistening_pa-ka.mp3	pa	ka	1	left
6.6.1	win	2023-06-28	09:47:40	10:08:16	1229411	6400e8b1a2889ce16019eb23	2	1	practice_z	22	advance_on_keypress_ZEE	32	stimuli_target_squarediamonds.svg	stimuli_distractor_trianglediamonds.svg	5	yes	57	0	869	6	2	antiphase_hc_ios.wav	3	6	3	noise_calib_stim_LEFT.wav	1	28	blb_dichoticlistening_pa-ka.mp3	pa	ka	1	left
6.6.1	win	2023-06-28	09:47:40	10:08:37	1250051	6400e8b1a2889ce16019eb23	2	1	main_z	24	main_z	1	stimuli_target_trianglerectangles.svg	stimuli_distractor_diamondtriangles.svg	21	yes	0	0	2000	6	2	antiphase_hc_ios.wav	3	6	3	noise_calib_stim_LEFT.wav	1	28	blb_dichoticlistening_pa-ka.mp3	pa	ka	1	left
6.6.1	win	2023-06-28	09:47:40	10:08:37	1250051	6400e8b1a2889ce16019eb23	2	1	main_z	24	advance_on_keypress_ZEE	2	stimuli_target_trianglerectangles.svg	stimuli_distractor_diamondtriangles.svg	21	yes	57	0	761	6	2	antiphase_hc_ios.wav	3	6	3	noise_calib_stim_LEFT.wav	1	28	blb_dichoticlistening_pa-ka.mp3	pa	ka	1	left
6.6.1	win	2023-06-28	09:47:40	10:08:40	1252658	6400e8b1a2889ce16019eb23	2	1	main_z	24	main_z	3	stimuli_target_trianglesquares.svg	stimuli_distractor_diamondtriangles.svg	22	yes	44	1	1206	6	2	antiphase_hc_ios.wav	3	6	3	noise_calib_stim_LEFT.wav	1	28	blb_dichoticlistening_pa-ka.mp3	pa	ka	1	left
6.6.1	win	2023-06-28	09:47:40	10:08:40	1252658	6400e8b1a2889ce16019eb23	2	1	main_z	24	advance_on_keypress_ZEE	4	stimuli_target_trianglesquares.svg	stimuli_distractor_diamondtriangles.svg	22	yes	57	0	855	6	2	antiphase_hc_ios.wav	3	6	3	noise_calib_stim_LEFT.wav	1	28	blb_dichoticlistening_pa-ka.mp3	pa	ka	1	left
6.6.1	win	2023-06-28	09:47:40	10:08:43	1255930	6400e8b1a2889ce16019eb23	2	1	main_z	24	main_z	5	stimuli_target_diamondrectangles.svg	stimuli_distractor_diamondtriangles.svg	23	yes	44	1	1778	6	2	antiphase_hc_ios.wav	3	6	3	noise_calib_stim_LEFT.wav	1	28	blb_dichoticlistening_pa-ka.mp3	pa	ka	1	left
6.6.1	win	2023-06-28	09:47:40	10:08:43	1255930	6400e8b1a2889ce16019eb23	2	1	main_z	24	advance_on_keypress_ZEE	6	stimuli_target_diamondrectangles.svg	stimuli_distractor_diamondtriangles.svg	23	yes	57	0	1538	6	2	antiphase_hc_ios.wav	3	6	3	noise_calib_stim_LEFT.wav	1	28	blb_dichoticlistening_pa-ka.mp3	pa	ka	1	left
6.6.1	win	2023-06-28	09:47:40	10:08:47	1260117	6400e8b1a2889ce16019eb23	2	1	main_z	24	main_z	7	stimuli_distractor_diamondtriangles.svg	stimuli_distractor_diamondtriangles.svg	39	no	0	1	2000	6	2	antiphase_hc_ios.wav	3	6	3	noise_calib_stim_LEFT.wav	1	28	blb_dichoticlistening_pa-ka.mp3	pa	ka	1	left
6.6.1	win	2023-06-28	09:47:40	10:08:47	1260117	6400e8b1a2889ce16019eb23	2	1	main_z	24	advance_on_keypress_ZEE	8	stimuli_distractor_diamondtriangles.svg	stimuli_distractor_diamondtriangles.svg	39	no	57	0	740	6	2	antiphase_hc_ios.wav	3	6	3	noise_calib_stim_LEFT.wav	1	28	blb_dichoticlistening_pa-ka.mp3	pa	ka	1	left
6.6.1	win	2023-06-28	09:47:40	10:08:50	1262609	6400e8b1a2889ce16019eb23	2	1	main_z	24	main_z	9	stimuli_target_diamondrectangles.svg	stimuli_distractor_trianglediamonds.svg	19	yes	44	1	1108	6	2	antiphase_hc_ios.wav	3	6	3	noise_calib_stim_LEFT.wav	1	28	blb_dichoticlistening_pa-ka.mp3	pa	ka	1	left
6.6.1	win	2023-06-28	09:47:40	10:08:50	1262609	6400e8b1a2889ce16019eb23	2	1	main_z	24	advance_on_keypress_ZEE	10	stimuli_target_diamondrectangles.svg	stimuli_distractor_trianglediamonds.svg	19	yes	57	0	1048	6	2	antiphase_hc_ios.wav	3	6	3	noise_calib_stim_LEFT.wav	1	28	blb_dichoticlistening_pa-ka.mp3	pa	ka	1	left
6.6.1	win	2023-06-28	09:47:40	10:08:53	1265475	6400e8b1a2889ce16019eb23	2	1	main_z	24	main_z	11	stimuli_distractor_diamondtriangles.svg	stimuli_target_trianglesquares.svg	30	yes	44	1	1173	6	2	antiphase_hc_ios.wav	3	6	3	noise_calib_stim_LEFT.wav	1	28	blb_dichoticlistening_pa-ka.mp3	pa	ka	1	left
6.6.1	win	2023-06-28	09:47:40	10:08:53	1265475	6400e8b1a2889ce16019eb23	2	1	main_z	24	advance_on_keypress_ZEE	12	stimuli_distractor_diamondtriangles.svg	stimuli_target_trianglesquares.svg	30	yes	57	0	1512	6	2	antiphase_hc_ios.wav	3	6	3	noise_calib_stim_LEFT.wav	1	28	blb_dichoticlistening_pa-ka.mp3	pa	ka	1	left
6.6.1	win	2023-06-28	09:47:40	10:08:56	1268864	6400e8b1a2889ce16019eb23	2	1	main_z	24	main_z	13	stimuli_distractor_diamondtriangles.svg	stimuli_target_trianglerectangles.svg	29	yes	44	1	1230	6	2	antiphase_hc_ios.wav	3	6	3	noise_calib_stim_LEFT.wav	1	28	blb_dichoticlistening_pa-ka.mp3	pa	ka	1	left
6.6.1	win	2023-06-28	09:47:40	10:08:56	1268864	6400e8b1a2889ce16019eb23	2	1	main_z	24	advance_on_keypress_ZEE	14	stimuli_distractor_diamondtriangles.svg	stimuli_target_trianglerectangles.svg	29	yes	57	0	755	6	2	antiphase_hc_ios.wav	3	6	3	noise_calib_stim_LEFT.wav	1	28	blb_dichoticlistening_pa-ka.mp3	pa	ka	1	left
6.6.1	win	2023-06-28	09:47:40	10:08:58	1271321	6400e8b1a2889ce16019eb23	2	1	main_z	24	main_z	15	stimuli_distractor_trianglediamonds.svg	stimuli_target_diamondrectangles.svg	27	yes	44	1	1054	6	2	antiphase_hc_ios.wav	3	6	3	noise_calib_stim_LEFT.wav	1	28	blb_dichoticlistening_pa-ka.mp3	pa	ka	1	left
6.6.1	win	2023-06-28	09:47:40	10:08:58	1271321	6400e8b1a2889ce16019eb23	2	1	main_z	24	advance_on_keypress_ZEE	16	stimuli_distractor_trianglediamonds.svg	stimuli_target_diamondrectangles.svg	27	yes	57	0	916	6	2	antiphase_hc_ios.wav	3	6	3	noise_calib_stim_LEFT.wav	1	28	blb_dichoticlistening_pa-ka.mp3	pa	ka	1	left
6.6.1	win	2023-06-28	09:47:40	10:09:01	1274313	6400e8b1a2889ce16019eb23	2	1	main_z	24	main_z	17	stimuli_target_trianglerectangles.svg	stimuli_distractor_trianglediamonds.svg	17	yes	44	1	1428	6	2	antiphase_hc_ios.wav	3	6	3	noise_calib_stim_LEFT.wav	1	28	blb_dichoticlistening_pa-ka.mp3	pa	ka	1	left
6.6.1	win	2023-06-28	09:47:40	10:09:01	1274313	6400e8b1a2889ce16019eb23	2	1	main_z	24	advance_on_keypress_ZEE	18	stimuli_target_trianglerectangles.svg	stimuli_distractor_trianglediamonds.svg	17	yes	57	0	1530	6	2	antiphase_hc_ios.wav	3	6	3	noise_calib_stim_LEFT.wav	1	28	blb_dichoticlistening_pa-ka.mp3	pa	ka	1	left
6.6.1	win	2023-06-28	09:47:40	10:09:06	1278502	6400e8b1a2889ce16019eb23	2	1	main_z	24	main_z	19	stimuli_distractor_trianglediamonds.svg	stimuli_target_squaretriangles.svg	11	yes	0	0	2000	6	2	antiphase_hc_ios.wav	3	6	3	noise_calib_stim_LEFT.wav	1	28	blb_dichoticlistening_pa-ka.mp3	pa	ka	1	left
6.6.1	win	2023-06-28	09:47:40	10:09:06	1278502	6400e8b1a2889ce16019eb23	2	1	main_z	24	advance_on_keypress_ZEE	20	stimuli_distractor_trianglediamonds.svg	stimuli_target_squaretriangles.svg	11	yes	57	0	772	6	2	antiphase_hc_ios.wav	3	6	3	noise_calib_stim_LEFT.wav	1	28	blb_dichoticlistening_pa-ka.mp3	pa	ka	1	left
6.6.1	win	2023-06-28	09:47:40	10:09:08	1281070	6400e8b1a2889ce16019eb23	2	1	main_z	24	main_z	21	stimuli_distractor_trianglediamonds.svg	stimuli_target_rectanglediamonds.svg	10	yes	44	1	1152	6	2	antiphase_hc_ios.wav	3	6	3	noise_calib_stim_LEFT.wav	1	28	blb_dichoticlistening_pa-ka.mp3	pa	ka	1	left
6.6.1	win	2023-06-28	09:47:40	10:09:08	1281070	6400e8b1a2889ce16019eb23	2	1	main_z	24	advance_on_keypress_ZEE	22	stimuli_distractor_trianglediamonds.svg	stimuli_target_rectanglediamonds.svg	10	yes	57	0	701	6	2	antiphase_hc_ios.wav	3	6	3	noise_calib_stim_LEFT.wav	1	28	blb_dichoticlistening_pa-ka.mp3	pa	ka	1	left
6.6.1	win	2023-06-28	09:47:40	10:09:11	1283653	6400e8b1a2889ce16019eb23	2	1	main_z	24	main_z	23	stimuli_distractor_trianglediamonds.svg	stimuli_target_squarediamonds.svg	12	yes	44	1	1234	6	2	antiphase_hc_ios.wav	3	6	3	noise_calib_stim_LEFT.wav	1	28	blb_dichoticlistening_pa-ka.mp3	pa	ka	1	left
6.6.1	win	2023-06-28	09:47:40	10:09:11	1283653	6400e8b1a2889ce16019eb23	2	1	main_z	24	advance_on_keypress_ZEE	24	stimuli_distractor_trianglediamonds.svg	stimuli_target_squarediamonds.svg	12	yes	57	0	758	6	2	antiphase_hc_ios.wav	3	6	3	noise_calib_stim_LEFT.wav	1	28	blb_dichoticlistening_pa-ka.mp3	pa	ka	1	left
6.6.1	win	2023-06-28	09:47:40	10:09:13	1286438	6400e8b1a2889ce16019eb23	2	1	main_z	24	main_z	25	stimuli_target_diamondsquares.svg	stimuli_distractor_diamondtriangles.svg	24	yes	44	1	1387	6	2	antiphase_hc_ios.wav	3	6	3	noise_calib_stim_LEFT.wav	1	28	blb_dichoticlistening_pa-ka.mp3	pa	ka	1	left
6.6.1	win	2023-06-28	09:47:40	10:09:13	1286438	6400e8b1a2889ce16019eb23	2	1	main_z	24	advance_on_keypress_ZEE	26	stimuli_target_diamondsquares.svg	stimuli_distractor_diamondtriangles.svg	24	yes	57	0	898	6	2	antiphase_hc_ios.wav	3	6	3	noise_calib_stim_LEFT.wav	1	28	blb_dichoticlistening_pa-ka.mp3	pa	ka	1	left
6.6.1	win	2023-06-28	09:47:40	10:09:17	1289986	6400e8b1a2889ce16019eb23	2	1	main_z	24	main_z	27	stimuli_distractor_diamondtriangles.svg	stimuli_distractor_trianglediamonds.svg	37	no	0	1	2000	6	2	antiphase_hc_ios.wav	3	6	3	noise_calib_stim_LEFT.wav	1	28	blb_dichoticlistening_pa-ka.mp3	pa	ka	1	left
6.6.1	win	2023-06-28	09:47:40	10:09:17	1289986	6400e8b1a2889ce16019eb23	2	1	main_z	24	advance_on_keypress_ZEE	28	stimuli_distractor_diamondtriangles.svg	stimuli_distractor_trianglediamonds.svg	37	no	57	0	1579	6	2	antiphase_hc_ios.wav	3	6	3	noise_calib_stim_LEFT.wav	1	28	blb_dichoticlistening_pa-ka.mp3	pa	ka	1	left
6.6.1	win	2023-06-28	09:47:40	10:09:20	1293219	6400e8b1a2889ce16019eb23	2	1	main_z	24	main_z	29	stimuli_target_squaretriangles.svg	stimuli_distractor_trianglediamonds.svg	3	yes	44	1	1000	6	2	antiphase_hc_ios.wav	3	6	3	noise_calib_stim_LEFT.wav	1	28	blb_dichoticlistening_pa-ka.mp3	pa	ka	1	left
6.6.1	win	2023-06-28	09:47:40	10:09:20	1293219	6400e8b1a2889ce16019eb23	2	1	main_z	24	advance_on_keypress_ZEE	30	stimuli_target_squaretriangles.svg	stimuli_distractor_trianglediamonds.svg	3	yes	57	0	801	6	2	antiphase_hc_ios.wav	3	6	3	noise_calib_stim_LEFT.wav	1	28	blb_dichoticlistening_pa-ka.mp3	pa	ka	1	left
6.6.1	win	2023-06-28	09:47:40	10:09:23	1296415	6400e8b1a2889ce16019eb23	2	1	main_z	24	main_z	31	stimuli_distractor_diamondtriangles.svg	stimuli_target_rectanglediamonds.svg	14	yes	44	1	1746	6	2	antiphase_hc_ios.wav	3	6	3	noise_calib_stim_LEFT.wav	1	28	blb_dichoticlistening_pa-ka.mp3	pa	ka	1	left
6.6.1	win	2023-06-28	09:47:40	10:09:23	1296415	6400e8b1a2889ce16019eb23	2	1	main_z	24	advance_on_keypress_ZEE	32	stimuli_distractor_diamondtriangles.svg	stimuli_target_rectanglediamonds.svg	14	yes	57	0	1570	6	2	antiphase_hc_ios.wav	3	6	3	noise_calib_stim_LEFT.wav	1	28	blb_dichoticlistening_pa-ka.mp3	pa	ka	1	left
6.6.1	win	2023-06-28	09:47:40	10:09:27	1299689	6400e8b1a2889ce16019eb23	2	1	main_z	24	main_z	33	stimuli_target_squarediamonds.svg	stimuli_distractor_diamondtriangles.svg	8	yes	44	1	1054	6	2	antiphase_hc_ios.wav	3	6	3	noise_calib_stim_LEFT.wav	1	28	blb_dichoticlistening_pa-ka.mp3	pa	ka	1	left
6.6.1	win	2023-06-28	09:47:40	10:09:27	1299689	6400e8b1a2889ce16019eb23	2	1	main_z	24	advance_on_keypress_ZEE	34	stimuli_target_squarediamonds.svg	stimuli_distractor_diamondtriangles.svg	8	yes	57	0	1410	6	2	antiphase_hc_ios.wav	3	6	3	noise_calib_stim_LEFT.wav	1	28	blb_dichoticlistening_pa-ka.mp3	pa	ka	1	left
6.6.1	win	2023-06-28	09:47:40	10:09:30	1302530	6400e8b1a2889ce16019eb23	2	1	main_z	24	main_z	35	stimuli_distractor_diamondtriangles.svg	stimuli_target_squaretriangles.svg	15	yes	44	1	795	6	2	antiphase_hc_ios.wav	3	6	3	noise_calib_stim_LEFT.wav	1	28	blb_dichoticlistening_pa-ka.mp3	pa	ka	1	left
6.6.1	win	2023-06-28	09:47:40	10:09:30	1302530	6400e8b1a2889ce16019eb23	2	1	main_z	24	advance_on_keypress_ZEE	36	stimuli_distractor_diamondtriangles.svg	stimuli_target_squaretriangles.svg	15	yes	57	0	927	6	2	antiphase_hc_ios.wav	3	6	3	noise_calib_stim_LEFT.wav	1	28	blb_dichoticlistening_pa-ka.mp3	pa	ka	1	left
6.6.1	win	2023-06-28	09:47:40	10:09:33	1306085	6400e8b1a2889ce16019eb23	2	1	main_z	24	main_z	37	stimuli_distractor_trianglediamonds.svg	stimuli_distractor_trianglediamonds.svg	33	no	0	1	2000	6	2	antiphase_hc_ios.wav	3	6	3	noise_calib_stim_LEFT.wav	1	28	blb_dichoticlistening_pa-ka.mp3	pa	ka	1	left
6.6.1	win	2023-06-28	09:47:40	10:09:33	1306085	6400e8b1a2889ce16019eb23	2	1	main_z	24	advance_on_keypress_ZEE	38	stimuli_distractor_trianglediamonds.svg	stimuli_distractor_trianglediamonds.svg	33	no	57	0	1377	6	2	antiphase_hc_ios.wav	3	6	3	noise_calib_stim_LEFT.wav	1	28	blb_dichoticlistening_pa-ka.mp3	pa	ka	1	left
6.6.1	win	2023-06-28	09:47:40	10:09:36	1309099	6400e8b1a2889ce16019eb23	2	1	main_z	24	main_z	39	stimuli_target_rectanglediamonds.svg	stimuli_distractor_trianglediamonds.svg	2	yes	44	1	998	6	2	antiphase_hc_ios.wav	3	6	3	noise_calib_stim_LEFT.wav	1	28	blb_dichoticlistening_pa-ka.mp3	pa	ka	1	left
6.6.1	win	2023-06-28	09:47:40	10:09:36	1309099	6400e8b1a2889ce16019eb23	2	1	main_z	24	advance_on_keypress_ZEE	40	stimuli_target_rectanglediamonds.svg	stimuli_distractor_trianglediamonds.svg	2	yes	57	0	658	6	2	antiphase_hc_ios.wav	3	6	3	noise_calib_stim_LEFT.wav	1	28	blb_dichoticlistening_pa-ka.mp3	pa	ka	1	left
6.6.1	win	2023-06-28	09:47:40	10:09:39	1311813	6400e8b1a2889ce16019eb23	2	1	main_z	24	main_z	41	stimuli_distractor_diamondtriangles.svg	stimuli_target_squarediamonds.svg	16	yes	44	1	1411	6	2	antiphase_hc_ios.wav	3	6	3	noise_calib_stim_LEFT.wav	1	28	blb_dichoticlistening_pa-ka.mp3	pa	ka	1	left
6.6.1	win	2023-06-28	09:47:40	10:09:39	1311813	6400e8b1a2889ce16019eb23	2	1	main_z	24	advance_on_keypress_ZEE	42	stimuli_distractor_diamondtriangles.svg	stimuli_target_squarediamonds.svg	16	yes	57	0	1759	6	2	antiphase_hc_ios.wav	3	6	3	noise_calib_stim_LEFT.wav	1	28	blb_dichoticlistening_pa-ka.mp3	pa	ka	1	left
6.6.1	win	2023-06-28	09:47:40	10:09:43	1316202	6400e8b1a2889ce16019eb23	2	1	main_z	24	main_z	43	stimuli_distractor_diamondtriangles.svg	stimuli_distractor_diamondtriangles.svg	40	no	0	1	2000	6	2	antiphase_hc_ios.wav	3	6	3	noise_calib_stim_LEFT.wav	1	28	blb_dichoticlistening_pa-ka.mp3	pa	ka	1	left
6.6.1	win	2023-06-28	09:47:40	10:09:43	1316202	6400e8b1a2889ce16019eb23	2	1	main_z	24	advance_on_keypress_ZEE	44	stimuli_distractor_diamondtriangles.svg	stimuli_distractor_diamondtriangles.svg	40	no	57	0	813	6	2	antiphase_hc_ios.wav	3	6	3	noise_calib_stim_LEFT.wav	1	28	blb_dichoticlistening_pa-ka.mp3	pa	ka	1	left
6.6.1	win	2023-06-28	09:47:40	10:09:47	1319605	6400e8b1a2889ce16019eb23	2	1	main_z	24	main_z	45	stimuli_distractor_trianglediamonds.svg	stimuli_distractor_trianglediamonds.svg	34	no	44	0	1937	6	2	antiphase_hc_ios.wav	3	6	3	noise_calib_stim_LEFT.wav	1	28	blb_dichoticlistening_pa-ka.mp3	pa	ka	1	left
6.6.1	win	2023-06-28	09:47:40	10:09:47	1319605	6400e8b1a2889ce16019eb23	2	1	main_z	24	advance_on_keypress_ZEE	46	stimuli_distractor_trianglediamonds.svg	stimuli_distractor_trianglediamonds.svg	34	no	57	0	930	6	2	antiphase_hc_ios.wav	3	6	3	noise_calib_stim_LEFT.wav	1	28	blb_dichoticlistening_pa-ka.mp3	pa	ka	1	left
6.6.1	win	2023-06-28	09:47:40	10:09:50	1323186	6400e8b1a2889ce16019eb23	2	1	main_z	24	main_z	47	stimuli_distractor_diamondtriangles.svg	stimuli_distractor_trianglediamonds.svg	38	no	0	1	2000	6	2	antiphase_hc_ios.wav	3	6	3	noise_calib_stim_LEFT.wav	1	28	blb_dichoticlistening_pa-ka.mp3	pa	ka	1	left
6.6.1	win	2023-06-28	09:47:40	10:09:50	1323186	6400e8b1a2889ce16019eb23	2	1	main_z	24	advance_on_keypress_ZEE	48	stimuli_distractor_diamondtriangles.svg	stimuli_distractor_trianglediamonds.svg	38	no	57	0	575	6	2	antiphase_hc_ios.wav	3	6	3	noise_calib_stim_LEFT.wav	1	28	blb_dichoticlistening_pa-ka.mp3	pa	ka	1	left
6.6.1	win	2023-06-28	09:47:40	10:09:53	1326402	6400e8b1a2889ce16019eb23	2	1	main_z	24	main_z	49	stimuli_distractor_diamondtriangles.svg	stimuli_target_diamondsquares.svg	32	yes	0	0	2000	6	2	antiphase_hc_ios.wav	3	6	3	noise_calib_stim_LEFT.wav	1	28	blb_dichoticlistening_pa-ka.mp3	pa	ka	1	left
6.6.1	win	2023-06-28	09:47:40	10:09:53	1326402	6400e8b1a2889ce16019eb23	2	1	main_z	24	advance_on_keypress_ZEE	50	stimuli_distractor_diamondtriangles.svg	stimuli_target_diamondsquares.svg	32	yes	57	0	2810	6	2	antiphase_hc_ios.wav	3	6	3	noise_calib_stim_LEFT.wav	1	28	blb_dichoticlistening_pa-ka.mp3	pa	ka	1	left
6.6.1	win	2023-06-28	09:47:40	10:09:59	1331853	6400e8b1a2889ce16019eb23	2	1	main_z	24	main_z	51	stimuli_distractor_diamondtriangles.svg	stimuli_target_rectangletriangles.svg	13	yes	0	0	2000	6	2	antiphase_hc_ios.wav	3	6	3	noise_calib_stim_LEFT.wav	1	28	blb_dichoticlistening_pa-ka.mp3	pa	ka	1	left
6.6.1	win	2023-06-28	09:47:40	10:09:59	1331853	6400e8b1a2889ce16019eb23	2	1	main_z	24	advance_on_keypress_ZEE	52	stimuli_distractor_diamondtriangles.svg	stimuli_target_rectangletriangles.svg	13	yes	57	0	496	6	2	antiphase_hc_ios.wav	3	6	3	noise_calib_stim_LEFT.wav	1	28	blb_dichoticlistening_pa-ka.mp3	pa	ka	1	left
6.6.1	win	2023-06-28	09:47:40	10:10:01	1334338	6400e8b1a2889ce16019eb23	2	1	main_z	24	main_z	53	stimuli_distractor_trianglediamonds.svg	stimuli_target_diamondsquares.svg	28	yes	44	1	1337	6	2	antiphase_hc_ios.wav	3	6	3	noise_calib_stim_LEFT.wav	1	28	blb_dichoticlistening_pa-ka.mp3	pa	ka	1	left
6.6.1	win	2023-06-28	09:47:40	10:10:01	1334338	6400e8b1a2889ce16019eb23	2	1	main_z	24	advance_on_keypress_ZEE	54	stimuli_distractor_trianglediamonds.svg	stimuli_target_diamondsquares.svg	28	yes	57	0	1174	6	2	antiphase_hc_ios.wav	3	6	3	noise_calib_stim_LEFT.wav	1	28	blb_dichoticlistening_pa-ka.mp3	pa	ka	1	left
6.6.1	win	2023-06-28	09:47:40	10:10:04	1336962	6400e8b1a2889ce16019eb23	2	1	main_z	24	main_z	55	stimuli_target_squarediamonds.svg	stimuli_distractor_trianglediamonds.svg	4	yes	44	1	810	6	2	antiphase_hc_ios.wav	3	6	3	noise_calib_stim_LEFT.wav	1	28	blb_dichoticlistening_pa-ka.mp3	pa	ka	1	left
6.6.1	win	2023-06-28	09:47:40	10:10:04	1336962	6400e8b1a2889ce16019eb23	2	1	main_z	24	advance_on_keypress_ZEE	56	stimuli_target_squarediamonds.svg	stimuli_distractor_trianglediamonds.svg	4	yes	57	0	970	6	2	antiphase_hc_ios.wav	3	6	3	noise_calib_stim_LEFT.wav	1	28	blb_dichoticlistening_pa-ka.mp3	pa	ka	1	left
6.6.1	win	2023-06-28	09:47:40	10:10:07	1339603	6400e8b1a2889ce16019eb23	2	1	main_z	24	main_z	57	stimuli_distractor_diamondtriangles.svg	stimuli_target_diamondrectangles.svg	31	yes	44	1	1033	6	2	antiphase_hc_ios.wav	3	6	3	noise_calib_stim_LEFT.wav	1	28	blb_dichoticlistening_pa-ka.mp3	pa	ka	1	left
6.6.1	win	2023-06-28	09:47:40	10:10:07	1339603	6400e8b1a2889ce16019eb23	2	1	main_z	24	advance_on_keypress_ZEE	58	stimuli_distractor_diamondtriangles.svg	stimuli_target_diamondrectangles.svg	31	yes	57	0	1047	6	2	antiphase_hc_ios.wav	3	6	3	noise_calib_stim_LEFT.wav	1	28	blb_dichoticlistening_pa-ka.mp3	pa	ka	1	left
6.6.1	win	2023-06-28	09:47:40	10:10:09	1342063	6400e8b1a2889ce16019eb23	2	1	main_z	24	main_z	59	stimuli_target_diamondsquares.svg	stimuli_distractor_trianglediamonds.svg	20	yes	44	1	762	6	2	antiphase_hc_ios.wav	3	6	3	noise_calib_stim_LEFT.wav	1	28	blb_dichoticlistening_pa-ka.mp3	pa	ka	1	left
6.6.1	win	2023-06-28	09:47:40	10:10:09	1342063	6400e8b1a2889ce16019eb23	2	1	main_z	24	advance_on_keypress_ZEE	60	stimuli_target_diamondsquares.svg	stimuli_distractor_trianglediamonds.svg	20	yes	57	0	740	6	2	antiphase_hc_ios.wav	3	6	3	noise_calib_stim_LEFT.wav	1	28	blb_dichoticlistening_pa-ka.mp3	pa	ka	1	left
6.6.1	win	2023-06-28	09:47:40	10:10:11	1344380	6400e8b1a2889ce16019eb23	2	1	main_z	24	main_z	61	stimuli_distractor_trianglediamonds.svg	stimuli_target_trianglesquares.svg	26	yes	44	1	945	6	2	antiphase_hc_ios.wav	3	6	3	noise_calib_stim_LEFT.wav	1	28	blb_dichoticlistening_pa-ka.mp3	pa	ka	1	left
6.6.1	win	2023-06-28	09:47:40	10:10:11	1344380	6400e8b1a2889ce16019eb23	2	1	main_z	24	advance_on_keypress_ZEE	62	stimuli_distractor_trianglediamonds.svg	stimuli_target_trianglesquares.svg	26	yes	57	0	678	6	2	antiphase_hc_ios.wav	3	6	3	noise_calib_stim_LEFT.wav	1	28	blb_dichoticlistening_pa-ka.mp3	pa	ka	1	left
6.6.1	win	2023-06-28	09:47:40	10:10:15	1347702	6400e8b1a2889ce16019eb23	2	1	main_z	24	main_z	63	stimuli_distractor_trianglediamonds.svg	stimuli_distractor_diamondtriangles.svg	35	no	0	1	2000	6	2	antiphase_hc_ios.wav	3	6	3	noise_calib_stim_LEFT.wav	1	28	blb_dichoticlistening_pa-ka.mp3	pa	ka	1	left
6.6.1	win	2023-06-28	09:47:40	10:10:15	1347702	6400e8b1a2889ce16019eb23	2	1	main_z	24	advance_on_keypress_ZEE	64	stimuli_distractor_trianglediamonds.svg	stimuli_distractor_diamondtriangles.svg	35	no	57	0	1439	6	2	antiphase_hc_ios.wav	3	6	3	noise_calib_stim_LEFT.wav	1	28	blb_dichoticlistening_pa-ka.mp3	pa	ka	1	left
6.6.1	win	2023-06-28	09:47:40	10:10:18	1350594	6400e8b1a2889ce16019eb23	2	1	main_z	24	main_z	65	stimuli_distractor_trianglediamonds.svg	stimuli_target_trianglerectangles.svg	25	yes	44	1	808	6	2	antiphase_hc_ios.wav	3	6	3	noise_calib_stim_LEFT.wav	1	28	blb_dichoticlistening_pa-ka.mp3	pa	ka	1	left
6.6.1	win	2023-06-28	09:47:40	10:10:18	1350594	6400e8b1a2889ce16019eb23	2	1	main_z	24	advance_on_keypress_ZEE	66	stimuli_distractor_trianglediamonds.svg	stimuli_target_trianglerectangles.svg	25	yes	57	0	1661	6	2	antiphase_hc_ios.wav	3	6	3	noise_calib_stim_LEFT.wav	1	28	blb_dichoticlistening_pa-ka.mp3	pa	ka	1	left
6.6.1	win	2023-06-28	09:47:40	10:10:22	1354886	6400e8b1a2889ce16019eb23	2	1	main_z	24	main_z	67	stimuli_distractor_trianglediamonds.svg	stimuli_distractor_diamondtriangles.svg	36	no	0	1	2000	6	2	antiphase_hc_ios.wav	3	6	3	noise_calib_stim_LEFT.wav	1	28	blb_dichoticlistening_pa-ka.mp3	pa	ka	1	left
6.6.1	win	2023-06-28	09:47:40	10:10:22	1354886	6400e8b1a2889ce16019eb23	2	1	main_z	24	advance_on_keypress_ZEE	68	stimuli_distractor_trianglediamonds.svg	stimuli_distractor_diamondtriangles.svg	36	no	57	0	1676	6	2	antiphase_hc_ios.wav	3	6	3	noise_calib_stim_LEFT.wav	1	28	blb_dichoticlistening_pa-ka.mp3	pa	ka	1	left
6.6.1	win	2023-06-28	09:47:40	10:10:25	1358089	6400e8b1a2889ce16019eb23	2	1	main_z	24	main_z	69	stimuli_target_trianglesquares.svg	stimuli_distractor_trianglediamonds.svg	18	yes	44	1	886	6	2	antiphase_hc_ios.wav	3	6	3	noise_calib_stim_LEFT.wav	1	28	blb_dichoticlistening_pa-ka.mp3	pa	ka	1	left
6.6.1	win	2023-06-28	09:47:40	10:10:25	1358089	6400e8b1a2889ce16019eb23	2	1	main_z	24	advance_on_keypress_ZEE	70	stimuli_target_trianglesquares.svg	stimuli_distractor_trianglediamonds.svg	18	yes	57	0	598	6	2	antiphase_hc_ios.wav	3	6	3	noise_calib_stim_LEFT.wav	1	28	blb_dichoticlistening_pa-ka.mp3	pa	ka	1	left
6.6.1	win	2023-06-28	09:47:40	10:10:28	1360651	6400e8b1a2889ce16019eb23	2	1	main_z	24	main_z	71	stimuli_target_squaretriangles.svg	stimuli_distractor_diamondtriangles.svg	7	yes	44	1	1315	6	2	antiphase_hc_ios.wav	3	6	3	noise_calib_stim_LEFT.wav	1	28	blb_dichoticlistening_pa-ka.mp3	pa	ka	1	left
6.6.1	win	2023-06-28	09:47:40	10:10:28	1360651	6400e8b1a2889ce16019eb23	2	1	main_z	24	advance_on_keypress_ZEE	72	stimuli_target_squaretriangles.svg	stimuli_distractor_diamondtriangles.svg	7	yes	57	0	762	6	2	antiphase_hc_ios.wav	3	6	3	noise_calib_stim_LEFT.wav	1	28	blb_dichoticlistening_pa-ka.mp3	pa	ka	1	left
6.6.1	win	2023-06-28	09:47:40	10:10:30	1363204	6400e8b1a2889ce16019eb23	2	1	main_z	24	main_z	73	stimuli_target_rectangletriangles.svg	stimuli_distractor_diamondtriangles.svg	5	yes	44	1	1135	6	2	antiphase_hc_ios.wav	3	6	3	noise_calib_stim_LEFT.wav	1	28	blb_dichoticlistening_pa-ka.mp3	pa	ka	1	left
6.6.1	win	2023-06-28	09:47:40	10:10:30	1363204	6400e8b1a2889ce16019eb23	2	1	main_z	24	advance_on_keypress_ZEE	74	stimuli_target_rectangletriangles.svg	stimuli_distractor_diamondtriangles.svg	5	yes	57	0	500	6	2	antiphase_hc_ios.wav	3	6	3	noise_calib_stim_LEFT.wav	1	28	blb_dichoticlistening_pa-ka.mp3	pa	ka	1	left
6.6.1	win	2023-06-28	09:47:40	10:10:32	1365149	6400e8b1a2889ce16019eb23	2	1	main_z	24	main_z	75	stimuli_distractor_trianglediamonds.svg	stimuli_target_rectangletriangles.svg	9	yes	44	1	796	6	2	antiphase_hc_ios.wav	3	6	3	noise_calib_stim_LEFT.wav	1	28	blb_dichoticlistening_pa-ka.mp3	pa	ka	1	left
6.6.1	win	2023-06-28	09:47:40	10:10:32	1365149	6400e8b1a2889ce16019eb23	2	1	main_z	24	advance_on_keypress_ZEE	76	stimuli_distractor_trianglediamonds.svg	stimuli_target_rectangletriangles.svg	9	yes	57	0	724	6	2	antiphase_hc_ios.wav	3	6	3	noise_calib_stim_LEFT.wav	1	28	blb_dichoticlistening_pa-ka.mp3	pa	ka	1	left
6.6.1	win	2023-06-28	09:47:40	10:10:34	1367392	6400e8b1a2889ce16019eb23	2	1	main_z	24	main_z	77	stimuli_target_rectanglediamonds.svg	stimuli_distractor_diamondtriangles.svg	6	yes	44	1	873	6	2	antiphase_hc_ios.wav	3	6	3	noise_calib_stim_LEFT.wav	1	28	blb_dichoticlistening_pa-ka.mp3	pa	ka	1	left
6.6.1	win	2023-06-28	09:47:40	10:10:34	1367392	6400e8b1a2889ce16019eb23	2	1	main_z	24	advance_on_keypress_ZEE	78	stimuli_target_rectanglediamonds.svg	stimuli_distractor_diamondtriangles.svg	6	yes	57	0	568	6	2	antiphase_hc_ios.wav	3	6	3	noise_calib_stim_LEFT.wav	1	28	blb_dichoticlistening_pa-ka.mp3	pa	ka	1	left
6.6.1	win	2023-06-28	09:47:40	10:10:36	1369413	6400e8b1a2889ce16019eb23	2	1	main_z	24	main_z	79	stimuli_target_rectangletriangles.svg	stimuli_distractor_trianglediamonds.svg	1	yes	44	1	811	6	2	antiphase_hc_ios.wav	3	6	3	noise_calib_stim_LEFT.wav	1	28	blb_dichoticlistening_pa-ka.mp3	pa	ka	1	left
6.6.1	win	2023-06-28	09:47:40	10:10:36	1369413	6400e8b1a2889ce16019eb23	2	1	main_z	24	advance_on_keypress_ZEE	80	stimuli_target_rectangletriangles.svg	stimuli_distractor_trianglediamonds.svg	1	yes	57	0	524	6	2	antiphase_hc_ios.wav	3	6	3	noise_calib_stim_LEFT.wav	1	28	blb_dichoticlistening_pa-ka.mp3	pa	ka	1	left
6.6.1	win	2023-06-28	09:47:40	10:10:40	1372570	6400e8b1a2889ce16019eb23	2	1	main_z	24	main_z	81	stimuli_target_diamondsquares.svg	stimuli_distractor_trianglediamonds.svg	20	yes	0	0	2000	6	2	antiphase_hc_ios.wav	3	6	3	noise_calib_stim_LEFT.wav	1	28	blb_dichoticlistening_pa-ka.mp3	pa	ka	1	left
6.6.1	win	2023-06-28	09:47:40	10:10:40	1372570	6400e8b1a2889ce16019eb23	2	1	main_z	24	advance_on_keypress_ZEE	82	stimuli_target_diamondsquares.svg	stimuli_distractor_trianglediamonds.svg	20	yes	57	0	531	6	2	antiphase_hc_ios.wav	3	6	3	noise_calib_stim_LEFT.wav	1	28	blb_dichoticlistening_pa-ka.mp3	pa	ka	1	left
6.6.1	win	2023-06-28	09:47:40	10:10:43	1375752	6400e8b1a2889ce16019eb23	2	1	main_z	24	main_z	83	stimuli_distractor_diamondtriangles.svg	stimuli_distractor_diamondtriangles.svg	39	no	0	1	2000	6	2	antiphase_hc_ios.wav	3	6	3	noise_calib_stim_LEFT.wav	1	28	blb_dichoticlistening_pa-ka.mp3	pa	ka	1	left
6.6.1	win	2023-06-28	09:47:40	10:10:43	1375752	6400e8b1a2889ce16019eb23	2	1	main_z	24	advance_on_keypress_ZEE	84	stimuli_distractor_diamondtriangles.svg	stimuli_distractor_diamondtriangles.svg	39	no	57	0	1325	6	2	antiphase_hc_ios.wav	3	6	3	noise_calib_stim_LEFT.wav	1	28	blb_dichoticlistening_pa-ka.mp3	pa	ka	1	left
6.6.1	win	2023-06-28	09:47:40	10:10:47	1379720	6400e8b1a2889ce16019eb23	2	1	main_z	24	main_z	85	stimuli_target_diamondrectangles.svg	stimuli_distractor_diamondtriangles.svg	23	yes	0	0	2000	6	2	antiphase_hc_ios.wav	3	6	3	noise_calib_stim_LEFT.wav	1	28	blb_dichoticlistening_pa-ka.mp3	pa	ka	1	left
6.6.1	win	2023-06-28	09:47:40	10:10:47	1379720	6400e8b1a2889ce16019eb23	2	1	main_z	24	advance_on_keypress_ZEE	86	stimuli_target_diamondrectangles.svg	stimuli_distractor_diamondtriangles.svg	23	yes	57	0	948	6	2	antiphase_hc_ios.wav	3	6	3	noise_calib_stim_LEFT.wav	1	28	blb_dichoticlistening_pa-ka.mp3	pa	ka	1	left
6.6.1	win	2023-06-28	09:47:40	10:10:50	1383320	6400e8b1a2889ce16019eb23	2	1	main_z	24	main_z	87	stimuli_target_diamondrectangles.svg	stimuli_distractor_trianglediamonds.svg	19	yes	0	0	2000	6	2	antiphase_hc_ios.wav	3	6	3	noise_calib_stim_LEFT.wav	1	28	blb_dichoticlistening_pa-ka.mp3	pa	ka	1	left
6.6.1	win	2023-06-28	09:47:40	10:10:50	1383320	6400e8b1a2889ce16019eb23	2	1	main_z	24	advance_on_keypress_ZEE	88	stimuli_target_diamondrectangles.svg	stimuli_distractor_trianglediamonds.svg	19	yes	57	0	692	6	2	antiphase_hc_ios.wav	3	6	3	noise_calib_stim_LEFT.wav	1	28	blb_dichoticlistening_pa-ka.mp3	pa	ka	1	left
6.6.1	win	2023-06-28	09:47:40	10:10:54	1386653	6400e8b1a2889ce16019eb23	2	1	main_z	24	main_z	89	stimuli_distractor_trianglediamonds.svg	stimuli_target_squarediamonds.svg	12	yes	0	0	2000	6	2	antiphase_hc_ios.wav	3	6	3	noise_calib_stim_LEFT.wav	1	28	blb_dichoticlistening_pa-ka.mp3	pa	ka	1	left
6.6.1	win	2023-06-28	09:47:40	10:10:54	1386653	6400e8b1a2889ce16019eb23	2	1	main_z	24	advance_on_keypress_ZEE	90	stimuli_distractor_trianglediamonds.svg	stimuli_target_squarediamonds.svg	12	yes	57	0	1094	6	2	antiphase_hc_ios.wav	3	6	3	noise_calib_stim_LEFT.wav	1	28	blb_dichoticlistening_pa-ka.mp3	pa	ka	1	left
6.6.1	win	2023-06-28	09:47:40	10:10:57	1389626	6400e8b1a2889ce16019eb23	2	1	main_z	24	main_z	91	stimuli_target_squaretriangles.svg	stimuli_distractor_diamondtriangles.svg	7	yes	44	1	1223	6	2	antiphase_hc_ios.wav	3	6	3	noise_calib_stim_LEFT.wav	1	28	blb_dichoticlistening_pa-ka.mp3	pa	ka	1	left
6.6.1	win	2023-06-28	09:47:40	10:10:57	1389626	6400e8b1a2889ce16019eb23	2	1	main_z	24	advance_on_keypress_ZEE	92	stimuli_target_squaretriangles.svg	stimuli_distractor_diamondtriangles.svg	7	yes	57	0	385	6	2	antiphase_hc_ios.wav	3	6	3	noise_calib_stim_LEFT.wav	1	28	blb_dichoticlistening_pa-ka.mp3	pa	ka	1	left
6.6.1	win	2023-06-28	09:47:40	10:10:58	1391280	6400e8b1a2889ce16019eb23	2	1	main_z	24	main_z	93	stimuli_target_squarediamonds.svg	stimuli_distractor_trianglediamonds.svg	4	yes	44	1	626	6	2	antiphase_hc_ios.wav	3	6	3	noise_calib_stim_LEFT.wav	1	28	blb_dichoticlistening_pa-ka.mp3	pa	ka	1	left
6.6.1	win	2023-06-28	09:47:40	10:10:58	1391280	6400e8b1a2889ce16019eb23	2	1	main_z	24	advance_on_keypress_ZEE	94	stimuli_target_squarediamonds.svg	stimuli_distractor_trianglediamonds.svg	4	yes	57	0	678	6	2	antiphase_hc_ios.wav	3	6	3	noise_calib_stim_LEFT.wav	1	28	blb_dichoticlistening_pa-ka.mp3	pa	ka	1	left
6.6.1	win	2023-06-28	09:47:40	10:11:01	1393538	6400e8b1a2889ce16019eb23	2	1	main_z	24	main_z	95	stimuli_target_rectanglediamonds.svg	stimuli_distractor_diamondtriangles.svg	6	yes	44	1	952	6	2	antiphase_hc_ios.wav	3	6	3	noise_calib_stim_LEFT.wav	1	28	blb_dichoticlistening_pa-ka.mp3	pa	ka	1	left
6.6.1	win	2023-06-28	09:47:40	10:11:01	1393538	6400e8b1a2889ce16019eb23	2	1	main_z	24	advance_on_keypress_ZEE	96	stimuli_target_rectanglediamonds.svg	stimuli_distractor_diamondtriangles.svg	6	yes	57	0	348	6	2	antiphase_hc_ios.wav	3	6	3	noise_calib_stim_LEFT.wav	1	28	blb_dichoticlistening_pa-ka.mp3	pa	ka	1	left
6.6.1	win	2023-06-28	09:47:40	10:11:02	1395120	6400e8b1a2889ce16019eb23	2	1	main_z	24	main_z	97	stimuli_distractor_diamondtriangles.svg	stimuli_target_squaretriangles.svg	15	yes	44	1	584	6	2	antiphase_hc_ios.wav	3	6	3	noise_calib_stim_LEFT.wav	1	28	blb_dichoticlistening_pa-ka.mp3	pa	ka	1	left
6.6.1	win	2023-06-28	09:47:40	10:11:02	1395120	6400e8b1a2889ce16019eb23	2	1	main_z	24	advance_on_keypress_ZEE	98	stimuli_distractor_diamondtriangles.svg	stimuli_target_squaretriangles.svg	15	yes	57	0	579	6	2	antiphase_hc_ios.wav	3	6	3	noise_calib_stim_LEFT.wav	1	28	blb_dichoticlistening_pa-ka.mp3	pa	ka	1	left
6.6.1	win	2023-06-28	09:47:40	10:11:04	1396683	6400e8b1a2889ce16019eb23	2	1	main_z	24	main_z	99	stimuli_distractor_trianglediamonds.svg	stimuli_target_rectangletriangles.svg	9	yes	44	1	329	6	2	antiphase_hc_ios.wav	3	6	3	noise_calib_stim_LEFT.wav	1	28	blb_dichoticlistening_pa-ka.mp3	pa	ka	1	left
6.6.1	win	2023-06-28	09:47:40	10:11:04	1396683	6400e8b1a2889ce16019eb23	2	1	main_z	24	advance_on_keypress_ZEE	100	stimuli_distractor_trianglediamonds.svg	stimuli_target_rectangletriangles.svg	9	yes	57	0	725	6	2	antiphase_hc_ios.wav	3	6	3	noise_calib_stim_LEFT.wav	1	28	blb_dichoticlistening_pa-ka.mp3	pa	ka	1	left
6.6.1	win	2023-06-28	09:47:40	10:11:07	1400053	6400e8b1a2889ce16019eb23	2	1	main_z	24	main_z	101	stimuli_distractor_diamondtriangles.svg	stimuli_target_diamondsquares.svg	32	yes	0	0	2000	6	2	antiphase_hc_ios.wav	3	6	3	noise_calib_stim_LEFT.wav	1	28	blb_dichoticlistening_pa-ka.mp3	pa	ka	1	left
6.6.1	win	2023-06-28	09:47:40	10:11:07	1400053	6400e8b1a2889ce16019eb23	2	1	main_z	24	advance_on_keypress_ZEE	102	stimuli_distractor_diamondtriangles.svg	stimuli_target_diamondsquares.svg	32	yes	57	0	708	6	2	antiphase_hc_ios.wav	3	6	3	noise_calib_stim_LEFT.wav	1	28	blb_dichoticlistening_pa-ka.mp3	pa	ka	1	left
6.6.1	win	2023-06-28	09:47:40	10:11:10	1402621	6400e8b1a2889ce16019eb23	2	1	main_z	24	main_z	103	stimuli_distractor_diamondtriangles.svg	stimuli_target_trianglesquares.svg	30	yes	44	1	1219	6	2	antiphase_hc_ios.wav	3	6	3	noise_calib_stim_LEFT.wav	1	28	blb_dichoticlistening_pa-ka.mp3	pa	ka	1	left
6.6.1	win	2023-06-28	09:47:40	10:11:10	1402621	6400e8b1a2889ce16019eb23	2	1	main_z	24	advance_on_keypress_ZEE	104	stimuli_distractor_diamondtriangles.svg	stimuli_target_trianglesquares.svg	30	yes	57	0	800	6	2	antiphase_hc_ios.wav	3	6	3	noise_calib_stim_LEFT.wav	1	28	blb_dichoticlistening_pa-ka.mp3	pa	ka	1	left
6.6.1	win	2023-06-28	09:47:40	10:11:12	1405020	6400e8b1a2889ce16019eb23	2	1	main_z	24	main_z	105	stimuli_target_trianglesquares.svg	stimuli_distractor_trianglediamonds.svg	18	yes	44	1	951	6	2	antiphase_hc_ios.wav	3	6	3	noise_calib_stim_LEFT.wav	1	28	blb_dichoticlistening_pa-ka.mp3	pa	ka	1	left
6.6.1	win	2023-06-28	09:47:40	10:11:12	1405020	6400e8b1a2889ce16019eb23	2	1	main_z	24	advance_on_keypress_ZEE	106	stimuli_target_trianglesquares.svg	stimuli_distractor_trianglediamonds.svg	18	yes	57	0	777	6	2	antiphase_hc_ios.wav	3	6	3	noise_calib_stim_LEFT.wav	1	28	blb_dichoticlistening_pa-ka.mp3	pa	ka	1	left
6.6.1	win	2023-06-28	09:47:40	10:11:15	1408436	6400e8b1a2889ce16019eb23	2	1	main_z	24	main_z	107	stimuli_distractor_diamondtriangles.svg	stimuli_distractor_diamondtriangles.svg	40	no	0	1	2000	6	2	antiphase_hc_ios.wav	3	6	3	noise_calib_stim_LEFT.wav	1	28	blb_dichoticlistening_pa-ka.mp3	pa	ka	1	left
6.6.1	win	2023-06-28	09:47:40	10:11:15	1408436	6400e8b1a2889ce16019eb23	2	1	main_z	24	advance_on_keypress_ZEE	108	stimuli_distractor_diamondtriangles.svg	stimuli_distractor_diamondtriangles.svg	40	no	57	0	495	6	2	antiphase_hc_ios.wav	3	6	3	noise_calib_stim_LEFT.wav	1	28	blb_dichoticlistening_pa-ka.mp3	pa	ka	1	left
6.6.1	win	2023-06-28	09:47:40	10:11:19	1411569	6400e8b1a2889ce16019eb23	2	1	main_z	24	main_z	109	stimuli_distractor_trianglediamonds.svg	stimuli_distractor_trianglediamonds.svg	33	no	0	1	2000	6	2	antiphase_hc_ios.wav	3	6	3	noise_calib_stim_LEFT.wav	1	28	blb_dichoticlistening_pa-ka.mp3	pa	ka	1	left
6.6.1	win	2023-06-28	09:47:40	10:11:19	1411569	6400e8b1a2889ce16019eb23	2	1	main_z	24	advance_on_keypress_ZEE	110	stimuli_distractor_trianglediamonds.svg	stimuli_distractor_trianglediamonds.svg	33	no	57	0	2362	6	2	antiphase_hc_ios.wav	3	6	3	noise_calib_stim_LEFT.wav	1	28	blb_dichoticlistening_pa-ka.mp3	pa	ka	1	left
6.6.1	win	2023-06-28	09:47:40	10:11:22	1415176	6400e8b1a2889ce16019eb23	2	1	main_z	24	main_z	111	stimuli_target_rectanglediamonds.svg	stimuli_distractor_trianglediamonds.svg	2	yes	44	1	590	6	2	antiphase_hc_ios.wav	3	6	3	noise_calib_stim_LEFT.wav	1	28	blb_dichoticlistening_pa-ka.mp3	pa	ka	1	left
6.6.1	win	2023-06-28	09:47:40	10:11:22	1415176	6400e8b1a2889ce16019eb23	2	1	main_z	24	advance_on_keypress_ZEE	112	stimuli_target_rectanglediamonds.svg	stimuli_distractor_trianglediamonds.svg	2	yes	57	0	489	6	2	antiphase_hc_ios.wav	3	6	3	noise_calib_stim_LEFT.wav	1	28	blb_dichoticlistening_pa-ka.mp3	pa	ka	1	left
6.6.1	win	2023-06-28	09:47:40	10:11:24	1417158	6400e8b1a2889ce16019eb23	2	1	main_z	24	main_z	113	stimuli_distractor_trianglediamonds.svg	stimuli_target_trianglerectangles.svg	25	yes	44	1	855	6	2	antiphase_hc_ios.wav	3	6	3	noise_calib_stim_LEFT.wav	1	28	blb_dichoticlistening_pa-ka.mp3	pa	ka	1	left
6.6.1	win	2023-06-28	09:47:40	10:11:24	1417158	6400e8b1a2889ce16019eb23	2	1	main_z	24	advance_on_keypress_ZEE	114	stimuli_distractor_trianglediamonds.svg	stimuli_target_trianglerectangles.svg	25	yes	57	0	372	6	2	antiphase_hc_ios.wav	3	6	3	noise_calib_stim_LEFT.wav	1	28	blb_dichoticlistening_pa-ka.mp3	pa	ka	1	left
6.6.1	win	2023-06-28	09:47:40	10:11:27	1419934	6400e8b1a2889ce16019eb23	2	1	main_z	24	main_z	115	stimuli_distractor_diamondtriangles.svg	stimuli_target_squarediamonds.svg	16	yes	44	1	1764	6	2	antiphase_hc_ios.wav	3	6	3	noise_calib_stim_LEFT.wav	1	28	blb_dichoticlistening_pa-ka.mp3	pa	ka	1	left
6.6.1	win	2023-06-28	09:47:40	10:11:27	1419934	6400e8b1a2889ce16019eb23	2	1	main_z	24	advance_on_keypress_ZEE	116	stimuli_distractor_diamondtriangles.svg	stimuli_target_squarediamonds.svg	16	yes	57	0	327	6	2	antiphase_hc_ios.wav	3	6	3	noise_calib_stim_LEFT.wav	1	28	blb_dichoticlistening_pa-ka.mp3	pa	ka	1	left
6.6.1	win	2023-06-28	09:47:40	10:11:30	1422904	6400e8b1a2889ce16019eb23	2	1	main_z	24	main_z	117	stimuli_distractor_diamondtriangles.svg	stimuli_target_trianglerectangles.svg	29	yes	0	0	2000	6	2	antiphase_hc_ios.wav	3	6	3	noise_calib_stim_LEFT.wav	1	28	blb_dichoticlistening_pa-ka.mp3	pa	ka	1	left
6.6.1	win	2023-06-28	09:47:40	10:11:30	1422904	6400e8b1a2889ce16019eb23	2	1	main_z	24	advance_on_keypress_ZEE	118	stimuli_distractor_diamondtriangles.svg	stimuli_target_trianglerectangles.svg	29	yes	57	0	1001	6	2	antiphase_hc_ios.wav	3	6	3	noise_calib_stim_LEFT.wav	1	28	blb_dichoticlistening_pa-ka.mp3	pa	ka	1	left
6.6.1	win	2023-06-28	09:47:40	10:11:32	1425236	6400e8b1a2889ce16019eb23	2	1	main_z	24	main_z	119	stimuli_distractor_diamondtriangles.svg	stimuli_target_rectangletriangles.svg	13	yes	44	1	681	6	2	antiphase_hc_ios.wav	3	6	3	noise_calib_stim_LEFT.wav	1	28	blb_dichoticlistening_pa-ka.mp3	pa	ka	1	left
6.6.1	win	2023-06-28	09:47:40	10:11:32	1425236	6400e8b1a2889ce16019eb23	2	1	main_z	24	advance_on_keypress_ZEE	120	stimuli_distractor_diamondtriangles.svg	stimuli_target_rectangletriangles.svg	13	yes	57	0	359	6	2	antiphase_hc_ios.wav	3	6	3	noise_calib_stim_LEFT.wav	1	28	blb_dichoticlistening_pa-ka.mp3	pa	ka	1	left
6.6.1	win	2023-06-28	09:47:40	10:11:35	1428237	6400e8b1a2889ce16019eb23	2	1	main_z	24	main_z	121	stimuli_target_diamondsquares.svg	stimuli_distractor_diamondtriangles.svg	24	yes	0	0	2000	6	2	antiphase_hc_ios.wav	3	6	3	noise_calib_stim_LEFT.wav	1	28	blb_dichoticlistening_pa-ka.mp3	pa	ka	1	left
6.6.1	win	2023-06-28	09:47:40	10:11:35	1428237	6400e8b1a2889ce16019eb23	2	1	main_z	24	advance_on_keypress_ZEE	122	stimuli_target_diamondsquares.svg	stimuli_distractor_diamondtriangles.svg	24	yes	57	0	1034	6	2	antiphase_hc_ios.wav	3	6	3	noise_calib_stim_LEFT.wav	1	28	blb_dichoticlistening_pa-ka.mp3	pa	ka	1	left
6.6.1	win	2023-06-28	09:47:40	10:11:39	1431920	6400e8b1a2889ce16019eb23	2	1	main_z	24	main_z	123	stimuli_distractor_trianglediamonds.svg	stimuli_distractor_diamondtriangles.svg	36	no	0	1	2000	6	2	antiphase_hc_ios.wav	3	6	3	noise_calib_stim_LEFT.wav	1	28	blb_dichoticlistening_pa-ka.mp3	pa	ka	1	left
6.6.1	win	2023-06-28	09:47:40	10:11:39	1431920	6400e8b1a2889ce16019eb23	2	1	main_z	24	advance_on_keypress_ZEE	124	stimuli_distractor_trianglediamonds.svg	stimuli_distractor_diamondtriangles.svg	36	no	57	0	913	6	2	antiphase_hc_ios.wav	3	6	3	noise_calib_stim_LEFT.wav	1	28	blb_dichoticlistening_pa-ka.mp3	pa	ka	1	left
6.6.1	win	2023-06-28	09:47:40	10:11:41	1434236	6400e8b1a2889ce16019eb23	2	1	main_z	24	main_z	125	stimuli_target_squaretriangles.svg	stimuli_distractor_trianglediamonds.svg	3	yes	44	1	748	6	2	antiphase_hc_ios.wav	3	6	3	noise_calib_stim_LEFT.wav	1	28	blb_dichoticlistening_pa-ka.mp3	pa	ka	1	left
6.6.1	win	2023-06-28	09:47:40	10:11:41	1434236	6400e8b1a2889ce16019eb23	2	1	main_z	24	advance_on_keypress_ZEE	126	stimuli_target_squaretriangles.svg	stimuli_distractor_trianglediamonds.svg	3	yes	57	0	422	6	2	antiphase_hc_ios.wav	3	6	3	noise_calib_stim_LEFT.wav	1	28	blb_dichoticlistening_pa-ka.mp3	pa	ka	1	left
6.6.1	win	2023-06-28	09:47:40	10:11:43	1436404	6400e8b1a2889ce16019eb23	2	1	main_z	24	main_z	127	stimuli_distractor_diamondtriangles.svg	stimuli_distractor_trianglediamonds.svg	38	no	44	0	1101	6	2	antiphase_hc_ios.wav	3	6	3	noise_calib_stim_LEFT.wav	1	28	blb_dichoticlistening_pa-ka.mp3	pa	ka	1	left
6.6.1	win	2023-06-28	09:47:40	10:11:43	1436404	6400e8b1a2889ce16019eb23	2	1	main_z	24	advance_on_keypress_ZEE	128	stimuli_distractor_diamondtriangles.svg	stimuli_distractor_trianglediamonds.svg	38	no	57	0	424	6	2	antiphase_hc_ios.wav	3	6	3	noise_calib_stim_LEFT.wav	1	28	blb_dichoticlistening_pa-ka.mp3	pa	ka	1	left
6.6.1	win	2023-06-28	09:47:40	10:11:46	1439470	6400e8b1a2889ce16019eb23	2	1	main_z	24	main_z	129	stimuli_distractor_trianglediamonds.svg	stimuli_distractor_diamondtriangles.svg	35	no	0	1	2000	6	2	antiphase_hc_ios.wav	3	6	3	noise_calib_stim_LEFT.wav	1	28	blb_dichoticlistening_pa-ka.mp3	pa	ka	1	left
6.6.1	win	2023-06-28	09:47:40	10:11:46	1439470	6400e8b1a2889ce16019eb23	2	1	main_z	24	advance_on_keypress_ZEE	130	stimuli_distractor_trianglediamonds.svg	stimuli_distractor_diamondtriangles.svg	35	no	57	0	1201	6	2	antiphase_hc_ios.wav	3	6	3	noise_calib_stim_LEFT.wav	1	28	blb_dichoticlistening_pa-ka.mp3	pa	ka	1	left
6.6.1	win	2023-06-28	09:47:40	10:11:49	1441809	6400e8b1a2889ce16019eb23	2	1	main_z	24	main_z	131	stimuli_distractor_diamondtriangles.svg	stimuli_target_rectanglediamonds.svg	14	yes	44	1	488	6	2	antiphase_hc_ios.wav	3	6	3	noise_calib_stim_LEFT.wav	1	28	blb_dichoticlistening_pa-ka.mp3	pa	ka	1	left
6.6.1	win	2023-06-28	09:47:40	10:11:49	1441809	6400e8b1a2889ce16019eb23	2	1	main_z	24	advance_on_keypress_ZEE	132	stimuli_distractor_diamondtriangles.svg	stimuli_target_rectanglediamonds.svg	14	yes	57	0	487	6	2	antiphase_hc_ios.wav	3	6	3	noise_calib_stim_LEFT.wav	1	28	blb_dichoticlistening_pa-ka.mp3	pa	ka	1	left
6.6.1	win	2023-06-28	09:47:40	10:11:52	1444937	6400e8b1a2889ce16019eb23	2	1	main_z	24	main_z	133	stimuli_distractor_trianglediamonds.svg	stimuli_distractor_trianglediamonds.svg	34	no	0	1	2000	6	2	antiphase_hc_ios.wav	3	6	3	noise_calib_stim_LEFT.wav	1	28	blb_dichoticlistening_pa-ka.mp3	pa	ka	1	left
6.6.1	win	2023-06-28	09:47:40	10:11:52	1444937	6400e8b1a2889ce16019eb23	2	1	main_z	24	advance_on_keypress_ZEE	134	stimuli_distractor_trianglediamonds.svg	stimuli_distractor_trianglediamonds.svg	34	no	57	0	874	6	2	antiphase_hc_ios.wav	3	6	3	noise_calib_stim_LEFT.wav	1	28	blb_dichoticlistening_pa-ka.mp3	pa	ka	1	left
6.6.1	win	2023-06-28	09:47:40	10:11:54	1447180	6400e8b1a2889ce16019eb23	2	1	main_z	24	main_z	135	stimuli_distractor_trianglediamonds.svg	stimuli_target_rectanglediamonds.svg	10	yes	44	1	727	6	2	antiphase_hc_ios.wav	3	6	3	noise_calib_stim_LEFT.wav	1	28	blb_dichoticlistening_pa-ka.mp3	pa	ka	1	left
6.6.1	win	2023-06-28	09:47:40	10:11:54	1447180	6400e8b1a2889ce16019eb23	2	1	main_z	24	advance_on_keypress_ZEE	136	stimuli_distractor_trianglediamonds.svg	stimuli_target_rectanglediamonds.svg	10	yes	57	0	625	6	2	antiphase_hc_ios.wav	3	6	3	noise_calib_stim_LEFT.wav	1	28	blb_dichoticlistening_pa-ka.mp3	pa	ka	1	left
6.6.1	win	2023-06-28	09:47:40	10:11:57	1450436	6400e8b1a2889ce16019eb23	2	1	main_z	24	main_z	137	stimuli_target_trianglesquares.svg	stimuli_distractor_diamondtriangles.svg	22	yes	0	0	2000	6	2	antiphase_hc_ios.wav	3	6	3	noise_calib_stim_LEFT.wav	1	28	blb_dichoticlistening_pa-ka.mp3	pa	ka	1	left
6.6.1	win	2023-06-28	09:47:40	10:11:57	1450436	6400e8b1a2889ce16019eb23	2	1	main_z	24	advance_on_keypress_ZEE	138	stimuli_target_trianglesquares.svg	stimuli_distractor_diamondtriangles.svg	22	yes	57	0	666	6	2	antiphase_hc_ios.wav	3	6	3	noise_calib_stim_LEFT.wav	1	28	blb_dichoticlistening_pa-ka.mp3	pa	ka	1	left
6.6.1	win	2023-06-28	09:47:40	10:12:01	1453753	6400e8b1a2889ce16019eb23	2	1	main_z	24	main_z	139	stimuli_target_trianglerectangles.svg	stimuli_distractor_trianglediamonds.svg	17	yes	0	0	2000	6	2	antiphase_hc_ios.wav	3	6	3	noise_calib_stim_LEFT.wav	1	28	blb_dichoticlistening_pa-ka.mp3	pa	ka	1	left
6.6.1	win	2023-06-28	09:47:40	10:12:01	1453753	6400e8b1a2889ce16019eb23	2	1	main_z	24	advance_on_keypress_ZEE	140	stimuli_target_trianglerectangles.svg	stimuli_distractor_trianglediamonds.svg	17	yes	57	0	901	6	2	antiphase_hc_ios.wav	3	6	3	noise_calib_stim_LEFT.wav	1	28	blb_dichoticlistening_pa-ka.mp3	pa	ka	1	left
6.6.1	win	2023-06-28	09:47:40	10:12:04	1457304	6400e8b1a2889ce16019eb23	2	1	main_z	24	main_z	141	stimuli_distractor_trianglediamonds.svg	stimuli_target_diamondrectangles.svg	27	yes	0	0	2000	6	2	antiphase_hc_ios.wav	3	6	3	noise_calib_stim_LEFT.wav	1	28	blb_dichoticlistening_pa-ka.mp3	pa	ka	1	left
6.6.1	win	2023-06-28	09:47:40	10:12:04	1457304	6400e8b1a2889ce16019eb23	2	1	main_z	24	advance_on_keypress_ZEE	142	stimuli_distractor_trianglediamonds.svg	stimuli_target_diamondrectangles.svg	27	yes	57	0	878	6	2	antiphase_hc_ios.wav	3	6	3	noise_calib_stim_LEFT.wav	1	28	blb_dichoticlistening_pa-ka.mp3	pa	ka	1	left
6.6.1	win	2023-06-28	09:47:40	10:12:07	1460339	6400e8b1a2889ce16019eb23	2	1	main_z	24	main_z	143	stimuli_distractor_diamondtriangles.svg	stimuli_distractor_trianglediamonds.svg	37	no	44	0	1520	6	2	antiphase_hc_ios.wav	3	6	3	noise_calib_stim_LEFT.wav	1	28	blb_dichoticlistening_pa-ka.mp3	pa	ka	1	left
6.6.1	win	2023-06-28	09:47:40	10:12:07	1460339	6400e8b1a2889ce16019eb23	2	1	main_z	24	advance_on_keypress_ZEE	144	stimuli_distractor_diamondtriangles.svg	stimuli_distractor_trianglediamonds.svg	37	no	57	0	332	6	2	antiphase_hc_ios.wav	3	6	3	noise_calib_stim_LEFT.wav	1	28	blb_dichoticlistening_pa-ka.mp3	pa	ka	1	left
6.6.1	win	2023-06-28	09:47:40	10:12:09	1461978	6400e8b1a2889ce16019eb23	2	1	main_z	24	main_z	145	stimuli_target_rectangletriangles.svg	stimuli_distractor_diamondtriangles.svg	5	yes	44	1	658	6	2	antiphase_hc_ios.wav	3	6	3	noise_calib_stim_LEFT.wav	1	28	blb_dichoticlistening_pa-ka.mp3	pa	ka	1	left
6.6.1	win	2023-06-28	09:47:40	10:12:09	1461978	6400e8b1a2889ce16019eb23	2	1	main_z	24	advance_on_keypress_ZEE	146	stimuli_target_rectangletriangles.svg	stimuli_distractor_diamondtriangles.svg	5	yes	57	0	354	6	2	antiphase_hc_ios.wav	3	6	3	noise_calib_stim_LEFT.wav	1	28	blb_dichoticlistening_pa-ka.mp3	pa	ka	1	left
6.6.1	win	2023-06-28	09:47:40	10:12:12	1464971	6400e8b1a2889ce16019eb23	2	1	main_z	24	main_z	147	stimuli_distractor_trianglediamonds.svg	stimuli_target_diamondsquares.svg	28	yes	0	0	2000	6	2	antiphase_hc_ios.wav	3	6	3	noise_calib_stim_LEFT.wav	1	28	blb_dichoticlistening_pa-ka.mp3	pa	ka	1	left
6.6.1	win	2023-06-28	09:47:40	10:12:12	1464971	6400e8b1a2889ce16019eb23	2	1	main_z	24	advance_on_keypress_ZEE	148	stimuli_distractor_trianglediamonds.svg	stimuli_target_diamondsquares.svg	28	yes	57	0	937	6	2	antiphase_hc_ios.wav	3	6	3	noise_calib_stim_LEFT.wav	1	28	blb_dichoticlistening_pa-ka.mp3	pa	ka	1	left
6.6.1	win	2023-06-28	09:47:40	10:12:15	1467560	6400e8b1a2889ce16019eb23	2	1	main_z	24	main_z	149	stimuli_target_trianglerectangles.svg	stimuli_distractor_diamondtriangles.svg	21	yes	44	1	1006	6	2	antiphase_hc_ios.wav	3	6	3	noise_calib_stim_LEFT.wav	1	28	blb_dichoticlistening_pa-ka.mp3	pa	ka	1	left
6.6.1	win	2023-06-28	09:47:40	10:12:15	1467560	6400e8b1a2889ce16019eb23	2	1	main_z	24	advance_on_keypress_ZEE	150	stimuli_target_trianglerectangles.svg	stimuli_distractor_diamondtriangles.svg	21	yes	57	0	307	6	2	antiphase_hc_ios.wav	3	6	3	noise_calib_stim_LEFT.wav	1	28	blb_dichoticlistening_pa-ka.mp3	pa	ka	1	left
6.6.1	win	2023-06-28	09:47:40	10:12:18	1470503	6400e8b1a2889ce16019eb23	2	1	main_z	24	main_z	151	stimuli_target_rectangletriangles.svg	stimuli_distractor_trianglediamonds.svg	1	yes	0	0	2000	6	2	antiphase_hc_ios.wav	3	6	3	noise_calib_stim_LEFT.wav	1	28	blb_dichoticlistening_pa-ka.mp3	pa	ka	1	left
6.6.1	win	2023-06-28	09:47:40	10:12:18	1470503	6400e8b1a2889ce16019eb23	2	1	main_z	24	advance_on_keypress_ZEE	152	stimuli_target_rectangletriangles.svg	stimuli_distractor_trianglediamonds.svg	1	yes	57	0	389	6	2	antiphase_hc_ios.wav	3	6	3	noise_calib_stim_LEFT.wav	1	28	blb_dichoticlistening_pa-ka.mp3	pa	ka	1	left
6.6.1	win	2023-06-28	09:47:40	10:12:19	1472471	6400e8b1a2889ce16019eb23	2	1	main_z	24	main_z	153	stimuli_target_squarediamonds.svg	stimuli_distractor_diamondtriangles.svg	8	yes	44	1	935	6	2	antiphase_hc_ios.wav	3	6	3	noise_calib_stim_LEFT.wav	1	28	blb_dichoticlistening_pa-ka.mp3	pa	ka	1	left
6.6.1	win	2023-06-28	09:47:40	10:12:19	1472471	6400e8b1a2889ce16019eb23	2	1	main_z	24	advance_on_keypress_ZEE	154	stimuli_target_squarediamonds.svg	stimuli_distractor_diamondtriangles.svg	8	yes	57	0	496	6	2	antiphase_hc_ios.wav	3	6	3	noise_calib_stim_LEFT.wav	1	28	blb_dichoticlistening_pa-ka.mp3	pa	ka	1	left
6.6.1	win	2023-06-28	09:47:40	10:12:23	1475621	6400e8b1a2889ce16019eb23	2	1	main_z	24	main_z	155	stimuli_distractor_diamondtriangles.svg	stimuli_target_diamondrectangles.svg	31	yes	0	0	2000	6	2	antiphase_hc_ios.wav	3	6	3	noise_calib_stim_LEFT.wav	1	28	blb_dichoticlistening_pa-ka.mp3	pa	ka	1	left
6.6.1	win	2023-06-28	09:47:40	10:12:23	1475621	6400e8b1a2889ce16019eb23	2	1	main_z	24	advance_on_keypress_ZEE	156	stimuli_distractor_diamondtriangles.svg	stimuli_target_diamondrectangles.svg	31	yes	57	0	1386	6	2	antiphase_hc_ios.wav	3	6	3	noise_calib_stim_LEFT.wav	1	28	blb_dichoticlistening_pa-ka.mp3	pa	ka	1	left
6.6.1	win	2023-06-28	09:47:40	10:12:25	1478372	6400e8b1a2889ce16019eb23	2	1	main_z	24	main_z	157	stimuli_distractor_trianglediamonds.svg	stimuli_target_trianglesquares.svg	26	yes	44	1	717	6	2	antiphase_hc_ios.wav	3	6	3	noise_calib_stim_LEFT.wav	1	28	blb_dichoticlistening_pa-ka.mp3	pa	ka	1	left
6.6.1	win	2023-06-28	09:47:40	10:12:25	1478372	6400e8b1a2889ce16019eb23	2	1	main_z	24	advance_on_keypress_ZEE	158	stimuli_distractor_trianglediamonds.svg	stimuli_target_trianglesquares.svg	26	yes	57	0	352	6	2	antiphase_hc_ios.wav	3	6	3	noise_calib_stim_LEFT.wav	1	28	blb_dichoticlistening_pa-ka.mp3	pa	ka	1	left
6.6.1	win	2023-06-28	09:47:40	10:12:28	1480958	6400e8b1a2889ce16019eb23	2	1	main_z	24	main_z	159	stimuli_distractor_trianglediamonds.svg	stimuli_target_squaretriangles.svg	11	yes	44	1	1587	6	2	antiphase_hc_ios.wav	3	6	3	noise_calib_stim_LEFT.wav	1	28	blb_dichoticlistening_pa-ka.mp3	pa	ka	1	left
6.6.1	win	2023-06-28	09:47:40	10:12:28	1480958	6400e8b1a2889ce16019eb23	2	1	main_z	24	advance_on_keypress_ZEE	160	stimuli_distractor_trianglediamonds.svg	stimuli_target_squaretriangles.svg	11	yes	57	0	259	6	2	antiphase_hc_ios.wav	3	6	3	noise_calib_stim_LEFT.wav	1	28	blb_dichoticlistening_pa-ka.mp3	pa	ka	1	left
6.6.1	win	2023-06-28	09:47:40	10:14:17	1590041	6400e8b1a2889ce16019eb23	2	1	practice_slash	26	practice_slash	1	stimuli_target_squarediamonds.svg	stimuli_distractor_diamondtriangles.svg	2	yes	53	1	850	6	2	antiphase_hc_ios.wav	3	6	3	noise_calib_stim_LEFT.wav	1	28	blb_dichoticlistening_pa-ka.mp3	pa	ka	1	left
6.6.1	win	2023-06-28	09:47:40	10:14:17	1590041	6400e8b1a2889ce16019eb23	2	1	practice_slash	26	advance_on_keypress_SLASH	2	stimuli_target_squarediamonds.svg	stimuli_distractor_diamondtriangles.svg	2	yes	57	0	1391	6	2	antiphase_hc_ios.wav	3	6	3	noise_calib_stim_LEFT.wav	1	28	blb_dichoticlistening_pa-ka.mp3	pa	ka	1	left
6.6.1	win	2023-06-28	09:47:40	10:14:21	1594088	6400e8b1a2889ce16019eb23	2	1	practice_slash	26	practice_slash	3	stimuli_distractor_trianglediamonds.svg	stimuli_distractor_diamondtriangles.svg	16	no	53	0	1013	6	2	antiphase_hc_ios.wav	3	6	3	noise_calib_stim_LEFT.wav	1	28	blb_dichoticlistening_pa-ka.mp3	pa	ka	1	left
6.6.1	win	2023-06-28	09:47:40	10:14:21	1594088	6400e8b1a2889ce16019eb23	2	1	practice_slash	26	advance_on_keypress_SLASH	4	stimuli_distractor_trianglediamonds.svg	stimuli_distractor_diamondtriangles.svg	16	no	57	0	949	6	2	antiphase_hc_ios.wav	3	6	3	noise_calib_stim_LEFT.wav	1	28	blb_dichoticlistening_pa-ka.mp3	pa	ka	1	left
6.6.1	win	2023-06-28	09:47:40	10:14:25	1598122	6400e8b1a2889ce16019eb23	2	1	practice_slash	26	practice_slash	5	stimuli_target_diamondsquares.svg	stimuli_distractor_trianglediamonds.svg	6	yes	53	1	1430	6	2	antiphase_hc_ios.wav	3	6	3	noise_calib_stim_LEFT.wav	1	28	blb_dichoticlistening_pa-ka.mp3	pa	ka	1	left
6.6.1	win	2023-06-28	09:47:40	10:14:25	1598122	6400e8b1a2889ce16019eb23	2	1	practice_slash	26	advance_on_keypress_SLASH	6	stimuli_target_diamondsquares.svg	stimuli_distractor_trianglediamonds.svg	6	yes	57	0	1341	6	2	antiphase_hc_ios.wav	3	6	3	noise_calib_stim_LEFT.wav	1	28	blb_dichoticlistening_pa-ka.mp3	pa	ka	1	left
6.6.1	win	2023-06-28	09:47:40	10:14:29	1601984	6400e8b1a2889ce16019eb23	2	1	practice_slash	26	practice_slash	7	stimuli_target_squarediamonds.svg	stimuli_distractor_trianglediamonds.svg	5	yes	53	1	876	6	2	antiphase_hc_ios.wav	3	6	3	noise_calib_stim_LEFT.wav	1	28	blb_dichoticlistening_pa-ka.mp3	pa	ka	1	left
6.6.1	win	2023-06-28	09:47:40	10:14:29	1601984	6400e8b1a2889ce16019eb23	2	1	practice_slash	26	advance_on_keypress_SLASH	8	stimuli_target_squarediamonds.svg	stimuli_distractor_trianglediamonds.svg	5	yes	57	0	747	6	2	antiphase_hc_ios.wav	3	6	3	noise_calib_stim_LEFT.wav	1	28	blb_dichoticlistening_pa-ka.mp3	pa	ka	1	left
6.6.1	win	2023-06-28	09:47:40	10:14:32	1605140	6400e8b1a2889ce16019eb23	2	1	practice_slash	26	practice_slash	9	stimuli_target_rectanglediamonds.svg	stimuli_distractor_trianglediamonds.svg	4	yes	53	1	748	6	2	antiphase_hc_ios.wav	3	6	3	noise_calib_stim_LEFT.wav	1	28	blb_dichoticlistening_pa-ka.mp3	pa	ka	1	left
6.6.1	win	2023-06-28	09:47:40	10:14:32	1605140	6400e8b1a2889ce16019eb23	2	1	practice_slash	26	advance_on_keypress_SLASH	10	stimuli_target_rectanglediamonds.svg	stimuli_distractor_trianglediamonds.svg	4	yes	57	0	653	6	2	antiphase_hc_ios.wav	3	6	3	noise_calib_stim_LEFT.wav	1	28	blb_dichoticlistening_pa-ka.mp3	pa	ka	1	left
6.6.1	win	2023-06-28	09:47:40	10:14:36	1608728	6400e8b1a2889ce16019eb23	2	1	practice_slash	26	practice_slash	11	stimuli_distractor_diamondtriangles.svg	stimuli_target_rectangletriangles.svg	7	yes	53	1	1287	6	2	antiphase_hc_ios.wav	3	6	3	noise_calib_stim_LEFT.wav	1	28	blb_dichoticlistening_pa-ka.mp3	pa	ka	1	left
6.6.1	win	2023-06-28	09:47:40	10:14:36	1608728	6400e8b1a2889ce16019eb23	2	1	practice_slash	26	advance_on_keypress_SLASH	12	stimuli_distractor_diamondtriangles.svg	stimuli_target_rectangletriangles.svg	7	yes	57	0	667	6	2	antiphase_hc_ios.wav	3	6	3	noise_calib_stim_LEFT.wav	1	28	blb_dichoticlistening_pa-ka.mp3	pa	ka	1	left
6.6.1	win	2023-06-28	09:47:40	10:14:39	1611942	6400e8b1a2889ce16019eb23	2	1	practice_slash	26	practice_slash	13	stimuli_target_diamondsquares.svg	stimuli_distractor_diamondtriangles.svg	3	yes	53	1	900	6	2	antiphase_hc_ios.wav	3	6	3	noise_calib_stim_LEFT.wav	1	28	blb_dichoticlistening_pa-ka.mp3	pa	ka	1	left
6.6.1	win	2023-06-28	09:47:40	10:14:39	1611942	6400e8b1a2889ce16019eb23	2	1	practice_slash	26	advance_on_keypress_SLASH	14	stimuli_target_diamondsquares.svg	stimuli_distractor_diamondtriangles.svg	3	yes	57	0	1170	6	2	antiphase_hc_ios.wav	3	6	3	noise_calib_stim_LEFT.wav	1	28	blb_dichoticlistening_pa-ka.mp3	pa	ka	1	left
6.6.1	win	2023-06-28	09:47:40	10:14:43	1615530	6400e8b1a2889ce16019eb23	2	1	practice_slash	26	practice_slash	15	stimuli_target_rectanglediamonds.svg	stimuli_distractor_diamondtriangles.svg	1	yes	53	1	772	6	2	antiphase_hc_ios.wav	3	6	3	noise_calib_stim_LEFT.wav	1	28	blb_dichoticlistening_pa-ka.mp3	pa	ka	1	left
6.6.1	win	2023-06-28	09:47:40	10:14:43	1615530	6400e8b1a2889ce16019eb23	2	1	practice_slash	26	advance_on_keypress_SLASH	16	stimuli_target_rectanglediamonds.svg	stimuli_distractor_diamondtriangles.svg	1	yes	57	0	794	6	2	antiphase_hc_ios.wav	3	6	3	noise_calib_stim_LEFT.wav	1	28	blb_dichoticlistening_pa-ka.mp3	pa	ka	1	left
6.6.1	win	2023-06-28	09:47:40	10:14:46	1619342	6400e8b1a2889ce16019eb23	2	1	practice_slash	26	practice_slash	17	stimuli_distractor_trianglediamonds.svg	stimuli_distractor_trianglediamonds.svg	15	no	53	0	1382	6	2	antiphase_hc_ios.wav	3	6	3	noise_calib_stim_LEFT.wav	1	28	blb_dichoticlistening_pa-ka.mp3	pa	ka	1	left
6.6.1	win	2023-06-28	09:47:40	10:14:46	1619342	6400e8b1a2889ce16019eb23	2	1	practice_slash	26	advance_on_keypress_SLASH	18	stimuli_distractor_trianglediamonds.svg	stimuli_distractor_trianglediamonds.svg	15	no	57	0	823	6	2	antiphase_hc_ios.wav	3	6	3	noise_calib_stim_LEFT.wav	1	28	blb_dichoticlistening_pa-ka.mp3	pa	ka	1	left
6.6.1	win	2023-06-28	09:47:40	10:14:50	1622915	6400e8b1a2889ce16019eb23	2	1	practice_slash	26	practice_slash	19	stimuli_distractor_diamondtriangles.svg	stimuli_target_trianglerectangles.svg	9	yes	53	1	1106	6	2	antiphase_hc_ios.wav	3	6	3	noise_calib_stim_LEFT.wav	1	28	blb_dichoticlistening_pa-ka.mp3	pa	ka	1	left
