build	computer.platform	date	time	timestamp	time_elapsed_ms	subject	group	session	blockcode	blocknum	trialcode	trialnum	stimulus_left	stimulus_right	stim_index	target_present	response	correct	latency	headphonecheck_countTestTrials	headphonecheck_index	headphonecheck_testSound	headphonecheck_correctResponse	stereocheck_countTestTrials	stereocheck_index	stereocheck_testSound	stereocheck_correctResponse	DL_index	DL_soundfile	DL_leftSound	DL_rightSound	DL_dualSound	DL_choice
6.6.1	win	2023-07-07	11:57:45	12:04:25	393761	5de4eec72cf204481c6e5c1e	4	1	practice_z	5	practice_z	1	stimuli_target_rectanglediamonds.svg	stimuli_distractor_trianglediamonds.svg	4	yes	44	1	1579	0	0			0	0			1				0	
6.6.1	win	2023-07-07	11:57:45	12:04:25	393761	5de4eec72cf204481c6e5c1e	4	1	practice_z	5	advance_on_keypress_ZEE	2	stimuli_target_rectanglediamonds.svg	stimuli_distractor_trianglediamonds.svg	4	yes	57	0	3474	0	0			0	0			1				0	
6.6.1	win	2023-07-07	11:57:45	12:04:31	400214	5de4eec72cf204481c6e5c1e	4	1	practice_z	5	practice_z	3	stimuli_target_squarediamonds.svg	stimuli_distractor_diamondtriangles.svg	2	yes	44	1	1331	0	0			0	0			1				0	
6.6.1	win	2023-07-07	11:57:45	12:04:31	400214	5de4eec72cf204481c6e5c1e	4	1	practice_z	5	advance_on_keypress_ZEE	4	stimuli_target_squarediamonds.svg	stimuli_distractor_diamondtriangles.svg	2	yes	57	0	726	0	0			0	0			1				0	
6.6.1	win	2023-07-07	11:57:45	12:04:35	404603	5de4eec72cf204481c6e5c1e	4	1	practice_z	5	practice_z	5	stimuli_target_diamondsquares.svg	stimuli_distractor_diamondtriangles.svg	3	yes	0	0	2000	0	0			0	0			1				0	
6.6.1	win	2023-07-07	11:57:45	12:04:35	404603	5de4eec72cf204481c6e5c1e	4	1	practice_z	5	advance_on_keypress_ZEE	6	stimuli_target_diamondsquares.svg	stimuli_distractor_diamondtriangles.svg	3	yes	57	0	889	0	0			0	0			1				0	
6.6.1	win	2023-07-07	11:57:45	12:04:40	409153	5de4eec72cf204481c6e5c1e	4	1	practice_z	5	practice_z	7	stimuli_distractor_trianglediamonds.svg	stimuli_target_diamondrectangles.svg	12	yes	0	0	2000	0	0			0	0			1				0	
6.6.1	win	2023-07-07	11:57:45	12:04:40	409153	5de4eec72cf204481c6e5c1e	4	1	practice_z	5	advance_on_keypress_ZEE	8	stimuli_distractor_trianglediamonds.svg	stimuli_target_diamondrectangles.svg	12	yes	57	0	588	0	0			0	0			1				0	
6.6.1	win	2023-07-07	11:57:45	12:04:43	411920	5de4eec72cf204481c6e5c1e	4	1	practice_z	5	practice_z	9	stimuli_target_rectanglediamonds.svg	stimuli_distractor_diamondtriangles.svg	1	yes	44	1	536	0	0			0	0			1				0	
6.6.1	win	2023-07-07	11:57:45	12:04:43	411920	5de4eec72cf204481c6e5c1e	4	1	practice_z	5	advance_on_keypress_ZEE	10	stimuli_target_rectanglediamonds.svg	stimuli_distractor_diamondtriangles.svg	1	yes	57	0	411	0	0			0	0			1				0	
6.6.1	win	2023-07-07	11:57:45	12:04:46	415195	5de4eec72cf204481c6e5c1e	4	1	practice_z	5	practice_z	11	stimuli_distractor_trianglediamonds.svg	stimuli_target_squarediamonds.svg	11	yes	44	1	1227	0	0			0	0			1				0	
6.6.1	win	2023-07-07	11:57:45	12:04:46	415195	5de4eec72cf204481c6e5c1e	4	1	practice_z	5	advance_on_keypress_ZEE	12	stimuli_distractor_trianglediamonds.svg	stimuli_target_squarediamonds.svg	11	yes	57	0	478	0	0			0	0			1				0	
6.6.1	win	2023-07-07	11:57:45	12:04:50	419302	5de4eec72cf204481c6e5c1e	4	1	practice_z	5	practice_z	13	stimuli_target_diamondsquares.svg	stimuli_distractor_trianglediamonds.svg	6	yes	0	0	2000	0	0			0	0			1				0	
6.6.1	win	2023-07-07	11:57:45	12:04:50	419302	5de4eec72cf204481c6e5c1e	4	1	practice_z	5	advance_on_keypress_ZEE	14	stimuli_target_diamondsquares.svg	stimuli_distractor_trianglediamonds.svg	6	yes	57	0	573	0	0			0	0			1				0	
6.6.1	win	2023-07-07	11:57:45	12:04:54	423520	5de4eec72cf204481c6e5c1e	4	1	practice_z	5	practice_z	15	stimuli_distractor_diamondtriangles.svg	stimuli_distractor_trianglediamonds.svg	14	no	0	1	2000	0	0			0	0			1				0	
6.6.1	win	2023-07-07	11:57:45	12:04:54	423520	5de4eec72cf204481c6e5c1e	4	1	practice_z	5	advance_on_keypress_ZEE	16	stimuli_distractor_diamondtriangles.svg	stimuli_distractor_trianglediamonds.svg	14	no	57	0	2255	0	0			0	0			1				0	
6.6.1	win	2023-07-07	11:57:45	12:04:59	428653	5de4eec72cf204481c6e5c1e	4	1	practice_z	5	practice_z	17	stimuli_distractor_diamondtriangles.svg	stimuli_target_rectangletriangles.svg	7	yes	44	1	1232	0	0			0	0			1				0	
6.6.1	win	2023-07-07	11:57:45	12:04:59	428653	5de4eec72cf204481c6e5c1e	4	1	practice_z	5	advance_on_keypress_ZEE	18	stimuli_distractor_diamondtriangles.svg	stimuli_target_rectangletriangles.svg	7	yes	57	0	465	0	0			0	0			1				0	
6.6.1	win	2023-07-07	11:57:45	12:05:03	432281	5de4eec72cf204481c6e5c1e	4	1	practice_z	5	practice_z	19	stimuli_distractor_trianglediamonds.svg	stimuli_distractor_diamondtriangles.svg	16	no	44	0	1514	0	0			0	0			1				0	
6.6.1	win	2023-07-07	11:57:45	12:05:03	432281	5de4eec72cf204481c6e5c1e	4	1	practice_z	5	advance_on_keypress_ZEE	20	stimuli_distractor_trianglediamonds.svg	stimuli_distractor_diamondtriangles.svg	16	no	57	0	560	0	0			0	0			1				0	
6.6.1	win	2023-07-07	11:57:45	12:05:07	436503	5de4eec72cf204481c6e5c1e	4	1	practice_z	5	practice_z	21	stimuli_distractor_diamondtriangles.svg	stimuli_target_diamondrectangles.svg	8	yes	0	0	2000	0	0			0	0			1				0	
6.6.1	win	2023-07-07	11:57:45	12:05:07	436503	5de4eec72cf204481c6e5c1e	4	1	practice_z	5	advance_on_keypress_ZEE	22	stimuli_distractor_diamondtriangles.svg	stimuli_target_diamondrectangles.svg	8	yes	57	0	438	0	0			0	0			1				0	
6.6.1	win	2023-07-07	11:57:45	12:05:10	439523	5de4eec72cf204481c6e5c1e	4	1	practice_z	5	practice_z	23	stimuli_target_squarediamonds.svg	stimuli_distractor_trianglediamonds.svg	5	yes	44	1	939	0	0			0	0			1				0	
6.6.1	win	2023-07-07	11:57:45	12:05:10	439523	5de4eec72cf204481c6e5c1e	4	1	practice_z	5	advance_on_keypress_ZEE	24	stimuli_target_squarediamonds.svg	stimuli_distractor_trianglediamonds.svg	5	yes	57	0	521	0	0			0	0			1				0	
6.6.1	win	2023-07-07	11:57:45	12:05:14	443686	5de4eec72cf204481c6e5c1e	4	1	practice_z	5	practice_z	25	stimuli_distractor_trianglediamonds.svg	stimuli_distractor_trianglediamonds.svg	15	no	0	1	2000	0	0			0	0			1				0	
6.6.1	win	2023-07-07	11:57:45	12:05:14	443686	5de4eec72cf204481c6e5c1e	4	1	practice_z	5	advance_on_keypress_ZEE	26	stimuli_distractor_trianglediamonds.svg	stimuli_distractor_trianglediamonds.svg	15	no	57	0	49603	0	0			0	0			1				0	
6.6.1	win	2023-07-07	11:57:45	12:06:08	496937	5de4eec72cf204481c6e5c1e	4	1	practice_z	5	practice_z	27	stimuli_distractor_diamondtriangles.svg	stimuli_target_trianglerectangles.svg	9	yes	0	0	2000	0	0			0	0			1				0	
6.6.1	win	2023-07-07	11:57:45	12:06:08	496937	5de4eec72cf204481c6e5c1e	4	1	practice_z	5	advance_on_keypress_ZEE	28	stimuli_distractor_diamondtriangles.svg	stimuli_target_trianglerectangles.svg	9	yes	57	0	759	0	0			0	0			1				0	
6.6.1	win	2023-07-07	11:57:45	12:06:12	501359	5de4eec72cf204481c6e5c1e	4	1	practice_z	5	practice_z	29	stimuli_distractor_diamondtriangles.svg	stimuli_distractor_diamondtriangles.svg	13	no	0	1	2000	0	0			0	0			1				0	
6.6.1	win	2023-07-07	11:57:45	12:06:12	501359	5de4eec72cf204481c6e5c1e	4	1	practice_z	5	advance_on_keypress_ZEE	30	stimuli_distractor_diamondtriangles.svg	stimuli_distractor_diamondtriangles.svg	13	no	57	0	357	0	0			0	0			1				0	
6.6.1	win	2023-07-07	11:57:45	12:06:15	504338	5de4eec72cf204481c6e5c1e	4	1	practice_z	5	practice_z	31	stimuli_distractor_trianglediamonds.svg	stimuli_target_rectanglediamonds.svg	10	yes	44	1	965	0	0			0	0			1				0	
6.6.1	win	2023-07-07	11:57:45	12:06:15	504338	5de4eec72cf204481c6e5c1e	4	1	practice_z	5	advance_on_keypress_ZEE	32	stimuli_distractor_trianglediamonds.svg	stimuli_target_rectanglediamonds.svg	10	yes	57	0	133	0	0			0	0			1				0	
6.6.1	win	2023-07-07	11:57:45	12:06:25	514437	5de4eec72cf204481c6e5c1e	4	1	main_z	7	main_z	1	stimuli_distractor_trianglediamonds.svg	stimuli_target_trianglerectangles.svg	25	yes	44	1	884	0	0			0	0			1				0	
6.6.1	win	2023-07-07	11:57:45	12:06:25	514437	5de4eec72cf204481c6e5c1e	4	1	main_z	7	advance_on_keypress_ZEE	2	stimuli_distractor_trianglediamonds.svg	stimuli_target_trianglerectangles.svg	25	yes	57	0	1562	0	0			0	0			1				0	
6.6.1	win	2023-07-07	11:57:45	12:06:28	517406	5de4eec72cf204481c6e5c1e	4	1	main_z	7	main_z	3	stimuli_distractor_trianglediamonds.svg	stimuli_target_rectangletriangles.svg	9	yes	44	1	755	0	0			0	0			1				0	
6.6.1	win	2023-07-07	11:57:45	12:06:28	517406	5de4eec72cf204481c6e5c1e	4	1	main_z	7	advance_on_keypress_ZEE	4	stimuli_distractor_trianglediamonds.svg	stimuli_target_rectangletriangles.svg	9	yes	57	0	1877	0	0			0	0			1				0	
6.6.1	win	2023-07-07	11:57:45	12:06:31	520205	5de4eec72cf204481c6e5c1e	4	1	main_z	7	main_z	5	stimuli_distractor_trianglediamonds.svg	stimuli_distractor_trianglediamonds.svg	33	no	44	0	286	0	0			0	0			1				0	
6.6.1	win	2023-07-07	11:57:45	12:06:31	520205	5de4eec72cf204481c6e5c1e	4	1	main_z	7	advance_on_keypress_ZEE	6	stimuli_distractor_trianglediamonds.svg	stimuli_distractor_trianglediamonds.svg	33	no	57	0	1235	0	0			0	0			1				0	
6.6.1	win	2023-07-07	11:57:45	12:06:34	522800	5de4eec72cf204481c6e5c1e	4	1	main_z	7	main_z	7	stimuli_target_rectangletriangles.svg	stimuli_distractor_diamondtriangles.svg	5	yes	44	1	715	0	0			0	0			1				0	
6.6.1	win	2023-07-07	11:57:45	12:06:34	522800	5de4eec72cf204481c6e5c1e	4	1	main_z	7	advance_on_keypress_ZEE	8	stimuli_target_rectangletriangles.svg	stimuli_distractor_diamondtriangles.svg	5	yes	57	0	1656	0	0			0	0			1				0	
6.6.1	win	2023-07-07	11:57:45	12:06:36	525325	5de4eec72cf204481c6e5c1e	4	1	main_z	7	main_z	9	stimuli_distractor_diamondtriangles.svg	stimuli_distractor_trianglediamonds.svg	37	no	44	0	224	0	0			0	0			1				0	
6.6.1	win	2023-07-07	11:57:45	12:06:36	525325	5de4eec72cf204481c6e5c1e	4	1	main_z	7	advance_on_keypress_ZEE	10	stimuli_distractor_diamondtriangles.svg	stimuli_distractor_trianglediamonds.svg	37	no	57	0	1555	0	0			0	0			1				0	
6.6.1	win	2023-07-07	11:57:45	12:06:39	528484	5de4eec72cf204481c6e5c1e	4	1	main_z	7	main_z	11	stimuli_target_diamondrectangles.svg	stimuli_distractor_diamondtriangles.svg	23	yes	44	1	965	0	0			0	0			1				0	
6.6.1	win	2023-07-07	11:57:45	12:06:39	528484	5de4eec72cf204481c6e5c1e	4	1	main_z	7	advance_on_keypress_ZEE	12	stimuli_target_diamondrectangles.svg	stimuli_distractor_diamondtriangles.svg	23	yes	57	0	1599	0	0			0	0			1				0	
6.6.1	win	2023-07-07	11:57:45	12:06:42	530837	5de4eec72cf204481c6e5c1e	4	1	main_z	7	main_z	13	stimuli_distractor_trianglediamonds.svg	stimuli_target_diamondsquares.svg	28	yes	44	1	89	0	0			0	0			1				0	
6.6.1	win	2023-07-07	11:57:45	12:06:42	530837	5de4eec72cf204481c6e5c1e	4	1	main_z	7	advance_on_keypress_ZEE	14	stimuli_distractor_trianglediamonds.svg	stimuli_target_diamondsquares.svg	28	yes	57	0	1573	0	0			0	0			1				0	
6.6.1	win	2023-07-07	11:57:45	12:06:44	533360	5de4eec72cf204481c6e5c1e	4	1	main_z	7	main_z	15	stimuli_distractor_diamondtriangles.svg	stimuli_target_trianglerectangles.svg	29	yes	44	1	276	0	0			0	0			1				0	
6.6.1	win	2023-07-07	11:57:45	12:06:44	533360	5de4eec72cf204481c6e5c1e	4	1	main_z	7	advance_on_keypress_ZEE	16	stimuli_distractor_diamondtriangles.svg	stimuli_target_trianglerectangles.svg	29	yes	57	0	1646	0	0			0	0			1				0	
6.6.1	win	2023-07-07	11:57:45	12:06:47	536062	5de4eec72cf204481c6e5c1e	4	1	main_z	7	main_z	17	stimuli_distractor_trianglediamonds.svg	stimuli_target_trianglesquares.svg	26	yes	44	1	426	0	0			0	0			1				0	
6.6.1	win	2023-07-07	11:57:45	12:06:47	536062	5de4eec72cf204481c6e5c1e	4	1	main_z	7	advance_on_keypress_ZEE	18	stimuli_distractor_trianglediamonds.svg	stimuli_target_trianglesquares.svg	26	yes	57	0	1131	0	0			0	0			1				0	
6.6.1	win	2023-07-07	11:57:45	12:06:49	538072	5de4eec72cf204481c6e5c1e	4	1	main_z	7	main_z	19	stimuli_target_trianglesquares.svg	stimuli_distractor_trianglediamonds.svg	18	yes	44	1	236	0	0			0	0			1				0	
6.6.1	win	2023-07-07	11:57:45	12:06:49	538072	5de4eec72cf204481c6e5c1e	4	1	main_z	7	advance_on_keypress_ZEE	20	stimuli_target_trianglesquares.svg	stimuli_distractor_trianglediamonds.svg	18	yes	57	0	2358	0	0			0	0			1				0	
6.6.1	win	2023-07-07	11:57:45	12:06:52	541524	5de4eec72cf204481c6e5c1e	4	1	main_z	7	main_z	21	stimuli_target_rectangletriangles.svg	stimuli_distractor_trianglediamonds.svg	1	yes	44	1	455	0	0			0	0			1				0	
6.6.1	win	2023-07-07	11:57:45	12:06:52	541524	5de4eec72cf204481c6e5c1e	4	1	main_z	7	advance_on_keypress_ZEE	22	stimuli_target_rectangletriangles.svg	stimuli_distractor_trianglediamonds.svg	1	yes	57	0	2391	0	0			0	0			1				0	
6.6.1	win	2023-07-07	11:57:45	12:06:56	545581	5de4eec72cf204481c6e5c1e	4	1	main_z	7	main_z	23	stimuli_target_trianglesquares.svg	stimuli_distractor_diamondtriangles.svg	22	yes	44	1	1029	0	0			0	0			1				0	
6.6.1	win	2023-07-07	11:57:45	12:06:56	545581	5de4eec72cf204481c6e5c1e	4	1	main_z	7	advance_on_keypress_ZEE	24	stimuli_target_trianglesquares.svg	stimuli_distractor_diamondtriangles.svg	22	yes	57	0	33114	0	0			0	0			1				0	
6.6.1	win	2023-07-07	11:57:45	12:07:31	580529	5de4eec72cf204481c6e5c1e	4	1	main_z	7	main_z	25	stimuli_distractor_diamondtriangles.svg	stimuli_distractor_diamondtriangles.svg	39	no	44	0	1193	0	0			0	0			1				0	
6.6.1	win	2023-07-07	11:57:45	12:07:31	580529	5de4eec72cf204481c6e5c1e	4	1	main_z	7	advance_on_keypress_ZEE	26	stimuli_distractor_diamondtriangles.svg	stimuli_distractor_diamondtriangles.svg	39	no	57	0	738	0	0			0	0			1				0	
6.6.1	win	2023-07-07	11:57:45	12:07:34	583316	5de4eec72cf204481c6e5c1e	4	1	main_z	7	main_z	27	stimuli_distractor_diamondtriangles.svg	stimuli_target_squaretriangles.svg	15	yes	44	1	1413	0	0			0	0			1				0	
6.6.1	win	2023-07-07	11:57:45	12:07:34	583316	5de4eec72cf204481c6e5c1e	4	1	main_z	7	advance_on_keypress_ZEE	28	stimuli_distractor_diamondtriangles.svg	stimuli_target_squaretriangles.svg	15	yes	57	0	565	0	0			0	0			1				0	
6.6.1	win	2023-07-07	11:57:45	12:07:36	585339	5de4eec72cf204481c6e5c1e	4	1	main_z	7	main_z	29	stimuli_distractor_diamondtriangles.svg	stimuli_target_rectangletriangles.svg	13	yes	44	1	802	0	0			0	0			1				0	
6.6.1	win	2023-07-07	11:57:45	12:07:36	585339	5de4eec72cf204481c6e5c1e	4	1	main_z	7	advance_on_keypress_ZEE	30	stimuli_distractor_diamondtriangles.svg	stimuli_target_rectangletriangles.svg	13	yes	57	0	436	0	0			0	0			1				0	
6.6.1	win	2023-07-07	11:57:45	12:07:38	587597	5de4eec72cf204481c6e5c1e	4	1	main_z	7	main_z	31	stimuli_target_trianglerectangles.svg	stimuli_distractor_trianglediamonds.svg	17	yes	44	1	1177	0	0			0	0			1				0	
6.6.1	win	2023-07-07	11:57:45	12:07:38	587597	5de4eec72cf204481c6e5c1e	4	1	main_z	7	advance_on_keypress_ZEE	32	stimuli_target_trianglerectangles.svg	stimuli_distractor_trianglediamonds.svg	17	yes	57	0	611	0	0			0	0			1				0	
6.6.1	win	2023-07-07	11:57:45	12:07:40	589655	5de4eec72cf204481c6e5c1e	4	1	main_z	7	main_z	33	stimuli_target_diamondrectangles.svg	stimuli_distractor_trianglediamonds.svg	19	yes	44	1	819	0	0			0	0			1				0	
6.6.1	win	2023-07-07	11:57:45	12:07:40	589655	5de4eec72cf204481c6e5c1e	4	1	main_z	7	advance_on_keypress_ZEE	34	stimuli_target_diamondrectangles.svg	stimuli_distractor_trianglediamonds.svg	19	yes	57	0	974	0	0			0	0			1				0	
6.6.1	win	2023-07-07	11:57:45	12:07:43	592074	5de4eec72cf204481c6e5c1e	4	1	main_z	7	main_z	35	stimuli_target_squaretriangles.svg	stimuli_distractor_trianglediamonds.svg	3	yes	44	1	787	0	0			0	0			1				0	
6.6.1	win	2023-07-07	11:57:45	12:07:43	592074	5de4eec72cf204481c6e5c1e	4	1	main_z	7	advance_on_keypress_ZEE	36	stimuli_target_squaretriangles.svg	stimuli_distractor_trianglediamonds.svg	3	yes	57	0	56627	0	0			0	0			1				0	
6.6.1	win	2023-07-07	11:57:45	12:08:42	651341	5de4eec72cf204481c6e5c1e	4	1	main_z	7	main_z	37	stimuli_target_trianglerectangles.svg	stimuli_distractor_diamondtriangles.svg	21	yes	0	0	2000	0	0			0	0			1				0	
6.6.1	win	2023-07-07	11:57:45	12:08:42	651341	5de4eec72cf204481c6e5c1e	4	1	main_z	7	advance_on_keypress_ZEE	38	stimuli_target_trianglerectangles.svg	stimuli_distractor_diamondtriangles.svg	21	yes	57	0	678	0	0			0	0			1				0	
6.6.1	win	2023-07-07	11:57:45	12:08:44	653500	5de4eec72cf204481c6e5c1e	4	1	main_z	7	main_z	39	stimuli_distractor_diamondtriangles.svg	stimuli_target_diamondrectangles.svg	31	yes	44	1	846	0	0			0	0			1				0	
6.6.1	win	2023-07-07	11:57:45	12:08:44	653500	5de4eec72cf204481c6e5c1e	4	1	main_z	7	advance_on_keypress_ZEE	40	stimuli_distractor_diamondtriangles.svg	stimuli_target_diamondrectangles.svg	31	yes	57	0	607	0	0			0	0			1				0	
6.6.1	win	2023-07-07	11:57:45	12:08:46	655329	5de4eec72cf204481c6e5c1e	4	1	main_z	7	main_z	41	stimuli_target_squarediamonds.svg	stimuli_distractor_trianglediamonds.svg	4	yes	44	1	591	0	0			0	0			1				0	
6.6.1	win	2023-07-07	11:57:45	12:08:46	655329	5de4eec72cf204481c6e5c1e	4	1	main_z	7	advance_on_keypress_ZEE	42	stimuli_target_squarediamonds.svg	stimuli_distractor_trianglediamonds.svg	4	yes	57	0	571	0	0			0	0			1				0	
6.6.1	win	2023-07-07	11:57:45	12:08:48	657292	5de4eec72cf204481c6e5c1e	4	1	main_z	7	main_z	43	stimuli_distractor_trianglediamonds.svg	stimuli_target_rectanglediamonds.svg	10	yes	44	1	754	0	0			0	0			1				0	
6.6.1	win	2023-07-07	11:57:45	12:08:48	657292	5de4eec72cf204481c6e5c1e	4	1	main_z	7	advance_on_keypress_ZEE	44	stimuli_distractor_trianglediamonds.svg	stimuli_target_rectanglediamonds.svg	10	yes	57	0	541	0	0			0	0			1				0	
6.6.1	win	2023-07-07	11:57:45	12:08:50	659153	5de4eec72cf204481c6e5c1e	4	1	main_z	7	main_z	45	stimuli_target_diamondsquares.svg	stimuli_distractor_diamondtriangles.svg	24	yes	44	1	665	0	0			0	0			1				0	
6.6.1	win	2023-07-07	11:57:45	12:08:50	659153	5de4eec72cf204481c6e5c1e	4	1	main_z	7	advance_on_keypress_ZEE	46	stimuli_target_diamondsquares.svg	stimuli_distractor_diamondtriangles.svg	24	yes	57	0	57946	0	0			0	0			1				0	
6.6.1	win	2023-07-07	11:57:45	12:09:51	719740	5de4eec72cf204481c6e5c1e	4	1	main_z	7	main_z	47	stimuli_distractor_diamondtriangles.svg	stimuli_distractor_trianglediamonds.svg	38	no	0	1	2000	0	0			0	0			1				0	
6.6.1	win	2023-07-07	11:57:45	12:09:51	719740	5de4eec72cf204481c6e5c1e	4	1	main_z	7	advance_on_keypress_ZEE	48	stimuli_distractor_diamondtriangles.svg	stimuli_distractor_trianglediamonds.svg	38	no	57	0	488	0	0			0	0			1				0	
6.6.1	win	2023-07-07	11:57:45	12:09:53	721732	5de4eec72cf204481c6e5c1e	4	1	main_z	7	main_z	49	stimuli_target_squarediamonds.svg	stimuli_distractor_diamondtriangles.svg	8	yes	44	1	860	0	0			0	0			1				0	
6.6.1	win	2023-07-07	11:57:45	12:09:53	721732	5de4eec72cf204481c6e5c1e	4	1	main_z	7	advance_on_keypress_ZEE	50	stimuli_target_squarediamonds.svg	stimuli_distractor_diamondtriangles.svg	8	yes	57	0	695	0	0			0	0			1				0	
6.6.1	win	2023-07-07	11:57:45	12:09:55	723843	5de4eec72cf204481c6e5c1e	4	1	main_z	7	main_z	51	stimuli_distractor_trianglediamonds.svg	stimuli_target_diamondrectangles.svg	27	yes	44	1	756	0	0			0	0			1				0	
6.6.1	win	2023-07-07	11:57:45	12:09:55	723843	5de4eec72cf204481c6e5c1e	4	1	main_z	7	advance_on_keypress_ZEE	52	stimuli_distractor_trianglediamonds.svg	stimuli_target_diamondrectangles.svg	27	yes	57	0	674	0	0			0	0			1				0	
6.6.1	win	2023-07-07	11:57:45	12:09:57	725934	5de4eec72cf204481c6e5c1e	4	1	main_z	7	main_z	53	stimuli_target_rectanglediamonds.svg	stimuli_distractor_trianglediamonds.svg	2	yes	44	1	778	0	0			0	0			1				0	
6.6.1	win	2023-07-07	11:57:45	12:09:57	725934	5de4eec72cf204481c6e5c1e	4	1	main_z	7	advance_on_keypress_ZEE	54	stimuli_target_rectanglediamonds.svg	stimuli_distractor_trianglediamonds.svg	2	yes	57	0	585	0	0			0	0			1				0	
6.6.1	win	2023-07-07	11:57:45	12:09:59	727837	5de4eec72cf204481c6e5c1e	4	1	main_z	7	main_z	55	stimuli_target_squaretriangles.svg	stimuli_distractor_diamondtriangles.svg	7	yes	44	1	681	0	0			0	0			1				0	
6.6.1	win	2023-07-07	11:57:45	12:09:59	727837	5de4eec72cf204481c6e5c1e	4	1	main_z	7	advance_on_keypress_ZEE	56	stimuli_target_squaretriangles.svg	stimuli_distractor_diamondtriangles.svg	7	yes	57	0	524	0	0			0	0			1				0	
6.6.1	win	2023-07-07	11:57:45	12:10:00	729600	5de4eec72cf204481c6e5c1e	4	1	main_z	7	main_z	57	stimuli_distractor_trianglediamonds.svg	stimuli_target_squaretriangles.svg	11	yes	44	1	586	0	0			0	0			1				0	
6.6.1	win	2023-07-07	11:57:45	12:10:00	729600	5de4eec72cf204481c6e5c1e	4	1	main_z	7	advance_on_keypress_ZEE	58	stimuli_distractor_trianglediamonds.svg	stimuli_target_squaretriangles.svg	11	yes	57	0	504	0	0			0	0			1				0	
6.6.1	win	2023-07-07	11:57:45	12:10:03	732602	5de4eec72cf204481c6e5c1e	4	1	main_z	7	main_z	59	stimuli_distractor_trianglediamonds.svg	stimuli_target_squarediamonds.svg	12	yes	44	1	1863	0	0			0	0			1				0	
6.6.1	win	2023-07-07	11:57:45	12:10:03	732602	5de4eec72cf204481c6e5c1e	4	1	main_z	7	advance_on_keypress_ZEE	60	stimuli_distractor_trianglediamonds.svg	stimuli_target_squarediamonds.svg	12	yes	57	0	6898	0	0			0	0			1				0	
6.6.1	win	2023-07-07	11:57:45	12:10:13	742140	5de4eec72cf204481c6e5c1e	4	1	main_z	7	main_z	61	stimuli_distractor_trianglediamonds.svg	stimuli_distractor_trianglediamonds.svg	34	no	0	1	2000	0	0			0	0			1				0	
6.6.1	win	2023-07-07	11:57:45	12:10:13	742140	5de4eec72cf204481c6e5c1e	4	1	main_z	7	advance_on_keypress_ZEE	62	stimuli_distractor_trianglediamonds.svg	stimuli_distractor_trianglediamonds.svg	34	no	57	0	390	0	0			0	0			1				0	
6.6.1	win	2023-07-07	11:57:45	12:10:16	745175	5de4eec72cf204481c6e5c1e	4	1	main_z	7	main_z	63	stimuli_distractor_trianglediamonds.svg	stimuli_distractor_diamondtriangles.svg	35	no	0	1	2000	0	0			0	0			1				0	
6.6.1	win	2023-07-07	11:57:45	12:10:16	745175	5de4eec72cf204481c6e5c1e	4	1	main_z	7	advance_on_keypress_ZEE	64	stimuli_distractor_trianglediamonds.svg	stimuli_distractor_diamondtriangles.svg	35	no	57	0	181	0	0			0	0			1				0	
6.6.1	win	2023-07-07	11:57:45	12:10:17	746706	5de4eec72cf204481c6e5c1e	4	1	main_z	7	main_z	65	stimuli_distractor_diamondtriangles.svg	stimuli_target_rectanglediamonds.svg	14	yes	44	1	699	0	0			0	0			1				0	
6.6.1	win	2023-07-07	11:57:45	12:10:17	746706	5de4eec72cf204481c6e5c1e	4	1	main_z	7	advance_on_keypress_ZEE	66	stimuli_distractor_diamondtriangles.svg	stimuli_target_rectanglediamonds.svg	14	yes	57	0	615	0	0			0	0			1				0	
6.6.1	win	2023-07-07	11:57:45	12:10:20	749029	5de4eec72cf204481c6e5c1e	4	1	main_z	7	main_z	67	stimuli_distractor_diamondtriangles.svg	stimuli_target_squarediamonds.svg	16	yes	44	1	1056	0	0			0	0			1				0	
6.6.1	win	2023-07-07	11:57:45	12:10:20	749029	5de4eec72cf204481c6e5c1e	4	1	main_z	7	advance_on_keypress_ZEE	68	stimuli_distractor_diamondtriangles.svg	stimuli_target_squarediamonds.svg	16	yes	57	0	768059	0	0			0	0			1				0	
6.6.1	win	2023-07-07	11:57:45	12:23:11	1519740	5de4eec72cf204481c6e5c1e	4	1	main_z	7	main_z	69	stimuli_distractor_diamondtriangles.svg	stimuli_distractor_diamondtriangles.svg	40	no	0	1	2000	0	0			0	0			1				0	
6.6.1	win	2023-07-07	11:57:45	12:23:11	1519740	5de4eec72cf204481c6e5c1e	4	1	main_z	7	advance_on_keypress_ZEE	70	stimuli_distractor_diamondtriangles.svg	stimuli_distractor_diamondtriangles.svg	40	no	57	0	387	0	0			0	0			1				0	
6.6.1	win	2023-07-07	11:57:45	12:23:14	1522772	5de4eec72cf204481c6e5c1e	4	1	main_z	7	main_z	71	stimuli_target_diamondsquares.svg	stimuli_distractor_trianglediamonds.svg	20	yes	0	0	2000	0	0			0	0			1				0	
6.6.1	win	2023-07-07	11:57:45	12:23:14	1522772	5de4eec72cf204481c6e5c1e	4	1	main_z	7	advance_on_keypress_ZEE	72	stimuli_target_diamondsquares.svg	stimuli_distractor_trianglediamonds.svg	20	yes	57	0	511	0	0			0	0			1				0	
6.6.1	win	2023-07-07	11:57:45	12:23:16	1524750	5de4eec72cf204481c6e5c1e	4	1	main_z	7	main_z	73	stimuli_distractor_diamondtriangles.svg	stimuli_target_diamondsquares.svg	32	yes	44	1	829	0	0			0	0			1				0	
6.6.1	win	2023-07-07	11:57:45	12:23:16	1524750	5de4eec72cf204481c6e5c1e	4	1	main_z	7	advance_on_keypress_ZEE	74	stimuli_distractor_diamondtriangles.svg	stimuli_target_diamondsquares.svg	32	yes	57	0	932	0	0			0	0			1				0	
6.6.1	win	2023-07-07	11:57:45	12:23:18	1527186	5de4eec72cf204481c6e5c1e	4	1	main_z	7	main_z	75	stimuli_distractor_diamondtriangles.svg	stimuli_target_trianglesquares.svg	30	yes	44	1	865	0	0			0	0			1				0	
6.6.1	win	2023-07-07	11:57:45	12:23:18	1527186	5de4eec72cf204481c6e5c1e	4	1	main_z	7	advance_on_keypress_ZEE	76	stimuli_distractor_diamondtriangles.svg	stimuli_target_trianglesquares.svg	30	yes	57	0	646	0	0			0	0			1				0	
6.6.1	win	2023-07-07	11:57:45	12:23:20	1529192	5de4eec72cf204481c6e5c1e	4	1	main_z	7	main_z	77	stimuli_target_rectanglediamonds.svg	stimuli_distractor_diamondtriangles.svg	6	yes	44	1	721	0	0			0	0			1				0	
6.6.1	win	2023-07-07	11:57:45	12:23:20	1529192	5de4eec72cf204481c6e5c1e	4	1	main_z	7	advance_on_keypress_ZEE	78	stimuli_target_rectanglediamonds.svg	stimuli_distractor_diamondtriangles.svg	6	yes	57	0	481	0	0			0	0			1				0	
6.6.1	win	2023-07-07	11:57:45	12:23:23	1532306	5de4eec72cf204481c6e5c1e	4	1	main_z	7	main_z	79	stimuli_distractor_trianglediamonds.svg	stimuli_distractor_diamondtriangles.svg	36	no	0	1	2000	0	0			0	0			1				0	
6.6.1	win	2023-07-07	11:57:45	12:23:23	1532306	5de4eec72cf204481c6e5c1e	4	1	main_z	7	advance_on_keypress_ZEE	80	stimuli_distractor_trianglediamonds.svg	stimuli_distractor_diamondtriangles.svg	36	no	57	0	9898	0	0			0	0			1				0	
6.6.1	win	2023-07-07	11:57:45	12:23:34	1543447	5de4eec72cf204481c6e5c1e	4	1	main_z	7	main_z	81	stimuli_distractor_trianglediamonds.svg	stimuli_target_trianglerectangles.svg	25	yes	44	1	592	0	0			0	0			1				0	
6.6.1	win	2023-07-07	11:57:45	12:23:34	1543447	5de4eec72cf204481c6e5c1e	4	1	main_z	7	advance_on_keypress_ZEE	82	stimuli_distractor_trianglediamonds.svg	stimuli_target_trianglerectangles.svg	25	yes	57	0	1114	0	0			0	0			1				0	
6.6.1	win	2023-07-07	11:57:45	12:23:38	1547207	5de4eec72cf204481c6e5c1e	4	1	main_z	7	main_z	83	stimuli_distractor_trianglediamonds.svg	stimuli_distractor_trianglediamonds.svg	33	no	0	1	2000	0	0			0	0			1				0	
6.6.1	win	2023-07-07	11:57:45	12:23:38	1547207	5de4eec72cf204481c6e5c1e	4	1	main_z	7	advance_on_keypress_ZEE	84	stimuli_distractor_trianglediamonds.svg	stimuli_distractor_trianglediamonds.svg	33	no	57	0	167141	0	0			0	0			1				0	
6.6.1	win	2023-07-07	11:57:45	12:26:26	1715643	5de4eec72cf204481c6e5c1e	4	1	main_z	7	main_z	85	stimuli_distractor_diamondtriangles.svg	stimuli_target_rectanglediamonds.svg	14	yes	44	1	652	0	0			0	0			1				0	
6.6.1	win	2023-07-07	11:57:45	12:26:26	1715643	5de4eec72cf204481c6e5c1e	4	1	main_z	7	advance_on_keypress_ZEE	86	stimuli_distractor_diamondtriangles.svg	stimuli_target_rectanglediamonds.svg	14	yes	57	0	458	0	0			0	0			1				0	
6.6.1	win	2023-07-07	11:57:45	12:26:28	1717551	5de4eec72cf204481c6e5c1e	4	1	main_z	7	main_z	87	stimuli_target_squarediamonds.svg	stimuli_distractor_diamondtriangles.svg	8	yes	44	1	810	0	0			0	0			1				0	
6.6.1	win	2023-07-07	11:57:45	12:26:28	1717551	5de4eec72cf204481c6e5c1e	4	1	main_z	7	advance_on_keypress_ZEE	88	stimuli_target_squarediamonds.svg	stimuli_distractor_diamondtriangles.svg	8	yes	57	0	562	0	0			0	0			1				0	
6.6.1	win	2023-07-07	11:57:45	12:26:30	1719195	5de4eec72cf204481c6e5c1e	4	1	main_z	7	main_z	89	stimuli_distractor_trianglediamonds.svg	stimuli_target_rectangletriangles.svg	9	yes	44	1	454	0	0			0	0			1				0	
6.6.1	win	2023-07-07	11:57:45	12:26:30	1719195	5de4eec72cf204481c6e5c1e	4	1	main_z	7	advance_on_keypress_ZEE	90	stimuli_distractor_trianglediamonds.svg	stimuli_target_rectangletriangles.svg	9	yes	57	0	433	0	0			0	0			1				0	
6.6.1	win	2023-07-07	11:57:45	12:26:32	1720801	5de4eec72cf204481c6e5c1e	4	1	main_z	7	main_z	91	stimuli_distractor_diamondtriangles.svg	stimuli_target_trianglesquares.svg	30	yes	44	1	526	0	0			0	0			1				0	
6.6.1	win	2023-07-07	11:57:45	12:26:32	1720801	5de4eec72cf204481c6e5c1e	4	1	main_z	7	advance_on_keypress_ZEE	92	stimuli_distractor_diamondtriangles.svg	stimuli_target_trianglesquares.svg	30	yes	57	0	6523	0	0			0	0			1				0	
6.6.1	win	2023-07-07	11:57:45	12:26:39	1728272	5de4eec72cf204481c6e5c1e	4	1	main_z	7	main_z	93	stimuli_distractor_diamondtriangles.svg	stimuli_target_squarediamonds.svg	16	yes	44	1	314	0	0			0	0			1				0	
6.6.1	win	2023-07-07	11:57:45	12:26:39	1728272	5de4eec72cf204481c6e5c1e	4	1	main_z	7	advance_on_keypress_ZEE	94	stimuli_distractor_diamondtriangles.svg	stimuli_target_squarediamonds.svg	16	yes	57	0	470	0	0			0	0			1				0	
6.6.1	win	2023-07-07	11:57:45	12:26:40	1729649	5de4eec72cf204481c6e5c1e	4	1	main_z	7	main_z	95	stimuli_target_diamondsquares.svg	stimuli_distractor_trianglediamonds.svg	20	yes	44	1	258	0	0			0	0			1				0	
6.6.1	win	2023-07-07	11:57:45	12:26:40	1729649	5de4eec72cf204481c6e5c1e	4	1	main_z	7	advance_on_keypress_ZEE	96	stimuli_target_diamondsquares.svg	stimuli_distractor_trianglediamonds.svg	20	yes	57	0	778	0	0			0	0			1				0	
6.6.1	win	2023-07-07	11:57:45	12:26:42	1731335	5de4eec72cf204481c6e5c1e	4	1	main_z	7	main_z	97	stimuli_target_trianglerectangles.svg	stimuli_distractor_trianglediamonds.svg	17	yes	44	1	277	0	0			0	0			1				0	
6.6.1	win	2023-07-07	11:57:45	12:26:42	1731335	5de4eec72cf204481c6e5c1e	4	1	main_z	7	advance_on_keypress_ZEE	98	stimuli_target_trianglerectangles.svg	stimuli_distractor_trianglediamonds.svg	17	yes	57	0	622	0	0			0	0			1				0	
6.6.1	win	2023-07-07	11:57:45	12:26:44	1732829	5de4eec72cf204481c6e5c1e	4	1	main_z	7	main_z	99	stimuli_distractor_diamondtriangles.svg	stimuli_distractor_trianglediamonds.svg	37	no	44	0	231	0	0			0	0			1				0	
6.6.1	win	2023-07-07	11:57:45	12:26:44	1732829	5de4eec72cf204481c6e5c1e	4	1	main_z	7	advance_on_keypress_ZEE	100	stimuli_distractor_diamondtriangles.svg	stimuli_distractor_trianglediamonds.svg	37	no	57	0	504	0	0			0	0			1				0	
6.6.1	win	2023-07-07	11:57:45	12:26:47	1735977	5de4eec72cf204481c6e5c1e	4	1	main_z	7	main_z	101	stimuli_distractor_diamondtriangles.svg	stimuli_distractor_trianglediamonds.svg	38	no	0	1	2000	0	0			0	0			1				0	
6.6.1	win	2023-07-07	11:57:45	12:26:47	1735977	5de4eec72cf204481c6e5c1e	4	1	main_z	7	advance_on_keypress_ZEE	102	stimuli_distractor_diamondtriangles.svg	stimuli_distractor_trianglediamonds.svg	38	no	57	0	424	0	0			0	0			1				0	
6.6.1	win	2023-07-07	11:57:45	12:26:48	1737366	5de4eec72cf204481c6e5c1e	4	1	main_z	7	main_z	103	stimuli_target_diamondrectangles.svg	stimuli_distractor_diamondtriangles.svg	23	yes	44	1	324	0	0			0	0			1				0	
6.6.1	win	2023-07-07	11:57:45	12:26:48	1737366	5de4eec72cf204481c6e5c1e	4	1	main_z	7	advance_on_keypress_ZEE	104	stimuli_target_diamondrectangles.svg	stimuli_distractor_diamondtriangles.svg	23	yes	57	0	14109	0	0			0	0			1				0	
6.6.1	win	2023-07-07	11:57:45	12:27:03	1752527	5de4eec72cf204481c6e5c1e	4	1	main_z	7	main_z	105	stimuli_target_trianglesquares.svg	stimuli_distractor_trianglediamonds.svg	18	yes	44	1	420	0	0			0	0			1				0	
6.6.1	win	2023-07-07	11:57:45	12:27:03	1752527	5de4eec72cf204481c6e5c1e	4	1	main_z	7	advance_on_keypress_ZEE	106	stimuli_target_trianglesquares.svg	stimuli_distractor_trianglediamonds.svg	18	yes	57	0	463	0	0			0	0			1				0	
6.6.1	win	2023-07-07	11:57:45	12:27:05	1754150	5de4eec72cf204481c6e5c1e	4	1	main_z	7	main_z	107	stimuli_distractor_diamondtriangles.svg	stimuli_target_rectangletriangles.svg	13	yes	44	1	511	0	0			0	0			1				0	
6.6.1	win	2023-07-07	11:57:45	12:27:05	1754150	5de4eec72cf204481c6e5c1e	4	1	main_z	7	advance_on_keypress_ZEE	108	stimuli_distractor_diamondtriangles.svg	stimuli_target_rectangletriangles.svg	13	yes	57	0	415	0	0			0	0			1				0	
6.6.1	win	2023-07-07	11:57:45	12:27:08	1757209	5de4eec72cf204481c6e5c1e	4	1	main_z	7	main_z	109	stimuli_distractor_trianglediamonds.svg	stimuli_distractor_diamondtriangles.svg	36	no	0	1	2000	0	0			0	0			1				0	
6.6.1	win	2023-07-07	11:57:45	12:27:08	1757209	5de4eec72cf204481c6e5c1e	4	1	main_z	7	advance_on_keypress_ZEE	110	stimuli_distractor_trianglediamonds.svg	stimuli_distractor_diamondtriangles.svg	36	no	57	0	513	0	0			0	0			1				0	
6.6.1	win	2023-07-07	11:57:45	12:27:10	1758981	5de4eec72cf204481c6e5c1e	4	1	main_z	7	main_z	111	stimuli_target_rectangletriangles.svg	stimuli_distractor_diamondtriangles.svg	5	yes	44	1	607	0	0			0	0			1				0	
6.6.1	win	2023-07-07	11:57:45	12:27:10	1758981	5de4eec72cf204481c6e5c1e	4	1	main_z	7	advance_on_keypress_ZEE	112	stimuli_target_rectangletriangles.svg	stimuli_distractor_diamondtriangles.svg	5	yes	57	0	353	0	0			0	0			1				0	
6.6.1	win	2023-07-07	11:57:45	12:27:11	1760537	5de4eec72cf204481c6e5c1e	4	1	main_z	7	main_z	113	stimuli_distractor_trianglediamonds.svg	stimuli_target_trianglesquares.svg	26	yes	44	1	560	0	0			0	0			1				0	
6.6.1	win	2023-07-07	11:57:45	12:27:11	1760537	5de4eec72cf204481c6e5c1e	4	1	main_z	7	advance_on_keypress_ZEE	114	stimuli_distractor_trianglediamonds.svg	stimuli_target_trianglesquares.svg	26	yes	57	0	504	0	0			0	0			1				0	
6.6.1	win	2023-07-07	11:57:45	12:27:13	1762344	5de4eec72cf204481c6e5c1e	4	1	main_z	7	main_z	115	stimuli_distractor_diamondtriangles.svg	stimuli_distractor_diamondtriangles.svg	40	no	44	0	668	0	0			0	0			1				0	
6.6.1	win	2023-07-07	11:57:45	12:27:13	1762344	5de4eec72cf204481c6e5c1e	4	1	main_z	7	advance_on_keypress_ZEE	116	stimuli_distractor_diamondtriangles.svg	stimuli_distractor_diamondtriangles.svg	40	no	57	0	21739	0	0			0	0			1				0	
6.6.1	win	2023-07-07	11:57:45	12:27:36	1785321	5de4eec72cf204481c6e5c1e	4	1	main_z	7	main_z	117	stimuli_target_diamondrectangles.svg	stimuli_distractor_trianglediamonds.svg	19	yes	44	1	595	0	0			0	0			1				0	
6.6.1	win	2023-07-07	11:57:45	12:27:36	1785321	5de4eec72cf204481c6e5c1e	4	1	main_z	7	advance_on_keypress_ZEE	118	stimuli_target_diamondrectangles.svg	stimuli_distractor_trianglediamonds.svg	19	yes	57	0	399	0	0			0	0			1				0	
6.6.1	win	2023-07-07	11:57:45	12:27:38	1786922	5de4eec72cf204481c6e5c1e	4	1	main_z	7	main_z	119	stimuli_target_rectangletriangles.svg	stimuli_distractor_trianglediamonds.svg	1	yes	44	1	563	0	0			0	0			1				0	
6.6.1	win	2023-07-07	11:57:45	12:27:38	1786922	5de4eec72cf204481c6e5c1e	4	1	main_z	7	advance_on_keypress_ZEE	120	stimuli_target_rectangletriangles.svg	stimuli_distractor_trianglediamonds.svg	1	yes	57	0	469	0	0			0	0			1				0	
6.6.1	win	2023-07-07	11:57:45	12:27:41	1790034	5de4eec72cf204481c6e5c1e	4	1	main_z	7	main_z	121	stimuli_distractor_trianglediamonds.svg	stimuli_distractor_diamondtriangles.svg	35	no	0	1	2000	0	0			0	0			1				0	
6.6.1	win	2023-07-07	11:57:45	12:27:41	1790034	5de4eec72cf204481c6e5c1e	4	1	main_z	7	advance_on_keypress_ZEE	122	stimuli_distractor_trianglediamonds.svg	stimuli_distractor_diamondtriangles.svg	35	no	57	0	362	0	0			0	0			1				0	
6.6.1	win	2023-07-07	11:57:45	12:27:42	1791660	5de4eec72cf204481c6e5c1e	4	1	main_z	7	main_z	123	stimuli_distractor_trianglediamonds.svg	stimuli_target_squaretriangles.svg	11	yes	44	1	613	0	0			0	0			1				0	
6.6.1	win	2023-07-07	11:57:45	12:27:42	1791660	5de4eec72cf204481c6e5c1e	4	1	main_z	7	advance_on_keypress_ZEE	124	stimuli_distractor_trianglediamonds.svg	stimuli_target_squaretriangles.svg	11	yes	57	0	2074	0	0			0	0			1				0	
6.6.1	win	2023-07-07	11:57:45	12:27:46	1794963	5de4eec72cf204481c6e5c1e	4	1	main_z	7	main_z	125	stimuli_target_squarediamonds.svg	stimuli_distractor_trianglediamonds.svg	4	yes	44	1	587	0	0			0	0			1				0	
6.6.1	win	2023-07-07	11:57:45	12:27:46	1794963	5de4eec72cf204481c6e5c1e	4	1	main_z	7	advance_on_keypress_ZEE	126	stimuli_target_squarediamonds.svg	stimuli_distractor_trianglediamonds.svg	4	yes	57	0	422	0	0			0	0			1				0	
6.6.1	win	2023-07-07	11:57:45	12:27:48	1796716	5de4eec72cf204481c6e5c1e	4	1	main_z	7	main_z	127	stimuli_distractor_diamondtriangles.svg	stimuli_target_diamondsquares.svg	32	yes	44	1	685	0	0			0	0			1				0	
6.6.1	win	2023-07-07	11:57:45	12:27:48	1796716	5de4eec72cf204481c6e5c1e	4	1	main_z	7	advance_on_keypress_ZEE	128	stimuli_distractor_diamondtriangles.svg	stimuli_target_diamondsquares.svg	32	yes	57	0	427	0	0			0	0			1				0	
6.6.1	win	2023-07-07	11:57:45	12:27:49	1798311	5de4eec72cf204481c6e5c1e	4	1	main_z	7	main_z	129	stimuli_target_trianglesquares.svg	stimuli_distractor_diamondtriangles.svg	22	yes	44	1	514	0	0			0	0			1				0	
6.6.1	win	2023-07-07	11:57:45	12:27:49	1798311	5de4eec72cf204481c6e5c1e	4	1	main_z	7	advance_on_keypress_ZEE	130	stimuli_target_trianglesquares.svg	stimuli_distractor_diamondtriangles.svg	22	yes	57	0	444	0	0			0	0			1				0	
6.6.1	win	2023-07-07	11:57:45	12:27:51	1799861	5de4eec72cf204481c6e5c1e	4	1	main_z	7	main_z	131	stimuli_target_trianglerectangles.svg	stimuli_distractor_diamondtriangles.svg	21	yes	44	1	468	0	0			0	0			1				0	
6.6.1	win	2023-07-07	11:57:45	12:27:51	1799861	5de4eec72cf204481c6e5c1e	4	1	main_z	7	advance_on_keypress_ZEE	132	stimuli_target_trianglerectangles.svg	stimuli_distractor_diamondtriangles.svg	21	yes	57	0	415	0	0			0	0			1				0	
6.6.1	win	2023-07-07	11:57:45	12:27:52	1801237	5de4eec72cf204481c6e5c1e	4	1	main_z	7	main_z	133	stimuli_target_rectanglediamonds.svg	stimuli_distractor_diamondtriangles.svg	6	yes	44	1	311	0	0			0	0			1				0	
6.6.1	win	2023-07-07	11:57:45	12:27:52	1801237	5de4eec72cf204481c6e5c1e	4	1	main_z	7	advance_on_keypress_ZEE	134	stimuli_target_rectanglediamonds.svg	stimuli_distractor_diamondtriangles.svg	6	yes	57	0	489	0	0			0	0			1				0	
6.6.1	win	2023-07-07	11:57:45	12:27:54	1802801	5de4eec72cf204481c6e5c1e	4	1	main_z	7	main_z	135	stimuli_target_diamondsquares.svg	stimuli_distractor_diamondtriangles.svg	24	yes	44	1	442	0	0			0	0			1				0	
6.6.1	win	2023-07-07	11:57:45	12:27:54	1802801	5de4eec72cf204481c6e5c1e	4	1	main_z	7	advance_on_keypress_ZEE	136	stimuli_target_diamondsquares.svg	stimuli_distractor_diamondtriangles.svg	24	yes	57	0	444	0	0			0	0			1				0	
6.6.1	win	2023-07-07	11:57:45	12:27:55	1804214	5de4eec72cf204481c6e5c1e	4	1	main_z	7	main_z	137	stimuli_distractor_trianglediamonds.svg	stimuli_distractor_trianglediamonds.svg	34	no	44	0	329	0	0			0	0			1				0	
6.6.1	win	2023-07-07	11:57:45	12:27:55	1804214	5de4eec72cf204481c6e5c1e	4	1	main_z	7	advance_on_keypress_ZEE	138	stimuli_distractor_trianglediamonds.svg	stimuli_distractor_trianglediamonds.svg	34	no	57	0	962	0	0			0	0			1				0	
6.6.1	win	2023-07-07	11:57:45	12:27:57	1806317	5de4eec72cf204481c6e5c1e	4	1	main_z	7	main_z	139	stimuli_distractor_trianglediamonds.svg	stimuli_target_rectanglediamonds.svg	10	yes	44	1	491	0	0			0	0			1				0	
6.6.1	win	2023-07-07	11:57:45	12:27:57	1806317	5de4eec72cf204481c6e5c1e	4	1	main_z	7	advance_on_keypress_ZEE	140	stimuli_distractor_trianglediamonds.svg	stimuli_target_rectanglediamonds.svg	10	yes	57	0	431	0	0			0	0			1				0	
6.6.1	win	2023-07-07	11:57:45	12:27:59	1807912	5de4eec72cf204481c6e5c1e	4	1	main_z	7	main_z	141	stimuli_distractor_diamondtriangles.svg	stimuli_target_trianglerectangles.svg	29	yes	44	1	506	0	0			0	0			1				0	
6.6.1	win	2023-07-07	11:57:45	12:27:59	1807912	5de4eec72cf204481c6e5c1e	4	1	main_z	7	advance_on_keypress_ZEE	142	stimuli_distractor_diamondtriangles.svg	stimuli_target_trianglerectangles.svg	29	yes	57	0	353	0	0			0	0			1				0	
6.6.1	win	2023-07-07	11:57:45	12:28:00	1809464	5de4eec72cf204481c6e5c1e	4	1	main_z	7	main_z	143	stimuli_distractor_trianglediamonds.svg	stimuli_target_squarediamonds.svg	12	yes	44	1	554	0	0			0	0			1				0	
6.6.1	win	2023-07-07	11:57:45	12:28:00	1809464	5de4eec72cf204481c6e5c1e	4	1	main_z	7	advance_on_keypress_ZEE	144	stimuli_distractor_trianglediamonds.svg	stimuli_target_squarediamonds.svg	12	yes	57	0	376	0	0			0	0			1				0	
6.6.1	win	2023-07-07	11:57:45	12:28:02	1811030	5de4eec72cf204481c6e5c1e	4	1	main_z	7	main_z	145	stimuli_distractor_diamondtriangles.svg	stimuli_target_diamondrectangles.svg	31	yes	44	1	553	0	0			0	0			1				0	
6.6.1	win	2023-07-07	11:57:45	12:28:02	1811030	5de4eec72cf204481c6e5c1e	4	1	main_z	7	advance_on_keypress_ZEE	146	stimuli_distractor_diamondtriangles.svg	stimuli_target_diamondrectangles.svg	31	yes	57	0	373	0	0			0	0			1				0	
6.6.1	win	2023-07-07	11:57:45	12:28:03	1812538	5de4eec72cf204481c6e5c1e	4	1	main_z	7	main_z	147	stimuli_distractor_trianglediamonds.svg	stimuli_target_diamondrectangles.svg	27	yes	44	1	495	0	0			0	0			1				0	
6.6.1	win	2023-07-07	11:57:45	12:28:03	1812538	5de4eec72cf204481c6e5c1e	4	1	main_z	7	advance_on_keypress_ZEE	148	stimuli_distractor_trianglediamonds.svg	stimuli_target_diamondrectangles.svg	27	yes	57	0	356	0	0			0	0			1				0	
6.6.1	win	2023-07-07	11:57:45	12:28:05	1814101	5de4eec72cf204481c6e5c1e	4	1	main_z	7	main_z	149	stimuli_target_squaretriangles.svg	stimuli_distractor_trianglediamonds.svg	3	yes	44	1	558	0	0			0	0			1				0	
6.6.1	win	2023-07-07	11:57:45	12:28:05	1814101	5de4eec72cf204481c6e5c1e	4	1	main_z	7	advance_on_keypress_ZEE	150	stimuli_target_squaretriangles.svg	stimuli_distractor_trianglediamonds.svg	3	yes	57	0	358	0	0			0	0			1				0	
6.6.1	win	2023-07-07	11:57:45	12:28:06	1815580	5de4eec72cf204481c6e5c1e	4	1	main_z	7	main_z	151	stimuli_distractor_diamondtriangles.svg	stimuli_target_squaretriangles.svg	15	yes	44	1	477	0	0			0	0			1				0	
6.6.1	win	2023-07-07	11:57:45	12:28:06	1815580	5de4eec72cf204481c6e5c1e	4	1	main_z	7	advance_on_keypress_ZEE	152	stimuli_distractor_diamondtriangles.svg	stimuli_target_squaretriangles.svg	15	yes	57	0	428	0	0			0	0			1				0	
6.6.1	win	2023-07-07	11:57:45	12:28:08	1817265	5de4eec72cf204481c6e5c1e	4	1	main_z	7	main_z	153	stimuli_distractor_diamondtriangles.svg	stimuli_distractor_diamondtriangles.svg	39	no	44	0	622	0	0			0	0			1				0	
6.6.1	win	2023-07-07	11:57:45	12:28:08	1817265	5de4eec72cf204481c6e5c1e	4	1	main_z	7	advance_on_keypress_ZEE	154	stimuli_distractor_diamondtriangles.svg	stimuli_distractor_diamondtriangles.svg	39	no	57	0	393	0	0			0	0			1				0	
6.6.1	win	2023-07-07	11:57:45	12:28:10	1818981	5de4eec72cf204481c6e5c1e	4	1	main_z	7	main_z	155	stimuli_target_squaretriangles.svg	stimuli_distractor_diamondtriangles.svg	7	yes	44	1	670	0	0			0	0			1				0	
6.6.1	win	2023-07-07	11:57:45	12:28:10	1818981	5de4eec72cf204481c6e5c1e	4	1	main_z	7	advance_on_keypress_ZEE	156	stimuli_target_squaretriangles.svg	stimuli_distractor_diamondtriangles.svg	7	yes	57	0	341	0	0			0	0			1				0	
6.6.1	win	2023-07-07	11:57:45	12:28:11	1820628	5de4eec72cf204481c6e5c1e	4	1	main_z	7	main_z	157	stimuli_target_rectanglediamonds.svg	stimuli_distractor_trianglediamonds.svg	2	yes	44	1	661	0	0			0	0			1				0	
6.6.1	win	2023-07-07	11:57:45	12:28:11	1820628	5de4eec72cf204481c6e5c1e	4	1	main_z	7	advance_on_keypress_ZEE	158	stimuli_target_rectanglediamonds.svg	stimuli_distractor_trianglediamonds.svg	2	yes	57	0	329	0	0			0	0			1				0	
6.6.1	win	2023-07-07	11:57:45	12:28:13	1822381	5de4eec72cf204481c6e5c1e	4	1	main_z	7	main_z	159	stimuli_distractor_trianglediamonds.svg	stimuli_target_diamondsquares.svg	28	yes	44	1	771	0	0			0	0			1				0	
6.6.1	win	2023-07-07	11:57:45	12:28:13	1822381	5de4eec72cf204481c6e5c1e	4	1	main_z	7	advance_on_keypress_ZEE	160	stimuli_distractor_trianglediamonds.svg	stimuli_target_diamondsquares.svg	28	yes	57	0	3131	0	0			0	0			1				0	
6.6.1	win	2023-07-07	11:57:45	12:29:27	1896598	5de4eec72cf204481c6e5c1e	4	1	practice_slash	9	practice_slash	1	stimuli_distractor_trianglediamonds.svg	stimuli_distractor_diamondtriangles.svg	16	no	53	0	1152	0	0			0	0			1				0	
6.6.1	win	2023-07-07	11:57:45	12:29:27	1896598	5de4eec72cf204481c6e5c1e	4	1	practice_slash	9	advance_on_keypress_SLASH	2	stimuli_distractor_trianglediamonds.svg	stimuli_distractor_diamondtriangles.svg	16	no	57	0	346	0	0			0	0			1				0	
6.6.1	win	2023-07-07	11:57:45	12:29:30	1899132	5de4eec72cf204481c6e5c1e	4	1	practice_slash	9	practice_slash	3	stimuli_distractor_diamondtriangles.svg	stimuli_target_trianglerectangles.svg	9	yes	53	1	517	0	0			0	0			1				0	
6.6.1	win	2023-07-07	11:57:45	12:29:30	1899132	5de4eec72cf204481c6e5c1e	4	1	practice_slash	9	advance_on_keypress_SLASH	4	stimuli_distractor_diamondtriangles.svg	stimuli_target_trianglerectangles.svg	9	yes	57	0	382	0	0			0	0			1				0	
6.6.1	win	2023-07-07	11:57:45	12:29:32	1901654	5de4eec72cf204481c6e5c1e	4	1	practice_slash	9	practice_slash	5	stimuli_target_diamondsquares.svg	stimuli_distractor_trianglediamonds.svg	6	yes	53	1	475	0	0			0	0			1				0	
6.6.1	win	2023-07-07	11:57:45	12:29:32	1901654	5de4eec72cf204481c6e5c1e	4	1	practice_slash	9	advance_on_keypress_SLASH	6	stimuli_target_diamondsquares.svg	stimuli_distractor_trianglediamonds.svg	6	yes	57	0	290	0	0			0	0			1				0	
6.6.1	win	2023-07-07	11:57:45	12:29:35	1904000	5de4eec72cf204481c6e5c1e	4	1	practice_slash	9	practice_slash	7	stimuli_distractor_trianglediamonds.svg	stimuli_target_diamondrectangles.svg	12	yes	53	1	403	0	0			0	0			1				0	
6.6.1	win	2023-07-07	11:57:45	12:29:35	1904000	5de4eec72cf204481c6e5c1e	4	1	practice_slash	9	advance_on_keypress_SLASH	8	stimuli_distractor_trianglediamonds.svg	stimuli_target_diamondrectangles.svg	12	yes	57	0	492	0	0			0	0			1				0	
6.6.1	win	2023-07-07	11:57:45	12:29:37	1906263	5de4eec72cf204481c6e5c1e	4	1	practice_slash	9	practice_slash	9	stimuli_distractor_diamondtriangles.svg	stimuli_target_diamondrectangles.svg	8	yes	53	1	126	0	0			0	0			1				0	
6.6.1	win	2023-07-07	11:57:45	12:29:37	1906263	5de4eec72cf204481c6e5c1e	4	1	practice_slash	9	advance_on_keypress_SLASH	10	stimuli_distractor_diamondtriangles.svg	stimuli_target_diamondrectangles.svg	8	yes	57	0	370	0	0			0	0			1				0	
6.6.1	win	2023-07-07	11:57:45	12:29:39	1908692	5de4eec72cf204481c6e5c1e	4	1	practice_slash	9	practice_slash	11	stimuli_target_squarediamonds.svg	stimuli_distractor_trianglediamonds.svg	5	yes	53	1	380	0	0			0	0			1				0	
6.6.1	win	2023-07-07	11:57:45	12:29:39	1908692	5de4eec72cf204481c6e5c1e	4	1	practice_slash	9	advance_on_keypress_SLASH	12	stimuli_target_squarediamonds.svg	stimuli_distractor_trianglediamonds.svg	5	yes	57	0	320	0	0			0	0			1				0	
6.6.1	win	2023-07-07	11:57:45	12:29:42	1910902	5de4eec72cf204481c6e5c1e	4	1	practice_slash	9	practice_slash	13	stimuli_distractor_diamondtriangles.svg	stimuli_target_rectangletriangles.svg	7	yes	53	1	240	0	0			0	0			1				0	
6.6.1	win	2023-07-07	11:57:45	12:29:42	1910902	5de4eec72cf204481c6e5c1e	4	1	practice_slash	9	advance_on_keypress_SLASH	14	stimuli_distractor_diamondtriangles.svg	stimuli_target_rectangletriangles.svg	7	yes	57	0	431	0	0			0	0			1				0	
6.6.1	win	2023-07-07	11:57:45	12:29:44	1913166	5de4eec72cf204481c6e5c1e	4	1	practice_slash	9	practice_slash	15	stimuli_target_rectanglediamonds.svg	stimuli_distractor_diamondtriangles.svg	1	yes	53	1	183	0	0			0	0			1				0	
6.6.1	win	2023-07-07	11:57:45	12:29:44	1913166	5de4eec72cf204481c6e5c1e	4	1	practice_slash	9	advance_on_keypress_SLASH	16	stimuli_target_rectanglediamonds.svg	stimuli_distractor_diamondtriangles.svg	1	yes	57	0	453	0	0			0	0			1				0	
6.6.1	win	2023-07-07	11:57:45	12:29:46	1915470	5de4eec72cf204481c6e5c1e	4	1	practice_slash	9	practice_slash	17	stimuli_distractor_trianglediamonds.svg	stimuli_target_squarediamonds.svg	11	yes	53	1	207	0	0			0	0			1				0	
6.6.1	win	2023-07-07	11:57:45	12:29:46	1915470	5de4eec72cf204481c6e5c1e	4	1	practice_slash	9	advance_on_keypress_SLASH	18	stimuli_distractor_trianglediamonds.svg	stimuli_target_squarediamonds.svg	11	yes	57	0	422	0	0			0	0			1				0	
6.6.1	win	2023-07-07	11:57:45	12:29:49	1917748	5de4eec72cf204481c6e5c1e	4	1	practice_slash	9	practice_slash	19	stimuli_target_squarediamonds.svg	stimuli_distractor_diamondtriangles.svg	2	yes	53	1	218	0	0			0	0			1				0	
6.6.1	win	2023-07-07	11:57:45	12:29:49	1917748	5de4eec72cf204481c6e5c1e	4	1	practice_slash	9	advance_on_keypress_SLASH	20	stimuli_target_squarediamonds.svg	stimuli_distractor_diamondtriangles.svg	2	yes	57	0	397	0	0			0	0			1				0	
6.6.1	win	2023-07-07	11:57:45	12:29:51	1920017	5de4eec72cf204481c6e5c1e	4	1	practice_slash	9	practice_slash	21	stimuli_distractor_trianglediamonds.svg	stimuli_target_rectanglediamonds.svg	10	yes	53	1	221	0	0			0	0			1				0	
6.6.1	win	2023-07-07	11:57:45	12:29:51	1920017	5de4eec72cf204481c6e5c1e	4	1	practice_slash	9	advance_on_keypress_SLASH	22	stimuli_distractor_trianglediamonds.svg	stimuli_target_rectanglediamonds.svg	10	yes	57	0	404	0	0			0	0			1				0	
6.6.1	win	2023-07-07	11:57:45	12:29:53	1922150	5de4eec72cf204481c6e5c1e	4	1	practice_slash	9	practice_slash	23	stimuli_target_rectanglediamonds.svg	stimuli_distractor_trianglediamonds.svg	4	yes	53	1	87	0	0			0	0			1				0	
6.6.1	win	2023-07-07	11:57:45	12:29:53	1922150	5de4eec72cf204481c6e5c1e	4	1	practice_slash	9	advance_on_keypress_SLASH	24	stimuli_target_rectanglediamonds.svg	stimuli_distractor_trianglediamonds.svg	4	yes	57	0	428	0	0			0	0			1				0	
6.6.1	win	2023-07-07	11:57:45	12:29:55	1924356	5de4eec72cf204481c6e5c1e	4	1	practice_slash	9	practice_slash	25	stimuli_distractor_diamondtriangles.svg	stimuli_distractor_trianglediamonds.svg	14	no	53	0	143	0	0			0	0			1				0	
6.6.1	win	2023-07-07	11:57:45	12:29:55	1924356	5de4eec72cf204481c6e5c1e	4	1	practice_slash	9	advance_on_keypress_SLASH	26	stimuli_distractor_diamondtriangles.svg	stimuli_distractor_trianglediamonds.svg	14	no	57	0	329	0	0			0	0			1				0	
6.6.1	win	2023-07-07	11:57:45	12:29:57	1926510	5de4eec72cf204481c6e5c1e	4	1	practice_slash	9	practice_slash	27	stimuli_target_diamondsquares.svg	stimuli_distractor_diamondtriangles.svg	3	yes	53	1	198	0	0			0	0			1				0	
6.6.1	win	2023-07-07	11:57:45	12:29:57	1926510	5de4eec72cf204481c6e5c1e	4	1	practice_slash	9	advance_on_keypress_SLASH	28	stimuli_target_diamondsquares.svg	stimuli_distractor_diamondtriangles.svg	3	yes	57	0	310	0	0			0	0			1				0	
6.6.1	win	2023-07-07	11:57:45	12:29:59	1928709	5de4eec72cf204481c6e5c1e	4	1	practice_slash	9	practice_slash	29	stimuli_distractor_trianglediamonds.svg	stimuli_distractor_trianglediamonds.svg	15	no	53	0	212	0	0			0	0			1				0	
6.6.1	win	2023-07-07	11:57:45	12:29:59	1928709	5de4eec72cf204481c6e5c1e	4	1	practice_slash	9	advance_on_keypress_SLASH	30	stimuli_distractor_trianglediamonds.svg	stimuli_distractor_trianglediamonds.svg	15	no	57	0	312	0	0			0	0			1				0	
6.6.1	win	2023-07-07	11:57:45	12:30:02	1930917	5de4eec72cf204481c6e5c1e	4	1	practice_slash	9	practice_slash	31	stimuli_distractor_diamondtriangles.svg	stimuli_distractor_diamondtriangles.svg	13	no	53	0	252	0	0			0	0			1				0	
6.6.1	win	2023-07-07	11:57:45	12:30:02	1930917	5de4eec72cf204481c6e5c1e	4	1	practice_slash	9	advance_on_keypress_SLASH	32	stimuli_distractor_diamondtriangles.svg	stimuli_distractor_diamondtriangles.svg	13	no	57	0	328	0	0			0	0			1				0	
6.6.1	win	2023-07-07	11:57:45	12:30:05	1934357	5de4eec72cf204481c6e5c1e	4	1	main_slash	11	main_slash	1	stimuli_distractor_diamondtriangles.svg	stimuli_distractor_diamondtriangles.svg	39	no	53	0	245	0	0			0	0			1				0	
6.6.1	win	2023-07-07	11:57:45	12:30:05	1934357	5de4eec72cf204481c6e5c1e	4	1	main_slash	11	advance_on_keypress_SLASH	2	stimuli_distractor_diamondtriangles.svg	stimuli_distractor_diamondtriangles.svg	39	no	57	0	760	0	0			0	0			1				0	
6.6.1	win	2023-07-07	11:57:45	12:30:07	1936203	5de4eec72cf204481c6e5c1e	4	1	main_slash	11	main_slash	3	stimuli_distractor_trianglediamonds.svg	stimuli_target_trianglesquares.svg	26	yes	53	1	442	0	0			0	0			1				0	
6.6.1	win	2023-07-07	11:57:45	12:30:07	1936203	5de4eec72cf204481c6e5c1e	4	1	main_slash	11	advance_on_keypress_SLASH	4	stimuli_distractor_trianglediamonds.svg	stimuli_target_trianglesquares.svg	26	yes	57	0	487	0	0			0	0			1				0	
6.6.1	win	2023-07-07	11:57:45	12:30:09	1937856	5de4eec72cf204481c6e5c1e	4	1	main_slash	11	main_slash	5	stimuli_target_trianglesquares.svg	stimuli_distractor_diamondtriangles.svg	22	yes	53	1	528	0	0			0	0			1				0	
6.6.1	win	2023-07-07	11:57:45	12:30:09	1937856	5de4eec72cf204481c6e5c1e	4	1	main_slash	11	advance_on_keypress_SLASH	6	stimuli_target_trianglesquares.svg	stimuli_distractor_diamondtriangles.svg	22	yes	57	0	554	0	0			0	0			1				0	
6.6.1	win	2023-07-07	11:57:45	12:30:10	1939670	5de4eec72cf204481c6e5c1e	4	1	main_slash	11	main_slash	7	stimuli_distractor_diamondtriangles.svg	stimuli_target_trianglerectangles.svg	29	yes	53	1	626	0	0			0	0			1				0	
6.6.1	win	2023-07-07	11:57:45	12:30:10	1939670	5de4eec72cf204481c6e5c1e	4	1	main_slash	11	advance_on_keypress_SLASH	8	stimuli_distractor_diamondtriangles.svg	stimuli_target_trianglerectangles.svg	29	yes	57	0	444	0	0			0	0			1				0	
6.6.1	win	2023-07-07	11:57:45	12:30:12	1941182	5de4eec72cf204481c6e5c1e	4	1	main_slash	11	main_slash	9	stimuli_distractor_diamondtriangles.svg	stimuli_target_trianglesquares.svg	30	yes	53	1	419	0	0			0	0			1				0	
6.6.1	win	2023-07-07	11:57:45	12:30:12	1941182	5de4eec72cf204481c6e5c1e	4	1	main_slash	11	advance_on_keypress_SLASH	10	stimuli_distractor_diamondtriangles.svg	stimuli_target_trianglesquares.svg	30	yes	57	0	438	0	0			0	0			1				0	
6.6.1	win	2023-07-07	11:57:45	12:30:13	1942477	5de4eec72cf204481c6e5c1e	4	1	main_slash	11	main_slash	11	stimuli_distractor_trianglediamonds.svg	stimuli_target_squaretriangles.svg	11	yes	53	1	206	0	0			0	0			1				0	
6.6.1	win	2023-07-07	11:57:45	12:30:13	1942477	5de4eec72cf204481c6e5c1e	4	1	main_slash	11	advance_on_keypress_SLASH	12	stimuli_distractor_trianglediamonds.svg	stimuli_target_squaretriangles.svg	11	yes	57	0	733	0	0			0	0			1				0	
6.6.1	win	2023-07-07	11:57:45	12:30:17	1945864	5de4eec72cf204481c6e5c1e	4	1	main_slash	11	main_slash	13	stimuli_distractor_trianglediamonds.svg	stimuli_distractor_trianglediamonds.svg	34	no	0	1	2000	0	0			0	0			1				0	
6.6.1	win	2023-07-07	11:57:45	12:30:17	1945864	5de4eec72cf204481c6e5c1e	4	1	main_slash	11	advance_on_keypress_SLASH	14	stimuli_distractor_trianglediamonds.svg	stimuli_distractor_trianglediamonds.svg	34	no	57	0	396	0	0			0	0			1				0	
6.6.1	win	2023-07-07	11:57:45	12:30:18	1947036	5de4eec72cf204481c6e5c1e	4	1	main_slash	11	main_slash	15	stimuli_distractor_diamondtriangles.svg	stimuli_target_rectangletriangles.svg	13	yes	53	1	137	0	0			0	0			1				0	
6.6.1	win	2023-07-07	11:57:45	12:30:18	1947036	5de4eec72cf204481c6e5c1e	4	1	main_slash	11	advance_on_keypress_SLASH	16	stimuli_distractor_diamondtriangles.svg	stimuli_target_rectangletriangles.svg	13	yes	57	0	640	0	0			0	0			1				0	
6.6.1	win	2023-07-07	11:57:45	12:30:19	1948584	5de4eec72cf204481c6e5c1e	4	1	main_slash	11	main_slash	17	stimuli_distractor_trianglediamonds.svg	stimuli_distractor_trianglediamonds.svg	33	no	53	0	255	0	0			0	0			1				0	
6.6.1	win	2023-07-07	11:57:45	12:30:19	1948584	5de4eec72cf204481c6e5c1e	4	1	main_slash	11	advance_on_keypress_SLASH	18	stimuli_distractor_trianglediamonds.svg	stimuli_distractor_trianglediamonds.svg	33	no	57	0	583	0	0			0	0			1				0	
6.6.1	win	2023-07-07	11:57:45	12:30:21	1950684	5de4eec72cf204481c6e5c1e	4	1	main_slash	11	main_slash	19	stimuli_distractor_diamondtriangles.svg	stimuli_target_squaretriangles.svg	15	yes	53	1	872	0	0			0	0			1				0	
6.6.1	win	2023-07-07	11:57:45	12:30:21	1950684	5de4eec72cf204481c6e5c1e	4	1	main_slash	11	advance_on_keypress_SLASH	20	stimuli_distractor_diamondtriangles.svg	stimuli_target_squaretriangles.svg	15	yes	57	0	424	0	0			0	0			1				0	
6.6.1	win	2023-07-07	11:57:45	12:30:25	1953765	5de4eec72cf204481c6e5c1e	4	1	main_slash	11	main_slash	21	stimuli_distractor_trianglediamonds.svg	stimuli_distractor_diamondtriangles.svg	35	no	0	1	2000	0	0			0	0			1				0	
6.6.1	win	2023-07-07	11:57:45	12:30:25	1953765	5de4eec72cf204481c6e5c1e	4	1	main_slash	11	advance_on_keypress_SLASH	22	stimuli_distractor_trianglediamonds.svg	stimuli_distractor_diamondtriangles.svg	35	no	57	0	282	0	0			0	0			1				0	
6.6.1	win	2023-07-07	11:57:45	12:30:26	1955030	5de4eec72cf204481c6e5c1e	4	1	main_slash	11	main_slash	23	stimuli_distractor_trianglediamonds.svg	stimuli_target_rectangletriangles.svg	9	yes	53	1	333	0	0			0	0			1				0	
6.6.1	win	2023-07-07	11:57:45	12:30:26	1955030	5de4eec72cf204481c6e5c1e	4	1	main_slash	11	advance_on_keypress_SLASH	24	stimuli_distractor_trianglediamonds.svg	stimuli_target_rectangletriangles.svg	9	yes	57	0	466	0	0			0	0			1				0	
6.6.1	win	2023-07-07	11:57:45	12:30:28	1956720	5de4eec72cf204481c6e5c1e	4	1	main_slash	11	main_slash	25	stimuli_target_rectanglediamonds.svg	stimuli_distractor_diamondtriangles.svg	6	yes	53	1	572	0	0			0	0			1				0	
6.6.1	win	2023-07-07	11:57:45	12:30:28	1956720	5de4eec72cf204481c6e5c1e	4	1	main_slash	11	advance_on_keypress_SLASH	26	stimuli_target_rectanglediamonds.svg	stimuli_distractor_diamondtriangles.svg	6	yes	57	0	427	0	0			0	0			1				0	
6.6.1	win	2023-07-07	11:57:45	12:30:29	1958585	5de4eec72cf204481c6e5c1e	4	1	main_slash	11	main_slash	27	stimuli_target_rectangletriangles.svg	stimuli_distractor_diamondtriangles.svg	5	yes	53	1	807	0	0			0	0			1				0	
6.6.1	win	2023-07-07	11:57:45	12:30:29	1958585	5de4eec72cf204481c6e5c1e	4	1	main_slash	11	advance_on_keypress_SLASH	28	stimuli_target_rectangletriangles.svg	stimuli_distractor_diamondtriangles.svg	5	yes	57	0	761	0	0			0	0			1				0	
6.6.1	win	2023-07-07	11:57:45	12:30:31	1960644	5de4eec72cf204481c6e5c1e	4	1	main_slash	11	main_slash	29	stimuli_target_trianglerectangles.svg	stimuli_distractor_trianglediamonds.svg	17	yes	53	1	665	0	0			0	0			1				0	
6.6.1	win	2023-07-07	11:57:45	12:30:31	1960644	5de4eec72cf204481c6e5c1e	4	1	main_slash	11	advance_on_keypress_SLASH	30	stimuli_target_trianglerectangles.svg	stimuli_distractor_trianglediamonds.svg	17	yes	57	0	418	0	0			0	0			1				0	
6.6.1	win	2023-07-07	11:57:45	12:30:33	1962235	5de4eec72cf204481c6e5c1e	4	1	main_slash	11	main_slash	31	stimuli_distractor_trianglediamonds.svg	stimuli_target_diamondrectangles.svg	27	yes	53	1	522	0	0			0	0			1				0	
6.6.1	win	2023-07-07	11:57:45	12:30:33	1962235	5de4eec72cf204481c6e5c1e	4	1	main_slash	11	advance_on_keypress_SLASH	32	stimuli_distractor_trianglediamonds.svg	stimuli_target_diamondrectangles.svg	27	yes	57	0	35298	0	0			0	0			1				0	
6.6.1	win	2023-07-07	11:57:45	12:31:09	1998468	5de4eec72cf204481c6e5c1e	4	1	main_slash	11	main_slash	33	stimuli_distractor_diamondtriangles.svg	stimuli_target_rectanglediamonds.svg	14	yes	53	1	289	0	0			0	0			1				0	
6.6.1	win	2023-07-07	11:57:45	12:31:09	1998468	5de4eec72cf204481c6e5c1e	4	1	main_slash	11	advance_on_keypress_SLASH	34	stimuli_distractor_diamondtriangles.svg	stimuli_target_rectanglediamonds.svg	14	yes	57	0	569	0	0			0	0			1				0	
6.6.1	win	2023-07-07	11:57:45	12:31:11	1999925	5de4eec72cf204481c6e5c1e	4	1	main_slash	11	main_slash	35	stimuli_distractor_trianglediamonds.svg	stimuli_target_trianglerectangles.svg	25	yes	53	1	225	0	0			0	0			1				0	
6.6.1	win	2023-07-07	11:57:45	12:31:11	1999925	5de4eec72cf204481c6e5c1e	4	1	main_slash	11	advance_on_keypress_SLASH	36	stimuli_distractor_trianglediamonds.svg	stimuli_target_trianglerectangles.svg	25	yes	57	0	496	0	0			0	0			1				0	
6.6.1	win	2023-07-07	11:57:45	12:31:12	2001550	5de4eec72cf204481c6e5c1e	4	1	main_slash	11	main_slash	37	stimuli_distractor_diamondtriangles.svg	stimuli_target_diamondsquares.svg	32	yes	53	1	485	0	0			0	0			1				0	
6.6.1	win	2023-07-07	11:57:45	12:31:12	2001550	5de4eec72cf204481c6e5c1e	4	1	main_slash	11	advance_on_keypress_SLASH	38	stimuli_distractor_diamondtriangles.svg	stimuli_target_diamondsquares.svg	32	yes	57	0	400	0	0			0	0			1				0	
6.6.1	win	2023-07-07	11:57:45	12:31:14	2003042	5de4eec72cf204481c6e5c1e	4	1	main_slash	11	main_slash	39	stimuli_target_diamondrectangles.svg	stimuli_distractor_trianglediamonds.svg	19	yes	53	1	446	0	0			0	0			1				0	
6.6.1	win	2023-07-07	11:57:45	12:31:14	2003042	5de4eec72cf204481c6e5c1e	4	1	main_slash	11	advance_on_keypress_SLASH	40	stimuli_target_diamondrectangles.svg	stimuli_distractor_trianglediamonds.svg	19	yes	57	0	480	0	0			0	0			1				0	
6.6.1	win	2023-07-07	11:57:45	12:31:15	2004582	5de4eec72cf204481c6e5c1e	4	1	main_slash	11	main_slash	41	stimuli_target_diamondsquares.svg	stimuli_distractor_trianglediamonds.svg	20	yes	53	1	433	0	0			0	0			1				0	
6.6.1	win	2023-07-07	11:57:45	12:31:15	2004582	5de4eec72cf204481c6e5c1e	4	1	main_slash	11	advance_on_keypress_SLASH	42	stimuli_target_diamondsquares.svg	stimuli_distractor_trianglediamonds.svg	20	yes	57	0	440	0	0			0	0			1				0	
6.6.1	win	2023-07-07	11:57:45	12:31:17	2005813	5de4eec72cf204481c6e5c1e	4	1	main_slash	11	main_slash	43	stimuli_target_squarediamonds.svg	stimuli_distractor_trianglediamonds.svg	4	yes	53	1	128	0	0			0	0			1				0	
6.6.1	win	2023-07-07	11:57:45	12:31:17	2005813	5de4eec72cf204481c6e5c1e	4	1	main_slash	11	advance_on_keypress_SLASH	44	stimuli_target_squarediamonds.svg	stimuli_distractor_trianglediamonds.svg	4	yes	57	0	611	0	0			0	0			1				0	
6.6.1	win	2023-07-07	11:57:45	12:31:18	2007548	5de4eec72cf204481c6e5c1e	4	1	main_slash	11	main_slash	45	stimuli_distractor_diamondtriangles.svg	stimuli_distractor_diamondtriangles.svg	40	no	53	0	479	0	0			0	0			1				0	
6.6.1	win	2023-07-07	11:57:45	12:31:18	2007548	5de4eec72cf204481c6e5c1e	4	1	main_slash	11	advance_on_keypress_SLASH	46	stimuli_distractor_diamondtriangles.svg	stimuli_distractor_diamondtriangles.svg	40	no	57	0	458	0	0			0	0			1				0	
6.6.1	win	2023-07-07	11:57:45	12:31:20	2009258	5de4eec72cf204481c6e5c1e	4	1	main_slash	11	main_slash	47	stimuli_target_trianglerectangles.svg	stimuli_distractor_diamondtriangles.svg	21	yes	53	1	596	0	0			0	0			1				0	
6.6.1	win	2023-07-07	11:57:45	12:31:20	2009258	5de4eec72cf204481c6e5c1e	4	1	main_slash	11	advance_on_keypress_SLASH	48	stimuli_target_trianglerectangles.svg	stimuli_distractor_diamondtriangles.svg	21	yes	57	0	359	0	0			0	0			1				0	
6.6.1	win	2023-07-07	11:57:45	12:31:22	2011053	5de4eec72cf204481c6e5c1e	4	1	main_slash	11	main_slash	49	stimuli_distractor_trianglediamonds.svg	stimuli_target_rectanglediamonds.svg	10	yes	53	1	798	0	0			0	0			1				0	
6.6.1	win	2023-07-07	11:57:45	12:31:22	2011053	5de4eec72cf204481c6e5c1e	4	1	main_slash	11	advance_on_keypress_SLASH	50	stimuli_distractor_trianglediamonds.svg	stimuli_target_rectanglediamonds.svg	10	yes	57	0	807	0	0			0	0			1				0	
6.6.1	win	2023-07-07	11:57:45	12:31:24	2012739	5de4eec72cf204481c6e5c1e	4	1	main_slash	11	main_slash	51	stimuli_target_rectangletriangles.svg	stimuli_distractor_trianglediamonds.svg	1	yes	53	1	220	0	0			0	0			1				0	
6.6.1	win	2023-07-07	11:57:45	12:31:24	2012739	5de4eec72cf204481c6e5c1e	4	1	main_slash	11	advance_on_keypress_SLASH	52	stimuli_target_rectangletriangles.svg	stimuli_distractor_trianglediamonds.svg	1	yes	57	0	503	0	0			0	0			1				0	
6.6.1	win	2023-07-07	11:57:45	12:31:25	2014100	5de4eec72cf204481c6e5c1e	4	1	main_slash	11	main_slash	53	stimuli_target_rectanglediamonds.svg	stimuli_distractor_trianglediamonds.svg	2	yes	53	1	220	0	0			0	0			1				0	
6.6.1	win	2023-07-07	11:57:45	12:31:25	2014100	5de4eec72cf204481c6e5c1e	4	1	main_slash	11	advance_on_keypress_SLASH	54	stimuli_target_rectanglediamonds.svg	stimuli_distractor_trianglediamonds.svg	2	yes	57	0	464	0	0			0	0			1				0	
6.6.1	win	2023-07-07	11:57:45	12:31:27	2015763	5de4eec72cf204481c6e5c1e	4	1	main_slash	11	main_slash	55	stimuli_distractor_trianglediamonds.svg	stimuli_target_squarediamonds.svg	12	yes	53	1	566	0	0			0	0			1				0	
6.6.1	win	2023-07-07	11:57:45	12:31:27	2015763	5de4eec72cf204481c6e5c1e	4	1	main_slash	11	advance_on_keypress_SLASH	56	stimuli_distractor_trianglediamonds.svg	stimuli_target_squarediamonds.svg	12	yes	57	0	866	0	0			0	0			1				0	
6.6.1	win	2023-07-07	11:57:45	12:31:28	2017414	5de4eec72cf204481c6e5c1e	4	1	main_slash	11	main_slash	57	stimuli_target_squarediamonds.svg	stimuli_distractor_diamondtriangles.svg	8	yes	53	1	122	0	0			0	0			1				0	
6.6.1	win	2023-07-07	11:57:45	12:31:28	2017414	5de4eec72cf204481c6e5c1e	4	1	main_slash	11	advance_on_keypress_SLASH	58	stimuli_target_squarediamonds.svg	stimuli_distractor_diamondtriangles.svg	8	yes	57	0	540	0	0			0	0			1				0	
6.6.1	win	2023-07-07	11:57:45	12:31:30	2018884	5de4eec72cf204481c6e5c1e	4	1	main_slash	11	main_slash	59	stimuli_distractor_trianglediamonds.svg	stimuli_target_diamondsquares.svg	28	yes	53	1	287	0	0			0	0			1				0	
6.6.1	win	2023-07-07	11:57:45	12:31:30	2018884	5de4eec72cf204481c6e5c1e	4	1	main_slash	11	advance_on_keypress_SLASH	60	stimuli_distractor_trianglediamonds.svg	stimuli_target_diamondsquares.svg	28	yes	57	0	44795	0	0			0	0			1				0	
6.6.1	win	2023-07-07	11:57:45	12:32:15	2064569	5de4eec72cf204481c6e5c1e	4	1	main_slash	11	main_slash	61	stimuli_distractor_diamondtriangles.svg	stimuli_target_diamondrectangles.svg	31	yes	53	1	255	0	0			0	0			1				0	
6.6.1	win	2023-07-07	11:57:45	12:32:15	2064569	5de4eec72cf204481c6e5c1e	4	1	main_slash	11	advance_on_keypress_SLASH	62	stimuli_distractor_diamondtriangles.svg	stimuli_target_diamondrectangles.svg	31	yes	57	0	467	0	0			0	0			1				0	
6.6.1	win	2023-07-07	11:57:45	12:32:17	2065909	5de4eec72cf204481c6e5c1e	4	1	main_slash	11	main_slash	63	stimuli_target_diamondsquares.svg	stimuli_distractor_diamondtriangles.svg	24	yes	53	1	219	0	0			0	0			1				0	
6.6.1	win	2023-07-07	11:57:45	12:32:17	2065909	5de4eec72cf204481c6e5c1e	4	1	main_slash	11	advance_on_keypress_SLASH	64	stimuli_target_diamondsquares.svg	stimuli_distractor_diamondtriangles.svg	24	yes	57	0	389	0	0			0	0			1				0	
6.6.1	win	2023-07-07	11:57:45	12:32:18	2067168	5de4eec72cf204481c6e5c1e	4	1	main_slash	11	main_slash	65	stimuli_distractor_diamondtriangles.svg	stimuli_distractor_trianglediamonds.svg	38	no	53	0	206	0	0			0	0			1				0	
6.6.1	win	2023-07-07	11:57:45	12:32:18	2067168	5de4eec72cf204481c6e5c1e	4	1	main_slash	11	advance_on_keypress_SLASH	66	stimuli_distractor_diamondtriangles.svg	stimuli_distractor_trianglediamonds.svg	38	no	57	0	453	0	0			0	0			1				0	
6.6.1	win	2023-07-07	11:57:45	12:32:20	2068835	5de4eec72cf204481c6e5c1e	4	1	main_slash	11	main_slash	67	stimuli_target_squaretriangles.svg	stimuli_distractor_trianglediamonds.svg	3	yes	53	1	571	0	0			0	0			1				0	
6.6.1	win	2023-07-07	11:57:45	12:32:20	2068835	5de4eec72cf204481c6e5c1e	4	1	main_slash	11	advance_on_keypress_SLASH	68	stimuli_target_squaretriangles.svg	stimuli_distractor_trianglediamonds.svg	3	yes	57	0	476	0	0			0	0			1				0	
6.6.1	win	2023-07-07	11:57:45	12:32:23	2071949	5de4eec72cf204481c6e5c1e	4	1	main_slash	11	main_slash	69	stimuli_distractor_diamondtriangles.svg	stimuli_distractor_trianglediamonds.svg	37	no	0	1	2000	0	0			0	0			1				0	
6.6.1	win	2023-07-07	11:57:45	12:32:23	2071949	5de4eec72cf204481c6e5c1e	4	1	main_slash	11	advance_on_keypress_SLASH	70	stimuli_distractor_diamondtriangles.svg	stimuli_distractor_trianglediamonds.svg	37	no	57	0	268	0	0			0	0			1				0	
6.6.1	win	2023-07-07	11:57:45	12:32:24	2073105	5de4eec72cf204481c6e5c1e	4	1	main_slash	11	main_slash	71	stimuli_distractor_trianglediamonds.svg	stimuli_distractor_diamondtriangles.svg	36	no	53	0	240	0	0			0	0			1				0	
6.6.1	win	2023-07-07	11:57:45	12:32:24	2073105	5de4eec72cf204481c6e5c1e	4	1	main_slash	11	advance_on_keypress_SLASH	72	stimuli_distractor_trianglediamonds.svg	stimuli_distractor_diamondtriangles.svg	36	no	57	0	500	0	0			0	0			1				0	
6.6.1	win	2023-07-07	11:57:45	12:32:25	2074337	5de4eec72cf204481c6e5c1e	4	1	main_slash	11	main_slash	73	stimuli_target_trianglesquares.svg	stimuli_distractor_trianglediamonds.svg	18	yes	53	1	90	0	0			0	0			1				0	
6.6.1	win	2023-07-07	11:57:45	12:32:25	2074337	5de4eec72cf204481c6e5c1e	4	1	main_slash	11	advance_on_keypress_SLASH	74	stimuli_target_trianglesquares.svg	stimuli_distractor_trianglediamonds.svg	18	yes	57	0	596	0	0			0	0			1				0	
6.6.1	win	2023-07-07	11:57:45	12:32:28	2077588	5de4eec72cf204481c6e5c1e	4	1	main_slash	11	main_slash	75	stimuli_target_diamondrectangles.svg	stimuli_distractor_diamondtriangles.svg	23	yes	0	0	2000	0	0			0	0			1				0	
6.6.1	win	2023-07-07	11:57:45	12:32:28	2077588	5de4eec72cf204481c6e5c1e	4	1	main_slash	11	advance_on_keypress_SLASH	76	stimuli_target_diamondrectangles.svg	stimuli_distractor_diamondtriangles.svg	23	yes	57	0	3308	0	0			0	0			1				0	
6.6.1	win	2023-07-07	11:57:45	12:32:33	2081785	5de4eec72cf204481c6e5c1e	4	1	main_slash	11	main_slash	77	stimuli_target_squaretriangles.svg	stimuli_distractor_diamondtriangles.svg	7	yes	53	1	235	0	0			0	0			1				0	
6.6.1	win	2023-07-07	11:57:45	12:32:33	2081785	5de4eec72cf204481c6e5c1e	4	1	main_slash	11	advance_on_keypress_SLASH	78	stimuli_target_squaretriangles.svg	stimuli_distractor_diamondtriangles.svg	7	yes	57	0	543	0	0			0	0			1				0	
6.6.1	win	2023-07-07	11:57:45	12:32:34	2083036	5de4eec72cf204481c6e5c1e	4	1	main_slash	11	main_slash	79	stimuli_distractor_diamondtriangles.svg	stimuli_target_squarediamonds.svg	16	yes	53	1	46	0	0			0	0			1				0	
6.6.1	win	2023-07-07	11:57:45	12:32:34	2083036	5de4eec72cf204481c6e5c1e	4	1	main_slash	11	advance_on_keypress_SLASH	80	stimuli_distractor_diamondtriangles.svg	stimuli_target_squarediamonds.svg	16	yes	57	0	687	0	0			0	0			1				0	
6.6.1	win	2023-07-07	11:57:45	12:32:35	2084494	5de4eec72cf204481c6e5c1e	4	1	main_slash	11	main_slash	81	stimuli_target_rectanglediamonds.svg	stimuli_distractor_diamondtriangles.svg	6	yes	53	1	114	0	0			0	0			1				0	
6.6.1	win	2023-07-07	11:57:45	12:32:35	2084494	5de4eec72cf204481c6e5c1e	4	1	main_slash	11	advance_on_keypress_SLASH	82	stimuli_target_rectanglediamonds.svg	stimuli_distractor_diamondtriangles.svg	6	yes	57	0	556	0	0			0	0			1				0	
6.6.1	win	2023-07-07	11:57:45	12:32:38	2087700	5de4eec72cf204481c6e5c1e	4	1	main_slash	11	main_slash	83	stimuli_distractor_trianglediamonds.svg	stimuli_distractor_diamondtriangles.svg	35	no	0	1	2000	0	0			0	0			1				0	
6.6.1	win	2023-07-07	11:57:45	12:32:38	2087700	5de4eec72cf204481c6e5c1e	4	1	main_slash	11	advance_on_keypress_SLASH	84	stimuli_distractor_trianglediamonds.svg	stimuli_distractor_diamondtriangles.svg	35	no	57	0	455	0	0			0	0			1				0	
6.6.1	win	2023-07-07	11:57:45	12:32:40	2089047	5de4eec72cf204481c6e5c1e	4	1	main_slash	11	main_slash	85	stimuli_distractor_diamondtriangles.svg	stimuli_target_diamondrectangles.svg	31	yes	53	1	249	0	0			0	0			1				0	
6.6.1	win	2023-07-07	11:57:45	12:32:40	2089047	5de4eec72cf204481c6e5c1e	4	1	main_slash	11	advance_on_keypress_SLASH	86	stimuli_distractor_diamondtriangles.svg	stimuli_target_diamondrectangles.svg	31	yes	57	0	572	0	0			0	0			1				0	
6.6.1	win	2023-07-07	11:57:45	12:32:41	2090446	5de4eec72cf204481c6e5c1e	4	1	main_slash	11	main_slash	87	stimuli_distractor_diamondtriangles.svg	stimuli_target_rectangletriangles.svg	13	yes	53	1	158	0	0			0	0			1				0	
6.6.1	win	2023-07-07	11:57:45	12:32:41	2090446	5de4eec72cf204481c6e5c1e	4	1	main_slash	11	advance_on_keypress_SLASH	88	stimuli_distractor_diamondtriangles.svg	stimuli_target_rectangletriangles.svg	13	yes	57	0	753	0	0			0	0			1				0	
6.6.1	win	2023-07-07	11:57:45	12:32:43	2091941	5de4eec72cf204481c6e5c1e	4	1	main_slash	11	main_slash	89	stimuli_distractor_diamondtriangles.svg	stimuli_distractor_diamondtriangles.svg	40	no	53	0	75	0	0			0	0			1				0	
6.6.1	win	2023-07-07	11:57:45	12:32:43	2091941	5de4eec72cf204481c6e5c1e	4	1	main_slash	11	advance_on_keypress_SLASH	90	stimuli_distractor_diamondtriangles.svg	stimuli_distractor_diamondtriangles.svg	40	no	57	0	4081	0	0			0	0			1				0	
6.6.1	win	2023-07-07	11:57:45	12:32:49	2098650	5de4eec72cf204481c6e5c1e	4	1	main_slash	11	main_slash	91	stimuli_distractor_trianglediamonds.svg	stimuli_distractor_trianglediamonds.svg	33	no	0	1	2000	0	0			0	0			1				0	
6.6.1	win	2023-07-07	11:57:45	12:32:49	2098650	5de4eec72cf204481c6e5c1e	4	1	main_slash	11	advance_on_keypress_SLASH	92	stimuli_distractor_trianglediamonds.svg	stimuli_distractor_trianglediamonds.svg	33	no	57	0	614	0	0			0	0			1				0	
6.6.1	win	2023-07-07	11:57:45	12:32:51	2099942	5de4eec72cf204481c6e5c1e	4	1	main_slash	11	main_slash	93	stimuli_distractor_trianglediamonds.svg	stimuli_target_rectangletriangles.svg	9	yes	53	1	45	0	0			0	0			1				0	
6.6.1	win	2023-07-07	11:57:45	12:32:51	2099942	5de4eec72cf204481c6e5c1e	4	1	main_slash	11	advance_on_keypress_SLASH	94	stimuli_distractor_trianglediamonds.svg	stimuli_target_rectangletriangles.svg	9	yes	57	0	580	0	0			0	0			1				0	
6.6.1	win	2023-07-07	11:57:45	12:32:53	2102666	5de4eec72cf204481c6e5c1e	4	1	main_slash	11	main_slash	95	stimuli_distractor_diamondtriangles.svg	stimuli_target_trianglerectangles.svg	29	yes	53	1	1518	0	0			0	0			1				0	
6.6.1	win	2023-07-07	11:57:45	12:32:53	2102666	5de4eec72cf204481c6e5c1e	4	1	main_slash	11	advance_on_keypress_SLASH	96	stimuli_distractor_diamondtriangles.svg	stimuli_target_trianglerectangles.svg	29	yes	57	0	585	0	0			0	0			1				0	
6.6.1	win	2023-07-07	11:57:45	12:32:57	2105901	5de4eec72cf204481c6e5c1e	4	1	main_slash	11	main_slash	97	stimuli_distractor_trianglediamonds.svg	stimuli_target_squarediamonds.svg	12	yes	0	0	2000	0	0			0	0			1				0	
6.6.1	win	2023-07-07	11:57:45	12:32:57	2105901	5de4eec72cf204481c6e5c1e	4	1	main_slash	11	advance_on_keypress_SLASH	98	stimuli_distractor_trianglediamonds.svg	stimuli_target_squarediamonds.svg	12	yes	57	0	21755	0	0			0	0			1				0	
6.6.1	win	2023-07-07	11:57:45	12:33:20	2128734	5de4eec72cf204481c6e5c1e	4	1	main_slash	11	main_slash	99	stimuli_target_diamondsquares.svg	stimuli_distractor_trianglediamonds.svg	20	yes	53	1	429	0	0			0	0			1				0	
6.6.1	win	2023-07-07	11:57:45	12:33:20	2128734	5de4eec72cf204481c6e5c1e	4	1	main_slash	11	advance_on_keypress_SLASH	100	stimuli_target_diamondsquares.svg	stimuli_distractor_trianglediamonds.svg	20	yes	57	0	431	0	0			0	0			1				0	
6.6.1	win	2023-07-07	11:57:45	12:33:21	2130408	5de4eec72cf204481c6e5c1e	4	1	main_slash	11	main_slash	101	stimuli_target_squarediamonds.svg	stimuli_distractor_diamondtriangles.svg	8	yes	53	1	593	0	0			0	0			1				0	
6.6.1	win	2023-07-07	11:57:45	12:33:21	2130408	5de4eec72cf204481c6e5c1e	4	1	main_slash	11	advance_on_keypress_SLASH	102	stimuli_target_squarediamonds.svg	stimuli_distractor_diamondtriangles.svg	8	yes	57	0	408	0	0			0	0			1				0	
6.6.1	win	2023-07-07	11:57:45	12:33:23	2131892	5de4eec72cf204481c6e5c1e	4	1	main_slash	11	main_slash	103	stimuli_target_rectangletriangles.svg	stimuli_distractor_trianglediamonds.svg	1	yes	53	1	444	0	0			0	0			1				0	
6.6.1	win	2023-07-07	11:57:45	12:33:23	2131892	5de4eec72cf204481c6e5c1e	4	1	main_slash	11	advance_on_keypress_SLASH	104	stimuli_target_rectangletriangles.svg	stimuli_distractor_trianglediamonds.svg	1	yes	57	0	435	0	0			0	0			1				0	
6.6.1	win	2023-07-07	11:57:45	12:33:24	2133455	5de4eec72cf204481c6e5c1e	4	1	main_slash	11	main_slash	105	stimuli_distractor_trianglediamonds.svg	stimuli_target_diamondsquares.svg	28	yes	53	1	490	0	0			0	0			1				0	
6.6.1	win	2023-07-07	11:57:45	12:33:24	2133455	5de4eec72cf204481c6e5c1e	4	1	main_slash	11	advance_on_keypress_SLASH	106	stimuli_distractor_trianglediamonds.svg	stimuli_target_diamondsquares.svg	28	yes	57	0	431	0	0			0	0			1				0	
6.6.1	win	2023-07-07	11:57:45	12:33:26	2134896	5de4eec72cf204481c6e5c1e	4	1	main_slash	11	main_slash	107	stimuli_distractor_trianglediamonds.svg	stimuli_target_squaretriangles.svg	11	yes	53	1	365	0	0			0	0			1				0	
6.6.1	win	2023-07-07	11:57:45	12:33:26	2134896	5de4eec72cf204481c6e5c1e	4	1	main_slash	11	advance_on_keypress_SLASH	108	stimuli_distractor_trianglediamonds.svg	stimuli_target_squaretriangles.svg	11	yes	57	0	476	0	0			0	0			1				0	
6.6.1	win	2023-07-07	11:57:45	12:33:27	2136407	5de4eec72cf204481c6e5c1e	4	1	main_slash	11	main_slash	109	stimuli_target_trianglerectangles.svg	stimuli_distractor_trianglediamonds.svg	17	yes	53	1	377	0	0			0	0			1				0	
6.6.1	win	2023-07-07	11:57:45	12:33:27	2136407	5de4eec72cf204481c6e5c1e	4	1	main_slash	11	advance_on_keypress_SLASH	110	stimuli_target_trianglerectangles.svg	stimuli_distractor_trianglediamonds.svg	17	yes	57	0	954	0	0			0	0			1				0	
6.6.1	win	2023-07-07	11:57:45	12:33:29	2138518	5de4eec72cf204481c6e5c1e	4	1	main_slash	11	main_slash	111	stimuli_distractor_diamondtriangles.svg	stimuli_target_trianglesquares.svg	30	yes	53	1	514	0	0			0	0			1				0	
6.6.1	win	2023-07-07	11:57:45	12:33:29	2138518	5de4eec72cf204481c6e5c1e	4	1	main_slash	11	advance_on_keypress_SLASH	112	stimuli_distractor_diamondtriangles.svg	stimuli_target_trianglesquares.svg	30	yes	57	0	433	0	0			0	0			1				0	
6.6.1	win	2023-07-07	11:57:45	12:33:31	2140117	5de4eec72cf204481c6e5c1e	4	1	main_slash	11	main_slash	113	stimuli_target_rectangletriangles.svg	stimuli_distractor_diamondtriangles.svg	5	yes	53	1	515	0	0			0	0			1				0	
6.6.1	win	2023-07-07	11:57:45	12:33:31	2140117	5de4eec72cf204481c6e5c1e	4	1	main_slash	11	advance_on_keypress_SLASH	114	stimuli_target_rectangletriangles.svg	stimuli_distractor_diamondtriangles.svg	5	yes	57	0	397	0	0			0	0			1				0	
6.6.1	win	2023-07-07	11:57:45	12:33:32	2141688	5de4eec72cf204481c6e5c1e	4	1	main_slash	11	main_slash	115	stimuli_target_squaretriangles.svg	stimuli_distractor_trianglediamonds.svg	3	yes	53	1	522	0	0			0	0			1				0	
6.6.1	win	2023-07-07	11:57:45	12:33:32	2141688	5de4eec72cf204481c6e5c1e	4	1	main_slash	11	advance_on_keypress_SLASH	116	stimuli_target_squaretriangles.svg	stimuli_distractor_trianglediamonds.svg	3	yes	57	0	414	0	0			0	0			1				0	
6.6.1	win	2023-07-07	11:57:45	12:33:34	2142987	5de4eec72cf204481c6e5c1e	4	1	main_slash	11	main_slash	117	stimuli_target_trianglerectangles.svg	stimuli_distractor_diamondtriangles.svg	21	yes	53	1	254	0	0			0	0			1				0	
6.6.1	win	2023-07-07	11:57:45	12:33:34	2142987	5de4eec72cf204481c6e5c1e	4	1	main_slash	11	advance_on_keypress_SLASH	118	stimuli_target_trianglerectangles.svg	stimuli_distractor_diamondtriangles.svg	21	yes	57	0	21433	0	0			0	0			1				0	
6.6.1	win	2023-07-07	11:57:45	12:33:56	2165315	5de4eec72cf204481c6e5c1e	4	1	main_slash	11	main_slash	119	stimuli_distractor_diamondtriangles.svg	stimuli_target_squaretriangles.svg	15	yes	53	1	249	0	0			0	0			1				0	
6.6.1	win	2023-07-07	11:57:45	12:33:56	2165315	5de4eec72cf204481c6e5c1e	4	1	main_slash	11	advance_on_keypress_SLASH	120	stimuli_distractor_diamondtriangles.svg	stimuli_target_squaretriangles.svg	15	yes	57	0	615	0	0			0	0			1				0	
6.6.1	win	2023-07-07	11:57:45	12:33:59	2168586	5de4eec72cf204481c6e5c1e	4	1	main_slash	11	main_slash	121	stimuli_target_trianglesquares.svg	stimuli_distractor_diamondtriangles.svg	22	yes	0	0	2000	0	0			0	0			1				0	
6.6.1	win	2023-07-07	11:57:45	12:33:59	2168586	5de4eec72cf204481c6e5c1e	4	1	main_slash	11	advance_on_keypress_SLASH	122	stimuli_target_trianglesquares.svg	stimuli_distractor_diamondtriangles.svg	22	yes	57	0	1065	0	0			0	0			1				0	
6.6.1	win	2023-07-07	11:57:45	12:34:01	2170385	5de4eec72cf204481c6e5c1e	4	1	main_slash	11	main_slash	123	stimuli_distractor_trianglediamonds.svg	stimuli_distractor_trianglediamonds.svg	34	no	53	0	77	0	0			0	0			1				0	
6.6.1	win	2023-07-07	11:57:45	12:34:01	2170385	5de4eec72cf204481c6e5c1e	4	1	main_slash	11	advance_on_keypress_SLASH	124	stimuli_distractor_trianglediamonds.svg	stimuli_distractor_trianglediamonds.svg	34	no	57	0	3008	0	0			0	0			1				0	
6.6.1	win	2023-07-07	11:57:45	12:34:05	2174236	5de4eec72cf204481c6e5c1e	4	1	main_slash	11	main_slash	125	stimuli_distractor_trianglediamonds.svg	stimuli_target_rectanglediamonds.svg	10	yes	53	1	200	0	0			0	0			1				0	
6.6.1	win	2023-07-07	11:57:45	12:34:05	2174236	5de4eec72cf204481c6e5c1e	4	1	main_slash	11	advance_on_keypress_SLASH	126	stimuli_distractor_trianglediamonds.svg	stimuli_target_rectanglediamonds.svg	10	yes	57	0	530	0	0			0	0			1				0	
6.6.1	win	2023-07-07	11:57:45	12:34:06	2175656	5de4eec72cf204481c6e5c1e	4	1	main_slash	11	main_slash	127	stimuli_target_trianglesquares.svg	stimuli_distractor_trianglediamonds.svg	18	yes	53	1	254	0	0			0	0			1				0	
6.6.1	win	2023-07-07	11:57:45	12:34:06	2175656	5de4eec72cf204481c6e5c1e	4	1	main_slash	11	advance_on_keypress_SLASH	128	stimuli_target_trianglesquares.svg	stimuli_distractor_trianglediamonds.svg	18	yes	57	0	540	0	0			0	0			1				0	
6.6.1	win	2023-07-07	11:57:45	12:34:08	2177152	5de4eec72cf204481c6e5c1e	4	1	main_slash	11	main_slash	129	stimuli_distractor_trianglediamonds.svg	stimuli_target_diamondrectangles.svg	27	yes	53	1	302	0	0			0	0			1				0	
6.6.1	win	2023-07-07	11:57:45	12:34:08	2177152	5de4eec72cf204481c6e5c1e	4	1	main_slash	11	advance_on_keypress_SLASH	130	stimuli_distractor_trianglediamonds.svg	stimuli_target_diamondrectangles.svg	27	yes	57	0	453	0	0			0	0			1				0	
6.6.1	win	2023-07-07	11:57:45	12:34:09	2178476	5de4eec72cf204481c6e5c1e	4	1	main_slash	11	main_slash	131	stimuli_distractor_diamondtriangles.svg	stimuli_distractor_trianglediamonds.svg	37	no	53	0	226	0	0			0	0			1				0	
6.6.1	win	2023-07-07	11:57:45	12:34:09	2178476	5de4eec72cf204481c6e5c1e	4	1	main_slash	11	advance_on_keypress_SLASH	132	stimuli_distractor_diamondtriangles.svg	stimuli_distractor_trianglediamonds.svg	37	no	57	0	26603	0	0			0	0			1				0	
6.6.1	win	2023-07-07	11:57:45	12:34:37	2206012	5de4eec72cf204481c6e5c1e	4	1	main_slash	11	main_slash	133	stimuli_distractor_diamondtriangles.svg	stimuli_target_squarediamonds.svg	16	yes	53	1	295	0	0			0	0			1				0	
6.6.1	win	2023-07-07	11:57:45	12:34:37	2206012	5de4eec72cf204481c6e5c1e	4	1	main_slash	11	advance_on_keypress_SLASH	134	stimuli_distractor_diamondtriangles.svg	stimuli_target_squarediamonds.svg	16	yes	57	0	489	0	0			0	0			1				0	
6.6.1	win	2023-07-07	11:57:45	12:34:38	2207347	5de4eec72cf204481c6e5c1e	4	1	main_slash	11	main_slash	135	stimuli_distractor_diamondtriangles.svg	stimuli_distractor_diamondtriangles.svg	39	no	53	0	213	0	0			0	0			1				0	
6.6.1	win	2023-07-07	11:57:45	12:34:38	2207347	5de4eec72cf204481c6e5c1e	4	1	main_slash	11	advance_on_keypress_SLASH	136	stimuli_distractor_diamondtriangles.svg	stimuli_distractor_diamondtriangles.svg	39	no	57	0	544	0	0			0	0			1				0	
6.6.1	win	2023-07-07	11:57:45	12:34:41	2210546	5de4eec72cf204481c6e5c1e	4	1	main_slash	11	main_slash	137	stimuli_distractor_trianglediamonds.svg	stimuli_distractor_diamondtriangles.svg	36	no	0	1	2000	0	0			0	0			1				0	
6.6.1	win	2023-07-07	11:57:45	12:34:41	2210546	5de4eec72cf204481c6e5c1e	4	1	main_slash	11	advance_on_keypress_SLASH	138	stimuli_distractor_trianglediamonds.svg	stimuli_distractor_diamondtriangles.svg	36	no	57	0	290	0	0			0	0			1				0	
6.6.1	win	2023-07-07	11:57:45	12:34:43	2211952	5de4eec72cf204481c6e5c1e	4	1	main_slash	11	main_slash	139	stimuli_target_rectanglediamonds.svg	stimuli_distractor_trianglediamonds.svg	2	yes	53	1	468	0	0			0	0			1				0	
6.6.1	win	2023-07-07	11:57:45	12:34:43	2211952	5de4eec72cf204481c6e5c1e	4	1	main_slash	11	advance_on_keypress_SLASH	140	stimuli_target_rectanglediamonds.svg	stimuli_distractor_trianglediamonds.svg	2	yes	57	0	491	0	0			0	0			1				0	
6.6.1	win	2023-07-07	11:57:45	12:34:44	2213627	5de4eec72cf204481c6e5c1e	4	1	main_slash	11	main_slash	141	stimuli_target_diamondsquares.svg	stimuli_distractor_diamondtriangles.svg	24	yes	53	1	532	0	0			0	0			1				0	
6.6.1	win	2023-07-07	11:57:45	12:34:44	2213627	5de4eec72cf204481c6e5c1e	4	1	main_slash	11	advance_on_keypress_SLASH	142	stimuli_target_diamondsquares.svg	stimuli_distractor_diamondtriangles.svg	24	yes	57	0	450	0	0			0	0			1				0	
6.6.1	win	2023-07-07	11:57:45	12:34:46	2214988	5de4eec72cf204481c6e5c1e	4	1	main_slash	11	main_slash	143	stimuli_distractor_diamondtriangles.svg	stimuli_target_diamondsquares.svg	32	yes	53	1	271	0	0			0	0			1				0	
6.6.1	win	2023-07-07	11:57:45	12:34:46	2214988	5de4eec72cf204481c6e5c1e	4	1	main_slash	11	advance_on_keypress_SLASH	144	stimuli_distractor_diamondtriangles.svg	stimuli_target_diamondsquares.svg	32	yes	57	0	460	0	0			0	0			1				0	
6.6.1	win	2023-07-07	11:57:45	12:34:47	2216291	5de4eec72cf204481c6e5c1e	4	1	main_slash	11	main_slash	145	stimuli_distractor_diamondtriangles.svg	stimuli_distractor_trianglediamonds.svg	38	no	53	0	196	0	0			0	0			1				0	
6.6.1	win	2023-07-07	11:57:45	12:34:47	2216291	5de4eec72cf204481c6e5c1e	4	1	main_slash	11	advance_on_keypress_SLASH	146	stimuli_distractor_diamondtriangles.svg	stimuli_distractor_trianglediamonds.svg	38	no	57	0	1623	0	0			0	0			1				0	
6.6.1	win	2023-07-07	11:57:45	12:34:50	2218806	5de4eec72cf204481c6e5c1e	4	1	main_slash	11	main_slash	147	stimuli_target_squarediamonds.svg	stimuli_distractor_trianglediamonds.svg	4	yes	53	1	239	0	0			0	0			1				0	
6.6.1	win	2023-07-07	11:57:45	12:34:50	2218806	5de4eec72cf204481c6e5c1e	4	1	main_slash	11	advance_on_keypress_SLASH	148	stimuli_target_squarediamonds.svg	stimuli_distractor_trianglediamonds.svg	4	yes	57	0	484	0	0			0	0			1				0	
6.6.1	win	2023-07-07	11:57:45	12:34:51	2220604	5de4eec72cf204481c6e5c1e	4	1	main_slash	11	main_slash	149	stimuli_target_diamondrectangles.svg	stimuli_distractor_trianglediamonds.svg	19	yes	53	1	670	0	0			0	0			1				0	
6.6.1	win	2023-07-07	11:57:45	12:34:51	2220604	5de4eec72cf204481c6e5c1e	4	1	main_slash	11	advance_on_keypress_SLASH	150	stimuli_target_diamondrectangles.svg	stimuli_distractor_trianglediamonds.svg	19	yes	57	0	540	0	0			0	0			1				0	
6.6.1	win	2023-07-07	11:57:45	12:34:53	2222067	5de4eec72cf204481c6e5c1e	4	1	main_slash	11	main_slash	151	stimuli_target_squaretriangles.svg	stimuli_distractor_diamondtriangles.svg	7	yes	53	1	256	0	0			0	0			1				0	
6.6.1	win	2023-07-07	11:57:45	12:34:53	2222067	5de4eec72cf204481c6e5c1e	4	1	main_slash	11	advance_on_keypress_SLASH	152	stimuli_target_squaretriangles.svg	stimuli_distractor_diamondtriangles.svg	7	yes	57	0	477	0	0			0	0			1				0	
6.6.1	win	2023-07-07	11:57:45	12:34:55	2223757	5de4eec72cf204481c6e5c1e	4	1	main_slash	11	main_slash	153	stimuli_distractor_trianglediamonds.svg	stimuli_target_trianglerectangles.svg	25	yes	53	1	544	0	0			0	0			1				0	
6.6.1	win	2023-07-07	11:57:45	12:34:55	2223757	5de4eec72cf204481c6e5c1e	4	1	main_slash	11	advance_on_keypress_SLASH	154	stimuli_distractor_trianglediamonds.svg	stimuli_target_trianglerectangles.svg	25	yes	57	0	389	0	0			0	0			1				0	
6.6.1	win	2023-07-07	11:57:45	12:34:56	2225071	5de4eec72cf204481c6e5c1e	4	1	main_slash	11	main_slash	155	stimuli_target_diamondrectangles.svg	stimuli_distractor_diamondtriangles.svg	23	yes	53	1	270	0	0			0	0			1				0	
6.6.1	win	2023-07-07	11:57:45	12:34:56	2225071	5de4eec72cf204481c6e5c1e	4	1	main_slash	11	advance_on_keypress_SLASH	156	stimuli_target_diamondrectangles.svg	stimuli_distractor_diamondtriangles.svg	23	yes	57	0	598	0	0			0	0			1				0	
6.6.1	win	2023-07-07	11:57:45	12:34:57	2226538	5de4eec72cf204481c6e5c1e	4	1	main_slash	11	main_slash	157	stimuli_distractor_diamondtriangles.svg	stimuli_target_rectanglediamonds.svg	14	yes	53	1	221	0	0			0	0			1				0	
6.6.1	win	2023-07-07	11:57:45	12:34:57	2226538	5de4eec72cf204481c6e5c1e	4	1	main_slash	11	advance_on_keypress_SLASH	158	stimuli_distractor_diamondtriangles.svg	stimuli_target_rectanglediamonds.svg	14	yes	57	0	556	0	0			0	0			1				0	
6.6.1	win	2023-07-07	11:57:45	12:34:59	2227793	5de4eec72cf204481c6e5c1e	4	1	main_slash	11	main_slash	159	stimuli_distractor_trianglediamonds.svg	stimuli_target_trianglesquares.svg	26	yes	53	1	59	0	0			0	0			1				0	
6.6.1	win	2023-07-07	11:57:45	12:34:59	2227793	5de4eec72cf204481c6e5c1e	4	1	main_slash	11	advance_on_keypress_SLASH	160	stimuli_distractor_trianglediamonds.svg	stimuli_target_trianglesquares.svg	26	yes	57	0	588	0	0			0	0			1				0	
6.6.1	win	2023-07-07	11:57:45	12:34:59	2227793	5de4eec72cf204481c6e5c1e	4	1	headphonecheck_calibration	14	headphonecheck_calibrationIntro	1	stimuli_distractor_trianglediamonds.svg	stimuli_target_trianglesquares.svg	26	yes	calibrationButton	0	3598	0	0			0	0			1				0	
6.6.1	win	2023-07-07	11:57:45	12:34:59	2227793	5de4eec72cf204481c6e5c1e	4	1	headphonecheck_testphase	15	test_collectResponse	3	stimuli_distractor_trianglediamonds.svg	stimuli_target_trianglesquares.svg	26	yes	first	0	5289	1	1	antiphase_hc_iso.wav	2	0	0			1				0	
6.6.1	win	2023-07-07	11:57:45	12:34:59	2227793	5de4eec72cf204481c6e5c1e	4	1	headphonecheck_testphase	15	test_collectResponse	6	stimuli_distractor_trianglediamonds.svg	stimuli_target_trianglesquares.svg	26	yes	first	1	2157	2	4	antiphase_hc_sio.wav	1	0	0			1				0	
6.6.1	win	2023-07-07	11:57:45	12:34:59	2227793	5de4eec72cf204481c6e5c1e	4	1	headphonecheck_testphase	15	test_collectResponse	9	stimuli_distractor_trianglediamonds.svg	stimuli_target_trianglesquares.svg	26	yes	first	1	364	3	3	antiphase_hc_soi.wav	1	0	0			1				0	
6.6.1	win	2023-07-07	11:57:45	12:34:59	2227793	5de4eec72cf204481c6e5c1e	4	1	headphonecheck_testphase	15	test_collectResponse	12	stimuli_distractor_trianglediamonds.svg	stimuli_target_trianglesquares.svg	26	yes	second	1	358	4	5	antiphase_hc_osi.wav	2	0	0			1				0	
6.6.1	win	2023-07-07	11:57:45	12:34:59	2227793	5de4eec72cf204481c6e5c1e	4	1	headphonecheck_testphase	15	test_collectResponse	15	stimuli_distractor_trianglediamonds.svg	stimuli_target_trianglesquares.svg	26	yes	third	1	446	5	2	antiphase_hc_ios.wav	3	0	0			1				0	
6.6.1	win	2023-07-07	11:57:45	12:34:59	2227793	5de4eec72cf204481c6e5c1e	4	1	headphonecheck_testphase	15	test_collectResponse	18	stimuli_distractor_trianglediamonds.svg	stimuli_target_trianglesquares.svg	26	yes	third	1	363	6	6	antiphase_hc_ois.wav	3	0	0			1				0	
6.6.1	win	2023-07-07	11:57:45	12:34:59	2227793	5de4eec72cf204481c6e5c1e	4	1	stereocheck_calibration	17	stereocheck_calibrationIntro	1	stimuli_distractor_trianglediamonds.svg	stimuli_target_trianglesquares.svg	26	yes	stereocheck_calibrationButton	0	66114	6	6	antiphase_hc_ois.wav	3	0	0			1				0	
6.6.1	win	2023-07-07	11:57:45	12:34:59	2227793	5de4eec72cf204481c6e5c1e	4	1	stereocheck_testphase	18	stereocheck_test_collectResponse	3	stimuli_distractor_trianglediamonds.svg	stimuli_target_trianglesquares.svg	26	yes	stereocheck_right	1	659	6	6	antiphase_hc_ois.wav	3	1	6	noise_calib_stim_RIGHT.wav	2	1				0	
6.6.1	win	2023-07-07	11:57:45	12:34:59	2227793	5de4eec72cf204481c6e5c1e	4	1	stereocheck_testphase	18	stereocheck_test_collectResponse	6	stimuli_distractor_trianglediamonds.svg	stimuli_target_trianglesquares.svg	26	yes	stereocheck_left	1	498	6	6	antiphase_hc_ois.wav	3	2	1	noise_calib_stim_LEFT.wav	1	1				0	
6.6.1	win	2023-07-07	11:57:45	12:34:59	2227793	5de4eec72cf204481c6e5c1e	4	1	stereocheck_testphase	18	stereocheck_test_collectResponse	9	stimuli_distractor_trianglediamonds.svg	stimuli_target_trianglesquares.svg	26	yes	stereocheck_left	1	520	6	6	antiphase_hc_ois.wav	3	3	3	noise_calib_stim_LEFT.wav	1	1				0	
6.6.1	win	2023-07-07	11:57:45	12:34:59	2227793	5de4eec72cf204481c6e5c1e	4	1	stereocheck_testphase	18	stereocheck_test_collectResponse	12	stimuli_distractor_trianglediamonds.svg	stimuli_target_trianglesquares.svg	26	yes	stereocheck_left	1	655	6	6	antiphase_hc_ois.wav	3	4	2	noise_calib_stim_LEFT.wav	1	1				0	
6.6.1	win	2023-07-07	11:57:45	12:34:59	2227793	5de4eec72cf204481c6e5c1e	4	1	stereocheck_testphase	18	stereocheck_test_collectResponse	15	stimuli_distractor_trianglediamonds.svg	stimuli_target_trianglesquares.svg	26	yes	stereocheck_right	1	370	6	6	antiphase_hc_ois.wav	3	5	5	noise_calib_stim_RIGHT.wav	2	1				0	
6.6.1	win	2023-07-07	11:57:45	12:34:59	2227793	5de4eec72cf204481c6e5c1e	4	1	stereocheck_testphase	18	stereocheck_test_collectResponse	18	stimuli_distractor_trianglediamonds.svg	stimuli_target_trianglesquares.svg	26	yes	stereocheck_right	1	466	6	6	antiphase_hc_ois.wav	3	6	4	noise_calib_stim_RIGHT.wav	2	1				0	
6.6.1	win	2023-07-07	11:57:45	12:34:59	2227793	5de4eec72cf204481c6e5c1e	4	1	DL_practice	21	DL_practice	2	stimuli_distractor_trianglediamonds.svg	stimuli_target_trianglesquares.svg	26	yes	ta	1	1588	6	6	antiphase_hc_ois.wav	3	6	4	noise_calib_stim_RIGHT.wav	2	36	blb_dichoticlistening_ta-ta.mp3	ta	ta	0	left
6.6.1	win	2023-07-07	11:57:45	12:34:59	2227793	5de4eec72cf204481c6e5c1e	4	1	DL_practice	21	DL_practice	3	stimuli_distractor_trianglediamonds.svg	stimuli_target_trianglesquares.svg	26	yes	da	0	1761	6	6	antiphase_hc_ois.wav	3	6	4	noise_calib_stim_RIGHT.wav	2	15	blb_dichoticlistening_ga-ga.mp3	ga	ga	0	other
6.6.1	win	2023-07-07	11:57:45	12:34:59	2227793	5de4eec72cf204481c6e5c1e	4	1	DL_practice	21	DL_practice	4	stimuli_distractor_trianglediamonds.svg	stimuli_target_trianglesquares.svg	26	yes	ka	0	1482	6	6	antiphase_hc_ois.wav	3	6	4	noise_calib_stim_RIGHT.wav	2	18	blb_dichoticlistening_ga-ta.mp3	ga	ta	1	other
6.6.1	win	2023-07-07	11:57:45	12:34:59	2227793	5de4eec72cf204481c6e5c1e	4	1	DL_practice	21	DL_practice	5	stimuli_distractor_trianglediamonds.svg	stimuli_target_trianglesquares.svg	26	yes	ka	1	974	6	6	antiphase_hc_ois.wav	3	6	4	noise_calib_stim_RIGHT.wav	2	22	blb_dichoticlistening_ka-ka.mp3	ka	ka	0	left
6.6.1	win	2023-07-07	11:57:45	12:34:59	2227793	5de4eec72cf204481c6e5c1e	4	1	DL_practice	21	DL_practice	6	stimuli_distractor_trianglediamonds.svg	stimuli_target_trianglesquares.svg	26	yes	ba	1	1336	6	6	antiphase_hc_ois.wav	3	6	4	noise_calib_stim_RIGHT.wav	2	1	blb_dichoticlistening_ba-ba.mp3	ba	ba	0	left
6.6.1	win	2023-07-07	11:57:45	12:34:59	2227793	5de4eec72cf204481c6e5c1e	4	1	DL_practice	21	DL_practice	7	stimuli_distractor_trianglediamonds.svg	stimuli_target_trianglesquares.svg	26	yes	da	1	1564	6	6	antiphase_hc_ois.wav	3	6	4	noise_calib_stim_RIGHT.wav	2	8	blb_dichoticlistening_da-da.mp3	da	da	0	left
6.6.1	win	2023-07-07	11:57:45	12:34:59	2227793	5de4eec72cf204481c6e5c1e	4	1	DL_practice	21	DL_practice	8	stimuli_distractor_trianglediamonds.svg	stimuli_target_trianglesquares.svg	26	yes	ka	1	2364	6	6	antiphase_hc_ois.wav	3	6	4	noise_calib_stim_RIGHT.wav	2	23	blb_dichoticlistening_ka-pa.mp3	ka	pa	1	left
6.6.1	win	2023-07-07	11:57:45	12:34:59	2227793	5de4eec72cf204481c6e5c1e	4	1	DL_practice	21	DL_practice	9	stimuli_distractor_trianglediamonds.svg	stimuli_target_trianglesquares.svg	26	yes	ba	1	1491	6	6	antiphase_hc_ois.wav	3	6	4	noise_calib_stim_RIGHT.wav	2	7	blb_dichoticlistening_da-ba.mp3	da	ba	1	right
6.6.1	win	2023-07-07	11:57:45	12:34:59	2227793	5de4eec72cf204481c6e5c1e	4	1	DL_practice	21	DL_practice	10	stimuli_distractor_trianglediamonds.svg	stimuli_target_trianglesquares.svg	26	yes	pa	1	2479	6	6	antiphase_hc_ois.wav	3	6	4	noise_calib_stim_RIGHT.wav	2	29	blb_dichoticlistening_pa-pa.mp3	pa	pa	0	left
6.6.1	win	2023-07-07	11:57:45	12:34:59	2227793	5de4eec72cf204481c6e5c1e	4	1	DL_test	23	DL_test	1	stimuli_distractor_trianglediamonds.svg	stimuli_target_trianglesquares.svg	26	yes	da	1	1219	6	6	antiphase_hc_ois.wav	3	6	4	noise_calib_stim_RIGHT.wav	2	8	blb_dichoticlistening_da-da.mp3	da	da	0	left
6.6.1	win	2023-07-07	11:57:45	12:34:59	2227793	5de4eec72cf204481c6e5c1e	4	1	DL_test	23	DL_test	2	stimuli_distractor_trianglediamonds.svg	stimuli_target_trianglesquares.svg	26	yes	da	1	975	6	6	antiphase_hc_ois.wav	3	6	4	noise_calib_stim_RIGHT.wav	2	2	blb_dichoticlistening_ba-da.mp3	ba	da	1	right
6.6.1	win	2023-07-07	11:57:45	12:34:59	2227793	5de4eec72cf204481c6e5c1e	4	1	DL_test	23	DL_test	3	stimuli_distractor_trianglediamonds.svg	stimuli_target_trianglesquares.svg	26	yes	pa	1	1039	6	6	antiphase_hc_ois.wav	3	6	4	noise_calib_stim_RIGHT.wav	2	35	blb_dichoticlistening_ta-pa.mp3	ta	pa	1	right
6.6.1	win	2023-07-07	11:57:45	12:34:59	2227793	5de4eec72cf204481c6e5c1e	4	1	DL_test	23	DL_test	4	stimuli_distractor_trianglediamonds.svg	stimuli_target_trianglesquares.svg	26	yes	ka	1	793	6	6	antiphase_hc_ois.wav	3	6	4	noise_calib_stim_RIGHT.wav	2	19	blb_dichoticlistening_ka-ba.mp3	ka	ba	1	left
6.6.1	win	2023-07-07	11:57:45	12:34:59	2227793	5de4eec72cf204481c6e5c1e	4	1	DL_test	23	DL_test	5	stimuli_distractor_trianglediamonds.svg	stimuli_target_trianglesquares.svg	26	yes	pa	1	802	6	6	antiphase_hc_ois.wav	3	6	4	noise_calib_stim_RIGHT.wav	2	5	blb_dichoticlistening_ba-pa.mp3	ba	pa	1	right
6.6.1	win	2023-07-07	11:57:45	12:34:59	2227793	5de4eec72cf204481c6e5c1e	4	1	DL_test	23	DL_test	6	stimuli_distractor_trianglediamonds.svg	stimuli_target_trianglesquares.svg	26	yes	ga	1	1156	6	6	antiphase_hc_ois.wav	3	6	4	noise_calib_stim_RIGHT.wav	2	3	blb_dichoticlistening_ba-ga.mp3	ba	ga	1	right
6.6.1	win	2023-07-07	11:57:45	12:34:59	2227793	5de4eec72cf204481c6e5c1e	4	1	DL_test	23	DL_test	7	stimuli_distractor_trianglediamonds.svg	stimuli_target_trianglesquares.svg	26	yes	ga	1	1291	6	6	antiphase_hc_ois.wav	3	6	4	noise_calib_stim_RIGHT.wav	2	27	blb_dichoticlistening_pa-ga.mp3	pa	ga	1	right
6.6.1	win	2023-07-07	11:57:45	12:34:59	2227793	5de4eec72cf204481c6e5c1e	4	1	DL_test	23	DL_test	8	stimuli_distractor_trianglediamonds.svg	stimuli_target_trianglesquares.svg	26	yes	ka	0	3587	6	6	antiphase_hc_ois.wav	3	6	4	noise_calib_stim_RIGHT.wav	2	26	blb_dichoticlistening_pa-da.mp3	pa	da	1	other
6.6.1	win	2023-07-07	11:57:45	12:34:59	2227793	5de4eec72cf204481c6e5c1e	4	1	DL_test	23	DL_test	9	stimuli_distractor_trianglediamonds.svg	stimuli_target_trianglesquares.svg	26	yes	ka	1	1019	6	6	antiphase_hc_ois.wav	3	6	4	noise_calib_stim_RIGHT.wav	2	28	blb_dichoticlistening_pa-ka.mp3	pa	ka	1	right
6.6.1	win	2023-07-07	11:57:45	12:34:59	2227793	5de4eec72cf204481c6e5c1e	4	1	DL_test	23	DL_test	10	stimuli_distractor_trianglediamonds.svg	stimuli_target_trianglesquares.svg	26	yes	ba	1	1324	6	6	antiphase_hc_ois.wav	3	6	4	noise_calib_stim_RIGHT.wav	2	13	blb_dichoticlistening_ga-ba.mp3	ga	ba	1	right
6.6.1	win	2023-07-07	11:57:45	12:34:59	2227793	5de4eec72cf204481c6e5c1e	4	1	DL_test	23	DL_test	11	stimuli_distractor_trianglediamonds.svg	stimuli_target_trianglesquares.svg	26	yes	pa	0	1282	6	6	antiphase_hc_ois.wav	3	6	4	noise_calib_stim_RIGHT.wav	2	10	blb_dichoticlistening_da-ka.mp3	da	ka	1	other
6.6.1	win	2023-07-07	11:57:45	12:34:59	2227793	5de4eec72cf204481c6e5c1e	4	1	DL_test	23	DL_test	12	stimuli_distractor_trianglediamonds.svg	stimuli_target_trianglesquares.svg	26	yes	ga	1	1223	6	6	antiphase_hc_ois.wav	3	6	4	noise_calib_stim_RIGHT.wav	2	9	blb_dichoticlistening_da-ga.mp3	da	ga	1	right
6.6.1	win	2023-07-07	11:57:45	12:34:59	2227793	5de4eec72cf204481c6e5c1e	4	1	DL_test	23	DL_test	13	stimuli_distractor_trianglediamonds.svg	stimuli_target_trianglesquares.svg	26	yes	ka	0	1215	6	6	antiphase_hc_ois.wav	3	6	4	noise_calib_stim_RIGHT.wav	2	6	blb_dichoticlistening_ba-ta.mp3	ba	ta	1	other
6.6.1	win	2023-07-07	11:57:45	12:34:59	2227793	5de4eec72cf204481c6e5c1e	4	1	DL_test	23	DL_test	14	stimuli_distractor_trianglediamonds.svg	stimuli_target_trianglesquares.svg	26	yes	pa	1	2838	6	6	antiphase_hc_ois.wav	3	6	4	noise_calib_stim_RIGHT.wav	2	17	blb_dichoticlistening_ga-pa.mp3	ga	pa	1	right
6.6.1	win	2023-07-07	11:57:45	12:34:59	2227793	5de4eec72cf204481c6e5c1e	4	1	DL_test	23	DL_test	15	stimuli_distractor_trianglediamonds.svg	stimuli_target_trianglesquares.svg	26	yes	ba	1	1317	6	6	antiphase_hc_ois.wav	3	6	4	noise_calib_stim_RIGHT.wav	2	1	blb_dichoticlistening_ba-ba.mp3	ba	ba	0	left
6.6.1	win	2023-07-07	11:57:45	12:34:59	2227793	5de4eec72cf204481c6e5c1e	4	1	DL_test	23	DL_test	16	stimuli_distractor_trianglediamonds.svg	stimuli_target_trianglesquares.svg	26	yes	ka	1	1141	6	6	antiphase_hc_ois.wav	3	6	4	noise_calib_stim_RIGHT.wav	2	22	blb_dichoticlistening_ka-ka.mp3	ka	ka	0	left
6.6.1	win	2023-07-07	11:57:45	12:34:59	2227793	5de4eec72cf204481c6e5c1e	4	1	DL_test	23	DL_test	17	stimuli_distractor_trianglediamonds.svg	stimuli_target_trianglesquares.svg	26	yes	ka	1	1119	6	6	antiphase_hc_ois.wav	3	6	4	noise_calib_stim_RIGHT.wav	2	24	blb_dichoticlistening_ka-ta.mp3	ka	ta	1	left
6.6.1	win	2023-07-07	11:57:45	12:34:59	2227793	5de4eec72cf204481c6e5c1e	4	1	DL_test	23	DL_test	18	stimuli_distractor_trianglediamonds.svg	stimuli_target_trianglesquares.svg	26	yes	ka	0	951	6	6	antiphase_hc_ois.wav	3	6	4	noise_calib_stim_RIGHT.wav	2	18	blb_dichoticlistening_ga-ta.mp3	ga	ta	1	other
6.6.1	win	2023-07-07	11:57:45	12:34:59	2227793	5de4eec72cf204481c6e5c1e	4	1	DL_test	23	DL_test	19	stimuli_distractor_trianglediamonds.svg	stimuli_target_trianglesquares.svg	26	yes	ta	1	1863	6	6	antiphase_hc_ois.wav	3	6	4	noise_calib_stim_RIGHT.wav	2	36	blb_dichoticlistening_ta-ta.mp3	ta	ta	0	left
6.6.1	win	2023-07-07	11:57:45	12:34:59	2227793	5de4eec72cf204481c6e5c1e	4	1	DL_test	23	DL_test	20	stimuli_distractor_trianglediamonds.svg	stimuli_target_trianglesquares.svg	26	yes	ka	0	1044	6	6	antiphase_hc_ois.wav	3	6	4	noise_calib_stim_RIGHT.wav	2	32	blb_dichoticlistening_ta-da.mp3	ta	da	1	other
6.6.1	win	2023-07-07	11:57:45	12:34:59	2227793	5de4eec72cf204481c6e5c1e	4	1	DL_test	23	DL_test	21	stimuli_distractor_trianglediamonds.svg	stimuli_target_trianglesquares.svg	26	yes	ka	0	2005	6	6	antiphase_hc_ois.wav	3	6	4	noise_calib_stim_RIGHT.wav	2	25	blb_dichoticlistening_pa-ba.mp3	pa	ba	1	other
6.6.1	win	2023-07-07	11:57:45	12:34:59	2227793	5de4eec72cf204481c6e5c1e	4	1	DL_test	23	DL_test	22	stimuli_distractor_trianglediamonds.svg	stimuli_target_trianglesquares.svg	26	yes	ka	0	1293	6	6	antiphase_hc_ois.wav	3	6	4	noise_calib_stim_RIGHT.wav	2	31	blb_dichoticlistening_ta-ba.mp3	ta	ba	1	other
6.6.1	win	2023-07-07	11:57:45	12:34:59	2227793	5de4eec72cf204481c6e5c1e	4	1	DL_test	23	DL_test	23	stimuli_distractor_trianglediamonds.svg	stimuli_target_trianglesquares.svg	26	yes	ga	1	1241	6	6	antiphase_hc_ois.wav	3	6	4	noise_calib_stim_RIGHT.wav	2	33	blb_dichoticlistening_ta-ga.mp3	ta	ga	1	right
6.6.1	win	2023-07-07	11:57:45	12:34:59	2227793	5de4eec72cf204481c6e5c1e	4	1	DL_test	23	DL_test	24	stimuli_distractor_trianglediamonds.svg	stimuli_target_trianglesquares.svg	26	yes	ka	1	1285	6	6	antiphase_hc_ois.wav	3	6	4	noise_calib_stim_RIGHT.wav	2	20	blb_dichoticlistening_ka-da.mp3	ka	da	1	left
6.6.1	win	2023-07-07	11:57:45	12:34:59	2227793	5de4eec72cf204481c6e5c1e	4	1	DL_test	23	DL_test	25	stimuli_distractor_trianglediamonds.svg	stimuli_target_trianglesquares.svg	26	yes	ga	1	856	6	6	antiphase_hc_ois.wav	3	6	4	noise_calib_stim_RIGHT.wav	2	15	blb_dichoticlistening_ga-ga.mp3	ga	ga	0	left
