build	computer.platform	date	time	timestamp	time_elapsed_ms	subject	group	session	blockcode	blocknum	trialcode	trialnum	stimulus_left	stimulus_right	stim_index	target_present	response	correct	latency	headphonecheck_countTestTrials	headphonecheck_index	headphonecheck_testSound	headphonecheck_correctResponse	stereocheck_countTestTrials	stereocheck_index	stereocheck_testSound	stereocheck_correctResponse	DL_index	DL_soundfile	DL_leftSound	DL_rightSound	DL_dualSound	DL_choice
6.6.1	win	2023-07-10	18:49:00	18:51:17	130507	5ed3f7c5c739ce0a04ce3df5	3	1	practice_slash	5	practice_slash	1	stimuli_distractor_diamondtriangles.svg	stimuli_distractor_diamondtriangles.svg	13	no	53	0	515	0	0			0	0			1				0	
6.6.1	win	2023-07-10	18:49:00	18:51:17	130507	5ed3f7c5c739ce0a04ce3df5	3	1	practice_slash	5	advance_on_keypress_SLASH	2	stimuli_distractor_diamondtriangles.svg	stimuli_distractor_diamondtriangles.svg	13	no	57	0	586	0	0			0	0			1				0	
6.6.1	win	2023-07-10	18:49:00	18:51:22	134773	5ed3f7c5c739ce0a04ce3df5	3	1	practice_slash	5	practice_slash	3	stimuli_distractor_diamondtriangles.svg	stimuli_distractor_trianglediamonds.svg	14	no	0	1	2000	0	0			0	0			1				0	
6.6.1	win	2023-07-10	18:49:00	18:51:22	134773	5ed3f7c5c739ce0a04ce3df5	3	1	practice_slash	5	advance_on_keypress_SLASH	4	stimuli_distractor_diamondtriangles.svg	stimuli_distractor_trianglediamonds.svg	14	no	57	0	1107	0	0			0	0			1				0	
6.6.1	win	2023-07-10	18:49:00	18:51:25	137810	5ed3f7c5c739ce0a04ce3df5	3	1	practice_slash	5	practice_slash	5	stimuli_target_rectanglediamonds.svg	stimuli_distractor_diamondtriangles.svg	1	yes	53	1	274	0	0			0	0			1				0	
6.6.1	win	2023-07-10	18:49:00	18:51:25	137810	5ed3f7c5c739ce0a04ce3df5	3	1	practice_slash	5	advance_on_keypress_SLASH	6	stimuli_target_rectanglediamonds.svg	stimuli_distractor_diamondtriangles.svg	1	yes	57	0	753	0	0			0	0			1				0	
6.6.1	win	2023-07-10	18:49:00	18:51:27	140479	5ed3f7c5c739ce0a04ce3df5	3	1	practice_slash	5	practice_slash	7	stimuli_target_rectanglediamonds.svg	stimuli_distractor_trianglediamonds.svg	4	yes	53	1	261	0	0			0	0			1				0	
6.6.1	win	2023-07-10	18:49:00	18:51:27	140479	5ed3f7c5c739ce0a04ce3df5	3	1	practice_slash	5	advance_on_keypress_SLASH	8	stimuli_target_rectanglediamonds.svg	stimuli_distractor_trianglediamonds.svg	4	yes	57	0	873	0	0			0	0			1				0	
6.6.1	win	2023-07-10	18:49:00	18:51:30	143259	5ed3f7c5c739ce0a04ce3df5	3	1	practice_slash	5	practice_slash	9	stimuli_target_diamondsquares.svg	stimuli_distractor_trianglediamonds.svg	6	yes	53	1	243	0	0			0	0			1				0	
6.6.1	win	2023-07-10	18:49:00	18:51:30	143259	5ed3f7c5c739ce0a04ce3df5	3	1	practice_slash	5	advance_on_keypress_SLASH	10	stimuli_target_diamondsquares.svg	stimuli_distractor_trianglediamonds.svg	6	yes	57	0	547	0	0			0	0			1				0	
6.6.1	win	2023-07-10	18:49:00	18:51:32	145684	5ed3f7c5c739ce0a04ce3df5	3	1	practice_slash	5	practice_slash	11	stimuli_target_squarediamonds.svg	stimuli_distractor_trianglediamonds.svg	5	yes	53	1	221	0	0			0	0			1				0	
6.6.1	win	2023-07-10	18:49:00	18:51:32	145684	5ed3f7c5c739ce0a04ce3df5	3	1	practice_slash	5	advance_on_keypress_SLASH	12	stimuli_target_squarediamonds.svg	stimuli_distractor_trianglediamonds.svg	5	yes	57	0	494	0	0			0	0			1				0	
6.6.1	win	2023-07-10	18:49:00	18:51:35	148239	5ed3f7c5c739ce0a04ce3df5	3	1	practice_slash	5	practice_slash	13	stimuli_distractor_trianglediamonds.svg	stimuli_target_diamondrectangles.svg	12	yes	53	1	411	0	0			0	0			1				0	
6.6.1	win	2023-07-10	18:49:00	18:51:35	148239	5ed3f7c5c739ce0a04ce3df5	3	1	practice_slash	5	advance_on_keypress_SLASH	14	stimuli_distractor_trianglediamonds.svg	stimuli_target_diamondrectangles.svg	12	yes	57	0	444	0	0			0	0			1				0	
6.6.1	win	2023-07-10	18:49:00	18:51:39	152344	5ed3f7c5c739ce0a04ce3df5	3	1	practice_slash	5	practice_slash	15	stimuli_distractor_trianglediamonds.svg	stimuli_distractor_diamondtriangles.svg	16	no	0	1	2000	0	0			0	0			1				0	
6.6.1	win	2023-07-10	18:49:00	18:51:39	152344	5ed3f7c5c739ce0a04ce3df5	3	1	practice_slash	5	advance_on_keypress_SLASH	16	stimuli_distractor_trianglediamonds.svg	stimuli_distractor_diamondtriangles.svg	16	no	57	0	471	0	0			0	0			1				0	
6.6.1	win	2023-07-10	18:49:00	18:51:42	154880	5ed3f7c5c739ce0a04ce3df5	3	1	practice_slash	5	practice_slash	17	stimuli_distractor_diamondtriangles.svg	stimuli_target_trianglerectangles.svg	9	yes	53	1	406	0	0			0	0			1				0	
6.6.1	win	2023-07-10	18:49:00	18:51:42	154880	5ed3f7c5c739ce0a04ce3df5	3	1	practice_slash	5	advance_on_keypress_SLASH	18	stimuli_distractor_diamondtriangles.svg	stimuli_target_trianglerectangles.svg	9	yes	57	0	593	0	0			0	0			1				0	
6.6.1	win	2023-07-10	18:49:00	18:51:44	157428	5ed3f7c5c739ce0a04ce3df5	3	1	practice_slash	5	practice_slash	19	stimuli_distractor_diamondtriangles.svg	stimuli_target_rectangletriangles.svg	7	yes	53	1	291	0	0			0	0			1				0	
6.6.1	win	2023-07-10	18:49:00	18:51:44	157428	5ed3f7c5c739ce0a04ce3df5	3	1	practice_slash	5	advance_on_keypress_SLASH	20	stimuli_distractor_diamondtriangles.svg	stimuli_target_rectangletriangles.svg	7	yes	57	0	411	0	0			0	0			1				0	
6.6.1	win	2023-07-10	18:49:00	18:51:47	159735	5ed3f7c5c739ce0a04ce3df5	3	1	practice_slash	5	practice_slash	21	stimuli_target_diamondsquares.svg	stimuli_distractor_diamondtriangles.svg	3	yes	53	1	232	0	0			0	0			1				0	
6.6.1	win	2023-07-10	18:49:00	18:51:47	159735	5ed3f7c5c739ce0a04ce3df5	3	1	practice_slash	5	advance_on_keypress_SLASH	22	stimuli_target_diamondsquares.svg	stimuli_distractor_diamondtriangles.svg	3	yes	57	0	419	0	0			0	0			1				0	
6.6.1	win	2023-07-10	18:49:00	18:51:49	162416	5ed3f7c5c739ce0a04ce3df5	3	1	practice_slash	5	practice_slash	23	stimuli_distractor_diamondtriangles.svg	stimuli_target_diamondrectangles.svg	8	yes	53	1	614	0	0			0	0			1				0	
6.6.1	win	2023-07-10	18:49:00	18:51:49	162416	5ed3f7c5c739ce0a04ce3df5	3	1	practice_slash	5	advance_on_keypress_SLASH	24	stimuli_distractor_diamondtriangles.svg	stimuli_target_diamondrectangles.svg	8	yes	57	0	461	0	0			0	0			1				0	
6.6.1	win	2023-07-10	18:49:00	18:51:52	164974	5ed3f7c5c739ce0a04ce3df5	3	1	practice_slash	5	practice_slash	25	stimuli_target_squarediamonds.svg	stimuli_distractor_diamondtriangles.svg	2	yes	53	1	442	0	0			0	0			1				0	
6.6.1	win	2023-07-10	18:49:00	18:51:52	164974	5ed3f7c5c739ce0a04ce3df5	3	1	practice_slash	5	advance_on_keypress_SLASH	26	stimuli_target_squarediamonds.svg	stimuli_distractor_diamondtriangles.svg	2	yes	57	0	366	0	0			0	0			1				0	
6.6.1	win	2023-07-10	18:49:00	18:51:54	167296	5ed3f7c5c739ce0a04ce3df5	3	1	practice_slash	5	practice_slash	27	stimuli_distractor_trianglediamonds.svg	stimuli_target_rectanglediamonds.svg	10	yes	53	1	298	0	0			0	0			1				0	
6.6.1	win	2023-07-10	18:49:00	18:51:54	167296	5ed3f7c5c739ce0a04ce3df5	3	1	practice_slash	5	advance_on_keypress_SLASH	28	stimuli_distractor_trianglediamonds.svg	stimuli_target_rectanglediamonds.svg	10	yes	57	0	382	0	0			0	0			1				0	
6.6.1	win	2023-07-10	18:49:00	18:51:57	170115	5ed3f7c5c739ce0a04ce3df5	3	1	practice_slash	5	practice_slash	29	stimuli_distractor_trianglediamonds.svg	stimuli_distractor_trianglediamonds.svg	15	no	53	0	786	0	0			0	0			1				0	
6.6.1	win	2023-07-10	18:49:00	18:51:57	170115	5ed3f7c5c739ce0a04ce3df5	3	1	practice_slash	5	advance_on_keypress_SLASH	30	stimuli_distractor_trianglediamonds.svg	stimuli_distractor_trianglediamonds.svg	15	no	57	0	396	0	0			0	0			1				0	
6.6.1	win	2023-07-10	18:49:00	18:51:59	172444	5ed3f7c5c739ce0a04ce3df5	3	1	practice_slash	5	practice_slash	31	stimuli_distractor_trianglediamonds.svg	stimuli_target_squarediamonds.svg	11	yes	53	1	285	0	0			0	0			1				0	
6.6.1	win	2023-07-10	18:49:00	18:51:59	172444	5ed3f7c5c739ce0a04ce3df5	3	1	practice_slash	5	advance_on_keypress_SLASH	32	stimuli_distractor_trianglediamonds.svg	stimuli_target_squarediamonds.svg	11	yes	57	0	390	0	0			0	0			1				0	
6.6.1	win	2023-07-10	18:49:00	18:52:06	179087	5ed3f7c5c739ce0a04ce3df5	3	1	main_slash	7	main_slash	1	stimuli_target_rectanglediamonds.svg	stimuli_distractor_trianglediamonds.svg	2	yes	53	1	302	0	0			0	0			1				0	
6.6.1	win	2023-07-10	18:49:00	18:52:06	179087	5ed3f7c5c739ce0a04ce3df5	3	1	main_slash	7	advance_on_keypress_SLASH	2	stimuli_target_rectanglediamonds.svg	stimuli_distractor_trianglediamonds.svg	2	yes	57	0	876	0	0			0	0			1				0	
6.6.1	win	2023-07-10	18:49:00	18:52:08	180873	5ed3f7c5c739ce0a04ce3df5	3	1	main_slash	7	main_slash	3	stimuli_distractor_diamondtriangles.svg	stimuli_target_trianglesquares.svg	30	yes	53	1	257	0	0			0	0			1				0	
6.6.1	win	2023-07-10	18:49:00	18:52:08	180873	5ed3f7c5c739ce0a04ce3df5	3	1	main_slash	7	advance_on_keypress_SLASH	4	stimuli_distractor_diamondtriangles.svg	stimuli_target_trianglesquares.svg	30	yes	57	0	867	0	0			0	0			1				0	
6.6.1	win	2023-07-10	18:49:00	18:52:10	182890	5ed3f7c5c739ce0a04ce3df5	3	1	main_slash	7	main_slash	5	stimuli_distractor_trianglediamonds.svg	stimuli_target_diamondrectangles.svg	27	yes	53	1	505	0	0			0	0			1				0	
6.6.1	win	2023-07-10	18:49:00	18:52:10	182890	5ed3f7c5c739ce0a04ce3df5	3	1	main_slash	7	advance_on_keypress_SLASH	6	stimuli_distractor_trianglediamonds.svg	stimuli_target_diamondrectangles.svg	27	yes	57	0	927	0	0			0	0			1				0	
6.6.1	win	2023-07-10	18:49:00	18:52:12	185062	5ed3f7c5c739ce0a04ce3df5	3	1	main_slash	7	main_slash	7	stimuli_target_diamondsquares.svg	stimuli_distractor_trianglediamonds.svg	20	yes	53	1	582	0	0			0	0			1				0	
6.6.1	win	2023-07-10	18:49:00	18:52:12	185062	5ed3f7c5c739ce0a04ce3df5	3	1	main_slash	7	advance_on_keypress_SLASH	8	stimuli_target_diamondsquares.svg	stimuli_distractor_trianglediamonds.svg	20	yes	57	0	684	0	0			0	0			1				0	
6.6.1	win	2023-07-10	18:49:00	18:52:14	186802	5ed3f7c5c739ce0a04ce3df5	3	1	main_slash	7	main_slash	9	stimuli_target_trianglerectangles.svg	stimuli_distractor_diamondtriangles.svg	21	yes	53	1	408	0	0			0	0			1				0	
6.6.1	win	2023-07-10	18:49:00	18:52:14	186802	5ed3f7c5c739ce0a04ce3df5	3	1	main_slash	7	advance_on_keypress_SLASH	10	stimuli_target_trianglerectangles.svg	stimuli_distractor_diamondtriangles.svg	21	yes	57	0	719	0	0			0	0			1				0	
6.6.1	win	2023-07-10	18:49:00	18:52:15	188595	5ed3f7c5c739ce0a04ce3df5	3	1	main_slash	7	main_slash	11	stimuli_distractor_diamondtriangles.svg	stimuli_target_squarediamonds.svg	16	yes	53	1	435	0	0			0	0			1				0	
6.6.1	win	2023-07-10	18:49:00	18:52:15	188595	5ed3f7c5c739ce0a04ce3df5	3	1	main_slash	7	advance_on_keypress_SLASH	12	stimuli_distractor_diamondtriangles.svg	stimuli_target_squarediamonds.svg	16	yes	57	0	907	0	0			0	0			1				0	
6.6.1	win	2023-07-10	18:49:00	18:52:17	190493	5ed3f7c5c739ce0a04ce3df5	3	1	main_slash	7	main_slash	13	stimuli_target_squaretriangles.svg	stimuli_distractor_trianglediamonds.svg	3	yes	53	1	334	0	0			0	0			1				0	
6.6.1	win	2023-07-10	18:49:00	18:52:17	190493	5ed3f7c5c739ce0a04ce3df5	3	1	main_slash	7	advance_on_keypress_SLASH	14	stimuli_target_squaretriangles.svg	stimuli_distractor_trianglediamonds.svg	3	yes	57	0	751	0	0			0	0			1				0	
6.6.1	win	2023-07-10	18:49:00	18:52:20	192788	5ed3f7c5c739ce0a04ce3df5	3	1	main_slash	7	main_slash	15	stimuli_distractor_trianglediamonds.svg	stimuli_distractor_diamondtriangles.svg	36	no	53	0	898	0	0			0	0			1				0	
6.6.1	win	2023-07-10	18:49:00	18:52:20	192788	5ed3f7c5c739ce0a04ce3df5	3	1	main_slash	7	advance_on_keypress_SLASH	16	stimuli_distractor_trianglediamonds.svg	stimuli_distractor_diamondtriangles.svg	36	no	57	0	614	0	0			0	0			1				0	
6.6.1	win	2023-07-10	18:49:00	18:52:22	194731	5ed3f7c5c739ce0a04ce3df5	3	1	main_slash	7	main_slash	17	stimuli_distractor_trianglediamonds.svg	stimuli_target_rectangletriangles.svg	9	yes	53	1	675	0	0			0	0			1				0	
6.6.1	win	2023-07-10	18:49:00	18:52:22	194731	5ed3f7c5c739ce0a04ce3df5	3	1	main_slash	7	advance_on_keypress_SLASH	18	stimuli_distractor_trianglediamonds.svg	stimuli_target_rectangletriangles.svg	9	yes	57	0	838	0	0			0	0			1				0	
6.6.1	win	2023-07-10	18:49:00	18:52:23	196567	5ed3f7c5c739ce0a04ce3df5	3	1	main_slash	7	main_slash	19	stimuli_target_trianglesquares.svg	stimuli_distractor_diamondtriangles.svg	22	yes	53	1	363	0	0			0	0			1				0	
6.6.1	win	2023-07-10	18:49:00	18:52:23	196567	5ed3f7c5c739ce0a04ce3df5	3	1	main_slash	7	advance_on_keypress_SLASH	20	stimuli_target_trianglesquares.svg	stimuli_distractor_diamondtriangles.svg	22	yes	57	0	728	0	0			0	0			1				0	
6.6.1	win	2023-07-10	18:49:00	18:52:25	198151	5ed3f7c5c739ce0a04ce3df5	3	1	main_slash	7	main_slash	21	stimuli_distractor_diamondtriangles.svg	stimuli_target_diamondsquares.svg	32	yes	53	1	199	0	0			0	0			1				0	
6.6.1	win	2023-07-10	18:49:00	18:52:25	198151	5ed3f7c5c739ce0a04ce3df5	3	1	main_slash	7	advance_on_keypress_SLASH	22	stimuli_distractor_diamondtriangles.svg	stimuli_target_diamondsquares.svg	32	yes	57	0	1427	0	0			0	0			1				0	
6.6.1	win	2023-07-10	18:49:00	18:52:27	200531	5ed3f7c5c739ce0a04ce3df5	3	1	main_slash	7	main_slash	23	stimuli_target_squarediamonds.svg	stimuli_distractor_diamondtriangles.svg	8	yes	53	1	297	0	0			0	0			1				0	
6.6.1	win	2023-07-10	18:49:00	18:52:27	200531	5ed3f7c5c739ce0a04ce3df5	3	1	main_slash	7	advance_on_keypress_SLASH	24	stimuli_target_squarediamonds.svg	stimuli_distractor_diamondtriangles.svg	8	yes	57	0	1245	0	0			0	0			1				0	
6.6.1	win	2023-07-10	18:49:00	18:52:29	202692	5ed3f7c5c739ce0a04ce3df5	3	1	main_slash	7	main_slash	25	stimuli_target_diamondsquares.svg	stimuli_distractor_diamondtriangles.svg	24	yes	53	1	260	0	0			0	0			1				0	
6.6.1	win	2023-07-10	18:49:00	18:52:29	202692	5ed3f7c5c739ce0a04ce3df5	3	1	main_slash	7	advance_on_keypress_SLASH	26	stimuli_target_diamondsquares.svg	stimuli_distractor_diamondtriangles.svg	24	yes	57	0	973	0	0			0	0			1				0	
6.6.1	win	2023-07-10	18:49:00	18:52:31	204565	5ed3f7c5c739ce0a04ce3df5	3	1	main_slash	7	main_slash	27	stimuli_distractor_diamondtriangles.svg	stimuli_target_diamondrectangles.svg	31	yes	53	1	250	0	0			0	0			1				0	
6.6.1	win	2023-07-10	18:49:00	18:52:31	204565	5ed3f7c5c739ce0a04ce3df5	3	1	main_slash	7	advance_on_keypress_SLASH	28	stimuli_distractor_diamondtriangles.svg	stimuli_target_diamondrectangles.svg	31	yes	57	0	866	0	0			0	0			1				0	
6.6.1	win	2023-07-10	18:49:00	18:52:35	208080	5ed3f7c5c739ce0a04ce3df5	3	1	main_slash	7	main_slash	29	stimuli_distractor_trianglediamonds.svg	stimuli_distractor_trianglediamonds.svg	34	no	0	1	2000	0	0			0	0			1				0	
6.6.1	win	2023-07-10	18:49:00	18:52:35	208080	5ed3f7c5c739ce0a04ce3df5	3	1	main_slash	7	advance_on_keypress_SLASH	30	stimuli_distractor_trianglediamonds.svg	stimuli_distractor_trianglediamonds.svg	34	no	57	0	489	0	0			0	0			1				0	
6.6.1	win	2023-07-10	18:49:00	18:52:36	209607	5ed3f7c5c739ce0a04ce3df5	3	1	main_slash	7	main_slash	31	stimuli_target_rectanglediamonds.svg	stimuli_distractor_diamondtriangles.svg	6	yes	53	1	397	0	0			0	0			1				0	
6.6.1	win	2023-07-10	18:49:00	18:52:36	209607	5ed3f7c5c739ce0a04ce3df5	3	1	main_slash	7	advance_on_keypress_SLASH	32	stimuli_target_rectanglediamonds.svg	stimuli_distractor_diamondtriangles.svg	6	yes	57	0	853	0	0			0	0			1				0	
6.6.1	win	2023-07-10	18:49:00	18:52:38	211470	5ed3f7c5c739ce0a04ce3df5	3	1	main_slash	7	main_slash	33	stimuli_distractor_diamondtriangles.svg	stimuli_target_squaretriangles.svg	15	yes	53	1	361	0	0			0	0			1				0	
6.6.1	win	2023-07-10	18:49:00	18:52:38	211470	5ed3f7c5c739ce0a04ce3df5	3	1	main_slash	7	advance_on_keypress_SLASH	34	stimuli_distractor_diamondtriangles.svg	stimuli_target_squaretriangles.svg	15	yes	57	0	815	0	0			0	0			1				0	
6.6.1	win	2023-07-10	18:49:00	18:52:40	213234	5ed3f7c5c739ce0a04ce3df5	3	1	main_slash	7	main_slash	35	stimuli_distractor_diamondtriangles.svg	stimuli_distractor_diamondtriangles.svg	40	no	53	0	292	0	0			0	0			1				0	
6.6.1	win	2023-07-10	18:49:00	18:52:40	213234	5ed3f7c5c739ce0a04ce3df5	3	1	main_slash	7	advance_on_keypress_SLASH	36	stimuli_distractor_diamondtriangles.svg	stimuli_distractor_diamondtriangles.svg	40	no	57	0	868	0	0			0	0			1				0	
6.6.1	win	2023-07-10	18:49:00	18:52:44	216757	5ed3f7c5c739ce0a04ce3df5	3	1	main_slash	7	main_slash	37	stimuli_distractor_trianglediamonds.svg	stimuli_distractor_trianglediamonds.svg	33	no	0	1	2000	0	0			0	0			1				0	
6.6.1	win	2023-07-10	18:49:00	18:52:44	216757	5ed3f7c5c739ce0a04ce3df5	3	1	main_slash	7	advance_on_keypress_SLASH	38	stimuli_distractor_trianglediamonds.svg	stimuli_distractor_trianglediamonds.svg	33	no	57	0	441	0	0			0	0			1				0	
6.6.1	win	2023-07-10	18:49:00	18:52:45	218089	5ed3f7c5c739ce0a04ce3df5	3	1	main_slash	7	main_slash	39	stimuli_distractor_diamondtriangles.svg	stimuli_target_rectangletriangles.svg	13	yes	53	1	251	0	0			0	0			1				0	
6.6.1	win	2023-07-10	18:49:00	18:52:45	218089	5ed3f7c5c739ce0a04ce3df5	3	1	main_slash	7	advance_on_keypress_SLASH	40	stimuli_distractor_diamondtriangles.svg	stimuli_target_rectangletriangles.svg	13	yes	57	0	985	0	0			0	0			1				0	
6.6.1	win	2023-07-10	18:49:00	18:52:49	221719	5ed3f7c5c739ce0a04ce3df5	3	1	main_slash	7	main_slash	41	stimuli_distractor_diamondtriangles.svg	stimuli_distractor_diamondtriangles.svg	39	no	0	1	2000	0	0			0	0			1				0	
6.6.1	win	2023-07-10	18:49:00	18:52:49	221719	5ed3f7c5c739ce0a04ce3df5	3	1	main_slash	7	advance_on_keypress_SLASH	42	stimuli_distractor_diamondtriangles.svg	stimuli_distractor_diamondtriangles.svg	39	no	57	0	308	0	0			0	0			1				0	
6.6.1	win	2023-07-10	18:49:00	18:52:50	223013	5ed3f7c5c739ce0a04ce3df5	3	1	main_slash	7	main_slash	43	stimuli_target_squarediamonds.svg	stimuli_distractor_trianglediamonds.svg	4	yes	53	1	346	0	0			0	0			1				0	
6.6.1	win	2023-07-10	18:49:00	18:52:50	223013	5ed3f7c5c739ce0a04ce3df5	3	1	main_slash	7	advance_on_keypress_SLASH	44	stimuli_target_squarediamonds.svg	stimuli_distractor_trianglediamonds.svg	4	yes	57	0	1404	0	0			0	0			1				0	
6.6.1	win	2023-07-10	18:49:00	18:52:52	225552	5ed3f7c5c739ce0a04ce3df5	3	1	main_slash	7	main_slash	45	stimuli_target_diamondrectangles.svg	stimuli_distractor_diamondtriangles.svg	23	yes	53	1	487	0	0			0	0			1				0	
6.6.1	win	2023-07-10	18:49:00	18:52:52	225552	5ed3f7c5c739ce0a04ce3df5	3	1	main_slash	7	advance_on_keypress_SLASH	46	stimuli_target_diamondrectangles.svg	stimuli_distractor_diamondtriangles.svg	23	yes	57	0	775	0	0			0	0			1				0	
6.6.1	win	2023-07-10	18:49:00	18:52:54	227325	5ed3f7c5c739ce0a04ce3df5	3	1	main_slash	7	main_slash	47	stimuli_distractor_diamondtriangles.svg	stimuli_target_rectanglediamonds.svg	14	yes	53	1	361	0	0			0	0			1				0	
6.6.1	win	2023-07-10	18:49:00	18:52:54	227325	5ed3f7c5c739ce0a04ce3df5	3	1	main_slash	7	advance_on_keypress_SLASH	48	stimuli_distractor_diamondtriangles.svg	stimuli_target_rectanglediamonds.svg	14	yes	57	0	502	0	0			0	0			1				0	
6.6.1	win	2023-07-10	18:49:00	18:52:56	228829	5ed3f7c5c739ce0a04ce3df5	3	1	main_slash	7	main_slash	49	stimuli_target_squaretriangles.svg	stimuli_distractor_diamondtriangles.svg	7	yes	53	1	350	0	0			0	0			1				0	
6.6.1	win	2023-07-10	18:49:00	18:52:56	228829	5ed3f7c5c739ce0a04ce3df5	3	1	main_slash	7	advance_on_keypress_SLASH	50	stimuli_target_squaretriangles.svg	stimuli_distractor_diamondtriangles.svg	7	yes	57	0	706	0	0			0	0			1				0	
6.6.1	win	2023-07-10	18:49:00	18:52:57	230452	5ed3f7c5c739ce0a04ce3df5	3	1	main_slash	7	main_slash	51	stimuli_target_rectangletriangles.svg	stimuli_distractor_diamondtriangles.svg	5	yes	53	1	274	0	0			0	0			1				0	
6.6.1	win	2023-07-10	18:49:00	18:52:57	230452	5ed3f7c5c739ce0a04ce3df5	3	1	main_slash	7	advance_on_keypress_SLASH	52	stimuli_target_rectangletriangles.svg	stimuli_distractor_diamondtriangles.svg	5	yes	57	0	554	0	0			0	0			1				0	
6.6.1	win	2023-07-10	18:49:00	18:52:59	231901	5ed3f7c5c739ce0a04ce3df5	3	1	main_slash	7	main_slash	53	stimuli_distractor_trianglediamonds.svg	stimuli_target_squarediamonds.svg	12	yes	53	1	257	0	0			0	0			1				0	
6.6.1	win	2023-07-10	18:49:00	18:52:59	231901	5ed3f7c5c739ce0a04ce3df5	3	1	main_slash	7	advance_on_keypress_SLASH	54	stimuli_distractor_trianglediamonds.svg	stimuli_target_squarediamonds.svg	12	yes	57	0	677	0	0			0	0			1				0	
6.6.1	win	2023-07-10	18:49:00	18:53:00	233583	5ed3f7c5c739ce0a04ce3df5	3	1	main_slash	7	main_slash	55	stimuli_distractor_diamondtriangles.svg	stimuli_target_trianglerectangles.svg	29	yes	53	1	357	0	0			0	0			1				0	
6.6.1	win	2023-07-10	18:49:00	18:53:00	233583	5ed3f7c5c739ce0a04ce3df5	3	1	main_slash	7	advance_on_keypress_SLASH	56	stimuli_distractor_diamondtriangles.svg	stimuli_target_trianglerectangles.svg	29	yes	57	0	754	0	0			0	0			1				0	
6.6.1	win	2023-07-10	18:49:00	18:53:02	235248	5ed3f7c5c739ce0a04ce3df5	3	1	main_slash	7	main_slash	57	stimuli_distractor_trianglediamonds.svg	stimuli_distractor_diamondtriangles.svg	35	no	53	0	273	0	0			0	0			1				0	
6.6.1	win	2023-07-10	18:49:00	18:53:02	235248	5ed3f7c5c739ce0a04ce3df5	3	1	main_slash	7	advance_on_keypress_SLASH	58	stimuli_distractor_trianglediamonds.svg	stimuli_distractor_diamondtriangles.svg	35	no	57	0	771	0	0			0	0			1				0	
6.6.1	win	2023-07-10	18:49:00	18:53:04	237328	5ed3f7c5c739ce0a04ce3df5	3	1	main_slash	7	main_slash	59	stimuli_distractor_trianglediamonds.svg	stimuli_target_rectanglediamonds.svg	10	yes	53	1	671	0	0			0	0			1				0	
6.6.1	win	2023-07-10	18:49:00	18:53:04	237328	5ed3f7c5c739ce0a04ce3df5	3	1	main_slash	7	advance_on_keypress_SLASH	60	stimuli_distractor_trianglediamonds.svg	stimuli_target_rectanglediamonds.svg	10	yes	57	0	1039	0	0			0	0			1				0	
6.6.1	win	2023-07-10	18:49:00	18:53:06	239588	5ed3f7c5c739ce0a04ce3df5	3	1	main_slash	7	main_slash	61	stimuli_target_diamondrectangles.svg	stimuli_distractor_trianglediamonds.svg	19	yes	53	1	583	0	0			0	0			1				0	
6.6.1	win	2023-07-10	18:49:00	18:53:06	239588	5ed3f7c5c739ce0a04ce3df5	3	1	main_slash	7	advance_on_keypress_SLASH	62	stimuli_target_diamondrectangles.svg	stimuli_distractor_trianglediamonds.svg	19	yes	57	0	851	0	0			0	0			1				0	
6.6.1	win	2023-07-10	18:49:00	18:53:08	241352	5ed3f7c5c739ce0a04ce3df5	3	1	main_slash	7	main_slash	63	stimuli_target_trianglerectangles.svg	stimuli_distractor_trianglediamonds.svg	17	yes	53	1	266	0	0			0	0			1				0	
6.6.1	win	2023-07-10	18:49:00	18:53:08	241352	5ed3f7c5c739ce0a04ce3df5	3	1	main_slash	7	advance_on_keypress_SLASH	64	stimuli_target_trianglerectangles.svg	stimuli_distractor_trianglediamonds.svg	17	yes	57	0	1252	0	0			0	0			1				0	
6.6.1	win	2023-07-10	18:49:00	18:53:10	243542	5ed3f7c5c739ce0a04ce3df5	3	1	main_slash	7	main_slash	65	stimuli_distractor_diamondtriangles.svg	stimuli_distractor_trianglediamonds.svg	37	no	53	0	291	0	0			0	0			1				0	
6.6.1	win	2023-07-10	18:49:00	18:53:10	243542	5ed3f7c5c739ce0a04ce3df5	3	1	main_slash	7	advance_on_keypress_SLASH	66	stimuli_distractor_diamondtriangles.svg	stimuli_distractor_trianglediamonds.svg	37	no	57	0	987	0	0			0	0			1				0	
6.6.1	win	2023-07-10	18:49:00	18:53:14	247167	5ed3f7c5c739ce0a04ce3df5	3	1	main_slash	7	main_slash	67	stimuli_distractor_diamondtriangles.svg	stimuli_distractor_trianglediamonds.svg	38	no	0	1	2000	0	0			0	0			1				0	
6.6.1	win	2023-07-10	18:49:00	18:53:14	247167	5ed3f7c5c739ce0a04ce3df5	3	1	main_slash	7	advance_on_keypress_SLASH	68	stimuli_distractor_diamondtriangles.svg	stimuli_distractor_trianglediamonds.svg	38	no	57	0	285	0	0			0	0			1				0	
6.6.1	win	2023-07-10	18:49:00	18:53:15	248675	5ed3f7c5c739ce0a04ce3df5	3	1	main_slash	7	main_slash	69	stimuli_distractor_trianglediamonds.svg	stimuli_target_diamondsquares.svg	28	yes	53	1	577	0	0			0	0			1				0	
6.6.1	win	2023-07-10	18:49:00	18:53:15	248675	5ed3f7c5c739ce0a04ce3df5	3	1	main_slash	7	advance_on_keypress_SLASH	70	stimuli_distractor_trianglediamonds.svg	stimuli_target_diamondsquares.svg	28	yes	57	0	835	0	0			0	0			1				0	
6.6.1	win	2023-07-10	18:49:00	18:53:18	250946	5ed3f7c5c739ce0a04ce3df5	3	1	main_slash	7	main_slash	71	stimuli_distractor_trianglediamonds.svg	stimuli_target_trianglerectangles.svg	25	yes	53	1	783	0	0			0	0			1				0	
6.6.1	win	2023-07-10	18:49:00	18:53:18	250946	5ed3f7c5c739ce0a04ce3df5	3	1	main_slash	7	advance_on_keypress_SLASH	72	stimuli_distractor_trianglediamonds.svg	stimuli_target_trianglerectangles.svg	25	yes	57	0	782	0	0			0	0			1				0	
6.6.1	win	2023-07-10	18:49:00	18:53:20	252730	5ed3f7c5c739ce0a04ce3df5	3	1	main_slash	7	main_slash	73	stimuli_distractor_trianglediamonds.svg	stimuli_target_squaretriangles.svg	11	yes	53	1	352	0	0			0	0			1				0	
6.6.1	win	2023-07-10	18:49:00	18:53:20	252730	5ed3f7c5c739ce0a04ce3df5	3	1	main_slash	7	advance_on_keypress_SLASH	74	stimuli_distractor_trianglediamonds.svg	stimuli_target_squaretriangles.svg	11	yes	57	0	826	0	0			0	0			1				0	
6.6.1	win	2023-07-10	18:49:00	18:53:21	254576	5ed3f7c5c739ce0a04ce3df5	3	1	main_slash	7	main_slash	75	stimuli_target_rectangletriangles.svg	stimuli_distractor_trianglediamonds.svg	1	yes	53	1	366	0	0			0	0			1				0	
6.6.1	win	2023-07-10	18:49:00	18:53:21	254576	5ed3f7c5c739ce0a04ce3df5	3	1	main_slash	7	advance_on_keypress_SLASH	76	stimuli_target_rectangletriangles.svg	stimuli_distractor_trianglediamonds.svg	1	yes	57	0	676	0	0			0	0			1				0	
6.6.1	win	2023-07-10	18:49:00	18:53:23	256323	5ed3f7c5c739ce0a04ce3df5	3	1	main_slash	7	main_slash	77	stimuli_distractor_trianglediamonds.svg	stimuli_target_trianglesquares.svg	26	yes	53	1	415	0	0			0	0			1				0	
6.6.1	win	2023-07-10	18:49:00	18:53:23	256323	5ed3f7c5c739ce0a04ce3df5	3	1	main_slash	7	advance_on_keypress_SLASH	78	stimuli_distractor_trianglediamonds.svg	stimuli_target_trianglesquares.svg	26	yes	57	0	824	0	0			0	0			1				0	
6.6.1	win	2023-07-10	18:49:00	18:53:25	258146	5ed3f7c5c739ce0a04ce3df5	3	1	main_slash	7	main_slash	79	stimuli_target_trianglesquares.svg	stimuli_distractor_trianglediamonds.svg	18	yes	53	1	356	0	0			0	0			1				0	
6.6.1	win	2023-07-10	18:49:00	18:53:25	258146	5ed3f7c5c739ce0a04ce3df5	3	1	main_slash	7	advance_on_keypress_SLASH	80	stimuli_target_trianglesquares.svg	stimuli_distractor_trianglediamonds.svg	18	yes	57	0	921	0	0			0	0			1				0	
6.6.1	win	2023-07-10	18:49:00	18:53:27	259969	5ed3f7c5c739ce0a04ce3df5	3	1	main_slash	7	main_slash	81	stimuli_target_trianglerectangles.svg	stimuli_distractor_diamondtriangles.svg	21	yes	53	1	264	0	0			0	0			1				0	
6.6.1	win	2023-07-10	18:49:00	18:53:27	259969	5ed3f7c5c739ce0a04ce3df5	3	1	main_slash	7	advance_on_keypress_SLASH	82	stimuli_target_trianglerectangles.svg	stimuli_distractor_diamondtriangles.svg	21	yes	57	0	763	0	0			0	0			1				0	
6.6.1	win	2023-07-10	18:49:00	18:53:28	261621	5ed3f7c5c739ce0a04ce3df5	3	1	main_slash	7	main_slash	83	stimuli_target_squaretriangles.svg	stimuli_distractor_trianglediamonds.svg	3	yes	53	1	233	0	0			0	0			1				0	
6.6.1	win	2023-07-10	18:49:00	18:53:28	261621	5ed3f7c5c739ce0a04ce3df5	3	1	main_slash	7	advance_on_keypress_SLASH	84	stimuli_target_squaretriangles.svg	stimuli_distractor_trianglediamonds.svg	3	yes	57	0	756	0	0			0	0			1				0	
6.6.1	win	2023-07-10	18:49:00	18:53:30	263210	5ed3f7c5c739ce0a04ce3df5	3	1	main_slash	7	main_slash	85	stimuli_distractor_diamondtriangles.svg	stimuli_target_squaretriangles.svg	15	yes	53	1	190	0	0			0	0			1				0	
6.6.1	win	2023-07-10	18:49:00	18:53:30	263210	5ed3f7c5c739ce0a04ce3df5	3	1	main_slash	7	advance_on_keypress_SLASH	86	stimuli_distractor_diamondtriangles.svg	stimuli_target_squaretriangles.svg	15	yes	57	0	803	0	0			0	0			1				0	
6.6.1	win	2023-07-10	18:49:00	18:53:32	264868	5ed3f7c5c739ce0a04ce3df5	3	1	main_slash	7	main_slash	87	stimuli_target_rectangletriangles.svg	stimuli_distractor_trianglediamonds.svg	1	yes	53	1	216	0	0			0	0			1				0	
6.6.1	win	2023-07-10	18:49:00	18:53:32	264868	5ed3f7c5c739ce0a04ce3df5	3	1	main_slash	7	advance_on_keypress_SLASH	88	stimuli_target_rectangletriangles.svg	stimuli_distractor_trianglediamonds.svg	1	yes	57	0	846	0	0			0	0			1				0	
6.6.1	win	2023-07-10	18:49:00	18:53:33	266632	5ed3f7c5c739ce0a04ce3df5	3	1	main_slash	7	main_slash	89	stimuli_distractor_diamondtriangles.svg	stimuli_distractor_diamondtriangles.svg	39	no	53	0	265	0	0			0	0			1				0	
6.6.1	win	2023-07-10	18:49:00	18:53:33	266632	5ed3f7c5c739ce0a04ce3df5	3	1	main_slash	7	advance_on_keypress_SLASH	90	stimuli_distractor_diamondtriangles.svg	stimuli_distractor_diamondtriangles.svg	39	no	57	0	842	0	0			0	0			1				0	
6.6.1	win	2023-07-10	18:49:00	18:53:35	268507	5ed3f7c5c739ce0a04ce3df5	3	1	main_slash	7	main_slash	91	stimuli_distractor_diamondtriangles.svg	stimuli_target_trianglerectangles.svg	29	yes	53	1	392	0	0			0	0			1				0	
6.6.1	win	2023-07-10	18:49:00	18:53:35	268507	5ed3f7c5c739ce0a04ce3df5	3	1	main_slash	7	advance_on_keypress_SLASH	92	stimuli_distractor_diamondtriangles.svg	stimuli_target_trianglerectangles.svg	29	yes	57	0	929	0	0			0	0			1				0	
6.6.1	win	2023-07-10	18:49:00	18:53:37	270484	5ed3f7c5c739ce0a04ce3df5	3	1	main_slash	7	main_slash	93	stimuli_target_trianglesquares.svg	stimuli_distractor_trianglediamonds.svg	18	yes	53	1	404	0	0			0	0			1				0	
6.6.1	win	2023-07-10	18:49:00	18:53:37	270484	5ed3f7c5c739ce0a04ce3df5	3	1	main_slash	7	advance_on_keypress_SLASH	94	stimuli_target_trianglesquares.svg	stimuli_distractor_trianglediamonds.svg	18	yes	57	0	715	0	0			0	0			1				0	
6.6.1	win	2023-07-10	18:49:00	18:53:39	272163	5ed3f7c5c739ce0a04ce3df5	3	1	main_slash	7	main_slash	95	stimuli_distractor_diamondtriangles.svg	stimuli_target_squarediamonds.svg	16	yes	53	1	317	0	0			0	0			1				0	
6.6.1	win	2023-07-10	18:49:00	18:53:39	272163	5ed3f7c5c739ce0a04ce3df5	3	1	main_slash	7	advance_on_keypress_SLASH	96	stimuli_distractor_diamondtriangles.svg	stimuli_target_squarediamonds.svg	16	yes	57	0	801	0	0			0	0			1				0	
6.6.1	win	2023-07-10	18:49:00	18:53:41	273825	5ed3f7c5c739ce0a04ce3df5	3	1	main_slash	7	main_slash	97	stimuli_distractor_trianglediamonds.svg	stimuli_distractor_diamondtriangles.svg	36	no	53	0	214	0	0			0	0			1				0	
6.6.1	win	2023-07-10	18:49:00	18:53:41	273825	5ed3f7c5c739ce0a04ce3df5	3	1	main_slash	7	advance_on_keypress_SLASH	98	stimuli_distractor_trianglediamonds.svg	stimuli_distractor_diamondtriangles.svg	36	no	57	0	765	0	0			0	0			1				0	
6.6.1	win	2023-07-10	18:49:00	18:53:42	275640	5ed3f7c5c739ce0a04ce3df5	3	1	main_slash	7	main_slash	99	stimuli_distractor_trianglediamonds.svg	stimuli_target_diamondrectangles.svg	27	yes	53	1	396	0	0			0	0			1				0	
6.6.1	win	2023-07-10	18:49:00	18:53:42	275640	5ed3f7c5c739ce0a04ce3df5	3	1	main_slash	7	advance_on_keypress_SLASH	100	stimuli_distractor_trianglediamonds.svg	stimuli_target_diamondrectangles.svg	27	yes	57	0	855	0	0			0	0			1				0	
6.6.1	win	2023-07-10	18:49:00	18:53:45	277854	5ed3f7c5c739ce0a04ce3df5	3	1	main_slash	7	main_slash	101	stimuli_distractor_diamondtriangles.svg	stimuli_target_diamondrectangles.svg	31	yes	53	1	711	0	0			0	0			1				0	
6.6.1	win	2023-07-10	18:49:00	18:53:45	277854	5ed3f7c5c739ce0a04ce3df5	3	1	main_slash	7	advance_on_keypress_SLASH	102	stimuli_distractor_diamondtriangles.svg	stimuli_target_diamondrectangles.svg	31	yes	57	0	616	0	0			0	0			1				0	
6.6.1	win	2023-07-10	18:49:00	18:53:46	279417	5ed3f7c5c739ce0a04ce3df5	3	1	main_slash	7	main_slash	103	stimuli_distractor_diamondtriangles.svg	stimuli_target_trianglesquares.svg	30	yes	53	1	293	0	0			0	0			1				0	
6.6.1	win	2023-07-10	18:49:00	18:53:46	279417	5ed3f7c5c739ce0a04ce3df5	3	1	main_slash	7	advance_on_keypress_SLASH	104	stimuli_distractor_diamondtriangles.svg	stimuli_target_trianglesquares.svg	30	yes	57	0	655	0	0			0	0			1				0	
6.6.1	win	2023-07-10	18:49:00	18:53:48	280936	5ed3f7c5c739ce0a04ce3df5	3	1	main_slash	7	main_slash	105	stimuli_distractor_trianglediamonds.svg	stimuli_target_squarediamonds.svg	12	yes	53	1	213	0	0			0	0			1				0	
6.6.1	win	2023-07-10	18:49:00	18:53:48	280936	5ed3f7c5c739ce0a04ce3df5	3	1	main_slash	7	advance_on_keypress_SLASH	106	stimuli_distractor_trianglediamonds.svg	stimuli_target_squarediamonds.svg	12	yes	57	0	654	0	0			0	0			1				0	
6.6.1	win	2023-07-10	18:49:00	18:53:49	282490	5ed3f7c5c739ce0a04ce3df5	3	1	main_slash	7	main_slash	107	stimuli_target_squarediamonds.svg	stimuli_distractor_trianglediamonds.svg	4	yes	53	1	252	0	0			0	0			1				0	
6.6.1	win	2023-07-10	18:49:00	18:53:49	282490	5ed3f7c5c739ce0a04ce3df5	3	1	main_slash	7	advance_on_keypress_SLASH	108	stimuli_target_squarediamonds.svg	stimuli_distractor_trianglediamonds.svg	4	yes	57	0	733	0	0			0	0			1				0	
6.6.1	win	2023-07-10	18:49:00	18:53:51	284078	5ed3f7c5c739ce0a04ce3df5	3	1	main_slash	7	main_slash	109	stimuli_target_diamondrectangles.svg	stimuli_distractor_trianglediamonds.svg	19	yes	53	1	207	0	0			0	0			1				0	
6.6.1	win	2023-07-10	18:49:00	18:53:51	284078	5ed3f7c5c739ce0a04ce3df5	3	1	main_slash	7	advance_on_keypress_SLASH	110	stimuli_target_diamondrectangles.svg	stimuli_distractor_trianglediamonds.svg	19	yes	57	0	852	0	0			0	0			1				0	
6.6.1	win	2023-07-10	18:49:00	18:53:53	285761	5ed3f7c5c739ce0a04ce3df5	3	1	main_slash	7	main_slash	111	stimuli_distractor_trianglediamonds.svg	stimuli_target_trianglerectangles.svg	25	yes	53	1	192	0	0			0	0			1				0	
6.6.1	win	2023-07-10	18:49:00	18:53:53	285761	5ed3f7c5c739ce0a04ce3df5	3	1	main_slash	7	advance_on_keypress_SLASH	112	stimuli_distractor_trianglediamonds.svg	stimuli_target_trianglerectangles.svg	25	yes	57	0	764	0	0			0	0			1				0	
6.6.1	win	2023-07-10	18:49:00	18:53:54	287712	5ed3f7c5c739ce0a04ce3df5	3	1	main_slash	7	main_slash	113	stimuli_target_squaretriangles.svg	stimuli_distractor_diamondtriangles.svg	7	yes	53	1	545	0	0			0	0			1				0	
6.6.1	win	2023-07-10	18:49:00	18:53:54	287712	5ed3f7c5c739ce0a04ce3df5	3	1	main_slash	7	advance_on_keypress_SLASH	114	stimuli_target_squaretriangles.svg	stimuli_distractor_diamondtriangles.svg	7	yes	57	0	761	0	0			0	0			1				0	
6.6.1	win	2023-07-10	18:49:00	18:53:56	289386	5ed3f7c5c739ce0a04ce3df5	3	1	main_slash	7	main_slash	115	stimuli_distractor_trianglediamonds.svg	stimuli_target_rectangletriangles.svg	9	yes	53	1	253	0	0			0	0			1				0	
6.6.1	win	2023-07-10	18:49:00	18:53:56	289386	5ed3f7c5c739ce0a04ce3df5	3	1	main_slash	7	advance_on_keypress_SLASH	116	stimuli_distractor_trianglediamonds.svg	stimuli_target_rectangletriangles.svg	9	yes	57	0	744	0	0			0	0			1				0	
6.6.1	win	2023-07-10	18:49:00	18:53:58	290980	5ed3f7c5c739ce0a04ce3df5	3	1	main_slash	7	main_slash	117	stimuli_target_diamondrectangles.svg	stimuli_distractor_diamondtriangles.svg	23	yes	53	1	198	0	0			0	0			1				0	
6.6.1	win	2023-07-10	18:49:00	18:53:58	290980	5ed3f7c5c739ce0a04ce3df5	3	1	main_slash	7	advance_on_keypress_SLASH	118	stimuli_target_diamondrectangles.svg	stimuli_distractor_diamondtriangles.svg	23	yes	57	0	653	0	0			0	0			1				0	
6.6.1	win	2023-07-10	18:49:00	18:53:59	292488	5ed3f7c5c739ce0a04ce3df5	3	1	main_slash	7	main_slash	119	stimuli_distractor_trianglediamonds.svg	stimuli_target_trianglesquares.svg	26	yes	53	1	207	0	0			0	0			1				0	
6.6.1	win	2023-07-10	18:49:00	18:53:59	292488	5ed3f7c5c739ce0a04ce3df5	3	1	main_slash	7	advance_on_keypress_SLASH	120	stimuli_distractor_trianglediamonds.svg	stimuli_target_trianglesquares.svg	26	yes	57	0	713	0	0			0	0			1				0	
6.6.1	win	2023-07-10	18:49:00	18:54:01	294071	5ed3f7c5c739ce0a04ce3df5	3	1	main_slash	7	main_slash	121	stimuli_distractor_diamondtriangles.svg	stimuli_distractor_trianglediamonds.svg	37	no	53	0	225	0	0			0	0			1				0	
6.6.1	win	2023-07-10	18:49:00	18:54:01	294071	5ed3f7c5c739ce0a04ce3df5	3	1	main_slash	7	advance_on_keypress_SLASH	122	stimuli_distractor_diamondtriangles.svg	stimuli_distractor_trianglediamonds.svg	37	no	57	0	817	0	0			0	0			1				0	
6.6.1	win	2023-07-10	18:49:00	18:54:02	295536	5ed3f7c5c739ce0a04ce3df5	3	1	main_slash	7	main_slash	123	stimuli_distractor_trianglediamonds.svg	stimuli_target_rectanglediamonds.svg	10	yes	53	1	8	0	0			0	0			1				0	
6.6.1	win	2023-07-10	18:49:00	18:54:02	295536	5ed3f7c5c739ce0a04ce3df5	3	1	main_slash	7	advance_on_keypress_SLASH	124	stimuli_distractor_trianglediamonds.svg	stimuli_target_rectanglediamonds.svg	10	yes	57	0	737	0	0			0	0			1				0	
6.6.1	win	2023-07-10	18:49:00	18:54:04	296989	5ed3f7c5c739ce0a04ce3df5	3	1	main_slash	7	main_slash	125	stimuli_distractor_trianglediamonds.svg	stimuli_target_diamondsquares.svg	28	yes	53	1	78	0	0			0	0			1				0	
6.6.1	win	2023-07-10	18:49:00	18:54:04	296989	5ed3f7c5c739ce0a04ce3df5	3	1	main_slash	7	advance_on_keypress_SLASH	126	stimuli_distractor_trianglediamonds.svg	stimuli_target_diamondsquares.svg	28	yes	57	0	826	0	0			0	0			1				0	
6.6.1	win	2023-07-10	18:49:00	18:54:05	298687	5ed3f7c5c739ce0a04ce3df5	3	1	main_slash	7	main_slash	127	stimuli_distractor_diamondtriangles.svg	stimuli_target_diamondsquares.svg	32	yes	53	1	211	0	0			0	0			1				0	
6.6.1	win	2023-07-10	18:49:00	18:54:05	298687	5ed3f7c5c739ce0a04ce3df5	3	1	main_slash	7	advance_on_keypress_SLASH	128	stimuli_distractor_diamondtriangles.svg	stimuli_target_diamondsquares.svg	32	yes	57	0	811	0	0			0	0			1				0	
6.6.1	win	2023-07-10	18:49:00	18:54:07	300374	5ed3f7c5c739ce0a04ce3df5	3	1	main_slash	7	main_slash	129	stimuli_target_diamondsquares.svg	stimuli_distractor_trianglediamonds.svg	20	yes	53	1	217	0	0			0	0			1				0	
6.6.1	win	2023-07-10	18:49:00	18:54:07	300374	5ed3f7c5c739ce0a04ce3df5	3	1	main_slash	7	advance_on_keypress_SLASH	130	stimuli_target_diamondsquares.svg	stimuli_distractor_trianglediamonds.svg	20	yes	57	0	606	0	0			0	0			1				0	
6.6.1	win	2023-07-10	18:49:00	18:54:09	301828	5ed3f7c5c739ce0a04ce3df5	3	1	main_slash	7	main_slash	131	stimuli_target_trianglerectangles.svg	stimuli_distractor_trianglediamonds.svg	17	yes	53	1	205	0	0			0	0			1				0	
6.6.1	win	2023-07-10	18:49:00	18:54:09	301828	5ed3f7c5c739ce0a04ce3df5	3	1	main_slash	7	advance_on_keypress_SLASH	132	stimuli_target_trianglerectangles.svg	stimuli_distractor_trianglediamonds.svg	17	yes	57	0	712	0	0			0	0			1				0	
6.6.1	win	2023-07-10	18:49:00	18:54:10	303298	5ed3f7c5c739ce0a04ce3df5	3	1	main_slash	7	main_slash	133	stimuli_distractor_diamondtriangles.svg	stimuli_distractor_trianglediamonds.svg	38	no	53	0	109	0	0			0	0			1				0	
6.6.1	win	2023-07-10	18:49:00	18:54:10	303298	5ed3f7c5c739ce0a04ce3df5	3	1	main_slash	7	advance_on_keypress_SLASH	134	stimuli_distractor_diamondtriangles.svg	stimuli_distractor_trianglediamonds.svg	38	no	57	0	839	0	0			0	0			1				0	
6.6.1	win	2023-07-10	18:49:00	18:54:12	305196	5ed3f7c5c739ce0a04ce3df5	3	1	main_slash	7	main_slash	135	stimuli_target_rectangletriangles.svg	stimuli_distractor_diamondtriangles.svg	5	yes	53	1	424	0	0			0	0			1				0	
6.6.1	win	2023-07-10	18:49:00	18:54:12	305196	5ed3f7c5c739ce0a04ce3df5	3	1	main_slash	7	advance_on_keypress_SLASH	136	stimuli_target_rectangletriangles.svg	stimuli_distractor_diamondtriangles.svg	5	yes	57	0	608	0	0			0	0			1				0	
6.6.1	win	2023-07-10	18:49:00	18:54:13	306659	5ed3f7c5c739ce0a04ce3df5	3	1	main_slash	7	main_slash	137	stimuli_distractor_trianglediamonds.svg	stimuli_distractor_trianglediamonds.svg	34	no	53	0	222	0	0			0	0			1				0	
6.6.1	win	2023-07-10	18:49:00	18:54:13	306659	5ed3f7c5c739ce0a04ce3df5	3	1	main_slash	7	advance_on_keypress_SLASH	138	stimuli_distractor_trianglediamonds.svg	stimuli_distractor_trianglediamonds.svg	34	no	57	0	622	0	0			0	0			1				0	
6.6.1	win	2023-07-10	18:49:00	18:54:17	309919	5ed3f7c5c739ce0a04ce3df5	3	1	main_slash	7	main_slash	139	stimuli_distractor_trianglediamonds.svg	stimuli_distractor_trianglediamonds.svg	33	no	0	1	2000	0	0			0	0			1				0	
6.6.1	win	2023-07-10	18:49:00	18:54:17	309919	5ed3f7c5c739ce0a04ce3df5	3	1	main_slash	7	advance_on_keypress_SLASH	140	stimuli_distractor_trianglediamonds.svg	stimuli_distractor_trianglediamonds.svg	33	no	57	0	36	0	0			0	0			1				0	
6.6.1	win	2023-07-10	18:49:00	18:54:18	311119	5ed3f7c5c739ce0a04ce3df5	3	1	main_slash	7	main_slash	141	stimuli_distractor_diamondtriangles.svg	stimuli_target_rectangletriangles.svg	13	yes	53	1	520	0	0			0	0			1				0	
6.6.1	win	2023-07-10	18:49:00	18:54:18	311119	5ed3f7c5c739ce0a04ce3df5	3	1	main_slash	7	advance_on_keypress_SLASH	142	stimuli_distractor_diamondtriangles.svg	stimuli_target_rectangletriangles.svg	13	yes	57	0	769	0	0			0	0			1				0	
6.6.1	win	2023-07-10	18:49:00	18:54:20	312727	5ed3f7c5c739ce0a04ce3df5	3	1	main_slash	7	main_slash	143	stimuli_distractor_diamondtriangles.svg	stimuli_target_rectanglediamonds.svg	14	yes	53	1	196	0	0			0	0			1				0	
6.6.1	win	2023-07-10	18:49:00	18:54:20	312727	5ed3f7c5c739ce0a04ce3df5	3	1	main_slash	7	advance_on_keypress_SLASH	144	stimuli_distractor_diamondtriangles.svg	stimuli_target_rectanglediamonds.svg	14	yes	57	0	738	0	0			0	0			1				0	
6.6.1	win	2023-07-10	18:49:00	18:54:21	314341	5ed3f7c5c739ce0a04ce3df5	3	1	main_slash	7	main_slash	145	stimuli_target_diamondsquares.svg	stimuli_distractor_diamondtriangles.svg	24	yes	53	1	228	0	0			0	0			1				0	
6.6.1	win	2023-07-10	18:49:00	18:54:21	314341	5ed3f7c5c739ce0a04ce3df5	3	1	main_slash	7	advance_on_keypress_SLASH	146	stimuli_target_diamondsquares.svg	stimuli_distractor_diamondtriangles.svg	24	yes	57	0	2507	0	0			0	0			1				0	
6.6.1	win	2023-07-10	18:49:00	18:54:25	317743	5ed3f7c5c739ce0a04ce3df5	3	1	main_slash	7	main_slash	147	stimuli_target_squarediamonds.svg	stimuli_distractor_diamondtriangles.svg	8	yes	53	1	248	0	0			0	0			1				0	
6.6.1	win	2023-07-10	18:49:00	18:54:25	317743	5ed3f7c5c739ce0a04ce3df5	3	1	main_slash	7	advance_on_keypress_SLASH	148	stimuli_target_squarediamonds.svg	stimuli_distractor_diamondtriangles.svg	8	yes	57	0	665	0	0			0	0			1				0	
6.6.1	win	2023-07-10	18:49:00	18:54:26	319281	5ed3f7c5c739ce0a04ce3df5	3	1	main_slash	7	main_slash	149	stimuli_target_rectanglediamonds.svg	stimuli_distractor_trianglediamonds.svg	2	yes	53	1	220	0	0			0	0			1				0	
6.6.1	win	2023-07-10	18:49:00	18:54:26	319281	5ed3f7c5c739ce0a04ce3df5	3	1	main_slash	7	advance_on_keypress_SLASH	150	stimuli_target_rectanglediamonds.svg	stimuli_distractor_trianglediamonds.svg	2	yes	57	0	1159	0	0			0	0			1				0	
6.6.1	win	2023-07-10	18:49:00	18:54:28	321308	5ed3f7c5c739ce0a04ce3df5	3	1	main_slash	7	main_slash	151	stimuli_distractor_diamondtriangles.svg	stimuli_distractor_diamondtriangles.svg	40	no	53	0	216	0	0			0	0			1				0	
6.6.1	win	2023-07-10	18:49:00	18:54:28	321308	5ed3f7c5c739ce0a04ce3df5	3	1	main_slash	7	advance_on_keypress_SLASH	152	stimuli_distractor_diamondtriangles.svg	stimuli_distractor_diamondtriangles.svg	40	no	57	0	645	0	0			0	0			1				0	
6.6.1	win	2023-07-10	18:49:00	18:54:31	324608	5ed3f7c5c739ce0a04ce3df5	3	1	main_slash	7	main_slash	153	stimuli_distractor_trianglediamonds.svg	stimuli_distractor_diamondtriangles.svg	35	no	0	1	2000	0	0			0	0			1				0	
6.6.1	win	2023-07-10	18:49:00	18:54:31	324608	5ed3f7c5c739ce0a04ce3df5	3	1	main_slash	7	advance_on_keypress_SLASH	154	stimuli_distractor_trianglediamonds.svg	stimuli_distractor_diamondtriangles.svg	35	no	57	0	391	0	0			0	0			1				0	
6.6.1	win	2023-07-10	18:49:00	18:54:33	326150	5ed3f7c5c739ce0a04ce3df5	3	1	main_slash	7	main_slash	155	stimuli_target_trianglesquares.svg	stimuli_distractor_diamondtriangles.svg	22	yes	53	1	510	0	0			0	0			1				0	
6.6.1	win	2023-07-10	18:49:00	18:54:33	326150	5ed3f7c5c739ce0a04ce3df5	3	1	main_slash	7	advance_on_keypress_SLASH	156	stimuli_target_trianglesquares.svg	stimuli_distractor_diamondtriangles.svg	22	yes	57	0	584	0	0			0	0			1				0	
6.6.1	win	2023-07-10	18:49:00	18:54:34	327681	5ed3f7c5c739ce0a04ce3df5	3	1	main_slash	7	main_slash	157	stimuli_distractor_trianglediamonds.svg	stimuli_target_squaretriangles.svg	11	yes	53	1	294	0	0			0	0			1				0	
6.6.1	win	2023-07-10	18:49:00	18:54:34	327681	5ed3f7c5c739ce0a04ce3df5	3	1	main_slash	7	advance_on_keypress_SLASH	158	stimuli_distractor_trianglediamonds.svg	stimuli_target_squaretriangles.svg	11	yes	57	0	779	0	0			0	0			1				0	
6.6.1	win	2023-07-10	18:49:00	18:54:36	329365	5ed3f7c5c739ce0a04ce3df5	3	1	main_slash	7	main_slash	159	stimuli_target_rectanglediamonds.svg	stimuli_distractor_diamondtriangles.svg	6	yes	53	1	246	0	0			0	0			1				0	
6.6.1	win	2023-07-10	18:49:00	18:54:36	329365	5ed3f7c5c739ce0a04ce3df5	3	1	main_slash	7	advance_on_keypress_SLASH	160	stimuli_target_rectanglediamonds.svg	stimuli_distractor_diamondtriangles.svg	6	yes	57	0	911	0	0			0	0			1				0	
6.6.1	win	2023-07-10	18:49:00	18:54:51	344654	5ed3f7c5c739ce0a04ce3df5	3	1	practice_z	9	practice_z	1	stimuli_target_diamondsquares.svg	stimuli_distractor_diamondtriangles.svg	3	yes	44	1	159	0	0			0	0			1				0	
6.6.1	win	2023-07-10	18:49:00	18:54:51	344654	5ed3f7c5c739ce0a04ce3df5	3	1	practice_z	9	advance_on_keypress_ZEE	2	stimuli_target_diamondsquares.svg	stimuli_distractor_diamondtriangles.svg	3	yes	57	0	810	0	0			0	0			1				0	
6.6.1	win	2023-07-10	18:49:00	18:54:54	347341	5ed3f7c5c739ce0a04ce3df5	3	1	practice_z	9	practice_z	3	stimuli_target_squarediamonds.svg	stimuli_distractor_trianglediamonds.svg	5	yes	44	1	213	0	0			0	0			1				0	
6.6.1	win	2023-07-10	18:49:00	18:54:54	347341	5ed3f7c5c739ce0a04ce3df5	3	1	practice_z	9	advance_on_keypress_ZEE	4	stimuli_target_squarediamonds.svg	stimuli_distractor_trianglediamonds.svg	5	yes	57	0	330	0	0			0	0			1				0	
6.6.1	win	2023-07-10	18:49:00	18:54:56	349508	5ed3f7c5c739ce0a04ce3df5	3	1	practice_z	9	practice_z	5	stimuli_distractor_trianglediamonds.svg	stimuli_target_diamondrectangles.svg	12	yes	44	1	186	0	0			0	0			1				0	
6.6.1	win	2023-07-10	18:49:00	18:54:56	349508	5ed3f7c5c739ce0a04ce3df5	3	1	practice_z	9	advance_on_keypress_ZEE	6	stimuli_distractor_trianglediamonds.svg	stimuli_target_diamondrectangles.svg	12	yes	57	0	840	0	0			0	0			1				0	
6.6.1	win	2023-07-10	18:49:00	18:54:59	351996	5ed3f7c5c739ce0a04ce3df5	3	1	practice_z	9	practice_z	7	stimuli_distractor_trianglediamonds.svg	stimuli_target_squarediamonds.svg	11	yes	44	1	8	0	0			0	0			1				0	
6.6.1	win	2023-07-10	18:49:00	18:54:59	351996	5ed3f7c5c739ce0a04ce3df5	3	1	practice_z	9	advance_on_keypress_ZEE	8	stimuli_distractor_trianglediamonds.svg	stimuli_target_squarediamonds.svg	11	yes	57	0	392	0	0			0	0			1				0	
6.6.1	win	2023-07-10	18:49:00	18:55:01	354270	5ed3f7c5c739ce0a04ce3df5	3	1	practice_z	9	practice_z	9	stimuli_target_rectanglediamonds.svg	stimuli_distractor_diamondtriangles.svg	1	yes	44	1	215	0	0			0	0			1				0	
6.6.1	win	2023-07-10	18:49:00	18:55:01	354270	5ed3f7c5c739ce0a04ce3df5	3	1	practice_z	9	advance_on_keypress_ZEE	10	stimuli_target_rectanglediamonds.svg	stimuli_distractor_diamondtriangles.svg	1	yes	57	0	334	0	0			0	0			1				0	
6.6.1	win	2023-07-10	18:49:00	18:55:05	358252	5ed3f7c5c739ce0a04ce3df5	3	1	practice_z	9	practice_z	11	stimuli_distractor_diamondtriangles.svg	stimuli_distractor_diamondtriangles.svg	13	no	0	1	2000	0	0			0	0			1				0	
6.6.1	win	2023-07-10	18:49:00	18:55:05	358252	5ed3f7c5c739ce0a04ce3df5	3	1	practice_z	9	advance_on_keypress_ZEE	12	stimuli_distractor_diamondtriangles.svg	stimuli_distractor_diamondtriangles.svg	13	no	57	0	606	0	0			0	0			1				0	
6.6.1	win	2023-07-10	18:49:00	18:55:08	360818	5ed3f7c5c739ce0a04ce3df5	3	1	practice_z	9	practice_z	13	stimuli_distractor_diamondtriangles.svg	stimuli_target_trianglerectangles.svg	9	yes	44	1	319	0	0			0	0			1				0	
6.6.1	win	2023-07-10	18:49:00	18:55:08	360818	5ed3f7c5c739ce0a04ce3df5	3	1	practice_z	9	advance_on_keypress_ZEE	14	stimuli_distractor_diamondtriangles.svg	stimuli_target_trianglerectangles.svg	9	yes	57	0	340	0	0			0	0			1				0	
6.6.1	win	2023-07-10	18:49:00	18:55:10	363059	5ed3f7c5c739ce0a04ce3df5	3	1	practice_z	9	practice_z	15	stimuli_distractor_trianglediamonds.svg	stimuli_target_rectanglediamonds.svg	10	yes	44	1	245	0	0			0	0			1				0	
6.6.1	win	2023-07-10	18:49:00	18:55:10	363059	5ed3f7c5c739ce0a04ce3df5	3	1	practice_z	9	advance_on_keypress_ZEE	16	stimuli_distractor_trianglediamonds.svg	stimuli_target_rectanglediamonds.svg	10	yes	57	0	369	0	0			0	0			1				0	
6.6.1	win	2023-07-10	18:49:00	18:55:12	365305	5ed3f7c5c739ce0a04ce3df5	3	1	practice_z	9	practice_z	17	stimuli_distractor_trianglediamonds.svg	stimuli_distractor_trianglediamonds.svg	15	no	44	0	226	0	0			0	0			1				0	
6.6.1	win	2023-07-10	18:49:00	18:55:12	365305	5ed3f7c5c739ce0a04ce3df5	3	1	practice_z	9	advance_on_keypress_ZEE	18	stimuli_distractor_trianglediamonds.svg	stimuli_distractor_trianglediamonds.svg	15	no	57	0	420	0	0			0	0			1				0	
6.6.1	win	2023-07-10	18:49:00	18:55:14	367585	5ed3f7c5c739ce0a04ce3df5	3	1	practice_z	9	practice_z	19	stimuli_distractor_diamondtriangles.svg	stimuli_target_diamondrectangles.svg	8	yes	44	1	208	0	0			0	0			1				0	
6.6.1	win	2023-07-10	18:49:00	18:55:14	367585	5ed3f7c5c739ce0a04ce3df5	3	1	practice_z	9	advance_on_keypress_ZEE	20	stimuli_distractor_diamondtriangles.svg	stimuli_target_diamondrectangles.svg	8	yes	57	0	318	0	0			0	0			1				0	
6.6.1	win	2023-07-10	18:49:00	18:55:17	369821	5ed3f7c5c739ce0a04ce3df5	3	1	practice_z	9	practice_z	21	stimuli_target_squarediamonds.svg	stimuli_distractor_diamondtriangles.svg	2	yes	44	1	262	0	0			0	0			1				0	
6.6.1	win	2023-07-10	18:49:00	18:55:17	369821	5ed3f7c5c739ce0a04ce3df5	3	1	practice_z	9	advance_on_keypress_ZEE	22	stimuli_target_squarediamonds.svg	stimuli_distractor_diamondtriangles.svg	2	yes	57	0	260	0	0			0	0			1				0	
6.6.1	win	2023-07-10	18:49:00	18:55:19	372002	5ed3f7c5c739ce0a04ce3df5	3	1	practice_z	9	practice_z	23	stimuli_distractor_diamondtriangles.svg	stimuli_target_rectangletriangles.svg	7	yes	44	1	261	0	0			0	0			1				0	
6.6.1	win	2023-07-10	18:49:00	18:55:19	372002	5ed3f7c5c739ce0a04ce3df5	3	1	practice_z	9	advance_on_keypress_ZEE	24	stimuli_distractor_diamondtriangles.svg	stimuli_target_rectangletriangles.svg	7	yes	57	0	239	0	0			0	0			1				0	
6.6.1	win	2023-07-10	18:49:00	18:55:21	374122	5ed3f7c5c739ce0a04ce3df5	3	1	practice_z	9	practice_z	25	stimuli_target_rectanglediamonds.svg	stimuli_distractor_trianglediamonds.svg	4	yes	44	1	234	0	0			0	0			1				0	
6.6.1	win	2023-07-10	18:49:00	18:55:21	374122	5ed3f7c5c739ce0a04ce3df5	3	1	practice_z	9	advance_on_keypress_ZEE	26	stimuli_target_rectanglediamonds.svg	stimuli_distractor_trianglediamonds.svg	4	yes	57	0	274	0	0			0	0			1				0	
6.6.1	win	2023-07-10	18:49:00	18:55:24	376920	5ed3f7c5c739ce0a04ce3df5	3	1	practice_z	9	practice_z	27	stimuli_distractor_diamondtriangles.svg	stimuli_distractor_trianglediamonds.svg	14	no	44	0	883	0	0			0	0			1				0	
6.6.1	win	2023-07-10	18:49:00	18:55:24	376920	5ed3f7c5c739ce0a04ce3df5	3	1	practice_z	9	advance_on_keypress_ZEE	28	stimuli_distractor_diamondtriangles.svg	stimuli_distractor_trianglediamonds.svg	14	no	57	0	523	0	0			0	0			1				0	
6.6.1	win	2023-07-10	18:49:00	18:55:26	379301	5ed3f7c5c739ce0a04ce3df5	3	1	practice_z	9	practice_z	29	stimuli_target_diamondsquares.svg	stimuli_distractor_trianglediamonds.svg	6	yes	44	1	216	0	0			0	0			1				0	
6.6.1	win	2023-07-10	18:49:00	18:55:26	379301	5ed3f7c5c739ce0a04ce3df5	3	1	practice_z	9	advance_on_keypress_ZEE	30	stimuli_target_diamondsquares.svg	stimuli_distractor_trianglediamonds.svg	6	yes	57	0	577	0	0			0	0			1				0	
6.6.1	win	2023-07-10	18:49:00	18:55:29	381744	5ed3f7c5c739ce0a04ce3df5	3	1	practice_z	9	practice_z	31	stimuli_distractor_trianglediamonds.svg	stimuli_distractor_diamondtriangles.svg	16	no	44	0	212	0	0			0	0			1				0	
6.6.1	win	2023-07-10	18:49:00	18:55:29	381744	5ed3f7c5c739ce0a04ce3df5	3	1	practice_z	9	advance_on_keypress_ZEE	32	stimuli_distractor_trianglediamonds.svg	stimuli_distractor_diamondtriangles.svg	16	no	57	0	454	0	0			0	0			1				0	
6.6.1	win	2023-07-10	18:49:00	18:55:35	388116	5ed3f7c5c739ce0a04ce3df5	3	1	main_z	11	main_z	1	stimuli_distractor_trianglediamonds.svg	stimuli_distractor_trianglediamonds.svg	34	no	44	0	424	0	0			0	0			1				0	
6.6.1	win	2023-07-10	18:49:00	18:55:35	388116	5ed3f7c5c739ce0a04ce3df5	3	1	main_z	11	advance_on_keypress_ZEE	2	stimuli_distractor_trianglediamonds.svg	stimuli_distractor_trianglediamonds.svg	34	no	57	0	848	0	0			0	0			1				0	
6.6.1	win	2023-07-10	18:49:00	18:55:37	389987	5ed3f7c5c739ce0a04ce3df5	3	1	main_z	11	main_z	3	stimuli_distractor_diamondtriangles.svg	stimuli_target_rectanglediamonds.svg	14	yes	44	1	381	0	0			0	0			1				0	
6.6.1	win	2023-07-10	18:49:00	18:55:37	389987	5ed3f7c5c739ce0a04ce3df5	3	1	main_z	11	advance_on_keypress_ZEE	4	stimuli_distractor_diamondtriangles.svg	stimuli_target_rectanglediamonds.svg	14	yes	57	0	594	0	0			0	0			1				0	
6.6.1	win	2023-07-10	18:49:00	18:55:38	391436	5ed3f7c5c739ce0a04ce3df5	3	1	main_z	11	main_z	5	stimuli_distractor_diamondtriangles.svg	stimuli_target_diamondrectangles.svg	31	yes	44	1	197	0	0			0	0			1				0	
6.6.1	win	2023-07-10	18:49:00	18:55:38	391436	5ed3f7c5c739ce0a04ce3df5	3	1	main_z	11	advance_on_keypress_ZEE	6	stimuli_distractor_diamondtriangles.svg	stimuli_target_diamondrectangles.svg	31	yes	57	0	644	0	0			0	0			1				0	
6.6.1	win	2023-07-10	18:49:00	18:55:40	393209	5ed3f7c5c739ce0a04ce3df5	3	1	main_z	11	main_z	7	stimuli_distractor_trianglediamonds.svg	stimuli_target_rectanglediamonds.svg	10	yes	44	1	471	0	0			0	0			1				0	
6.6.1	win	2023-07-10	18:49:00	18:55:40	393209	5ed3f7c5c739ce0a04ce3df5	3	1	main_z	11	advance_on_keypress_ZEE	8	stimuli_distractor_trianglediamonds.svg	stimuli_target_rectanglediamonds.svg	10	yes	57	0	621	0	0			0	0			1				0	
6.6.1	win	2023-07-10	18:49:00	18:55:41	394707	5ed3f7c5c739ce0a04ce3df5	3	1	main_z	11	main_z	9	stimuli_distractor_trianglediamonds.svg	stimuli_target_trianglerectangles.svg	25	yes	44	1	237	0	0			0	0			1				0	
6.6.1	win	2023-07-10	18:49:00	18:55:41	394707	5ed3f7c5c739ce0a04ce3df5	3	1	main_z	11	advance_on_keypress_ZEE	10	stimuli_distractor_trianglediamonds.svg	stimuli_target_trianglerectangles.svg	25	yes	57	0	640	0	0			0	0			1				0	
6.6.1	win	2023-07-10	18:49:00	18:55:43	396187	5ed3f7c5c739ce0a04ce3df5	3	1	main_z	11	main_z	11	stimuli_target_rectangletriangles.svg	stimuli_distractor_trianglediamonds.svg	1	yes	44	1	202	0	0			0	0			1				0	
6.6.1	win	2023-07-10	18:49:00	18:55:43	396187	5ed3f7c5c739ce0a04ce3df5	3	1	main_z	11	advance_on_keypress_ZEE	12	stimuli_target_rectangletriangles.svg	stimuli_distractor_trianglediamonds.svg	1	yes	57	0	600	0	0			0	0			1				0	
6.6.1	win	2023-07-10	18:49:00	18:55:44	397614	5ed3f7c5c739ce0a04ce3df5	3	1	main_z	11	main_z	13	stimuli_distractor_diamondtriangles.svg	stimuli_distractor_trianglediamonds.svg	38	no	44	0	181	0	0			0	0			1				0	
6.6.1	win	2023-07-10	18:49:00	18:55:44	397614	5ed3f7c5c739ce0a04ce3df5	3	1	main_z	11	advance_on_keypress_ZEE	14	stimuli_distractor_diamondtriangles.svg	stimuli_distractor_trianglediamonds.svg	38	no	57	0	653	0	0			0	0			1				0	
6.6.1	win	2023-07-10	18:49:00	18:55:46	399118	5ed3f7c5c739ce0a04ce3df5	3	1	main_z	11	main_z	15	stimuli_target_rectanglediamonds.svg	stimuli_distractor_diamondtriangles.svg	6	yes	44	1	203	0	0			0	0			1				0	
6.6.1	win	2023-07-10	18:49:00	18:55:46	399118	5ed3f7c5c739ce0a04ce3df5	3	1	main_z	11	advance_on_keypress_ZEE	16	stimuli_target_rectanglediamonds.svg	stimuli_distractor_diamondtriangles.svg	6	yes	57	0	528	0	0			0	0			1				0	
6.6.1	win	2023-07-10	18:49:00	18:55:47	400522	5ed3f7c5c739ce0a04ce3df5	3	1	main_z	11	main_z	17	stimuli_distractor_diamondtriangles.svg	stimuli_target_rectangletriangles.svg	13	yes	44	1	223	0	0			0	0			1				0	
6.6.1	win	2023-07-10	18:49:00	18:55:47	400522	5ed3f7c5c739ce0a04ce3df5	3	1	main_z	11	advance_on_keypress_ZEE	18	stimuli_distractor_diamondtriangles.svg	stimuli_target_rectangletriangles.svg	13	yes	57	0	489	0	0			0	0			1				0	
6.6.1	win	2023-07-10	18:49:00	18:55:49	402184	5ed3f7c5c739ce0a04ce3df5	3	1	main_z	11	main_z	19	stimuli_distractor_trianglediamonds.svg	stimuli_target_diamondsquares.svg	28	yes	44	1	537	0	0			0	0			1				0	
6.6.1	win	2023-07-10	18:49:00	18:55:49	402184	5ed3f7c5c739ce0a04ce3df5	3	1	main_z	11	advance_on_keypress_ZEE	20	stimuli_distractor_trianglediamonds.svg	stimuli_target_diamondsquares.svg	28	yes	57	0	625	0	0			0	0			1				0	
6.6.1	win	2023-07-10	18:49:00	18:55:50	403678	5ed3f7c5c739ce0a04ce3df5	3	1	main_z	11	main_z	21	stimuli_distractor_trianglediamonds.svg	stimuli_target_squarediamonds.svg	12	yes	44	1	232	0	0			0	0			1				0	
6.6.1	win	2023-07-10	18:49:00	18:55:50	403678	5ed3f7c5c739ce0a04ce3df5	3	1	main_z	11	advance_on_keypress_ZEE	22	stimuli_distractor_trianglediamonds.svg	stimuli_target_squarediamonds.svg	12	yes	57	0	600	0	0			0	0			1				0	
6.6.1	win	2023-07-10	18:49:00	18:55:52	405133	5ed3f7c5c739ce0a04ce3df5	3	1	main_z	11	main_z	23	stimuli_target_trianglerectangles.svg	stimuli_distractor_diamondtriangles.svg	21	yes	44	1	206	0	0			0	0			1				0	
6.6.1	win	2023-07-10	18:49:00	18:55:52	405133	5ed3f7c5c739ce0a04ce3df5	3	1	main_z	11	advance_on_keypress_ZEE	24	stimuli_target_trianglerectangles.svg	stimuli_distractor_diamondtriangles.svg	21	yes	57	0	496	0	0			0	0			1				0	
6.6.1	win	2023-07-10	18:49:00	18:55:53	406521	5ed3f7c5c739ce0a04ce3df5	3	1	main_z	11	main_z	25	stimuli_distractor_diamondtriangles.svg	stimuli_target_diamondsquares.svg	32	yes	44	1	244	0	0			0	0			1				0	
6.6.1	win	2023-07-10	18:49:00	18:55:53	406521	5ed3f7c5c739ce0a04ce3df5	3	1	main_z	11	advance_on_keypress_ZEE	26	stimuli_distractor_diamondtriangles.svg	stimuli_target_diamondsquares.svg	32	yes	57	0	214	0	0			0	0			1				0	
6.6.1	win	2023-07-10	18:49:00	18:55:55	407754	5ed3f7c5c739ce0a04ce3df5	3	1	main_z	11	main_z	27	stimuli_target_diamondrectangles.svg	stimuli_distractor_diamondtriangles.svg	23	yes	44	1	361	0	0			0	0			1				0	
6.6.1	win	2023-07-10	18:49:00	18:55:55	407754	5ed3f7c5c739ce0a04ce3df5	3	1	main_z	11	advance_on_keypress_ZEE	28	stimuli_target_diamondrectangles.svg	stimuli_distractor_diamondtriangles.svg	23	yes	57	0	657	0	0			0	0			1				0	
6.6.1	win	2023-07-10	18:49:00	18:55:56	409535	5ed3f7c5c739ce0a04ce3df5	3	1	main_z	11	main_z	29	stimuli_target_squarediamonds.svg	stimuli_distractor_diamondtriangles.svg	8	yes	44	1	477	0	0			0	0			1				0	
6.6.1	win	2023-07-10	18:49:00	18:55:56	409535	5ed3f7c5c739ce0a04ce3df5	3	1	main_z	11	advance_on_keypress_ZEE	30	stimuli_target_squarediamonds.svg	stimuli_distractor_diamondtriangles.svg	8	yes	57	0	682	0	0			0	0			1				0	
6.6.1	win	2023-07-10	18:49:00	18:55:58	411116	5ed3f7c5c739ce0a04ce3df5	3	1	main_z	11	main_z	31	stimuli_distractor_trianglediamonds.svg	stimuli_distractor_diamondtriangles.svg	36	no	44	0	243	0	0			0	0			1				0	
6.6.1	win	2023-07-10	18:49:00	18:55:58	411116	5ed3f7c5c739ce0a04ce3df5	3	1	main_z	11	advance_on_keypress_ZEE	32	stimuli_distractor_trianglediamonds.svg	stimuli_distractor_diamondtriangles.svg	36	no	57	0	665	0	0			0	0			1				0	
6.6.1	win	2023-07-10	18:49:00	18:56:00	413013	5ed3f7c5c739ce0a04ce3df5	3	1	main_z	11	main_z	33	stimuli_distractor_trianglediamonds.svg	stimuli_target_diamondrectangles.svg	27	yes	44	1	590	0	0			0	0			1				0	
6.6.1	win	2023-07-10	18:49:00	18:56:00	413013	5ed3f7c5c739ce0a04ce3df5	3	1	main_z	11	advance_on_keypress_ZEE	34	stimuli_distractor_trianglediamonds.svg	stimuli_target_diamondrectangles.svg	27	yes	57	0	624	0	0			0	0			1				0	
6.6.1	win	2023-07-10	18:49:00	18:56:01	414472	5ed3f7c5c739ce0a04ce3df5	3	1	main_z	11	main_z	35	stimuli_distractor_diamondtriangles.svg	stimuli_target_squarediamonds.svg	16	yes	44	1	200	0	0			0	0			1				0	
6.6.1	win	2023-07-10	18:49:00	18:56:01	414472	5ed3f7c5c739ce0a04ce3df5	3	1	main_z	11	advance_on_keypress_ZEE	36	stimuli_distractor_diamondtriangles.svg	stimuli_target_squarediamonds.svg	16	yes	57	0	569	0	0			0	0			1				0	
6.6.1	win	2023-07-10	18:49:00	18:56:03	415886	5ed3f7c5c739ce0a04ce3df5	3	1	main_z	11	main_z	37	stimuli_distractor_trianglediamonds.svg	stimuli_distractor_diamondtriangles.svg	35	no	44	0	199	0	0			0	0			1				0	
6.6.1	win	2023-07-10	18:49:00	18:56:03	415886	5ed3f7c5c739ce0a04ce3df5	3	1	main_z	11	advance_on_keypress_ZEE	38	stimuli_distractor_trianglediamonds.svg	stimuli_distractor_diamondtriangles.svg	35	no	57	0	1352	0	0			0	0			1				0	
6.6.1	win	2023-07-10	18:49:00	18:56:07	419885	5ed3f7c5c739ce0a04ce3df5	3	1	main_z	11	main_z	39	stimuli_target_diamondsquares.svg	stimuli_distractor_trianglediamonds.svg	20	yes	0	0	2000	0	0			0	0			1				0	
6.6.1	win	2023-07-10	18:49:00	18:56:07	419885	5ed3f7c5c739ce0a04ce3df5	3	1	main_z	11	advance_on_keypress_ZEE	40	stimuli_target_diamondsquares.svg	stimuli_distractor_trianglediamonds.svg	20	yes	57	0	1004	0	0			0	0			1				0	
6.6.1	win	2023-07-10	18:49:00	18:56:09	421746	5ed3f7c5c739ce0a04ce3df5	3	1	main_z	11	main_z	41	stimuli_distractor_diamondtriangles.svg	stimuli_target_squaretriangles.svg	15	yes	44	1	214	0	0			0	0			1				0	
6.6.1	win	2023-07-10	18:49:00	18:56:09	421746	5ed3f7c5c739ce0a04ce3df5	3	1	main_z	11	advance_on_keypress_ZEE	42	stimuli_distractor_diamondtriangles.svg	stimuli_target_squaretriangles.svg	15	yes	57	0	584	0	0			0	0			1				0	
6.6.1	win	2023-07-10	18:49:00	18:56:10	423220	5ed3f7c5c739ce0a04ce3df5	3	1	main_z	11	main_z	43	stimuli_target_diamondsquares.svg	stimuli_distractor_diamondtriangles.svg	24	yes	44	1	238	0	0			0	0			1				0	
6.6.1	win	2023-07-10	18:49:00	18:56:10	423220	5ed3f7c5c739ce0a04ce3df5	3	1	main_z	11	advance_on_keypress_ZEE	44	stimuli_target_diamondsquares.svg	stimuli_distractor_diamondtriangles.svg	24	yes	57	0	661	0	0			0	0			1				0	
6.6.1	win	2023-07-10	18:49:00	18:56:12	424727	5ed3f7c5c739ce0a04ce3df5	3	1	main_z	11	main_z	45	stimuli_target_squaretriangles.svg	stimuli_distractor_trianglediamonds.svg	3	yes	44	1	198	0	0			0	0			1				0	
6.6.1	win	2023-07-10	18:49:00	18:56:12	424727	5ed3f7c5c739ce0a04ce3df5	3	1	main_z	11	advance_on_keypress_ZEE	46	stimuli_target_squaretriangles.svg	stimuli_distractor_trianglediamonds.svg	3	yes	57	0	625	0	0			0	0			1				0	
6.6.1	win	2023-07-10	18:49:00	18:56:13	426282	5ed3f7c5c739ce0a04ce3df5	3	1	main_z	11	main_z	47	stimuli_distractor_diamondtriangles.svg	stimuli_target_trianglerectangles.svg	29	yes	44	1	286	0	0			0	0			1				0	
6.6.1	win	2023-07-10	18:49:00	18:56:13	426282	5ed3f7c5c739ce0a04ce3df5	3	1	main_z	11	advance_on_keypress_ZEE	48	stimuli_distractor_diamondtriangles.svg	stimuli_target_trianglerectangles.svg	29	yes	57	0	589	0	0			0	0			1				0	
6.6.1	win	2023-07-10	18:49:00	18:56:15	427731	5ed3f7c5c739ce0a04ce3df5	3	1	main_z	11	main_z	49	stimuli_target_trianglerectangles.svg	stimuli_distractor_trianglediamonds.svg	17	yes	44	1	220	0	0			0	0			1				0	
6.6.1	win	2023-07-10	18:49:00	18:56:15	427731	5ed3f7c5c739ce0a04ce3df5	3	1	main_z	11	advance_on_keypress_ZEE	50	stimuli_target_trianglerectangles.svg	stimuli_distractor_trianglediamonds.svg	17	yes	57	0	544	0	0			0	0			1				0	
6.6.1	win	2023-07-10	18:49:00	18:56:16	429150	5ed3f7c5c739ce0a04ce3df5	3	1	main_z	11	main_z	51	stimuli_distractor_diamondtriangles.svg	stimuli_distractor_trianglediamonds.svg	37	no	44	0	223	0	0			0	0			1				0	
6.6.1	win	2023-07-10	18:49:00	18:56:16	429150	5ed3f7c5c739ce0a04ce3df5	3	1	main_z	11	advance_on_keypress_ZEE	52	stimuli_distractor_diamondtriangles.svg	stimuli_distractor_trianglediamonds.svg	37	no	57	0	1145	0	0			0	0			1				0	
6.6.1	win	2023-07-10	18:49:00	18:56:18	431195	5ed3f7c5c739ce0a04ce3df5	3	1	main_z	11	main_z	53	stimuli_distractor_diamondtriangles.svg	stimuli_distractor_diamondtriangles.svg	39	no	44	0	254	0	0			0	0			1				0	
6.6.1	win	2023-07-10	18:49:00	18:56:18	431195	5ed3f7c5c739ce0a04ce3df5	3	1	main_z	11	advance_on_keypress_ZEE	54	stimuli_distractor_diamondtriangles.svg	stimuli_distractor_diamondtriangles.svg	39	no	57	0	545	0	0			0	0			1				0	
6.6.1	win	2023-07-10	18:49:00	18:56:20	432907	5ed3f7c5c739ce0a04ce3df5	3	1	main_z	11	main_z	55	stimuli_distractor_trianglediamonds.svg	stimuli_target_trianglesquares.svg	26	yes	44	1	517	0	0			0	0			1				0	
6.6.1	win	2023-07-10	18:49:00	18:56:20	432907	5ed3f7c5c739ce0a04ce3df5	3	1	main_z	11	advance_on_keypress_ZEE	56	stimuli_distractor_trianglediamonds.svg	stimuli_target_trianglesquares.svg	26	yes	57	0	648	0	0			0	0			1				0	
6.6.1	win	2023-07-10	18:49:00	18:56:21	434656	5ed3f7c5c739ce0a04ce3df5	3	1	main_z	11	main_z	57	stimuli_target_squaretriangles.svg	stimuli_distractor_diamondtriangles.svg	7	yes	44	1	449	0	0			0	0			1				0	
6.6.1	win	2023-07-10	18:49:00	18:56:21	434656	5ed3f7c5c739ce0a04ce3df5	3	1	main_z	11	advance_on_keypress_ZEE	58	stimuli_target_squaretriangles.svg	stimuli_distractor_diamondtriangles.svg	7	yes	57	0	535	0	0			0	0			1				0	
6.6.1	win	2023-07-10	18:49:00	18:56:23	436049	5ed3f7c5c739ce0a04ce3df5	3	1	main_z	11	main_z	59	stimuli_target_diamondrectangles.svg	stimuli_distractor_trianglediamonds.svg	19	yes	44	1	212	0	0			0	0			1				0	
6.6.1	win	2023-07-10	18:49:00	18:56:23	436049	5ed3f7c5c739ce0a04ce3df5	3	1	main_z	11	advance_on_keypress_ZEE	60	stimuli_target_diamondrectangles.svg	stimuli_distractor_trianglediamonds.svg	19	yes	57	0	873	0	0			0	0			1				0	
6.6.1	win	2023-07-10	18:49:00	18:56:25	437803	5ed3f7c5c739ce0a04ce3df5	3	1	main_z	11	main_z	61	stimuli_target_rectangletriangles.svg	stimuli_distractor_diamondtriangles.svg	5	yes	44	1	249	0	0			0	0			1				0	
6.6.1	win	2023-07-10	18:49:00	18:56:25	437803	5ed3f7c5c739ce0a04ce3df5	3	1	main_z	11	advance_on_keypress_ZEE	62	stimuli_target_rectangletriangles.svg	stimuli_distractor_diamondtriangles.svg	5	yes	57	0	516	0	0			0	0			1				0	
6.6.1	win	2023-07-10	18:49:00	18:56:26	439202	5ed3f7c5c739ce0a04ce3df5	3	1	main_z	11	main_z	63	stimuli_target_trianglesquares.svg	stimuli_distractor_trianglediamonds.svg	18	yes	44	1	233	0	0			0	0			1				0	
6.6.1	win	2023-07-10	18:49:00	18:56:26	439202	5ed3f7c5c739ce0a04ce3df5	3	1	main_z	11	advance_on_keypress_ZEE	64	stimuli_target_trianglesquares.svg	stimuli_distractor_trianglediamonds.svg	18	yes	57	0	381	0	0			0	0			1				0	
6.6.1	win	2023-07-10	18:49:00	18:56:27	440531	5ed3f7c5c739ce0a04ce3df5	3	1	main_z	11	main_z	65	stimuli_distractor_trianglediamonds.svg	stimuli_target_rectangletriangles.svg	9	yes	44	1	296	0	0			0	0			1				0	
6.6.1	win	2023-07-10	18:49:00	18:56:27	440531	5ed3f7c5c739ce0a04ce3df5	3	1	main_z	11	advance_on_keypress_ZEE	66	stimuli_distractor_trianglediamonds.svg	stimuli_target_rectangletriangles.svg	9	yes	57	0	657	0	0			0	0			1				0	
6.6.1	win	2023-07-10	18:49:00	18:56:29	442039	5ed3f7c5c739ce0a04ce3df5	3	1	main_z	11	main_z	67	stimuli_target_rectanglediamonds.svg	stimuli_distractor_trianglediamonds.svg	2	yes	44	1	205	0	0			0	0			1				0	
6.6.1	win	2023-07-10	18:49:00	18:56:29	442039	5ed3f7c5c739ce0a04ce3df5	3	1	main_z	11	advance_on_keypress_ZEE	68	stimuli_target_rectanglediamonds.svg	stimuli_distractor_trianglediamonds.svg	2	yes	57	0	756	0	0			0	0			1				0	
6.6.1	win	2023-07-10	18:49:00	18:56:30	443603	5ed3f7c5c739ce0a04ce3df5	3	1	main_z	11	main_z	69	stimuli_target_squarediamonds.svg	stimuli_distractor_trianglediamonds.svg	4	yes	44	1	170	0	0			0	0			1				0	
6.6.1	win	2023-07-10	18:49:00	18:56:30	443603	5ed3f7c5c739ce0a04ce3df5	3	1	main_z	11	advance_on_keypress_ZEE	70	stimuli_target_squarediamonds.svg	stimuli_distractor_trianglediamonds.svg	4	yes	57	0	531	0	0			0	0			1				0	
6.6.1	win	2023-07-10	18:49:00	18:56:32	445032	5ed3f7c5c739ce0a04ce3df5	3	1	main_z	11	main_z	71	stimuli_distractor_trianglediamonds.svg	stimuli_distractor_trianglediamonds.svg	33	no	44	0	251	0	0			0	0			1				0	
6.6.1	win	2023-07-10	18:49:00	18:56:32	445032	5ed3f7c5c739ce0a04ce3df5	3	1	main_z	11	advance_on_keypress_ZEE	72	stimuli_distractor_trianglediamonds.svg	stimuli_distractor_trianglediamonds.svg	33	no	57	0	576	0	0			0	0			1				0	
6.6.1	win	2023-07-10	18:49:00	18:56:33	446588	5ed3f7c5c739ce0a04ce3df5	3	1	main_z	11	main_z	73	stimuli_target_trianglesquares.svg	stimuli_distractor_diamondtriangles.svg	22	yes	44	1	325	0	0			0	0			1				0	
6.6.1	win	2023-07-10	18:49:00	18:56:33	446588	5ed3f7c5c739ce0a04ce3df5	3	1	main_z	11	advance_on_keypress_ZEE	74	stimuli_target_trianglesquares.svg	stimuli_distractor_diamondtriangles.svg	22	yes	57	0	294	0	0			0	0			1				0	
6.6.1	win	2023-07-10	18:49:00	18:56:35	447760	5ed3f7c5c739ce0a04ce3df5	3	1	main_z	11	main_z	75	stimuli_distractor_diamondtriangles.svg	stimuli_distractor_diamondtriangles.svg	40	no	44	0	247	0	0			0	0			1				0	
6.6.1	win	2023-07-10	18:49:00	18:56:35	447760	5ed3f7c5c739ce0a04ce3df5	3	1	main_z	11	advance_on_keypress_ZEE	76	stimuli_distractor_diamondtriangles.svg	stimuli_distractor_diamondtriangles.svg	40	no	57	0	738	0	0			0	0			1				0	
6.6.1	win	2023-07-10	18:49:00	18:56:38	451145	5ed3f7c5c739ce0a04ce3df5	3	1	main_z	11	main_z	77	stimuli_distractor_trianglediamonds.svg	stimuli_target_squaretriangles.svg	11	yes	0	0	2000	0	0			0	0			1				0	
6.6.1	win	2023-07-10	18:49:00	18:56:38	451145	5ed3f7c5c739ce0a04ce3df5	3	1	main_z	11	advance_on_keypress_ZEE	78	stimuli_distractor_trianglediamonds.svg	stimuli_target_squaretriangles.svg	11	yes	57	0	534	0	0			0	0			1				0	
6.6.1	win	2023-07-10	18:49:00	18:56:39	452540	5ed3f7c5c739ce0a04ce3df5	3	1	main_z	11	main_z	79	stimuli_distractor_diamondtriangles.svg	stimuli_target_trianglesquares.svg	30	yes	44	1	213	0	0			0	0			1				0	
6.6.1	win	2023-07-10	18:49:00	18:56:39	452540	5ed3f7c5c739ce0a04ce3df5	3	1	main_z	11	advance_on_keypress_ZEE	80	stimuli_distractor_diamondtriangles.svg	stimuli_target_trianglesquares.svg	30	yes	57	0	515	0	0			0	0			1				0	
6.6.1	win	2023-07-10	18:49:00	18:56:41	453949	5ed3f7c5c739ce0a04ce3df5	3	1	main_z	11	main_z	81	stimuli_target_rectanglediamonds.svg	stimuli_distractor_trianglediamonds.svg	2	yes	44	1	240	0	0			0	0			1				0	
6.6.1	win	2023-07-10	18:49:00	18:56:41	453949	5ed3f7c5c739ce0a04ce3df5	3	1	main_z	11	advance_on_keypress_ZEE	82	stimuli_target_rectanglediamonds.svg	stimuli_distractor_trianglediamonds.svg	2	yes	57	0	475	0	0			0	0			1				0	
6.6.1	win	2023-07-10	18:49:00	18:56:42	455293	5ed3f7c5c739ce0a04ce3df5	3	1	main_z	11	main_z	83	stimuli_distractor_diamondtriangles.svg	stimuli_distractor_diamondtriangles.svg	40	no	44	0	235	0	0			0	0			1				0	
6.6.1	win	2023-07-10	18:49:00	18:56:42	455293	5ed3f7c5c739ce0a04ce3df5	3	1	main_z	11	advance_on_keypress_ZEE	84	stimuli_distractor_diamondtriangles.svg	stimuli_distractor_diamondtriangles.svg	40	no	57	0	694	0	0			0	0			1				0	
6.6.1	win	2023-07-10	18:49:00	18:56:44	457584	5ed3f7c5c739ce0a04ce3df5	3	1	main_z	11	main_z	85	stimuli_target_diamondrectangles.svg	stimuli_distractor_diamondtriangles.svg	23	yes	44	1	945	0	0			0	0			1				0	
6.6.1	win	2023-07-10	18:49:00	18:56:44	457584	5ed3f7c5c739ce0a04ce3df5	3	1	main_z	11	advance_on_keypress_ZEE	86	stimuli_target_diamondrectangles.svg	stimuli_distractor_diamondtriangles.svg	23	yes	57	0	671	0	0			0	0			1				0	
6.6.1	win	2023-07-10	18:49:00	18:56:46	459066	5ed3f7c5c739ce0a04ce3df5	3	1	main_z	11	main_z	87	stimuli_target_diamondrectangles.svg	stimuli_distractor_trianglediamonds.svg	19	yes	44	1	163	0	0			0	0			1				0	
6.6.1	win	2023-07-10	18:49:00	18:56:46	459066	5ed3f7c5c739ce0a04ce3df5	3	1	main_z	11	advance_on_keypress_ZEE	88	stimuli_target_diamondrectangles.svg	stimuli_distractor_trianglediamonds.svg	19	yes	57	0	522	0	0			0	0			1				0	
6.6.1	win	2023-07-10	18:49:00	18:56:47	460461	5ed3f7c5c739ce0a04ce3df5	3	1	main_z	11	main_z	89	stimuli_distractor_trianglediamonds.svg	stimuli_target_rectangletriangles.svg	9	yes	44	1	225	0	0			0	0			1				0	
6.6.1	win	2023-07-10	18:49:00	18:56:47	460461	5ed3f7c5c739ce0a04ce3df5	3	1	main_z	11	advance_on_keypress_ZEE	90	stimuli_distractor_trianglediamonds.svg	stimuli_target_rectangletriangles.svg	9	yes	57	0	540	0	0			0	0			1				0	
6.6.1	win	2023-07-10	18:49:00	18:56:49	461876	5ed3f7c5c739ce0a04ce3df5	3	1	main_z	11	main_z	91	stimuli_target_rectangletriangles.svg	stimuli_distractor_diamondtriangles.svg	5	yes	44	1	241	0	0			0	0			1				0	
6.6.1	win	2023-07-10	18:49:00	18:56:49	461876	5ed3f7c5c739ce0a04ce3df5	3	1	main_z	11	advance_on_keypress_ZEE	92	stimuli_target_rectangletriangles.svg	stimuli_distractor_diamondtriangles.svg	5	yes	57	0	219	0	0			0	0			1				0	
6.6.1	win	2023-07-10	18:49:00	18:56:50	463010	5ed3f7c5c739ce0a04ce3df5	3	1	main_z	11	main_z	93	stimuli_distractor_diamondtriangles.svg	stimuli_target_trianglerectangles.svg	29	yes	44	1	276	0	0			0	0			1				0	
6.6.1	win	2023-07-10	18:49:00	18:56:50	463010	5ed3f7c5c739ce0a04ce3df5	3	1	main_z	11	advance_on_keypress_ZEE	94	stimuli_distractor_diamondtriangles.svg	stimuli_target_trianglerectangles.svg	29	yes	57	0	222	0	0			0	0			1				0	
6.6.1	win	2023-07-10	18:49:00	18:56:51	464116	5ed3f7c5c739ce0a04ce3df5	3	1	main_z	11	main_z	95	stimuli_distractor_trianglediamonds.svg	stimuli_target_trianglerectangles.svg	25	yes	44	1	249	0	0			0	0			1				0	
6.6.1	win	2023-07-10	18:49:00	18:56:51	464116	5ed3f7c5c739ce0a04ce3df5	3	1	main_z	11	advance_on_keypress_ZEE	96	stimuli_distractor_trianglediamonds.svg	stimuli_target_trianglerectangles.svg	25	yes	57	0	142	0	0			0	0			1				0	
6.6.1	win	2023-07-10	18:49:00	18:56:54	466900	5ed3f7c5c739ce0a04ce3df5	3	1	main_z	11	main_z	97	stimuli_distractor_trianglediamonds.svg	stimuli_distractor_diamondtriangles.svg	36	no	0	1	2000	0	0			0	0			1				0	
6.6.1	win	2023-07-10	18:49:00	18:56:54	466900	5ed3f7c5c739ce0a04ce3df5	3	1	main_z	11	advance_on_keypress_ZEE	98	stimuli_distractor_trianglediamonds.svg	stimuli_distractor_diamondtriangles.svg	36	no	57	0	398	0	0			0	0			1				0	
6.6.1	win	2023-07-10	18:49:00	18:56:55	468168	5ed3f7c5c739ce0a04ce3df5	3	1	main_z	11	main_z	99	stimuli_target_squaretriangles.svg	stimuli_distractor_trianglediamonds.svg	3	yes	44	1	221	0	0			0	0			1				0	
6.6.1	win	2023-07-10	18:49:00	18:56:55	468168	5ed3f7c5c739ce0a04ce3df5	3	1	main_z	11	advance_on_keypress_ZEE	100	stimuli_target_squaretriangles.svg	stimuli_distractor_trianglediamonds.svg	3	yes	57	0	128	0	0			0	0			1				0	
6.6.1	win	2023-07-10	18:49:00	18:56:56	469333	5ed3f7c5c739ce0a04ce3df5	3	1	main_z	11	main_z	101	stimuli_distractor_diamondtriangles.svg	stimuli_target_diamondrectangles.svg	31	yes	44	1	387	0	0			0	0			1				0	
6.6.1	win	2023-07-10	18:49:00	18:56:56	469333	5ed3f7c5c739ce0a04ce3df5	3	1	main_z	11	advance_on_keypress_ZEE	102	stimuli_distractor_diamondtriangles.svg	stimuli_target_diamondrectangles.svg	31	yes	57	0	953	0	0			0	0			1				0	
6.6.1	win	2023-07-10	18:49:00	18:56:58	471345	5ed3f7c5c739ce0a04ce3df5	3	1	main_z	11	main_z	103	stimuli_distractor_trianglediamonds.svg	stimuli_target_rectanglediamonds.svg	10	yes	44	1	417	0	0			0	0			1				0	
6.6.1	win	2023-07-10	18:49:00	18:56:58	471345	5ed3f7c5c739ce0a04ce3df5	3	1	main_z	11	advance_on_keypress_ZEE	104	stimuli_distractor_trianglediamonds.svg	stimuli_target_rectanglediamonds.svg	10	yes	57	0	143	0	0			0	0			1				0	
6.6.1	win	2023-07-10	18:49:00	18:56:59	472405	5ed3f7c5c739ce0a04ce3df5	3	1	main_z	11	main_z	105	stimuli_distractor_diamondtriangles.svg	stimuli_distractor_diamondtriangles.svg	39	no	44	0	262	0	0			0	0			1				0	
6.6.1	win	2023-07-10	18:49:00	18:56:59	472405	5ed3f7c5c739ce0a04ce3df5	3	1	main_z	11	advance_on_keypress_ZEE	106	stimuli_distractor_diamondtriangles.svg	stimuli_distractor_diamondtriangles.svg	39	no	57	0	915	0	0			0	0			1				0	
6.6.1	win	2023-07-10	18:49:00	18:57:01	474217	5ed3f7c5c739ce0a04ce3df5	3	1	main_z	11	main_z	107	stimuli_distractor_trianglediamonds.svg	stimuli_distractor_trianglediamonds.svg	33	no	44	0	242	0	0			0	0			1				0	
6.6.1	win	2023-07-10	18:49:00	18:57:01	474217	5ed3f7c5c739ce0a04ce3df5	3	1	main_z	11	advance_on_keypress_ZEE	108	stimuli_distractor_trianglediamonds.svg	stimuli_distractor_trianglediamonds.svg	33	no	57	0	1311	0	0			0	0			1				0	
6.6.1	win	2023-07-10	18:49:00	18:57:05	478174	5ed3f7c5c739ce0a04ce3df5	3	1	main_z	11	main_z	109	stimuli_distractor_trianglediamonds.svg	stimuli_distractor_trianglediamonds.svg	34	no	0	1	2000	0	0			0	0			1				0	
6.6.1	win	2023-07-10	18:49:00	18:57:05	478174	5ed3f7c5c739ce0a04ce3df5	3	1	main_z	11	advance_on_keypress_ZEE	110	stimuli_distractor_trianglediamonds.svg	stimuli_distractor_trianglediamonds.svg	34	no	57	0	440	0	0			0	0			1				0	
6.6.1	win	2023-07-10	18:49:00	18:57:08	481272	5ed3f7c5c739ce0a04ce3df5	3	1	main_z	11	main_z	111	stimuli_distractor_diamondtriangles.svg	stimuli_distractor_trianglediamonds.svg	37	no	0	1	2000	0	0			0	0			1				0	
6.6.1	win	2023-07-10	18:49:00	18:57:08	481272	5ed3f7c5c739ce0a04ce3df5	3	1	main_z	11	advance_on_keypress_ZEE	112	stimuli_distractor_diamondtriangles.svg	stimuli_distractor_trianglediamonds.svg	37	no	57	0	315	0	0			0	0			1				0	
6.6.1	win	2023-07-10	18:49:00	18:57:10	482757	5ed3f7c5c739ce0a04ce3df5	3	1	main_z	11	main_z	113	stimuli_distractor_diamondtriangles.svg	stimuli_target_trianglesquares.svg	30	yes	44	1	522	0	0			0	0			1				0	
6.6.1	win	2023-07-10	18:49:00	18:57:10	482757	5ed3f7c5c739ce0a04ce3df5	3	1	main_z	11	advance_on_keypress_ZEE	114	stimuli_distractor_diamondtriangles.svg	stimuli_target_trianglesquares.svg	30	yes	57	0	237	0	0			0	0			1				0	
6.6.1	win	2023-07-10	18:49:00	18:57:11	484126	5ed3f7c5c739ce0a04ce3df5	3	1	main_z	11	main_z	115	stimuli_distractor_diamondtriangles.svg	stimuli_target_diamondsquares.svg	32	yes	44	1	491	0	0			0	0			1				0	
6.6.1	win	2023-07-10	18:49:00	18:57:11	484126	5ed3f7c5c739ce0a04ce3df5	3	1	main_z	11	advance_on_keypress_ZEE	116	stimuli_distractor_diamondtriangles.svg	stimuli_target_diamondsquares.svg	32	yes	57	0	221	0	0			0	0			1				0	
6.6.1	win	2023-07-10	18:49:00	18:57:12	485251	5ed3f7c5c739ce0a04ce3df5	3	1	main_z	11	main_z	117	stimuli_target_diamondsquares.svg	stimuli_distractor_diamondtriangles.svg	24	yes	44	1	267	0	0			0	0			1				0	
6.6.1	win	2023-07-10	18:49:00	18:57:12	485251	5ed3f7c5c739ce0a04ce3df5	3	1	main_z	11	advance_on_keypress_ZEE	118	stimuli_target_diamondsquares.svg	stimuli_distractor_diamondtriangles.svg	24	yes	57	0	164	0	0			0	0			1				0	
6.6.1	win	2023-07-10	18:49:00	18:57:13	486701	5ed3f7c5c739ce0a04ce3df5	3	1	main_z	11	main_z	119	stimuli_distractor_diamondtriangles.svg	stimuli_target_squaretriangles.svg	15	yes	44	1	634	0	0			0	0			1				0	
6.6.1	win	2023-07-10	18:49:00	18:57:13	486701	5ed3f7c5c739ce0a04ce3df5	3	1	main_z	11	advance_on_keypress_ZEE	120	stimuli_distractor_diamondtriangles.svg	stimuli_target_squaretriangles.svg	15	yes	57	0	582	0	0			0	0			1				0	
6.6.1	win	2023-07-10	18:49:00	18:57:15	488219	5ed3f7c5c739ce0a04ce3df5	3	1	main_z	11	main_z	121	stimuli_target_rectangletriangles.svg	stimuli_distractor_trianglediamonds.svg	1	yes	44	1	287	0	0			0	0			1				0	
6.6.1	win	2023-07-10	18:49:00	18:57:15	488219	5ed3f7c5c739ce0a04ce3df5	3	1	main_z	11	advance_on_keypress_ZEE	122	stimuli_target_rectangletriangles.svg	stimuli_distractor_trianglediamonds.svg	1	yes	57	0	207	0	0			0	0			1				0	
6.6.1	win	2023-07-10	18:49:00	18:57:16	489330	5ed3f7c5c739ce0a04ce3df5	3	1	main_z	11	main_z	123	stimuli_target_squarediamonds.svg	stimuli_distractor_trianglediamonds.svg	4	yes	44	1	264	0	0			0	0			1				0	
6.6.1	win	2023-07-10	18:49:00	18:57:16	489330	5ed3f7c5c739ce0a04ce3df5	3	1	main_z	11	advance_on_keypress_ZEE	124	stimuli_target_squarediamonds.svg	stimuli_distractor_trianglediamonds.svg	4	yes	57	0	92	0	0			0	0			1				0	
6.6.1	win	2023-07-10	18:49:00	18:57:17	490315	5ed3f7c5c739ce0a04ce3df5	3	1	main_z	11	main_z	125	stimuli_target_diamondsquares.svg	stimuli_distractor_trianglediamonds.svg	20	yes	44	1	251	0	0			0	0			1				0	
6.6.1	win	2023-07-10	18:49:00	18:57:17	490315	5ed3f7c5c739ce0a04ce3df5	3	1	main_z	11	advance_on_keypress_ZEE	126	stimuli_target_diamondsquares.svg	stimuli_distractor_trianglediamonds.svg	20	yes	57	0	119	0	0			0	0			1				0	
6.6.1	win	2023-07-10	18:49:00	18:57:18	491341	5ed3f7c5c739ce0a04ce3df5	3	1	main_z	11	main_z	127	stimuli_distractor_diamondtriangles.svg	stimuli_distractor_trianglediamonds.svg	38	no	44	0	261	0	0			0	0			1				0	
6.6.1	win	2023-07-10	18:49:00	18:57:18	491341	5ed3f7c5c739ce0a04ce3df5	3	1	main_z	11	advance_on_keypress_ZEE	128	stimuli_distractor_diamondtriangles.svg	stimuli_distractor_trianglediamonds.svg	38	no	57	0	133	0	0			0	0			1				0	
6.6.1	win	2023-07-10	18:49:00	18:57:20	492855	5ed3f7c5c739ce0a04ce3df5	3	1	main_z	11	main_z	129	stimuli_distractor_trianglediamonds.svg	stimuli_target_trianglesquares.svg	26	yes	44	1	726	0	0			0	0			1				0	
6.6.1	win	2023-07-10	18:49:00	18:57:20	492855	5ed3f7c5c739ce0a04ce3df5	3	1	main_z	11	advance_on_keypress_ZEE	130	stimuli_distractor_trianglediamonds.svg	stimuli_target_trianglesquares.svg	26	yes	57	0	455	0	0			0	0			1				0	
6.6.1	win	2023-07-10	18:49:00	18:57:21	494208	5ed3f7c5c739ce0a04ce3df5	3	1	main_z	11	main_z	131	stimuli_distractor_trianglediamonds.svg	stimuli_target_squaretriangles.svg	11	yes	44	1	248	0	0			0	0			1				0	
6.6.1	win	2023-07-10	18:49:00	18:57:21	494208	5ed3f7c5c739ce0a04ce3df5	3	1	main_z	11	advance_on_keypress_ZEE	132	stimuli_distractor_trianglediamonds.svg	stimuli_target_squaretriangles.svg	11	yes	57	0	161	0	0			0	0			1				0	
6.6.1	win	2023-07-10	18:49:00	18:57:22	495220	5ed3f7c5c739ce0a04ce3df5	3	1	main_z	11	main_z	133	stimuli_distractor_trianglediamonds.svg	stimuli_target_squarediamonds.svg	12	yes	44	1	210	0	0			0	0			1				0	
6.6.1	win	2023-07-10	18:49:00	18:57:22	495220	5ed3f7c5c739ce0a04ce3df5	3	1	main_z	11	advance_on_keypress_ZEE	134	stimuli_distractor_trianglediamonds.svg	stimuli_target_squarediamonds.svg	12	yes	57	0	76	0	0			0	0			1				0	
6.6.1	win	2023-07-10	18:49:00	18:57:23	496220	5ed3f7c5c739ce0a04ce3df5	3	1	main_z	11	main_z	135	stimuli_target_trianglesquares.svg	stimuli_distractor_trianglediamonds.svg	18	yes	44	1	262	0	0			0	0			1				0	
6.6.1	win	2023-07-10	18:49:00	18:57:23	496220	5ed3f7c5c739ce0a04ce3df5	3	1	main_z	11	advance_on_keypress_ZEE	136	stimuli_target_trianglesquares.svg	stimuli_distractor_trianglediamonds.svg	18	yes	57	0	118	0	0			0	0			1				0	
6.6.1	win	2023-07-10	18:49:00	18:57:24	497201	5ed3f7c5c739ce0a04ce3df5	3	1	main_z	11	main_z	137	stimuli_target_trianglerectangles.svg	stimuli_distractor_diamondtriangles.svg	21	yes	44	1	209	0	0			0	0			1				0	
6.6.1	win	2023-07-10	18:49:00	18:57:24	497201	5ed3f7c5c739ce0a04ce3df5	3	1	main_z	11	advance_on_keypress_ZEE	138	stimuli_target_trianglerectangles.svg	stimuli_distractor_diamondtriangles.svg	21	yes	57	0	73	0	0			0	0			1				0	
6.6.1	win	2023-07-10	18:49:00	18:57:25	498123	5ed3f7c5c739ce0a04ce3df5	3	1	main_z	11	main_z	139	stimuli_target_rectanglediamonds.svg	stimuli_distractor_diamondtriangles.svg	6	yes	44	1	215	0	0			0	0			1				0	
6.6.1	win	2023-07-10	18:49:00	18:57:25	498123	5ed3f7c5c739ce0a04ce3df5	3	1	main_z	11	advance_on_keypress_ZEE	140	stimuli_target_rectanglediamonds.svg	stimuli_distractor_diamondtriangles.svg	6	yes	57	0	67	0	0			0	0			1				0	
6.6.1	win	2023-07-10	18:49:00	18:57:26	499074	5ed3f7c5c739ce0a04ce3df5	3	1	main_z	11	main_z	141	stimuli_distractor_diamondtriangles.svg	stimuli_target_rectanglediamonds.svg	14	yes	44	1	234	0	0			0	0			1				0	
6.6.1	win	2023-07-10	18:49:00	18:57:26	499074	5ed3f7c5c739ce0a04ce3df5	3	1	main_z	11	advance_on_keypress_ZEE	142	stimuli_distractor_diamondtriangles.svg	stimuli_target_rectanglediamonds.svg	14	yes	57	0	18	0	0			0	0			1				0	
6.6.1	win	2023-07-10	18:49:00	18:57:27	500025	5ed3f7c5c739ce0a04ce3df5	3	1	main_z	11	main_z	143	stimuli_target_trianglerectangles.svg	stimuli_distractor_trianglediamonds.svg	17	yes	44	1	285	0	0			0	0			1				0	
6.6.1	win	2023-07-10	18:49:00	18:57:27	500025	5ed3f7c5c739ce0a04ce3df5	3	1	main_z	11	advance_on_keypress_ZEE	144	stimuli_target_trianglerectangles.svg	stimuli_distractor_trianglediamonds.svg	17	yes	57	0	225	0	0			0	0			1				0	
6.6.1	win	2023-07-10	18:49:00	18:57:30	502889	5ed3f7c5c739ce0a04ce3df5	3	1	main_z	11	main_z	145	stimuli_distractor_trianglediamonds.svg	stimuli_distractor_diamondtriangles.svg	35	no	0	1	2000	0	0			0	0			1				0	
6.6.1	win	2023-07-10	18:49:00	18:57:30	502889	5ed3f7c5c739ce0a04ce3df5	3	1	main_z	11	advance_on_keypress_ZEE	146	stimuli_distractor_trianglediamonds.svg	stimuli_distractor_diamondtriangles.svg	35	no	57	0	756	0	0			0	0			1				0	
6.6.1	win	2023-07-10	18:49:00	18:57:32	504919	5ed3f7c5c739ce0a04ce3df5	3	1	main_z	11	main_z	147	stimuli_target_squarediamonds.svg	stimuli_distractor_diamondtriangles.svg	8	yes	44	1	633	0	0			0	0			1				0	
6.6.1	win	2023-07-10	18:49:00	18:57:32	504919	5ed3f7c5c739ce0a04ce3df5	3	1	main_z	11	advance_on_keypress_ZEE	148	stimuli_target_squarediamonds.svg	stimuli_distractor_diamondtriangles.svg	8	yes	57	0	437	0	0			0	0			1				0	
6.6.1	win	2023-07-10	18:49:00	18:57:33	506213	5ed3f7c5c739ce0a04ce3df5	3	1	main_z	11	main_z	149	stimuli_target_squaretriangles.svg	stimuli_distractor_diamondtriangles.svg	7	yes	44	1	212	0	0			0	0			1				0	
6.6.1	win	2023-07-10	18:49:00	18:57:33	506213	5ed3f7c5c739ce0a04ce3df5	3	1	main_z	11	advance_on_keypress_ZEE	150	stimuli_target_squaretriangles.svg	stimuli_distractor_diamondtriangles.svg	7	yes	57	0	382	0	0			0	0			1				0	
6.6.1	win	2023-07-10	18:49:00	18:57:34	507474	5ed3f7c5c739ce0a04ce3df5	3	1	main_z	11	main_z	151	stimuli_distractor_diamondtriangles.svg	stimuli_target_squarediamonds.svg	16	yes	44	1	223	0	0			0	0			1				0	
6.6.1	win	2023-07-10	18:49:00	18:57:34	507474	5ed3f7c5c739ce0a04ce3df5	3	1	main_z	11	advance_on_keypress_ZEE	152	stimuli_distractor_diamondtriangles.svg	stimuli_target_squarediamonds.svg	16	yes	57	0	265	0	0			0	0			1				0	
6.6.1	win	2023-07-10	18:49:00	18:57:35	508599	5ed3f7c5c739ce0a04ce3df5	3	1	main_z	11	main_z	153	stimuli_distractor_diamondtriangles.svg	stimuli_target_rectangletriangles.svg	13	yes	44	1	216	0	0			0	0			1				0	
6.6.1	win	2023-07-10	18:49:00	18:57:35	508599	5ed3f7c5c739ce0a04ce3df5	3	1	main_z	11	advance_on_keypress_ZEE	154	stimuli_distractor_diamondtriangles.svg	stimuli_target_rectangletriangles.svg	13	yes	57	0	182	0	0			0	0			1				0	
6.6.1	win	2023-07-10	18:49:00	18:57:36	509640	5ed3f7c5c739ce0a04ce3df5	3	1	main_z	11	main_z	155	stimuli_distractor_trianglediamonds.svg	stimuli_target_diamondsquares.svg	28	yes	44	1	208	0	0			0	0			1				0	
6.6.1	win	2023-07-10	18:49:00	18:57:36	509640	5ed3f7c5c739ce0a04ce3df5	3	1	main_z	11	advance_on_keypress_ZEE	156	stimuli_distractor_trianglediamonds.svg	stimuli_target_diamondsquares.svg	28	yes	57	0	82	0	0			0	0			1				0	
6.6.1	win	2023-07-10	18:49:00	18:57:37	510541	5ed3f7c5c739ce0a04ce3df5	3	1	main_z	11	main_z	157	stimuli_distractor_trianglediamonds.svg	stimuli_target_diamondrectangles.svg	27	yes	44	1	176	0	0			0	0			1				0	
6.6.1	win	2023-07-10	18:49:00	18:57:37	510541	5ed3f7c5c739ce0a04ce3df5	3	1	main_z	11	advance_on_keypress_ZEE	158	stimuli_distractor_trianglediamonds.svg	stimuli_target_diamondrectangles.svg	27	yes	57	0	69	0	0			0	0			1				0	
6.6.1	win	2023-07-10	18:49:00	18:57:38	511472	5ed3f7c5c739ce0a04ce3df5	3	1	main_z	11	main_z	159	stimuli_target_trianglesquares.svg	stimuli_distractor_diamondtriangles.svg	22	yes	44	1	224	0	0			0	0			1				0	
6.6.1	win	2023-07-10	18:49:00	18:57:38	511472	5ed3f7c5c739ce0a04ce3df5	3	1	main_z	11	advance_on_keypress_ZEE	160	stimuli_target_trianglesquares.svg	stimuli_distractor_diamondtriangles.svg	22	yes	57	0	57	0	0			0	0			1				0	
6.6.1	win	2023-07-10	18:49:00	18:57:38	511472	5ed3f7c5c739ce0a04ce3df5	3	1	headphonecheck_calibration	14	headphonecheck_calibrationIntro	1	stimuli_target_trianglesquares.svg	stimuli_distractor_diamondtriangles.svg	22	yes	calibrationButton	0	2203	0	0			0	0			1				0	
6.6.1	win	2023-07-10	18:49:00	18:57:38	511472	5ed3f7c5c739ce0a04ce3df5	3	1	headphonecheck_testphase	15	test_collectResponse	3	stimuli_target_trianglesquares.svg	stimuli_distractor_diamondtriangles.svg	22	yes	second	0	5989	1	3	antiphase_hc_soi.wav	1	0	0			1				0	
6.6.1	win	2023-07-10	18:49:00	18:57:38	511472	5ed3f7c5c739ce0a04ce3df5	3	1	headphonecheck_testphase	15	test_collectResponse	6	stimuli_target_trianglesquares.svg	stimuli_distractor_diamondtriangles.svg	22	yes	third	1	594	2	2	antiphase_hc_ios.wav	3	0	0			1				0	
6.6.1	win	2023-07-10	18:49:00	18:57:38	511472	5ed3f7c5c739ce0a04ce3df5	3	1	headphonecheck_testphase	15	test_collectResponse	9	stimuli_target_trianglesquares.svg	stimuli_distractor_diamondtriangles.svg	22	yes	third	0	533	3	4	antiphase_hc_sio.wav	1	0	0			1				0	
6.6.1	win	2023-07-10	18:49:00	18:57:38	511472	5ed3f7c5c739ce0a04ce3df5	3	1	headphonecheck_testphase	15	test_collectResponse	12	stimuli_target_trianglesquares.svg	stimuli_distractor_diamondtriangles.svg	22	yes	second	1	693	4	5	antiphase_hc_osi.wav	2	0	0			1				0	
6.6.1	win	2023-07-10	18:49:00	18:57:38	511472	5ed3f7c5c739ce0a04ce3df5	3	1	headphonecheck_testphase	15	test_collectResponse	15	stimuli_target_trianglesquares.svg	stimuli_distractor_diamondtriangles.svg	22	yes	third	1	454	5	6	antiphase_hc_ois.wav	3	0	0			1				0	
6.6.1	win	2023-07-10	18:49:00	18:57:38	511472	5ed3f7c5c739ce0a04ce3df5	3	1	headphonecheck_testphase	15	test_collectResponse	18	stimuli_target_trianglesquares.svg	stimuli_distractor_diamondtriangles.svg	22	yes	second	1	472	6	1	antiphase_hc_iso.wav	2	0	0			1				0	
6.6.1	win	2023-07-10	18:49:00	18:57:38	511472	5ed3f7c5c739ce0a04ce3df5	3	1	stereocheck_calibration	17	stereocheck_calibrationIntro	1	stimuli_target_trianglesquares.svg	stimuli_distractor_diamondtriangles.svg	22	yes	stereocheck_calibrationButton	0	1835	6	1	antiphase_hc_iso.wav	2	0	0			1				0	
6.6.1	win	2023-07-10	18:49:00	18:57:38	511472	5ed3f7c5c739ce0a04ce3df5	3	1	stereocheck_testphase	18	stereocheck_test_collectResponse	3	stimuli_target_trianglesquares.svg	stimuli_distractor_diamondtriangles.svg	22	yes	stereocheck_right	1	769	6	1	antiphase_hc_iso.wav	2	1	5	noise_calib_stim_RIGHT.wav	2	1				0	
6.6.1	win	2023-07-10	18:49:00	18:57:38	511472	5ed3f7c5c739ce0a04ce3df5	3	1	stereocheck_testphase	18	stereocheck_test_collectResponse	6	stimuli_target_trianglesquares.svg	stimuli_distractor_diamondtriangles.svg	22	yes	stereocheck_right	1	587	6	1	antiphase_hc_iso.wav	2	2	4	noise_calib_stim_RIGHT.wav	2	1				0	
6.6.1	win	2023-07-10	18:49:00	18:57:38	511472	5ed3f7c5c739ce0a04ce3df5	3	1	stereocheck_testphase	18	stereocheck_test_collectResponse	9	stimuli_target_trianglesquares.svg	stimuli_distractor_diamondtriangles.svg	22	yes	stereocheck_left	1	384	6	1	antiphase_hc_iso.wav	2	3	2	noise_calib_stim_LEFT.wav	1	1				0	
6.6.1	win	2023-07-10	18:49:00	18:57:38	511472	5ed3f7c5c739ce0a04ce3df5	3	1	stereocheck_testphase	18	stereocheck_test_collectResponse	12	stimuli_target_trianglesquares.svg	stimuli_distractor_diamondtriangles.svg	22	yes	stereocheck_left	1	494	6	1	antiphase_hc_iso.wav	2	4	1	noise_calib_stim_LEFT.wav	1	1				0	
6.6.1	win	2023-07-10	18:49:00	18:57:38	511472	5ed3f7c5c739ce0a04ce3df5	3	1	stereocheck_testphase	18	stereocheck_test_collectResponse	15	stimuli_target_trianglesquares.svg	stimuli_distractor_diamondtriangles.svg	22	yes	stereocheck_left	1	499	6	1	antiphase_hc_iso.wav	2	5	3	noise_calib_stim_LEFT.wav	1	1				0	
6.6.1	win	2023-07-10	18:49:00	18:57:38	511472	5ed3f7c5c739ce0a04ce3df5	3	1	stereocheck_testphase	18	stereocheck_test_collectResponse	18	stimuli_target_trianglesquares.svg	stimuli_distractor_diamondtriangles.svg	22	yes	stereocheck_right	1	409	6	1	antiphase_hc_iso.wav	2	6	6	noise_calib_stim_RIGHT.wav	2	1				0	
6.6.1	win	2023-07-10	18:49:00	18:57:38	511472	5ed3f7c5c739ce0a04ce3df5	3	1	DL_practice	21	DL_practice	2	stimuli_target_trianglesquares.svg	stimuli_distractor_diamondtriangles.svg	22	yes	ka	1	1596	6	1	antiphase_hc_iso.wav	2	6	6	noise_calib_stim_RIGHT.wav	2	23	blb_dichoticlistening_ka-pa.mp3	ka	pa	1	left
6.6.1	win	2023-07-10	18:49:00	18:57:38	511472	5ed3f7c5c739ce0a04ce3df5	3	1	DL_practice	21	DL_practice	3	stimuli_target_trianglesquares.svg	stimuli_distractor_diamondtriangles.svg	22	yes	ga	1	972	6	1	antiphase_hc_iso.wav	2	6	6	noise_calib_stim_RIGHT.wav	2	15	blb_dichoticlistening_ga-ga.mp3	ga	ga	0	left
6.6.1	win	2023-07-10	18:49:00	18:57:38	511472	5ed3f7c5c739ce0a04ce3df5	3	1	DL_practice	21	DL_practice	4	stimuli_target_trianglesquares.svg	stimuli_distractor_diamondtriangles.svg	22	yes	pa	1	1148	6	1	antiphase_hc_iso.wav	2	6	6	noise_calib_stim_RIGHT.wav	2	29	blb_dichoticlistening_pa-pa.mp3	pa	pa	0	left
6.6.1	win	2023-07-10	18:49:00	18:57:38	511472	5ed3f7c5c739ce0a04ce3df5	3	1	DL_practice	21	DL_practice	5	stimuli_target_trianglesquares.svg	stimuli_distractor_diamondtriangles.svg	22	yes	ga	1	1080	6	1	antiphase_hc_iso.wav	2	6	6	noise_calib_stim_RIGHT.wav	2	18	blb_dichoticlistening_ga-ta.mp3	ga	ta	1	left
6.6.1	win	2023-07-10	18:49:00	18:57:38	511472	5ed3f7c5c739ce0a04ce3df5	3	1	DL_practice	21	DL_practice	6	stimuli_target_trianglesquares.svg	stimuli_distractor_diamondtriangles.svg	22	yes	ka	1	1196	6	1	antiphase_hc_iso.wav	2	6	6	noise_calib_stim_RIGHT.wav	2	22	blb_dichoticlistening_ka-ka.mp3	ka	ka	0	left
6.6.1	win	2023-07-10	18:49:00	18:57:38	511472	5ed3f7c5c739ce0a04ce3df5	3	1	DL_practice	21	DL_practice	7	stimuli_target_trianglesquares.svg	stimuli_distractor_diamondtriangles.svg	22	yes	da	1	1325	6	1	antiphase_hc_iso.wav	2	6	6	noise_calib_stim_RIGHT.wav	2	7	blb_dichoticlistening_da-ba.mp3	da	ba	1	left
6.6.1	win	2023-07-10	18:49:00	18:57:38	511472	5ed3f7c5c739ce0a04ce3df5	3	1	DL_practice	21	DL_practice	8	stimuli_target_trianglesquares.svg	stimuli_distractor_diamondtriangles.svg	22	yes	ta	1	1226	6	1	antiphase_hc_iso.wav	2	6	6	noise_calib_stim_RIGHT.wav	2	36	blb_dichoticlistening_ta-ta.mp3	ta	ta	0	left
6.6.1	win	2023-07-10	18:49:00	18:57:38	511472	5ed3f7c5c739ce0a04ce3df5	3	1	DL_practice	21	DL_practice	9	stimuli_target_trianglesquares.svg	stimuli_distractor_diamondtriangles.svg	22	yes	da	1	1466	6	1	antiphase_hc_iso.wav	2	6	6	noise_calib_stim_RIGHT.wav	2	8	blb_dichoticlistening_da-da.mp3	da	da	0	left
6.6.1	win	2023-07-10	18:49:00	18:57:38	511472	5ed3f7c5c739ce0a04ce3df5	3	1	DL_practice	21	DL_practice	10	stimuli_target_trianglesquares.svg	stimuli_distractor_diamondtriangles.svg	22	yes	ba	1	941	6	1	antiphase_hc_iso.wav	2	6	6	noise_calib_stim_RIGHT.wav	2	1	blb_dichoticlistening_ba-ba.mp3	ba	ba	0	left
6.6.1	win	2023-07-10	18:49:00	18:57:38	511472	5ed3f7c5c739ce0a04ce3df5	3	1	DL_test	23	DL_test	1	stimuli_target_trianglesquares.svg	stimuli_distractor_diamondtriangles.svg	22	yes	ka	1	1793	6	1	antiphase_hc_iso.wav	2	6	6	noise_calib_stim_RIGHT.wav	2	4	blb_dichoticlistening_ba-ka.mp3	ba	ka	1	right
6.6.1	win	2023-07-10	18:49:00	18:57:38	511472	5ed3f7c5c739ce0a04ce3df5	3	1	DL_test	23	DL_test	2	stimuli_target_trianglesquares.svg	stimuli_distractor_diamondtriangles.svg	22	yes	ba	1	931	6	1	antiphase_hc_iso.wav	2	6	6	noise_calib_stim_RIGHT.wav	2	2	blb_dichoticlistening_ba-da.mp3	ba	da	1	left
6.6.1	win	2023-07-10	18:49:00	18:57:38	511472	5ed3f7c5c739ce0a04ce3df5	3	1	DL_test	23	DL_test	3	stimuli_target_trianglesquares.svg	stimuli_distractor_diamondtriangles.svg	22	yes	ga	1	780	6	1	antiphase_hc_iso.wav	2	6	6	noise_calib_stim_RIGHT.wav	2	16	blb_dichoticlistening_ga-ka.mp3	ga	ka	1	left
6.6.1	win	2023-07-10	18:49:00	18:57:38	511472	5ed3f7c5c739ce0a04ce3df5	3	1	DL_test	23	DL_test	4	stimuli_target_trianglesquares.svg	stimuli_distractor_diamondtriangles.svg	22	yes	ta	1	881	6	1	antiphase_hc_iso.wav	2	6	6	noise_calib_stim_RIGHT.wav	2	30	blb_dichoticlistening_pa-ta.mp3	pa	ta	1	right
6.6.1	win	2023-07-10	18:49:00	18:57:38	511472	5ed3f7c5c739ce0a04ce3df5	3	1	DL_test	23	DL_test	5	stimuli_target_trianglesquares.svg	stimuli_distractor_diamondtriangles.svg	22	yes	ga	1	861	6	1	antiphase_hc_iso.wav	2	6	6	noise_calib_stim_RIGHT.wav	2	15	blb_dichoticlistening_ga-ga.mp3	ga	ga	0	left
6.6.1	win	2023-07-10	18:49:00	18:57:38	511472	5ed3f7c5c739ce0a04ce3df5	3	1	DL_test	23	DL_test	6	stimuli_target_trianglesquares.svg	stimuli_distractor_diamondtriangles.svg	22	yes	ga	1	950	6	1	antiphase_hc_iso.wav	2	6	6	noise_calib_stim_RIGHT.wav	2	27	blb_dichoticlistening_pa-ga.mp3	pa	ga	1	right
6.6.1	win	2023-07-10	18:49:00	18:57:38	511472	5ed3f7c5c739ce0a04ce3df5	3	1	DL_test	23	DL_test	7	stimuli_target_trianglesquares.svg	stimuli_distractor_diamondtriangles.svg	22	yes	pa	1	1378	6	1	antiphase_hc_iso.wav	2	6	6	noise_calib_stim_RIGHT.wav	2	29	blb_dichoticlistening_pa-pa.mp3	pa	pa	0	left
6.6.1	win	2023-07-10	18:49:00	18:57:38	511472	5ed3f7c5c739ce0a04ce3df5	3	1	DL_test	23	DL_test	8	stimuli_target_trianglesquares.svg	stimuli_distractor_diamondtriangles.svg	22	yes	ba	1	1414	6	1	antiphase_hc_iso.wav	2	6	6	noise_calib_stim_RIGHT.wav	2	25	blb_dichoticlistening_pa-ba.mp3	pa	ba	1	right
6.6.1	win	2023-07-10	18:49:00	18:57:38	511472	5ed3f7c5c739ce0a04ce3df5	3	1	DL_test	23	DL_test	9	stimuli_target_trianglesquares.svg	stimuli_distractor_diamondtriangles.svg	22	yes	ka	1	1401	6	1	antiphase_hc_iso.wav	2	6	6	noise_calib_stim_RIGHT.wav	2	22	blb_dichoticlistening_ka-ka.mp3	ka	ka	0	left
6.6.1	win	2023-07-10	18:49:00	18:57:38	511472	5ed3f7c5c739ce0a04ce3df5	3	1	DL_test	23	DL_test	10	stimuli_target_trianglesquares.svg	stimuli_distractor_diamondtriangles.svg	22	yes	ga	1	791	6	1	antiphase_hc_iso.wav	2	6	6	noise_calib_stim_RIGHT.wav	2	33	blb_dichoticlistening_ta-ga.mp3	ta	ga	1	right
6.6.1	win	2023-07-10	18:49:00	18:57:38	511472	5ed3f7c5c739ce0a04ce3df5	3	1	DL_test	23	DL_test	11	stimuli_target_trianglesquares.svg	stimuli_distractor_diamondtriangles.svg	22	yes	ta	1	1128	6	1	antiphase_hc_iso.wav	2	6	6	noise_calib_stim_RIGHT.wav	2	35	blb_dichoticlistening_ta-pa.mp3	ta	pa	1	left
6.6.1	win	2023-07-10	18:49:00	18:57:38	511472	5ed3f7c5c739ce0a04ce3df5	3	1	DL_test	23	DL_test	12	stimuli_target_trianglesquares.svg	stimuli_distractor_diamondtriangles.svg	22	yes	da	1	1391	6	1	antiphase_hc_iso.wav	2	6	6	noise_calib_stim_RIGHT.wav	2	32	blb_dichoticlistening_ta-da.mp3	ta	da	1	right
6.6.1	win	2023-07-10	18:49:00	18:57:38	511472	5ed3f7c5c739ce0a04ce3df5	3	1	DL_test	23	DL_test	13	stimuli_target_trianglesquares.svg	stimuli_distractor_diamondtriangles.svg	22	yes	ba	1	1049	6	1	antiphase_hc_iso.wav	2	6	6	noise_calib_stim_RIGHT.wav	2	3	blb_dichoticlistening_ba-ga.mp3	ba	ga	1	left
6.6.1	win	2023-07-10	18:49:00	18:57:38	511472	5ed3f7c5c739ce0a04ce3df5	3	1	DL_test	23	DL_test	14	stimuli_target_trianglesquares.svg	stimuli_distractor_diamondtriangles.svg	22	yes	ka	1	1222	6	1	antiphase_hc_iso.wav	2	6	6	noise_calib_stim_RIGHT.wav	2	34	blb_dichoticlistening_ta-ka.mp3	ta	ka	1	right
6.6.1	win	2023-07-10	18:49:00	18:57:38	511472	5ed3f7c5c739ce0a04ce3df5	3	1	DL_test	23	DL_test	15	stimuli_target_trianglesquares.svg	stimuli_distractor_diamondtriangles.svg	22	yes	ka	1	840	6	1	antiphase_hc_iso.wav	2	6	6	noise_calib_stim_RIGHT.wav	2	28	blb_dichoticlistening_pa-ka.mp3	pa	ka	1	right
6.6.1	win	2023-07-10	18:49:00	18:57:38	511472	5ed3f7c5c739ce0a04ce3df5	3	1	DL_test	23	DL_test	16	stimuli_target_trianglesquares.svg	stimuli_distractor_diamondtriangles.svg	22	yes	ba	1	1213	6	1	antiphase_hc_iso.wav	2	6	6	noise_calib_stim_RIGHT.wav	2	1	blb_dichoticlistening_ba-ba.mp3	ba	ba	0	left
6.6.1	win	2023-07-10	18:49:00	18:57:38	511472	5ed3f7c5c739ce0a04ce3df5	3	1	DL_test	23	DL_test	17	stimuli_target_trianglesquares.svg	stimuli_distractor_diamondtriangles.svg	22	yes	da	1	825	6	1	antiphase_hc_iso.wav	2	6	6	noise_calib_stim_RIGHT.wav	2	8	blb_dichoticlistening_da-da.mp3	da	da	0	left
6.6.1	win	2023-07-10	18:49:00	18:57:38	511472	5ed3f7c5c739ce0a04ce3df5	3	1	DL_test	23	DL_test	18	stimuli_target_trianglesquares.svg	stimuli_distractor_diamondtriangles.svg	22	yes	ka	1	1255	6	1	antiphase_hc_iso.wav	2	6	6	noise_calib_stim_RIGHT.wav	2	23	blb_dichoticlistening_ka-pa.mp3	ka	pa	1	left
6.6.1	win	2023-07-10	18:49:00	18:57:38	511472	5ed3f7c5c739ce0a04ce3df5	3	1	DL_test	23	DL_test	19	stimuli_target_trianglesquares.svg	stimuli_distractor_diamondtriangles.svg	22	yes	ka	1	983	6	1	antiphase_hc_iso.wav	2	6	6	noise_calib_stim_RIGHT.wav	2	19	blb_dichoticlistening_ka-ba.mp3	ka	ba	1	left
6.6.1	win	2023-07-10	18:49:00	18:57:38	511472	5ed3f7c5c739ce0a04ce3df5	3	1	DL_test	23	DL_test	20	stimuli_target_trianglesquares.svg	stimuli_distractor_diamondtriangles.svg	22	yes	ta	1	1377	6	1	antiphase_hc_iso.wav	2	6	6	noise_calib_stim_RIGHT.wav	2	31	blb_dichoticlistening_ta-ba.mp3	ta	ba	1	left
6.6.1	win	2023-07-10	18:49:00	18:57:38	511472	5ed3f7c5c739ce0a04ce3df5	3	1	DL_test	23	DL_test	21	stimuli_target_trianglesquares.svg	stimuli_distractor_diamondtriangles.svg	22	yes	ta	1	1758	6	1	antiphase_hc_iso.wav	2	6	6	noise_calib_stim_RIGHT.wav	2	36	blb_dichoticlistening_ta-ta.mp3	ta	ta	0	left
6.6.1	win	2023-07-10	18:49:00	18:57:38	511472	5ed3f7c5c739ce0a04ce3df5	3	1	DL_test	23	DL_test	22	stimuli_target_trianglesquares.svg	stimuli_distractor_diamondtriangles.svg	22	yes	ga	1	1289	6	1	antiphase_hc_iso.wav	2	6	6	noise_calib_stim_RIGHT.wav	2	21	blb_dichoticlistening_ka-ga.mp3	ka	ga	1	right
6.6.1	win	2023-07-10	18:49:00	18:57:38	511472	5ed3f7c5c739ce0a04ce3df5	3	1	DL_test	23	DL_test	23	stimuli_target_trianglesquares.svg	stimuli_distractor_diamondtriangles.svg	22	yes	ba	1	977	6	1	antiphase_hc_iso.wav	2	6	6	noise_calib_stim_RIGHT.wav	2	5	blb_dichoticlistening_ba-pa.mp3	ba	pa	1	left
6.6.1	win	2023-07-10	18:49:00	18:57:38	511472	5ed3f7c5c739ce0a04ce3df5	3	1	DL_test	23	DL_test	24	stimuli_target_trianglesquares.svg	stimuli_distractor_diamondtriangles.svg	22	yes	ga	1	1178	6	1	antiphase_hc_iso.wav	2	6	6	noise_calib_stim_RIGHT.wav	2	9	blb_dichoticlistening_da-ga.mp3	da	ga	1	right
6.6.1	win	2023-07-10	18:49:00	18:57:38	511472	5ed3f7c5c739ce0a04ce3df5	3	1	DL_test	23	DL_test	25	stimuli_target_trianglesquares.svg	stimuli_distractor_diamondtriangles.svg	22	yes	da	1	1350	6	1	antiphase_hc_iso.wav	2	6	6	noise_calib_stim_RIGHT.wav	2	12	blb_dichoticlistening_da-ta.mp3	da	ta	1	left
6.6.1	win	2023-07-10	18:49:00	18:57:38	511472	5ed3f7c5c739ce0a04ce3df5	3	1	DL_test	23	DL_test	26	stimuli_target_trianglesquares.svg	stimuli_distractor_diamondtriangles.svg	22	yes	ga	1	1254	6	1	antiphase_hc_iso.wav	2	6	6	noise_calib_stim_RIGHT.wav	2	14	blb_dichoticlistening_ga-da.mp3	ga	da	1	left
