build	computer.platform	date	time	timestamp	time_elapsed_ms	subject	group	session	blockcode	blocknum	trialcode	trialnum	stimulus_left	stimulus_right	stim_index	target_present	response	correct	latency	headphonecheck_countTestTrials	headphonecheck_index	headphonecheck_testSound	headphonecheck_correctResponse	stereocheck_countTestTrials	stereocheck_index	stereocheck_testSound	stereocheck_correctResponse	DL_index	DL_soundfile	DL_leftSound	DL_rightSound	DL_dualSound	DL_choice
6.6.1	win	2023-07-13	22:35:39	0	0	62fe744f4cd35a1a91b43f13	2	1	headphonecheck_calibration	4	headphonecheck_calibrationIntro	1			0		calibrationButton	0	3549	0	0			0	0			1				0	
6.6.1	win	2023-07-13	22:35:39	0	0	62fe744f4cd35a1a91b43f13	2	1	headphonecheck_testphase	5	test_collectResponse	3			0		third	1	12316	1	6	antiphase_hc_ois.wav	3	0	0			1				0	
6.6.1	win	2023-07-13	22:35:39	0	0	62fe744f4cd35a1a91b43f13	2	1	headphonecheck_testphase	5	test_collectResponse	6			0		first	1	428	2	3	antiphase_hc_soi.wav	1	0	0			1				0	
6.6.1	win	2023-07-13	22:35:39	0	0	62fe744f4cd35a1a91b43f13	2	1	headphonecheck_testphase	5	test_collectResponse	9			0		second	1	363	3	1	antiphase_hc_iso.wav	2	0	0			1				0	
6.6.1	win	2023-07-13	22:35:39	0	0	62fe744f4cd35a1a91b43f13	2	1	headphonecheck_testphase	5	test_collectResponse	12			0		first	1	307	4	4	antiphase_hc_sio.wav	1	0	0			1				0	
6.6.1	win	2023-07-13	22:35:39	0	0	62fe744f4cd35a1a91b43f13	2	1	headphonecheck_testphase	5	test_collectResponse	15			0		second	1	270	5	5	antiphase_hc_osi.wav	2	0	0			1				0	
6.6.1	win	2023-07-13	22:35:39	0	0	62fe744f4cd35a1a91b43f13	2	1	headphonecheck_testphase	5	test_collectResponse	18			0		third	1	422	6	2	antiphase_hc_ios.wav	3	0	0			1				0	
6.6.1	win	2023-07-13	22:35:39	0	0	62fe744f4cd35a1a91b43f13	2	1	stereocheck_calibration	7	stereocheck_calibrationIntro	1			0		stereocheck_calibrationButton	0	5255	6	2	antiphase_hc_ios.wav	3	0	0			1				0	
6.6.1	win	2023-07-13	22:35:39	0	0	62fe744f4cd35a1a91b43f13	2	1	stereocheck_testphase	8	stereocheck_test_collectResponse	3			0		stereocheck_left	1	277	6	2	antiphase_hc_ios.wav	3	1	2	noise_calib_stim_LEFT.wav	1	1				0	
6.6.1	win	2023-07-13	22:35:39	0	0	62fe744f4cd35a1a91b43f13	2	1	stereocheck_testphase	8	stereocheck_test_collectResponse	6			0		stereocheck_left	1	1626	6	2	antiphase_hc_ios.wav	3	2	1	noise_calib_stim_LEFT.wav	1	1				0	
6.6.1	win	2023-07-13	22:35:39	0	0	62fe744f4cd35a1a91b43f13	2	1	stereocheck_testphase	8	stereocheck_test_collectResponse	9			0		stereocheck_right	1	668	6	2	antiphase_hc_ios.wav	3	3	6	noise_calib_stim_RIGHT.wav	2	1				0	
6.6.1	win	2023-07-13	22:35:39	0	0	62fe744f4cd35a1a91b43f13	2	1	stereocheck_testphase	8	stereocheck_test_collectResponse	12			0		stereocheck_right	1	308	6	2	antiphase_hc_ios.wav	3	4	4	noise_calib_stim_RIGHT.wav	2	1				0	
6.6.1	win	2023-07-13	22:35:39	0	0	62fe744f4cd35a1a91b43f13	2	1	stereocheck_testphase	8	stereocheck_test_collectResponse	15			0		stereocheck_right	1	223	6	2	antiphase_hc_ios.wav	3	5	5	noise_calib_stim_RIGHT.wav	2	1				0	
6.6.1	win	2023-07-13	22:35:39	0	0	62fe744f4cd35a1a91b43f13	2	1	stereocheck_testphase	8	stereocheck_test_collectResponse	18			0		stereocheck_left	1	478	6	2	antiphase_hc_ios.wav	3	6	3	noise_calib_stim_LEFT.wav	1	1				0	
6.6.1	win	2023-07-13	22:35:39	0	0	62fe744f4cd35a1a91b43f13	2	1	DL_practice	11	DL_practice	2			0		da	1	1969	6	2	antiphase_hc_ios.wav	3	6	3	noise_calib_stim_LEFT.wav	1	7	blb_dichoticlistening_da-ba.mp3	da	ba	1	left
6.6.1	win	2023-07-13	22:35:39	0	0	62fe744f4cd35a1a91b43f13	2	1	DL_practice	11	DL_practice	3			0		da	1	1049	6	2	antiphase_hc_ios.wav	3	6	3	noise_calib_stim_LEFT.wav	1	8	blb_dichoticlistening_da-da.mp3	da	da	0	left
6.6.1	win	2023-07-13	22:35:39	0	0	62fe744f4cd35a1a91b43f13	2	1	DL_practice	11	DL_practice	4			0		ga	1	1065	6	2	antiphase_hc_ios.wav	3	6	3	noise_calib_stim_LEFT.wav	1	15	blb_dichoticlistening_ga-ga.mp3	ga	ga	0	left
6.6.1	win	2023-07-13	22:35:39	0	0	62fe744f4cd35a1a91b43f13	2	1	DL_practice	11	DL_practice	5			0		ta	1	1734	6	2	antiphase_hc_ios.wav	3	6	3	noise_calib_stim_LEFT.wav	1	18	blb_dichoticlistening_ga-ta.mp3	ga	ta	1	right
6.6.1	win	2023-07-13	22:35:39	0	0	62fe744f4cd35a1a91b43f13	2	1	DL_practice	11	DL_practice	6			0		ba	1	1793	6	2	antiphase_hc_ios.wav	3	6	3	noise_calib_stim_LEFT.wav	1	1	blb_dichoticlistening_ba-ba.mp3	ba	ba	0	left
6.6.1	win	2023-07-13	22:35:39	0	0	62fe744f4cd35a1a91b43f13	2	1	DL_practice	11	DL_practice	7			0		ta	1	1632	6	2	antiphase_hc_ios.wav	3	6	3	noise_calib_stim_LEFT.wav	1	36	blb_dichoticlistening_ta-ta.mp3	ta	ta	0	left
6.6.1	win	2023-07-13	22:35:39	0	0	62fe744f4cd35a1a91b43f13	2	1	DL_practice	11	DL_practice	8			0		ka	1	1833	6	2	antiphase_hc_ios.wav	3	6	3	noise_calib_stim_LEFT.wav	1	23	blb_dichoticlistening_ka-pa.mp3	ka	pa	1	left
6.6.1	win	2023-07-13	22:35:39	0	0	62fe744f4cd35a1a91b43f13	2	1	DL_practice	11	DL_practice	9			0		pa	1	1432	6	2	antiphase_hc_ios.wav	3	6	3	noise_calib_stim_LEFT.wav	1	29	blb_dichoticlistening_pa-pa.mp3	pa	pa	0	left
6.6.1	win	2023-07-13	22:35:39	0	0	62fe744f4cd35a1a91b43f13	2	1	DL_practice	11	DL_practice	10			0		ka	1	1055	6	2	antiphase_hc_ios.wav	3	6	3	noise_calib_stim_LEFT.wav	1	22	blb_dichoticlistening_ka-ka.mp3	ka	ka	0	left
6.6.1	win	2023-07-13	22:35:39	0	0	62fe744f4cd35a1a91b43f13	2	1	DL_test	13	DL_test	1			0		ta	1	2522	6	2	antiphase_hc_ios.wav	3	6	3	noise_calib_stim_LEFT.wav	1	12	blb_dichoticlistening_da-ta.mp3	da	ta	1	right
6.6.1	win	2023-07-13	22:35:39	0	0	62fe744f4cd35a1a91b43f13	2	1	DL_test	13	DL_test	2			0		da	1	1991	6	2	antiphase_hc_ios.wav	3	6	3	noise_calib_stim_LEFT.wav	1	2	blb_dichoticlistening_ba-da.mp3	ba	da	1	right
6.6.1	win	2023-07-13	22:35:39	0	0	62fe744f4cd35a1a91b43f13	2	1	DL_test	13	DL_test	3			0		ka	1	1087	6	2	antiphase_hc_ios.wav	3	6	3	noise_calib_stim_LEFT.wav	1	34	blb_dichoticlistening_ta-ka.mp3	ta	ka	1	right
6.6.1	win	2023-07-13	22:35:39	0	0	62fe744f4cd35a1a91b43f13	2	1	DL_test	13	DL_test	4			0		ka	1	922	6	2	antiphase_hc_ios.wav	3	6	3	noise_calib_stim_LEFT.wav	1	16	blb_dichoticlistening_ga-ka.mp3	ga	ka	1	right
6.6.1	win	2023-07-13	22:35:39	0	0	62fe744f4cd35a1a91b43f13	2	1	DL_test	13	DL_test	5			0		pa	1	1190	6	2	antiphase_hc_ios.wav	3	6	3	noise_calib_stim_LEFT.wav	1	29	blb_dichoticlistening_pa-pa.mp3	pa	pa	0	left
6.6.1	win	2023-07-13	22:35:39	0	0	62fe744f4cd35a1a91b43f13	2	1	DL_test	13	DL_test	6			0		ka	1	1005	6	2	antiphase_hc_ios.wav	3	6	3	noise_calib_stim_LEFT.wav	1	22	blb_dichoticlistening_ka-ka.mp3	ka	ka	0	left
6.6.1	win	2023-07-13	22:35:39	0	0	62fe744f4cd35a1a91b43f13	2	1	DL_test	13	DL_test	7			0		pa	0	2319	6	2	antiphase_hc_ios.wav	3	6	3	noise_calib_stim_LEFT.wav	1	31	blb_dichoticlistening_ta-ba.mp3	ta	ba	1	other
6.6.1	win	2023-07-13	22:35:39	0	0	62fe744f4cd35a1a91b43f13	2	1	DL_test	13	DL_test	8			0		pa	1	1223	6	2	antiphase_hc_ios.wav	3	6	3	noise_calib_stim_LEFT.wav	1	25	blb_dichoticlistening_pa-ba.mp3	pa	ba	1	left
6.6.1	win	2023-07-13	22:35:39	0	0	62fe744f4cd35a1a91b43f13	2	1	DL_test	13	DL_test	9			0		ga	1	1201	6	2	antiphase_hc_ios.wav	3	6	3	noise_calib_stim_LEFT.wav	1	3	blb_dichoticlistening_ba-ga.mp3	ba	ga	1	right
6.6.1	win	2023-07-13	22:35:39	0	0	62fe744f4cd35a1a91b43f13	2	1	DL_test	13	DL_test	10			0		pa	1	3044	6	2	antiphase_hc_ios.wav	3	6	3	noise_calib_stim_LEFT.wav	1	27	blb_dichoticlistening_pa-ga.mp3	pa	ga	1	left
6.6.1	win	2023-07-13	22:35:39	0	0	62fe744f4cd35a1a91b43f13	2	1	DL_test	13	DL_test	11			0		ga	0	2352	6	2	antiphase_hc_ios.wav	3	6	3	noise_calib_stim_LEFT.wav	1	5	blb_dichoticlistening_ba-pa.mp3	ba	pa	1	other
6.6.1	win	2023-07-13	22:35:39	0	0	62fe744f4cd35a1a91b43f13	2	1	DL_test	13	DL_test	12			0		ka	0	2084	6	2	antiphase_hc_ios.wav	3	6	3	noise_calib_stim_LEFT.wav	1	26	blb_dichoticlistening_pa-da.mp3	pa	da	1	other
6.6.1	win	2023-07-13	22:35:39	0	0	62fe744f4cd35a1a91b43f13	2	1	DL_test	13	DL_test	13			0		da	1	1866	6	2	antiphase_hc_ios.wav	3	6	3	noise_calib_stim_LEFT.wav	1	32	blb_dichoticlistening_ta-da.mp3	ta	da	1	right
6.6.1	win	2023-07-13	22:35:39	0	0	62fe744f4cd35a1a91b43f13	2	1	DL_test	13	DL_test	14			0		ga	1	1200	6	2	antiphase_hc_ios.wav	3	6	3	noise_calib_stim_LEFT.wav	1	15	blb_dichoticlistening_ga-ga.mp3	ga	ga	0	left
6.6.1	win	2023-07-13	22:35:39	0	0	62fe744f4cd35a1a91b43f13	2	1	DL_test	13	DL_test	15			0		da	1	1680	6	2	antiphase_hc_ios.wav	3	6	3	noise_calib_stim_LEFT.wav	1	7	blb_dichoticlistening_da-ba.mp3	da	ba	1	left
6.6.1	win	2023-07-13	22:35:39	0	0	62fe744f4cd35a1a91b43f13	2	1	DL_test	13	DL_test	16			0		ka	0	2039	6	2	antiphase_hc_ios.wav	3	6	3	noise_calib_stim_LEFT.wav	1	17	blb_dichoticlistening_ga-pa.mp3	ga	pa	1	other
6.6.1	win	2023-07-13	22:35:39	0	0	62fe744f4cd35a1a91b43f13	2	1	DL_test	13	DL_test	17			0		ga	1	1037	6	2	antiphase_hc_ios.wav	3	6	3	noise_calib_stim_LEFT.wav	1	9	blb_dichoticlistening_da-ga.mp3	da	ga	1	right
6.6.1	win	2023-07-13	22:35:39	0	0	62fe744f4cd35a1a91b43f13	2	1	DL_test	13	DL_test	18			0		ka	1	1051	6	2	antiphase_hc_ios.wav	3	6	3	noise_calib_stim_LEFT.wav	1	20	blb_dichoticlistening_ka-da.mp3	ka	da	1	left
6.6.1	win	2023-07-13	22:35:39	0	0	62fe744f4cd35a1a91b43f13	2	1	DL_test	13	DL_test	19			0		ta	1	1227	6	2	antiphase_hc_ios.wav	3	6	3	noise_calib_stim_LEFT.wav	1	18	blb_dichoticlistening_ga-ta.mp3	ga	ta	1	right
6.6.1	win	2023-07-13	22:35:39	0	0	62fe744f4cd35a1a91b43f13	2	1	DL_test	13	DL_test	20			0		da	1	1218	6	2	antiphase_hc_ios.wav	3	6	3	noise_calib_stim_LEFT.wav	1	14	blb_dichoticlistening_ga-da.mp3	ga	da	1	right
6.6.1	win	2023-07-13	22:35:39	0	0	62fe744f4cd35a1a91b43f13	2	1	DL_test	13	DL_test	21			0		ka	1	1521	6	2	antiphase_hc_ios.wav	3	6	3	noise_calib_stim_LEFT.wav	1	23	blb_dichoticlistening_ka-pa.mp3	ka	pa	1	left
6.6.1	win	2023-07-13	22:35:39	0	0	62fe744f4cd35a1a91b43f13	2	1	DL_test	13	DL_test	22			0		ba	1	1407	6	2	antiphase_hc_ios.wav	3	6	3	noise_calib_stim_LEFT.wav	1	1	blb_dichoticlistening_ba-ba.mp3	ba	ba	0	left
6.6.1	win	2023-07-13	22:35:39	0	0	62fe744f4cd35a1a91b43f13	2	1	DL_test	13	DL_test	23			0		ta	1	1270	6	2	antiphase_hc_ios.wav	3	6	3	noise_calib_stim_LEFT.wav	1	36	blb_dichoticlistening_ta-ta.mp3	ta	ta	0	left
6.6.1	win	2023-07-13	22:35:39	0	0	62fe744f4cd35a1a91b43f13	2	1	DL_test	13	DL_test	24			0		da	1	1556	6	2	antiphase_hc_ios.wav	3	6	3	noise_calib_stim_LEFT.wav	1	8	blb_dichoticlistening_da-da.mp3	da	da	0	left
6.6.1	win	2023-07-13	22:35:39	0	0	62fe744f4cd35a1a91b43f13	2	1	DL_test	13	DL_test	25			0		ka	1	1438	6	2	antiphase_hc_ios.wav	3	6	3	noise_calib_stim_LEFT.wav	1	28	blb_dichoticlistening_pa-ka.mp3	pa	ka	1	right
6.6.1	win	2023-07-13	22:35:39	0	0	62fe744f4cd35a1a91b43f13	2	1	DL_test	13	DL_test	26			0		ka	1	1501	6	2	antiphase_hc_ios.wav	3	6	3	noise_calib_stim_LEFT.wav	1	24	blb_dichoticlistening_ka-ta.mp3	ka	ta	1	left
6.6.1	win	2023-07-13	22:35:39	0	0	62fe744f4cd35a1a91b43f13	2	1	DL_test	13	DL_test	27			0		ka	1	1273	6	2	antiphase_hc_ios.wav	3	6	3	noise_calib_stim_LEFT.wav	1	4	blb_dichoticlistening_ba-ka.mp3	ba	ka	1	right
6.6.1	win	2023-07-13	22:35:39	0	0	62fe744f4cd35a1a91b43f13	2	1	DL_test	13	DL_test	28			0		ta	1	1411	6	2	antiphase_hc_ios.wav	3	6	3	noise_calib_stim_LEFT.wav	1	30	blb_dichoticlistening_pa-ta.mp3	pa	ta	1	right
6.6.1	win	2023-07-13	22:35:39	0	0	62fe744f4cd35a1a91b43f13	2	1	DL_test	13	DL_test	29			0		ba	1	1189	6	2	antiphase_hc_ios.wav	3	6	3	noise_calib_stim_LEFT.wav	1	13	blb_dichoticlistening_ga-ba.mp3	ga	ba	1	right
6.6.1	win	2023-07-13	22:35:39	0	0	62fe744f4cd35a1a91b43f13	2	1	DL_test	13	DL_test	30			0		da	0	1545	6	2	antiphase_hc_ios.wav	3	6	3	noise_calib_stim_LEFT.wav	1	33	blb_dichoticlistening_ta-ga.mp3	ta	ga	1	other
6.6.1	win	2023-07-13	22:35:39	0	0	62fe744f4cd35a1a91b43f13	2	1	DL_test	13	DL_test	31			0		pa	1	1660	6	2	antiphase_hc_ios.wav	3	6	3	noise_calib_stim_LEFT.wav	1	35	blb_dichoticlistening_ta-pa.mp3	ta	pa	1	right
6.6.1	win	2023-07-13	22:35:39	0	0	62fe744f4cd35a1a91b43f13	2	1	DL_test	13	DL_test	32			0		ka	1	2731	6	2	antiphase_hc_ios.wav	3	6	3	noise_calib_stim_LEFT.wav	1	21	blb_dichoticlistening_ka-ga.mp3	ka	ga	1	left
6.6.1	win	2023-07-13	22:35:39	0	0	62fe744f4cd35a1a91b43f13	2	1	DL_test	13	DL_test	33			0		ka	1	1085	6	2	antiphase_hc_ios.wav	3	6	3	noise_calib_stim_LEFT.wav	1	10	blb_dichoticlistening_da-ka.mp3	da	ka	1	right
6.6.1	win	2023-07-13	22:35:39	0	0	62fe744f4cd35a1a91b43f13	2	1	DL_test	13	DL_test	34			0		ba	1	1974	6	2	antiphase_hc_ios.wav	3	6	3	noise_calib_stim_LEFT.wav	1	19	blb_dichoticlistening_ka-ba.mp3	ka	ba	1	right
6.6.1	win	2023-07-13	22:35:39	0	0	62fe744f4cd35a1a91b43f13	2	1	DL_test	13	DL_test	35			0		pa	1	1896	6	2	antiphase_hc_ios.wav	3	6	3	noise_calib_stim_LEFT.wav	1	11	blb_dichoticlistening_da-pa.mp3	da	pa	1	right
6.6.1	win	2023-07-13	22:35:39	0	0	62fe744f4cd35a1a91b43f13	2	1	DL_test	13	DL_test	36			0		ta	1	1315	6	2	antiphase_hc_ios.wav	3	6	3	noise_calib_stim_LEFT.wav	1	6	blb_dichoticlistening_ba-ta.mp3	ba	ta	1	right
6.6.1	win	2023-07-13	22:35:39	0	0	62fe744f4cd35a1a91b43f13	2	1	DL_test	14	DL_test	1			0		pa	1	1238	6	2	antiphase_hc_ios.wav	3	6	3	noise_calib_stim_LEFT.wav	1	17	blb_dichoticlistening_ga-pa.mp3	ga	pa	1	right
6.6.1	win	2023-07-13	22:35:39	0	0	62fe744f4cd35a1a91b43f13	2	1	DL_test	14	DL_test	2			0		ka	1	1004	6	2	antiphase_hc_ios.wav	3	6	3	noise_calib_stim_LEFT.wav	1	16	blb_dichoticlistening_ga-ka.mp3	ga	ka	1	right
6.6.1	win	2023-07-13	22:35:39	0	0	62fe744f4cd35a1a91b43f13	2	1	DL_test	14	DL_test	3			0		pa	1	1515	6	2	antiphase_hc_ios.wav	3	6	3	noise_calib_stim_LEFT.wav	1	5	blb_dichoticlistening_ba-pa.mp3	ba	pa	1	right
6.6.1	win	2023-07-13	22:35:39	0	0	62fe744f4cd35a1a91b43f13	2	1	DL_test	14	DL_test	4			0		ta	1	1039	6	2	antiphase_hc_ios.wav	3	6	3	noise_calib_stim_LEFT.wav	1	24	blb_dichoticlistening_ka-ta.mp3	ka	ta	1	right
6.6.1	win	2023-07-13	22:35:39	0	0	62fe744f4cd35a1a91b43f13	2	1	DL_test	14	DL_test	5			0		ga	1	1279	6	2	antiphase_hc_ios.wav	3	6	3	noise_calib_stim_LEFT.wav	1	3	blb_dichoticlistening_ba-ga.mp3	ba	ga	1	right
6.6.1	win	2023-07-13	22:35:39	0	0	62fe744f4cd35a1a91b43f13	2	1	DL_test	14	DL_test	6			0		ba	1	1885	6	2	antiphase_hc_ios.wav	3	6	3	noise_calib_stim_LEFT.wav	1	7	blb_dichoticlistening_da-ba.mp3	da	ba	1	right
6.6.1	win	2023-07-13	22:35:39	0	0	62fe744f4cd35a1a91b43f13	2	1	DL_test	14	DL_test	7			0		ba	1	1240	6	2	antiphase_hc_ios.wav	3	6	3	noise_calib_stim_LEFT.wav	1	13	blb_dichoticlistening_ga-ba.mp3	ga	ba	1	right
6.6.1	win	2023-07-13	22:35:39	0	0	62fe744f4cd35a1a91b43f13	2	1	DL_test	14	DL_test	8			0		ga	1	1148	6	2	antiphase_hc_ios.wav	3	6	3	noise_calib_stim_LEFT.wav	1	27	blb_dichoticlistening_pa-ga.mp3	pa	ga	1	right
6.6.1	win	2023-07-13	22:35:39	0	0	62fe744f4cd35a1a91b43f13	2	1	DL_test	14	DL_test	9			0		ga	1	932	6	2	antiphase_hc_ios.wav	3	6	3	noise_calib_stim_LEFT.wav	1	33	blb_dichoticlistening_ta-ga.mp3	ta	ga	1	right
6.6.1	win	2023-07-13	22:35:39	0	0	62fe744f4cd35a1a91b43f13	2	1	DL_test	14	DL_test	10			0		pa	1	1106	6	2	antiphase_hc_ios.wav	3	6	3	noise_calib_stim_LEFT.wav	1	11	blb_dichoticlistening_da-pa.mp3	da	pa	1	right
6.6.1	win	2023-07-13	22:35:39	0	0	62fe744f4cd35a1a91b43f13	2	1	DL_test	14	DL_test	11			0		da	1	1797	6	2	antiphase_hc_ios.wav	3	6	3	noise_calib_stim_LEFT.wav	1	32	blb_dichoticlistening_ta-da.mp3	ta	da	1	right
6.6.1	win	2023-07-13	22:35:39	0	0	62fe744f4cd35a1a91b43f13	2	1	DL_test	14	DL_test	12			0		ga	1	972	6	2	antiphase_hc_ios.wav	3	6	3	noise_calib_stim_LEFT.wav	1	15	blb_dichoticlistening_ga-ga.mp3	ga	ga	0	left
6.6.1	win	2023-07-13	22:35:39	0	0	62fe744f4cd35a1a91b43f13	2	1	DL_test	14	DL_test	13			0		pa	0	1182	6	2	antiphase_hc_ios.wav	3	6	3	noise_calib_stim_LEFT.wav	1	31	blb_dichoticlistening_ta-ba.mp3	ta	ba	1	other
6.6.1	win	2023-07-13	22:35:39	0	0	62fe744f4cd35a1a91b43f13	2	1	DL_test	14	DL_test	14			0		pa	1	1071	6	2	antiphase_hc_ios.wav	3	6	3	noise_calib_stim_LEFT.wav	1	25	blb_dichoticlistening_pa-ba.mp3	pa	ba	1	left
6.6.1	win	2023-07-13	22:35:39	0	0	62fe744f4cd35a1a91b43f13	2	1	DL_test	14	DL_test	15			0		ka	0	1813	6	2	antiphase_hc_ios.wav	3	6	3	noise_calib_stim_LEFT.wav	1	26	blb_dichoticlistening_pa-da.mp3	pa	da	1	other
6.6.1	win	2023-07-13	22:35:39	0	0	62fe744f4cd35a1a91b43f13	2	1	DL_test	14	DL_test	16			0		ka	1	817	6	2	antiphase_hc_ios.wav	3	6	3	noise_calib_stim_LEFT.wav	1	28	blb_dichoticlistening_pa-ka.mp3	pa	ka	1	right
6.6.1	win	2023-07-13	22:35:39	0	0	62fe744f4cd35a1a91b43f13	2	1	DL_test	14	DL_test	17			0		ka	1	656	6	2	antiphase_hc_ios.wav	3	6	3	noise_calib_stim_LEFT.wav	1	34	blb_dichoticlistening_ta-ka.mp3	ta	ka	1	right
6.6.1	win	2023-07-13	22:35:39	0	0	62fe744f4cd35a1a91b43f13	2	1	DL_test	14	DL_test	18			0		ta	1	1151	6	2	antiphase_hc_ios.wav	3	6	3	noise_calib_stim_LEFT.wav	1	30	blb_dichoticlistening_pa-ta.mp3	pa	ta	1	right
6.6.1	win	2023-07-13	22:35:39	0	0	62fe744f4cd35a1a91b43f13	2	1	DL_test	14	DL_test	19			0		pa	1	1048	6	2	antiphase_hc_ios.wav	3	6	3	noise_calib_stim_LEFT.wav	1	29	blb_dichoticlistening_pa-pa.mp3	pa	pa	0	left
6.6.1	win	2023-07-13	22:35:39	0	0	62fe744f4cd35a1a91b43f13	2	1	DL_test	14	DL_test	20			0		ka	1	898	6	2	antiphase_hc_ios.wav	3	6	3	noise_calib_stim_LEFT.wav	1	22	blb_dichoticlistening_ka-ka.mp3	ka	ka	0	left
6.6.1	win	2023-07-13	22:35:39	0	0	62fe744f4cd35a1a91b43f13	2	1	DL_test	14	DL_test	21			0		ta	1	1169	6	2	antiphase_hc_ios.wav	3	6	3	noise_calib_stim_LEFT.wav	1	18	blb_dichoticlistening_ga-ta.mp3	ga	ta	1	right
6.6.1	win	2023-07-13	22:35:39	0	0	62fe744f4cd35a1a91b43f13	2	1	DL_test	14	DL_test	22			0		ta	1	922	6	2	antiphase_hc_ios.wav	3	6	3	noise_calib_stim_LEFT.wav	1	6	blb_dichoticlistening_ba-ta.mp3	ba	ta	1	right
6.6.1	win	2023-07-13	22:35:39	0	0	62fe744f4cd35a1a91b43f13	2	1	DL_test	14	DL_test	23			0		pa	1	1164	6	2	antiphase_hc_ios.wav	3	6	3	noise_calib_stim_LEFT.wav	1	35	blb_dichoticlistening_ta-pa.mp3	ta	pa	1	right
6.6.1	win	2023-07-13	22:35:39	0	0	62fe744f4cd35a1a91b43f13	2	1	DL_test	14	DL_test	24			0		ka	1	1037	6	2	antiphase_hc_ios.wav	3	6	3	noise_calib_stim_LEFT.wav	1	10	blb_dichoticlistening_da-ka.mp3	da	ka	1	right
6.6.1	win	2023-07-13	22:35:39	0	0	62fe744f4cd35a1a91b43f13	2	1	DL_test	14	DL_test	25			0		ka	1	1035	6	2	antiphase_hc_ios.wav	3	6	3	noise_calib_stim_LEFT.wav	1	4	blb_dichoticlistening_ba-ka.mp3	ba	ka	1	right
6.6.1	win	2023-07-13	22:35:39	0	0	62fe744f4cd35a1a91b43f13	2	1	DL_test	14	DL_test	26			0		da	1	1401	6	2	antiphase_hc_ios.wav	3	6	3	noise_calib_stim_LEFT.wav	1	14	blb_dichoticlistening_ga-da.mp3	ga	da	1	right
6.6.1	win	2023-07-13	22:35:39	0	0	62fe744f4cd35a1a91b43f13	2	1	DL_test	14	DL_test	27			0		da	1	953	6	2	antiphase_hc_ios.wav	3	6	3	noise_calib_stim_LEFT.wav	1	8	blb_dichoticlistening_da-da.mp3	da	da	0	left
6.6.1	win	2023-07-13	22:35:39	0	0	62fe744f4cd35a1a91b43f13	2	1	DL_test	14	DL_test	28			0		da	1	1017	6	2	antiphase_hc_ios.wav	3	6	3	noise_calib_stim_LEFT.wav	1	9	blb_dichoticlistening_da-ga.mp3	da	ga	1	left
6.6.1	win	2023-07-13	22:35:39	0	0	62fe744f4cd35a1a91b43f13	2	1	DL_test	14	DL_test	29			0		da	1	767	6	2	antiphase_hc_ios.wav	3	6	3	noise_calib_stim_LEFT.wav	1	2	blb_dichoticlistening_ba-da.mp3	ba	da	1	right
6.6.1	win	2023-07-13	22:35:39	0	0	62fe744f4cd35a1a91b43f13	2	1	DL_test	14	DL_test	30			0		ka	1	1274	6	2	antiphase_hc_ios.wav	3	6	3	noise_calib_stim_LEFT.wav	1	23	blb_dichoticlistening_ka-pa.mp3	ka	pa	1	left
6.6.1	win	2023-07-13	22:35:39	0	0	62fe744f4cd35a1a91b43f13	2	1	DL_test	14	DL_test	31			0		ta	1	1081	6	2	antiphase_hc_ios.wav	3	6	3	noise_calib_stim_LEFT.wav	1	12	blb_dichoticlistening_da-ta.mp3	da	ta	1	right
6.6.1	win	2023-07-13	22:35:39	0	0	62fe744f4cd35a1a91b43f13	2	1	DL_test	14	DL_test	32			0		ka	1	1334	6	2	antiphase_hc_ios.wav	3	6	3	noise_calib_stim_LEFT.wav	1	19	blb_dichoticlistening_ka-ba.mp3	ka	ba	1	left
6.6.1	win	2023-07-13	22:35:39	0	0	62fe744f4cd35a1a91b43f13	2	1	DL_test	14	DL_test	33			0		ka	1	1624	6	2	antiphase_hc_ios.wav	3	6	3	noise_calib_stim_LEFT.wav	1	21	blb_dichoticlistening_ka-ga.mp3	ka	ga	1	left
6.6.1	win	2023-07-13	22:35:39	0	0	62fe744f4cd35a1a91b43f13	2	1	DL_test	14	DL_test	34			0		ba	1	1234	6	2	antiphase_hc_ios.wav	3	6	3	noise_calib_stim_LEFT.wav	1	1	blb_dichoticlistening_ba-ba.mp3	ba	ba	0	left
6.6.1	win	2023-07-13	22:35:39	0	0	62fe744f4cd35a1a91b43f13	2	1	DL_test	14	DL_test	35			0		ka	1	1232	6	2	antiphase_hc_ios.wav	3	6	3	noise_calib_stim_LEFT.wav	1	20	blb_dichoticlistening_ka-da.mp3	ka	da	1	left
6.6.1	win	2023-07-13	22:35:39	0	0	62fe744f4cd35a1a91b43f13	2	1	DL_test	14	DL_test	36			0		ta	1	1205	6	2	antiphase_hc_ios.wav	3	6	3	noise_calib_stim_LEFT.wav	1	36	blb_dichoticlistening_ta-ta.mp3	ta	ta	0	left
6.6.1	win	2023-07-13	22:35:39	0	0	62fe744f4cd35a1a91b43f13	2	1	DL_test	15	DL_test	1			0		da	1	1188	6	2	antiphase_hc_ios.wav	3	6	3	noise_calib_stim_LEFT.wav	1	9	blb_dichoticlistening_da-ga.mp3	da	ga	1	left
6.6.1	win	2023-07-13	22:35:39	0	0	62fe744f4cd35a1a91b43f13	2	1	DL_test	15	DL_test	2			0		ka	1	984	6	2	antiphase_hc_ios.wav	3	6	3	noise_calib_stim_LEFT.wav	1	19	blb_dichoticlistening_ka-ba.mp3	ka	ba	1	left
6.6.1	win	2023-07-13	22:35:39	0	0	62fe744f4cd35a1a91b43f13	2	1	DL_test	15	DL_test	3			0		ta	1	1007	6	2	antiphase_hc_ios.wav	3	6	3	noise_calib_stim_LEFT.wav	1	36	blb_dichoticlistening_ta-ta.mp3	ta	ta	0	left
6.6.1	win	2023-07-13	22:35:39	0	0	62fe744f4cd35a1a91b43f13	2	1	DL_test	15	DL_test	4			0		ka	1	893	6	2	antiphase_hc_ios.wav	3	6	3	noise_calib_stim_LEFT.wav	1	28	blb_dichoticlistening_pa-ka.mp3	pa	ka	1	right
6.6.1	win	2023-07-13	22:35:39	0	0	62fe744f4cd35a1a91b43f13	2	1	DL_test	15	DL_test	5			0		ka	1	737	6	2	antiphase_hc_ios.wav	3	6	3	noise_calib_stim_LEFT.wav	1	22	blb_dichoticlistening_ka-ka.mp3	ka	ka	0	left
6.6.1	win	2023-07-13	22:35:39	0	0	62fe744f4cd35a1a91b43f13	2	1	DL_test	15	DL_test	6			0		ka	0	819	6	2	antiphase_hc_ios.wav	3	6	3	noise_calib_stim_LEFT.wav	1	27	blb_dichoticlistening_pa-ga.mp3	pa	ga	1	other
6.6.1	win	2023-07-13	22:35:39	0	0	62fe744f4cd35a1a91b43f13	2	1	DL_test	15	DL_test	7			0		pa	1	1042	6	2	antiphase_hc_ios.wav	3	6	3	noise_calib_stim_LEFT.wav	1	11	blb_dichoticlistening_da-pa.mp3	da	pa	1	right
6.6.1	win	2023-07-13	22:35:39	0	0	62fe744f4cd35a1a91b43f13	2	1	DL_test	15	DL_test	8			0		ka	1	1055	6	2	antiphase_hc_ios.wav	3	6	3	noise_calib_stim_LEFT.wav	1	20	blb_dichoticlistening_ka-da.mp3	ka	da	1	left
6.6.1	win	2023-07-13	22:35:39	0	0	62fe744f4cd35a1a91b43f13	2	1	DL_test	15	DL_test	9			0		ga	1	1172	6	2	antiphase_hc_ios.wav	3	6	3	noise_calib_stim_LEFT.wav	1	15	blb_dichoticlistening_ga-ga.mp3	ga	ga	0	left
6.6.1	win	2023-07-13	22:35:39	0	0	62fe744f4cd35a1a91b43f13	2	1	DL_test	15	DL_test	10			0		pa	1	1094	6	2	antiphase_hc_ios.wav	3	6	3	noise_calib_stim_LEFT.wav	1	17	blb_dichoticlistening_ga-pa.mp3	ga	pa	1	right
6.6.1	win	2023-07-13	22:35:39	0	0	62fe744f4cd35a1a91b43f13	2	1	DL_test	15	DL_test	11			0		ka	0	1828	6	2	antiphase_hc_ios.wav	3	6	3	noise_calib_stim_LEFT.wav	1	33	blb_dichoticlistening_ta-ga.mp3	ta	ga	1	other
6.6.1	win	2023-07-13	22:35:39	0	0	62fe744f4cd35a1a91b43f13	2	1	DL_test	15	DL_test	12			0		ka	1	610	6	2	antiphase_hc_ios.wav	3	6	3	noise_calib_stim_LEFT.wav	1	34	blb_dichoticlistening_ta-ka.mp3	ta	ka	1	right
6.6.1	win	2023-07-13	22:35:39	0	0	62fe744f4cd35a1a91b43f13	2	1	DL_test	15	DL_test	13			0		pa	1	1081	6	2	antiphase_hc_ios.wav	3	6	3	noise_calib_stim_LEFT.wav	1	5	blb_dichoticlistening_ba-pa.mp3	ba	pa	1	right
6.6.1	win	2023-07-13	22:35:39	0	0	62fe744f4cd35a1a91b43f13	2	1	DL_test	15	DL_test	14			0		ka	1	1968	6	2	antiphase_hc_ios.wav	3	6	3	noise_calib_stim_LEFT.wav	1	21	blb_dichoticlistening_ka-ga.mp3	ka	ga	1	left
6.6.1	win	2023-07-13	22:35:39	0	0	62fe744f4cd35a1a91b43f13	2	1	DL_test	15	DL_test	15			0		pa	1	905	6	2	antiphase_hc_ios.wav	3	6	3	noise_calib_stim_LEFT.wav	1	23	blb_dichoticlistening_ka-pa.mp3	ka	pa	1	right
6.6.1	win	2023-07-13	22:35:39	0	0	62fe744f4cd35a1a91b43f13	2	1	DL_test	15	DL_test	16			0		pa	1	671	6	2	antiphase_hc_ios.wav	3	6	3	noise_calib_stim_LEFT.wav	1	35	blb_dichoticlistening_ta-pa.mp3	ta	pa	1	right
6.6.1	win	2023-07-13	22:35:39	0	0	62fe744f4cd35a1a91b43f13	2	1	DL_test	15	DL_test	17			0		ta	1	1092	6	2	antiphase_hc_ios.wav	3	6	3	noise_calib_stim_LEFT.wav	1	6	blb_dichoticlistening_ba-ta.mp3	ba	ta	1	right
6.6.1	win	2023-07-13	22:35:39	0	0	62fe744f4cd35a1a91b43f13	2	1	DL_test	15	DL_test	18			0		ga	1	1298	6	2	antiphase_hc_ios.wav	3	6	3	noise_calib_stim_LEFT.wav	1	3	blb_dichoticlistening_ba-ga.mp3	ba	ga	1	right
6.6.1	win	2023-07-13	22:35:39	0	0	62fe744f4cd35a1a91b43f13	2	1	DL_test	15	DL_test	19			0		ta	1	1125	6	2	antiphase_hc_ios.wav	3	6	3	noise_calib_stim_LEFT.wav	1	30	blb_dichoticlistening_pa-ta.mp3	pa	ta	1	right
6.6.1	win	2023-07-13	22:35:39	0	0	62fe744f4cd35a1a91b43f13	2	1	DL_test	15	DL_test	20			0		ba	1	1646	6	2	antiphase_hc_ios.wav	3	6	3	noise_calib_stim_LEFT.wav	1	1	blb_dichoticlistening_ba-ba.mp3	ba	ba	0	left
6.6.1	win	2023-07-13	22:35:39	0	0	62fe744f4cd35a1a91b43f13	2	1	DL_test	15	DL_test	21			0		da	1	1479	6	2	antiphase_hc_ios.wav	3	6	3	noise_calib_stim_LEFT.wav	1	8	blb_dichoticlistening_da-da.mp3	da	da	0	left
6.6.1	win	2023-07-13	22:35:39	0	0	62fe744f4cd35a1a91b43f13	2	1	DL_test	15	DL_test	22			0		ka	0	1377	6	2	antiphase_hc_ios.wav	3	6	3	noise_calib_stim_LEFT.wav	1	32	blb_dichoticlistening_ta-da.mp3	ta	da	1	other
6.6.1	win	2023-07-13	22:35:39	0	0	62fe744f4cd35a1a91b43f13	2	1	DL_test	15	DL_test	23			0		ga	1	2284	6	2	antiphase_hc_ios.wav	3	6	3	noise_calib_stim_LEFT.wav	1	13	blb_dichoticlistening_ga-ba.mp3	ga	ba	1	left
6.6.1	win	2023-07-13	22:35:39	0	0	62fe744f4cd35a1a91b43f13	2	1	DL_test	15	DL_test	24			0		ka	1	977	6	2	antiphase_hc_ios.wav	3	6	3	noise_calib_stim_LEFT.wav	1	16	blb_dichoticlistening_ga-ka.mp3	ga	ka	1	right
6.6.1	win	2023-07-13	22:35:39	0	0	62fe744f4cd35a1a91b43f13	2	1	DL_test	15	DL_test	25			0		ka	0	1092	6	2	antiphase_hc_ios.wav	3	6	3	noise_calib_stim_LEFT.wav	1	26	blb_dichoticlistening_pa-da.mp3	pa	da	1	other
6.6.1	win	2023-07-13	22:35:39	0	0	62fe744f4cd35a1a91b43f13	2	1	DL_test	15	DL_test	26			0		da	1	1127	6	2	antiphase_hc_ios.wav	3	6	3	noise_calib_stim_LEFT.wav	1	2	blb_dichoticlistening_ba-da.mp3	ba	da	1	right
6.6.1	win	2023-07-13	22:35:39	0	0	62fe744f4cd35a1a91b43f13	2	1	DL_test	15	DL_test	27			0		ka	1	1122	6	2	antiphase_hc_ios.wav	3	6	3	noise_calib_stim_LEFT.wav	1	24	blb_dichoticlistening_ka-ta.mp3	ka	ta	1	left
6.6.1	win	2023-07-13	22:35:39	0	0	62fe744f4cd35a1a91b43f13	2	1	DL_test	15	DL_test	28			0		ta	1	1789	6	2	antiphase_hc_ios.wav	3	6	3	noise_calib_stim_LEFT.wav	1	12	blb_dichoticlistening_da-ta.mp3	da	ta	1	right
6.6.1	win	2023-07-13	22:35:39	0	0	62fe744f4cd35a1a91b43f13	2	1	DL_test	15	DL_test	29			0		ka	1	880	6	2	antiphase_hc_ios.wav	3	6	3	noise_calib_stim_LEFT.wav	1	4	blb_dichoticlistening_ba-ka.mp3	ba	ka	1	right
6.6.1	win	2023-07-13	22:35:39	0	0	62fe744f4cd35a1a91b43f13	2	1	DL_test	15	DL_test	30			0		da	1	1491	6	2	antiphase_hc_ios.wav	3	6	3	noise_calib_stim_LEFT.wav	1	14	blb_dichoticlistening_ga-da.mp3	ga	da	1	right
6.6.1	win	2023-07-13	22:35:39	0	0	62fe744f4cd35a1a91b43f13	2	1	DL_test	15	DL_test	31			0		ta	1	1785	6	2	antiphase_hc_ios.wav	3	6	3	noise_calib_stim_LEFT.wav	1	18	blb_dichoticlistening_ga-ta.mp3	ga	ta	1	right
6.6.1	win	2023-07-13	22:35:39	0	0	62fe744f4cd35a1a91b43f13	2	1	DL_test	15	DL_test	32			0		pa	1	1065	6	2	antiphase_hc_ios.wav	3	6	3	noise_calib_stim_LEFT.wav	1	25	blb_dichoticlistening_pa-ba.mp3	pa	ba	1	left
6.6.1	win	2023-07-13	22:35:39	0	0	62fe744f4cd35a1a91b43f13	2	1	DL_test	15	DL_test	33			0		da	1	1055	6	2	antiphase_hc_ios.wav	3	6	3	noise_calib_stim_LEFT.wav	1	7	blb_dichoticlistening_da-ba.mp3	da	ba	1	left
6.6.1	win	2023-07-13	22:35:39	0	0	62fe744f4cd35a1a91b43f13	2	1	DL_test	15	DL_test	34			0		ta	1	1533	6	2	antiphase_hc_ios.wav	3	6	3	noise_calib_stim_LEFT.wav	1	31	blb_dichoticlistening_ta-ba.mp3	ta	ba	1	left
6.6.1	win	2023-07-13	22:35:39	0	0	62fe744f4cd35a1a91b43f13	2	1	DL_test	15	DL_test	35			0		pa	0	966	6	2	antiphase_hc_ios.wav	3	6	3	noise_calib_stim_LEFT.wav	1	10	blb_dichoticlistening_da-ka.mp3	da	ka	1	other
6.6.1	win	2023-07-13	22:35:39	0	0	62fe744f4cd35a1a91b43f13	2	1	DL_test	15	DL_test	36			0		pa	1	632	6	2	antiphase_hc_ios.wav	3	6	3	noise_calib_stim_LEFT.wav	1	29	blb_dichoticlistening_pa-pa.mp3	pa	pa	0	left
6.6.1	win	2023-07-13	22:35:39	0	0	62fe744f4cd35a1a91b43f13	2	1	DL_test	16	DL_test	1			0		pa	1	1006	6	2	antiphase_hc_ios.wav	3	6	3	noise_calib_stim_LEFT.wav	1	17	blb_dichoticlistening_ga-pa.mp3	ga	pa	1	right
6.6.1	win	2023-07-13	22:35:39	0	0	62fe744f4cd35a1a91b43f13	2	1	DL_test	16	DL_test	2			0		ga	1	1297	6	2	antiphase_hc_ios.wav	3	6	3	noise_calib_stim_LEFT.wav	1	3	blb_dichoticlistening_ba-ga.mp3	ba	ga	1	right
6.6.1	win	2023-07-13	22:35:39	0	0	62fe744f4cd35a1a91b43f13	2	1	DL_test	16	DL_test	3			0		ka	1	704	6	2	antiphase_hc_ios.wav	3	6	3	noise_calib_stim_LEFT.wav	1	4	blb_dichoticlistening_ba-ka.mp3	ba	ka	1	right
6.6.1	win	2023-07-13	22:35:39	0	0	62fe744f4cd35a1a91b43f13	2	1	DL_test	16	DL_test	4			0		ka	1	691	6	2	antiphase_hc_ios.wav	3	6	3	noise_calib_stim_LEFT.wav	1	20	blb_dichoticlistening_ka-da.mp3	ka	da	1	left
6.6.1	win	2023-07-13	22:35:39	0	0	62fe744f4cd35a1a91b43f13	2	1	DL_test	16	DL_test	5			0		pa	1	961	6	2	antiphase_hc_ios.wav	3	6	3	noise_calib_stim_LEFT.wav	1	23	blb_dichoticlistening_ka-pa.mp3	ka	pa	1	right
6.6.1	win	2023-07-13	22:35:39	0	0	62fe744f4cd35a1a91b43f13	2	1	DL_test	16	DL_test	6			0		da	1	1097	6	2	antiphase_hc_ios.wav	3	6	3	noise_calib_stim_LEFT.wav	1	2	blb_dichoticlistening_ba-da.mp3	ba	da	1	right
6.6.1	win	2023-07-13	22:35:39	0	0	62fe744f4cd35a1a91b43f13	2	1	DL_test	16	DL_test	7			0		da	0	2103	6	2	antiphase_hc_ios.wav	3	6	3	noise_calib_stim_LEFT.wav	1	33	blb_dichoticlistening_ta-ga.mp3	ta	ga	1	other
6.6.1	win	2023-07-13	22:35:39	0	0	62fe744f4cd35a1a91b43f13	2	1	DL_test	16	DL_test	8			0		ta	1	1675	6	2	antiphase_hc_ios.wav	3	6	3	noise_calib_stim_LEFT.wav	1	18	blb_dichoticlistening_ga-ta.mp3	ga	ta	1	right
6.6.1	win	2023-07-13	22:35:39	0	0	62fe744f4cd35a1a91b43f13	2	1	DL_test	16	DL_test	9			0		ba	1	1181	6	2	antiphase_hc_ios.wav	3	6	3	noise_calib_stim_LEFT.wav	1	1	blb_dichoticlistening_ba-ba.mp3	ba	ba	0	left
6.6.1	win	2023-07-13	22:35:39	0	0	62fe744f4cd35a1a91b43f13	2	1	DL_test	16	DL_test	10			0		ka	1	1714	6	2	antiphase_hc_ios.wav	3	6	3	noise_calib_stim_LEFT.wav	1	24	blb_dichoticlistening_ka-ta.mp3	ka	ta	1	left
6.6.1	win	2023-07-13	22:35:39	0	0	62fe744f4cd35a1a91b43f13	2	1	DL_test	16	DL_test	11			0		ka	1	796	6	2	antiphase_hc_ios.wav	3	6	3	noise_calib_stim_LEFT.wav	1	21	blb_dichoticlistening_ka-ga.mp3	ka	ga	1	left
6.6.1	win	2023-07-13	22:35:39	0	0	62fe744f4cd35a1a91b43f13	2	1	DL_test	16	DL_test	12			0		pa	1	1340	6	2	antiphase_hc_ios.wav	3	6	3	noise_calib_stim_LEFT.wav	1	26	blb_dichoticlistening_pa-da.mp3	pa	da	1	left
6.6.1	win	2023-07-13	22:35:39	0	0	62fe744f4cd35a1a91b43f13	2	1	DL_test	16	DL_test	13			0		ka	1	1191	6	2	antiphase_hc_ios.wav	3	6	3	noise_calib_stim_LEFT.wav	1	22	blb_dichoticlistening_ka-ka.mp3	ka	ka	0	left
6.6.1	win	2023-07-13	22:35:39	0	0	62fe744f4cd35a1a91b43f13	2	1	DL_test	16	DL_test	14			0		ga	0	2210	6	2	antiphase_hc_ios.wav	3	6	3	noise_calib_stim_LEFT.wav	1	7	blb_dichoticlistening_da-ba.mp3	da	ba	1	other
6.6.1	win	2023-07-13	22:35:39	0	0	62fe744f4cd35a1a91b43f13	2	1	DL_test	16	DL_test	15			0		ta	1	1074	6	2	antiphase_hc_ios.wav	3	6	3	noise_calib_stim_LEFT.wav	1	12	blb_dichoticlistening_da-ta.mp3	da	ta	1	right
6.6.1	win	2023-07-13	22:35:39	0	0	62fe744f4cd35a1a91b43f13	2	1	DL_test	16	DL_test	16			0		pa	1	943	6	2	antiphase_hc_ios.wav	3	6	3	noise_calib_stim_LEFT.wav	1	11	blb_dichoticlistening_da-pa.mp3	da	pa	1	right
6.6.1	win	2023-07-13	22:35:39	0	0	62fe744f4cd35a1a91b43f13	2	1	DL_test	16	DL_test	17			0		da	1	1179	6	2	antiphase_hc_ios.wav	3	6	3	noise_calib_stim_LEFT.wav	1	14	blb_dichoticlistening_ga-da.mp3	ga	da	1	right
6.6.1	win	2023-07-13	22:35:39	0	0	62fe744f4cd35a1a91b43f13	2	1	DL_test	16	DL_test	18			0		pa	1	1099	6	2	antiphase_hc_ios.wav	3	6	3	noise_calib_stim_LEFT.wav	1	29	blb_dichoticlistening_pa-pa.mp3	pa	pa	0	left
6.6.1	win	2023-07-13	22:35:39	0	0	62fe744f4cd35a1a91b43f13	2	1	DL_test	16	DL_test	19			0		ka	0	1166	6	2	antiphase_hc_ios.wav	3	6	3	noise_calib_stim_LEFT.wav	1	32	blb_dichoticlistening_ta-da.mp3	ta	da	1	other
6.6.1	win	2023-07-13	22:35:39	0	0	62fe744f4cd35a1a91b43f13	2	1	DL_test	16	DL_test	20			0		ta	1	1193	6	2	antiphase_hc_ios.wav	3	6	3	noise_calib_stim_LEFT.wav	1	30	blb_dichoticlistening_pa-ta.mp3	pa	ta	1	right
6.6.1	win	2023-07-13	22:35:39	0	0	62fe744f4cd35a1a91b43f13	2	1	DL_test	16	DL_test	21			0		ka	1	1258	6	2	antiphase_hc_ios.wav	3	6	3	noise_calib_stim_LEFT.wav	1	28	blb_dichoticlistening_pa-ka.mp3	pa	ka	1	right
6.6.1	win	2023-07-13	22:35:39	0	0	62fe744f4cd35a1a91b43f13	2	1	DL_test	16	DL_test	22			0		pa	0	878	6	2	antiphase_hc_ios.wav	3	6	3	noise_calib_stim_LEFT.wav	1	31	blb_dichoticlistening_ta-ba.mp3	ta	ba	1	other
6.6.1	win	2023-07-13	22:35:39	0	0	62fe744f4cd35a1a91b43f13	2	1	DL_test	16	DL_test	23			0		ta	1	973	6	2	antiphase_hc_ios.wav	3	6	3	noise_calib_stim_LEFT.wav	1	6	blb_dichoticlistening_ba-ta.mp3	ba	ta	1	right
6.6.1	win	2023-07-13	22:35:39	0	0	62fe744f4cd35a1a91b43f13	2	1	DL_test	16	DL_test	24			0		ka	1	1118	6	2	antiphase_hc_ios.wav	3	6	3	noise_calib_stim_LEFT.wav	1	34	blb_dichoticlistening_ta-ka.mp3	ta	ka	1	right
6.6.1	win	2023-07-13	22:35:39	0	0	62fe744f4cd35a1a91b43f13	2	1	DL_test	16	DL_test	25			0		pa	1	993	6	2	antiphase_hc_ios.wav	3	6	3	noise_calib_stim_LEFT.wav	1	35	blb_dichoticlistening_ta-pa.mp3	ta	pa	1	right
6.6.1	win	2023-07-13	22:35:39	0	0	62fe744f4cd35a1a91b43f13	2	1	DL_test	16	DL_test	26			0		pa	0	1378	6	2	antiphase_hc_ios.wav	3	6	3	noise_calib_stim_LEFT.wav	1	10	blb_dichoticlistening_da-ka.mp3	da	ka	1	other
6.6.1	win	2023-07-13	22:35:39	0	0	62fe744f4cd35a1a91b43f13	2	1	DL_test	16	DL_test	27			0		ga	1	1322	6	2	antiphase_hc_ios.wav	3	6	3	noise_calib_stim_LEFT.wav	1	13	blb_dichoticlistening_ga-ba.mp3	ga	ba	1	left
6.6.1	win	2023-07-13	22:35:39	0	0	62fe744f4cd35a1a91b43f13	2	1	DL_test	16	DL_test	28			0		da	1	1510	6	2	antiphase_hc_ios.wav	3	6	3	noise_calib_stim_LEFT.wav	1	8	blb_dichoticlistening_da-da.mp3	da	da	0	left
6.6.1	win	2023-07-13	22:35:39	0	0	62fe744f4cd35a1a91b43f13	2	1	DL_test	16	DL_test	29			0		ga	1	1033	6	2	antiphase_hc_ios.wav	3	6	3	noise_calib_stim_LEFT.wav	1	15	blb_dichoticlistening_ga-ga.mp3	ga	ga	0	left
6.6.1	win	2023-07-13	22:35:39	0	0	62fe744f4cd35a1a91b43f13	2	1	DL_test	16	DL_test	30			0		ka	1	1097	6	2	antiphase_hc_ios.wav	3	6	3	noise_calib_stim_LEFT.wav	1	19	blb_dichoticlistening_ka-ba.mp3	ka	ba	1	left
6.6.1	win	2023-07-13	22:35:39	0	0	62fe744f4cd35a1a91b43f13	2	1	DL_test	16	DL_test	31			0		ka	1	741	6	2	antiphase_hc_ios.wav	3	6	3	noise_calib_stim_LEFT.wav	1	16	blb_dichoticlistening_ga-ka.mp3	ga	ka	1	right
6.6.1	win	2023-07-13	22:35:39	0	0	62fe744f4cd35a1a91b43f13	2	1	DL_test	16	DL_test	32			0		pa	1	1247	6	2	antiphase_hc_ios.wav	3	6	3	noise_calib_stim_LEFT.wav	1	25	blb_dichoticlistening_pa-ba.mp3	pa	ba	1	left
6.6.1	win	2023-07-13	22:35:39	0	0	62fe744f4cd35a1a91b43f13	2	1	DL_test	16	DL_test	33			0		ga	1	2104	6	2	antiphase_hc_ios.wav	3	6	3	noise_calib_stim_LEFT.wav	1	9	blb_dichoticlistening_da-ga.mp3	da	ga	1	right
6.6.1	win	2023-07-13	22:35:39	0	0	62fe744f4cd35a1a91b43f13	2	1	DL_test	16	DL_test	34			0		ta	1	1294	6	2	antiphase_hc_ios.wav	3	6	3	noise_calib_stim_LEFT.wav	1	36	blb_dichoticlistening_ta-ta.mp3	ta	ta	0	left
6.6.1	win	2023-07-13	22:35:39	0	0	62fe744f4cd35a1a91b43f13	2	1	DL_test	16	DL_test	35			0		pa	1	1524	6	2	antiphase_hc_ios.wav	3	6	3	noise_calib_stim_LEFT.wav	1	5	blb_dichoticlistening_ba-pa.mp3	ba	pa	1	right
6.6.1	win	2023-07-13	22:35:39	0	0	62fe744f4cd35a1a91b43f13	2	1	DL_test	16	DL_test	36			0		pa	1	2192	6	2	antiphase_hc_ios.wav	3	6	3	noise_calib_stim_LEFT.wav	1	27	blb_dichoticlistening_pa-ga.mp3	pa	ga	1	left
6.6.1	win	2023-07-13	22:35:39	22:48:09	746538	62fe744f4cd35a1a91b43f13	2	1	practice_z	22	practice_z	1	stimuli_distractor_trianglediamonds.svg	stimuli_distractor_trianglediamonds.svg	15	no	0	1	2000	6	2	antiphase_hc_ios.wav	3	6	3	noise_calib_stim_LEFT.wav	1	27	blb_dichoticlistening_pa-ga.mp3	pa	ga	1	left
6.6.1	win	2023-07-13	22:35:39	22:48:09	746538	62fe744f4cd35a1a91b43f13	2	1	practice_z	22	advance_on_keypress_ZEE	2	stimuli_distractor_trianglediamonds.svg	stimuli_distractor_trianglediamonds.svg	15	no	57	0	2036	6	2	antiphase_hc_ios.wav	3	6	3	noise_calib_stim_LEFT.wav	1	27	blb_dichoticlistening_pa-ga.mp3	pa	ga	1	left
6.6.1	win	2023-07-13	22:35:39	22:48:14	751578	62fe744f4cd35a1a91b43f13	2	1	practice_z	22	practice_z	3	stimuli_target_squarediamonds.svg	stimuli_distractor_diamondtriangles.svg	2	yes	44	1	1356	6	2	antiphase_hc_ios.wav	3	6	3	noise_calib_stim_LEFT.wav	1	27	blb_dichoticlistening_pa-ga.mp3	pa	ga	1	left
6.6.1	win	2023-07-13	22:35:39	22:48:14	751578	62fe744f4cd35a1a91b43f13	2	1	practice_z	22	advance_on_keypress_ZEE	4	stimuli_target_squarediamonds.svg	stimuli_distractor_diamondtriangles.svg	2	yes	57	0	1368	6	2	antiphase_hc_ios.wav	3	6	3	noise_calib_stim_LEFT.wav	1	27	blb_dichoticlistening_pa-ga.mp3	pa	ga	1	left
6.6.1	win	2023-07-13	22:35:39	22:48:17	755294	62fe744f4cd35a1a91b43f13	2	1	practice_z	22	practice_z	5	stimuli_distractor_diamondtriangles.svg	stimuli_target_rectangletriangles.svg	7	yes	44	1	707	6	2	antiphase_hc_ios.wav	3	6	3	noise_calib_stim_LEFT.wav	1	27	blb_dichoticlistening_pa-ga.mp3	pa	ga	1	left
6.6.1	win	2023-07-13	22:35:39	22:48:17	755294	62fe744f4cd35a1a91b43f13	2	1	practice_z	22	advance_on_keypress_ZEE	6	stimuli_distractor_diamondtriangles.svg	stimuli_target_rectangletriangles.svg	7	yes	57	0	1440	6	2	antiphase_hc_ios.wav	3	6	3	noise_calib_stim_LEFT.wav	1	27	blb_dichoticlistening_pa-ga.mp3	pa	ga	1	left
6.6.1	win	2023-07-13	22:35:39	22:48:21	759282	62fe744f4cd35a1a91b43f13	2	1	practice_z	22	practice_z	7	stimuli_target_squarediamonds.svg	stimuli_distractor_trianglediamonds.svg	5	yes	44	1	912	6	2	antiphase_hc_ios.wav	3	6	3	noise_calib_stim_LEFT.wav	1	27	blb_dichoticlistening_pa-ga.mp3	pa	ga	1	left
6.6.1	win	2023-07-13	22:35:39	22:48:21	759282	62fe744f4cd35a1a91b43f13	2	1	practice_z	22	advance_on_keypress_ZEE	8	stimuli_target_squarediamonds.svg	stimuli_distractor_trianglediamonds.svg	5	yes	57	0	571	6	2	antiphase_hc_ios.wav	3	6	3	noise_calib_stim_LEFT.wav	1	27	blb_dichoticlistening_pa-ga.mp3	pa	ga	1	left
6.6.1	win	2023-07-13	22:35:39	22:48:26	763503	62fe744f4cd35a1a91b43f13	2	1	practice_z	22	practice_z	9	stimuli_distractor_diamondtriangles.svg	stimuli_distractor_diamondtriangles.svg	13	no	0	1	2000	6	2	antiphase_hc_ios.wav	3	6	3	noise_calib_stim_LEFT.wav	1	27	blb_dichoticlistening_pa-ga.mp3	pa	ga	1	left
6.6.1	win	2023-07-13	22:35:39	22:48:26	763503	62fe744f4cd35a1a91b43f13	2	1	practice_z	22	advance_on_keypress_ZEE	10	stimuli_distractor_diamondtriangles.svg	stimuli_distractor_diamondtriangles.svg	13	no	57	0	922	6	2	antiphase_hc_ios.wav	3	6	3	noise_calib_stim_LEFT.wav	1	27	blb_dichoticlistening_pa-ga.mp3	pa	ga	1	left
6.6.1	win	2023-07-13	22:35:39	22:48:30	768069	62fe744f4cd35a1a91b43f13	2	1	practice_z	22	practice_z	11	stimuli_distractor_trianglediamonds.svg	stimuli_target_diamondrectangles.svg	12	yes	0	0	2000	6	2	antiphase_hc_ios.wav	3	6	3	noise_calib_stim_LEFT.wav	1	27	blb_dichoticlistening_pa-ga.mp3	pa	ga	1	left
6.6.1	win	2023-07-13	22:35:39	22:48:30	768069	62fe744f4cd35a1a91b43f13	2	1	practice_z	22	advance_on_keypress_ZEE	12	stimuli_distractor_trianglediamonds.svg	stimuli_target_diamondrectangles.svg	12	yes	57	0	11625	6	2	antiphase_hc_ios.wav	3	6	3	noise_calib_stim_LEFT.wav	1	27	blb_dichoticlistening_pa-ga.mp3	pa	ga	1	left
6.6.1	win	2023-07-13	22:35:39	22:48:44	782047	62fe744f4cd35a1a91b43f13	2	1	practice_z	22	practice_z	13	stimuli_distractor_trianglediamonds.svg	stimuli_target_rectanglediamonds.svg	10	yes	44	1	697	6	2	antiphase_hc_ios.wav	3	6	3	noise_calib_stim_LEFT.wav	1	27	blb_dichoticlistening_pa-ga.mp3	pa	ga	1	left
6.6.1	win	2023-07-13	22:35:39	22:48:44	782047	62fe744f4cd35a1a91b43f13	2	1	practice_z	22	advance_on_keypress_ZEE	14	stimuli_distractor_trianglediamonds.svg	stimuli_target_rectanglediamonds.svg	10	yes	57	0	366	6	2	antiphase_hc_ios.wav	3	6	3	noise_calib_stim_LEFT.wav	1	27	blb_dichoticlistening_pa-ga.mp3	pa	ga	1	left
6.6.1	win	2023-07-13	22:35:39	22:48:47	784852	62fe744f4cd35a1a91b43f13	2	1	practice_z	22	practice_z	15	stimuli_distractor_diamondtriangles.svg	stimuli_target_trianglerectangles.svg	9	yes	44	1	787	6	2	antiphase_hc_ios.wav	3	6	3	noise_calib_stim_LEFT.wav	1	27	blb_dichoticlistening_pa-ga.mp3	pa	ga	1	left
6.6.1	win	2023-07-13	22:35:39	22:48:47	784852	62fe744f4cd35a1a91b43f13	2	1	practice_z	22	advance_on_keypress_ZEE	16	stimuli_distractor_diamondtriangles.svg	stimuli_target_trianglerectangles.svg	9	yes	57	0	274	6	2	antiphase_hc_ios.wav	3	6	3	noise_calib_stim_LEFT.wav	1	27	blb_dichoticlistening_pa-ga.mp3	pa	ga	1	left
6.6.1	win	2023-07-13	22:35:39	22:48:49	787427	62fe744f4cd35a1a91b43f13	2	1	practice_z	22	practice_z	17	stimuli_distractor_trianglediamonds.svg	stimuli_target_squarediamonds.svg	11	yes	44	1	660	6	2	antiphase_hc_ios.wav	3	6	3	noise_calib_stim_LEFT.wav	1	27	blb_dichoticlistening_pa-ga.mp3	pa	ga	1	left
6.6.1	win	2023-07-13	22:35:39	22:48:49	787427	62fe744f4cd35a1a91b43f13	2	1	practice_z	22	advance_on_keypress_ZEE	18	stimuli_distractor_trianglediamonds.svg	stimuli_target_squarediamonds.svg	11	yes	57	0	234	6	2	antiphase_hc_ios.wav	3	6	3	noise_calib_stim_LEFT.wav	1	27	blb_dichoticlistening_pa-ga.mp3	pa	ga	1	left
6.6.1	win	2023-07-13	22:35:39	22:48:52	790302	62fe744f4cd35a1a91b43f13	2	1	practice_z	22	practice_z	19	stimuli_target_rectanglediamonds.svg	stimuli_distractor_diamondtriangles.svg	1	yes	44	1	987	6	2	antiphase_hc_ios.wav	3	6	3	noise_calib_stim_LEFT.wav	1	27	blb_dichoticlistening_pa-ga.mp3	pa	ga	1	left
6.6.1	win	2023-07-13	22:35:39	22:48:52	790302	62fe744f4cd35a1a91b43f13	2	1	practice_z	22	advance_on_keypress_ZEE	20	stimuli_target_rectanglediamonds.svg	stimuli_distractor_diamondtriangles.svg	1	yes	57	0	283	6	2	antiphase_hc_ios.wav	3	6	3	noise_calib_stim_LEFT.wav	1	27	blb_dichoticlistening_pa-ga.mp3	pa	ga	1	left
6.6.1	win	2023-07-13	22:35:39	22:48:56	794232	62fe744f4cd35a1a91b43f13	2	1	practice_z	22	practice_z	21	stimuli_target_diamondsquares.svg	stimuli_distractor_trianglediamonds.svg	6	yes	0	0	2000	6	2	antiphase_hc_ios.wav	3	6	3	noise_calib_stim_LEFT.wav	1	27	blb_dichoticlistening_pa-ga.mp3	pa	ga	1	left
6.6.1	win	2023-07-13	22:35:39	22:48:56	794232	62fe744f4cd35a1a91b43f13	2	1	practice_z	22	advance_on_keypress_ZEE	22	stimuli_target_diamondsquares.svg	stimuli_distractor_trianglediamonds.svg	6	yes	57	0	502	6	2	antiphase_hc_ios.wav	3	6	3	noise_calib_stim_LEFT.wav	1	27	blb_dichoticlistening_pa-ga.mp3	pa	ga	1	left
6.6.1	win	2023-07-13	22:35:39	22:48:59	797020	62fe744f4cd35a1a91b43f13	2	1	practice_z	22	practice_z	23	stimuli_target_rectanglediamonds.svg	stimuli_distractor_trianglediamonds.svg	4	yes	44	1	639	6	2	antiphase_hc_ios.wav	3	6	3	noise_calib_stim_LEFT.wav	1	27	blb_dichoticlistening_pa-ga.mp3	pa	ga	1	left
6.6.1	win	2023-07-13	22:35:39	22:48:59	797020	62fe744f4cd35a1a91b43f13	2	1	practice_z	22	advance_on_keypress_ZEE	24	stimuli_target_rectanglediamonds.svg	stimuli_distractor_trianglediamonds.svg	4	yes	57	0	237	6	2	antiphase_hc_ios.wav	3	6	3	noise_calib_stim_LEFT.wav	1	27	blb_dichoticlistening_pa-ga.mp3	pa	ga	1	left
6.6.1	win	2023-07-13	22:35:39	22:49:03	800898	62fe744f4cd35a1a91b43f13	2	1	practice_z	22	practice_z	25	stimuli_target_diamondsquares.svg	stimuli_distractor_diamondtriangles.svg	3	yes	0	0	2000	6	2	antiphase_hc_ios.wav	3	6	3	noise_calib_stim_LEFT.wav	1	27	blb_dichoticlistening_pa-ga.mp3	pa	ga	1	left
6.6.1	win	2023-07-13	22:35:39	22:49:03	800898	62fe744f4cd35a1a91b43f13	2	1	practice_z	22	advance_on_keypress_ZEE	26	stimuli_target_diamondsquares.svg	stimuli_distractor_diamondtriangles.svg	3	yes	57	0	1156	6	2	antiphase_hc_ios.wav	3	6	3	noise_calib_stim_LEFT.wav	1	27	blb_dichoticlistening_pa-ga.mp3	pa	ga	1	left
6.6.1	win	2023-07-13	22:35:39	22:49:07	804591	62fe744f4cd35a1a91b43f13	2	1	practice_z	22	practice_z	27	stimuli_distractor_diamondtriangles.svg	stimuli_target_diamondrectangles.svg	8	yes	44	1	893	6	2	antiphase_hc_ios.wav	3	6	3	noise_calib_stim_LEFT.wav	1	27	blb_dichoticlistening_pa-ga.mp3	pa	ga	1	left
6.6.1	win	2023-07-13	22:35:39	22:49:07	804591	62fe744f4cd35a1a91b43f13	2	1	practice_z	22	advance_on_keypress_ZEE	28	stimuli_distractor_diamondtriangles.svg	stimuli_target_diamondrectangles.svg	8	yes	57	0	262	6	2	antiphase_hc_ios.wav	3	6	3	noise_calib_stim_LEFT.wav	1	27	blb_dichoticlistening_pa-ga.mp3	pa	ga	1	left
6.6.1	win	2023-07-13	22:35:39	22:49:11	808514	62fe744f4cd35a1a91b43f13	2	1	practice_z	22	practice_z	29	stimuli_distractor_trianglediamonds.svg	stimuli_distractor_diamondtriangles.svg	16	no	0	1	2000	6	2	antiphase_hc_ios.wav	3	6	3	noise_calib_stim_LEFT.wav	1	27	blb_dichoticlistening_pa-ga.mp3	pa	ga	1	left
6.6.1	win	2023-07-13	22:35:39	22:49:11	808514	62fe744f4cd35a1a91b43f13	2	1	practice_z	22	advance_on_keypress_ZEE	30	stimuli_distractor_trianglediamonds.svg	stimuli_distractor_diamondtriangles.svg	16	no	57	0	296	6	2	antiphase_hc_ios.wav	3	6	3	noise_calib_stim_LEFT.wav	1	27	blb_dichoticlistening_pa-ga.mp3	pa	ga	1	left
6.6.1	win	2023-07-13	22:35:39	22:49:15	812463	62fe744f4cd35a1a91b43f13	2	1	practice_z	22	practice_z	31	stimuli_distractor_diamondtriangles.svg	stimuli_distractor_trianglediamonds.svg	14	no	0	1	2000	6	2	antiphase_hc_ios.wav	3	6	3	noise_calib_stim_LEFT.wav	1	27	blb_dichoticlistening_pa-ga.mp3	pa	ga	1	left
6.6.1	win	2023-07-13	22:35:39	22:49:15	812463	62fe744f4cd35a1a91b43f13	2	1	practice_z	22	advance_on_keypress_ZEE	32	stimuli_distractor_diamondtriangles.svg	stimuli_distractor_trianglediamonds.svg	14	no	57	0	267	6	2	antiphase_hc_ios.wav	3	6	3	noise_calib_stim_LEFT.wav	1	27	blb_dichoticlistening_pa-ga.mp3	pa	ga	1	left
6.6.1	win	2023-07-13	22:35:39	22:49:24	821834	62fe744f4cd35a1a91b43f13	2	1	main_z	24	main_z	1	stimuli_distractor_diamondtriangles.svg	stimuli_target_rectangletriangles.svg	13	yes	44	1	991	6	2	antiphase_hc_ios.wav	3	6	3	noise_calib_stim_LEFT.wav	1	27	blb_dichoticlistening_pa-ga.mp3	pa	ga	1	left
6.6.1	win	2023-07-13	22:35:39	22:49:24	821834	62fe744f4cd35a1a91b43f13	2	1	main_z	24	advance_on_keypress_ZEE	2	stimuli_distractor_diamondtriangles.svg	stimuli_target_rectangletriangles.svg	13	yes	57	0	1786	6	2	antiphase_hc_ios.wav	3	6	3	noise_calib_stim_LEFT.wav	1	27	blb_dichoticlistening_pa-ga.mp3	pa	ga	1	left
6.6.1	win	2023-07-13	22:35:39	22:49:27	825043	62fe744f4cd35a1a91b43f13	2	1	main_z	24	main_z	3	stimuli_distractor_trianglediamonds.svg	stimuli_target_trianglesquares.svg	26	yes	44	1	785	6	2	antiphase_hc_ios.wav	3	6	3	noise_calib_stim_LEFT.wav	1	27	blb_dichoticlistening_pa-ga.mp3	pa	ga	1	left
6.6.1	win	2023-07-13	22:35:39	22:49:27	825043	62fe744f4cd35a1a91b43f13	2	1	main_z	24	advance_on_keypress_ZEE	4	stimuli_distractor_trianglediamonds.svg	stimuli_target_trianglesquares.svg	26	yes	57	0	435	6	2	antiphase_hc_ios.wav	3	6	3	noise_calib_stim_LEFT.wav	1	27	blb_dichoticlistening_pa-ga.mp3	pa	ga	1	left
6.6.1	win	2023-07-13	22:35:39	22:49:30	828125	62fe744f4cd35a1a91b43f13	2	1	main_z	24	main_z	5	stimuli_target_rectangletriangles.svg	stimuli_distractor_trianglediamonds.svg	1	yes	0	0	2000	6	2	antiphase_hc_ios.wav	3	6	3	noise_calib_stim_LEFT.wav	1	27	blb_dichoticlistening_pa-ga.mp3	pa	ga	1	left
6.6.1	win	2023-07-13	22:35:39	22:49:30	828125	62fe744f4cd35a1a91b43f13	2	1	main_z	24	advance_on_keypress_ZEE	6	stimuli_target_rectangletriangles.svg	stimuli_distractor_trianglediamonds.svg	1	yes	57	0	606	6	2	antiphase_hc_ios.wav	3	6	3	noise_calib_stim_LEFT.wav	1	27	blb_dichoticlistening_pa-ga.mp3	pa	ga	1	left
6.6.1	win	2023-07-13	22:35:39	22:49:32	830272	62fe744f4cd35a1a91b43f13	2	1	main_z	24	main_z	7	stimuli_target_trianglesquares.svg	stimuli_distractor_trianglediamonds.svg	18	yes	44	1	897	6	2	antiphase_hc_ios.wav	3	6	3	noise_calib_stim_LEFT.wav	1	27	blb_dichoticlistening_pa-ga.mp3	pa	ga	1	left
6.6.1	win	2023-07-13	22:35:39	22:49:32	830272	62fe744f4cd35a1a91b43f13	2	1	main_z	24	advance_on_keypress_ZEE	8	stimuli_target_trianglesquares.svg	stimuli_distractor_trianglediamonds.svg	18	yes	57	0	384	6	2	antiphase_hc_ios.wav	3	6	3	noise_calib_stim_LEFT.wav	1	27	blb_dichoticlistening_pa-ga.mp3	pa	ga	1	left
6.6.1	win	2023-07-13	22:35:39	22:49:34	831998	62fe744f4cd35a1a91b43f13	2	1	main_z	24	main_z	9	stimuli_distractor_diamondtriangles.svg	stimuli_target_diamondsquares.svg	32	yes	44	1	690	6	2	antiphase_hc_ios.wav	3	6	3	noise_calib_stim_LEFT.wav	1	27	blb_dichoticlistening_pa-ga.mp3	pa	ga	1	left
6.6.1	win	2023-07-13	22:35:39	22:49:34	831998	62fe744f4cd35a1a91b43f13	2	1	main_z	24	advance_on_keypress_ZEE	10	stimuli_distractor_diamondtriangles.svg	stimuli_target_diamondsquares.svg	32	yes	57	0	426	6	2	antiphase_hc_ios.wav	3	6	3	noise_calib_stim_LEFT.wav	1	27	blb_dichoticlistening_pa-ga.mp3	pa	ga	1	left
6.6.1	win	2023-07-13	22:35:39	22:49:36	834319	62fe744f4cd35a1a91b43f13	2	1	main_z	24	main_z	11	stimuli_target_squarediamonds.svg	stimuli_distractor_trianglediamonds.svg	4	yes	44	1	1261	6	2	antiphase_hc_ios.wav	3	6	3	noise_calib_stim_LEFT.wav	1	27	blb_dichoticlistening_pa-ga.mp3	pa	ga	1	left
6.6.1	win	2023-07-13	22:35:39	22:49:36	834319	62fe744f4cd35a1a91b43f13	2	1	main_z	24	advance_on_keypress_ZEE	12	stimuli_target_squarediamonds.svg	stimuli_distractor_trianglediamonds.svg	4	yes	57	0	414	6	2	antiphase_hc_ios.wav	3	6	3	noise_calib_stim_LEFT.wav	1	27	blb_dichoticlistening_pa-ga.mp3	pa	ga	1	left
6.6.1	win	2023-07-13	22:35:39	22:49:39	837374	62fe744f4cd35a1a91b43f13	2	1	main_z	24	main_z	13	stimuli_target_diamondsquares.svg	stimuli_distractor_diamondtriangles.svg	24	yes	0	0	2000	6	2	antiphase_hc_ios.wav	3	6	3	noise_calib_stim_LEFT.wav	1	27	blb_dichoticlistening_pa-ga.mp3	pa	ga	1	left
6.6.1	win	2023-07-13	22:35:39	22:49:39	837374	62fe744f4cd35a1a91b43f13	2	1	main_z	24	advance_on_keypress_ZEE	14	stimuli_target_diamondsquares.svg	stimuli_distractor_diamondtriangles.svg	24	yes	57	0	735	6	2	antiphase_hc_ios.wav	3	6	3	noise_calib_stim_LEFT.wav	1	27	blb_dichoticlistening_pa-ga.mp3	pa	ga	1	left
6.6.1	win	2023-07-13	22:35:39	22:49:42	839878	62fe744f4cd35a1a91b43f13	2	1	main_z	24	main_z	15	stimuli_target_squarediamonds.svg	stimuli_distractor_diamondtriangles.svg	8	yes	44	1	1121	6	2	antiphase_hc_ios.wav	3	6	3	noise_calib_stim_LEFT.wav	1	27	blb_dichoticlistening_pa-ga.mp3	pa	ga	1	left
6.6.1	win	2023-07-13	22:35:39	22:49:42	839878	62fe744f4cd35a1a91b43f13	2	1	main_z	24	advance_on_keypress_ZEE	16	stimuli_target_squarediamonds.svg	stimuli_distractor_diamondtriangles.svg	8	yes	57	0	462	6	2	antiphase_hc_ios.wav	3	6	3	noise_calib_stim_LEFT.wav	1	27	blb_dichoticlistening_pa-ga.mp3	pa	ga	1	left
6.6.1	win	2023-07-13	22:35:39	22:49:44	842031	62fe744f4cd35a1a91b43f13	2	1	main_z	24	main_z	17	stimuli_distractor_diamondtriangles.svg	stimuli_distractor_trianglediamonds.svg	37	no	44	0	1057	6	2	antiphase_hc_ios.wav	3	6	3	noise_calib_stim_LEFT.wav	1	27	blb_dichoticlistening_pa-ga.mp3	pa	ga	1	left
6.6.1	win	2023-07-13	22:35:39	22:49:44	842031	62fe744f4cd35a1a91b43f13	2	1	main_z	24	advance_on_keypress_ZEE	18	stimuli_distractor_diamondtriangles.svg	stimuli_distractor_trianglediamonds.svg	37	no	57	0	580	6	2	antiphase_hc_ios.wav	3	6	3	noise_calib_stim_LEFT.wav	1	27	blb_dichoticlistening_pa-ga.mp3	pa	ga	1	left
6.6.1	win	2023-07-13	22:35:39	22:49:47	844915	62fe744f4cd35a1a91b43f13	2	1	main_z	24	main_z	19	stimuli_distractor_trianglediamonds.svg	stimuli_target_rectangletriangles.svg	9	yes	44	1	1659	6	2	antiphase_hc_ios.wav	3	6	3	noise_calib_stim_LEFT.wav	1	27	blb_dichoticlistening_pa-ga.mp3	pa	ga	1	left
6.6.1	win	2023-07-13	22:35:39	22:49:47	844915	62fe744f4cd35a1a91b43f13	2	1	main_z	24	advance_on_keypress_ZEE	20	stimuli_distractor_trianglediamonds.svg	stimuli_target_rectangletriangles.svg	9	yes	57	0	1205	6	2	antiphase_hc_ios.wav	3	6	3	noise_calib_stim_LEFT.wav	1	27	blb_dichoticlistening_pa-ga.mp3	pa	ga	1	left
6.6.1	win	2023-07-13	22:35:39	22:49:50	847564	62fe744f4cd35a1a91b43f13	2	1	main_z	24	main_z	21	stimuli_distractor_diamondtriangles.svg	stimuli_target_squarediamonds.svg	16	yes	44	1	808	6	2	antiphase_hc_ios.wav	3	6	3	noise_calib_stim_LEFT.wav	1	27	blb_dichoticlistening_pa-ga.mp3	pa	ga	1	left
6.6.1	win	2023-07-13	22:35:39	22:49:50	847564	62fe744f4cd35a1a91b43f13	2	1	main_z	24	advance_on_keypress_ZEE	22	stimuli_distractor_diamondtriangles.svg	stimuli_target_squarediamonds.svg	16	yes	57	0	599	6	2	antiphase_hc_ios.wav	3	6	3	noise_calib_stim_LEFT.wav	1	27	blb_dichoticlistening_pa-ga.mp3	pa	ga	1	left
6.6.1	win	2023-07-13	22:35:39	22:49:52	850296	62fe744f4cd35a1a91b43f13	2	1	main_z	24	main_z	23	stimuli_target_squaretriangles.svg	stimuli_distractor_trianglediamonds.svg	3	yes	44	1	1490	6	2	antiphase_hc_ios.wav	3	6	3	noise_calib_stim_LEFT.wav	1	27	blb_dichoticlistening_pa-ga.mp3	pa	ga	1	left
6.6.1	win	2023-07-13	22:35:39	22:49:52	850296	62fe744f4cd35a1a91b43f13	2	1	main_z	24	advance_on_keypress_ZEE	24	stimuli_target_squaretriangles.svg	stimuli_distractor_trianglediamonds.svg	3	yes	57	0	391	6	2	antiphase_hc_ios.wav	3	6	3	noise_calib_stim_LEFT.wav	1	27	blb_dichoticlistening_pa-ga.mp3	pa	ga	1	left
6.6.1	win	2023-07-13	22:35:39	22:49:55	853322	62fe744f4cd35a1a91b43f13	2	1	main_z	24	main_z	25	stimuli_distractor_trianglediamonds.svg	stimuli_distractor_diamondtriangles.svg	36	no	0	1	2000	6	2	antiphase_hc_ios.wav	3	6	3	noise_calib_stim_LEFT.wav	1	27	blb_dichoticlistening_pa-ga.mp3	pa	ga	1	left
6.6.1	win	2023-07-13	22:35:39	22:49:55	853322	62fe744f4cd35a1a91b43f13	2	1	main_z	24	advance_on_keypress_ZEE	26	stimuli_distractor_trianglediamonds.svg	stimuli_distractor_diamondtriangles.svg	36	no	57	0	491	6	2	antiphase_hc_ios.wav	3	6	3	noise_calib_stim_LEFT.wav	1	27	blb_dichoticlistening_pa-ga.mp3	pa	ga	1	left
6.6.1	win	2023-07-13	22:35:39	22:49:57	855208	62fe744f4cd35a1a91b43f13	2	1	main_z	24	main_z	27	stimuli_distractor_trianglediamonds.svg	stimuli_target_rectanglediamonds.svg	10	yes	44	1	753	6	2	antiphase_hc_ios.wav	3	6	3	noise_calib_stim_LEFT.wav	1	27	blb_dichoticlistening_pa-ga.mp3	pa	ga	1	left
6.6.1	win	2023-07-13	22:35:39	22:49:57	855208	62fe744f4cd35a1a91b43f13	2	1	main_z	24	advance_on_keypress_ZEE	28	stimuli_distractor_trianglediamonds.svg	stimuli_target_rectanglediamonds.svg	10	yes	57	0	672	6	2	antiphase_hc_ios.wav	3	6	3	noise_calib_stim_LEFT.wav	1	27	blb_dichoticlistening_pa-ga.mp3	pa	ga	1	left
6.6.1	win	2023-07-13	22:35:39	22:50:01	858521	62fe744f4cd35a1a91b43f13	2	1	main_z	24	main_z	29	stimuli_target_trianglesquares.svg	stimuli_distractor_diamondtriangles.svg	22	yes	0	0	2000	6	2	antiphase_hc_ios.wav	3	6	3	noise_calib_stim_LEFT.wav	1	27	blb_dichoticlistening_pa-ga.mp3	pa	ga	1	left
6.6.1	win	2023-07-13	22:35:39	22:50:01	858521	62fe744f4cd35a1a91b43f13	2	1	main_z	24	advance_on_keypress_ZEE	30	stimuli_target_trianglesquares.svg	stimuli_distractor_diamondtriangles.svg	22	yes	57	0	593	6	2	antiphase_hc_ios.wav	3	6	3	noise_calib_stim_LEFT.wav	1	27	blb_dichoticlistening_pa-ga.mp3	pa	ga	1	left
6.6.1	win	2023-07-13	22:35:39	22:50:03	860993	62fe744f4cd35a1a91b43f13	2	1	main_z	24	main_z	31	stimuli_distractor_diamondtriangles.svg	stimuli_target_rectanglediamonds.svg	14	yes	44	1	1239	6	2	antiphase_hc_ios.wav	3	6	3	noise_calib_stim_LEFT.wav	1	27	blb_dichoticlistening_pa-ga.mp3	pa	ga	1	left
6.6.1	win	2023-07-13	22:35:39	22:50:03	860993	62fe744f4cd35a1a91b43f13	2	1	main_z	24	advance_on_keypress_ZEE	32	stimuli_distractor_diamondtriangles.svg	stimuli_target_rectanglediamonds.svg	14	yes	57	0	764	6	2	antiphase_hc_ios.wav	3	6	3	noise_calib_stim_LEFT.wav	1	27	blb_dichoticlistening_pa-ga.mp3	pa	ga	1	left
6.6.1	win	2023-07-13	22:35:39	22:50:05	863140	62fe744f4cd35a1a91b43f13	2	1	main_z	24	main_z	33	stimuli_target_rectanglediamonds.svg	stimuli_distractor_diamondtriangles.svg	6	yes	44	1	736	6	2	antiphase_hc_ios.wav	3	6	3	noise_calib_stim_LEFT.wav	1	27	blb_dichoticlistening_pa-ga.mp3	pa	ga	1	left
6.6.1	win	2023-07-13	22:35:39	22:50:05	863140	62fe744f4cd35a1a91b43f13	2	1	main_z	24	advance_on_keypress_ZEE	34	stimuli_target_rectanglediamonds.svg	stimuli_distractor_diamondtriangles.svg	6	yes	57	0	768	6	2	antiphase_hc_ios.wav	3	6	3	noise_calib_stim_LEFT.wav	1	27	blb_dichoticlistening_pa-ga.mp3	pa	ga	1	left
6.6.1	win	2023-07-13	22:35:39	22:50:08	865876	62fe744f4cd35a1a91b43f13	2	1	main_z	24	main_z	35	stimuli_target_rectangletriangles.svg	stimuli_distractor_diamondtriangles.svg	5	yes	44	1	1322	6	2	antiphase_hc_ios.wav	3	6	3	noise_calib_stim_LEFT.wav	1	27	blb_dichoticlistening_pa-ga.mp3	pa	ga	1	left
6.6.1	win	2023-07-13	22:35:39	22:50:08	865876	62fe744f4cd35a1a91b43f13	2	1	main_z	24	advance_on_keypress_ZEE	36	stimuli_target_rectangletriangles.svg	stimuli_distractor_diamondtriangles.svg	5	yes	57	0	520	6	2	antiphase_hc_ios.wav	3	6	3	noise_calib_stim_LEFT.wav	1	27	blb_dichoticlistening_pa-ga.mp3	pa	ga	1	left
6.6.1	win	2023-07-13	22:35:39	22:50:10	867957	62fe744f4cd35a1a91b43f13	2	1	main_z	24	main_z	37	stimuli_distractor_trianglediamonds.svg	stimuli_target_squaretriangles.svg	11	yes	44	1	919	6	2	antiphase_hc_ios.wav	3	6	3	noise_calib_stim_LEFT.wav	1	27	blb_dichoticlistening_pa-ga.mp3	pa	ga	1	left
6.6.1	win	2023-07-13	22:35:39	22:50:10	867957	62fe744f4cd35a1a91b43f13	2	1	main_z	24	advance_on_keypress_ZEE	38	stimuli_distractor_trianglediamonds.svg	stimuli_target_squaretriangles.svg	11	yes	57	0	499	6	2	antiphase_hc_ios.wav	3	6	3	noise_calib_stim_LEFT.wav	1	27	blb_dichoticlistening_pa-ga.mp3	pa	ga	1	left
6.6.1	win	2023-07-13	22:35:39	22:50:12	870433	62fe744f4cd35a1a91b43f13	2	1	main_z	24	main_z	39	stimuli_distractor_trianglediamonds.svg	stimuli_target_diamondrectangles.svg	27	yes	44	1	1331	6	2	antiphase_hc_ios.wav	3	6	3	noise_calib_stim_LEFT.wav	1	27	blb_dichoticlistening_pa-ga.mp3	pa	ga	1	left
6.6.1	win	2023-07-13	22:35:39	22:50:12	870433	62fe744f4cd35a1a91b43f13	2	1	main_z	24	advance_on_keypress_ZEE	40	stimuli_distractor_trianglediamonds.svg	stimuli_target_diamondrectangles.svg	27	yes	57	0	1462	6	2	antiphase_hc_ios.wav	3	6	3	noise_calib_stim_LEFT.wav	1	27	blb_dichoticlistening_pa-ga.mp3	pa	ga	1	left
6.6.1	win	2023-07-13	22:35:39	22:50:17	874553	62fe744f4cd35a1a91b43f13	2	1	main_z	24	main_z	41	stimuli_target_diamondrectangles.svg	stimuli_distractor_trianglediamonds.svg	19	yes	0	0	2000	6	2	antiphase_hc_ios.wav	3	6	3	noise_calib_stim_LEFT.wav	1	27	blb_dichoticlistening_pa-ga.mp3	pa	ga	1	left
6.6.1	win	2023-07-13	22:35:39	22:50:17	874553	62fe744f4cd35a1a91b43f13	2	1	main_z	24	advance_on_keypress_ZEE	42	stimuli_target_diamondrectangles.svg	stimuli_distractor_trianglediamonds.svg	19	yes	57	0	937	6	2	antiphase_hc_ios.wav	3	6	3	noise_calib_stim_LEFT.wav	1	27	blb_dichoticlistening_pa-ga.mp3	pa	ga	1	left
6.6.1	win	2023-07-13	22:35:39	22:50:20	878135	62fe744f4cd35a1a91b43f13	2	1	main_z	24	main_z	43	stimuli_distractor_trianglediamonds.svg	stimuli_distractor_trianglediamonds.svg	33	no	0	1	2000	6	2	antiphase_hc_ios.wav	3	6	3	noise_calib_stim_LEFT.wav	1	27	blb_dichoticlistening_pa-ga.mp3	pa	ga	1	left
6.6.1	win	2023-07-13	22:35:39	22:50:20	878135	62fe744f4cd35a1a91b43f13	2	1	main_z	24	advance_on_keypress_ZEE	44	stimuli_distractor_trianglediamonds.svg	stimuli_distractor_trianglediamonds.svg	33	no	57	0	717	6	2	antiphase_hc_ios.wav	3	6	3	noise_calib_stim_LEFT.wav	1	27	blb_dichoticlistening_pa-ga.mp3	pa	ga	1	left
6.6.1	win	2023-07-13	22:35:39	22:50:24	881502	62fe744f4cd35a1a91b43f13	2	1	main_z	24	main_z	45	stimuli_target_trianglerectangles.svg	stimuli_distractor_trianglediamonds.svg	17	yes	0	0	2000	6	2	antiphase_hc_ios.wav	3	6	3	noise_calib_stim_LEFT.wav	1	27	blb_dichoticlistening_pa-ga.mp3	pa	ga	1	left
6.6.1	win	2023-07-13	22:35:39	22:50:24	881502	62fe744f4cd35a1a91b43f13	2	1	main_z	24	advance_on_keypress_ZEE	46	stimuli_target_trianglerectangles.svg	stimuli_distractor_trianglediamonds.svg	17	yes	57	0	765	6	2	antiphase_hc_ios.wav	3	6	3	noise_calib_stim_LEFT.wav	1	27	blb_dichoticlistening_pa-ga.mp3	pa	ga	1	left
6.6.1	win	2023-07-13	22:35:39	22:50:26	883973	62fe744f4cd35a1a91b43f13	2	1	main_z	24	main_z	47	stimuli_distractor_diamondtriangles.svg	stimuli_target_squaretriangles.svg	15	yes	44	1	1055	6	2	antiphase_hc_ios.wav	3	6	3	noise_calib_stim_LEFT.wav	1	27	blb_dichoticlistening_pa-ga.mp3	pa	ga	1	left
6.6.1	win	2023-07-13	22:35:39	22:50:26	883973	62fe744f4cd35a1a91b43f13	2	1	main_z	24	advance_on_keypress_ZEE	48	stimuli_distractor_diamondtriangles.svg	stimuli_target_squaretriangles.svg	15	yes	57	0	389	6	2	antiphase_hc_ios.wav	3	6	3	noise_calib_stim_LEFT.wav	1	27	blb_dichoticlistening_pa-ga.mp3	pa	ga	1	left
6.6.1	win	2023-07-13	22:35:39	22:50:29	887001	62fe744f4cd35a1a91b43f13	2	1	main_z	24	main_z	49	stimuli_distractor_trianglediamonds.svg	stimuli_distractor_trianglediamonds.svg	34	no	0	1	2000	6	2	antiphase_hc_ios.wav	3	6	3	noise_calib_stim_LEFT.wav	1	27	blb_dichoticlistening_pa-ga.mp3	pa	ga	1	left
6.6.1	win	2023-07-13	22:35:39	22:50:29	887001	62fe744f4cd35a1a91b43f13	2	1	main_z	24	advance_on_keypress_ZEE	50	stimuli_distractor_trianglediamonds.svg	stimuli_distractor_trianglediamonds.svg	34	no	57	0	479	6	2	antiphase_hc_ios.wav	3	6	3	noise_calib_stim_LEFT.wav	1	27	blb_dichoticlistening_pa-ga.mp3	pa	ga	1	left
6.6.1	win	2023-07-13	22:35:39	22:50:32	889464	62fe744f4cd35a1a91b43f13	2	1	main_z	24	main_z	51	stimuli_distractor_trianglediamonds.svg	stimuli_target_squarediamonds.svg	12	yes	44	1	1346	6	2	antiphase_hc_ios.wav	3	6	3	noise_calib_stim_LEFT.wav	1	27	blb_dichoticlistening_pa-ga.mp3	pa	ga	1	left
6.6.1	win	2023-07-13	22:35:39	22:50:32	889464	62fe744f4cd35a1a91b43f13	2	1	main_z	24	advance_on_keypress_ZEE	52	stimuli_distractor_trianglediamonds.svg	stimuli_target_squarediamonds.svg	12	yes	57	0	379	6	2	antiphase_hc_ios.wav	3	6	3	noise_calib_stim_LEFT.wav	1	27	blb_dichoticlistening_pa-ga.mp3	pa	ga	1	left
6.6.1	win	2023-07-13	22:35:39	22:50:34	891950	62fe744f4cd35a1a91b43f13	2	1	main_z	24	main_z	53	stimuli_target_trianglerectangles.svg	stimuli_distractor_diamondtriangles.svg	21	yes	44	1	1466	6	2	antiphase_hc_ios.wav	3	6	3	noise_calib_stim_LEFT.wav	1	27	blb_dichoticlistening_pa-ga.mp3	pa	ga	1	left
6.6.1	win	2023-07-13	22:35:39	22:50:34	891950	62fe744f4cd35a1a91b43f13	2	1	main_z	24	advance_on_keypress_ZEE	54	stimuli_target_trianglerectangles.svg	stimuli_distractor_diamondtriangles.svg	21	yes	57	0	430	6	2	antiphase_hc_ios.wav	3	6	3	noise_calib_stim_LEFT.wav	1	27	blb_dichoticlistening_pa-ga.mp3	pa	ga	1	left
6.6.1	win	2023-07-13	22:35:39	22:50:36	894079	62fe744f4cd35a1a91b43f13	2	1	main_z	24	main_z	55	stimuli_target_rectanglediamonds.svg	stimuli_distractor_trianglediamonds.svg	2	yes	44	1	1046	6	2	antiphase_hc_ios.wav	3	6	3	noise_calib_stim_LEFT.wav	1	27	blb_dichoticlistening_pa-ga.mp3	pa	ga	1	left
6.6.1	win	2023-07-13	22:35:39	22:50:36	894079	62fe744f4cd35a1a91b43f13	2	1	main_z	24	advance_on_keypress_ZEE	56	stimuli_target_rectanglediamonds.svg	stimuli_distractor_trianglediamonds.svg	2	yes	57	0	368	6	2	antiphase_hc_ios.wav	3	6	3	noise_calib_stim_LEFT.wav	1	27	blb_dichoticlistening_pa-ga.mp3	pa	ga	1	left
6.6.1	win	2023-07-13	22:35:39	22:50:39	896944	62fe744f4cd35a1a91b43f13	2	1	main_z	24	main_z	57	stimuli_distractor_diamondtriangles.svg	stimuli_target_trianglerectangles.svg	29	yes	44	1	1845	6	2	antiphase_hc_ios.wav	3	6	3	noise_calib_stim_LEFT.wav	1	27	blb_dichoticlistening_pa-ga.mp3	pa	ga	1	left
6.6.1	win	2023-07-13	22:35:39	22:50:39	896944	62fe744f4cd35a1a91b43f13	2	1	main_z	24	advance_on_keypress_ZEE	58	stimuli_distractor_diamondtriangles.svg	stimuli_target_trianglerectangles.svg	29	yes	57	0	409	6	2	antiphase_hc_ios.wav	3	6	3	noise_calib_stim_LEFT.wav	1	27	blb_dichoticlistening_pa-ga.mp3	pa	ga	1	left
6.6.1	win	2023-07-13	22:35:39	22:50:42	899983	62fe744f4cd35a1a91b43f13	2	1	main_z	24	main_z	59	stimuli_distractor_diamondtriangles.svg	stimuli_distractor_diamondtriangles.svg	40	no	0	1	2000	6	2	antiphase_hc_ios.wav	3	6	3	noise_calib_stim_LEFT.wav	1	27	blb_dichoticlistening_pa-ga.mp3	pa	ga	1	left
6.6.1	win	2023-07-13	22:35:39	22:50:42	899983	62fe744f4cd35a1a91b43f13	2	1	main_z	24	advance_on_keypress_ZEE	60	stimuli_distractor_diamondtriangles.svg	stimuli_distractor_diamondtriangles.svg	40	no	57	0	456	6	2	antiphase_hc_ios.wav	3	6	3	noise_calib_stim_LEFT.wav	1	27	blb_dichoticlistening_pa-ga.mp3	pa	ga	1	left
6.6.1	win	2023-07-13	22:35:39	22:50:45	903082	62fe744f4cd35a1a91b43f13	2	1	main_z	24	main_z	61	stimuli_distractor_trianglediamonds.svg	stimuli_target_diamondsquares.svg	28	yes	0	0	2000	6	2	antiphase_hc_ios.wav	3	6	3	noise_calib_stim_LEFT.wav	1	27	blb_dichoticlistening_pa-ga.mp3	pa	ga	1	left
6.6.1	win	2023-07-13	22:35:39	22:50:45	903082	62fe744f4cd35a1a91b43f13	2	1	main_z	24	advance_on_keypress_ZEE	62	stimuli_distractor_trianglediamonds.svg	stimuli_target_diamondsquares.svg	28	yes	57	0	1663	6	2	antiphase_hc_ios.wav	3	6	3	noise_calib_stim_LEFT.wav	1	27	blb_dichoticlistening_pa-ga.mp3	pa	ga	1	left
6.6.1	win	2023-07-13	22:35:39	22:50:49	906617	62fe744f4cd35a1a91b43f13	2	1	main_z	24	main_z	63	stimuli_target_squaretriangles.svg	stimuli_distractor_diamondtriangles.svg	7	yes	44	1	1217	6	2	antiphase_hc_ios.wav	3	6	3	noise_calib_stim_LEFT.wav	1	27	blb_dichoticlistening_pa-ga.mp3	pa	ga	1	left
6.6.1	win	2023-07-13	22:35:39	22:50:49	906617	62fe744f4cd35a1a91b43f13	2	1	main_z	24	advance_on_keypress_ZEE	64	stimuli_target_squaretriangles.svg	stimuli_distractor_diamondtriangles.svg	7	yes	57	0	505	6	2	antiphase_hc_ios.wav	3	6	3	noise_calib_stim_LEFT.wav	1	27	blb_dichoticlistening_pa-ga.mp3	pa	ga	1	left
6.6.1	win	2023-07-13	22:35:39	22:50:51	909149	62fe744f4cd35a1a91b43f13	2	1	main_z	24	main_z	65	stimuli_target_diamondrectangles.svg	stimuli_distractor_diamondtriangles.svg	23	yes	44	1	1385	6	2	antiphase_hc_ios.wav	3	6	3	noise_calib_stim_LEFT.wav	1	27	blb_dichoticlistening_pa-ga.mp3	pa	ga	1	left
6.6.1	win	2023-07-13	22:35:39	22:50:51	909149	62fe744f4cd35a1a91b43f13	2	1	main_z	24	advance_on_keypress_ZEE	66	stimuli_target_diamondrectangles.svg	stimuli_distractor_diamondtriangles.svg	23	yes	57	0	590	6	2	antiphase_hc_ios.wav	3	6	3	noise_calib_stim_LEFT.wav	1	27	blb_dichoticlistening_pa-ga.mp3	pa	ga	1	left
6.6.1	win	2023-07-13	22:35:39	22:50:54	912381	62fe744f4cd35a1a91b43f13	2	1	main_z	24	main_z	67	stimuli_distractor_trianglediamonds.svg	stimuli_distractor_diamondtriangles.svg	35	no	0	1	2000	6	2	antiphase_hc_ios.wav	3	6	3	noise_calib_stim_LEFT.wav	1	27	blb_dichoticlistening_pa-ga.mp3	pa	ga	1	left
6.6.1	win	2023-07-13	22:35:39	22:50:54	912381	62fe744f4cd35a1a91b43f13	2	1	main_z	24	advance_on_keypress_ZEE	68	stimuli_distractor_trianglediamonds.svg	stimuli_distractor_diamondtriangles.svg	35	no	57	0	455	6	2	antiphase_hc_ios.wav	3	6	3	noise_calib_stim_LEFT.wav	1	27	blb_dichoticlistening_pa-ga.mp3	pa	ga	1	left
6.6.1	win	2023-07-13	22:35:39	22:50:58	915481	62fe744f4cd35a1a91b43f13	2	1	main_z	24	main_z	69	stimuli_distractor_diamondtriangles.svg	stimuli_distractor_diamondtriangles.svg	39	no	0	1	2000	6	2	antiphase_hc_ios.wav	3	6	3	noise_calib_stim_LEFT.wav	1	27	blb_dichoticlistening_pa-ga.mp3	pa	ga	1	left
6.6.1	win	2023-07-13	22:35:39	22:50:58	915481	62fe744f4cd35a1a91b43f13	2	1	main_z	24	advance_on_keypress_ZEE	70	stimuli_distractor_diamondtriangles.svg	stimuli_distractor_diamondtriangles.svg	39	no	57	0	271	6	2	antiphase_hc_ios.wav	3	6	3	noise_calib_stim_LEFT.wav	1	27	blb_dichoticlistening_pa-ga.mp3	pa	ga	1	left
6.6.1	win	2023-07-13	22:35:39	22:51:00	917492	62fe744f4cd35a1a91b43f13	2	1	main_z	24	main_z	71	stimuli_distractor_diamondtriangles.svg	stimuli_target_diamondrectangles.svg	31	yes	44	1	1094	6	2	antiphase_hc_ios.wav	3	6	3	noise_calib_stim_LEFT.wav	1	27	blb_dichoticlistening_pa-ga.mp3	pa	ga	1	left
6.6.1	win	2023-07-13	22:35:39	22:51:00	917492	62fe744f4cd35a1a91b43f13	2	1	main_z	24	advance_on_keypress_ZEE	72	stimuli_distractor_diamondtriangles.svg	stimuli_target_diamondrectangles.svg	31	yes	57	0	340	6	2	antiphase_hc_ios.wav	3	6	3	noise_calib_stim_LEFT.wav	1	27	blb_dichoticlistening_pa-ga.mp3	pa	ga	1	left
6.6.1	win	2023-07-13	22:35:39	22:51:02	919495	62fe744f4cd35a1a91b43f13	2	1	main_z	24	main_z	73	stimuli_distractor_trianglediamonds.svg	stimuli_target_trianglerectangles.svg	25	yes	44	1	1015	6	2	antiphase_hc_ios.wav	3	6	3	noise_calib_stim_LEFT.wav	1	27	blb_dichoticlistening_pa-ga.mp3	pa	ga	1	left
6.6.1	win	2023-07-13	22:35:39	22:51:02	919495	62fe744f4cd35a1a91b43f13	2	1	main_z	24	advance_on_keypress_ZEE	74	stimuli_distractor_trianglediamonds.svg	stimuli_target_trianglerectangles.svg	25	yes	57	0	334	6	2	antiphase_hc_ios.wav	3	6	3	noise_calib_stim_LEFT.wav	1	27	blb_dichoticlistening_pa-ga.mp3	pa	ga	1	left
6.6.1	win	2023-07-13	22:35:39	22:51:03	921320	62fe744f4cd35a1a91b43f13	2	1	main_z	24	main_z	75	stimuli_distractor_diamondtriangles.svg	stimuli_target_trianglesquares.svg	30	yes	44	1	840	6	2	antiphase_hc_ios.wav	3	6	3	noise_calib_stim_LEFT.wav	1	27	blb_dichoticlistening_pa-ga.mp3	pa	ga	1	left
6.6.1	win	2023-07-13	22:35:39	22:51:03	921320	62fe744f4cd35a1a91b43f13	2	1	main_z	24	advance_on_keypress_ZEE	76	stimuli_distractor_diamondtriangles.svg	stimuli_target_trianglesquares.svg	30	yes	57	0	364	6	2	antiphase_hc_ios.wav	3	6	3	noise_calib_stim_LEFT.wav	1	27	blb_dichoticlistening_pa-ga.mp3	pa	ga	1	left
6.6.1	win	2023-07-13	22:35:39	22:51:06	924330	62fe744f4cd35a1a91b43f13	2	1	main_z	24	main_z	77	stimuli_distractor_diamondtriangles.svg	stimuli_distractor_trianglediamonds.svg	38	no	0	1	2000	6	2	antiphase_hc_ios.wav	3	6	3	noise_calib_stim_LEFT.wav	1	27	blb_dichoticlistening_pa-ga.mp3	pa	ga	1	left
6.6.1	win	2023-07-13	22:35:39	22:51:06	924330	62fe744f4cd35a1a91b43f13	2	1	main_z	24	advance_on_keypress_ZEE	78	stimuli_distractor_diamondtriangles.svg	stimuli_distractor_trianglediamonds.svg	38	no	57	0	372	6	2	antiphase_hc_ios.wav	3	6	3	noise_calib_stim_LEFT.wav	1	27	blb_dichoticlistening_pa-ga.mp3	pa	ga	1	left
6.6.1	win	2023-07-13	22:35:39	22:51:08	926163	62fe744f4cd35a1a91b43f13	2	1	main_z	24	main_z	79	stimuli_target_diamondsquares.svg	stimuli_distractor_trianglediamonds.svg	20	yes	44	1	817	6	2	antiphase_hc_ios.wav	3	6	3	noise_calib_stim_LEFT.wav	1	27	blb_dichoticlistening_pa-ga.mp3	pa	ga	1	left
6.6.1	win	2023-07-13	22:35:39	22:51:08	926163	62fe744f4cd35a1a91b43f13	2	1	main_z	24	advance_on_keypress_ZEE	80	stimuli_target_diamondsquares.svg	stimuli_distractor_trianglediamonds.svg	20	yes	57	0	361	6	2	antiphase_hc_ios.wav	3	6	3	noise_calib_stim_LEFT.wav	1	27	blb_dichoticlistening_pa-ga.mp3	pa	ga	1	left
6.6.1	win	2023-07-13	22:35:39	22:51:10	927869	62fe744f4cd35a1a91b43f13	2	1	main_z	24	main_z	81	stimuli_distractor_trianglediamonds.svg	stimuli_target_diamondsquares.svg	28	yes	44	1	707	6	2	antiphase_hc_ios.wav	3	6	3	noise_calib_stim_LEFT.wav	1	27	blb_dichoticlistening_pa-ga.mp3	pa	ga	1	left
6.6.1	win	2023-07-13	22:35:39	22:51:10	927869	62fe744f4cd35a1a91b43f13	2	1	main_z	24	advance_on_keypress_ZEE	82	stimuli_distractor_trianglediamonds.svg	stimuli_target_diamondsquares.svg	28	yes	57	0	424	6	2	antiphase_hc_ios.wav	3	6	3	noise_calib_stim_LEFT.wav	1	27	blb_dichoticlistening_pa-ga.mp3	pa	ga	1	left
6.6.1	win	2023-07-13	22:35:39	22:51:12	930395	62fe744f4cd35a1a91b43f13	2	1	main_z	24	main_z	83	stimuli_distractor_diamondtriangles.svg	stimuli_target_squaretriangles.svg	15	yes	44	1	1466	6	2	antiphase_hc_ios.wav	3	6	3	noise_calib_stim_LEFT.wav	1	27	blb_dichoticlistening_pa-ga.mp3	pa	ga	1	left
6.6.1	win	2023-07-13	22:35:39	22:51:12	930395	62fe744f4cd35a1a91b43f13	2	1	main_z	24	advance_on_keypress_ZEE	84	stimuli_distractor_diamondtriangles.svg	stimuli_target_squaretriangles.svg	15	yes	57	0	395	6	2	antiphase_hc_ios.wav	3	6	3	noise_calib_stim_LEFT.wav	1	27	blb_dichoticlistening_pa-ga.mp3	pa	ga	1	left
6.6.1	win	2023-07-13	22:35:39	22:51:15	932492	62fe744f4cd35a1a91b43f13	2	1	main_z	24	main_z	85	stimuli_distractor_trianglediamonds.svg	stimuli_target_squaretriangles.svg	11	yes	44	1	1063	6	2	antiphase_hc_ios.wav	3	6	3	noise_calib_stim_LEFT.wav	1	27	blb_dichoticlistening_pa-ga.mp3	pa	ga	1	left
6.6.1	win	2023-07-13	22:35:39	22:51:15	932492	62fe744f4cd35a1a91b43f13	2	1	main_z	24	advance_on_keypress_ZEE	86	stimuli_distractor_trianglediamonds.svg	stimuli_target_squaretriangles.svg	11	yes	57	0	343	6	2	antiphase_hc_ios.wav	3	6	3	noise_calib_stim_LEFT.wav	1	27	blb_dichoticlistening_pa-ga.mp3	pa	ga	1	left
6.6.1	win	2023-07-13	22:35:39	22:51:17	934729	62fe744f4cd35a1a91b43f13	2	1	main_z	24	main_z	87	stimuli_target_trianglesquares.svg	stimuli_distractor_diamondtriangles.svg	22	yes	44	1	1250	6	2	antiphase_hc_ios.wav	3	6	3	noise_calib_stim_LEFT.wav	1	27	blb_dichoticlistening_pa-ga.mp3	pa	ga	1	left
6.6.1	win	2023-07-13	22:35:39	22:51:17	934729	62fe744f4cd35a1a91b43f13	2	1	main_z	24	advance_on_keypress_ZEE	88	stimuli_target_trianglesquares.svg	stimuli_distractor_diamondtriangles.svg	22	yes	57	0	421	6	2	antiphase_hc_ios.wav	3	6	3	noise_calib_stim_LEFT.wav	1	27	blb_dichoticlistening_pa-ga.mp3	pa	ga	1	left
6.6.1	win	2023-07-13	22:35:39	22:51:19	936530	62fe744f4cd35a1a91b43f13	2	1	main_z	24	main_z	89	stimuli_target_squaretriangles.svg	stimuli_distractor_trianglediamonds.svg	3	yes	44	1	735	6	2	antiphase_hc_ios.wav	3	6	3	noise_calib_stim_LEFT.wav	1	27	blb_dichoticlistening_pa-ga.mp3	pa	ga	1	left
6.6.1	win	2023-07-13	22:35:39	22:51:19	936530	62fe744f4cd35a1a91b43f13	2	1	main_z	24	advance_on_keypress_ZEE	90	stimuli_target_squaretriangles.svg	stimuli_distractor_trianglediamonds.svg	3	yes	57	0	376	6	2	antiphase_hc_ios.wav	3	6	3	noise_calib_stim_LEFT.wav	1	27	blb_dichoticlistening_pa-ga.mp3	pa	ga	1	left
6.6.1	win	2023-07-13	22:35:39	22:51:20	938151	62fe744f4cd35a1a91b43f13	2	1	main_z	24	main_z	91	stimuli_distractor_diamondtriangles.svg	stimuli_target_trianglesquares.svg	30	yes	44	1	607	6	2	antiphase_hc_ios.wav	3	6	3	noise_calib_stim_LEFT.wav	1	27	blb_dichoticlistening_pa-ga.mp3	pa	ga	1	left
6.6.1	win	2023-07-13	22:35:39	22:51:20	938151	62fe744f4cd35a1a91b43f13	2	1	main_z	24	advance_on_keypress_ZEE	92	stimuli_distractor_diamondtriangles.svg	stimuli_target_trianglesquares.svg	30	yes	57	0	425	6	2	antiphase_hc_ios.wav	3	6	3	noise_calib_stim_LEFT.wav	1	27	blb_dichoticlistening_pa-ga.mp3	pa	ga	1	left
6.6.1	win	2023-07-13	22:35:39	22:51:22	940146	62fe744f4cd35a1a91b43f13	2	1	main_z	24	main_z	93	stimuli_distractor_trianglediamonds.svg	stimuli_target_trianglerectangles.svg	25	yes	44	1	935	6	2	antiphase_hc_ios.wav	3	6	3	noise_calib_stim_LEFT.wav	1	27	blb_dichoticlistening_pa-ga.mp3	pa	ga	1	left
6.6.1	win	2023-07-13	22:35:39	22:51:22	940146	62fe744f4cd35a1a91b43f13	2	1	main_z	24	advance_on_keypress_ZEE	94	stimuli_distractor_trianglediamonds.svg	stimuli_target_trianglerectangles.svg	25	yes	57	0	342	6	2	antiphase_hc_ios.wav	3	6	3	noise_calib_stim_LEFT.wav	1	27	blb_dichoticlistening_pa-ga.mp3	pa	ga	1	left
6.6.1	win	2023-07-13	22:35:39	22:51:24	942156	62fe744f4cd35a1a91b43f13	2	1	main_z	24	main_z	95	stimuli_distractor_trianglediamonds.svg	stimuli_target_squarediamonds.svg	12	yes	44	1	1029	6	2	antiphase_hc_ios.wav	3	6	3	noise_calib_stim_LEFT.wav	1	27	blb_dichoticlistening_pa-ga.mp3	pa	ga	1	left
6.6.1	win	2023-07-13	22:35:39	22:51:24	942156	62fe744f4cd35a1a91b43f13	2	1	main_z	24	advance_on_keypress_ZEE	96	stimuli_distractor_trianglediamonds.svg	stimuli_target_squarediamonds.svg	12	yes	57	0	331	6	2	antiphase_hc_ios.wav	3	6	3	noise_calib_stim_LEFT.wav	1	27	blb_dichoticlistening_pa-ga.mp3	pa	ga	1	left
6.6.1	win	2023-07-13	22:35:39	22:51:27	944819	62fe744f4cd35a1a91b43f13	2	1	main_z	24	main_z	97	stimuli_target_squaretriangles.svg	stimuli_distractor_diamondtriangles.svg	7	yes	44	1	1692	6	2	antiphase_hc_ios.wav	3	6	3	noise_calib_stim_LEFT.wav	1	27	blb_dichoticlistening_pa-ga.mp3	pa	ga	1	left
6.6.1	win	2023-07-13	22:35:39	22:51:27	944819	62fe744f4cd35a1a91b43f13	2	1	main_z	24	advance_on_keypress_ZEE	98	stimuli_target_squaretriangles.svg	stimuli_distractor_diamondtriangles.svg	7	yes	57	0	320	6	2	antiphase_hc_ios.wav	3	6	3	noise_calib_stim_LEFT.wav	1	27	blb_dichoticlistening_pa-ga.mp3	pa	ga	1	left
6.6.1	win	2023-07-13	22:35:39	22:51:30	947777	62fe744f4cd35a1a91b43f13	2	1	main_z	24	main_z	99	stimuli_distractor_diamondtriangles.svg	stimuli_distractor_trianglediamonds.svg	38	no	0	1	2000	6	2	antiphase_hc_ios.wav	3	6	3	noise_calib_stim_LEFT.wav	1	27	blb_dichoticlistening_pa-ga.mp3	pa	ga	1	left
6.6.1	win	2023-07-13	22:35:39	22:51:30	947777	62fe744f4cd35a1a91b43f13	2	1	main_z	24	advance_on_keypress_ZEE	100	stimuli_distractor_diamondtriangles.svg	stimuli_distractor_trianglediamonds.svg	38	no	57	0	496	6	2	antiphase_hc_ios.wav	3	6	3	noise_calib_stim_LEFT.wav	1	27	blb_dichoticlistening_pa-ga.mp3	pa	ga	1	left
6.6.1	win	2023-07-13	22:35:39	22:51:32	950136	62fe744f4cd35a1a91b43f13	2	1	main_z	24	main_z	101	stimuli_target_trianglesquares.svg	stimuli_distractor_trianglediamonds.svg	18	yes	44	1	1210	6	2	antiphase_hc_ios.wav	3	6	3	noise_calib_stim_LEFT.wav	1	27	blb_dichoticlistening_pa-ga.mp3	pa	ga	1	left
6.6.1	win	2023-07-13	22:35:39	22:51:32	950136	62fe744f4cd35a1a91b43f13	2	1	main_z	24	advance_on_keypress_ZEE	102	stimuli_target_trianglesquares.svg	stimuli_distractor_trianglediamonds.svg	18	yes	57	0	453	6	2	antiphase_hc_ios.wav	3	6	3	noise_calib_stim_LEFT.wav	1	27	blb_dichoticlistening_pa-ga.mp3	pa	ga	1	left
6.6.1	win	2023-07-13	22:35:39	22:51:35	953226	62fe744f4cd35a1a91b43f13	2	1	main_z	24	main_z	103	stimuli_target_squarediamonds.svg	stimuli_distractor_diamondtriangles.svg	8	yes	0	0	2000	6	2	antiphase_hc_ios.wav	3	6	3	noise_calib_stim_LEFT.wav	1	27	blb_dichoticlistening_pa-ga.mp3	pa	ga	1	left
6.6.1	win	2023-07-13	22:35:39	22:51:35	953226	62fe744f4cd35a1a91b43f13	2	1	main_z	24	advance_on_keypress_ZEE	104	stimuli_target_squarediamonds.svg	stimuli_distractor_diamondtriangles.svg	8	yes	57	0	291	6	2	antiphase_hc_ios.wav	3	6	3	noise_calib_stim_LEFT.wav	1	27	blb_dichoticlistening_pa-ga.mp3	pa	ga	1	left
6.6.1	win	2023-07-13	22:35:39	22:51:38	956159	62fe744f4cd35a1a91b43f13	2	1	main_z	24	main_z	105	stimuli_distractor_diamondtriangles.svg	stimuli_distractor_trianglediamonds.svg	37	no	0	1	2000	6	2	antiphase_hc_ios.wav	3	6	3	noise_calib_stim_LEFT.wav	1	27	blb_dichoticlistening_pa-ga.mp3	pa	ga	1	left
6.6.1	win	2023-07-13	22:35:39	22:51:38	956159	62fe744f4cd35a1a91b43f13	2	1	main_z	24	advance_on_keypress_ZEE	106	stimuli_distractor_diamondtriangles.svg	stimuli_distractor_trianglediamonds.svg	37	no	57	0	358	6	2	antiphase_hc_ios.wav	3	6	3	noise_calib_stim_LEFT.wav	1	27	blb_dichoticlistening_pa-ga.mp3	pa	ga	1	left
6.6.1	win	2023-07-13	22:35:39	22:51:40	957919	62fe744f4cd35a1a91b43f13	2	1	main_z	24	main_z	107	stimuli_distractor_trianglediamonds.svg	stimuli_target_rectanglediamonds.svg	10	yes	44	1	759	6	2	antiphase_hc_ios.wav	3	6	3	noise_calib_stim_LEFT.wav	1	27	blb_dichoticlistening_pa-ga.mp3	pa	ga	1	left
6.6.1	win	2023-07-13	22:35:39	22:51:40	957919	62fe744f4cd35a1a91b43f13	2	1	main_z	24	advance_on_keypress_ZEE	108	stimuli_distractor_trianglediamonds.svg	stimuli_target_rectanglediamonds.svg	10	yes	57	0	408	6	2	antiphase_hc_ios.wav	3	6	3	noise_calib_stim_LEFT.wav	1	27	blb_dichoticlistening_pa-ga.mp3	pa	ga	1	left
6.6.1	win	2023-07-13	22:35:39	22:51:42	959681	62fe744f4cd35a1a91b43f13	2	1	main_z	24	main_z	109	stimuli_target_rectangletriangles.svg	stimuli_distractor_diamondtriangles.svg	5	yes	44	1	723	6	2	antiphase_hc_ios.wav	3	6	3	noise_calib_stim_LEFT.wav	1	27	blb_dichoticlistening_pa-ga.mp3	pa	ga	1	left
6.6.1	win	2023-07-13	22:35:39	22:51:42	959681	62fe744f4cd35a1a91b43f13	2	1	main_z	24	advance_on_keypress_ZEE	110	stimuli_target_rectangletriangles.svg	stimuli_distractor_diamondtriangles.svg	5	yes	57	0	428	6	2	antiphase_hc_ios.wav	3	6	3	noise_calib_stim_LEFT.wav	1	27	blb_dichoticlistening_pa-ga.mp3	pa	ga	1	left
6.6.1	win	2023-07-13	22:35:39	22:51:45	962742	62fe744f4cd35a1a91b43f13	2	1	main_z	24	main_z	111	stimuli_distractor_trianglediamonds.svg	stimuli_distractor_diamondtriangles.svg	36	no	0	1	2000	6	2	antiphase_hc_ios.wav	3	6	3	noise_calib_stim_LEFT.wav	1	27	blb_dichoticlistening_pa-ga.mp3	pa	ga	1	left
6.6.1	win	2023-07-13	22:35:39	22:51:45	962742	62fe744f4cd35a1a91b43f13	2	1	main_z	24	advance_on_keypress_ZEE	112	stimuli_distractor_trianglediamonds.svg	stimuli_distractor_diamondtriangles.svg	36	no	57	0	352	6	2	antiphase_hc_ios.wav	3	6	3	noise_calib_stim_LEFT.wav	1	27	blb_dichoticlistening_pa-ga.mp3	pa	ga	1	left
6.6.1	win	2023-07-13	22:35:39	22:51:48	965741	62fe744f4cd35a1a91b43f13	2	1	main_z	24	main_z	113	stimuli_distractor_diamondtriangles.svg	stimuli_distractor_diamondtriangles.svg	40	no	0	1	2000	6	2	antiphase_hc_ios.wav	3	6	3	noise_calib_stim_LEFT.wav	1	27	blb_dichoticlistening_pa-ga.mp3	pa	ga	1	left
6.6.1	win	2023-07-13	22:35:39	22:51:48	965741	62fe744f4cd35a1a91b43f13	2	1	main_z	24	advance_on_keypress_ZEE	114	stimuli_distractor_diamondtriangles.svg	stimuli_distractor_diamondtriangles.svg	40	no	57	0	466	6	2	antiphase_hc_ios.wav	3	6	3	noise_calib_stim_LEFT.wav	1	27	blb_dichoticlistening_pa-ga.mp3	pa	ga	1	left
6.6.1	win	2023-07-13	22:35:39	22:51:51	968857	62fe744f4cd35a1a91b43f13	2	1	main_z	24	main_z	115	stimuli_target_diamondrectangles.svg	stimuli_distractor_diamondtriangles.svg	23	yes	0	0	2000	6	2	antiphase_hc_ios.wav	3	6	3	noise_calib_stim_LEFT.wav	1	27	blb_dichoticlistening_pa-ga.mp3	pa	ga	1	left
6.6.1	win	2023-07-13	22:35:39	22:51:51	968857	62fe744f4cd35a1a91b43f13	2	1	main_z	24	advance_on_keypress_ZEE	116	stimuli_target_diamondrectangles.svg	stimuli_distractor_diamondtriangles.svg	23	yes	57	0	284	6	2	antiphase_hc_ios.wav	3	6	3	noise_calib_stim_LEFT.wav	1	27	blb_dichoticlistening_pa-ga.mp3	pa	ga	1	left
6.6.1	win	2023-07-13	22:35:39	22:51:53	970690	62fe744f4cd35a1a91b43f13	2	1	main_z	24	main_z	117	stimuli_target_diamondsquares.svg	stimuli_distractor_diamondtriangles.svg	24	yes	44	1	900	6	2	antiphase_hc_ios.wav	3	6	3	noise_calib_stim_LEFT.wav	1	27	blb_dichoticlistening_pa-ga.mp3	pa	ga	1	left
6.6.1	win	2023-07-13	22:35:39	22:51:53	970690	62fe744f4cd35a1a91b43f13	2	1	main_z	24	advance_on_keypress_ZEE	118	stimuli_target_diamondsquares.svg	stimuli_distractor_diamondtriangles.svg	24	yes	57	0	391	6	2	antiphase_hc_ios.wav	3	6	3	noise_calib_stim_LEFT.wav	1	27	blb_dichoticlistening_pa-ga.mp3	pa	ga	1	left
6.6.1	win	2023-07-13	22:35:39	22:51:54	972426	62fe744f4cd35a1a91b43f13	2	1	main_z	24	main_z	119	stimuli_target_trianglerectangles.svg	stimuli_distractor_trianglediamonds.svg	17	yes	44	1	703	6	2	antiphase_hc_ios.wav	3	6	3	noise_calib_stim_LEFT.wav	1	27	blb_dichoticlistening_pa-ga.mp3	pa	ga	1	left
6.6.1	win	2023-07-13	22:35:39	22:51:54	972426	62fe744f4cd35a1a91b43f13	2	1	main_z	24	advance_on_keypress_ZEE	120	stimuli_target_trianglerectangles.svg	stimuli_distractor_trianglediamonds.svg	17	yes	57	0	363	6	2	antiphase_hc_ios.wav	3	6	3	noise_calib_stim_LEFT.wav	1	27	blb_dichoticlistening_pa-ga.mp3	pa	ga	1	left
6.6.1	win	2023-07-13	22:35:39	22:51:57	974482	62fe744f4cd35a1a91b43f13	2	1	main_z	24	main_z	121	stimuli_target_rectanglediamonds.svg	stimuli_distractor_diamondtriangles.svg	6	yes	44	1	1042	6	2	antiphase_hc_ios.wav	3	6	3	noise_calib_stim_LEFT.wav	1	27	blb_dichoticlistening_pa-ga.mp3	pa	ga	1	left
6.6.1	win	2023-07-13	22:35:39	22:51:57	974482	62fe744f4cd35a1a91b43f13	2	1	main_z	24	advance_on_keypress_ZEE	122	stimuli_target_rectanglediamonds.svg	stimuli_distractor_diamondtriangles.svg	6	yes	57	0	342	6	2	antiphase_hc_ios.wav	3	6	3	noise_calib_stim_LEFT.wav	1	27	blb_dichoticlistening_pa-ga.mp3	pa	ga	1	left
6.6.1	win	2023-07-13	22:35:39	22:51:58	976253	62fe744f4cd35a1a91b43f13	2	1	main_z	24	main_z	123	stimuli_target_rectanglediamonds.svg	stimuli_distractor_trianglediamonds.svg	2	yes	44	1	797	6	2	antiphase_hc_ios.wav	3	6	3	noise_calib_stim_LEFT.wav	1	27	blb_dichoticlistening_pa-ga.mp3	pa	ga	1	left
6.6.1	win	2023-07-13	22:35:39	22:51:58	976253	62fe744f4cd35a1a91b43f13	2	1	main_z	24	advance_on_keypress_ZEE	124	stimuli_target_rectanglediamonds.svg	stimuli_distractor_trianglediamonds.svg	2	yes	57	0	605	6	2	antiphase_hc_ios.wav	3	6	3	noise_calib_stim_LEFT.wav	1	27	blb_dichoticlistening_pa-ga.mp3	pa	ga	1	left
6.6.1	win	2023-07-13	22:35:39	22:52:00	978167	62fe744f4cd35a1a91b43f13	2	1	main_z	24	main_z	125	stimuli_target_diamondrectangles.svg	stimuli_distractor_trianglediamonds.svg	19	yes	44	1	661	6	2	antiphase_hc_ios.wav	3	6	3	noise_calib_stim_LEFT.wav	1	27	blb_dichoticlistening_pa-ga.mp3	pa	ga	1	left
6.6.1	win	2023-07-13	22:35:39	22:52:00	978167	62fe744f4cd35a1a91b43f13	2	1	main_z	24	advance_on_keypress_ZEE	126	stimuli_target_diamondrectangles.svg	stimuli_distractor_trianglediamonds.svg	19	yes	57	0	366	6	2	antiphase_hc_ios.wav	3	6	3	noise_calib_stim_LEFT.wav	1	27	blb_dichoticlistening_pa-ga.mp3	pa	ga	1	left
6.6.1	win	2023-07-13	22:35:39	22:52:02	980226	62fe744f4cd35a1a91b43f13	2	1	main_z	24	main_z	127	stimuli_target_rectangletriangles.svg	stimuli_distractor_trianglediamonds.svg	1	yes	44	1	1052	6	2	antiphase_hc_ios.wav	3	6	3	noise_calib_stim_LEFT.wav	1	27	blb_dichoticlistening_pa-ga.mp3	pa	ga	1	left
6.6.1	win	2023-07-13	22:35:39	22:52:02	980226	62fe744f4cd35a1a91b43f13	2	1	main_z	24	advance_on_keypress_ZEE	128	stimuli_target_rectangletriangles.svg	stimuli_distractor_trianglediamonds.svg	1	yes	57	0	390	6	2	antiphase_hc_ios.wav	3	6	3	noise_calib_stim_LEFT.wav	1	27	blb_dichoticlistening_pa-ga.mp3	pa	ga	1	left
6.6.1	win	2023-07-13	22:35:39	22:52:04	982154	62fe744f4cd35a1a91b43f13	2	1	main_z	24	main_z	129	stimuli_distractor_diamondtriangles.svg	stimuli_target_diamondsquares.svg	32	yes	44	1	899	6	2	antiphase_hc_ios.wav	3	6	3	noise_calib_stim_LEFT.wav	1	27	blb_dichoticlistening_pa-ga.mp3	pa	ga	1	left
6.6.1	win	2023-07-13	22:35:39	22:52:04	982154	62fe744f4cd35a1a91b43f13	2	1	main_z	24	advance_on_keypress_ZEE	130	stimuli_distractor_diamondtriangles.svg	stimuli_target_diamondsquares.svg	32	yes	57	0	319	6	2	antiphase_hc_ios.wav	3	6	3	noise_calib_stim_LEFT.wav	1	27	blb_dichoticlistening_pa-ga.mp3	pa	ga	1	left
6.6.1	win	2023-07-13	22:35:39	22:52:06	984187	62fe744f4cd35a1a91b43f13	2	1	main_z	24	main_z	131	stimuli_distractor_diamondtriangles.svg	stimuli_target_rectangletriangles.svg	13	yes	44	1	1065	6	2	antiphase_hc_ios.wav	3	6	3	noise_calib_stim_LEFT.wav	1	27	blb_dichoticlistening_pa-ga.mp3	pa	ga	1	left
6.6.1	win	2023-07-13	22:35:39	22:52:06	984187	62fe744f4cd35a1a91b43f13	2	1	main_z	24	advance_on_keypress_ZEE	132	stimuli_distractor_diamondtriangles.svg	stimuli_target_rectangletriangles.svg	13	yes	57	0	628	6	2	antiphase_hc_ios.wav	3	6	3	noise_calib_stim_LEFT.wav	1	27	blb_dichoticlistening_pa-ga.mp3	pa	ga	1	left
6.6.1	win	2023-07-13	22:35:39	22:52:09	986490	62fe744f4cd35a1a91b43f13	2	1	main_z	24	main_z	133	stimuli_distractor_diamondtriangles.svg	stimuli_target_squarediamonds.svg	16	yes	44	1	1036	6	2	antiphase_hc_ios.wav	3	6	3	noise_calib_stim_LEFT.wav	1	27	blb_dichoticlistening_pa-ga.mp3	pa	ga	1	left
6.6.1	win	2023-07-13	22:35:39	22:52:09	986490	62fe744f4cd35a1a91b43f13	2	1	main_z	24	advance_on_keypress_ZEE	134	stimuli_distractor_diamondtriangles.svg	stimuli_target_squarediamonds.svg	16	yes	57	0	386	6	2	antiphase_hc_ios.wav	3	6	3	noise_calib_stim_LEFT.wav	1	27	blb_dichoticlistening_pa-ga.mp3	pa	ga	1	left
6.6.1	win	2023-07-13	22:35:39	22:52:11	988800	62fe744f4cd35a1a91b43f13	2	1	main_z	24	main_z	135	stimuli_distractor_trianglediamonds.svg	stimuli_target_rectangletriangles.svg	9	yes	44	1	1279	6	2	antiphase_hc_ios.wav	3	6	3	noise_calib_stim_LEFT.wav	1	27	blb_dichoticlistening_pa-ga.mp3	pa	ga	1	left
6.6.1	win	2023-07-13	22:35:39	22:52:11	988800	62fe744f4cd35a1a91b43f13	2	1	main_z	24	advance_on_keypress_ZEE	136	stimuli_distractor_trianglediamonds.svg	stimuli_target_rectangletriangles.svg	9	yes	57	0	272	6	2	antiphase_hc_ios.wav	3	6	3	noise_calib_stim_LEFT.wav	1	27	blb_dichoticlistening_pa-ga.mp3	pa	ga	1	left
6.6.1	win	2023-07-13	22:35:39	22:52:13	991014	62fe744f4cd35a1a91b43f13	2	1	main_z	24	main_z	137	stimuli_target_diamondsquares.svg	stimuli_distractor_trianglediamonds.svg	20	yes	44	1	1308	6	2	antiphase_hc_ios.wav	3	6	3	noise_calib_stim_LEFT.wav	1	27	blb_dichoticlistening_pa-ga.mp3	pa	ga	1	left
6.6.1	win	2023-07-13	22:35:39	22:52:13	991014	62fe744f4cd35a1a91b43f13	2	1	main_z	24	advance_on_keypress_ZEE	138	stimuli_target_diamondsquares.svg	stimuli_distractor_trianglediamonds.svg	20	yes	57	0	273	6	2	antiphase_hc_ios.wav	3	6	3	noise_calib_stim_LEFT.wav	1	27	blb_dichoticlistening_pa-ga.mp3	pa	ga	1	left
6.6.1	win	2023-07-13	22:35:39	22:52:16	993803	62fe744f4cd35a1a91b43f13	2	1	main_z	24	main_z	139	stimuli_distractor_diamondtriangles.svg	stimuli_target_trianglerectangles.svg	29	yes	44	1	1882	6	2	antiphase_hc_ios.wav	3	6	3	noise_calib_stim_LEFT.wav	1	27	blb_dichoticlistening_pa-ga.mp3	pa	ga	1	left
6.6.1	win	2023-07-13	22:35:39	22:52:16	993803	62fe744f4cd35a1a91b43f13	2	1	main_z	24	advance_on_keypress_ZEE	140	stimuli_distractor_diamondtriangles.svg	stimuli_target_trianglerectangles.svg	29	yes	57	0	314	6	2	antiphase_hc_ios.wav	3	6	3	noise_calib_stim_LEFT.wav	1	27	blb_dichoticlistening_pa-ga.mp3	pa	ga	1	left
6.6.1	win	2023-07-13	22:35:39	22:52:19	996770	62fe744f4cd35a1a91b43f13	2	1	main_z	24	main_z	141	stimuli_distractor_diamondtriangles.svg	stimuli_distractor_diamondtriangles.svg	39	no	0	1	2000	6	2	antiphase_hc_ios.wav	3	6	3	noise_calib_stim_LEFT.wav	1	27	blb_dichoticlistening_pa-ga.mp3	pa	ga	1	left
6.6.1	win	2023-07-13	22:35:39	22:52:19	996770	62fe744f4cd35a1a91b43f13	2	1	main_z	24	advance_on_keypress_ZEE	142	stimuli_distractor_diamondtriangles.svg	stimuli_distractor_diamondtriangles.svg	39	no	57	0	305	6	2	antiphase_hc_ios.wav	3	6	3	noise_calib_stim_LEFT.wav	1	27	blb_dichoticlistening_pa-ga.mp3	pa	ga	1	left
6.6.1	win	2023-07-13	22:35:39	22:52:21	998761	62fe744f4cd35a1a91b43f13	2	1	main_z	24	main_z	143	stimuli_distractor_trianglediamonds.svg	stimuli_target_diamondrectangles.svg	27	yes	44	1	1040	6	2	antiphase_hc_ios.wav	3	6	3	noise_calib_stim_LEFT.wav	1	27	blb_dichoticlistening_pa-ga.mp3	pa	ga	1	left
6.6.1	win	2023-07-13	22:35:39	22:52:21	998761	62fe744f4cd35a1a91b43f13	2	1	main_z	24	advance_on_keypress_ZEE	144	stimuli_distractor_trianglediamonds.svg	stimuli_target_diamondrectangles.svg	27	yes	57	0	245	6	2	antiphase_hc_ios.wav	3	6	3	noise_calib_stim_LEFT.wav	1	27	blb_dichoticlistening_pa-ga.mp3	pa	ga	1	left
6.6.1	win	2023-07-13	22:35:39	22:52:24	1001636	62fe744f4cd35a1a91b43f13	2	1	main_z	24	main_z	145	stimuli_distractor_trianglediamonds.svg	stimuli_distractor_trianglediamonds.svg	33	no	0	1	2000	6	2	antiphase_hc_ios.wav	3	6	3	noise_calib_stim_LEFT.wav	1	27	blb_dichoticlistening_pa-ga.mp3	pa	ga	1	left
6.6.1	win	2023-07-13	22:35:39	22:52:24	1001636	62fe744f4cd35a1a91b43f13	2	1	main_z	24	advance_on_keypress_ZEE	146	stimuli_distractor_trianglediamonds.svg	stimuli_distractor_trianglediamonds.svg	33	no	57	0	376	6	2	antiphase_hc_ios.wav	3	6	3	noise_calib_stim_LEFT.wav	1	27	blb_dichoticlistening_pa-ga.mp3	pa	ga	1	left
6.6.1	win	2023-07-13	22:35:39	22:52:26	1003687	62fe744f4cd35a1a91b43f13	2	1	main_z	24	main_z	147	stimuli_distractor_diamondtriangles.svg	stimuli_target_diamondrectangles.svg	31	yes	44	1	1034	6	2	antiphase_hc_ios.wav	3	6	3	noise_calib_stim_LEFT.wav	1	27	blb_dichoticlistening_pa-ga.mp3	pa	ga	1	left
6.6.1	win	2023-07-13	22:35:39	22:52:26	1003687	62fe744f4cd35a1a91b43f13	2	1	main_z	24	advance_on_keypress_ZEE	148	stimuli_distractor_diamondtriangles.svg	stimuli_target_diamondrectangles.svg	31	yes	57	0	327	6	2	antiphase_hc_ios.wav	3	6	3	noise_calib_stim_LEFT.wav	1	27	blb_dichoticlistening_pa-ga.mp3	pa	ga	1	left
6.6.1	win	2023-07-13	22:35:39	22:52:28	1005494	62fe744f4cd35a1a91b43f13	2	1	main_z	24	main_z	149	stimuli_distractor_trianglediamonds.svg	stimuli_target_trianglesquares.svg	26	yes	44	1	842	6	2	antiphase_hc_ios.wav	3	6	3	noise_calib_stim_LEFT.wav	1	27	blb_dichoticlistening_pa-ga.mp3	pa	ga	1	left
6.6.1	win	2023-07-13	22:35:39	22:52:28	1005494	62fe744f4cd35a1a91b43f13	2	1	main_z	24	advance_on_keypress_ZEE	150	stimuli_distractor_trianglediamonds.svg	stimuli_target_trianglesquares.svg	26	yes	57	0	364	6	2	antiphase_hc_ios.wav	3	6	3	noise_calib_stim_LEFT.wav	1	27	blb_dichoticlistening_pa-ga.mp3	pa	ga	1	left
6.6.1	win	2023-07-13	22:35:39	22:52:31	1008503	62fe744f4cd35a1a91b43f13	2	1	main_z	24	main_z	151	stimuli_target_squarediamonds.svg	stimuli_distractor_trianglediamonds.svg	4	yes	0	0	2000	6	2	antiphase_hc_ios.wav	3	6	3	noise_calib_stim_LEFT.wav	1	27	blb_dichoticlistening_pa-ga.mp3	pa	ga	1	left
6.6.1	win	2023-07-13	22:35:39	22:52:31	1008503	62fe744f4cd35a1a91b43f13	2	1	main_z	24	advance_on_keypress_ZEE	152	stimuli_target_squarediamonds.svg	stimuli_distractor_trianglediamonds.svg	4	yes	57	0	357	6	2	antiphase_hc_ios.wav	3	6	3	noise_calib_stim_LEFT.wav	1	27	blb_dichoticlistening_pa-ga.mp3	pa	ga	1	left
6.6.1	win	2023-07-13	22:35:39	22:52:34	1011502	62fe744f4cd35a1a91b43f13	2	1	main_z	24	main_z	153	stimuli_distractor_trianglediamonds.svg	stimuli_distractor_diamondtriangles.svg	35	no	0	1	2000	6	2	antiphase_hc_ios.wav	3	6	3	noise_calib_stim_LEFT.wav	1	27	blb_dichoticlistening_pa-ga.mp3	pa	ga	1	left
6.6.1	win	2023-07-13	22:35:39	22:52:34	1011502	62fe744f4cd35a1a91b43f13	2	1	main_z	24	advance_on_keypress_ZEE	154	stimuli_distractor_trianglediamonds.svg	stimuli_distractor_diamondtriangles.svg	35	no	57	0	386	6	2	antiphase_hc_ios.wav	3	6	3	noise_calib_stim_LEFT.wav	1	27	blb_dichoticlistening_pa-ga.mp3	pa	ga	1	left
6.6.1	win	2023-07-13	22:35:39	22:52:37	1014535	62fe744f4cd35a1a91b43f13	2	1	main_z	24	main_z	155	stimuli_distractor_trianglediamonds.svg	stimuli_distractor_trianglediamonds.svg	34	no	0	1	2000	6	2	antiphase_hc_ios.wav	3	6	3	noise_calib_stim_LEFT.wav	1	27	blb_dichoticlistening_pa-ga.mp3	pa	ga	1	left
6.6.1	win	2023-07-13	22:35:39	22:52:37	1014535	62fe744f4cd35a1a91b43f13	2	1	main_z	24	advance_on_keypress_ZEE	156	stimuli_distractor_trianglediamonds.svg	stimuli_distractor_trianglediamonds.svg	34	no	57	0	380	6	2	antiphase_hc_ios.wav	3	6	3	noise_calib_stim_LEFT.wav	1	27	blb_dichoticlistening_pa-ga.mp3	pa	ga	1	left
6.6.1	win	2023-07-13	22:35:39	22:52:39	1016769	62fe744f4cd35a1a91b43f13	2	1	main_z	24	main_z	157	stimuli_target_trianglerectangles.svg	stimuli_distractor_diamondtriangles.svg	21	yes	44	1	1201	6	2	antiphase_hc_ios.wav	3	6	3	noise_calib_stim_LEFT.wav	1	27	blb_dichoticlistening_pa-ga.mp3	pa	ga	1	left
6.6.1	win	2023-07-13	22:35:39	22:52:39	1016769	62fe744f4cd35a1a91b43f13	2	1	main_z	24	advance_on_keypress_ZEE	158	stimuli_target_trianglerectangles.svg	stimuli_distractor_diamondtriangles.svg	21	yes	57	0	510	6	2	antiphase_hc_ios.wav	3	6	3	noise_calib_stim_LEFT.wav	1	27	blb_dichoticlistening_pa-ga.mp3	pa	ga	1	left
6.6.1	win	2023-07-13	22:35:39	22:52:42	1019917	62fe744f4cd35a1a91b43f13	2	1	main_z	24	main_z	159	stimuli_distractor_diamondtriangles.svg	stimuli_target_rectanglediamonds.svg	14	yes	0	0	2000	6	2	antiphase_hc_ios.wav	3	6	3	noise_calib_stim_LEFT.wav	1	27	blb_dichoticlistening_pa-ga.mp3	pa	ga	1	left
6.6.1	win	2023-07-13	22:35:39	22:52:42	1019917	62fe744f4cd35a1a91b43f13	2	1	main_z	24	advance_on_keypress_ZEE	160	stimuli_distractor_diamondtriangles.svg	stimuli_target_rectanglediamonds.svg	14	yes	57	0	315	6	2	antiphase_hc_ios.wav	3	6	3	noise_calib_stim_LEFT.wav	1	27	blb_dichoticlistening_pa-ga.mp3	pa	ga	1	left
6.6.1	win	2023-07-13	22:35:39	22:53:15	1052937	62fe744f4cd35a1a91b43f13	2	1	practice_slash	26	practice_slash	1	stimuli_target_diamondsquares.svg	stimuli_distractor_diamondtriangles.svg	3	yes	53	1	1139	6	2	antiphase_hc_ios.wav	3	6	3	noise_calib_stim_LEFT.wav	1	27	blb_dichoticlistening_pa-ga.mp3	pa	ga	1	left
6.6.1	win	2023-07-13	22:35:39	22:53:15	1052937	62fe744f4cd35a1a91b43f13	2	1	practice_slash	26	advance_on_keypress_SLASH	2	stimuli_target_diamondsquares.svg	stimuli_distractor_diamondtriangles.svg	3	yes	57	0	755	6	2	antiphase_hc_ios.wav	3	6	3	noise_calib_stim_LEFT.wav	1	27	blb_dichoticlistening_pa-ga.mp3	pa	ga	1	left
6.6.1	win	2023-07-13	22:35:39	22:53:18	1056202	62fe744f4cd35a1a91b43f13	2	1	practice_slash	26	practice_slash	3	stimuli_target_squarediamonds.svg	stimuli_distractor_diamondtriangles.svg	2	yes	53	1	872	6	2	antiphase_hc_ios.wav	3	6	3	noise_calib_stim_LEFT.wav	1	27	blb_dichoticlistening_pa-ga.mp3	pa	ga	1	left
6.6.1	win	2023-07-13	22:35:39	22:53:18	1056202	62fe744f4cd35a1a91b43f13	2	1	practice_slash	26	advance_on_keypress_SLASH	4	stimuli_target_squarediamonds.svg	stimuli_distractor_diamondtriangles.svg	2	yes	57	0	647	6	2	antiphase_hc_ios.wav	3	6	3	noise_calib_stim_LEFT.wav	1	27	blb_dichoticlistening_pa-ga.mp3	pa	ga	1	left
6.6.1	win	2023-07-13	22:35:39	22:53:22	1059620	62fe744f4cd35a1a91b43f13	2	1	practice_slash	26	practice_slash	5	stimuli_distractor_trianglediamonds.svg	stimuli_target_rectanglediamonds.svg	10	yes	53	1	1122	6	2	antiphase_hc_ios.wav	3	6	3	noise_calib_stim_LEFT.wav	1	27	blb_dichoticlistening_pa-ga.mp3	pa	ga	1	left
6.6.1	win	2023-07-13	22:35:39	22:53:22	1059620	62fe744f4cd35a1a91b43f13	2	1	practice_slash	26	advance_on_keypress_SLASH	6	stimuli_distractor_trianglediamonds.svg	stimuli_target_rectanglediamonds.svg	10	yes	57	0	392	6	2	antiphase_hc_ios.wav	3	6	3	noise_calib_stim_LEFT.wav	1	27	blb_dichoticlistening_pa-ga.mp3	pa	ga	1	left
6.6.1	win	2023-07-13	22:35:39	22:53:25	1062549	62fe744f4cd35a1a91b43f13	2	1	practice_slash	26	practice_slash	7	stimuli_distractor_diamondtriangles.svg	stimuli_target_rectangletriangles.svg	7	yes	53	1	901	6	2	antiphase_hc_ios.wav	3	6	3	noise_calib_stim_LEFT.wav	1	27	blb_dichoticlistening_pa-ga.mp3	pa	ga	1	left
6.6.1	win	2023-07-13	22:35:39	22:53:25	1062549	62fe744f4cd35a1a91b43f13	2	1	practice_slash	26	advance_on_keypress_SLASH	8	stimuli_distractor_diamondtriangles.svg	stimuli_target_rectangletriangles.svg	7	yes	57	0	600	6	2	antiphase_hc_ios.wav	3	6	3	noise_calib_stim_LEFT.wav	1	27	blb_dichoticlistening_pa-ga.mp3	pa	ga	1	left
6.6.1	win	2023-07-13	22:35:39	22:53:28	1065807	62fe744f4cd35a1a91b43f13	2	1	practice_slash	26	practice_slash	9	stimuli_target_rectanglediamonds.svg	stimuli_distractor_trianglediamonds.svg	4	yes	53	1	1010	6	2	antiphase_hc_ios.wav	3	6	3	noise_calib_stim_LEFT.wav	1	27	blb_dichoticlistening_pa-ga.mp3	pa	ga	1	left
6.6.1	win	2023-07-13	22:35:39	22:53:28	1065807	62fe744f4cd35a1a91b43f13	2	1	practice_slash	26	advance_on_keypress_SLASH	10	stimuli_target_rectanglediamonds.svg	stimuli_distractor_trianglediamonds.svg	4	yes	57	0	334	6	2	antiphase_hc_ios.wav	3	6	3	noise_calib_stim_LEFT.wav	1	27	blb_dichoticlistening_pa-ga.mp3	pa	ga	1	left
6.6.1	win	2023-07-13	22:35:39	22:53:31	1069067	62fe744f4cd35a1a91b43f13	2	1	practice_slash	26	practice_slash	11	stimuli_distractor_trianglediamonds.svg	stimuli_target_diamondrectangles.svg	12	yes	53	1	1272	6	2	antiphase_hc_ios.wav	3	6	3	noise_calib_stim_LEFT.wav	1	27	blb_dichoticlistening_pa-ga.mp3	pa	ga	1	left
6.6.1	win	2023-07-13	22:35:39	22:53:31	1069067	62fe744f4cd35a1a91b43f13	2	1	practice_slash	26	advance_on_keypress_SLASH	12	stimuli_distractor_trianglediamonds.svg	stimuli_target_diamondrectangles.svg	12	yes	57	0	296	6	2	antiphase_hc_ios.wav	3	6	3	noise_calib_stim_LEFT.wav	1	27	blb_dichoticlistening_pa-ga.mp3	pa	ga	1	left
6.6.1	win	2023-07-13	22:35:39	22:53:34	1071958	62fe744f4cd35a1a91b43f13	2	1	practice_slash	26	practice_slash	13	stimuli_target_rectanglediamonds.svg	stimuli_distractor_diamondtriangles.svg	1	yes	53	1	945	6	2	antiphase_hc_ios.wav	3	6	3	noise_calib_stim_LEFT.wav	1	27	blb_dichoticlistening_pa-ga.mp3	pa	ga	1	left
6.6.1	win	2023-07-13	22:35:39	22:53:34	1071958	62fe744f4cd35a1a91b43f13	2	1	practice_slash	26	advance_on_keypress_SLASH	14	stimuli_target_rectanglediamonds.svg	stimuli_distractor_diamondtriangles.svg	1	yes	57	0	312	6	2	antiphase_hc_ios.wav	3	6	3	noise_calib_stim_LEFT.wav	1	27	blb_dichoticlistening_pa-ga.mp3	pa	ga	1	left
6.6.1	win	2023-07-13	22:35:39	22:53:37	1075008	62fe744f4cd35a1a91b43f13	2	1	practice_slash	26	practice_slash	15	stimuli_distractor_diamondtriangles.svg	stimuli_distractor_trianglediamonds.svg	14	no	53	0	1079	6	2	antiphase_hc_ios.wav	3	6	3	noise_calib_stim_LEFT.wav	1	27	blb_dichoticlistening_pa-ga.mp3	pa	ga	1	left
6.6.1	win	2023-07-13	22:35:39	22:53:37	1075008	62fe744f4cd35a1a91b43f13	2	1	practice_slash	26	advance_on_keypress_SLASH	16	stimuli_distractor_diamondtriangles.svg	stimuli_distractor_trianglediamonds.svg	14	no	57	0	524	6	2	antiphase_hc_ios.wav	3	6	3	noise_calib_stim_LEFT.wav	1	27	blb_dichoticlistening_pa-ga.mp3	pa	ga	1	left
6.6.1	win	2023-07-13	22:35:39	22:53:40	1078306	62fe744f4cd35a1a91b43f13	2	1	practice_slash	26	practice_slash	17	stimuli_distractor_diamondtriangles.svg	stimuli_target_trianglerectangles.svg	9	yes	53	1	1127	6	2	antiphase_hc_ios.wav	3	6	3	noise_calib_stim_LEFT.wav	1	27	blb_dichoticlistening_pa-ga.mp3	pa	ga	1	left
6.6.1	win	2023-07-13	22:35:39	22:53:40	1078306	62fe744f4cd35a1a91b43f13	2	1	practice_slash	26	advance_on_keypress_SLASH	18	stimuli_distractor_diamondtriangles.svg	stimuli_target_trianglerectangles.svg	9	yes	57	0	4173	6	2	antiphase_hc_ios.wav	3	6	3	noise_calib_stim_LEFT.wav	1	27	blb_dichoticlistening_pa-ga.mp3	pa	ga	1	left
6.6.1	win	2023-07-13	22:35:39	22:53:48	1086128	62fe744f4cd35a1a91b43f13	2	1	practice_slash	26	practice_slash	19	stimuli_distractor_trianglediamonds.svg	stimuli_distractor_trianglediamonds.svg	15	no	0	1	2000	6	2	antiphase_hc_ios.wav	3	6	3	noise_calib_stim_LEFT.wav	1	27	blb_dichoticlistening_pa-ga.mp3	pa	ga	1	left
