build	computer.platform	date	time	timestamp	time_elapsed_ms	subject	group	session	blockcode	blocknum	trialcode	trialnum	stimulus_left	stimulus_right	stim_index	target_present	response	correct	latency	headphonecheck_countTestTrials	headphonecheck_index	headphonecheck_testSound	headphonecheck_correctResponse	stereocheck_countTestTrials	stereocheck_index	stereocheck_testSound	stereocheck_correctResponse	DL_index	DL_soundfile	DL_leftSound	DL_rightSound	DL_dualSound	DL_choice
6.6.1	win	2023-07-10	09:52:19	09:55:39	192020	60fc1b9a79d5bbbb6712bf8e	3	1	practice_slash	5	practice_slash	1	stimuli_target_diamondsquares.svg	stimuli_distractor_diamondtriangles.svg	3	yes	0	0	2000	0	0			0	0			1				0	
6.6.1	win	2023-07-10	09:52:19	09:55:39	192020	60fc1b9a79d5bbbb6712bf8e	3	1	practice_slash	5	advance_on_keypress_SLASH	2	stimuli_target_diamondsquares.svg	stimuli_distractor_diamondtriangles.svg	3	yes	57	0	1585	0	0			0	0			1				0	
6.6.1	win	2023-07-10	09:52:19	09:55:43	195624	60fc1b9a79d5bbbb6712bf8e	3	1	practice_slash	5	practice_slash	3	stimuli_target_diamondsquares.svg	stimuli_distractor_trianglediamonds.svg	6	yes	53	1	333	0	0			0	0			1				0	
6.6.1	win	2023-07-10	09:52:19	09:55:43	195624	60fc1b9a79d5bbbb6712bf8e	3	1	practice_slash	5	advance_on_keypress_SLASH	4	stimuli_target_diamondsquares.svg	stimuli_distractor_trianglediamonds.svg	6	yes	57	0	772	0	0			0	0			1				0	
6.6.1	win	2023-07-10	09:52:19	09:55:45	198321	60fc1b9a79d5bbbb6712bf8e	3	1	practice_slash	5	practice_slash	5	stimuli_distractor_diamondtriangles.svg	stimuli_target_diamondrectangles.svg	8	yes	53	1	259	0	0			0	0			1				0	
6.6.1	win	2023-07-10	09:52:19	09:55:45	198321	60fc1b9a79d5bbbb6712bf8e	3	1	practice_slash	5	advance_on_keypress_SLASH	6	stimuli_distractor_diamondtriangles.svg	stimuli_target_diamondrectangles.svg	8	yes	57	0	654	0	0			0	0			1				0	
6.6.1	win	2023-07-10	09:52:19	09:55:48	200913	60fc1b9a79d5bbbb6712bf8e	3	1	practice_slash	5	practice_slash	7	stimuli_distractor_trianglediamonds.svg	stimuli_target_squarediamonds.svg	11	yes	53	1	266	0	0			0	0			1				0	
6.6.1	win	2023-07-10	09:52:19	09:55:48	200913	60fc1b9a79d5bbbb6712bf8e	3	1	practice_slash	5	advance_on_keypress_SLASH	8	stimuli_distractor_trianglediamonds.svg	stimuli_target_squarediamonds.svg	11	yes	57	0	478	0	0			0	0			1				0	
6.6.1	win	2023-07-10	09:52:19	09:55:50	203308	60fc1b9a79d5bbbb6712bf8e	3	1	practice_slash	5	practice_slash	9	stimuli_distractor_diamondtriangles.svg	stimuli_distractor_diamondtriangles.svg	13	no	53	0	257	0	0			0	0			1				0	
6.6.1	win	2023-07-10	09:52:19	09:55:50	203308	60fc1b9a79d5bbbb6712bf8e	3	1	practice_slash	5	advance_on_keypress_SLASH	10	stimuli_distractor_diamondtriangles.svg	stimuli_distractor_diamondtriangles.svg	13	no	57	0	498	0	0			0	0			1				0	
6.6.1	win	2023-07-10	09:52:19	09:55:53	205777	60fc1b9a79d5bbbb6712bf8e	3	1	practice_slash	5	practice_slash	11	stimuli_target_rectanglediamonds.svg	stimuli_distractor_trianglediamonds.svg	4	yes	53	1	290	0	0			0	0			1				0	
6.6.1	win	2023-07-10	09:52:19	09:55:53	205777	60fc1b9a79d5bbbb6712bf8e	3	1	practice_slash	5	advance_on_keypress_SLASH	12	stimuli_target_rectanglediamonds.svg	stimuli_distractor_trianglediamonds.svg	4	yes	57	0	383	0	0			0	0			1				0	
6.6.1	win	2023-07-10	09:52:19	09:55:57	209824	60fc1b9a79d5bbbb6712bf8e	3	1	practice_slash	5	practice_slash	13	stimuli_distractor_diamondtriangles.svg	stimuli_distractor_trianglediamonds.svg	14	no	0	1	2000	0	0			0	0			1				0	
6.6.1	win	2023-07-10	09:52:19	09:55:57	209824	60fc1b9a79d5bbbb6712bf8e	3	1	practice_slash	5	advance_on_keypress_SLASH	14	stimuli_distractor_diamondtriangles.svg	stimuli_distractor_trianglediamonds.svg	14	no	57	0	1230	0	0			0	0			1				0	
6.6.1	win	2023-07-10	09:52:19	09:56:00	213244	60fc1b9a79d5bbbb6712bf8e	3	1	practice_slash	5	practice_slash	15	stimuli_distractor_diamondtriangles.svg	stimuli_target_rectangletriangles.svg	7	yes	53	1	534	0	0			0	0			1				0	
6.6.1	win	2023-07-10	09:52:19	09:56:00	213244	60fc1b9a79d5bbbb6712bf8e	3	1	practice_slash	5	advance_on_keypress_SLASH	16	stimuli_distractor_diamondtriangles.svg	stimuli_target_rectangletriangles.svg	7	yes	57	0	682	0	0			0	0			1				0	
6.6.1	win	2023-07-10	09:52:19	09:56:05	217580	60fc1b9a79d5bbbb6712bf8e	3	1	practice_slash	5	practice_slash	17	stimuli_distractor_trianglediamonds.svg	stimuli_target_diamondrectangles.svg	12	yes	0	0	2000	0	0			0	0			1				0	
6.6.1	win	2023-07-10	09:52:19	09:56:05	217580	60fc1b9a79d5bbbb6712bf8e	3	1	practice_slash	5	advance_on_keypress_SLASH	18	stimuli_distractor_trianglediamonds.svg	stimuli_target_diamondrectangles.svg	12	yes	57	0	635	0	0			0	0			1				0	
6.6.1	win	2023-07-10	09:52:19	09:56:07	220216	60fc1b9a79d5bbbb6712bf8e	3	1	practice_slash	5	practice_slash	19	stimuli_target_squarediamonds.svg	stimuli_distractor_trianglediamonds.svg	5	yes	53	1	347	0	0			0	0			1				0	
6.6.1	win	2023-07-10	09:52:19	09:56:07	220216	60fc1b9a79d5bbbb6712bf8e	3	1	practice_slash	5	advance_on_keypress_SLASH	20	stimuli_target_squarediamonds.svg	stimuli_distractor_trianglediamonds.svg	5	yes	57	0	1251	0	0			0	0			1				0	
6.6.1	win	2023-07-10	09:52:19	09:56:11	223507	60fc1b9a79d5bbbb6712bf8e	3	1	practice_slash	5	practice_slash	21	stimuli_distractor_trianglediamonds.svg	stimuli_target_rectanglediamonds.svg	10	yes	53	1	384	0	0			0	0			1				0	
6.6.1	win	2023-07-10	09:52:19	09:56:11	223507	60fc1b9a79d5bbbb6712bf8e	3	1	practice_slash	5	advance_on_keypress_SLASH	22	stimuli_distractor_trianglediamonds.svg	stimuli_target_rectanglediamonds.svg	10	yes	57	0	657	0	0			0	0			1				0	
6.6.1	win	2023-07-10	09:52:19	09:56:14	226343	60fc1b9a79d5bbbb6712bf8e	3	1	practice_slash	5	practice_slash	23	stimuli_distractor_diamondtriangles.svg	stimuli_target_trianglerectangles.svg	9	yes	53	1	514	0	0			0	0			1				0	
6.6.1	win	2023-07-10	09:52:19	09:56:14	226343	60fc1b9a79d5bbbb6712bf8e	3	1	practice_slash	5	advance_on_keypress_SLASH	24	stimuli_distractor_diamondtriangles.svg	stimuli_target_trianglerectangles.svg	9	yes	57	0	382	0	0			0	0			1				0	
6.6.1	win	2023-07-10	09:52:19	09:56:18	230377	60fc1b9a79d5bbbb6712bf8e	3	1	practice_slash	5	practice_slash	25	stimuli_distractor_trianglediamonds.svg	stimuli_distractor_trianglediamonds.svg	15	no	0	1	2000	0	0			0	0			1				0	
6.6.1	win	2023-07-10	09:52:19	09:56:18	230377	60fc1b9a79d5bbbb6712bf8e	3	1	practice_slash	5	advance_on_keypress_SLASH	26	stimuli_distractor_trianglediamonds.svg	stimuli_distractor_trianglediamonds.svg	15	no	57	0	695	0	0			0	0			1				0	
6.6.1	win	2023-07-10	09:52:19	09:56:20	233275	60fc1b9a79d5bbbb6712bf8e	3	1	practice_slash	5	practice_slash	27	stimuli_target_squarediamonds.svg	stimuli_distractor_diamondtriangles.svg	2	yes	53	1	542	0	0			0	0			1				0	
6.6.1	win	2023-07-10	09:52:19	09:56:20	233275	60fc1b9a79d5bbbb6712bf8e	3	1	practice_slash	5	advance_on_keypress_SLASH	28	stimuli_target_squarediamonds.svg	stimuli_distractor_diamondtriangles.svg	2	yes	57	0	474	0	0			0	0			1				0	
6.6.1	win	2023-07-10	09:52:19	09:56:24	236361	60fc1b9a79d5bbbb6712bf8e	3	1	practice_slash	5	practice_slash	29	stimuli_distractor_trianglediamonds.svg	stimuli_distractor_diamondtriangles.svg	16	no	53	0	941	0	0			0	0			1				0	
6.6.1	win	2023-07-10	09:52:19	09:56:24	236361	60fc1b9a79d5bbbb6712bf8e	3	1	practice_slash	5	advance_on_keypress_SLASH	30	stimuli_distractor_trianglediamonds.svg	stimuli_distractor_diamondtriangles.svg	16	no	57	0	526	0	0			0	0			1				0	
6.6.1	win	2023-07-10	09:52:19	09:56:27	239802	60fc1b9a79d5bbbb6712bf8e	3	1	practice_slash	5	practice_slash	31	stimuli_target_rectanglediamonds.svg	stimuli_distractor_diamondtriangles.svg	1	yes	53	1	1245	0	0			0	0			1				0	
6.6.1	win	2023-07-10	09:52:19	09:56:27	239802	60fc1b9a79d5bbbb6712bf8e	3	1	practice_slash	5	advance_on_keypress_SLASH	32	stimuli_target_rectanglediamonds.svg	stimuli_distractor_diamondtriangles.svg	1	yes	57	0	2821	0	0			0	0			1				0	
6.6.1	win	2023-07-10	09:52:19	09:56:40	253296	60fc1b9a79d5bbbb6712bf8e	3	1	main_slash	7	main_slash	1	stimuli_distractor_trianglediamonds.svg	stimuli_target_rectangletriangles.svg	9	yes	53	1	409	0	0			0	0			1				0	
6.6.1	win	2023-07-10	09:52:19	09:56:40	253296	60fc1b9a79d5bbbb6712bf8e	3	1	main_slash	7	advance_on_keypress_SLASH	2	stimuli_distractor_trianglediamonds.svg	stimuli_target_rectangletriangles.svg	9	yes	57	0	2785	0	0			0	0			1				0	
6.6.1	win	2023-07-10	09:52:19	09:56:44	257135	60fc1b9a79d5bbbb6712bf8e	3	1	main_slash	7	main_slash	3	stimuli_distractor_trianglediamonds.svg	stimuli_target_rectanglediamonds.svg	10	yes	53	1	395	0	0			0	0			1				0	
6.6.1	win	2023-07-10	09:52:19	09:56:44	257135	60fc1b9a79d5bbbb6712bf8e	3	1	main_slash	7	advance_on_keypress_SLASH	4	stimuli_distractor_trianglediamonds.svg	stimuli_target_rectanglediamonds.svg	10	yes	57	0	1842	0	0			0	0			1				0	
6.6.1	win	2023-07-10	09:52:19	09:56:49	261647	60fc1b9a79d5bbbb6712bf8e	3	1	main_slash	7	main_slash	5	stimuli_distractor_diamondtriangles.svg	stimuli_distractor_diamondtriangles.svg	40	no	0	1	2000	0	0			0	0			1				0	
6.6.1	win	2023-07-10	09:52:19	09:56:49	261647	60fc1b9a79d5bbbb6712bf8e	3	1	main_slash	7	advance_on_keypress_SLASH	6	stimuli_distractor_diamondtriangles.svg	stimuli_distractor_diamondtriangles.svg	40	no	57	0	654	0	0			0	0			1				0	
6.6.1	win	2023-07-10	09:52:19	09:56:52	264964	60fc1b9a79d5bbbb6712bf8e	3	1	main_slash	7	main_slash	7	stimuli_distractor_trianglediamonds.svg	stimuli_distractor_trianglediamonds.svg	34	no	0	1	2000	0	0			0	0			1				0	
6.6.1	win	2023-07-10	09:52:19	09:56:52	264964	60fc1b9a79d5bbbb6712bf8e	3	1	main_slash	7	advance_on_keypress_SLASH	8	stimuli_distractor_trianglediamonds.svg	stimuli_distractor_trianglediamonds.svg	34	no	57	0	479	0	0			0	0			1				0	
6.6.1	win	2023-07-10	09:52:19	09:56:54	266411	60fc1b9a79d5bbbb6712bf8e	3	1	main_slash	7	main_slash	9	stimuli_distractor_diamondtriangles.svg	stimuli_target_diamondsquares.svg	32	yes	53	1	309	0	0			0	0			1				0	
6.6.1	win	2023-07-10	09:52:19	09:56:54	266411	60fc1b9a79d5bbbb6712bf8e	3	1	main_slash	7	advance_on_keypress_SLASH	10	stimuli_distractor_diamondtriangles.svg	stimuli_target_diamondsquares.svg	32	yes	57	0	1368	0	0			0	0			1				0	
6.6.1	win	2023-07-10	09:52:19	09:56:58	270436	60fc1b9a79d5bbbb6712bf8e	3	1	main_slash	7	main_slash	11	stimuli_distractor_trianglediamonds.svg	stimuli_distractor_trianglediamonds.svg	33	no	0	1	2000	0	0			0	0			1				0	
6.6.1	win	2023-07-10	09:52:19	09:56:58	270436	60fc1b9a79d5bbbb6712bf8e	3	1	main_slash	7	advance_on_keypress_SLASH	12	stimuli_distractor_trianglediamonds.svg	stimuli_distractor_trianglediamonds.svg	33	no	57	0	445	0	0			0	0			1				0	
6.6.1	win	2023-07-10	09:52:19	09:56:59	271850	60fc1b9a79d5bbbb6712bf8e	3	1	main_slash	7	main_slash	13	stimuli_target_rectanglediamonds.svg	stimuli_distractor_diamondtriangles.svg	6	yes	53	1	300	0	0			0	0			1				0	
6.6.1	win	2023-07-10	09:52:19	09:56:59	271850	60fc1b9a79d5bbbb6712bf8e	3	1	main_slash	7	advance_on_keypress_SLASH	14	stimuli_target_rectanglediamonds.svg	stimuli_distractor_diamondtriangles.svg	6	yes	57	0	1196	0	0			0	0			1				0	
6.6.1	win	2023-07-10	09:52:19	09:57:01	274177	60fc1b9a79d5bbbb6712bf8e	3	1	main_slash	7	main_slash	15	stimuli_distractor_diamondtriangles.svg	stimuli_target_squarediamonds.svg	16	yes	53	1	468	0	0			0	0			1				0	
6.6.1	win	2023-07-10	09:52:19	09:57:01	274177	60fc1b9a79d5bbbb6712bf8e	3	1	main_slash	7	advance_on_keypress_SLASH	16	stimuli_distractor_diamondtriangles.svg	stimuli_target_squarediamonds.svg	16	yes	57	0	731	0	0			0	0			1				0	
6.6.1	win	2023-07-10	09:52:19	09:57:03	275954	60fc1b9a79d5bbbb6712bf8e	3	1	main_slash	7	main_slash	17	stimuli_target_rectangletriangles.svg	stimuli_distractor_diamondtriangles.svg	5	yes	53	1	394	0	0			0	0			1				0	
6.6.1	win	2023-07-10	09:52:19	09:57:03	275954	60fc1b9a79d5bbbb6712bf8e	3	1	main_slash	7	advance_on_keypress_SLASH	18	stimuli_target_rectangletriangles.svg	stimuli_distractor_diamondtriangles.svg	5	yes	57	0	700	0	0			0	0			1				0	
6.6.1	win	2023-07-10	09:52:19	09:57:06	279313	60fc1b9a79d5bbbb6712bf8e	3	1	main_slash	7	main_slash	19	stimuli_distractor_trianglediamonds.svg	stimuli_distractor_diamondtriangles.svg	35	no	0	1	2000	0	0			0	0			1				0	
6.6.1	win	2023-07-10	09:52:19	09:57:06	279313	60fc1b9a79d5bbbb6712bf8e	3	1	main_slash	7	advance_on_keypress_SLASH	20	stimuli_distractor_trianglediamonds.svg	stimuli_distractor_diamondtriangles.svg	35	no	57	0	520	0	0			0	0			1				0	
6.6.1	win	2023-07-10	09:52:19	09:57:08	281010	60fc1b9a79d5bbbb6712bf8e	3	1	main_slash	7	main_slash	21	stimuli_target_trianglerectangles.svg	stimuli_distractor_diamondtriangles.svg	21	yes	53	1	527	0	0			0	0			1				0	
6.6.1	win	2023-07-10	09:52:19	09:57:08	281010	60fc1b9a79d5bbbb6712bf8e	3	1	main_slash	7	advance_on_keypress_SLASH	22	stimuli_target_trianglerectangles.svg	stimuli_distractor_diamondtriangles.svg	21	yes	57	0	760	0	0			0	0			1				0	
6.6.1	win	2023-07-10	09:52:19	09:57:10	282725	60fc1b9a79d5bbbb6712bf8e	3	1	main_slash	7	main_slash	23	stimuli_target_rectanglediamonds.svg	stimuli_distractor_trianglediamonds.svg	2	yes	53	1	289	0	0			0	0			1				0	
6.6.1	win	2023-07-10	09:52:19	09:57:10	282725	60fc1b9a79d5bbbb6712bf8e	3	1	main_slash	7	advance_on_keypress_SLASH	24	stimuli_target_rectanglediamonds.svg	stimuli_distractor_trianglediamonds.svg	2	yes	57	0	711	0	0			0	0			1				0	
6.6.1	win	2023-07-10	09:52:19	09:57:13	286088	60fc1b9a79d5bbbb6712bf8e	3	1	main_slash	7	main_slash	25	stimuli_distractor_diamondtriangles.svg	stimuli_distractor_diamondtriangles.svg	39	no	0	1	2000	0	0			0	0			1				0	
6.6.1	win	2023-07-10	09:52:19	09:57:13	286088	60fc1b9a79d5bbbb6712bf8e	3	1	main_slash	7	advance_on_keypress_SLASH	26	stimuli_distractor_diamondtriangles.svg	stimuli_distractor_diamondtriangles.svg	39	no	57	0	473	0	0			0	0			1				0	
6.6.1	win	2023-07-10	09:52:19	09:57:15	287516	60fc1b9a79d5bbbb6712bf8e	3	1	main_slash	7	main_slash	27	stimuli_distractor_trianglediamonds.svg	stimuli_target_diamondsquares.svg	28	yes	53	1	310	0	0			0	0			1				0	
6.6.1	win	2023-07-10	09:52:19	09:57:15	287516	60fc1b9a79d5bbbb6712bf8e	3	1	main_slash	7	advance_on_keypress_SLASH	28	stimuli_distractor_trianglediamonds.svg	stimuli_target_diamondsquares.svg	28	yes	57	0	814	0	0			0	0			1				0	
6.6.1	win	2023-07-10	09:52:19	09:57:17	289674	60fc1b9a79d5bbbb6712bf8e	3	1	main_slash	7	main_slash	29	stimuli_target_diamondrectangles.svg	stimuli_distractor_diamondtriangles.svg	23	yes	53	1	682	0	0			0	0			1				0	
6.6.1	win	2023-07-10	09:52:19	09:57:17	289674	60fc1b9a79d5bbbb6712bf8e	3	1	main_slash	7	advance_on_keypress_SLASH	30	stimuli_target_diamondrectangles.svg	stimuli_distractor_diamondtriangles.svg	23	yes	57	0	641	0	0			0	0			1				0	
6.6.1	win	2023-07-10	09:52:19	09:57:19	291330	60fc1b9a79d5bbbb6712bf8e	3	1	main_slash	7	main_slash	31	stimuli_target_rectangletriangles.svg	stimuli_distractor_trianglediamonds.svg	1	yes	53	1	351	0	0			0	0			1				0	
6.6.1	win	2023-07-10	09:52:19	09:57:19	291330	60fc1b9a79d5bbbb6712bf8e	3	1	main_slash	7	advance_on_keypress_SLASH	32	stimuli_target_rectangletriangles.svg	stimuli_distractor_trianglediamonds.svg	1	yes	57	0	645	0	0			0	0			1				0	
6.6.1	win	2023-07-10	09:52:19	09:57:22	294633	60fc1b9a79d5bbbb6712bf8e	3	1	main_slash	7	main_slash	33	stimuli_distractor_diamondtriangles.svg	stimuli_distractor_trianglediamonds.svg	38	no	0	1	2000	0	0			0	0			1				0	
6.6.1	win	2023-07-10	09:52:19	09:57:22	294633	60fc1b9a79d5bbbb6712bf8e	3	1	main_slash	7	advance_on_keypress_SLASH	34	stimuli_distractor_diamondtriangles.svg	stimuli_distractor_trianglediamonds.svg	38	no	57	0	472	0	0			0	0			1				0	
6.6.1	win	2023-07-10	09:52:19	09:57:23	296115	60fc1b9a79d5bbbb6712bf8e	3	1	main_slash	7	main_slash	35	stimuli_distractor_trianglediamonds.svg	stimuli_target_squaretriangles.svg	11	yes	53	1	332	0	0			0	0			1				0	
6.6.1	win	2023-07-10	09:52:19	09:57:23	296115	60fc1b9a79d5bbbb6712bf8e	3	1	main_slash	7	advance_on_keypress_SLASH	36	stimuli_distractor_trianglediamonds.svg	stimuli_target_squaretriangles.svg	11	yes	57	0	1148	0	0			0	0			1				0	
6.6.1	win	2023-07-10	09:52:19	09:57:27	299918	60fc1b9a79d5bbbb6712bf8e	3	1	main_slash	7	main_slash	37	stimuli_distractor_diamondtriangles.svg	stimuli_target_trianglerectangles.svg	29	yes	0	0	2000	0	0			0	0			1				0	
6.6.1	win	2023-07-10	09:52:19	09:57:27	299918	60fc1b9a79d5bbbb6712bf8e	3	1	main_slash	7	advance_on_keypress_SLASH	38	stimuli_distractor_diamondtriangles.svg	stimuli_target_trianglerectangles.svg	29	yes	57	0	444	0	0			0	0			1				0	
6.6.1	win	2023-07-10	09:52:19	09:57:28	301278	60fc1b9a79d5bbbb6712bf8e	3	1	main_slash	7	main_slash	39	stimuli_target_trianglesquares.svg	stimuli_distractor_trianglediamonds.svg	18	yes	53	1	256	0	0			0	0			1				0	
6.6.1	win	2023-07-10	09:52:19	09:57:28	301278	60fc1b9a79d5bbbb6712bf8e	3	1	main_slash	7	advance_on_keypress_SLASH	40	stimuli_target_trianglesquares.svg	stimuli_distractor_trianglediamonds.svg	18	yes	57	0	1220	0	0			0	0			1				0	
6.6.1	win	2023-07-10	09:52:19	09:57:31	303742	60fc1b9a79d5bbbb6712bf8e	3	1	main_slash	7	main_slash	41	stimuli_target_squarediamonds.svg	stimuli_distractor_trianglediamonds.svg	4	yes	53	1	601	0	0			0	0			1				0	
6.6.1	win	2023-07-10	09:52:19	09:57:31	303742	60fc1b9a79d5bbbb6712bf8e	3	1	main_slash	7	advance_on_keypress_SLASH	42	stimuli_target_squarediamonds.svg	stimuli_distractor_trianglediamonds.svg	4	yes	57	0	1128	0	0			0	0			1				0	
6.6.1	win	2023-07-10	09:52:19	09:57:33	305802	60fc1b9a79d5bbbb6712bf8e	3	1	main_slash	7	main_slash	43	stimuli_distractor_trianglediamonds.svg	stimuli_target_trianglerectangles.svg	25	yes	53	1	276	0	0			0	0			1				0	
6.6.1	win	2023-07-10	09:52:19	09:57:33	305802	60fc1b9a79d5bbbb6712bf8e	3	1	main_slash	7	advance_on_keypress_SLASH	44	stimuli_distractor_trianglediamonds.svg	stimuli_target_trianglerectangles.svg	25	yes	57	0	1475	0	0			0	0			1				0	
6.6.1	win	2023-07-10	09:52:19	09:57:35	308162	60fc1b9a79d5bbbb6712bf8e	3	1	main_slash	7	main_slash	45	stimuli_distractor_diamondtriangles.svg	stimuli_target_squaretriangles.svg	15	yes	53	1	233	0	0			0	0			1				0	
6.6.1	win	2023-07-10	09:52:19	09:57:35	308162	60fc1b9a79d5bbbb6712bf8e	3	1	main_slash	7	advance_on_keypress_SLASH	46	stimuli_distractor_diamondtriangles.svg	stimuli_target_squaretriangles.svg	15	yes	57	0	1031	0	0			0	0			1				0	
6.6.1	win	2023-07-10	09:52:19	09:57:37	310180	60fc1b9a79d5bbbb6712bf8e	3	1	main_slash	7	main_slash	47	stimuli_distractor_trianglediamonds.svg	stimuli_distractor_diamondtriangles.svg	36	no	53	0	332	0	0			0	0			1				0	
6.6.1	win	2023-07-10	09:52:19	09:57:37	310180	60fc1b9a79d5bbbb6712bf8e	3	1	main_slash	7	advance_on_keypress_SLASH	48	stimuli_distractor_trianglediamonds.svg	stimuli_distractor_diamondtriangles.svg	36	no	57	0	950	0	0			0	0			1				0	
6.6.1	win	2023-07-10	09:52:19	09:57:39	312025	60fc1b9a79d5bbbb6712bf8e	3	1	main_slash	7	main_slash	49	stimuli_distractor_diamondtriangles.svg	stimuli_target_diamondrectangles.svg	31	yes	53	1	242	0	0			0	0			1				0	
6.6.1	win	2023-07-10	09:52:19	09:57:39	312025	60fc1b9a79d5bbbb6712bf8e	3	1	main_slash	7	advance_on_keypress_SLASH	50	stimuli_distractor_diamondtriangles.svg	stimuli_target_diamondrectangles.svg	31	yes	57	0	1004	0	0			0	0			1				0	
6.6.1	win	2023-07-10	09:52:19	09:57:43	315685	60fc1b9a79d5bbbb6712bf8e	3	1	main_slash	7	main_slash	51	stimuli_target_trianglerectangles.svg	stimuli_distractor_trianglediamonds.svg	17	yes	0	0	2000	0	0			0	0			1				0	
6.6.1	win	2023-07-10	09:52:19	09:57:43	315685	60fc1b9a79d5bbbb6712bf8e	3	1	main_slash	7	advance_on_keypress_SLASH	52	stimuli_target_trianglerectangles.svg	stimuli_distractor_trianglediamonds.svg	17	yes	57	0	527	0	0			0	0			1				0	
6.6.1	win	2023-07-10	09:52:19	09:57:44	317262	60fc1b9a79d5bbbb6712bf8e	3	1	main_slash	7	main_slash	53	stimuli_target_squarediamonds.svg	stimuli_distractor_diamondtriangles.svg	8	yes	53	1	387	0	0			0	0			1				0	
6.6.1	win	2023-07-10	09:52:19	09:57:44	317262	60fc1b9a79d5bbbb6712bf8e	3	1	main_slash	7	advance_on_keypress_SLASH	54	stimuli_target_squarediamonds.svg	stimuli_distractor_diamondtriangles.svg	8	yes	57	0	637	0	0			0	0			1				0	
6.6.1	win	2023-07-10	09:52:19	09:57:46	319024	60fc1b9a79d5bbbb6712bf8e	3	1	main_slash	7	main_slash	55	stimuli_target_diamondrectangles.svg	stimuli_distractor_trianglediamonds.svg	19	yes	53	1	483	0	0			0	0			1				0	
6.6.1	win	2023-07-10	09:52:19	09:57:46	319024	60fc1b9a79d5bbbb6712bf8e	3	1	main_slash	7	advance_on_keypress_SLASH	56	stimuli_target_diamondrectangles.svg	stimuli_distractor_trianglediamonds.svg	19	yes	57	0	499	0	0			0	0			1				0	
6.6.1	win	2023-07-10	09:52:19	09:57:48	320468	60fc1b9a79d5bbbb6712bf8e	3	1	main_slash	7	main_slash	57	stimuli_distractor_diamondtriangles.svg	stimuli_target_trianglesquares.svg	30	yes	53	1	292	0	0			0	0			1				0	
6.6.1	win	2023-07-10	09:52:19	09:57:48	320468	60fc1b9a79d5bbbb6712bf8e	3	1	main_slash	7	advance_on_keypress_SLASH	58	stimuli_distractor_diamondtriangles.svg	stimuli_target_trianglesquares.svg	30	yes	57	0	507	0	0			0	0			1				0	
6.6.1	win	2023-07-10	09:52:19	09:57:49	321879	60fc1b9a79d5bbbb6712bf8e	3	1	main_slash	7	main_slash	59	stimuli_distractor_diamondtriangles.svg	stimuli_target_rectangletriangles.svg	13	yes	53	1	252	0	0			0	0			1				0	
6.6.1	win	2023-07-10	09:52:19	09:57:49	321879	60fc1b9a79d5bbbb6712bf8e	3	1	main_slash	7	advance_on_keypress_SLASH	60	stimuli_distractor_diamondtriangles.svg	stimuli_target_rectangletriangles.svg	13	yes	57	0	700	0	0			0	0			1				0	
6.6.1	win	2023-07-10	09:52:19	09:57:51	323477	60fc1b9a79d5bbbb6712bf8e	3	1	main_slash	7	main_slash	61	stimuli_distractor_diamondtriangles.svg	stimuli_distractor_trianglediamonds.svg	37	no	53	0	247	0	0			0	0			1				0	
6.6.1	win	2023-07-10	09:52:19	09:57:51	323477	60fc1b9a79d5bbbb6712bf8e	3	1	main_slash	7	advance_on_keypress_SLASH	62	stimuli_distractor_diamondtriangles.svg	stimuli_distractor_trianglediamonds.svg	37	no	57	0	627	0	0			0	0			1				0	
6.6.1	win	2023-07-10	09:52:19	09:57:52	325039	60fc1b9a79d5bbbb6712bf8e	3	1	main_slash	7	main_slash	63	stimuli_distractor_trianglediamonds.svg	stimuli_target_trianglesquares.svg	26	yes	53	1	275	0	0			0	0			1				0	
6.6.1	win	2023-07-10	09:52:19	09:57:52	325039	60fc1b9a79d5bbbb6712bf8e	3	1	main_slash	7	advance_on_keypress_SLASH	64	stimuli_distractor_trianglediamonds.svg	stimuli_target_trianglesquares.svg	26	yes	57	0	576	0	0			0	0			1				0	
6.6.1	win	2023-07-10	09:52:19	09:57:54	327176	60fc1b9a79d5bbbb6712bf8e	3	1	main_slash	7	main_slash	65	stimuli_target_diamondsquares.svg	stimuli_distractor_trianglediamonds.svg	20	yes	53	1	892	0	0			0	0			1				0	
6.6.1	win	2023-07-10	09:52:19	09:57:54	327176	60fc1b9a79d5bbbb6712bf8e	3	1	main_slash	7	advance_on_keypress_SLASH	66	stimuli_target_diamondsquares.svg	stimuli_distractor_trianglediamonds.svg	20	yes	57	0	740	0	0			0	0			1				0	
6.6.1	win	2023-07-10	09:52:19	09:57:56	328847	60fc1b9a79d5bbbb6712bf8e	3	1	main_slash	7	main_slash	67	stimuli_distractor_diamondtriangles.svg	stimuli_target_rectanglediamonds.svg	14	yes	53	1	280	0	0			0	0			1				0	
6.6.1	win	2023-07-10	09:52:19	09:57:56	328847	60fc1b9a79d5bbbb6712bf8e	3	1	main_slash	7	advance_on_keypress_SLASH	68	stimuli_distractor_diamondtriangles.svg	stimuli_target_rectanglediamonds.svg	14	yes	57	0	787	0	0			0	0			1				0	
6.6.1	win	2023-07-10	09:52:19	09:57:58	330508	60fc1b9a79d5bbbb6712bf8e	3	1	main_slash	7	main_slash	69	stimuli_distractor_trianglediamonds.svg	stimuli_target_squarediamonds.svg	12	yes	53	1	221	0	0			0	0			1				0	
6.6.1	win	2023-07-10	09:52:19	09:57:58	330508	60fc1b9a79d5bbbb6712bf8e	3	1	main_slash	7	advance_on_keypress_SLASH	70	stimuli_distractor_trianglediamonds.svg	stimuli_target_squarediamonds.svg	12	yes	57	0	736	0	0			0	0			1				0	
6.6.1	win	2023-07-10	09:52:19	09:57:59	332151	60fc1b9a79d5bbbb6712bf8e	3	1	main_slash	7	main_slash	71	stimuli_target_diamondsquares.svg	stimuli_distractor_diamondtriangles.svg	24	yes	53	1	262	0	0			0	0			1				0	
6.6.1	win	2023-07-10	09:52:19	09:57:59	332151	60fc1b9a79d5bbbb6712bf8e	3	1	main_slash	7	advance_on_keypress_SLASH	72	stimuli_target_diamondsquares.svg	stimuli_distractor_diamondtriangles.svg	24	yes	57	0	638	0	0			0	0			1				0	
6.6.1	win	2023-07-10	09:52:19	09:58:03	335458	60fc1b9a79d5bbbb6712bf8e	3	1	main_slash	7	main_slash	73	stimuli_target_squaretriangles.svg	stimuli_distractor_trianglediamonds.svg	3	yes	0	0	2000	0	0			0	0			1				0	
6.6.1	win	2023-07-10	09:52:19	09:58:03	335458	60fc1b9a79d5bbbb6712bf8e	3	1	main_slash	7	advance_on_keypress_SLASH	74	stimuli_target_squaretriangles.svg	stimuli_distractor_trianglediamonds.svg	3	yes	57	0	511	0	0			0	0			1				0	
6.6.1	win	2023-07-10	09:52:19	09:58:04	336879	60fc1b9a79d5bbbb6712bf8e	3	1	main_slash	7	main_slash	75	stimuli_target_trianglesquares.svg	stimuli_distractor_diamondtriangles.svg	22	yes	53	1	252	0	0			0	0			1				0	
6.6.1	win	2023-07-10	09:52:19	09:58:04	336879	60fc1b9a79d5bbbb6712bf8e	3	1	main_slash	7	advance_on_keypress_SLASH	76	stimuli_target_trianglesquares.svg	stimuli_distractor_diamondtriangles.svg	22	yes	57	0	1094	0	0			0	0			1				0	
6.6.1	win	2023-07-10	09:52:19	09:58:06	339015	60fc1b9a79d5bbbb6712bf8e	3	1	main_slash	7	main_slash	77	stimuli_distractor_trianglediamonds.svg	stimuli_target_diamondrectangles.svg	27	yes	53	1	375	0	0			0	0			1				0	
6.6.1	win	2023-07-10	09:52:19	09:58:06	339015	60fc1b9a79d5bbbb6712bf8e	3	1	main_slash	7	advance_on_keypress_SLASH	78	stimuli_distractor_trianglediamonds.svg	stimuli_target_diamondrectangles.svg	27	yes	57	0	640	0	0			0	0			1				0	
6.6.1	win	2023-07-10	09:52:19	09:58:08	340652	60fc1b9a79d5bbbb6712bf8e	3	1	main_slash	7	main_slash	79	stimuli_target_squaretriangles.svg	stimuli_distractor_diamondtriangles.svg	7	yes	53	1	336	0	0			0	0			1				0	
6.6.1	win	2023-07-10	09:52:19	09:58:08	340652	60fc1b9a79d5bbbb6712bf8e	3	1	main_slash	7	advance_on_keypress_SLASH	80	stimuli_target_squaretriangles.svg	stimuli_distractor_diamondtriangles.svg	7	yes	57	0	671	0	0			0	0			1				0	
6.6.1	win	2023-07-10	09:52:19	09:58:10	342619	60fc1b9a79d5bbbb6712bf8e	3	1	main_slash	7	main_slash	81	stimuli_target_trianglesquares.svg	stimuli_distractor_diamondtriangles.svg	22	yes	53	1	652	0	0			0	0			1				0	
6.6.1	win	2023-07-10	09:52:19	09:58:10	342619	60fc1b9a79d5bbbb6712bf8e	3	1	main_slash	7	advance_on_keypress_SLASH	82	stimuli_target_trianglesquares.svg	stimuli_distractor_diamondtriangles.svg	22	yes	57	0	22798	0	0			0	0			1				0	
6.6.1	win	2023-07-10	09:52:19	09:58:34	366330	60fc1b9a79d5bbbb6712bf8e	3	1	main_slash	7	main_slash	83	stimuli_distractor_trianglediamonds.svg	stimuli_target_squaretriangles.svg	11	yes	53	1	254	0	0			0	0			1				0	
6.6.1	win	2023-07-10	09:52:19	09:58:34	366330	60fc1b9a79d5bbbb6712bf8e	3	1	main_slash	7	advance_on_keypress_SLASH	84	stimuli_distractor_trianglediamonds.svg	stimuli_target_squaretriangles.svg	11	yes	57	0	508	0	0			0	0			1				0	
6.6.1	win	2023-07-10	09:52:19	09:58:35	367786	60fc1b9a79d5bbbb6712bf8e	3	1	main_slash	7	main_slash	85	stimuli_distractor_trianglediamonds.svg	stimuli_target_rectangletriangles.svg	9	yes	53	1	309	0	0			0	0			1				0	
6.6.1	win	2023-07-10	09:52:19	09:58:35	367786	60fc1b9a79d5bbbb6712bf8e	3	1	main_slash	7	advance_on_keypress_SLASH	86	stimuli_distractor_trianglediamonds.svg	stimuli_target_rectangletriangles.svg	9	yes	57	0	635	0	0			0	0			1				0	
6.6.1	win	2023-07-10	09:52:19	09:58:37	369417	60fc1b9a79d5bbbb6712bf8e	3	1	main_slash	7	main_slash	87	stimuli_distractor_trianglediamonds.svg	stimuli_distractor_trianglediamonds.svg	34	no	53	0	333	0	0			0	0			1				0	
6.6.1	win	2023-07-10	09:52:19	09:58:37	369417	60fc1b9a79d5bbbb6712bf8e	3	1	main_slash	7	advance_on_keypress_SLASH	88	stimuli_distractor_trianglediamonds.svg	stimuli_distractor_trianglediamonds.svg	34	no	57	0	420	0	0			0	0			1				0	
6.6.1	win	2023-07-10	09:52:19	09:58:38	370758	60fc1b9a79d5bbbb6712bf8e	3	1	main_slash	7	main_slash	89	stimuli_target_diamondrectangles.svg	stimuli_distractor_trianglediamonds.svg	19	yes	53	1	242	0	0			0	0			1				0	
6.6.1	win	2023-07-10	09:52:19	09:58:38	370758	60fc1b9a79d5bbbb6712bf8e	3	1	main_slash	7	advance_on_keypress_SLASH	90	stimuli_target_diamondrectangles.svg	stimuli_distractor_trianglediamonds.svg	19	yes	57	0	562	0	0			0	0			1				0	
6.6.1	win	2023-07-10	09:52:19	09:58:40	372392	60fc1b9a79d5bbbb6712bf8e	3	1	main_slash	7	main_slash	91	stimuli_target_diamondsquares.svg	stimuli_distractor_diamondtriangles.svg	24	yes	53	1	409	0	0			0	0			1				0	
6.6.1	win	2023-07-10	09:52:19	09:58:40	372392	60fc1b9a79d5bbbb6712bf8e	3	1	main_slash	7	advance_on_keypress_SLASH	92	stimuli_target_diamondsquares.svg	stimuli_distractor_diamondtriangles.svg	24	yes	57	0	515	0	0			0	0			1				0	
6.6.1	win	2023-07-10	09:52:19	09:58:41	373919	60fc1b9a79d5bbbb6712bf8e	3	1	main_slash	7	main_slash	93	stimuli_target_squaretriangles.svg	stimuli_distractor_trianglediamonds.svg	3	yes	53	1	318	0	0			0	0			1				0	
6.6.1	win	2023-07-10	09:52:19	09:58:41	373919	60fc1b9a79d5bbbb6712bf8e	3	1	main_slash	7	advance_on_keypress_SLASH	94	stimuli_target_squaretriangles.svg	stimuli_distractor_trianglediamonds.svg	3	yes	57	0	484	0	0			0	0			1				0	
6.6.1	win	2023-07-10	09:52:19	09:58:43	375381	60fc1b9a79d5bbbb6712bf8e	3	1	main_slash	7	main_slash	95	stimuli_target_trianglerectangles.svg	stimuli_distractor_trianglediamonds.svg	17	yes	53	1	326	0	0			0	0			1				0	
6.6.1	win	2023-07-10	09:52:19	09:58:43	375381	60fc1b9a79d5bbbb6712bf8e	3	1	main_slash	7	advance_on_keypress_SLASH	96	stimuli_target_trianglerectangles.svg	stimuli_distractor_trianglediamonds.svg	17	yes	57	0	406	0	0			0	0			1				0	
6.6.1	win	2023-07-10	09:52:19	09:58:44	376777	60fc1b9a79d5bbbb6712bf8e	3	1	main_slash	7	main_slash	97	stimuli_distractor_diamondtriangles.svg	stimuli_target_rectangletriangles.svg	13	yes	53	1	322	0	0			0	0			1				0	
6.6.1	win	2023-07-10	09:52:19	09:58:44	376777	60fc1b9a79d5bbbb6712bf8e	3	1	main_slash	7	advance_on_keypress_SLASH	98	stimuli_distractor_diamondtriangles.svg	stimuli_target_rectangletriangles.svg	13	yes	57	0	449	0	0			0	0			1				0	
6.6.1	win	2023-07-10	09:52:19	09:58:45	378257	60fc1b9a79d5bbbb6712bf8e	3	1	main_slash	7	main_slash	99	stimuli_distractor_trianglediamonds.svg	stimuli_target_diamondrectangles.svg	27	yes	53	1	379	0	0			0	0			1				0	
6.6.1	win	2023-07-10	09:52:19	09:58:45	378257	60fc1b9a79d5bbbb6712bf8e	3	1	main_slash	7	advance_on_keypress_SLASH	100	stimuli_distractor_trianglediamonds.svg	stimuli_target_diamondrectangles.svg	27	yes	57	0	719	0	0			0	0			1				0	
6.6.1	win	2023-07-10	09:52:19	09:58:47	379907	60fc1b9a79d5bbbb6712bf8e	3	1	main_slash	7	main_slash	101	stimuli_distractor_diamondtriangles.svg	stimuli_target_diamondsquares.svg	32	yes	53	1	266	0	0			0	0			1				0	
6.6.1	win	2023-07-10	09:52:19	09:58:47	379907	60fc1b9a79d5bbbb6712bf8e	3	1	main_slash	7	advance_on_keypress_SLASH	102	stimuli_distractor_diamondtriangles.svg	stimuli_target_diamondsquares.svg	32	yes	57	0	482	0	0			0	0			1				0	
6.6.1	win	2023-07-10	09:52:19	09:58:49	381350	60fc1b9a79d5bbbb6712bf8e	3	1	main_slash	7	main_slash	103	stimuli_distractor_trianglediamonds.svg	stimuli_target_rectanglediamonds.svg	10	yes	53	1	307	0	0			0	0			1				0	
6.6.1	win	2023-07-10	09:52:19	09:58:49	381350	60fc1b9a79d5bbbb6712bf8e	3	1	main_slash	7	advance_on_keypress_SLASH	104	stimuli_distractor_trianglediamonds.svg	stimuli_target_rectanglediamonds.svg	10	yes	57	0	468	0	0			0	0			1				0	
6.6.1	win	2023-07-10	09:52:19	09:58:50	383024	60fc1b9a79d5bbbb6712bf8e	3	1	main_slash	7	main_slash	105	stimuli_distractor_trianglediamonds.svg	stimuli_target_trianglerectangles.svg	25	yes	53	1	545	0	0			0	0			1				0	
6.6.1	win	2023-07-10	09:52:19	09:58:50	383024	60fc1b9a79d5bbbb6712bf8e	3	1	main_slash	7	advance_on_keypress_SLASH	106	stimuli_distractor_trianglediamonds.svg	stimuli_target_trianglerectangles.svg	25	yes	57	0	532	0	0			0	0			1				0	
6.6.1	win	2023-07-10	09:52:19	09:58:53	386213	60fc1b9a79d5bbbb6712bf8e	3	1	main_slash	7	main_slash	107	stimuli_distractor_trianglediamonds.svg	stimuli_distractor_diamondtriangles.svg	35	no	0	1	2000	0	0			0	0			1				0	
6.6.1	win	2023-07-10	09:52:19	09:58:53	386213	60fc1b9a79d5bbbb6712bf8e	3	1	main_slash	7	advance_on_keypress_SLASH	108	stimuli_distractor_trianglediamonds.svg	stimuli_distractor_diamondtriangles.svg	35	no	57	0	517	0	0			0	0			1				0	
6.6.1	win	2023-07-10	09:52:19	09:58:55	387656	60fc1b9a79d5bbbb6712bf8e	3	1	main_slash	7	main_slash	109	stimuli_distractor_diamondtriangles.svg	stimuli_target_squaretriangles.svg	15	yes	53	1	273	0	0			0	0			1				0	
6.6.1	win	2023-07-10	09:52:19	09:58:55	387656	60fc1b9a79d5bbbb6712bf8e	3	1	main_slash	7	advance_on_keypress_SLASH	110	stimuli_distractor_diamondtriangles.svg	stimuli_target_squaretriangles.svg	15	yes	57	0	696	0	0			0	0			1				0	
6.6.1	win	2023-07-10	09:52:19	09:58:57	389519	60fc1b9a79d5bbbb6712bf8e	3	1	main_slash	7	main_slash	111	stimuli_target_diamondsquares.svg	stimuli_distractor_trianglediamonds.svg	20	yes	53	1	506	0	0			0	0			1				0	
6.6.1	win	2023-07-10	09:52:19	09:58:57	389519	60fc1b9a79d5bbbb6712bf8e	3	1	main_slash	7	advance_on_keypress_SLASH	112	stimuli_target_diamondsquares.svg	stimuli_distractor_trianglediamonds.svg	20	yes	57	0	491	0	0			0	0			1				0	
6.6.1	win	2023-07-10	09:52:19	09:58:58	390986	60fc1b9a79d5bbbb6712bf8e	3	1	main_slash	7	main_slash	113	stimuli_target_diamondrectangles.svg	stimuli_distractor_diamondtriangles.svg	23	yes	53	1	316	0	0			0	0			1				0	
6.6.1	win	2023-07-10	09:52:19	09:58:58	390986	60fc1b9a79d5bbbb6712bf8e	3	1	main_slash	7	advance_on_keypress_SLASH	114	stimuli_target_diamondrectangles.svg	stimuli_distractor_diamondtriangles.svg	23	yes	57	0	501	0	0			0	0			1				0	
6.6.1	win	2023-07-10	09:52:19	09:59:00	392681	60fc1b9a79d5bbbb6712bf8e	3	1	main_slash	7	main_slash	115	stimuli_distractor_diamondtriangles.svg	stimuli_distractor_diamondtriangles.svg	39	no	53	0	543	0	0			0	0			1				0	
6.6.1	win	2023-07-10	09:52:19	09:59:00	392681	60fc1b9a79d5bbbb6712bf8e	3	1	main_slash	7	advance_on_keypress_SLASH	116	stimuli_distractor_diamondtriangles.svg	stimuli_distractor_diamondtriangles.svg	39	no	57	0	533	0	0			0	0			1				0	
6.6.1	win	2023-07-10	09:52:19	09:59:01	394188	60fc1b9a79d5bbbb6712bf8e	3	1	main_slash	7	main_slash	117	stimuli_target_rectanglediamonds.svg	stimuli_distractor_trianglediamonds.svg	2	yes	53	1	314	0	0			0	0			1				0	
6.6.1	win	2023-07-10	09:52:19	09:59:01	394188	60fc1b9a79d5bbbb6712bf8e	3	1	main_slash	7	advance_on_keypress_SLASH	118	stimuli_target_rectanglediamonds.svg	stimuli_distractor_trianglediamonds.svg	2	yes	57	0	472	0	0			0	0			1				0	
6.6.1	win	2023-07-10	09:52:19	09:59:03	395827	60fc1b9a79d5bbbb6712bf8e	3	1	main_slash	7	main_slash	119	stimuli_target_rectangletriangles.svg	stimuli_distractor_diamondtriangles.svg	5	yes	53	1	509	0	0			0	0			1				0	
6.6.1	win	2023-07-10	09:52:19	09:59:03	395827	60fc1b9a79d5bbbb6712bf8e	3	1	main_slash	7	advance_on_keypress_SLASH	120	stimuli_target_rectangletriangles.svg	stimuli_distractor_diamondtriangles.svg	5	yes	57	0	564	0	0			0	0			1				0	
6.6.1	win	2023-07-10	09:52:19	09:59:04	397278	60fc1b9a79d5bbbb6712bf8e	3	1	main_slash	7	main_slash	121	stimuli_distractor_diamondtriangles.svg	stimuli_target_squarediamonds.svg	16	yes	53	1	235	0	0			0	0			1				0	
6.6.1	win	2023-07-10	09:52:19	09:59:04	397278	60fc1b9a79d5bbbb6712bf8e	3	1	main_slash	7	advance_on_keypress_SLASH	122	stimuli_distractor_diamondtriangles.svg	stimuli_target_squarediamonds.svg	16	yes	57	0	506	0	0			0	0			1				0	
6.6.1	win	2023-07-10	09:52:19	09:59:08	400429	60fc1b9a79d5bbbb6712bf8e	3	1	main_slash	7	main_slash	123	stimuli_distractor_trianglediamonds.svg	stimuli_distractor_diamondtriangles.svg	36	no	0	1	2000	0	0			0	0			1				0	
6.6.1	win	2023-07-10	09:52:19	09:59:08	400429	60fc1b9a79d5bbbb6712bf8e	3	1	main_slash	7	advance_on_keypress_SLASH	124	stimuli_distractor_trianglediamonds.svg	stimuli_distractor_diamondtriangles.svg	36	no	57	0	603	0	0			0	0			1				0	
6.6.1	win	2023-07-10	09:52:19	09:59:09	401905	60fc1b9a79d5bbbb6712bf8e	3	1	main_slash	7	main_slash	125	stimuli_target_rectangletriangles.svg	stimuli_distractor_trianglediamonds.svg	1	yes	53	1	223	0	0			0	0			1				0	
6.6.1	win	2023-07-10	09:52:19	09:59:09	401905	60fc1b9a79d5bbbb6712bf8e	3	1	main_slash	7	advance_on_keypress_SLASH	126	stimuli_target_rectangletriangles.svg	stimuli_distractor_trianglediamonds.svg	1	yes	57	0	1102	0	0			0	0			1				0	
6.6.1	win	2023-07-10	09:52:19	09:59:11	403918	60fc1b9a79d5bbbb6712bf8e	3	1	main_slash	7	main_slash	127	stimuli_distractor_diamondtriangles.svg	stimuli_distractor_trianglediamonds.svg	38	no	53	0	251	0	0			0	0			1				0	
6.6.1	win	2023-07-10	09:52:19	09:59:11	403918	60fc1b9a79d5bbbb6712bf8e	3	1	main_slash	7	advance_on_keypress_SLASH	128	stimuli_distractor_diamondtriangles.svg	stimuli_distractor_trianglediamonds.svg	38	no	57	0	607	0	0			0	0			1				0	
6.6.1	win	2023-07-10	09:52:19	09:59:13	405514	60fc1b9a79d5bbbb6712bf8e	3	1	main_slash	7	main_slash	129	stimuli_distractor_trianglediamonds.svg	stimuli_target_trianglesquares.svg	26	yes	53	1	329	0	0			0	0			1				0	
6.6.1	win	2023-07-10	09:52:19	09:59:13	405514	60fc1b9a79d5bbbb6712bf8e	3	1	main_slash	7	advance_on_keypress_SLASH	130	stimuli_distractor_trianglediamonds.svg	stimuli_target_trianglesquares.svg	26	yes	57	0	481	0	0			0	0			1				0	
6.6.1	win	2023-07-10	09:52:19	09:59:14	406908	60fc1b9a79d5bbbb6712bf8e	3	1	main_slash	7	main_slash	131	stimuli_distractor_trianglediamonds.svg	stimuli_target_squarediamonds.svg	12	yes	53	1	254	0	0			0	0			1				0	
6.6.1	win	2023-07-10	09:52:19	09:59:14	406908	60fc1b9a79d5bbbb6712bf8e	3	1	main_slash	7	advance_on_keypress_SLASH	132	stimuli_distractor_trianglediamonds.svg	stimuli_target_squarediamonds.svg	12	yes	57	0	490	0	0			0	0			1				0	
6.6.1	win	2023-07-10	09:52:19	09:59:16	408359	60fc1b9a79d5bbbb6712bf8e	3	1	main_slash	7	main_slash	133	stimuli_distractor_diamondtriangles.svg	stimuli_target_trianglerectangles.svg	29	yes	53	1	303	0	0			0	0			1				0	
6.6.1	win	2023-07-10	09:52:19	09:59:16	408359	60fc1b9a79d5bbbb6712bf8e	3	1	main_slash	7	advance_on_keypress_SLASH	134	stimuli_distractor_diamondtriangles.svg	stimuli_target_trianglerectangles.svg	29	yes	57	0	726	0	0			0	0			1				0	
6.6.1	win	2023-07-10	09:52:19	09:59:17	410087	60fc1b9a79d5bbbb6712bf8e	3	1	main_slash	7	main_slash	135	stimuli_distractor_diamondtriangles.svg	stimuli_target_rectanglediamonds.svg	14	yes	53	1	345	0	0			0	0			1				0	
6.6.1	win	2023-07-10	09:52:19	09:59:17	410087	60fc1b9a79d5bbbb6712bf8e	3	1	main_slash	7	advance_on_keypress_SLASH	136	stimuli_distractor_diamondtriangles.svg	stimuli_target_rectanglediamonds.svg	14	yes	57	0	470	0	0			0	0			1				0	
6.6.1	win	2023-07-10	09:52:19	09:59:20	413228	60fc1b9a79d5bbbb6712bf8e	3	1	main_slash	7	main_slash	137	stimuli_distractor_diamondtriangles.svg	stimuli_distractor_trianglediamonds.svg	37	no	0	1	2000	0	0			0	0			1				0	
6.6.1	win	2023-07-10	09:52:19	09:59:20	413228	60fc1b9a79d5bbbb6712bf8e	3	1	main_slash	7	advance_on_keypress_SLASH	138	stimuli_distractor_diamondtriangles.svg	stimuli_distractor_trianglediamonds.svg	37	no	57	0	451	0	0			0	0			1				0	
6.6.1	win	2023-07-10	09:52:19	09:59:22	414600	60fc1b9a79d5bbbb6712bf8e	3	1	main_slash	7	main_slash	139	stimuli_target_trianglerectangles.svg	stimuli_distractor_diamondtriangles.svg	21	yes	53	1	271	0	0			0	0			1				0	
6.6.1	win	2023-07-10	09:52:19	09:59:22	414600	60fc1b9a79d5bbbb6712bf8e	3	1	main_slash	7	advance_on_keypress_SLASH	140	stimuli_target_trianglerectangles.svg	stimuli_distractor_diamondtriangles.svg	21	yes	57	0	504	0	0			0	0			1				0	
6.6.1	win	2023-07-10	09:52:19	09:59:23	416114	60fc1b9a79d5bbbb6712bf8e	3	1	main_slash	7	main_slash	141	stimuli_distractor_trianglediamonds.svg	stimuli_distractor_trianglediamonds.svg	33	no	53	0	350	0	0			0	0			1				0	
6.6.1	win	2023-07-10	09:52:19	09:59:23	416114	60fc1b9a79d5bbbb6712bf8e	3	1	main_slash	7	advance_on_keypress_SLASH	142	stimuli_distractor_trianglediamonds.svg	stimuli_distractor_trianglediamonds.svg	33	no	57	0	448	0	0			0	0			1				0	
6.6.1	win	2023-07-10	09:52:19	09:59:26	419216	60fc1b9a79d5bbbb6712bf8e	3	1	main_slash	7	main_slash	143	stimuli_target_trianglesquares.svg	stimuli_distractor_trianglediamonds.svg	18	yes	0	0	2000	0	0			0	0			1				0	
6.6.1	win	2023-07-10	09:52:19	09:59:26	419216	60fc1b9a79d5bbbb6712bf8e	3	1	main_slash	7	advance_on_keypress_SLASH	144	stimuli_target_trianglesquares.svg	stimuli_distractor_trianglediamonds.svg	18	yes	57	0	472	0	0			0	0			1				0	
6.6.1	win	2023-07-10	09:52:19	09:59:28	420830	60fc1b9a79d5bbbb6712bf8e	3	1	main_slash	7	main_slash	145	stimuli_distractor_diamondtriangles.svg	stimuli_target_diamondrectangles.svg	31	yes	53	1	494	0	0			0	0			1				0	
6.6.1	win	2023-07-10	09:52:19	09:59:28	420830	60fc1b9a79d5bbbb6712bf8e	3	1	main_slash	7	advance_on_keypress_SLASH	146	stimuli_distractor_diamondtriangles.svg	stimuli_target_diamondrectangles.svg	31	yes	57	0	464	0	0			0	0			1				0	
6.6.1	win	2023-07-10	09:52:19	09:59:29	422277	60fc1b9a79d5bbbb6712bf8e	3	1	main_slash	7	main_slash	147	stimuli_target_rectanglediamonds.svg	stimuli_distractor_diamondtriangles.svg	6	yes	53	1	322	0	0			0	0			1				0	
6.6.1	win	2023-07-10	09:52:19	09:59:29	422277	60fc1b9a79d5bbbb6712bf8e	3	1	main_slash	7	advance_on_keypress_SLASH	148	stimuli_target_rectanglediamonds.svg	stimuli_distractor_diamondtriangles.svg	6	yes	57	0	481	0	0			0	0			1				0	
6.6.1	win	2023-07-10	09:52:19	09:59:31	423925	60fc1b9a79d5bbbb6712bf8e	3	1	main_slash	7	main_slash	149	stimuli_distractor_trianglediamonds.svg	stimuli_target_diamondsquares.svg	28	yes	53	1	519	0	0			0	0			1				0	
6.6.1	win	2023-07-10	09:52:19	09:59:31	423925	60fc1b9a79d5bbbb6712bf8e	3	1	main_slash	7	advance_on_keypress_SLASH	150	stimuli_distractor_trianglediamonds.svg	stimuli_target_diamondsquares.svg	28	yes	57	0	451	0	0			0	0			1				0	
6.6.1	win	2023-07-10	09:52:19	09:59:34	427024	60fc1b9a79d5bbbb6712bf8e	3	1	main_slash	7	main_slash	151	stimuli_distractor_diamondtriangles.svg	stimuli_target_trianglesquares.svg	30	yes	0	0	2000	0	0			0	0			1				0	
6.6.1	win	2023-07-10	09:52:19	09:59:34	427024	60fc1b9a79d5bbbb6712bf8e	3	1	main_slash	7	advance_on_keypress_SLASH	152	stimuli_distractor_diamondtriangles.svg	stimuli_target_trianglesquares.svg	30	yes	57	0	528	0	0			0	0			1				0	
6.6.1	win	2023-07-10	09:52:19	09:59:36	428549	60fc1b9a79d5bbbb6712bf8e	3	1	main_slash	7	main_slash	153	stimuli_target_squaretriangles.svg	stimuli_distractor_diamondtriangles.svg	7	yes	53	1	338	0	0			0	0			1				0	
6.6.1	win	2023-07-10	09:52:19	09:59:36	428549	60fc1b9a79d5bbbb6712bf8e	3	1	main_slash	7	advance_on_keypress_SLASH	154	stimuli_target_squaretriangles.svg	stimuli_distractor_diamondtriangles.svg	7	yes	57	0	869	0	0			0	0			1				0	
6.6.1	win	2023-07-10	09:52:19	09:59:39	432063	60fc1b9a79d5bbbb6712bf8e	3	1	main_slash	7	main_slash	155	stimuli_distractor_diamondtriangles.svg	stimuli_distractor_diamondtriangles.svg	40	no	0	1	2000	0	0			0	0			1				0	
6.6.1	win	2023-07-10	09:52:19	09:59:39	432063	60fc1b9a79d5bbbb6712bf8e	3	1	main_slash	7	advance_on_keypress_SLASH	156	stimuli_distractor_diamondtriangles.svg	stimuli_distractor_diamondtriangles.svg	40	no	57	0	481	0	0			0	0			1				0	
6.6.1	win	2023-07-10	09:52:19	09:59:41	433508	60fc1b9a79d5bbbb6712bf8e	3	1	main_slash	7	main_slash	157	stimuli_target_squarediamonds.svg	stimuli_distractor_diamondtriangles.svg	8	yes	53	1	308	0	0			0	0			1				0	
6.6.1	win	2023-07-10	09:52:19	09:59:41	433508	60fc1b9a79d5bbbb6712bf8e	3	1	main_slash	7	advance_on_keypress_SLASH	158	stimuli_target_squarediamonds.svg	stimuli_distractor_diamondtriangles.svg	8	yes	57	0	663	0	0			0	0			1				0	
6.6.1	win	2023-07-10	09:52:19	09:59:42	435164	60fc1b9a79d5bbbb6712bf8e	3	1	main_slash	7	main_slash	159	stimuli_target_squarediamonds.svg	stimuli_distractor_trianglediamonds.svg	4	yes	53	1	330	0	0			0	0			1				0	
6.6.1	win	2023-07-10	09:52:19	09:59:42	435164	60fc1b9a79d5bbbb6712bf8e	3	1	main_slash	7	advance_on_keypress_SLASH	160	stimuli_target_squarediamonds.svg	stimuli_distractor_trianglediamonds.svg	4	yes	57	0	512	0	0			0	0			1				0	
6.6.1	win	2023-07-10	09:52:19	10:00:02	454437	60fc1b9a79d5bbbb6712bf8e	3	1	practice_z	9	practice_z	1	stimuli_target_diamondsquares.svg	stimuli_distractor_diamondtriangles.svg	3	yes	44	1	361	0	0			0	0			1				0	
6.6.1	win	2023-07-10	09:52:19	10:00:02	454437	60fc1b9a79d5bbbb6712bf8e	3	1	practice_z	9	advance_on_keypress_ZEE	2	stimuli_target_diamondsquares.svg	stimuli_distractor_diamondtriangles.svg	3	yes	57	0	493	0	0			0	0			1				0	
6.6.1	win	2023-07-10	09:52:19	10:00:04	456854	60fc1b9a79d5bbbb6712bf8e	3	1	practice_z	9	practice_z	3	stimuli_target_rectanglediamonds.svg	stimuli_distractor_diamondtriangles.svg	1	yes	44	1	257	0	0			0	0			1				0	
6.6.1	win	2023-07-10	09:52:19	10:00:04	456854	60fc1b9a79d5bbbb6712bf8e	3	1	practice_z	9	advance_on_keypress_ZEE	4	stimuli_target_rectanglediamonds.svg	stimuli_distractor_diamondtriangles.svg	1	yes	57	0	522	0	0			0	0			1				0	
6.6.1	win	2023-07-10	09:52:19	10:00:06	459317	60fc1b9a79d5bbbb6712bf8e	3	1	practice_z	9	practice_z	5	stimuli_distractor_trianglediamonds.svg	stimuli_distractor_trianglediamonds.svg	15	no	44	0	266	0	0			0	0			1				0	
6.6.1	win	2023-07-10	09:52:19	10:00:06	459317	60fc1b9a79d5bbbb6712bf8e	3	1	practice_z	9	advance_on_keypress_ZEE	6	stimuli_distractor_trianglediamonds.svg	stimuli_distractor_trianglediamonds.svg	15	no	57	0	378	0	0			0	0			1				0	
6.6.1	win	2023-07-10	09:52:19	10:00:09	461736	60fc1b9a79d5bbbb6712bf8e	3	1	practice_z	9	practice_z	7	stimuli_distractor_diamondtriangles.svg	stimuli_target_rectangletriangles.svg	7	yes	44	1	372	0	0			0	0			1				0	
6.6.1	win	2023-07-10	09:52:19	10:00:09	461736	60fc1b9a79d5bbbb6712bf8e	3	1	practice_z	9	advance_on_keypress_ZEE	8	stimuli_distractor_diamondtriangles.svg	stimuli_target_rectangletriangles.svg	7	yes	57	0	380	0	0			0	0			1				0	
6.6.1	win	2023-07-10	09:52:19	10:00:13	465770	60fc1b9a79d5bbbb6712bf8e	3	1	practice_z	9	practice_z	9	stimuli_target_diamondsquares.svg	stimuli_distractor_trianglediamonds.svg	6	yes	0	0	2000	0	0			0	0			1				0	
6.6.1	win	2023-07-10	09:52:19	10:00:13	465770	60fc1b9a79d5bbbb6712bf8e	3	1	practice_z	9	advance_on_keypress_ZEE	10	stimuli_target_diamondsquares.svg	stimuli_distractor_trianglediamonds.svg	6	yes	57	0	499	0	0			0	0			1				0	
6.6.1	win	2023-07-10	09:52:19	10:00:15	468192	60fc1b9a79d5bbbb6712bf8e	3	1	practice_z	9	practice_z	11	stimuli_target_squarediamonds.svg	stimuli_distractor_trianglediamonds.svg	5	yes	44	1	268	0	0			0	0			1				0	
6.6.1	win	2023-07-10	09:52:19	10:00:15	468192	60fc1b9a79d5bbbb6712bf8e	3	1	practice_z	9	advance_on_keypress_ZEE	12	stimuli_target_squarediamonds.svg	stimuli_distractor_trianglediamonds.svg	5	yes	57	0	486	0	0			0	0			1				0	
6.6.1	win	2023-07-10	09:52:19	10:00:20	472360	60fc1b9a79d5bbbb6712bf8e	3	1	practice_z	9	practice_z	13	stimuli_distractor_trianglediamonds.svg	stimuli_target_diamondrectangles.svg	12	yes	0	0	2000	0	0			0	0			1				0	
6.6.1	win	2023-07-10	09:52:19	10:00:20	472360	60fc1b9a79d5bbbb6712bf8e	3	1	practice_z	9	advance_on_keypress_ZEE	14	stimuli_distractor_trianglediamonds.svg	stimuli_target_diamondrectangles.svg	12	yes	57	0	497	0	0			0	0			1				0	
6.6.1	win	2023-07-10	09:52:19	10:00:22	474748	60fc1b9a79d5bbbb6712bf8e	3	1	practice_z	9	practice_z	15	stimuli_distractor_diamondtriangles.svg	stimuli_target_diamondrectangles.svg	8	yes	44	1	232	0	0			0	0			1				0	
6.6.1	win	2023-07-10	09:52:19	10:00:22	474748	60fc1b9a79d5bbbb6712bf8e	3	1	practice_z	9	advance_on_keypress_ZEE	16	stimuli_distractor_diamondtriangles.svg	stimuli_target_diamondrectangles.svg	8	yes	57	0	418	0	0			0	0			1				0	
6.6.1	win	2023-07-10	09:52:19	10:00:26	478818	60fc1b9a79d5bbbb6712bf8e	3	1	practice_z	9	practice_z	17	stimuli_distractor_diamondtriangles.svg	stimuli_distractor_diamondtriangles.svg	13	no	0	1	2000	0	0			0	0			1				0	
6.6.1	win	2023-07-10	09:52:19	10:00:26	478818	60fc1b9a79d5bbbb6712bf8e	3	1	practice_z	9	advance_on_keypress_ZEE	18	stimuli_distractor_diamondtriangles.svg	stimuli_distractor_diamondtriangles.svg	13	no	57	0	575	0	0			0	0			1				0	
6.6.1	win	2023-07-10	09:52:19	10:00:28	481277	60fc1b9a79d5bbbb6712bf8e	3	1	practice_z	9	practice_z	19	stimuli_target_squarediamonds.svg	stimuli_distractor_diamondtriangles.svg	2	yes	44	1	222	0	0			0	0			1				0	
6.6.1	win	2023-07-10	09:52:19	10:00:28	481277	60fc1b9a79d5bbbb6712bf8e	3	1	practice_z	9	advance_on_keypress_ZEE	20	stimuli_target_squarediamonds.svg	stimuli_distractor_diamondtriangles.svg	2	yes	57	0	382	0	0			0	0			1				0	
6.6.1	win	2023-07-10	09:52:19	10:00:31	483854	60fc1b9a79d5bbbb6712bf8e	3	1	practice_z	9	practice_z	21	stimuli_distractor_trianglediamonds.svg	stimuli_target_squarediamonds.svg	11	yes	44	1	529	0	0			0	0			1				0	
6.6.1	win	2023-07-10	09:52:19	10:00:31	483854	60fc1b9a79d5bbbb6712bf8e	3	1	practice_z	9	advance_on_keypress_ZEE	22	stimuli_distractor_trianglediamonds.svg	stimuli_target_squarediamonds.svg	11	yes	57	0	306	0	0			0	0			1				0	
6.6.1	win	2023-07-10	09:52:19	10:00:33	486302	60fc1b9a79d5bbbb6712bf8e	3	1	practice_z	9	practice_z	23	stimuli_distractor_diamondtriangles.svg	stimuli_distractor_trianglediamonds.svg	14	no	44	0	474	0	0			0	0			1				0	
6.6.1	win	2023-07-10	09:52:19	10:00:33	486302	60fc1b9a79d5bbbb6712bf8e	3	1	practice_z	9	advance_on_keypress_ZEE	24	stimuli_distractor_diamondtriangles.svg	stimuli_distractor_trianglediamonds.svg	14	no	57	0	445	0	0			0	0			1				0	
6.6.1	win	2023-07-10	09:52:19	10:00:36	488752	60fc1b9a79d5bbbb6712bf8e	3	1	practice_z	9	practice_z	25	stimuli_distractor_trianglediamonds.svg	stimuli_target_rectanglediamonds.svg	10	yes	44	1	337	0	0			0	0			1				0	
6.6.1	win	2023-07-10	09:52:19	10:00:36	488752	60fc1b9a79d5bbbb6712bf8e	3	1	practice_z	9	advance_on_keypress_ZEE	26	stimuli_distractor_trianglediamonds.svg	stimuli_target_rectanglediamonds.svg	10	yes	57	0	483	0	0			0	0			1				0	
6.6.1	win	2023-07-10	09:52:19	10:00:38	491269	60fc1b9a79d5bbbb6712bf8e	3	1	practice_z	9	practice_z	27	stimuli_target_rectanglediamonds.svg	stimuli_distractor_trianglediamonds.svg	4	yes	44	1	386	0	0			0	0			1				0	
6.6.1	win	2023-07-10	09:52:19	10:00:38	491269	60fc1b9a79d5bbbb6712bf8e	3	1	practice_z	9	advance_on_keypress_ZEE	28	stimuli_target_rectanglediamonds.svg	stimuli_distractor_trianglediamonds.svg	4	yes	57	0	489	0	0			0	0			1				0	
6.6.1	win	2023-07-10	09:52:19	10:00:41	493675	60fc1b9a79d5bbbb6712bf8e	3	1	practice_z	9	practice_z	29	stimuli_distractor_diamondtriangles.svg	stimuli_target_trianglerectangles.svg	9	yes	44	1	256	0	0			0	0			1				0	
6.6.1	win	2023-07-10	09:52:19	10:00:41	493675	60fc1b9a79d5bbbb6712bf8e	3	1	practice_z	9	advance_on_keypress_ZEE	30	stimuli_distractor_diamondtriangles.svg	stimuli_target_trianglerectangles.svg	9	yes	57	0	352	0	0			0	0			1				0	
6.6.1	win	2023-07-10	09:52:19	10:00:43	495977	60fc1b9a79d5bbbb6712bf8e	3	1	practice_z	9	practice_z	31	stimuli_distractor_trianglediamonds.svg	stimuli_distractor_diamondtriangles.svg	16	no	44	0	272	0	0			0	0			1				0	
6.6.1	win	2023-07-10	09:52:19	10:00:43	495977	60fc1b9a79d5bbbb6712bf8e	3	1	practice_z	9	advance_on_keypress_ZEE	32	stimuli_distractor_trianglediamonds.svg	stimuli_distractor_diamondtriangles.svg	16	no	57	0	265	0	0			0	0			1				0	
6.6.1	win	2023-07-10	09:52:19	10:00:51	503992	60fc1b9a79d5bbbb6712bf8e	3	1	main_z	11	main_z	1	stimuli_distractor_diamondtriangles.svg	stimuli_target_trianglesquares.svg	30	yes	44	1	630	0	0			0	0			1				0	
6.6.1	win	2023-07-10	09:52:19	10:00:51	503992	60fc1b9a79d5bbbb6712bf8e	3	1	main_z	11	advance_on_keypress_ZEE	2	stimuli_distractor_diamondtriangles.svg	stimuli_target_trianglesquares.svg	30	yes	57	0	1232	0	0			0	0			1				0	
6.6.1	win	2023-07-10	09:52:19	10:00:53	506147	60fc1b9a79d5bbbb6712bf8e	3	1	main_z	11	main_z	3	stimuli_distractor_trianglediamonds.svg	stimuli_target_diamondrectangles.svg	27	yes	44	1	267	0	0			0	0			1				0	
6.6.1	win	2023-07-10	09:52:19	10:00:53	506147	60fc1b9a79d5bbbb6712bf8e	3	1	main_z	11	advance_on_keypress_ZEE	4	stimuli_distractor_trianglediamonds.svg	stimuli_target_diamondrectangles.svg	27	yes	57	0	1249	0	0			0	0			1				0	
6.6.1	win	2023-07-10	09:52:19	10:00:55	508313	60fc1b9a79d5bbbb6712bf8e	3	1	main_z	11	main_z	5	stimuli_distractor_trianglediamonds.svg	stimuli_distractor_diamondtriangles.svg	36	no	44	0	264	0	0			0	0			1				0	
6.6.1	win	2023-07-10	09:52:19	10:00:55	508313	60fc1b9a79d5bbbb6712bf8e	3	1	main_z	11	advance_on_keypress_ZEE	6	stimuli_distractor_trianglediamonds.svg	stimuli_distractor_diamondtriangles.svg	36	no	57	0	762	0	0			0	0			1				0	
6.6.1	win	2023-07-10	09:52:19	10:00:57	510005	60fc1b9a79d5bbbb6712bf8e	3	1	main_z	11	main_z	7	stimuli_distractor_trianglediamonds.svg	stimuli_target_rectangletriangles.svg	9	yes	44	1	270	0	0			0	0			1				0	
6.6.1	win	2023-07-10	09:52:19	10:00:57	510005	60fc1b9a79d5bbbb6712bf8e	3	1	main_z	11	advance_on_keypress_ZEE	8	stimuli_distractor_trianglediamonds.svg	stimuli_target_rectangletriangles.svg	9	yes	57	0	1052	0	0			0	0			1				0	
6.6.1	win	2023-07-10	09:52:19	10:00:59	512244	60fc1b9a79d5bbbb6712bf8e	3	1	main_z	11	main_z	9	stimuli_distractor_diamondtriangles.svg	stimuli_target_diamondrectangles.svg	31	yes	44	1	541	0	0			0	0			1				0	
6.6.1	win	2023-07-10	09:52:19	10:00:59	512244	60fc1b9a79d5bbbb6712bf8e	3	1	main_z	11	advance_on_keypress_ZEE	10	stimuli_distractor_diamondtriangles.svg	stimuli_target_diamondrectangles.svg	31	yes	57	0	570	0	0			0	0			1				0	
6.6.1	win	2023-07-10	09:52:19	10:01:03	515455	60fc1b9a79d5bbbb6712bf8e	3	1	main_z	11	main_z	11	stimuli_distractor_trianglediamonds.svg	stimuli_distractor_trianglediamonds.svg	34	no	0	1	2000	0	0			0	0			1				0	
6.6.1	win	2023-07-10	09:52:19	10:01:03	515455	60fc1b9a79d5bbbb6712bf8e	3	1	main_z	11	advance_on_keypress_ZEE	12	stimuli_distractor_trianglediamonds.svg	stimuli_distractor_trianglediamonds.svg	34	no	57	0	433	0	0			0	0			1				0	
6.6.1	win	2023-07-10	09:52:19	10:01:04	516810	60fc1b9a79d5bbbb6712bf8e	3	1	main_z	11	main_z	13	stimuli_target_trianglerectangles.svg	stimuli_distractor_trianglediamonds.svg	17	yes	44	1	268	0	0			0	0			1				0	
6.6.1	win	2023-07-10	09:52:19	10:01:04	516810	60fc1b9a79d5bbbb6712bf8e	3	1	main_z	11	advance_on_keypress_ZEE	14	stimuli_target_trianglerectangles.svg	stimuli_distractor_trianglediamonds.svg	17	yes	57	0	775	0	0			0	0			1				0	
6.6.1	win	2023-07-10	09:52:19	10:01:06	518762	60fc1b9a79d5bbbb6712bf8e	3	1	main_z	11	main_z	15	stimuli_target_diamondsquares.svg	stimuli_distractor_diamondtriangles.svg	24	yes	44	1	515	0	0			0	0			1				0	
6.6.1	win	2023-07-10	09:52:19	10:01:06	518762	60fc1b9a79d5bbbb6712bf8e	3	1	main_z	11	advance_on_keypress_ZEE	16	stimuli_target_diamondsquares.svg	stimuli_distractor_diamondtriangles.svg	24	yes	57	0	577	0	0			0	0			1				0	
6.6.1	win	2023-07-10	09:52:19	10:01:07	520281	60fc1b9a79d5bbbb6712bf8e	3	1	main_z	11	main_z	17	stimuli_distractor_trianglediamonds.svg	stimuli_target_trianglerectangles.svg	25	yes	44	1	285	0	0			0	0			1				0	
6.6.1	win	2023-07-10	09:52:19	10:01:07	520281	60fc1b9a79d5bbbb6712bf8e	3	1	main_z	11	advance_on_keypress_ZEE	18	stimuli_distractor_trianglediamonds.svg	stimuli_target_trianglerectangles.svg	25	yes	57	0	627	0	0			0	0			1				0	
6.6.1	win	2023-07-10	09:52:19	10:01:09	521913	60fc1b9a79d5bbbb6712bf8e	3	1	main_z	11	main_z	19	stimuli_distractor_diamondtriangles.svg	stimuli_target_rectangletriangles.svg	13	yes	44	1	348	0	0			0	0			1				0	
6.6.1	win	2023-07-10	09:52:19	10:01:09	521913	60fc1b9a79d5bbbb6712bf8e	3	1	main_z	11	advance_on_keypress_ZEE	20	stimuli_distractor_diamondtriangles.svg	stimuli_target_rectangletriangles.svg	13	yes	57	0	573	0	0			0	0			1				0	
6.6.1	win	2023-07-10	09:52:19	10:01:11	523775	60fc1b9a79d5bbbb6712bf8e	3	1	main_z	11	main_z	21	stimuli_target_rectangletriangles.svg	stimuli_distractor_diamondtriangles.svg	5	yes	44	1	643	0	0			0	0			1				0	
6.6.1	win	2023-07-10	09:52:19	10:01:11	523775	60fc1b9a79d5bbbb6712bf8e	3	1	main_z	11	advance_on_keypress_ZEE	22	stimuli_target_rectangletriangles.svg	stimuli_distractor_diamondtriangles.svg	5	yes	57	0	493	0	0			0	0			1				0	
6.6.1	win	2023-07-10	09:52:19	10:01:13	525722	60fc1b9a79d5bbbb6712bf8e	3	1	main_z	11	main_z	23	stimuli_target_squaretriangles.svg	stimuli_distractor_trianglediamonds.svg	3	yes	44	1	788	0	0			0	0			1				0	
6.6.1	win	2023-07-10	09:52:19	10:01:13	525722	60fc1b9a79d5bbbb6712bf8e	3	1	main_z	11	advance_on_keypress_ZEE	24	stimuli_target_squaretriangles.svg	stimuli_distractor_trianglediamonds.svg	3	yes	57	0	556	0	0			0	0			1				0	
6.6.1	win	2023-07-10	09:52:19	10:01:16	528920	60fc1b9a79d5bbbb6712bf8e	3	1	main_z	11	main_z	25	stimuli_distractor_diamondtriangles.svg	stimuli_distractor_diamondtriangles.svg	39	no	0	1	2000	0	0			0	0			1				0	
6.6.1	win	2023-07-10	09:52:19	10:01:16	528920	60fc1b9a79d5bbbb6712bf8e	3	1	main_z	11	advance_on_keypress_ZEE	26	stimuli_distractor_diamondtriangles.svg	stimuli_distractor_diamondtriangles.svg	39	no	57	0	510	0	0			0	0			1				0	
6.6.1	win	2023-07-10	09:52:19	10:01:19	532090	60fc1b9a79d5bbbb6712bf8e	3	1	main_z	11	main_z	27	stimuli_distractor_trianglediamonds.svg	stimuli_target_squaretriangles.svg	11	yes	0	0	2000	0	0			0	0			1				0	
6.6.1	win	2023-07-10	09:52:19	10:01:19	532090	60fc1b9a79d5bbbb6712bf8e	3	1	main_z	11	advance_on_keypress_ZEE	28	stimuli_distractor_trianglediamonds.svg	stimuli_target_squaretriangles.svg	11	yes	57	0	1229	0	0			0	0			1				0	
6.6.1	win	2023-07-10	09:52:19	10:01:21	534254	60fc1b9a79d5bbbb6712bf8e	3	1	main_z	11	main_z	29	stimuli_distractor_diamondtriangles.svg	stimuli_target_squarediamonds.svg	16	yes	44	1	276	0	0			0	0			1				0	
6.6.1	win	2023-07-10	09:52:19	10:01:21	534254	60fc1b9a79d5bbbb6712bf8e	3	1	main_z	11	advance_on_keypress_ZEE	30	stimuli_distractor_diamondtriangles.svg	stimuli_target_squarediamonds.svg	16	yes	57	0	617	0	0			0	0			1				0	
6.6.1	win	2023-07-10	09:52:19	10:01:23	535840	60fc1b9a79d5bbbb6712bf8e	3	1	main_z	11	main_z	31	stimuli_distractor_diamondtriangles.svg	stimuli_target_rectanglediamonds.svg	14	yes	44	1	311	0	0			0	0			1				0	
6.6.1	win	2023-07-10	09:52:19	10:01:23	535840	60fc1b9a79d5bbbb6712bf8e	3	1	main_z	11	advance_on_keypress_ZEE	32	stimuli_distractor_diamondtriangles.svg	stimuli_target_rectanglediamonds.svg	14	yes	57	0	573	0	0			0	0			1				0	
6.6.1	win	2023-07-10	09:52:19	10:01:24	537332	60fc1b9a79d5bbbb6712bf8e	3	1	main_z	11	main_z	33	stimuli_target_squarediamonds.svg	stimuli_distractor_diamondtriangles.svg	8	yes	44	1	268	0	0			0	0			1				0	
6.6.1	win	2023-07-10	09:52:19	10:01:24	537332	60fc1b9a79d5bbbb6712bf8e	3	1	main_z	11	advance_on_keypress_ZEE	34	stimuli_target_squarediamonds.svg	stimuli_distractor_diamondtriangles.svg	8	yes	57	0	619	0	0			0	0			1				0	
6.6.1	win	2023-07-10	09:52:19	10:01:26	538846	60fc1b9a79d5bbbb6712bf8e	3	1	main_z	11	main_z	35	stimuli_target_rectanglediamonds.svg	stimuli_distractor_trianglediamonds.svg	2	yes	44	1	246	0	0			0	0			1				0	
6.6.1	win	2023-07-10	09:52:19	10:01:26	538846	60fc1b9a79d5bbbb6712bf8e	3	1	main_z	11	advance_on_keypress_ZEE	36	stimuli_target_rectanglediamonds.svg	stimuli_distractor_trianglediamonds.svg	2	yes	57	0	554	0	0			0	0			1				0	
6.6.1	win	2023-07-10	09:52:19	10:01:27	540307	60fc1b9a79d5bbbb6712bf8e	3	1	main_z	11	main_z	37	stimuli_target_diamondrectangles.svg	stimuli_distractor_diamondtriangles.svg	23	yes	44	1	256	0	0			0	0			1				0	
6.6.1	win	2023-07-10	09:52:19	10:01:27	540307	60fc1b9a79d5bbbb6712bf8e	3	1	main_z	11	advance_on_keypress_ZEE	38	stimuli_target_diamondrectangles.svg	stimuli_distractor_diamondtriangles.svg	23	yes	57	0	731	0	0			0	0			1				0	
6.6.1	win	2023-07-10	09:52:19	10:01:29	542045	60fc1b9a79d5bbbb6712bf8e	3	1	main_z	11	main_z	39	stimuli_distractor_trianglediamonds.svg	stimuli_target_squarediamonds.svg	12	yes	44	1	359	0	0			0	0			1				0	
6.6.1	win	2023-07-10	09:52:19	10:01:29	542045	60fc1b9a79d5bbbb6712bf8e	3	1	main_z	11	advance_on_keypress_ZEE	40	stimuli_distractor_trianglediamonds.svg	stimuli_target_squarediamonds.svg	12	yes	57	0	506	0	0			0	0			1				0	
6.6.1	win	2023-07-10	09:52:19	10:01:31	543560	60fc1b9a79d5bbbb6712bf8e	3	1	main_z	11	main_z	41	stimuli_distractor_trianglediamonds.svg	stimuli_distractor_trianglediamonds.svg	33	no	44	0	356	0	0			0	0			1				0	
6.6.1	win	2023-07-10	09:52:19	10:01:31	543560	60fc1b9a79d5bbbb6712bf8e	3	1	main_z	11	advance_on_keypress_ZEE	42	stimuli_distractor_trianglediamonds.svg	stimuli_distractor_trianglediamonds.svg	33	no	57	0	458	0	0			0	0			1				0	
6.6.1	win	2023-07-10	09:52:19	10:01:32	544935	60fc1b9a79d5bbbb6712bf8e	3	1	main_z	11	main_z	43	stimuli_target_rectangletriangles.svg	stimuli_distractor_trianglediamonds.svg	1	yes	44	1	261	0	0			0	0			1				0	
6.6.1	win	2023-07-10	09:52:19	10:01:32	544935	60fc1b9a79d5bbbb6712bf8e	3	1	main_z	11	advance_on_keypress_ZEE	44	stimuli_target_rectangletriangles.svg	stimuli_distractor_trianglediamonds.svg	1	yes	57	0	478	0	0			0	0			1				0	
6.6.1	win	2023-07-10	09:52:19	10:01:34	546837	60fc1b9a79d5bbbb6712bf8e	3	1	main_z	11	main_z	45	stimuli_target_diamondsquares.svg	stimuli_distractor_trianglediamonds.svg	20	yes	44	1	763	0	0			0	0			1				0	
6.6.1	win	2023-07-10	09:52:19	10:01:34	546837	60fc1b9a79d5bbbb6712bf8e	3	1	main_z	11	advance_on_keypress_ZEE	46	stimuli_target_diamondsquares.svg	stimuli_distractor_trianglediamonds.svg	20	yes	57	0	459	0	0			0	0			1				0	
6.6.1	win	2023-07-10	09:52:19	10:01:35	548214	60fc1b9a79d5bbbb6712bf8e	3	1	main_z	11	main_z	47	stimuli_target_trianglesquares.svg	stimuli_distractor_trianglediamonds.svg	18	yes	44	1	254	0	0			0	0			1				0	
6.6.1	win	2023-07-10	09:52:19	10:01:35	548214	60fc1b9a79d5bbbb6712bf8e	3	1	main_z	11	advance_on_keypress_ZEE	48	stimuli_target_trianglesquares.svg	stimuli_distractor_trianglediamonds.svg	18	yes	57	0	603	0	0			0	0			1				0	
6.6.1	win	2023-07-10	09:52:19	10:01:37	549954	60fc1b9a79d5bbbb6712bf8e	3	1	main_z	11	main_z	49	stimuli_target_rectanglediamonds.svg	stimuli_distractor_diamondtriangles.svg	6	yes	44	1	493	0	0			0	0			1				0	
6.6.1	win	2023-07-10	09:52:19	10:01:37	549954	60fc1b9a79d5bbbb6712bf8e	3	1	main_z	11	advance_on_keypress_ZEE	50	stimuli_target_rectanglediamonds.svg	stimuli_distractor_diamondtriangles.svg	6	yes	57	0	508	0	0			0	0			1				0	
6.6.1	win	2023-07-10	09:52:19	10:01:39	551424	60fc1b9a79d5bbbb6712bf8e	3	1	main_z	11	main_z	51	stimuli_target_squaretriangles.svg	stimuli_distractor_diamondtriangles.svg	7	yes	44	1	311	0	0			0	0			1				0	
6.6.1	win	2023-07-10	09:52:19	10:01:39	551424	60fc1b9a79d5bbbb6712bf8e	3	1	main_z	11	advance_on_keypress_ZEE	52	stimuli_target_squaretriangles.svg	stimuli_distractor_diamondtriangles.svg	7	yes	57	0	480	0	0			0	0			1				0	
6.6.1	win	2023-07-10	09:52:19	10:01:40	552925	60fc1b9a79d5bbbb6712bf8e	3	1	main_z	11	main_z	53	stimuli_distractor_trianglediamonds.svg	stimuli_target_trianglesquares.svg	26	yes	44	1	360	0	0			0	0			1				0	
6.6.1	win	2023-07-10	09:52:19	10:01:40	552925	60fc1b9a79d5bbbb6712bf8e	3	1	main_z	11	advance_on_keypress_ZEE	54	stimuli_distractor_trianglediamonds.svg	stimuli_target_trianglesquares.svg	26	yes	57	0	428	0	0			0	0			1				0	
6.6.1	win	2023-07-10	09:52:19	10:01:42	554485	60fc1b9a79d5bbbb6712bf8e	3	1	main_z	11	main_z	55	stimuli_distractor_trianglediamonds.svg	stimuli_target_diamondsquares.svg	28	yes	44	1	469	0	0			0	0			1				0	
6.6.1	win	2023-07-10	09:52:19	10:01:42	554485	60fc1b9a79d5bbbb6712bf8e	3	1	main_z	11	advance_on_keypress_ZEE	56	stimuli_distractor_trianglediamonds.svg	stimuli_target_diamondsquares.svg	28	yes	57	0	448	0	0			0	0			1				0	
6.6.1	win	2023-07-10	09:52:19	10:01:43	555917	60fc1b9a79d5bbbb6712bf8e	3	1	main_z	11	main_z	57	stimuli_target_diamondrectangles.svg	stimuli_distractor_trianglediamonds.svg	19	yes	44	1	332	0	0			0	0			1				0	
6.6.1	win	2023-07-10	09:52:19	10:01:43	555917	60fc1b9a79d5bbbb6712bf8e	3	1	main_z	11	advance_on_keypress_ZEE	58	stimuli_target_diamondrectangles.svg	stimuli_distractor_trianglediamonds.svg	19	yes	57	0	473	0	0			0	0			1				0	
6.6.1	win	2023-07-10	09:52:19	10:01:46	559037	60fc1b9a79d5bbbb6712bf8e	3	1	main_z	11	main_z	59	stimuli_distractor_diamondtriangles.svg	stimuli_distractor_trianglediamonds.svg	37	no	0	1	2000	0	0			0	0			1				0	
6.6.1	win	2023-07-10	09:52:19	10:01:46	559037	60fc1b9a79d5bbbb6712bf8e	3	1	main_z	11	advance_on_keypress_ZEE	60	stimuli_distractor_diamondtriangles.svg	stimuli_distractor_trianglediamonds.svg	37	no	57	0	469	0	0			0	0			1				0	
6.6.1	win	2023-07-10	09:52:19	10:01:48	560397	60fc1b9a79d5bbbb6712bf8e	3	1	main_z	11	main_z	61	stimuli_distractor_diamondtriangles.svg	stimuli_target_diamondsquares.svg	32	yes	44	1	240	0	0			0	0			1				0	
6.6.1	win	2023-07-10	09:52:19	10:01:48	560397	60fc1b9a79d5bbbb6712bf8e	3	1	main_z	11	advance_on_keypress_ZEE	62	stimuli_distractor_diamondtriangles.svg	stimuli_target_diamondsquares.svg	32	yes	57	0	713	0	0			0	0			1				0	
6.6.1	win	2023-07-10	09:52:19	10:01:49	561998	60fc1b9a79d5bbbb6712bf8e	3	1	main_z	11	main_z	63	stimuli_distractor_trianglediamonds.svg	stimuli_distractor_diamondtriangles.svg	35	no	44	0	240	0	0			0	0			1				0	
6.6.1	win	2023-07-10	09:52:19	10:01:49	561998	60fc1b9a79d5bbbb6712bf8e	3	1	main_z	11	advance_on_keypress_ZEE	64	stimuli_distractor_trianglediamonds.svg	stimuli_distractor_diamondtriangles.svg	35	no	57	0	888	0	0			0	0			1				0	
6.6.1	win	2023-07-10	09:52:19	10:01:51	563815	60fc1b9a79d5bbbb6712bf8e	3	1	main_z	11	main_z	65	stimuli_target_trianglesquares.svg	stimuli_distractor_diamondtriangles.svg	22	yes	44	1	287	0	0			0	0			1				0	
6.6.1	win	2023-07-10	09:52:19	10:01:51	563815	60fc1b9a79d5bbbb6712bf8e	3	1	main_z	11	advance_on_keypress_ZEE	66	stimuli_target_trianglesquares.svg	stimuli_distractor_diamondtriangles.svg	22	yes	57	0	672	0	0			0	0			1				0	
6.6.1	win	2023-07-10	09:52:19	10:01:53	565443	60fc1b9a79d5bbbb6712bf8e	3	1	main_z	11	main_z	67	stimuli_target_trianglerectangles.svg	stimuli_distractor_diamondtriangles.svg	21	yes	44	1	298	0	0			0	0			1				0	
6.6.1	win	2023-07-10	09:52:19	10:01:53	565443	60fc1b9a79d5bbbb6712bf8e	3	1	main_z	11	advance_on_keypress_ZEE	68	stimuli_target_trianglerectangles.svg	stimuli_distractor_diamondtriangles.svg	21	yes	57	0	729	0	0			0	0			1				0	
6.6.1	win	2023-07-10	09:52:19	10:01:54	567234	60fc1b9a79d5bbbb6712bf8e	3	1	main_z	11	main_z	69	stimuli_distractor_diamondtriangles.svg	stimuli_target_trianglerectangles.svg	29	yes	44	1	403	0	0			0	0			1				0	
6.6.1	win	2023-07-10	09:52:19	10:01:54	567234	60fc1b9a79d5bbbb6712bf8e	3	1	main_z	11	advance_on_keypress_ZEE	70	stimuli_distractor_diamondtriangles.svg	stimuli_target_trianglerectangles.svg	29	yes	57	0	548	0	0			0	0			1				0	
6.6.1	win	2023-07-10	09:52:19	10:01:56	568722	60fc1b9a79d5bbbb6712bf8e	3	1	main_z	11	main_z	71	stimuli_distractor_diamondtriangles.svg	stimuli_distractor_diamondtriangles.svg	40	no	44	0	284	0	0			0	0			1				0	
6.6.1	win	2023-07-10	09:52:19	10:01:56	568722	60fc1b9a79d5bbbb6712bf8e	3	1	main_z	11	advance_on_keypress_ZEE	72	stimuli_distractor_diamondtriangles.svg	stimuli_distractor_diamondtriangles.svg	40	no	57	0	631	0	0			0	0			1				0	
6.6.1	win	2023-07-10	09:52:19	10:01:59	572001	60fc1b9a79d5bbbb6712bf8e	3	1	main_z	11	main_z	73	stimuli_distractor_diamondtriangles.svg	stimuli_distractor_trianglediamonds.svg	38	no	0	1	2000	0	0			0	0			1				0	
6.6.1	win	2023-07-10	09:52:19	10:01:59	572001	60fc1b9a79d5bbbb6712bf8e	3	1	main_z	11	advance_on_keypress_ZEE	74	stimuli_distractor_diamondtriangles.svg	stimuli_distractor_trianglediamonds.svg	38	no	57	0	504	0	0			0	0			1				0	
6.6.1	win	2023-07-10	09:52:19	10:02:01	573530	60fc1b9a79d5bbbb6712bf8e	3	1	main_z	11	main_z	75	stimuli_distractor_diamondtriangles.svg	stimuli_target_squaretriangles.svg	15	yes	44	1	326	0	0			0	0			1				0	
6.6.1	win	2023-07-10	09:52:19	10:02:01	573530	60fc1b9a79d5bbbb6712bf8e	3	1	main_z	11	advance_on_keypress_ZEE	76	stimuli_distractor_diamondtriangles.svg	stimuli_target_squaretriangles.svg	15	yes	57	0	693	0	0			0	0			1				0	
6.6.1	win	2023-07-10	09:52:19	10:02:02	575127	60fc1b9a79d5bbbb6712bf8e	3	1	main_z	11	main_z	77	stimuli_distractor_trianglediamonds.svg	stimuli_target_rectanglediamonds.svg	10	yes	44	1	237	0	0			0	0			1				0	
6.6.1	win	2023-07-10	09:52:19	10:02:02	575127	60fc1b9a79d5bbbb6712bf8e	3	1	main_z	11	advance_on_keypress_ZEE	78	stimuli_distractor_trianglediamonds.svg	stimuli_target_rectanglediamonds.svg	10	yes	57	0	557	0	0			0	0			1				0	
6.6.1	win	2023-07-10	09:52:19	10:02:04	576569	60fc1b9a79d5bbbb6712bf8e	3	1	main_z	11	main_z	79	stimuli_target_squarediamonds.svg	stimuli_distractor_trianglediamonds.svg	4	yes	44	1	245	0	0			0	0			1				0	
6.6.1	win	2023-07-10	09:52:19	10:02:04	576569	60fc1b9a79d5bbbb6712bf8e	3	1	main_z	11	advance_on_keypress_ZEE	80	stimuli_target_squarediamonds.svg	stimuli_distractor_trianglediamonds.svg	4	yes	57	0	518	0	0			0	0			1				0	
6.6.1	win	2023-07-10	09:52:19	10:02:05	578003	60fc1b9a79d5bbbb6712bf8e	3	1	main_z	11	main_z	81	stimuli_distractor_diamondtriangles.svg	stimuli_target_squaretriangles.svg	15	yes	44	1	260	0	0			0	0			1				0	
6.6.1	win	2023-07-10	09:52:19	10:02:05	578003	60fc1b9a79d5bbbb6712bf8e	3	1	main_z	11	advance_on_keypress_ZEE	82	stimuli_distractor_diamondtriangles.svg	stimuli_target_squaretriangles.svg	15	yes	57	0	478	0	0			0	0			1				0	
6.6.1	win	2023-07-10	09:52:19	10:02:07	579469	60fc1b9a79d5bbbb6712bf8e	3	1	main_z	11	main_z	83	stimuli_target_rectanglediamonds.svg	stimuli_distractor_diamondtriangles.svg	6	yes	44	1	325	0	0			0	0			1				0	
6.6.1	win	2023-07-10	09:52:19	10:02:07	579469	60fc1b9a79d5bbbb6712bf8e	3	1	main_z	11	advance_on_keypress_ZEE	84	stimuli_target_rectanglediamonds.svg	stimuli_distractor_diamondtriangles.svg	6	yes	57	0	452	0	0			0	0			1				0	
6.6.1	win	2023-07-10	09:52:19	10:02:08	580847	60fc1b9a79d5bbbb6712bf8e	3	1	main_z	11	main_z	85	stimuli_distractor_trianglediamonds.svg	stimuli_target_squaretriangles.svg	11	yes	44	1	268	0	0			0	0			1				0	
6.6.1	win	2023-07-10	09:52:19	10:02:08	580847	60fc1b9a79d5bbbb6712bf8e	3	1	main_z	11	advance_on_keypress_ZEE	86	stimuli_distractor_trianglediamonds.svg	stimuli_target_squaretriangles.svg	11	yes	57	0	477	0	0			0	0			1				0	
6.6.1	win	2023-07-10	09:52:19	10:02:09	582319	60fc1b9a79d5bbbb6712bf8e	3	1	main_z	11	main_z	87	stimuli_distractor_diamondtriangles.svg	stimuli_target_rectangletriangles.svg	13	yes	44	1	339	0	0			0	0			1				0	
6.6.1	win	2023-07-10	09:52:19	10:02:09	582319	60fc1b9a79d5bbbb6712bf8e	3	1	main_z	11	advance_on_keypress_ZEE	88	stimuli_distractor_diamondtriangles.svg	stimuli_target_rectangletriangles.svg	13	yes	57	0	555	0	0			0	0			1				0	
6.6.1	win	2023-07-10	09:52:19	10:02:11	583808	60fc1b9a79d5bbbb6712bf8e	3	1	main_z	11	main_z	89	stimuli_target_trianglesquares.svg	stimuli_distractor_diamondtriangles.svg	22	yes	44	1	276	0	0			0	0			1				0	
6.6.1	win	2023-07-10	09:52:19	10:02:11	583808	60fc1b9a79d5bbbb6712bf8e	3	1	main_z	11	advance_on_keypress_ZEE	90	stimuli_target_trianglesquares.svg	stimuli_distractor_diamondtriangles.svg	22	yes	57	0	792	0	0			0	0			1				0	
6.6.1	win	2023-07-10	09:52:19	10:02:13	585477	60fc1b9a79d5bbbb6712bf8e	3	1	main_z	11	main_z	91	stimuli_target_squaretriangles.svg	stimuli_distractor_diamondtriangles.svg	7	yes	44	1	226	0	0			0	0			1				0	
6.6.1	win	2023-07-10	09:52:19	10:02:13	585477	60fc1b9a79d5bbbb6712bf8e	3	1	main_z	11	advance_on_keypress_ZEE	92	stimuli_target_squaretriangles.svg	stimuli_distractor_diamondtriangles.svg	7	yes	57	0	547	0	0			0	0			1				0	
6.6.1	win	2023-07-10	09:52:19	10:02:14	587001	60fc1b9a79d5bbbb6712bf8e	3	1	main_z	11	main_z	93	stimuli_target_diamondrectangles.svg	stimuli_distractor_trianglediamonds.svg	19	yes	44	1	315	0	0			0	0			1				0	
6.6.1	win	2023-07-10	09:52:19	10:02:14	587001	60fc1b9a79d5bbbb6712bf8e	3	1	main_z	11	advance_on_keypress_ZEE	94	stimuli_target_diamondrectangles.svg	stimuli_distractor_trianglediamonds.svg	19	yes	57	0	566	0	0			0	0			1				0	
6.6.1	win	2023-07-10	09:52:19	10:02:16	588466	60fc1b9a79d5bbbb6712bf8e	3	1	main_z	11	main_z	95	stimuli_distractor_diamondtriangles.svg	stimuli_target_diamondsquares.svg	32	yes	44	1	245	0	0			0	0			1				0	
6.6.1	win	2023-07-10	09:52:19	10:02:16	588466	60fc1b9a79d5bbbb6712bf8e	3	1	main_z	11	advance_on_keypress_ZEE	96	stimuli_distractor_diamondtriangles.svg	stimuli_target_diamondsquares.svg	32	yes	57	0	556	0	0			0	0			1				0	
6.6.1	win	2023-07-10	09:52:19	10:02:17	590000	60fc1b9a79d5bbbb6712bf8e	3	1	main_z	11	main_z	97	stimuli_distractor_trianglediamonds.svg	stimuli_distractor_trianglediamonds.svg	33	no	44	0	310	0	0			0	0			1				0	
6.6.1	win	2023-07-10	09:52:19	10:02:17	590000	60fc1b9a79d5bbbb6712bf8e	3	1	main_z	11	advance_on_keypress_ZEE	98	stimuli_distractor_trianglediamonds.svg	stimuli_distractor_trianglediamonds.svg	33	no	57	0	628	0	0			0	0			1				0	
6.6.1	win	2023-07-10	09:52:19	10:02:19	591540	60fc1b9a79d5bbbb6712bf8e	3	1	main_z	11	main_z	99	stimuli_target_diamondrectangles.svg	stimuli_distractor_diamondtriangles.svg	23	yes	44	1	248	0	0			0	0			1				0	
6.6.1	win	2023-07-10	09:52:19	10:02:19	591540	60fc1b9a79d5bbbb6712bf8e	3	1	main_z	11	advance_on_keypress_ZEE	100	stimuli_target_diamondrectangles.svg	stimuli_distractor_diamondtriangles.svg	23	yes	57	0	500	0	0			0	0			1				0	
6.6.1	win	2023-07-10	09:52:19	10:02:20	592948	60fc1b9a79d5bbbb6712bf8e	3	1	main_z	11	main_z	101	stimuli_distractor_diamondtriangles.svg	stimuli_target_diamondrectangles.svg	31	yes	44	1	256	0	0			0	0			1				0	
6.6.1	win	2023-07-10	09:52:19	10:02:20	592948	60fc1b9a79d5bbbb6712bf8e	3	1	main_z	11	advance_on_keypress_ZEE	102	stimuli_distractor_diamondtriangles.svg	stimuli_target_diamondrectangles.svg	31	yes	57	0	520	0	0			0	0			1				0	
6.6.1	win	2023-07-10	09:52:19	10:02:22	594379	60fc1b9a79d5bbbb6712bf8e	3	1	main_z	11	main_z	103	stimuli_target_squarediamonds.svg	stimuli_distractor_diamondtriangles.svg	8	yes	44	1	268	0	0			0	0			1				0	
6.6.1	win	2023-07-10	09:52:19	10:02:22	594379	60fc1b9a79d5bbbb6712bf8e	3	1	main_z	11	advance_on_keypress_ZEE	104	stimuli_target_squarediamonds.svg	stimuli_distractor_diamondtriangles.svg	8	yes	57	0	437	0	0			0	0			1				0	
6.6.1	win	2023-07-10	09:52:19	10:02:23	595687	60fc1b9a79d5bbbb6712bf8e	3	1	main_z	11	main_z	105	stimuli_distractor_diamondtriangles.svg	stimuli_distractor_trianglediamonds.svg	38	no	44	0	225	0	0			0	0			1				0	
6.6.1	win	2023-07-10	09:52:19	10:02:23	595687	60fc1b9a79d5bbbb6712bf8e	3	1	main_z	11	advance_on_keypress_ZEE	106	stimuli_distractor_diamondtriangles.svg	stimuli_distractor_trianglediamonds.svg	38	no	57	0	435	0	0			0	0			1				0	
6.6.1	win	2023-07-10	09:52:19	10:02:24	597165	60fc1b9a79d5bbbb6712bf8e	3	1	main_z	11	main_z	107	stimuli_target_trianglesquares.svg	stimuli_distractor_trianglediamonds.svg	18	yes	44	1	373	0	0			0	0			1				0	
6.6.1	win	2023-07-10	09:52:19	10:02:24	597165	60fc1b9a79d5bbbb6712bf8e	3	1	main_z	11	advance_on_keypress_ZEE	108	stimuli_target_trianglesquares.svg	stimuli_distractor_trianglediamonds.svg	18	yes	57	0	452	0	0			0	0			1				0	
6.6.1	win	2023-07-10	09:52:19	10:02:26	598541	60fc1b9a79d5bbbb6712bf8e	3	1	main_z	11	main_z	109	stimuli_target_rectanglediamonds.svg	stimuli_distractor_trianglediamonds.svg	2	yes	44	1	276	0	0			0	0			1				0	
6.6.1	win	2023-07-10	09:52:19	10:02:26	598541	60fc1b9a79d5bbbb6712bf8e	3	1	main_z	11	advance_on_keypress_ZEE	110	stimuli_target_rectanglediamonds.svg	stimuli_distractor_trianglediamonds.svg	2	yes	57	0	458	0	0			0	0			1				0	
6.6.1	win	2023-07-10	09:52:19	10:02:27	599914	60fc1b9a79d5bbbb6712bf8e	3	1	main_z	11	main_z	111	stimuli_target_diamondsquares.svg	stimuli_distractor_diamondtriangles.svg	24	yes	44	1	247	0	0			0	0			1				0	
6.6.1	win	2023-07-10	09:52:19	10:02:27	599914	60fc1b9a79d5bbbb6712bf8e	3	1	main_z	11	advance_on_keypress_ZEE	112	stimuli_target_diamondsquares.svg	stimuli_distractor_diamondtriangles.svg	24	yes	57	0	397	0	0			0	0			1				0	
6.6.1	win	2023-07-10	09:52:19	10:02:28	601223	60fc1b9a79d5bbbb6712bf8e	3	1	main_z	11	main_z	113	stimuli_target_squarediamonds.svg	stimuli_distractor_trianglediamonds.svg	4	yes	44	1	255	0	0			0	0			1				0	
6.6.1	win	2023-07-10	09:52:19	10:02:28	601223	60fc1b9a79d5bbbb6712bf8e	3	1	main_z	11	advance_on_keypress_ZEE	114	stimuli_target_squarediamonds.svg	stimuli_distractor_trianglediamonds.svg	4	yes	57	0	415	0	0			0	0			1				0	
6.6.1	win	2023-07-10	09:52:19	10:02:30	602535	60fc1b9a79d5bbbb6712bf8e	3	1	main_z	11	main_z	115	stimuli_target_diamondsquares.svg	stimuli_distractor_trianglediamonds.svg	20	yes	44	1	249	0	0			0	0			1				0	
6.6.1	win	2023-07-10	09:52:19	10:02:30	602535	60fc1b9a79d5bbbb6712bf8e	3	1	main_z	11	advance_on_keypress_ZEE	116	stimuli_target_diamondsquares.svg	stimuli_distractor_trianglediamonds.svg	20	yes	57	0	445	0	0			0	0			1				0	
6.6.1	win	2023-07-10	09:52:19	10:02:31	603864	60fc1b9a79d5bbbb6712bf8e	3	1	main_z	11	main_z	117	stimuli_distractor_diamondtriangles.svg	stimuli_distractor_diamondtriangles.svg	40	no	44	0	226	0	0			0	0			1				0	
6.6.1	win	2023-07-10	09:52:19	10:02:31	603864	60fc1b9a79d5bbbb6712bf8e	3	1	main_z	11	advance_on_keypress_ZEE	118	stimuli_distractor_diamondtriangles.svg	stimuli_distractor_diamondtriangles.svg	40	no	57	0	704	0	0			0	0			1				0	
6.6.1	win	2023-07-10	09:52:19	10:02:33	605661	60fc1b9a79d5bbbb6712bf8e	3	1	main_z	11	main_z	119	stimuli_target_rectangletriangles.svg	stimuli_distractor_diamondtriangles.svg	5	yes	44	1	438	0	0			0	0			1				0	
6.6.1	win	2023-07-10	09:52:19	10:02:33	605661	60fc1b9a79d5bbbb6712bf8e	3	1	main_z	11	advance_on_keypress_ZEE	120	stimuli_target_rectangletriangles.svg	stimuli_distractor_diamondtriangles.svg	5	yes	57	0	513	0	0			0	0			1				0	
6.6.1	win	2023-07-10	09:52:19	10:02:36	608825	60fc1b9a79d5bbbb6712bf8e	3	1	main_z	11	main_z	121	stimuli_target_trianglerectangles.svg	stimuli_distractor_diamondtriangles.svg	21	yes	0	0	2000	0	0			0	0			1				0	
6.6.1	win	2023-07-10	09:52:19	10:02:36	608825	60fc1b9a79d5bbbb6712bf8e	3	1	main_z	11	advance_on_keypress_ZEE	122	stimuli_target_trianglerectangles.svg	stimuli_distractor_diamondtriangles.svg	21	yes	57	0	586	0	0			0	0			1				0	
6.6.1	win	2023-07-10	09:52:19	10:02:38	610448	60fc1b9a79d5bbbb6712bf8e	3	1	main_z	11	main_z	123	stimuli_distractor_trianglediamonds.svg	stimuli_target_trianglerectangles.svg	25	yes	44	1	386	0	0			0	0			1				0	
6.6.1	win	2023-07-10	09:52:19	10:02:38	610448	60fc1b9a79d5bbbb6712bf8e	3	1	main_z	11	advance_on_keypress_ZEE	124	stimuli_distractor_trianglediamonds.svg	stimuli_target_trianglerectangles.svg	25	yes	57	0	450	0	0			0	0			1				0	
6.6.1	win	2023-07-10	09:52:19	10:02:39	611797	60fc1b9a79d5bbbb6712bf8e	3	1	main_z	11	main_z	125	stimuli_distractor_trianglediamonds.svg	stimuli_target_squarediamonds.svg	12	yes	44	1	250	0	0			0	0			1				0	
6.6.1	win	2023-07-10	09:52:19	10:02:39	611797	60fc1b9a79d5bbbb6712bf8e	3	1	main_z	11	advance_on_keypress_ZEE	126	stimuli_distractor_trianglediamonds.svg	stimuli_target_squarediamonds.svg	12	yes	57	0	507	0	0			0	0			1				0	
6.6.1	win	2023-07-10	09:52:19	10:02:42	614965	60fc1b9a79d5bbbb6712bf8e	3	1	main_z	11	main_z	127	stimuli_distractor_diamondtriangles.svg	stimuli_distractor_trianglediamonds.svg	37	no	0	1	2000	0	0			0	0			1				0	
6.6.1	win	2023-07-10	09:52:19	10:02:42	614965	60fc1b9a79d5bbbb6712bf8e	3	1	main_z	11	advance_on_keypress_ZEE	128	stimuli_distractor_diamondtriangles.svg	stimuli_distractor_trianglediamonds.svg	37	no	57	0	442	0	0			0	0			1				0	
6.6.1	win	2023-07-10	09:52:19	10:02:45	618069	60fc1b9a79d5bbbb6712bf8e	3	1	main_z	11	main_z	129	stimuli_target_squaretriangles.svg	stimuli_distractor_trianglediamonds.svg	3	yes	0	0	2000	0	0			0	0			1				0	
6.6.1	win	2023-07-10	09:52:19	10:02:45	618069	60fc1b9a79d5bbbb6712bf8e	3	1	main_z	11	advance_on_keypress_ZEE	130	stimuli_target_squaretriangles.svg	stimuli_distractor_trianglediamonds.svg	3	yes	57	0	437	0	0			0	0			1				0	
6.6.1	win	2023-07-10	09:52:19	10:02:48	621172	60fc1b9a79d5bbbb6712bf8e	3	1	main_z	11	main_z	131	stimuli_distractor_diamondtriangles.svg	stimuli_target_rectanglediamonds.svg	14	yes	0	0	2000	0	0			0	0			1				0	
6.6.1	win	2023-07-10	09:52:19	10:02:48	621172	60fc1b9a79d5bbbb6712bf8e	3	1	main_z	11	advance_on_keypress_ZEE	132	stimuli_distractor_diamondtriangles.svg	stimuli_target_rectanglediamonds.svg	14	yes	57	0	363	0	0			0	0			1				0	
6.6.1	win	2023-07-10	09:52:19	10:02:50	622445	60fc1b9a79d5bbbb6712bf8e	3	1	main_z	11	main_z	133	stimuli_distractor_trianglediamonds.svg	stimuli_target_trianglesquares.svg	26	yes	44	1	254	0	0			0	0			1				0	
6.6.1	win	2023-07-10	09:52:19	10:02:50	622445	60fc1b9a79d5bbbb6712bf8e	3	1	main_z	11	advance_on_keypress_ZEE	134	stimuli_distractor_trianglediamonds.svg	stimuli_target_trianglesquares.svg	26	yes	57	0	525	0	0			0	0			1				0	
6.6.1	win	2023-07-10	09:52:19	10:02:51	623880	60fc1b9a79d5bbbb6712bf8e	3	1	main_z	11	main_z	135	stimuli_target_trianglerectangles.svg	stimuli_distractor_trianglediamonds.svg	17	yes	44	1	253	0	0			0	0			1				0	
6.6.1	win	2023-07-10	09:52:19	10:02:51	623880	60fc1b9a79d5bbbb6712bf8e	3	1	main_z	11	advance_on_keypress_ZEE	136	stimuli_target_trianglerectangles.svg	stimuli_distractor_trianglediamonds.svg	17	yes	57	0	546	0	0			0	0			1				0	
6.6.1	win	2023-07-10	09:52:19	10:02:53	625355	60fc1b9a79d5bbbb6712bf8e	3	1	main_z	11	main_z	137	stimuli_distractor_trianglediamonds.svg	stimuli_target_rectangletriangles.svg	9	yes	44	1	277	0	0			0	0			1				0	
6.6.1	win	2023-07-10	09:52:19	10:02:53	625355	60fc1b9a79d5bbbb6712bf8e	3	1	main_z	11	advance_on_keypress_ZEE	138	stimuli_distractor_trianglediamonds.svg	stimuli_target_rectangletriangles.svg	9	yes	57	0	543	0	0			0	0			1				0	
6.6.1	win	2023-07-10	09:52:19	10:02:54	626808	60fc1b9a79d5bbbb6712bf8e	3	1	main_z	11	main_z	139	stimuli_distractor_trianglediamonds.svg	stimuli_distractor_diamondtriangles.svg	35	no	44	0	245	0	0			0	0			1				0	
6.6.1	win	2023-07-10	09:52:19	10:02:54	626808	60fc1b9a79d5bbbb6712bf8e	3	1	main_z	11	advance_on_keypress_ZEE	140	stimuli_distractor_trianglediamonds.svg	stimuli_distractor_diamondtriangles.svg	35	no	57	0	965	0	0			0	0			1				0	
6.6.1	win	2023-07-10	09:52:19	10:02:58	630432	60fc1b9a79d5bbbb6712bf8e	3	1	main_z	11	main_z	141	stimuli_distractor_diamondtriangles.svg	stimuli_target_trianglerectangles.svg	29	yes	0	0	2000	0	0			0	0			1				0	
6.6.1	win	2023-07-10	09:52:19	10:02:58	630432	60fc1b9a79d5bbbb6712bf8e	3	1	main_z	11	advance_on_keypress_ZEE	142	stimuli_distractor_diamondtriangles.svg	stimuli_target_trianglerectangles.svg	29	yes	57	0	1189	0	0			0	0			1				0	
6.6.1	win	2023-07-10	09:52:19	10:03:00	632528	60fc1b9a79d5bbbb6712bf8e	3	1	main_z	11	main_z	143	stimuli_distractor_trianglediamonds.svg	stimuli_target_diamondrectangles.svg	27	yes	44	1	259	0	0			0	0			1				0	
6.6.1	win	2023-07-10	09:52:19	10:03:00	632528	60fc1b9a79d5bbbb6712bf8e	3	1	main_z	11	advance_on_keypress_ZEE	144	stimuli_distractor_trianglediamonds.svg	stimuli_target_diamondrectangles.svg	27	yes	57	0	412	0	0			0	0			1				0	
6.6.1	win	2023-07-10	09:52:19	10:03:01	633898	60fc1b9a79d5bbbb6712bf8e	3	1	main_z	11	main_z	145	stimuli_distractor_diamondtriangles.svg	stimuli_distractor_diamondtriangles.svg	39	no	44	0	294	0	0			0	0			1				0	
6.6.1	win	2023-07-10	09:52:19	10:03:01	633898	60fc1b9a79d5bbbb6712bf8e	3	1	main_z	11	advance_on_keypress_ZEE	146	stimuli_distractor_diamondtriangles.svg	stimuli_distractor_diamondtriangles.svg	39	no	57	0	554	0	0			0	0			1				0	
6.6.1	win	2023-07-10	09:52:19	10:03:03	635692	60fc1b9a79d5bbbb6712bf8e	3	1	main_z	11	main_z	147	stimuli_distractor_diamondtriangles.svg	stimuli_target_trianglesquares.svg	30	yes	44	1	583	0	0			0	0			1				0	
6.6.1	win	2023-07-10	09:52:19	10:03:03	635692	60fc1b9a79d5bbbb6712bf8e	3	1	main_z	11	advance_on_keypress_ZEE	148	stimuli_distractor_diamondtriangles.svg	stimuli_target_trianglesquares.svg	30	yes	57	0	441	0	0			0	0			1				0	
6.6.1	win	2023-07-10	09:52:19	10:03:06	638774	60fc1b9a79d5bbbb6712bf8e	3	1	main_z	11	main_z	149	stimuli_distractor_diamondtriangles.svg	stimuli_target_squarediamonds.svg	16	yes	0	0	2000	0	0			0	0			1				0	
6.6.1	win	2023-07-10	09:52:19	10:03:06	638774	60fc1b9a79d5bbbb6712bf8e	3	1	main_z	11	advance_on_keypress_ZEE	150	stimuli_distractor_diamondtriangles.svg	stimuli_target_squarediamonds.svg	16	yes	57	0	480	0	0			0	0			1				0	
6.6.1	win	2023-07-10	09:52:19	10:03:07	640266	60fc1b9a79d5bbbb6712bf8e	3	1	main_z	11	main_z	151	stimuli_target_rectangletriangles.svg	stimuli_distractor_trianglediamonds.svg	1	yes	44	1	354	0	0			0	0			1				0	
6.6.1	win	2023-07-10	09:52:19	10:03:07	640266	60fc1b9a79d5bbbb6712bf8e	3	1	main_z	11	advance_on_keypress_ZEE	152	stimuli_target_rectangletriangles.svg	stimuli_distractor_trianglediamonds.svg	1	yes	57	0	522	0	0			0	0			1				0	
6.6.1	win	2023-07-10	09:52:19	10:03:09	641794	60fc1b9a79d5bbbb6712bf8e	3	1	main_z	11	main_z	153	stimuli_distractor_trianglediamonds.svg	stimuli_distractor_trianglediamonds.svg	34	no	44	0	364	0	0			0	0			1				0	
6.6.1	win	2023-07-10	09:52:19	10:03:09	641794	60fc1b9a79d5bbbb6712bf8e	3	1	main_z	11	advance_on_keypress_ZEE	154	stimuli_distractor_trianglediamonds.svg	stimuli_distractor_trianglediamonds.svg	34	no	57	0	484	0	0			0	0			1				0	
6.6.1	win	2023-07-10	09:52:19	10:03:12	644931	60fc1b9a79d5bbbb6712bf8e	3	1	main_z	11	main_z	155	stimuli_distractor_trianglediamonds.svg	stimuli_target_diamondsquares.svg	28	yes	0	0	2000	0	0			0	0			1				0	
6.6.1	win	2023-07-10	09:52:19	10:03:12	644931	60fc1b9a79d5bbbb6712bf8e	3	1	main_z	11	advance_on_keypress_ZEE	156	stimuli_distractor_trianglediamonds.svg	stimuli_target_diamondsquares.svg	28	yes	57	0	435	0	0			0	0			1				0	
6.6.1	win	2023-07-10	09:52:19	10:03:15	648018	60fc1b9a79d5bbbb6712bf8e	3	1	main_z	11	main_z	157	stimuli_distractor_trianglediamonds.svg	stimuli_distractor_diamondtriangles.svg	36	no	0	1	2000	0	0			0	0			1				0	
6.6.1	win	2023-07-10	09:52:19	10:03:15	648018	60fc1b9a79d5bbbb6712bf8e	3	1	main_z	11	advance_on_keypress_ZEE	158	stimuli_distractor_trianglediamonds.svg	stimuli_distractor_diamondtriangles.svg	36	no	57	0	609	0	0			0	0			1				0	
6.6.1	win	2023-07-10	09:52:19	10:03:17	649568	60fc1b9a79d5bbbb6712bf8e	3	1	main_z	11	main_z	159	stimuli_distractor_trianglediamonds.svg	stimuli_target_rectanglediamonds.svg	10	yes	44	1	280	0	0			0	0			1				0	
6.6.1	win	2023-07-10	09:52:19	10:03:17	649568	60fc1b9a79d5bbbb6712bf8e	3	1	main_z	11	advance_on_keypress_ZEE	160	stimuli_distractor_trianglediamonds.svg	stimuli_target_rectanglediamonds.svg	10	yes	57	0	415	0	0			0	0			1				0	
6.6.1	win	2023-07-10	09:52:19	10:03:17	649568	60fc1b9a79d5bbbb6712bf8e	3	1	headphonecheck_calibration	14	headphonecheck_calibrationIntro	1	stimuli_distractor_trianglediamonds.svg	stimuli_target_rectanglediamonds.svg	10	yes	calibrationButton	0	2198	0	0			0	0			1				0	
6.6.1	win	2023-07-10	09:52:19	10:03:17	649568	60fc1b9a79d5bbbb6712bf8e	3	1	headphonecheck_testphase	15	test_collectResponse	3	stimuli_distractor_trianglediamonds.svg	stimuli_target_rectanglediamonds.svg	10	yes	second	0	11040	1	6	antiphase_hc_ois.wav	3	0	0			1				0	
6.6.1	win	2023-07-10	09:52:19	10:03:17	649568	60fc1b9a79d5bbbb6712bf8e	3	1	headphonecheck_testphase	15	test_collectResponse	6	stimuli_distractor_trianglediamonds.svg	stimuli_target_rectanglediamonds.svg	10	yes	first	0	1005	2	2	antiphase_hc_ios.wav	3	0	0			1				0	
6.6.1	win	2023-07-10	09:52:19	10:03:17	649568	60fc1b9a79d5bbbb6712bf8e	3	1	headphonecheck_testphase	15	test_collectResponse	9	stimuli_distractor_trianglediamonds.svg	stimuli_target_rectanglediamonds.svg	10	yes	second	0	1413	3	3	antiphase_hc_soi.wav	1	0	0			1				0	
6.6.1	win	2023-07-10	09:52:19	10:03:17	649568	60fc1b9a79d5bbbb6712bf8e	3	1	headphonecheck_testphase	15	test_collectResponse	12	stimuli_distractor_trianglediamonds.svg	stimuli_target_rectanglediamonds.svg	10	yes	first	0	2044	4	1	antiphase_hc_iso.wav	2	0	0			1				0	
6.6.1	win	2023-07-10	09:52:19	10:03:17	649568	60fc1b9a79d5bbbb6712bf8e	3	1	headphonecheck_testphase	15	test_collectResponse	15	stimuli_distractor_trianglediamonds.svg	stimuli_target_rectanglediamonds.svg	10	yes	second	0	1447	5	4	antiphase_hc_sio.wav	1	0	0			1				0	
6.6.1	win	2023-07-10	09:52:19	10:03:17	649568	60fc1b9a79d5bbbb6712bf8e	3	1	headphonecheck_testphase	15	test_collectResponse	18	stimuli_distractor_trianglediamonds.svg	stimuli_target_rectanglediamonds.svg	10	yes	second	1	1217	6	5	antiphase_hc_osi.wav	2	0	0			1				0	
6.6.1	win	2023-07-10	09:52:19	10:03:17	649568	60fc1b9a79d5bbbb6712bf8e	3	1	stereocheck_calibration	17	stereocheck_calibrationIntro	1	stimuli_distractor_trianglediamonds.svg	stimuli_target_rectanglediamonds.svg	10	yes	stereocheck_calibrationButton	0	4203	6	5	antiphase_hc_osi.wav	2	0	0			1				0	
6.6.1	win	2023-07-10	09:52:19	10:03:17	649568	60fc1b9a79d5bbbb6712bf8e	3	1	stereocheck_testphase	18	stereocheck_test_collectResponse	3	stimuli_distractor_trianglediamonds.svg	stimuli_target_rectanglediamonds.svg	10	yes	stereocheck_left	1	555	6	5	antiphase_hc_osi.wav	2	1	3	noise_calib_stim_LEFT.wav	1	1				0	
6.6.1	win	2023-07-10	09:52:19	10:03:17	649568	60fc1b9a79d5bbbb6712bf8e	3	1	stereocheck_testphase	18	stereocheck_test_collectResponse	6	stimuli_distractor_trianglediamonds.svg	stimuli_target_rectanglediamonds.svg	10	yes	stereocheck_left	1	390	6	5	antiphase_hc_osi.wav	2	2	2	noise_calib_stim_LEFT.wav	1	1				0	
6.6.1	win	2023-07-10	09:52:19	10:03:17	649568	60fc1b9a79d5bbbb6712bf8e	3	1	stereocheck_testphase	18	stereocheck_test_collectResponse	9	stimuli_distractor_trianglediamonds.svg	stimuli_target_rectanglediamonds.svg	10	yes	stereocheck_left	1	1827	6	5	antiphase_hc_osi.wav	2	3	1	noise_calib_stim_LEFT.wav	1	1				0	
6.6.1	win	2023-07-10	09:52:19	10:03:17	649568	60fc1b9a79d5bbbb6712bf8e	3	1	stereocheck_testphase	18	stereocheck_test_collectResponse	12	stimuli_distractor_trianglediamonds.svg	stimuli_target_rectanglediamonds.svg	10	yes	stereocheck_right	1	636	6	5	antiphase_hc_osi.wav	2	4	4	noise_calib_stim_RIGHT.wav	2	1				0	
6.6.1	win	2023-07-10	09:52:19	10:03:17	649568	60fc1b9a79d5bbbb6712bf8e	3	1	stereocheck_testphase	18	stereocheck_test_collectResponse	15	stimuli_distractor_trianglediamonds.svg	stimuli_target_rectanglediamonds.svg	10	yes	stereocheck_right	1	258	6	5	antiphase_hc_osi.wav	2	5	5	noise_calib_stim_RIGHT.wav	2	1				0	
6.6.1	win	2023-07-10	09:52:19	10:03:17	649568	60fc1b9a79d5bbbb6712bf8e	3	1	stereocheck_testphase	18	stereocheck_test_collectResponse	18	stimuli_distractor_trianglediamonds.svg	stimuli_target_rectanglediamonds.svg	10	yes	stereocheck_right	1	201	6	5	antiphase_hc_osi.wav	2	6	6	noise_calib_stim_RIGHT.wav	2	1				0	
6.6.1	win	2023-07-10	09:52:19	10:03:17	649568	60fc1b9a79d5bbbb6712bf8e	3	1	DL_practice	21	DL_practice	2	stimuli_distractor_trianglediamonds.svg	stimuli_target_rectanglediamonds.svg	10	yes	ta	1	1602	6	5	antiphase_hc_osi.wav	2	6	6	noise_calib_stim_RIGHT.wav	2	36	blb_dichoticlistening_ta-ta.mp3	ta	ta	0	left
6.6.1	win	2023-07-10	09:52:19	10:03:17	649568	60fc1b9a79d5bbbb6712bf8e	3	1	DL_practice	21	DL_practice	3	stimuli_distractor_trianglediamonds.svg	stimuli_target_rectanglediamonds.svg	10	yes	da	1	1058	6	5	antiphase_hc_osi.wav	2	6	6	noise_calib_stim_RIGHT.wav	2	8	blb_dichoticlistening_da-da.mp3	da	da	0	left
6.6.1	win	2023-07-10	09:52:19	10:03:17	649568	60fc1b9a79d5bbbb6712bf8e	3	1	DL_practice	21	DL_practice	4	stimuli_distractor_trianglediamonds.svg	stimuli_target_rectanglediamonds.svg	10	yes	pa	1	1283	6	5	antiphase_hc_osi.wav	2	6	6	noise_calib_stim_RIGHT.wav	2	29	blb_dichoticlistening_pa-pa.mp3	pa	pa	0	left
6.6.1	win	2023-07-10	09:52:19	10:03:17	649568	60fc1b9a79d5bbbb6712bf8e	3	1	DL_practice	21	DL_practice	5	stimuli_distractor_trianglediamonds.svg	stimuli_target_rectanglediamonds.svg	10	yes	ga	1	768	6	5	antiphase_hc_osi.wav	2	6	6	noise_calib_stim_RIGHT.wav	2	18	blb_dichoticlistening_ga-ta.mp3	ga	ta	1	left
6.6.1	win	2023-07-10	09:52:19	10:03:17	649568	60fc1b9a79d5bbbb6712bf8e	3	1	DL_practice	21	DL_practice	6	stimuli_distractor_trianglediamonds.svg	stimuli_target_rectanglediamonds.svg	10	yes	ka	1	643	6	5	antiphase_hc_osi.wav	2	6	6	noise_calib_stim_RIGHT.wav	2	23	blb_dichoticlistening_ka-pa.mp3	ka	pa	1	left
6.6.1	win	2023-07-10	09:52:19	10:03:17	649568	60fc1b9a79d5bbbb6712bf8e	3	1	DL_practice	21	DL_practice	7	stimuli_distractor_trianglediamonds.svg	stimuli_target_rectanglediamonds.svg	10	yes	ba	1	962	6	5	antiphase_hc_osi.wav	2	6	6	noise_calib_stim_RIGHT.wav	2	1	blb_dichoticlistening_ba-ba.mp3	ba	ba	0	left
6.6.1	win	2023-07-10	09:52:19	10:03:17	649568	60fc1b9a79d5bbbb6712bf8e	3	1	DL_practice	21	DL_practice	8	stimuli_distractor_trianglediamonds.svg	stimuli_target_rectanglediamonds.svg	10	yes	ga	1	1227	6	5	antiphase_hc_osi.wav	2	6	6	noise_calib_stim_RIGHT.wav	2	15	blb_dichoticlistening_ga-ga.mp3	ga	ga	0	left
6.6.1	win	2023-07-10	09:52:19	10:03:17	649568	60fc1b9a79d5bbbb6712bf8e	3	1	DL_practice	21	DL_practice	9	stimuli_distractor_trianglediamonds.svg	stimuli_target_rectanglediamonds.svg	10	yes	ka	1	1039	6	5	antiphase_hc_osi.wav	2	6	6	noise_calib_stim_RIGHT.wav	2	22	blb_dichoticlistening_ka-ka.mp3	ka	ka	0	left
6.6.1	win	2023-07-10	09:52:19	10:03:17	649568	60fc1b9a79d5bbbb6712bf8e	3	1	DL_practice	21	DL_practice	10	stimuli_distractor_trianglediamonds.svg	stimuli_target_rectanglediamonds.svg	10	yes	da	1	2431	6	5	antiphase_hc_osi.wav	2	6	6	noise_calib_stim_RIGHT.wav	2	7	blb_dichoticlistening_da-ba.mp3	da	ba	1	left
6.6.1	win	2023-07-10	09:52:19	10:03:17	649568	60fc1b9a79d5bbbb6712bf8e	3	1	DL_test	23	DL_test	1	stimuli_distractor_trianglediamonds.svg	stimuli_target_rectanglediamonds.svg	10	yes	ba	1	1211	6	5	antiphase_hc_osi.wav	2	6	6	noise_calib_stim_RIGHT.wav	2	31	blb_dichoticlistening_ta-ba.mp3	ta	ba	1	right
6.6.1	win	2023-07-10	09:52:19	10:03:17	649568	60fc1b9a79d5bbbb6712bf8e	3	1	DL_test	23	DL_test	2	stimuli_distractor_trianglediamonds.svg	stimuli_target_rectanglediamonds.svg	10	yes	ka	1	635	6	5	antiphase_hc_osi.wav	2	6	6	noise_calib_stim_RIGHT.wav	2	21	blb_dichoticlistening_ka-ga.mp3	ka	ga	1	left
6.6.1	win	2023-07-10	09:52:19	10:03:17	649568	60fc1b9a79d5bbbb6712bf8e	3	1	DL_test	23	DL_test	3	stimuli_distractor_trianglediamonds.svg	stimuli_target_rectanglediamonds.svg	10	yes	ga	1	1494	6	5	antiphase_hc_osi.wav	2	6	6	noise_calib_stim_RIGHT.wav	2	14	blb_dichoticlistening_ga-da.mp3	ga	da	1	left
6.6.1	win	2023-07-10	09:52:19	10:03:17	649568	60fc1b9a79d5bbbb6712bf8e	3	1	DL_test	23	DL_test	4	stimuli_distractor_trianglediamonds.svg	stimuli_target_rectanglediamonds.svg	10	yes	ga	1	850	6	5	antiphase_hc_osi.wav	2	6	6	noise_calib_stim_RIGHT.wav	2	15	blb_dichoticlistening_ga-ga.mp3	ga	ga	0	left
6.6.1	win	2023-07-10	09:52:19	10:03:17	649568	60fc1b9a79d5bbbb6712bf8e	3	1	DL_test	23	DL_test	5	stimuli_distractor_trianglediamonds.svg	stimuli_target_rectanglediamonds.svg	10	yes	ba	1	983	6	5	antiphase_hc_osi.wav	2	6	6	noise_calib_stim_RIGHT.wav	2	2	blb_dichoticlistening_ba-da.mp3	ba	da	1	left
6.6.1	win	2023-07-10	09:52:19	10:03:17	649568	60fc1b9a79d5bbbb6712bf8e	3	1	DL_test	23	DL_test	6	stimuli_distractor_trianglediamonds.svg	stimuli_target_rectanglediamonds.svg	10	yes	ta	1	985	6	5	antiphase_hc_osi.wav	2	6	6	noise_calib_stim_RIGHT.wav	2	36	blb_dichoticlistening_ta-ta.mp3	ta	ta	0	left
6.6.1	win	2023-07-10	09:52:19	10:03:17	649568	60fc1b9a79d5bbbb6712bf8e	3	1	DL_test	23	DL_test	7	stimuli_distractor_trianglediamonds.svg	stimuli_target_rectanglediamonds.svg	10	yes	ga	1	869	6	5	antiphase_hc_osi.wav	2	6	6	noise_calib_stim_RIGHT.wav	2	18	blb_dichoticlistening_ga-ta.mp3	ga	ta	1	left
6.6.1	win	2023-07-10	09:52:19	10:03:17	649568	60fc1b9a79d5bbbb6712bf8e	3	1	DL_test	23	DL_test	8	stimuli_distractor_trianglediamonds.svg	stimuli_target_rectanglediamonds.svg	10	yes	ga	1	774	6	5	antiphase_hc_osi.wav	2	6	6	noise_calib_stim_RIGHT.wav	2	33	blb_dichoticlistening_ta-ga.mp3	ta	ga	1	right
6.6.1	win	2023-07-10	09:52:19	10:03:17	649568	60fc1b9a79d5bbbb6712bf8e	3	1	DL_test	23	DL_test	9	stimuli_distractor_trianglediamonds.svg	stimuli_target_rectanglediamonds.svg	10	yes	ta	1	1409	6	5	antiphase_hc_osi.wav	2	6	6	noise_calib_stim_RIGHT.wav	2	35	blb_dichoticlistening_ta-pa.mp3	ta	pa	1	left
6.6.1	win	2023-07-10	09:52:19	10:03:17	649568	60fc1b9a79d5bbbb6712bf8e	3	1	DL_test	23	DL_test	10	stimuli_distractor_trianglediamonds.svg	stimuli_target_rectanglediamonds.svg	10	yes	ba	0	1114	6	5	antiphase_hc_osi.wav	2	6	6	noise_calib_stim_RIGHT.wav	2	12	blb_dichoticlistening_da-ta.mp3	da	ta	1	other
6.6.1	win	2023-07-10	09:52:19	10:03:17	649568	60fc1b9a79d5bbbb6712bf8e	3	1	DL_test	23	DL_test	11	stimuli_distractor_trianglediamonds.svg	stimuli_target_rectanglediamonds.svg	10	yes	ga	0	957	6	5	antiphase_hc_osi.wav	2	6	6	noise_calib_stim_RIGHT.wav	2	20	blb_dichoticlistening_ka-da.mp3	ka	da	1	other
6.6.1	win	2023-07-10	09:52:19	10:03:17	649568	60fc1b9a79d5bbbb6712bf8e	3	1	DL_test	23	DL_test	12	stimuli_distractor_trianglediamonds.svg	stimuli_target_rectanglediamonds.svg	10	yes	da	1	1176	6	5	antiphase_hc_osi.wav	2	6	6	noise_calib_stim_RIGHT.wav	2	32	blb_dichoticlistening_ta-da.mp3	ta	da	1	right
6.6.1	win	2023-07-10	09:52:19	10:03:17	649568	60fc1b9a79d5bbbb6712bf8e	3	1	DL_test	23	DL_test	13	stimuli_distractor_trianglediamonds.svg	stimuli_target_rectanglediamonds.svg	10	yes	ba	1	796	6	5	antiphase_hc_osi.wav	2	6	6	noise_calib_stim_RIGHT.wav	2	6	blb_dichoticlistening_ba-ta.mp3	ba	ta	1	left
6.6.1	win	2023-07-10	09:52:19	10:03:17	649568	60fc1b9a79d5bbbb6712bf8e	3	1	DL_test	23	DL_test	14	stimuli_distractor_trianglediamonds.svg	stimuli_target_rectanglediamonds.svg	10	yes	ka	1	983	6	5	antiphase_hc_osi.wav	2	6	6	noise_calib_stim_RIGHT.wav	2	28	blb_dichoticlistening_pa-ka.mp3	pa	ka	1	right
6.6.1	win	2023-07-10	09:52:19	10:03:17	649568	60fc1b9a79d5bbbb6712bf8e	3	1	DL_test	23	DL_test	15	stimuli_distractor_trianglediamonds.svg	stimuli_target_rectanglediamonds.svg	10	yes	ka	1	817	6	5	antiphase_hc_osi.wav	2	6	6	noise_calib_stim_RIGHT.wav	2	23	blb_dichoticlistening_ka-pa.mp3	ka	pa	1	left
6.6.1	win	2023-07-10	09:52:19	10:03:17	649568	60fc1b9a79d5bbbb6712bf8e	3	1	DL_test	23	DL_test	16	stimuli_distractor_trianglediamonds.svg	stimuli_target_rectanglediamonds.svg	10	yes	ta	1	1167	6	5	antiphase_hc_osi.wav	2	6	6	noise_calib_stim_RIGHT.wav	2	30	blb_dichoticlistening_pa-ta.mp3	pa	ta	1	right
6.6.1	win	2023-07-10	09:52:19	10:03:17	649568	60fc1b9a79d5bbbb6712bf8e	3	1	DL_test	23	DL_test	17	stimuli_distractor_trianglediamonds.svg	stimuli_target_rectanglediamonds.svg	10	yes	ga	1	1035	6	5	antiphase_hc_osi.wav	2	6	6	noise_calib_stim_RIGHT.wav	2	17	blb_dichoticlistening_ga-pa.mp3	ga	pa	1	left
6.6.1	win	2023-07-10	09:52:19	10:03:17	649568	60fc1b9a79d5bbbb6712bf8e	3	1	DL_test	23	DL_test	18	stimuli_distractor_trianglediamonds.svg	stimuli_target_rectanglediamonds.svg	10	yes	ba	1	1256	6	5	antiphase_hc_osi.wav	2	6	6	noise_calib_stim_RIGHT.wav	2	4	blb_dichoticlistening_ba-ka.mp3	ba	ka	1	left
6.6.1	win	2023-07-10	09:52:19	10:03:17	649568	60fc1b9a79d5bbbb6712bf8e	3	1	DL_test	23	DL_test	19	stimuli_distractor_trianglediamonds.svg	stimuli_target_rectanglediamonds.svg	10	yes	da	1	1168	6	5	antiphase_hc_osi.wav	2	6	6	noise_calib_stim_RIGHT.wav	2	7	blb_dichoticlistening_da-ba.mp3	da	ba	1	left
6.6.1	win	2023-07-10	09:52:19	10:03:17	649568	60fc1b9a79d5bbbb6712bf8e	3	1	DL_test	23	DL_test	20	stimuli_distractor_trianglediamonds.svg	stimuli_target_rectanglediamonds.svg	10	yes	da	1	1019	6	5	antiphase_hc_osi.wav	2	6	6	noise_calib_stim_RIGHT.wav	2	10	blb_dichoticlistening_da-ka.mp3	da	ka	1	left
6.6.1	win	2023-07-10	09:52:19	10:03:17	649568	60fc1b9a79d5bbbb6712bf8e	3	1	DL_test	23	DL_test	21	stimuli_distractor_trianglediamonds.svg	stimuli_target_rectanglediamonds.svg	10	yes	ka	1	1186	6	5	antiphase_hc_osi.wav	2	6	6	noise_calib_stim_RIGHT.wav	2	34	blb_dichoticlistening_ta-ka.mp3	ta	ka	1	right
6.6.1	win	2023-07-10	09:52:19	10:03:17	649568	60fc1b9a79d5bbbb6712bf8e	3	1	DL_test	23	DL_test	22	stimuli_distractor_trianglediamonds.svg	stimuli_target_rectanglediamonds.svg	10	yes	da	1	1779	6	5	antiphase_hc_osi.wav	2	6	6	noise_calib_stim_RIGHT.wav	2	11	blb_dichoticlistening_da-pa.mp3	da	pa	1	left
6.6.1	win	2023-07-10	09:52:19	10:03:17	649568	60fc1b9a79d5bbbb6712bf8e	3	1	DL_test	23	DL_test	23	stimuli_distractor_trianglediamonds.svg	stimuli_target_rectanglediamonds.svg	10	yes	ba	1	798	6	5	antiphase_hc_osi.wav	2	6	6	noise_calib_stim_RIGHT.wav	2	3	blb_dichoticlistening_ba-ga.mp3	ba	ga	1	left
6.6.1	win	2023-07-10	09:52:19	10:03:17	649568	60fc1b9a79d5bbbb6712bf8e	3	1	DL_test	23	DL_test	24	stimuli_distractor_trianglediamonds.svg	stimuli_target_rectanglediamonds.svg	10	yes	ga	1	746	6	5	antiphase_hc_osi.wav	2	6	6	noise_calib_stim_RIGHT.wav	2	27	blb_dichoticlistening_pa-ga.mp3	pa	ga	1	right
6.6.1	win	2023-07-10	09:52:19	10:03:17	649568	60fc1b9a79d5bbbb6712bf8e	3	1	DL_test	23	DL_test	25	stimuli_distractor_trianglediamonds.svg	stimuli_target_rectanglediamonds.svg	10	yes	ga	1	660	6	5	antiphase_hc_osi.wav	2	6	6	noise_calib_stim_RIGHT.wav	2	16	blb_dichoticlistening_ga-ka.mp3	ga	ka	1	left
6.6.1	win	2023-07-10	09:52:19	10:03:17	649568	60fc1b9a79d5bbbb6712bf8e	3	1	DL_test	23	DL_test	26	stimuli_distractor_trianglediamonds.svg	stimuli_target_rectanglediamonds.svg	10	yes	ka	1	744	6	5	antiphase_hc_osi.wav	2	6	6	noise_calib_stim_RIGHT.wav	2	22	blb_dichoticlistening_ka-ka.mp3	ka	ka	0	left
