build	computer.platform	date	time	timestamp	time_elapsed_ms	subject	group	session	blockcode	blocknum	trialcode	trialnum	stimulus_left	stimulus_right	stim_index	target_present	response	correct	latency	headphonecheck_countTestTrials	headphonecheck_index	headphonecheck_testSound	headphonecheck_correctResponse	stereocheck_countTestTrials	stereocheck_index	stereocheck_testSound	stereocheck_correctResponse	DL_index	DL_soundfile	DL_leftSound	DL_rightSound	DL_dualSound	DL_choice
6.6.1	win	2023-06-27	13:38:08	13:42:26	254886	5f3d6f7010ad88124f3906e2	3	1	practice_slash	5	practice_slash	1	stimuli_distractor_diamondtriangles.svg	stimuli_target_diamondrectangles.svg	8	yes	0	0	2000	0	0			0	0			1				0	
6.6.1	win	2023-06-27	13:38:08	13:42:26	254886	5f3d6f7010ad88124f3906e2	3	1	practice_slash	5	advance_on_keypress_SLASH	2	stimuli_distractor_diamondtriangles.svg	stimuli_target_diamondrectangles.svg	8	yes	57	0	1364	0	0			0	0			1				0	
6.6.1	win	2023-06-27	13:38:08	13:42:31	259892	5f3d6f7010ad88124f3906e2	3	1	practice_slash	5	practice_slash	3	stimuli_distractor_diamondtriangles.svg	stimuli_distractor_trianglediamonds.svg	14	no	0	1	2000	0	0			0	0			1				0	
6.6.1	win	2023-06-27	13:38:08	13:42:31	259892	5f3d6f7010ad88124f3906e2	3	1	practice_slash	5	advance_on_keypress_SLASH	4	stimuli_distractor_diamondtriangles.svg	stimuli_distractor_trianglediamonds.svg	14	no	57	0	2927	0	0			0	0			1				0	
6.6.1	win	2023-06-27	13:38:08	13:42:36	264762	5f3d6f7010ad88124f3906e2	3	1	practice_slash	5	practice_slash	5	stimuli_distractor_diamondtriangles.svg	stimuli_target_rectangletriangles.svg	7	yes	53	1	305	0	0			0	0			1				0	
6.6.1	win	2023-06-27	13:38:08	13:42:36	264762	5f3d6f7010ad88124f3906e2	3	1	practice_slash	5	advance_on_keypress_SLASH	6	stimuli_distractor_diamondtriangles.svg	stimuli_target_rectangletriangles.svg	7	yes	57	0	909	0	0			0	0			1				0	
6.6.1	win	2023-06-27	13:38:08	13:42:39	267610	5f3d6f7010ad88124f3906e2	3	1	practice_slash	5	practice_slash	7	stimuli_distractor_trianglediamonds.svg	stimuli_target_rectanglediamonds.svg	10	yes	53	1	311	0	0			0	0			1				0	
6.6.1	win	2023-06-27	13:38:08	13:42:39	267610	5f3d6f7010ad88124f3906e2	3	1	practice_slash	5	advance_on_keypress_SLASH	8	stimuli_distractor_trianglediamonds.svg	stimuli_target_rectanglediamonds.svg	10	yes	57	0	893	0	0			0	0			1				0	
6.6.1	win	2023-06-27	13:38:08	13:42:42	270499	5f3d6f7010ad88124f3906e2	3	1	practice_slash	5	practice_slash	9	stimuli_distractor_diamondtriangles.svg	stimuli_distractor_diamondtriangles.svg	13	no	53	0	356	0	0			0	0			1				0	
6.6.1	win	2023-06-27	13:38:08	13:42:42	270499	5f3d6f7010ad88124f3906e2	3	1	practice_slash	5	advance_on_keypress_SLASH	10	stimuli_distractor_diamondtriangles.svg	stimuli_distractor_diamondtriangles.svg	13	no	57	0	386	0	0			0	0			1				0	
6.6.1	win	2023-06-27	13:38:08	13:42:45	272979	5f3d6f7010ad88124f3906e2	3	1	practice_slash	5	practice_slash	11	stimuli_target_diamondsquares.svg	stimuli_distractor_trianglediamonds.svg	6	yes	53	1	460	0	0			0	0			1				0	
6.6.1	win	2023-06-27	13:38:08	13:42:45	272979	5f3d6f7010ad88124f3906e2	3	1	practice_slash	5	advance_on_keypress_SLASH	12	stimuli_target_diamondsquares.svg	stimuli_distractor_trianglediamonds.svg	6	yes	57	0	583	0	0			0	0			1				0	
6.6.1	win	2023-06-27	13:38:08	13:42:47	275530	5f3d6f7010ad88124f3906e2	3	1	practice_slash	5	practice_slash	13	stimuli_target_rectanglediamonds.svg	stimuli_distractor_trianglediamonds.svg	4	yes	53	1	343	0	0			0	0			1				0	
6.6.1	win	2023-06-27	13:38:08	13:42:47	275530	5f3d6f7010ad88124f3906e2	3	1	practice_slash	5	advance_on_keypress_SLASH	14	stimuli_target_rectanglediamonds.svg	stimuli_distractor_trianglediamonds.svg	4	yes	57	0	378	0	0			0	0			1				0	
6.6.1	win	2023-06-27	13:38:08	13:42:50	277923	5f3d6f7010ad88124f3906e2	3	1	practice_slash	5	practice_slash	15	stimuli_distractor_trianglediamonds.svg	stimuli_target_squarediamonds.svg	11	yes	53	1	386	0	0			0	0			1				0	
6.6.1	win	2023-06-27	13:38:08	13:42:50	277923	5f3d6f7010ad88124f3906e2	3	1	practice_slash	5	advance_on_keypress_SLASH	16	stimuli_distractor_trianglediamonds.svg	stimuli_target_squarediamonds.svg	11	yes	57	0	357	0	0			0	0			1				0	
6.6.1	win	2023-06-27	13:38:08	13:42:52	280210	5f3d6f7010ad88124f3906e2	3	1	practice_slash	5	practice_slash	17	stimuli_target_squarediamonds.svg	stimuli_distractor_diamondtriangles.svg	2	yes	53	1	312	0	0			0	0			1				0	
6.6.1	win	2023-06-27	13:38:08	13:42:52	280210	5f3d6f7010ad88124f3906e2	3	1	practice_slash	5	advance_on_keypress_SLASH	18	stimuli_target_squarediamonds.svg	stimuli_distractor_diamondtriangles.svg	2	yes	57	0	0	0	0			0	0			1				0	
6.6.1	win	2023-06-27	13:38:08	13:42:54	282330	5f3d6f7010ad88124f3906e2	3	1	practice_slash	5	practice_slash	19	stimuli_target_rectanglediamonds.svg	stimuli_distractor_diamondtriangles.svg	1	yes	53	1	470	0	0			0	0			1				0	
6.6.1	win	2023-06-27	13:38:08	13:42:54	282330	5f3d6f7010ad88124f3906e2	3	1	practice_slash	5	advance_on_keypress_SLASH	20	stimuli_target_rectanglediamonds.svg	stimuli_distractor_diamondtriangles.svg	1	yes	57	0	1811	0	0			0	0			1				0	
6.6.1	win	2023-06-27	13:38:08	13:42:58	286202	5f3d6f7010ad88124f3906e2	3	1	practice_slash	5	practice_slash	21	stimuli_distractor_diamondtriangles.svg	stimuli_target_trianglerectangles.svg	9	yes	53	1	418	0	0			0	0			1				0	
6.6.1	win	2023-06-27	13:38:08	13:42:58	286202	5f3d6f7010ad88124f3906e2	3	1	practice_slash	5	advance_on_keypress_SLASH	22	stimuli_distractor_diamondtriangles.svg	stimuli_target_trianglerectangles.svg	9	yes	57	0	53	0	0			0	0			1				0	
6.6.1	win	2023-06-27	13:38:08	13:43:00	288259	5f3d6f7010ad88124f3906e2	3	1	practice_slash	5	practice_slash	23	stimuli_distractor_trianglediamonds.svg	stimuli_distractor_trianglediamonds.svg	15	no	53	0	365	0	0			0	0			1				0	
6.6.1	win	2023-06-27	13:38:08	13:43:00	288259	5f3d6f7010ad88124f3906e2	3	1	practice_slash	5	advance_on_keypress_SLASH	24	stimuli_distractor_trianglediamonds.svg	stimuli_distractor_trianglediamonds.svg	15	no	57	0	390	0	0			0	0			1				0	
6.6.1	win	2023-06-27	13:38:08	13:43:04	292282	5f3d6f7010ad88124f3906e2	3	1	practice_slash	5	practice_slash	25	stimuli_target_diamondsquares.svg	stimuli_distractor_diamondtriangles.svg	3	yes	0	0	2000	0	0			0	0			1				0	
6.6.1	win	2023-06-27	13:38:08	13:43:04	292282	5f3d6f7010ad88124f3906e2	3	1	practice_slash	5	advance_on_keypress_SLASH	26	stimuli_target_diamondsquares.svg	stimuli_distractor_diamondtriangles.svg	3	yes	57	0	492	0	0			0	0			1				0	
6.6.1	win	2023-06-27	13:38:08	13:43:06	294834	5f3d6f7010ad88124f3906e2	3	1	practice_slash	5	practice_slash	27	stimuli_target_squarediamonds.svg	stimuli_distractor_trianglediamonds.svg	5	yes	53	1	428	0	0			0	0			1				0	
6.6.1	win	2023-06-27	13:38:08	13:43:06	294834	5f3d6f7010ad88124f3906e2	3	1	practice_slash	5	advance_on_keypress_SLASH	28	stimuli_target_squarediamonds.svg	stimuli_distractor_trianglediamonds.svg	5	yes	57	0	378	0	0			0	0			1				0	
6.6.1	win	2023-06-27	13:38:08	13:43:10	298850	5f3d6f7010ad88124f3906e2	3	1	practice_slash	5	practice_slash	29	stimuli_distractor_trianglediamonds.svg	stimuli_distractor_diamondtriangles.svg	16	no	0	1	2000	0	0			0	0			1				0	
6.6.1	win	2023-06-27	13:38:08	13:43:10	298850	5f3d6f7010ad88124f3906e2	3	1	practice_slash	5	advance_on_keypress_SLASH	30	stimuli_distractor_trianglediamonds.svg	stimuli_distractor_diamondtriangles.svg	16	no	57	0	390	0	0			0	0			1				0	
6.6.1	win	2023-06-27	13:38:08	13:43:13	301651	5f3d6f7010ad88124f3906e2	3	1	practice_slash	5	practice_slash	31	stimuli_distractor_trianglediamonds.svg	stimuli_target_diamondrectangles.svg	12	yes	53	1	784	0	0			0	0			1				0	
6.6.1	win	2023-06-27	13:38:08	13:43:13	301651	5f3d6f7010ad88124f3906e2	3	1	practice_slash	5	advance_on_keypress_SLASH	32	stimuli_distractor_trianglediamonds.svg	stimuli_target_diamondrectangles.svg	12	yes	57	0	387	0	0			0	0			1				0	
6.6.1	win	2023-06-27	13:38:08	13:43:25	313187	5f3d6f7010ad88124f3906e2	3	1	main_slash	7	main_slash	1	stimuli_target_squarediamonds.svg	stimuli_distractor_diamondtriangles.svg	8	yes	53	1	481	0	0			0	0			1				0	
6.6.1	win	2023-06-27	13:38:08	13:43:25	313187	5f3d6f7010ad88124f3906e2	3	1	main_slash	7	advance_on_keypress_SLASH	2	stimuli_target_squarediamonds.svg	stimuli_distractor_diamondtriangles.svg	8	yes	57	0	2074	0	0			0	0			1				0	
6.6.1	win	2023-06-27	13:38:08	13:43:28	316283	5f3d6f7010ad88124f3906e2	3	1	main_slash	7	main_slash	3	stimuli_target_rectangletriangles.svg	stimuli_distractor_trianglediamonds.svg	1	yes	53	1	387	0	0			0	0			1				0	
6.6.1	win	2023-06-27	13:38:08	13:43:28	316283	5f3d6f7010ad88124f3906e2	3	1	main_slash	7	advance_on_keypress_SLASH	4	stimuli_target_rectangletriangles.svg	stimuli_distractor_trianglediamonds.svg	1	yes	57	0	978	0	0			0	0			1				0	
6.6.1	win	2023-06-27	13:38:08	13:43:30	318234	5f3d6f7010ad88124f3906e2	3	1	main_slash	7	main_slash	5	stimuli_distractor_diamondtriangles.svg	stimuli_target_rectanglediamonds.svg	14	yes	53	1	337	0	0			0	0			1				0	
6.6.1	win	2023-06-27	13:38:08	13:43:30	318234	5f3d6f7010ad88124f3906e2	3	1	main_slash	7	advance_on_keypress_SLASH	6	stimuli_distractor_diamondtriangles.svg	stimuli_target_rectanglediamonds.svg	14	yes	57	0	909	0	0			0	0			1				0	
6.6.1	win	2023-06-27	13:38:08	13:43:32	320163	5f3d6f7010ad88124f3906e2	3	1	main_slash	7	main_slash	7	stimuli_distractor_diamondtriangles.svg	stimuli_target_squarediamonds.svg	16	yes	53	1	383	0	0			0	0			1				0	
6.6.1	win	2023-06-27	13:38:08	13:43:32	320163	5f3d6f7010ad88124f3906e2	3	1	main_slash	7	advance_on_keypress_SLASH	8	stimuli_distractor_diamondtriangles.svg	stimuli_target_squarediamonds.svg	16	yes	57	0	795	0	0			0	0			1				0	
6.6.1	win	2023-06-27	13:38:08	13:43:35	323581	5f3d6f7010ad88124f3906e2	3	1	main_slash	7	main_slash	9	stimuli_distractor_diamondtriangles.svg	stimuli_distractor_trianglediamonds.svg	38	no	0	1	2000	0	0			0	0			1				0	
6.6.1	win	2023-06-27	13:38:08	13:43:35	323581	5f3d6f7010ad88124f3906e2	3	1	main_slash	7	advance_on_keypress_SLASH	10	stimuli_distractor_diamondtriangles.svg	stimuli_distractor_trianglediamonds.svg	38	no	57	0	595	0	0			0	0			1				0	
6.6.1	win	2023-06-27	13:38:08	13:43:37	325146	5f3d6f7010ad88124f3906e2	3	1	main_slash	7	main_slash	11	stimuli_target_rectanglediamonds.svg	stimuli_distractor_diamondtriangles.svg	6	yes	53	1	349	0	0			0	0			1				0	
6.6.1	win	2023-06-27	13:38:08	13:43:37	325146	5f3d6f7010ad88124f3906e2	3	1	main_slash	7	advance_on_keypress_SLASH	12	stimuli_target_rectanglediamonds.svg	stimuli_distractor_diamondtriangles.svg	6	yes	57	0	844	0	0			0	0			1				0	
6.6.1	win	2023-06-27	13:38:08	13:43:40	328626	5f3d6f7010ad88124f3906e2	3	1	main_slash	7	main_slash	13	stimuli_distractor_trianglediamonds.svg	stimuli_target_trianglesquares.svg	26	yes	0	0	2000	0	0			0	0			1				0	
6.6.1	win	2023-06-27	13:38:08	13:43:40	328626	5f3d6f7010ad88124f3906e2	3	1	main_slash	7	advance_on_keypress_SLASH	14	stimuli_distractor_trianglediamonds.svg	stimuli_target_trianglesquares.svg	26	yes	57	0	454	0	0			0	0			1				0	
6.6.1	win	2023-06-27	13:38:08	13:43:43	331709	5f3d6f7010ad88124f3906e2	3	1	main_slash	7	main_slash	15	stimuli_distractor_diamondtriangles.svg	stimuli_target_diamondsquares.svg	32	yes	0	0	2000	0	0			0	0			1				0	
6.6.1	win	2023-06-27	13:38:08	13:43:43	331709	5f3d6f7010ad88124f3906e2	3	1	main_slash	7	advance_on_keypress_SLASH	16	stimuli_distractor_diamondtriangles.svg	stimuli_target_diamondsquares.svg	32	yes	57	0	619	0	0			0	0			1				0	
6.6.1	win	2023-06-27	13:38:08	13:43:47	334953	5f3d6f7010ad88124f3906e2	3	1	main_slash	7	main_slash	17	stimuli_distractor_diamondtriangles.svg	stimuli_distractor_trianglediamonds.svg	37	no	0	1	2000	0	0			0	0			1				0	
6.6.1	win	2023-06-27	13:38:08	13:43:47	334953	5f3d6f7010ad88124f3906e2	3	1	main_slash	7	advance_on_keypress_SLASH	18	stimuli_distractor_diamondtriangles.svg	stimuli_distractor_trianglediamonds.svg	37	no	57	0	439	0	0			0	0			1				0	
6.6.1	win	2023-06-27	13:38:08	13:43:50	338022	5f3d6f7010ad88124f3906e2	3	1	main_slash	7	main_slash	19	stimuli_distractor_diamondtriangles.svg	stimuli_distractor_diamondtriangles.svg	39	no	0	1	2000	0	0			0	0			1				0	
6.6.1	win	2023-06-27	13:38:08	13:43:50	338022	5f3d6f7010ad88124f3906e2	3	1	main_slash	7	advance_on_keypress_SLASH	20	stimuli_distractor_diamondtriangles.svg	stimuli_distractor_diamondtriangles.svg	39	no	57	0	426	0	0			0	0			1				0	
6.6.1	win	2023-06-27	13:38:08	13:43:51	339491	5f3d6f7010ad88124f3906e2	3	1	main_slash	7	main_slash	21	stimuli_target_rectangletriangles.svg	stimuli_distractor_diamondtriangles.svg	5	yes	53	1	412	0	0			0	0			1				0	
6.6.1	win	2023-06-27	13:38:08	13:43:51	339491	5f3d6f7010ad88124f3906e2	3	1	main_slash	7	advance_on_keypress_SLASH	22	stimuli_target_rectangletriangles.svg	stimuli_distractor_diamondtriangles.svg	5	yes	57	0	1069	0	0			0	0			1				0	
6.6.1	win	2023-06-27	13:38:08	13:43:53	341691	5f3d6f7010ad88124f3906e2	3	1	main_slash	7	main_slash	23	stimuli_distractor_diamondtriangles.svg	stimuli_target_rectangletriangles.svg	13	yes	53	1	503	0	0			0	0			1				0	
6.6.1	win	2023-06-27	13:38:08	13:43:53	341691	5f3d6f7010ad88124f3906e2	3	1	main_slash	7	advance_on_keypress_SLASH	24	stimuli_distractor_diamondtriangles.svg	stimuli_target_rectangletriangles.svg	13	yes	57	0	827	0	0			0	0			1				0	
6.6.1	win	2023-06-27	13:38:08	13:43:55	343643	5f3d6f7010ad88124f3906e2	3	1	main_slash	7	main_slash	25	stimuli_target_squarediamonds.svg	stimuli_distractor_trianglediamonds.svg	4	yes	53	1	493	0	0			0	0			1				0	
6.6.1	win	2023-06-27	13:38:08	13:43:55	343643	5f3d6f7010ad88124f3906e2	3	1	main_slash	7	advance_on_keypress_SLASH	26	stimuli_target_squarediamonds.svg	stimuli_distractor_trianglediamonds.svg	4	yes	57	0	585	0	0			0	0			1				0	
6.6.1	win	2023-06-27	13:38:08	13:43:57	345460	5f3d6f7010ad88124f3906e2	3	1	main_slash	7	main_slash	27	stimuli_distractor_diamondtriangles.svg	stimuli_target_squaretriangles.svg	15	yes	53	1	587	0	0			0	0			1				0	
6.6.1	win	2023-06-27	13:38:08	13:43:57	345460	5f3d6f7010ad88124f3906e2	3	1	main_slash	7	advance_on_keypress_SLASH	28	stimuli_distractor_diamondtriangles.svg	stimuli_target_squaretriangles.svg	15	yes	57	0	570	0	0			0	0			1				0	
6.6.1	win	2023-06-27	13:38:08	13:43:59	347211	5f3d6f7010ad88124f3906e2	3	1	main_slash	7	main_slash	29	stimuli_distractor_trianglediamonds.svg	stimuli_target_rectanglediamonds.svg	10	yes	53	1	551	0	0			0	0			1				0	
6.6.1	win	2023-06-27	13:38:08	13:43:59	347211	5f3d6f7010ad88124f3906e2	3	1	main_slash	7	advance_on_keypress_SLASH	30	stimuli_distractor_trianglediamonds.svg	stimuli_target_rectanglediamonds.svg	10	yes	57	0	510	0	0			0	0			1				0	
6.6.1	win	2023-06-27	13:38:08	13:44:01	349003	5f3d6f7010ad88124f3906e2	3	1	main_slash	7	main_slash	31	stimuli_distractor_diamondtriangles.svg	stimuli_target_diamondrectangles.svg	31	yes	53	1	648	0	0			0	0			1				0	
6.6.1	win	2023-06-27	13:38:08	13:44:01	349003	5f3d6f7010ad88124f3906e2	3	1	main_slash	7	advance_on_keypress_SLASH	32	stimuli_distractor_diamondtriangles.svg	stimuli_target_diamondrectangles.svg	31	yes	57	0	625	0	0			0	0			1				0	
6.6.1	win	2023-06-27	13:38:08	13:44:02	350659	5f3d6f7010ad88124f3906e2	3	1	main_slash	7	main_slash	33	stimuli_distractor_trianglediamonds.svg	stimuli_target_diamondrectangles.svg	27	yes	53	1	409	0	0			0	0			1				0	
6.6.1	win	2023-06-27	13:38:08	13:44:02	350659	5f3d6f7010ad88124f3906e2	3	1	main_slash	7	advance_on_keypress_SLASH	34	stimuli_distractor_trianglediamonds.svg	stimuli_target_diamondrectangles.svg	27	yes	57	0	594	0	0			0	0			1				0	
6.6.1	win	2023-06-27	13:38:08	13:44:04	352363	5f3d6f7010ad88124f3906e2	3	1	main_slash	7	main_slash	35	stimuli_target_trianglesquares.svg	stimuli_distractor_trianglediamonds.svg	18	yes	53	1	484	0	0			0	0			1				0	
6.6.1	win	2023-06-27	13:38:08	13:44:04	352363	5f3d6f7010ad88124f3906e2	3	1	main_slash	7	advance_on_keypress_SLASH	36	stimuli_target_trianglesquares.svg	stimuli_distractor_trianglediamonds.svg	18	yes	57	0	590	0	0			0	0			1				0	
6.6.1	win	2023-06-27	13:38:08	13:44:06	354187	5f3d6f7010ad88124f3906e2	3	1	main_slash	7	main_slash	37	stimuli_target_diamondrectangles.svg	stimuli_distractor_trianglediamonds.svg	19	yes	53	1	600	0	0			0	0			1				0	
6.6.1	win	2023-06-27	13:38:08	13:44:06	354187	5f3d6f7010ad88124f3906e2	3	1	main_slash	7	advance_on_keypress_SLASH	38	stimuli_target_diamondrectangles.svg	stimuli_distractor_trianglediamonds.svg	19	yes	57	0	458	0	0			0	0			1				0	
6.6.1	win	2023-06-27	13:38:08	13:44:07	355883	5f3d6f7010ad88124f3906e2	3	1	main_slash	7	main_slash	39	stimuli_target_diamondsquares.svg	stimuli_distractor_trianglediamonds.svg	20	yes	53	1	601	0	0			0	0			1				0	
6.6.1	win	2023-06-27	13:38:08	13:44:07	355883	5f3d6f7010ad88124f3906e2	3	1	main_slash	7	advance_on_keypress_SLASH	40	stimuli_target_diamondsquares.svg	stimuli_distractor_trianglediamonds.svg	20	yes	57	0	458	0	0			0	0			1				0	
6.6.1	win	2023-06-27	13:38:08	13:44:09	357586	5f3d6f7010ad88124f3906e2	3	1	main_slash	7	main_slash	41	stimuli_target_trianglerectangles.svg	stimuli_distractor_diamondtriangles.svg	21	yes	53	1	610	0	0			0	0			1				0	
6.6.1	win	2023-06-27	13:38:08	13:44:09	357586	5f3d6f7010ad88124f3906e2	3	1	main_slash	7	advance_on_keypress_SLASH	42	stimuli_target_trianglerectangles.svg	stimuli_distractor_diamondtriangles.svg	21	yes	57	0	491	0	0			0	0			1				0	
6.6.1	win	2023-06-27	13:38:08	13:44:11	359203	5f3d6f7010ad88124f3906e2	3	1	main_slash	7	main_slash	43	stimuli_distractor_trianglediamonds.svg	stimuli_target_squarediamonds.svg	12	yes	53	1	504	0	0			0	0			1				0	
6.6.1	win	2023-06-27	13:38:08	13:44:11	359203	5f3d6f7010ad88124f3906e2	3	1	main_slash	7	advance_on_keypress_SLASH	44	stimuli_distractor_trianglediamonds.svg	stimuli_target_squarediamonds.svg	12	yes	57	0	533	0	0			0	0			1				0	
6.6.1	win	2023-06-27	13:38:08	13:44:12	360850	5f3d6f7010ad88124f3906e2	3	1	main_slash	7	main_slash	45	stimuli_distractor_diamondtriangles.svg	stimuli_target_trianglerectangles.svg	29	yes	53	1	484	0	0			0	0			1				0	
6.6.1	win	2023-06-27	13:38:08	13:44:12	360850	5f3d6f7010ad88124f3906e2	3	1	main_slash	7	advance_on_keypress_SLASH	46	stimuli_distractor_diamondtriangles.svg	stimuli_target_trianglerectangles.svg	29	yes	57	0	502	0	0			0	0			1				0	
6.6.1	win	2023-06-27	13:38:08	13:44:14	362507	5f3d6f7010ad88124f3906e2	3	1	main_slash	7	main_slash	47	stimuli_distractor_trianglediamonds.svg	stimuli_target_trianglerectangles.svg	25	yes	53	1	525	0	0			0	0			1				0	
6.6.1	win	2023-06-27	13:38:08	13:44:14	362507	5f3d6f7010ad88124f3906e2	3	1	main_slash	7	advance_on_keypress_SLASH	48	stimuli_distractor_trianglediamonds.svg	stimuli_target_trianglerectangles.svg	25	yes	57	0	415	0	0			0	0			1				0	
6.6.1	win	2023-06-27	13:38:08	13:44:16	364099	5f3d6f7010ad88124f3906e2	3	1	main_slash	7	main_slash	49	stimuli_target_rectanglediamonds.svg	stimuli_distractor_trianglediamonds.svg	2	yes	53	1	542	0	0			0	0			1				0	
6.6.1	win	2023-06-27	13:38:08	13:44:16	364099	5f3d6f7010ad88124f3906e2	3	1	main_slash	7	advance_on_keypress_SLASH	50	stimuli_target_rectanglediamonds.svg	stimuli_distractor_trianglediamonds.svg	2	yes	57	0	378	0	0			0	0			1				0	
6.6.1	win	2023-06-27	13:38:08	13:44:17	365539	5f3d6f7010ad88124f3906e2	3	1	main_slash	7	main_slash	51	stimuli_target_squaretriangles.svg	stimuli_distractor_trianglediamonds.svg	3	yes	53	1	434	0	0			0	0			1				0	
6.6.1	win	2023-06-27	13:38:08	13:44:17	365539	5f3d6f7010ad88124f3906e2	3	1	main_slash	7	advance_on_keypress_SLASH	52	stimuli_target_squaretriangles.svg	stimuli_distractor_trianglediamonds.svg	3	yes	57	0	489	0	0			0	0			1				0	
6.6.1	win	2023-06-27	13:38:08	13:44:19	367186	5f3d6f7010ad88124f3906e2	3	1	main_slash	7	main_slash	53	stimuli_distractor_diamondtriangles.svg	stimuli_target_trianglesquares.svg	30	yes	53	1	534	0	0			0	0			1				0	
6.6.1	win	2023-06-27	13:38:08	13:44:19	367186	5f3d6f7010ad88124f3906e2	3	1	main_slash	7	advance_on_keypress_SLASH	54	stimuli_distractor_diamondtriangles.svg	stimuli_target_trianglesquares.svg	30	yes	57	0	442	0	0			0	0			1				0	
6.6.1	win	2023-06-27	13:38:08	13:44:20	368875	5f3d6f7010ad88124f3906e2	3	1	main_slash	7	main_slash	55	stimuli_distractor_trianglediamonds.svg	stimuli_target_diamondsquares.svg	28	yes	53	1	607	0	0			0	0			1				0	
6.6.1	win	2023-06-27	13:38:08	13:44:20	368875	5f3d6f7010ad88124f3906e2	3	1	main_slash	7	advance_on_keypress_SLASH	56	stimuli_distractor_trianglediamonds.svg	stimuli_target_diamondsquares.svg	28	yes	57	0	305	0	0			0	0			1				0	
6.6.1	win	2023-06-27	13:38:08	13:44:22	370827	5f3d6f7010ad88124f3906e2	3	1	main_slash	7	main_slash	57	stimuli_target_trianglerectangles.svg	stimuli_distractor_trianglediamonds.svg	17	yes	53	1	1024	0	0			0	0			1				0	
6.6.1	win	2023-06-27	13:38:08	13:44:22	370827	5f3d6f7010ad88124f3906e2	3	1	main_slash	7	advance_on_keypress_SLASH	58	stimuli_target_trianglerectangles.svg	stimuli_distractor_trianglediamonds.svg	17	yes	57	0	484	0	0			0	0			1				0	
6.6.1	win	2023-06-27	13:38:08	13:44:24	372563	5f3d6f7010ad88124f3906e2	3	1	main_slash	7	main_slash	59	stimuli_target_diamondsquares.svg	stimuli_distractor_diamondtriangles.svg	24	yes	53	1	625	0	0			0	0			1				0	
6.6.1	win	2023-06-27	13:38:08	13:44:24	372563	5f3d6f7010ad88124f3906e2	3	1	main_slash	7	advance_on_keypress_SLASH	60	stimuli_target_diamondsquares.svg	stimuli_distractor_diamondtriangles.svg	24	yes	57	0	437	0	0			0	0			1				0	
6.6.1	win	2023-06-27	13:38:08	13:44:27	375620	5f3d6f7010ad88124f3906e2	3	1	main_slash	7	main_slash	61	stimuli_distractor_trianglediamonds.svg	stimuli_distractor_trianglediamonds.svg	33	no	0	1	2000	0	0			0	0			1				0	
6.6.1	win	2023-06-27	13:38:08	13:44:27	375620	5f3d6f7010ad88124f3906e2	3	1	main_slash	7	advance_on_keypress_SLASH	62	stimuli_distractor_trianglediamonds.svg	stimuli_distractor_trianglediamonds.svg	33	no	57	0	500	0	0			0	0			1				0	
6.6.1	win	2023-06-27	13:38:08	13:44:30	378743	5f3d6f7010ad88124f3906e2	3	1	main_slash	7	main_slash	63	stimuli_distractor_diamondtriangles.svg	stimuli_distractor_diamondtriangles.svg	40	no	0	1	2000	0	0			0	0			1				0	
6.6.1	win	2023-06-27	13:38:08	13:44:30	378743	5f3d6f7010ad88124f3906e2	3	1	main_slash	7	advance_on_keypress_SLASH	64	stimuli_distractor_diamondtriangles.svg	stimuli_distractor_diamondtriangles.svg	40	no	57	0	425	0	0			0	0			1				0	
6.6.1	win	2023-06-27	13:38:08	13:44:33	381799	5f3d6f7010ad88124f3906e2	3	1	main_slash	7	main_slash	65	stimuli_distractor_trianglediamonds.svg	stimuli_distractor_diamondtriangles.svg	35	no	0	1	2000	0	0			0	0			1				0	
6.6.1	win	2023-06-27	13:38:08	13:44:33	381799	5f3d6f7010ad88124f3906e2	3	1	main_slash	7	advance_on_keypress_SLASH	66	stimuli_distractor_trianglediamonds.svg	stimuli_distractor_diamondtriangles.svg	35	no	57	0	409	0	0			0	0			1				0	
6.6.1	win	2023-06-27	13:38:08	13:44:36	384829	5f3d6f7010ad88124f3906e2	3	1	main_slash	7	main_slash	67	stimuli_target_squaretriangles.svg	stimuli_distractor_diamondtriangles.svg	7	yes	0	0	2000	0	0			0	0			1				0	
6.6.1	win	2023-06-27	13:38:08	13:44:36	384829	5f3d6f7010ad88124f3906e2	3	1	main_slash	7	advance_on_keypress_SLASH	68	stimuli_target_squaretriangles.svg	stimuli_distractor_diamondtriangles.svg	7	yes	57	0	380	0	0			0	0			1				0	
6.6.1	win	2023-06-27	13:38:08	13:44:39	387832	5f3d6f7010ad88124f3906e2	3	1	main_slash	7	main_slash	69	stimuli_distractor_trianglediamonds.svg	stimuli_distractor_trianglediamonds.svg	34	no	0	1	2000	0	0			0	0			1				0	
6.6.1	win	2023-06-27	13:38:08	13:44:39	387832	5f3d6f7010ad88124f3906e2	3	1	main_slash	7	advance_on_keypress_SLASH	70	stimuli_distractor_trianglediamonds.svg	stimuli_distractor_trianglediamonds.svg	34	no	57	0	8	0	0			0	0			1				0	
6.6.1	win	2023-06-27	13:38:08	13:44:41	389123	5f3d6f7010ad88124f3906e2	3	1	main_slash	7	main_slash	71	stimuli_target_trianglesquares.svg	stimuli_distractor_diamondtriangles.svg	22	yes	53	1	648	0	0			0	0			1				0	
6.6.1	win	2023-06-27	13:38:08	13:44:41	389123	5f3d6f7010ad88124f3906e2	3	1	main_slash	7	advance_on_keypress_SLASH	72	stimuli_target_trianglesquares.svg	stimuli_distractor_diamondtriangles.svg	22	yes	57	0	610	0	0			0	0			1				0	
6.6.1	win	2023-06-27	13:38:08	13:44:44	392356	5f3d6f7010ad88124f3906e2	3	1	main_slash	7	main_slash	73	stimuli_distractor_trianglediamonds.svg	stimuli_distractor_diamondtriangles.svg	36	no	0	1	2000	0	0			0	0			1				0	
6.6.1	win	2023-06-27	13:38:08	13:44:44	392356	5f3d6f7010ad88124f3906e2	3	1	main_slash	7	advance_on_keypress_SLASH	74	stimuli_distractor_trianglediamonds.svg	stimuli_distractor_diamondtriangles.svg	36	no	57	0	356	0	0			0	0			1				0	
6.6.1	win	2023-06-27	13:38:08	13:44:46	394018	5f3d6f7010ad88124f3906e2	3	1	main_slash	7	main_slash	75	stimuli_distractor_trianglediamonds.svg	stimuli_target_squaretriangles.svg	11	yes	53	1	686	0	0			0	0			1				0	
6.6.1	win	2023-06-27	13:38:08	13:44:46	394018	5f3d6f7010ad88124f3906e2	3	1	main_slash	7	advance_on_keypress_SLASH	76	stimuli_distractor_trianglediamonds.svg	stimuli_target_squaretriangles.svg	11	yes	57	0	687	0	0			0	0			1				0	
6.6.1	win	2023-06-27	13:38:08	13:44:48	396106	5f3d6f7010ad88124f3906e2	3	1	main_slash	7	main_slash	77	stimuli_target_diamondrectangles.svg	stimuli_distractor_diamondtriangles.svg	23	yes	53	1	772	0	0			0	0			1				0	
6.6.1	win	2023-06-27	13:38:08	13:44:48	396106	5f3d6f7010ad88124f3906e2	3	1	main_slash	7	advance_on_keypress_SLASH	78	stimuli_target_diamondrectangles.svg	stimuli_distractor_diamondtriangles.svg	23	yes	57	0	541	0	0			0	0			1				0	
6.6.1	win	2023-06-27	13:38:08	13:44:50	398043	5f3d6f7010ad88124f3906e2	3	1	main_slash	7	main_slash	79	stimuli_distractor_trianglediamonds.svg	stimuli_target_rectangletriangles.svg	9	yes	53	1	773	0	0			0	0			1				0	
6.6.1	win	2023-06-27	13:38:08	13:44:50	398043	5f3d6f7010ad88124f3906e2	3	1	main_slash	7	advance_on_keypress_SLASH	80	stimuli_distractor_trianglediamonds.svg	stimuli_target_rectangletriangles.svg	9	yes	57	0	534	0	0			0	0			1				0	
6.6.1	win	2023-06-27	13:38:08	13:44:53	401205	5f3d6f7010ad88124f3906e2	3	1	main_slash	7	main_slash	81	stimuli_distractor_trianglediamonds.svg	stimuli_distractor_diamondtriangles.svg	36	no	0	1	2000	0	0			0	0			1				0	
6.6.1	win	2023-06-27	13:38:08	13:44:53	401205	5f3d6f7010ad88124f3906e2	3	1	main_slash	7	advance_on_keypress_SLASH	82	stimuli_distractor_trianglediamonds.svg	stimuli_distractor_diamondtriangles.svg	36	no	57	0	339	0	0			0	0			1				0	
6.6.1	win	2023-06-27	13:38:08	13:44:54	402826	5f3d6f7010ad88124f3906e2	3	1	main_slash	7	main_slash	83	stimuli_target_trianglesquares.svg	stimuli_distractor_trianglediamonds.svg	18	yes	53	1	659	0	0			0	0			1				0	
6.6.1	win	2023-06-27	13:38:08	13:44:54	402826	5f3d6f7010ad88124f3906e2	3	1	main_slash	7	advance_on_keypress_SLASH	84	stimuli_target_trianglesquares.svg	stimuli_distractor_trianglediamonds.svg	18	yes	57	0	551	0	0			0	0			1				0	
6.6.1	win	2023-06-27	13:38:08	13:44:56	404675	5f3d6f7010ad88124f3906e2	3	1	main_slash	7	main_slash	85	stimuli_distractor_trianglediamonds.svg	stimuli_target_diamondrectangles.svg	27	yes	53	1	665	0	0			0	0			1				0	
6.6.1	win	2023-06-27	13:38:08	13:44:56	404675	5f3d6f7010ad88124f3906e2	3	1	main_slash	7	advance_on_keypress_SLASH	86	stimuli_distractor_trianglediamonds.svg	stimuli_target_diamondrectangles.svg	27	yes	57	0	421	0	0			0	0			1				0	
6.6.1	win	2023-06-27	13:38:08	13:44:58	406475	5f3d6f7010ad88124f3906e2	3	1	main_slash	7	main_slash	87	stimuli_distractor_diamondtriangles.svg	stimuli_target_rectangletriangles.svg	13	yes	53	1	756	0	0			0	0			1				0	
6.6.1	win	2023-06-27	13:38:08	13:44:58	406475	5f3d6f7010ad88124f3906e2	3	1	main_slash	7	advance_on_keypress_SLASH	88	stimuli_distractor_diamondtriangles.svg	stimuli_target_rectangletriangles.svg	13	yes	57	0	427	0	0			0	0			1				0	
6.6.1	win	2023-06-27	13:38:08	13:45:00	408259	5f3d6f7010ad88124f3906e2	3	1	main_slash	7	main_slash	89	stimuli_target_trianglerectangles.svg	stimuli_distractor_diamondtriangles.svg	21	yes	53	1	725	0	0			0	0			1				0	
6.6.1	win	2023-06-27	13:38:08	13:45:00	408259	5f3d6f7010ad88124f3906e2	3	1	main_slash	7	advance_on_keypress_SLASH	90	stimuli_target_trianglerectangles.svg	stimuli_distractor_diamondtriangles.svg	21	yes	57	0	375	0	0			0	0			1				0	
6.6.1	win	2023-06-27	13:38:08	13:45:02	410299	5f3d6f7010ad88124f3906e2	3	1	main_slash	7	main_slash	91	stimuli_target_squaretriangles.svg	stimuli_distractor_diamondtriangles.svg	7	yes	53	1	1030	0	0			0	0			1				0	
6.6.1	win	2023-06-27	13:38:08	13:45:02	410299	5f3d6f7010ad88124f3906e2	3	1	main_slash	7	advance_on_keypress_SLASH	92	stimuli_target_squaretriangles.svg	stimuli_distractor_diamondtriangles.svg	7	yes	57	0	445	0	0			0	0			1				0	
6.6.1	win	2023-06-27	13:38:08	13:45:04	412506	5f3d6f7010ad88124f3906e2	3	1	main_slash	7	main_slash	93	stimuli_target_diamondsquares.svg	stimuli_distractor_trianglediamonds.svg	20	yes	53	1	1129	0	0			0	0			1				0	
6.6.1	win	2023-06-27	13:38:08	13:45:04	412506	5f3d6f7010ad88124f3906e2	3	1	main_slash	7	advance_on_keypress_SLASH	94	stimuli_target_diamondsquares.svg	stimuli_distractor_trianglediamonds.svg	20	yes	57	0	330	0	0			0	0			1				0	
6.6.1	win	2023-06-27	13:38:08	13:45:06	414226	5f3d6f7010ad88124f3906e2	3	1	main_slash	7	main_slash	95	stimuli_distractor_trianglediamonds.svg	stimuli_target_diamondsquares.svg	28	yes	53	1	767	0	0			0	0			1				0	
6.6.1	win	2023-06-27	13:38:08	13:45:06	414226	5f3d6f7010ad88124f3906e2	3	1	main_slash	7	advance_on_keypress_SLASH	96	stimuli_distractor_trianglediamonds.svg	stimuli_target_diamondsquares.svg	28	yes	57	0	465	0	0			0	0			1				0	
6.6.1	win	2023-06-27	13:38:08	13:45:08	416147	5f3d6f7010ad88124f3906e2	3	1	main_slash	7	main_slash	97	stimuli_distractor_diamondtriangles.svg	stimuli_target_rectanglediamonds.svg	14	yes	53	1	832	0	0			0	0			1				0	
6.6.1	win	2023-06-27	13:38:08	13:45:08	416147	5f3d6f7010ad88124f3906e2	3	1	main_slash	7	advance_on_keypress_SLASH	98	stimuli_distractor_diamondtriangles.svg	stimuli_target_rectanglediamonds.svg	14	yes	57	0	447	0	0			0	0			1				0	
6.6.1	win	2023-06-27	13:38:08	13:45:09	417811	5f3d6f7010ad88124f3906e2	3	1	main_slash	7	main_slash	99	stimuli_distractor_trianglediamonds.svg	stimuli_target_trianglesquares.svg	26	yes	53	1	588	0	0			0	0			1				0	
6.6.1	win	2023-06-27	13:38:08	13:45:09	417811	5f3d6f7010ad88124f3906e2	3	1	main_slash	7	advance_on_keypress_SLASH	100	stimuli_distractor_trianglediamonds.svg	stimuli_target_trianglesquares.svg	26	yes	57	0	434	0	0			0	0			1				0	
6.6.1	win	2023-06-27	13:38:08	13:45:11	419603	5f3d6f7010ad88124f3906e2	3	1	main_slash	7	main_slash	101	stimuli_target_squaretriangles.svg	stimuli_distractor_trianglediamonds.svg	3	yes	53	1	725	0	0			0	0			1				0	
6.6.1	win	2023-06-27	13:38:08	13:45:11	419603	5f3d6f7010ad88124f3906e2	3	1	main_slash	7	advance_on_keypress_SLASH	102	stimuli_target_squaretriangles.svg	stimuli_distractor_trianglediamonds.svg	3	yes	57	0	398	0	0			0	0			1				0	
6.6.1	win	2023-06-27	13:38:08	13:45:13	421226	5f3d6f7010ad88124f3906e2	3	1	main_slash	7	main_slash	103	stimuli_target_diamondsquares.svg	stimuli_distractor_diamondtriangles.svg	24	yes	53	1	600	0	0			0	0			1				0	
6.6.1	win	2023-06-27	13:38:08	13:45:13	421226	5f3d6f7010ad88124f3906e2	3	1	main_slash	7	advance_on_keypress_SLASH	104	stimuli_target_diamondsquares.svg	stimuli_distractor_diamondtriangles.svg	24	yes	57	0	410	0	0			0	0			1				0	
6.6.1	win	2023-06-27	13:38:08	13:45:14	422875	5f3d6f7010ad88124f3906e2	3	1	main_slash	7	main_slash	105	stimuli_distractor_diamondtriangles.svg	stimuli_target_squarediamonds.svg	16	yes	53	1	607	0	0			0	0			1				0	
6.6.1	win	2023-06-27	13:38:08	13:45:14	422875	5f3d6f7010ad88124f3906e2	3	1	main_slash	7	advance_on_keypress_SLASH	106	stimuli_distractor_diamondtriangles.svg	stimuli_target_squarediamonds.svg	16	yes	57	0	320	0	0			0	0			1				0	
6.6.1	win	2023-06-27	13:38:08	13:45:17	425829	5f3d6f7010ad88124f3906e2	3	1	main_slash	7	main_slash	107	stimuli_distractor_trianglediamonds.svg	stimuli_distractor_trianglediamonds.svg	33	no	0	1	2000	0	0			0	0			1				0	
6.6.1	win	2023-06-27	13:38:08	13:45:17	425829	5f3d6f7010ad88124f3906e2	3	1	main_slash	7	advance_on_keypress_SLASH	108	stimuli_distractor_trianglediamonds.svg	stimuli_distractor_trianglediamonds.svg	33	no	57	0	475	0	0			0	0			1				0	
6.6.1	win	2023-06-27	13:38:08	13:45:19	427634	5f3d6f7010ad88124f3906e2	3	1	main_slash	7	main_slash	109	stimuli_distractor_trianglediamonds.svg	stimuli_target_squaretriangles.svg	11	yes	53	1	709	0	0			0	0			1				0	
6.6.1	win	2023-06-27	13:38:08	13:45:19	427634	5f3d6f7010ad88124f3906e2	3	1	main_slash	7	advance_on_keypress_SLASH	110	stimuli_distractor_trianglediamonds.svg	stimuli_target_squaretriangles.svg	11	yes	57	0	427	0	0			0	0			1				0	
6.6.1	win	2023-06-27	13:38:08	13:45:21	429426	5f3d6f7010ad88124f3906e2	3	1	main_slash	7	main_slash	111	stimuli_target_rectanglediamonds.svg	stimuli_distractor_diamondtriangles.svg	6	yes	53	1	726	0	0			0	0			1				0	
6.6.1	win	2023-06-27	13:38:08	13:45:21	429426	5f3d6f7010ad88124f3906e2	3	1	main_slash	7	advance_on_keypress_SLASH	112	stimuli_target_rectanglediamonds.svg	stimuli_distractor_diamondtriangles.svg	6	yes	57	0	415	0	0			0	0			1				0	
6.6.1	win	2023-06-27	13:38:08	13:45:24	432476	5f3d6f7010ad88124f3906e2	3	1	main_slash	7	main_slash	113	stimuli_distractor_diamondtriangles.svg	stimuli_distractor_trianglediamonds.svg	38	no	0	1	2000	0	0			0	0			1				0	
6.6.1	win	2023-06-27	13:38:08	13:45:24	432476	5f3d6f7010ad88124f3906e2	3	1	main_slash	7	advance_on_keypress_SLASH	114	stimuli_distractor_diamondtriangles.svg	stimuli_distractor_trianglediamonds.svg	38	no	57	0	412	0	0			0	0			1				0	
6.6.1	win	2023-06-27	13:38:08	13:45:26	434402	5f3d6f7010ad88124f3906e2	3	1	main_slash	7	main_slash	115	stimuli_target_rectangletriangles.svg	stimuli_distractor_diamondtriangles.svg	5	yes	53	1	883	0	0			0	0			1				0	
6.6.1	win	2023-06-27	13:38:08	13:45:26	434402	5f3d6f7010ad88124f3906e2	3	1	main_slash	7	advance_on_keypress_SLASH	116	stimuli_target_rectangletriangles.svg	stimuli_distractor_diamondtriangles.svg	5	yes	57	0	429	0	0			0	0			1				0	
6.6.1	win	2023-06-27	13:38:08	13:45:28	436066	5f3d6f7010ad88124f3906e2	3	1	main_slash	7	main_slash	117	stimuli_distractor_diamondtriangles.svg	stimuli_target_diamondsquares.svg	32	yes	53	1	599	0	0			0	0			1				0	
6.6.1	win	2023-06-27	13:38:08	13:45:28	436066	5f3d6f7010ad88124f3906e2	3	1	main_slash	7	advance_on_keypress_SLASH	118	stimuli_distractor_diamondtriangles.svg	stimuli_target_diamondsquares.svg	32	yes	57	0	462	0	0			0	0			1				0	
6.6.1	win	2023-06-27	13:38:08	13:45:31	439150	5f3d6f7010ad88124f3906e2	3	1	main_slash	7	main_slash	119	stimuli_distractor_trianglediamonds.svg	stimuli_distractor_diamondtriangles.svg	35	no	0	1	2000	0	0			0	0			1				0	
6.6.1	win	2023-06-27	13:38:08	13:45:31	439150	5f3d6f7010ad88124f3906e2	3	1	main_slash	7	advance_on_keypress_SLASH	120	stimuli_distractor_trianglediamonds.svg	stimuli_distractor_diamondtriangles.svg	35	no	57	0	387	0	0			0	0			1				0	
6.6.1	win	2023-06-27	13:38:08	13:45:32	440882	5f3d6f7010ad88124f3906e2	3	1	main_slash	7	main_slash	121	stimuli_distractor_trianglediamonds.svg	stimuli_target_squarediamonds.svg	12	yes	53	1	717	0	0			0	0			1				0	
6.6.1	win	2023-06-27	13:38:08	13:45:32	440882	5f3d6f7010ad88124f3906e2	3	1	main_slash	7	advance_on_keypress_SLASH	122	stimuli_distractor_trianglediamonds.svg	stimuli_target_squarediamonds.svg	12	yes	57	0	524	0	0			0	0			1				0	
6.6.1	win	2023-06-27	13:38:08	13:45:34	442675	5f3d6f7010ad88124f3906e2	3	1	main_slash	7	main_slash	123	stimuli_distractor_trianglediamonds.svg	stimuli_target_rectangletriangles.svg	9	yes	53	1	640	0	0			0	0			1				0	
6.6.1	win	2023-06-27	13:38:08	13:45:34	442675	5f3d6f7010ad88124f3906e2	3	1	main_slash	7	advance_on_keypress_SLASH	124	stimuli_distractor_trianglediamonds.svg	stimuli_target_rectangletriangles.svg	9	yes	57	0	418	0	0			0	0			1				0	
6.6.1	win	2023-06-27	13:38:08	13:45:36	444379	5f3d6f7010ad88124f3906e2	3	1	main_slash	7	main_slash	125	stimuli_target_rectanglediamonds.svg	stimuli_distractor_trianglediamonds.svg	2	yes	53	1	649	0	0			0	0			1				0	
6.6.1	win	2023-06-27	13:38:08	13:45:36	444379	5f3d6f7010ad88124f3906e2	3	1	main_slash	7	advance_on_keypress_SLASH	126	stimuli_target_rectanglediamonds.svg	stimuli_distractor_trianglediamonds.svg	2	yes	57	0	331	0	0			0	0			1				0	
6.6.1	win	2023-06-27	13:38:08	13:45:38	446042	5f3d6f7010ad88124f3906e2	3	1	main_slash	7	main_slash	127	stimuli_target_trianglerectangles.svg	stimuli_distractor_trianglediamonds.svg	17	yes	53	1	712	0	0			0	0			1				0	
6.6.1	win	2023-06-27	13:38:08	13:45:38	446042	5f3d6f7010ad88124f3906e2	3	1	main_slash	7	advance_on_keypress_SLASH	128	stimuli_target_trianglerectangles.svg	stimuli_distractor_trianglediamonds.svg	17	yes	57	0	286	0	0			0	0			1				0	
6.6.1	win	2023-06-27	13:38:08	13:45:39	447691	5f3d6f7010ad88124f3906e2	3	1	main_slash	7	main_slash	129	stimuli_distractor_trianglediamonds.svg	stimuli_target_rectanglediamonds.svg	10	yes	53	1	731	0	0			0	0			1				0	
6.6.1	win	2023-06-27	13:38:08	13:45:39	447691	5f3d6f7010ad88124f3906e2	3	1	main_slash	7	advance_on_keypress_SLASH	130	stimuli_distractor_trianglediamonds.svg	stimuli_target_rectanglediamonds.svg	10	yes	57	0	301	0	0			0	0			1				0	
6.6.1	win	2023-06-27	13:38:08	13:45:41	449226	5f3d6f7010ad88124f3906e2	3	1	main_slash	7	main_slash	131	stimuli_distractor_diamondtriangles.svg	stimuli_target_diamondrectangles.svg	31	yes	53	1	612	0	0			0	0			1				0	
6.6.1	win	2023-06-27	13:38:08	13:45:41	449226	5f3d6f7010ad88124f3906e2	3	1	main_slash	7	advance_on_keypress_SLASH	132	stimuli_distractor_diamondtriangles.svg	stimuli_target_diamondrectangles.svg	31	yes	57	0	406	0	0			0	0			1				0	
6.6.1	win	2023-06-27	13:38:08	13:45:44	452256	5f3d6f7010ad88124f3906e2	3	1	main_slash	7	main_slash	133	stimuli_distractor_diamondtriangles.svg	stimuli_distractor_diamondtriangles.svg	40	no	0	1	2000	0	0			0	0			1				0	
6.6.1	win	2023-06-27	13:38:08	13:45:44	452256	5f3d6f7010ad88124f3906e2	3	1	main_slash	7	advance_on_keypress_SLASH	134	stimuli_distractor_diamondtriangles.svg	stimuli_distractor_diamondtriangles.svg	40	no	57	0	496	0	0			0	0			1				0	
6.6.1	win	2023-06-27	13:38:08	13:45:46	453955	5f3d6f7010ad88124f3906e2	3	1	main_slash	7	main_slash	135	stimuli_target_trianglesquares.svg	stimuli_distractor_diamondtriangles.svg	22	yes	53	1	576	0	0			0	0			1				0	
6.6.1	win	2023-06-27	13:38:08	13:45:46	453955	5f3d6f7010ad88124f3906e2	3	1	main_slash	7	advance_on_keypress_SLASH	136	stimuli_target_trianglesquares.svg	stimuli_distractor_diamondtriangles.svg	22	yes	57	0	580	0	0			0	0			1				0	
6.6.1	win	2023-06-27	13:38:08	13:45:47	455803	5f3d6f7010ad88124f3906e2	3	1	main_slash	7	main_slash	137	stimuli_target_squarediamonds.svg	stimuli_distractor_diamondtriangles.svg	8	yes	53	1	635	0	0			0	0			1				0	
6.6.1	win	2023-06-27	13:38:08	13:45:47	455803	5f3d6f7010ad88124f3906e2	3	1	main_slash	7	advance_on_keypress_SLASH	138	stimuli_target_squarediamonds.svg	stimuli_distractor_diamondtriangles.svg	8	yes	57	0	370	0	0			0	0			1				0	
6.6.1	win	2023-06-27	13:38:08	13:45:50	458795	5f3d6f7010ad88124f3906e2	3	1	main_slash	7	main_slash	139	stimuli_distractor_trianglediamonds.svg	stimuli_distractor_trianglediamonds.svg	34	no	0	1	2000	0	0			0	0			1				0	
6.6.1	win	2023-06-27	13:38:08	13:45:50	458795	5f3d6f7010ad88124f3906e2	3	1	main_slash	7	advance_on_keypress_SLASH	140	stimuli_distractor_trianglediamonds.svg	stimuli_distractor_trianglediamonds.svg	34	no	57	0	444	0	0			0	0			1				0	
6.6.1	win	2023-06-27	13:38:08	13:45:52	460474	5f3d6f7010ad88124f3906e2	3	1	main_slash	7	main_slash	141	stimuli_distractor_diamondtriangles.svg	stimuli_target_trianglesquares.svg	30	yes	53	1	609	0	0			0	0			1				0	
6.6.1	win	2023-06-27	13:38:08	13:45:52	460474	5f3d6f7010ad88124f3906e2	3	1	main_slash	7	advance_on_keypress_SLASH	142	stimuli_distractor_diamondtriangles.svg	stimuli_target_trianglesquares.svg	30	yes	57	0	467	0	0			0	0			1				0	
6.6.1	win	2023-06-27	13:38:08	13:45:54	462171	5f3d6f7010ad88124f3906e2	3	1	main_slash	7	main_slash	143	stimuli_target_diamondrectangles.svg	stimuli_distractor_diamondtriangles.svg	23	yes	53	1	597	0	0			0	0			1				0	
6.6.1	win	2023-06-27	13:38:08	13:45:54	462171	5f3d6f7010ad88124f3906e2	3	1	main_slash	7	advance_on_keypress_SLASH	144	stimuli_target_diamondrectangles.svg	stimuli_distractor_diamondtriangles.svg	23	yes	57	0	380	0	0			0	0			1				0	
6.6.1	win	2023-06-27	13:38:08	13:45:55	463810	5f3d6f7010ad88124f3906e2	3	1	main_slash	7	main_slash	145	stimuli_distractor_trianglediamonds.svg	stimuli_target_trianglerectangles.svg	25	yes	53	1	635	0	0			0	0			1				0	
6.6.1	win	2023-06-27	13:38:08	13:45:55	463810	5f3d6f7010ad88124f3906e2	3	1	main_slash	7	advance_on_keypress_SLASH	146	stimuli_distractor_trianglediamonds.svg	stimuli_target_trianglerectangles.svg	25	yes	57	0	250	0	0			0	0			1				0	
6.6.1	win	2023-06-27	13:38:08	13:45:58	466683	5f3d6f7010ad88124f3906e2	3	1	main_slash	7	main_slash	147	stimuli_distractor_diamondtriangles.svg	stimuli_distractor_diamondtriangles.svg	39	no	0	1	2000	0	0			0	0			1				0	
6.6.1	win	2023-06-27	13:38:08	13:45:58	466683	5f3d6f7010ad88124f3906e2	3	1	main_slash	7	advance_on_keypress_SLASH	148	stimuli_distractor_diamondtriangles.svg	stimuli_distractor_diamondtriangles.svg	39	no	57	0	341	0	0			0	0			1				0	
6.6.1	win	2023-06-27	13:38:08	13:46:00	468514	5f3d6f7010ad88124f3906e2	3	1	main_slash	7	main_slash	149	stimuli_distractor_diamondtriangles.svg	stimuli_target_trianglerectangles.svg	29	yes	53	1	868	0	0			0	0			1				0	
6.6.1	win	2023-06-27	13:38:08	13:46:00	468514	5f3d6f7010ad88124f3906e2	3	1	main_slash	7	advance_on_keypress_SLASH	150	stimuli_distractor_diamondtriangles.svg	stimuli_target_trianglerectangles.svg	29	yes	57	0	419	0	0			0	0			1				0	
6.6.1	win	2023-06-27	13:38:08	13:46:02	470346	5f3d6f7010ad88124f3906e2	3	1	main_slash	7	main_slash	151	stimuli_target_rectangletriangles.svg	stimuli_distractor_trianglediamonds.svg	1	yes	53	1	778	0	0			0	0			1				0	
6.6.1	win	2023-06-27	13:38:08	13:46:02	470346	5f3d6f7010ad88124f3906e2	3	1	main_slash	7	advance_on_keypress_SLASH	152	stimuli_target_rectangletriangles.svg	stimuli_distractor_trianglediamonds.svg	1	yes	57	0	430	0	0			0	0			1				0	
6.6.1	win	2023-06-27	13:38:08	13:46:04	472019	5f3d6f7010ad88124f3906e2	3	1	main_slash	7	main_slash	153	stimuli_target_squarediamonds.svg	stimuli_distractor_trianglediamonds.svg	4	yes	53	1	608	0	0			0	0			1				0	
6.6.1	win	2023-06-27	13:38:08	13:46:04	472019	5f3d6f7010ad88124f3906e2	3	1	main_slash	7	advance_on_keypress_SLASH	154	stimuli_target_squarediamonds.svg	stimuli_distractor_trianglediamonds.svg	4	yes	57	0	410	0	0			0	0			1				0	
6.6.1	win	2023-06-27	13:38:08	13:46:05	473826	5f3d6f7010ad88124f3906e2	3	1	main_slash	7	main_slash	155	stimuli_target_diamondrectangles.svg	stimuli_distractor_trianglediamonds.svg	19	yes	53	1	775	0	0			0	0			1				0	
6.6.1	win	2023-06-27	13:38:08	13:46:05	473826	5f3d6f7010ad88124f3906e2	3	1	main_slash	7	advance_on_keypress_SLASH	156	stimuli_target_diamondrectangles.svg	stimuli_distractor_trianglediamonds.svg	19	yes	57	0	323	0	0			0	0			1				0	
6.6.1	win	2023-06-27	13:38:08	13:46:08	476051	5f3d6f7010ad88124f3906e2	3	1	main_slash	7	main_slash	157	stimuli_distractor_diamondtriangles.svg	stimuli_target_squaretriangles.svg	15	yes	53	1	1264	0	0			0	0			1				0	
6.6.1	win	2023-06-27	13:38:08	13:46:08	476051	5f3d6f7010ad88124f3906e2	3	1	main_slash	7	advance_on_keypress_SLASH	158	stimuli_distractor_diamondtriangles.svg	stimuli_target_squaretriangles.svg	15	yes	57	0	371	0	0			0	0			1				0	
6.6.1	win	2023-06-27	13:38:08	13:46:11	479042	5f3d6f7010ad88124f3906e2	3	1	main_slash	7	main_slash	159	stimuli_distractor_diamondtriangles.svg	stimuli_distractor_trianglediamonds.svg	37	no	0	1	2000	0	0			0	0			1				0	
6.6.1	win	2023-06-27	13:38:08	13:46:11	479042	5f3d6f7010ad88124f3906e2	3	1	main_slash	7	advance_on_keypress_SLASH	160	stimuli_distractor_diamondtriangles.svg	stimuli_distractor_trianglediamonds.svg	37	no	57	0	502	0	0			0	0			1				0	
6.6.1	win	2023-06-27	13:38:08	13:46:55	523186	5f3d6f7010ad88124f3906e2	3	1	practice_z	9	practice_z	1	stimuli_target_rectanglediamonds.svg	stimuli_distractor_trianglediamonds.svg	4	yes	44	1	367	0	0			0	0			1				0	
6.6.1	win	2023-06-27	13:38:08	13:46:55	523186	5f3d6f7010ad88124f3906e2	3	1	practice_z	9	advance_on_keypress_ZEE	2	stimuli_target_rectanglediamonds.svg	stimuli_distractor_trianglediamonds.svg	4	yes	57	0	495	0	0			0	0			1				0	
6.6.1	win	2023-06-27	13:38:08	13:46:57	525703	5f3d6f7010ad88124f3906e2	3	1	practice_z	9	practice_z	3	stimuli_target_diamondsquares.svg	stimuli_distractor_trianglediamonds.svg	6	yes	44	1	375	0	0			0	0			1				0	
6.6.1	win	2023-06-27	13:38:08	13:46:57	525703	5f3d6f7010ad88124f3906e2	3	1	practice_z	9	advance_on_keypress_ZEE	4	stimuli_target_diamondsquares.svg	stimuli_distractor_trianglediamonds.svg	6	yes	57	0	341	0	0			0	0			1				0	
6.6.1	win	2023-06-27	13:38:08	13:47:00	528003	5f3d6f7010ad88124f3906e2	3	1	practice_z	9	practice_z	5	stimuli_distractor_diamondtriangles.svg	stimuli_distractor_trianglediamonds.svg	14	no	44	0	324	0	0			0	0			1				0	
6.6.1	win	2023-06-27	13:38:08	13:47:00	528003	5f3d6f7010ad88124f3906e2	3	1	practice_z	9	advance_on_keypress_ZEE	6	stimuli_distractor_diamondtriangles.svg	stimuli_distractor_trianglediamonds.svg	14	no	57	0	309	0	0			0	0			1				0	
6.6.1	win	2023-06-27	13:38:08	13:47:02	530338	5f3d6f7010ad88124f3906e2	3	1	practice_z	9	practice_z	7	stimuli_target_rectanglediamonds.svg	stimuli_distractor_diamondtriangles.svg	1	yes	44	1	391	0	0			0	0			1				0	
6.6.1	win	2023-06-27	13:38:08	13:47:02	530338	5f3d6f7010ad88124f3906e2	3	1	practice_z	9	advance_on_keypress_ZEE	8	stimuli_target_rectanglediamonds.svg	stimuli_distractor_diamondtriangles.svg	1	yes	57	0	485	0	0			0	0			1				0	
6.6.1	win	2023-06-27	13:38:08	13:47:06	534457	5f3d6f7010ad88124f3906e2	3	1	practice_z	9	practice_z	9	stimuli_distractor_diamondtriangles.svg	stimuli_distractor_diamondtriangles.svg	13	no	0	1	2000	0	0			0	0			1				0	
6.6.1	win	2023-06-27	13:38:08	13:47:06	534457	5f3d6f7010ad88124f3906e2	3	1	practice_z	9	advance_on_keypress_ZEE	10	stimuli_distractor_diamondtriangles.svg	stimuli_distractor_diamondtriangles.svg	13	no	57	0	359	0	0			0	0			1				0	
6.6.1	win	2023-06-27	13:38:08	13:47:10	538447	5f3d6f7010ad88124f3906e2	3	1	practice_z	9	practice_z	11	stimuli_distractor_trianglediamonds.svg	stimuli_distractor_diamondtriangles.svg	16	no	0	1	2000	0	0			0	0			1				0	
6.6.1	win	2023-06-27	13:38:08	13:47:10	538447	5f3d6f7010ad88124f3906e2	3	1	practice_z	9	advance_on_keypress_ZEE	12	stimuli_distractor_trianglediamonds.svg	stimuli_distractor_diamondtriangles.svg	16	no	57	0	344	0	0			0	0			1				0	
6.6.1	win	2023-06-27	13:38:08	13:47:13	541074	5f3d6f7010ad88124f3906e2	3	1	practice_z	9	practice_z	13	stimuli_distractor_trianglediamonds.svg	stimuli_target_squarediamonds.svg	11	yes	44	1	648	0	0			0	0			1				0	
6.6.1	win	2023-06-27	13:38:08	13:47:13	541074	5f3d6f7010ad88124f3906e2	3	1	practice_z	9	advance_on_keypress_ZEE	14	stimuli_distractor_trianglediamonds.svg	stimuli_target_squarediamonds.svg	11	yes	57	0	491	0	0			0	0			1				0	
6.6.1	win	2023-06-27	13:38:08	13:47:15	543786	5f3d6f7010ad88124f3906e2	3	1	practice_z	9	practice_z	15	stimuli_distractor_diamondtriangles.svg	stimuli_target_rectangletriangles.svg	7	yes	44	1	600	0	0			0	0			1				0	
6.6.1	win	2023-06-27	13:38:08	13:47:15	543786	5f3d6f7010ad88124f3906e2	3	1	practice_z	9	advance_on_keypress_ZEE	16	stimuli_distractor_diamondtriangles.svg	stimuli_target_rectangletriangles.svg	7	yes	57	0	318	0	0			0	0			1				0	
6.6.1	win	2023-06-27	13:38:08	13:47:19	547723	5f3d6f7010ad88124f3906e2	3	1	practice_z	9	practice_z	17	stimuli_distractor_trianglediamonds.svg	stimuli_distractor_trianglediamonds.svg	15	no	0	1	2000	0	0			0	0			1				0	
6.6.1	win	2023-06-27	13:38:08	13:47:19	547723	5f3d6f7010ad88124f3906e2	3	1	practice_z	9	advance_on_keypress_ZEE	18	stimuli_distractor_trianglediamonds.svg	stimuli_distractor_trianglediamonds.svg	15	no	57	0	580	0	0			0	0			1				0	
6.6.1	win	2023-06-27	13:38:08	13:47:22	550522	5f3d6f7010ad88124f3906e2	3	1	practice_z	9	practice_z	19	stimuli_distractor_diamondtriangles.svg	stimuli_target_diamondrectangles.svg	8	yes	44	1	596	0	0			0	0			1				0	
6.6.1	win	2023-06-27	13:38:08	13:47:22	550522	5f3d6f7010ad88124f3906e2	3	1	practice_z	9	advance_on_keypress_ZEE	20	stimuli_distractor_diamondtriangles.svg	stimuli_target_diamondrectangles.svg	8	yes	57	0	761	0	0			0	0			1				0	
6.6.1	win	2023-06-27	13:38:08	13:47:25	553499	5f3d6f7010ad88124f3906e2	3	1	practice_z	9	practice_z	21	stimuli_distractor_trianglediamonds.svg	stimuli_target_diamondrectangles.svg	12	yes	44	1	582	0	0			0	0			1				0	
6.6.1	win	2023-06-27	13:38:08	13:47:25	553499	5f3d6f7010ad88124f3906e2	3	1	practice_z	9	advance_on_keypress_ZEE	22	stimuli_distractor_trianglediamonds.svg	stimuli_target_diamondrectangles.svg	12	yes	57	0	737	0	0			0	0			1				0	
6.6.1	win	2023-06-27	13:38:08	13:47:28	556491	5f3d6f7010ad88124f3906e2	3	1	practice_z	9	practice_z	23	stimuli_target_squarediamonds.svg	stimuli_distractor_diamondtriangles.svg	2	yes	44	1	624	0	0			0	0			1				0	
6.6.1	win	2023-06-27	13:38:08	13:47:28	556491	5f3d6f7010ad88124f3906e2	3	1	practice_z	9	advance_on_keypress_ZEE	24	stimuli_target_squarediamonds.svg	stimuli_distractor_diamondtriangles.svg	2	yes	57	0	388	0	0			0	0			1				0	
6.6.1	win	2023-06-27	13:38:08	13:47:31	559082	5f3d6f7010ad88124f3906e2	3	1	practice_z	9	practice_z	25	stimuli_distractor_trianglediamonds.svg	stimuli_target_rectanglediamonds.svg	10	yes	44	1	574	0	0			0	0			1				0	
6.6.1	win	2023-06-27	13:38:08	13:47:31	559082	5f3d6f7010ad88124f3906e2	3	1	practice_z	9	advance_on_keypress_ZEE	26	stimuli_distractor_trianglediamonds.svg	stimuli_target_rectanglediamonds.svg	10	yes	57	0	430	0	0			0	0			1				0	
6.6.1	win	2023-06-27	13:38:08	13:47:33	561586	5f3d6f7010ad88124f3906e2	3	1	practice_z	9	practice_z	27	stimuli_target_squarediamonds.svg	stimuli_distractor_trianglediamonds.svg	5	yes	44	1	449	0	0			0	0			1				0	
6.6.1	win	2023-06-27	13:38:08	13:47:33	561586	5f3d6f7010ad88124f3906e2	3	1	practice_z	9	advance_on_keypress_ZEE	28	stimuli_target_squarediamonds.svg	stimuli_distractor_trianglediamonds.svg	5	yes	57	0	145	0	0			0	0			1				0	
6.6.1	win	2023-06-27	13:38:08	13:47:36	563964	5f3d6f7010ad88124f3906e2	3	1	practice_z	9	practice_z	29	stimuli_distractor_diamondtriangles.svg	stimuli_target_trianglerectangles.svg	9	yes	44	1	596	0	0			0	0			1				0	
6.6.1	win	2023-06-27	13:38:08	13:47:36	563964	5f3d6f7010ad88124f3906e2	3	1	practice_z	9	advance_on_keypress_ZEE	30	stimuli_distractor_diamondtriangles.svg	stimuli_target_trianglerectangles.svg	9	yes	57	0	449	0	0			0	0			1				0	
6.6.1	win	2023-06-27	13:38:08	13:47:38	566531	5f3d6f7010ad88124f3906e2	3	1	practice_z	9	practice_z	31	stimuli_target_diamondsquares.svg	stimuli_distractor_diamondtriangles.svg	3	yes	44	1	494	0	0			0	0			1				0	
6.6.1	win	2023-06-27	13:38:08	13:47:38	566531	5f3d6f7010ad88124f3906e2	3	1	practice_z	9	advance_on_keypress_ZEE	32	stimuli_target_diamondsquares.svg	stimuli_distractor_diamondtriangles.svg	3	yes	57	0	250	0	0			0	0			1				0	
6.6.1	win	2023-06-27	13:38:08	13:47:43	571098	5f3d6f7010ad88124f3906e2	3	1	main_z	11	main_z	1	stimuli_distractor_trianglediamonds.svg	stimuli_target_squarediamonds.svg	12	yes	44	1	403	0	0			0	0			1				0	
6.6.1	win	2023-06-27	13:38:08	13:47:43	571098	5f3d6f7010ad88124f3906e2	3	1	main_z	11	advance_on_keypress_ZEE	2	stimuli_distractor_trianglediamonds.svg	stimuli_target_squarediamonds.svg	12	yes	57	0	797	0	0			0	0			1				0	
6.6.1	win	2023-06-27	13:38:08	13:47:45	572938	5f3d6f7010ad88124f3906e2	3	1	main_z	11	main_z	3	stimuli_distractor_diamondtriangles.svg	stimuli_target_squarediamonds.svg	16	yes	44	1	415	0	0			0	0			1				0	
6.6.1	win	2023-06-27	13:38:08	13:47:45	572938	5f3d6f7010ad88124f3906e2	3	1	main_z	11	advance_on_keypress_ZEE	4	stimuli_distractor_diamondtriangles.svg	stimuli_target_squarediamonds.svg	16	yes	57	0	787	0	0			0	0			1				0	
6.6.1	win	2023-06-27	13:38:08	13:47:46	574826	5f3d6f7010ad88124f3906e2	3	1	main_z	11	main_z	5	stimuli_distractor_diamondtriangles.svg	stimuli_target_diamondrectangles.svg	31	yes	44	1	461	0	0			0	0			1				0	
6.6.1	win	2023-06-27	13:38:08	13:47:46	574826	5f3d6f7010ad88124f3906e2	3	1	main_z	11	advance_on_keypress_ZEE	6	stimuli_distractor_diamondtriangles.svg	stimuli_target_diamondrectangles.svg	31	yes	57	0	569	0	0			0	0			1				0	
6.6.1	win	2023-06-27	13:38:08	13:47:48	576459	5f3d6f7010ad88124f3906e2	3	1	main_z	11	main_z	7	stimuli_target_rectanglediamonds.svg	stimuli_distractor_diamondtriangles.svg	6	yes	44	1	438	0	0			0	0			1				0	
6.6.1	win	2023-06-27	13:38:08	13:47:48	576459	5f3d6f7010ad88124f3906e2	3	1	main_z	11	advance_on_keypress_ZEE	8	stimuli_target_rectanglediamonds.svg	stimuli_distractor_diamondtriangles.svg	6	yes	57	0	461	0	0			0	0			1				0	
6.6.1	win	2023-06-27	13:38:08	13:47:51	579542	5f3d6f7010ad88124f3906e2	3	1	main_z	11	main_z	9	stimuli_distractor_diamondtriangles.svg	stimuli_distractor_diamondtriangles.svg	39	no	0	1	2000	0	0			0	0			1				0	
6.6.1	win	2023-06-27	13:38:08	13:47:51	579542	5f3d6f7010ad88124f3906e2	3	1	main_z	11	advance_on_keypress_ZEE	10	stimuli_distractor_diamondtriangles.svg	stimuli_distractor_diamondtriangles.svg	39	no	57	0	466	0	0			0	0			1				0	
6.6.1	win	2023-06-27	13:38:08	13:47:53	581091	5f3d6f7010ad88124f3906e2	3	1	main_z	11	main_z	11	stimuli_target_squaretriangles.svg	stimuli_distractor_diamondtriangles.svg	7	yes	44	1	452	0	0			0	0			1				0	
6.6.1	win	2023-06-27	13:38:08	13:47:53	581091	5f3d6f7010ad88124f3906e2	3	1	main_z	11	advance_on_keypress_ZEE	12	stimuli_target_squaretriangles.svg	stimuli_distractor_diamondtriangles.svg	7	yes	57	0	566	0	0			0	0			1				0	
6.6.1	win	2023-06-27	13:38:08	13:47:56	584280	5f3d6f7010ad88124f3906e2	3	1	main_z	11	main_z	13	stimuli_distractor_trianglediamonds.svg	stimuli_distractor_diamondtriangles.svg	36	no	0	1	2000	0	0			0	0			1				0	
6.6.1	win	2023-06-27	13:38:08	13:47:56	584280	5f3d6f7010ad88124f3906e2	3	1	main_z	11	advance_on_keypress_ZEE	14	stimuli_distractor_trianglediamonds.svg	stimuli_distractor_diamondtriangles.svg	36	no	57	0	384	0	0			0	0			1				0	
6.6.1	win	2023-06-27	13:38:08	13:47:57	585898	5f3d6f7010ad88124f3906e2	3	1	main_z	11	main_z	15	stimuli_target_trianglerectangles.svg	stimuli_distractor_trianglediamonds.svg	17	yes	44	1	616	0	0			0	0			1				0	
6.6.1	win	2023-06-27	13:38:08	13:47:57	585898	5f3d6f7010ad88124f3906e2	3	1	main_z	11	advance_on_keypress_ZEE	16	stimuli_target_trianglerectangles.svg	stimuli_distractor_trianglediamonds.svg	17	yes	57	0	564	0	0			0	0			1				0	
6.6.1	win	2023-06-27	13:38:08	13:48:01	589098	5f3d6f7010ad88124f3906e2	3	1	main_z	11	main_z	17	stimuli_distractor_trianglediamonds.svg	stimuli_distractor_trianglediamonds.svg	34	no	0	1	2000	0	0			0	0			1				0	
6.6.1	win	2023-06-27	13:38:08	13:48:01	589098	5f3d6f7010ad88124f3906e2	3	1	main_z	11	advance_on_keypress_ZEE	18	stimuli_distractor_trianglediamonds.svg	stimuli_distractor_trianglediamonds.svg	34	no	57	0	430	0	0			0	0			1				0	
6.6.1	win	2023-06-27	13:38:08	13:48:02	590762	5f3d6f7010ad88124f3906e2	3	1	main_z	11	main_z	19	stimuli_target_squaretriangles.svg	stimuli_distractor_trianglediamonds.svg	3	yes	44	1	608	0	0			0	0			1				0	
6.6.1	win	2023-06-27	13:38:08	13:48:02	590762	5f3d6f7010ad88124f3906e2	3	1	main_z	11	advance_on_keypress_ZEE	20	stimuli_target_squaretriangles.svg	stimuli_distractor_trianglediamonds.svg	3	yes	57	0	570	0	0			0	0			1				0	
6.6.1	win	2023-06-27	13:38:08	13:48:04	592538	5f3d6f7010ad88124f3906e2	3	1	main_z	11	main_z	21	stimuli_distractor_trianglediamonds.svg	stimuli_target_rectanglediamonds.svg	10	yes	44	1	582	0	0			0	0			1				0	
6.6.1	win	2023-06-27	13:38:08	13:48:04	592538	5f3d6f7010ad88124f3906e2	3	1	main_z	11	advance_on_keypress_ZEE	22	stimuli_distractor_trianglediamonds.svg	stimuli_target_rectanglediamonds.svg	10	yes	57	0	466	0	0			0	0			1				0	
6.6.1	win	2023-06-27	13:38:08	13:48:06	594122	5f3d6f7010ad88124f3906e2	3	1	main_z	11	main_z	23	stimuli_target_rectangletriangles.svg	stimuli_distractor_trianglediamonds.svg	1	yes	44	1	485	0	0			0	0			1				0	
6.6.1	win	2023-06-27	13:38:08	13:48:06	594122	5f3d6f7010ad88124f3906e2	3	1	main_z	11	advance_on_keypress_ZEE	24	stimuli_target_rectangletriangles.svg	stimuli_distractor_trianglediamonds.svg	1	yes	57	0	526	0	0			0	0			1				0	
6.6.1	win	2023-06-27	13:38:08	13:48:07	595826	5f3d6f7010ad88124f3906e2	3	1	main_z	11	main_z	25	stimuli_distractor_diamondtriangles.svg	stimuli_target_trianglerectangles.svg	29	yes	44	1	547	0	0			0	0			1				0	
6.6.1	win	2023-06-27	13:38:08	13:48:07	595826	5f3d6f7010ad88124f3906e2	3	1	main_z	11	advance_on_keypress_ZEE	26	stimuli_distractor_diamondtriangles.svg	stimuli_target_trianglerectangles.svg	29	yes	57	0	402	0	0			0	0			1				0	
6.6.1	win	2023-06-27	13:38:08	13:48:10	598868	5f3d6f7010ad88124f3906e2	3	1	main_z	11	main_z	27	stimuli_distractor_trianglediamonds.svg	stimuli_distractor_diamondtriangles.svg	35	no	0	1	2000	0	0			0	0			1				0	
6.6.1	win	2023-06-27	13:38:08	13:48:10	598868	5f3d6f7010ad88124f3906e2	3	1	main_z	11	advance_on_keypress_ZEE	28	stimuli_distractor_trianglediamonds.svg	stimuli_distractor_diamondtriangles.svg	35	no	57	0	380	0	0			0	0			1				0	
6.6.1	win	2023-06-27	13:38:08	13:48:12	600451	5f3d6f7010ad88124f3906e2	3	1	main_z	11	main_z	29	stimuli_target_squarediamonds.svg	stimuli_distractor_trianglediamonds.svg	4	yes	44	1	580	0	0			0	0			1				0	
6.6.1	win	2023-06-27	13:38:08	13:48:12	600451	5f3d6f7010ad88124f3906e2	3	1	main_z	11	advance_on_keypress_ZEE	30	stimuli_target_squarediamonds.svg	stimuli_distractor_trianglediamonds.svg	4	yes	57	0	552	0	0			0	0			1				0	
6.6.1	win	2023-06-27	13:38:08	13:48:14	602154	5f3d6f7010ad88124f3906e2	3	1	main_z	11	main_z	31	stimuli_distractor_trianglediamonds.svg	stimuli_target_diamondsquares.svg	28	yes	44	1	514	0	0			0	0			1				0	
6.6.1	win	2023-06-27	13:38:08	13:48:14	602154	5f3d6f7010ad88124f3906e2	3	1	main_z	11	advance_on_keypress_ZEE	32	stimuli_distractor_trianglediamonds.svg	stimuli_target_diamondsquares.svg	28	yes	57	0	444	0	0			0	0			1				0	
6.6.1	win	2023-06-27	13:38:08	13:48:15	603738	5f3d6f7010ad88124f3906e2	3	1	main_z	11	main_z	33	stimuli_distractor_diamondtriangles.svg	stimuli_target_rectanglediamonds.svg	14	yes	44	1	504	0	0			0	0			1				0	
6.6.1	win	2023-06-27	13:38:08	13:48:15	603738	5f3d6f7010ad88124f3906e2	3	1	main_z	11	advance_on_keypress_ZEE	34	stimuli_distractor_diamondtriangles.svg	stimuli_target_rectanglediamonds.svg	14	yes	57	0	453	0	0			0	0			1				0	
6.6.1	win	2023-06-27	13:38:08	13:48:17	605426	5f3d6f7010ad88124f3906e2	3	1	main_z	11	main_z	35	stimuli_target_trianglesquares.svg	stimuli_distractor_diamondtriangles.svg	22	yes	44	1	604	0	0			0	0			1				0	
6.6.1	win	2023-06-27	13:38:08	13:48:17	605426	5f3d6f7010ad88124f3906e2	3	1	main_z	11	advance_on_keypress_ZEE	36	stimuli_target_trianglesquares.svg	stimuli_distractor_diamondtriangles.svg	22	yes	57	0	510	0	0			0	0			1				0	
6.6.1	win	2023-06-27	13:38:08	13:48:19	607146	5f3d6f7010ad88124f3906e2	3	1	main_z	11	main_z	37	stimuli_distractor_diamondtriangles.svg	stimuli_target_rectangletriangles.svg	13	yes	44	1	576	0	0			0	0			1				0	
6.6.1	win	2023-06-27	13:38:08	13:48:19	607146	5f3d6f7010ad88124f3906e2	3	1	main_z	11	advance_on_keypress_ZEE	38	stimuli_distractor_diamondtriangles.svg	stimuli_target_rectangletriangles.svg	13	yes	57	0	396	0	0			0	0			1				0	
6.6.1	win	2023-06-27	13:38:08	13:48:22	610172	5f3d6f7010ad88124f3906e2	3	1	main_z	11	main_z	39	stimuli_distractor_trianglediamonds.svg	stimuli_distractor_trianglediamonds.svg	33	no	0	1	2000	0	0			0	0			1				0	
6.6.1	win	2023-06-27	13:38:08	13:48:22	610172	5f3d6f7010ad88124f3906e2	3	1	main_z	11	advance_on_keypress_ZEE	40	stimuli_distractor_trianglediamonds.svg	stimuli_distractor_trianglediamonds.svg	33	no	57	0	300	0	0			0	0			1				0	
6.6.1	win	2023-06-27	13:38:08	13:48:25	613095	5f3d6f7010ad88124f3906e2	3	1	main_z	11	main_z	41	stimuli_distractor_diamondtriangles.svg	stimuli_distractor_diamondtriangles.svg	40	no	0	1	2000	0	0			0	0			1				0	
6.6.1	win	2023-06-27	13:38:08	13:48:25	613095	5f3d6f7010ad88124f3906e2	3	1	main_z	11	advance_on_keypress_ZEE	42	stimuli_distractor_diamondtriangles.svg	stimuli_distractor_diamondtriangles.svg	40	no	57	0	313	0	0			0	0			1				0	
6.6.1	win	2023-06-27	13:38:08	13:48:28	616031	5f3d6f7010ad88124f3906e2	3	1	main_z	11	main_z	43	stimuli_distractor_diamondtriangles.svg	stimuli_distractor_trianglediamonds.svg	38	no	0	1	2000	0	0			0	0			1				0	
6.6.1	win	2023-06-27	13:38:08	13:48:28	616031	5f3d6f7010ad88124f3906e2	3	1	main_z	11	advance_on_keypress_ZEE	44	stimuli_distractor_diamondtriangles.svg	stimuli_distractor_trianglediamonds.svg	38	no	57	0	320	0	0			0	0			1				0	
6.6.1	win	2023-06-27	13:38:08	13:48:29	617546	5f3d6f7010ad88124f3906e2	3	1	main_z	11	main_z	45	stimuli_distractor_trianglediamonds.svg	stimuli_target_rectangletriangles.svg	9	yes	44	1	565	0	0			0	0			1				0	
6.6.1	win	2023-06-27	13:38:08	13:48:29	617546	5f3d6f7010ad88124f3906e2	3	1	main_z	11	advance_on_keypress_ZEE	46	stimuli_distractor_trianglediamonds.svg	stimuli_target_rectangletriangles.svg	9	yes	57	0	527	0	0			0	0			1				0	
6.6.1	win	2023-06-27	13:38:08	13:48:31	619482	5f3d6f7010ad88124f3906e2	3	1	main_z	11	main_z	47	stimuli_target_diamondsquares.svg	stimuli_distractor_diamondtriangles.svg	24	yes	44	1	780	0	0			0	0			1				0	
6.6.1	win	2023-06-27	13:38:08	13:48:31	619482	5f3d6f7010ad88124f3906e2	3	1	main_z	11	advance_on_keypress_ZEE	48	stimuli_target_diamondsquares.svg	stimuli_distractor_diamondtriangles.svg	24	yes	57	0	464	0	0			0	0			1				0	
6.6.1	win	2023-06-27	13:38:08	13:48:33	621226	5f3d6f7010ad88124f3906e2	3	1	main_z	11	main_z	49	stimuli_target_diamondsquares.svg	stimuli_distractor_trianglediamonds.svg	20	yes	44	1	655	0	0			0	0			1				0	
6.6.1	win	2023-06-27	13:38:08	13:48:33	621226	5f3d6f7010ad88124f3906e2	3	1	main_z	11	advance_on_keypress_ZEE	50	stimuli_target_diamondsquares.svg	stimuli_distractor_trianglediamonds.svg	20	yes	57	0	395	0	0			0	0			1				0	
6.6.1	win	2023-06-27	13:38:08	13:48:35	622914	5f3d6f7010ad88124f3906e2	3	1	main_z	11	main_z	51	stimuli_target_trianglerectangles.svg	stimuli_distractor_diamondtriangles.svg	21	yes	44	1	662	0	0			0	0			1				0	
6.6.1	win	2023-06-27	13:38:08	13:48:35	622914	5f3d6f7010ad88124f3906e2	3	1	main_z	11	advance_on_keypress_ZEE	52	stimuli_target_trianglerectangles.svg	stimuli_distractor_diamondtriangles.svg	21	yes	57	0	314	0	0			0	0			1				0	
6.6.1	win	2023-06-27	13:38:08	13:48:36	624259	5f3d6f7010ad88124f3906e2	3	1	main_z	11	main_z	53	stimuli_target_rectanglediamonds.svg	stimuli_distractor_trianglediamonds.svg	2	yes	44	1	404	0	0			0	0			1				0	
6.6.1	win	2023-06-27	13:38:08	13:48:36	624259	5f3d6f7010ad88124f3906e2	3	1	main_z	11	advance_on_keypress_ZEE	54	stimuli_target_rectanglediamonds.svg	stimuli_distractor_trianglediamonds.svg	2	yes	57	0	390	0	0			0	0			1				0	
6.6.1	win	2023-06-27	13:38:08	13:48:37	625706	5f3d6f7010ad88124f3906e2	3	1	main_z	11	main_z	55	stimuli_target_rectangletriangles.svg	stimuli_distractor_diamondtriangles.svg	5	yes	44	1	424	0	0			0	0			1				0	
6.6.1	win	2023-06-27	13:38:08	13:48:37	625706	5f3d6f7010ad88124f3906e2	3	1	main_z	11	advance_on_keypress_ZEE	56	stimuli_target_rectangletriangles.svg	stimuli_distractor_diamondtriangles.svg	5	yes	57	0	500	0	0			0	0			1				0	
6.6.1	win	2023-06-27	13:38:08	13:48:39	627682	5f3d6f7010ad88124f3906e2	3	1	main_z	11	main_z	57	stimuli_distractor_diamondtriangles.svg	stimuli_distractor_trianglediamonds.svg	37	no	44	0	852	0	0			0	0			1				0	
6.6.1	win	2023-06-27	13:38:08	13:48:39	627682	5f3d6f7010ad88124f3906e2	3	1	main_z	11	advance_on_keypress_ZEE	58	stimuli_distractor_diamondtriangles.svg	stimuli_distractor_trianglediamonds.svg	37	no	57	0	389	0	0			0	0			1				0	
6.6.1	win	2023-06-27	13:38:08	13:48:42	630701	5f3d6f7010ad88124f3906e2	3	1	main_z	11	main_z	59	stimuli_target_trianglesquares.svg	stimuli_distractor_trianglediamonds.svg	18	yes	0	0	2000	0	0			0	0			1				0	
6.6.1	win	2023-06-27	13:38:08	13:48:42	630701	5f3d6f7010ad88124f3906e2	3	1	main_z	11	advance_on_keypress_ZEE	60	stimuli_target_trianglesquares.svg	stimuli_distractor_trianglediamonds.svg	18	yes	57	0	319	0	0			0	0			1				0	
6.6.1	win	2023-06-27	13:38:08	13:48:44	632218	5f3d6f7010ad88124f3906e2	3	1	main_z	11	main_z	61	stimuli_distractor_trianglediamonds.svg	stimuli_target_trianglerectangles.svg	25	yes	44	1	556	0	0			0	0			1				0	
6.6.1	win	2023-06-27	13:38:08	13:48:44	632218	5f3d6f7010ad88124f3906e2	3	1	main_z	11	advance_on_keypress_ZEE	62	stimuli_distractor_trianglediamonds.svg	stimuli_target_trianglerectangles.svg	25	yes	57	0	387	0	0			0	0			1				0	
6.6.1	win	2023-06-27	13:38:08	13:48:45	633818	5f3d6f7010ad88124f3906e2	3	1	main_z	11	main_z	63	stimuli_target_squarediamonds.svg	stimuli_distractor_diamondtriangles.svg	8	yes	44	1	581	0	0			0	0			1				0	
6.6.1	win	2023-06-27	13:38:08	13:48:45	633818	5f3d6f7010ad88124f3906e2	3	1	main_z	11	advance_on_keypress_ZEE	64	stimuli_target_squarediamonds.svg	stimuli_distractor_diamondtriangles.svg	8	yes	57	0	433	0	0			0	0			1				0	
6.6.1	win	2023-06-27	13:38:08	13:48:48	636131	5f3d6f7010ad88124f3906e2	3	1	main_z	11	main_z	65	stimuli_distractor_diamondtriangles.svg	stimuli_target_squaretriangles.svg	15	yes	44	1	1252	0	0			0	0			1				0	
6.6.1	win	2023-06-27	13:38:08	13:48:48	636131	5f3d6f7010ad88124f3906e2	3	1	main_z	11	advance_on_keypress_ZEE	66	stimuli_distractor_diamondtriangles.svg	stimuli_target_squaretriangles.svg	15	yes	57	0	429	0	0			0	0			1				0	
6.6.1	win	2023-06-27	13:38:08	13:48:50	637970	5f3d6f7010ad88124f3906e2	3	1	main_z	11	main_z	67	stimuli_distractor_diamondtriangles.svg	stimuli_target_trianglesquares.svg	30	yes	44	1	756	0	0			0	0			1				0	
6.6.1	win	2023-06-27	13:38:08	13:48:50	637970	5f3d6f7010ad88124f3906e2	3	1	main_z	11	advance_on_keypress_ZEE	68	stimuli_distractor_diamondtriangles.svg	stimuli_target_trianglesquares.svg	30	yes	57	0	307	0	0			0	0			1				0	
6.6.1	win	2023-06-27	13:38:08	13:48:51	639522	5f3d6f7010ad88124f3906e2	3	1	main_z	11	main_z	69	stimuli_distractor_trianglediamonds.svg	stimuli_target_trianglesquares.svg	26	yes	44	1	613	0	0			0	0			1				0	
6.6.1	win	2023-06-27	13:38:08	13:48:51	639522	5f3d6f7010ad88124f3906e2	3	1	main_z	11	advance_on_keypress_ZEE	70	stimuli_distractor_trianglediamonds.svg	stimuli_target_trianglesquares.svg	26	yes	57	0	409	0	0			0	0			1				0	
6.6.1	win	2023-06-27	13:38:08	13:48:53	641170	5f3d6f7010ad88124f3906e2	3	1	main_z	11	main_z	71	stimuli_target_diamondrectangles.svg	stimuli_distractor_trianglediamonds.svg	19	yes	44	1	606	0	0			0	0			1				0	
6.6.1	win	2023-06-27	13:38:08	13:48:53	641170	5f3d6f7010ad88124f3906e2	3	1	main_z	11	advance_on_keypress_ZEE	72	stimuli_target_diamondrectangles.svg	stimuli_distractor_trianglediamonds.svg	19	yes	57	0	424	0	0			0	0			1				0	
6.6.1	win	2023-06-27	13:38:08	13:48:54	642858	5f3d6f7010ad88124f3906e2	3	1	main_z	11	main_z	73	stimuli_distractor_trianglediamonds.svg	stimuli_target_diamondrectangles.svg	27	yes	44	1	639	0	0			0	0			1				0	
6.6.1	win	2023-06-27	13:38:08	13:48:54	642858	5f3d6f7010ad88124f3906e2	3	1	main_z	11	advance_on_keypress_ZEE	74	stimuli_distractor_trianglediamonds.svg	stimuli_target_diamondrectangles.svg	27	yes	57	0	494	0	0			0	0			1				0	
6.6.1	win	2023-06-27	13:38:08	13:48:56	644530	5f3d6f7010ad88124f3906e2	3	1	main_z	11	main_z	75	stimuli_target_diamondrectangles.svg	stimuli_distractor_diamondtriangles.svg	23	yes	44	1	549	0	0			0	0			1				0	
6.6.1	win	2023-06-27	13:38:08	13:48:56	644530	5f3d6f7010ad88124f3906e2	3	1	main_z	11	advance_on_keypress_ZEE	76	stimuli_target_diamondrectangles.svg	stimuli_distractor_diamondtriangles.svg	23	yes	57	0	420	0	0			0	0			1				0	
6.6.1	win	2023-06-27	13:38:08	13:48:58	646104	5f3d6f7010ad88124f3906e2	3	1	main_z	11	main_z	77	stimuli_distractor_diamondtriangles.svg	stimuli_target_diamondsquares.svg	32	yes	44	1	508	0	0			0	0			1				0	
6.6.1	win	2023-06-27	13:38:08	13:48:58	646104	5f3d6f7010ad88124f3906e2	3	1	main_z	11	advance_on_keypress_ZEE	78	stimuli_distractor_diamondtriangles.svg	stimuli_target_diamondsquares.svg	32	yes	57	0	237	0	0			0	0			1				0	
6.6.1	win	2023-06-27	13:38:08	13:49:00	647922	5f3d6f7010ad88124f3906e2	3	1	main_z	11	main_z	79	stimuli_distractor_trianglediamonds.svg	stimuli_target_squaretriangles.svg	11	yes	44	1	952	0	0			0	0			1				0	
6.6.1	win	2023-06-27	13:38:08	13:49:00	647922	5f3d6f7010ad88124f3906e2	3	1	main_z	11	advance_on_keypress_ZEE	80	stimuli_distractor_trianglediamonds.svg	stimuli_target_squaretriangles.svg	11	yes	57	0	350	0	0			0	0			1				0	
6.6.1	win	2023-06-27	13:38:08	13:49:01	649410	5f3d6f7010ad88124f3906e2	3	1	main_z	11	main_z	81	stimuli_target_rectangletriangles.svg	stimuli_distractor_trianglediamonds.svg	1	yes	44	1	505	0	0			0	0			1				0	
6.6.1	win	2023-06-27	13:38:08	13:49:01	649410	5f3d6f7010ad88124f3906e2	3	1	main_z	11	advance_on_keypress_ZEE	82	stimuli_target_rectangletriangles.svg	stimuli_distractor_trianglediamonds.svg	1	yes	57	0	229	0	0			0	0			1				0	
6.6.1	win	2023-06-27	13:38:08	13:49:02	650818	5f3d6f7010ad88124f3906e2	3	1	main_z	11	main_z	83	stimuli_distractor_diamondtriangles.svg	stimuli_target_diamondsquares.svg	32	yes	44	1	551	0	0			0	0			1				0	
6.6.1	win	2023-06-27	13:38:08	13:49:02	650818	5f3d6f7010ad88124f3906e2	3	1	main_z	11	advance_on_keypress_ZEE	84	stimuli_distractor_diamondtriangles.svg	stimuli_target_diamondsquares.svg	32	yes	57	0	182	0	0			0	0			1				0	
6.6.1	win	2023-06-27	13:38:08	13:49:04	652098	5f3d6f7010ad88124f3906e2	3	1	main_z	11	main_z	85	stimuli_distractor_trianglediamonds.svg	stimuli_target_diamondrectangles.svg	27	yes	44	1	470	0	0			0	0			1				0	
6.6.1	win	2023-06-27	13:38:08	13:49:04	652098	5f3d6f7010ad88124f3906e2	3	1	main_z	11	advance_on_keypress_ZEE	86	stimuli_distractor_trianglediamonds.svg	stimuli_target_diamondrectangles.svg	27	yes	57	0	221	0	0			0	0			1				0	
6.6.1	win	2023-06-27	13:38:08	13:49:05	653371	5f3d6f7010ad88124f3906e2	3	1	main_z	11	main_z	87	stimuli_distractor_diamondtriangles.svg	stimuli_target_squarediamonds.svg	16	yes	44	1	420	0	0			0	0			1				0	
6.6.1	win	2023-06-27	13:38:08	13:49:05	653371	5f3d6f7010ad88124f3906e2	3	1	main_z	11	advance_on_keypress_ZEE	88	stimuli_distractor_diamondtriangles.svg	stimuli_target_squarediamonds.svg	16	yes	57	0	209	0	0			0	0			1				0	
6.6.1	win	2023-06-27	13:38:08	13:49:06	654834	5f3d6f7010ad88124f3906e2	3	1	main_z	11	main_z	89	stimuli_distractor_diamondtriangles.svg	stimuli_target_rectanglediamonds.svg	14	yes	44	1	630	0	0			0	0			1				0	
6.6.1	win	2023-06-27	13:38:08	13:49:06	654834	5f3d6f7010ad88124f3906e2	3	1	main_z	11	advance_on_keypress_ZEE	90	stimuli_distractor_diamondtriangles.svg	stimuli_target_rectanglediamonds.svg	14	yes	57	0	325	0	0			0	0			1				0	
6.6.1	win	2023-06-27	13:38:08	13:49:08	656282	5f3d6f7010ad88124f3906e2	3	1	main_z	11	main_z	91	stimuli_distractor_trianglediamonds.svg	stimuli_target_rectangletriangles.svg	9	yes	44	1	490	0	0			0	0			1				0	
6.6.1	win	2023-06-27	13:38:08	13:49:08	656282	5f3d6f7010ad88124f3906e2	3	1	main_z	11	advance_on_keypress_ZEE	92	stimuli_distractor_trianglediamonds.svg	stimuli_target_rectangletriangles.svg	9	yes	57	0	307	0	0			0	0			1				0	
6.6.1	win	2023-06-27	13:38:08	13:49:09	657802	5f3d6f7010ad88124f3906e2	3	1	main_z	11	main_z	93	stimuli_distractor_trianglediamonds.svg	stimuli_target_diamondsquares.svg	28	yes	44	1	582	0	0			0	0			1				0	
6.6.1	win	2023-06-27	13:38:08	13:49:09	657802	5f3d6f7010ad88124f3906e2	3	1	main_z	11	advance_on_keypress_ZEE	94	stimuli_distractor_trianglediamonds.svg	stimuli_target_diamondsquares.svg	28	yes	57	0	266	0	0			0	0			1				0	
6.6.1	win	2023-06-27	13:38:08	13:49:11	659194	5f3d6f7010ad88124f3906e2	3	1	main_z	11	main_z	95	stimuli_target_rectanglediamonds.svg	stimuli_distractor_trianglediamonds.svg	2	yes	44	1	492	0	0			0	0			1				0	
6.6.1	win	2023-06-27	13:38:08	13:49:11	659194	5f3d6f7010ad88124f3906e2	3	1	main_z	11	advance_on_keypress_ZEE	96	stimuli_target_rectanglediamonds.svg	stimuli_distractor_trianglediamonds.svg	2	yes	57	0	254	0	0			0	0			1				0	
6.6.1	win	2023-06-27	13:38:08	13:49:12	660658	5f3d6f7010ad88124f3906e2	3	1	main_z	11	main_z	97	stimuli_distractor_diamondtriangles.svg	stimuli_target_trianglerectangles.svg	29	yes	44	1	581	0	0			0	0			1				0	
6.6.1	win	2023-06-27	13:38:08	13:49:12	660658	5f3d6f7010ad88124f3906e2	3	1	main_z	11	advance_on_keypress_ZEE	98	stimuli_distractor_diamondtriangles.svg	stimuli_target_trianglerectangles.svg	29	yes	57	0	138	0	0			0	0			1				0	
6.6.1	win	2023-06-27	13:38:08	13:49:13	661842	5f3d6f7010ad88124f3906e2	3	1	main_z	11	main_z	99	stimuli_distractor_trianglediamonds.svg	stimuli_target_rectanglediamonds.svg	10	yes	44	1	417	0	0			0	0			1				0	
6.6.1	win	2023-06-27	13:38:08	13:49:13	661842	5f3d6f7010ad88124f3906e2	3	1	main_z	11	advance_on_keypress_ZEE	100	stimuli_distractor_trianglediamonds.svg	stimuli_target_rectanglediamonds.svg	10	yes	57	0	206	0	0			0	0			1				0	
6.6.1	win	2023-06-27	13:38:08	13:49:15	663898	5f3d6f7010ad88124f3906e2	3	1	main_z	11	main_z	101	stimuli_distractor_trianglediamonds.svg	stimuli_target_squaretriangles.svg	11	yes	44	1	1219	0	0			0	0			1				0	
6.6.1	win	2023-06-27	13:38:08	13:49:15	663898	5f3d6f7010ad88124f3906e2	3	1	main_z	11	advance_on_keypress_ZEE	102	stimuli_distractor_trianglediamonds.svg	stimuli_target_squaretriangles.svg	11	yes	57	0	350	0	0			0	0			1				0	
6.6.1	win	2023-06-27	13:38:08	13:49:17	665370	5f3d6f7010ad88124f3906e2	3	1	main_z	11	main_z	103	stimuli_target_diamondsquares.svg	stimuli_distractor_trianglediamonds.svg	20	yes	44	1	489	0	0			0	0			1				0	
6.6.1	win	2023-06-27	13:38:08	13:49:17	665370	5f3d6f7010ad88124f3906e2	3	1	main_z	11	advance_on_keypress_ZEE	104	stimuli_target_diamondsquares.svg	stimuli_distractor_trianglediamonds.svg	20	yes	57	0	274	0	0			0	0			1				0	
6.6.1	win	2023-06-27	13:38:08	13:49:18	666850	5f3d6f7010ad88124f3906e2	3	1	main_z	11	main_z	105	stimuli_target_trianglerectangles.svg	stimuli_distractor_trianglediamonds.svg	17	yes	44	1	581	0	0			0	0			1				0	
6.6.1	win	2023-06-27	13:38:08	13:49:18	666850	5f3d6f7010ad88124f3906e2	3	1	main_z	11	advance_on_keypress_ZEE	106	stimuli_target_trianglerectangles.svg	stimuli_distractor_trianglediamonds.svg	17	yes	57	0	201	0	0			0	0			1				0	
6.6.1	win	2023-06-27	13:38:08	13:49:20	668306	5f3d6f7010ad88124f3906e2	3	1	main_z	11	main_z	107	stimuli_target_trianglesquares.svg	stimuli_distractor_trianglediamonds.svg	18	yes	44	1	622	0	0			0	0			1				0	
6.6.1	win	2023-06-27	13:38:08	13:49:20	668306	5f3d6f7010ad88124f3906e2	3	1	main_z	11	advance_on_keypress_ZEE	108	stimuli_target_trianglesquares.svg	stimuli_distractor_trianglediamonds.svg	18	yes	57	0	178	0	0			0	0			1				0	
6.6.1	win	2023-06-27	13:38:08	13:49:23	671113	5f3d6f7010ad88124f3906e2	3	1	main_z	11	main_z	109	stimuli_distractor_trianglediamonds.svg	stimuli_distractor_trianglediamonds.svg	33	no	0	1	2000	0	0			0	0			1				0	
6.6.1	win	2023-06-27	13:38:08	13:49:23	671113	5f3d6f7010ad88124f3906e2	3	1	main_z	11	advance_on_keypress_ZEE	110	stimuli_distractor_trianglediamonds.svg	stimuli_distractor_trianglediamonds.svg	33	no	57	0	671	0	0			0	0			1				0	
6.6.1	win	2023-06-27	13:38:08	13:49:24	672778	5f3d6f7010ad88124f3906e2	3	1	main_z	11	main_z	111	stimuli_target_rectangletriangles.svg	stimuli_distractor_diamondtriangles.svg	5	yes	44	1	369	0	0			0	0			1				0	
6.6.1	win	2023-06-27	13:38:08	13:49:24	672778	5f3d6f7010ad88124f3906e2	3	1	main_z	11	advance_on_keypress_ZEE	112	stimuli_target_rectangletriangles.svg	stimuli_distractor_diamondtriangles.svg	5	yes	57	0	347	0	0			0	0			1				0	
6.6.1	win	2023-06-27	13:38:08	13:49:26	674186	5f3d6f7010ad88124f3906e2	3	1	main_z	11	main_z	113	stimuli_target_squaretriangles.svg	stimuli_distractor_trianglediamonds.svg	3	yes	44	1	429	0	0			0	0			1				0	
6.6.1	win	2023-06-27	13:38:08	13:49:26	674186	5f3d6f7010ad88124f3906e2	3	1	main_z	11	advance_on_keypress_ZEE	114	stimuli_target_squaretriangles.svg	stimuli_distractor_trianglediamonds.svg	3	yes	57	0	244	0	0			0	0			1				0	
6.6.1	win	2023-06-27	13:38:08	13:49:27	675523	5f3d6f7010ad88124f3906e2	3	1	main_z	11	main_z	115	stimuli_target_trianglesquares.svg	stimuli_distractor_diamondtriangles.svg	22	yes	44	1	457	0	0			0	0			1				0	
6.6.1	win	2023-06-27	13:38:08	13:49:27	675523	5f3d6f7010ad88124f3906e2	3	1	main_z	11	advance_on_keypress_ZEE	116	stimuli_target_trianglesquares.svg	stimuli_distractor_diamondtriangles.svg	22	yes	57	0	173	0	0			0	0			1				0	
6.6.1	win	2023-06-27	13:38:08	13:49:28	676691	5f3d6f7010ad88124f3906e2	3	1	main_z	11	main_z	117	stimuli_target_squarediamonds.svg	stimuli_distractor_trianglediamonds.svg	4	yes	44	1	357	0	0			0	0			1				0	
6.6.1	win	2023-06-27	13:38:08	13:49:28	676691	5f3d6f7010ad88124f3906e2	3	1	main_z	11	advance_on_keypress_ZEE	118	stimuli_target_squarediamonds.svg	stimuli_distractor_trianglediamonds.svg	4	yes	57	0	188	0	0			0	0			1				0	
6.6.1	win	2023-06-27	13:38:08	13:49:30	677922	5f3d6f7010ad88124f3906e2	3	1	main_z	11	main_z	119	stimuli_distractor_trianglediamonds.svg	stimuli_distractor_diamondtriangles.svg	35	no	44	0	415	0	0			0	0			1				0	
6.6.1	win	2023-06-27	13:38:08	13:49:30	677922	5f3d6f7010ad88124f3906e2	3	1	main_z	11	advance_on_keypress_ZEE	120	stimuli_distractor_trianglediamonds.svg	stimuli_distractor_diamondtriangles.svg	35	no	57	0	203	0	0			0	0			1				0	
6.6.1	win	2023-06-27	13:38:08	13:49:31	679395	5f3d6f7010ad88124f3906e2	3	1	main_z	11	main_z	121	stimuli_target_diamondsquares.svg	stimuli_distractor_diamondtriangles.svg	24	yes	44	1	632	0	0			0	0			1				0	
6.6.1	win	2023-06-27	13:38:08	13:49:31	679395	5f3d6f7010ad88124f3906e2	3	1	main_z	11	advance_on_keypress_ZEE	122	stimuli_target_diamondsquares.svg	stimuli_distractor_diamondtriangles.svg	24	yes	57	0	191	0	0			0	0			1				0	
6.6.1	win	2023-06-27	13:38:08	13:49:32	680834	5f3d6f7010ad88124f3906e2	3	1	main_z	11	main_z	123	stimuli_distractor_trianglediamonds.svg	stimuli_target_squarediamonds.svg	12	yes	44	1	617	0	0			0	0			1				0	
6.6.1	win	2023-06-27	13:38:08	13:49:32	680834	5f3d6f7010ad88124f3906e2	3	1	main_z	11	advance_on_keypress_ZEE	124	stimuli_distractor_trianglediamonds.svg	stimuli_target_squarediamonds.svg	12	yes	57	0	238	0	0			0	0			1				0	
6.6.1	win	2023-06-27	13:38:08	13:49:34	682202	5f3d6f7010ad88124f3906e2	3	1	main_z	11	main_z	125	stimuli_target_diamondrectangles.svg	stimuli_distractor_trianglediamonds.svg	19	yes	44	1	504	0	0			0	0			1				0	
6.6.1	win	2023-06-27	13:38:08	13:49:34	682202	5f3d6f7010ad88124f3906e2	3	1	main_z	11	advance_on_keypress_ZEE	126	stimuli_target_diamondrectangles.svg	stimuli_distractor_trianglediamonds.svg	19	yes	57	0	236	0	0			0	0			1				0	
6.6.1	win	2023-06-27	13:38:08	13:49:35	683562	5f3d6f7010ad88124f3906e2	3	1	main_z	11	main_z	127	stimuli_target_squaretriangles.svg	stimuli_distractor_diamondtriangles.svg	7	yes	44	1	503	0	0			0	0			1				0	
6.6.1	win	2023-06-27	13:38:08	13:49:35	683562	5f3d6f7010ad88124f3906e2	3	1	main_z	11	advance_on_keypress_ZEE	128	stimuli_target_squaretriangles.svg	stimuli_distractor_diamondtriangles.svg	7	yes	57	0	203	0	0			0	0			1				0	
6.6.1	win	2023-06-27	13:38:08	13:49:36	684882	5f3d6f7010ad88124f3906e2	3	1	main_z	11	main_z	129	stimuli_target_squarediamonds.svg	stimuli_distractor_diamondtriangles.svg	8	yes	44	1	488	0	0			0	0			1				0	
6.6.1	win	2023-06-27	13:38:08	13:49:36	684882	5f3d6f7010ad88124f3906e2	3	1	main_z	11	advance_on_keypress_ZEE	130	stimuli_target_squarediamonds.svg	stimuli_distractor_diamondtriangles.svg	8	yes	57	0	250	0	0			0	0			1				0	
6.6.1	win	2023-06-27	13:38:08	13:49:38	686210	5f3d6f7010ad88124f3906e2	3	1	main_z	11	main_z	131	stimuli_target_trianglerectangles.svg	stimuli_distractor_diamondtriangles.svg	21	yes	44	1	455	0	0			0	0			1				0	
6.6.1	win	2023-06-27	13:38:08	13:49:38	686210	5f3d6f7010ad88124f3906e2	3	1	main_z	11	advance_on_keypress_ZEE	132	stimuli_target_trianglerectangles.svg	stimuli_distractor_diamondtriangles.svg	21	yes	57	0	243	0	0			0	0			1				0	
6.6.1	win	2023-06-27	13:38:08	13:49:41	689091	5f3d6f7010ad88124f3906e2	3	1	main_z	11	main_z	133	stimuli_distractor_diamondtriangles.svg	stimuli_distractor_diamondtriangles.svg	39	no	0	1	2000	0	0			0	0			1				0	
6.6.1	win	2023-06-27	13:38:08	13:49:41	689091	5f3d6f7010ad88124f3906e2	3	1	main_z	11	advance_on_keypress_ZEE	134	stimuli_distractor_diamondtriangles.svg	stimuli_distractor_diamondtriangles.svg	39	no	57	0	389	0	0			0	0			1				0	
6.6.1	win	2023-06-27	13:38:08	13:49:44	692107	5f3d6f7010ad88124f3906e2	3	1	main_z	11	main_z	135	stimuli_distractor_trianglediamonds.svg	stimuli_distractor_trianglediamonds.svg	34	no	0	1	2000	0	0			0	0			1				0	
6.6.1	win	2023-06-27	13:38:08	13:49:44	692107	5f3d6f7010ad88124f3906e2	3	1	main_z	11	advance_on_keypress_ZEE	136	stimuli_distractor_trianglediamonds.svg	stimuli_distractor_trianglediamonds.svg	34	no	57	0	597	0	0			0	0			1				0	
6.6.1	win	2023-06-27	13:38:08	13:49:47	695323	5f3d6f7010ad88124f3906e2	3	1	main_z	11	main_z	137	stimuli_distractor_diamondtriangles.svg	stimuli_distractor_diamondtriangles.svg	40	no	0	1	2000	0	0			0	0			1				0	
6.6.1	win	2023-06-27	13:38:08	13:49:47	695323	5f3d6f7010ad88124f3906e2	3	1	main_z	11	advance_on_keypress_ZEE	138	stimuli_distractor_diamondtriangles.svg	stimuli_distractor_diamondtriangles.svg	40	no	57	0	285	0	0			0	0			1				0	
6.6.1	win	2023-06-27	13:38:08	13:49:48	696754	5f3d6f7010ad88124f3906e2	3	1	main_z	11	main_z	139	stimuli_target_diamondrectangles.svg	stimuli_distractor_diamondtriangles.svg	23	yes	44	1	522	0	0			0	0			1				0	
6.6.1	win	2023-06-27	13:38:08	13:49:48	696754	5f3d6f7010ad88124f3906e2	3	1	main_z	11	advance_on_keypress_ZEE	140	stimuli_target_diamondrectangles.svg	stimuli_distractor_diamondtriangles.svg	23	yes	57	0	259	0	0			0	0			1				0	
6.6.1	win	2023-06-27	13:38:08	13:49:51	699648	5f3d6f7010ad88124f3906e2	3	1	main_z	11	main_z	141	stimuli_distractor_trianglediamonds.svg	stimuli_distractor_diamondtriangles.svg	36	no	0	1	2000	0	0			0	0			1				0	
6.6.1	win	2023-06-27	13:38:08	13:49:51	699648	5f3d6f7010ad88124f3906e2	3	1	main_z	11	advance_on_keypress_ZEE	142	stimuli_distractor_trianglediamonds.svg	stimuli_distractor_diamondtriangles.svg	36	no	57	0	320	0	0			0	0			1				0	
6.6.1	win	2023-06-27	13:38:08	13:49:53	701090	5f3d6f7010ad88124f3906e2	3	1	main_z	11	main_z	143	stimuli_distractor_trianglediamonds.svg	stimuli_target_trianglerectangles.svg	25	yes	44	1	493	0	0			0	0			1				0	
6.6.1	win	2023-06-27	13:38:08	13:49:53	701090	5f3d6f7010ad88124f3906e2	3	1	main_z	11	advance_on_keypress_ZEE	144	stimuli_distractor_trianglediamonds.svg	stimuli_target_trianglerectangles.svg	25	yes	57	0	321	0	0			0	0			1				0	
6.6.1	win	2023-06-27	13:38:08	13:49:55	702938	5f3d6f7010ad88124f3906e2	3	1	main_z	11	main_z	145	stimuli_distractor_diamondtriangles.svg	stimuli_target_rectangletriangles.svg	13	yes	44	1	886	0	0			0	0			1				0	
6.6.1	win	2023-06-27	13:38:08	13:49:55	702938	5f3d6f7010ad88124f3906e2	3	1	main_z	11	advance_on_keypress_ZEE	146	stimuli_distractor_diamondtriangles.svg	stimuli_target_rectangletriangles.svg	13	yes	57	0	360	0	0			0	0			1				0	
6.6.1	win	2023-06-27	13:38:08	13:49:58	705934	5f3d6f7010ad88124f3906e2	3	1	main_z	11	main_z	147	stimuli_distractor_diamondtriangles.svg	stimuli_distractor_trianglediamonds.svg	37	no	0	1	2000	0	0			0	0			1				0	
6.6.1	win	2023-06-27	13:38:08	13:49:58	705934	5f3d6f7010ad88124f3906e2	3	1	main_z	11	advance_on_keypress_ZEE	148	stimuli_distractor_diamondtriangles.svg	stimuli_distractor_trianglediamonds.svg	37	no	57	0	322	0	0			0	0			1				0	
6.6.1	win	2023-06-27	13:38:08	13:49:59	707314	5f3d6f7010ad88124f3906e2	3	1	main_z	11	main_z	149	stimuli_distractor_trianglediamonds.svg	stimuli_target_trianglesquares.svg	26	yes	44	1	431	0	0			0	0			1				0	
6.6.1	win	2023-06-27	13:38:08	13:49:59	707314	5f3d6f7010ad88124f3906e2	3	1	main_z	11	advance_on_keypress_ZEE	150	stimuli_distractor_trianglediamonds.svg	stimuli_target_trianglesquares.svg	26	yes	57	0	254	0	0			0	0			1				0	
6.6.1	win	2023-06-27	13:38:08	13:50:00	708834	5f3d6f7010ad88124f3906e2	3	1	main_z	11	main_z	151	stimuli_distractor_diamondtriangles.svg	stimuli_target_squaretriangles.svg	15	yes	44	1	630	0	0			0	0			1				0	
6.6.1	win	2023-06-27	13:38:08	13:50:00	708834	5f3d6f7010ad88124f3906e2	3	1	main_z	11	advance_on_keypress_ZEE	152	stimuli_distractor_diamondtriangles.svg	stimuli_target_squaretriangles.svg	15	yes	57	0	212	0	0			0	0			1				0	
6.6.1	win	2023-06-27	13:38:08	13:50:02	710251	5f3d6f7010ad88124f3906e2	3	1	main_z	11	main_z	153	stimuli_target_rectanglediamonds.svg	stimuli_distractor_diamondtriangles.svg	6	yes	44	1	564	0	0			0	0			1				0	
6.6.1	win	2023-06-27	13:38:08	13:50:02	710251	5f3d6f7010ad88124f3906e2	3	1	main_z	11	advance_on_keypress_ZEE	154	stimuli_target_rectanglediamonds.svg	stimuli_distractor_diamondtriangles.svg	6	yes	57	0	254	0	0			0	0			1				0	
6.6.1	win	2023-06-27	13:38:08	13:50:03	711618	5f3d6f7010ad88124f3906e2	3	1	main_z	11	main_z	155	stimuli_distractor_diamondtriangles.svg	stimuli_target_diamondrectangles.svg	31	yes	44	1	477	0	0			0	0			1				0	
6.6.1	win	2023-06-27	13:38:08	13:50:03	711618	5f3d6f7010ad88124f3906e2	3	1	main_z	11	advance_on_keypress_ZEE	156	stimuli_distractor_diamondtriangles.svg	stimuli_target_diamondrectangles.svg	31	yes	57	0	204	0	0			0	0			1				0	
6.6.1	win	2023-06-27	13:38:08	13:50:05	712954	5f3d6f7010ad88124f3906e2	3	1	main_z	11	main_z	157	stimuli_distractor_diamondtriangles.svg	stimuli_target_trianglesquares.svg	30	yes	44	1	505	0	0			0	0			1				0	
6.6.1	win	2023-06-27	13:38:08	13:50:05	712954	5f3d6f7010ad88124f3906e2	3	1	main_z	11	advance_on_keypress_ZEE	158	stimuli_distractor_diamondtriangles.svg	stimuli_target_trianglesquares.svg	30	yes	57	0	198	0	0			0	0			1				0	
6.6.1	win	2023-06-27	13:38:08	13:50:07	715770	5f3d6f7010ad88124f3906e2	3	1	main_z	11	main_z	159	stimuli_distractor_diamondtriangles.svg	stimuli_distractor_trianglediamonds.svg	38	no	0	1	2000	0	0			0	0			1				0	
6.6.1	win	2023-06-27	13:38:08	13:50:07	715770	5f3d6f7010ad88124f3906e2	3	1	main_z	11	advance_on_keypress_ZEE	160	stimuli_distractor_diamondtriangles.svg	stimuli_distractor_trianglediamonds.svg	38	no	57	0	166	0	0			0	0			1				0	
6.6.1	win	2023-06-27	13:38:08	13:50:07	715770	5f3d6f7010ad88124f3906e2	3	1	headphonecheck_calibration	14	headphonecheck_calibrationIntro	1	stimuli_distractor_diamondtriangles.svg	stimuli_distractor_trianglediamonds.svg	38	no	calibrationButton	0	4189	0	0			0	0			1				0	
6.6.1	win	2023-06-27	13:38:08	13:50:07	715770	5f3d6f7010ad88124f3906e2	3	1	headphonecheck_testphase	15	test_collectResponse	3	stimuli_distractor_diamondtriangles.svg	stimuli_distractor_trianglediamonds.svg	38	no	first	1	715	1	4	antiphase_hc_sio.wav	1	0	0			1				0	
6.6.1	win	2023-06-27	13:38:08	13:50:07	715770	5f3d6f7010ad88124f3906e2	3	1	headphonecheck_testphase	15	test_collectResponse	6	stimuli_distractor_diamondtriangles.svg	stimuli_distractor_trianglediamonds.svg	38	no	third	1	145	2	6	antiphase_hc_ois.wav	3	0	0			1				0	
6.6.1	win	2023-06-27	13:38:08	13:50:07	715770	5f3d6f7010ad88124f3906e2	3	1	headphonecheck_testphase	15	test_collectResponse	9	stimuli_distractor_diamondtriangles.svg	stimuli_distractor_trianglediamonds.svg	38	no	second	1	0	3	5	antiphase_hc_osi.wav	2	0	0			1				0	
6.6.1	win	2023-06-27	13:38:08	13:50:07	715770	5f3d6f7010ad88124f3906e2	3	1	headphonecheck_testphase	15	test_collectResponse	12	stimuli_distractor_diamondtriangles.svg	stimuli_distractor_trianglediamonds.svg	38	no	third	1	158	4	2	antiphase_hc_ios.wav	3	0	0			1				0	
6.6.1	win	2023-06-27	13:38:08	13:50:07	715770	5f3d6f7010ad88124f3906e2	3	1	headphonecheck_testphase	15	test_collectResponse	15	stimuli_distractor_diamondtriangles.svg	stimuli_distractor_trianglediamonds.svg	38	no	second	1	509	5	1	antiphase_hc_iso.wav	2	0	0			1				0	
6.6.1	win	2023-06-27	13:38:08	13:50:07	715770	5f3d6f7010ad88124f3906e2	3	1	headphonecheck_testphase	15	test_collectResponse	18	stimuli_distractor_diamondtriangles.svg	stimuli_distractor_trianglediamonds.svg	38	no	first	1	226	6	3	antiphase_hc_soi.wav	1	0	0			1				0	
6.6.1	win	2023-06-27	13:38:08	13:50:07	715770	5f3d6f7010ad88124f3906e2	3	1	stereocheck_calibration	17	stereocheck_calibrationIntro	1	stimuli_distractor_diamondtriangles.svg	stimuli_distractor_trianglediamonds.svg	38	no	stereocheck_calibrationButton	0	8140	6	3	antiphase_hc_soi.wav	1	0	0			1				0	
6.6.1	win	2023-06-27	13:38:08	13:50:07	715770	5f3d6f7010ad88124f3906e2	3	1	stereocheck_testphase	18	stereocheck_test_collectResponse	3	stimuli_distractor_diamondtriangles.svg	stimuli_distractor_trianglediamonds.svg	38	no	stereocheck_right	1	405	6	3	antiphase_hc_soi.wav	1	1	6	noise_calib_stim_RIGHT.wav	2	1				0	
6.6.1	win	2023-06-27	13:38:08	13:50:07	715770	5f3d6f7010ad88124f3906e2	3	1	stereocheck_testphase	18	stereocheck_test_collectResponse	6	stimuli_distractor_diamondtriangles.svg	stimuli_distractor_trianglediamonds.svg	38	no	stereocheck_left	1	267	6	3	antiphase_hc_soi.wav	1	2	3	noise_calib_stim_LEFT.wav	1	1				0	
6.6.1	win	2023-06-27	13:38:08	13:50:07	715770	5f3d6f7010ad88124f3906e2	3	1	stereocheck_testphase	18	stereocheck_test_collectResponse	9	stimuli_distractor_diamondtriangles.svg	stimuli_distractor_trianglediamonds.svg	38	no	stereocheck_right	1	204	6	3	antiphase_hc_soi.wav	1	3	4	noise_calib_stim_RIGHT.wav	2	1				0	
6.6.1	win	2023-06-27	13:38:08	13:50:07	715770	5f3d6f7010ad88124f3906e2	3	1	stereocheck_testphase	18	stereocheck_test_collectResponse	12	stimuli_distractor_diamondtriangles.svg	stimuli_distractor_trianglediamonds.svg	38	no	stereocheck_right	1	233	6	3	antiphase_hc_soi.wav	1	4	5	noise_calib_stim_RIGHT.wav	2	1				0	
6.6.1	win	2023-06-27	13:38:08	13:50:07	715770	5f3d6f7010ad88124f3906e2	3	1	stereocheck_testphase	18	stereocheck_test_collectResponse	15	stimuli_distractor_diamondtriangles.svg	stimuli_distractor_trianglediamonds.svg	38	no	stereocheck_left	1	167	6	3	antiphase_hc_soi.wav	1	5	1	noise_calib_stim_LEFT.wav	1	1				0	
6.6.1	win	2023-06-27	13:38:08	13:50:07	715770	5f3d6f7010ad88124f3906e2	3	1	stereocheck_testphase	18	stereocheck_test_collectResponse	18	stimuli_distractor_diamondtriangles.svg	stimuli_distractor_trianglediamonds.svg	38	no	stereocheck_left	1	214	6	3	antiphase_hc_soi.wav	1	6	2	noise_calib_stim_LEFT.wav	1	1				0	
6.6.1	win	2023-06-27	13:38:08	13:50:07	715770	5f3d6f7010ad88124f3906e2	3	1	DL_practice	21	DL_practice	2	stimuli_distractor_diamondtriangles.svg	stimuli_distractor_trianglediamonds.svg	38	no	ba	1	2063	6	3	antiphase_hc_soi.wav	1	6	2	noise_calib_stim_LEFT.wav	1	7	blb_dichoticlistening_da-ba.mp3	da	ba	1	right
6.6.1	win	2023-06-27	13:38:08	13:50:07	715770	5f3d6f7010ad88124f3906e2	3	1	DL_practice	21	DL_practice	3	stimuli_distractor_diamondtriangles.svg	stimuli_distractor_trianglediamonds.svg	38	no	ta	1	1626	6	3	antiphase_hc_soi.wav	1	6	2	noise_calib_stim_LEFT.wav	1	36	blb_dichoticlistening_ta-ta.mp3	ta	ta	0	left
6.6.1	win	2023-06-27	13:38:08	13:50:07	715770	5f3d6f7010ad88124f3906e2	3	1	DL_practice	21	DL_practice	4	stimuli_distractor_diamondtriangles.svg	stimuli_distractor_trianglediamonds.svg	38	no	ka	1	988	6	3	antiphase_hc_soi.wav	1	6	2	noise_calib_stim_LEFT.wav	1	23	blb_dichoticlistening_ka-pa.mp3	ka	pa	1	left
6.6.1	win	2023-06-27	13:38:08	13:50:07	715770	5f3d6f7010ad88124f3906e2	3	1	DL_practice	21	DL_practice	5	stimuli_distractor_diamondtriangles.svg	stimuli_distractor_trianglediamonds.svg	38	no	ka	1	683	6	3	antiphase_hc_soi.wav	1	6	2	noise_calib_stim_LEFT.wav	1	22	blb_dichoticlistening_ka-ka.mp3	ka	ka	0	left
6.6.1	win	2023-06-27	13:38:08	13:50:07	715770	5f3d6f7010ad88124f3906e2	3	1	DL_practice	21	DL_practice	6	stimuli_distractor_diamondtriangles.svg	stimuli_distractor_trianglediamonds.svg	38	no	da	1	1228	6	3	antiphase_hc_soi.wav	1	6	2	noise_calib_stim_LEFT.wav	1	8	blb_dichoticlistening_da-da.mp3	da	da	0	left
6.6.1	win	2023-06-27	13:38:08	13:50:07	715770	5f3d6f7010ad88124f3906e2	3	1	DL_practice	21	DL_practice	7	stimuli_distractor_diamondtriangles.svg	stimuli_distractor_trianglediamonds.svg	38	no	pa	1	1196	6	3	antiphase_hc_soi.wav	1	6	2	noise_calib_stim_LEFT.wav	1	29	blb_dichoticlistening_pa-pa.mp3	pa	pa	0	left
6.6.1	win	2023-06-27	13:38:08	13:50:07	715770	5f3d6f7010ad88124f3906e2	3	1	DL_practice	21	DL_practice	8	stimuli_distractor_diamondtriangles.svg	stimuli_distractor_trianglediamonds.svg	38	no	ka	0	1352	6	3	antiphase_hc_soi.wav	1	6	2	noise_calib_stim_LEFT.wav	1	18	blb_dichoticlistening_ga-ta.mp3	ga	ta	1	other
6.6.1	win	2023-06-27	13:38:08	13:50:07	715770	5f3d6f7010ad88124f3906e2	3	1	DL_practice	21	DL_practice	9	stimuli_distractor_diamondtriangles.svg	stimuli_distractor_trianglediamonds.svg	38	no	ga	1	1098	6	3	antiphase_hc_soi.wav	1	6	2	noise_calib_stim_LEFT.wav	1	15	blb_dichoticlistening_ga-ga.mp3	ga	ga	0	left
6.6.1	win	2023-06-27	13:38:08	13:50:07	715770	5f3d6f7010ad88124f3906e2	3	1	DL_practice	21	DL_practice	10	stimuli_distractor_diamondtriangles.svg	stimuli_distractor_trianglediamonds.svg	38	no	ba	1	1526	6	3	antiphase_hc_soi.wav	1	6	2	noise_calib_stim_LEFT.wav	1	1	blb_dichoticlistening_ba-ba.mp3	ba	ba	0	left
6.6.1	win	2023-06-27	13:38:08	13:50:07	715770	5f3d6f7010ad88124f3906e2	3	1	DL_test	23	DL_test	1	stimuli_distractor_diamondtriangles.svg	stimuli_distractor_trianglediamonds.svg	38	no	ga	1	2047	6	3	antiphase_hc_soi.wav	1	6	2	noise_calib_stim_LEFT.wav	1	27	blb_dichoticlistening_pa-ga.mp3	pa	ga	1	right
6.6.1	win	2023-06-27	13:38:08	13:50:07	715770	5f3d6f7010ad88124f3906e2	3	1	DL_test	23	DL_test	2	stimuli_distractor_diamondtriangles.svg	stimuli_distractor_trianglediamonds.svg	38	no	da	1	1098	6	3	antiphase_hc_soi.wav	1	6	2	noise_calib_stim_LEFT.wav	1	8	blb_dichoticlistening_da-da.mp3	da	da	0	left
6.6.1	win	2023-06-27	13:38:08	13:50:07	715770	5f3d6f7010ad88124f3906e2	3	1	DL_test	23	DL_test	3	stimuli_distractor_diamondtriangles.svg	stimuli_distractor_trianglediamonds.svg	38	no	ka	1	967	6	3	antiphase_hc_soi.wav	1	6	2	noise_calib_stim_LEFT.wav	1	24	blb_dichoticlistening_ka-ta.mp3	ka	ta	1	left
6.6.1	win	2023-06-27	13:38:08	13:50:07	715770	5f3d6f7010ad88124f3906e2	3	1	DL_test	23	DL_test	4	stimuli_distractor_diamondtriangles.svg	stimuli_distractor_trianglediamonds.svg	38	no	pa	1	903	6	3	antiphase_hc_soi.wav	1	6	2	noise_calib_stim_LEFT.wav	1	5	blb_dichoticlistening_ba-pa.mp3	ba	pa	1	right
6.6.1	win	2023-06-27	13:38:08	13:50:07	715770	5f3d6f7010ad88124f3906e2	3	1	DL_test	23	DL_test	5	stimuli_distractor_diamondtriangles.svg	stimuli_distractor_trianglediamonds.svg	38	no	ka	1	920	6	3	antiphase_hc_soi.wav	1	6	2	noise_calib_stim_LEFT.wav	1	23	blb_dichoticlistening_ka-pa.mp3	ka	pa	1	left
6.6.1	win	2023-06-27	13:38:08	13:50:07	715770	5f3d6f7010ad88124f3906e2	3	1	DL_test	23	DL_test	6	stimuli_distractor_diamondtriangles.svg	stimuli_distractor_trianglediamonds.svg	38	no	ka	1	1149	6	3	antiphase_hc_soi.wav	1	6	2	noise_calib_stim_LEFT.wav	1	4	blb_dichoticlistening_ba-ka.mp3	ba	ka	1	right
6.6.1	win	2023-06-27	13:38:08	13:50:07	715770	5f3d6f7010ad88124f3906e2	3	1	DL_test	23	DL_test	7	stimuli_distractor_diamondtriangles.svg	stimuli_distractor_trianglediamonds.svg	38	no	ga	1	1059	6	3	antiphase_hc_soi.wav	1	6	2	noise_calib_stim_LEFT.wav	1	15	blb_dichoticlistening_ga-ga.mp3	ga	ga	0	left
6.6.1	win	2023-06-27	13:38:08	13:50:07	715770	5f3d6f7010ad88124f3906e2	3	1	DL_test	23	DL_test	8	stimuli_distractor_diamondtriangles.svg	stimuli_distractor_trianglediamonds.svg	38	no	ba	1	1581	6	3	antiphase_hc_soi.wav	1	6	2	noise_calib_stim_LEFT.wav	1	3	blb_dichoticlistening_ba-ga.mp3	ba	ga	1	left
6.6.1	win	2023-06-27	13:38:08	13:50:07	715770	5f3d6f7010ad88124f3906e2	3	1	DL_test	23	DL_test	9	stimuli_distractor_diamondtriangles.svg	stimuli_distractor_trianglediamonds.svg	38	no	pa	0	2159	6	3	antiphase_hc_soi.wav	1	6	2	noise_calib_stim_LEFT.wav	1	31	blb_dichoticlistening_ta-ba.mp3	ta	ba	1	other
6.6.1	win	2023-06-27	13:38:08	13:50:07	715770	5f3d6f7010ad88124f3906e2	3	1	DL_test	23	DL_test	10	stimuli_distractor_diamondtriangles.svg	stimuli_distractor_trianglediamonds.svg	38	no	da	1	1155	6	3	antiphase_hc_soi.wav	1	6	2	noise_calib_stim_LEFT.wav	1	10	blb_dichoticlistening_da-ka.mp3	da	ka	1	left
6.6.1	win	2023-06-27	13:38:08	13:50:07	715770	5f3d6f7010ad88124f3906e2	3	1	DL_test	23	DL_test	11	stimuli_distractor_diamondtriangles.svg	stimuli_distractor_trianglediamonds.svg	38	no	da	1	1339	6	3	antiphase_hc_soi.wav	1	6	2	noise_calib_stim_LEFT.wav	1	14	blb_dichoticlistening_ga-da.mp3	ga	da	1	right
6.6.1	win	2023-06-27	13:38:08	13:50:07	715770	5f3d6f7010ad88124f3906e2	3	1	DL_test	23	DL_test	12	stimuli_distractor_diamondtriangles.svg	stimuli_distractor_trianglediamonds.svg	38	no	ka	1	855	6	3	antiphase_hc_soi.wav	1	6	2	noise_calib_stim_LEFT.wav	1	28	blb_dichoticlistening_pa-ka.mp3	pa	ka	1	right
6.6.1	win	2023-06-27	13:38:08	13:50:07	715770	5f3d6f7010ad88124f3906e2	3	1	DL_test	23	DL_test	13	stimuli_distractor_diamondtriangles.svg	stimuli_distractor_trianglediamonds.svg	38	no	ta	1	2449	6	3	antiphase_hc_soi.wav	1	6	2	noise_calib_stim_LEFT.wav	1	6	blb_dichoticlistening_ba-ta.mp3	ba	ta	1	right
6.6.1	win	2023-06-27	13:38:08	13:50:07	715770	5f3d6f7010ad88124f3906e2	3	1	DL_test	23	DL_test	14	stimuli_distractor_diamondtriangles.svg	stimuli_distractor_trianglediamonds.svg	38	no	ka	1	1228	6	3	antiphase_hc_soi.wav	1	6	2	noise_calib_stim_LEFT.wav	1	16	blb_dichoticlistening_ga-ka.mp3	ga	ka	1	right
6.6.1	win	2023-06-27	13:38:08	13:50:07	715770	5f3d6f7010ad88124f3906e2	3	1	DL_test	23	DL_test	15	stimuli_distractor_diamondtriangles.svg	stimuli_distractor_trianglediamonds.svg	38	no	pa	1	1780	6	3	antiphase_hc_soi.wav	1	6	2	noise_calib_stim_LEFT.wav	1	11	blb_dichoticlistening_da-pa.mp3	da	pa	1	right
6.6.1	win	2023-06-27	13:38:08	13:50:07	715770	5f3d6f7010ad88124f3906e2	3	1	DL_test	23	DL_test	16	stimuli_distractor_diamondtriangles.svg	stimuli_distractor_trianglediamonds.svg	38	no	ba	1	1720	6	3	antiphase_hc_soi.wav	1	6	2	noise_calib_stim_LEFT.wav	1	13	blb_dichoticlistening_ga-ba.mp3	ga	ba	1	right
6.6.1	win	2023-06-27	13:38:08	13:50:07	715770	5f3d6f7010ad88124f3906e2	3	1	DL_test	23	DL_test	17	stimuli_distractor_diamondtriangles.svg	stimuli_distractor_trianglediamonds.svg	38	no	ba	1	1001	6	3	antiphase_hc_soi.wav	1	6	2	noise_calib_stim_LEFT.wav	1	1	blb_dichoticlistening_ba-ba.mp3	ba	ba	0	left
6.6.1	win	2023-06-27	13:38:08	13:50:07	715770	5f3d6f7010ad88124f3906e2	3	1	DL_test	23	DL_test	18	stimuli_distractor_diamondtriangles.svg	stimuli_distractor_trianglediamonds.svg	38	no	da	1	1604	6	3	antiphase_hc_soi.wav	1	6	2	noise_calib_stim_LEFT.wav	1	26	blb_dichoticlistening_pa-da.mp3	pa	da	1	right
6.6.1	win	2023-06-27	13:38:08	13:50:07	715770	5f3d6f7010ad88124f3906e2	3	1	DL_test	23	DL_test	19	stimuli_distractor_diamondtriangles.svg	stimuli_distractor_trianglediamonds.svg	38	no	ta	1	1128	6	3	antiphase_hc_soi.wav	1	6	2	noise_calib_stim_LEFT.wav	1	30	blb_dichoticlistening_pa-ta.mp3	pa	ta	1	right
6.6.1	win	2023-06-27	13:38:08	13:50:07	715770	5f3d6f7010ad88124f3906e2	3	1	DL_test	23	DL_test	20	stimuli_distractor_diamondtriangles.svg	stimuli_distractor_trianglediamonds.svg	38	no	ka	1	774	6	3	antiphase_hc_soi.wav	1	6	2	noise_calib_stim_LEFT.wav	1	22	blb_dichoticlistening_ka-ka.mp3	ka	ka	0	left
6.6.1	win	2023-06-27	13:38:08	13:50:07	715770	5f3d6f7010ad88124f3906e2	3	1	DL_test	23	DL_test	21	stimuli_distractor_diamondtriangles.svg	stimuli_distractor_trianglediamonds.svg	38	no	da	1	1788	6	3	antiphase_hc_soi.wav	1	6	2	noise_calib_stim_LEFT.wav	1	7	blb_dichoticlistening_da-ba.mp3	da	ba	1	left
6.6.1	win	2023-06-27	13:38:08	13:50:07	715770	5f3d6f7010ad88124f3906e2	3	1	DL_test	23	DL_test	22	stimuli_distractor_diamondtriangles.svg	stimuli_distractor_trianglediamonds.svg	38	no	ga	1	1151	6	3	antiphase_hc_soi.wav	1	6	2	noise_calib_stim_LEFT.wav	1	9	blb_dichoticlistening_da-ga.mp3	da	ga	1	right
6.6.1	win	2023-06-27	13:38:08	13:50:07	715770	5f3d6f7010ad88124f3906e2	3	1	DL_test	23	DL_test	23	stimuli_distractor_diamondtriangles.svg	stimuli_distractor_trianglediamonds.svg	38	no	pa	1	935	6	3	antiphase_hc_soi.wav	1	6	2	noise_calib_stim_LEFT.wav	1	25	blb_dichoticlistening_pa-ba.mp3	pa	ba	1	left
6.6.1	win	2023-06-27	13:38:08	13:50:07	715770	5f3d6f7010ad88124f3906e2	3	1	DL_test	23	DL_test	24	stimuli_distractor_diamondtriangles.svg	stimuli_distractor_trianglediamonds.svg	38	no	ta	1	1145	6	3	antiphase_hc_soi.wav	1	6	2	noise_calib_stim_LEFT.wav	1	36	blb_dichoticlistening_ta-ta.mp3	ta	ta	0	left
6.6.1	win	2023-06-27	13:38:08	13:50:07	715770	5f3d6f7010ad88124f3906e2	3	1	DL_test	23	DL_test	25	stimuli_distractor_diamondtriangles.svg	stimuli_distractor_trianglediamonds.svg	38	no	ka	1	1321	6	3	antiphase_hc_soi.wav	1	6	2	noise_calib_stim_LEFT.wav	1	21	blb_dichoticlistening_ka-ga.mp3	ka	ga	1	left
6.6.1	win	2023-06-27	13:38:08	13:50:07	715770	5f3d6f7010ad88124f3906e2	3	1	DL_test	23	DL_test	26	stimuli_distractor_diamondtriangles.svg	stimuli_distractor_trianglediamonds.svg	38	no	ka	1	1192	6	3	antiphase_hc_soi.wav	1	6	2	noise_calib_stim_LEFT.wav	1	20	blb_dichoticlistening_ka-da.mp3	ka	da	1	left
