build	computer.platform	date	time	timestamp	time_elapsed_ms	subject	group	session	blockcode	blocknum	trialcode	trialnum	stimulus_left	stimulus_right	stim_index	target_present	response	correct	latency	headphonecheck_countTestTrials	headphonecheck_index	headphonecheck_testSound	headphonecheck_correctResponse	stereocheck_countTestTrials	stereocheck_index	stereocheck_testSound	stereocheck_correctResponse	DL_index	DL_soundfile	DL_leftSound	DL_rightSound	DL_dualSound	DL_choice
6.6.1	win	2023-06-15	10:31:48	10:35:29	218205	5f3c2648a9ef86a4c10de377	3	1	practice_slash	5	practice_slash	1	stimuli_target_diamondsquares.svg	stimuli_distractor_diamondtriangles.svg	3	yes	0	0	2000	0	0			0	0			1				0	
6.6.1	win	2023-06-15	10:31:48	10:35:29	218205	5f3c2648a9ef86a4c10de377	3	1	practice_slash	5	advance_on_keypress_SLASH	2	stimuli_target_diamondsquares.svg	stimuli_distractor_diamondtriangles.svg	3	yes	57	0	1288	0	0			0	0			1				0	
6.6.1	win	2023-06-15	10:31:48	10:35:34	223155	5f3c2648a9ef86a4c10de377	3	1	practice_slash	5	practice_slash	3	stimuli_distractor_diamondtriangles.svg	stimuli_distractor_diamondtriangles.svg	13	no	0	1	2000	0	0			0	0			1				0	
6.6.1	win	2023-06-15	10:31:48	10:35:34	223155	5f3c2648a9ef86a4c10de377	3	1	practice_slash	5	advance_on_keypress_SLASH	4	stimuli_distractor_diamondtriangles.svg	stimuli_distractor_diamondtriangles.svg	13	no	57	0	536	0	0			0	0			1				0	
6.6.1	win	2023-06-15	10:31:48	10:35:37	226114	5f3c2648a9ef86a4c10de377	3	1	practice_slash	5	practice_slash	5	stimuli_target_rectanglediamonds.svg	stimuli_distractor_diamondtriangles.svg	1	yes	53	1	779	0	0			0	0			1				0	
6.6.1	win	2023-06-15	10:31:48	10:35:37	226114	5f3c2648a9ef86a4c10de377	3	1	practice_slash	5	advance_on_keypress_SLASH	6	stimuli_target_rectanglediamonds.svg	stimuli_distractor_diamondtriangles.svg	1	yes	57	0	558	0	0			0	0			1				0	
6.6.1	win	2023-06-15	10:31:48	10:35:40	229179	5f3c2648a9ef86a4c10de377	3	1	practice_slash	5	practice_slash	7	stimuli_target_squarediamonds.svg	stimuli_distractor_diamondtriangles.svg	2	yes	53	1	862	0	0			0	0			1				0	
6.6.1	win	2023-06-15	10:31:48	10:35:40	229179	5f3c2648a9ef86a4c10de377	3	1	practice_slash	5	advance_on_keypress_SLASH	8	stimuli_target_squarediamonds.svg	stimuli_distractor_diamondtriangles.svg	2	yes	57	0	9	0	0			0	0			1				0	
6.6.1	win	2023-06-15	10:31:48	10:35:43	231594	5f3c2648a9ef86a4c10de377	3	1	practice_slash	5	practice_slash	9	stimuli_distractor_trianglediamonds.svg	stimuli_target_squarediamonds.svg	11	yes	53	1	746	0	0			0	0			1				0	
6.6.1	win	2023-06-15	10:31:48	10:35:43	231594	5f3c2648a9ef86a4c10de377	3	1	practice_slash	5	advance_on_keypress_SLASH	10	stimuli_distractor_trianglediamonds.svg	stimuli_target_squarediamonds.svg	11	yes	57	0	105	0	0			0	0			1				0	
6.6.1	win	2023-06-15	10:31:48	10:35:46	234635	5f3c2648a9ef86a4c10de377	3	1	practice_slash	5	practice_slash	11	stimuli_distractor_trianglediamonds.svg	stimuli_target_diamondrectangles.svg	12	yes	53	1	1284	0	0			0	0			1				0	
6.6.1	win	2023-06-15	10:31:48	10:35:46	234635	5f3c2648a9ef86a4c10de377	3	1	practice_slash	5	advance_on_keypress_SLASH	12	stimuli_distractor_trianglediamonds.svg	stimuli_target_diamondrectangles.svg	12	yes	57	0	1162	0	0			0	0			1				0	
6.6.1	win	2023-06-15	10:31:48	10:35:51	239445	5f3c2648a9ef86a4c10de377	3	1	practice_slash	5	practice_slash	13	stimuli_distractor_trianglediamonds.svg	stimuli_distractor_diamondtriangles.svg	16	no	0	1	2000	0	0			0	0			1				0	
6.6.1	win	2023-06-15	10:31:48	10:35:51	239445	5f3c2648a9ef86a4c10de377	3	1	practice_slash	5	advance_on_keypress_SLASH	14	stimuli_distractor_trianglediamonds.svg	stimuli_distractor_diamondtriangles.svg	16	no	57	0	614	0	0			0	0			1				0	
6.6.1	win	2023-06-15	10:31:48	10:35:54	243023	5f3c2648a9ef86a4c10de377	3	1	practice_slash	5	practice_slash	15	stimuli_distractor_diamondtriangles.svg	stimuli_target_diamondrectangles.svg	8	yes	53	1	1319	0	0			0	0			1				0	
6.6.1	win	2023-06-15	10:31:48	10:35:54	243023	5f3c2648a9ef86a4c10de377	3	1	practice_slash	5	advance_on_keypress_SLASH	16	stimuli_distractor_diamondtriangles.svg	stimuli_target_diamondrectangles.svg	8	yes	57	0	56	0	0			0	0			1				0	
6.6.1	win	2023-06-15	10:31:48	10:35:57	245864	5f3c2648a9ef86a4c10de377	3	1	practice_slash	5	practice_slash	17	stimuli_distractor_diamondtriangles.svg	stimuli_target_trianglerectangles.svg	9	yes	53	1	1125	0	0			0	0			1				0	
6.6.1	win	2023-06-15	10:31:48	10:35:57	245864	5f3c2648a9ef86a4c10de377	3	1	practice_slash	5	advance_on_keypress_SLASH	18	stimuli_distractor_diamondtriangles.svg	stimuli_target_trianglerectangles.svg	9	yes	57	0	1020	0	0			0	0			1				0	
6.6.1	win	2023-06-15	10:31:48	10:36:01	249430	5f3c2648a9ef86a4c10de377	3	1	practice_slash	5	practice_slash	19	stimuli_distractor_trianglediamonds.svg	stimuli_target_rectanglediamonds.svg	10	yes	53	1	911	0	0			0	0			1				0	
6.6.1	win	2023-06-15	10:31:48	10:36:01	249430	5f3c2648a9ef86a4c10de377	3	1	practice_slash	5	advance_on_keypress_SLASH	20	stimuli_distractor_trianglediamonds.svg	stimuli_target_rectanglediamonds.svg	10	yes	57	0	537	0	0			0	0			1				0	
6.6.1	win	2023-06-15	10:31:48	10:36:05	253601	5f3c2648a9ef86a4c10de377	3	1	practice_slash	5	practice_slash	21	stimuli_distractor_diamondtriangles.svg	stimuli_distractor_trianglediamonds.svg	14	no	0	1	2000	0	0			0	0			1				0	
6.6.1	win	2023-06-15	10:31:48	10:36:05	253601	5f3c2648a9ef86a4c10de377	3	1	practice_slash	5	advance_on_keypress_SLASH	22	stimuli_distractor_diamondtriangles.svg	stimuli_distractor_trianglediamonds.svg	14	no	57	0	174	0	0			0	0			1				0	
6.6.1	win	2023-06-15	10:31:48	10:36:08	256431	5f3c2648a9ef86a4c10de377	3	1	practice_slash	5	practice_slash	23	stimuli_distractor_diamondtriangles.svg	stimuli_target_rectangletriangles.svg	7	yes	53	1	1017	0	0			0	0			1				0	
6.6.1	win	2023-06-15	10:31:48	10:36:08	256431	5f3c2648a9ef86a4c10de377	3	1	practice_slash	5	advance_on_keypress_SLASH	24	stimuli_distractor_diamondtriangles.svg	stimuli_target_rectangletriangles.svg	7	yes	57	0	247	0	0			0	0			1				0	
6.6.1	win	2023-06-15	10:31:48	10:36:12	260323	5f3c2648a9ef86a4c10de377	3	1	practice_slash	5	practice_slash	25	stimuli_target_diamondsquares.svg	stimuli_distractor_trianglediamonds.svg	6	yes	0	0	2000	0	0			0	0			1				0	
6.6.1	win	2023-06-15	10:31:48	10:36:12	260323	5f3c2648a9ef86a4c10de377	3	1	practice_slash	5	advance_on_keypress_SLASH	26	stimuli_target_diamondsquares.svg	stimuli_distractor_trianglediamonds.svg	6	yes	57	0	279	0	0			0	0			1				0	
6.6.1	win	2023-06-15	10:31:48	10:36:14	262991	5f3c2648a9ef86a4c10de377	3	1	practice_slash	5	practice_slash	27	stimuli_target_rectanglediamonds.svg	stimuli_distractor_trianglediamonds.svg	4	yes	53	1	732	0	0			0	0			1				0	
6.6.1	win	2023-06-15	10:31:48	10:36:14	262991	5f3c2648a9ef86a4c10de377	3	1	practice_slash	5	advance_on_keypress_SLASH	28	stimuli_target_rectanglediamonds.svg	stimuli_distractor_trianglediamonds.svg	4	yes	57	0	321	0	0			0	0			1				0	
6.6.1	win	2023-06-15	10:31:48	10:36:18	266961	5f3c2648a9ef86a4c10de377	3	1	practice_slash	5	practice_slash	29	stimuli_target_squarediamonds.svg	stimuli_distractor_trianglediamonds.svg	5	yes	0	0	2000	0	0			0	0			1				0	
6.6.1	win	2023-06-15	10:31:48	10:36:18	266961	5f3c2648a9ef86a4c10de377	3	1	practice_slash	5	advance_on_keypress_SLASH	30	stimuli_target_squarediamonds.svg	stimuli_distractor_trianglediamonds.svg	5	yes	57	0	518	0	0			0	0			1				0	
6.6.1	win	2023-06-15	10:31:48	10:36:22	271130	5f3c2648a9ef86a4c10de377	3	1	practice_slash	5	practice_slash	31	stimuli_distractor_trianglediamonds.svg	stimuli_distractor_trianglediamonds.svg	15	no	0	1	2000	0	0			0	0			1				0	
6.6.1	win	2023-06-15	10:31:48	10:36:22	271130	5f3c2648a9ef86a4c10de377	3	1	practice_slash	5	advance_on_keypress_SLASH	32	stimuli_distractor_trianglediamonds.svg	stimuli_distractor_trianglediamonds.svg	15	no	57	0	438	0	0			0	0			1				0	
6.6.1	win	2023-06-15	10:31:48	10:36:34	282253	5f3c2648a9ef86a4c10de377	3	1	main_slash	7	main_slash	1	stimuli_distractor_diamondtriangles.svg	stimuli_target_trianglerectangles.svg	29	yes	53	1	710	0	0			0	0			1				0	
6.6.1	win	2023-06-15	10:31:48	10:36:34	282253	5f3c2648a9ef86a4c10de377	3	1	main_slash	7	advance_on_keypress_SLASH	2	stimuli_distractor_diamondtriangles.svg	stimuli_target_trianglerectangles.svg	29	yes	57	0	1328	0	0			0	0			1				0	
6.6.1	win	2023-06-15	10:31:48	10:36:36	285149	5f3c2648a9ef86a4c10de377	3	1	main_slash	7	main_slash	3	stimuli_distractor_diamondtriangles.svg	stimuli_target_rectanglediamonds.svg	14	yes	53	1	915	0	0			0	0			1				0	
6.6.1	win	2023-06-15	10:31:48	10:36:36	285149	5f3c2648a9ef86a4c10de377	3	1	main_slash	7	advance_on_keypress_SLASH	4	stimuli_distractor_diamondtriangles.svg	stimuli_target_rectanglediamonds.svg	14	yes	57	0	508	0	0			0	0			1				0	
6.6.1	win	2023-06-15	10:31:48	10:36:38	287039	5f3c2648a9ef86a4c10de377	3	1	main_slash	7	main_slash	5	stimuli_target_squarediamonds.svg	stimuli_distractor_trianglediamonds.svg	4	yes	53	1	734	0	0			0	0			1				0	
6.6.1	win	2023-06-15	10:31:48	10:36:38	287039	5f3c2648a9ef86a4c10de377	3	1	main_slash	7	advance_on_keypress_SLASH	6	stimuli_target_squarediamonds.svg	stimuli_distractor_trianglediamonds.svg	4	yes	57	0	308	0	0			0	0			1				0	
6.6.1	win	2023-06-15	10:31:48	10:36:40	288844	5f3c2648a9ef86a4c10de377	3	1	main_slash	7	main_slash	7	stimuli_target_trianglerectangles.svg	stimuli_distractor_diamondtriangles.svg	21	yes	53	1	847	0	0			0	0			1				0	
6.6.1	win	2023-06-15	10:31:48	10:36:40	288844	5f3c2648a9ef86a4c10de377	3	1	main_slash	7	advance_on_keypress_SLASH	8	stimuli_target_trianglerectangles.svg	stimuli_distractor_diamondtriangles.svg	21	yes	57	0	240	0	0			0	0			1				0	
6.6.1	win	2023-06-15	10:31:48	10:36:42	290563	5f3c2648a9ef86a4c10de377	3	1	main_slash	7	main_slash	9	stimuli_target_rectangletriangles.svg	stimuli_distractor_trianglediamonds.svg	1	yes	53	1	836	0	0			0	0			1				0	
6.6.1	win	2023-06-15	10:31:48	10:36:42	290563	5f3c2648a9ef86a4c10de377	3	1	main_slash	7	advance_on_keypress_SLASH	10	stimuli_target_rectangletriangles.svg	stimuli_distractor_trianglediamonds.svg	1	yes	57	0	277	0	0			0	0			1				0	
6.6.1	win	2023-06-15	10:31:48	10:36:43	292192	5f3c2648a9ef86a4c10de377	3	1	main_slash	7	main_slash	11	stimuli_target_squarediamonds.svg	stimuli_distractor_diamondtriangles.svg	8	yes	53	1	699	0	0			0	0			1				0	
6.6.1	win	2023-06-15	10:31:48	10:36:43	292192	5f3c2648a9ef86a4c10de377	3	1	main_slash	7	advance_on_keypress_SLASH	12	stimuli_target_squarediamonds.svg	stimuli_distractor_diamondtriangles.svg	8	yes	57	0	279	0	0			0	0			1				0	
6.6.1	win	2023-06-15	10:31:48	10:36:45	293963	5f3c2648a9ef86a4c10de377	3	1	main_slash	7	main_slash	13	stimuli_target_rectanglediamonds.svg	stimuli_distractor_diamondtriangles.svg	6	yes	53	1	847	0	0			0	0			1				0	
6.6.1	win	2023-06-15	10:31:48	10:36:45	293963	5f3c2648a9ef86a4c10de377	3	1	main_slash	7	advance_on_keypress_SLASH	14	stimuli_target_rectanglediamonds.svg	stimuli_distractor_diamondtriangles.svg	6	yes	57	0	209	0	0			0	0			1				0	
6.6.1	win	2023-06-15	10:31:48	10:36:48	296805	5f3c2648a9ef86a4c10de377	3	1	main_slash	7	main_slash	15	stimuli_distractor_trianglediamonds.svg	stimuli_target_squaretriangles.svg	11	yes	0	0	2000	0	0			0	0			1				0	
6.6.1	win	2023-06-15	10:31:48	10:36:48	296805	5f3c2648a9ef86a4c10de377	3	1	main_slash	7	advance_on_keypress_SLASH	16	stimuli_distractor_trianglediamonds.svg	stimuli_target_squaretriangles.svg	11	yes	57	0	774	0	0			0	0			1				0	
6.6.1	win	2023-06-15	10:31:48	10:36:50	298936	5f3c2648a9ef86a4c10de377	3	1	main_slash	7	main_slash	17	stimuli_target_squaretriangles.svg	stimuli_distractor_trianglediamonds.svg	3	yes	53	1	713	0	0			0	0			1				0	
6.6.1	win	2023-06-15	10:31:48	10:36:50	298936	5f3c2648a9ef86a4c10de377	3	1	main_slash	7	advance_on_keypress_SLASH	18	stimuli_target_squaretriangles.svg	stimuli_distractor_trianglediamonds.svg	3	yes	57	0	272	0	0			0	0			1				0	
6.6.1	win	2023-06-15	10:31:48	10:36:52	300831	5f3c2648a9ef86a4c10de377	3	1	main_slash	7	main_slash	19	stimuli_target_diamondsquares.svg	stimuli_distractor_diamondtriangles.svg	24	yes	53	1	973	0	0			0	0			1				0	
6.6.1	win	2023-06-15	10:31:48	10:36:52	300831	5f3c2648a9ef86a4c10de377	3	1	main_slash	7	advance_on_keypress_SLASH	20	stimuli_target_diamondsquares.svg	stimuli_distractor_diamondtriangles.svg	24	yes	57	0	179	0	0			0	0			1				0	
6.6.1	win	2023-06-15	10:31:48	10:36:54	302723	5f3c2648a9ef86a4c10de377	3	1	main_slash	7	main_slash	21	stimuli_distractor_diamondtriangles.svg	stimuli_target_trianglesquares.svg	30	yes	53	1	1057	0	0			0	0			1				0	
6.6.1	win	2023-06-15	10:31:48	10:36:54	302723	5f3c2648a9ef86a4c10de377	3	1	main_slash	7	advance_on_keypress_SLASH	22	stimuli_distractor_diamondtriangles.svg	stimuli_target_trianglesquares.svg	30	yes	57	0	219	0	0			0	0			1				0	
6.6.1	win	2023-06-15	10:31:48	10:36:56	304654	5f3c2648a9ef86a4c10de377	3	1	main_slash	7	main_slash	23	stimuli_distractor_diamondtriangles.svg	stimuli_target_rectangletriangles.svg	13	yes	53	1	1066	0	0			0	0			1				0	
6.6.1	win	2023-06-15	10:31:48	10:36:56	304654	5f3c2648a9ef86a4c10de377	3	1	main_slash	7	advance_on_keypress_SLASH	24	stimuli_distractor_diamondtriangles.svg	stimuli_target_rectangletriangles.svg	13	yes	57	0	166	0	0			0	0			1				0	
6.6.1	win	2023-06-15	10:31:48	10:36:59	307460	5f3c2648a9ef86a4c10de377	3	1	main_slash	7	main_slash	25	stimuli_distractor_diamondtriangles.svg	stimuli_distractor_diamondtriangles.svg	39	no	0	1	2000	0	0			0	0			1				0	
6.6.1	win	2023-06-15	10:31:48	10:36:59	307460	5f3c2648a9ef86a4c10de377	3	1	main_slash	7	advance_on_keypress_SLASH	26	stimuli_distractor_diamondtriangles.svg	stimuli_distractor_diamondtriangles.svg	39	no	57	0	669	0	0			0	0			1				0	
6.6.1	win	2023-06-15	10:31:48	10:37:01	309454	5f3c2648a9ef86a4c10de377	3	1	main_slash	7	main_slash	27	stimuli_distractor_diamondtriangles.svg	stimuli_target_squarediamonds.svg	16	yes	53	1	680	0	0			0	0			1				0	
6.6.1	win	2023-06-15	10:31:48	10:37:01	309454	5f3c2648a9ef86a4c10de377	3	1	main_slash	7	advance_on_keypress_SLASH	28	stimuli_distractor_diamondtriangles.svg	stimuli_target_squarediamonds.svg	16	yes	57	0	238	0	0			0	0			1				0	
6.6.1	win	2023-06-15	10:31:48	10:37:04	312328	5f3c2648a9ef86a4c10de377	3	1	main_slash	7	main_slash	29	stimuli_distractor_diamondtriangles.svg	stimuli_distractor_diamondtriangles.svg	40	no	0	1	2000	0	0			0	0			1				0	
6.6.1	win	2023-06-15	10:31:48	10:37:04	312328	5f3c2648a9ef86a4c10de377	3	1	main_slash	7	advance_on_keypress_SLASH	30	stimuli_distractor_diamondtriangles.svg	stimuli_distractor_diamondtriangles.svg	40	no	57	0	549	0	0			0	0			1				0	
6.6.1	win	2023-06-15	10:31:48	10:37:06	314450	5f3c2648a9ef86a4c10de377	3	1	main_slash	7	main_slash	31	stimuli_distractor_trianglediamonds.svg	stimuli_target_diamondrectangles.svg	27	yes	53	1	937	0	0			0	0			1				0	
6.6.1	win	2023-06-15	10:31:48	10:37:06	314450	5f3c2648a9ef86a4c10de377	3	1	main_slash	7	advance_on_keypress_SLASH	32	stimuli_distractor_trianglediamonds.svg	stimuli_target_diamondrectangles.svg	27	yes	57	0	245	0	0			0	0			1				0	
6.6.1	win	2023-06-15	10:31:48	10:37:07	316075	5f3c2648a9ef86a4c10de377	3	1	main_slash	7	main_slash	33	stimuli_target_trianglesquares.svg	stimuli_distractor_diamondtriangles.svg	22	yes	53	1	734	0	0			0	0			1				0	
6.6.1	win	2023-06-15	10:31:48	10:37:07	316075	5f3c2648a9ef86a4c10de377	3	1	main_slash	7	advance_on_keypress_SLASH	34	stimuli_target_trianglesquares.svg	stimuli_distractor_diamondtriangles.svg	22	yes	57	0	240	0	0			0	0			1				0	
6.6.1	win	2023-06-15	10:31:48	10:37:09	317745	5f3c2648a9ef86a4c10de377	3	1	main_slash	7	main_slash	35	stimuli_target_diamondsquares.svg	stimuli_distractor_trianglediamonds.svg	20	yes	53	1	798	0	0			0	0			1				0	
6.6.1	win	2023-06-15	10:31:48	10:37:09	317745	5f3c2648a9ef86a4c10de377	3	1	main_slash	7	advance_on_keypress_SLASH	36	stimuli_target_diamondsquares.svg	stimuli_distractor_trianglediamonds.svg	20	yes	57	0	199	0	0			0	0			1				0	
6.6.1	win	2023-06-15	10:31:48	10:37:12	320580	5f3c2648a9ef86a4c10de377	3	1	main_slash	7	main_slash	37	stimuli_distractor_diamondtriangles.svg	stimuli_distractor_trianglediamonds.svg	37	no	0	1	2000	0	0			0	0			1				0	
6.6.1	win	2023-06-15	10:31:48	10:37:12	320580	5f3c2648a9ef86a4c10de377	3	1	main_slash	7	advance_on_keypress_SLASH	38	stimuli_distractor_diamondtriangles.svg	stimuli_distractor_trianglediamonds.svg	37	no	57	0	712	0	0			0	0			1				0	
6.6.1	win	2023-06-15	10:31:48	10:37:14	322916	5f3c2648a9ef86a4c10de377	3	1	main_slash	7	main_slash	39	stimuli_distractor_trianglediamonds.svg	stimuli_distractor_trianglediamonds.svg	33	no	53	0	980	0	0			0	0			1				0	
6.6.1	win	2023-06-15	10:31:48	10:37:14	322916	5f3c2648a9ef86a4c10de377	3	1	main_slash	7	advance_on_keypress_SLASH	40	stimuli_distractor_trianglediamonds.svg	stimuli_distractor_trianglediamonds.svg	33	no	57	0	171	0	0			0	0			1				0	
6.6.1	win	2023-06-15	10:31:48	10:37:17	325737	5f3c2648a9ef86a4c10de377	3	1	main_slash	7	main_slash	41	stimuli_distractor_trianglediamonds.svg	stimuli_distractor_diamondtriangles.svg	36	no	0	1	2000	0	0			0	0			1				0	
6.6.1	win	2023-06-15	10:31:48	10:37:17	325737	5f3c2648a9ef86a4c10de377	3	1	main_slash	7	advance_on_keypress_SLASH	42	stimuli_distractor_trianglediamonds.svg	stimuli_distractor_diamondtriangles.svg	36	no	57	0	472	0	0			0	0			1				0	
6.6.1	win	2023-06-15	10:31:48	10:37:19	327676	5f3c2648a9ef86a4c10de377	3	1	main_slash	7	main_slash	43	stimuli_distractor_diamondtriangles.svg	stimuli_target_squaretriangles.svg	15	yes	53	1	820	0	0			0	0			1				0	
6.6.1	win	2023-06-15	10:31:48	10:37:19	327676	5f3c2648a9ef86a4c10de377	3	1	main_slash	7	advance_on_keypress_SLASH	44	stimuli_distractor_diamondtriangles.svg	stimuli_target_squaretriangles.svg	15	yes	57	0	194	0	0			0	0			1				0	
6.6.1	win	2023-06-15	10:31:48	10:37:21	329482	5f3c2648a9ef86a4c10de377	3	1	main_slash	7	main_slash	45	stimuli_target_trianglerectangles.svg	stimuli_distractor_trianglediamonds.svg	17	yes	53	1	978	0	0			0	0			1				0	
6.6.1	win	2023-06-15	10:31:48	10:37:21	329482	5f3c2648a9ef86a4c10de377	3	1	main_slash	7	advance_on_keypress_SLASH	46	stimuli_target_trianglerectangles.svg	stimuli_distractor_trianglediamonds.svg	17	yes	57	0	197	0	0			0	0			1				0	
6.6.1	win	2023-06-15	10:31:48	10:37:22	331129	5f3c2648a9ef86a4c10de377	3	1	main_slash	7	main_slash	47	stimuli_target_rectangletriangles.svg	stimuli_distractor_diamondtriangles.svg	5	yes	53	1	792	0	0			0	0			1				0	
6.6.1	win	2023-06-15	10:31:48	10:37:22	331129	5f3c2648a9ef86a4c10de377	3	1	main_slash	7	advance_on_keypress_SLASH	48	stimuli_target_rectangletriangles.svg	stimuli_distractor_diamondtriangles.svg	5	yes	57	0	217	0	0			0	0			1				0	
6.6.1	win	2023-06-15	10:31:48	10:37:24	333101	5f3c2648a9ef86a4c10de377	3	1	main_slash	7	main_slash	49	stimuli_distractor_diamondtriangles.svg	stimuli_distractor_trianglediamonds.svg	38	no	53	0	1107	0	0			0	0			1				0	
6.6.1	win	2023-06-15	10:31:48	10:37:24	333101	5f3c2648a9ef86a4c10de377	3	1	main_slash	7	advance_on_keypress_SLASH	50	stimuli_distractor_diamondtriangles.svg	stimuli_distractor_trianglediamonds.svg	38	no	57	0	242	0	0			0	0			1				0	
6.6.1	win	2023-06-15	10:31:48	10:37:26	335023	5f3c2648a9ef86a4c10de377	3	1	main_slash	7	main_slash	51	stimuli_distractor_trianglediamonds.svg	stimuli_target_rectanglediamonds.svg	10	yes	53	1	1040	0	0			0	0			1				0	
6.6.1	win	2023-06-15	10:31:48	10:37:26	335023	5f3c2648a9ef86a4c10de377	3	1	main_slash	7	advance_on_keypress_SLASH	52	stimuli_distractor_trianglediamonds.svg	stimuli_target_rectanglediamonds.svg	10	yes	57	0	218	0	0			0	0			1				0	
6.6.1	win	2023-06-15	10:31:48	10:37:29	337890	5f3c2648a9ef86a4c10de377	3	1	main_slash	7	main_slash	53	stimuli_distractor_trianglediamonds.svg	stimuli_distractor_trianglediamonds.svg	34	no	0	1	2000	0	0			0	0			1				0	
6.6.1	win	2023-06-15	10:31:48	10:37:29	337890	5f3c2648a9ef86a4c10de377	3	1	main_slash	7	advance_on_keypress_SLASH	54	stimuli_distractor_trianglediamonds.svg	stimuli_distractor_trianglediamonds.svg	34	no	57	0	814	0	0			0	0			1				0	
6.6.1	win	2023-06-15	10:31:48	10:37:31	340028	5f3c2648a9ef86a4c10de377	3	1	main_slash	7	main_slash	55	stimuli_distractor_trianglediamonds.svg	stimuli_target_squarediamonds.svg	12	yes	53	1	681	0	0			0	0			1				0	
6.6.1	win	2023-06-15	10:31:48	10:37:31	340028	5f3c2648a9ef86a4c10de377	3	1	main_slash	7	advance_on_keypress_SLASH	56	stimuli_distractor_trianglediamonds.svg	stimuli_target_squarediamonds.svg	12	yes	57	0	200	0	0			0	0			1				0	
6.6.1	win	2023-06-15	10:31:48	10:37:33	341531	5f3c2648a9ef86a4c10de377	3	1	main_slash	7	main_slash	57	stimuli_distractor_trianglediamonds.svg	stimuli_target_trianglerectangles.svg	25	yes	53	1	664	0	0			0	0			1				0	
6.6.1	win	2023-06-15	10:31:48	10:37:33	341531	5f3c2648a9ef86a4c10de377	3	1	main_slash	7	advance_on_keypress_SLASH	58	stimuli_distractor_trianglediamonds.svg	stimuli_target_trianglerectangles.svg	25	yes	57	0	234	0	0			0	0			1				0	
6.6.1	win	2023-06-15	10:31:48	10:37:36	344406	5f3c2648a9ef86a4c10de377	3	1	main_slash	7	main_slash	59	stimuli_target_diamondrectangles.svg	stimuli_distractor_diamondtriangles.svg	23	yes	0	0	2000	0	0			0	0			1				0	
6.6.1	win	2023-06-15	10:31:48	10:37:36	344406	5f3c2648a9ef86a4c10de377	3	1	main_slash	7	advance_on_keypress_SLASH	60	stimuli_target_diamondrectangles.svg	stimuli_distractor_diamondtriangles.svg	23	yes	57	0	591	0	0			0	0			1				0	
6.6.1	win	2023-06-15	10:31:48	10:37:38	346341	5f3c2648a9ef86a4c10de377	3	1	main_slash	7	main_slash	61	stimuli_target_diamondrectangles.svg	stimuli_distractor_trianglediamonds.svg	19	yes	53	1	697	0	0			0	0			1				0	
6.6.1	win	2023-06-15	10:31:48	10:37:38	346341	5f3c2648a9ef86a4c10de377	3	1	main_slash	7	advance_on_keypress_SLASH	62	stimuli_target_diamondrectangles.svg	stimuli_distractor_trianglediamonds.svg	19	yes	57	0	179	0	0			0	0			1				0	
6.6.1	win	2023-06-15	10:31:48	10:37:39	347852	5f3c2648a9ef86a4c10de377	3	1	main_slash	7	main_slash	63	stimuli_distractor_trianglediamonds.svg	stimuli_target_diamondsquares.svg	28	yes	53	1	706	0	0			0	0			1				0	
6.6.1	win	2023-06-15	10:31:48	10:37:39	347852	5f3c2648a9ef86a4c10de377	3	1	main_slash	7	advance_on_keypress_SLASH	64	stimuli_distractor_trianglediamonds.svg	stimuli_target_diamondsquares.svg	28	yes	57	0	192	0	0			0	0			1				0	
6.6.1	win	2023-06-15	10:31:48	10:37:41	349323	5f3c2648a9ef86a4c10de377	3	1	main_slash	7	main_slash	65	stimuli_distractor_diamondtriangles.svg	stimuli_target_diamondrectangles.svg	31	yes	53	1	649	0	0			0	0			1				0	
6.6.1	win	2023-06-15	10:31:48	10:37:41	349323	5f3c2648a9ef86a4c10de377	3	1	main_slash	7	advance_on_keypress_SLASH	66	stimuli_distractor_diamondtriangles.svg	stimuli_target_diamondrectangles.svg	31	yes	57	0	158	0	0			0	0			1				0	
6.6.1	win	2023-06-15	10:31:48	10:37:43	352126	5f3c2648a9ef86a4c10de377	3	1	main_slash	7	main_slash	67	stimuli_distractor_trianglediamonds.svg	stimuli_distractor_diamondtriangles.svg	35	no	0	1	2000	0	0			0	0			1				0	
6.6.1	win	2023-06-15	10:31:48	10:37:43	352126	5f3c2648a9ef86a4c10de377	3	1	main_slash	7	advance_on_keypress_SLASH	68	stimuli_distractor_trianglediamonds.svg	stimuli_distractor_diamondtriangles.svg	35	no	57	0	1128	0	0			0	0			1				0	
6.6.1	win	2023-06-15	10:31:48	10:37:46	354529	5f3c2648a9ef86a4c10de377	3	1	main_slash	7	main_slash	69	stimuli_target_rectanglediamonds.svg	stimuli_distractor_trianglediamonds.svg	2	yes	53	1	634	0	0			0	0			1				0	
6.6.1	win	2023-06-15	10:31:48	10:37:46	354529	5f3c2648a9ef86a4c10de377	3	1	main_slash	7	advance_on_keypress_SLASH	70	stimuli_target_rectanglediamonds.svg	stimuli_distractor_trianglediamonds.svg	2	yes	57	0	168	0	0			0	0			1				0	
6.6.1	win	2023-06-15	10:31:48	10:37:47	356003	5f3c2648a9ef86a4c10de377	3	1	main_slash	7	main_slash	71	stimuli_distractor_diamondtriangles.svg	stimuli_target_diamondsquares.svg	32	yes	53	1	667	0	0			0	0			1				0	
6.6.1	win	2023-06-15	10:31:48	10:37:47	356003	5f3c2648a9ef86a4c10de377	3	1	main_slash	7	advance_on_keypress_SLASH	72	stimuli_distractor_diamondtriangles.svg	stimuli_target_diamondsquares.svg	32	yes	57	0	183	0	0			0	0			1				0	
6.6.1	win	2023-06-15	10:31:48	10:37:49	357515	5f3c2648a9ef86a4c10de377	3	1	main_slash	7	main_slash	73	stimuli_distractor_trianglediamonds.svg	stimuli_target_trianglesquares.svg	26	yes	53	1	683	0	0			0	0			1				0	
6.6.1	win	2023-06-15	10:31:48	10:37:49	357515	5f3c2648a9ef86a4c10de377	3	1	main_slash	7	advance_on_keypress_SLASH	74	stimuli_distractor_trianglediamonds.svg	stimuli_target_trianglesquares.svg	26	yes	57	0	206	0	0			0	0			1				0	
6.6.1	win	2023-06-15	10:31:48	10:37:52	360365	5f3c2648a9ef86a4c10de377	3	1	main_slash	7	main_slash	75	stimuli_target_squaretriangles.svg	stimuli_distractor_diamondtriangles.svg	7	yes	0	0	2000	0	0			0	0			1				0	
6.6.1	win	2023-06-15	10:31:48	10:37:52	360365	5f3c2648a9ef86a4c10de377	3	1	main_slash	7	advance_on_keypress_SLASH	76	stimuli_target_squaretriangles.svg	stimuli_distractor_diamondtriangles.svg	7	yes	57	0	557	0	0			0	0			1				0	
6.6.1	win	2023-06-15	10:31:48	10:37:54	362370	5f3c2648a9ef86a4c10de377	3	1	main_slash	7	main_slash	77	stimuli_distractor_trianglediamonds.svg	stimuli_target_rectangletriangles.svg	9	yes	53	1	808	0	0			0	0			1				0	
6.6.1	win	2023-06-15	10:31:48	10:37:54	362370	5f3c2648a9ef86a4c10de377	3	1	main_slash	7	advance_on_keypress_SLASH	78	stimuli_distractor_trianglediamonds.svg	stimuli_target_rectangletriangles.svg	9	yes	57	0	188	0	0			0	0			1				0	
6.6.1	win	2023-06-15	10:31:48	10:37:55	363958	5f3c2648a9ef86a4c10de377	3	1	main_slash	7	main_slash	79	stimuli_target_trianglesquares.svg	stimuli_distractor_trianglediamonds.svg	18	yes	53	1	765	0	0			0	0			1				0	
6.6.1	win	2023-06-15	10:31:48	10:37:55	363958	5f3c2648a9ef86a4c10de377	3	1	main_slash	7	advance_on_keypress_SLASH	80	stimuli_target_trianglesquares.svg	stimuli_distractor_trianglediamonds.svg	18	yes	57	0	194	0	0			0	0			1				0	
6.6.1	win	2023-06-15	10:31:48	10:37:57	365513	5f3c2648a9ef86a4c10de377	3	1	main_slash	7	main_slash	81	stimuli_distractor_diamondtriangles.svg	stimuli_target_squarediamonds.svg	16	yes	53	1	720	0	0			0	0			1				0	
6.6.1	win	2023-06-15	10:31:48	10:37:57	365513	5f3c2648a9ef86a4c10de377	3	1	main_slash	7	advance_on_keypress_SLASH	82	stimuli_distractor_diamondtriangles.svg	stimuli_target_squarediamonds.svg	16	yes	57	0	185	0	0			0	0			1				0	
6.6.1	win	2023-06-15	10:31:48	10:37:58	367041	5f3c2648a9ef86a4c10de377	3	1	main_slash	7	main_slash	83	stimuli_target_trianglesquares.svg	stimuli_distractor_diamondtriangles.svg	22	yes	53	1	699	0	0			0	0			1				0	
6.6.1	win	2023-06-15	10:31:48	10:37:58	367041	5f3c2648a9ef86a4c10de377	3	1	main_slash	7	advance_on_keypress_SLASH	84	stimuli_target_trianglesquares.svg	stimuli_distractor_diamondtriangles.svg	22	yes	57	0	207	0	0			0	0			1				0	
6.6.1	win	2023-06-15	10:31:48	10:38:00	368572	5f3c2648a9ef86a4c10de377	3	1	main_slash	7	main_slash	85	stimuli_distractor_trianglediamonds.svg	stimuli_target_trianglesquares.svg	26	yes	53	1	674	0	0			0	0			1				0	
6.6.1	win	2023-06-15	10:31:48	10:38:00	368572	5f3c2648a9ef86a4c10de377	3	1	main_slash	7	advance_on_keypress_SLASH	86	stimuli_distractor_trianglediamonds.svg	stimuli_target_trianglesquares.svg	26	yes	57	0	190	0	0			0	0			1				0	
6.6.1	win	2023-06-15	10:31:48	10:38:02	370350	5f3c2648a9ef86a4c10de377	3	1	main_slash	7	main_slash	87	stimuli_distractor_trianglediamonds.svg	stimuli_target_squarediamonds.svg	12	yes	53	1	937	0	0			0	0			1				0	
6.6.1	win	2023-06-15	10:31:48	10:38:02	370350	5f3c2648a9ef86a4c10de377	3	1	main_slash	7	advance_on_keypress_SLASH	88	stimuli_distractor_trianglediamonds.svg	stimuli_target_squarediamonds.svg	12	yes	57	0	192	0	0			0	0			1				0	
6.6.1	win	2023-06-15	10:31:48	10:38:03	371897	5f3c2648a9ef86a4c10de377	3	1	main_slash	7	main_slash	89	stimuli_target_trianglerectangles.svg	stimuli_distractor_trianglediamonds.svg	17	yes	53	1	721	0	0			0	0			1				0	
6.6.1	win	2023-06-15	10:31:48	10:38:03	371897	5f3c2648a9ef86a4c10de377	3	1	main_slash	7	advance_on_keypress_SLASH	90	stimuli_target_trianglerectangles.svg	stimuli_distractor_trianglediamonds.svg	17	yes	57	0	207	0	0			0	0			1				0	
6.6.1	win	2023-06-15	10:31:48	10:38:05	373416	5f3c2648a9ef86a4c10de377	3	1	main_slash	7	main_slash	91	stimuli_distractor_trianglediamonds.svg	stimuli_target_diamondrectangles.svg	27	yes	53	1	676	0	0			0	0			1				0	
6.6.1	win	2023-06-15	10:31:48	10:38:05	373416	5f3c2648a9ef86a4c10de377	3	1	main_slash	7	advance_on_keypress_SLASH	92	stimuli_distractor_trianglediamonds.svg	stimuli_target_diamondrectangles.svg	27	yes	57	0	238	0	0			0	0			1				0	
6.6.1	win	2023-06-15	10:31:48	10:38:06	374998	5f3c2648a9ef86a4c10de377	3	1	main_slash	7	main_slash	93	stimuli_target_diamondsquares.svg	stimuli_distractor_trianglediamonds.svg	20	yes	53	1	705	0	0			0	0			1				0	
6.6.1	win	2023-06-15	10:31:48	10:38:06	374998	5f3c2648a9ef86a4c10de377	3	1	main_slash	7	advance_on_keypress_SLASH	94	stimuli_target_diamondsquares.svg	stimuli_distractor_trianglediamonds.svg	20	yes	57	0	238	0	0			0	0			1				0	
6.6.1	win	2023-06-15	10:31:48	10:38:09	377288	5f3c2648a9ef86a4c10de377	3	1	main_slash	7	main_slash	95	stimuli_distractor_diamondtriangles.svg	stimuli_target_rectanglediamonds.svg	14	yes	53	1	1419	0	0			0	0			1				0	
6.6.1	win	2023-06-15	10:31:48	10:38:09	377288	5f3c2648a9ef86a4c10de377	3	1	main_slash	7	advance_on_keypress_SLASH	96	stimuli_distractor_diamondtriangles.svg	stimuli_target_rectanglediamonds.svg	14	yes	57	0	194	0	0			0	0			1				0	
6.6.1	win	2023-06-15	10:31:48	10:38:11	380134	5f3c2648a9ef86a4c10de377	3	1	main_slash	7	main_slash	97	stimuli_distractor_trianglediamonds.svg	stimuli_distractor_trianglediamonds.svg	33	no	0	1	2000	0	0			0	0			1				0	
6.6.1	win	2023-06-15	10:31:48	10:38:11	380134	5f3c2648a9ef86a4c10de377	3	1	main_slash	7	advance_on_keypress_SLASH	98	stimuli_distractor_trianglediamonds.svg	stimuli_distractor_trianglediamonds.svg	33	no	57	0	891	0	0			0	0			1				0	
6.6.1	win	2023-06-15	10:31:48	10:38:14	382323	5f3c2648a9ef86a4c10de377	3	1	main_slash	7	main_slash	99	stimuli_distractor_trianglediamonds.svg	stimuli_target_squaretriangles.svg	11	yes	53	1	668	0	0			0	0			1				0	
6.6.1	win	2023-06-15	10:31:48	10:38:14	382323	5f3c2648a9ef86a4c10de377	3	1	main_slash	7	advance_on_keypress_SLASH	100	stimuli_distractor_trianglediamonds.svg	stimuli_target_squaretriangles.svg	11	yes	57	0	204	0	0			0	0			1				0	
6.6.1	win	2023-06-15	10:31:48	10:38:15	383896	5f3c2648a9ef86a4c10de377	3	1	main_slash	7	main_slash	101	stimuli_distractor_diamondtriangles.svg	stimuli_target_rectangletriangles.svg	13	yes	53	1	720	0	0			0	0			1				0	
6.6.1	win	2023-06-15	10:31:48	10:38:15	383896	5f3c2648a9ef86a4c10de377	3	1	main_slash	7	advance_on_keypress_SLASH	102	stimuli_distractor_diamondtriangles.svg	stimuli_target_rectangletriangles.svg	13	yes	57	0	146	0	0			0	0			1				0	
6.6.1	win	2023-06-15	10:31:48	10:38:17	385387	5f3c2648a9ef86a4c10de377	3	1	main_slash	7	main_slash	103	stimuli_target_rectanglediamonds.svg	stimuli_distractor_diamondtriangles.svg	6	yes	53	1	704	0	0			0	0			1				0	
6.6.1	win	2023-06-15	10:31:48	10:38:17	385387	5f3c2648a9ef86a4c10de377	3	1	main_slash	7	advance_on_keypress_SLASH	104	stimuli_target_rectanglediamonds.svg	stimuli_distractor_diamondtriangles.svg	6	yes	57	0	137	0	0			0	0			1				0	
6.6.1	win	2023-06-15	10:31:48	10:38:18	386839	5f3c2648a9ef86a4c10de377	3	1	main_slash	7	main_slash	105	stimuli_target_trianglesquares.svg	stimuli_distractor_trianglediamonds.svg	18	yes	53	1	675	0	0			0	0			1				0	
6.6.1	win	2023-06-15	10:31:48	10:38:18	386839	5f3c2648a9ef86a4c10de377	3	1	main_slash	7	advance_on_keypress_SLASH	106	stimuli_target_trianglesquares.svg	stimuli_distractor_trianglediamonds.svg	18	yes	57	0	153	0	0			0	0			1				0	
6.6.1	win	2023-06-15	10:31:48	10:38:20	388314	5f3c2648a9ef86a4c10de377	3	1	main_slash	7	main_slash	107	stimuli_distractor_trianglediamonds.svg	stimuli_target_rectangletriangles.svg	9	yes	53	1	688	0	0			0	0			1				0	
6.6.1	win	2023-06-15	10:31:48	10:38:20	388314	5f3c2648a9ef86a4c10de377	3	1	main_slash	7	advance_on_keypress_SLASH	108	stimuli_distractor_trianglediamonds.svg	stimuli_target_rectangletriangles.svg	9	yes	57	0	142	0	0			0	0			1				0	
6.6.1	win	2023-06-15	10:31:48	10:38:21	389705	5f3c2648a9ef86a4c10de377	3	1	main_slash	7	main_slash	109	stimuli_target_rectangletriangles.svg	stimuli_distractor_trianglediamonds.svg	1	yes	53	1	617	0	0			0	0			1				0	
6.6.1	win	2023-06-15	10:31:48	10:38:21	389705	5f3c2648a9ef86a4c10de377	3	1	main_slash	7	advance_on_keypress_SLASH	110	stimuli_target_rectangletriangles.svg	stimuli_distractor_trianglediamonds.svg	1	yes	57	0	143	0	0			0	0			1				0	
6.6.1	win	2023-06-15	10:31:48	10:38:22	391126	5f3c2648a9ef86a4c10de377	3	1	main_slash	7	main_slash	111	stimuli_target_rectanglediamonds.svg	stimuli_distractor_trianglediamonds.svg	2	yes	53	1	636	0	0			0	0			1				0	
6.6.1	win	2023-06-15	10:31:48	10:38:22	391126	5f3c2648a9ef86a4c10de377	3	1	main_slash	7	advance_on_keypress_SLASH	112	stimuli_target_rectanglediamonds.svg	stimuli_distractor_trianglediamonds.svg	2	yes	57	0	159	0	0			0	0			1				0	
6.6.1	win	2023-06-15	10:31:48	10:38:24	392791	5f3c2648a9ef86a4c10de377	3	1	main_slash	7	main_slash	113	stimuli_distractor_diamondtriangles.svg	stimuli_distractor_trianglediamonds.svg	38	no	53	0	867	0	0			0	0			1				0	
6.6.1	win	2023-06-15	10:31:48	10:38:24	392791	5f3c2648a9ef86a4c10de377	3	1	main_slash	7	advance_on_keypress_SLASH	114	stimuli_distractor_diamondtriangles.svg	stimuli_distractor_trianglediamonds.svg	38	no	57	0	151	0	0			0	0			1				0	
6.6.1	win	2023-06-15	10:31:48	10:38:26	394450	5f3c2648a9ef86a4c10de377	3	1	main_slash	7	main_slash	115	stimuli_target_trianglerectangles.svg	stimuli_distractor_diamondtriangles.svg	21	yes	53	1	865	0	0			0	0			1				0	
6.6.1	win	2023-06-15	10:31:48	10:38:26	394450	5f3c2648a9ef86a4c10de377	3	1	main_slash	7	advance_on_keypress_SLASH	116	stimuli_target_trianglerectangles.svg	stimuli_distractor_diamondtriangles.svg	21	yes	57	0	162	0	0			0	0			1				0	
6.6.1	win	2023-06-15	10:31:48	10:38:29	397261	5f3c2648a9ef86a4c10de377	3	1	main_slash	7	main_slash	117	stimuli_distractor_trianglediamonds.svg	stimuli_distractor_diamondtriangles.svg	36	no	0	1	2000	0	0			0	0			1				0	
6.6.1	win	2023-06-15	10:31:48	10:38:29	397261	5f3c2648a9ef86a4c10de377	3	1	main_slash	7	advance_on_keypress_SLASH	118	stimuli_distractor_trianglediamonds.svg	stimuli_distractor_diamondtriangles.svg	36	no	57	0	597	0	0			0	0			1				0	
6.6.1	win	2023-06-15	10:31:48	10:38:30	399171	5f3c2648a9ef86a4c10de377	3	1	main_slash	7	main_slash	119	stimuli_target_squaretriangles.svg	stimuli_distractor_diamondtriangles.svg	7	yes	53	1	664	0	0			0	0			1				0	
6.6.1	win	2023-06-15	10:31:48	10:38:30	399171	5f3c2648a9ef86a4c10de377	3	1	main_slash	7	advance_on_keypress_SLASH	120	stimuli_target_squaretriangles.svg	stimuli_distractor_diamondtriangles.svg	7	yes	57	0	174	0	0			0	0			1				0	
6.6.1	win	2023-06-15	10:31:48	10:38:32	400706	5f3c2648a9ef86a4c10de377	3	1	main_slash	7	main_slash	121	stimuli_distractor_diamondtriangles.svg	stimuli_target_diamondrectangles.svg	31	yes	53	1	720	0	0			0	0			1				0	
6.6.1	win	2023-06-15	10:31:48	10:38:32	400706	5f3c2648a9ef86a4c10de377	3	1	main_slash	7	advance_on_keypress_SLASH	122	stimuli_distractor_diamondtriangles.svg	stimuli_target_diamondrectangles.svg	31	yes	57	0	167	0	0			0	0			1				0	
6.6.1	win	2023-06-15	10:31:48	10:38:33	402202	5f3c2648a9ef86a4c10de377	3	1	main_slash	7	main_slash	123	stimuli_target_diamondsquares.svg	stimuli_distractor_diamondtriangles.svg	24	yes	53	1	688	0	0			0	0			1				0	
6.6.1	win	2023-06-15	10:31:48	10:38:33	402202	5f3c2648a9ef86a4c10de377	3	1	main_slash	7	advance_on_keypress_SLASH	124	stimuli_target_diamondsquares.svg	stimuli_distractor_diamondtriangles.svg	24	yes	57	0	118	0	0			0	0			1				0	
6.6.1	win	2023-06-15	10:31:48	10:38:35	403645	5f3c2648a9ef86a4c10de377	3	1	main_slash	7	main_slash	125	stimuli_distractor_trianglediamonds.svg	stimuli_target_trianglerectangles.svg	25	yes	53	1	678	0	0			0	0			1				0	
6.6.1	win	2023-06-15	10:31:48	10:38:35	403645	5f3c2648a9ef86a4c10de377	3	1	main_slash	7	advance_on_keypress_SLASH	126	stimuli_distractor_trianglediamonds.svg	stimuli_target_trianglerectangles.svg	25	yes	57	0	778	0	0			0	0			1				0	
6.6.1	win	2023-06-15	10:31:48	10:38:37	405666	5f3c2648a9ef86a4c10de377	3	1	main_slash	7	main_slash	127	stimuli_distractor_diamondtriangles.svg	stimuli_target_diamondsquares.svg	32	yes	53	1	592	0	0			0	0			1				0	
6.6.1	win	2023-06-15	10:31:48	10:38:37	405666	5f3c2648a9ef86a4c10de377	3	1	main_slash	7	advance_on_keypress_SLASH	128	stimuli_distractor_diamondtriangles.svg	stimuli_target_diamondsquares.svg	32	yes	57	0	129	0	0			0	0			1				0	
6.6.1	win	2023-06-15	10:31:48	10:38:38	407117	5f3c2648a9ef86a4c10de377	3	1	main_slash	7	main_slash	129	stimuli_target_diamondrectangles.svg	stimuli_distractor_diamondtriangles.svg	23	yes	53	1	666	0	0			0	0			1				0	
6.6.1	win	2023-06-15	10:31:48	10:38:38	407117	5f3c2648a9ef86a4c10de377	3	1	main_slash	7	advance_on_keypress_SLASH	130	stimuli_target_diamondrectangles.svg	stimuli_distractor_diamondtriangles.svg	23	yes	57	0	126	0	0			0	0			1				0	
6.6.1	win	2023-06-15	10:31:48	10:38:40	408673	5f3c2648a9ef86a4c10de377	3	1	main_slash	7	main_slash	131	stimuli_target_squarediamonds.svg	stimuli_distractor_trianglediamonds.svg	4	yes	53	1	785	0	0			0	0			1				0	
6.6.1	win	2023-06-15	10:31:48	10:38:40	408673	5f3c2648a9ef86a4c10de377	3	1	main_slash	7	advance_on_keypress_SLASH	132	stimuli_target_squarediamonds.svg	stimuli_distractor_trianglediamonds.svg	4	yes	57	0	75	0	0			0	0			1				0	
6.6.1	win	2023-06-15	10:31:48	10:38:41	410038	5f3c2648a9ef86a4c10de377	3	1	main_slash	7	main_slash	133	stimuli_distractor_diamondtriangles.svg	stimuli_distractor_trianglediamonds.svg	37	no	53	0	660	0	0			0	0			1				0	
6.6.1	win	2023-06-15	10:31:48	10:38:41	410038	5f3c2648a9ef86a4c10de377	3	1	main_slash	7	advance_on_keypress_SLASH	134	stimuli_distractor_diamondtriangles.svg	stimuli_distractor_trianglediamonds.svg	37	no	57	0	143	0	0			0	0			1				0	
6.6.1	win	2023-06-15	10:31:48	10:38:43	411674	5f3c2648a9ef86a4c10de377	3	1	main_slash	7	main_slash	135	stimuli_target_squarediamonds.svg	stimuli_distractor_diamondtriangles.svg	8	yes	53	1	864	0	0			0	0			1				0	
6.6.1	win	2023-06-15	10:31:48	10:38:43	411674	5f3c2648a9ef86a4c10de377	3	1	main_slash	7	advance_on_keypress_SLASH	136	stimuli_target_squarediamonds.svg	stimuli_distractor_diamondtriangles.svg	8	yes	57	0	143	0	0			0	0			1				0	
6.6.1	win	2023-06-15	10:31:48	10:38:46	414460	5f3c2648a9ef86a4c10de377	3	1	main_slash	7	main_slash	137	stimuli_distractor_diamondtriangles.svg	stimuli_distractor_diamondtriangles.svg	39	no	0	1	2000	0	0			0	0			1				0	
6.6.1	win	2023-06-15	10:31:48	10:38:46	414460	5f3c2648a9ef86a4c10de377	3	1	main_slash	7	advance_on_keypress_SLASH	138	stimuli_distractor_diamondtriangles.svg	stimuli_distractor_diamondtriangles.svg	39	no	57	0	496	0	0			0	0			1				0	
6.6.1	win	2023-06-15	10:31:48	10:38:49	417593	5f3c2648a9ef86a4c10de377	3	1	main_slash	7	main_slash	139	stimuli_distractor_diamondtriangles.svg	stimuli_distractor_diamondtriangles.svg	40	no	0	1	2000	0	0			0	0			1				0	
6.6.1	win	2023-06-15	10:31:48	10:38:49	417593	5f3c2648a9ef86a4c10de377	3	1	main_slash	7	advance_on_keypress_SLASH	140	stimuli_distractor_diamondtriangles.svg	stimuli_distractor_diamondtriangles.svg	40	no	57	0	1057	0	0			0	0			1				0	
6.6.1	win	2023-06-15	10:31:48	10:38:51	419963	5f3c2648a9ef86a4c10de377	3	1	main_slash	7	main_slash	141	stimuli_distractor_diamondtriangles.svg	stimuli_target_trianglesquares.svg	30	yes	53	1	672	0	0			0	0			1				0	
6.6.1	win	2023-06-15	10:31:48	10:38:51	419963	5f3c2648a9ef86a4c10de377	3	1	main_slash	7	advance_on_keypress_SLASH	142	stimuli_distractor_diamondtriangles.svg	stimuli_target_trianglesquares.svg	30	yes	57	0	281	0	0			0	0			1				0	
6.6.1	win	2023-06-15	10:31:48	10:38:53	421620	5f3c2648a9ef86a4c10de377	3	1	main_slash	7	main_slash	143	stimuli_target_squaretriangles.svg	stimuli_distractor_trianglediamonds.svg	3	yes	53	1	728	0	0			0	0			1				0	
6.6.1	win	2023-06-15	10:31:48	10:38:53	421620	5f3c2648a9ef86a4c10de377	3	1	main_slash	7	advance_on_keypress_SLASH	144	stimuli_target_squaretriangles.svg	stimuli_distractor_trianglediamonds.svg	3	yes	57	0	158	0	0			0	0			1				0	
6.6.1	win	2023-06-15	10:31:48	10:38:54	423160	5f3c2648a9ef86a4c10de377	3	1	main_slash	7	main_slash	145	stimuli_distractor_trianglediamonds.svg	stimuli_target_diamondsquares.svg	28	yes	53	1	749	0	0			0	0			1				0	
6.6.1	win	2023-06-15	10:31:48	10:38:54	423160	5f3c2648a9ef86a4c10de377	3	1	main_slash	7	advance_on_keypress_SLASH	146	stimuli_distractor_trianglediamonds.svg	stimuli_target_diamondsquares.svg	28	yes	57	0	116	0	0			0	0			1				0	
6.6.1	win	2023-06-15	10:31:48	10:38:57	425922	5f3c2648a9ef86a4c10de377	3	1	main_slash	7	main_slash	147	stimuli_distractor_trianglediamonds.svg	stimuli_distractor_trianglediamonds.svg	34	no	0	1	2000	0	0			0	0			1				0	
6.6.1	win	2023-06-15	10:31:48	10:38:57	425922	5f3c2648a9ef86a4c10de377	3	1	main_slash	7	advance_on_keypress_SLASH	148	stimuli_distractor_trianglediamonds.svg	stimuli_distractor_trianglediamonds.svg	34	no	57	0	363	0	0			0	0			1				0	
6.6.1	win	2023-06-15	10:31:48	10:39:00	428927	5f3c2648a9ef86a4c10de377	3	1	main_slash	7	main_slash	149	stimuli_distractor_trianglediamonds.svg	stimuli_distractor_diamondtriangles.svg	35	no	0	1	2000	0	0			0	0			1				0	
6.6.1	win	2023-06-15	10:31:48	10:39:00	428927	5f3c2648a9ef86a4c10de377	3	1	main_slash	7	advance_on_keypress_SLASH	150	stimuli_distractor_trianglediamonds.svg	stimuli_distractor_diamondtriangles.svg	35	no	57	0	302	0	0			0	0			1				0	
6.6.1	win	2023-06-15	10:31:48	10:39:02	430492	5f3c2648a9ef86a4c10de377	3	1	main_slash	7	main_slash	151	stimuli_distractor_diamondtriangles.svg	stimuli_target_trianglerectangles.svg	29	yes	53	1	625	0	0			0	0			1				0	
6.6.1	win	2023-06-15	10:31:48	10:39:02	430492	5f3c2648a9ef86a4c10de377	3	1	main_slash	7	advance_on_keypress_SLASH	152	stimuli_distractor_diamondtriangles.svg	stimuli_target_trianglerectangles.svg	29	yes	57	0	160	0	0			0	0			1				0	
6.6.1	win	2023-06-15	10:31:48	10:39:03	432052	5f3c2648a9ef86a4c10de377	3	1	main_slash	7	main_slash	153	stimuli_distractor_diamondtriangles.svg	stimuli_target_squaretriangles.svg	15	yes	53	1	758	0	0			0	0			1				0	
6.6.1	win	2023-06-15	10:31:48	10:39:03	432052	5f3c2648a9ef86a4c10de377	3	1	main_slash	7	advance_on_keypress_SLASH	154	stimuli_distractor_diamondtriangles.svg	stimuli_target_squaretriangles.svg	15	yes	57	0	180	0	0			0	0			1				0	
6.6.1	win	2023-06-15	10:31:48	10:39:06	434864	5f3c2648a9ef86a4c10de377	3	1	main_slash	7	main_slash	155	stimuli_target_diamondrectangles.svg	stimuli_distractor_trianglediamonds.svg	19	yes	0	0	2000	0	0			0	0			1				0	
6.6.1	win	2023-06-15	10:31:48	10:39:06	434864	5f3c2648a9ef86a4c10de377	3	1	main_slash	7	advance_on_keypress_SLASH	156	stimuli_target_diamondrectangles.svg	stimuli_distractor_trianglediamonds.svg	19	yes	57	0	521	0	0			0	0			1				0	
6.6.1	win	2023-06-15	10:31:48	10:39:08	436669	5f3c2648a9ef86a4c10de377	3	1	main_slash	7	main_slash	157	stimuli_distractor_trianglediamonds.svg	stimuli_target_rectanglediamonds.svg	10	yes	53	1	631	0	0			0	0			1				0	
6.6.1	win	2023-06-15	10:31:48	10:39:08	436669	5f3c2648a9ef86a4c10de377	3	1	main_slash	7	advance_on_keypress_SLASH	158	stimuli_distractor_trianglediamonds.svg	stimuli_target_rectanglediamonds.svg	10	yes	57	0	130	0	0			0	0			1				0	
6.6.1	win	2023-06-15	10:31:48	10:39:09	438119	5f3c2648a9ef86a4c10de377	3	1	main_slash	7	main_slash	159	stimuli_target_rectangletriangles.svg	stimuli_distractor_diamondtriangles.svg	5	yes	53	1	671	0	0			0	0			1				0	
6.6.1	win	2023-06-15	10:31:48	10:39:09	438119	5f3c2648a9ef86a4c10de377	3	1	main_slash	7	advance_on_keypress_SLASH	160	stimuli_target_rectangletriangles.svg	stimuli_distractor_diamondtriangles.svg	5	yes	57	0	140	0	0			0	0			1				0	
6.6.1	win	2023-06-15	10:31:48	10:39:45	473609	5f3c2648a9ef86a4c10de377	3	1	practice_z	9	practice_z	1	stimuli_distractor_trianglediamonds.svg	stimuli_target_squarediamonds.svg	11	yes	44	1	710	0	0			0	0			1				0	
6.6.1	win	2023-06-15	10:31:48	10:39:45	473609	5f3c2648a9ef86a4c10de377	3	1	practice_z	9	advance_on_keypress_ZEE	2	stimuli_distractor_trianglediamonds.svg	stimuli_target_squarediamonds.svg	11	yes	57	0	519	0	0			0	0			1				0	
6.6.1	win	2023-06-15	10:31:48	10:39:48	476468	5f3c2648a9ef86a4c10de377	3	1	practice_z	9	practice_z	3	stimuli_target_squarediamonds.svg	stimuli_distractor_diamondtriangles.svg	2	yes	44	1	678	0	0			0	0			1				0	
6.6.1	win	2023-06-15	10:31:48	10:39:48	476468	5f3c2648a9ef86a4c10de377	3	1	practice_z	9	advance_on_keypress_ZEE	4	stimuli_target_squarediamonds.svg	stimuli_distractor_diamondtriangles.svg	2	yes	57	0	306	0	0			0	0			1				0	
6.6.1	win	2023-06-15	10:31:48	10:39:50	479204	5f3c2648a9ef86a4c10de377	3	1	practice_z	9	practice_z	5	stimuli_target_diamondsquares.svg	stimuli_distractor_diamondtriangles.svg	3	yes	44	1	795	0	0			0	0			1				0	
6.6.1	win	2023-06-15	10:31:48	10:39:50	479204	5f3c2648a9ef86a4c10de377	3	1	practice_z	9	advance_on_keypress_ZEE	6	stimuli_target_diamondsquares.svg	stimuli_distractor_diamondtriangles.svg	3	yes	57	0	301	0	0			0	0			1				0	
6.6.1	win	2023-06-15	10:31:48	10:39:53	482197	5f3c2648a9ef86a4c10de377	3	1	practice_z	9	practice_z	7	stimuli_distractor_diamondtriangles.svg	stimuli_target_rectangletriangles.svg	7	yes	44	1	1045	0	0			0	0			1				0	
6.6.1	win	2023-06-15	10:31:48	10:39:53	482197	5f3c2648a9ef86a4c10de377	3	1	practice_z	9	advance_on_keypress_ZEE	8	stimuli_distractor_diamondtriangles.svg	stimuli_target_rectangletriangles.svg	7	yes	57	0	303	0	0			0	0			1				0	
6.6.1	win	2023-06-15	10:31:48	10:39:56	484958	5f3c2648a9ef86a4c10de377	3	1	practice_z	9	practice_z	9	stimuli_distractor_diamondtriangles.svg	stimuli_target_diamondrectangles.svg	8	yes	44	1	810	0	0			0	0			1				0	
6.6.1	win	2023-06-15	10:31:48	10:39:56	484958	5f3c2648a9ef86a4c10de377	3	1	practice_z	9	advance_on_keypress_ZEE	10	stimuli_distractor_diamondtriangles.svg	stimuli_target_diamondrectangles.svg	8	yes	57	0	290	0	0			0	0			1				0	
6.6.1	win	2023-06-15	10:31:48	10:40:00	488894	5f3c2648a9ef86a4c10de377	3	1	practice_z	9	practice_z	11	stimuli_distractor_trianglediamonds.svg	stimuli_distractor_trianglediamonds.svg	15	no	0	1	2000	0	0			0	0			1				0	
6.6.1	win	2023-06-15	10:31:48	10:40:00	488894	5f3c2648a9ef86a4c10de377	3	1	practice_z	9	advance_on_keypress_ZEE	12	stimuli_distractor_trianglediamonds.svg	stimuli_distractor_trianglediamonds.svg	15	no	57	0	288	0	0			0	0			1				0	
6.6.1	win	2023-06-15	10:31:48	10:40:03	491537	5f3c2648a9ef86a4c10de377	3	1	practice_z	9	practice_z	13	stimuli_distractor_trianglediamonds.svg	stimuli_target_diamondrectangles.svg	12	yes	44	1	714	0	0			0	0			1				0	
6.6.1	win	2023-06-15	10:31:48	10:40:03	491537	5f3c2648a9ef86a4c10de377	3	1	practice_z	9	advance_on_keypress_ZEE	14	stimuli_distractor_trianglediamonds.svg	stimuli_target_diamondrectangles.svg	12	yes	57	0	222	0	0			0	0			1				0	
6.6.1	win	2023-06-15	10:31:48	10:40:07	495413	5f3c2648a9ef86a4c10de377	3	1	practice_z	9	practice_z	15	stimuli_distractor_trianglediamonds.svg	stimuli_distractor_diamondtriangles.svg	16	no	0	1	2000	0	0			0	0			1				0	
6.6.1	win	2023-06-15	10:31:48	10:40:07	495413	5f3c2648a9ef86a4c10de377	3	1	practice_z	9	advance_on_keypress_ZEE	16	stimuli_distractor_trianglediamonds.svg	stimuli_distractor_diamondtriangles.svg	16	no	57	0	489	0	0			0	0			1				0	
6.6.1	win	2023-06-15	10:31:48	10:40:11	499548	5f3c2648a9ef86a4c10de377	3	1	practice_z	9	practice_z	17	stimuli_distractor_diamondtriangles.svg	stimuli_distractor_trianglediamonds.svg	14	no	0	1	2000	0	0			0	0			1				0	
6.6.1	win	2023-06-15	10:31:48	10:40:11	499548	5f3c2648a9ef86a4c10de377	3	1	practice_z	9	advance_on_keypress_ZEE	18	stimuli_distractor_diamondtriangles.svg	stimuli_distractor_trianglediamonds.svg	14	no	57	0	438	0	0			0	0			1				0	
6.6.1	win	2023-06-15	10:31:48	10:40:15	503625	5f3c2648a9ef86a4c10de377	3	1	practice_z	9	practice_z	19	stimuli_distractor_diamondtriangles.svg	stimuli_distractor_diamondtriangles.svg	13	no	0	1	2000	0	0			0	0			1				0	
6.6.1	win	2023-06-15	10:31:48	10:40:15	503625	5f3c2648a9ef86a4c10de377	3	1	practice_z	9	advance_on_keypress_ZEE	20	stimuli_distractor_diamondtriangles.svg	stimuli_distractor_diamondtriangles.svg	13	no	57	0	393	0	0			0	0			1				0	
6.6.1	win	2023-06-15	10:31:48	10:40:18	506520	5f3c2648a9ef86a4c10de377	3	1	practice_z	9	practice_z	21	stimuli_distractor_trianglediamonds.svg	stimuli_target_rectanglediamonds.svg	10	yes	44	1	863	0	0			0	0			1				0	
6.6.1	win	2023-06-15	10:31:48	10:40:18	506520	5f3c2648a9ef86a4c10de377	3	1	practice_z	9	advance_on_keypress_ZEE	22	stimuli_distractor_trianglediamonds.svg	stimuli_target_rectanglediamonds.svg	10	yes	57	0	70	0	0			0	0			1				0	
6.6.1	win	2023-06-15	10:31:48	10:40:20	509054	5f3c2648a9ef86a4c10de377	3	1	practice_z	9	practice_z	23	stimuli_target_rectanglediamonds.svg	stimuli_distractor_diamondtriangles.svg	1	yes	44	1	826	0	0			0	0			1				0	
6.6.1	win	2023-06-15	10:31:48	10:40:20	509054	5f3c2648a9ef86a4c10de377	3	1	practice_z	9	advance_on_keypress_ZEE	24	stimuli_target_rectanglediamonds.svg	stimuli_distractor_diamondtriangles.svg	1	yes	57	0	127	0	0			0	0			1				0	
6.6.1	win	2023-06-15	10:31:48	10:40:23	511786	5f3c2648a9ef86a4c10de377	3	1	practice_z	9	practice_z	25	stimuli_target_diamondsquares.svg	stimuli_distractor_trianglediamonds.svg	6	yes	44	1	970	0	0			0	0			1				0	
6.6.1	win	2023-06-15	10:31:48	10:40:23	511786	5f3c2648a9ef86a4c10de377	3	1	practice_z	9	advance_on_keypress_ZEE	26	stimuli_target_diamondsquares.svg	stimuli_distractor_trianglediamonds.svg	6	yes	57	0	202	0	0			0	0			1				0	
6.6.1	win	2023-06-15	10:31:48	10:40:27	515629	5f3c2648a9ef86a4c10de377	3	1	practice_z	9	practice_z	27	stimuli_distractor_diamondtriangles.svg	stimuli_target_trianglerectangles.svg	9	yes	0	0	2000	0	0			0	0			1				0	
6.6.1	win	2023-06-15	10:31:48	10:40:27	515629	5f3c2648a9ef86a4c10de377	3	1	practice_z	9	advance_on_keypress_ZEE	28	stimuli_distractor_diamondtriangles.svg	stimuli_target_trianglerectangles.svg	9	yes	57	0	972	0	0			0	0			1				0	
6.6.1	win	2023-06-15	10:31:48	10:40:30	518942	5f3c2648a9ef86a4c10de377	3	1	practice_z	9	practice_z	29	stimuli_target_rectanglediamonds.svg	stimuli_distractor_trianglediamonds.svg	4	yes	44	1	692	0	0			0	0			1				0	
6.6.1	win	2023-06-15	10:31:48	10:40:30	518942	5f3c2648a9ef86a4c10de377	3	1	practice_z	9	advance_on_keypress_ZEE	30	stimuli_target_rectanglediamonds.svg	stimuli_distractor_trianglediamonds.svg	4	yes	57	0	286	0	0			0	0			1				0	
6.6.1	win	2023-06-15	10:31:48	10:40:33	521581	5f3c2648a9ef86a4c10de377	3	1	practice_z	9	practice_z	31	stimuli_target_squarediamonds.svg	stimuli_distractor_trianglediamonds.svg	5	yes	44	1	717	0	0			0	0			1				0	
6.6.1	win	2023-06-15	10:31:48	10:40:33	521581	5f3c2648a9ef86a4c10de377	3	1	practice_z	9	advance_on_keypress_ZEE	32	stimuli_target_squarediamonds.svg	stimuli_distractor_trianglediamonds.svg	5	yes	57	0	191	0	0			0	0			1				0	
6.6.1	win	2023-06-15	10:31:48	10:40:49	537786	5f3c2648a9ef86a4c10de377	3	1	main_z	11	main_z	1	stimuli_target_trianglerectangles.svg	stimuli_distractor_trianglediamonds.svg	17	yes	44	1	804	0	0			0	0			1				0	
6.6.1	win	2023-06-15	10:31:48	10:40:49	537786	5f3c2648a9ef86a4c10de377	3	1	main_z	11	advance_on_keypress_ZEE	2	stimuli_target_trianglerectangles.svg	stimuli_distractor_trianglediamonds.svg	17	yes	57	0	563	0	0			0	0			1				0	
6.6.1	win	2023-06-15	10:31:48	10:40:51	539766	5f3c2648a9ef86a4c10de377	3	1	main_z	11	main_z	3	stimuli_target_squarediamonds.svg	stimuli_distractor_trianglediamonds.svg	4	yes	44	1	768	0	0			0	0			1				0	
6.6.1	win	2023-06-15	10:31:48	10:40:51	539766	5f3c2648a9ef86a4c10de377	3	1	main_z	11	advance_on_keypress_ZEE	4	stimuli_target_squarediamonds.svg	stimuli_distractor_trianglediamonds.svg	4	yes	57	0	412	0	0			0	0			1				0	
6.6.1	win	2023-06-15	10:31:48	10:40:53	541602	5f3c2648a9ef86a4c10de377	3	1	main_z	11	main_z	5	stimuli_target_rectangletriangles.svg	stimuli_distractor_trianglediamonds.svg	1	yes	44	1	783	0	0			0	0			1				0	
6.6.1	win	2023-06-15	10:31:48	10:40:53	541602	5f3c2648a9ef86a4c10de377	3	1	main_z	11	advance_on_keypress_ZEE	6	stimuli_target_rectangletriangles.svg	stimuli_distractor_trianglediamonds.svg	1	yes	57	0	237	0	0			0	0			1				0	
6.6.1	win	2023-06-15	10:31:48	10:40:55	543280	5f3c2648a9ef86a4c10de377	3	1	main_z	11	main_z	7	stimuli_target_rectanglediamonds.svg	stimuli_distractor_diamondtriangles.svg	6	yes	44	1	788	0	0			0	0			1				0	
6.6.1	win	2023-06-15	10:31:48	10:40:55	543280	5f3c2648a9ef86a4c10de377	3	1	main_z	11	advance_on_keypress_ZEE	8	stimuli_target_rectanglediamonds.svg	stimuli_distractor_diamondtriangles.svg	6	yes	57	0	196	0	0			0	0			1				0	
6.6.1	win	2023-06-15	10:31:48	10:40:57	546115	5f3c2648a9ef86a4c10de377	3	1	main_z	11	main_z	9	stimuli_distractor_trianglediamonds.svg	stimuli_distractor_trianglediamonds.svg	34	no	0	1	2000	0	0			0	0			1				0	
6.6.1	win	2023-06-15	10:31:48	10:40:57	546115	5f3c2648a9ef86a4c10de377	3	1	main_z	11	advance_on_keypress_ZEE	10	stimuli_distractor_trianglediamonds.svg	stimuli_distractor_trianglediamonds.svg	34	no	57	0	484	0	0			0	0			1				0	
6.6.1	win	2023-06-15	10:31:48	10:40:59	547902	5f3c2648a9ef86a4c10de377	3	1	main_z	11	main_z	11	stimuli_target_diamondsquares.svg	stimuli_distractor_trianglediamonds.svg	20	yes	44	1	670	0	0			0	0			1				0	
6.6.1	win	2023-06-15	10:31:48	10:40:59	547902	5f3c2648a9ef86a4c10de377	3	1	main_z	11	advance_on_keypress_ZEE	12	stimuli_target_diamondsquares.svg	stimuli_distractor_trianglediamonds.svg	20	yes	57	0	134	0	0			0	0			1				0	
6.6.1	win	2023-06-15	10:31:48	10:41:01	549387	5f3c2648a9ef86a4c10de377	3	1	main_z	11	main_z	13	stimuli_target_diamondrectangles.svg	stimuli_distractor_trianglediamonds.svg	19	yes	44	1	699	0	0			0	0			1				0	
6.6.1	win	2023-06-15	10:31:48	10:41:01	549387	5f3c2648a9ef86a4c10de377	3	1	main_z	11	advance_on_keypress_ZEE	14	stimuli_target_diamondrectangles.svg	stimuli_distractor_trianglediamonds.svg	19	yes	57	0	134	0	0			0	0			1				0	
6.6.1	win	2023-06-15	10:31:48	10:41:03	552160	5f3c2648a9ef86a4c10de377	3	1	main_z	11	main_z	15	stimuli_distractor_trianglediamonds.svg	stimuli_distractor_diamondtriangles.svg	35	no	0	1	2000	0	0			0	0			1				0	
6.6.1	win	2023-06-15	10:31:48	10:41:03	552160	5f3c2648a9ef86a4c10de377	3	1	main_z	11	advance_on_keypress_ZEE	16	stimuli_distractor_trianglediamonds.svg	stimuli_distractor_diamondtriangles.svg	35	no	57	0	460	0	0			0	0			1				0	
6.6.1	win	2023-06-15	10:31:48	10:41:07	555267	5f3c2648a9ef86a4c10de377	3	1	main_z	11	main_z	17	stimuli_distractor_diamondtriangles.svg	stimuli_distractor_diamondtriangles.svg	39	no	0	1	2000	0	0			0	0			1				0	
6.6.1	win	2023-06-15	10:31:48	10:41:07	555267	5f3c2648a9ef86a4c10de377	3	1	main_z	11	advance_on_keypress_ZEE	18	stimuli_distractor_diamondtriangles.svg	stimuli_distractor_diamondtriangles.svg	39	no	57	0	452	0	0			0	0			1				0	
6.6.1	win	2023-06-15	10:31:48	10:41:08	556989	5f3c2648a9ef86a4c10de377	3	1	main_z	11	main_z	19	stimuli_target_trianglesquares.svg	stimuli_distractor_trianglediamonds.svg	18	yes	44	1	631	0	0			0	0			1				0	
6.6.1	win	2023-06-15	10:31:48	10:41:08	556989	5f3c2648a9ef86a4c10de377	3	1	main_z	11	advance_on_keypress_ZEE	20	stimuli_target_trianglesquares.svg	stimuli_distractor_trianglediamonds.svg	18	yes	57	0	152	0	0			0	0			1				0	
6.6.1	win	2023-06-15	10:31:48	10:41:10	558577	5f3c2648a9ef86a4c10de377	3	1	main_z	11	main_z	21	stimuli_distractor_trianglediamonds.svg	stimuli_target_squarediamonds.svg	12	yes	44	1	799	0	0			0	0			1				0	
6.6.1	win	2023-06-15	10:31:48	10:41:10	558577	5f3c2648a9ef86a4c10de377	3	1	main_z	11	advance_on_keypress_ZEE	22	stimuli_distractor_trianglediamonds.svg	stimuli_target_squarediamonds.svg	12	yes	57	0	132	0	0			0	0			1				0	
6.6.1	win	2023-06-15	10:31:48	10:41:11	560111	5f3c2648a9ef86a4c10de377	3	1	main_z	11	main_z	23	stimuli_distractor_diamondtriangles.svg	stimuli_target_squarediamonds.svg	16	yes	44	1	751	0	0			0	0			1				0	
6.6.1	win	2023-06-15	10:31:48	10:41:11	560111	5f3c2648a9ef86a4c10de377	3	1	main_z	11	advance_on_keypress_ZEE	24	stimuli_distractor_diamondtriangles.svg	stimuli_target_squarediamonds.svg	16	yes	57	0	183	0	0			0	0			1				0	
6.6.1	win	2023-06-15	10:31:48	10:41:13	561709	5f3c2648a9ef86a4c10de377	3	1	main_z	11	main_z	25	stimuli_distractor_trianglediamonds.svg	stimuli_target_rectanglediamonds.svg	10	yes	44	1	764	0	0			0	0			1				0	
6.6.1	win	2023-06-15	10:31:48	10:41:13	561709	5f3c2648a9ef86a4c10de377	3	1	main_z	11	advance_on_keypress_ZEE	26	stimuli_distractor_trianglediamonds.svg	stimuli_target_rectanglediamonds.svg	10	yes	57	0	176	0	0			0	0			1				0	
6.6.1	win	2023-06-15	10:31:48	10:41:15	563239	5f3c2648a9ef86a4c10de377	3	1	main_z	11	main_z	27	stimuli_distractor_diamondtriangles.svg	stimuli_target_diamondrectangles.svg	31	yes	44	1	726	0	0			0	0			1				0	
6.6.1	win	2023-06-15	10:31:48	10:41:15	563239	5f3c2648a9ef86a4c10de377	3	1	main_z	11	advance_on_keypress_ZEE	28	stimuli_distractor_diamondtriangles.svg	stimuli_target_diamondrectangles.svg	31	yes	57	0	173	0	0			0	0			1				0	
6.6.1	win	2023-06-15	10:31:48	10:41:16	564760	5f3c2648a9ef86a4c10de377	3	1	main_z	11	main_z	29	stimuli_distractor_diamondtriangles.svg	stimuli_target_trianglerectangles.svg	29	yes	44	1	713	0	0			0	0			1				0	
6.6.1	win	2023-06-15	10:31:48	10:41:16	564760	5f3c2648a9ef86a4c10de377	3	1	main_z	11	advance_on_keypress_ZEE	30	stimuli_distractor_diamondtriangles.svg	stimuli_target_trianglerectangles.svg	29	yes	57	0	166	0	0			0	0			1				0	
6.6.1	win	2023-06-15	10:31:48	10:41:18	566257	5f3c2648a9ef86a4c10de377	3	1	main_z	11	main_z	31	stimuli_target_rectanglediamonds.svg	stimuli_distractor_trianglediamonds.svg	2	yes	44	1	689	0	0			0	0			1				0	
6.6.1	win	2023-06-15	10:31:48	10:41:18	566257	5f3c2648a9ef86a4c10de377	3	1	main_z	11	advance_on_keypress_ZEE	32	stimuli_target_rectanglediamonds.svg	stimuli_distractor_trianglediamonds.svg	2	yes	57	0	195	0	0			0	0			1				0	
6.6.1	win	2023-06-15	10:31:48	10:41:20	569104	5f3c2648a9ef86a4c10de377	3	1	main_z	11	main_z	33	stimuli_distractor_trianglediamonds.svg	stimuli_distractor_diamondtriangles.svg	36	no	0	1	2000	0	0			0	0			1				0	
6.6.1	win	2023-06-15	10:31:48	10:41:20	569104	5f3c2648a9ef86a4c10de377	3	1	main_z	11	advance_on_keypress_ZEE	34	stimuli_distractor_trianglediamonds.svg	stimuli_distractor_diamondtriangles.svg	36	no	57	0	684	0	0			0	0			1				0	
6.6.1	win	2023-06-15	10:31:48	10:41:22	571133	5f3c2648a9ef86a4c10de377	3	1	main_z	11	main_z	35	stimuli_distractor_diamondtriangles.svg	stimuli_distractor_trianglediamonds.svg	37	no	44	0	697	0	0			0	0			1				0	
6.6.1	win	2023-06-15	10:31:48	10:41:22	571133	5f3c2648a9ef86a4c10de377	3	1	main_z	11	advance_on_keypress_ZEE	36	stimuli_distractor_diamondtriangles.svg	stimuli_distractor_trianglediamonds.svg	37	no	57	0	121	0	0			0	0			1				0	
6.6.1	win	2023-06-15	10:31:48	10:41:24	572763	5f3c2648a9ef86a4c10de377	3	1	main_z	11	main_z	37	stimuli_target_rectangletriangles.svg	stimuli_distractor_diamondtriangles.svg	5	yes	44	1	867	0	0			0	0			1				0	
6.6.1	win	2023-06-15	10:31:48	10:41:24	572763	5f3c2648a9ef86a4c10de377	3	1	main_z	11	advance_on_keypress_ZEE	38	stimuli_target_rectangletriangles.svg	stimuli_distractor_diamondtriangles.svg	5	yes	57	0	184	0	0			0	0			1				0	
6.6.1	win	2023-06-15	10:31:48	10:41:26	574288	5f3c2648a9ef86a4c10de377	3	1	main_z	11	main_z	39	stimuli_distractor_trianglediamonds.svg	stimuli_target_trianglerectangles.svg	25	yes	44	1	703	0	0			0	0			1				0	
6.6.1	win	2023-06-15	10:31:48	10:41:26	574288	5f3c2648a9ef86a4c10de377	3	1	main_z	11	advance_on_keypress_ZEE	40	stimuli_distractor_trianglediamonds.svg	stimuli_target_trianglerectangles.svg	25	yes	57	0	137	0	0			0	0			1				0	
6.6.1	win	2023-06-15	10:31:48	10:41:27	575703	5f3c2648a9ef86a4c10de377	3	1	main_z	11	main_z	41	stimuli_target_squaretriangles.svg	stimuli_distractor_trianglediamonds.svg	3	yes	44	1	631	0	0			0	0			1				0	
6.6.1	win	2023-06-15	10:31:48	10:41:27	575703	5f3c2648a9ef86a4c10de377	3	1	main_z	11	advance_on_keypress_ZEE	42	stimuli_target_squaretriangles.svg	stimuli_distractor_trianglediamonds.svg	3	yes	57	0	139	0	0			0	0			1				0	
6.6.1	win	2023-06-15	10:31:48	10:41:30	578484	5f3c2648a9ef86a4c10de377	3	1	main_z	11	main_z	43	stimuli_target_trianglerectangles.svg	stimuli_distractor_diamondtriangles.svg	21	yes	0	0	2000	0	0			0	0			1				0	
6.6.1	win	2023-06-15	10:31:48	10:41:30	578484	5f3c2648a9ef86a4c10de377	3	1	main_z	11	advance_on_keypress_ZEE	44	stimuli_target_trianglerectangles.svg	stimuli_distractor_diamondtriangles.svg	21	yes	57	0	416	0	0			0	0			1				0	
6.6.1	win	2023-06-15	10:31:48	10:41:31	580161	5f3c2648a9ef86a4c10de377	3	1	main_z	11	main_z	45	stimuli_distractor_trianglediamonds.svg	stimuli_target_diamondsquares.svg	28	yes	44	1	623	0	0			0	0			1				0	
6.6.1	win	2023-06-15	10:31:48	10:41:31	580161	5f3c2648a9ef86a4c10de377	3	1	main_z	11	advance_on_keypress_ZEE	46	stimuli_distractor_trianglediamonds.svg	stimuli_target_diamondsquares.svg	28	yes	57	0	148	0	0			0	0			1				0	
6.6.1	win	2023-06-15	10:31:48	10:41:33	581596	5f3c2648a9ef86a4c10de377	3	1	main_z	11	main_z	47	stimuli_distractor_trianglediamonds.svg	stimuli_target_trianglesquares.svg	26	yes	44	1	635	0	0			0	0			1				0	
6.6.1	win	2023-06-15	10:31:48	10:41:33	581596	5f3c2648a9ef86a4c10de377	3	1	main_z	11	advance_on_keypress_ZEE	48	stimuli_distractor_trianglediamonds.svg	stimuli_target_trianglesquares.svg	26	yes	57	0	128	0	0			0	0			1				0	
6.6.1	win	2023-06-15	10:31:48	10:41:34	583135	5f3c2648a9ef86a4c10de377	3	1	main_z	11	main_z	49	stimuli_target_diamondsquares.svg	stimuli_distractor_diamondtriangles.svg	24	yes	44	1	777	0	0			0	0			1				0	
6.6.1	win	2023-06-15	10:31:48	10:41:34	583135	5f3c2648a9ef86a4c10de377	3	1	main_z	11	advance_on_keypress_ZEE	50	stimuli_target_diamondsquares.svg	stimuli_distractor_diamondtriangles.svg	24	yes	57	0	127	0	0			0	0			1				0	
6.6.1	win	2023-06-15	10:31:48	10:41:36	584547	5f3c2648a9ef86a4c10de377	3	1	main_z	11	main_z	51	stimuli_distractor_trianglediamonds.svg	stimuli_target_diamondrectangles.svg	27	yes	44	1	657	0	0			0	0			1				0	
6.6.1	win	2023-06-15	10:31:48	10:41:36	584547	5f3c2648a9ef86a4c10de377	3	1	main_z	11	advance_on_keypress_ZEE	52	stimuli_distractor_trianglediamonds.svg	stimuli_target_diamondrectangles.svg	27	yes	57	0	117	0	0			0	0			1				0	
6.6.1	win	2023-06-15	10:31:48	10:41:37	585875	5f3c2648a9ef86a4c10de377	3	1	main_z	11	main_z	53	stimuli_target_trianglesquares.svg	stimuli_distractor_diamondtriangles.svg	22	yes	44	1	569	0	0			0	0			1				0	
6.6.1	win	2023-06-15	10:31:48	10:41:37	585875	5f3c2648a9ef86a4c10de377	3	1	main_z	11	advance_on_keypress_ZEE	54	stimuli_target_trianglesquares.svg	stimuli_distractor_diamondtriangles.svg	22	yes	57	0	104	0	0			0	0			1				0	
6.6.1	win	2023-06-15	10:31:48	10:41:39	587291	5f3c2648a9ef86a4c10de377	3	1	main_z	11	main_z	55	stimuli_target_squarediamonds.svg	stimuli_distractor_diamondtriangles.svg	8	yes	44	1	664	0	0			0	0			1				0	
6.6.1	win	2023-06-15	10:31:48	10:41:39	587291	5f3c2648a9ef86a4c10de377	3	1	main_z	11	advance_on_keypress_ZEE	56	stimuli_target_squarediamonds.svg	stimuli_distractor_diamondtriangles.svg	8	yes	57	0	101	0	0			0	0			1				0	
6.6.1	win	2023-06-15	10:31:48	10:41:40	588615	5f3c2648a9ef86a4c10de377	3	1	main_z	11	main_z	57	stimuli_distractor_diamondtriangles.svg	stimuli_target_squaretriangles.svg	15	yes	44	1	577	0	0			0	0			1				0	
6.6.1	win	2023-06-15	10:31:48	10:41:40	588615	5f3c2648a9ef86a4c10de377	3	1	main_z	11	advance_on_keypress_ZEE	58	stimuli_distractor_diamondtriangles.svg	stimuli_target_squaretriangles.svg	15	yes	57	0	112	0	0			0	0			1				0	
6.6.1	win	2023-06-15	10:31:48	10:41:41	589976	5f3c2648a9ef86a4c10de377	3	1	main_z	11	main_z	59	stimuli_distractor_diamondtriangles.svg	stimuli_target_diamondsquares.svg	32	yes	44	1	622	0	0			0	0			1				0	
6.6.1	win	2023-06-15	10:31:48	10:41:41	589976	5f3c2648a9ef86a4c10de377	3	1	main_z	11	advance_on_keypress_ZEE	60	stimuli_distractor_diamondtriangles.svg	stimuli_target_diamondsquares.svg	32	yes	57	0	95	0	0			0	0			1				0	
6.6.1	win	2023-06-15	10:31:48	10:41:44	592722	5f3c2648a9ef86a4c10de377	3	1	main_z	11	main_z	61	stimuli_distractor_diamondtriangles.svg	stimuli_distractor_trianglediamonds.svg	38	no	0	1	2000	0	0			0	0			1				0	
6.6.1	win	2023-06-15	10:31:48	10:41:44	592722	5f3c2648a9ef86a4c10de377	3	1	main_z	11	advance_on_keypress_ZEE	62	stimuli_distractor_diamondtriangles.svg	stimuli_distractor_trianglediamonds.svg	38	no	57	0	678	0	0			0	0			1				0	
6.6.1	win	2023-06-15	10:31:48	10:41:46	594707	5f3c2648a9ef86a4c10de377	3	1	main_z	11	main_z	63	stimuli_distractor_trianglediamonds.svg	stimuli_target_squaretriangles.svg	11	yes	44	1	660	0	0			0	0			1				0	
6.6.1	win	2023-06-15	10:31:48	10:41:46	594707	5f3c2648a9ef86a4c10de377	3	1	main_z	11	advance_on_keypress_ZEE	64	stimuli_distractor_trianglediamonds.svg	stimuli_target_squaretriangles.svg	11	yes	57	0	83	0	0			0	0			1				0	
6.6.1	win	2023-06-15	10:31:48	10:41:47	596174	5f3c2648a9ef86a4c10de377	3	1	main_z	11	main_z	65	stimuli_distractor_trianglediamonds.svg	stimuli_target_rectangletriangles.svg	9	yes	44	1	735	0	0			0	0			1				0	
6.6.1	win	2023-06-15	10:31:48	10:41:47	596174	5f3c2648a9ef86a4c10de377	3	1	main_z	11	advance_on_keypress_ZEE	66	stimuli_distractor_trianglediamonds.svg	stimuli_target_rectangletriangles.svg	9	yes	57	0	79	0	0			0	0			1				0	
6.6.1	win	2023-06-15	10:31:48	10:41:50	598910	5f3c2648a9ef86a4c10de377	3	1	main_z	11	main_z	67	stimuli_distractor_trianglediamonds.svg	stimuli_distractor_trianglediamonds.svg	33	no	0	1	2000	0	0			0	0			1				0	
6.6.1	win	2023-06-15	10:31:48	10:41:50	598910	5f3c2648a9ef86a4c10de377	3	1	main_z	11	advance_on_keypress_ZEE	68	stimuli_distractor_trianglediamonds.svg	stimuli_distractor_trianglediamonds.svg	33	no	57	0	481	0	0			0	0			1				0	
6.6.1	win	2023-06-15	10:31:48	10:41:52	600695	5f3c2648a9ef86a4c10de377	3	1	main_z	11	main_z	69	stimuli_target_diamondrectangles.svg	stimuli_distractor_diamondtriangles.svg	23	yes	44	1	656	0	0			0	0			1				0	
6.6.1	win	2023-06-15	10:31:48	10:41:52	600695	5f3c2648a9ef86a4c10de377	3	1	main_z	11	advance_on_keypress_ZEE	70	stimuli_target_diamondrectangles.svg	stimuli_distractor_diamondtriangles.svg	23	yes	57	0	64	0	0			0	0			1				0	
6.6.1	win	2023-06-15	10:31:48	10:41:53	602066	5f3c2648a9ef86a4c10de377	3	1	main_z	11	main_z	71	stimuli_distractor_diamondtriangles.svg	stimuli_target_rectangletriangles.svg	13	yes	44	1	653	0	0			0	0			1				0	
6.6.1	win	2023-06-15	10:31:48	10:41:53	602066	5f3c2648a9ef86a4c10de377	3	1	main_z	11	advance_on_keypress_ZEE	72	stimuli_distractor_diamondtriangles.svg	stimuli_target_rectangletriangles.svg	13	yes	57	0	77	0	0			0	0			1				0	
6.6.1	win	2023-06-15	10:31:48	10:41:55	603377	5f3c2648a9ef86a4c10de377	3	1	main_z	11	main_z	73	stimuli_distractor_diamondtriangles.svg	stimuli_target_rectanglediamonds.svg	14	yes	44	1	593	0	0			0	0			1				0	
6.6.1	win	2023-06-15	10:31:48	10:41:55	603377	5f3c2648a9ef86a4c10de377	3	1	main_z	11	advance_on_keypress_ZEE	74	stimuli_distractor_diamondtriangles.svg	stimuli_target_rectanglediamonds.svg	14	yes	57	0	97	0	0			0	0			1				0	
6.6.1	win	2023-06-15	10:31:48	10:41:56	604778	5f3c2648a9ef86a4c10de377	3	1	main_z	11	main_z	75	stimuli_distractor_diamondtriangles.svg	stimuli_target_trianglesquares.svg	30	yes	44	1	660	0	0			0	0			1				0	
6.6.1	win	2023-06-15	10:31:48	10:41:56	604778	5f3c2648a9ef86a4c10de377	3	1	main_z	11	advance_on_keypress_ZEE	76	stimuli_distractor_diamondtriangles.svg	stimuli_target_trianglesquares.svg	30	yes	57	0	87	0	0			0	0			1				0	
6.6.1	win	2023-06-15	10:31:48	10:41:59	607507	5f3c2648a9ef86a4c10de377	3	1	main_z	11	main_z	77	stimuli_distractor_diamondtriangles.svg	stimuli_distractor_diamondtriangles.svg	40	no	0	1	2000	0	0			0	0			1				0	
6.6.1	win	2023-06-15	10:31:48	10:41:59	607507	5f3c2648a9ef86a4c10de377	3	1	main_z	11	advance_on_keypress_ZEE	78	stimuli_distractor_diamondtriangles.svg	stimuli_distractor_diamondtriangles.svg	40	no	57	0	558	0	0			0	0			1				0	
6.6.1	win	2023-06-15	10:31:48	10:42:00	609198	5f3c2648a9ef86a4c10de377	3	1	main_z	11	main_z	79	stimuli_target_squaretriangles.svg	stimuli_distractor_diamondtriangles.svg	7	yes	44	1	473	0	0			0	0			1				0	
6.6.1	win	2023-06-15	10:31:48	10:42:00	609198	5f3c2648a9ef86a4c10de377	3	1	main_z	11	advance_on_keypress_ZEE	80	stimuli_target_squaretriangles.svg	stimuli_distractor_diamondtriangles.svg	7	yes	57	0	80	0	0			0	0			1				0	
6.6.1	win	2023-06-15	10:31:48	10:42:02	610487	5f3c2648a9ef86a4c10de377	3	1	main_z	11	main_z	81	stimuli_distractor_diamondtriangles.svg	stimuli_target_rectanglediamonds.svg	14	yes	44	1	558	0	0			0	0			1				0	
6.6.1	win	2023-06-15	10:31:48	10:42:02	610487	5f3c2648a9ef86a4c10de377	3	1	main_z	11	advance_on_keypress_ZEE	82	stimuli_distractor_diamondtriangles.svg	stimuli_target_rectanglediamonds.svg	14	yes	57	0	83	0	0			0	0			1				0	
6.6.1	win	2023-06-15	10:31:48	10:42:03	611636	5f3c2648a9ef86a4c10de377	3	1	main_z	11	main_z	83	stimuli_target_rectanglediamonds.svg	stimuli_distractor_trianglediamonds.svg	2	yes	44	1	421	0	0			0	0			1				0	
6.6.1	win	2023-06-15	10:31:48	10:42:03	611636	5f3c2648a9ef86a4c10de377	3	1	main_z	11	advance_on_keypress_ZEE	84	stimuli_target_rectanglediamonds.svg	stimuli_distractor_trianglediamonds.svg	2	yes	57	0	138	0	0			0	0			1				0	
6.6.1	win	2023-06-15	10:31:48	10:42:04	612756	5f3c2648a9ef86a4c10de377	3	1	main_z	11	main_z	85	stimuli_target_diamondsquares.svg	stimuli_distractor_diamondtriangles.svg	24	yes	44	1	346	0	0			0	0			1				0	
6.6.1	win	2023-06-15	10:31:48	10:42:04	612756	5f3c2648a9ef86a4c10de377	3	1	main_z	11	advance_on_keypress_ZEE	86	stimuli_target_diamondsquares.svg	stimuli_distractor_diamondtriangles.svg	24	yes	57	0	638	0	0			0	0			1				0	
6.6.1	win	2023-06-15	10:31:48	10:42:06	614558	5f3c2648a9ef86a4c10de377	3	1	main_z	11	main_z	87	stimuli_distractor_diamondtriangles.svg	stimuli_target_squaretriangles.svg	15	yes	44	1	528	0	0			0	0			1				0	
6.6.1	win	2023-06-15	10:31:48	10:42:06	614558	5f3c2648a9ef86a4c10de377	3	1	main_z	11	advance_on_keypress_ZEE	88	stimuli_distractor_diamondtriangles.svg	stimuli_target_squaretriangles.svg	15	yes	57	0	72	0	0			0	0			1				0	
6.6.1	win	2023-06-15	10:31:48	10:42:07	615715	5f3c2648a9ef86a4c10de377	3	1	main_z	11	main_z	89	stimuli_distractor_trianglediamonds.svg	stimuli_target_squaretriangles.svg	11	yes	44	1	450	0	0			0	0			1				0	
6.6.1	win	2023-06-15	10:31:48	10:42:07	615715	5f3c2648a9ef86a4c10de377	3	1	main_z	11	advance_on_keypress_ZEE	90	stimuli_distractor_trianglediamonds.svg	stimuli_target_squaretriangles.svg	11	yes	57	0	103	0	0			0	0			1				0	
6.6.1	win	2023-06-15	10:31:48	10:42:08	617070	5f3c2648a9ef86a4c10de377	3	1	main_z	11	main_z	91	stimuli_target_rectanglediamonds.svg	stimuli_distractor_diamondtriangles.svg	6	yes	44	1	604	0	0			0	0			1				0	
6.6.1	win	2023-06-15	10:31:48	10:42:08	617070	5f3c2648a9ef86a4c10de377	3	1	main_z	11	advance_on_keypress_ZEE	92	stimuli_target_rectanglediamonds.svg	stimuli_distractor_diamondtriangles.svg	6	yes	57	0	72	0	0			0	0			1				0	
6.6.1	win	2023-06-15	10:31:48	10:42:10	618366	5f3c2648a9ef86a4c10de377	3	1	main_z	11	main_z	93	stimuli_distractor_trianglediamonds.svg	stimuli_target_trianglerectangles.svg	25	yes	44	1	588	0	0			0	0			1				0	
6.6.1	win	2023-06-15	10:31:48	10:42:10	618366	5f3c2648a9ef86a4c10de377	3	1	main_z	11	advance_on_keypress_ZEE	94	stimuli_distractor_trianglediamonds.svg	stimuli_target_trianglerectangles.svg	25	yes	57	0	128	0	0			0	0			1				0	
6.6.1	win	2023-06-15	10:31:48	10:42:11	619599	5f3c2648a9ef86a4c10de377	3	1	main_z	11	main_z	95	stimuli_distractor_diamondtriangles.svg	stimuli_distractor_trianglediamonds.svg	37	no	44	0	450	0	0			0	0			1				0	
6.6.1	win	2023-06-15	10:31:48	10:42:11	619599	5f3c2648a9ef86a4c10de377	3	1	main_z	11	advance_on_keypress_ZEE	96	stimuli_distractor_diamondtriangles.svg	stimuli_distractor_trianglediamonds.svg	37	no	57	0	108	0	0			0	0			1				0	
6.6.1	win	2023-06-15	10:31:48	10:42:12	620942	5f3c2648a9ef86a4c10de377	3	1	main_z	11	main_z	97	stimuli_target_squarediamonds.svg	stimuli_distractor_trianglediamonds.svg	4	yes	44	1	590	0	0			0	0			1				0	
6.6.1	win	2023-06-15	10:31:48	10:42:12	620942	5f3c2648a9ef86a4c10de377	3	1	main_z	11	advance_on_keypress_ZEE	98	stimuli_target_squarediamonds.svg	stimuli_distractor_trianglediamonds.svg	4	yes	57	0	76	0	0			0	0			1				0	
6.6.1	win	2023-06-15	10:31:48	10:42:15	623660	5f3c2648a9ef86a4c10de377	3	1	main_z	11	main_z	99	stimuli_distractor_diamondtriangles.svg	stimuli_distractor_diamondtriangles.svg	40	no	0	1	2000	0	0			0	0			1				0	
6.6.1	win	2023-06-15	10:31:48	10:42:15	623660	5f3c2648a9ef86a4c10de377	3	1	main_z	11	advance_on_keypress_ZEE	100	stimuli_distractor_diamondtriangles.svg	stimuli_distractor_diamondtriangles.svg	40	no	57	0	623	0	0			0	0			1				0	
6.6.1	win	2023-06-15	10:31:48	10:42:18	626941	5f3c2648a9ef86a4c10de377	3	1	main_z	11	main_z	101	stimuli_distractor_trianglediamonds.svg	stimuli_distractor_trianglediamonds.svg	34	no	0	1	2000	0	0			0	0			1				0	
6.6.1	win	2023-06-15	10:31:48	10:42:18	626941	5f3c2648a9ef86a4c10de377	3	1	main_z	11	advance_on_keypress_ZEE	102	stimuli_distractor_trianglediamonds.svg	stimuli_distractor_trianglediamonds.svg	34	no	57	0	386	0	0			0	0			1				0	
6.6.1	win	2023-06-15	10:31:48	10:42:20	628561	5f3c2648a9ef86a4c10de377	3	1	main_z	11	main_z	103	stimuli_target_diamondrectangles.svg	stimuli_distractor_diamondtriangles.svg	23	yes	44	1	599	0	0			0	0			1				0	
6.6.1	win	2023-06-15	10:31:48	10:42:20	628561	5f3c2648a9ef86a4c10de377	3	1	main_z	11	advance_on_keypress_ZEE	104	stimuli_target_diamondrectangles.svg	stimuli_distractor_diamondtriangles.svg	23	yes	57	0	78	0	0			0	0			1				0	
6.6.1	win	2023-06-15	10:31:48	10:42:21	629800	5f3c2648a9ef86a4c10de377	3	1	main_z	11	main_z	105	stimuli_distractor_trianglediamonds.svg	stimuli_target_diamondsquares.svg	28	yes	44	1	516	0	0			0	0			1				0	
6.6.1	win	2023-06-15	10:31:48	10:42:21	629800	5f3c2648a9ef86a4c10de377	3	1	main_z	11	advance_on_keypress_ZEE	106	stimuli_distractor_trianglediamonds.svg	stimuli_target_diamondsquares.svg	28	yes	57	0	59	0	0			0	0			1				0	
6.6.1	win	2023-06-15	10:31:48	10:42:22	631036	5f3c2648a9ef86a4c10de377	3	1	main_z	11	main_z	107	stimuli_target_squarediamonds.svg	stimuli_distractor_diamondtriangles.svg	8	yes	44	1	535	0	0			0	0			1				0	
6.6.1	win	2023-06-15	10:31:48	10:42:22	631036	5f3c2648a9ef86a4c10de377	3	1	main_z	11	advance_on_keypress_ZEE	108	stimuli_target_squarediamonds.svg	stimuli_distractor_diamondtriangles.svg	8	yes	57	0	74	0	0			0	0			1				0	
6.6.1	win	2023-06-15	10:31:48	10:42:24	632461	5f3c2648a9ef86a4c10de377	3	1	main_z	11	main_z	109	stimuli_target_trianglerectangles.svg	stimuli_distractor_trianglediamonds.svg	17	yes	44	1	711	0	0			0	0			1				0	
6.6.1	win	2023-06-15	10:31:48	10:42:24	632461	5f3c2648a9ef86a4c10de377	3	1	main_z	11	advance_on_keypress_ZEE	110	stimuli_target_trianglerectangles.svg	stimuli_distractor_trianglediamonds.svg	17	yes	57	0	69	0	0			0	0			1				0	
6.6.1	win	2023-06-15	10:31:48	10:42:25	633829	5f3c2648a9ef86a4c10de377	3	1	main_z	11	main_z	111	stimuli_distractor_trianglediamonds.svg	stimuli_target_squarediamonds.svg	12	yes	44	1	660	0	0			0	0			1				0	
6.6.1	win	2023-06-15	10:31:48	10:42:25	633829	5f3c2648a9ef86a4c10de377	3	1	main_z	11	advance_on_keypress_ZEE	112	stimuli_distractor_trianglediamonds.svg	stimuli_target_squarediamonds.svg	12	yes	57	0	74	0	0			0	0			1				0	
6.6.1	win	2023-06-15	10:31:48	10:42:26	635090	5f3c2648a9ef86a4c10de377	3	1	main_z	11	main_z	113	stimuli_distractor_diamondtriangles.svg	stimuli_target_trianglesquares.svg	30	yes	44	1	553	0	0			0	0			1				0	
6.6.1	win	2023-06-15	10:31:48	10:42:26	635090	5f3c2648a9ef86a4c10de377	3	1	main_z	11	advance_on_keypress_ZEE	114	stimuli_distractor_diamondtriangles.svg	stimuli_target_trianglesquares.svg	30	yes	57	0	106	0	0			0	0			1				0	
6.6.1	win	2023-06-15	10:31:48	10:42:28	636447	5f3c2648a9ef86a4c10de377	3	1	main_z	11	main_z	115	stimuli_target_rectangletriangles.svg	stimuli_distractor_trianglediamonds.svg	1	yes	44	1	612	0	0			0	0			1				0	
6.6.1	win	2023-06-15	10:31:48	10:42:28	636447	5f3c2648a9ef86a4c10de377	3	1	main_z	11	advance_on_keypress_ZEE	116	stimuli_target_rectangletriangles.svg	stimuli_distractor_trianglediamonds.svg	1	yes	57	0	71	0	0			0	0			1				0	
6.6.1	win	2023-06-15	10:31:48	10:42:29	637811	5f3c2648a9ef86a4c10de377	3	1	main_z	11	main_z	117	stimuli_target_diamondrectangles.svg	stimuli_distractor_trianglediamonds.svg	19	yes	44	1	643	0	0			0	0			1				0	
6.6.1	win	2023-06-15	10:31:48	10:42:29	637811	5f3c2648a9ef86a4c10de377	3	1	main_z	11	advance_on_keypress_ZEE	118	stimuli_target_diamondrectangles.svg	stimuli_distractor_trianglediamonds.svg	19	yes	57	0	85	0	0			0	0			1				0	
6.6.1	win	2023-06-15	10:31:48	10:42:30	639216	5f3c2648a9ef86a4c10de377	3	1	main_z	11	main_z	119	stimuli_distractor_diamondtriangles.svg	stimuli_target_rectangletriangles.svg	13	yes	44	1	682	0	0			0	0			1				0	
6.6.1	win	2023-06-15	10:31:48	10:42:30	639216	5f3c2648a9ef86a4c10de377	3	1	main_z	11	advance_on_keypress_ZEE	120	stimuli_distractor_diamondtriangles.svg	stimuli_target_rectangletriangles.svg	13	yes	57	0	93	0	0			0	0			1				0	
6.6.1	win	2023-06-15	10:31:48	10:42:33	641953	5f3c2648a9ef86a4c10de377	3	1	main_z	11	main_z	121	stimuli_distractor_trianglediamonds.svg	stimuli_distractor_trianglediamonds.svg	33	no	0	1	2000	0	0			0	0			1				0	
6.6.1	win	2023-06-15	10:31:48	10:42:33	641953	5f3c2648a9ef86a4c10de377	3	1	main_z	11	advance_on_keypress_ZEE	122	stimuli_distractor_trianglediamonds.svg	stimuli_distractor_trianglediamonds.svg	33	no	57	0	634	0	0			0	0			1				0	
6.6.1	win	2023-06-15	10:31:48	10:42:37	645242	5f3c2648a9ef86a4c10de377	3	1	main_z	11	main_z	123	stimuli_distractor_trianglediamonds.svg	stimuli_distractor_diamondtriangles.svg	35	no	0	1	2000	0	0			0	0			1				0	
6.6.1	win	2023-06-15	10:31:48	10:42:37	645242	5f3c2648a9ef86a4c10de377	3	1	main_z	11	advance_on_keypress_ZEE	124	stimuli_distractor_trianglediamonds.svg	stimuli_distractor_diamondtriangles.svg	35	no	57	0	484	0	0			0	0			1				0	
6.6.1	win	2023-06-15	10:31:48	10:42:38	646866	5f3c2648a9ef86a4c10de377	3	1	main_z	11	main_z	125	stimuli_target_rectangletriangles.svg	stimuli_distractor_diamondtriangles.svg	5	yes	44	1	500	0	0			0	0			1				0	
6.6.1	win	2023-06-15	10:31:48	10:42:38	646866	5f3c2648a9ef86a4c10de377	3	1	main_z	11	advance_on_keypress_ZEE	126	stimuli_target_rectangletriangles.svg	stimuli_distractor_diamondtriangles.svg	5	yes	57	0	44	0	0			0	0			1				0	
6.6.1	win	2023-06-15	10:31:48	10:42:41	649553	5f3c2648a9ef86a4c10de377	3	1	main_z	11	main_z	127	stimuli_distractor_trianglediamonds.svg	stimuli_distractor_diamondtriangles.svg	36	no	0	1	2000	0	0			0	0			1				0	
6.6.1	win	2023-06-15	10:31:48	10:42:41	649553	5f3c2648a9ef86a4c10de377	3	1	main_z	11	advance_on_keypress_ZEE	128	stimuli_distractor_trianglediamonds.svg	stimuli_distractor_diamondtriangles.svg	36	no	57	0	550	0	0			0	0			1				0	
6.6.1	win	2023-06-15	10:31:48	10:42:43	651374	5f3c2648a9ef86a4c10de377	3	1	main_z	11	main_z	129	stimuli_distractor_diamondtriangles.svg	stimuli_target_trianglerectangles.svg	29	yes	44	1	631	0	0			0	0			1				0	
6.6.1	win	2023-06-15	10:31:48	10:42:43	651374	5f3c2648a9ef86a4c10de377	3	1	main_z	11	advance_on_keypress_ZEE	130	stimuli_distractor_diamondtriangles.svg	stimuli_target_trianglerectangles.svg	29	yes	57	0	78	0	0			0	0			1				0	
6.6.1	win	2023-06-15	10:31:48	10:42:44	652748	5f3c2648a9ef86a4c10de377	3	1	main_z	11	main_z	131	stimuli_distractor_trianglediamonds.svg	stimuli_target_rectanglediamonds.svg	10	yes	44	1	645	0	0			0	0			1				0	
6.6.1	win	2023-06-15	10:31:48	10:42:44	652748	5f3c2648a9ef86a4c10de377	3	1	main_z	11	advance_on_keypress_ZEE	132	stimuli_distractor_trianglediamonds.svg	stimuli_target_rectanglediamonds.svg	10	yes	57	0	75	0	0			0	0			1				0	
6.6.1	win	2023-06-15	10:31:48	10:42:45	654132	5f3c2648a9ef86a4c10de377	3	1	main_z	11	main_z	133	stimuli_target_trianglerectangles.svg	stimuli_distractor_diamondtriangles.svg	21	yes	44	1	679	0	0			0	0			1				0	
6.6.1	win	2023-06-15	10:31:48	10:42:45	654132	5f3c2648a9ef86a4c10de377	3	1	main_z	11	advance_on_keypress_ZEE	134	stimuli_target_trianglerectangles.svg	stimuli_distractor_diamondtriangles.svg	21	yes	57	0	72	0	0			0	0			1				0	
6.6.1	win	2023-06-15	10:31:48	10:42:48	656837	5f3c2648a9ef86a4c10de377	3	1	main_z	11	main_z	135	stimuli_distractor_diamondtriangles.svg	stimuli_distractor_diamondtriangles.svg	39	no	0	1	2000	0	0			0	0			1				0	
6.6.1	win	2023-06-15	10:31:48	10:42:48	656837	5f3c2648a9ef86a4c10de377	3	1	main_z	11	advance_on_keypress_ZEE	136	stimuli_distractor_diamondtriangles.svg	stimuli_distractor_diamondtriangles.svg	39	no	57	0	760	0	0			0	0			1				0	
6.6.1	win	2023-06-15	10:31:48	10:42:52	660238	5f3c2648a9ef86a4c10de377	3	1	main_z	11	main_z	137	stimuli_distractor_diamondtriangles.svg	stimuli_distractor_trianglediamonds.svg	38	no	0	1	2000	0	0			0	0			1				0	
6.6.1	win	2023-06-15	10:31:48	10:42:52	660238	5f3c2648a9ef86a4c10de377	3	1	main_z	11	advance_on_keypress_ZEE	138	stimuli_distractor_diamondtriangles.svg	stimuli_distractor_trianglediamonds.svg	38	no	57	0	524	0	0			0	0			1				0	
6.6.1	win	2023-06-15	10:31:48	10:42:53	662027	5f3c2648a9ef86a4c10de377	3	1	main_z	11	main_z	139	stimuli_distractor_diamondtriangles.svg	stimuli_target_diamondsquares.svg	32	yes	44	1	633	0	0			0	0			1				0	
6.6.1	win	2023-06-15	10:31:48	10:42:53	662027	5f3c2648a9ef86a4c10de377	3	1	main_z	11	advance_on_keypress_ZEE	140	stimuli_distractor_diamondtriangles.svg	stimuli_target_diamondsquares.svg	32	yes	57	0	72	0	0			0	0			1				0	
6.6.1	win	2023-06-15	10:31:48	10:42:55	663285	5f3c2648a9ef86a4c10de377	3	1	main_z	11	main_z	141	stimuli_distractor_diamondtriangles.svg	stimuli_target_diamondrectangles.svg	31	yes	44	1	542	0	0			0	0			1				0	
6.6.1	win	2023-06-15	10:31:48	10:42:55	663285	5f3c2648a9ef86a4c10de377	3	1	main_z	11	advance_on_keypress_ZEE	142	stimuli_distractor_diamondtriangles.svg	stimuli_target_diamondrectangles.svg	31	yes	57	0	95	0	0			0	0			1				0	
6.6.1	win	2023-06-15	10:31:48	10:42:56	664582	5f3c2648a9ef86a4c10de377	3	1	main_z	11	main_z	143	stimuli_target_trianglesquares.svg	stimuli_distractor_trianglediamonds.svg	18	yes	44	1	555	0	0			0	0			1				0	
6.6.1	win	2023-06-15	10:31:48	10:42:56	664582	5f3c2648a9ef86a4c10de377	3	1	main_z	11	advance_on_keypress_ZEE	144	stimuli_target_trianglesquares.svg	stimuli_distractor_trianglediamonds.svg	18	yes	57	0	79	0	0			0	0			1				0	
6.6.1	win	2023-06-15	10:31:48	10:42:57	665813	5f3c2648a9ef86a4c10de377	3	1	main_z	11	main_z	145	stimuli_distractor_trianglediamonds.svg	stimuli_target_diamondrectangles.svg	27	yes	44	1	518	0	0			0	0			1				0	
6.6.1	win	2023-06-15	10:31:48	10:42:57	665813	5f3c2648a9ef86a4c10de377	3	1	main_z	11	advance_on_keypress_ZEE	146	stimuli_distractor_trianglediamonds.svg	stimuli_target_diamondrectangles.svg	27	yes	57	0	77	0	0			0	0			1				0	
6.6.1	win	2023-06-15	10:31:48	10:42:59	667242	5f3c2648a9ef86a4c10de377	3	1	main_z	11	main_z	147	stimuli_target_squaretriangles.svg	stimuli_distractor_diamondtriangles.svg	7	yes	44	1	699	0	0			0	0			1				0	
6.6.1	win	2023-06-15	10:31:48	10:42:59	667242	5f3c2648a9ef86a4c10de377	3	1	main_z	11	advance_on_keypress_ZEE	148	stimuli_target_squaretriangles.svg	stimuli_distractor_diamondtriangles.svg	7	yes	57	0	54	0	0			0	0			1				0	
6.6.1	win	2023-06-15	10:31:48	10:43:00	668653	5f3c2648a9ef86a4c10de377	3	1	main_z	11	main_z	149	stimuli_target_trianglesquares.svg	stimuli_distractor_diamondtriangles.svg	22	yes	44	1	719	0	0			0	0			1				0	
6.6.1	win	2023-06-15	10:31:48	10:43:00	668653	5f3c2648a9ef86a4c10de377	3	1	main_z	11	advance_on_keypress_ZEE	150	stimuli_target_trianglesquares.svg	stimuli_distractor_diamondtriangles.svg	22	yes	57	0	82	0	0			0	0			1				0	
6.6.1	win	2023-06-15	10:31:48	10:43:01	670094	5f3c2648a9ef86a4c10de377	3	1	main_z	11	main_z	151	stimuli_distractor_trianglediamonds.svg	stimuli_target_rectangletriangles.svg	9	yes	44	1	702	0	0			0	0			1				0	
6.6.1	win	2023-06-15	10:31:48	10:43:01	670094	5f3c2648a9ef86a4c10de377	3	1	main_z	11	advance_on_keypress_ZEE	152	stimuli_distractor_trianglediamonds.svg	stimuli_target_rectangletriangles.svg	9	yes	57	0	617	0	0			0	0			1				0	
6.6.1	win	2023-06-15	10:31:48	10:43:03	671927	5f3c2648a9ef86a4c10de377	3	1	main_z	11	main_z	153	stimuli_distractor_trianglediamonds.svg	stimuli_target_trianglesquares.svg	26	yes	44	1	568	0	0			0	0			1				0	
6.6.1	win	2023-06-15	10:31:48	10:43:03	671927	5f3c2648a9ef86a4c10de377	3	1	main_z	11	advance_on_keypress_ZEE	154	stimuli_distractor_trianglediamonds.svg	stimuli_target_trianglesquares.svg	26	yes	57	0	52	0	0			0	0			1				0	
6.6.1	win	2023-06-15	10:31:48	10:43:05	673253	5f3c2648a9ef86a4c10de377	3	1	main_z	11	main_z	155	stimuli_distractor_diamondtriangles.svg	stimuli_target_squarediamonds.svg	16	yes	44	1	627	0	0			0	0			1				0	
6.6.1	win	2023-06-15	10:31:48	10:43:05	673253	5f3c2648a9ef86a4c10de377	3	1	main_z	11	advance_on_keypress_ZEE	156	stimuli_distractor_diamondtriangles.svg	stimuli_target_squarediamonds.svg	16	yes	57	0	60	0	0			0	0			1				0	
6.6.1	win	2023-06-15	10:31:48	10:43:06	674457	5f3c2648a9ef86a4c10de377	3	1	main_z	11	main_z	157	stimuli_target_squaretriangles.svg	stimuli_distractor_trianglediamonds.svg	3	yes	44	1	504	0	0			0	0			1				0	
6.6.1	win	2023-06-15	10:31:48	10:43:06	674457	5f3c2648a9ef86a4c10de377	3	1	main_z	11	advance_on_keypress_ZEE	158	stimuli_target_squaretriangles.svg	stimuli_distractor_trianglediamonds.svg	3	yes	57	0	67	0	0			0	0			1				0	
6.6.1	win	2023-06-15	10:31:48	10:43:07	675886	5f3c2648a9ef86a4c10de377	3	1	main_z	11	main_z	159	stimuli_target_diamondsquares.svg	stimuli_distractor_trianglediamonds.svg	20	yes	44	1	711	0	0			0	0			1				0	
6.6.1	win	2023-06-15	10:31:48	10:43:07	675886	5f3c2648a9ef86a4c10de377	3	1	main_z	11	advance_on_keypress_ZEE	160	stimuli_target_diamondsquares.svg	stimuli_distractor_trianglediamonds.svg	20	yes	57	0	82	0	0			0	0			1				0	
6.6.1	win	2023-06-15	10:31:48	10:43:07	675886	5f3c2648a9ef86a4c10de377	3	1	headphonecheck_calibration	14	headphonecheck_calibrationIntro	1	stimuli_target_diamondsquares.svg	stimuli_distractor_trianglediamonds.svg	20	yes	calibrationButton	0	4471	0	0			0	0			1				0	
6.6.1	win	2023-06-15	10:31:48	10:43:07	675886	5f3c2648a9ef86a4c10de377	3	1	headphonecheck_testphase	15	test_collectResponse	3	stimuli_target_diamondsquares.svg	stimuli_distractor_trianglediamonds.svg	20	yes	first	0	20228	1	5	antiphase_hc_osi.wav	2	0	0			1				0	
6.6.1	win	2023-06-15	10:31:48	10:43:07	675886	5f3c2648a9ef86a4c10de377	3	1	headphonecheck_testphase	15	test_collectResponse	6	stimuli_target_diamondsquares.svg	stimuli_distractor_trianglediamonds.svg	20	yes	first	0	2406	2	6	antiphase_hc_ois.wav	3	0	0			1				0	
6.6.1	win	2023-06-15	10:31:48	10:43:07	675886	5f3c2648a9ef86a4c10de377	3	1	headphonecheck_testphase	15	test_collectResponse	9	stimuli_target_diamondsquares.svg	stimuli_distractor_trianglediamonds.svg	20	yes	third	0	194	3	1	antiphase_hc_iso.wav	2	0	0			1				0	
6.6.1	win	2023-06-15	10:31:48	10:43:07	675886	5f3c2648a9ef86a4c10de377	3	1	headphonecheck_testphase	15	test_collectResponse	12	stimuli_target_diamondsquares.svg	stimuli_distractor_trianglediamonds.svg	20	yes	third	0	304	4	4	antiphase_hc_sio.wav	1	0	0			1				0	
6.6.1	win	2023-06-15	10:31:48	10:43:07	675886	5f3c2648a9ef86a4c10de377	3	1	headphonecheck_testphase	15	test_collectResponse	15	stimuli_target_diamondsquares.svg	stimuli_distractor_trianglediamonds.svg	20	yes	second	0	1929	5	3	antiphase_hc_soi.wav	1	0	0			1				0	
6.6.1	win	2023-06-15	10:31:48	10:43:07	675886	5f3c2648a9ef86a4c10de377	3	1	headphonecheck_testphase	15	test_collectResponse	18	stimuli_target_diamondsquares.svg	stimuli_distractor_trianglediamonds.svg	20	yes	second	0	105	6	2	antiphase_hc_ios.wav	3	0	0			1				0	
6.6.1	win	2023-06-15	10:31:48	10:43:07	675886	5f3c2648a9ef86a4c10de377	3	1	stereocheck_calibration	17	stereocheck_calibrationIntro	1	stimuli_target_diamondsquares.svg	stimuli_distractor_trianglediamonds.svg	20	yes	stereocheck_calibrationButton	0	7871	6	2	antiphase_hc_ios.wav	3	0	0			1				0	
6.6.1	win	2023-06-15	10:31:48	10:43:07	675886	5f3c2648a9ef86a4c10de377	3	1	stereocheck_testphase	18	stereocheck_test_collectResponse	3	stimuli_target_diamondsquares.svg	stimuli_distractor_trianglediamonds.svg	20	yes	stereocheck_right	1	300	6	2	antiphase_hc_ios.wav	3	1	5	noise_calib_stim_RIGHT.wav	2	1				0	
6.6.1	win	2023-06-15	10:31:48	10:43:07	675886	5f3c2648a9ef86a4c10de377	3	1	stereocheck_testphase	18	stereocheck_test_collectResponse	6	stimuli_target_diamondsquares.svg	stimuli_distractor_trianglediamonds.svg	20	yes	stereocheck_right	1	192	6	2	antiphase_hc_ios.wav	3	2	4	noise_calib_stim_RIGHT.wav	2	1				0	
6.6.1	win	2023-06-15	10:31:48	10:43:07	675886	5f3c2648a9ef86a4c10de377	3	1	stereocheck_testphase	18	stereocheck_test_collectResponse	9	stimuli_target_diamondsquares.svg	stimuli_distractor_trianglediamonds.svg	20	yes	stereocheck_left	1	205	6	2	antiphase_hc_ios.wav	3	3	2	noise_calib_stim_LEFT.wav	1	1				0	
6.6.1	win	2023-06-15	10:31:48	10:43:07	675886	5f3c2648a9ef86a4c10de377	3	1	stereocheck_testphase	18	stereocheck_test_collectResponse	12	stimuli_target_diamondsquares.svg	stimuli_distractor_trianglediamonds.svg	20	yes	stereocheck_left	1	201	6	2	antiphase_hc_ios.wav	3	4	1	noise_calib_stim_LEFT.wav	1	1				0	
6.6.1	win	2023-06-15	10:31:48	10:43:07	675886	5f3c2648a9ef86a4c10de377	3	1	stereocheck_testphase	18	stereocheck_test_collectResponse	15	stimuli_target_diamondsquares.svg	stimuli_distractor_trianglediamonds.svg	20	yes	stereocheck_right	1	196	6	2	antiphase_hc_ios.wav	3	5	6	noise_calib_stim_RIGHT.wav	2	1				0	
6.6.1	win	2023-06-15	10:31:48	10:43:07	675886	5f3c2648a9ef86a4c10de377	3	1	stereocheck_testphase	18	stereocheck_test_collectResponse	18	stimuli_target_diamondsquares.svg	stimuli_distractor_trianglediamonds.svg	20	yes	stereocheck_left	1	134	6	2	antiphase_hc_ios.wav	3	6	3	noise_calib_stim_LEFT.wav	1	1				0	
6.6.1	win	2023-06-15	10:31:48	10:43:07	675886	5f3c2648a9ef86a4c10de377	3	1	DL_practice	21	DL_practice	2	stimuli_target_diamondsquares.svg	stimuli_distractor_trianglediamonds.svg	20	yes	ka	1	1088	6	2	antiphase_hc_ios.wav	3	6	3	noise_calib_stim_LEFT.wav	1	22	blb_dichoticlistening_ka-ka.mp3	ka	ka	0	left
6.6.1	win	2023-06-15	10:31:48	10:43:07	675886	5f3c2648a9ef86a4c10de377	3	1	DL_practice	21	DL_practice	3	stimuli_target_diamondsquares.svg	stimuli_distractor_trianglediamonds.svg	20	yes	da	1	1006	6	2	antiphase_hc_ios.wav	3	6	3	noise_calib_stim_LEFT.wav	1	8	blb_dichoticlistening_da-da.mp3	da	da	0	left
6.6.1	win	2023-06-15	10:31:48	10:43:07	675886	5f3c2648a9ef86a4c10de377	3	1	DL_practice	21	DL_practice	4	stimuli_target_diamondsquares.svg	stimuli_distractor_trianglediamonds.svg	20	yes	pa	1	1364	6	2	antiphase_hc_ios.wav	3	6	3	noise_calib_stim_LEFT.wav	1	29	blb_dichoticlistening_pa-pa.mp3	pa	pa	0	left
6.6.1	win	2023-06-15	10:31:48	10:43:07	675886	5f3c2648a9ef86a4c10de377	3	1	DL_practice	21	DL_practice	5	stimuli_target_diamondsquares.svg	stimuli_distractor_trianglediamonds.svg	20	yes	ba	1	2339	6	2	antiphase_hc_ios.wav	3	6	3	noise_calib_stim_LEFT.wav	1	7	blb_dichoticlistening_da-ba.mp3	da	ba	1	right
6.6.1	win	2023-06-15	10:31:48	10:43:07	675886	5f3c2648a9ef86a4c10de377	3	1	DL_practice	21	DL_practice	6	stimuli_target_diamondsquares.svg	stimuli_distractor_trianglediamonds.svg	20	yes	ga	1	910	6	2	antiphase_hc_ios.wav	3	6	3	noise_calib_stim_LEFT.wav	1	15	blb_dichoticlistening_ga-ga.mp3	ga	ga	0	left
6.6.1	win	2023-06-15	10:31:48	10:43:07	675886	5f3c2648a9ef86a4c10de377	3	1	DL_practice	21	DL_practice	7	stimuli_target_diamondsquares.svg	stimuli_distractor_trianglediamonds.svg	20	yes	ka	1	1023	6	2	antiphase_hc_ios.wav	3	6	3	noise_calib_stim_LEFT.wav	1	23	blb_dichoticlistening_ka-pa.mp3	ka	pa	1	left
6.6.1	win	2023-06-15	10:31:48	10:43:07	675886	5f3c2648a9ef86a4c10de377	3	1	DL_practice	21	DL_practice	8	stimuli_target_diamondsquares.svg	stimuli_distractor_trianglediamonds.svg	20	yes	ga	1	853	6	2	antiphase_hc_ios.wav	3	6	3	noise_calib_stim_LEFT.wav	1	18	blb_dichoticlistening_ga-ta.mp3	ga	ta	1	left
6.6.1	win	2023-06-15	10:31:48	10:43:07	675886	5f3c2648a9ef86a4c10de377	3	1	DL_practice	21	DL_practice	9	stimuli_target_diamondsquares.svg	stimuli_distractor_trianglediamonds.svg	20	yes	ba	1	1235	6	2	antiphase_hc_ios.wav	3	6	3	noise_calib_stim_LEFT.wav	1	1	blb_dichoticlistening_ba-ba.mp3	ba	ba	0	left
6.6.1	win	2023-06-15	10:31:48	10:43:07	675886	5f3c2648a9ef86a4c10de377	3	1	DL_practice	21	DL_practice	10	stimuli_target_diamondsquares.svg	stimuli_distractor_trianglediamonds.svg	20	yes	ta	1	1681	6	2	antiphase_hc_ios.wav	3	6	3	noise_calib_stim_LEFT.wav	1	36	blb_dichoticlistening_ta-ta.mp3	ta	ta	0	left
6.6.1	win	2023-06-15	10:31:48	10:43:07	675886	5f3c2648a9ef86a4c10de377	3	1	DL_test	23	DL_test	1	stimuli_target_diamondsquares.svg	stimuli_distractor_trianglediamonds.svg	20	yes	ka	1	878	6	2	antiphase_hc_ios.wav	3	6	3	noise_calib_stim_LEFT.wav	1	24	blb_dichoticlistening_ka-ta.mp3	ka	ta	1	left
6.6.1	win	2023-06-15	10:31:48	10:43:07	675886	5f3c2648a9ef86a4c10de377	3	1	DL_test	23	DL_test	2	stimuli_target_diamondsquares.svg	stimuli_distractor_trianglediamonds.svg	20	yes	ga	1	846	6	2	antiphase_hc_ios.wav	3	6	3	noise_calib_stim_LEFT.wav	1	18	blb_dichoticlistening_ga-ta.mp3	ga	ta	1	left
6.6.1	win	2023-06-15	10:31:48	10:43:07	675886	5f3c2648a9ef86a4c10de377	3	1	DL_test	23	DL_test	3	stimuli_target_diamondsquares.svg	stimuli_distractor_trianglediamonds.svg	20	yes	ka	1	820	6	2	antiphase_hc_ios.wav	3	6	3	noise_calib_stim_LEFT.wav	1	28	blb_dichoticlistening_pa-ka.mp3	pa	ka	1	right
6.6.1	win	2023-06-15	10:31:48	10:43:07	675886	5f3c2648a9ef86a4c10de377	3	1	DL_test	23	DL_test	4	stimuli_target_diamondsquares.svg	stimuli_distractor_trianglediamonds.svg	20	yes	ba	1	1511	6	2	antiphase_hc_ios.wav	3	6	3	noise_calib_stim_LEFT.wav	1	31	blb_dichoticlistening_ta-ba.mp3	ta	ba	1	right
6.6.1	win	2023-06-15	10:31:48	10:43:07	675886	5f3c2648a9ef86a4c10de377	3	1	DL_test	23	DL_test	5	stimuli_target_diamondsquares.svg	stimuli_distractor_trianglediamonds.svg	20	yes	ga	1	949	6	2	antiphase_hc_ios.wav	3	6	3	noise_calib_stim_LEFT.wav	1	14	blb_dichoticlistening_ga-da.mp3	ga	da	1	left
6.6.1	win	2023-06-15	10:31:48	10:43:07	675886	5f3c2648a9ef86a4c10de377	3	1	DL_test	23	DL_test	6	stimuli_target_diamondsquares.svg	stimuli_distractor_trianglediamonds.svg	20	yes	da	1	1030	6	2	antiphase_hc_ios.wav	3	6	3	noise_calib_stim_LEFT.wav	1	8	blb_dichoticlistening_da-da.mp3	da	da	0	left
6.6.1	win	2023-06-15	10:31:48	10:43:07	675886	5f3c2648a9ef86a4c10de377	3	1	DL_test	23	DL_test	7	stimuli_target_diamondsquares.svg	stimuli_distractor_trianglediamonds.svg	20	yes	ba	1	1893	6	2	antiphase_hc_ios.wav	3	6	3	noise_calib_stim_LEFT.wav	1	19	blb_dichoticlistening_ka-ba.mp3	ka	ba	1	right
6.6.1	win	2023-06-15	10:31:48	10:43:07	675886	5f3c2648a9ef86a4c10de377	3	1	DL_test	23	DL_test	8	stimuli_target_diamondsquares.svg	stimuli_distractor_trianglediamonds.svg	20	yes	ba	1	1247	6	2	antiphase_hc_ios.wav	3	6	3	noise_calib_stim_LEFT.wav	1	13	blb_dichoticlistening_ga-ba.mp3	ga	ba	1	right
6.6.1	win	2023-06-15	10:31:48	10:43:07	675886	5f3c2648a9ef86a4c10de377	3	1	DL_test	23	DL_test	9	stimuli_target_diamondsquares.svg	stimuli_distractor_trianglediamonds.svg	20	yes	ga	1	985	6	2	antiphase_hc_ios.wav	3	6	3	noise_calib_stim_LEFT.wav	1	21	blb_dichoticlistening_ka-ga.mp3	ka	ga	1	right
6.6.1	win	2023-06-15	10:31:48	10:43:07	675886	5f3c2648a9ef86a4c10de377	3	1	DL_test	23	DL_test	10	stimuli_target_diamondsquares.svg	stimuli_distractor_trianglediamonds.svg	20	yes	ta	1	1059	6	2	antiphase_hc_ios.wav	3	6	3	noise_calib_stim_LEFT.wav	1	36	blb_dichoticlistening_ta-ta.mp3	ta	ta	0	left
6.6.1	win	2023-06-15	10:31:48	10:43:07	675886	5f3c2648a9ef86a4c10de377	3	1	DL_test	23	DL_test	11	stimuli_target_diamondsquares.svg	stimuli_distractor_trianglediamonds.svg	20	yes	ga	0	850	6	2	antiphase_hc_ios.wav	3	6	3	noise_calib_stim_LEFT.wav	1	32	blb_dichoticlistening_ta-da.mp3	ta	da	1	other
6.6.1	win	2023-06-15	10:31:48	10:43:07	675886	5f3c2648a9ef86a4c10de377	3	1	DL_test	23	DL_test	12	stimuli_target_diamondsquares.svg	stimuli_distractor_trianglediamonds.svg	20	yes	ba	1	1177	6	2	antiphase_hc_ios.wav	3	6	3	noise_calib_stim_LEFT.wav	1	3	blb_dichoticlistening_ba-ga.mp3	ba	ga	1	left
6.6.1	win	2023-06-15	10:31:48	10:43:07	675886	5f3c2648a9ef86a4c10de377	3	1	DL_test	23	DL_test	13	stimuli_target_diamondsquares.svg	stimuli_distractor_trianglediamonds.svg	20	yes	ga	1	880	6	2	antiphase_hc_ios.wav	3	6	3	noise_calib_stim_LEFT.wav	1	27	blb_dichoticlistening_pa-ga.mp3	pa	ga	1	right
6.6.1	win	2023-06-15	10:31:48	10:43:07	675886	5f3c2648a9ef86a4c10de377	3	1	DL_test	23	DL_test	14	stimuli_target_diamondsquares.svg	stimuli_distractor_trianglediamonds.svg	20	yes	ka	1	1055	6	2	antiphase_hc_ios.wav	3	6	3	noise_calib_stim_LEFT.wav	1	23	blb_dichoticlistening_ka-pa.mp3	ka	pa	1	left
6.6.1	win	2023-06-15	10:31:48	10:43:07	675886	5f3c2648a9ef86a4c10de377	3	1	DL_test	23	DL_test	15	stimuli_target_diamondsquares.svg	stimuli_distractor_trianglediamonds.svg	20	yes	ba	1	1152	6	2	antiphase_hc_ios.wav	3	6	3	noise_calib_stim_LEFT.wav	1	1	blb_dichoticlistening_ba-ba.mp3	ba	ba	0	left
6.6.1	win	2023-06-15	10:31:48	10:43:07	675886	5f3c2648a9ef86a4c10de377	3	1	DL_test	23	DL_test	16	stimuli_target_diamondsquares.svg	stimuli_distractor_trianglediamonds.svg	20	yes	ga	1	816	6	2	antiphase_hc_ios.wav	3	6	3	noise_calib_stim_LEFT.wav	1	16	blb_dichoticlistening_ga-ka.mp3	ga	ka	1	left
6.6.1	win	2023-06-15	10:31:48	10:43:07	675886	5f3c2648a9ef86a4c10de377	3	1	DL_test	23	DL_test	17	stimuli_target_diamondsquares.svg	stimuli_distractor_trianglediamonds.svg	20	yes	ga	0	1486	6	2	antiphase_hc_ios.wav	3	6	3	noise_calib_stim_LEFT.wav	1	11	blb_dichoticlistening_da-pa.mp3	da	pa	1	other
6.6.1	win	2023-06-15	10:31:48	10:43:07	675886	5f3c2648a9ef86a4c10de377	3	1	DL_test	23	DL_test	18	stimuli_target_diamondsquares.svg	stimuli_distractor_trianglediamonds.svg	20	yes	ba	1	1432	6	2	antiphase_hc_ios.wav	3	6	3	noise_calib_stim_LEFT.wav	1	4	blb_dichoticlistening_ba-ka.mp3	ba	ka	1	left
6.6.1	win	2023-06-15	10:31:48	10:43:07	675886	5f3c2648a9ef86a4c10de377	3	1	DL_test	23	DL_test	19	stimuli_target_diamondsquares.svg	stimuli_distractor_trianglediamonds.svg	20	yes	ga	1	831	6	2	antiphase_hc_ios.wav	3	6	3	noise_calib_stim_LEFT.wav	1	15	blb_dichoticlistening_ga-ga.mp3	ga	ga	0	left
6.6.1	win	2023-06-15	10:31:48	10:43:07	675886	5f3c2648a9ef86a4c10de377	3	1	DL_test	23	DL_test	20	stimuli_target_diamondsquares.svg	stimuli_distractor_trianglediamonds.svg	20	yes	ga	1	640	6	2	antiphase_hc_ios.wav	3	6	3	noise_calib_stim_LEFT.wav	1	33	blb_dichoticlistening_ta-ga.mp3	ta	ga	1	right
6.6.1	win	2023-06-15	10:31:48	10:43:07	675886	5f3c2648a9ef86a4c10de377	3	1	DL_test	23	DL_test	21	stimuli_target_diamondsquares.svg	stimuli_distractor_trianglediamonds.svg	20	yes	ta	1	1368	6	2	antiphase_hc_ios.wav	3	6	3	noise_calib_stim_LEFT.wav	1	35	blb_dichoticlistening_ta-pa.mp3	ta	pa	1	left
6.6.1	win	2023-06-15	10:31:48	10:43:07	675886	5f3c2648a9ef86a4c10de377	3	1	DL_test	23	DL_test	22	stimuli_target_diamondsquares.svg	stimuli_distractor_trianglediamonds.svg	20	yes	ga	0	1169	6	2	antiphase_hc_ios.wav	3	6	3	noise_calib_stim_LEFT.wav	1	26	blb_dichoticlistening_pa-da.mp3	pa	da	1	other
6.6.1	win	2023-06-15	10:31:48	10:43:07	675886	5f3c2648a9ef86a4c10de377	3	1	DL_test	23	DL_test	23	stimuli_target_diamondsquares.svg	stimuli_distractor_trianglediamonds.svg	20	yes	ga	1	1496	6	2	antiphase_hc_ios.wav	3	6	3	noise_calib_stim_LEFT.wav	1	9	blb_dichoticlistening_da-ga.mp3	da	ga	1	right
6.6.1	win	2023-06-15	10:31:48	10:43:07	675886	5f3c2648a9ef86a4c10de377	3	1	DL_test	23	DL_test	24	stimuli_target_diamondsquares.svg	stimuli_distractor_trianglediamonds.svg	20	yes	ba	1	1173	6	2	antiphase_hc_ios.wav	3	6	3	noise_calib_stim_LEFT.wav	1	25	blb_dichoticlistening_pa-ba.mp3	pa	ba	1	right
6.6.1	win	2023-06-15	10:31:48	10:43:07	675886	5f3c2648a9ef86a4c10de377	3	1	DL_test	23	DL_test	25	stimuli_target_diamondsquares.svg	stimuli_distractor_trianglediamonds.svg	20	yes	ka	1	1265	6	2	antiphase_hc_ios.wav	3	6	3	noise_calib_stim_LEFT.wav	1	10	blb_dichoticlistening_da-ka.mp3	da	ka	1	right
6.6.1	win	2023-06-15	10:31:48	10:43:07	675886	5f3c2648a9ef86a4c10de377	3	1	DL_test	23	DL_test	26	stimuli_target_diamondsquares.svg	stimuli_distractor_trianglediamonds.svg	20	yes	pa	1	1188	6	2	antiphase_hc_ios.wav	3	6	3	noise_calib_stim_LEFT.wav	1	29	blb_dichoticlistening_pa-pa.mp3	pa	pa	0	left
6.6.1	win	2023-06-15	10:31:48	10:43:07	675886	5f3c2648a9ef86a4c10de377	3	1	DL_test	23	DL_test	27	stimuli_target_diamondsquares.svg	stimuli_distractor_trianglediamonds.svg	20	yes	ka	1	862	6	2	antiphase_hc_ios.wav	3	6	3	noise_calib_stim_LEFT.wav	1	34	blb_dichoticlistening_ta-ka.mp3	ta	ka	1	right
