build	computer.platform	date	time	timestamp	time_elapsed_ms	subject	group	session	blockcode	blocknum	trialcode	trialnum	stimulus_left	stimulus_right	stim_index	target_present	response	correct	latency	headphonecheck_countTestTrials	headphonecheck_index	headphonecheck_testSound	headphonecheck_correctResponse	stereocheck_countTestTrials	stereocheck_index	stereocheck_testSound	stereocheck_correctResponse	DL_index	DL_soundfile	DL_leftSound	DL_rightSound	DL_dualSound	DL_choice
6.6.1	win	2023-06-02	08:00:23	08:08:07	459511	6095fc75ab1d101e060d808b	3	1	practice_slash	5	practice_slash	1	stimuli_distractor_trianglediamonds.svg	stimuli_distractor_diamondtriangles.svg	16	no	53	0	1515	0	0			0	0			1				0	
6.6.1	win	2023-06-02	08:00:23	08:08:07	459511	6095fc75ab1d101e060d808b	3	1	practice_slash	5	advance_on_keypress_SLASH	2	stimuli_distractor_trianglediamonds.svg	stimuli_distractor_diamondtriangles.svg	16	no	57	0	1726	0	0			0	0			1				0	
6.6.1	win	2023-06-02	08:00:23	08:08:11	463735	6095fc75ab1d101e060d808b	3	1	practice_slash	5	practice_slash	3	stimuli_target_squarediamonds.svg	stimuli_distractor_diamondtriangles.svg	2	yes	53	1	825	0	0			0	0			1				0	
6.6.1	win	2023-06-02	08:00:23	08:08:11	463735	6095fc75ab1d101e060d808b	3	1	practice_slash	5	advance_on_keypress_SLASH	4	stimuli_target_squarediamonds.svg	stimuli_distractor_diamondtriangles.svg	2	yes	57	0	914	0	0			0	0			1				0	
6.6.1	win	2023-06-02	08:00:23	08:08:16	468308	6095fc75ab1d101e060d808b	3	1	practice_slash	5	practice_slash	5	stimuli_distractor_trianglediamonds.svg	stimuli_distractor_trianglediamonds.svg	15	no	0	1	2000	0	0			0	0			1				0	
6.6.1	win	2023-06-02	08:00:23	08:08:16	468308	6095fc75ab1d101e060d808b	3	1	practice_slash	5	advance_on_keypress_SLASH	6	stimuli_distractor_trianglediamonds.svg	stimuli_distractor_trianglediamonds.svg	15	no	57	0	601	0	0			0	0			1				0	
6.6.1	win	2023-06-02	08:00:23	08:08:19	471643	6095fc75ab1d101e060d808b	3	1	practice_slash	5	practice_slash	7	stimuli_distractor_diamondtriangles.svg	stimuli_target_diamondrectangles.svg	8	yes	53	1	1075	0	0			0	0			1				0	
6.6.1	win	2023-06-02	08:00:23	08:08:19	471643	6095fc75ab1d101e060d808b	3	1	practice_slash	5	advance_on_keypress_SLASH	8	stimuli_distractor_diamondtriangles.svg	stimuli_target_diamondrectangles.svg	8	yes	57	0	401	0	0			0	0			1				0	
6.6.1	win	2023-06-02	08:00:23	08:08:23	474827	6095fc75ab1d101e060d808b	3	1	practice_slash	5	practice_slash	9	stimuli_distractor_trianglediamonds.svg	stimuli_target_diamondrectangles.svg	12	yes	53	1	1123	0	0			0	0			1				0	
6.6.1	win	2023-06-02	08:00:23	08:08:23	474827	6095fc75ab1d101e060d808b	3	1	practice_slash	5	advance_on_keypress_SLASH	10	stimuli_distractor_trianglediamonds.svg	stimuli_target_diamondrectangles.svg	12	yes	57	0	542	0	0			0	0			1				0	
6.6.1	win	2023-06-02	08:00:23	08:08:27	479024	6095fc75ab1d101e060d808b	3	1	practice_slash	5	practice_slash	11	stimuli_distractor_diamondtriangles.svg	stimuli_distractor_trianglediamonds.svg	14	no	0	1	2000	0	0			0	0			1				0	
6.6.1	win	2023-06-02	08:00:23	08:08:27	479024	6095fc75ab1d101e060d808b	3	1	practice_slash	5	advance_on_keypress_SLASH	12	stimuli_distractor_diamondtriangles.svg	stimuli_distractor_trianglediamonds.svg	14	no	57	0	406	0	0			0	0			1				0	
6.6.1	win	2023-06-02	08:00:23	08:08:30	481958	6095fc75ab1d101e060d808b	3	1	practice_slash	5	practice_slash	13	stimuli_distractor_diamondtriangles.svg	stimuli_target_rectangletriangles.svg	7	yes	53	1	869	0	0			0	0			1				0	
6.6.1	win	2023-06-02	08:00:23	08:08:30	481958	6095fc75ab1d101e060d808b	3	1	practice_slash	5	advance_on_keypress_SLASH	14	stimuli_distractor_diamondtriangles.svg	stimuli_target_rectangletriangles.svg	7	yes	57	0	459	0	0			0	0			1				0	
6.6.1	win	2023-06-02	08:00:23	08:08:33	485035	6095fc75ab1d101e060d808b	3	1	practice_slash	5	practice_slash	15	stimuli_target_diamondsquares.svg	stimuli_distractor_diamondtriangles.svg	3	yes	53	1	959	0	0			0	0			1				0	
6.6.1	win	2023-06-02	08:00:23	08:08:33	485035	6095fc75ab1d101e060d808b	3	1	practice_slash	5	advance_on_keypress_SLASH	16	stimuli_target_diamondsquares.svg	stimuli_distractor_diamondtriangles.svg	3	yes	57	0	416	0	0			0	0			1				0	
6.6.1	win	2023-06-02	08:00:23	08:08:36	488022	6095fc75ab1d101e060d808b	3	1	practice_slash	5	practice_slash	17	stimuli_distractor_trianglediamonds.svg	stimuli_target_rectanglediamonds.svg	10	yes	53	1	917	0	0			0	0			1				0	
6.6.1	win	2023-06-02	08:00:23	08:08:36	488022	6095fc75ab1d101e060d808b	3	1	practice_slash	5	advance_on_keypress_SLASH	18	stimuli_distractor_trianglediamonds.svg	stimuli_target_rectanglediamonds.svg	10	yes	57	0	348	0	0			0	0			1				0	
6.6.1	win	2023-06-02	08:00:23	08:08:39	490871	6095fc75ab1d101e060d808b	3	1	practice_slash	5	practice_slash	19	stimuli_target_squarediamonds.svg	stimuli_distractor_trianglediamonds.svg	5	yes	53	1	842	0	0			0	0			1				0	
6.6.1	win	2023-06-02	08:00:23	08:08:39	490871	6095fc75ab1d101e060d808b	3	1	practice_slash	5	advance_on_keypress_SLASH	20	stimuli_target_squarediamonds.svg	stimuli_distractor_trianglediamonds.svg	5	yes	57	0	400	0	0			0	0			1				0	
6.6.1	win	2023-06-02	08:00:23	08:08:42	493754	6095fc75ab1d101e060d808b	3	1	practice_slash	5	practice_slash	21	stimuli_target_diamondsquares.svg	stimuli_distractor_trianglediamonds.svg	6	yes	53	1	824	0	0			0	0			1				0	
6.6.1	win	2023-06-02	08:00:23	08:08:42	493754	6095fc75ab1d101e060d808b	3	1	practice_slash	5	advance_on_keypress_SLASH	22	stimuli_target_diamondsquares.svg	stimuli_distractor_trianglediamonds.svg	6	yes	57	0	566	0	0			0	0			1				0	
6.6.1	win	2023-06-02	08:00:23	08:08:46	497979	6095fc75ab1d101e060d808b	3	1	practice_slash	5	practice_slash	23	stimuli_distractor_diamondtriangles.svg	stimuli_distractor_diamondtriangles.svg	13	no	0	1	2000	0	0			0	0			1				0	
6.6.1	win	2023-06-02	08:00:23	08:08:46	497979	6095fc75ab1d101e060d808b	3	1	practice_slash	5	advance_on_keypress_SLASH	24	stimuli_distractor_diamondtriangles.svg	stimuli_distractor_diamondtriangles.svg	13	no	57	0	385	0	0			0	0			1				0	
6.6.1	win	2023-06-02	08:00:23	08:08:49	500820	6095fc75ab1d101e060d808b	3	1	practice_slash	5	practice_slash	25	stimuli_target_rectanglediamonds.svg	stimuli_distractor_trianglediamonds.svg	4	yes	53	1	796	0	0			0	0			1				0	
6.6.1	win	2023-06-02	08:00:23	08:08:49	500820	6095fc75ab1d101e060d808b	3	1	practice_slash	5	advance_on_keypress_SLASH	26	stimuli_target_rectanglediamonds.svg	stimuli_distractor_trianglediamonds.svg	4	yes	57	0	445	0	0			0	0			1				0	
6.6.1	win	2023-06-02	08:00:23	08:08:51	503710	6095fc75ab1d101e060d808b	3	1	practice_slash	5	practice_slash	27	stimuli_distractor_trianglediamonds.svg	stimuli_target_squarediamonds.svg	11	yes	53	1	790	0	0			0	0			1				0	
6.6.1	win	2023-06-02	08:00:23	08:08:51	503710	6095fc75ab1d101e060d808b	3	1	practice_slash	5	advance_on_keypress_SLASH	28	stimuli_distractor_trianglediamonds.svg	stimuli_target_squarediamonds.svg	11	yes	57	0	438	0	0			0	0			1				0	
6.6.1	win	2023-06-02	08:00:23	08:08:54	506697	6095fc75ab1d101e060d808b	3	1	practice_slash	5	practice_slash	29	stimuli_target_rectanglediamonds.svg	stimuli_distractor_diamondtriangles.svg	1	yes	53	1	890	0	0			0	0			1				0	
6.6.1	win	2023-06-02	08:00:23	08:08:54	506697	6095fc75ab1d101e060d808b	3	1	practice_slash	5	advance_on_keypress_SLASH	30	stimuli_target_rectanglediamonds.svg	stimuli_distractor_diamondtriangles.svg	1	yes	57	0	395	0	0			0	0			1				0	
6.6.1	win	2023-06-02	08:00:23	08:08:57	509544	6095fc75ab1d101e060d808b	3	1	practice_slash	5	practice_slash	31	stimuli_distractor_diamondtriangles.svg	stimuli_target_trianglerectangles.svg	9	yes	53	1	792	0	0			0	0			1				0	
6.6.1	win	2023-06-02	08:00:23	08:08:57	509544	6095fc75ab1d101e060d808b	3	1	practice_slash	5	advance_on_keypress_SLASH	32	stimuli_distractor_diamondtriangles.svg	stimuli_target_trianglerectangles.svg	9	yes	57	0	548	0	0			0	0			1				0	
6.6.1	win	2023-06-02	08:00:23	08:27:15	1607556	6095fc75ab1d101e060d808b	3	1	main_slash	7	main_slash	1	stimuli_distractor_trianglediamonds.svg	stimuli_distractor_trianglediamonds.svg	33	no	53	0	785	0	0			0	0			1				0	
6.6.1	win	2023-06-02	08:00:23	08:27:15	1607556	6095fc75ab1d101e060d808b	3	1	main_slash	7	advance_on_keypress_SLASH	2	stimuli_distractor_trianglediamonds.svg	stimuli_distractor_trianglediamonds.svg	33	no	57	0	762	0	0			0	0			1				0	
6.6.1	win	2023-06-02	08:00:23	08:27:17	1609560	6095fc75ab1d101e060d808b	3	1	main_slash	7	main_slash	3	stimuli_target_diamondsquares.svg	stimuli_distractor_diamondtriangles.svg	24	yes	53	1	589	0	0			0	0			1				0	
6.6.1	win	2023-06-02	08:00:23	08:27:17	1609560	6095fc75ab1d101e060d808b	3	1	main_slash	7	advance_on_keypress_SLASH	4	stimuli_target_diamondsquares.svg	stimuli_distractor_diamondtriangles.svg	24	yes	57	0	551	0	0			0	0			1				0	
6.6.1	win	2023-06-02	08:00:23	08:27:20	1611755	6095fc75ab1d101e060d808b	3	1	main_slash	7	main_slash	5	stimuli_target_rectanglediamonds.svg	stimuli_distractor_trianglediamonds.svg	2	yes	53	1	999	0	0			0	0			1				0	
6.6.1	win	2023-06-02	08:00:23	08:27:20	1611755	6095fc75ab1d101e060d808b	3	1	main_slash	7	advance_on_keypress_SLASH	6	stimuli_target_rectanglediamonds.svg	stimuli_distractor_trianglediamonds.svg	2	yes	57	0	467	0	0			0	0			1				0	
6.6.1	win	2023-06-02	08:00:23	08:27:23	1614871	6095fc75ab1d101e060d808b	3	1	main_slash	7	main_slash	7	stimuli_distractor_diamondtriangles.svg	stimuli_distractor_diamondtriangles.svg	39	no	0	1	2000	0	0			0	0			1				0	
6.6.1	win	2023-06-02	08:00:23	08:27:23	1614871	6095fc75ab1d101e060d808b	3	1	main_slash	7	advance_on_keypress_SLASH	8	stimuli_distractor_diamondtriangles.svg	stimuli_distractor_diamondtriangles.svg	39	no	57	0	499	0	0			0	0			1				0	
6.6.1	win	2023-06-02	08:00:23	08:27:25	1617121	6095fc75ab1d101e060d808b	3	1	main_slash	7	main_slash	9	stimuli_distractor_diamondtriangles.svg	stimuli_target_diamondsquares.svg	32	yes	53	1	1099	0	0			0	0			1				0	
6.6.1	win	2023-06-02	08:00:23	08:27:25	1617121	6095fc75ab1d101e060d808b	3	1	main_slash	7	advance_on_keypress_SLASH	10	stimuli_distractor_diamondtriangles.svg	stimuli_target_diamondsquares.svg	32	yes	57	0	105656	0	0			0	0			1				0	
6.6.1	win	2023-06-02	08:00:23	08:29:12	1724233	6095fc75ab1d101e060d808b	3	1	main_slash	7	main_slash	11	stimuli_distractor_trianglediamonds.svg	stimuli_target_squaretriangles.svg	11	yes	53	1	796	0	0			0	0			1				0	
6.6.1	win	2023-06-02	08:00:23	08:29:12	1724233	6095fc75ab1d101e060d808b	3	1	main_slash	7	advance_on_keypress_SLASH	12	stimuli_distractor_trianglediamonds.svg	stimuli_target_squaretriangles.svg	11	yes	57	0	479	0	0			0	0			1				0	
6.6.1	win	2023-06-02	08:00:23	08:29:15	1727371	6095fc75ab1d101e060d808b	3	1	main_slash	7	main_slash	13	stimuli_distractor_diamondtriangles.svg	stimuli_distractor_diamondtriangles.svg	40	no	0	1	2000	0	0			0	0			1				0	
6.6.1	win	2023-06-02	08:00:23	08:29:15	1727371	6095fc75ab1d101e060d808b	3	1	main_slash	7	advance_on_keypress_SLASH	14	stimuli_distractor_diamondtriangles.svg	stimuli_distractor_diamondtriangles.svg	40	no	57	0	504	0	0			0	0			1				0	
6.6.1	win	2023-06-02	08:00:23	08:29:17	1729210	6095fc75ab1d101e060d808b	3	1	main_slash	7	main_slash	15	stimuli_distractor_diamondtriangles.svg	stimuli_target_squarediamonds.svg	16	yes	53	1	689	0	0			0	0			1				0	
6.6.1	win	2023-06-02	08:00:23	08:29:17	1729210	6095fc75ab1d101e060d808b	3	1	main_slash	7	advance_on_keypress_SLASH	16	stimuli_distractor_diamondtriangles.svg	stimuli_target_squarediamonds.svg	16	yes	57	0	333	0	0			0	0			1				0	
6.6.1	win	2023-06-02	08:00:23	08:29:19	1730857	6095fc75ab1d101e060d808b	3	1	main_slash	7	main_slash	17	stimuli_distractor_trianglediamonds.svg	stimuli_target_rectanglediamonds.svg	10	yes	53	1	668	0	0			0	0			1				0	
6.6.1	win	2023-06-02	08:00:23	08:29:19	1730857	6095fc75ab1d101e060d808b	3	1	main_slash	7	advance_on_keypress_SLASH	18	stimuli_distractor_trianglediamonds.svg	stimuli_target_rectanglediamonds.svg	10	yes	57	0	313	0	0			0	0			1				0	
6.6.1	win	2023-06-02	08:00:23	08:29:20	1732386	6095fc75ab1d101e060d808b	3	1	main_slash	7	main_slash	19	stimuli_target_rectangletriangles.svg	stimuli_distractor_diamondtriangles.svg	5	yes	53	1	565	0	0			0	0			1				0	
6.6.1	win	2023-06-02	08:00:23	08:29:20	1732386	6095fc75ab1d101e060d808b	3	1	main_slash	7	advance_on_keypress_SLASH	20	stimuli_target_rectangletriangles.svg	stimuli_distractor_diamondtriangles.svg	5	yes	57	0	305	0	0			0	0			1				0	
6.6.1	win	2023-06-02	08:00:23	08:29:23	1735337	6095fc75ab1d101e060d808b	3	1	main_slash	7	main_slash	21	stimuli_distractor_trianglediamonds.svg	stimuli_distractor_diamondtriangles.svg	35	no	0	1	2000	0	0			0	0			1				0	
6.6.1	win	2023-06-02	08:00:23	08:29:23	1735337	6095fc75ab1d101e060d808b	3	1	main_slash	7	advance_on_keypress_SLASH	22	stimuli_distractor_trianglediamonds.svg	stimuli_distractor_diamondtriangles.svg	35	no	57	0	397	0	0			0	0			1				0	
6.6.1	win	2023-06-02	08:00:23	08:29:25	1737322	6095fc75ab1d101e060d808b	3	1	main_slash	7	main_slash	23	stimuli_distractor_trianglediamonds.svg	stimuli_target_diamondrectangles.svg	27	yes	53	1	935	0	0			0	0			1				0	
6.6.1	win	2023-06-02	08:00:23	08:29:25	1737322	6095fc75ab1d101e060d808b	3	1	main_slash	7	advance_on_keypress_SLASH	24	stimuli_distractor_trianglediamonds.svg	stimuli_target_diamondrectangles.svg	27	yes	57	0	704	0	0			0	0			1				0	
6.6.1	win	2023-06-02	08:00:23	08:29:27	1739685	6095fc75ab1d101e060d808b	3	1	main_slash	7	main_slash	25	stimuli_target_squarediamonds.svg	stimuli_distractor_trianglediamonds.svg	4	yes	53	1	1014	0	0			0	0			1				0	
6.6.1	win	2023-06-02	08:00:23	08:29:27	1739685	6095fc75ab1d101e060d808b	3	1	main_slash	7	advance_on_keypress_SLASH	26	stimuli_target_squarediamonds.svg	stimuli_distractor_trianglediamonds.svg	4	yes	57	0	602	0	0			0	0			1				0	
6.6.1	win	2023-06-02	08:00:23	08:29:31	1742937	6095fc75ab1d101e060d808b	3	1	main_slash	7	main_slash	27	stimuli_distractor_trianglediamonds.svg	stimuli_distractor_trianglediamonds.svg	34	no	0	1	2000	0	0			0	0			1				0	
6.6.1	win	2023-06-02	08:00:23	08:29:31	1742937	6095fc75ab1d101e060d808b	3	1	main_slash	7	advance_on_keypress_SLASH	28	stimuli_distractor_trianglediamonds.svg	stimuli_distractor_trianglediamonds.svg	34	no	57	0	378	0	0			0	0			1				0	
6.6.1	win	2023-06-02	08:00:23	08:29:33	1745210	6095fc75ab1d101e060d808b	3	1	main_slash	7	main_slash	29	stimuli_distractor_trianglediamonds.svg	stimuli_target_trianglerectangles.svg	25	yes	53	1	1240	0	0			0	0			1				0	
6.6.1	win	2023-06-02	08:00:23	08:29:33	1745210	6095fc75ab1d101e060d808b	3	1	main_slash	7	advance_on_keypress_SLASH	30	stimuli_distractor_trianglediamonds.svg	stimuli_target_trianglerectangles.svg	25	yes	57	0	474	0	0			0	0			1				0	
6.6.1	win	2023-06-02	08:00:23	08:29:35	1747457	6095fc75ab1d101e060d808b	3	1	main_slash	7	main_slash	31	stimuli_distractor_diamondtriangles.svg	stimuli_target_rectangletriangles.svg	13	yes	53	1	1137	0	0			0	0			1				0	
6.6.1	win	2023-06-02	08:00:23	08:29:35	1747457	6095fc75ab1d101e060d808b	3	1	main_slash	7	advance_on_keypress_SLASH	32	stimuli_distractor_diamondtriangles.svg	stimuli_target_rectangletriangles.svg	13	yes	57	0	487	0	0			0	0			1				0	
6.6.1	win	2023-06-02	08:00:23	08:29:37	1749622	6095fc75ab1d101e060d808b	3	1	main_slash	7	main_slash	33	stimuli_target_trianglesquares.svg	stimuli_distractor_trianglediamonds.svg	18	yes	53	1	1035	0	0			0	0			1				0	
6.6.1	win	2023-06-02	08:00:23	08:29:37	1749622	6095fc75ab1d101e060d808b	3	1	main_slash	7	advance_on_keypress_SLASH	34	stimuli_target_trianglesquares.svg	stimuli_distractor_trianglediamonds.svg	18	yes	57	0	283	0	0			0	0			1				0	
6.6.1	win	2023-06-02	08:00:23	08:29:39	1751553	6095fc75ab1d101e060d808b	3	1	main_slash	7	main_slash	35	stimuli_target_squaretriangles.svg	stimuli_distractor_trianglediamonds.svg	3	yes	53	1	999	0	0			0	0			1				0	
6.6.1	win	2023-06-02	08:00:23	08:29:39	1751553	6095fc75ab1d101e060d808b	3	1	main_slash	7	advance_on_keypress_SLASH	36	stimuli_target_squaretriangles.svg	stimuli_distractor_trianglediamonds.svg	3	yes	57	0	405	0	0			0	0			1				0	
6.6.1	win	2023-06-02	08:00:23	08:29:41	1753281	6095fc75ab1d101e060d808b	3	1	main_slash	7	main_slash	37	stimuli_target_rectangletriangles.svg	stimuli_distractor_trianglediamonds.svg	1	yes	53	1	677	0	0			0	0			1				0	
6.6.1	win	2023-06-02	08:00:23	08:29:41	1753281	6095fc75ab1d101e060d808b	3	1	main_slash	7	advance_on_keypress_SLASH	38	stimuli_target_rectangletriangles.svg	stimuli_distractor_trianglediamonds.svg	1	yes	57	0	321	0	0			0	0			1				0	
6.6.1	win	2023-06-02	08:00:23	08:29:43	1755097	6095fc75ab1d101e060d808b	3	1	main_slash	7	main_slash	39	stimuli_target_trianglerectangles.svg	stimuli_distractor_diamondtriangles.svg	21	yes	53	1	860	0	0			0	0			1				0	
6.6.1	win	2023-06-02	08:00:23	08:29:43	1755097	6095fc75ab1d101e060d808b	3	1	main_slash	7	advance_on_keypress_SLASH	40	stimuli_target_trianglerectangles.svg	stimuli_distractor_diamondtriangles.svg	21	yes	57	0	206	0	0			0	0			1				0	
6.6.1	win	2023-06-02	08:00:23	08:29:45	1756824	6095fc75ab1d101e060d808b	3	1	main_slash	7	main_slash	41	stimuli_distractor_diamondtriangles.svg	stimuli_target_trianglerectangles.svg	29	yes	53	1	887	0	0			0	0			1				0	
6.6.1	win	2023-06-02	08:00:23	08:29:45	1756824	6095fc75ab1d101e060d808b	3	1	main_slash	7	advance_on_keypress_SLASH	42	stimuli_distractor_diamondtriangles.svg	stimuli_target_trianglerectangles.svg	29	yes	57	0	236	0	0			0	0			1				0	
6.6.1	win	2023-06-02	08:00:23	08:29:46	1758435	6095fc75ab1d101e060d808b	3	1	main_slash	7	main_slash	43	stimuli_target_diamondrectangles.svg	stimuli_distractor_trianglediamonds.svg	19	yes	53	1	731	0	0			0	0			1				0	
6.6.1	win	2023-06-02	08:00:23	08:29:46	1758435	6095fc75ab1d101e060d808b	3	1	main_slash	7	advance_on_keypress_SLASH	44	stimuli_target_diamondrectangles.svg	stimuli_distractor_trianglediamonds.svg	19	yes	57	0	246	0	0			0	0			1				0	
6.6.1	win	2023-06-02	08:00:23	08:29:49	1761337	6095fc75ab1d101e060d808b	3	1	main_slash	7	main_slash	45	stimuli_distractor_diamondtriangles.svg	stimuli_distractor_trianglediamonds.svg	38	no	0	1	2000	0	0			0	0			1				0	
6.6.1	win	2023-06-02	08:00:23	08:29:49	1761337	6095fc75ab1d101e060d808b	3	1	main_slash	7	advance_on_keypress_SLASH	46	stimuli_distractor_diamondtriangles.svg	stimuli_distractor_trianglediamonds.svg	38	no	57	0	375	0	0			0	0			1				0	
6.6.1	win	2023-06-02	08:00:23	08:29:52	1764354	6095fc75ab1d101e060d808b	3	1	main_slash	7	main_slash	47	stimuli_distractor_diamondtriangles.svg	stimuli_distractor_trianglediamonds.svg	37	no	0	1	2000	0	0			0	0			1				0	
6.6.1	win	2023-06-02	08:00:23	08:29:52	1764354	6095fc75ab1d101e060d808b	3	1	main_slash	7	advance_on_keypress_SLASH	48	stimuli_distractor_diamondtriangles.svg	stimuli_distractor_trianglediamonds.svg	37	no	57	0	411	0	0			0	0			1				0	
6.6.1	win	2023-06-02	08:00:23	08:29:55	1766801	6095fc75ab1d101e060d808b	3	1	main_slash	7	main_slash	49	stimuli_distractor_diamondtriangles.svg	stimuli_target_squaretriangles.svg	15	yes	53	1	1381	0	0			0	0			1				0	
6.6.1	win	2023-06-02	08:00:23	08:29:55	1766801	6095fc75ab1d101e060d808b	3	1	main_slash	7	advance_on_keypress_SLASH	50	stimuli_distractor_diamondtriangles.svg	stimuli_target_squaretriangles.svg	15	yes	57	0	485	0	0			0	0			1				0	
6.6.1	win	2023-06-02	08:00:23	08:29:57	1768768	6095fc75ab1d101e060d808b	3	1	main_slash	7	main_slash	51	stimuli_target_trianglerectangles.svg	stimuli_distractor_trianglediamonds.svg	17	yes	53	1	831	0	0			0	0			1				0	
6.6.1	win	2023-06-02	08:00:23	08:29:57	1768768	6095fc75ab1d101e060d808b	3	1	main_slash	7	advance_on_keypress_SLASH	52	stimuli_target_trianglerectangles.svg	stimuli_distractor_trianglediamonds.svg	17	yes	57	0	247	0	0			0	0			1				0	
6.6.1	win	2023-06-02	08:00:23	08:29:59	1771670	6095fc75ab1d101e060d808b	3	1	main_slash	7	main_slash	53	stimuli_distractor_trianglediamonds.svg	stimuli_distractor_diamondtriangles.svg	36	no	0	1	2000	0	0			0	0			1				0	
6.6.1	win	2023-06-02	08:00:23	08:29:59	1771670	6095fc75ab1d101e060d808b	3	1	main_slash	7	advance_on_keypress_SLASH	54	stimuli_distractor_trianglediamonds.svg	stimuli_distractor_diamondtriangles.svg	36	no	57	0	303	0	0			0	0			1				0	
6.6.1	win	2023-06-02	08:00:23	08:30:01	1773176	6095fc75ab1d101e060d808b	3	1	main_slash	7	main_slash	55	stimuli_target_trianglesquares.svg	stimuli_distractor_diamondtriangles.svg	22	yes	53	1	555	0	0			0	0			1				0	
6.6.1	win	2023-06-02	08:00:23	08:30:01	1773176	6095fc75ab1d101e060d808b	3	1	main_slash	7	advance_on_keypress_SLASH	56	stimuli_target_trianglesquares.svg	stimuli_distractor_diamondtriangles.svg	22	yes	57	0	314	0	0			0	0			1				0	
6.6.1	win	2023-06-02	08:00:23	08:30:03	1774844	6095fc75ab1d101e060d808b	3	1	main_slash	7	main_slash	57	stimuli_distractor_trianglediamonds.svg	stimuli_target_diamondsquares.svg	28	yes	53	1	707	0	0			0	0			1				0	
6.6.1	win	2023-06-02	08:00:23	08:30:03	1774844	6095fc75ab1d101e060d808b	3	1	main_slash	7	advance_on_keypress_SLASH	58	stimuli_distractor_trianglediamonds.svg	stimuli_target_diamondsquares.svg	28	yes	57	0	242	0	0			0	0			1				0	
6.6.1	win	2023-06-02	08:00:23	08:30:04	1776347	6095fc75ab1d101e060d808b	3	1	main_slash	7	main_slash	59	stimuli_target_diamondrectangles.svg	stimuli_distractor_diamondtriangles.svg	23	yes	53	1	626	0	0			0	0			1				0	
6.6.1	win	2023-06-02	08:00:23	08:30:04	1776347	6095fc75ab1d101e060d808b	3	1	main_slash	7	advance_on_keypress_SLASH	60	stimuli_target_diamondrectangles.svg	stimuli_distractor_diamondtriangles.svg	23	yes	57	0	227	0	0			0	0			1				0	
6.6.1	win	2023-06-02	08:00:23	08:30:06	1777942	6095fc75ab1d101e060d808b	3	1	main_slash	7	main_slash	61	stimuli_target_rectanglediamonds.svg	stimuli_distractor_diamondtriangles.svg	6	yes	53	1	722	0	0			0	0			1				0	
6.6.1	win	2023-06-02	08:00:23	08:30:06	1777942	6095fc75ab1d101e060d808b	3	1	main_slash	7	advance_on_keypress_SLASH	62	stimuli_target_rectanglediamonds.svg	stimuli_distractor_diamondtriangles.svg	6	yes	57	0	208	0	0			0	0			1				0	
6.6.1	win	2023-06-02	08:00:23	08:30:07	1779398	6095fc75ab1d101e060d808b	3	1	main_slash	7	main_slash	63	stimuli_target_squarediamonds.svg	stimuli_distractor_diamondtriangles.svg	8	yes	53	1	611	0	0			0	0			1				0	
6.6.1	win	2023-06-02	08:00:23	08:30:07	1779398	6095fc75ab1d101e060d808b	3	1	main_slash	7	advance_on_keypress_SLASH	64	stimuli_target_squarediamonds.svg	stimuli_distractor_diamondtriangles.svg	8	yes	57	0	212	0	0			0	0			1				0	
6.6.1	win	2023-06-02	08:00:23	08:30:09	1780987	6095fc75ab1d101e060d808b	3	1	main_slash	7	main_slash	65	stimuli_distractor_trianglediamonds.svg	stimuli_target_rectangletriangles.svg	9	yes	53	1	717	0	0			0	0			1				0	
6.6.1	win	2023-06-02	08:00:23	08:30:09	1780987	6095fc75ab1d101e060d808b	3	1	main_slash	7	advance_on_keypress_SLASH	66	stimuli_distractor_trianglediamonds.svg	stimuli_target_rectangletriangles.svg	9	yes	57	0	206	0	0			0	0			1				0	
6.6.1	win	2023-06-02	08:00:23	08:30:10	1782580	6095fc75ab1d101e060d808b	3	1	main_slash	7	main_slash	67	stimuli_target_diamondsquares.svg	stimuli_distractor_trianglediamonds.svg	20	yes	53	1	743	0	0			0	0			1				0	
6.6.1	win	2023-06-02	08:00:23	08:30:10	1782580	6095fc75ab1d101e060d808b	3	1	main_slash	7	advance_on_keypress_SLASH	68	stimuli_target_diamondsquares.svg	stimuli_distractor_trianglediamonds.svg	20	yes	57	0	164	0	0			0	0			1				0	
6.6.1	win	2023-06-02	08:00:23	08:30:12	1784168	6095fc75ab1d101e060d808b	3	1	main_slash	7	main_slash	69	stimuli_distractor_trianglediamonds.svg	stimuli_target_squarediamonds.svg	12	yes	53	1	780	0	0			0	0			1				0	
6.6.1	win	2023-06-02	08:00:23	08:30:12	1784168	6095fc75ab1d101e060d808b	3	1	main_slash	7	advance_on_keypress_SLASH	70	stimuli_distractor_trianglediamonds.svg	stimuli_target_squarediamonds.svg	12	yes	57	0	151	0	0			0	0			1				0	
6.6.1	win	2023-06-02	08:00:23	08:30:13	1785654	6095fc75ab1d101e060d808b	3	1	main_slash	7	main_slash	71	stimuli_distractor_diamondtriangles.svg	stimuli_target_rectanglediamonds.svg	14	yes	53	1	684	0	0			0	0			1				0	
6.6.1	win	2023-06-02	08:00:23	08:30:13	1785654	6095fc75ab1d101e060d808b	3	1	main_slash	7	advance_on_keypress_SLASH	72	stimuli_distractor_diamondtriangles.svg	stimuli_target_rectanglediamonds.svg	14	yes	57	0	202	0	0			0	0			1				0	
6.6.1	win	2023-06-02	08:00:23	08:30:15	1787183	6095fc75ab1d101e060d808b	3	1	main_slash	7	main_slash	73	stimuli_distractor_diamondtriangles.svg	stimuli_target_trianglesquares.svg	30	yes	53	1	679	0	0			0	0			1				0	
6.6.1	win	2023-06-02	08:00:23	08:30:15	1787183	6095fc75ab1d101e060d808b	3	1	main_slash	7	advance_on_keypress_SLASH	74	stimuli_distractor_diamondtriangles.svg	stimuli_target_trianglesquares.svg	30	yes	57	0	237	0	0			0	0			1				0	
6.6.1	win	2023-06-02	08:00:23	08:30:17	1788899	6095fc75ab1d101e060d808b	3	1	main_slash	7	main_slash	75	stimuli_target_squaretriangles.svg	stimuli_distractor_diamondtriangles.svg	7	yes	53	1	829	0	0			0	0			1				0	
6.6.1	win	2023-06-02	08:00:23	08:30:17	1788899	6095fc75ab1d101e060d808b	3	1	main_slash	7	advance_on_keypress_SLASH	76	stimuli_target_squaretriangles.svg	stimuli_distractor_diamondtriangles.svg	7	yes	57	0	276	0	0			0	0			1				0	
6.6.1	win	2023-06-02	08:00:23	08:30:19	1790804	6095fc75ab1d101e060d808b	3	1	main_slash	7	main_slash	77	stimuli_distractor_diamondtriangles.svg	stimuli_target_diamondrectangles.svg	31	yes	53	1	967	0	0			0	0			1				0	
6.6.1	win	2023-06-02	08:00:23	08:30:19	1790804	6095fc75ab1d101e060d808b	3	1	main_slash	7	advance_on_keypress_SLASH	78	stimuli_distractor_diamondtriangles.svg	stimuli_target_diamondrectangles.svg	31	yes	57	0	272	0	0			0	0			1				0	
6.6.1	win	2023-06-02	08:00:23	08:30:20	1792296	6095fc75ab1d101e060d808b	3	1	main_slash	7	main_slash	79	stimuli_distractor_trianglediamonds.svg	stimuli_target_trianglesquares.svg	26	yes	53	1	576	0	0			0	0			1				0	
6.6.1	win	2023-06-02	08:00:23	08:30:20	1792296	6095fc75ab1d101e060d808b	3	1	main_slash	7	advance_on_keypress_SLASH	80	stimuli_distractor_trianglediamonds.svg	stimuli_target_trianglesquares.svg	26	yes	57	0	211	0	0			0	0			1				0	
6.6.1	win	2023-06-02	08:00:23	08:30:23	1795154	6095fc75ab1d101e060d808b	3	1	main_slash	7	main_slash	81	stimuli_distractor_diamondtriangles.svg	stimuli_distractor_diamondtriangles.svg	40	no	0	1	2000	0	0			0	0			1				0	
6.6.1	win	2023-06-02	08:00:23	08:30:23	1795154	6095fc75ab1d101e060d808b	3	1	main_slash	7	advance_on_keypress_SLASH	82	stimuli_distractor_diamondtriangles.svg	stimuli_distractor_diamondtriangles.svg	40	no	57	0	505	0	0			0	0			1				0	
6.6.1	win	2023-06-02	08:00:23	08:30:25	1796895	6095fc75ab1d101e060d808b	3	1	main_slash	7	main_slash	83	stimuli_target_squaretriangles.svg	stimuli_distractor_trianglediamonds.svg	3	yes	53	1	591	0	0			0	0			1				0	
6.6.1	win	2023-06-02	08:00:23	08:30:25	1796895	6095fc75ab1d101e060d808b	3	1	main_slash	7	advance_on_keypress_SLASH	84	stimuli_target_squaretriangles.svg	stimuli_distractor_trianglediamonds.svg	3	yes	57	0	162	0	0			0	0			1				0	
6.6.1	win	2023-06-02	08:00:23	08:30:26	1798405	6095fc75ab1d101e060d808b	3	1	main_slash	7	main_slash	85	stimuli_target_squarediamonds.svg	stimuli_distractor_diamondtriangles.svg	8	yes	53	1	701	0	0			0	0			1				0	
6.6.1	win	2023-06-02	08:00:23	08:30:26	1798405	6095fc75ab1d101e060d808b	3	1	main_slash	7	advance_on_keypress_SLASH	86	stimuli_target_squarediamonds.svg	stimuli_distractor_diamondtriangles.svg	8	yes	57	0	155	0	0			0	0			1				0	
6.6.1	win	2023-06-02	08:00:23	08:30:29	1801204	6095fc75ab1d101e060d808b	3	1	main_slash	7	main_slash	87	stimuli_distractor_diamondtriangles.svg	stimuli_distractor_diamondtriangles.svg	39	no	0	1	2000	0	0			0	0			1				0	
6.6.1	win	2023-06-02	08:00:23	08:30:29	1801204	6095fc75ab1d101e060d808b	3	1	main_slash	7	advance_on_keypress_SLASH	88	stimuli_distractor_diamondtriangles.svg	stimuli_distractor_diamondtriangles.svg	39	no	57	0	570	0	0			0	0			1				0	
6.6.1	win	2023-06-02	08:00:23	08:30:31	1803271	6095fc75ab1d101e060d808b	3	1	main_slash	7	main_slash	89	stimuli_target_diamondrectangles.svg	stimuli_distractor_trianglediamonds.svg	19	yes	53	1	851	0	0			0	0			1				0	
6.6.1	win	2023-06-02	08:00:23	08:30:31	1803271	6095fc75ab1d101e060d808b	3	1	main_slash	7	advance_on_keypress_SLASH	90	stimuli_target_diamondrectangles.svg	stimuli_distractor_trianglediamonds.svg	19	yes	57	0	154	0	0			0	0			1				0	
6.6.1	win	2023-06-02	08:00:23	08:30:33	1804864	6095fc75ab1d101e060d808b	3	1	main_slash	7	main_slash	91	stimuli_target_trianglesquares.svg	stimuli_distractor_trianglediamonds.svg	18	yes	53	1	794	0	0			0	0			1				0	
6.6.1	win	2023-06-02	08:00:23	08:30:33	1804864	6095fc75ab1d101e060d808b	3	1	main_slash	7	advance_on_keypress_SLASH	92	stimuli_target_trianglesquares.svg	stimuli_distractor_trianglediamonds.svg	18	yes	57	0	148	0	0			0	0			1				0	
6.6.1	win	2023-06-02	08:00:23	08:30:35	1806975	6095fc75ab1d101e060d808b	3	1	main_slash	7	main_slash	93	stimuli_distractor_trianglediamonds.svg	stimuli_target_squarediamonds.svg	12	yes	53	1	1305	0	0			0	0			1				0	
6.6.1	win	2023-06-02	08:00:23	08:30:35	1806975	6095fc75ab1d101e060d808b	3	1	main_slash	7	advance_on_keypress_SLASH	94	stimuli_distractor_trianglediamonds.svg	stimuli_target_squarediamonds.svg	12	yes	57	0	485	0	0			0	0			1				0	
6.6.1	win	2023-06-02	08:00:23	08:30:38	1810104	6095fc75ab1d101e060d808b	3	1	main_slash	7	main_slash	95	stimuli_distractor_trianglediamonds.svg	stimuli_distractor_diamondtriangles.svg	35	no	0	1	2000	0	0			0	0			1				0	
6.6.1	win	2023-06-02	08:00:23	08:30:38	1810104	6095fc75ab1d101e060d808b	3	1	main_slash	7	advance_on_keypress_SLASH	96	stimuli_distractor_trianglediamonds.svg	stimuli_distractor_diamondtriangles.svg	35	no	57	0	352	0	0			0	0			1				0	
6.6.1	win	2023-06-02	08:00:23	08:30:41	1813104	6095fc75ab1d101e060d808b	3	1	main_slash	7	main_slash	97	stimuli_distractor_diamondtriangles.svg	stimuli_distractor_trianglediamonds.svg	37	no	0	1	2000	0	0			0	0			1				0	
6.6.1	win	2023-06-02	08:00:23	08:30:41	1813104	6095fc75ab1d101e060d808b	3	1	main_slash	7	advance_on_keypress_SLASH	98	stimuli_distractor_diamondtriangles.svg	stimuli_distractor_trianglediamonds.svg	37	no	57	0	287	0	0			0	0			1				0	
6.6.1	win	2023-06-02	08:00:23	08:30:43	1815216	6095fc75ab1d101e060d808b	3	1	main_slash	7	main_slash	99	stimuli_distractor_diamondtriangles.svg	stimuli_target_rectangletriangles.svg	13	yes	53	1	1179	0	0			0	0			1				0	
6.6.1	win	2023-06-02	08:00:23	08:30:43	1815216	6095fc75ab1d101e060d808b	3	1	main_slash	7	advance_on_keypress_SLASH	100	stimuli_distractor_diamondtriangles.svg	stimuli_target_rectangletriangles.svg	13	yes	57	0	496	0	0			0	0			1				0	
6.6.1	win	2023-06-02	08:00:23	08:30:45	1816985	6095fc75ab1d101e060d808b	3	1	main_slash	7	main_slash	101	stimuli_target_rectanglediamonds.svg	stimuli_distractor_diamondtriangles.svg	6	yes	53	1	615	0	0			0	0			1				0	
6.6.1	win	2023-06-02	08:00:23	08:30:45	1816985	6095fc75ab1d101e060d808b	3	1	main_slash	7	advance_on_keypress_SLASH	102	stimuli_target_rectanglediamonds.svg	stimuli_distractor_diamondtriangles.svg	6	yes	57	0	169	0	0			0	0			1				0	
6.6.1	win	2023-06-02	08:00:23	08:30:46	1818393	6095fc75ab1d101e060d808b	3	1	main_slash	7	main_slash	103	stimuli_target_rectangletriangles.svg	stimuli_distractor_trianglediamonds.svg	1	yes	53	1	589	0	0			0	0			1				0	
6.6.1	win	2023-06-02	08:00:23	08:30:46	1818393	6095fc75ab1d101e060d808b	3	1	main_slash	7	advance_on_keypress_SLASH	104	stimuli_target_rectangletriangles.svg	stimuli_distractor_trianglediamonds.svg	1	yes	57	0	173	0	0			0	0			1				0	
6.6.1	win	2023-06-02	08:00:23	08:30:48	1819937	6095fc75ab1d101e060d808b	3	1	main_slash	7	main_slash	105	stimuli_distractor_diamondtriangles.svg	stimuli_target_rectanglediamonds.svg	14	yes	53	1	733	0	0			0	0			1				0	
6.6.1	win	2023-06-02	08:00:23	08:30:48	1819937	6095fc75ab1d101e060d808b	3	1	main_slash	7	advance_on_keypress_SLASH	106	stimuli_distractor_diamondtriangles.svg	stimuli_target_rectanglediamonds.svg	14	yes	57	0	157	0	0			0	0			1				0	
6.6.1	win	2023-06-02	08:00:23	08:30:49	1821367	6095fc75ab1d101e060d808b	3	1	main_slash	7	main_slash	107	stimuli_target_squarediamonds.svg	stimuli_distractor_trianglediamonds.svg	4	yes	53	1	630	0	0			0	0			1				0	
6.6.1	win	2023-06-02	08:00:23	08:30:49	1821367	6095fc75ab1d101e060d808b	3	1	main_slash	7	advance_on_keypress_SLASH	108	stimuli_target_squarediamonds.svg	stimuli_distractor_trianglediamonds.svg	4	yes	57	0	168	0	0			0	0			1				0	
6.6.1	win	2023-06-02	08:00:23	08:30:51	1823029	6095fc75ab1d101e060d808b	3	1	main_slash	7	main_slash	109	stimuli_distractor_diamondtriangles.svg	stimuli_target_squaretriangles.svg	15	yes	53	1	842	0	0			0	0			1				0	
6.6.1	win	2023-06-02	08:00:23	08:30:51	1823029	6095fc75ab1d101e060d808b	3	1	main_slash	7	advance_on_keypress_SLASH	110	stimuli_distractor_diamondtriangles.svg	stimuli_target_squaretriangles.svg	15	yes	57	0	164	0	0			0	0			1				0	
6.6.1	win	2023-06-02	08:00:23	08:30:52	1824465	6095fc75ab1d101e060d808b	3	1	main_slash	7	main_slash	111	stimuli_distractor_trianglediamonds.svg	stimuli_target_rectanglediamonds.svg	10	yes	53	1	628	0	0			0	0			1				0	
6.6.1	win	2023-06-02	08:00:23	08:30:52	1824465	6095fc75ab1d101e060d808b	3	1	main_slash	7	advance_on_keypress_SLASH	112	stimuli_distractor_trianglediamonds.svg	stimuli_target_rectanglediamonds.svg	10	yes	57	0	166	0	0			0	0			1				0	
6.6.1	win	2023-06-02	08:00:23	08:30:54	1826018	6095fc75ab1d101e060d808b	3	1	main_slash	7	main_slash	113	stimuli_distractor_diamondtriangles.svg	stimuli_target_diamondsquares.svg	32	yes	53	1	731	0	0			0	0			1				0	
6.6.1	win	2023-06-02	08:00:23	08:30:54	1826018	6095fc75ab1d101e060d808b	3	1	main_slash	7	advance_on_keypress_SLASH	114	stimuli_distractor_diamondtriangles.svg	stimuli_target_diamondsquares.svg	32	yes	57	0	154	0	0			0	0			1				0	
6.6.1	win	2023-06-02	08:00:23	08:30:55	1827674	6095fc75ab1d101e060d808b	3	1	main_slash	7	main_slash	115	stimuli_distractor_diamondtriangles.svg	stimuli_target_trianglerectangles.svg	29	yes	53	1	854	0	0			0	0			1				0	
6.6.1	win	2023-06-02	08:00:23	08:30:55	1827674	6095fc75ab1d101e060d808b	3	1	main_slash	7	advance_on_keypress_SLASH	116	stimuli_distractor_diamondtriangles.svg	stimuli_target_trianglerectangles.svg	29	yes	57	0	146	0	0			0	0			1				0	
6.6.1	win	2023-06-02	08:00:23	08:30:58	1830470	6095fc75ab1d101e060d808b	3	1	main_slash	7	main_slash	117	stimuli_distractor_trianglediamonds.svg	stimuli_distractor_diamondtriangles.svg	36	no	0	1	2000	0	0			0	0			1				0	
6.6.1	win	2023-06-02	08:00:23	08:30:58	1830470	6095fc75ab1d101e060d808b	3	1	main_slash	7	advance_on_keypress_SLASH	118	stimuli_distractor_trianglediamonds.svg	stimuli_distractor_diamondtriangles.svg	36	no	57	0	59	0	0			0	0			1				0	
6.6.1	win	2023-06-02	08:00:23	08:30:59	1831715	6095fc75ab1d101e060d808b	3	1	main_slash	7	main_slash	119	stimuli_distractor_diamondtriangles.svg	stimuli_target_squarediamonds.svg	16	yes	53	1	545	0	0			0	0			1				0	
6.6.1	win	2023-06-02	08:00:23	08:30:59	1831715	6095fc75ab1d101e060d808b	3	1	main_slash	7	advance_on_keypress_SLASH	120	stimuli_distractor_diamondtriangles.svg	stimuli_target_squarediamonds.svg	16	yes	57	0	217	0	0			0	0			1				0	
6.6.1	win	2023-06-02	08:00:23	08:31:02	1834587	6095fc75ab1d101e060d808b	3	1	main_slash	7	main_slash	121	stimuli_distractor_trianglediamonds.svg	stimuli_distractor_trianglediamonds.svg	34	no	0	1	2000	0	0			0	0			1				0	
6.6.1	win	2023-06-02	08:00:23	08:31:02	1834587	6095fc75ab1d101e060d808b	3	1	main_slash	7	advance_on_keypress_SLASH	122	stimuli_distractor_trianglediamonds.svg	stimuli_distractor_trianglediamonds.svg	34	no	57	0	330	0	0			0	0			1				0	
6.6.1	win	2023-06-02	08:00:23	08:31:04	1836177	6095fc75ab1d101e060d808b	3	1	main_slash	7	main_slash	123	stimuli_distractor_diamondtriangles.svg	stimuli_target_trianglesquares.svg	30	yes	53	1	607	0	0			0	0			1				0	
6.6.1	win	2023-06-02	08:00:23	08:31:04	1836177	6095fc75ab1d101e060d808b	3	1	main_slash	7	advance_on_keypress_SLASH	124	stimuli_distractor_diamondtriangles.svg	stimuli_target_trianglesquares.svg	30	yes	57	0	270	0	0			0	0			1				0	
6.6.1	win	2023-06-02	08:00:23	08:31:06	1837869	6095fc75ab1d101e060d808b	3	1	main_slash	7	main_slash	125	stimuli_target_trianglesquares.svg	stimuli_distractor_diamondtriangles.svg	22	yes	53	1	782	0	0			0	0			1				0	
6.6.1	win	2023-06-02	08:00:23	08:31:06	1837869	6095fc75ab1d101e060d808b	3	1	main_slash	7	advance_on_keypress_SLASH	126	stimuli_target_trianglesquares.svg	stimuli_distractor_diamondtriangles.svg	22	yes	57	0	214	0	0			0	0			1				0	
6.6.1	win	2023-06-02	08:00:23	08:31:07	1839539	6095fc75ab1d101e060d808b	3	1	main_slash	7	main_slash	127	stimuli_distractor_trianglediamonds.svg	stimuli_target_rectangletriangles.svg	9	yes	53	1	802	0	0			0	0			1				0	
6.6.1	win	2023-06-02	08:00:23	08:31:07	1839539	6095fc75ab1d101e060d808b	3	1	main_slash	7	advance_on_keypress_SLASH	128	stimuli_distractor_trianglediamonds.svg	stimuli_target_rectangletriangles.svg	9	yes	57	0	201	0	0			0	0			1				0	
6.6.1	win	2023-06-02	08:00:23	08:31:09	1841043	6095fc75ab1d101e060d808b	3	1	main_slash	7	main_slash	129	stimuli_distractor_trianglediamonds.svg	stimuli_target_trianglesquares.svg	26	yes	53	1	656	0	0			0	0			1				0	
6.6.1	win	2023-06-02	08:00:23	08:31:09	1841043	6095fc75ab1d101e060d808b	3	1	main_slash	7	advance_on_keypress_SLASH	130	stimuli_distractor_trianglediamonds.svg	stimuli_target_trianglesquares.svg	26	yes	57	0	254	0	0			0	0			1				0	
6.6.1	win	2023-06-02	08:00:23	08:31:10	1842620	6095fc75ab1d101e060d808b	3	1	main_slash	7	main_slash	131	stimuli_target_trianglerectangles.svg	stimuli_distractor_trianglediamonds.svg	17	yes	53	1	682	0	0			0	0			1				0	
6.6.1	win	2023-06-02	08:00:23	08:31:10	1842620	6095fc75ab1d101e060d808b	3	1	main_slash	7	advance_on_keypress_SLASH	132	stimuli_target_trianglerectangles.svg	stimuli_distractor_trianglediamonds.svg	17	yes	57	0	213	0	0			0	0			1				0	
6.6.1	win	2023-06-02	08:00:23	08:31:12	1844193	6095fc75ab1d101e060d808b	3	1	main_slash	7	main_slash	133	stimuli_target_diamondsquares.svg	stimuli_distractor_diamondtriangles.svg	24	yes	53	1	705	0	0			0	0			1				0	
6.6.1	win	2023-06-02	08:00:23	08:31:12	1844193	6095fc75ab1d101e060d808b	3	1	main_slash	7	advance_on_keypress_SLASH	134	stimuli_target_diamondsquares.svg	stimuli_distractor_diamondtriangles.svg	24	yes	57	0	221	0	0			0	0			1				0	
6.6.1	win	2023-06-02	08:00:23	08:31:15	1847053	6095fc75ab1d101e060d808b	3	1	main_slash	7	main_slash	135	stimuli_distractor_diamondtriangles.svg	stimuli_distractor_trianglediamonds.svg	38	no	0	1	2000	0	0			0	0			1				0	
6.6.1	win	2023-06-02	08:00:23	08:31:15	1847053	6095fc75ab1d101e060d808b	3	1	main_slash	7	advance_on_keypress_SLASH	136	stimuli_distractor_diamondtriangles.svg	stimuli_distractor_trianglediamonds.svg	38	no	57	0	311	0	0			0	0			1				0	
6.6.1	win	2023-06-02	08:00:23	08:31:16	1848644	6095fc75ab1d101e060d808b	3	1	main_slash	7	main_slash	137	stimuli_target_diamondrectangles.svg	stimuli_distractor_diamondtriangles.svg	23	yes	53	1	624	0	0			0	0			1				0	
6.6.1	win	2023-06-02	08:00:23	08:31:16	1848644	6095fc75ab1d101e060d808b	3	1	main_slash	7	advance_on_keypress_SLASH	138	stimuli_target_diamondrectangles.svg	stimuli_distractor_diamondtriangles.svg	23	yes	57	0	211	0	0			0	0			1				0	
6.6.1	win	2023-06-02	08:00:23	08:31:18	1850302	6095fc75ab1d101e060d808b	3	1	main_slash	7	main_slash	139	stimuli_distractor_trianglediamonds.svg	stimuli_target_diamondrectangles.svg	27	yes	53	1	798	0	0			0	0			1				0	
6.6.1	win	2023-06-02	08:00:23	08:31:18	1850302	6095fc75ab1d101e060d808b	3	1	main_slash	7	advance_on_keypress_SLASH	140	stimuli_distractor_trianglediamonds.svg	stimuli_target_diamondrectangles.svg	27	yes	57	0	186	0	0			0	0			1				0	
6.6.1	win	2023-06-02	08:00:23	08:31:20	1851811	6095fc75ab1d101e060d808b	3	1	main_slash	7	main_slash	141	stimuli_distractor_diamondtriangles.svg	stimuli_target_diamondrectangles.svg	31	yes	53	1	673	0	0			0	0			1				0	
6.6.1	win	2023-06-02	08:00:23	08:31:20	1851811	6095fc75ab1d101e060d808b	3	1	main_slash	7	advance_on_keypress_SLASH	142	stimuli_distractor_diamondtriangles.svg	stimuli_target_diamondrectangles.svg	31	yes	57	0	193	0	0			0	0			1				0	
6.6.1	win	2023-06-02	08:00:23	08:31:21	1853341	6095fc75ab1d101e060d808b	3	1	main_slash	7	main_slash	143	stimuli_target_squaretriangles.svg	stimuli_distractor_diamondtriangles.svg	7	yes	53	1	704	0	0			0	0			1				0	
6.6.1	win	2023-06-02	08:00:23	08:31:21	1853341	6095fc75ab1d101e060d808b	3	1	main_slash	7	advance_on_keypress_SLASH	144	stimuli_target_squaretriangles.svg	stimuli_distractor_diamondtriangles.svg	7	yes	57	0	192	0	0			0	0			1				0	
6.6.1	win	2023-06-02	08:00:23	08:31:23	1854778	6095fc75ab1d101e060d808b	3	1	main_slash	7	main_slash	145	stimuli_target_rectanglediamonds.svg	stimuli_distractor_trianglediamonds.svg	2	yes	53	1	607	0	0			0	0			1				0	
6.6.1	win	2023-06-02	08:00:23	08:31:23	1854778	6095fc75ab1d101e060d808b	3	1	main_slash	7	advance_on_keypress_SLASH	146	stimuli_target_rectanglediamonds.svg	stimuli_distractor_trianglediamonds.svg	2	yes	57	0	209	0	0			0	0			1				0	
6.6.1	win	2023-06-02	08:00:23	08:31:24	1856238	6095fc75ab1d101e060d808b	3	1	main_slash	7	main_slash	147	stimuli_distractor_trianglediamonds.svg	stimuli_target_trianglerectangles.svg	25	yes	53	1	618	0	0			0	0			1				0	
6.6.1	win	2023-06-02	08:00:23	08:31:24	1856238	6095fc75ab1d101e060d808b	3	1	main_slash	7	advance_on_keypress_SLASH	148	stimuli_distractor_trianglediamonds.svg	stimuli_target_trianglerectangles.svg	25	yes	57	0	158	0	0			0	0			1				0	
6.6.1	win	2023-06-02	08:00:23	08:31:26	1857769	6095fc75ab1d101e060d808b	3	1	main_slash	7	main_slash	149	stimuli_distractor_trianglediamonds.svg	stimuli_target_squaretriangles.svg	11	yes	53	1	732	0	0			0	0			1				0	
6.6.1	win	2023-06-02	08:00:23	08:31:26	1857769	6095fc75ab1d101e060d808b	3	1	main_slash	7	advance_on_keypress_SLASH	150	stimuli_distractor_trianglediamonds.svg	stimuli_target_squaretriangles.svg	11	yes	57	0	139	0	0			0	0			1				0	
6.6.1	win	2023-06-02	08:00:23	08:31:27	1859274	6095fc75ab1d101e060d808b	3	1	main_slash	7	main_slash	151	stimuli_target_trianglerectangles.svg	stimuli_distractor_diamondtriangles.svg	21	yes	53	1	721	0	0			0	0			1				0	
6.6.1	win	2023-06-02	08:00:23	08:31:27	1859274	6095fc75ab1d101e060d808b	3	1	main_slash	7	advance_on_keypress_SLASH	152	stimuli_target_trianglerectangles.svg	stimuli_distractor_diamondtriangles.svg	21	yes	57	0	139	0	0			0	0			1				0	
6.6.1	win	2023-06-02	08:00:23	08:31:29	1860819	6095fc75ab1d101e060d808b	3	1	main_slash	7	main_slash	153	stimuli_distractor_trianglediamonds.svg	stimuli_distractor_trianglediamonds.svg	33	no	53	0	766	0	0			0	0			1				0	
6.6.1	win	2023-06-02	08:00:23	08:31:29	1860819	6095fc75ab1d101e060d808b	3	1	main_slash	7	advance_on_keypress_SLASH	154	stimuli_distractor_trianglediamonds.svg	stimuli_distractor_trianglediamonds.svg	33	no	57	0	233	0	0			0	0			1				0	
6.6.1	win	2023-06-02	08:00:23	08:31:30	1862397	6095fc75ab1d101e060d808b	3	1	main_slash	7	main_slash	155	stimuli_target_diamondsquares.svg	stimuli_distractor_trianglediamonds.svg	20	yes	53	1	694	0	0			0	0			1				0	
6.6.1	win	2023-06-02	08:00:23	08:31:30	1862397	6095fc75ab1d101e060d808b	3	1	main_slash	7	advance_on_keypress_SLASH	156	stimuli_target_diamondsquares.svg	stimuli_distractor_trianglediamonds.svg	20	yes	57	0	194	0	0			0	0			1				0	
6.6.1	win	2023-06-02	08:00:23	08:31:32	1863831	6095fc75ab1d101e060d808b	3	1	main_slash	7	main_slash	157	stimuli_distractor_trianglediamonds.svg	stimuli_target_diamondsquares.svg	28	yes	53	1	594	0	0			0	0			1				0	
6.6.1	win	2023-06-02	08:00:23	08:31:32	1863831	6095fc75ab1d101e060d808b	3	1	main_slash	7	advance_on_keypress_SLASH	158	stimuli_distractor_trianglediamonds.svg	stimuli_target_diamondsquares.svg	28	yes	57	0	133	0	0			0	0			1				0	
6.6.1	win	2023-06-02	08:00:23	08:31:33	1865649	6095fc75ab1d101e060d808b	3	1	main_slash	7	main_slash	159	stimuli_target_rectangletriangles.svg	stimuli_distractor_diamondtriangles.svg	5	yes	53	1	1029	0	0			0	0			1				0	
6.6.1	win	2023-06-02	08:00:23	08:31:33	1865649	6095fc75ab1d101e060d808b	3	1	main_slash	7	advance_on_keypress_SLASH	160	stimuli_target_rectangletriangles.svg	stimuli_distractor_diamondtriangles.svg	5	yes	57	0	353	0	0			0	0			1				0	
6.6.1	win	2023-06-02	08:00:23	08:35:03	2075531	6095fc75ab1d101e060d808b	3	1	practice_z	9	practice_z	1	stimuli_target_squarediamonds.svg	stimuli_distractor_trianglediamonds.svg	5	yes	44	1	642	0	0			0	0			1				0	
6.6.1	win	2023-06-02	08:00:23	08:35:03	2075531	6095fc75ab1d101e060d808b	3	1	practice_z	9	advance_on_keypress_ZEE	2	stimuli_target_squarediamonds.svg	stimuli_distractor_trianglediamonds.svg	5	yes	57	0	548	0	0			0	0			1				0	
6.6.1	win	2023-06-02	08:00:23	08:35:06	2078356	6095fc75ab1d101e060d808b	3	1	practice_z	9	practice_z	3	stimuli_target_diamondsquares.svg	stimuli_distractor_diamondtriangles.svg	3	yes	44	1	618	0	0			0	0			1				0	
6.6.1	win	2023-06-02	08:00:23	08:35:06	2078356	6095fc75ab1d101e060d808b	3	1	practice_z	9	advance_on_keypress_ZEE	4	stimuli_target_diamondsquares.svg	stimuli_distractor_diamondtriangles.svg	3	yes	57	0	349	0	0			0	0			1				0	
6.6.1	win	2023-06-02	08:00:23	08:35:10	2082356	6095fc75ab1d101e060d808b	3	1	practice_z	9	practice_z	5	stimuli_distractor_trianglediamonds.svg	stimuli_distractor_diamondtriangles.svg	16	no	0	1	2000	0	0			0	0			1				0	
6.6.1	win	2023-06-02	08:00:23	08:35:10	2082356	6095fc75ab1d101e060d808b	3	1	practice_z	9	advance_on_keypress_ZEE	6	stimuli_distractor_trianglediamonds.svg	stimuli_distractor_diamondtriangles.svg	16	no	57	0	539	0	0			0	0			1				0	
6.6.1	win	2023-06-02	08:00:23	08:35:13	2085114	6095fc75ab1d101e060d808b	3	1	practice_z	9	practice_z	7	stimuli_distractor_trianglediamonds.svg	stimuli_target_diamondrectangles.svg	12	yes	44	1	576	0	0			0	0			1				0	
6.6.1	win	2023-06-02	08:00:23	08:35:13	2085114	6095fc75ab1d101e060d808b	3	1	practice_z	9	advance_on_keypress_ZEE	8	stimuli_distractor_trianglediamonds.svg	stimuli_target_diamondrectangles.svg	12	yes	57	0	650	0	0			0	0			1				0	
6.6.1	win	2023-06-02	08:00:23	08:35:17	2089422	6095fc75ab1d101e060d808b	3	1	practice_z	9	practice_z	9	stimuli_distractor_diamondtriangles.svg	stimuli_target_rectangletriangles.svg	7	yes	0	0	2000	0	0			0	0			1				0	
6.6.1	win	2023-06-02	08:00:23	08:35:17	2089422	6095fc75ab1d101e060d808b	3	1	practice_z	9	advance_on_keypress_ZEE	10	stimuli_distractor_diamondtriangles.svg	stimuli_target_rectangletriangles.svg	7	yes	57	0	332	0	0			0	0			1				0	
6.6.1	win	2023-06-02	08:00:23	08:35:20	2091987	6095fc75ab1d101e060d808b	3	1	practice_z	9	practice_z	11	stimuli_distractor_diamondtriangles.svg	stimuli_target_trianglerectangles.svg	9	yes	44	1	581	0	0			0	0			1				0	
6.6.1	win	2023-06-02	08:00:23	08:35:20	2091987	6095fc75ab1d101e060d808b	3	1	practice_z	9	advance_on_keypress_ZEE	12	stimuli_distractor_diamondtriangles.svg	stimuli_target_trianglerectangles.svg	9	yes	57	0	359	0	0			0	0			1				0	
6.6.1	win	2023-06-02	08:00:23	08:35:24	2096006	6095fc75ab1d101e060d808b	3	1	practice_z	9	practice_z	13	stimuli_distractor_diamondtriangles.svg	stimuli_distractor_diamondtriangles.svg	13	no	0	1	2000	0	0			0	0			1				0	
6.6.1	win	2023-06-02	08:00:23	08:35:24	2096006	6095fc75ab1d101e060d808b	3	1	practice_z	9	advance_on_keypress_ZEE	14	stimuli_distractor_diamondtriangles.svg	stimuli_distractor_diamondtriangles.svg	13	no	57	0	444	0	0			0	0			1				0	
6.6.1	win	2023-06-02	08:00:23	08:35:27	2099032	6095fc75ab1d101e060d808b	3	1	practice_z	9	practice_z	15	stimuli_distractor_diamondtriangles.svg	stimuli_distractor_trianglediamonds.svg	14	no	44	0	927	0	0			0	0			1				0	
6.6.1	win	2023-06-02	08:00:23	08:35:27	2099032	6095fc75ab1d101e060d808b	3	1	practice_z	9	advance_on_keypress_ZEE	16	stimuli_distractor_diamondtriangles.svg	stimuli_distractor_trianglediamonds.svg	14	no	57	0	440	0	0			0	0			1				0	
6.6.1	win	2023-06-02	08:00:23	08:35:29	2101686	6095fc75ab1d101e060d808b	3	1	practice_z	9	practice_z	17	stimuli_target_diamondsquares.svg	stimuli_distractor_trianglediamonds.svg	6	yes	44	1	565	0	0			0	0			1				0	
6.6.1	win	2023-06-02	08:00:23	08:35:29	2101686	6095fc75ab1d101e060d808b	3	1	practice_z	9	advance_on_keypress_ZEE	18	stimuli_target_diamondsquares.svg	stimuli_distractor_trianglediamonds.svg	6	yes	57	0	273	0	0			0	0			1				0	
6.6.1	win	2023-06-02	08:00:23	08:35:32	2104293	6095fc75ab1d101e060d808b	3	1	practice_z	9	practice_z	19	stimuli_target_squarediamonds.svg	stimuli_distractor_diamondtriangles.svg	2	yes	44	1	687	0	0			0	0			1				0	
6.6.1	win	2023-06-02	08:00:23	08:35:32	2104293	6095fc75ab1d101e060d808b	3	1	practice_z	9	advance_on_keypress_ZEE	20	stimuli_target_squarediamonds.svg	stimuli_distractor_diamondtriangles.svg	2	yes	57	0	366	0	0			0	0			1				0	
6.6.1	win	2023-06-02	08:00:23	08:35:36	2108305	6095fc75ab1d101e060d808b	3	1	practice_z	9	practice_z	21	stimuli_distractor_trianglediamonds.svg	stimuli_distractor_trianglediamonds.svg	15	no	0	1	2000	0	0			0	0			1				0	
6.6.1	win	2023-06-02	08:00:23	08:35:36	2108305	6095fc75ab1d101e060d808b	3	1	practice_z	9	advance_on_keypress_ZEE	22	stimuli_distractor_trianglediamonds.svg	stimuli_distractor_trianglediamonds.svg	15	no	57	0	468	0	0			0	0			1				0	
6.6.1	win	2023-06-02	08:00:23	08:35:39	2111223	6095fc75ab1d101e060d808b	3	1	practice_z	9	practice_z	23	stimuli_distractor_trianglediamonds.svg	stimuli_target_squarediamonds.svg	11	yes	44	1	801	0	0			0	0			1				0	
6.6.1	win	2023-06-02	08:00:23	08:35:39	2111223	6095fc75ab1d101e060d808b	3	1	practice_z	9	advance_on_keypress_ZEE	24	stimuli_distractor_trianglediamonds.svg	stimuli_target_squarediamonds.svg	11	yes	57	0	407	0	0			0	0			1				0	
6.6.1	win	2023-06-02	08:00:23	08:35:42	2113852	6095fc75ab1d101e060d808b	3	1	practice_z	9	practice_z	25	stimuli_target_rectanglediamonds.svg	stimuli_distractor_diamondtriangles.svg	1	yes	44	1	580	0	0			0	0			1				0	
6.6.1	win	2023-06-02	08:00:23	08:35:42	2113852	6095fc75ab1d101e060d808b	3	1	practice_z	9	advance_on_keypress_ZEE	26	stimuli_target_rectanglediamonds.svg	stimuli_distractor_diamondtriangles.svg	1	yes	57	0	277	0	0			0	0			1				0	
6.6.1	win	2023-06-02	08:00:23	08:35:44	2116434	6095fc75ab1d101e060d808b	3	1	practice_z	9	practice_z	27	stimuli_distractor_diamondtriangles.svg	stimuli_target_diamondrectangles.svg	8	yes	44	1	645	0	0			0	0			1				0	
6.6.1	win	2023-06-02	08:00:23	08:35:44	2116434	6095fc75ab1d101e060d808b	3	1	practice_z	9	advance_on_keypress_ZEE	28	stimuli_distractor_diamondtriangles.svg	stimuli_target_diamondrectangles.svg	8	yes	57	0	260	0	0			0	0			1				0	
6.6.1	win	2023-06-02	08:00:23	08:35:47	2118875	6095fc75ab1d101e060d808b	3	1	practice_z	9	practice_z	29	stimuli_target_rectanglediamonds.svg	stimuli_distractor_trianglediamonds.svg	4	yes	44	1	519	0	0			0	0			1				0	
6.6.1	win	2023-06-02	08:00:23	08:35:47	2118875	6095fc75ab1d101e060d808b	3	1	practice_z	9	advance_on_keypress_ZEE	30	stimuli_target_rectanglediamonds.svg	stimuli_distractor_trianglediamonds.svg	4	yes	57	0	234	0	0			0	0			1				0	
6.6.1	win	2023-06-02	08:00:23	08:35:49	2121310	6095fc75ab1d101e060d808b	3	1	practice_z	9	practice_z	31	stimuli_distractor_trianglediamonds.svg	stimuli_target_rectanglediamonds.svg	10	yes	44	1	554	0	0			0	0			1				0	
6.6.1	win	2023-06-02	08:00:23	08:35:49	2121310	6095fc75ab1d101e060d808b	3	1	practice_z	9	advance_on_keypress_ZEE	32	stimuli_distractor_trianglediamonds.svg	stimuli_target_rectanglediamonds.svg	10	yes	57	0	254	0	0			0	0			1				0	
6.6.1	win	2023-06-02	08:00:23	08:35:54	2126313	6095fc75ab1d101e060d808b	3	1	main_z	11	main_z	1	stimuli_target_squaretriangles.svg	stimuli_distractor_diamondtriangles.svg	7	yes	44	1	527	0	0			0	0			1				0	
6.6.1	win	2023-06-02	08:00:23	08:35:54	2126313	6095fc75ab1d101e060d808b	3	1	main_z	11	advance_on_keypress_ZEE	2	stimuli_target_squaretriangles.svg	stimuli_distractor_diamondtriangles.svg	7	yes	57	0	598	0	0			0	0			1				0	
6.6.1	win	2023-06-02	08:00:23	08:35:56	2128201	6095fc75ab1d101e060d808b	3	1	main_z	11	main_z	3	stimuli_target_diamondrectangles.svg	stimuli_distractor_trianglediamonds.svg	19	yes	44	1	631	0	0			0	0			1				0	
6.6.1	win	2023-06-02	08:00:23	08:35:56	2128201	6095fc75ab1d101e060d808b	3	1	main_z	11	advance_on_keypress_ZEE	4	stimuli_target_diamondrectangles.svg	stimuli_distractor_trianglediamonds.svg	19	yes	57	0	513	0	0			0	0			1				0	
6.6.1	win	2023-06-02	08:00:23	08:35:58	2129959	6095fc75ab1d101e060d808b	3	1	main_z	11	main_z	5	stimuli_target_trianglesquares.svg	stimuli_distractor_trianglediamonds.svg	18	yes	44	1	590	0	0			0	0			1				0	
6.6.1	win	2023-06-02	08:00:23	08:35:58	2129959	6095fc75ab1d101e060d808b	3	1	main_z	11	advance_on_keypress_ZEE	6	stimuli_target_trianglesquares.svg	stimuli_distractor_trianglediamonds.svg	18	yes	57	0	270	0	0			0	0			1				0	
6.6.1	win	2023-06-02	08:00:23	08:35:59	2131487	6095fc75ab1d101e060d808b	3	1	main_z	11	main_z	7	stimuli_distractor_trianglediamonds.svg	stimuli_target_squaretriangles.svg	11	yes	44	1	618	0	0			0	0			1				0	
6.6.1	win	2023-06-02	08:00:23	08:35:59	2131487	6095fc75ab1d101e060d808b	3	1	main_z	11	advance_on_keypress_ZEE	8	stimuli_distractor_trianglediamonds.svg	stimuli_target_squaretriangles.svg	11	yes	57	0	252	0	0			0	0			1				0	
6.6.1	win	2023-06-02	08:00:23	08:36:01	2133133	6095fc75ab1d101e060d808b	3	1	main_z	11	main_z	9	stimuli_distractor_diamondtriangles.svg	stimuli_target_trianglesquares.svg	30	yes	44	1	747	0	0			0	0			1				0	
6.6.1	win	2023-06-02	08:00:23	08:36:01	2133133	6095fc75ab1d101e060d808b	3	1	main_z	11	advance_on_keypress_ZEE	10	stimuli_distractor_diamondtriangles.svg	stimuli_target_trianglesquares.svg	30	yes	57	0	290	0	0			0	0			1				0	
6.6.1	win	2023-06-02	08:00:23	08:36:04	2136070	6095fc75ab1d101e060d808b	3	1	main_z	11	main_z	11	stimuli_distractor_diamondtriangles.svg	stimuli_distractor_trianglediamonds.svg	37	no	0	1	2000	0	0			0	0			1				0	
6.6.1	win	2023-06-02	08:00:23	08:36:04	2136070	6095fc75ab1d101e060d808b	3	1	main_z	11	advance_on_keypress_ZEE	12	stimuli_distractor_diamondtriangles.svg	stimuli_distractor_trianglediamonds.svg	37	no	57	0	254	0	0			0	0			1				0	
6.6.1	win	2023-06-02	08:00:23	08:36:05	2137588	6095fc75ab1d101e060d808b	3	1	main_z	11	main_z	13	stimuli_target_diamondrectangles.svg	stimuli_distractor_diamondtriangles.svg	23	yes	44	1	619	0	0			0	0			1				0	
6.6.1	win	2023-06-02	08:00:23	08:36:05	2137588	6095fc75ab1d101e060d808b	3	1	main_z	11	advance_on_keypress_ZEE	14	stimuli_target_diamondrectangles.svg	stimuli_distractor_diamondtriangles.svg	23	yes	57	0	285	0	0			0	0			1				0	
6.6.1	win	2023-06-02	08:00:23	08:36:07	2139113	6095fc75ab1d101e060d808b	3	1	main_z	11	main_z	15	stimuli_target_diamondsquares.svg	stimuli_distractor_diamondtriangles.svg	24	yes	44	1	595	0	0			0	0			1				0	
6.6.1	win	2023-06-02	08:00:23	08:36:07	2139113	6095fc75ab1d101e060d808b	3	1	main_z	11	advance_on_keypress_ZEE	16	stimuli_target_diamondsquares.svg	stimuli_distractor_diamondtriangles.svg	24	yes	57	0	212	0	0			0	0			1				0	
6.6.1	win	2023-06-02	08:00:23	08:36:08	2140649	6095fc75ab1d101e060d808b	3	1	main_z	11	main_z	17	stimuli_distractor_trianglediamonds.svg	stimuli_target_diamondsquares.svg	28	yes	44	1	663	0	0			0	0			1				0	
6.6.1	win	2023-06-02	08:00:23	08:36:08	2140649	6095fc75ab1d101e060d808b	3	1	main_z	11	advance_on_keypress_ZEE	18	stimuli_distractor_trianglediamonds.svg	stimuli_target_diamondsquares.svg	28	yes	57	0	213	0	0			0	0			1				0	
6.6.1	win	2023-06-02	08:00:23	08:36:10	2142052	6095fc75ab1d101e060d808b	3	1	main_z	11	main_z	19	stimuli_target_squarediamonds.svg	stimuli_distractor_diamondtriangles.svg	8	yes	44	1	533	0	0			0	0			1				0	
6.6.1	win	2023-06-02	08:00:23	08:36:10	2142052	6095fc75ab1d101e060d808b	3	1	main_z	11	advance_on_keypress_ZEE	20	stimuli_target_squarediamonds.svg	stimuli_distractor_diamondtriangles.svg	8	yes	57	0	185	0	0			0	0			1				0	
6.6.1	win	2023-06-02	08:00:23	08:36:13	2144886	6095fc75ab1d101e060d808b	3	1	main_z	11	main_z	21	stimuli_distractor_diamondtriangles.svg	stimuli_distractor_trianglediamonds.svg	38	no	0	1	2000	0	0			0	0			1				0	
6.6.1	win	2023-06-02	08:00:23	08:36:13	2144886	6095fc75ab1d101e060d808b	3	1	main_z	11	advance_on_keypress_ZEE	22	stimuli_distractor_diamondtriangles.svg	stimuli_distractor_trianglediamonds.svg	38	no	57	0	361	0	0			0	0			1				0	
6.6.1	win	2023-06-02	08:00:23	08:36:14	2146327	6095fc75ab1d101e060d808b	3	1	main_z	11	main_z	23	stimuli_target_trianglerectangles.svg	stimuli_distractor_trianglediamonds.svg	17	yes	44	1	441	0	0			0	0			1				0	
6.6.1	win	2023-06-02	08:00:23	08:36:14	2146327	6095fc75ab1d101e060d808b	3	1	main_z	11	advance_on_keypress_ZEE	24	stimuli_target_trianglerectangles.svg	stimuli_distractor_trianglediamonds.svg	17	yes	57	0	225	0	0			0	0			1				0	
6.6.1	win	2023-06-02	08:00:23	08:36:17	2149186	6095fc75ab1d101e060d808b	3	1	main_z	11	main_z	25	stimuli_distractor_trianglediamonds.svg	stimuli_distractor_diamondtriangles.svg	35	no	0	1	2000	0	0			0	0			1				0	
6.6.1	win	2023-06-02	08:00:23	08:36:17	2149186	6095fc75ab1d101e060d808b	3	1	main_z	11	advance_on_keypress_ZEE	26	stimuli_distractor_trianglediamonds.svg	stimuli_distractor_diamondtriangles.svg	35	no	57	0	261	0	0			0	0			1				0	
6.6.1	win	2023-06-02	08:00:23	08:36:19	2151143	6095fc75ab1d101e060d808b	3	1	main_z	11	main_z	27	stimuli_distractor_diamondtriangles.svg	stimuli_target_rectangletriangles.svg	13	yes	44	1	1041	0	0			0	0			1				0	
6.6.1	win	2023-06-02	08:00:23	08:36:19	2151143	6095fc75ab1d101e060d808b	3	1	main_z	11	advance_on_keypress_ZEE	28	stimuli_distractor_diamondtriangles.svg	stimuli_target_rectangletriangles.svg	13	yes	57	0	388	0	0			0	0			1				0	
6.6.1	win	2023-06-02	08:00:23	08:36:20	2152694	6095fc75ab1d101e060d808b	3	1	main_z	11	main_z	29	stimuli_target_trianglesquares.svg	stimuli_distractor_diamondtriangles.svg	22	yes	44	1	523	0	0			0	0			1				0	
6.6.1	win	2023-06-02	08:00:23	08:36:20	2152694	6095fc75ab1d101e060d808b	3	1	main_z	11	advance_on_keypress_ZEE	30	stimuli_target_trianglesquares.svg	stimuli_distractor_diamondtriangles.svg	22	yes	57	0	222	0	0			0	0			1				0	
6.6.1	win	2023-06-02	08:00:23	08:36:22	2154389	6095fc75ab1d101e060d808b	3	1	main_z	11	main_z	31	stimuli_target_squarediamonds.svg	stimuli_distractor_trianglediamonds.svg	4	yes	44	1	836	0	0			0	0			1				0	
6.6.1	win	2023-06-02	08:00:23	08:36:22	2154389	6095fc75ab1d101e060d808b	3	1	main_z	11	advance_on_keypress_ZEE	32	stimuli_target_squarediamonds.svg	stimuli_distractor_trianglediamonds.svg	4	yes	57	0	266	0	0			0	0			1				0	
6.6.1	win	2023-06-02	08:00:23	08:36:24	2155953	6095fc75ab1d101e060d808b	3	1	main_z	11	main_z	33	stimuli_target_squaretriangles.svg	stimuli_distractor_trianglediamonds.svg	3	yes	44	1	652	0	0			0	0			1				0	
6.6.1	win	2023-06-02	08:00:23	08:36:24	2155953	6095fc75ab1d101e060d808b	3	1	main_z	11	advance_on_keypress_ZEE	34	stimuli_target_squaretriangles.svg	stimuli_distractor_trianglediamonds.svg	3	yes	57	0	247	0	0			0	0			1				0	
6.6.1	win	2023-06-02	08:00:23	08:36:25	2157483	6095fc75ab1d101e060d808b	3	1	main_z	11	main_z	35	stimuli_target_rectanglediamonds.svg	stimuli_distractor_trianglediamonds.svg	2	yes	44	1	631	0	0			0	0			1				0	
6.6.1	win	2023-06-02	08:00:23	08:36:25	2157483	6095fc75ab1d101e060d808b	3	1	main_z	11	advance_on_keypress_ZEE	36	stimuli_target_rectanglediamonds.svg	stimuli_distractor_trianglediamonds.svg	2	yes	57	0	230	0	0			0	0			1				0	
6.6.1	win	2023-06-02	08:00:23	08:36:27	2158950	6095fc75ab1d101e060d808b	3	1	main_z	11	main_z	37	stimuli_distractor_trianglediamonds.svg	stimuli_target_trianglesquares.svg	26	yes	44	1	581	0	0			0	0			1				0	
6.6.1	win	2023-06-02	08:00:23	08:36:27	2158950	6095fc75ab1d101e060d808b	3	1	main_z	11	advance_on_keypress_ZEE	38	stimuli_distractor_trianglediamonds.svg	stimuli_target_trianglesquares.svg	26	yes	57	0	199	0	0			0	0			1				0	
6.6.1	win	2023-06-02	08:00:23	08:36:30	2161805	6095fc75ab1d101e060d808b	3	1	main_z	11	main_z	39	stimuli_distractor_diamondtriangles.svg	stimuli_distractor_diamondtriangles.svg	39	no	0	1	2000	0	0			0	0			1				0	
6.6.1	win	2023-06-02	08:00:23	08:36:30	2161805	6095fc75ab1d101e060d808b	3	1	main_z	11	advance_on_keypress_ZEE	40	stimuli_distractor_diamondtriangles.svg	stimuli_distractor_diamondtriangles.svg	39	no	57	0	269	0	0			0	0			1				0	
6.6.1	win	2023-06-02	08:00:23	08:36:31	2163491	6095fc75ab1d101e060d808b	3	1	main_z	11	main_z	41	stimuli_distractor_trianglediamonds.svg	stimuli_target_rectangletriangles.svg	9	yes	44	1	770	0	0			0	0			1				0	
6.6.1	win	2023-06-02	08:00:23	08:36:31	2163491	6095fc75ab1d101e060d808b	3	1	main_z	11	advance_on_keypress_ZEE	42	stimuli_distractor_trianglediamonds.svg	stimuli_target_rectangletriangles.svg	9	yes	57	0	356	0	0			0	0			1				0	
6.6.1	win	2023-06-02	08:00:23	08:36:33	2165141	6095fc75ab1d101e060d808b	3	1	main_z	11	main_z	43	stimuli_distractor_diamondtriangles.svg	stimuli_target_squaretriangles.svg	15	yes	44	1	654	0	0			0	0			1				0	
6.6.1	win	2023-06-02	08:00:23	08:36:33	2165141	6095fc75ab1d101e060d808b	3	1	main_z	11	advance_on_keypress_ZEE	44	stimuli_distractor_diamondtriangles.svg	stimuli_target_squaretriangles.svg	15	yes	57	0	268	0	0			0	0			1				0	
6.6.1	win	2023-06-02	08:00:23	08:36:34	2166568	6095fc75ab1d101e060d808b	3	1	main_z	11	main_z	45	stimuli_target_rectangletriangles.svg	stimuli_distractor_trianglediamonds.svg	1	yes	44	1	508	0	0			0	0			1				0	
6.6.1	win	2023-06-02	08:00:23	08:36:34	2166568	6095fc75ab1d101e060d808b	3	1	main_z	11	advance_on_keypress_ZEE	46	stimuli_target_rectangletriangles.svg	stimuli_distractor_trianglediamonds.svg	1	yes	57	0	162	0	0			0	0			1				0	
6.6.1	win	2023-06-02	08:00:23	08:36:36	2168582	6095fc75ab1d101e060d808b	3	1	main_z	11	main_z	47	stimuli_distractor_diamondtriangles.svg	stimuli_target_diamondrectangles.svg	31	yes	44	1	1196	0	0			0	0			1				0	
6.6.1	win	2023-06-02	08:00:23	08:36:36	2168582	6095fc75ab1d101e060d808b	3	1	main_z	11	advance_on_keypress_ZEE	48	stimuli_distractor_diamondtriangles.svg	stimuli_target_diamondrectangles.svg	31	yes	57	0	449	0	0			0	0			1				0	
6.6.1	win	2023-06-02	08:00:23	08:36:38	2170274	6095fc75ab1d101e060d808b	3	1	main_z	11	main_z	49	stimuli_distractor_diamondtriangles.svg	stimuli_target_squarediamonds.svg	16	yes	44	1	587	0	0			0	0			1				0	
6.6.1	win	2023-06-02	08:00:23	08:36:38	2170274	6095fc75ab1d101e060d808b	3	1	main_z	11	advance_on_keypress_ZEE	50	stimuli_distractor_diamondtriangles.svg	stimuli_target_squarediamonds.svg	16	yes	57	0	160	0	0			0	0			1				0	
6.6.1	win	2023-06-02	08:00:23	08:36:40	2172061	6095fc75ab1d101e060d808b	3	1	main_z	11	main_z	51	stimuli_target_trianglerectangles.svg	stimuli_distractor_diamondtriangles.svg	21	yes	44	1	975	0	0			0	0			1				0	
6.6.1	win	2023-06-02	08:00:23	08:36:40	2172061	6095fc75ab1d101e060d808b	3	1	main_z	11	advance_on_keypress_ZEE	52	stimuli_target_trianglerectangles.svg	stimuli_distractor_diamondtriangles.svg	21	yes	57	0	272	0	0			0	0			1				0	
6.6.1	win	2023-06-02	08:00:23	08:36:41	2173622	6095fc75ab1d101e060d808b	3	1	main_z	11	main_z	53	stimuli_distractor_diamondtriangles.svg	stimuli_target_trianglerectangles.svg	29	yes	44	1	652	0	0			0	0			1				0	
6.6.1	win	2023-06-02	08:00:23	08:36:41	2173622	6095fc75ab1d101e060d808b	3	1	main_z	11	advance_on_keypress_ZEE	54	stimuli_distractor_diamondtriangles.svg	stimuli_target_trianglerectangles.svg	29	yes	57	0	220	0	0			0	0			1				0	
6.6.1	win	2023-06-02	08:00:23	08:36:43	2175077	6095fc75ab1d101e060d808b	3	1	main_z	11	main_z	55	stimuli_distractor_trianglediamonds.svg	stimuli_target_trianglerectangles.svg	25	yes	44	1	591	0	0			0	0			1				0	
6.6.1	win	2023-06-02	08:00:23	08:36:43	2175077	6095fc75ab1d101e060d808b	3	1	main_z	11	advance_on_keypress_ZEE	56	stimuli_distractor_trianglediamonds.svg	stimuli_target_trianglerectangles.svg	25	yes	57	0	147	0	0			0	0			1				0	
6.6.1	win	2023-06-02	08:00:23	08:36:46	2177869	6095fc75ab1d101e060d808b	3	1	main_z	11	main_z	57	stimuli_distractor_trianglediamonds.svg	stimuli_distractor_trianglediamonds.svg	33	no	0	1	2000	0	0			0	0			1				0	
6.6.1	win	2023-06-02	08:00:23	08:36:46	2177869	6095fc75ab1d101e060d808b	3	1	main_z	11	advance_on_keypress_ZEE	58	stimuli_distractor_trianglediamonds.svg	stimuli_distractor_trianglediamonds.svg	33	no	57	0	807	0	0			0	0			1				0	
6.6.1	win	2023-06-02	08:00:23	08:36:48	2179767	6095fc75ab1d101e060d808b	3	1	main_z	11	main_z	59	stimuli_distractor_trianglediamonds.svg	stimuli_distractor_diamondtriangles.svg	36	no	44	0	448	0	0			0	0			1				0	
6.6.1	win	2023-06-02	08:00:23	08:36:48	2179767	6095fc75ab1d101e060d808b	3	1	main_z	11	advance_on_keypress_ZEE	60	stimuli_distractor_trianglediamonds.svg	stimuli_distractor_diamondtriangles.svg	36	no	57	0	202	0	0			0	0			1				0	
6.6.1	win	2023-06-02	08:00:23	08:36:49	2181240	6095fc75ab1d101e060d808b	3	1	main_z	11	main_z	61	stimuli_distractor_trianglediamonds.svg	stimuli_target_diamondrectangles.svg	27	yes	44	1	621	0	0			0	0			1				0	
6.6.1	win	2023-06-02	08:00:23	08:36:49	2181240	6095fc75ab1d101e060d808b	3	1	main_z	11	advance_on_keypress_ZEE	62	stimuli_distractor_trianglediamonds.svg	stimuli_target_diamondrectangles.svg	27	yes	57	0	164	0	0			0	0			1				0	
6.6.1	win	2023-06-02	08:00:23	08:36:50	2182533	6095fc75ab1d101e060d808b	3	1	main_z	11	main_z	63	stimuli_target_rectanglediamonds.svg	stimuli_distractor_diamondtriangles.svg	6	yes	44	1	481	0	0			0	0			1				0	
6.6.1	win	2023-06-02	08:00:23	08:36:50	2182533	6095fc75ab1d101e060d808b	3	1	main_z	11	advance_on_keypress_ZEE	64	stimuli_target_rectanglediamonds.svg	stimuli_distractor_diamondtriangles.svg	6	yes	57	0	121	0	0			0	0			1				0	
6.6.1	win	2023-06-02	08:00:23	08:36:52	2184010	6095fc75ab1d101e060d808b	3	1	main_z	11	main_z	65	stimuli_distractor_diamondtriangles.svg	stimuli_target_diamondsquares.svg	32	yes	44	1	708	0	0			0	0			1				0	
6.6.1	win	2023-06-02	08:00:23	08:36:52	2184010	6095fc75ab1d101e060d808b	3	1	main_z	11	advance_on_keypress_ZEE	66	stimuli_distractor_diamondtriangles.svg	stimuli_target_diamondsquares.svg	32	yes	57	0	194	0	0			0	0			1				0	
6.6.1	win	2023-06-02	08:00:23	08:36:53	2185307	6095fc75ab1d101e060d808b	3	1	main_z	11	main_z	67	stimuli_distractor_trianglediamonds.svg	stimuli_target_squarediamonds.svg	12	yes	44	1	455	0	0			0	0			1				0	
6.6.1	win	2023-06-02	08:00:23	08:36:53	2185307	6095fc75ab1d101e060d808b	3	1	main_z	11	advance_on_keypress_ZEE	68	stimuli_distractor_trianglediamonds.svg	stimuli_target_squarediamonds.svg	12	yes	57	0	142	0	0			0	0			1				0	
6.6.1	win	2023-06-02	08:00:23	08:36:55	2186861	6095fc75ab1d101e060d808b	3	1	main_z	11	main_z	69	stimuli_target_diamondsquares.svg	stimuli_distractor_trianglediamonds.svg	20	yes	44	1	775	0	0			0	0			1				0	
6.6.1	win	2023-06-02	08:00:23	08:36:55	2186861	6095fc75ab1d101e060d808b	3	1	main_z	11	advance_on_keypress_ZEE	70	stimuli_target_diamondsquares.svg	stimuli_distractor_trianglediamonds.svg	20	yes	57	0	256	0	0			0	0			1				0	
6.6.1	win	2023-06-02	08:00:23	08:36:58	2189753	6095fc75ab1d101e060d808b	3	1	main_z	11	main_z	71	stimuli_distractor_trianglediamonds.svg	stimuli_distractor_trianglediamonds.svg	34	no	0	1	2000	0	0			0	0			1				0	
6.6.1	win	2023-06-02	08:00:23	08:36:58	2189753	6095fc75ab1d101e060d808b	3	1	main_z	11	advance_on_keypress_ZEE	72	stimuli_distractor_trianglediamonds.svg	stimuli_distractor_trianglediamonds.svg	34	no	57	0	261	0	0			0	0			1				0	
6.6.1	win	2023-06-02	08:00:23	08:36:59	2191123	6095fc75ab1d101e060d808b	3	1	main_z	11	main_z	73	stimuli_distractor_diamondtriangles.svg	stimuli_target_rectanglediamonds.svg	14	yes	44	1	455	0	0			0	0			1				0	
6.6.1	win	2023-06-02	08:00:23	08:36:59	2191123	6095fc75ab1d101e060d808b	3	1	main_z	11	advance_on_keypress_ZEE	74	stimuli_distractor_diamondtriangles.svg	stimuli_target_rectanglediamonds.svg	14	yes	57	0	156	0	0			0	0			1				0	
6.6.1	win	2023-06-02	08:00:23	08:37:00	2192374	6095fc75ab1d101e060d808b	3	1	main_z	11	main_z	75	stimuli_target_rectangletriangles.svg	stimuli_distractor_diamondtriangles.svg	5	yes	44	1	455	0	0			0	0			1				0	
6.6.1	win	2023-06-02	08:00:23	08:37:00	2192374	6095fc75ab1d101e060d808b	3	1	main_z	11	advance_on_keypress_ZEE	76	stimuli_target_rectangletriangles.svg	stimuli_distractor_diamondtriangles.svg	5	yes	57	0	158	0	0			0	0			1				0	
6.6.1	win	2023-06-02	08:00:23	08:37:01	2193624	6095fc75ab1d101e060d808b	3	1	main_z	11	main_z	77	stimuli_distractor_trianglediamonds.svg	stimuli_target_rectanglediamonds.svg	10	yes	44	1	455	0	0			0	0			1				0	
6.6.1	win	2023-06-02	08:00:23	08:37:01	2193624	6095fc75ab1d101e060d808b	3	1	main_z	11	advance_on_keypress_ZEE	78	stimuli_distractor_trianglediamonds.svg	stimuli_target_rectanglediamonds.svg	10	yes	57	0	159	0	0			0	0			1				0	
6.6.1	win	2023-06-02	08:00:23	08:37:04	2196419	6095fc75ab1d101e060d808b	3	1	main_z	11	main_z	79	stimuli_distractor_diamondtriangles.svg	stimuli_distractor_diamondtriangles.svg	40	no	0	1	2000	0	0			0	0			1				0	
6.6.1	win	2023-06-02	08:00:23	08:37:04	2196419	6095fc75ab1d101e060d808b	3	1	main_z	11	advance_on_keypress_ZEE	80	stimuli_distractor_diamondtriangles.svg	stimuli_distractor_diamondtriangles.svg	40	no	57	0	251	0	0			0	0			1				0	
6.6.1	win	2023-06-02	08:00:23	08:37:07	2199319	6095fc75ab1d101e060d808b	3	1	main_z	11	main_z	81	stimuli_distractor_diamondtriangles.svg	stimuli_distractor_diamondtriangles.svg	39	no	0	1	2000	0	0			0	0			1				0	
6.6.1	win	2023-06-02	08:00:23	08:37:07	2199319	6095fc75ab1d101e060d808b	3	1	main_z	11	advance_on_keypress_ZEE	82	stimuli_distractor_diamondtriangles.svg	stimuli_distractor_diamondtriangles.svg	39	no	57	0	307	0	0			0	0			1				0	
6.6.1	win	2023-06-02	08:00:23	08:37:09	2200790	6095fc75ab1d101e060d808b	3	1	main_z	11	main_z	83	stimuli_target_trianglesquares.svg	stimuli_distractor_diamondtriangles.svg	22	yes	44	1	520	0	0			0	0			1				0	
6.6.1	win	2023-06-02	08:00:23	08:37:09	2200790	6095fc75ab1d101e060d808b	3	1	main_z	11	advance_on_keypress_ZEE	84	stimuli_target_trianglesquares.svg	stimuli_distractor_diamondtriangles.svg	22	yes	57	0	524	0	0			0	0			1				0	
6.6.1	win	2023-06-02	08:00:23	08:37:10	2202468	6095fc75ab1d101e060d808b	3	1	main_z	11	main_z	85	stimuli_target_rectanglediamonds.svg	stimuli_distractor_trianglediamonds.svg	2	yes	44	1	516	0	0			0	0			1				0	
6.6.1	win	2023-06-02	08:00:23	08:37:10	2202468	6095fc75ab1d101e060d808b	3	1	main_z	11	advance_on_keypress_ZEE	86	stimuli_target_rectanglediamonds.svg	stimuli_distractor_trianglediamonds.svg	2	yes	57	0	185	0	0			0	0			1				0	
6.6.1	win	2023-06-02	08:00:23	08:37:13	2205304	6095fc75ab1d101e060d808b	3	1	main_z	11	main_z	87	stimuli_distractor_trianglediamonds.svg	stimuli_distractor_diamondtriangles.svg	36	no	0	1	2000	0	0			0	0			1				0	
6.6.1	win	2023-06-02	08:00:23	08:37:13	2205304	6095fc75ab1d101e060d808b	3	1	main_z	11	advance_on_keypress_ZEE	88	stimuli_distractor_trianglediamonds.svg	stimuli_distractor_diamondtriangles.svg	36	no	57	0	212	0	0			0	0			1				0	
6.6.1	win	2023-06-02	08:00:23	08:37:15	2206920	6095fc75ab1d101e060d808b	3	1	main_z	11	main_z	89	stimuli_distractor_trianglediamonds.svg	stimuli_distractor_diamondtriangles.svg	35	no	44	0	751	0	0			0	0			1				0	
6.6.1	win	2023-06-02	08:00:23	08:37:15	2206920	6095fc75ab1d101e060d808b	3	1	main_z	11	advance_on_keypress_ZEE	90	stimuli_distractor_trianglediamonds.svg	stimuli_distractor_diamondtriangles.svg	35	no	57	0	245	0	0			0	0			1				0	
6.6.1	win	2023-06-02	08:00:23	08:37:18	2209819	6095fc75ab1d101e060d808b	3	1	main_z	11	main_z	91	stimuli_distractor_diamondtriangles.svg	stimuli_distractor_trianglediamonds.svg	38	no	0	1	2000	0	0			0	0			1				0	
6.6.1	win	2023-06-02	08:00:23	08:37:18	2209819	6095fc75ab1d101e060d808b	3	1	main_z	11	advance_on_keypress_ZEE	92	stimuli_distractor_diamondtriangles.svg	stimuli_distractor_trianglediamonds.svg	38	no	57	0	236	0	0			0	0			1				0	
6.6.1	win	2023-06-02	08:00:23	08:37:20	2212702	6095fc75ab1d101e060d808b	3	1	main_z	11	main_z	93	stimuli_distractor_trianglediamonds.svg	stimuli_distractor_trianglediamonds.svg	34	no	0	1	2000	0	0			0	0			1				0	
6.6.1	win	2023-06-02	08:00:23	08:37:20	2212702	6095fc75ab1d101e060d808b	3	1	main_z	11	advance_on_keypress_ZEE	94	stimuli_distractor_trianglediamonds.svg	stimuli_distractor_trianglediamonds.svg	34	no	57	0	191	0	0			0	0			1				0	
6.6.1	win	2023-06-02	08:00:23	08:37:22	2214032	6095fc75ab1d101e060d808b	3	1	main_z	11	main_z	95	stimuli_target_rectangletriangles.svg	stimuli_distractor_diamondtriangles.svg	5	yes	44	1	496	0	0			0	0			1				0	
6.6.1	win	2023-06-02	08:00:23	08:37:22	2214032	6095fc75ab1d101e060d808b	3	1	main_z	11	advance_on_keypress_ZEE	96	stimuli_target_rectangletriangles.svg	stimuli_distractor_diamondtriangles.svg	5	yes	57	0	387	0	0			0	0			1				0	
6.6.1	win	2023-06-02	08:00:23	08:37:24	2215753	6095fc75ab1d101e060d808b	3	1	main_z	11	main_z	97	stimuli_distractor_trianglediamonds.svg	stimuli_target_diamondrectangles.svg	27	yes	44	1	684	0	0			0	0			1				0	
6.6.1	win	2023-06-02	08:00:23	08:37:24	2215753	6095fc75ab1d101e060d808b	3	1	main_z	11	advance_on_keypress_ZEE	98	stimuli_distractor_trianglediamonds.svg	stimuli_target_diamondrectangles.svg	27	yes	57	0	235	0	0			0	0			1				0	
6.6.1	win	2023-06-02	08:00:23	08:37:25	2217202	6095fc75ab1d101e060d808b	3	1	main_z	11	main_z	99	stimuli_target_diamondsquares.svg	stimuli_distractor_trianglediamonds.svg	20	yes	44	1	566	0	0			0	0			1				0	
6.6.1	win	2023-06-02	08:00:23	08:37:25	2217202	6095fc75ab1d101e060d808b	3	1	main_z	11	advance_on_keypress_ZEE	100	stimuli_target_diamondsquares.svg	stimuli_distractor_trianglediamonds.svg	20	yes	57	0	198	0	0			0	0			1				0	
6.6.1	win	2023-06-02	08:00:23	08:37:26	2218622	6095fc75ab1d101e060d808b	3	1	main_z	11	main_z	101	stimuli_distractor_diamondtriangles.svg	stimuli_target_diamondrectangles.svg	31	yes	44	1	570	0	0			0	0			1				0	
6.6.1	win	2023-06-02	08:00:23	08:37:26	2218622	6095fc75ab1d101e060d808b	3	1	main_z	11	advance_on_keypress_ZEE	102	stimuli_distractor_diamondtriangles.svg	stimuli_target_diamondrectangles.svg	31	yes	57	0	191	0	0			0	0			1				0	
6.6.1	win	2023-06-02	08:00:23	08:37:29	2221452	6095fc75ab1d101e060d808b	3	1	main_z	11	main_z	103	stimuli_distractor_trianglediamonds.svg	stimuli_target_rectangletriangles.svg	9	yes	0	0	2000	0	0			0	0			1				0	
6.6.1	win	2023-06-02	08:00:23	08:37:29	2221452	6095fc75ab1d101e060d808b	3	1	main_z	11	advance_on_keypress_ZEE	104	stimuli_distractor_trianglediamonds.svg	stimuli_target_rectangletriangles.svg	9	yes	57	0	121	0	0			0	0			1				0	
6.6.1	win	2023-06-02	08:00:23	08:37:30	2222654	6095fc75ab1d101e060d808b	3	1	main_z	11	main_z	105	stimuli_target_trianglesquares.svg	stimuli_distractor_trianglediamonds.svg	18	yes	44	1	435	0	0			0	0			1				0	
6.6.1	win	2023-06-02	08:00:23	08:37:30	2222654	6095fc75ab1d101e060d808b	3	1	main_z	11	advance_on_keypress_ZEE	106	stimuli_target_trianglesquares.svg	stimuli_distractor_trianglediamonds.svg	18	yes	57	0	546	0	0			0	0			1				0	
6.6.1	win	2023-06-02	08:00:23	08:37:32	2224351	6095fc75ab1d101e060d808b	3	1	main_z	11	main_z	107	stimuli_distractor_diamondtriangles.svg	stimuli_target_diamondsquares.svg	32	yes	44	1	499	0	0			0	0			1				0	
6.6.1	win	2023-06-02	08:00:23	08:37:32	2224351	6095fc75ab1d101e060d808b	3	1	main_z	11	advance_on_keypress_ZEE	108	stimuli_distractor_diamondtriangles.svg	stimuli_target_diamondsquares.svg	32	yes	57	0	247	0	0			0	0			1				0	
6.6.1	win	2023-06-02	08:00:23	08:37:34	2225768	6095fc75ab1d101e060d808b	3	1	main_z	11	main_z	109	stimuli_target_diamondrectangles.svg	stimuli_distractor_diamondtriangles.svg	23	yes	44	1	505	0	0			0	0			1				0	
6.6.1	win	2023-06-02	08:00:23	08:37:34	2225768	6095fc75ab1d101e060d808b	3	1	main_z	11	advance_on_keypress_ZEE	110	stimuli_target_diamondrectangles.svg	stimuli_distractor_diamondtriangles.svg	23	yes	57	0	158	0	0			0	0			1				0	
6.6.1	win	2023-06-02	08:00:23	08:37:35	2227036	6095fc75ab1d101e060d808b	3	1	main_z	11	main_z	111	stimuli_target_diamondrectangles.svg	stimuli_distractor_trianglediamonds.svg	19	yes	44	1	467	0	0			0	0			1				0	
6.6.1	win	2023-06-02	08:00:23	08:37:35	2227036	6095fc75ab1d101e060d808b	3	1	main_z	11	advance_on_keypress_ZEE	112	stimuli_target_diamondrectangles.svg	stimuli_distractor_trianglediamonds.svg	19	yes	57	0	125	0	0			0	0			1				0	
6.6.1	win	2023-06-02	08:00:23	08:37:36	2228449	6095fc75ab1d101e060d808b	3	1	main_z	11	main_z	113	stimuli_distractor_trianglediamonds.svg	stimuli_target_rectanglediamonds.svg	10	yes	44	1	647	0	0			0	0			1				0	
6.6.1	win	2023-06-02	08:00:23	08:37:36	2228449	6095fc75ab1d101e060d808b	3	1	main_z	11	advance_on_keypress_ZEE	114	stimuli_distractor_trianglediamonds.svg	stimuli_target_rectanglediamonds.svg	10	yes	57	0	183	0	0			0	0			1				0	
6.6.1	win	2023-06-02	08:00:23	08:37:39	2231285	6095fc75ab1d101e060d808b	3	1	main_z	11	main_z	115	stimuli_distractor_diamondtriangles.svg	stimuli_distractor_trianglediamonds.svg	37	no	0	1	2000	0	0			0	0			1				0	
6.6.1	win	2023-06-02	08:00:23	08:37:39	2231285	6095fc75ab1d101e060d808b	3	1	main_z	11	advance_on_keypress_ZEE	116	stimuli_distractor_diamondtriangles.svg	stimuli_distractor_trianglediamonds.svg	37	no	57	0	226	0	0			0	0			1				0	
6.6.1	win	2023-06-02	08:00:23	08:37:40	2232642	6095fc75ab1d101e060d808b	3	1	main_z	11	main_z	117	stimuli_target_rectanglediamonds.svg	stimuli_distractor_diamondtriangles.svg	6	yes	44	1	490	0	0			0	0			1				0	
6.6.1	win	2023-06-02	08:00:23	08:37:40	2232642	6095fc75ab1d101e060d808b	3	1	main_z	11	advance_on_keypress_ZEE	118	stimuli_target_rectanglediamonds.svg	stimuli_distractor_diamondtriangles.svg	6	yes	57	0	162	0	0			0	0			1				0	
6.6.1	win	2023-06-02	08:00:23	08:37:42	2233974	6095fc75ab1d101e060d808b	3	1	main_z	11	main_z	119	stimuli_target_squaretriangles.svg	stimuli_distractor_diamondtriangles.svg	7	yes	44	1	522	0	0			0	0			1				0	
6.6.1	win	2023-06-02	08:00:23	08:37:42	2233974	6095fc75ab1d101e060d808b	3	1	main_z	11	advance_on_keypress_ZEE	120	stimuli_target_squaretriangles.svg	stimuli_distractor_diamondtriangles.svg	7	yes	57	0	221	0	0			0	0			1				0	
6.6.1	win	2023-06-02	08:00:23	08:37:43	2235363	6095fc75ab1d101e060d808b	3	1	main_z	11	main_z	121	stimuli_distractor_trianglediamonds.svg	stimuli_target_trianglerectangles.svg	25	yes	44	1	528	0	0			0	0			1				0	
6.6.1	win	2023-06-02	08:00:23	08:37:43	2235363	6095fc75ab1d101e060d808b	3	1	main_z	11	advance_on_keypress_ZEE	122	stimuli_distractor_trianglediamonds.svg	stimuli_target_trianglerectangles.svg	25	yes	57	0	150	0	0			0	0			1				0	
6.6.1	win	2023-06-02	08:00:23	08:37:46	2238169	6095fc75ab1d101e060d808b	3	1	main_z	11	main_z	123	stimuli_distractor_diamondtriangles.svg	stimuli_distractor_diamondtriangles.svg	40	no	0	1	2000	0	0			0	0			1				0	
6.6.1	win	2023-06-02	08:00:23	08:37:46	2238169	6095fc75ab1d101e060d808b	3	1	main_z	11	advance_on_keypress_ZEE	124	stimuli_distractor_diamondtriangles.svg	stimuli_distractor_diamondtriangles.svg	40	no	57	0	273	0	0			0	0			1				0	
6.6.1	win	2023-06-02	08:00:23	08:37:47	2239541	6095fc75ab1d101e060d808b	3	1	main_z	11	main_z	125	stimuli_distractor_diamondtriangles.svg	stimuli_target_trianglerectangles.svg	29	yes	44	1	456	0	0			0	0			1				0	
6.6.1	win	2023-06-02	08:00:23	08:37:47	2239541	6095fc75ab1d101e060d808b	3	1	main_z	11	advance_on_keypress_ZEE	126	stimuli_distractor_diamondtriangles.svg	stimuli_target_trianglerectangles.svg	29	yes	57	0	160	0	0			0	0			1				0	
6.6.1	win	2023-06-02	08:00:23	08:37:49	2240826	6095fc75ab1d101e060d808b	3	1	main_z	11	main_z	127	stimuli_target_squarediamonds.svg	stimuli_distractor_trianglediamonds.svg	4	yes	44	1	491	0	0			0	0			1				0	
6.6.1	win	2023-06-02	08:00:23	08:37:49	2240826	6095fc75ab1d101e060d808b	3	1	main_z	11	advance_on_keypress_ZEE	128	stimuli_target_squarediamonds.svg	stimuli_distractor_trianglediamonds.svg	4	yes	57	0	148	0	0			0	0			1				0	
6.6.1	win	2023-06-02	08:00:23	08:37:50	2242085	6095fc75ab1d101e060d808b	3	1	main_z	11	main_z	129	stimuli_distractor_trianglediamonds.svg	stimuli_target_trianglesquares.svg	26	yes	44	1	466	0	0			0	0			1				0	
6.6.1	win	2023-06-02	08:00:23	08:37:50	2242085	6095fc75ab1d101e060d808b	3	1	main_z	11	advance_on_keypress_ZEE	130	stimuli_distractor_trianglediamonds.svg	stimuli_target_trianglesquares.svg	26	yes	57	0	106	0	0			0	0			1				0	
6.6.1	win	2023-06-02	08:00:23	08:37:51	2243353	6095fc75ab1d101e060d808b	3	1	main_z	11	main_z	131	stimuli_distractor_trianglediamonds.svg	stimuli_target_diamondsquares.svg	28	yes	44	1	518	0	0			0	0			1				0	
6.6.1	win	2023-06-02	08:00:23	08:37:51	2243353	6095fc75ab1d101e060d808b	3	1	main_z	11	advance_on_keypress_ZEE	132	stimuli_distractor_trianglediamonds.svg	stimuli_target_diamondsquares.svg	28	yes	57	0	138	0	0			0	0			1				0	
6.6.1	win	2023-06-02	08:00:23	08:37:54	2246135	6095fc75ab1d101e060d808b	3	1	main_z	11	main_z	133	stimuli_distractor_diamondtriangles.svg	stimuli_target_rectanglediamonds.svg	14	yes	0	0	2000	0	0			0	0			1				0	
6.6.1	win	2023-06-02	08:00:23	08:37:54	2246135	6095fc75ab1d101e060d808b	3	1	main_z	11	advance_on_keypress_ZEE	134	stimuli_distractor_diamondtriangles.svg	stimuli_target_rectanglediamonds.svg	14	yes	57	0	185	0	0			0	0			1				0	
6.6.1	win	2023-06-02	08:00:23	08:37:55	2247726	6095fc75ab1d101e060d808b	3	1	main_z	11	main_z	135	stimuli_distractor_diamondtriangles.svg	stimuli_target_squaretriangles.svg	15	yes	44	1	756	0	0			0	0			1				0	
6.6.1	win	2023-06-02	08:00:23	08:37:55	2247726	6095fc75ab1d101e060d808b	3	1	main_z	11	advance_on_keypress_ZEE	136	stimuli_distractor_diamondtriangles.svg	stimuli_target_squaretriangles.svg	15	yes	57	0	444	0	0			0	0			1				0	
6.6.1	win	2023-06-02	08:00:23	08:37:57	2249256	6095fc75ab1d101e060d808b	3	1	main_z	11	main_z	137	stimuli_distractor_diamondtriangles.svg	stimuli_target_squarediamonds.svg	16	yes	44	1	437	0	0			0	0			1				0	
6.6.1	win	2023-06-02	08:00:23	08:37:57	2249256	6095fc75ab1d101e060d808b	3	1	main_z	11	advance_on_keypress_ZEE	138	stimuli_distractor_diamondtriangles.svg	stimuli_target_squarediamonds.svg	16	yes	57	0	190	0	0			0	0			1				0	
6.6.1	win	2023-06-02	08:00:23	08:37:59	2250808	6095fc75ab1d101e060d808b	3	1	main_z	11	main_z	139	stimuli_distractor_diamondtriangles.svg	stimuli_target_rectangletriangles.svg	13	yes	44	1	723	0	0			0	0			1				0	
6.6.1	win	2023-06-02	08:00:23	08:37:59	2250808	6095fc75ab1d101e060d808b	3	1	main_z	11	advance_on_keypress_ZEE	140	stimuli_distractor_diamondtriangles.svg	stimuli_target_rectangletriangles.svg	13	yes	57	0	254	0	0			0	0			1				0	
6.6.1	win	2023-06-02	08:00:23	08:38:00	2252134	6095fc75ab1d101e060d808b	3	1	main_z	11	main_z	141	stimuli_target_rectangletriangles.svg	stimuli_distractor_trianglediamonds.svg	1	yes	44	1	432	0	0			0	0			1				0	
6.6.1	win	2023-06-02	08:00:23	08:38:00	2252134	6095fc75ab1d101e060d808b	3	1	main_z	11	advance_on_keypress_ZEE	142	stimuli_target_rectangletriangles.svg	stimuli_distractor_trianglediamonds.svg	1	yes	57	0	151	0	0			0	0			1				0	
6.6.1	win	2023-06-02	08:00:23	08:38:01	2253584	6095fc75ab1d101e060d808b	3	1	main_z	11	main_z	143	stimuli_distractor_trianglediamonds.svg	stimuli_target_squaretriangles.svg	11	yes	44	1	649	0	0			0	0			1				0	
6.6.1	win	2023-06-02	08:00:23	08:38:01	2253584	6095fc75ab1d101e060d808b	3	1	main_z	11	advance_on_keypress_ZEE	144	stimuli_distractor_trianglediamonds.svg	stimuli_target_squaretriangles.svg	11	yes	57	0	183	0	0			0	0			1				0	
6.6.1	win	2023-06-02	08:00:23	08:38:04	2256419	6095fc75ab1d101e060d808b	3	1	main_z	11	main_z	145	stimuli_distractor_trianglediamonds.svg	stimuli_distractor_trianglediamonds.svg	33	no	0	1	2000	0	0			0	0			1				0	
6.6.1	win	2023-06-02	08:00:23	08:38:04	2256419	6095fc75ab1d101e060d808b	3	1	main_z	11	advance_on_keypress_ZEE	146	stimuli_distractor_trianglediamonds.svg	stimuli_distractor_trianglediamonds.svg	33	no	57	0	265	0	0			0	0			1				0	
6.6.1	win	2023-06-02	08:00:23	08:38:06	2257770	6095fc75ab1d101e060d808b	3	1	main_z	11	main_z	147	stimuli_distractor_trianglediamonds.svg	stimuli_target_squarediamonds.svg	12	yes	44	1	435	0	0			0	0			1				0	
6.6.1	win	2023-06-02	08:00:23	08:38:06	2257770	6095fc75ab1d101e060d808b	3	1	main_z	11	advance_on_keypress_ZEE	148	stimuli_distractor_trianglediamonds.svg	stimuli_target_squarediamonds.svg	12	yes	57	0	219	0	0			0	0			1				0	
6.6.1	win	2023-06-02	08:00:23	08:38:07	2259071	6095fc75ab1d101e060d808b	3	1	main_z	11	main_z	149	stimuli_target_squarediamonds.svg	stimuli_distractor_diamondtriangles.svg	8	yes	44	1	436	0	0			0	0			1				0	
6.6.1	win	2023-06-02	08:00:23	08:38:07	2259071	6095fc75ab1d101e060d808b	3	1	main_z	11	advance_on_keypress_ZEE	150	stimuli_target_squarediamonds.svg	stimuli_distractor_diamondtriangles.svg	8	yes	57	0	112	0	0			0	0			1				0	
6.6.1	win	2023-06-02	08:00:23	08:38:08	2260352	6095fc75ab1d101e060d808b	3	1	main_z	11	main_z	151	stimuli_target_diamondsquares.svg	stimuli_distractor_diamondtriangles.svg	24	yes	44	1	515	0	0			0	0			1				0	
6.6.1	win	2023-06-02	08:00:23	08:38:08	2260352	6095fc75ab1d101e060d808b	3	1	main_z	11	advance_on_keypress_ZEE	152	stimuli_target_diamondsquares.svg	stimuli_distractor_diamondtriangles.svg	24	yes	57	0	153	0	0			0	0			1				0	
6.6.1	win	2023-06-02	08:00:23	08:38:09	2261651	6095fc75ab1d101e060d808b	3	1	main_z	11	main_z	153	stimuli_distractor_diamondtriangles.svg	stimuli_target_trianglesquares.svg	30	yes	44	1	499	0	0			0	0			1				0	
6.6.1	win	2023-06-02	08:00:23	08:38:09	2261651	6095fc75ab1d101e060d808b	3	1	main_z	11	advance_on_keypress_ZEE	154	stimuli_distractor_diamondtriangles.svg	stimuli_target_trianglesquares.svg	30	yes	57	0	93	0	0			0	0			1				0	
6.6.1	win	2023-06-02	08:00:23	08:38:11	2262885	6095fc75ab1d101e060d808b	3	1	main_z	11	main_z	155	stimuli_target_trianglerectangles.svg	stimuli_distractor_diamondtriangles.svg	21	yes	44	1	500	0	0			0	0			1				0	
6.6.1	win	2023-06-02	08:00:23	08:38:11	2262885	6095fc75ab1d101e060d808b	3	1	main_z	11	advance_on_keypress_ZEE	156	stimuli_target_trianglerectangles.svg	stimuli_distractor_diamondtriangles.svg	21	yes	57	0	142	0	0			0	0			1				0	
6.6.1	win	2023-06-02	08:00:23	08:38:12	2264156	6095fc75ab1d101e060d808b	3	1	main_z	11	main_z	157	stimuli_target_trianglerectangles.svg	stimuli_distractor_trianglediamonds.svg	17	yes	44	1	486	0	0			0	0			1				0	
6.6.1	win	2023-06-02	08:00:23	08:38:12	2264156	6095fc75ab1d101e060d808b	3	1	main_z	11	advance_on_keypress_ZEE	158	stimuli_target_trianglerectangles.svg	stimuli_distractor_trianglediamonds.svg	17	yes	57	0	89	0	0			0	0			1				0	
6.6.1	win	2023-06-02	08:00:23	08:38:13	2265452	6095fc75ab1d101e060d808b	3	1	main_z	11	main_z	159	stimuli_target_squaretriangles.svg	stimuli_distractor_trianglediamonds.svg	3	yes	44	1	567	0	0			0	0			1				0	
6.6.1	win	2023-06-02	08:00:23	08:38:13	2265452	6095fc75ab1d101e060d808b	3	1	main_z	11	advance_on_keypress_ZEE	160	stimuli_target_squaretriangles.svg	stimuli_distractor_trianglediamonds.svg	3	yes	57	0	123	0	0			0	0			1				0	
6.6.1	win	2023-06-02	08:00:23	08:38:13	2265452	6095fc75ab1d101e060d808b	3	1	headphonecheck_calibration	14	headphonecheck_calibrationIntro	1	stimuli_target_squaretriangles.svg	stimuli_distractor_trianglediamonds.svg	3	yes	calibrationButton	0	2956	0	0			0	0			1				0	
6.6.1	win	2023-06-02	08:00:23	08:38:13	2265452	6095fc75ab1d101e060d808b	3	1	headphonecheck_testphase	15	test_collectResponse	3	stimuli_target_squaretriangles.svg	stimuli_distractor_trianglediamonds.svg	3	yes	second	0	1895	1	6	antiphase_hc_ois.wav	3	0	0			1				0	
6.6.1	win	2023-06-02	08:00:23	08:38:13	2265452	6095fc75ab1d101e060d808b	3	1	headphonecheck_testphase	15	test_collectResponse	6	stimuli_target_squaretriangles.svg	stimuli_distractor_trianglediamonds.svg	3	yes	first	0	192	2	5	antiphase_hc_osi.wav	2	0	0			1				0	
6.6.1	win	2023-06-02	08:00:23	08:38:13	2265452	6095fc75ab1d101e060d808b	3	1	headphonecheck_testphase	15	test_collectResponse	9	stimuli_target_squaretriangles.svg	stimuli_distractor_trianglediamonds.svg	3	yes	first	1	146	3	3	antiphase_hc_soi.wav	1	0	0			1				0	
6.6.1	win	2023-06-02	08:00:23	08:38:13	2265452	6095fc75ab1d101e060d808b	3	1	headphonecheck_testphase	15	test_collectResponse	12	stimuli_target_squaretriangles.svg	stimuli_distractor_trianglediamonds.svg	3	yes	third	0	184	4	4	antiphase_hc_sio.wav	1	0	0			1				0	
6.6.1	win	2023-06-02	08:00:23	08:38:13	2265452	6095fc75ab1d101e060d808b	3	1	headphonecheck_testphase	15	test_collectResponse	15	stimuli_target_squaretriangles.svg	stimuli_distractor_trianglediamonds.svg	3	yes	third	1	367	5	2	antiphase_hc_ios.wav	3	0	0			1				0	
6.6.1	win	2023-06-02	08:00:23	08:38:13	2265452	6095fc75ab1d101e060d808b	3	1	headphonecheck_testphase	15	test_collectResponse	18	stimuli_target_squaretriangles.svg	stimuli_distractor_trianglediamonds.svg	3	yes	third	0	201	6	1	antiphase_hc_iso.wav	2	0	0			1				0	
6.6.1	win	2023-06-02	08:00:23	08:38:13	2265452	6095fc75ab1d101e060d808b	3	1	stereocheck_calibration	17	stereocheck_calibrationIntro	1	stimuli_target_squaretriangles.svg	stimuli_distractor_trianglediamonds.svg	3	yes	stereocheck_calibrationButton	0	7306	6	1	antiphase_hc_iso.wav	2	0	0			1				0	
6.6.1	win	2023-06-02	08:00:23	08:38:13	2265452	6095fc75ab1d101e060d808b	3	1	stereocheck_testphase	18	stereocheck_test_collectResponse	3	stimuli_target_squaretriangles.svg	stimuli_distractor_trianglediamonds.svg	3	yes	stereocheck_left	1	858	6	1	antiphase_hc_iso.wav	2	1	1	noise_calib_stim_LEFT.wav	1	1				0	
6.6.1	win	2023-06-02	08:00:23	08:38:13	2265452	6095fc75ab1d101e060d808b	3	1	stereocheck_testphase	18	stereocheck_test_collectResponse	6	stimuli_target_squaretriangles.svg	stimuli_distractor_trianglediamonds.svg	3	yes	stereocheck_right	1	889	6	1	antiphase_hc_iso.wav	2	2	5	noise_calib_stim_RIGHT.wav	2	1				0	
6.6.1	win	2023-06-02	08:00:23	08:38:13	2265452	6095fc75ab1d101e060d808b	3	1	stereocheck_testphase	18	stereocheck_test_collectResponse	9	stimuli_target_squaretriangles.svg	stimuli_distractor_trianglediamonds.svg	3	yes	stereocheck_right	1	327	6	1	antiphase_hc_iso.wav	2	3	6	noise_calib_stim_RIGHT.wav	2	1				0	
6.6.1	win	2023-06-02	08:00:23	08:38:13	2265452	6095fc75ab1d101e060d808b	3	1	stereocheck_testphase	18	stereocheck_test_collectResponse	12	stimuli_target_squaretriangles.svg	stimuli_distractor_trianglediamonds.svg	3	yes	stereocheck_left	1	438	6	1	antiphase_hc_iso.wav	2	4	3	noise_calib_stim_LEFT.wav	1	1				0	
6.6.1	win	2023-06-02	08:00:23	08:38:13	2265452	6095fc75ab1d101e060d808b	3	1	stereocheck_testphase	18	stereocheck_test_collectResponse	15	stimuli_target_squaretriangles.svg	stimuli_distractor_trianglediamonds.svg	3	yes	stereocheck_left	1	192	6	1	antiphase_hc_iso.wav	2	5	2	noise_calib_stim_LEFT.wav	1	1				0	
6.6.1	win	2023-06-02	08:00:23	08:38:13	2265452	6095fc75ab1d101e060d808b	3	1	stereocheck_testphase	18	stereocheck_test_collectResponse	18	stimuli_target_squaretriangles.svg	stimuli_distractor_trianglediamonds.svg	3	yes	stereocheck_right	1	314	6	1	antiphase_hc_iso.wav	2	6	4	noise_calib_stim_RIGHT.wav	2	1				0	
6.6.1	win	2023-06-02	08:00:23	08:38:13	2265452	6095fc75ab1d101e060d808b	3	1	DL_practice	21	DL_practice	2	stimuli_target_squaretriangles.svg	stimuli_distractor_trianglediamonds.svg	3	yes	pa	1	2519	6	1	antiphase_hc_iso.wav	2	6	4	noise_calib_stim_RIGHT.wav	2	29	blb_dichoticlistening_pa-pa.mp3	pa	pa	0	left
6.6.1	win	2023-06-02	08:00:23	08:38:13	2265452	6095fc75ab1d101e060d808b	3	1	DL_practice	21	DL_practice	3	stimuli_target_squaretriangles.svg	stimuli_distractor_trianglediamonds.svg	3	yes	ba	0	3041	6	1	antiphase_hc_iso.wav	2	6	4	noise_calib_stim_RIGHT.wav	2	15	blb_dichoticlistening_ga-ga.mp3	ga	ga	0	other
6.6.1	win	2023-06-02	08:00:23	08:38:13	2265452	6095fc75ab1d101e060d808b	3	1	DL_practice	21	DL_practice	4	stimuli_target_squaretriangles.svg	stimuli_distractor_trianglediamonds.svg	3	yes	ka	1	1077	6	1	antiphase_hc_iso.wav	2	6	4	noise_calib_stim_RIGHT.wav	2	22	blb_dichoticlistening_ka-ka.mp3	ka	ka	0	left
6.6.1	win	2023-06-02	08:00:23	08:38:13	2265452	6095fc75ab1d101e060d808b	3	1	DL_practice	21	DL_practice	5	stimuli_target_squaretriangles.svg	stimuli_distractor_trianglediamonds.svg	3	yes	da	0	2382	6	1	antiphase_hc_iso.wav	2	6	4	noise_calib_stim_RIGHT.wav	2	1	blb_dichoticlistening_ba-ba.mp3	ba	ba	0	other
6.6.1	win	2023-06-02	08:00:23	08:38:13	2265452	6095fc75ab1d101e060d808b	3	1	DL_practice	21	DL_practice	6	stimuli_target_squaretriangles.svg	stimuli_distractor_trianglediamonds.svg	3	yes	ta	0	3071	6	1	antiphase_hc_iso.wav	2	6	4	noise_calib_stim_RIGHT.wav	2	8	blb_dichoticlistening_da-da.mp3	da	da	0	other
6.6.1	win	2023-06-02	08:00:23	08:38:13	2265452	6095fc75ab1d101e060d808b	3	1	DL_practice	21	DL_practice	7	stimuli_target_squaretriangles.svg	stimuli_distractor_trianglediamonds.svg	3	yes	ka	0	1857	6	1	antiphase_hc_iso.wav	2	6	4	noise_calib_stim_RIGHT.wav	2	7	blb_dichoticlistening_da-ba.mp3	da	ba	1	other
6.6.1	win	2023-06-02	08:00:23	08:38:13	2265452	6095fc75ab1d101e060d808b	3	1	DL_practice	21	DL_practice	8	stimuli_target_squaretriangles.svg	stimuli_distractor_trianglediamonds.svg	3	yes	ga	1	1140	6	1	antiphase_hc_iso.wav	2	6	4	noise_calib_stim_RIGHT.wav	2	18	blb_dichoticlistening_ga-ta.mp3	ga	ta	1	left
6.6.1	win	2023-06-02	08:00:23	08:38:13	2265452	6095fc75ab1d101e060d808b	3	1	DL_practice	21	DL_practice	9	stimuli_target_squaretriangles.svg	stimuli_distractor_trianglediamonds.svg	3	yes	pa	0	1015	6	1	antiphase_hc_iso.wav	2	6	4	noise_calib_stim_RIGHT.wav	2	36	blb_dichoticlistening_ta-ta.mp3	ta	ta	0	other
6.6.1	win	2023-06-02	08:00:23	08:38:13	2265452	6095fc75ab1d101e060d808b	3	1	DL_practice	21	DL_practice	10	stimuli_target_squaretriangles.svg	stimuli_distractor_trianglediamonds.svg	3	yes	pa	1	913	6	1	antiphase_hc_iso.wav	2	6	4	noise_calib_stim_RIGHT.wav	2	23	blb_dichoticlistening_ka-pa.mp3	ka	pa	1	right
6.6.1	win	2023-06-02	08:00:23	08:38:13	2265452	6095fc75ab1d101e060d808b	3	1	DL_test	23	DL_test	1	stimuli_target_squaretriangles.svg	stimuli_distractor_trianglediamonds.svg	3	yes	pa	0	907	6	1	antiphase_hc_iso.wav	2	6	4	noise_calib_stim_RIGHT.wav	2	34	blb_dichoticlistening_ta-ka.mp3	ta	ka	1	other
6.6.1	win	2023-06-02	08:00:23	08:38:13	2265452	6095fc75ab1d101e060d808b	3	1	DL_test	23	DL_test	2	stimuli_target_squaretriangles.svg	stimuli_distractor_trianglediamonds.svg	3	yes	ka	1	965	6	1	antiphase_hc_iso.wav	2	6	4	noise_calib_stim_RIGHT.wav	2	20	blb_dichoticlistening_ka-da.mp3	ka	da	1	left
6.6.1	win	2023-06-02	08:00:23	08:38:13	2265452	6095fc75ab1d101e060d808b	3	1	DL_test	23	DL_test	3	stimuli_target_squaretriangles.svg	stimuli_distractor_trianglediamonds.svg	3	yes	ta	1	1011	6	1	antiphase_hc_iso.wav	2	6	4	noise_calib_stim_RIGHT.wav	2	32	blb_dichoticlistening_ta-da.mp3	ta	da	1	left
6.6.1	win	2023-06-02	08:00:23	08:38:13	2265452	6095fc75ab1d101e060d808b	3	1	DL_test	23	DL_test	4	stimuli_target_squaretriangles.svg	stimuli_distractor_trianglediamonds.svg	3	yes	ga	1	821	6	1	antiphase_hc_iso.wav	2	6	4	noise_calib_stim_RIGHT.wav	2	14	blb_dichoticlistening_ga-da.mp3	ga	da	1	left
6.6.1	win	2023-06-02	08:00:23	08:38:13	2265452	6095fc75ab1d101e060d808b	3	1	DL_test	23	DL_test	5	stimuli_target_squaretriangles.svg	stimuli_distractor_trianglediamonds.svg	3	yes	pa	0	1096	6	1	antiphase_hc_iso.wav	2	6	4	noise_calib_stim_RIGHT.wav	2	2	blb_dichoticlistening_ba-da.mp3	ba	da	1	other
6.6.1	win	2023-06-02	08:00:23	08:38:13	2265452	6095fc75ab1d101e060d808b	3	1	DL_test	23	DL_test	6	stimuli_target_squaretriangles.svg	stimuli_distractor_trianglediamonds.svg	3	yes	ka	0	1006	6	1	antiphase_hc_iso.wav	2	6	4	noise_calib_stim_RIGHT.wav	2	8	blb_dichoticlistening_da-da.mp3	da	da	0	other
6.6.1	win	2023-06-02	08:00:23	08:38:13	2265452	6095fc75ab1d101e060d808b	3	1	DL_test	23	DL_test	7	stimuli_target_squaretriangles.svg	stimuli_distractor_trianglediamonds.svg	3	yes	pa	1	1763	6	1	antiphase_hc_iso.wav	2	6	4	noise_calib_stim_RIGHT.wav	2	26	blb_dichoticlistening_pa-da.mp3	pa	da	1	left
6.6.1	win	2023-06-02	08:00:23	08:38:13	2265452	6095fc75ab1d101e060d808b	3	1	DL_test	23	DL_test	8	stimuli_target_squaretriangles.svg	stimuli_distractor_trianglediamonds.svg	3	yes	ka	0	1633	6	1	antiphase_hc_iso.wav	2	6	4	noise_calib_stim_RIGHT.wav	2	18	blb_dichoticlistening_ga-ta.mp3	ga	ta	1	other
6.6.1	win	2023-06-02	08:00:23	08:38:13	2265452	6095fc75ab1d101e060d808b	3	1	DL_test	23	DL_test	9	stimuli_target_squaretriangles.svg	stimuli_distractor_trianglediamonds.svg	3	yes	ga	1	1158	6	1	antiphase_hc_iso.wav	2	6	4	noise_calib_stim_RIGHT.wav	2	27	blb_dichoticlistening_pa-ga.mp3	pa	ga	1	right
6.6.1	win	2023-06-02	08:00:23	08:38:13	2265452	6095fc75ab1d101e060d808b	3	1	DL_test	23	DL_test	10	stimuli_target_squaretriangles.svg	stimuli_distractor_trianglediamonds.svg	3	yes	ka	1	819	6	1	antiphase_hc_iso.wav	2	6	4	noise_calib_stim_RIGHT.wav	2	28	blb_dichoticlistening_pa-ka.mp3	pa	ka	1	right
6.6.1	win	2023-06-02	08:00:23	08:38:13	2265452	6095fc75ab1d101e060d808b	3	1	DL_test	23	DL_test	11	stimuli_target_squaretriangles.svg	stimuli_distractor_trianglediamonds.svg	3	yes	ka	0	868	6	1	antiphase_hc_iso.wav	2	6	4	noise_calib_stim_RIGHT.wav	2	36	blb_dichoticlistening_ta-ta.mp3	ta	ta	0	other
6.6.1	win	2023-06-02	08:00:23	08:38:13	2265452	6095fc75ab1d101e060d808b	3	1	DL_test	23	DL_test	12	stimuli_target_squaretriangles.svg	stimuli_distractor_trianglediamonds.svg	3	yes	pa	0	1310	6	1	antiphase_hc_iso.wav	2	6	4	noise_calib_stim_RIGHT.wav	2	13	blb_dichoticlistening_ga-ba.mp3	ga	ba	1	other
6.6.1	win	2023-06-02	08:00:23	08:38:13	2265452	6095fc75ab1d101e060d808b	3	1	DL_test	23	DL_test	13	stimuli_target_squaretriangles.svg	stimuli_distractor_trianglediamonds.svg	3	yes	ta	0	1518	6	1	antiphase_hc_iso.wav	2	6	4	noise_calib_stim_RIGHT.wav	2	25	blb_dichoticlistening_pa-ba.mp3	pa	ba	1	other
6.6.1	win	2023-06-02	08:00:23	08:38:13	2265452	6095fc75ab1d101e060d808b	3	1	DL_test	23	DL_test	14	stimuli_target_squaretriangles.svg	stimuli_distractor_trianglediamonds.svg	3	yes	da	1	1020	6	1	antiphase_hc_iso.wav	2	6	4	noise_calib_stim_RIGHT.wav	2	10	blb_dichoticlistening_da-ka.mp3	da	ka	1	left
6.6.1	win	2023-06-02	08:00:23	08:38:13	2265452	6095fc75ab1d101e060d808b	3	1	DL_test	23	DL_test	15	stimuli_target_squaretriangles.svg	stimuli_distractor_trianglediamonds.svg	3	yes	pa	1	1222	6	1	antiphase_hc_iso.wav	2	6	4	noise_calib_stim_RIGHT.wav	2	11	blb_dichoticlistening_da-pa.mp3	da	pa	1	right
6.6.1	win	2023-06-02	08:00:23	08:38:13	2265452	6095fc75ab1d101e060d808b	3	1	DL_test	23	DL_test	16	stimuli_target_squaretriangles.svg	stimuli_distractor_trianglediamonds.svg	3	yes	ka	1	826	6	1	antiphase_hc_iso.wav	2	6	4	noise_calib_stim_RIGHT.wav	2	19	blb_dichoticlistening_ka-ba.mp3	ka	ba	1	left
6.6.1	win	2023-06-02	08:00:23	08:38:13	2265452	6095fc75ab1d101e060d808b	3	1	DL_test	23	DL_test	17	stimuli_target_squaretriangles.svg	stimuli_distractor_trianglediamonds.svg	3	yes	ga	0	708	6	1	antiphase_hc_iso.wav	2	6	4	noise_calib_stim_RIGHT.wav	2	7	blb_dichoticlistening_da-ba.mp3	da	ba	1	other
6.6.1	win	2023-06-02	08:00:23	08:38:13	2265452	6095fc75ab1d101e060d808b	3	1	DL_test	23	DL_test	18	stimuli_target_squaretriangles.svg	stimuli_distractor_trianglediamonds.svg	3	yes	pa	1	869	6	1	antiphase_hc_iso.wav	2	6	4	noise_calib_stim_RIGHT.wav	2	17	blb_dichoticlistening_ga-pa.mp3	ga	pa	1	right
6.6.1	win	2023-06-02	08:00:23	08:38:13	2265452	6095fc75ab1d101e060d808b	3	1	DL_test	23	DL_test	19	stimuli_target_squaretriangles.svg	stimuli_distractor_trianglediamonds.svg	3	yes	ta	1	785	6	1	antiphase_hc_iso.wav	2	6	4	noise_calib_stim_RIGHT.wav	2	33	blb_dichoticlistening_ta-ga.mp3	ta	ga	1	left
6.6.1	win	2023-06-02	08:00:23	08:38:13	2265452	6095fc75ab1d101e060d808b	3	1	DL_test	23	DL_test	20	stimuli_target_squaretriangles.svg	stimuli_distractor_trianglediamonds.svg	3	yes	da	0	1934	6	1	antiphase_hc_iso.wav	2	6	4	noise_calib_stim_RIGHT.wav	2	1	blb_dichoticlistening_ba-ba.mp3	ba	ba	0	other
6.6.1	win	2023-06-02	08:00:23	08:38:13	2265452	6095fc75ab1d101e060d808b	3	1	DL_test	23	DL_test	21	stimuli_target_squaretriangles.svg	stimuli_distractor_trianglediamonds.svg	3	yes	ga	1	948	6	1	antiphase_hc_iso.wav	2	6	4	noise_calib_stim_RIGHT.wav	2	9	blb_dichoticlistening_da-ga.mp3	da	ga	1	right
6.6.1	win	2023-06-02	08:00:23	08:38:13	2265452	6095fc75ab1d101e060d808b	3	1	DL_test	23	DL_test	22	stimuli_target_squaretriangles.svg	stimuli_distractor_trianglediamonds.svg	3	yes	pa	0	987	6	1	antiphase_hc_iso.wav	2	6	4	noise_calib_stim_RIGHT.wav	2	22	blb_dichoticlistening_ka-ka.mp3	ka	ka	0	other
6.6.1	win	2023-06-02	08:00:23	08:38:13	2265452	6095fc75ab1d101e060d808b	3	1	DL_test	23	DL_test	23	stimuli_target_squaretriangles.svg	stimuli_distractor_trianglediamonds.svg	3	yes	ka	0	883	6	1	antiphase_hc_iso.wav	2	6	4	noise_calib_stim_RIGHT.wav	2	6	blb_dichoticlistening_ba-ta.mp3	ba	ta	1	other
6.6.1	win	2023-06-02	08:00:23	08:38:13	2265452	6095fc75ab1d101e060d808b	3	1	DL_test	23	DL_test	24	stimuli_target_squaretriangles.svg	stimuli_distractor_trianglediamonds.svg	3	yes	ba	0	1723	6	1	antiphase_hc_iso.wav	2	6	4	noise_calib_stim_RIGHT.wav	2	30	blb_dichoticlistening_pa-ta.mp3	pa	ta	1	other
6.6.1	win	2023-06-02	08:00:23	08:38:13	2265452	6095fc75ab1d101e060d808b	3	1	DL_test	23	DL_test	25	stimuli_target_squaretriangles.svg	stimuli_distractor_trianglediamonds.svg	3	yes	ba	1	1358	6	1	antiphase_hc_iso.wav	2	6	4	noise_calib_stim_RIGHT.wav	2	4	blb_dichoticlistening_ba-ka.mp3	ba	ka	1	left
