build	computer.platform	date	time	timestamp	time_elapsed_ms	subject	group	session	blockcode	blocknum	trialcode	trialnum	stimulus_left	stimulus_right	stim_index	target_present	response	correct	latency	headphonecheck_countTestTrials	headphonecheck_index	headphonecheck_testSound	headphonecheck_correctResponse	stereocheck_countTestTrials	stereocheck_index	stereocheck_testSound	stereocheck_correctResponse	DL_index	DL_soundfile	DL_leftSound	DL_rightSound	DL_dualSound	DL_choice
6.6.1	win	2023-06-26	18:22:34	0	0	5f5b27db857807236ee3e3f3	2	1	headphonecheck_calibration	4	headphonecheck_calibrationIntro	1			0		calibrationButton	0	874	0	0			0	0			1				0	
6.6.1	win	2023-06-26	18:22:34	0	0	5f5b27db857807236ee3e3f3	2	1	headphonecheck_testphase	5	test_collectResponse	3			0		second	1	1083	1	1	antiphase_hc_iso.wav	2	0	0			1				0	
6.6.1	win	2023-06-26	18:22:34	0	0	5f5b27db857807236ee3e3f3	2	1	headphonecheck_testphase	5	test_collectResponse	6			0		second	1	624	2	5	antiphase_hc_osi.wav	2	0	0			1				0	
6.6.1	win	2023-06-26	18:22:34	0	0	5f5b27db857807236ee3e3f3	2	1	headphonecheck_testphase	5	test_collectResponse	9			0		first	1	328	3	4	antiphase_hc_sio.wav	1	0	0			1				0	
6.6.1	win	2023-06-26	18:22:34	0	0	5f5b27db857807236ee3e3f3	2	1	headphonecheck_testphase	5	test_collectResponse	12			0		first	1	421	4	3	antiphase_hc_soi.wav	1	0	0			1				0	
6.6.1	win	2023-06-26	18:22:34	0	0	5f5b27db857807236ee3e3f3	2	1	headphonecheck_testphase	5	test_collectResponse	15			0		third	1	316	5	6	antiphase_hc_ois.wav	3	0	0			1				0	
6.6.1	win	2023-06-26	18:22:34	0	0	5f5b27db857807236ee3e3f3	2	1	headphonecheck_testphase	5	test_collectResponse	18			0		third	1	370	6	2	antiphase_hc_ios.wav	3	0	0			1				0	
6.6.1	win	2023-06-26	18:22:34	0	0	5f5b27db857807236ee3e3f3	2	1	stereocheck_calibration	7	stereocheck_calibrationIntro	1			0		stereocheck_calibrationButton	0	1903	6	2	antiphase_hc_ios.wav	3	0	0			1				0	
6.6.1	win	2023-06-26	18:22:34	0	0	5f5b27db857807236ee3e3f3	2	1	stereocheck_testphase	8	stereocheck_test_collectResponse	3			0		stereocheck_right	1	328	6	2	antiphase_hc_ios.wav	3	1	5	noise_calib_stim_RIGHT.wav	2	1				0	
6.6.1	win	2023-06-26	18:22:34	0	0	5f5b27db857807236ee3e3f3	2	1	stereocheck_testphase	8	stereocheck_test_collectResponse	6			0		stereocheck_right	1	282	6	2	antiphase_hc_ios.wav	3	2	6	noise_calib_stim_RIGHT.wav	2	1				0	
6.6.1	win	2023-06-26	18:22:34	0	0	5f5b27db857807236ee3e3f3	2	1	stereocheck_testphase	8	stereocheck_test_collectResponse	9			0		stereocheck_left	1	200	6	2	antiphase_hc_ios.wav	3	3	2	noise_calib_stim_LEFT.wav	1	1				0	
6.6.1	win	2023-06-26	18:22:34	0	0	5f5b27db857807236ee3e3f3	2	1	stereocheck_testphase	8	stereocheck_test_collectResponse	12			0		stereocheck_right	1	258	6	2	antiphase_hc_ios.wav	3	4	4	noise_calib_stim_RIGHT.wav	2	1				0	
6.6.1	win	2023-06-26	18:22:34	0	0	5f5b27db857807236ee3e3f3	2	1	stereocheck_testphase	8	stereocheck_test_collectResponse	15			0		stereocheck_left	1	246	6	2	antiphase_hc_ios.wav	3	5	3	noise_calib_stim_LEFT.wav	1	1				0	
6.6.1	win	2023-06-26	18:22:34	0	0	5f5b27db857807236ee3e3f3	2	1	stereocheck_testphase	8	stereocheck_test_collectResponse	18			0		stereocheck_left	1	263	6	2	antiphase_hc_ios.wav	3	6	1	noise_calib_stim_LEFT.wav	1	1				0	
6.6.1	win	2023-06-26	18:22:34	0	0	5f5b27db857807236ee3e3f3	2	1	DL_practice	11	DL_practice	2			0		ka	1	872	6	2	antiphase_hc_ios.wav	3	6	1	noise_calib_stim_LEFT.wav	1	22	blb_dichoticlistening_ka-ka.mp3	ka	ka	0	left
6.6.1	win	2023-06-26	18:22:34	0	0	5f5b27db857807236ee3e3f3	2	1	DL_practice	11	DL_practice	3			0		pa	1	1051	6	2	antiphase_hc_ios.wav	3	6	1	noise_calib_stim_LEFT.wav	1	29	blb_dichoticlistening_pa-pa.mp3	pa	pa	0	left
6.6.1	win	2023-06-26	18:22:34	0	0	5f5b27db857807236ee3e3f3	2	1	DL_practice	11	DL_practice	4			0		ka	1	1374	6	2	antiphase_hc_ios.wav	3	6	1	noise_calib_stim_LEFT.wav	1	23	blb_dichoticlistening_ka-pa.mp3	ka	pa	1	left
6.6.1	win	2023-06-26	18:22:34	0	0	5f5b27db857807236ee3e3f3	2	1	DL_practice	11	DL_practice	5			0		da	1	1162	6	2	antiphase_hc_ios.wav	3	6	1	noise_calib_stim_LEFT.wav	1	8	blb_dichoticlistening_da-da.mp3	da	da	0	left
6.6.1	win	2023-06-26	18:22:34	0	0	5f5b27db857807236ee3e3f3	2	1	DL_practice	11	DL_practice	6			0		ga	1	1335	6	2	antiphase_hc_ios.wav	3	6	1	noise_calib_stim_LEFT.wav	1	15	blb_dichoticlistening_ga-ga.mp3	ga	ga	0	left
6.6.1	win	2023-06-26	18:22:34	0	0	5f5b27db857807236ee3e3f3	2	1	DL_practice	11	DL_practice	7			0		ba	1	1268	6	2	antiphase_hc_ios.wav	3	6	1	noise_calib_stim_LEFT.wav	1	1	blb_dichoticlistening_ba-ba.mp3	ba	ba	0	left
6.6.1	win	2023-06-26	18:22:34	0	0	5f5b27db857807236ee3e3f3	2	1	DL_practice	11	DL_practice	8			0		ba	1	1056	6	2	antiphase_hc_ios.wav	3	6	1	noise_calib_stim_LEFT.wav	1	7	blb_dichoticlistening_da-ba.mp3	da	ba	1	right
6.6.1	win	2023-06-26	18:22:34	0	0	5f5b27db857807236ee3e3f3	2	1	DL_practice	11	DL_practice	9			0		ta	1	1148	6	2	antiphase_hc_ios.wav	3	6	1	noise_calib_stim_LEFT.wav	1	36	blb_dichoticlistening_ta-ta.mp3	ta	ta	0	left
6.6.1	win	2023-06-26	18:22:34	0	0	5f5b27db857807236ee3e3f3	2	1	DL_practice	11	DL_practice	10			0		ta	1	931	6	2	antiphase_hc_ios.wav	3	6	1	noise_calib_stim_LEFT.wav	1	18	blb_dichoticlistening_ga-ta.mp3	ga	ta	1	right
6.6.1	win	2023-06-26	18:22:34	0	0	5f5b27db857807236ee3e3f3	2	1	DL_test	13	DL_test	1			0		pa	1	1004	6	2	antiphase_hc_ios.wav	3	6	1	noise_calib_stim_LEFT.wav	1	29	blb_dichoticlistening_pa-pa.mp3	pa	pa	0	left
6.6.1	win	2023-06-26	18:22:34	0	0	5f5b27db857807236ee3e3f3	2	1	DL_test	13	DL_test	2			0		ka	1	944	6	2	antiphase_hc_ios.wav	3	6	1	noise_calib_stim_LEFT.wav	1	16	blb_dichoticlistening_ga-ka.mp3	ga	ka	1	right
6.6.1	win	2023-06-26	18:22:34	0	0	5f5b27db857807236ee3e3f3	2	1	DL_test	13	DL_test	3			0		pa	1	1269	6	2	antiphase_hc_ios.wav	3	6	1	noise_calib_stim_LEFT.wav	1	5	blb_dichoticlistening_ba-pa.mp3	ba	pa	1	right
6.6.1	win	2023-06-26	18:22:34	0	0	5f5b27db857807236ee3e3f3	2	1	DL_test	13	DL_test	4			0		ka	1	1036	6	2	antiphase_hc_ios.wav	3	6	1	noise_calib_stim_LEFT.wav	1	4	blb_dichoticlistening_ba-ka.mp3	ba	ka	1	right
6.6.1	win	2023-06-26	18:22:34	0	0	5f5b27db857807236ee3e3f3	2	1	DL_test	13	DL_test	5			0		ta	1	1216	6	2	antiphase_hc_ios.wav	3	6	1	noise_calib_stim_LEFT.wav	1	6	blb_dichoticlistening_ba-ta.mp3	ba	ta	1	right
6.6.1	win	2023-06-26	18:22:34	0	0	5f5b27db857807236ee3e3f3	2	1	DL_test	13	DL_test	6			0		pa	1	1900	6	2	antiphase_hc_ios.wav	3	6	1	noise_calib_stim_LEFT.wav	1	35	blb_dichoticlistening_ta-pa.mp3	ta	pa	1	right
6.6.1	win	2023-06-26	18:22:34	0	0	5f5b27db857807236ee3e3f3	2	1	DL_test	13	DL_test	7			0		ta	1	772	6	2	antiphase_hc_ios.wav	3	6	1	noise_calib_stim_LEFT.wav	1	36	blb_dichoticlistening_ta-ta.mp3	ta	ta	0	left
6.6.1	win	2023-06-26	18:22:34	0	0	5f5b27db857807236ee3e3f3	2	1	DL_test	13	DL_test	8			0		pa	0	1175	6	2	antiphase_hc_ios.wav	3	6	1	noise_calib_stim_LEFT.wav	1	10	blb_dichoticlistening_da-ka.mp3	da	ka	1	other
6.6.1	win	2023-06-26	18:22:34	0	0	5f5b27db857807236ee3e3f3	2	1	DL_test	13	DL_test	9			0		ba	1	1423	6	2	antiphase_hc_ios.wav	3	6	1	noise_calib_stim_LEFT.wav	1	13	blb_dichoticlistening_ga-ba.mp3	ga	ba	1	right
6.6.1	win	2023-06-26	18:22:34	0	0	5f5b27db857807236ee3e3f3	2	1	DL_test	13	DL_test	10			0		ta	1	841	6	2	antiphase_hc_ios.wav	3	6	1	noise_calib_stim_LEFT.wav	1	12	blb_dichoticlistening_da-ta.mp3	da	ta	1	right
6.6.1	win	2023-06-26	18:22:34	0	0	5f5b27db857807236ee3e3f3	2	1	DL_test	13	DL_test	11			0		ga	1	1589	6	2	antiphase_hc_ios.wav	3	6	1	noise_calib_stim_LEFT.wav	1	33	blb_dichoticlistening_ta-ga.mp3	ta	ga	1	right
6.6.1	win	2023-06-26	18:22:34	0	0	5f5b27db857807236ee3e3f3	2	1	DL_test	13	DL_test	12			0		ba	1	1069	6	2	antiphase_hc_ios.wav	3	6	1	noise_calib_stim_LEFT.wav	1	1	blb_dichoticlistening_ba-ba.mp3	ba	ba	0	left
6.6.1	win	2023-06-26	18:22:34	0	0	5f5b27db857807236ee3e3f3	2	1	DL_test	13	DL_test	13			0		ka	1	1304	6	2	antiphase_hc_ios.wav	3	6	1	noise_calib_stim_LEFT.wav	1	23	blb_dichoticlistening_ka-pa.mp3	ka	pa	1	left
6.6.1	win	2023-06-26	18:22:34	0	0	5f5b27db857807236ee3e3f3	2	1	DL_test	13	DL_test	14			0		ga	1	915	6	2	antiphase_hc_ios.wav	3	6	1	noise_calib_stim_LEFT.wav	1	9	blb_dichoticlistening_da-ga.mp3	da	ga	1	right
6.6.1	win	2023-06-26	18:22:34	0	0	5f5b27db857807236ee3e3f3	2	1	DL_test	13	DL_test	15			0		ga	1	1189	6	2	antiphase_hc_ios.wav	3	6	1	noise_calib_stim_LEFT.wav	1	18	blb_dichoticlistening_ga-ta.mp3	ga	ta	1	left
6.6.1	win	2023-06-26	18:22:34	0	0	5f5b27db857807236ee3e3f3	2	1	DL_test	13	DL_test	16			0		ga	1	839	6	2	antiphase_hc_ios.wav	3	6	1	noise_calib_stim_LEFT.wav	1	15	blb_dichoticlistening_ga-ga.mp3	ga	ga	0	left
6.6.1	win	2023-06-26	18:22:34	0	0	5f5b27db857807236ee3e3f3	2	1	DL_test	13	DL_test	17			0		pa	1	990	6	2	antiphase_hc_ios.wav	3	6	1	noise_calib_stim_LEFT.wav	1	11	blb_dichoticlistening_da-pa.mp3	da	pa	1	right
6.6.1	win	2023-06-26	18:22:34	0	0	5f5b27db857807236ee3e3f3	2	1	DL_test	13	DL_test	18			0		pa	1	2099	6	2	antiphase_hc_ios.wav	3	6	1	noise_calib_stim_LEFT.wav	1	27	blb_dichoticlistening_pa-ga.mp3	pa	ga	1	left
6.6.1	win	2023-06-26	18:22:34	0	0	5f5b27db857807236ee3e3f3	2	1	DL_test	13	DL_test	19			0		ka	1	916	6	2	antiphase_hc_ios.wav	3	6	1	noise_calib_stim_LEFT.wav	1	21	blb_dichoticlistening_ka-ga.mp3	ka	ga	1	left
6.6.1	win	2023-06-26	18:22:34	0	0	5f5b27db857807236ee3e3f3	2	1	DL_test	13	DL_test	20			0		ga	1	855	6	2	antiphase_hc_ios.wav	3	6	1	noise_calib_stim_LEFT.wav	1	14	blb_dichoticlistening_ga-da.mp3	ga	da	1	left
6.6.1	win	2023-06-26	18:22:34	0	0	5f5b27db857807236ee3e3f3	2	1	DL_test	13	DL_test	21			0		ka	1	1165	6	2	antiphase_hc_ios.wav	3	6	1	noise_calib_stim_LEFT.wav	1	20	blb_dichoticlistening_ka-da.mp3	ka	da	1	left
6.6.1	win	2023-06-26	18:22:34	0	0	5f5b27db857807236ee3e3f3	2	1	DL_test	13	DL_test	22			0		pa	1	1063	6	2	antiphase_hc_ios.wav	3	6	1	noise_calib_stim_LEFT.wav	1	25	blb_dichoticlistening_pa-ba.mp3	pa	ba	1	left
6.6.1	win	2023-06-26	18:22:34	0	0	5f5b27db857807236ee3e3f3	2	1	DL_test	13	DL_test	23			0		pa	1	907	6	2	antiphase_hc_ios.wav	3	6	1	noise_calib_stim_LEFT.wav	1	17	blb_dichoticlistening_ga-pa.mp3	ga	pa	1	right
6.6.1	win	2023-06-26	18:22:34	0	0	5f5b27db857807236ee3e3f3	2	1	DL_test	13	DL_test	24			0		ba	1	949	6	2	antiphase_hc_ios.wav	3	6	1	noise_calib_stim_LEFT.wav	1	7	blb_dichoticlistening_da-ba.mp3	da	ba	1	right
6.6.1	win	2023-06-26	18:22:34	0	0	5f5b27db857807236ee3e3f3	2	1	DL_test	13	DL_test	25			0		ka	1	698	6	2	antiphase_hc_ios.wav	3	6	1	noise_calib_stim_LEFT.wav	1	22	blb_dichoticlistening_ka-ka.mp3	ka	ka	0	left
6.6.1	win	2023-06-26	18:22:34	0	0	5f5b27db857807236ee3e3f3	2	1	DL_test	13	DL_test	26			0		da	1	1010	6	2	antiphase_hc_ios.wav	3	6	1	noise_calib_stim_LEFT.wav	1	32	blb_dichoticlistening_ta-da.mp3	ta	da	1	right
6.6.1	win	2023-06-26	18:22:34	0	0	5f5b27db857807236ee3e3f3	2	1	DL_test	13	DL_test	27			0		ka	1	665	6	2	antiphase_hc_ios.wav	3	6	1	noise_calib_stim_LEFT.wav	1	34	blb_dichoticlistening_ta-ka.mp3	ta	ka	1	right
6.6.1	win	2023-06-26	18:22:34	0	0	5f5b27db857807236ee3e3f3	2	1	DL_test	13	DL_test	28			0		ga	1	725	6	2	antiphase_hc_ios.wav	3	6	1	noise_calib_stim_LEFT.wav	1	3	blb_dichoticlistening_ba-ga.mp3	ba	ga	1	right
6.6.1	win	2023-06-26	18:22:34	0	0	5f5b27db857807236ee3e3f3	2	1	DL_test	13	DL_test	29			0		ka	0	1076	6	2	antiphase_hc_ios.wav	3	6	1	noise_calib_stim_LEFT.wav	1	31	blb_dichoticlistening_ta-ba.mp3	ta	ba	1	other
6.6.1	win	2023-06-26	18:22:34	0	0	5f5b27db857807236ee3e3f3	2	1	DL_test	13	DL_test	30			0		ta	1	789	6	2	antiphase_hc_ios.wav	3	6	1	noise_calib_stim_LEFT.wav	1	30	blb_dichoticlistening_pa-ta.mp3	pa	ta	1	right
6.6.1	win	2023-06-26	18:22:34	0	0	5f5b27db857807236ee3e3f3	2	1	DL_test	13	DL_test	31			0		ka	1	1618	6	2	antiphase_hc_ios.wav	3	6	1	noise_calib_stim_LEFT.wav	1	19	blb_dichoticlistening_ka-ba.mp3	ka	ba	1	left
6.6.1	win	2023-06-26	18:22:34	0	0	5f5b27db857807236ee3e3f3	2	1	DL_test	13	DL_test	32			0		ka	1	709	6	2	antiphase_hc_ios.wav	3	6	1	noise_calib_stim_LEFT.wav	1	28	blb_dichoticlistening_pa-ka.mp3	pa	ka	1	right
6.6.1	win	2023-06-26	18:22:34	0	0	5f5b27db857807236ee3e3f3	2	1	DL_test	13	DL_test	33			0		ga	0	1190	6	2	antiphase_hc_ios.wav	3	6	1	noise_calib_stim_LEFT.wav	1	26	blb_dichoticlistening_pa-da.mp3	pa	da	1	other
6.6.1	win	2023-06-26	18:22:34	0	0	5f5b27db857807236ee3e3f3	2	1	DL_test	13	DL_test	34			0		da	1	1450	6	2	antiphase_hc_ios.wav	3	6	1	noise_calib_stim_LEFT.wav	1	2	blb_dichoticlistening_ba-da.mp3	ba	da	1	right
6.6.1	win	2023-06-26	18:22:34	0	0	5f5b27db857807236ee3e3f3	2	1	DL_test	13	DL_test	35			0		da	1	782	6	2	antiphase_hc_ios.wav	3	6	1	noise_calib_stim_LEFT.wav	1	8	blb_dichoticlistening_da-da.mp3	da	da	0	left
6.6.1	win	2023-06-26	18:22:34	0	0	5f5b27db857807236ee3e3f3	2	1	DL_test	13	DL_test	36			0		ka	1	678	6	2	antiphase_hc_ios.wav	3	6	1	noise_calib_stim_LEFT.wav	1	24	blb_dichoticlistening_ka-ta.mp3	ka	ta	1	left
6.6.1	win	2023-06-26	18:22:34	0	0	5f5b27db857807236ee3e3f3	2	1	DL_test	14	DL_test	1			0		da	1	996	6	2	antiphase_hc_ios.wav	3	6	1	noise_calib_stim_LEFT.wav	1	8	blb_dichoticlistening_da-da.mp3	da	da	0	left
6.6.1	win	2023-06-26	18:22:34	0	0	5f5b27db857807236ee3e3f3	2	1	DL_test	14	DL_test	2			0		ba	1	837	6	2	antiphase_hc_ios.wav	3	6	1	noise_calib_stim_LEFT.wav	1	7	blb_dichoticlistening_da-ba.mp3	da	ba	1	right
6.6.1	win	2023-06-26	18:22:34	0	0	5f5b27db857807236ee3e3f3	2	1	DL_test	14	DL_test	3			0		ba	1	944	6	2	antiphase_hc_ios.wav	3	6	1	noise_calib_stim_LEFT.wav	1	1	blb_dichoticlistening_ba-ba.mp3	ba	ba	0	left
6.6.1	win	2023-06-26	18:22:34	0	0	5f5b27db857807236ee3e3f3	2	1	DL_test	14	DL_test	4			0		ka	1	773	6	2	antiphase_hc_ios.wav	3	6	1	noise_calib_stim_LEFT.wav	1	19	blb_dichoticlistening_ka-ba.mp3	ka	ba	1	left
6.6.1	win	2023-06-26	18:22:34	0	0	5f5b27db857807236ee3e3f3	2	1	DL_test	14	DL_test	5			0		ga	1	1230	6	2	antiphase_hc_ios.wav	3	6	1	noise_calib_stim_LEFT.wav	1	14	blb_dichoticlistening_ga-da.mp3	ga	da	1	left
6.6.1	win	2023-06-26	18:22:34	0	0	5f5b27db857807236ee3e3f3	2	1	DL_test	14	DL_test	6			0		pa	1	875	6	2	antiphase_hc_ios.wav	3	6	1	noise_calib_stim_LEFT.wav	1	17	blb_dichoticlistening_ga-pa.mp3	ga	pa	1	right
6.6.1	win	2023-06-26	18:22:34	0	0	5f5b27db857807236ee3e3f3	2	1	DL_test	14	DL_test	7			0		pa	1	730	6	2	antiphase_hc_ios.wav	3	6	1	noise_calib_stim_LEFT.wav	1	29	blb_dichoticlistening_pa-pa.mp3	pa	pa	0	left
6.6.1	win	2023-06-26	18:22:34	0	0	5f5b27db857807236ee3e3f3	2	1	DL_test	14	DL_test	8			0		ta	1	976	6	2	antiphase_hc_ios.wav	3	6	1	noise_calib_stim_LEFT.wav	1	36	blb_dichoticlistening_ta-ta.mp3	ta	ta	0	left
6.6.1	win	2023-06-26	18:22:34	0	0	5f5b27db857807236ee3e3f3	2	1	DL_test	14	DL_test	9			0		ka	1	881	6	2	antiphase_hc_ios.wav	3	6	1	noise_calib_stim_LEFT.wav	1	20	blb_dichoticlistening_ka-da.mp3	ka	da	1	left
6.6.1	win	2023-06-26	18:22:34	0	0	5f5b27db857807236ee3e3f3	2	1	DL_test	14	DL_test	10			0		ka	1	673	6	2	antiphase_hc_ios.wav	3	6	1	noise_calib_stim_LEFT.wav	1	24	blb_dichoticlistening_ka-ta.mp3	ka	ta	1	left
6.6.1	win	2023-06-26	18:22:34	0	0	5f5b27db857807236ee3e3f3	2	1	DL_test	14	DL_test	11			0		ba	1	1024	6	2	antiphase_hc_ios.wav	3	6	1	noise_calib_stim_LEFT.wav	1	13	blb_dichoticlistening_ga-ba.mp3	ga	ba	1	right
6.6.1	win	2023-06-26	18:22:34	0	0	5f5b27db857807236ee3e3f3	2	1	DL_test	14	DL_test	12			0		ga	1	1384	6	2	antiphase_hc_ios.wav	3	6	1	noise_calib_stim_LEFT.wav	1	21	blb_dichoticlistening_ka-ga.mp3	ka	ga	1	right
6.6.1	win	2023-06-26	18:22:34	0	0	5f5b27db857807236ee3e3f3	2	1	DL_test	14	DL_test	13			0		ga	1	646	6	2	antiphase_hc_ios.wav	3	6	1	noise_calib_stim_LEFT.wav	1	15	blb_dichoticlistening_ga-ga.mp3	ga	ga	0	left
6.6.1	win	2023-06-26	18:22:34	0	0	5f5b27db857807236ee3e3f3	2	1	DL_test	14	DL_test	14			0		ta	1	926	6	2	antiphase_hc_ios.wav	3	6	1	noise_calib_stim_LEFT.wav	1	12	blb_dichoticlistening_da-ta.mp3	da	ta	1	right
6.6.1	win	2023-06-26	18:22:34	0	0	5f5b27db857807236ee3e3f3	2	1	DL_test	14	DL_test	15			0		ka	1	627	6	2	antiphase_hc_ios.wav	3	6	1	noise_calib_stim_LEFT.wav	1	4	blb_dichoticlistening_ba-ka.mp3	ba	ka	1	right
6.6.1	win	2023-06-26	18:22:34	0	0	5f5b27db857807236ee3e3f3	2	1	DL_test	14	DL_test	16			0		ka	1	1158	6	2	antiphase_hc_ios.wav	3	6	1	noise_calib_stim_LEFT.wav	1	34	blb_dichoticlistening_ta-ka.mp3	ta	ka	1	right
6.6.1	win	2023-06-26	18:22:34	0	0	5f5b27db857807236ee3e3f3	2	1	DL_test	14	DL_test	17			0		pa	0	693	6	2	antiphase_hc_ios.wav	3	6	1	noise_calib_stim_LEFT.wav	1	10	blb_dichoticlistening_da-ka.mp3	da	ka	1	other
6.6.1	win	2023-06-26	18:22:34	0	0	5f5b27db857807236ee3e3f3	2	1	DL_test	14	DL_test	18			0		ga	1	882	6	2	antiphase_hc_ios.wav	3	6	1	noise_calib_stim_LEFT.wav	1	33	blb_dichoticlistening_ta-ga.mp3	ta	ga	1	right
6.6.1	win	2023-06-26	18:22:34	0	0	5f5b27db857807236ee3e3f3	2	1	DL_test	14	DL_test	19			0		ba	1	1172	6	2	antiphase_hc_ios.wav	3	6	1	noise_calib_stim_LEFT.wav	1	3	blb_dichoticlistening_ba-ga.mp3	ba	ga	1	left
6.6.1	win	2023-06-26	18:22:34	0	0	5f5b27db857807236ee3e3f3	2	1	DL_test	14	DL_test	20			0		ka	1	677	6	2	antiphase_hc_ios.wav	3	6	1	noise_calib_stim_LEFT.wav	1	23	blb_dichoticlistening_ka-pa.mp3	ka	pa	1	left
6.6.1	win	2023-06-26	18:22:34	0	0	5f5b27db857807236ee3e3f3	2	1	DL_test	14	DL_test	21			0		ka	0	657	6	2	antiphase_hc_ios.wav	3	6	1	noise_calib_stim_LEFT.wav	1	18	blb_dichoticlistening_ga-ta.mp3	ga	ta	1	other
6.6.1	win	2023-06-26	18:22:34	0	0	5f5b27db857807236ee3e3f3	2	1	DL_test	14	DL_test	22			0		da	1	1014	6	2	antiphase_hc_ios.wav	3	6	1	noise_calib_stim_LEFT.wav	1	2	blb_dichoticlistening_ba-da.mp3	ba	da	1	right
6.6.1	win	2023-06-26	18:22:34	0	0	5f5b27db857807236ee3e3f3	2	1	DL_test	14	DL_test	23			0		ka	1	664	6	2	antiphase_hc_ios.wav	3	6	1	noise_calib_stim_LEFT.wav	1	16	blb_dichoticlistening_ga-ka.mp3	ga	ka	1	right
6.6.1	win	2023-06-26	18:22:34	0	0	5f5b27db857807236ee3e3f3	2	1	DL_test	14	DL_test	24			0		da	1	761	6	2	antiphase_hc_ios.wav	3	6	1	noise_calib_stim_LEFT.wav	1	32	blb_dichoticlistening_ta-da.mp3	ta	da	1	right
6.6.1	win	2023-06-26	18:22:34	0	0	5f5b27db857807236ee3e3f3	2	1	DL_test	14	DL_test	25			0		da	1	800	6	2	antiphase_hc_ios.wav	3	6	1	noise_calib_stim_LEFT.wav	1	26	blb_dichoticlistening_pa-da.mp3	pa	da	1	right
6.6.1	win	2023-06-26	18:22:34	0	0	5f5b27db857807236ee3e3f3	2	1	DL_test	14	DL_test	26			0		pa	0	951	6	2	antiphase_hc_ios.wav	3	6	1	noise_calib_stim_LEFT.wav	1	6	blb_dichoticlistening_ba-ta.mp3	ba	ta	1	other
6.6.1	win	2023-06-26	18:22:34	0	0	5f5b27db857807236ee3e3f3	2	1	DL_test	14	DL_test	27			0		ga	1	768	6	2	antiphase_hc_ios.wav	3	6	1	noise_calib_stim_LEFT.wav	1	9	blb_dichoticlistening_da-ga.mp3	da	ga	1	right
6.6.1	win	2023-06-26	18:22:34	0	0	5f5b27db857807236ee3e3f3	2	1	DL_test	14	DL_test	28			0		pa	1	744	6	2	antiphase_hc_ios.wav	3	6	1	noise_calib_stim_LEFT.wav	1	5	blb_dichoticlistening_ba-pa.mp3	ba	pa	1	right
6.6.1	win	2023-06-26	18:22:34	0	0	5f5b27db857807236ee3e3f3	2	1	DL_test	14	DL_test	29			0		pa	1	1567	6	2	antiphase_hc_ios.wav	3	6	1	noise_calib_stim_LEFT.wav	1	11	blb_dichoticlistening_da-pa.mp3	da	pa	1	right
6.6.1	win	2023-06-26	18:22:34	0	0	5f5b27db857807236ee3e3f3	2	1	DL_test	14	DL_test	30			0		pa	1	1226	6	2	antiphase_hc_ios.wav	3	6	1	noise_calib_stim_LEFT.wav	1	25	blb_dichoticlistening_pa-ba.mp3	pa	ba	1	left
6.6.1	win	2023-06-26	18:22:34	0	0	5f5b27db857807236ee3e3f3	2	1	DL_test	14	DL_test	31			0		ka	1	754	6	2	antiphase_hc_ios.wav	3	6	1	noise_calib_stim_LEFT.wav	1	28	blb_dichoticlistening_pa-ka.mp3	pa	ka	1	right
6.6.1	win	2023-06-26	18:22:34	0	0	5f5b27db857807236ee3e3f3	2	1	DL_test	14	DL_test	32			0		ta	1	1228	6	2	antiphase_hc_ios.wav	3	6	1	noise_calib_stim_LEFT.wav	1	35	blb_dichoticlistening_ta-pa.mp3	ta	pa	1	left
6.6.1	win	2023-06-26	18:22:34	0	0	5f5b27db857807236ee3e3f3	2	1	DL_test	14	DL_test	33			0		ba	1	1831	6	2	antiphase_hc_ios.wav	3	6	1	noise_calib_stim_LEFT.wav	1	31	blb_dichoticlistening_ta-ba.mp3	ta	ba	1	right
6.6.1	win	2023-06-26	18:22:34	0	0	5f5b27db857807236ee3e3f3	2	1	DL_test	14	DL_test	34			0		ga	1	781	6	2	antiphase_hc_ios.wav	3	6	1	noise_calib_stim_LEFT.wav	1	27	blb_dichoticlistening_pa-ga.mp3	pa	ga	1	right
6.6.1	win	2023-06-26	18:22:34	0	0	5f5b27db857807236ee3e3f3	2	1	DL_test	14	DL_test	35			0		ka	1	708	6	2	antiphase_hc_ios.wav	3	6	1	noise_calib_stim_LEFT.wav	1	22	blb_dichoticlistening_ka-ka.mp3	ka	ka	0	left
6.6.1	win	2023-06-26	18:22:34	0	0	5f5b27db857807236ee3e3f3	2	1	DL_test	14	DL_test	36			0		ta	1	793	6	2	antiphase_hc_ios.wav	3	6	1	noise_calib_stim_LEFT.wav	1	30	blb_dichoticlistening_pa-ta.mp3	pa	ta	1	right
6.6.1	win	2023-06-26	18:22:34	0	0	5f5b27db857807236ee3e3f3	2	1	DL_test	15	DL_test	1			0		pa	1	856	6	2	antiphase_hc_ios.wav	3	6	1	noise_calib_stim_LEFT.wav	1	5	blb_dichoticlistening_ba-pa.mp3	ba	pa	1	right
6.6.1	win	2023-06-26	18:22:34	0	0	5f5b27db857807236ee3e3f3	2	1	DL_test	15	DL_test	2			0		ka	1	991	6	2	antiphase_hc_ios.wav	3	6	1	noise_calib_stim_LEFT.wav	1	19	blb_dichoticlistening_ka-ba.mp3	ka	ba	1	left
6.6.1	win	2023-06-26	18:22:34	0	0	5f5b27db857807236ee3e3f3	2	1	DL_test	15	DL_test	3			0		da	1	1642	6	2	antiphase_hc_ios.wav	3	6	1	noise_calib_stim_LEFT.wav	1	9	blb_dichoticlistening_da-ga.mp3	da	ga	1	left
6.6.1	win	2023-06-26	18:22:34	0	0	5f5b27db857807236ee3e3f3	2	1	DL_test	15	DL_test	4			0		ta	1	1652	6	2	antiphase_hc_ios.wav	3	6	1	noise_calib_stim_LEFT.wav	1	6	blb_dichoticlistening_ba-ta.mp3	ba	ta	1	right
6.6.1	win	2023-06-26	18:22:34	0	0	5f5b27db857807236ee3e3f3	2	1	DL_test	15	DL_test	5			0		ta	1	668	6	2	antiphase_hc_ios.wav	3	6	1	noise_calib_stim_LEFT.wav	1	30	blb_dichoticlistening_pa-ta.mp3	pa	ta	1	right
6.6.1	win	2023-06-26	18:22:34	0	0	5f5b27db857807236ee3e3f3	2	1	DL_test	15	DL_test	6			0		da	1	942	6	2	antiphase_hc_ios.wav	3	6	1	noise_calib_stim_LEFT.wav	1	32	blb_dichoticlistening_ta-da.mp3	ta	da	1	right
6.6.1	win	2023-06-26	18:22:34	0	0	5f5b27db857807236ee3e3f3	2	1	DL_test	15	DL_test	7			0		ta	1	984	6	2	antiphase_hc_ios.wav	3	6	1	noise_calib_stim_LEFT.wav	1	36	blb_dichoticlistening_ta-ta.mp3	ta	ta	0	left
6.6.1	win	2023-06-26	18:22:34	0	0	5f5b27db857807236ee3e3f3	2	1	DL_test	15	DL_test	8			0		pa	1	855	6	2	antiphase_hc_ios.wav	3	6	1	noise_calib_stim_LEFT.wav	1	17	blb_dichoticlistening_ga-pa.mp3	ga	pa	1	right
6.6.1	win	2023-06-26	18:22:34	0	0	5f5b27db857807236ee3e3f3	2	1	DL_test	15	DL_test	9			0		ga	1	808	6	2	antiphase_hc_ios.wav	3	6	1	noise_calib_stim_LEFT.wav	1	27	blb_dichoticlistening_pa-ga.mp3	pa	ga	1	right
6.6.1	win	2023-06-26	18:22:34	0	0	5f5b27db857807236ee3e3f3	2	1	DL_test	15	DL_test	10			0		da	1	979	6	2	antiphase_hc_ios.wav	3	6	1	noise_calib_stim_LEFT.wav	1	26	blb_dichoticlistening_pa-da.mp3	pa	da	1	right
6.6.1	win	2023-06-26	18:22:34	0	0	5f5b27db857807236ee3e3f3	2	1	DL_test	15	DL_test	11			0		ka	1	815	6	2	antiphase_hc_ios.wav	3	6	1	noise_calib_stim_LEFT.wav	1	22	blb_dichoticlistening_ka-ka.mp3	ka	ka	0	left
6.6.1	win	2023-06-26	18:22:34	0	0	5f5b27db857807236ee3e3f3	2	1	DL_test	15	DL_test	12			0		pa	1	957	6	2	antiphase_hc_ios.wav	3	6	1	noise_calib_stim_LEFT.wav	1	25	blb_dichoticlistening_pa-ba.mp3	pa	ba	1	left
6.6.1	win	2023-06-26	18:22:34	0	0	5f5b27db857807236ee3e3f3	2	1	DL_test	15	DL_test	13			0		pa	1	973	6	2	antiphase_hc_ios.wav	3	6	1	noise_calib_stim_LEFT.wav	1	11	blb_dichoticlistening_da-pa.mp3	da	pa	1	right
6.6.1	win	2023-06-26	18:22:34	0	0	5f5b27db857807236ee3e3f3	2	1	DL_test	15	DL_test	14			0		pa	1	689	6	2	antiphase_hc_ios.wav	3	6	1	noise_calib_stim_LEFT.wav	1	29	blb_dichoticlistening_pa-pa.mp3	pa	pa	0	left
6.6.1	win	2023-06-26	18:22:34	0	0	5f5b27db857807236ee3e3f3	2	1	DL_test	15	DL_test	15			0		ta	1	815	6	2	antiphase_hc_ios.wav	3	6	1	noise_calib_stim_LEFT.wav	1	35	blb_dichoticlistening_ta-pa.mp3	ta	pa	1	left
6.6.1	win	2023-06-26	18:22:34	0	0	5f5b27db857807236ee3e3f3	2	1	DL_test	15	DL_test	16			0		ba	1	1608	6	2	antiphase_hc_ios.wav	3	6	1	noise_calib_stim_LEFT.wav	1	31	blb_dichoticlistening_ta-ba.mp3	ta	ba	1	right
6.6.1	win	2023-06-26	18:22:34	0	0	5f5b27db857807236ee3e3f3	2	1	DL_test	15	DL_test	17			0		ga	1	858	6	2	antiphase_hc_ios.wav	3	6	1	noise_calib_stim_LEFT.wav	1	15	blb_dichoticlistening_ga-ga.mp3	ga	ga	0	left
6.6.1	win	2023-06-26	18:22:34	0	0	5f5b27db857807236ee3e3f3	2	1	DL_test	15	DL_test	18			0		ta	1	1048	6	2	antiphase_hc_ios.wav	3	6	1	noise_calib_stim_LEFT.wav	1	18	blb_dichoticlistening_ga-ta.mp3	ga	ta	1	right
6.6.1	win	2023-06-26	18:22:34	0	0	5f5b27db857807236ee3e3f3	2	1	DL_test	15	DL_test	19			0		ka	1	784	6	2	antiphase_hc_ios.wav	3	6	1	noise_calib_stim_LEFT.wav	1	34	blb_dichoticlistening_ta-ka.mp3	ta	ka	1	right
6.6.1	win	2023-06-26	18:22:34	0	0	5f5b27db857807236ee3e3f3	2	1	DL_test	15	DL_test	20			0		da	1	961	6	2	antiphase_hc_ios.wav	3	6	1	noise_calib_stim_LEFT.wav	1	8	blb_dichoticlistening_da-da.mp3	da	da	0	left
6.6.1	win	2023-06-26	18:22:34	0	0	5f5b27db857807236ee3e3f3	2	1	DL_test	15	DL_test	21			0		ga	0	1051	6	2	antiphase_hc_ios.wav	3	6	1	noise_calib_stim_LEFT.wav	1	20	blb_dichoticlistening_ka-da.mp3	ka	da	1	other
6.6.1	win	2023-06-26	18:22:34	0	0	5f5b27db857807236ee3e3f3	2	1	DL_test	15	DL_test	22			0		ga	1	661	6	2	antiphase_hc_ios.wav	3	6	1	noise_calib_stim_LEFT.wav	1	14	blb_dichoticlistening_ga-da.mp3	ga	da	1	left
6.6.1	win	2023-06-26	18:22:34	0	0	5f5b27db857807236ee3e3f3	2	1	DL_test	15	DL_test	23			0		ba	1	1198	6	2	antiphase_hc_ios.wav	3	6	1	noise_calib_stim_LEFT.wav	1	2	blb_dichoticlistening_ba-da.mp3	ba	da	1	left
6.6.1	win	2023-06-26	18:22:34	0	0	5f5b27db857807236ee3e3f3	2	1	DL_test	15	DL_test	24			0		ka	1	646	6	2	antiphase_hc_ios.wav	3	6	1	noise_calib_stim_LEFT.wav	1	24	blb_dichoticlistening_ka-ta.mp3	ka	ta	1	left
6.6.1	win	2023-06-26	18:22:34	0	0	5f5b27db857807236ee3e3f3	2	1	DL_test	15	DL_test	25			0		ka	1	644	6	2	antiphase_hc_ios.wav	3	6	1	noise_calib_stim_LEFT.wav	1	28	blb_dichoticlistening_pa-ka.mp3	pa	ka	1	right
6.6.1	win	2023-06-26	18:22:34	0	0	5f5b27db857807236ee3e3f3	2	1	DL_test	15	DL_test	26			0		pa	0	835	6	2	antiphase_hc_ios.wav	3	6	1	noise_calib_stim_LEFT.wav	1	10	blb_dichoticlistening_da-ka.mp3	da	ka	1	other
6.6.1	win	2023-06-26	18:22:34	0	0	5f5b27db857807236ee3e3f3	2	1	DL_test	15	DL_test	27			0		ba	1	1387	6	2	antiphase_hc_ios.wav	3	6	1	noise_calib_stim_LEFT.wav	1	7	blb_dichoticlistening_da-ba.mp3	da	ba	1	right
6.6.1	win	2023-06-26	18:22:34	0	0	5f5b27db857807236ee3e3f3	2	1	DL_test	15	DL_test	28			0		ba	1	811	6	2	antiphase_hc_ios.wav	3	6	1	noise_calib_stim_LEFT.wav	1	13	blb_dichoticlistening_ga-ba.mp3	ga	ba	1	right
6.6.1	win	2023-06-26	18:22:34	0	0	5f5b27db857807236ee3e3f3	2	1	DL_test	15	DL_test	29			0		ga	1	925	6	2	antiphase_hc_ios.wav	3	6	1	noise_calib_stim_LEFT.wav	1	21	blb_dichoticlistening_ka-ga.mp3	ka	ga	1	right
6.6.1	win	2023-06-26	18:22:34	0	0	5f5b27db857807236ee3e3f3	2	1	DL_test	15	DL_test	30			0		ta	1	709	6	2	antiphase_hc_ios.wav	3	6	1	noise_calib_stim_LEFT.wav	1	12	blb_dichoticlistening_da-ta.mp3	da	ta	1	right
6.6.1	win	2023-06-26	18:22:34	0	0	5f5b27db857807236ee3e3f3	2	1	DL_test	15	DL_test	31			0		ba	1	1124	6	2	antiphase_hc_ios.wav	3	6	1	noise_calib_stim_LEFT.wav	1	3	blb_dichoticlistening_ba-ga.mp3	ba	ga	1	left
6.6.1	win	2023-06-26	18:22:34	0	0	5f5b27db857807236ee3e3f3	2	1	DL_test	15	DL_test	32			0		ka	1	521	6	2	antiphase_hc_ios.wav	3	6	1	noise_calib_stim_LEFT.wav	1	4	blb_dichoticlistening_ba-ka.mp3	ba	ka	1	right
6.6.1	win	2023-06-26	18:22:34	0	0	5f5b27db857807236ee3e3f3	2	1	DL_test	15	DL_test	33			0		ga	1	1087	6	2	antiphase_hc_ios.wav	3	6	1	noise_calib_stim_LEFT.wav	1	33	blb_dichoticlistening_ta-ga.mp3	ta	ga	1	right
6.6.1	win	2023-06-26	18:22:34	0	0	5f5b27db857807236ee3e3f3	2	1	DL_test	15	DL_test	34			0		da	0	771	6	2	antiphase_hc_ios.wav	3	6	1	noise_calib_stim_LEFT.wav	1	1	blb_dichoticlistening_ba-ba.mp3	ba	ba	0	other
6.6.1	win	2023-06-26	18:22:34	0	0	5f5b27db857807236ee3e3f3	2	1	DL_test	15	DL_test	35			0		ka	1	863	6	2	antiphase_hc_ios.wav	3	6	1	noise_calib_stim_LEFT.wav	1	23	blb_dichoticlistening_ka-pa.mp3	ka	pa	1	left
6.6.1	win	2023-06-26	18:22:34	0	0	5f5b27db857807236ee3e3f3	2	1	DL_test	15	DL_test	36			0		ka	1	766	6	2	antiphase_hc_ios.wav	3	6	1	noise_calib_stim_LEFT.wav	1	16	blb_dichoticlistening_ga-ka.mp3	ga	ka	1	right
6.6.1	win	2023-06-26	18:22:34	0	0	5f5b27db857807236ee3e3f3	2	1	DL_test	16	DL_test	1			0		ka	1	726	6	2	antiphase_hc_ios.wav	3	6	1	noise_calib_stim_LEFT.wav	1	4	blb_dichoticlistening_ba-ka.mp3	ba	ka	1	right
6.6.1	win	2023-06-26	18:22:34	0	0	5f5b27db857807236ee3e3f3	2	1	DL_test	16	DL_test	2			0		ga	1	763	6	2	antiphase_hc_ios.wav	3	6	1	noise_calib_stim_LEFT.wav	1	21	blb_dichoticlistening_ka-ga.mp3	ka	ga	1	right
6.6.1	win	2023-06-26	18:22:34	0	0	5f5b27db857807236ee3e3f3	2	1	DL_test	16	DL_test	3			0		ta	1	830	6	2	antiphase_hc_ios.wav	3	6	1	noise_calib_stim_LEFT.wav	1	30	blb_dichoticlistening_pa-ta.mp3	pa	ta	1	right
6.6.1	win	2023-06-26	18:22:34	0	0	5f5b27db857807236ee3e3f3	2	1	DL_test	16	DL_test	4			0		ga	1	635	6	2	antiphase_hc_ios.wav	3	6	1	noise_calib_stim_LEFT.wav	1	3	blb_dichoticlistening_ba-ga.mp3	ba	ga	1	right
6.6.1	win	2023-06-26	18:22:34	0	0	5f5b27db857807236ee3e3f3	2	1	DL_test	16	DL_test	5			0		ba	1	876	6	2	antiphase_hc_ios.wav	3	6	1	noise_calib_stim_LEFT.wav	1	25	blb_dichoticlistening_pa-ba.mp3	pa	ba	1	right
6.6.1	win	2023-06-26	18:22:34	0	0	5f5b27db857807236ee3e3f3	2	1	DL_test	16	DL_test	6			0		pa	1	1114	6	2	antiphase_hc_ios.wav	3	6	1	noise_calib_stim_LEFT.wav	1	17	blb_dichoticlistening_ga-pa.mp3	ga	pa	1	right
6.6.1	win	2023-06-26	18:22:34	0	0	5f5b27db857807236ee3e3f3	2	1	DL_test	16	DL_test	7			0		ga	1	544	6	2	antiphase_hc_ios.wav	3	6	1	noise_calib_stim_LEFT.wav	1	15	blb_dichoticlistening_ga-ga.mp3	ga	ga	0	left
6.6.1	win	2023-06-26	18:22:34	0	0	5f5b27db857807236ee3e3f3	2	1	DL_test	16	DL_test	8			0		ba	1	837	6	2	antiphase_hc_ios.wav	3	6	1	noise_calib_stim_LEFT.wav	1	13	blb_dichoticlistening_ga-ba.mp3	ga	ba	1	right
6.6.1	win	2023-06-26	18:22:34	0	0	5f5b27db857807236ee3e3f3	2	1	DL_test	16	DL_test	9			0		ka	1	551	6	2	antiphase_hc_ios.wav	3	6	1	noise_calib_stim_LEFT.wav	1	23	blb_dichoticlistening_ka-pa.mp3	ka	pa	1	left
6.6.1	win	2023-06-26	18:22:34	0	0	5f5b27db857807236ee3e3f3	2	1	DL_test	16	DL_test	10			0		ga	1	591	6	2	antiphase_hc_ios.wav	3	6	1	noise_calib_stim_LEFT.wav	1	9	blb_dichoticlistening_da-ga.mp3	da	ga	1	right
6.6.1	win	2023-06-26	18:22:34	0	0	5f5b27db857807236ee3e3f3	2	1	DL_test	16	DL_test	11			0		ka	1	608	6	2	antiphase_hc_ios.wav	3	6	1	noise_calib_stim_LEFT.wav	1	28	blb_dichoticlistening_pa-ka.mp3	pa	ka	1	right
6.6.1	win	2023-06-26	18:22:34	0	0	5f5b27db857807236ee3e3f3	2	1	DL_test	16	DL_test	12			0		pa	1	1019	6	2	antiphase_hc_ios.wav	3	6	1	noise_calib_stim_LEFT.wav	1	5	blb_dichoticlistening_ba-pa.mp3	ba	pa	1	right
6.6.1	win	2023-06-26	18:22:34	0	0	5f5b27db857807236ee3e3f3	2	1	DL_test	16	DL_test	13			0		ka	1	546	6	2	antiphase_hc_ios.wav	3	6	1	noise_calib_stim_LEFT.wav	1	16	blb_dichoticlistening_ga-ka.mp3	ga	ka	1	right
6.6.1	win	2023-06-26	18:22:34	0	0	5f5b27db857807236ee3e3f3	2	1	DL_test	16	DL_test	14			0		ga	1	784	6	2	antiphase_hc_ios.wav	3	6	1	noise_calib_stim_LEFT.wav	1	33	blb_dichoticlistening_ta-ga.mp3	ta	ga	1	right
6.6.1	win	2023-06-26	18:22:34	0	0	5f5b27db857807236ee3e3f3	2	1	DL_test	16	DL_test	15			0		da	1	712	6	2	antiphase_hc_ios.wav	3	6	1	noise_calib_stim_LEFT.wav	1	8	blb_dichoticlistening_da-da.mp3	da	da	0	left
6.6.1	win	2023-06-26	18:22:34	0	0	5f5b27db857807236ee3e3f3	2	1	DL_test	16	DL_test	16			0		ka	1	636	6	2	antiphase_hc_ios.wav	3	6	1	noise_calib_stim_LEFT.wav	1	22	blb_dichoticlistening_ka-ka.mp3	ka	ka	0	left
6.6.1	win	2023-06-26	18:22:34	0	0	5f5b27db857807236ee3e3f3	2	1	DL_test	16	DL_test	17			0		ga	1	625	6	2	antiphase_hc_ios.wav	3	6	1	noise_calib_stim_LEFT.wav	1	14	blb_dichoticlistening_ga-da.mp3	ga	da	1	left
6.6.1	win	2023-06-26	18:22:34	0	0	5f5b27db857807236ee3e3f3	2	1	DL_test	16	DL_test	18			0		ba	1	1002	6	2	antiphase_hc_ios.wav	3	6	1	noise_calib_stim_LEFT.wav	1	1	blb_dichoticlistening_ba-ba.mp3	ba	ba	0	left
6.6.1	win	2023-06-26	18:22:34	0	0	5f5b27db857807236ee3e3f3	2	1	DL_test	16	DL_test	19			0		ga	1	830	6	2	antiphase_hc_ios.wav	3	6	1	noise_calib_stim_LEFT.wav	1	27	blb_dichoticlistening_pa-ga.mp3	pa	ga	1	right
6.6.1	win	2023-06-26	18:22:34	0	0	5f5b27db857807236ee3e3f3	2	1	DL_test	16	DL_test	20			0		pa	1	917	6	2	antiphase_hc_ios.wav	3	6	1	noise_calib_stim_LEFT.wav	1	35	blb_dichoticlistening_ta-pa.mp3	ta	pa	1	right
6.6.1	win	2023-06-26	18:22:34	0	0	5f5b27db857807236ee3e3f3	2	1	DL_test	16	DL_test	21			0		ka	0	1268	6	2	antiphase_hc_ios.wav	3	6	1	noise_calib_stim_LEFT.wav	1	18	blb_dichoticlistening_ga-ta.mp3	ga	ta	1	other
6.6.1	win	2023-06-26	18:22:34	0	0	5f5b27db857807236ee3e3f3	2	1	DL_test	16	DL_test	22			0		da	1	1021	6	2	antiphase_hc_ios.wav	3	6	1	noise_calib_stim_LEFT.wav	1	7	blb_dichoticlistening_da-ba.mp3	da	ba	1	left
6.6.1	win	2023-06-26	18:22:34	0	0	5f5b27db857807236ee3e3f3	2	1	DL_test	16	DL_test	23			0		ba	1	1398	6	2	antiphase_hc_ios.wav	3	6	1	noise_calib_stim_LEFT.wav	1	19	blb_dichoticlistening_ka-ba.mp3	ka	ba	1	right
6.6.1	win	2023-06-26	18:22:34	0	0	5f5b27db857807236ee3e3f3	2	1	DL_test	16	DL_test	24			0		da	1	862	6	2	antiphase_hc_ios.wav	3	6	1	noise_calib_stim_LEFT.wav	1	32	blb_dichoticlistening_ta-da.mp3	ta	da	1	right
6.6.1	win	2023-06-26	18:22:34	0	0	5f5b27db857807236ee3e3f3	2	1	DL_test	16	DL_test	25			0		ka	0	880	6	2	antiphase_hc_ios.wav	3	6	1	noise_calib_stim_LEFT.wav	1	6	blb_dichoticlistening_ba-ta.mp3	ba	ta	1	other
6.6.1	win	2023-06-26	18:22:34	0	0	5f5b27db857807236ee3e3f3	2	1	DL_test	16	DL_test	26			0		ka	1	567	6	2	antiphase_hc_ios.wav	3	6	1	noise_calib_stim_LEFT.wav	1	24	blb_dichoticlistening_ka-ta.mp3	ka	ta	1	left
6.6.1	win	2023-06-26	18:22:34	0	0	5f5b27db857807236ee3e3f3	2	1	DL_test	16	DL_test	27			0		da	1	811	6	2	antiphase_hc_ios.wav	3	6	1	noise_calib_stim_LEFT.wav	1	2	blb_dichoticlistening_ba-da.mp3	ba	da	1	right
6.6.1	win	2023-06-26	18:22:34	0	0	5f5b27db857807236ee3e3f3	2	1	DL_test	16	DL_test	28			0		ta	1	813	6	2	antiphase_hc_ios.wav	3	6	1	noise_calib_stim_LEFT.wav	1	36	blb_dichoticlistening_ta-ta.mp3	ta	ta	0	left
6.6.1	win	2023-06-26	18:22:34	0	0	5f5b27db857807236ee3e3f3	2	1	DL_test	16	DL_test	29			0		pa	1	723	6	2	antiphase_hc_ios.wav	3	6	1	noise_calib_stim_LEFT.wav	1	29	blb_dichoticlistening_pa-pa.mp3	pa	pa	0	left
6.6.1	win	2023-06-26	18:22:34	0	0	5f5b27db857807236ee3e3f3	2	1	DL_test	16	DL_test	30			0		ta	1	964	6	2	antiphase_hc_ios.wav	3	6	1	noise_calib_stim_LEFT.wav	1	12	blb_dichoticlistening_da-ta.mp3	da	ta	1	right
6.6.1	win	2023-06-26	18:22:34	0	0	5f5b27db857807236ee3e3f3	2	1	DL_test	16	DL_test	31			0		pa	0	877	6	2	antiphase_hc_ios.wav	3	6	1	noise_calib_stim_LEFT.wav	1	10	blb_dichoticlistening_da-ka.mp3	da	ka	1	other
6.6.1	win	2023-06-26	18:22:34	0	0	5f5b27db857807236ee3e3f3	2	1	DL_test	16	DL_test	32			0		ka	1	526	6	2	antiphase_hc_ios.wav	3	6	1	noise_calib_stim_LEFT.wav	1	34	blb_dichoticlistening_ta-ka.mp3	ta	ka	1	right
6.6.1	win	2023-06-26	18:22:34	0	0	5f5b27db857807236ee3e3f3	2	1	DL_test	16	DL_test	33			0		ba	1	855	6	2	antiphase_hc_ios.wav	3	6	1	noise_calib_stim_LEFT.wav	1	31	blb_dichoticlistening_ta-ba.mp3	ta	ba	1	right
6.6.1	win	2023-06-26	18:22:34	0	0	5f5b27db857807236ee3e3f3	2	1	DL_test	16	DL_test	34			0		da	1	848	6	2	antiphase_hc_ios.wav	3	6	1	noise_calib_stim_LEFT.wav	1	26	blb_dichoticlistening_pa-da.mp3	pa	da	1	right
6.6.1	win	2023-06-26	18:22:34	0	0	5f5b27db857807236ee3e3f3	2	1	DL_test	16	DL_test	35			0		pa	1	1062	6	2	antiphase_hc_ios.wav	3	6	1	noise_calib_stim_LEFT.wav	1	11	blb_dichoticlistening_da-pa.mp3	da	pa	1	right
6.6.1	win	2023-06-26	18:22:34	0	0	5f5b27db857807236ee3e3f3	2	1	DL_test	16	DL_test	36			0		ka	1	1462	6	2	antiphase_hc_ios.wav	3	6	1	noise_calib_stim_LEFT.wav	1	20	blb_dichoticlistening_ka-da.mp3	ka	da	1	left
6.6.1	win	2023-06-26	18:22:34	18:31:04	507285	5f5b27db857807236ee3e3f3	2	1	practice_z	22	practice_z	1	stimuli_distractor_trianglediamonds.svg	stimuli_target_rectanglediamonds.svg	10	yes	44	1	1090	6	2	antiphase_hc_ios.wav	3	6	1	noise_calib_stim_LEFT.wav	1	20	blb_dichoticlistening_ka-da.mp3	ka	da	1	left
6.6.1	win	2023-06-26	18:22:34	18:31:04	507285	5f5b27db857807236ee3e3f3	2	1	practice_z	22	advance_on_keypress_ZEE	2	stimuli_distractor_trianglediamonds.svg	stimuli_target_rectanglediamonds.svg	10	yes	57	0	592	6	2	antiphase_hc_ios.wav	3	6	1	noise_calib_stim_LEFT.wav	1	20	blb_dichoticlistening_ka-da.mp3	ka	da	1	left
6.6.1	win	2023-06-26	18:22:34	18:31:07	510309	5f5b27db857807236ee3e3f3	2	1	practice_z	22	practice_z	3	stimuli_target_rectanglediamonds.svg	stimuli_distractor_trianglediamonds.svg	4	yes	44	1	799	6	2	antiphase_hc_ios.wav	3	6	1	noise_calib_stim_LEFT.wav	1	20	blb_dichoticlistening_ka-da.mp3	ka	da	1	left
6.6.1	win	2023-06-26	18:22:34	18:31:07	510309	5f5b27db857807236ee3e3f3	2	1	practice_z	22	advance_on_keypress_ZEE	4	stimuli_target_rectanglediamonds.svg	stimuli_distractor_trianglediamonds.svg	4	yes	57	0	303	6	2	antiphase_hc_ios.wav	3	6	1	noise_calib_stim_LEFT.wav	1	20	blb_dichoticlistening_ka-da.mp3	ka	da	1	left
6.6.1	win	2023-06-26	18:22:34	18:31:10	513023	5f5b27db857807236ee3e3f3	2	1	practice_z	22	practice_z	5	stimuli_target_diamondsquares.svg	stimuli_distractor_diamondtriangles.svg	3	yes	44	1	762	6	2	antiphase_hc_ios.wav	3	6	1	noise_calib_stim_LEFT.wav	1	20	blb_dichoticlistening_ka-da.mp3	ka	da	1	left
6.6.1	win	2023-06-26	18:22:34	18:31:10	513023	5f5b27db857807236ee3e3f3	2	1	practice_z	22	advance_on_keypress_ZEE	6	stimuli_target_diamondsquares.svg	stimuli_distractor_diamondtriangles.svg	3	yes	57	0	617	6	2	antiphase_hc_ios.wav	3	6	1	noise_calib_stim_LEFT.wav	1	20	blb_dichoticlistening_ka-da.mp3	ka	da	1	left
6.6.1	win	2023-06-26	18:22:34	18:31:13	516181	5f5b27db857807236ee3e3f3	2	1	practice_z	22	practice_z	7	stimuli_distractor_diamondtriangles.svg	stimuli_target_diamondrectangles.svg	8	yes	44	1	905	6	2	antiphase_hc_ios.wav	3	6	1	noise_calib_stim_LEFT.wav	1	20	blb_dichoticlistening_ka-da.mp3	ka	da	1	left
6.6.1	win	2023-06-26	18:22:34	18:31:13	516181	5f5b27db857807236ee3e3f3	2	1	practice_z	22	advance_on_keypress_ZEE	8	stimuli_distractor_diamondtriangles.svg	stimuli_target_diamondrectangles.svg	8	yes	57	0	271	6	2	antiphase_hc_ios.wav	3	6	1	noise_calib_stim_LEFT.wav	1	20	blb_dichoticlistening_ka-da.mp3	ka	da	1	left
6.6.1	win	2023-06-26	18:22:34	18:31:17	520094	5f5b27db857807236ee3e3f3	2	1	practice_z	22	practice_z	9	stimuli_distractor_trianglediamonds.svg	stimuli_distractor_diamondtriangles.svg	16	no	0	1	2000	6	2	antiphase_hc_ios.wav	3	6	1	noise_calib_stim_LEFT.wav	1	20	blb_dichoticlistening_ka-da.mp3	ka	da	1	left
6.6.1	win	2023-06-26	18:22:34	18:31:17	520094	5f5b27db857807236ee3e3f3	2	1	practice_z	22	advance_on_keypress_ZEE	10	stimuli_distractor_trianglediamonds.svg	stimuli_distractor_diamondtriangles.svg	16	no	57	0	336	6	2	antiphase_hc_ios.wav	3	6	1	noise_calib_stim_LEFT.wav	1	20	blb_dichoticlistening_ka-da.mp3	ka	da	1	left
6.6.1	win	2023-06-26	18:22:34	18:31:19	522650	5f5b27db857807236ee3e3f3	2	1	practice_z	22	practice_z	11	stimuli_target_diamondsquares.svg	stimuli_distractor_trianglediamonds.svg	6	yes	44	1	572	6	2	antiphase_hc_ios.wav	3	6	1	noise_calib_stim_LEFT.wav	1	20	blb_dichoticlistening_ka-da.mp3	ka	da	1	left
6.6.1	win	2023-06-26	18:22:34	18:31:19	522650	5f5b27db857807236ee3e3f3	2	1	practice_z	22	advance_on_keypress_ZEE	12	stimuli_target_diamondsquares.svg	stimuli_distractor_trianglediamonds.svg	6	yes	57	0	572	6	2	antiphase_hc_ios.wav	3	6	1	noise_calib_stim_LEFT.wav	1	20	blb_dichoticlistening_ka-da.mp3	ka	da	1	left
6.6.1	win	2023-06-26	18:22:34	18:31:24	526862	5f5b27db857807236ee3e3f3	2	1	practice_z	22	practice_z	13	stimuli_distractor_diamondtriangles.svg	stimuli_distractor_trianglediamonds.svg	14	no	0	1	2000	6	2	antiphase_hc_ios.wav	3	6	1	noise_calib_stim_LEFT.wav	1	20	blb_dichoticlistening_ka-da.mp3	ka	da	1	left
6.6.1	win	2023-06-26	18:22:34	18:31:24	526862	5f5b27db857807236ee3e3f3	2	1	practice_z	22	advance_on_keypress_ZEE	14	stimuli_distractor_diamondtriangles.svg	stimuli_distractor_trianglediamonds.svg	14	no	57	0	304	6	2	antiphase_hc_ios.wav	3	6	1	noise_calib_stim_LEFT.wav	1	20	blb_dichoticlistening_ka-da.mp3	ka	da	1	left
6.6.1	win	2023-06-26	18:22:34	18:31:27	529830	5f5b27db857807236ee3e3f3	2	1	practice_z	22	practice_z	15	stimuli_distractor_trianglediamonds.svg	stimuli_distractor_trianglediamonds.svg	15	no	44	0	1019	6	2	antiphase_hc_ios.wav	3	6	1	noise_calib_stim_LEFT.wav	1	20	blb_dichoticlistening_ka-da.mp3	ka	da	1	left
6.6.1	win	2023-06-26	18:22:34	18:31:27	529830	5f5b27db857807236ee3e3f3	2	1	practice_z	22	advance_on_keypress_ZEE	16	stimuli_distractor_trianglediamonds.svg	stimuli_distractor_trianglediamonds.svg	15	no	57	0	331	6	2	antiphase_hc_ios.wav	3	6	1	noise_calib_stim_LEFT.wav	1	20	blb_dichoticlistening_ka-da.mp3	ka	da	1	left
6.6.1	win	2023-06-26	18:22:34	18:31:30	533110	5f5b27db857807236ee3e3f3	2	1	practice_z	22	practice_z	17	stimuli_distractor_diamondtriangles.svg	stimuli_target_trianglerectangles.svg	9	yes	44	1	1299	6	2	antiphase_hc_ios.wav	3	6	1	noise_calib_stim_LEFT.wav	1	20	blb_dichoticlistening_ka-da.mp3	ka	da	1	left
6.6.1	win	2023-06-26	18:22:34	18:31:30	533110	5f5b27db857807236ee3e3f3	2	1	practice_z	22	advance_on_keypress_ZEE	18	stimuli_distractor_diamondtriangles.svg	stimuli_target_trianglerectangles.svg	9	yes	57	0	609	6	2	antiphase_hc_ios.wav	3	6	1	noise_calib_stim_LEFT.wav	1	20	blb_dichoticlistening_ka-da.mp3	ka	da	1	left
6.6.1	win	2023-06-26	18:22:34	18:31:34	537361	5f5b27db857807236ee3e3f3	2	1	practice_z	22	practice_z	19	stimuli_distractor_diamondtriangles.svg	stimuli_distractor_diamondtriangles.svg	13	no	0	1	2000	6	2	antiphase_hc_ios.wav	3	6	1	noise_calib_stim_LEFT.wav	1	20	blb_dichoticlistening_ka-da.mp3	ka	da	1	left
6.6.1	win	2023-06-26	18:22:34	18:31:34	537361	5f5b27db857807236ee3e3f3	2	1	practice_z	22	advance_on_keypress_ZEE	20	stimuli_distractor_diamondtriangles.svg	stimuli_distractor_diamondtriangles.svg	13	no	57	0	296	6	2	antiphase_hc_ios.wav	3	6	1	noise_calib_stim_LEFT.wav	1	20	blb_dichoticlistening_ka-da.mp3	ka	da	1	left
6.6.1	win	2023-06-26	18:22:34	18:31:37	540123	5f5b27db857807236ee3e3f3	2	1	practice_z	22	practice_z	21	stimuli_distractor_diamondtriangles.svg	stimuli_target_rectangletriangles.svg	7	yes	44	1	828	6	2	antiphase_hc_ios.wav	3	6	1	noise_calib_stim_LEFT.wav	1	20	blb_dichoticlistening_ka-da.mp3	ka	da	1	left
6.6.1	win	2023-06-26	18:22:34	18:31:37	540123	5f5b27db857807236ee3e3f3	2	1	practice_z	22	advance_on_keypress_ZEE	22	stimuli_distractor_diamondtriangles.svg	stimuli_target_rectangletriangles.svg	7	yes	57	0	553	6	2	antiphase_hc_ios.wav	3	6	1	noise_calib_stim_LEFT.wav	1	20	blb_dichoticlistening_ka-da.mp3	ka	da	1	left
6.6.1	win	2023-06-26	18:22:34	18:31:40	543065	5f5b27db857807236ee3e3f3	2	1	practice_z	22	practice_z	23	stimuli_distractor_trianglediamonds.svg	stimuli_target_squarediamonds.svg	11	yes	44	1	754	6	2	antiphase_hc_ios.wav	3	6	1	noise_calib_stim_LEFT.wav	1	20	blb_dichoticlistening_ka-da.mp3	ka	da	1	left
6.6.1	win	2023-06-26	18:22:34	18:31:40	543065	5f5b27db857807236ee3e3f3	2	1	practice_z	22	advance_on_keypress_ZEE	24	stimuli_distractor_trianglediamonds.svg	stimuli_target_squarediamonds.svg	11	yes	57	0	293	6	2	antiphase_hc_ios.wav	3	6	1	noise_calib_stim_LEFT.wav	1	20	blb_dichoticlistening_ka-da.mp3	ka	da	1	left
6.6.1	win	2023-06-26	18:22:34	18:31:43	545747	5f5b27db857807236ee3e3f3	2	1	practice_z	22	practice_z	25	stimuli_target_squarediamonds.svg	stimuli_distractor_diamondtriangles.svg	2	yes	44	1	752	6	2	antiphase_hc_ios.wav	3	6	1	noise_calib_stim_LEFT.wav	1	20	blb_dichoticlistening_ka-da.mp3	ka	da	1	left
6.6.1	win	2023-06-26	18:22:34	18:31:43	545747	5f5b27db857807236ee3e3f3	2	1	practice_z	22	advance_on_keypress_ZEE	26	stimuli_target_squarediamonds.svg	stimuli_distractor_diamondtriangles.svg	2	yes	57	0	524	6	2	antiphase_hc_ios.wav	3	6	1	noise_calib_stim_LEFT.wav	1	20	blb_dichoticlistening_ka-da.mp3	ka	da	1	left
6.6.1	win	2023-06-26	18:22:34	18:31:45	548688	5f5b27db857807236ee3e3f3	2	1	practice_z	22	practice_z	27	stimuli_target_squarediamonds.svg	stimuli_distractor_trianglediamonds.svg	5	yes	44	1	777	6	2	antiphase_hc_ios.wav	3	6	1	noise_calib_stim_LEFT.wav	1	20	blb_dichoticlistening_ka-da.mp3	ka	da	1	left
6.6.1	win	2023-06-26	18:22:34	18:31:45	548688	5f5b27db857807236ee3e3f3	2	1	practice_z	22	advance_on_keypress_ZEE	28	stimuli_target_squarediamonds.svg	stimuli_distractor_trianglediamonds.svg	5	yes	57	0	399	6	2	antiphase_hc_ios.wav	3	6	1	noise_calib_stim_LEFT.wav	1	20	blb_dichoticlistening_ka-da.mp3	ka	da	1	left
6.6.1	win	2023-06-26	18:22:34	18:31:48	551476	5f5b27db857807236ee3e3f3	2	1	practice_z	22	practice_z	29	stimuli_distractor_trianglediamonds.svg	stimuli_target_diamondrectangles.svg	12	yes	44	1	748	6	2	antiphase_hc_ios.wav	3	6	1	noise_calib_stim_LEFT.wav	1	20	blb_dichoticlistening_ka-da.mp3	ka	da	1	left
6.6.1	win	2023-06-26	18:22:34	18:31:48	551476	5f5b27db857807236ee3e3f3	2	1	practice_z	22	advance_on_keypress_ZEE	30	stimuli_distractor_trianglediamonds.svg	stimuli_target_diamondrectangles.svg	12	yes	57	0	268	6	2	antiphase_hc_ios.wav	3	6	1	noise_calib_stim_LEFT.wav	1	20	blb_dichoticlistening_ka-da.mp3	ka	da	1	left
6.6.1	win	2023-06-26	18:22:34	18:31:51	553996	5f5b27db857807236ee3e3f3	2	1	practice_z	22	practice_z	31	stimuli_target_rectanglediamonds.svg	stimuli_distractor_diamondtriangles.svg	1	yes	44	1	600	6	2	antiphase_hc_ios.wav	3	6	1	noise_calib_stim_LEFT.wav	1	20	blb_dichoticlistening_ka-da.mp3	ka	da	1	left
6.6.1	win	2023-06-26	18:22:34	18:31:51	553996	5f5b27db857807236ee3e3f3	2	1	practice_z	22	advance_on_keypress_ZEE	32	stimuli_target_rectanglediamonds.svg	stimuli_distractor_diamondtriangles.svg	1	yes	57	0	311	6	2	antiphase_hc_ios.wav	3	6	1	noise_calib_stim_LEFT.wav	1	20	blb_dichoticlistening_ka-da.mp3	ka	da	1	left
6.6.1	win	2023-06-26	18:22:34	18:31:59	562238	5f5b27db857807236ee3e3f3	2	1	main_z	24	main_z	1	stimuli_target_rectanglediamonds.svg	stimuli_distractor_trianglediamonds.svg	2	yes	44	1	611	6	2	antiphase_hc_ios.wav	3	6	1	noise_calib_stim_LEFT.wav	1	20	blb_dichoticlistening_ka-da.mp3	ka	da	1	left
6.6.1	win	2023-06-26	18:22:34	18:31:59	562238	5f5b27db857807236ee3e3f3	2	1	main_z	24	advance_on_keypress_ZEE	2	stimuli_target_rectanglediamonds.svg	stimuli_distractor_trianglediamonds.svg	2	yes	57	0	435	6	2	antiphase_hc_ios.wav	3	6	1	noise_calib_stim_LEFT.wav	1	20	blb_dichoticlistening_ka-da.mp3	ka	da	1	left
6.6.1	win	2023-06-26	18:22:34	18:32:01	563937	5f5b27db857807236ee3e3f3	2	1	main_z	24	main_z	3	stimuli_target_trianglesquares.svg	stimuli_distractor_trianglediamonds.svg	18	yes	44	1	626	6	2	antiphase_hc_ios.wav	3	6	1	noise_calib_stim_LEFT.wav	1	20	blb_dichoticlistening_ka-da.mp3	ka	da	1	left
6.6.1	win	2023-06-26	18:22:34	18:32:01	563937	5f5b27db857807236ee3e3f3	2	1	main_z	24	advance_on_keypress_ZEE	4	stimuli_target_trianglesquares.svg	stimuli_distractor_trianglediamonds.svg	18	yes	57	0	528	6	2	antiphase_hc_ios.wav	3	6	1	noise_calib_stim_LEFT.wav	1	20	blb_dichoticlistening_ka-da.mp3	ka	da	1	left
6.6.1	win	2023-06-26	18:22:34	18:32:04	567095	5f5b27db857807236ee3e3f3	2	1	main_z	24	main_z	5	stimuli_distractor_trianglediamonds.svg	stimuli_distractor_trianglediamonds.svg	33	no	0	1	2000	6	2	antiphase_hc_ios.wav	3	6	1	noise_calib_stim_LEFT.wav	1	20	blb_dichoticlistening_ka-da.mp3	ka	da	1	left
6.6.1	win	2023-06-26	18:22:34	18:32:04	567095	5f5b27db857807236ee3e3f3	2	1	main_z	24	advance_on_keypress_ZEE	6	stimuli_distractor_trianglediamonds.svg	stimuli_distractor_trianglediamonds.svg	33	no	57	0	328	6	2	antiphase_hc_ios.wav	3	6	1	noise_calib_stim_LEFT.wav	1	20	blb_dichoticlistening_ka-da.mp3	ka	da	1	left
6.6.1	win	2023-06-26	18:22:34	18:32:05	568592	5f5b27db857807236ee3e3f3	2	1	main_z	24	main_z	7	stimuli_target_diamondsquares.svg	stimuli_distractor_trianglediamonds.svg	20	yes	44	1	531	6	2	antiphase_hc_ios.wav	3	6	1	noise_calib_stim_LEFT.wav	1	20	blb_dichoticlistening_ka-da.mp3	ka	da	1	left
6.6.1	win	2023-06-26	18:22:34	18:32:05	568592	5f5b27db857807236ee3e3f3	2	1	main_z	24	advance_on_keypress_ZEE	8	stimuli_target_diamondsquares.svg	stimuli_distractor_trianglediamonds.svg	20	yes	57	0	735	6	2	antiphase_hc_ios.wav	3	6	1	noise_calib_stim_LEFT.wav	1	20	blb_dichoticlistening_ka-da.mp3	ka	da	1	left
6.6.1	win	2023-06-26	18:22:34	18:32:09	571962	5f5b27db857807236ee3e3f3	2	1	main_z	24	main_z	9	stimuli_distractor_trianglediamonds.svg	stimuli_distractor_trianglediamonds.svg	34	no	0	1	2000	6	2	antiphase_hc_ios.wav	3	6	1	noise_calib_stim_LEFT.wav	1	20	blb_dichoticlistening_ka-da.mp3	ka	da	1	left
6.6.1	win	2023-06-26	18:22:34	18:32:09	571962	5f5b27db857807236ee3e3f3	2	1	main_z	24	advance_on_keypress_ZEE	10	stimuli_distractor_trianglediamonds.svg	stimuli_distractor_trianglediamonds.svg	34	no	57	0	385	6	2	antiphase_hc_ios.wav	3	6	1	noise_calib_stim_LEFT.wav	1	20	blb_dichoticlistening_ka-da.mp3	ka	da	1	left
6.6.1	win	2023-06-26	18:22:34	18:32:11	573742	5f5b27db857807236ee3e3f3	2	1	main_z	24	main_z	11	stimuli_distractor_diamondtriangles.svg	stimuli_target_squaretriangles.svg	15	yes	44	1	748	6	2	antiphase_hc_ios.wav	3	6	1	noise_calib_stim_LEFT.wav	1	20	blb_dichoticlistening_ka-da.mp3	ka	da	1	left
6.6.1	win	2023-06-26	18:22:34	18:32:11	573742	5f5b27db857807236ee3e3f3	2	1	main_z	24	advance_on_keypress_ZEE	12	stimuli_distractor_diamondtriangles.svg	stimuli_target_squaretriangles.svg	15	yes	57	0	591	6	2	antiphase_hc_ios.wav	3	6	1	noise_calib_stim_LEFT.wav	1	20	blb_dichoticlistening_ka-da.mp3	ka	da	1	left
6.6.1	win	2023-06-26	18:22:34	18:32:12	575441	5f5b27db857807236ee3e3f3	2	1	main_z	24	main_z	13	stimuli_distractor_trianglediamonds.svg	stimuli_target_trianglesquares.svg	26	yes	44	1	478	6	2	antiphase_hc_ios.wav	3	6	1	noise_calib_stim_LEFT.wav	1	20	blb_dichoticlistening_ka-da.mp3	ka	da	1	left
6.6.1	win	2023-06-26	18:22:34	18:32:12	575441	5f5b27db857807236ee3e3f3	2	1	main_z	24	advance_on_keypress_ZEE	14	stimuli_distractor_trianglediamonds.svg	stimuli_target_trianglesquares.svg	26	yes	57	0	434	6	2	antiphase_hc_ios.wav	3	6	1	noise_calib_stim_LEFT.wav	1	20	blb_dichoticlistening_ka-da.mp3	ka	da	1	left
6.6.1	win	2023-06-26	18:22:34	18:32:14	576991	5f5b27db857807236ee3e3f3	2	1	main_z	24	main_z	15	stimuli_distractor_diamondtriangles.svg	stimuli_target_rectangletriangles.svg	13	yes	44	1	480	6	2	antiphase_hc_ios.wav	3	6	1	noise_calib_stim_LEFT.wav	1	20	blb_dichoticlistening_ka-da.mp3	ka	da	1	left
6.6.1	win	2023-06-26	18:22:34	18:32:14	576991	5f5b27db857807236ee3e3f3	2	1	main_z	24	advance_on_keypress_ZEE	16	stimuli_distractor_diamondtriangles.svg	stimuli_target_rectangletriangles.svg	13	yes	57	0	432	6	2	antiphase_hc_ios.wav	3	6	1	noise_calib_stim_LEFT.wav	1	20	blb_dichoticlistening_ka-da.mp3	ka	da	1	left
6.6.1	win	2023-06-26	18:22:34	18:32:15	578607	5f5b27db857807236ee3e3f3	2	1	main_z	24	main_z	17	stimuli_distractor_diamondtriangles.svg	stimuli_target_diamondrectangles.svg	31	yes	44	1	545	6	2	antiphase_hc_ios.wav	3	6	1	noise_calib_stim_LEFT.wav	1	20	blb_dichoticlistening_ka-da.mp3	ka	da	1	left
6.6.1	win	2023-06-26	18:22:34	18:32:15	578607	5f5b27db857807236ee3e3f3	2	1	main_z	24	advance_on_keypress_ZEE	18	stimuli_distractor_diamondtriangles.svg	stimuli_target_diamondrectangles.svg	31	yes	57	0	338	6	2	antiphase_hc_ios.wav	3	6	1	noise_calib_stim_LEFT.wav	1	20	blb_dichoticlistening_ka-da.mp3	ka	da	1	left
6.6.1	win	2023-06-26	18:22:34	18:32:17	580095	5f5b27db857807236ee3e3f3	2	1	main_z	24	main_z	19	stimuli_target_trianglesquares.svg	stimuli_distractor_diamondtriangles.svg	22	yes	44	1	508	6	2	antiphase_hc_ios.wav	3	6	1	noise_calib_stim_LEFT.wav	1	20	blb_dichoticlistening_ka-da.mp3	ka	da	1	left
6.6.1	win	2023-06-26	18:22:34	18:32:17	580095	5f5b27db857807236ee3e3f3	2	1	main_z	24	advance_on_keypress_ZEE	20	stimuli_target_trianglesquares.svg	stimuli_distractor_diamondtriangles.svg	22	yes	57	0	292	6	2	antiphase_hc_ios.wav	3	6	1	noise_calib_stim_LEFT.wav	1	20	blb_dichoticlistening_ka-da.mp3	ka	da	1	left
6.6.1	win	2023-06-26	18:22:34	18:32:18	581702	5f5b27db857807236ee3e3f3	2	1	main_z	24	main_z	21	stimuli_distractor_diamondtriangles.svg	stimuli_target_trianglesquares.svg	30	yes	44	1	674	6	2	antiphase_hc_ios.wav	3	6	1	noise_calib_stim_LEFT.wav	1	20	blb_dichoticlistening_ka-da.mp3	ka	da	1	left
6.6.1	win	2023-06-26	18:22:34	18:32:18	581702	5f5b27db857807236ee3e3f3	2	1	main_z	24	advance_on_keypress_ZEE	22	stimuli_distractor_diamondtriangles.svg	stimuli_target_trianglesquares.svg	30	yes	57	0	450	6	2	antiphase_hc_ios.wav	3	6	1	noise_calib_stim_LEFT.wav	1	20	blb_dichoticlistening_ka-da.mp3	ka	da	1	left
6.6.1	win	2023-06-26	18:22:34	18:32:20	583417	5f5b27db857807236ee3e3f3	2	1	main_z	24	main_z	23	stimuli_target_diamondrectangles.svg	stimuli_distractor_diamondtriangles.svg	23	yes	44	1	621	6	2	antiphase_hc_ios.wav	3	6	1	noise_calib_stim_LEFT.wav	1	20	blb_dichoticlistening_ka-da.mp3	ka	da	1	left
6.6.1	win	2023-06-26	18:22:34	18:32:20	583417	5f5b27db857807236ee3e3f3	2	1	main_z	24	advance_on_keypress_ZEE	24	stimuli_target_diamondrectangles.svg	stimuli_distractor_diamondtriangles.svg	23	yes	57	0	404	6	2	antiphase_hc_ios.wav	3	6	1	noise_calib_stim_LEFT.wav	1	20	blb_dichoticlistening_ka-da.mp3	ka	da	1	left
6.6.1	win	2023-06-26	18:22:34	18:32:23	586462	5f5b27db857807236ee3e3f3	2	1	main_z	24	main_z	25	stimuli_target_squarediamonds.svg	stimuli_distractor_trianglediamonds.svg	4	yes	0	0	2000	6	2	antiphase_hc_ios.wav	3	6	1	noise_calib_stim_LEFT.wav	1	20	blb_dichoticlistening_ka-da.mp3	ka	da	1	left
6.6.1	win	2023-06-26	18:22:34	18:32:23	586462	5f5b27db857807236ee3e3f3	2	1	main_z	24	advance_on_keypress_ZEE	26	stimuli_target_squarediamonds.svg	stimuli_distractor_trianglediamonds.svg	4	yes	57	0	540	6	2	antiphase_hc_ios.wav	3	6	1	noise_calib_stim_LEFT.wav	1	20	blb_dichoticlistening_ka-da.mp3	ka	da	1	left
6.6.1	win	2023-06-26	18:22:34	18:32:26	589646	5f5b27db857807236ee3e3f3	2	1	main_z	24	main_z	27	stimuli_distractor_diamondtriangles.svg	stimuli_distractor_trianglediamonds.svg	37	no	0	1	2000	6	2	antiphase_hc_ios.wav	3	6	1	noise_calib_stim_LEFT.wav	1	20	blb_dichoticlistening_ka-da.mp3	ka	da	1	left
6.6.1	win	2023-06-26	18:22:34	18:32:26	589646	5f5b27db857807236ee3e3f3	2	1	main_z	24	advance_on_keypress_ZEE	28	stimuli_distractor_diamondtriangles.svg	stimuli_distractor_trianglediamonds.svg	37	no	57	0	541	6	2	antiphase_hc_ios.wav	3	6	1	noise_calib_stim_LEFT.wav	1	20	blb_dichoticlistening_ka-da.mp3	ka	da	1	left
6.6.1	win	2023-06-26	18:22:34	18:32:28	591410	5f5b27db857807236ee3e3f3	2	1	main_z	24	main_z	29	stimuli_target_rectangletriangles.svg	stimuli_distractor_trianglediamonds.svg	1	yes	44	1	582	6	2	antiphase_hc_ios.wav	3	6	1	noise_calib_stim_LEFT.wav	1	20	blb_dichoticlistening_ka-da.mp3	ka	da	1	left
6.6.1	win	2023-06-26	18:22:34	18:32:28	591410	5f5b27db857807236ee3e3f3	2	1	main_z	24	advance_on_keypress_ZEE	30	stimuli_target_rectangletriangles.svg	stimuli_distractor_trianglediamonds.svg	1	yes	57	0	456	6	2	antiphase_hc_ios.wav	3	6	1	noise_calib_stim_LEFT.wav	1	20	blb_dichoticlistening_ka-da.mp3	ka	da	1	left
6.6.1	win	2023-06-26	18:22:34	18:32:30	593082	5f5b27db857807236ee3e3f3	2	1	main_z	24	main_z	31	stimuli_distractor_trianglediamonds.svg	stimuli_target_diamondsquares.svg	28	yes	44	1	570	6	2	antiphase_hc_ios.wav	3	6	1	noise_calib_stim_LEFT.wav	1	20	blb_dichoticlistening_ka-da.mp3	ka	da	1	left
6.6.1	win	2023-06-26	18:22:34	18:32:30	593082	5f5b27db857807236ee3e3f3	2	1	main_z	24	advance_on_keypress_ZEE	32	stimuli_distractor_trianglediamonds.svg	stimuli_target_diamondsquares.svg	28	yes	57	0	347	6	2	antiphase_hc_ios.wav	3	6	1	noise_calib_stim_LEFT.wav	1	20	blb_dichoticlistening_ka-da.mp3	ka	da	1	left
6.6.1	win	2023-06-26	18:22:34	18:32:33	596062	5f5b27db857807236ee3e3f3	2	1	main_z	24	main_z	33	stimuli_distractor_trianglediamonds.svg	stimuli_distractor_diamondtriangles.svg	36	no	0	1	2000	6	2	antiphase_hc_ios.wav	3	6	1	noise_calib_stim_LEFT.wav	1	20	blb_dichoticlistening_ka-da.mp3	ka	da	1	left
6.6.1	win	2023-06-26	18:22:34	18:32:33	596062	5f5b27db857807236ee3e3f3	2	1	main_z	24	advance_on_keypress_ZEE	34	stimuli_distractor_trianglediamonds.svg	stimuli_distractor_diamondtriangles.svg	36	no	57	0	392	6	2	antiphase_hc_ios.wav	3	6	1	noise_calib_stim_LEFT.wav	1	20	blb_dichoticlistening_ka-da.mp3	ka	da	1	left
6.6.1	win	2023-06-26	18:22:34	18:32:34	597691	5f5b27db857807236ee3e3f3	2	1	main_z	24	main_z	35	stimuli_distractor_trianglediamonds.svg	stimuli_target_diamondrectangles.svg	27	yes	44	1	596	6	2	antiphase_hc_ios.wav	3	6	1	noise_calib_stim_LEFT.wav	1	20	blb_dichoticlistening_ka-da.mp3	ka	da	1	left
6.6.1	win	2023-06-26	18:22:34	18:32:34	597691	5f5b27db857807236ee3e3f3	2	1	main_z	24	advance_on_keypress_ZEE	36	stimuli_distractor_trianglediamonds.svg	stimuli_target_diamondrectangles.svg	27	yes	57	0	367	6	2	antiphase_hc_ios.wav	3	6	1	noise_calib_stim_LEFT.wav	1	20	blb_dichoticlistening_ka-da.mp3	ka	da	1	left
6.6.1	win	2023-06-26	18:22:34	18:32:36	599403	5f5b27db857807236ee3e3f3	2	1	main_z	24	main_z	37	stimuli_target_trianglerectangles.svg	stimuli_distractor_trianglediamonds.svg	17	yes	44	1	708	6	2	antiphase_hc_ios.wav	3	6	1	noise_calib_stim_LEFT.wav	1	20	blb_dichoticlistening_ka-da.mp3	ka	da	1	left
6.6.1	win	2023-06-26	18:22:34	18:32:36	599403	5f5b27db857807236ee3e3f3	2	1	main_z	24	advance_on_keypress_ZEE	38	stimuli_target_trianglerectangles.svg	stimuli_distractor_trianglediamonds.svg	17	yes	57	0	425	6	2	antiphase_hc_ios.wav	3	6	1	noise_calib_stim_LEFT.wav	1	20	blb_dichoticlistening_ka-da.mp3	ka	da	1	left
6.6.1	win	2023-06-26	18:22:34	18:32:38	601056	5f5b27db857807236ee3e3f3	2	1	main_z	24	main_z	39	stimuli_distractor_trianglediamonds.svg	stimuli_target_trianglerectangles.svg	25	yes	44	1	594	6	2	antiphase_hc_ios.wav	3	6	1	noise_calib_stim_LEFT.wav	1	20	blb_dichoticlistening_ka-da.mp3	ka	da	1	left
6.6.1	win	2023-06-26	18:22:34	18:32:38	601056	5f5b27db857807236ee3e3f3	2	1	main_z	24	advance_on_keypress_ZEE	40	stimuli_distractor_trianglediamonds.svg	stimuli_target_trianglerectangles.svg	25	yes	57	0	308	6	2	antiphase_hc_ios.wav	3	6	1	noise_calib_stim_LEFT.wav	1	20	blb_dichoticlistening_ka-da.mp3	ka	da	1	left
6.6.1	win	2023-06-26	18:22:34	18:32:40	602766	5f5b27db857807236ee3e3f3	2	1	main_z	24	main_z	41	stimuli_distractor_trianglediamonds.svg	stimuli_target_squaretriangles.svg	11	yes	44	1	770	6	2	antiphase_hc_ios.wav	3	6	1	noise_calib_stim_LEFT.wav	1	20	blb_dichoticlistening_ka-da.mp3	ka	da	1	left
6.6.1	win	2023-06-26	18:22:34	18:32:40	602766	5f5b27db857807236ee3e3f3	2	1	main_z	24	advance_on_keypress_ZEE	42	stimuli_distractor_trianglediamonds.svg	stimuli_target_squaretriangles.svg	11	yes	57	0	368	6	2	antiphase_hc_ios.wav	3	6	1	noise_calib_stim_LEFT.wav	1	20	blb_dichoticlistening_ka-da.mp3	ka	da	1	left
6.6.1	win	2023-06-26	18:22:34	18:32:41	604544	5f5b27db857807236ee3e3f3	2	1	main_z	24	main_z	43	stimuli_distractor_diamondtriangles.svg	stimuli_target_trianglerectangles.svg	29	yes	44	1	765	6	2	antiphase_hc_ios.wav	3	6	1	noise_calib_stim_LEFT.wav	1	20	blb_dichoticlistening_ka-da.mp3	ka	da	1	left
6.6.1	win	2023-06-26	18:22:34	18:32:41	604544	5f5b27db857807236ee3e3f3	2	1	main_z	24	advance_on_keypress_ZEE	44	stimuli_distractor_diamondtriangles.svg	stimuli_target_trianglerectangles.svg	29	yes	57	0	344	6	2	antiphase_hc_ios.wav	3	6	1	noise_calib_stim_LEFT.wav	1	20	blb_dichoticlistening_ka-da.mp3	ka	da	1	left
6.6.1	win	2023-06-26	18:22:34	18:32:43	606416	5f5b27db857807236ee3e3f3	2	1	main_z	24	main_z	45	stimuli_distractor_diamondtriangles.svg	stimuli_target_diamondsquares.svg	32	yes	44	1	886	6	2	antiphase_hc_ios.wav	3	6	1	noise_calib_stim_LEFT.wav	1	20	blb_dichoticlistening_ka-da.mp3	ka	da	1	left
6.6.1	win	2023-06-26	18:22:34	18:32:43	606416	5f5b27db857807236ee3e3f3	2	1	main_z	24	advance_on_keypress_ZEE	46	stimuli_distractor_diamondtriangles.svg	stimuli_target_diamondsquares.svg	32	yes	57	0	307	6	2	antiphase_hc_ios.wav	3	6	1	noise_calib_stim_LEFT.wav	1	20	blb_dichoticlistening_ka-da.mp3	ka	da	1	left
6.6.1	win	2023-06-26	18:22:34	18:32:45	608271	5f5b27db857807236ee3e3f3	2	1	main_z	24	main_z	47	stimuli_distractor_trianglediamonds.svg	stimuli_target_rectangletriangles.svg	9	yes	44	1	908	6	2	antiphase_hc_ios.wav	3	6	1	noise_calib_stim_LEFT.wav	1	20	blb_dichoticlistening_ka-da.mp3	ka	da	1	left
6.6.1	win	2023-06-26	18:22:34	18:32:45	608271	5f5b27db857807236ee3e3f3	2	1	main_z	24	advance_on_keypress_ZEE	48	stimuli_distractor_trianglediamonds.svg	stimuli_target_rectangletriangles.svg	9	yes	57	0	300	6	2	antiphase_hc_ios.wav	3	6	1	noise_calib_stim_LEFT.wav	1	20	blb_dichoticlistening_ka-da.mp3	ka	da	1	left
6.6.1	win	2023-06-26	18:22:34	18:32:47	609874	5f5b27db857807236ee3e3f3	2	1	main_z	24	main_z	49	stimuli_target_diamondsquares.svg	stimuli_distractor_diamondtriangles.svg	24	yes	44	1	662	6	2	antiphase_hc_ios.wav	3	6	1	noise_calib_stim_LEFT.wav	1	20	blb_dichoticlistening_ka-da.mp3	ka	da	1	left
6.6.1	win	2023-06-26	18:22:34	18:32:47	609874	5f5b27db857807236ee3e3f3	2	1	main_z	24	advance_on_keypress_ZEE	50	stimuli_target_diamondsquares.svg	stimuli_distractor_diamondtriangles.svg	24	yes	57	0	322	6	2	antiphase_hc_ios.wav	3	6	1	noise_calib_stim_LEFT.wav	1	20	blb_dichoticlistening_ka-da.mp3	ka	da	1	left
6.6.1	win	2023-06-26	18:22:34	18:32:49	611829	5f5b27db857807236ee3e3f3	2	1	main_z	24	main_z	51	stimuli_target_squarediamonds.svg	stimuli_distractor_diamondtriangles.svg	8	yes	44	1	1001	6	2	antiphase_hc_ios.wav	3	6	1	noise_calib_stim_LEFT.wav	1	20	blb_dichoticlistening_ka-da.mp3	ka	da	1	left
6.6.1	win	2023-06-26	18:22:34	18:32:49	611829	5f5b27db857807236ee3e3f3	2	1	main_z	24	advance_on_keypress_ZEE	52	stimuli_target_squarediamonds.svg	stimuli_distractor_diamondtriangles.svg	8	yes	57	0	403	6	2	antiphase_hc_ios.wav	3	6	1	noise_calib_stim_LEFT.wav	1	20	blb_dichoticlistening_ka-da.mp3	ka	da	1	left
6.6.1	win	2023-06-26	18:22:34	18:32:51	613727	5f5b27db857807236ee3e3f3	2	1	main_z	24	main_z	53	stimuli_target_squaretriangles.svg	stimuli_distractor_trianglediamonds.svg	3	yes	44	1	848	6	2	antiphase_hc_ios.wav	3	6	1	noise_calib_stim_LEFT.wav	1	20	blb_dichoticlistening_ka-da.mp3	ka	da	1	left
6.6.1	win	2023-06-26	18:22:34	18:32:51	613727	5f5b27db857807236ee3e3f3	2	1	main_z	24	advance_on_keypress_ZEE	54	stimuli_target_squaretriangles.svg	stimuli_distractor_trianglediamonds.svg	3	yes	57	0	218	6	2	antiphase_hc_ios.wav	3	6	1	noise_calib_stim_LEFT.wav	1	20	blb_dichoticlistening_ka-da.mp3	ka	da	1	left
6.6.1	win	2023-06-26	18:22:34	18:32:52	615136	5f5b27db857807236ee3e3f3	2	1	main_z	24	main_z	55	stimuli_target_squaretriangles.svg	stimuli_distractor_diamondtriangles.svg	7	yes	44	1	557	6	2	antiphase_hc_ios.wav	3	6	1	noise_calib_stim_LEFT.wav	1	20	blb_dichoticlistening_ka-da.mp3	ka	da	1	left
6.6.1	win	2023-06-26	18:22:34	18:32:52	615136	5f5b27db857807236ee3e3f3	2	1	main_z	24	advance_on_keypress_ZEE	56	stimuli_target_squaretriangles.svg	stimuli_distractor_diamondtriangles.svg	7	yes	57	0	306	6	2	antiphase_hc_ios.wav	3	6	1	noise_calib_stim_LEFT.wav	1	20	blb_dichoticlistening_ka-da.mp3	ka	da	1	left
6.6.1	win	2023-06-26	18:22:34	18:32:53	616649	5f5b27db857807236ee3e3f3	2	1	main_z	24	main_z	57	stimuli_distractor_trianglediamonds.svg	stimuli_target_squarediamonds.svg	12	yes	44	1	570	6	2	antiphase_hc_ios.wav	3	6	1	noise_calib_stim_LEFT.wav	1	20	blb_dichoticlistening_ka-da.mp3	ka	da	1	left
6.6.1	win	2023-06-26	18:22:34	18:32:53	616649	5f5b27db857807236ee3e3f3	2	1	main_z	24	advance_on_keypress_ZEE	58	stimuli_distractor_trianglediamonds.svg	stimuli_target_squarediamonds.svg	12	yes	57	0	280	6	2	antiphase_hc_ios.wav	3	6	1	noise_calib_stim_LEFT.wav	1	20	blb_dichoticlistening_ka-da.mp3	ka	da	1	left
6.6.1	win	2023-06-26	18:22:34	18:32:56	619563	5f5b27db857807236ee3e3f3	2	1	main_z	24	main_z	59	stimuli_distractor_trianglediamonds.svg	stimuli_distractor_diamondtriangles.svg	35	no	0	1	2000	6	2	antiphase_hc_ios.wav	3	6	1	noise_calib_stim_LEFT.wav	1	20	blb_dichoticlistening_ka-da.mp3	ka	da	1	left
6.6.1	win	2023-06-26	18:22:34	18:32:56	619563	5f5b27db857807236ee3e3f3	2	1	main_z	24	advance_on_keypress_ZEE	60	stimuli_distractor_trianglediamonds.svg	stimuli_distractor_diamondtriangles.svg	35	no	57	0	430	6	2	antiphase_hc_ios.wav	3	6	1	noise_calib_stim_LEFT.wav	1	20	blb_dichoticlistening_ka-da.mp3	ka	da	1	left
6.6.1	win	2023-06-26	18:22:34	18:32:59	622630	5f5b27db857807236ee3e3f3	2	1	main_z	24	main_z	61	stimuli_distractor_diamondtriangles.svg	stimuli_distractor_diamondtriangles.svg	40	no	0	1	2000	6	2	antiphase_hc_ios.wav	3	6	1	noise_calib_stim_LEFT.wav	1	20	blb_dichoticlistening_ka-da.mp3	ka	da	1	left
6.6.1	win	2023-06-26	18:22:34	18:32:59	622630	5f5b27db857807236ee3e3f3	2	1	main_z	24	advance_on_keypress_ZEE	62	stimuli_distractor_diamondtriangles.svg	stimuli_distractor_diamondtriangles.svg	40	no	57	0	292	6	2	antiphase_hc_ios.wav	3	6	1	noise_calib_stim_LEFT.wav	1	20	blb_dichoticlistening_ka-da.mp3	ka	da	1	left
6.6.1	win	2023-06-26	18:22:34	18:33:01	624166	5f5b27db857807236ee3e3f3	2	1	main_z	24	main_z	63	stimuli_target_trianglerectangles.svg	stimuli_distractor_diamondtriangles.svg	21	yes	44	1	603	6	2	antiphase_hc_ios.wav	3	6	1	noise_calib_stim_LEFT.wav	1	20	blb_dichoticlistening_ka-da.mp3	ka	da	1	left
6.6.1	win	2023-06-26	18:22:34	18:33:01	624166	5f5b27db857807236ee3e3f3	2	1	main_z	24	advance_on_keypress_ZEE	64	stimuli_target_trianglerectangles.svg	stimuli_distractor_diamondtriangles.svg	21	yes	57	0	290	6	2	antiphase_hc_ios.wav	3	6	1	noise_calib_stim_LEFT.wav	1	20	blb_dichoticlistening_ka-da.mp3	ka	da	1	left
6.6.1	win	2023-06-26	18:22:34	18:33:03	625740	5f5b27db857807236ee3e3f3	2	1	main_z	24	main_z	65	stimuli_target_rectangletriangles.svg	stimuli_distractor_diamondtriangles.svg	5	yes	44	1	644	6	2	antiphase_hc_ios.wav	3	6	1	noise_calib_stim_LEFT.wav	1	20	blb_dichoticlistening_ka-da.mp3	ka	da	1	left
6.6.1	win	2023-06-26	18:22:34	18:33:03	625740	5f5b27db857807236ee3e3f3	2	1	main_z	24	advance_on_keypress_ZEE	66	stimuli_target_rectangletriangles.svg	stimuli_distractor_diamondtriangles.svg	5	yes	57	0	281	6	2	antiphase_hc_ios.wav	3	6	1	noise_calib_stim_LEFT.wav	1	20	blb_dichoticlistening_ka-da.mp3	ka	da	1	left
6.6.1	win	2023-06-26	18:22:34	18:33:04	627098	5f5b27db857807236ee3e3f3	2	1	main_z	24	main_z	67	stimuli_target_rectanglediamonds.svg	stimuli_distractor_diamondtriangles.svg	6	yes	44	1	453	6	2	antiphase_hc_ios.wav	3	6	1	noise_calib_stim_LEFT.wav	1	20	blb_dichoticlistening_ka-da.mp3	ka	da	1	left
6.6.1	win	2023-06-26	18:22:34	18:33:04	627098	5f5b27db857807236ee3e3f3	2	1	main_z	24	advance_on_keypress_ZEE	68	stimuli_target_rectanglediamonds.svg	stimuli_distractor_diamondtriangles.svg	6	yes	57	0	273	6	2	antiphase_hc_ios.wav	3	6	1	noise_calib_stim_LEFT.wav	1	20	blb_dichoticlistening_ka-da.mp3	ka	da	1	left
6.6.1	win	2023-06-26	18:22:34	18:33:07	630013	5f5b27db857807236ee3e3f3	2	1	main_z	24	main_z	69	stimuli_distractor_diamondtriangles.svg	stimuli_distractor_diamondtriangles.svg	39	no	0	1	2000	6	2	antiphase_hc_ios.wav	3	6	1	noise_calib_stim_LEFT.wav	1	20	blb_dichoticlistening_ka-da.mp3	ka	da	1	left
6.6.1	win	2023-06-26	18:22:34	18:33:07	630013	5f5b27db857807236ee3e3f3	2	1	main_z	24	advance_on_keypress_ZEE	70	stimuli_distractor_diamondtriangles.svg	stimuli_distractor_diamondtriangles.svg	39	no	57	0	316	6	2	antiphase_hc_ios.wav	3	6	1	noise_calib_stim_LEFT.wav	1	20	blb_dichoticlistening_ka-da.mp3	ka	da	1	left
6.6.1	win	2023-06-26	18:22:34	18:33:08	631397	5f5b27db857807236ee3e3f3	2	1	main_z	24	main_z	71	stimuli_distractor_trianglediamonds.svg	stimuli_target_rectanglediamonds.svg	10	yes	44	1	417	6	2	antiphase_hc_ios.wav	3	6	1	noise_calib_stim_LEFT.wav	1	20	blb_dichoticlistening_ka-da.mp3	ka	da	1	left
6.6.1	win	2023-06-26	18:22:34	18:33:08	631397	5f5b27db857807236ee3e3f3	2	1	main_z	24	advance_on_keypress_ZEE	72	stimuli_distractor_trianglediamonds.svg	stimuli_target_rectanglediamonds.svg	10	yes	57	0	289	6	2	antiphase_hc_ios.wav	3	6	1	noise_calib_stim_LEFT.wav	1	20	blb_dichoticlistening_ka-da.mp3	ka	da	1	left
6.6.1	win	2023-06-26	18:22:34	18:33:10	633125	5f5b27db857807236ee3e3f3	2	1	main_z	24	main_z	73	stimuli_target_diamondrectangles.svg	stimuli_distractor_trianglediamonds.svg	19	yes	44	1	795	6	2	antiphase_hc_ios.wav	3	6	1	noise_calib_stim_LEFT.wav	1	20	blb_dichoticlistening_ka-da.mp3	ka	da	1	left
6.6.1	win	2023-06-26	18:22:34	18:33:10	633125	5f5b27db857807236ee3e3f3	2	1	main_z	24	advance_on_keypress_ZEE	74	stimuli_target_diamondrectangles.svg	stimuli_distractor_trianglediamonds.svg	19	yes	57	0	306	6	2	antiphase_hc_ios.wav	3	6	1	noise_calib_stim_LEFT.wav	1	20	blb_dichoticlistening_ka-da.mp3	ka	da	1	left
6.6.1	win	2023-06-26	18:22:34	18:33:13	636063	5f5b27db857807236ee3e3f3	2	1	main_z	24	main_z	75	stimuli_distractor_diamondtriangles.svg	stimuli_distractor_trianglediamonds.svg	38	no	0	1	2000	6	2	antiphase_hc_ios.wav	3	6	1	noise_calib_stim_LEFT.wav	1	20	blb_dichoticlistening_ka-da.mp3	ka	da	1	left
6.6.1	win	2023-06-26	18:22:34	18:33:13	636063	5f5b27db857807236ee3e3f3	2	1	main_z	24	advance_on_keypress_ZEE	76	stimuli_distractor_diamondtriangles.svg	stimuli_distractor_trianglediamonds.svg	38	no	57	0	295	6	2	antiphase_hc_ios.wav	3	6	1	noise_calib_stim_LEFT.wav	1	20	blb_dichoticlistening_ka-da.mp3	ka	da	1	left
6.6.1	win	2023-06-26	18:22:34	18:33:14	637517	5f5b27db857807236ee3e3f3	2	1	main_z	24	main_z	77	stimuli_distractor_diamondtriangles.svg	stimuli_target_rectanglediamonds.svg	14	yes	44	1	521	6	2	antiphase_hc_ios.wav	3	6	1	noise_calib_stim_LEFT.wav	1	20	blb_dichoticlistening_ka-da.mp3	ka	da	1	left
6.6.1	win	2023-06-26	18:22:34	18:33:14	637517	5f5b27db857807236ee3e3f3	2	1	main_z	24	advance_on_keypress_ZEE	78	stimuli_distractor_diamondtriangles.svg	stimuli_target_rectanglediamonds.svg	14	yes	57	0	246	6	2	antiphase_hc_ios.wav	3	6	1	noise_calib_stim_LEFT.wav	1	20	blb_dichoticlistening_ka-da.mp3	ka	da	1	left
6.6.1	win	2023-06-26	18:22:34	18:33:16	638954	5f5b27db857807236ee3e3f3	2	1	main_z	24	main_z	79	stimuli_distractor_diamondtriangles.svg	stimuli_target_squarediamonds.svg	16	yes	44	1	558	6	2	antiphase_hc_ios.wav	3	6	1	noise_calib_stim_LEFT.wav	1	20	blb_dichoticlistening_ka-da.mp3	ka	da	1	left
6.6.1	win	2023-06-26	18:22:34	18:33:16	638954	5f5b27db857807236ee3e3f3	2	1	main_z	24	advance_on_keypress_ZEE	80	stimuli_distractor_diamondtriangles.svg	stimuli_target_squarediamonds.svg	16	yes	57	0	242	6	2	antiphase_hc_ios.wav	3	6	1	noise_calib_stim_LEFT.wav	1	20	blb_dichoticlistening_ka-da.mp3	ka	da	1	left
6.6.1	win	2023-06-26	18:22:34	18:33:17	640371	5f5b27db857807236ee3e3f3	2	1	main_z	24	main_z	81	stimuli_distractor_diamondtriangles.svg	stimuli_target_squarediamonds.svg	16	yes	44	1	542	6	2	antiphase_hc_ios.wav	3	6	1	noise_calib_stim_LEFT.wav	1	20	blb_dichoticlistening_ka-da.mp3	ka	da	1	left
6.6.1	win	2023-06-26	18:22:34	18:33:17	640371	5f5b27db857807236ee3e3f3	2	1	main_z	24	advance_on_keypress_ZEE	82	stimuli_distractor_diamondtriangles.svg	stimuli_target_squarediamonds.svg	16	yes	57	0	207	6	2	antiphase_hc_ios.wav	3	6	1	noise_calib_stim_LEFT.wav	1	20	blb_dichoticlistening_ka-da.mp3	ka	da	1	left
6.6.1	win	2023-06-26	18:22:34	18:33:18	641676	5f5b27db857807236ee3e3f3	2	1	main_z	24	main_z	83	stimuli_target_squarediamonds.svg	stimuli_distractor_diamondtriangles.svg	8	yes	44	1	464	6	2	antiphase_hc_ios.wav	3	6	1	noise_calib_stim_LEFT.wav	1	20	blb_dichoticlistening_ka-da.mp3	ka	da	1	left
6.6.1	win	2023-06-26	18:22:34	18:33:18	641676	5f5b27db857807236ee3e3f3	2	1	main_z	24	advance_on_keypress_ZEE	84	stimuli_target_squarediamonds.svg	stimuli_distractor_diamondtriangles.svg	8	yes	57	0	189	6	2	antiphase_hc_ios.wav	3	6	1	noise_calib_stim_LEFT.wav	1	20	blb_dichoticlistening_ka-da.mp3	ka	da	1	left
6.6.1	win	2023-06-26	18:22:34	18:33:21	644497	5f5b27db857807236ee3e3f3	2	1	main_z	24	main_z	85	stimuli_distractor_trianglediamonds.svg	stimuli_distractor_diamondtriangles.svg	36	no	0	1	2000	6	2	antiphase_hc_ios.wav	3	6	1	noise_calib_stim_LEFT.wav	1	20	blb_dichoticlistening_ka-da.mp3	ka	da	1	left
6.6.1	win	2023-06-26	18:22:34	18:33:21	644497	5f5b27db857807236ee3e3f3	2	1	main_z	24	advance_on_keypress_ZEE	86	stimuli_distractor_trianglediamonds.svg	stimuli_distractor_diamondtriangles.svg	36	no	57	0	331	6	2	antiphase_hc_ios.wav	3	6	1	noise_calib_stim_LEFT.wav	1	20	blb_dichoticlistening_ka-da.mp3	ka	da	1	left
6.6.1	win	2023-06-26	18:22:34	18:33:23	645980	5f5b27db857807236ee3e3f3	2	1	main_z	24	main_z	87	stimuli_distractor_diamondtriangles.svg	stimuli_target_diamondrectangles.svg	31	yes	44	1	509	6	2	antiphase_hc_ios.wav	3	6	1	noise_calib_stim_LEFT.wav	1	20	blb_dichoticlistening_ka-da.mp3	ka	da	1	left
6.6.1	win	2023-06-26	18:22:34	18:33:23	645980	5f5b27db857807236ee3e3f3	2	1	main_z	24	advance_on_keypress_ZEE	88	stimuli_distractor_diamondtriangles.svg	stimuli_target_diamondrectangles.svg	31	yes	57	0	240	6	2	antiphase_hc_ios.wav	3	6	1	noise_calib_stim_LEFT.wav	1	20	blb_dichoticlistening_ka-da.mp3	ka	da	1	left
6.6.1	win	2023-06-26	18:22:34	18:33:24	647361	5f5b27db857807236ee3e3f3	2	1	main_z	24	main_z	89	stimuli_target_diamondrectangles.svg	stimuli_distractor_trianglediamonds.svg	19	yes	44	1	498	6	2	antiphase_hc_ios.wav	3	6	1	noise_calib_stim_LEFT.wav	1	20	blb_dichoticlistening_ka-da.mp3	ka	da	1	left
6.6.1	win	2023-06-26	18:22:34	18:33:24	647361	5f5b27db857807236ee3e3f3	2	1	main_z	24	advance_on_keypress_ZEE	90	stimuli_target_diamondrectangles.svg	stimuli_distractor_trianglediamonds.svg	19	yes	57	0	241	6	2	antiphase_hc_ios.wav	3	6	1	noise_calib_stim_LEFT.wav	1	20	blb_dichoticlistening_ka-da.mp3	ka	da	1	left
6.6.1	win	2023-06-26	18:22:34	18:33:26	648815	5f5b27db857807236ee3e3f3	2	1	main_z	24	main_z	91	stimuli_distractor_trianglediamonds.svg	stimuli_target_squaretriangles.svg	11	yes	44	1	586	6	2	antiphase_hc_ios.wav	3	6	1	noise_calib_stim_LEFT.wav	1	20	blb_dichoticlistening_ka-da.mp3	ka	da	1	left
6.6.1	win	2023-06-26	18:22:34	18:33:26	648815	5f5b27db857807236ee3e3f3	2	1	main_z	24	advance_on_keypress_ZEE	92	stimuli_distractor_trianglediamonds.svg	stimuli_target_squaretriangles.svg	11	yes	57	0	198	6	2	antiphase_hc_ios.wav	3	6	1	noise_calib_stim_LEFT.wav	1	20	blb_dichoticlistening_ka-da.mp3	ka	da	1	left
6.6.1	win	2023-06-26	18:22:34	18:33:27	650196	5f5b27db857807236ee3e3f3	2	1	main_z	24	main_z	93	stimuli_target_diamondrectangles.svg	stimuli_distractor_diamondtriangles.svg	23	yes	44	1	549	6	2	antiphase_hc_ios.wav	3	6	1	noise_calib_stim_LEFT.wav	1	20	blb_dichoticlistening_ka-da.mp3	ka	da	1	left
6.6.1	win	2023-06-26	18:22:34	18:33:27	650196	5f5b27db857807236ee3e3f3	2	1	main_z	24	advance_on_keypress_ZEE	94	stimuli_target_diamondrectangles.svg	stimuli_distractor_diamondtriangles.svg	23	yes	57	0	264	6	2	antiphase_hc_ios.wav	3	6	1	noise_calib_stim_LEFT.wav	1	20	blb_dichoticlistening_ka-da.mp3	ka	da	1	left
6.6.1	win	2023-06-26	18:22:34	18:33:28	651568	5f5b27db857807236ee3e3f3	2	1	main_z	24	main_z	95	stimuli_distractor_trianglediamonds.svg	stimuli_target_rectanglediamonds.svg	10	yes	44	1	454	6	2	antiphase_hc_ios.wav	3	6	1	noise_calib_stim_LEFT.wav	1	20	blb_dichoticlistening_ka-da.mp3	ka	da	1	left
6.6.1	win	2023-06-26	18:22:34	18:33:28	651568	5f5b27db857807236ee3e3f3	2	1	main_z	24	advance_on_keypress_ZEE	96	stimuli_distractor_trianglediamonds.svg	stimuli_target_rectanglediamonds.svg	10	yes	57	0	176	6	2	antiphase_hc_ios.wav	3	6	1	noise_calib_stim_LEFT.wav	1	20	blb_dichoticlistening_ka-da.mp3	ka	da	1	left
6.6.1	win	2023-06-26	18:22:34	18:33:30	653220	5f5b27db857807236ee3e3f3	2	1	main_z	24	main_z	97	stimuli_distractor_diamondtriangles.svg	stimuli_target_rectanglediamonds.svg	14	yes	44	1	840	6	2	antiphase_hc_ios.wav	3	6	1	noise_calib_stim_LEFT.wav	1	20	blb_dichoticlistening_ka-da.mp3	ka	da	1	left
6.6.1	win	2023-06-26	18:22:34	18:33:30	653220	5f5b27db857807236ee3e3f3	2	1	main_z	24	advance_on_keypress_ZEE	98	stimuli_distractor_diamondtriangles.svg	stimuli_target_rectanglediamonds.svg	14	yes	57	0	193	6	2	antiphase_hc_ios.wav	3	6	1	noise_calib_stim_LEFT.wav	1	20	blb_dichoticlistening_ka-da.mp3	ka	da	1	left
6.6.1	win	2023-06-26	18:22:34	18:33:32	655345	5f5b27db857807236ee3e3f3	2	1	main_z	24	main_z	99	stimuli_distractor_diamondtriangles.svg	stimuli_target_squaretriangles.svg	15	yes	44	1	1299	6	2	antiphase_hc_ios.wav	3	6	1	noise_calib_stim_LEFT.wav	1	20	blb_dichoticlistening_ka-da.mp3	ka	da	1	left
6.6.1	win	2023-06-26	18:22:34	18:33:32	655345	5f5b27db857807236ee3e3f3	2	1	main_z	24	advance_on_keypress_ZEE	100	stimuli_distractor_diamondtriangles.svg	stimuli_target_squaretriangles.svg	15	yes	57	0	195	6	2	antiphase_hc_ios.wav	3	6	1	noise_calib_stim_LEFT.wav	1	20	blb_dichoticlistening_ka-da.mp3	ka	da	1	left
6.6.1	win	2023-06-26	18:22:34	18:33:34	657055	5f5b27db857807236ee3e3f3	2	1	main_z	24	main_z	101	stimuli_distractor_diamondtriangles.svg	stimuli_distractor_trianglediamonds.svg	38	no	44	0	875	6	2	antiphase_hc_ios.wav	3	6	1	noise_calib_stim_LEFT.wav	1	20	blb_dichoticlistening_ka-da.mp3	ka	da	1	left
6.6.1	win	2023-06-26	18:22:34	18:33:34	657055	5f5b27db857807236ee3e3f3	2	1	main_z	24	advance_on_keypress_ZEE	102	stimuli_distractor_diamondtriangles.svg	stimuli_distractor_trianglediamonds.svg	38	no	57	0	847	6	2	antiphase_hc_ios.wav	3	6	1	noise_calib_stim_LEFT.wav	1	20	blb_dichoticlistening_ka-da.mp3	ka	da	1	left
6.6.1	win	2023-06-26	18:22:34	18:33:36	659323	5f5b27db857807236ee3e3f3	2	1	main_z	24	main_z	103	stimuli_target_diamondsquares.svg	stimuli_distractor_diamondtriangles.svg	24	yes	44	1	794	6	2	antiphase_hc_ios.wav	3	6	1	noise_calib_stim_LEFT.wav	1	20	blb_dichoticlistening_ka-da.mp3	ka	da	1	left
6.6.1	win	2023-06-26	18:22:34	18:33:36	659323	5f5b27db857807236ee3e3f3	2	1	main_z	24	advance_on_keypress_ZEE	104	stimuli_target_diamondsquares.svg	stimuli_distractor_diamondtriangles.svg	24	yes	57	0	173	6	2	antiphase_hc_ios.wav	3	6	1	noise_calib_stim_LEFT.wav	1	20	blb_dichoticlistening_ka-da.mp3	ka	da	1	left
6.6.1	win	2023-06-26	18:22:34	18:33:38	660891	5f5b27db857807236ee3e3f3	2	1	main_z	24	main_z	105	stimuli_distractor_trianglediamonds.svg	stimuli_target_diamondrectangles.svg	27	yes	44	1	762	6	2	antiphase_hc_ios.wav	3	6	1	noise_calib_stim_LEFT.wav	1	20	blb_dichoticlistening_ka-da.mp3	ka	da	1	left
6.6.1	win	2023-06-26	18:22:34	18:33:38	660891	5f5b27db857807236ee3e3f3	2	1	main_z	24	advance_on_keypress_ZEE	106	stimuli_distractor_trianglediamonds.svg	stimuli_target_diamondrectangles.svg	27	yes	57	0	680	6	2	antiphase_hc_ios.wav	3	6	1	noise_calib_stim_LEFT.wav	1	20	blb_dichoticlistening_ka-da.mp3	ka	da	1	left
6.6.1	win	2023-06-26	18:22:34	18:33:40	662880	5f5b27db857807236ee3e3f3	2	1	main_z	24	main_z	107	stimuli_target_squarediamonds.svg	stimuli_distractor_trianglediamonds.svg	4	yes	44	1	683	6	2	antiphase_hc_ios.wav	3	6	1	noise_calib_stim_LEFT.wav	1	20	blb_dichoticlistening_ka-da.mp3	ka	da	1	left
6.6.1	win	2023-06-26	18:22:34	18:33:40	662880	5f5b27db857807236ee3e3f3	2	1	main_z	24	advance_on_keypress_ZEE	108	stimuli_target_squarediamonds.svg	stimuli_distractor_trianglediamonds.svg	4	yes	57	0	260	6	2	antiphase_hc_ios.wav	3	6	1	noise_calib_stim_LEFT.wav	1	20	blb_dichoticlistening_ka-da.mp3	ka	da	1	left
6.6.1	win	2023-06-26	18:22:34	18:33:43	665781	5f5b27db857807236ee3e3f3	2	1	main_z	24	main_z	109	stimuli_target_rectanglediamonds.svg	stimuli_distractor_trianglediamonds.svg	2	yes	0	0	2000	6	2	antiphase_hc_ios.wav	3	6	1	noise_calib_stim_LEFT.wav	1	20	blb_dichoticlistening_ka-da.mp3	ka	da	1	left
6.6.1	win	2023-06-26	18:22:34	18:33:43	665781	5f5b27db857807236ee3e3f3	2	1	main_z	24	advance_on_keypress_ZEE	110	stimuli_target_rectanglediamonds.svg	stimuli_distractor_trianglediamonds.svg	2	yes	57	0	314	6	2	antiphase_hc_ios.wav	3	6	1	noise_calib_stim_LEFT.wav	1	20	blb_dichoticlistening_ka-da.mp3	ka	da	1	left
6.6.1	win	2023-06-26	18:22:34	18:33:46	668731	5f5b27db857807236ee3e3f3	2	1	main_z	24	main_z	111	stimuli_distractor_trianglediamonds.svg	stimuli_distractor_diamondtriangles.svg	35	no	0	1	2000	6	2	antiphase_hc_ios.wav	3	6	1	noise_calib_stim_LEFT.wav	1	20	blb_dichoticlistening_ka-da.mp3	ka	da	1	left
6.6.1	win	2023-06-26	18:22:34	18:33:46	668731	5f5b27db857807236ee3e3f3	2	1	main_z	24	advance_on_keypress_ZEE	112	stimuli_distractor_trianglediamonds.svg	stimuli_distractor_diamondtriangles.svg	35	no	57	0	349	6	2	antiphase_hc_ios.wav	3	6	1	noise_calib_stim_LEFT.wav	1	20	blb_dichoticlistening_ka-da.mp3	ka	da	1	left
6.6.1	win	2023-06-26	18:22:34	18:33:47	670435	5f5b27db857807236ee3e3f3	2	1	main_z	24	main_z	113	stimuli_distractor_trianglediamonds.svg	stimuli_target_trianglerectangles.svg	25	yes	44	1	704	6	2	antiphase_hc_ios.wav	3	6	1	noise_calib_stim_LEFT.wav	1	20	blb_dichoticlistening_ka-da.mp3	ka	da	1	left
6.6.1	win	2023-06-26	18:22:34	18:33:47	670435	5f5b27db857807236ee3e3f3	2	1	main_z	24	advance_on_keypress_ZEE	114	stimuli_distractor_trianglediamonds.svg	stimuli_target_trianglerectangles.svg	25	yes	57	0	340	6	2	antiphase_hc_ios.wav	3	6	1	noise_calib_stim_LEFT.wav	1	20	blb_dichoticlistening_ka-da.mp3	ka	da	1	left
6.6.1	win	2023-06-26	18:22:34	18:33:49	671960	5f5b27db857807236ee3e3f3	2	1	main_z	24	main_z	115	stimuli_target_trianglesquares.svg	stimuli_distractor_diamondtriangles.svg	22	yes	44	1	546	6	2	antiphase_hc_ios.wav	3	6	1	noise_calib_stim_LEFT.wav	1	20	blb_dichoticlistening_ka-da.mp3	ka	da	1	left
6.6.1	win	2023-06-26	18:22:34	18:33:49	671960	5f5b27db857807236ee3e3f3	2	1	main_z	24	advance_on_keypress_ZEE	116	stimuli_target_trianglesquares.svg	stimuli_distractor_diamondtriangles.svg	22	yes	57	0	239	6	2	antiphase_hc_ios.wav	3	6	1	noise_calib_stim_LEFT.wav	1	20	blb_dichoticlistening_ka-da.mp3	ka	da	1	left
6.6.1	win	2023-06-26	18:22:34	18:33:50	673490	5f5b27db857807236ee3e3f3	2	1	main_z	24	main_z	117	stimuli_distractor_trianglediamonds.svg	stimuli_target_diamondsquares.svg	28	yes	44	1	659	6	2	antiphase_hc_ios.wav	3	6	1	noise_calib_stim_LEFT.wav	1	20	blb_dichoticlistening_ka-da.mp3	ka	da	1	left
6.6.1	win	2023-06-26	18:22:34	18:33:50	673490	5f5b27db857807236ee3e3f3	2	1	main_z	24	advance_on_keypress_ZEE	118	stimuli_distractor_trianglediamonds.svg	stimuli_target_diamondsquares.svg	28	yes	57	0	237	6	2	antiphase_hc_ios.wav	3	6	1	noise_calib_stim_LEFT.wav	1	20	blb_dichoticlistening_ka-da.mp3	ka	da	1	left
6.6.1	win	2023-06-26	18:22:34	18:33:52	674988	5f5b27db857807236ee3e3f3	2	1	main_z	24	main_z	119	stimuli_target_rectangletriangles.svg	stimuli_distractor_trianglediamonds.svg	1	yes	44	1	624	6	2	antiphase_hc_ios.wav	3	6	1	noise_calib_stim_LEFT.wav	1	20	blb_dichoticlistening_ka-da.mp3	ka	da	1	left
6.6.1	win	2023-06-26	18:22:34	18:33:52	674988	5f5b27db857807236ee3e3f3	2	1	main_z	24	advance_on_keypress_ZEE	120	stimuli_target_rectangletriangles.svg	stimuli_distractor_trianglediamonds.svg	1	yes	57	0	221	6	2	antiphase_hc_ios.wav	3	6	1	noise_calib_stim_LEFT.wav	1	20	blb_dichoticlistening_ka-da.mp3	ka	da	1	left
6.6.1	win	2023-06-26	18:22:34	18:33:53	676571	5f5b27db857807236ee3e3f3	2	1	main_z	24	main_z	121	stimuli_distractor_trianglediamonds.svg	stimuli_target_trianglesquares.svg	26	yes	44	1	724	6	2	antiphase_hc_ios.wav	3	6	1	noise_calib_stim_LEFT.wav	1	20	blb_dichoticlistening_ka-da.mp3	ka	da	1	left
6.6.1	win	2023-06-26	18:22:34	18:33:53	676571	5f5b27db857807236ee3e3f3	2	1	main_z	24	advance_on_keypress_ZEE	122	stimuli_distractor_trianglediamonds.svg	stimuli_target_trianglesquares.svg	26	yes	57	0	209	6	2	antiphase_hc_ios.wav	3	6	1	noise_calib_stim_LEFT.wav	1	20	blb_dichoticlistening_ka-da.mp3	ka	da	1	left
6.6.1	win	2023-06-26	18:22:34	18:33:55	678148	5f5b27db857807236ee3e3f3	2	1	main_z	24	main_z	123	stimuli_target_trianglerectangles.svg	stimuli_distractor_trianglediamonds.svg	17	yes	44	1	734	6	2	antiphase_hc_ios.wav	3	6	1	noise_calib_stim_LEFT.wav	1	20	blb_dichoticlistening_ka-da.mp3	ka	da	1	left
6.6.1	win	2023-06-26	18:22:34	18:33:55	678148	5f5b27db857807236ee3e3f3	2	1	main_z	24	advance_on_keypress_ZEE	124	stimuli_target_trianglerectangles.svg	stimuli_distractor_trianglediamonds.svg	17	yes	57	0	581	6	2	antiphase_hc_ios.wav	3	6	1	noise_calib_stim_LEFT.wav	1	20	blb_dichoticlistening_ka-da.mp3	ka	da	1	left
6.6.1	win	2023-06-26	18:22:34	18:33:58	681364	5f5b27db857807236ee3e3f3	2	1	main_z	24	main_z	125	stimuli_distractor_diamondtriangles.svg	stimuli_distractor_trianglediamonds.svg	37	no	0	1	2000	6	2	antiphase_hc_ios.wav	3	6	1	noise_calib_stim_LEFT.wav	1	20	blb_dichoticlistening_ka-da.mp3	ka	da	1	left
6.6.1	win	2023-06-26	18:22:34	18:33:58	681364	5f5b27db857807236ee3e3f3	2	1	main_z	24	advance_on_keypress_ZEE	126	stimuli_distractor_diamondtriangles.svg	stimuli_distractor_trianglediamonds.svg	37	no	57	0	277	6	2	antiphase_hc_ios.wav	3	6	1	noise_calib_stim_LEFT.wav	1	20	blb_dichoticlistening_ka-da.mp3	ka	da	1	left
6.6.1	win	2023-06-26	18:22:34	18:33:59	682681	5f5b27db857807236ee3e3f3	2	1	main_z	24	main_z	127	stimuli_distractor_trianglediamonds.svg	stimuli_target_squarediamonds.svg	12	yes	44	1	400	6	2	antiphase_hc_ios.wav	3	6	1	noise_calib_stim_LEFT.wav	1	20	blb_dichoticlistening_ka-da.mp3	ka	da	1	left
6.6.1	win	2023-06-26	18:22:34	18:33:59	682681	5f5b27db857807236ee3e3f3	2	1	main_z	24	advance_on_keypress_ZEE	128	stimuli_distractor_trianglediamonds.svg	stimuli_target_squarediamonds.svg	12	yes	57	0	214	6	2	antiphase_hc_ios.wav	3	6	1	noise_calib_stim_LEFT.wav	1	20	blb_dichoticlistening_ka-da.mp3	ka	da	1	left
6.6.1	win	2023-06-26	18:22:34	18:34:02	685531	5f5b27db857807236ee3e3f3	2	1	main_z	24	main_z	129	stimuli_distractor_diamondtriangles.svg	stimuli_distractor_diamondtriangles.svg	40	no	0	1	2000	6	2	antiphase_hc_ios.wav	3	6	1	noise_calib_stim_LEFT.wav	1	20	blb_dichoticlistening_ka-da.mp3	ka	da	1	left
6.6.1	win	2023-06-26	18:22:34	18:34:02	685531	5f5b27db857807236ee3e3f3	2	1	main_z	24	advance_on_keypress_ZEE	130	stimuli_distractor_diamondtriangles.svg	stimuli_distractor_diamondtriangles.svg	40	no	57	0	355	6	2	antiphase_hc_ios.wav	3	6	1	noise_calib_stim_LEFT.wav	1	20	blb_dichoticlistening_ka-da.mp3	ka	da	1	left
6.6.1	win	2023-06-26	18:22:34	18:34:04	687256	5f5b27db857807236ee3e3f3	2	1	main_z	24	main_z	131	stimuli_distractor_trianglediamonds.svg	stimuli_distractor_trianglediamonds.svg	34	no	44	0	726	6	2	antiphase_hc_ios.wav	3	6	1	noise_calib_stim_LEFT.wav	1	20	blb_dichoticlistening_ka-da.mp3	ka	da	1	left
6.6.1	win	2023-06-26	18:22:34	18:34:04	687256	5f5b27db857807236ee3e3f3	2	1	main_z	24	advance_on_keypress_ZEE	132	stimuli_distractor_trianglediamonds.svg	stimuli_distractor_trianglediamonds.svg	34	no	57	0	234	6	2	antiphase_hc_ios.wav	3	6	1	noise_calib_stim_LEFT.wav	1	20	blb_dichoticlistening_ka-da.mp3	ka	da	1	left
6.6.1	win	2023-06-26	18:22:34	18:34:06	688752	5f5b27db857807236ee3e3f3	2	1	main_z	24	main_z	133	stimuli_distractor_diamondtriangles.svg	stimuli_target_trianglesquares.svg	30	yes	44	1	621	6	2	antiphase_hc_ios.wav	3	6	1	noise_calib_stim_LEFT.wav	1	20	blb_dichoticlistening_ka-da.mp3	ka	da	1	left
6.6.1	win	2023-06-26	18:22:34	18:34:06	688752	5f5b27db857807236ee3e3f3	2	1	main_z	24	advance_on_keypress_ZEE	134	stimuli_distractor_diamondtriangles.svg	stimuli_target_trianglesquares.svg	30	yes	57	0	159	6	2	antiphase_hc_ios.wav	3	6	1	noise_calib_stim_LEFT.wav	1	20	blb_dichoticlistening_ka-da.mp3	ka	da	1	left
6.6.1	win	2023-06-26	18:22:34	18:34:07	690075	5f5b27db857807236ee3e3f3	2	1	main_z	24	main_z	135	stimuli_target_rectangletriangles.svg	stimuli_distractor_diamondtriangles.svg	5	yes	44	1	528	6	2	antiphase_hc_ios.wav	3	6	1	noise_calib_stim_LEFT.wav	1	20	blb_dichoticlistening_ka-da.mp3	ka	da	1	left
6.6.1	win	2023-06-26	18:22:34	18:34:07	690075	5f5b27db857807236ee3e3f3	2	1	main_z	24	advance_on_keypress_ZEE	136	stimuli_target_rectangletriangles.svg	stimuli_distractor_diamondtriangles.svg	5	yes	57	0	150	6	2	antiphase_hc_ios.wav	3	6	1	noise_calib_stim_LEFT.wav	1	20	blb_dichoticlistening_ka-da.mp3	ka	da	1	left
6.6.1	win	2023-06-26	18:22:34	18:34:08	691459	5f5b27db857807236ee3e3f3	2	1	main_z	24	main_z	137	stimuli_target_diamondsquares.svg	stimuli_distractor_trianglediamonds.svg	20	yes	44	1	595	6	2	antiphase_hc_ios.wav	3	6	1	noise_calib_stim_LEFT.wav	1	20	blb_dichoticlistening_ka-da.mp3	ka	da	1	left
6.6.1	win	2023-06-26	18:22:34	18:34:08	691459	5f5b27db857807236ee3e3f3	2	1	main_z	24	advance_on_keypress_ZEE	138	stimuli_target_diamondsquares.svg	stimuli_distractor_trianglediamonds.svg	20	yes	57	0	126	6	2	antiphase_hc_ios.wav	3	6	1	noise_calib_stim_LEFT.wav	1	20	blb_dichoticlistening_ka-da.mp3	ka	da	1	left
6.6.1	win	2023-06-26	18:22:34	18:34:10	692815	5f5b27db857807236ee3e3f3	2	1	main_z	24	main_z	139	stimuli_target_squaretriangles.svg	stimuli_distractor_diamondtriangles.svg	7	yes	44	1	601	6	2	antiphase_hc_ios.wav	3	6	1	noise_calib_stim_LEFT.wav	1	20	blb_dichoticlistening_ka-da.mp3	ka	da	1	left
6.6.1	win	2023-06-26	18:22:34	18:34:10	692815	5f5b27db857807236ee3e3f3	2	1	main_z	24	advance_on_keypress_ZEE	140	stimuli_target_squaretriangles.svg	stimuli_distractor_diamondtriangles.svg	7	yes	57	0	174	6	2	antiphase_hc_ios.wav	3	6	1	noise_calib_stim_LEFT.wav	1	20	blb_dichoticlistening_ka-da.mp3	ka	da	1	left
6.6.1	win	2023-06-26	18:22:34	18:34:11	694178	5f5b27db857807236ee3e3f3	2	1	main_z	24	main_z	141	stimuli_target_squaretriangles.svg	stimuli_distractor_trianglediamonds.svg	3	yes	44	1	547	6	2	antiphase_hc_ios.wav	3	6	1	noise_calib_stim_LEFT.wav	1	20	blb_dichoticlistening_ka-da.mp3	ka	da	1	left
6.6.1	win	2023-06-26	18:22:34	18:34:11	694178	5f5b27db857807236ee3e3f3	2	1	main_z	24	advance_on_keypress_ZEE	142	stimuli_target_squaretriangles.svg	stimuli_distractor_trianglediamonds.svg	3	yes	57	0	161	6	2	antiphase_hc_ios.wav	3	6	1	noise_calib_stim_LEFT.wav	1	20	blb_dichoticlistening_ka-da.mp3	ka	da	1	left
6.6.1	win	2023-06-26	18:22:34	18:34:12	695631	5f5b27db857807236ee3e3f3	2	1	main_z	24	main_z	143	stimuli_distractor_diamondtriangles.svg	stimuli_target_diamondsquares.svg	32	yes	44	1	666	6	2	antiphase_hc_ios.wav	3	6	1	noise_calib_stim_LEFT.wav	1	20	blb_dichoticlistening_ka-da.mp3	ka	da	1	left
6.6.1	win	2023-06-26	18:22:34	18:34:12	695631	5f5b27db857807236ee3e3f3	2	1	main_z	24	advance_on_keypress_ZEE	144	stimuli_distractor_diamondtriangles.svg	stimuli_target_diamondsquares.svg	32	yes	57	0	138	6	2	antiphase_hc_ios.wav	3	6	1	noise_calib_stim_LEFT.wav	1	20	blb_dichoticlistening_ka-da.mp3	ka	da	1	left
6.6.1	win	2023-06-26	18:22:34	18:34:14	696936	5f5b27db857807236ee3e3f3	2	1	main_z	24	main_z	145	stimuli_distractor_diamondtriangles.svg	stimuli_target_trianglerectangles.svg	29	yes	44	1	522	6	2	antiphase_hc_ios.wav	3	6	1	noise_calib_stim_LEFT.wav	1	20	blb_dichoticlistening_ka-da.mp3	ka	da	1	left
6.6.1	win	2023-06-26	18:22:34	18:34:14	696936	5f5b27db857807236ee3e3f3	2	1	main_z	24	advance_on_keypress_ZEE	146	stimuli_distractor_diamondtriangles.svg	stimuli_target_trianglerectangles.svg	29	yes	57	0	101	6	2	antiphase_hc_ios.wav	3	6	1	noise_calib_stim_LEFT.wav	1	20	blb_dichoticlistening_ka-da.mp3	ka	da	1	left
6.6.1	win	2023-06-26	18:22:34	18:34:16	699681	5f5b27db857807236ee3e3f3	2	1	main_z	24	main_z	147	stimuli_distractor_trianglediamonds.svg	stimuli_distractor_trianglediamonds.svg	33	no	0	1	2000	6	2	antiphase_hc_ios.wav	3	6	1	noise_calib_stim_LEFT.wav	1	20	blb_dichoticlistening_ka-da.mp3	ka	da	1	left
6.6.1	win	2023-06-26	18:22:34	18:34:16	699681	5f5b27db857807236ee3e3f3	2	1	main_z	24	advance_on_keypress_ZEE	148	stimuli_distractor_trianglediamonds.svg	stimuli_distractor_trianglediamonds.svg	33	no	57	0	308	6	2	antiphase_hc_ios.wav	3	6	1	noise_calib_stim_LEFT.wav	1	20	blb_dichoticlistening_ka-da.mp3	ka	da	1	left
6.6.1	win	2023-06-26	18:22:34	18:34:18	701090	5f5b27db857807236ee3e3f3	2	1	main_z	24	main_z	149	stimuli_target_trianglesquares.svg	stimuli_distractor_trianglediamonds.svg	18	yes	44	1	460	6	2	antiphase_hc_ios.wav	3	6	1	noise_calib_stim_LEFT.wav	1	20	blb_dichoticlistening_ka-da.mp3	ka	da	1	left
6.6.1	win	2023-06-26	18:22:34	18:34:18	701090	5f5b27db857807236ee3e3f3	2	1	main_z	24	advance_on_keypress_ZEE	150	stimuli_target_trianglesquares.svg	stimuli_distractor_trianglediamonds.svg	18	yes	57	0	311	6	2	antiphase_hc_ios.wav	3	6	1	noise_calib_stim_LEFT.wav	1	20	blb_dichoticlistening_ka-da.mp3	ka	da	1	left
6.6.1	win	2023-06-26	18:22:34	18:34:19	702548	5f5b27db857807236ee3e3f3	2	1	main_z	24	main_z	151	stimuli_distractor_trianglediamonds.svg	stimuli_target_rectangletriangles.svg	9	yes	44	1	503	6	2	antiphase_hc_ios.wav	3	6	1	noise_calib_stim_LEFT.wav	1	20	blb_dichoticlistening_ka-da.mp3	ka	da	1	left
6.6.1	win	2023-06-26	18:22:34	18:34:19	702548	5f5b27db857807236ee3e3f3	2	1	main_z	24	advance_on_keypress_ZEE	152	stimuli_distractor_trianglediamonds.svg	stimuli_target_rectangletriangles.svg	9	yes	57	0	85	6	2	antiphase_hc_ios.wav	3	6	1	noise_calib_stim_LEFT.wav	1	20	blb_dichoticlistening_ka-da.mp3	ka	da	1	left
6.6.1	win	2023-06-26	18:22:34	18:34:21	703717	5f5b27db857807236ee3e3f3	2	1	main_z	24	main_z	153	stimuli_distractor_diamondtriangles.svg	stimuli_target_rectangletriangles.svg	13	yes	44	1	437	6	2	antiphase_hc_ios.wav	3	6	1	noise_calib_stim_LEFT.wav	1	20	blb_dichoticlistening_ka-da.mp3	ka	da	1	left
6.6.1	win	2023-06-26	18:22:34	18:34:21	703717	5f5b27db857807236ee3e3f3	2	1	main_z	24	advance_on_keypress_ZEE	154	stimuli_distractor_diamondtriangles.svg	stimuli_target_rectangletriangles.svg	13	yes	57	0	138	6	2	antiphase_hc_ios.wav	3	6	1	noise_calib_stim_LEFT.wav	1	20	blb_dichoticlistening_ka-da.mp3	ka	da	1	left
6.6.1	win	2023-06-26	18:22:34	18:34:22	704950	5f5b27db857807236ee3e3f3	2	1	main_z	24	main_z	155	stimuli_target_trianglerectangles.svg	stimuli_distractor_diamondtriangles.svg	21	yes	44	1	453	6	2	antiphase_hc_ios.wav	3	6	1	noise_calib_stim_LEFT.wav	1	20	blb_dichoticlistening_ka-da.mp3	ka	da	1	left
6.6.1	win	2023-06-26	18:22:34	18:34:22	704950	5f5b27db857807236ee3e3f3	2	1	main_z	24	advance_on_keypress_ZEE	156	stimuli_target_trianglerectangles.svg	stimuli_distractor_diamondtriangles.svg	21	yes	57	0	98	6	2	antiphase_hc_ios.wav	3	6	1	noise_calib_stim_LEFT.wav	1	20	blb_dichoticlistening_ka-da.mp3	ka	da	1	left
6.6.1	win	2023-06-26	18:22:34	18:34:23	706080	5f5b27db857807236ee3e3f3	2	1	main_z	24	main_z	157	stimuli_target_rectanglediamonds.svg	stimuli_distractor_diamondtriangles.svg	6	yes	44	1	400	6	2	antiphase_hc_ios.wav	3	6	1	noise_calib_stim_LEFT.wav	1	20	blb_dichoticlistening_ka-da.mp3	ka	da	1	left
6.6.1	win	2023-06-26	18:22:34	18:34:23	706080	5f5b27db857807236ee3e3f3	2	1	main_z	24	advance_on_keypress_ZEE	158	stimuli_target_rectanglediamonds.svg	stimuli_distractor_diamondtriangles.svg	6	yes	57	0	83	6	2	antiphase_hc_ios.wav	3	6	1	noise_calib_stim_LEFT.wav	1	20	blb_dichoticlistening_ka-da.mp3	ka	da	1	left
6.6.1	win	2023-06-26	18:22:34	18:34:26	708815	5f5b27db857807236ee3e3f3	2	1	main_z	24	main_z	159	stimuli_distractor_diamondtriangles.svg	stimuli_distractor_diamondtriangles.svg	39	no	0	1	2000	6	2	antiphase_hc_ios.wav	3	6	1	noise_calib_stim_LEFT.wav	1	20	blb_dichoticlistening_ka-da.mp3	ka	da	1	left
6.6.1	win	2023-06-26	18:22:34	18:34:26	708815	5f5b27db857807236ee3e3f3	2	1	main_z	24	advance_on_keypress_ZEE	160	stimuli_distractor_diamondtriangles.svg	stimuli_distractor_diamondtriangles.svg	39	no	57	0	292	6	2	antiphase_hc_ios.wav	3	6	1	noise_calib_stim_LEFT.wav	1	20	blb_dichoticlistening_ka-da.mp3	ka	da	1	left
6.6.1	win	2023-06-26	18:22:34	18:34:42	725476	5f5b27db857807236ee3e3f3	2	1	practice_slash	26	practice_slash	1	stimuli_distractor_trianglediamonds.svg	stimuli_target_squarediamonds.svg	11	yes	53	1	611	6	2	antiphase_hc_ios.wav	3	6	1	noise_calib_stim_LEFT.wav	1	20	blb_dichoticlistening_ka-da.mp3	ka	da	1	left
6.6.1	win	2023-06-26	18:22:34	18:34:42	725476	5f5b27db857807236ee3e3f3	2	1	practice_slash	26	advance_on_keypress_SLASH	2	stimuli_distractor_trianglediamonds.svg	stimuli_target_squarediamonds.svg	11	yes	57	0	459	6	2	antiphase_hc_ios.wav	3	6	1	noise_calib_stim_LEFT.wav	1	20	blb_dichoticlistening_ka-da.mp3	ka	da	1	left
6.6.1	win	2023-06-26	18:22:34	18:34:45	728049	5f5b27db857807236ee3e3f3	2	1	practice_slash	26	practice_slash	3	stimuli_target_squarediamonds.svg	stimuli_distractor_trianglediamonds.svg	5	yes	53	1	467	6	2	antiphase_hc_ios.wav	3	6	1	noise_calib_stim_LEFT.wav	1	20	blb_dichoticlistening_ka-da.mp3	ka	da	1	left
6.6.1	win	2023-06-26	18:22:34	18:34:45	728049	5f5b27db857807236ee3e3f3	2	1	practice_slash	26	advance_on_keypress_SLASH	4	stimuli_target_squarediamonds.svg	stimuli_distractor_trianglediamonds.svg	5	yes	57	0	352	6	2	antiphase_hc_ios.wav	3	6	1	noise_calib_stim_LEFT.wav	1	20	blb_dichoticlistening_ka-da.mp3	ka	da	1	left
6.6.1	win	2023-06-26	18:22:34	18:34:47	730442	5f5b27db857807236ee3e3f3	2	1	practice_slash	26	practice_slash	5	stimuli_target_diamondsquares.svg	stimuli_distractor_trianglediamonds.svg	6	yes	53	1	393	6	2	antiphase_hc_ios.wav	3	6	1	noise_calib_stim_LEFT.wav	1	20	blb_dichoticlistening_ka-da.mp3	ka	da	1	left
6.6.1	win	2023-06-26	18:22:34	18:34:47	730442	5f5b27db857807236ee3e3f3	2	1	practice_slash	26	advance_on_keypress_SLASH	6	stimuli_target_diamondsquares.svg	stimuli_distractor_trianglediamonds.svg	6	yes	57	0	297	6	2	antiphase_hc_ios.wav	3	6	1	noise_calib_stim_LEFT.wav	1	20	blb_dichoticlistening_ka-da.mp3	ka	da	1	left
6.6.1	win	2023-06-26	18:22:34	18:34:50	733104	5f5b27db857807236ee3e3f3	2	1	practice_slash	26	practice_slash	7	stimuli_distractor_diamondtriangles.svg	stimuli_target_diamondrectangles.svg	8	yes	53	1	739	6	2	antiphase_hc_ios.wav	3	6	1	noise_calib_stim_LEFT.wav	1	20	blb_dichoticlistening_ka-da.mp3	ka	da	1	left
6.6.1	win	2023-06-26	18:22:34	18:34:50	733104	5f5b27db857807236ee3e3f3	2	1	practice_slash	26	advance_on_keypress_SLASH	8	stimuli_distractor_diamondtriangles.svg	stimuli_target_diamondrectangles.svg	8	yes	57	0	278	6	2	antiphase_hc_ios.wav	3	6	1	noise_calib_stim_LEFT.wav	1	20	blb_dichoticlistening_ka-da.mp3	ka	da	1	left
6.6.1	win	2023-06-26	18:22:34	18:34:54	737016	5f5b27db857807236ee3e3f3	2	1	practice_slash	26	practice_slash	9	stimuli_distractor_diamondtriangles.svg	stimuli_distractor_diamondtriangles.svg	13	no	0	1	2000	6	2	antiphase_hc_ios.wav	3	6	1	noise_calib_stim_LEFT.wav	1	20	blb_dichoticlistening_ka-da.mp3	ka	da	1	left
6.6.1	win	2023-06-26	18:22:34	18:34:54	737016	5f5b27db857807236ee3e3f3	2	1	practice_slash	26	advance_on_keypress_SLASH	10	stimuli_distractor_diamondtriangles.svg	stimuli_distractor_diamondtriangles.svg	13	no	57	0	339	6	2	antiphase_hc_ios.wav	3	6	1	noise_calib_stim_LEFT.wav	1	20	blb_dichoticlistening_ka-da.mp3	ka	da	1	left
6.6.1	win	2023-06-26	18:22:34	18:34:56	739491	5f5b27db857807236ee3e3f3	2	1	practice_slash	26	practice_slash	11	stimuli_distractor_trianglediamonds.svg	stimuli_target_diamondrectangles.svg	12	yes	53	1	492	6	2	antiphase_hc_ios.wav	3	6	1	noise_calib_stim_LEFT.wav	1	20	blb_dichoticlistening_ka-da.mp3	ka	da	1	left
6.6.1	win	2023-06-26	18:22:34	18:34:56	739491	5f5b27db857807236ee3e3f3	2	1	practice_slash	26	advance_on_keypress_SLASH	12	stimuli_distractor_trianglediamonds.svg	stimuli_target_diamondrectangles.svg	12	yes	57	0	397	6	2	antiphase_hc_ios.wav	3	6	1	noise_calib_stim_LEFT.wav	1	20	blb_dichoticlistening_ka-da.mp3	ka	da	1	left
6.6.1	win	2023-06-26	18:22:34	18:34:59	741916	5f5b27db857807236ee3e3f3	2	1	practice_slash	26	practice_slash	13	stimuli_target_rectanglediamonds.svg	stimuli_distractor_diamondtriangles.svg	1	yes	53	1	401	6	2	antiphase_hc_ios.wav	3	6	1	noise_calib_stim_LEFT.wav	1	20	blb_dichoticlistening_ka-da.mp3	ka	da	1	left
6.6.1	win	2023-06-26	18:22:34	18:34:59	741916	5f5b27db857807236ee3e3f3	2	1	practice_slash	26	advance_on_keypress_SLASH	14	stimuli_target_rectanglediamonds.svg	stimuli_distractor_diamondtriangles.svg	1	yes	57	0	475	6	2	antiphase_hc_ios.wav	3	6	1	noise_calib_stim_LEFT.wav	1	20	blb_dichoticlistening_ka-da.mp3	ka	da	1	left
6.6.1	win	2023-06-26	18:22:34	18:35:01	744427	5f5b27db857807236ee3e3f3	2	1	practice_slash	26	practice_slash	15	stimuli_target_rectanglediamonds.svg	stimuli_distractor_trianglediamonds.svg	4	yes	53	1	395	6	2	antiphase_hc_ios.wav	3	6	1	noise_calib_stim_LEFT.wav	1	20	blb_dichoticlistening_ka-da.mp3	ka	da	1	left
6.6.1	win	2023-06-26	18:22:34	18:35:01	744427	5f5b27db857807236ee3e3f3	2	1	practice_slash	26	advance_on_keypress_SLASH	16	stimuli_target_rectanglediamonds.svg	stimuli_distractor_trianglediamonds.svg	4	yes	57	0	265	6	2	antiphase_hc_ios.wav	3	6	1	noise_calib_stim_LEFT.wav	1	20	blb_dichoticlistening_ka-da.mp3	ka	da	1	left
6.6.1	win	2023-06-26	18:22:34	18:35:04	746976	5f5b27db857807236ee3e3f3	2	1	practice_slash	26	practice_slash	17	stimuli_distractor_diamondtriangles.svg	stimuli_target_rectangletriangles.svg	7	yes	53	1	644	6	2	antiphase_hc_ios.wav	3	6	1	noise_calib_stim_LEFT.wav	1	20	blb_dichoticlistening_ka-da.mp3	ka	da	1	left
6.6.1	win	2023-06-26	18:22:34	18:35:04	746976	5f5b27db857807236ee3e3f3	2	1	practice_slash	26	advance_on_keypress_SLASH	18	stimuli_distractor_diamondtriangles.svg	stimuli_target_rectangletriangles.svg	7	yes	57	0	411	6	2	antiphase_hc_ios.wav	3	6	1	noise_calib_stim_LEFT.wav	1	20	blb_dichoticlistening_ka-da.mp3	ka	da	1	left
6.6.1	win	2023-06-26	18:22:34	18:35:06	749510	5f5b27db857807236ee3e3f3	2	1	practice_slash	26	practice_slash	19	stimuli_distractor_trianglediamonds.svg	stimuli_target_rectanglediamonds.svg	10	yes	53	1	494	6	2	antiphase_hc_ios.wav	3	6	1	noise_calib_stim_LEFT.wav	1	20	blb_dichoticlistening_ka-da.mp3	ka	da	1	left
6.6.1	win	2023-06-26	18:22:34	18:35:06	749510	5f5b27db857807236ee3e3f3	2	1	practice_slash	26	advance_on_keypress_SLASH	20	stimuli_distractor_trianglediamonds.svg	stimuli_target_rectanglediamonds.svg	10	yes	57	0	370	6	2	antiphase_hc_ios.wav	3	6	1	noise_calib_stim_LEFT.wav	1	20	blb_dichoticlistening_ka-da.mp3	ka	da	1	left
