build	computer.platform	date	time	timestamp	time_elapsed_ms	subject	group	session	blockcode	blocknum	trialcode	trialnum	stimulus_left	stimulus_right	stim_index	target_present	response	correct	latency	headphonecheck_countTestTrials	headphonecheck_index	headphonecheck_testSound	headphonecheck_correctResponse	stereocheck_countTestTrials	stereocheck_index	stereocheck_testSound	stereocheck_correctResponse	DL_index	DL_soundfile	DL_leftSound	DL_rightSound	DL_dualSound	DL_choice
6.6.1	win	2023-07-08	20:56:53	20:59:26	147543	5c0586b43199f4000153f133	4	1	practice_z	5	practice_z	1	stimuli_target_rectanglediamonds.svg	stimuli_distractor_diamondtriangles.svg	1	yes	0	0	2000	0	0			0	0			1				0	
6.6.1	win	2023-07-08	20:56:53	20:59:26	147543	5c0586b43199f4000153f133	4	1	practice_z	5	advance_on_keypress_ZEE	2	stimuli_target_rectanglediamonds.svg	stimuli_distractor_diamondtriangles.svg	1	yes	57	0	1276	0	0			0	0			1				0	
6.6.1	win	2023-07-08	20:56:53	20:59:29	150933	5c0586b43199f4000153f133	4	1	practice_z	5	practice_z	3	stimuli_distractor_diamondtriangles.svg	stimuli_target_rectangletriangles.svg	7	yes	44	1	442	0	0			0	0			1				0	
6.6.1	win	2023-07-08	20:56:53	20:59:29	150933	5c0586b43199f4000153f133	4	1	practice_z	5	advance_on_keypress_ZEE	4	stimuli_distractor_diamondtriangles.svg	stimuli_target_rectangletriangles.svg	7	yes	57	0	655	0	0			0	0			1				0	
6.6.1	win	2023-07-08	20:56:53	20:59:33	154317	5c0586b43199f4000153f133	4	1	practice_z	5	practice_z	5	stimuli_distractor_diamondtriangles.svg	stimuli_target_trianglerectangles.svg	9	yes	44	1	1076	0	0			0	0			1				0	
6.6.1	win	2023-07-08	20:56:53	20:59:33	154317	5c0586b43199f4000153f133	4	1	practice_z	5	advance_on_keypress_ZEE	6	stimuli_distractor_diamondtriangles.svg	stimuli_target_trianglerectangles.svg	9	yes	57	0	866	0	0			0	0			1				0	
6.6.1	win	2023-07-08	20:56:53	20:59:36	157952	5c0586b43199f4000153f133	4	1	practice_z	5	practice_z	7	stimuli_distractor_trianglediamonds.svg	stimuli_distractor_diamondtriangles.svg	16	no	44	0	1111	0	0			0	0			1				0	
6.6.1	win	2023-07-08	20:56:53	20:59:36	157952	5c0586b43199f4000153f133	4	1	practice_z	5	advance_on_keypress_ZEE	8	stimuli_distractor_trianglediamonds.svg	stimuli_distractor_diamondtriangles.svg	16	no	57	0	379	0	0			0	0			1				0	
6.6.1	win	2023-07-08	20:56:53	20:59:39	160940	5c0586b43199f4000153f133	4	1	practice_z	5	practice_z	9	stimuli_distractor_trianglediamonds.svg	stimuli_target_rectanglediamonds.svg	10	yes	44	1	949	0	0			0	0			1				0	
6.6.1	win	2023-07-08	20:56:53	20:59:39	160940	5c0586b43199f4000153f133	4	1	practice_z	5	advance_on_keypress_ZEE	10	stimuli_distractor_trianglediamonds.svg	stimuli_target_rectanglediamonds.svg	10	yes	57	0	428	0	0			0	0			1				0	
6.6.1	win	2023-07-08	20:56:53	20:59:43	165022	5c0586b43199f4000153f133	4	1	practice_z	5	practice_z	11	stimuli_distractor_diamondtriangles.svg	stimuli_distractor_diamondtriangles.svg	13	no	0	1	2000	0	0			0	0			1				0	
6.6.1	win	2023-07-08	20:56:53	20:59:43	165022	5c0586b43199f4000153f133	4	1	practice_z	5	advance_on_keypress_ZEE	12	stimuli_distractor_diamondtriangles.svg	stimuli_distractor_diamondtriangles.svg	13	no	57	0	711	0	0			0	0			1				0	
6.6.1	win	2023-07-08	20:56:53	20:59:47	168167	5c0586b43199f4000153f133	4	1	practice_z	5	practice_z	13	stimuli_target_squarediamonds.svg	stimuli_distractor_diamondtriangles.svg	2	yes	44	1	779	0	0			0	0			1				0	
6.6.1	win	2023-07-08	20:56:53	20:59:47	168167	5c0586b43199f4000153f133	4	1	practice_z	5	advance_on_keypress_ZEE	14	stimuli_target_squarediamonds.svg	stimuli_distractor_diamondtriangles.svg	2	yes	57	0	353	0	0			0	0			1				0	
6.6.1	win	2023-07-08	20:56:53	20:59:49	170989	5c0586b43199f4000153f133	4	1	practice_z	5	practice_z	15	stimuli_target_diamondsquares.svg	stimuli_distractor_diamondtriangles.svg	3	yes	44	1	817	0	0			0	0			1				0	
6.6.1	win	2023-07-08	20:56:53	20:59:49	170989	5c0586b43199f4000153f133	4	1	practice_z	5	advance_on_keypress_ZEE	16	stimuli_target_diamondsquares.svg	stimuli_distractor_diamondtriangles.svg	3	yes	57	0	2434	0	0			0	0			1				0	
6.6.1	win	2023-07-08	20:56:53	20:59:54	175968	5c0586b43199f4000153f133	4	1	practice_z	5	practice_z	17	stimuli_distractor_diamondtriangles.svg	stimuli_target_diamondrectangles.svg	8	yes	44	1	897	0	0			0	0			1				0	
6.6.1	win	2023-07-08	20:56:53	20:59:54	175968	5c0586b43199f4000153f133	4	1	practice_z	5	advance_on_keypress_ZEE	18	stimuli_distractor_diamondtriangles.svg	stimuli_target_diamondrectangles.svg	8	yes	57	0	365	0	0			0	0			1				0	
6.6.1	win	2023-07-08	20:56:53	20:59:58	179989	5c0586b43199f4000153f133	4	1	practice_z	5	practice_z	19	stimuli_distractor_trianglediamonds.svg	stimuli_target_squarediamonds.svg	11	yes	0	0	2000	0	0			0	0			1				0	
6.6.1	win	2023-07-08	20:56:53	20:59:58	179989	5c0586b43199f4000153f133	4	1	practice_z	5	advance_on_keypress_ZEE	20	stimuli_distractor_trianglediamonds.svg	stimuli_target_squarediamonds.svg	11	yes	57	0	341	0	0			0	0			1				0	
6.6.1	win	2023-07-08	20:56:53	21:00:01	182786	5c0586b43199f4000153f133	4	1	practice_z	5	practice_z	21	stimuli_distractor_diamondtriangles.svg	stimuli_distractor_trianglediamonds.svg	14	no	44	0	816	0	0			0	0			1				0	
6.6.1	win	2023-07-08	20:56:53	21:00:01	182786	5c0586b43199f4000153f133	4	1	practice_z	5	advance_on_keypress_ZEE	22	stimuli_distractor_diamondtriangles.svg	stimuli_distractor_trianglediamonds.svg	14	no	57	0	307	0	0			0	0			1				0	
6.6.1	win	2023-07-08	20:56:53	21:00:04	185620	5c0586b43199f4000153f133	4	1	practice_z	5	practice_z	23	stimuli_target_squarediamonds.svg	stimuli_distractor_trianglediamonds.svg	5	yes	44	1	884	0	0			0	0			1				0	
6.6.1	win	2023-07-08	20:56:53	21:00:04	185620	5c0586b43199f4000153f133	4	1	practice_z	5	advance_on_keypress_ZEE	24	stimuli_target_squarediamonds.svg	stimuli_distractor_trianglediamonds.svg	5	yes	57	0	352	0	0			0	0			1				0	
6.6.1	win	2023-07-08	20:56:53	21:00:07	188620	5c0586b43199f4000153f133	4	1	practice_z	5	practice_z	25	stimuli_target_diamondsquares.svg	stimuli_distractor_trianglediamonds.svg	6	yes	44	1	1000	0	0			0	0			1				0	
6.6.1	win	2023-07-08	20:56:53	21:00:07	188620	5c0586b43199f4000153f133	4	1	practice_z	5	advance_on_keypress_ZEE	26	stimuli_target_diamondsquares.svg	stimuli_distractor_trianglediamonds.svg	6	yes	57	0	333	0	0			0	0			1				0	
6.6.1	win	2023-07-08	20:56:53	21:00:11	192603	5c0586b43199f4000153f133	4	1	practice_z	5	practice_z	27	stimuli_distractor_trianglediamonds.svg	stimuli_distractor_trianglediamonds.svg	15	no	0	1	2000	0	0			0	0			1				0	
6.6.1	win	2023-07-08	20:56:53	21:00:11	192603	5c0586b43199f4000153f133	4	1	practice_z	5	advance_on_keypress_ZEE	28	stimuli_distractor_trianglediamonds.svg	stimuli_distractor_trianglediamonds.svg	15	no	57	0	290	0	0			0	0			1				0	
6.6.1	win	2023-07-08	20:56:53	21:00:14	195378	5c0586b43199f4000153f133	4	1	practice_z	5	practice_z	29	stimuli_target_rectanglediamonds.svg	stimuli_distractor_trianglediamonds.svg	4	yes	44	1	841	0	0			0	0			1				0	
6.6.1	win	2023-07-08	20:56:53	21:00:14	195378	5c0586b43199f4000153f133	4	1	practice_z	5	advance_on_keypress_ZEE	30	stimuli_target_rectanglediamonds.svg	stimuli_distractor_trianglediamonds.svg	4	yes	57	0	280	0	0			0	0			1				0	
6.6.1	win	2023-07-08	20:56:53	21:00:16	198050	5c0586b43199f4000153f133	4	1	practice_z	5	practice_z	31	stimuli_distractor_trianglediamonds.svg	stimuli_target_diamondrectangles.svg	12	yes	44	1	731	0	0			0	0			1				0	
6.6.1	win	2023-07-08	20:56:53	21:00:16	198050	5c0586b43199f4000153f133	4	1	practice_z	5	advance_on_keypress_ZEE	32	stimuli_distractor_trianglediamonds.svg	stimuli_target_diamondrectangles.svg	12	yes	57	0	290	0	0			0	0			1				0	
6.6.1	win	2023-07-08	20:56:53	21:00:30	211420	5c0586b43199f4000153f133	4	1	main_z	7	main_z	1	stimuli_target_rectanglediamonds.svg	stimuli_distractor_diamondtriangles.svg	6	yes	44	1	807	0	0			0	0			1				0	
6.6.1	win	2023-07-08	20:56:53	21:00:30	211420	5c0586b43199f4000153f133	4	1	main_z	7	advance_on_keypress_ZEE	2	stimuli_target_rectanglediamonds.svg	stimuli_distractor_diamondtriangles.svg	6	yes	57	0	1289	0	0			0	0			1				0	
6.6.1	win	2023-07-08	20:56:53	21:00:34	215345	5c0586b43199f4000153f133	4	1	main_z	7	main_z	3	stimuli_distractor_diamondtriangles.svg	stimuli_distractor_diamondtriangles.svg	40	no	0	1	2000	0	0			0	0			1				0	
6.6.1	win	2023-07-08	20:56:53	21:00:34	215345	5c0586b43199f4000153f133	4	1	main_z	7	advance_on_keypress_ZEE	4	stimuli_distractor_diamondtriangles.svg	stimuli_distractor_diamondtriangles.svg	40	no	57	0	605	0	0			0	0			1				0	
6.6.1	win	2023-07-08	20:56:53	21:00:36	217381	5c0586b43199f4000153f133	4	1	main_z	7	main_z	5	stimuli_target_diamondsquares.svg	stimuli_distractor_trianglediamonds.svg	20	yes	44	1	786	0	0			0	0			1				0	
6.6.1	win	2023-07-08	20:56:53	21:00:36	217381	5c0586b43199f4000153f133	4	1	main_z	7	advance_on_keypress_ZEE	6	stimuli_target_diamondsquares.svg	stimuli_distractor_trianglediamonds.svg	20	yes	57	0	768	0	0			0	0			1				0	
6.6.1	win	2023-07-08	20:56:53	21:00:38	219621	5c0586b43199f4000153f133	4	1	main_z	7	main_z	7	stimuli_distractor_trianglediamonds.svg	stimuli_target_rectanglediamonds.svg	10	yes	44	1	827	0	0			0	0			1				0	
6.6.1	win	2023-07-08	20:56:53	21:00:38	219621	5c0586b43199f4000153f133	4	1	main_z	7	advance_on_keypress_ZEE	8	stimuli_distractor_trianglediamonds.svg	stimuli_target_rectanglediamonds.svg	10	yes	57	0	565	0	0			0	0			1				0	
6.6.1	win	2023-07-08	20:56:53	21:00:40	221669	5c0586b43199f4000153f133	4	1	main_z	7	main_z	9	stimuli_target_diamondrectangles.svg	stimuli_distractor_trianglediamonds.svg	19	yes	44	1	840	0	0			0	0			1				0	
6.6.1	win	2023-07-08	20:56:53	21:00:40	221669	5c0586b43199f4000153f133	4	1	main_z	7	advance_on_keypress_ZEE	10	stimuli_target_diamondrectangles.svg	stimuli_distractor_trianglediamonds.svg	19	yes	57	0	371	0	0			0	0			1				0	
6.6.1	win	2023-07-08	20:56:53	21:00:43	224677	5c0586b43199f4000153f133	4	1	main_z	7	main_z	11	stimuli_distractor_trianglediamonds.svg	stimuli_distractor_diamondtriangles.svg	35	no	0	1	2000	0	0			0	0			1				0	
6.6.1	win	2023-07-08	20:56:53	21:00:43	224677	5c0586b43199f4000153f133	4	1	main_z	7	advance_on_keypress_ZEE	12	stimuli_distractor_trianglediamonds.svg	stimuli_distractor_diamondtriangles.svg	35	no	57	0	313	0	0			0	0			1				0	
6.6.1	win	2023-07-08	20:56:53	21:00:45	226351	5c0586b43199f4000153f133	4	1	main_z	7	main_z	13	stimuli_target_squarediamonds.svg	stimuli_distractor_trianglediamonds.svg	4	yes	44	1	707	0	0			0	0			1				0	
6.6.1	win	2023-07-08	20:56:53	21:00:45	226351	5c0586b43199f4000153f133	4	1	main_z	7	advance_on_keypress_ZEE	14	stimuli_target_squarediamonds.svg	stimuli_distractor_trianglediamonds.svg	4	yes	57	0	497	0	0			0	0			1				0	
6.6.1	win	2023-07-08	20:56:53	21:00:47	228305	5c0586b43199f4000153f133	4	1	main_z	7	main_z	15	stimuli_distractor_trianglediamonds.svg	stimuli_distractor_trianglediamonds.svg	34	no	44	0	811	0	0			0	0			1				0	
6.6.1	win	2023-07-08	20:56:53	21:00:47	228305	5c0586b43199f4000153f133	4	1	main_z	7	advance_on_keypress_ZEE	16	stimuli_distractor_trianglediamonds.svg	stimuli_distractor_trianglediamonds.svg	34	no	57	0	274	0	0			0	0			1				0	
6.6.1	win	2023-07-08	20:56:53	21:00:48	230026	5c0586b43199f4000153f133	4	1	main_z	7	main_z	17	stimuli_distractor_trianglediamonds.svg	stimuli_target_squarediamonds.svg	12	yes	44	1	798	0	0			0	0			1				0	
6.6.1	win	2023-07-08	20:56:53	21:00:48	230026	5c0586b43199f4000153f133	4	1	main_z	7	advance_on_keypress_ZEE	18	stimuli_distractor_trianglediamonds.svg	stimuli_target_squarediamonds.svg	12	yes	57	0	258	0	0			0	0			1				0	
6.6.1	win	2023-07-08	20:56:53	21:00:50	231727	5c0586b43199f4000153f133	4	1	main_z	7	main_z	19	stimuli_distractor_trianglediamonds.svg	stimuli_target_squaretriangles.svg	11	yes	44	1	801	0	0			0	0			1				0	
6.6.1	win	2023-07-08	20:56:53	21:00:50	231727	5c0586b43199f4000153f133	4	1	main_z	7	advance_on_keypress_ZEE	20	stimuli_distractor_trianglediamonds.svg	stimuli_target_squaretriangles.svg	11	yes	57	0	268	0	0			0	0			1				0	
6.6.1	win	2023-07-08	20:56:53	21:00:53	234643	5c0586b43199f4000153f133	4	1	main_z	7	main_z	21	stimuli_distractor_diamondtriangles.svg	stimuli_target_diamondrectangles.svg	31	yes	0	0	2000	0	0			0	0			1				0	
6.6.1	win	2023-07-08	20:56:53	21:00:53	234643	5c0586b43199f4000153f133	4	1	main_z	7	advance_on_keypress_ZEE	22	stimuli_distractor_diamondtriangles.svg	stimuli_target_diamondrectangles.svg	31	yes	57	0	476	0	0			0	0			1				0	
6.6.1	win	2023-07-08	20:56:53	21:00:55	236549	5c0586b43199f4000153f133	4	1	main_z	7	main_z	23	stimuli_distractor_diamondtriangles.svg	stimuli_target_trianglesquares.svg	30	yes	44	1	790	0	0			0	0			1				0	
6.6.1	win	2023-07-08	20:56:53	21:00:55	236549	5c0586b43199f4000153f133	4	1	main_z	7	advance_on_keypress_ZEE	24	stimuli_distractor_diamondtriangles.svg	stimuli_target_trianglesquares.svg	30	yes	57	0	340	0	0			0	0			1				0	
6.6.1	win	2023-07-08	20:56:53	21:00:57	238339	5c0586b43199f4000153f133	4	1	main_z	7	main_z	25	stimuli_distractor_trianglediamonds.svg	stimuli_distractor_trianglediamonds.svg	33	no	44	0	812	0	0			0	0			1				0	
6.6.1	win	2023-07-08	20:56:53	21:00:57	238339	5c0586b43199f4000153f133	4	1	main_z	7	advance_on_keypress_ZEE	26	stimuli_distractor_trianglediamonds.svg	stimuli_distractor_trianglediamonds.svg	33	no	57	0	335	0	0			0	0			1				0	
6.6.1	win	2023-07-08	20:56:53	21:01:00	241325	5c0586b43199f4000153f133	4	1	main_z	7	main_z	27	stimuli_distractor_diamondtriangles.svg	stimuli_distractor_diamondtriangles.svg	39	no	0	1	2000	0	0			0	0			1				0	
6.6.1	win	2023-07-08	20:56:53	21:01:00	241325	5c0586b43199f4000153f133	4	1	main_z	7	advance_on_keypress_ZEE	28	stimuli_distractor_diamondtriangles.svg	stimuli_distractor_diamondtriangles.svg	39	no	57	0	310	0	0			0	0			1				0	
6.6.1	win	2023-07-08	20:56:53	21:01:03	244275	5c0586b43199f4000153f133	4	1	main_z	7	main_z	29	stimuli_distractor_diamondtriangles.svg	stimuli_distractor_trianglediamonds.svg	37	no	0	1	2000	0	0			0	0			1				0	
6.6.1	win	2023-07-08	20:56:53	21:01:03	244275	5c0586b43199f4000153f133	4	1	main_z	7	advance_on_keypress_ZEE	30	stimuli_distractor_diamondtriangles.svg	stimuli_distractor_trianglediamonds.svg	37	no	57	0	294	0	0			0	0			1				0	
6.6.1	win	2023-07-08	20:56:53	21:01:05	246575	5c0586b43199f4000153f133	4	1	main_z	7	main_z	31	stimuli_distractor_diamondtriangles.svg	stimuli_target_diamondsquares.svg	32	yes	44	1	1351	0	0			0	0			1				0	
6.6.1	win	2023-07-08	20:56:53	21:01:05	246575	5c0586b43199f4000153f133	4	1	main_z	7	advance_on_keypress_ZEE	32	stimuli_distractor_diamondtriangles.svg	stimuli_target_diamondsquares.svg	32	yes	57	0	496	0	0			0	0			1				0	
6.6.1	win	2023-07-08	20:56:53	21:01:07	248500	5c0586b43199f4000153f133	4	1	main_z	7	main_z	33	stimuli_target_diamondrectangles.svg	stimuli_distractor_diamondtriangles.svg	23	yes	44	1	776	0	0			0	0			1				0	
6.6.1	win	2023-07-08	20:56:53	21:01:07	248500	5c0586b43199f4000153f133	4	1	main_z	7	advance_on_keypress_ZEE	34	stimuli_target_diamondrectangles.svg	stimuli_distractor_diamondtriangles.svg	23	yes	57	0	364	0	0			0	0			1				0	
6.6.1	win	2023-07-08	20:56:53	21:01:09	250170	5c0586b43199f4000153f133	4	1	main_z	7	main_z	35	stimuli_target_squarediamonds.svg	stimuli_distractor_diamondtriangles.svg	8	yes	44	1	662	0	0			0	0			1				0	
6.6.1	win	2023-07-08	20:56:53	21:01:09	250170	5c0586b43199f4000153f133	4	1	main_z	7	advance_on_keypress_ZEE	36	stimuli_target_squarediamonds.svg	stimuli_distractor_diamondtriangles.svg	8	yes	57	0	392	0	0			0	0			1				0	
6.6.1	win	2023-07-08	20:56:53	21:01:12	253207	5c0586b43199f4000153f133	4	1	main_z	7	main_z	37	stimuli_target_trianglerectangles.svg	stimuli_distractor_trianglediamonds.svg	17	yes	0	0	2000	0	0			0	0			1				0	
6.6.1	win	2023-07-08	20:56:53	21:01:12	253207	5c0586b43199f4000153f133	4	1	main_z	7	advance_on_keypress_ZEE	38	stimuli_target_trianglerectangles.svg	stimuli_distractor_trianglediamonds.svg	17	yes	57	0	282	0	0			0	0			1				0	
6.6.1	win	2023-07-08	20:56:53	21:01:14	256140	5c0586b43199f4000153f133	4	1	main_z	7	main_z	39	stimuli_target_diamondsquares.svg	stimuli_distractor_diamondtriangles.svg	24	yes	0	0	2000	0	0			0	0			1				0	
6.6.1	win	2023-07-08	20:56:53	21:01:14	256140	5c0586b43199f4000153f133	4	1	main_z	7	advance_on_keypress_ZEE	40	stimuli_target_diamondsquares.svg	stimuli_distractor_diamondtriangles.svg	24	yes	57	0	270	0	0			0	0			1				0	
6.6.1	win	2023-07-08	20:56:53	21:01:16	257570	5c0586b43199f4000153f133	4	1	main_z	7	main_z	41	stimuli_distractor_trianglediamonds.svg	stimuli_target_trianglesquares.svg	26	yes	44	1	509	0	0			0	0			1				0	
6.6.1	win	2023-07-08	20:56:53	21:01:16	257570	5c0586b43199f4000153f133	4	1	main_z	7	advance_on_keypress_ZEE	42	stimuli_distractor_trianglediamonds.svg	stimuli_target_trianglesquares.svg	26	yes	57	0	582	0	0			0	0			1				0	
6.6.1	win	2023-07-08	20:56:53	21:01:18	259525	5c0586b43199f4000153f133	4	1	main_z	7	main_z	43	stimuli_target_trianglerectangles.svg	stimuli_distractor_diamondtriangles.svg	21	yes	44	1	719	0	0			0	0			1				0	
6.6.1	win	2023-07-08	20:56:53	21:01:18	259525	5c0586b43199f4000153f133	4	1	main_z	7	advance_on_keypress_ZEE	44	stimuli_target_trianglerectangles.svg	stimuli_distractor_diamondtriangles.svg	21	yes	57	0	312	0	0			0	0			1				0	
6.6.1	win	2023-07-08	20:56:53	21:01:20	261189	5c0586b43199f4000153f133	4	1	main_z	7	main_z	45	stimuli_distractor_diamondtriangles.svg	stimuli_target_rectangletriangles.svg	13	yes	44	1	700	0	0			0	0			1				0	
6.6.1	win	2023-07-08	20:56:53	21:01:20	261189	5c0586b43199f4000153f133	4	1	main_z	7	advance_on_keypress_ZEE	46	stimuli_distractor_diamondtriangles.svg	stimuli_target_rectangletriangles.svg	13	yes	57	0	266	0	0			0	0			1				0	
6.6.1	win	2023-07-08	20:56:53	21:01:22	263265	5c0586b43199f4000153f133	4	1	main_z	7	main_z	47	stimuli_distractor_trianglediamonds.svg	stimuli_target_diamondsquares.svg	28	yes	44	1	1160	0	0			0	0			1				0	
6.6.1	win	2023-07-08	20:56:53	21:01:22	263265	5c0586b43199f4000153f133	4	1	main_z	7	advance_on_keypress_ZEE	48	stimuli_distractor_trianglediamonds.svg	stimuli_target_diamondsquares.svg	28	yes	57	0	449	0	0			0	0			1				0	
6.6.1	win	2023-07-08	20:56:53	21:01:23	265095	5c0586b43199f4000153f133	4	1	main_z	7	main_z	49	stimuli_distractor_trianglediamonds.svg	stimuli_target_rectangletriangles.svg	9	yes	44	1	740	0	0			0	0			1				0	
6.6.1	win	2023-07-08	20:56:53	21:01:23	265095	5c0586b43199f4000153f133	4	1	main_z	7	advance_on_keypress_ZEE	50	stimuli_distractor_trianglediamonds.svg	stimuli_target_rectangletriangles.svg	9	yes	57	0	265	0	0			0	0			1				0	
6.6.1	win	2023-07-08	20:56:53	21:01:25	266418	5c0586b43199f4000153f133	4	1	main_z	7	main_z	51	stimuli_target_rectanglediamonds.svg	stimuli_distractor_trianglediamonds.svg	2	yes	44	1	414	0	0			0	0			1				0	
6.6.1	win	2023-07-08	20:56:53	21:01:25	266418	5c0586b43199f4000153f133	4	1	main_z	7	advance_on_keypress_ZEE	52	stimuli_target_rectanglediamonds.svg	stimuli_distractor_trianglediamonds.svg	2	yes	57	0	381	0	0			0	0			1				0	
6.6.1	win	2023-07-08	20:56:53	21:01:26	267846	5c0586b43199f4000153f133	4	1	main_z	7	main_z	53	stimuli_target_rectangletriangles.svg	stimuli_distractor_trianglediamonds.svg	1	yes	44	1	392	0	0			0	0			1				0	
6.6.1	win	2023-07-08	20:56:53	21:01:26	267846	5c0586b43199f4000153f133	4	1	main_z	7	advance_on_keypress_ZEE	54	stimuli_target_rectangletriangles.svg	stimuli_distractor_trianglediamonds.svg	1	yes	57	0	319	0	0			0	0			1				0	
6.6.1	win	2023-07-08	20:56:53	21:01:29	270804	5c0586b43199f4000153f133	4	1	main_z	7	main_z	55	stimuli_distractor_trianglediamonds.svg	stimuli_target_diamondrectangles.svg	27	yes	0	0	2000	0	0			0	0			1				0	
6.6.1	win	2023-07-08	20:56:53	21:01:29	270804	5c0586b43199f4000153f133	4	1	main_z	7	advance_on_keypress_ZEE	56	stimuli_distractor_trianglediamonds.svg	stimuli_target_diamondrectangles.svg	27	yes	57	0	260	0	0			0	0			1				0	
6.6.1	win	2023-07-08	20:56:53	21:01:30	272098	5c0586b43199f4000153f133	4	1	main_z	7	main_z	57	stimuli_target_squaretriangles.svg	stimuli_distractor_trianglediamonds.svg	3	yes	44	1	395	0	0			0	0			1				0	
6.6.1	win	2023-07-08	20:56:53	21:01:30	272098	5c0586b43199f4000153f133	4	1	main_z	7	advance_on_keypress_ZEE	58	stimuli_target_squaretriangles.svg	stimuli_distractor_trianglediamonds.svg	3	yes	57	0	377	0	0			0	0			1				0	
6.6.1	win	2023-07-08	20:56:53	21:01:32	273617	5c0586b43199f4000153f133	4	1	main_z	7	main_z	59	stimuli_distractor_diamondtriangles.svg	stimuli_target_squarediamonds.svg	16	yes	44	1	504	0	0			0	0			1				0	
6.6.1	win	2023-07-08	20:56:53	21:01:32	273617	5c0586b43199f4000153f133	4	1	main_z	7	advance_on_keypress_ZEE	60	stimuli_distractor_diamondtriangles.svg	stimuli_target_squarediamonds.svg	16	yes	57	0	306	0	0			0	0			1				0	
6.6.1	win	2023-07-08	20:56:53	21:01:33	275100	5c0586b43199f4000153f133	4	1	main_z	7	main_z	61	stimuli_target_trianglesquares.svg	stimuli_distractor_diamondtriangles.svg	22	yes	44	1	531	0	0			0	0			1				0	
6.6.1	win	2023-07-08	20:56:53	21:01:33	275100	5c0586b43199f4000153f133	4	1	main_z	7	advance_on_keypress_ZEE	62	stimuli_target_trianglesquares.svg	stimuli_distractor_diamondtriangles.svg	22	yes	57	0	313	0	0			0	0			1				0	
6.6.1	win	2023-07-08	20:56:53	21:01:35	276657	5c0586b43199f4000153f133	4	1	main_z	7	main_z	63	stimuli_distractor_diamondtriangles.svg	stimuli_target_trianglerectangles.svg	29	yes	44	1	587	0	0			0	0			1				0	
6.6.1	win	2023-07-08	20:56:53	21:01:35	276657	5c0586b43199f4000153f133	4	1	main_z	7	advance_on_keypress_ZEE	64	stimuli_distractor_diamondtriangles.svg	stimuli_target_trianglerectangles.svg	29	yes	57	0	287	0	0			0	0			1				0	
6.6.1	win	2023-07-08	20:56:53	21:01:36	278121	5c0586b43199f4000153f133	4	1	main_z	7	main_z	65	stimuli_distractor_diamondtriangles.svg	stimuli_target_squaretriangles.svg	15	yes	44	1	533	0	0			0	0			1				0	
6.6.1	win	2023-07-08	20:56:53	21:01:36	278121	5c0586b43199f4000153f133	4	1	main_z	7	advance_on_keypress_ZEE	66	stimuli_distractor_diamondtriangles.svg	stimuli_target_squaretriangles.svg	15	yes	57	0	477	0	0			0	0			1				0	
6.6.1	win	2023-07-08	20:56:53	21:01:38	279970	5c0586b43199f4000153f133	4	1	main_z	7	main_z	67	stimuli_distractor_diamondtriangles.svg	stimuli_target_rectanglediamonds.svg	14	yes	44	1	717	0	0			0	0			1				0	
6.6.1	win	2023-07-08	20:56:53	21:01:38	279970	5c0586b43199f4000153f133	4	1	main_z	7	advance_on_keypress_ZEE	68	stimuli_distractor_diamondtriangles.svg	stimuli_target_rectanglediamonds.svg	14	yes	57	0	320	0	0			0	0			1				0	
6.6.1	win	2023-07-08	20:56:53	21:01:40	281639	5c0586b43199f4000153f133	4	1	main_z	7	main_z	69	stimuli_target_squaretriangles.svg	stimuli_distractor_diamondtriangles.svg	7	yes	44	1	703	0	0			0	0			1				0	
6.6.1	win	2023-07-08	20:56:53	21:01:40	281639	5c0586b43199f4000153f133	4	1	main_z	7	advance_on_keypress_ZEE	70	stimuli_target_squaretriangles.svg	stimuli_distractor_diamondtriangles.svg	7	yes	57	0	262	0	0			0	0			1				0	
6.6.1	win	2023-07-08	20:56:53	21:01:42	283760	5c0586b43199f4000153f133	4	1	main_z	7	main_z	71	stimuli_target_rectangletriangles.svg	stimuli_distractor_diamondtriangles.svg	5	yes	44	1	1208	0	0			0	0			1				0	
6.6.1	win	2023-07-08	20:56:53	21:01:42	283760	5c0586b43199f4000153f133	4	1	main_z	7	advance_on_keypress_ZEE	72	stimuli_target_rectangletriangles.svg	stimuli_distractor_diamondtriangles.svg	5	yes	57	0	572	0	0			0	0			1				0	
6.6.1	win	2023-07-08	20:56:53	21:01:45	286969	5c0586b43199f4000153f133	4	1	main_z	7	main_z	73	stimuli_target_trianglesquares.svg	stimuli_distractor_trianglediamonds.svg	18	yes	0	0	2000	0	0			0	0			1				0	
6.6.1	win	2023-07-08	20:56:53	21:01:45	286969	5c0586b43199f4000153f133	4	1	main_z	7	advance_on_keypress_ZEE	74	stimuli_target_trianglesquares.svg	stimuli_distractor_trianglediamonds.svg	18	yes	57	0	269	0	0			0	0			1				0	
6.6.1	win	2023-07-08	20:56:53	21:01:47	288704	5c0586b43199f4000153f133	4	1	main_z	7	main_z	75	stimuli_distractor_diamondtriangles.svg	stimuli_distractor_trianglediamonds.svg	38	no	44	0	818	0	0			0	0			1				0	
6.6.1	win	2023-07-08	20:56:53	21:01:47	288704	5c0586b43199f4000153f133	4	1	main_z	7	advance_on_keypress_ZEE	76	stimuli_distractor_diamondtriangles.svg	stimuli_distractor_trianglediamonds.svg	38	no	57	0	327	0	0			0	0			1				0	
6.6.1	win	2023-07-08	20:56:53	21:01:49	290414	5c0586b43199f4000153f133	4	1	main_z	7	main_z	77	stimuli_distractor_trianglediamonds.svg	stimuli_target_trianglerectangles.svg	25	yes	44	1	746	0	0			0	0			1				0	
6.6.1	win	2023-07-08	20:56:53	21:01:49	290414	5c0586b43199f4000153f133	4	1	main_z	7	advance_on_keypress_ZEE	78	stimuli_distractor_trianglediamonds.svg	stimuli_target_trianglerectangles.svg	25	yes	57	0	204	0	0			0	0			1				0	
6.6.1	win	2023-07-08	20:56:53	21:01:50	291996	5c0586b43199f4000153f133	4	1	main_z	7	main_z	79	stimuli_distractor_trianglediamonds.svg	stimuli_distractor_diamondtriangles.svg	36	no	44	0	729	0	0			0	0			1				0	
6.6.1	win	2023-07-08	20:56:53	21:01:50	291996	5c0586b43199f4000153f133	4	1	main_z	7	advance_on_keypress_ZEE	80	stimuli_distractor_trianglediamonds.svg	stimuli_distractor_diamondtriangles.svg	36	no	57	0	184	0	0			0	0			1				0	
6.6.1	win	2023-07-08	20:56:53	21:01:53	294227	5c0586b43199f4000153f133	4	1	main_z	7	main_z	81	stimuli_target_trianglerectangles.svg	stimuli_distractor_trianglediamonds.svg	17	yes	44	1	1393	0	0			0	0			1				0	
6.6.1	win	2023-07-08	20:56:53	21:01:53	294227	5c0586b43199f4000153f133	4	1	main_z	7	advance_on_keypress_ZEE	82	stimuli_target_trianglerectangles.svg	stimuli_distractor_trianglediamonds.svg	17	yes	57	0	384	0	0			0	0			1				0	
6.6.1	win	2023-07-08	20:56:53	21:01:54	295988	5c0586b43199f4000153f133	4	1	main_z	7	main_z	83	stimuli_target_diamondrectangles.svg	stimuli_distractor_trianglediamonds.svg	19	yes	44	1	736	0	0			0	0			1				0	
6.6.1	win	2023-07-08	20:56:53	21:01:54	295988	5c0586b43199f4000153f133	4	1	main_z	7	advance_on_keypress_ZEE	84	stimuli_target_diamondrectangles.svg	stimuli_distractor_trianglediamonds.svg	19	yes	57	0	288	0	0			0	0			1				0	
6.6.1	win	2023-07-08	20:56:53	21:01:57	298398	5c0586b43199f4000153f133	4	1	main_z	7	main_z	85	stimuli_distractor_trianglediamonds.svg	stimuli_target_diamondsquares.svg	28	yes	44	1	1481	0	0			0	0			1				0	
6.6.1	win	2023-07-08	20:56:53	21:01:57	298398	5c0586b43199f4000153f133	4	1	main_z	7	advance_on_keypress_ZEE	86	stimuli_distractor_trianglediamonds.svg	stimuli_target_diamondsquares.svg	28	yes	57	0	478	0	0			0	0			1				0	
6.6.1	win	2023-07-08	20:56:53	21:01:59	300429	5c0586b43199f4000153f133	4	1	main_z	7	main_z	87	stimuli_distractor_trianglediamonds.svg	stimuli_distractor_diamondtriangles.svg	35	no	44	0	912	0	0			0	0			1				0	
6.6.1	win	2023-07-08	20:56:53	21:01:59	300429	5c0586b43199f4000153f133	4	1	main_z	7	advance_on_keypress_ZEE	88	stimuli_distractor_trianglediamonds.svg	stimuli_distractor_diamondtriangles.svg	35	no	57	0	515	0	0			0	0			1				0	
6.6.1	win	2023-07-08	20:56:53	21:02:01	302369	5c0586b43199f4000153f133	4	1	main_z	7	main_z	89	stimuli_target_rectanglediamonds.svg	stimuli_distractor_trianglediamonds.svg	2	yes	44	1	769	0	0			0	0			1				0	
6.6.1	win	2023-07-08	20:56:53	21:02:01	302369	5c0586b43199f4000153f133	4	1	main_z	7	advance_on_keypress_ZEE	90	stimuli_target_rectanglediamonds.svg	stimuli_distractor_trianglediamonds.svg	2	yes	57	0	232	0	0			0	0			1				0	
6.6.1	win	2023-07-08	20:56:53	21:02:02	303913	5c0586b43199f4000153f133	4	1	main_z	7	main_z	91	stimuli_target_squarediamonds.svg	stimuli_distractor_trianglediamonds.svg	4	yes	44	1	663	0	0			0	0			1				0	
6.6.1	win	2023-07-08	20:56:53	21:02:02	303913	5c0586b43199f4000153f133	4	1	main_z	7	advance_on_keypress_ZEE	92	stimuli_target_squarediamonds.svg	stimuli_distractor_trianglediamonds.svg	4	yes	57	0	291	0	0			0	0			1				0	
6.6.1	win	2023-07-08	20:56:53	21:02:04	305794	5c0586b43199f4000153f133	4	1	main_z	7	main_z	93	stimuli_target_trianglesquares.svg	stimuli_distractor_diamondtriangles.svg	22	yes	44	1	944	0	0			0	0			1				0	
6.6.1	win	2023-07-08	20:56:53	21:02:04	305794	5c0586b43199f4000153f133	4	1	main_z	7	advance_on_keypress_ZEE	94	stimuli_target_trianglesquares.svg	stimuli_distractor_diamondtriangles.svg	22	yes	57	0	228	0	0			0	0			1				0	
6.6.1	win	2023-07-08	20:56:53	21:02:06	307358	5c0586b43199f4000153f133	4	1	main_z	7	main_z	95	stimuli_target_squarediamonds.svg	stimuli_distractor_diamondtriangles.svg	8	yes	44	1	691	0	0			0	0			1				0	
6.6.1	win	2023-07-08	20:56:53	21:02:06	307358	5c0586b43199f4000153f133	4	1	main_z	7	advance_on_keypress_ZEE	96	stimuli_target_squarediamonds.svg	stimuli_distractor_diamondtriangles.svg	8	yes	57	0	267	0	0			0	0			1				0	
6.6.1	win	2023-07-08	20:56:53	21:02:07	308926	5c0586b43199f4000153f133	4	1	main_z	7	main_z	97	stimuli_distractor_trianglediamonds.svg	stimuli_target_trianglesquares.svg	26	yes	44	1	661	0	0			0	0			1				0	
6.6.1	win	2023-07-08	20:56:53	21:02:07	308926	5c0586b43199f4000153f133	4	1	main_z	7	advance_on_keypress_ZEE	98	stimuli_distractor_trianglediamonds.svg	stimuli_target_trianglesquares.svg	26	yes	57	0	431	0	0			0	0			1				0	
6.6.1	win	2023-07-08	20:56:53	21:02:09	310761	5c0586b43199f4000153f133	4	1	main_z	7	main_z	99	stimuli_target_squaretriangles.svg	stimuli_distractor_diamondtriangles.svg	7	yes	44	1	762	0	0			0	0			1				0	
6.6.1	win	2023-07-08	20:56:53	21:02:09	310761	5c0586b43199f4000153f133	4	1	main_z	7	advance_on_keypress_ZEE	100	stimuli_target_squaretriangles.svg	stimuli_distractor_diamondtriangles.svg	7	yes	57	0	255	0	0			0	0			1				0	
6.6.1	win	2023-07-08	20:56:53	21:02:12	313665	5c0586b43199f4000153f133	4	1	main_z	7	main_z	101	stimuli_distractor_diamondtriangles.svg	stimuli_target_diamondrectangles.svg	31	yes	0	0	2000	0	0			0	0			1				0	
6.6.1	win	2023-07-08	20:56:53	21:02:12	313665	5c0586b43199f4000153f133	4	1	main_z	7	advance_on_keypress_ZEE	102	stimuli_distractor_diamondtriangles.svg	stimuli_target_diamondrectangles.svg	31	yes	57	0	424	0	0			0	0			1				0	
6.6.1	win	2023-07-08	20:56:53	21:02:14	315338	5c0586b43199f4000153f133	4	1	main_z	7	main_z	103	stimuli_distractor_trianglediamonds.svg	stimuli_target_rectangletriangles.svg	9	yes	44	1	607	0	0			0	0			1				0	
6.6.1	win	2023-07-08	20:56:53	21:02:14	315338	5c0586b43199f4000153f133	4	1	main_z	7	advance_on_keypress_ZEE	104	stimuli_distractor_trianglediamonds.svg	stimuli_target_rectangletriangles.svg	9	yes	57	0	286	0	0			0	0			1				0	
6.6.1	win	2023-07-08	20:56:53	21:02:15	316990	5c0586b43199f4000153f133	4	1	main_z	7	main_z	105	stimuli_target_diamondsquares.svg	stimuli_distractor_diamondtriangles.svg	24	yes	44	1	725	0	0			0	0			1				0	
6.6.1	win	2023-07-08	20:56:53	21:02:15	316990	5c0586b43199f4000153f133	4	1	main_z	7	advance_on_keypress_ZEE	106	stimuli_target_diamondsquares.svg	stimuli_distractor_diamondtriangles.svg	24	yes	57	0	236	0	0			0	0			1				0	
6.6.1	win	2023-07-08	20:56:53	21:02:17	318512	5c0586b43199f4000153f133	4	1	main_z	7	main_z	107	stimuli_distractor_trianglediamonds.svg	stimuli_target_squaretriangles.svg	11	yes	44	1	648	0	0			0	0			1				0	
6.6.1	win	2023-07-08	20:56:53	21:02:17	318512	5c0586b43199f4000153f133	4	1	main_z	7	advance_on_keypress_ZEE	108	stimuli_distractor_trianglediamonds.svg	stimuli_target_squaretriangles.svg	11	yes	57	0	246	0	0			0	0			1				0	
6.6.1	win	2023-07-08	20:56:53	21:02:18	320090	5c0586b43199f4000153f133	4	1	main_z	7	main_z	109	stimuli_distractor_diamondtriangles.svg	stimuli_target_trianglesquares.svg	30	yes	44	1	677	0	0			0	0			1				0	
6.6.1	win	2023-07-08	20:56:53	21:02:18	320090	5c0586b43199f4000153f133	4	1	main_z	7	advance_on_keypress_ZEE	110	stimuli_distractor_diamondtriangles.svg	stimuli_target_trianglesquares.svg	30	yes	57	0	319	0	0			0	0			1				0	
6.6.1	win	2023-07-08	20:56:53	21:02:21	323047	5c0586b43199f4000153f133	4	1	main_z	7	main_z	111	stimuli_distractor_diamondtriangles.svg	stimuli_distractor_diamondtriangles.svg	39	no	0	1	2000	0	0			0	0			1				0	
6.6.1	win	2023-07-08	20:56:53	21:02:21	323047	5c0586b43199f4000153f133	4	1	main_z	7	advance_on_keypress_ZEE	112	stimuli_distractor_diamondtriangles.svg	stimuli_distractor_diamondtriangles.svg	39	no	57	0	307	0	0			0	0			1				0	
6.6.1	win	2023-07-08	20:56:53	21:02:24	325164	5c0586b43199f4000153f133	4	1	main_z	7	main_z	113	stimuli_distractor_diamondtriangles.svg	stimuli_target_rectangletriangles.svg	13	yes	44	1	1167	0	0			0	0			1				0	
6.6.1	win	2023-07-08	20:56:53	21:02:24	325164	5c0586b43199f4000153f133	4	1	main_z	7	advance_on_keypress_ZEE	114	stimuli_distractor_diamondtriangles.svg	stimuli_target_rectangletriangles.svg	13	yes	57	0	420	0	0			0	0			1				0	
6.6.1	win	2023-07-08	20:56:53	21:02:27	328230	5c0586b43199f4000153f133	4	1	main_z	7	main_z	115	stimuli_target_trianglerectangles.svg	stimuli_distractor_diamondtriangles.svg	21	yes	0	0	2000	0	0			0	0			1				0	
6.6.1	win	2023-07-08	20:56:53	21:02:27	328230	5c0586b43199f4000153f133	4	1	main_z	7	advance_on_keypress_ZEE	116	stimuli_target_trianglerectangles.svg	stimuli_distractor_diamondtriangles.svg	21	yes	57	0	233	0	0			0	0			1				0	
6.6.1	win	2023-07-08	20:56:53	21:02:28	329625	5c0586b43199f4000153f133	4	1	main_z	7	main_z	117	stimuli_distractor_trianglediamonds.svg	stimuli_target_squarediamonds.svg	12	yes	44	1	507	0	0			0	0			1				0	
6.6.1	win	2023-07-08	20:56:53	21:02:28	329625	5c0586b43199f4000153f133	4	1	main_z	7	advance_on_keypress_ZEE	118	stimuli_distractor_trianglediamonds.svg	stimuli_target_squarediamonds.svg	12	yes	57	0	330	0	0			0	0			1				0	
6.6.1	win	2023-07-08	20:56:53	21:02:31	332613	5c0586b43199f4000153f133	4	1	main_z	7	main_z	119	stimuli_distractor_trianglediamonds.svg	stimuli_distractor_trianglediamonds.svg	34	no	0	1	2000	0	0			0	0			1				0	
6.6.1	win	2023-07-08	20:56:53	21:02:31	332613	5c0586b43199f4000153f133	4	1	main_z	7	advance_on_keypress_ZEE	120	stimuli_distractor_trianglediamonds.svg	stimuli_distractor_trianglediamonds.svg	34	no	57	0	372	0	0			0	0			1				0	
6.6.1	win	2023-07-08	20:56:53	21:02:34	335629	5c0586b43199f4000153f133	4	1	main_z	7	main_z	121	stimuli_distractor_diamondtriangles.svg	stimuli_target_diamondsquares.svg	32	yes	0	0	2000	0	0			0	0			1				0	
6.6.1	win	2023-07-08	20:56:53	21:02:34	335629	5c0586b43199f4000153f133	4	1	main_z	7	advance_on_keypress_ZEE	122	stimuli_distractor_diamondtriangles.svg	stimuli_target_diamondsquares.svg	32	yes	57	0	383	0	0			0	0			1				0	
6.6.1	win	2023-07-08	20:56:53	21:02:36	337511	5c0586b43199f4000153f133	4	1	main_z	7	main_z	123	stimuli_distractor_diamondtriangles.svg	stimuli_distractor_trianglediamonds.svg	37	no	44	0	850	0	0			0	0			1				0	
6.6.1	win	2023-07-08	20:56:53	21:02:36	337511	5c0586b43199f4000153f133	4	1	main_z	7	advance_on_keypress_ZEE	124	stimuli_distractor_diamondtriangles.svg	stimuli_distractor_trianglediamonds.svg	37	no	57	0	349	0	0			0	0			1				0	
6.6.1	win	2023-07-08	20:56:53	21:02:38	339186	5c0586b43199f4000153f133	4	1	main_z	7	main_z	125	stimuli_distractor_diamondtriangles.svg	stimuli_target_squarediamonds.svg	16	yes	44	1	674	0	0			0	0			1				0	
6.6.1	win	2023-07-08	20:56:53	21:02:38	339186	5c0586b43199f4000153f133	4	1	main_z	7	advance_on_keypress_ZEE	126	stimuli_distractor_diamondtriangles.svg	stimuli_target_squarediamonds.svg	16	yes	57	0	507	0	0			0	0			1				0	
6.6.1	win	2023-07-08	20:56:53	21:02:40	341271	5c0586b43199f4000153f133	4	1	main_z	7	main_z	127	stimuli_distractor_diamondtriangles.svg	stimuli_distractor_trianglediamonds.svg	38	no	44	0	943	0	0			0	0			1				0	
6.6.1	win	2023-07-08	20:56:53	21:02:40	341271	5c0586b43199f4000153f133	4	1	main_z	7	advance_on_keypress_ZEE	128	stimuli_distractor_diamondtriangles.svg	stimuli_distractor_trianglediamonds.svg	38	no	57	0	384	0	0			0	0			1				0	
6.6.1	win	2023-07-08	20:56:53	21:02:41	343016	5c0586b43199f4000153f133	4	1	main_z	7	main_z	129	stimuli_target_squaretriangles.svg	stimuli_distractor_trianglediamonds.svg	3	yes	44	1	704	0	0			0	0			1				0	
6.6.1	win	2023-07-08	20:56:53	21:02:41	343016	5c0586b43199f4000153f133	4	1	main_z	7	advance_on_keypress_ZEE	130	stimuli_target_squaretriangles.svg	stimuli_distractor_trianglediamonds.svg	3	yes	57	0	504	0	0			0	0			1				0	
6.6.1	win	2023-07-08	20:56:53	21:02:43	344957	5c0586b43199f4000153f133	4	1	main_z	7	main_z	131	stimuli_target_diamondrectangles.svg	stimuli_distractor_diamondtriangles.svg	23	yes	44	1	796	0	0			0	0			1				0	
6.6.1	win	2023-07-08	20:56:53	21:02:43	344957	5c0586b43199f4000153f133	4	1	main_z	7	advance_on_keypress_ZEE	132	stimuli_target_diamondrectangles.svg	stimuli_distractor_diamondtriangles.svg	23	yes	57	0	534	0	0			0	0			1				0	
6.6.1	win	2023-07-08	20:56:53	21:02:46	347853	5c0586b43199f4000153f133	4	1	main_z	7	main_z	133	stimuli_target_rectangletriangles.svg	stimuli_distractor_diamondtriangles.svg	5	yes	44	1	1709	0	0			0	0			1				0	
6.6.1	win	2023-07-08	20:56:53	21:02:46	347853	5c0586b43199f4000153f133	4	1	main_z	7	advance_on_keypress_ZEE	134	stimuli_target_rectangletriangles.svg	stimuli_distractor_diamondtriangles.svg	5	yes	57	0	749	0	0			0	0			1				0	
6.6.1	win	2023-07-08	20:56:53	21:02:48	350154	5c0586b43199f4000153f133	4	1	main_z	7	main_z	135	stimuli_distractor_trianglediamonds.svg	stimuli_target_rectanglediamonds.svg	10	yes	44	1	910	0	0			0	0			1				0	
6.6.1	win	2023-07-08	20:56:53	21:02:48	350154	5c0586b43199f4000153f133	4	1	main_z	7	advance_on_keypress_ZEE	136	stimuli_distractor_trianglediamonds.svg	stimuli_target_rectanglediamonds.svg	10	yes	57	0	478	0	0			0	0			1				0	
6.6.1	win	2023-07-08	20:56:53	21:02:50	352023	5c0586b43199f4000153f133	4	1	main_z	7	main_z	137	stimuli_distractor_diamondtriangles.svg	stimuli_target_trianglerectangles.svg	29	yes	44	1	730	0	0			0	0			1				0	
6.6.1	win	2023-07-08	20:56:53	21:02:50	352023	5c0586b43199f4000153f133	4	1	main_z	7	advance_on_keypress_ZEE	138	stimuli_distractor_diamondtriangles.svg	stimuli_target_trianglerectangles.svg	29	yes	57	0	271	0	0			0	0			1				0	
6.6.1	win	2023-07-08	20:56:53	21:02:52	354149	5c0586b43199f4000153f133	4	1	main_z	7	main_z	139	stimuli_distractor_trianglediamonds.svg	stimuli_target_diamondrectangles.svg	27	yes	44	1	1207	0	0			0	0			1				0	
6.6.1	win	2023-07-08	20:56:53	21:02:52	354149	5c0586b43199f4000153f133	4	1	main_z	7	advance_on_keypress_ZEE	140	stimuli_distractor_trianglediamonds.svg	stimuli_target_diamondrectangles.svg	27	yes	57	0	265	0	0			0	0			1				0	
6.6.1	win	2023-07-08	20:56:53	21:02:55	357059	5c0586b43199f4000153f133	4	1	main_z	7	main_z	141	stimuli_distractor_trianglediamonds.svg	stimuli_distractor_trianglediamonds.svg	33	no	0	1	2000	0	0			0	0			1				0	
6.6.1	win	2023-07-08	20:56:53	21:02:55	357059	5c0586b43199f4000153f133	4	1	main_z	7	advance_on_keypress_ZEE	142	stimuli_distractor_trianglediamonds.svg	stimuli_distractor_trianglediamonds.svg	33	no	57	0	363	0	0			0	0			1				0	
6.6.1	win	2023-07-08	20:56:53	21:02:57	358785	5c0586b43199f4000153f133	4	1	main_z	7	main_z	143	stimuli_distractor_diamondtriangles.svg	stimuli_target_rectanglediamonds.svg	14	yes	44	1	710	0	0			0	0			1				0	
6.6.1	win	2023-07-08	20:56:53	21:02:57	358785	5c0586b43199f4000153f133	4	1	main_z	7	advance_on_keypress_ZEE	144	stimuli_distractor_diamondtriangles.svg	stimuli_target_rectanglediamonds.svg	14	yes	57	0	396	0	0			0	0			1				0	
6.6.1	win	2023-07-08	20:56:53	21:02:59	360561	5c0586b43199f4000153f133	4	1	main_z	7	main_z	145	stimuli_distractor_trianglediamonds.svg	stimuli_target_trianglerectangles.svg	25	yes	44	1	735	0	0			0	0			1				0	
6.6.1	win	2023-07-08	20:56:53	21:02:59	360561	5c0586b43199f4000153f133	4	1	main_z	7	advance_on_keypress_ZEE	146	stimuli_distractor_trianglediamonds.svg	stimuli_target_trianglerectangles.svg	25	yes	57	0	286	0	0			0	0			1				0	
6.6.1	win	2023-07-08	20:56:53	21:03:00	362140	5c0586b43199f4000153f133	4	1	main_z	7	main_z	147	stimuli_target_trianglesquares.svg	stimuli_distractor_trianglediamonds.svg	18	yes	44	1	648	0	0			0	0			1				0	
6.6.1	win	2023-07-08	20:56:53	21:03:00	362140	5c0586b43199f4000153f133	4	1	main_z	7	advance_on_keypress_ZEE	148	stimuli_target_trianglesquares.svg	stimuli_distractor_trianglediamonds.svg	18	yes	57	0	372	0	0			0	0			1				0	
6.6.1	win	2023-07-08	20:56:53	21:03:02	363813	5c0586b43199f4000153f133	4	1	main_z	7	main_z	149	stimuli_target_rectangletriangles.svg	stimuli_distractor_trianglediamonds.svg	1	yes	44	1	655	0	0			0	0			1				0	
6.6.1	win	2023-07-08	20:56:53	21:03:02	363813	5c0586b43199f4000153f133	4	1	main_z	7	advance_on_keypress_ZEE	150	stimuli_target_rectangletriangles.svg	stimuli_distractor_trianglediamonds.svg	1	yes	57	0	305	0	0			0	0			1				0	
6.6.1	win	2023-07-08	20:56:53	21:03:04	365412	5c0586b43199f4000153f133	4	1	main_z	7	main_z	151	stimuli_target_rectanglediamonds.svg	stimuli_distractor_diamondtriangles.svg	6	yes	44	1	655	0	0			0	0			1				0	
6.6.1	win	2023-07-08	20:56:53	21:03:04	365412	5c0586b43199f4000153f133	4	1	main_z	7	advance_on_keypress_ZEE	152	stimuli_target_rectanglediamonds.svg	stimuli_distractor_diamondtriangles.svg	6	yes	57	0	251	0	0			0	0			1				0	
6.6.1	win	2023-07-08	20:56:53	21:03:05	366985	5c0586b43199f4000153f133	4	1	main_z	7	main_z	153	stimuli_distractor_diamondtriangles.svg	stimuli_target_squaretriangles.svg	15	yes	44	1	678	0	0			0	0			1				0	
6.6.1	win	2023-07-08	20:56:53	21:03:05	366985	5c0586b43199f4000153f133	4	1	main_z	7	advance_on_keypress_ZEE	154	stimuli_distractor_diamondtriangles.svg	stimuli_target_squaretriangles.svg	15	yes	57	0	217	0	0			0	0			1				0	
6.6.1	win	2023-07-08	20:56:53	21:03:08	369840	5c0586b43199f4000153f133	4	1	main_z	7	main_z	155	stimuli_distractor_trianglediamonds.svg	stimuli_distractor_diamondtriangles.svg	36	no	0	1	2000	0	0			0	0			1				0	
6.6.1	win	2023-07-08	20:56:53	21:03:08	369840	5c0586b43199f4000153f133	4	1	main_z	7	advance_on_keypress_ZEE	156	stimuli_distractor_trianglediamonds.svg	stimuli_distractor_diamondtriangles.svg	36	no	57	0	483	0	0			0	0			1				0	
6.6.1	win	2023-07-08	20:56:53	21:03:11	372973	5c0586b43199f4000153f133	4	1	main_z	7	main_z	157	stimuli_distractor_diamondtriangles.svg	stimuli_distractor_diamondtriangles.svg	40	no	0	1	2000	0	0			0	0			1				0	
6.6.1	win	2023-07-08	20:56:53	21:03:11	372973	5c0586b43199f4000153f133	4	1	main_z	7	advance_on_keypress_ZEE	158	stimuli_distractor_diamondtriangles.svg	stimuli_distractor_diamondtriangles.svg	40	no	57	0	9072	0	0			0	0			1				0	
6.6.1	win	2023-07-08	20:56:53	21:03:22	383308	5c0586b43199f4000153f133	4	1	main_z	7	main_z	159	stimuli_target_diamondsquares.svg	stimuli_distractor_trianglediamonds.svg	20	yes	44	1	620	0	0			0	0			1				0	
6.6.1	win	2023-07-08	20:56:53	21:03:22	383308	5c0586b43199f4000153f133	4	1	main_z	7	advance_on_keypress_ZEE	160	stimuli_target_diamondsquares.svg	stimuli_distractor_trianglediamonds.svg	20	yes	57	0	479	0	0			0	0			1				0	
6.6.1	win	2023-07-08	20:56:53	21:03:45	406575	5c0586b43199f4000153f133	4	1	practice_slash	9	practice_slash	1	stimuli_distractor_trianglediamonds.svg	stimuli_distractor_diamondtriangles.svg	16	no	53	0	887	0	0			0	0			1				0	
6.6.1	win	2023-07-08	20:56:53	21:03:45	406575	5c0586b43199f4000153f133	4	1	practice_slash	9	advance_on_keypress_SLASH	2	stimuli_distractor_trianglediamonds.svg	stimuli_distractor_diamondtriangles.svg	16	no	57	0	321	0	0			0	0			1				0	
6.6.1	win	2023-07-08	20:56:53	21:03:49	410556	5c0586b43199f4000153f133	4	1	practice_slash	9	practice_slash	3	stimuli_distractor_diamondtriangles.svg	stimuli_distractor_diamondtriangles.svg	13	no	0	1	2000	0	0			0	0			1				0	
6.6.1	win	2023-07-08	20:56:53	21:03:49	410556	5c0586b43199f4000153f133	4	1	practice_slash	9	advance_on_keypress_SLASH	4	stimuli_distractor_diamondtriangles.svg	stimuli_distractor_diamondtriangles.svg	13	no	57	0	349	0	0			0	0			1				0	
6.6.1	win	2023-07-08	20:56:53	21:03:52	413194	5c0586b43199f4000153f133	4	1	practice_slash	9	practice_slash	5	stimuli_distractor_diamondtriangles.svg	stimuli_target_rectangletriangles.svg	7	yes	53	1	639	0	0			0	0			1				0	
6.6.1	win	2023-07-08	20:56:53	21:03:52	413194	5c0586b43199f4000153f133	4	1	practice_slash	9	advance_on_keypress_SLASH	6	stimuli_distractor_diamondtriangles.svg	stimuli_target_rectangletriangles.svg	7	yes	57	0	309	0	0			0	0			1				0	
6.6.1	win	2023-07-08	20:56:53	21:03:54	415841	5c0586b43199f4000153f133	4	1	practice_slash	9	practice_slash	7	stimuli_target_squarediamonds.svg	stimuli_distractor_diamondtriangles.svg	2	yes	53	1	703	0	0			0	0			1				0	
6.6.1	win	2023-07-08	20:56:53	21:03:54	415841	5c0586b43199f4000153f133	4	1	practice_slash	9	advance_on_keypress_SLASH	8	stimuli_target_squarediamonds.svg	stimuli_distractor_diamondtriangles.svg	2	yes	57	0	235	0	0			0	0			1				0	
6.6.1	win	2023-07-08	20:56:53	21:03:57	418422	5c0586b43199f4000153f133	4	1	practice_slash	9	practice_slash	9	stimuli_target_diamondsquares.svg	stimuli_distractor_trianglediamonds.svg	6	yes	53	1	702	0	0			0	0			1				0	
6.6.1	win	2023-07-08	20:56:53	21:03:57	418422	5c0586b43199f4000153f133	4	1	practice_slash	9	advance_on_keypress_SLASH	10	stimuli_target_diamondsquares.svg	stimuli_distractor_trianglediamonds.svg	6	yes	57	0	269	0	0			0	0			1				0	
6.6.1	win	2023-07-08	20:56:53	21:04:00	421195	5c0586b43199f4000153f133	4	1	practice_slash	9	practice_slash	11	stimuli_distractor_trianglediamonds.svg	stimuli_target_rectanglediamonds.svg	10	yes	53	1	859	0	0			0	0			1				0	
6.6.1	win	2023-07-08	20:56:53	21:04:00	421195	5c0586b43199f4000153f133	4	1	practice_slash	9	advance_on_keypress_SLASH	12	stimuli_distractor_trianglediamonds.svg	stimuli_target_rectanglediamonds.svg	10	yes	57	0	274	0	0			0	0			1				0	
6.6.1	win	2023-07-08	20:56:53	21:04:02	423932	5c0586b43199f4000153f133	4	1	practice_slash	9	practice_slash	13	stimuli_target_rectanglediamonds.svg	stimuli_distractor_trianglediamonds.svg	4	yes	53	1	812	0	0			0	0			1				0	
6.6.1	win	2023-07-08	20:56:53	21:04:02	423932	5c0586b43199f4000153f133	4	1	practice_slash	9	advance_on_keypress_SLASH	14	stimuli_target_rectanglediamonds.svg	stimuli_distractor_trianglediamonds.svg	4	yes	57	0	287	0	0			0	0			1				0	
6.6.1	win	2023-07-08	20:56:53	21:04:05	426659	5c0586b43199f4000153f133	4	1	practice_slash	9	practice_slash	15	stimuli_distractor_trianglediamonds.svg	stimuli_target_squarediamonds.svg	11	yes	53	1	789	0	0			0	0			1				0	
6.6.1	win	2023-07-08	20:56:53	21:04:05	426659	5c0586b43199f4000153f133	4	1	practice_slash	9	advance_on_keypress_SLASH	16	stimuli_distractor_trianglediamonds.svg	stimuli_target_squarediamonds.svg	11	yes	57	0	417	0	0			0	0			1				0	
6.6.1	win	2023-07-08	20:56:53	21:04:08	429551	5c0586b43199f4000153f133	4	1	practice_slash	9	practice_slash	17	stimuli_target_diamondsquares.svg	stimuli_distractor_diamondtriangles.svg	3	yes	53	1	815	0	0			0	0			1				0	
6.6.1	win	2023-07-08	20:56:53	21:04:08	429551	5c0586b43199f4000153f133	4	1	practice_slash	9	advance_on_keypress_SLASH	18	stimuli_target_diamondsquares.svg	stimuli_distractor_diamondtriangles.svg	3	yes	57	0	341	0	0			0	0			1				0	
6.6.1	win	2023-07-08	20:56:53	21:04:11	432404	5c0586b43199f4000153f133	4	1	practice_slash	9	practice_slash	19	stimuli_target_rectanglediamonds.svg	stimuli_distractor_diamondtriangles.svg	1	yes	53	1	870	0	0			0	0			1				0	
6.6.1	win	2023-07-08	20:56:53	21:04:11	432404	5c0586b43199f4000153f133	4	1	practice_slash	9	advance_on_keypress_SLASH	20	stimuli_target_rectanglediamonds.svg	stimuli_distractor_diamondtriangles.svg	1	yes	57	0	254	0	0			0	0			1				0	
6.6.1	win	2023-07-08	20:56:53	21:04:15	436301	5c0586b43199f4000153f133	4	1	practice_slash	9	practice_slash	21	stimuli_distractor_trianglediamonds.svg	stimuli_distractor_trianglediamonds.svg	15	no	0	1	2000	0	0			0	0			1				0	
6.6.1	win	2023-07-08	20:56:53	21:04:15	436301	5c0586b43199f4000153f133	4	1	practice_slash	9	advance_on_keypress_SLASH	22	stimuli_distractor_trianglediamonds.svg	stimuli_distractor_trianglediamonds.svg	15	no	57	0	510	0	0			0	0			1				0	
6.6.1	win	2023-07-08	20:56:53	21:04:19	440450	5c0586b43199f4000153f133	4	1	practice_slash	9	practice_slash	23	stimuli_distractor_trianglediamonds.svg	stimuli_target_diamondrectangles.svg	12	yes	0	0	2000	0	0			0	0			1				0	
6.6.1	win	2023-07-08	20:56:53	21:04:19	440450	5c0586b43199f4000153f133	4	1	practice_slash	9	advance_on_keypress_SLASH	24	stimuli_distractor_trianglediamonds.svg	stimuli_target_diamondrectangles.svg	12	yes	57	0	366	0	0			0	0			1				0	
6.6.1	win	2023-07-08	20:56:53	21:04:22	443205	5c0586b43199f4000153f133	4	1	practice_slash	9	practice_slash	25	stimuli_target_squarediamonds.svg	stimuli_distractor_trianglediamonds.svg	5	yes	53	1	739	0	0			0	0			1				0	
6.6.1	win	2023-07-08	20:56:53	21:04:22	443205	5c0586b43199f4000153f133	4	1	practice_slash	9	advance_on_keypress_SLASH	26	stimuli_target_squarediamonds.svg	stimuli_distractor_trianglediamonds.svg	5	yes	57	0	383	0	0			0	0			1				0	
6.6.1	win	2023-07-08	20:56:53	21:04:24	445957	5c0586b43199f4000153f133	4	1	practice_slash	9	practice_slash	27	stimuli_distractor_diamondtriangles.svg	stimuli_target_trianglerectangles.svg	9	yes	53	1	725	0	0			0	0			1				0	
6.6.1	win	2023-07-08	20:56:53	21:04:24	445957	5c0586b43199f4000153f133	4	1	practice_slash	9	advance_on_keypress_SLASH	28	stimuli_distractor_diamondtriangles.svg	stimuli_target_trianglerectangles.svg	9	yes	57	0	3	0	0			0	0			1				0	
6.6.1	win	2023-07-08	20:56:53	21:04:27	448429	5c0586b43199f4000153f133	4	1	practice_slash	9	practice_slash	29	stimuli_distractor_diamondtriangles.svg	stimuli_distractor_trianglediamonds.svg	14	no	53	0	797	0	0			0	0			1				0	
6.6.1	win	2023-07-08	20:56:53	21:04:27	448429	5c0586b43199f4000153f133	4	1	practice_slash	9	advance_on_keypress_SLASH	30	stimuli_distractor_diamondtriangles.svg	stimuli_distractor_trianglediamonds.svg	14	no	57	0	264	0	0			0	0			1				0	
6.6.1	win	2023-07-08	20:56:53	21:04:30	451598	5c0586b43199f4000153f133	4	1	practice_slash	9	practice_slash	31	stimuli_distractor_diamondtriangles.svg	stimuli_target_diamondrectangles.svg	8	yes	53	1	1249	0	0			0	0			1				0	
6.6.1	win	2023-07-08	20:56:53	21:04:30	451598	5c0586b43199f4000153f133	4	1	practice_slash	9	advance_on_keypress_SLASH	32	stimuli_distractor_diamondtriangles.svg	stimuli_target_diamondrectangles.svg	8	yes	57	0	326	0	0			0	0			1				0	
6.6.1	win	2023-07-08	20:56:53	21:04:36	457278	5c0586b43199f4000153f133	4	1	main_slash	11	main_slash	1	stimuli_target_diamondrectangles.svg	stimuli_distractor_diamondtriangles.svg	23	yes	0	0	2000	0	0			0	0			1				0	
6.6.1	win	2023-07-08	20:56:53	21:04:36	457278	5c0586b43199f4000153f133	4	1	main_slash	11	advance_on_keypress_SLASH	2	stimuli_target_diamondrectangles.svg	stimuli_distractor_diamondtriangles.svg	23	yes	57	0	427	0	0			0	0			1				0	
6.6.1	win	2023-07-08	20:56:53	21:04:37	459105	5c0586b43199f4000153f133	4	1	main_slash	11	main_slash	3	stimuli_target_diamondsquares.svg	stimuli_distractor_diamondtriangles.svg	24	yes	53	1	761	0	0			0	0			1				0	
6.6.1	win	2023-07-08	20:56:53	21:04:37	459105	5c0586b43199f4000153f133	4	1	main_slash	11	advance_on_keypress_SLASH	4	stimuli_target_diamondsquares.svg	stimuli_distractor_diamondtriangles.svg	24	yes	57	0	535	0	0			0	0			1				0	
6.6.1	win	2023-07-08	20:56:53	21:04:39	460936	5c0586b43199f4000153f133	4	1	main_slash	11	main_slash	5	stimuli_distractor_trianglediamonds.svg	stimuli_target_squaretriangles.svg	11	yes	53	1	641	0	0			0	0			1				0	
6.6.1	win	2023-07-08	20:56:53	21:04:39	460936	5c0586b43199f4000153f133	4	1	main_slash	11	advance_on_keypress_SLASH	6	stimuli_distractor_trianglediamonds.svg	stimuli_target_squaretriangles.svg	11	yes	57	0	362	0	0			0	0			1				0	
6.6.1	win	2023-07-08	20:56:53	21:04:41	462640	5c0586b43199f4000153f133	4	1	main_slash	11	main_slash	7	stimuli_target_rectangletriangles.svg	stimuli_distractor_trianglediamonds.svg	1	yes	53	1	695	0	0			0	0			1				0	
6.6.1	win	2023-07-08	20:56:53	21:04:41	462640	5c0586b43199f4000153f133	4	1	main_slash	11	advance_on_keypress_SLASH	8	stimuli_target_rectangletriangles.svg	stimuli_distractor_trianglediamonds.svg	1	yes	57	0	355	0	0			0	0			1				0	
6.6.1	win	2023-07-08	20:56:53	21:04:42	464118	5c0586b43199f4000153f133	4	1	main_slash	11	main_slash	9	stimuli_target_squaretriangles.svg	stimuli_distractor_trianglediamonds.svg	3	yes	53	1	475	0	0			0	0			1				0	
6.6.1	win	2023-07-08	20:56:53	21:04:42	464118	5c0586b43199f4000153f133	4	1	main_slash	11	advance_on_keypress_SLASH	10	stimuli_target_squaretriangles.svg	stimuli_distractor_trianglediamonds.svg	3	yes	57	0	434	0	0			0	0			1				0	
6.6.1	win	2023-07-08	20:56:53	21:04:44	466074	5c0586b43199f4000153f133	4	1	main_slash	11	main_slash	11	stimuli_target_trianglesquares.svg	stimuli_distractor_trianglediamonds.svg	18	yes	53	1	881	0	0			0	0			1				0	
6.6.1	win	2023-07-08	20:56:53	21:04:44	466074	5c0586b43199f4000153f133	4	1	main_slash	11	advance_on_keypress_SLASH	12	stimuli_target_trianglesquares.svg	stimuli_distractor_trianglediamonds.svg	18	yes	57	0	352	0	0			0	0			1				0	
6.6.1	win	2023-07-08	20:56:53	21:04:46	467797	5c0586b43199f4000153f133	4	1	main_slash	11	main_slash	13	stimuli_distractor_diamondtriangles.svg	stimuli_target_rectangletriangles.svg	13	yes	53	1	721	0	0			0	0			1				0	
6.6.1	win	2023-07-08	20:56:53	21:04:46	467797	5c0586b43199f4000153f133	4	1	main_slash	11	advance_on_keypress_SLASH	14	stimuli_distractor_diamondtriangles.svg	stimuli_target_rectangletriangles.svg	13	yes	57	0	395	0	0			0	0			1				0	
6.6.1	win	2023-07-08	20:56:53	21:04:49	470842	5c0586b43199f4000153f133	4	1	main_slash	11	main_slash	15	stimuli_distractor_trianglediamonds.svg	stimuli_distractor_trianglediamonds.svg	33	no	0	1	2000	0	0			0	0			1				0	
6.6.1	win	2023-07-08	20:56:53	21:04:49	470842	5c0586b43199f4000153f133	4	1	main_slash	11	advance_on_keypress_SLASH	16	stimuli_distractor_trianglediamonds.svg	stimuli_distractor_trianglediamonds.svg	33	no	57	0	248	0	0			0	0			1				0	
6.6.1	win	2023-07-08	20:56:53	21:04:51	472328	5c0586b43199f4000153f133	4	1	main_slash	11	main_slash	17	stimuli_distractor_trianglediamonds.svg	stimuli_target_rectanglediamonds.svg	10	yes	53	1	587	0	0			0	0			1				0	
6.6.1	win	2023-07-08	20:56:53	21:04:51	472328	5c0586b43199f4000153f133	4	1	main_slash	11	advance_on_keypress_SLASH	18	stimuli_distractor_trianglediamonds.svg	stimuli_target_rectanglediamonds.svg	10	yes	57	0	363	0	0			0	0			1				0	
6.6.1	win	2023-07-08	20:56:53	21:04:52	473948	5c0586b43199f4000153f133	4	1	main_slash	11	main_slash	19	stimuli_target_rectangletriangles.svg	stimuli_distractor_diamondtriangles.svg	5	yes	53	1	606	0	0			0	0			1				0	
6.6.1	win	2023-07-08	20:56:53	21:04:52	473948	5c0586b43199f4000153f133	4	1	main_slash	11	advance_on_keypress_SLASH	20	stimuli_target_rectangletriangles.svg	stimuli_distractor_diamondtriangles.svg	5	yes	57	0	301	0	0			0	0			1				0	
6.6.1	win	2023-07-08	20:56:53	21:04:55	476892	5c0586b43199f4000153f133	4	1	main_slash	11	main_slash	21	stimuli_distractor_diamondtriangles.svg	stimuli_distractor_diamondtriangles.svg	40	no	0	1	2000	0	0			0	0			1				0	
6.6.1	win	2023-07-08	20:56:53	21:04:55	476892	5c0586b43199f4000153f133	4	1	main_slash	11	advance_on_keypress_SLASH	22	stimuli_distractor_diamondtriangles.svg	stimuli_distractor_diamondtriangles.svg	40	no	57	0	288	0	0			0	0			1				0	
6.6.1	win	2023-07-08	20:56:53	21:04:57	478337	5c0586b43199f4000153f133	4	1	main_slash	11	main_slash	23	stimuli_distractor_trianglediamonds.svg	stimuli_target_squarediamonds.svg	12	yes	53	1	510	0	0			0	0			1				0	
6.6.1	win	2023-07-08	20:56:53	21:04:57	478337	5c0586b43199f4000153f133	4	1	main_slash	11	advance_on_keypress_SLASH	24	stimuli_distractor_trianglediamonds.svg	stimuli_target_squarediamonds.svg	12	yes	57	0	356	0	0			0	0			1				0	
6.6.1	win	2023-07-08	20:56:53	21:04:59	480655	5c0586b43199f4000153f133	4	1	main_slash	11	main_slash	25	stimuli_target_diamondrectangles.svg	stimuli_distractor_trianglediamonds.svg	19	yes	53	1	1314	0	0			0	0			1				0	
6.6.1	win	2023-07-08	20:56:53	21:04:59	480655	5c0586b43199f4000153f133	4	1	main_slash	11	advance_on_keypress_SLASH	26	stimuli_target_diamondrectangles.svg	stimuli_distractor_trianglediamonds.svg	19	yes	57	0	306	0	0			0	0			1				0	
6.6.1	win	2023-07-08	20:56:53	21:05:00	482103	5c0586b43199f4000153f133	4	1	main_slash	11	main_slash	27	stimuli_distractor_diamondtriangles.svg	stimuli_target_rectanglediamonds.svg	14	yes	53	1	496	0	0			0	0			1				0	
6.6.1	win	2023-07-08	20:56:53	21:05:00	482103	5c0586b43199f4000153f133	4	1	main_slash	11	advance_on_keypress_SLASH	28	stimuli_distractor_diamondtriangles.svg	stimuli_target_rectanglediamonds.svg	14	yes	57	0	596	0	0			0	0			1				0	
6.6.1	win	2023-07-08	20:56:53	21:05:02	483927	5c0586b43199f4000153f133	4	1	main_slash	11	main_slash	29	stimuli_distractor_diamondtriangles.svg	stimuli_target_squarediamonds.svg	16	yes	53	1	571	0	0			0	0			1				0	
6.6.1	win	2023-07-08	20:56:53	21:05:02	483927	5c0586b43199f4000153f133	4	1	main_slash	11	advance_on_keypress_SLASH	30	stimuli_distractor_diamondtriangles.svg	stimuli_target_squarediamonds.svg	16	yes	57	0	338	0	0			0	0			1				0	
6.6.1	win	2023-07-08	20:56:53	21:05:04	485571	5c0586b43199f4000153f133	4	1	main_slash	11	main_slash	31	stimuli_distractor_diamondtriangles.svg	stimuli_target_trianglesquares.svg	30	yes	53	1	665	0	0			0	0			1				0	
6.6.1	win	2023-07-08	20:56:53	21:05:04	485571	5c0586b43199f4000153f133	4	1	main_slash	11	advance_on_keypress_SLASH	32	stimuli_distractor_diamondtriangles.svg	stimuli_target_trianglesquares.svg	30	yes	57	0	293	0	0			0	0			1				0	
6.6.1	win	2023-07-08	20:56:53	21:05:05	487112	5c0586b43199f4000153f133	4	1	main_slash	11	main_slash	33	stimuli_distractor_diamondtriangles.svg	stimuli_target_diamondrectangles.svg	31	yes	53	1	605	0	0			0	0			1				0	
6.6.1	win	2023-07-08	20:56:53	21:05:05	487112	5c0586b43199f4000153f133	4	1	main_slash	11	advance_on_keypress_SLASH	34	stimuli_distractor_diamondtriangles.svg	stimuli_target_diamondrectangles.svg	31	yes	57	0	294	0	0			0	0			1				0	
6.6.1	win	2023-07-08	20:56:53	21:05:07	488524	5c0586b43199f4000153f133	4	1	main_slash	11	main_slash	35	stimuli_target_squaretriangles.svg	stimuli_distractor_diamondtriangles.svg	7	yes	53	1	484	0	0			0	0			1				0	
6.6.1	win	2023-07-08	20:56:53	21:05:07	488524	5c0586b43199f4000153f133	4	1	main_slash	11	advance_on_keypress_SLASH	36	stimuli_target_squaretriangles.svg	stimuli_distractor_diamondtriangles.svg	7	yes	57	0	310	0	0			0	0			1				0	
6.6.1	win	2023-07-08	20:56:53	21:05:10	491473	5c0586b43199f4000153f133	4	1	main_slash	11	main_slash	37	stimuli_target_trianglerectangles.svg	stimuli_distractor_trianglediamonds.svg	17	yes	0	0	2000	0	0			0	0			1				0	
6.6.1	win	2023-07-08	20:56:53	21:05:10	491473	5c0586b43199f4000153f133	4	1	main_slash	11	advance_on_keypress_SLASH	38	stimuli_target_trianglerectangles.svg	stimuli_distractor_trianglediamonds.svg	17	yes	57	0	263	0	0			0	0			1				0	
6.6.1	win	2023-07-08	20:56:53	21:05:11	493116	5c0586b43199f4000153f133	4	1	main_slash	11	main_slash	39	stimuli_distractor_diamondtriangles.svg	stimuli_distractor_trianglediamonds.svg	37	no	53	0	726	0	0			0	0			1				0	
6.6.1	win	2023-07-08	20:56:53	21:05:11	493116	5c0586b43199f4000153f133	4	1	main_slash	11	advance_on_keypress_SLASH	40	stimuli_distractor_diamondtriangles.svg	stimuli_distractor_trianglediamonds.svg	37	no	57	0	245	0	0			0	0			1				0	
6.6.1	win	2023-07-08	20:56:53	21:05:13	494646	5c0586b43199f4000153f133	4	1	main_slash	11	main_slash	41	stimuli_distractor_trianglediamonds.svg	stimuli_target_rectangletriangles.svg	9	yes	53	1	657	0	0			0	0			1				0	
6.6.1	win	2023-07-08	20:56:53	21:05:13	494646	5c0586b43199f4000153f133	4	1	main_slash	11	advance_on_keypress_SLASH	42	stimuli_distractor_trianglediamonds.svg	stimuli_target_rectangletriangles.svg	9	yes	57	0	346	0	0			0	0			1				0	
6.6.1	win	2023-07-08	20:56:53	21:05:16	497639	5c0586b43199f4000153f133	4	1	main_slash	11	main_slash	43	stimuli_distractor_diamondtriangles.svg	stimuli_distractor_diamondtriangles.svg	39	no	0	1	2000	0	0			0	0			1				0	
6.6.1	win	2023-07-08	20:56:53	21:05:16	497639	5c0586b43199f4000153f133	4	1	main_slash	11	advance_on_keypress_SLASH	44	stimuli_distractor_diamondtriangles.svg	stimuli_distractor_diamondtriangles.svg	39	no	57	0	253	0	0			0	0			1				0	
6.6.1	win	2023-07-08	20:56:53	21:05:18	499326	5c0586b43199f4000153f133	4	1	main_slash	11	main_slash	45	stimuli_distractor_trianglediamonds.svg	stimuli_distractor_trianglediamonds.svg	34	no	53	0	788	0	0			0	0			1				0	
6.6.1	win	2023-07-08	20:56:53	21:05:18	499326	5c0586b43199f4000153f133	4	1	main_slash	11	advance_on_keypress_SLASH	46	stimuli_distractor_trianglediamonds.svg	stimuli_distractor_trianglediamonds.svg	34	no	57	0	269	0	0			0	0			1				0	
6.6.1	win	2023-07-08	20:56:53	21:05:19	501036	5c0586b43199f4000153f133	4	1	main_slash	11	main_slash	47	stimuli_target_trianglerectangles.svg	stimuli_distractor_diamondtriangles.svg	21	yes	53	1	798	0	0			0	0			1				0	
6.6.1	win	2023-07-08	20:56:53	21:05:19	501036	5c0586b43199f4000153f133	4	1	main_slash	11	advance_on_keypress_SLASH	48	stimuli_target_trianglerectangles.svg	stimuli_distractor_diamondtriangles.svg	21	yes	57	0	227	0	0			0	0			1				0	
6.6.1	win	2023-07-08	20:56:53	21:05:22	503904	5c0586b43199f4000153f133	4	1	main_slash	11	main_slash	49	stimuli_distractor_diamondtriangles.svg	stimuli_distractor_trianglediamonds.svg	38	no	0	1	2000	0	0			0	0			1				0	
6.6.1	win	2023-07-08	20:56:53	21:05:22	503904	5c0586b43199f4000153f133	4	1	main_slash	11	advance_on_keypress_SLASH	50	stimuli_distractor_diamondtriangles.svg	stimuli_distractor_trianglediamonds.svg	38	no	57	0	288	0	0			0	0			1				0	
6.6.1	win	2023-07-08	20:56:53	21:05:24	505402	5c0586b43199f4000153f133	4	1	main_slash	11	main_slash	51	stimuli_target_squarediamonds.svg	stimuli_distractor_diamondtriangles.svg	8	yes	53	1	565	0	0			0	0			1				0	
6.6.1	win	2023-07-08	20:56:53	21:05:24	505402	5c0586b43199f4000153f133	4	1	main_slash	11	advance_on_keypress_SLASH	52	stimuli_target_squarediamonds.svg	stimuli_distractor_diamondtriangles.svg	8	yes	57	0	306	0	0			0	0			1				0	
6.6.1	win	2023-07-08	20:56:53	21:05:25	507136	5c0586b43199f4000153f133	4	1	main_slash	11	main_slash	53	stimuli_target_trianglesquares.svg	stimuli_distractor_diamondtriangles.svg	22	yes	53	1	783	0	0			0	0			1				0	
6.6.1	win	2023-07-08	20:56:53	21:05:25	507136	5c0586b43199f4000153f133	4	1	main_slash	11	advance_on_keypress_SLASH	54	stimuli_target_trianglesquares.svg	stimuli_distractor_diamondtriangles.svg	22	yes	57	0	224	0	0			0	0			1				0	
6.6.1	win	2023-07-08	20:56:53	21:05:28	510004	5c0586b43199f4000153f133	4	1	main_slash	11	main_slash	55	stimuli_distractor_trianglediamonds.svg	stimuli_distractor_diamondtriangles.svg	35	no	0	1	2000	0	0			0	0			1				0	
6.6.1	win	2023-07-08	20:56:53	21:05:28	510004	5c0586b43199f4000153f133	4	1	main_slash	11	advance_on_keypress_SLASH	56	stimuli_distractor_trianglediamonds.svg	stimuli_distractor_diamondtriangles.svg	35	no	57	0	434	0	0			0	0			1				0	
6.6.1	win	2023-07-08	20:56:53	21:05:30	511938	5c0586b43199f4000153f133	4	1	main_slash	11	main_slash	57	stimuli_distractor_trianglediamonds.svg	stimuli_target_trianglerectangles.svg	25	yes	53	1	851	0	0			0	0			1				0	
6.6.1	win	2023-07-08	20:56:53	21:05:30	511938	5c0586b43199f4000153f133	4	1	main_slash	11	advance_on_keypress_SLASH	58	stimuli_distractor_trianglediamonds.svg	stimuli_target_trianglerectangles.svg	25	yes	57	0	341	0	0			0	0			1				0	
6.6.1	win	2023-07-08	20:56:53	21:05:33	514920	5c0586b43199f4000153f133	4	1	main_slash	11	main_slash	59	stimuli_distractor_trianglediamonds.svg	stimuli_target_diamondsquares.svg	28	yes	0	0	2000	0	0			0	0			1				0	
6.6.1	win	2023-07-08	20:56:53	21:05:33	514920	5c0586b43199f4000153f133	4	1	main_slash	11	advance_on_keypress_SLASH	60	stimuli_distractor_trianglediamonds.svg	stimuli_target_diamondsquares.svg	28	yes	57	0	270	0	0			0	0			1				0	
6.6.1	win	2023-07-08	20:56:53	21:05:35	516435	5c0586b43199f4000153f133	4	1	main_slash	11	main_slash	61	stimuli_target_rectanglediamonds.svg	stimuli_distractor_diamondtriangles.svg	6	yes	53	1	599	0	0			0	0			1				0	
6.6.1	win	2023-07-08	20:56:53	21:05:35	516435	5c0586b43199f4000153f133	4	1	main_slash	11	advance_on_keypress_SLASH	62	stimuli_target_rectanglediamonds.svg	stimuli_distractor_diamondtriangles.svg	6	yes	57	0	379	0	0			0	0			1				0	
6.6.1	win	2023-07-08	20:56:53	21:05:36	518013	5c0586b43199f4000153f133	4	1	main_slash	11	main_slash	63	stimuli_target_squarediamonds.svg	stimuli_distractor_trianglediamonds.svg	4	yes	53	1	544	0	0			0	0			1				0	
6.6.1	win	2023-07-08	20:56:53	21:05:36	518013	5c0586b43199f4000153f133	4	1	main_slash	11	advance_on_keypress_SLASH	64	stimuli_target_squarediamonds.svg	stimuli_distractor_trianglediamonds.svg	4	yes	57	0	323	0	0			0	0			1				0	
6.6.1	win	2023-07-08	20:56:53	21:05:38	519777	5c0586b43199f4000153f133	4	1	main_slash	11	main_slash	65	stimuli_target_diamondsquares.svg	stimuli_distractor_trianglediamonds.svg	20	yes	53	1	792	0	0			0	0			1				0	
6.6.1	win	2023-07-08	20:56:53	21:05:38	519777	5c0586b43199f4000153f133	4	1	main_slash	11	advance_on_keypress_SLASH	66	stimuli_target_diamondsquares.svg	stimuli_distractor_trianglediamonds.svg	20	yes	57	0	268	0	0			0	0			1				0	
6.6.1	win	2023-07-08	20:56:53	21:05:39	521146	5c0586b43199f4000153f133	4	1	main_slash	11	main_slash	67	stimuli_target_rectanglediamonds.svg	stimuli_distractor_trianglediamonds.svg	2	yes	53	1	461	0	0			0	0			1				0	
6.6.1	win	2023-07-08	20:56:53	21:05:39	521146	5c0586b43199f4000153f133	4	1	main_slash	11	advance_on_keypress_SLASH	68	stimuli_target_rectanglediamonds.svg	stimuli_distractor_trianglediamonds.svg	2	yes	57	0	294	0	0			0	0			1				0	
6.6.1	win	2023-07-08	20:56:53	21:05:41	522746	5c0586b43199f4000153f133	4	1	main_slash	11	main_slash	69	stimuli_distractor_diamondtriangles.svg	stimuli_target_diamondsquares.svg	32	yes	53	1	661	0	0			0	0			1				0	
6.6.1	win	2023-07-08	20:56:53	21:05:41	522746	5c0586b43199f4000153f133	4	1	main_slash	11	advance_on_keypress_SLASH	70	stimuli_distractor_diamondtriangles.svg	stimuli_target_diamondsquares.svg	32	yes	57	0	274	0	0			0	0			1				0	
6.6.1	win	2023-07-08	20:56:53	21:05:44	525652	5c0586b43199f4000153f133	4	1	main_slash	11	main_slash	71	stimuli_distractor_trianglediamonds.svg	stimuli_distractor_diamondtriangles.svg	36	no	0	1	2000	0	0			0	0			1				0	
6.6.1	win	2023-07-08	20:56:53	21:05:44	525652	5c0586b43199f4000153f133	4	1	main_slash	11	advance_on_keypress_SLASH	72	stimuli_distractor_trianglediamonds.svg	stimuli_distractor_diamondtriangles.svg	36	no	57	0	231	0	0			0	0			1				0	
6.6.1	win	2023-07-08	20:56:53	21:05:45	527142	5c0586b43199f4000153f133	4	1	main_slash	11	main_slash	73	stimuli_distractor_trianglediamonds.svg	stimuli_target_trianglesquares.svg	26	yes	53	1	607	0	0			0	0			1				0	
6.6.1	win	2023-07-08	20:56:53	21:05:45	527142	5c0586b43199f4000153f133	4	1	main_slash	11	advance_on_keypress_SLASH	74	stimuli_distractor_trianglediamonds.svg	stimuli_target_trianglesquares.svg	26	yes	57	0	367	0	0			0	0			1				0	
6.6.1	win	2023-07-08	20:56:53	21:05:47	528835	5c0586b43199f4000153f133	4	1	main_slash	11	main_slash	75	stimuli_distractor_diamondtriangles.svg	stimuli_target_squaretriangles.svg	15	yes	53	1	684	0	0			0	0			1				0	
6.6.1	win	2023-07-08	20:56:53	21:05:47	528835	5c0586b43199f4000153f133	4	1	main_slash	11	advance_on_keypress_SLASH	76	stimuli_distractor_diamondtriangles.svg	stimuli_target_squaretriangles.svg	15	yes	57	0	341	0	0			0	0			1				0	
6.6.1	win	2023-07-08	20:56:53	21:05:49	530654	5c0586b43199f4000153f133	4	1	main_slash	11	main_slash	77	stimuli_distractor_diamondtriangles.svg	stimuli_target_trianglerectangles.svg	29	yes	53	1	837	0	0			0	0			1				0	
6.6.1	win	2023-07-08	20:56:53	21:05:49	530654	5c0586b43199f4000153f133	4	1	main_slash	11	advance_on_keypress_SLASH	78	stimuli_distractor_diamondtriangles.svg	stimuli_target_trianglerectangles.svg	29	yes	57	0	299	0	0			0	0			1				0	
6.6.1	win	2023-07-08	20:56:53	21:05:51	532350	5c0586b43199f4000153f133	4	1	main_slash	11	main_slash	79	stimuli_distractor_trianglediamonds.svg	stimuli_target_diamondrectangles.svg	27	yes	53	1	750	0	0			0	0			1				0	
6.6.1	win	2023-07-08	20:56:53	21:05:51	532350	5c0586b43199f4000153f133	4	1	main_slash	11	advance_on_keypress_SLASH	80	stimuli_distractor_trianglediamonds.svg	stimuli_target_diamondrectangles.svg	27	yes	57	0	322	0	0			0	0			1				0	
6.6.1	win	2023-07-08	20:56:53	21:05:52	533928	5c0586b43199f4000153f133	4	1	main_slash	11	main_slash	81	stimuli_target_rectanglediamonds.svg	stimuli_distractor_trianglediamonds.svg	2	yes	53	1	611	0	0			0	0			1				0	
6.6.1	win	2023-07-08	20:56:53	21:05:52	533928	5c0586b43199f4000153f133	4	1	main_slash	11	advance_on_keypress_SLASH	82	stimuli_target_rectanglediamonds.svg	stimuli_distractor_trianglediamonds.svg	2	yes	57	0	329	0	0			0	0			1				0	
6.6.1	win	2023-07-08	20:56:53	21:05:54	535678	5c0586b43199f4000153f133	4	1	main_slash	11	main_slash	83	stimuli_distractor_diamondtriangles.svg	stimuli_target_diamondrectangles.svg	31	yes	53	1	761	0	0			0	0			1				0	
6.6.1	win	2023-07-08	20:56:53	21:05:54	535678	5c0586b43199f4000153f133	4	1	main_slash	11	advance_on_keypress_SLASH	84	stimuli_distractor_diamondtriangles.svg	stimuli_target_diamondrectangles.svg	31	yes	57	0	460	0	0			0	0			1				0	
6.6.1	win	2023-07-08	20:56:53	21:05:57	538766	5c0586b43199f4000153f133	4	1	main_slash	11	main_slash	85	stimuli_distractor_diamondtriangles.svg	stimuli_distractor_diamondtriangles.svg	39	no	0	1	2000	0	0			0	0			1				0	
6.6.1	win	2023-07-08	20:56:53	21:05:57	538766	5c0586b43199f4000153f133	4	1	main_slash	11	advance_on_keypress_SLASH	86	stimuli_distractor_diamondtriangles.svg	stimuli_distractor_diamondtriangles.svg	39	no	57	0	253	0	0			0	0			1				0	
6.6.1	win	2023-07-08	20:56:53	21:05:59	540303	5c0586b43199f4000153f133	4	1	main_slash	11	main_slash	87	stimuli_distractor_diamondtriangles.svg	stimuli_target_rectanglediamonds.svg	14	yes	53	1	637	0	0			0	0			1				0	
6.6.1	win	2023-07-08	20:56:53	21:05:59	540303	5c0586b43199f4000153f133	4	1	main_slash	11	advance_on_keypress_SLASH	88	stimuli_distractor_diamondtriangles.svg	stimuli_target_rectanglediamonds.svg	14	yes	57	0	379	0	0			0	0			1				0	
6.6.1	win	2023-07-08	20:56:53	21:06:02	543332	5c0586b43199f4000153f133	4	1	main_slash	11	main_slash	89	stimuli_distractor_trianglediamonds.svg	stimuli_distractor_trianglediamonds.svg	33	no	0	1	2000	0	0			0	0			1				0	
6.6.1	win	2023-07-08	20:56:53	21:06:02	543332	5c0586b43199f4000153f133	4	1	main_slash	11	advance_on_keypress_SLASH	90	stimuli_distractor_trianglediamonds.svg	stimuli_distractor_trianglediamonds.svg	33	no	57	0	343	0	0			0	0			1				0	
6.6.1	win	2023-07-08	20:56:53	21:06:03	544905	5c0586b43199f4000153f133	4	1	main_slash	11	main_slash	91	stimuli_distractor_diamondtriangles.svg	stimuli_target_squarediamonds.svg	16	yes	53	1	591	0	0			0	0			1				0	
6.6.1	win	2023-07-08	20:56:53	21:06:03	544905	5c0586b43199f4000153f133	4	1	main_slash	11	advance_on_keypress_SLASH	92	stimuli_distractor_diamondtriangles.svg	stimuli_target_squarediamonds.svg	16	yes	57	0	345	0	0			0	0			1				0	
6.6.1	win	2023-07-08	20:56:53	21:06:05	546624	5c0586b43199f4000153f133	4	1	main_slash	11	main_slash	93	stimuli_distractor_trianglediamonds.svg	stimuli_target_diamondrectangles.svg	27	yes	53	1	727	0	0			0	0			1				0	
6.6.1	win	2023-07-08	20:56:53	21:06:05	546624	5c0586b43199f4000153f133	4	1	main_slash	11	advance_on_keypress_SLASH	94	stimuli_distractor_trianglediamonds.svg	stimuli_target_diamondrectangles.svg	27	yes	57	0	324	0	0			0	0			1				0	
6.6.1	win	2023-07-08	20:56:53	21:06:08	549582	5c0586b43199f4000153f133	4	1	main_slash	11	main_slash	95	stimuli_distractor_trianglediamonds.svg	stimuli_distractor_diamondtriangles.svg	35	no	0	1	2000	0	0			0	0			1				0	
6.6.1	win	2023-07-08	20:56:53	21:06:08	549582	5c0586b43199f4000153f133	4	1	main_slash	11	advance_on_keypress_SLASH	96	stimuli_distractor_trianglediamonds.svg	stimuli_distractor_diamondtriangles.svg	35	no	57	0	360	0	0			0	0			1				0	
6.6.1	win	2023-07-08	20:56:53	21:06:09	551096	5c0586b43199f4000153f133	4	1	main_slash	11	main_slash	97	stimuli_target_squarediamonds.svg	stimuli_distractor_diamondtriangles.svg	8	yes	53	1	515	0	0			0	0			1				0	
6.6.1	win	2023-07-08	20:56:53	21:06:09	551096	5c0586b43199f4000153f133	4	1	main_slash	11	advance_on_keypress_SLASH	98	stimuli_target_squarediamonds.svg	stimuli_distractor_diamondtriangles.svg	8	yes	57	0	322	0	0			0	0			1				0	
6.6.1	win	2023-07-08	20:56:53	21:06:12	554064	5c0586b43199f4000153f133	4	1	main_slash	11	main_slash	99	stimuli_distractor_trianglediamonds.svg	stimuli_target_trianglerectangles.svg	25	yes	0	0	2000	0	0			0	0			1				0	
6.6.1	win	2023-07-08	20:56:53	21:06:12	554064	5c0586b43199f4000153f133	4	1	main_slash	11	advance_on_keypress_SLASH	100	stimuli_distractor_trianglediamonds.svg	stimuli_target_trianglerectangles.svg	25	yes	57	0	265	0	0			0	0			1				0	
6.6.1	win	2023-07-08	20:56:53	21:06:14	555566	5c0586b43199f4000153f133	4	1	main_slash	11	main_slash	101	stimuli_target_trianglesquares.svg	stimuli_distractor_trianglediamonds.svg	18	yes	53	1	586	0	0			0	0			1				0	
6.6.1	win	2023-07-08	20:56:53	21:06:14	555566	5c0586b43199f4000153f133	4	1	main_slash	11	advance_on_keypress_SLASH	102	stimuli_target_trianglesquares.svg	stimuli_distractor_trianglediamonds.svg	18	yes	57	0	362	0	0			0	0			1				0	
6.6.1	win	2023-07-08	20:56:53	21:06:16	557241	5c0586b43199f4000153f133	4	1	main_slash	11	main_slash	103	stimuli_target_diamondrectangles.svg	stimuli_distractor_diamondtriangles.svg	23	yes	53	1	661	0	0			0	0			1				0	
6.6.1	win	2023-07-08	20:56:53	21:06:16	557241	5c0586b43199f4000153f133	4	1	main_slash	11	advance_on_keypress_SLASH	104	stimuli_target_diamondrectangles.svg	stimuli_distractor_diamondtriangles.svg	23	yes	57	0	274	0	0			0	0			1				0	
6.6.1	win	2023-07-08	20:56:53	21:06:17	558795	5c0586b43199f4000153f133	4	1	main_slash	11	main_slash	105	stimuli_target_trianglesquares.svg	stimuli_distractor_diamondtriangles.svg	22	yes	53	1	647	0	0			0	0			1				0	
6.6.1	win	2023-07-08	20:56:53	21:06:17	558795	5c0586b43199f4000153f133	4	1	main_slash	11	advance_on_keypress_SLASH	106	stimuli_target_trianglesquares.svg	stimuli_distractor_diamondtriangles.svg	22	yes	57	0	317	0	0			0	0			1				0	
6.6.1	win	2023-07-08	20:56:53	21:06:19	560398	5c0586b43199f4000153f133	4	1	main_slash	11	main_slash	107	stimuli_target_diamondsquares.svg	stimuli_distractor_diamondtriangles.svg	24	yes	53	1	635	0	0			0	0			1				0	
6.6.1	win	2023-07-08	20:56:53	21:06:19	560398	5c0586b43199f4000153f133	4	1	main_slash	11	advance_on_keypress_SLASH	108	stimuli_target_diamondsquares.svg	stimuli_distractor_diamondtriangles.svg	24	yes	57	0	311	0	0			0	0			1				0	
6.6.1	win	2023-07-08	20:56:53	21:06:20	561901	5c0586b43199f4000153f133	4	1	main_slash	11	main_slash	109	stimuli_distractor_trianglediamonds.svg	stimuli_target_rectangletriangles.svg	9	yes	53	1	556	0	0			0	0			1				0	
6.6.1	win	2023-07-08	20:56:53	21:06:20	561901	5c0586b43199f4000153f133	4	1	main_slash	11	advance_on_keypress_SLASH	110	stimuli_distractor_trianglediamonds.svg	stimuli_target_rectangletriangles.svg	9	yes	57	0	405	0	0			0	0			1				0	
6.6.1	win	2023-07-08	20:56:53	21:06:22	563460	5c0586b43199f4000153f133	4	1	main_slash	11	main_slash	111	stimuli_target_squarediamonds.svg	stimuli_distractor_trianglediamonds.svg	4	yes	53	1	515	0	0			0	0			1				0	
6.6.1	win	2023-07-08	20:56:53	21:06:22	563460	5c0586b43199f4000153f133	4	1	main_slash	11	advance_on_keypress_SLASH	112	stimuli_target_squarediamonds.svg	stimuli_distractor_trianglediamonds.svg	4	yes	57	0	303	0	0			0	0			1				0	
6.6.1	win	2023-07-08	20:56:53	21:06:23	565076	5c0586b43199f4000153f133	4	1	main_slash	11	main_slash	113	stimuli_target_squaretriangles.svg	stimuli_distractor_diamondtriangles.svg	7	yes	53	1	663	0	0			0	0			1				0	
6.6.1	win	2023-07-08	20:56:53	21:06:23	565076	5c0586b43199f4000153f133	4	1	main_slash	11	advance_on_keypress_SLASH	114	stimuli_target_squaretriangles.svg	stimuli_distractor_diamondtriangles.svg	7	yes	57	0	269	0	0			0	0			1				0	
6.6.1	win	2023-07-08	20:56:53	21:06:25	566629	5c0586b43199f4000153f133	4	1	main_slash	11	main_slash	115	stimuli_target_diamondrectangles.svg	stimuli_distractor_trianglediamonds.svg	19	yes	53	1	634	0	0			0	0			1				0	
6.6.1	win	2023-07-08	20:56:53	21:06:25	566629	5c0586b43199f4000153f133	4	1	main_slash	11	advance_on_keypress_SLASH	116	stimuli_target_diamondrectangles.svg	stimuli_distractor_trianglediamonds.svg	19	yes	57	0	324	0	0			0	0			1				0	
6.6.1	win	2023-07-08	20:56:53	21:06:27	568217	5c0586b43199f4000153f133	4	1	main_slash	11	main_slash	117	stimuli_distractor_trianglediamonds.svg	stimuli_target_squarediamonds.svg	12	yes	53	1	623	0	0			0	0			1				0	
6.6.1	win	2023-07-08	20:56:53	21:06:27	568217	5c0586b43199f4000153f133	4	1	main_slash	11	advance_on_keypress_SLASH	118	stimuli_distractor_trianglediamonds.svg	stimuli_target_squarediamonds.svg	12	yes	57	0	345	0	0			0	0			1				0	
6.6.1	win	2023-07-08	20:56:53	21:06:30	571212	5c0586b43199f4000153f133	4	1	main_slash	11	main_slash	119	stimuli_distractor_diamondtriangles.svg	stimuli_distractor_trianglediamonds.svg	37	no	0	1	2000	0	0			0	0			1				0	
6.6.1	win	2023-07-08	20:56:53	21:06:30	571212	5c0586b43199f4000153f133	4	1	main_slash	11	advance_on_keypress_SLASH	120	stimuli_distractor_diamondtriangles.svg	stimuli_distractor_trianglediamonds.svg	37	no	57	0	279	0	0			0	0			1				0	
6.6.1	win	2023-07-08	20:56:53	21:06:31	572956	5c0586b43199f4000153f133	4	1	main_slash	11	main_slash	121	stimuli_distractor_diamondtriangles.svg	stimuli_target_trianglerectangles.svg	29	yes	53	1	811	0	0			0	0			1				0	
6.6.1	win	2023-07-08	20:56:53	21:06:31	572956	5c0586b43199f4000153f133	4	1	main_slash	11	advance_on_keypress_SLASH	122	stimuli_distractor_diamondtriangles.svg	stimuli_target_trianglerectangles.svg	29	yes	57	0	368	0	0			0	0			1				0	
6.6.1	win	2023-07-08	20:56:53	21:06:34	575977	5c0586b43199f4000153f133	4	1	main_slash	11	main_slash	123	stimuli_distractor_diamondtriangles.svg	stimuli_distractor_trianglediamonds.svg	38	no	0	1	2000	0	0			0	0			1				0	
6.6.1	win	2023-07-08	20:56:53	21:06:34	575977	5c0586b43199f4000153f133	4	1	main_slash	11	advance_on_keypress_SLASH	124	stimuli_distractor_diamondtriangles.svg	stimuli_distractor_trianglediamonds.svg	38	no	57	0	3	0	0			0	0			1				0	
6.6.1	win	2023-07-08	20:56:53	21:06:36	577326	5c0586b43199f4000153f133	4	1	main_slash	11	main_slash	125	stimuli_target_rectangletriangles.svg	stimuli_distractor_trianglediamonds.svg	1	yes	53	1	681	0	0			0	0			1				0	
6.6.1	win	2023-07-08	20:56:53	21:06:36	577326	5c0586b43199f4000153f133	4	1	main_slash	11	advance_on_keypress_SLASH	126	stimuli_target_rectangletriangles.svg	stimuli_distractor_trianglediamonds.svg	1	yes	57	0	433	0	0			0	0			1				0	
6.6.1	win	2023-07-08	20:56:53	21:06:39	580411	5c0586b43199f4000153f133	4	1	main_slash	11	main_slash	127	stimuli_distractor_diamondtriangles.svg	stimuli_target_trianglesquares.svg	30	yes	0	0	2000	0	0			0	0			1				0	
6.6.1	win	2023-07-08	20:56:53	21:06:39	580411	5c0586b43199f4000153f133	4	1	main_slash	11	advance_on_keypress_SLASH	128	stimuli_distractor_diamondtriangles.svg	stimuli_target_trianglesquares.svg	30	yes	57	0	62	0	0			0	0			1				0	
6.6.1	win	2023-07-08	20:56:53	21:06:41	583127	5c0586b43199f4000153f133	4	1	main_slash	11	main_slash	129	stimuli_distractor_diamondtriangles.svg	stimuli_target_diamondsquares.svg	32	yes	0	0	2000	0	0			0	0			1				0	
6.6.1	win	2023-07-08	20:56:53	21:06:41	583127	5c0586b43199f4000153f133	4	1	main_slash	11	advance_on_keypress_SLASH	130	stimuli_distractor_diamondtriangles.svg	stimuli_target_diamondsquares.svg	32	yes	57	0	299	0	0			0	0			1				0	
6.6.1	win	2023-07-08	20:56:53	21:06:44	586077	5c0586b43199f4000153f133	4	1	main_slash	11	main_slash	131	stimuli_distractor_diamondtriangles.svg	stimuli_distractor_diamondtriangles.svg	40	no	0	1	2000	0	0			0	0			1				0	
6.6.1	win	2023-07-08	20:56:53	21:06:44	586077	5c0586b43199f4000153f133	4	1	main_slash	11	advance_on_keypress_SLASH	132	stimuli_distractor_diamondtriangles.svg	stimuli_distractor_diamondtriangles.svg	40	no	57	0	559	0	0			0	0			1				0	
6.6.1	win	2023-07-08	20:56:53	21:06:48	589276	5c0586b43199f4000153f133	4	1	main_slash	11	main_slash	133	stimuli_target_trianglerectangles.svg	stimuli_distractor_trianglediamonds.svg	17	yes	0	0	2000	0	0			0	0			1				0	
6.6.1	win	2023-07-08	20:56:53	21:06:48	589276	5c0586b43199f4000153f133	4	1	main_slash	11	advance_on_keypress_SLASH	134	stimuli_target_trianglerectangles.svg	stimuli_distractor_trianglediamonds.svg	17	yes	57	0	706	0	0			0	0			1				0	
6.6.1	win	2023-07-08	20:56:53	21:06:50	591648	5c0586b43199f4000153f133	4	1	main_slash	11	main_slash	135	stimuli_distractor_trianglediamonds.svg	stimuli_target_diamondsquares.svg	28	yes	53	1	1023	0	0			0	0			1				0	
6.6.1	win	2023-07-08	20:56:53	21:06:50	591648	5c0586b43199f4000153f133	4	1	main_slash	11	advance_on_keypress_SLASH	136	stimuli_distractor_trianglediamonds.svg	stimuli_target_diamondsquares.svg	28	yes	57	0	319	0	0			0	0			1				0	
6.6.1	win	2023-07-08	20:56:53	21:06:51	593122	5c0586b43199f4000153f133	4	1	main_slash	11	main_slash	137	stimuli_target_rectanglediamonds.svg	stimuli_distractor_diamondtriangles.svg	6	yes	53	1	509	0	0			0	0			1				0	
6.6.1	win	2023-07-08	20:56:53	21:06:51	593122	5c0586b43199f4000153f133	4	1	main_slash	11	advance_on_keypress_SLASH	138	stimuli_target_rectanglediamonds.svg	stimuli_distractor_diamondtriangles.svg	6	yes	57	0	315	0	0			0	0			1				0	
6.6.1	win	2023-07-08	20:56:53	21:06:54	596092	5c0586b43199f4000153f133	4	1	main_slash	11	main_slash	139	stimuli_target_trianglerectangles.svg	stimuli_distractor_diamondtriangles.svg	21	yes	0	0	2000	0	0			0	0			1				0	
6.6.1	win	2023-07-08	20:56:53	21:06:54	596092	5c0586b43199f4000153f133	4	1	main_slash	11	advance_on_keypress_SLASH	140	stimuli_target_trianglerectangles.svg	stimuli_distractor_diamondtriangles.svg	21	yes	57	0	296	0	0			0	0			1				0	
6.6.1	win	2023-07-08	20:56:53	21:06:56	597747	5c0586b43199f4000153f133	4	1	main_slash	11	main_slash	141	stimuli_distractor_trianglediamonds.svg	stimuli_target_squaretriangles.svg	11	yes	53	1	706	0	0			0	0			1				0	
6.6.1	win	2023-07-08	20:56:53	21:06:56	597747	5c0586b43199f4000153f133	4	1	main_slash	11	advance_on_keypress_SLASH	142	stimuli_distractor_trianglediamonds.svg	stimuli_target_squaretriangles.svg	11	yes	57	0	411	0	0			0	0			1				0	
6.6.1	win	2023-07-08	20:56:53	21:06:58	599272	5c0586b43199f4000153f133	4	1	main_slash	11	main_slash	143	stimuli_distractor_diamondtriangles.svg	stimuli_target_rectangletriangles.svg	13	yes	53	1	481	0	0			0	0			1				0	
6.6.1	win	2023-07-08	20:56:53	21:06:58	599272	5c0586b43199f4000153f133	4	1	main_slash	11	advance_on_keypress_SLASH	144	stimuli_distractor_diamondtriangles.svg	stimuli_target_rectangletriangles.svg	13	yes	57	0	466	0	0			0	0			1				0	
6.6.1	win	2023-07-08	20:56:53	21:07:01	602391	5c0586b43199f4000153f133	4	1	main_slash	11	main_slash	145	stimuli_distractor_trianglediamonds.svg	stimuli_distractor_diamondtriangles.svg	36	no	0	1	2000	0	0			0	0			1				0	
6.6.1	win	2023-07-08	20:56:53	21:07:01	602391	5c0586b43199f4000153f133	4	1	main_slash	11	advance_on_keypress_SLASH	146	stimuli_distractor_trianglediamonds.svg	stimuli_distractor_diamondtriangles.svg	36	no	57	0	254	0	0			0	0			1				0	
6.6.1	win	2023-07-08	20:56:53	21:07:04	605290	5c0586b43199f4000153f133	4	1	main_slash	11	main_slash	147	stimuli_distractor_trianglediamonds.svg	stimuli_distractor_trianglediamonds.svg	34	no	0	1	2000	0	0			0	0			1				0	
6.6.1	win	2023-07-08	20:56:53	21:07:04	605290	5c0586b43199f4000153f133	4	1	main_slash	11	advance_on_keypress_SLASH	148	stimuli_distractor_trianglediamonds.svg	stimuli_distractor_trianglediamonds.svg	34	no	57	0	270	0	0			0	0			1				0	
6.6.1	win	2023-07-08	20:56:53	21:07:05	606603	5c0586b43199f4000153f133	4	1	main_slash	11	main_slash	149	stimuli_target_squaretriangles.svg	stimuli_distractor_trianglediamonds.svg	3	yes	53	1	398	0	0			0	0			1				0	
6.6.1	win	2023-07-08	20:56:53	21:07:05	606603	5c0586b43199f4000153f133	4	1	main_slash	11	advance_on_keypress_SLASH	150	stimuli_target_squaretriangles.svg	stimuli_distractor_trianglediamonds.svg	3	yes	57	0	389	0	0			0	0			1				0	
6.6.1	win	2023-07-08	20:56:53	21:07:06	608059	5c0586b43199f4000153f133	4	1	main_slash	11	main_slash	151	stimuli_distractor_trianglediamonds.svg	stimuli_target_rectanglediamonds.svg	10	yes	53	1	419	0	0			0	0			1				0	
6.6.1	win	2023-07-08	20:56:53	21:07:06	608059	5c0586b43199f4000153f133	4	1	main_slash	11	advance_on_keypress_SLASH	152	stimuli_distractor_trianglediamonds.svg	stimuli_target_rectanglediamonds.svg	10	yes	57	0	310	0	0			0	0			1				0	
6.6.1	win	2023-07-08	20:56:53	21:07:08	609446	5c0586b43199f4000153f133	4	1	main_slash	11	main_slash	153	stimuli_target_rectangletriangles.svg	stimuli_distractor_diamondtriangles.svg	5	yes	53	1	440	0	0			0	0			1				0	
6.6.1	win	2023-07-08	20:56:53	21:07:08	609446	5c0586b43199f4000153f133	4	1	main_slash	11	advance_on_keypress_SLASH	154	stimuli_target_rectangletriangles.svg	stimuli_distractor_diamondtriangles.svg	5	yes	57	0	311	0	0			0	0			1				0	
6.6.1	win	2023-07-08	20:56:53	21:07:10	611230	5c0586b43199f4000153f133	4	1	main_slash	11	main_slash	155	stimuli_target_diamondsquares.svg	stimuli_distractor_trianglediamonds.svg	20	yes	53	1	824	0	0			0	0			1				0	
6.6.1	win	2023-07-08	20:56:53	21:07:10	611230	5c0586b43199f4000153f133	4	1	main_slash	11	advance_on_keypress_SLASH	156	stimuli_target_diamondsquares.svg	stimuli_distractor_trianglediamonds.svg	20	yes	57	0	322	0	0			0	0			1				0	
6.6.1	win	2023-07-08	20:56:53	21:07:11	612688	5c0586b43199f4000153f133	4	1	main_slash	11	main_slash	157	stimuli_distractor_trianglediamonds.svg	stimuli_target_trianglesquares.svg	26	yes	53	1	500	0	0			0	0			1				0	
6.6.1	win	2023-07-08	20:56:53	21:07:11	612688	5c0586b43199f4000153f133	4	1	main_slash	11	advance_on_keypress_SLASH	158	stimuli_distractor_trianglediamonds.svg	stimuli_target_trianglesquares.svg	26	yes	57	0	305	0	0			0	0			1				0	
6.6.1	win	2023-07-08	20:56:53	21:07:12	614078	5c0586b43199f4000153f133	4	1	main_slash	11	main_slash	159	stimuli_distractor_diamondtriangles.svg	stimuli_target_squaretriangles.svg	15	yes	53	1	439	0	0			0	0			1				0	
6.6.1	win	2023-07-08	20:56:53	21:07:12	614078	5c0586b43199f4000153f133	4	1	main_slash	11	advance_on_keypress_SLASH	160	stimuli_distractor_diamondtriangles.svg	stimuli_target_squaretriangles.svg	15	yes	57	0	345	0	0			0	0			1				0	
6.6.1	win	2023-07-08	20:56:53	21:07:12	614078	5c0586b43199f4000153f133	4	1	headphonecheck_calibration	14	headphonecheck_calibrationIntro	1	stimuli_distractor_diamondtriangles.svg	stimuli_target_squaretriangles.svg	15	yes	calibrationButton	0	3609	0	0			0	0			1				0	
6.6.1	win	2023-07-08	20:56:53	21:07:12	614078	5c0586b43199f4000153f133	4	1	headphonecheck_testphase	15	test_collectResponse	3	stimuli_distractor_diamondtriangles.svg	stimuli_target_squaretriangles.svg	15	yes	first	1	2191	1	3	antiphase_hc_soi.wav	1	0	0			1				0	
6.6.1	win	2023-07-08	20:56:53	21:07:12	614078	5c0586b43199f4000153f133	4	1	headphonecheck_testphase	15	test_collectResponse	6	stimuli_distractor_diamondtriangles.svg	stimuli_target_squaretriangles.svg	15	yes	first	0	18492	2	5	antiphase_hc_osi.wav	2	0	0			1				0	
6.6.1	win	2023-07-08	20:56:53	21:07:12	614078	5c0586b43199f4000153f133	4	1	headphonecheck_testphase	15	test_collectResponse	9	stimuli_distractor_diamondtriangles.svg	stimuli_target_squaretriangles.svg	15	yes	third	1	3470	3	6	antiphase_hc_ois.wav	3	0	0			1				0	
6.6.1	win	2023-07-08	20:56:53	21:07:12	614078	5c0586b43199f4000153f133	4	1	headphonecheck_testphase	15	test_collectResponse	12	stimuli_distractor_diamondtriangles.svg	stimuli_target_squaretriangles.svg	15	yes	third	1	700	4	2	antiphase_hc_ios.wav	3	0	0			1				0	
6.6.1	win	2023-07-08	20:56:53	21:07:12	614078	5c0586b43199f4000153f133	4	1	headphonecheck_testphase	15	test_collectResponse	15	stimuli_distractor_diamondtriangles.svg	stimuli_target_squaretriangles.svg	15	yes	second	1	478	5	1	antiphase_hc_iso.wav	2	0	0			1				0	
6.6.1	win	2023-07-08	20:56:53	21:07:12	614078	5c0586b43199f4000153f133	4	1	headphonecheck_testphase	15	test_collectResponse	18	stimuli_distractor_diamondtriangles.svg	stimuli_target_squaretriangles.svg	15	yes	first	1	354	6	4	antiphase_hc_sio.wav	1	0	0			1				0	
6.6.1	win	2023-07-08	20:56:53	21:07:12	614078	5c0586b43199f4000153f133	4	1	stereocheck_calibration	17	stereocheck_calibrationIntro	1	stimuli_distractor_diamondtriangles.svg	stimuli_target_squaretriangles.svg	15	yes	stereocheck_calibrationButton	0	1971	6	4	antiphase_hc_sio.wav	1	0	0			1				0	
6.6.1	win	2023-07-08	20:56:53	21:07:12	614078	5c0586b43199f4000153f133	4	1	stereocheck_testphase	18	stereocheck_test_collectResponse	3	stimuli_distractor_diamondtriangles.svg	stimuli_target_squaretriangles.svg	15	yes	stereocheck_right	1	405	6	4	antiphase_hc_sio.wav	1	1	6	noise_calib_stim_RIGHT.wav	2	1				0	
6.6.1	win	2023-07-08	20:56:53	21:07:12	614078	5c0586b43199f4000153f133	4	1	stereocheck_testphase	18	stereocheck_test_collectResponse	6	stimuli_distractor_diamondtriangles.svg	stimuli_target_squaretriangles.svg	15	yes	stereocheck_left	1	325	6	4	antiphase_hc_sio.wav	1	2	1	noise_calib_stim_LEFT.wav	1	1				0	
6.6.1	win	2023-07-08	20:56:53	21:07:12	614078	5c0586b43199f4000153f133	4	1	stereocheck_testphase	18	stereocheck_test_collectResponse	9	stimuli_distractor_diamondtriangles.svg	stimuli_target_squaretriangles.svg	15	yes	stereocheck_left	1	305	6	4	antiphase_hc_sio.wav	1	3	2	noise_calib_stim_LEFT.wav	1	1				0	
6.6.1	win	2023-07-08	20:56:53	21:07:12	614078	5c0586b43199f4000153f133	4	1	stereocheck_testphase	18	stereocheck_test_collectResponse	12	stimuli_distractor_diamondtriangles.svg	stimuli_target_squaretriangles.svg	15	yes	stereocheck_right	1	292	6	4	antiphase_hc_sio.wav	1	4	5	noise_calib_stim_RIGHT.wav	2	1				0	
6.6.1	win	2023-07-08	20:56:53	21:07:12	614078	5c0586b43199f4000153f133	4	1	stereocheck_testphase	18	stereocheck_test_collectResponse	15	stimuli_distractor_diamondtriangles.svg	stimuli_target_squaretriangles.svg	15	yes	stereocheck_left	1	322	6	4	antiphase_hc_sio.wav	1	5	3	noise_calib_stim_LEFT.wav	1	1				0	
6.6.1	win	2023-07-08	20:56:53	21:07:12	614078	5c0586b43199f4000153f133	4	1	stereocheck_testphase	18	stereocheck_test_collectResponse	18	stimuli_distractor_diamondtriangles.svg	stimuli_target_squaretriangles.svg	15	yes	stereocheck_right	1	297	6	4	antiphase_hc_sio.wav	1	6	4	noise_calib_stim_RIGHT.wav	2	1				0	
6.6.1	win	2023-07-08	20:56:53	21:07:12	614078	5c0586b43199f4000153f133	4	1	DL_practice	21	DL_practice	2	stimuli_distractor_diamondtriangles.svg	stimuli_target_squaretriangles.svg	15	yes	ba	1	1513	6	4	antiphase_hc_sio.wav	1	6	4	noise_calib_stim_RIGHT.wav	2	1	blb_dichoticlistening_ba-ba.mp3	ba	ba	0	left
6.6.1	win	2023-07-08	20:56:53	21:07:12	614078	5c0586b43199f4000153f133	4	1	DL_practice	21	DL_practice	3	stimuli_distractor_diamondtriangles.svg	stimuli_target_squaretriangles.svg	15	yes	ga	1	968	6	4	antiphase_hc_sio.wav	1	6	4	noise_calib_stim_RIGHT.wav	2	15	blb_dichoticlistening_ga-ga.mp3	ga	ga	0	left
6.6.1	win	2023-07-08	20:56:53	21:07:12	614078	5c0586b43199f4000153f133	4	1	DL_practice	21	DL_practice	4	stimuli_distractor_diamondtriangles.svg	stimuli_target_squaretriangles.svg	15	yes	ka	1	1286	6	4	antiphase_hc_sio.wav	1	6	4	noise_calib_stim_RIGHT.wav	2	23	blb_dichoticlistening_ka-pa.mp3	ka	pa	1	left
6.6.1	win	2023-07-08	20:56:53	21:07:12	614078	5c0586b43199f4000153f133	4	1	DL_practice	21	DL_practice	5	stimuli_distractor_diamondtriangles.svg	stimuli_target_squaretriangles.svg	15	yes	da	1	954	6	4	antiphase_hc_sio.wav	1	6	4	noise_calib_stim_RIGHT.wav	2	8	blb_dichoticlistening_da-da.mp3	da	da	0	left
6.6.1	win	2023-07-08	20:56:53	21:07:12	614078	5c0586b43199f4000153f133	4	1	DL_practice	21	DL_practice	6	stimuli_distractor_diamondtriangles.svg	stimuli_target_squaretriangles.svg	15	yes	ka	1	949	6	4	antiphase_hc_sio.wav	1	6	4	noise_calib_stim_RIGHT.wav	2	22	blb_dichoticlistening_ka-ka.mp3	ka	ka	0	left
6.6.1	win	2023-07-08	20:56:53	21:07:12	614078	5c0586b43199f4000153f133	4	1	DL_practice	21	DL_practice	7	stimuli_distractor_diamondtriangles.svg	stimuli_target_squaretriangles.svg	15	yes	pa	1	804	6	4	antiphase_hc_sio.wav	1	6	4	noise_calib_stim_RIGHT.wav	2	29	blb_dichoticlistening_pa-pa.mp3	pa	pa	0	left
6.6.1	win	2023-07-08	20:56:53	21:07:12	614078	5c0586b43199f4000153f133	4	1	DL_practice	21	DL_practice	8	stimuli_distractor_diamondtriangles.svg	stimuli_target_squaretriangles.svg	15	yes	ga	1	1009	6	4	antiphase_hc_sio.wav	1	6	4	noise_calib_stim_RIGHT.wav	2	18	blb_dichoticlistening_ga-ta.mp3	ga	ta	1	left
6.6.1	win	2023-07-08	20:56:53	21:07:12	614078	5c0586b43199f4000153f133	4	1	DL_practice	21	DL_practice	9	stimuli_distractor_diamondtriangles.svg	stimuli_target_squaretriangles.svg	15	yes	ta	0	1690	6	4	antiphase_hc_sio.wav	1	6	4	noise_calib_stim_RIGHT.wav	2	7	blb_dichoticlistening_da-ba.mp3	da	ba	1	other
6.6.1	win	2023-07-08	20:56:53	21:07:12	614078	5c0586b43199f4000153f133	4	1	DL_practice	21	DL_practice	10	stimuli_distractor_diamondtriangles.svg	stimuli_target_squaretriangles.svg	15	yes	ta	1	736	6	4	antiphase_hc_sio.wav	1	6	4	noise_calib_stim_RIGHT.wav	2	36	blb_dichoticlistening_ta-ta.mp3	ta	ta	0	left
6.6.1	win	2023-07-08	20:56:53	21:07:12	614078	5c0586b43199f4000153f133	4	1	DL_test	23	DL_test	1	stimuli_distractor_diamondtriangles.svg	stimuli_target_squaretriangles.svg	15	yes	ga	1	808	6	4	antiphase_hc_sio.wav	1	6	4	noise_calib_stim_RIGHT.wav	2	9	blb_dichoticlistening_da-ga.mp3	da	ga	1	right
6.6.1	win	2023-07-08	20:56:53	21:07:12	614078	5c0586b43199f4000153f133	4	1	DL_test	23	DL_test	2	stimuli_distractor_diamondtriangles.svg	stimuli_target_squaretriangles.svg	15	yes	ka	1	790	6	4	antiphase_hc_sio.wav	1	6	4	noise_calib_stim_RIGHT.wav	2	28	blb_dichoticlistening_pa-ka.mp3	pa	ka	1	right
6.6.1	win	2023-07-08	20:56:53	21:07:12	614078	5c0586b43199f4000153f133	4	1	DL_test	23	DL_test	3	stimuli_distractor_diamondtriangles.svg	stimuli_target_squaretriangles.svg	15	yes	ba	1	1241	6	4	antiphase_hc_sio.wav	1	6	4	noise_calib_stim_RIGHT.wav	2	3	blb_dichoticlistening_ba-ga.mp3	ba	ga	1	left
6.6.1	win	2023-07-08	20:56:53	21:07:12	614078	5c0586b43199f4000153f133	4	1	DL_test	23	DL_test	4	stimuli_distractor_diamondtriangles.svg	stimuli_target_squaretriangles.svg	15	yes	da	1	702	6	4	antiphase_hc_sio.wav	1	6	4	noise_calib_stim_RIGHT.wav	2	7	blb_dichoticlistening_da-ba.mp3	da	ba	1	left
6.6.1	win	2023-07-08	20:56:53	21:07:12	614078	5c0586b43199f4000153f133	4	1	DL_test	23	DL_test	5	stimuli_distractor_diamondtriangles.svg	stimuli_target_squaretriangles.svg	15	yes	ga	1	841	6	4	antiphase_hc_sio.wav	1	6	4	noise_calib_stim_RIGHT.wav	2	14	blb_dichoticlistening_ga-da.mp3	ga	da	1	left
6.6.1	win	2023-07-08	20:56:53	21:07:12	614078	5c0586b43199f4000153f133	4	1	DL_test	23	DL_test	6	stimuli_distractor_diamondtriangles.svg	stimuli_target_squaretriangles.svg	15	yes	ga	1	795	6	4	antiphase_hc_sio.wav	1	6	4	noise_calib_stim_RIGHT.wav	2	33	blb_dichoticlistening_ta-ga.mp3	ta	ga	1	right
6.6.1	win	2023-07-08	20:56:53	21:07:12	614078	5c0586b43199f4000153f133	4	1	DL_test	23	DL_test	7	stimuli_distractor_diamondtriangles.svg	stimuli_target_squaretriangles.svg	15	yes	pa	1	1011	6	4	antiphase_hc_sio.wav	1	6	4	noise_calib_stim_RIGHT.wav	2	25	blb_dichoticlistening_pa-ba.mp3	pa	ba	1	left
6.6.1	win	2023-07-08	20:56:53	21:07:12	614078	5c0586b43199f4000153f133	4	1	DL_test	23	DL_test	8	stimuli_distractor_diamondtriangles.svg	stimuli_target_squaretriangles.svg	15	yes	pa	1	967	6	4	antiphase_hc_sio.wav	1	6	4	noise_calib_stim_RIGHT.wav	2	5	blb_dichoticlistening_ba-pa.mp3	ba	pa	1	right
6.6.1	win	2023-07-08	20:56:53	21:07:12	614078	5c0586b43199f4000153f133	4	1	DL_test	23	DL_test	9	stimuli_distractor_diamondtriangles.svg	stimuli_target_squaretriangles.svg	15	yes	ka	1	1615	6	4	antiphase_hc_sio.wav	1	6	4	noise_calib_stim_RIGHT.wav	2	22	blb_dichoticlistening_ka-ka.mp3	ka	ka	0	left
6.6.1	win	2023-07-08	20:56:53	21:07:12	614078	5c0586b43199f4000153f133	4	1	DL_test	23	DL_test	10	stimuli_distractor_diamondtriangles.svg	stimuli_target_squaretriangles.svg	15	yes	ga	0	892	6	4	antiphase_hc_sio.wav	1	6	4	noise_calib_stim_RIGHT.wav	2	20	blb_dichoticlistening_ka-da.mp3	ka	da	1	other
6.6.1	win	2023-07-08	20:56:53	21:07:12	614078	5c0586b43199f4000153f133	4	1	DL_test	23	DL_test	11	stimuli_distractor_diamondtriangles.svg	stimuli_target_squaretriangles.svg	15	yes	da	1	1418	6	4	antiphase_hc_sio.wav	1	6	4	noise_calib_stim_RIGHT.wav	2	11	blb_dichoticlistening_da-pa.mp3	da	pa	1	left
6.6.1	win	2023-07-08	20:56:53	21:07:12	614078	5c0586b43199f4000153f133	4	1	DL_test	23	DL_test	12	stimuli_distractor_diamondtriangles.svg	stimuli_target_squaretriangles.svg	15	yes	ka	1	1830	6	4	antiphase_hc_sio.wav	1	6	4	noise_calib_stim_RIGHT.wav	2	4	blb_dichoticlistening_ba-ka.mp3	ba	ka	1	right
6.6.1	win	2023-07-08	20:56:53	21:07:12	614078	5c0586b43199f4000153f133	4	1	DL_test	23	DL_test	13	stimuli_distractor_diamondtriangles.svg	stimuli_target_squaretriangles.svg	15	yes	da	1	1316	6	4	antiphase_hc_sio.wav	1	6	4	noise_calib_stim_RIGHT.wav	2	26	blb_dichoticlistening_pa-da.mp3	pa	da	1	right
6.6.1	win	2023-07-08	20:56:53	21:07:12	614078	5c0586b43199f4000153f133	4	1	DL_test	23	DL_test	14	stimuli_distractor_diamondtriangles.svg	stimuli_target_squaretriangles.svg	15	yes	ta	1	2288	6	4	antiphase_hc_sio.wav	1	6	4	noise_calib_stim_RIGHT.wav	2	6	blb_dichoticlistening_ba-ta.mp3	ba	ta	1	right
6.6.1	win	2023-07-08	20:56:53	21:07:12	614078	5c0586b43199f4000153f133	4	1	DL_test	23	DL_test	15	stimuli_distractor_diamondtriangles.svg	stimuli_target_squaretriangles.svg	15	yes	ta	1	699	6	4	antiphase_hc_sio.wav	1	6	4	noise_calib_stim_RIGHT.wav	2	36	blb_dichoticlistening_ta-ta.mp3	ta	ta	0	left
6.6.1	win	2023-07-08	20:56:53	21:07:12	614078	5c0586b43199f4000153f133	4	1	DL_test	23	DL_test	16	stimuli_distractor_diamondtriangles.svg	stimuli_target_squaretriangles.svg	15	yes	ba	1	1160	6	4	antiphase_hc_sio.wav	1	6	4	noise_calib_stim_RIGHT.wav	2	13	blb_dichoticlistening_ga-ba.mp3	ga	ba	1	right
6.6.1	win	2023-07-08	20:56:53	21:07:12	614078	5c0586b43199f4000153f133	4	1	DL_test	23	DL_test	17	stimuli_distractor_diamondtriangles.svg	stimuli_target_squaretriangles.svg	15	yes	ga	1	884	6	4	antiphase_hc_sio.wav	1	6	4	noise_calib_stim_RIGHT.wav	2	21	blb_dichoticlistening_ka-ga.mp3	ka	ga	1	right
6.6.1	win	2023-07-08	20:56:53	21:07:12	614078	5c0586b43199f4000153f133	4	1	DL_test	23	DL_test	18	stimuli_distractor_diamondtriangles.svg	stimuli_target_squaretriangles.svg	15	yes	ga	1	578	6	4	antiphase_hc_sio.wav	1	6	4	noise_calib_stim_RIGHT.wav	2	18	blb_dichoticlistening_ga-ta.mp3	ga	ta	1	left
6.6.1	win	2023-07-08	20:56:53	21:07:12	614078	5c0586b43199f4000153f133	4	1	DL_test	23	DL_test	19	stimuli_distractor_diamondtriangles.svg	stimuli_target_squaretriangles.svg	15	yes	da	1	948	6	4	antiphase_hc_sio.wav	1	6	4	noise_calib_stim_RIGHT.wav	2	32	blb_dichoticlistening_ta-da.mp3	ta	da	1	right
6.6.1	win	2023-07-08	20:56:53	21:07:12	614078	5c0586b43199f4000153f133	4	1	DL_test	23	DL_test	20	stimuli_distractor_diamondtriangles.svg	stimuli_target_squaretriangles.svg	15	yes	ga	1	867	6	4	antiphase_hc_sio.wav	1	6	4	noise_calib_stim_RIGHT.wav	2	15	blb_dichoticlistening_ga-ga.mp3	ga	ga	0	left
6.6.1	win	2023-07-08	20:56:53	21:07:12	614078	5c0586b43199f4000153f133	4	1	DL_test	23	DL_test	21	stimuli_distractor_diamondtriangles.svg	stimuli_target_squaretriangles.svg	15	yes	ga	0	569	6	4	antiphase_hc_sio.wav	1	6	4	noise_calib_stim_RIGHT.wav	2	8	blb_dichoticlistening_da-da.mp3	da	da	0	other
6.6.1	win	2023-07-08	20:56:53	21:07:12	614078	5c0586b43199f4000153f133	4	1	DL_test	23	DL_test	22	stimuli_distractor_diamondtriangles.svg	stimuli_target_squaretriangles.svg	15	yes	da	1	906	6	4	antiphase_hc_sio.wav	1	6	4	noise_calib_stim_RIGHT.wav	2	10	blb_dichoticlistening_da-ka.mp3	da	ka	1	left
6.6.1	win	2023-07-08	20:56:53	21:07:12	614078	5c0586b43199f4000153f133	4	1	DL_test	23	DL_test	23	stimuli_distractor_diamondtriangles.svg	stimuli_target_squaretriangles.svg	15	yes	ga	1	1104	6	4	antiphase_hc_sio.wav	1	6	4	noise_calib_stim_RIGHT.wav	2	27	blb_dichoticlistening_pa-ga.mp3	pa	ga	1	right
6.6.1	win	2023-07-08	20:56:53	21:07:12	614078	5c0586b43199f4000153f133	4	1	DL_test	23	DL_test	24	stimuli_distractor_diamondtriangles.svg	stimuli_target_squaretriangles.svg	15	yes	ka	1	719	6	4	antiphase_hc_sio.wav	1	6	4	noise_calib_stim_RIGHT.wav	2	23	blb_dichoticlistening_ka-pa.mp3	ka	pa	1	left
6.6.1	win	2023-07-08	20:56:53	21:07:12	614078	5c0586b43199f4000153f133	4	1	DL_test	23	DL_test	25	stimuli_distractor_diamondtriangles.svg	stimuli_target_squaretriangles.svg	15	yes	ta	1	1384	6	4	antiphase_hc_sio.wav	1	6	4	noise_calib_stim_RIGHT.wav	2	35	blb_dichoticlistening_ta-pa.mp3	ta	pa	1	left
6.6.1	win	2023-07-08	20:56:53	21:07:12	614078	5c0586b43199f4000153f133	4	1	DL_test	23	DL_test	26	stimuli_distractor_diamondtriangles.svg	stimuli_target_squaretriangles.svg	15	yes	pa	0	1501	6	4	antiphase_hc_sio.wav	1	6	4	noise_calib_stim_RIGHT.wav	2	2	blb_dichoticlistening_ba-da.mp3	ba	da	1	other
