build	computer.platform	date	time	timestamp	time_elapsed_ms	subject	group	session	blockcode	blocknum	trialcode	trialnum	stimulus_left	stimulus_right	stim_index	target_present	response	correct	latency	headphonecheck_countTestTrials	headphonecheck_index	headphonecheck_testSound	headphonecheck_correctResponse	stereocheck_countTestTrials	stereocheck_index	stereocheck_testSound	stereocheck_correctResponse	DL_index	DL_soundfile	DL_leftSound	DL_rightSound	DL_dualSound	DL_choice
6.6.1	win	2023-06-28	03:03:08	03:07:48	275955	62d68f14d9b476ca9b026253	3	1	practice_slash	5	practice_slash	1	stimuli_target_rectanglediamonds.svg	stimuli_distractor_trianglediamonds.svg	4	yes	0	0	2000	0	0			0	0			1				0	
6.6.1	win	2023-06-28	03:03:08	03:07:48	275955	62d68f14d9b476ca9b026253	3	1	practice_slash	5	advance_on_keypress_SLASH	2	stimuli_target_rectanglediamonds.svg	stimuli_distractor_trianglediamonds.svg	4	yes	57	0	2437	0	0			0	0			1				0	
6.6.1	win	2023-06-28	03:03:08	03:07:54	282044	62d68f14d9b476ca9b026253	3	1	practice_slash	5	practice_slash	3	stimuli_target_diamondsquares.svg	stimuli_distractor_diamondtriangles.svg	3	yes	0	0	2000	0	0			0	0			1				0	
6.6.1	win	2023-06-28	03:03:08	03:07:54	282044	62d68f14d9b476ca9b026253	3	1	practice_slash	5	advance_on_keypress_SLASH	4	stimuli_target_diamondsquares.svg	stimuli_distractor_diamondtriangles.svg	3	yes	57	0	2336	0	0			0	0			1				0	
6.6.1	win	2023-06-28	03:03:08	03:07:59	287319	62d68f14d9b476ca9b026253	3	1	practice_slash	5	practice_slash	5	stimuli_distractor_trianglediamonds.svg	stimuli_target_diamondrectangles.svg	12	yes	53	1	1285	0	0			0	0			1				0	
6.6.1	win	2023-06-28	03:03:08	03:07:59	287319	62d68f14d9b476ca9b026253	3	1	practice_slash	5	advance_on_keypress_SLASH	6	stimuli_distractor_trianglediamonds.svg	stimuli_target_diamondrectangles.svg	12	yes	57	0	1332	0	0			0	0			1				0	
6.6.1	win	2023-06-28	03:03:08	03:08:03	290700	62d68f14d9b476ca9b026253	3	1	practice_slash	5	practice_slash	7	stimuli_distractor_diamondtriangles.svg	stimuli_target_rectangletriangles.svg	7	yes	53	1	395	0	0			0	0			1				0	
6.6.1	win	2023-06-28	03:03:08	03:08:03	290700	62d68f14d9b476ca9b026253	3	1	practice_slash	5	advance_on_keypress_SLASH	8	stimuli_distractor_diamondtriangles.svg	stimuli_target_rectangletriangles.svg	7	yes	57	0	832	0	0			0	0			1				0	
6.6.1	win	2023-06-28	03:03:08	03:08:06	293856	62d68f14d9b476ca9b026253	3	1	practice_slash	5	practice_slash	9	stimuli_target_diamondsquares.svg	stimuli_distractor_trianglediamonds.svg	6	yes	53	1	682	0	0			0	0			1				0	
6.6.1	win	2023-06-28	03:03:08	03:08:06	293856	62d68f14d9b476ca9b026253	3	1	practice_slash	5	advance_on_keypress_SLASH	10	stimuli_target_diamondsquares.svg	stimuli_distractor_trianglediamonds.svg	6	yes	57	0	386	0	0			0	0			1				0	
6.6.1	win	2023-06-28	03:03:08	03:08:08	296413	62d68f14d9b476ca9b026253	3	1	practice_slash	5	practice_slash	11	stimuli_distractor_diamondtriangles.svg	stimuli_target_trianglerectangles.svg	9	yes	53	1	519	0	0			0	0			1				0	
6.6.1	win	2023-06-28	03:03:08	03:08:08	296413	62d68f14d9b476ca9b026253	3	1	practice_slash	5	advance_on_keypress_SLASH	12	stimuli_distractor_diamondtriangles.svg	stimuli_target_trianglerectangles.svg	9	yes	57	0	421	0	0			0	0			1				0	
6.6.1	win	2023-06-28	03:03:08	03:08:11	298864	62d68f14d9b476ca9b026253	3	1	practice_slash	5	practice_slash	13	stimuli_distractor_trianglediamonds.svg	stimuli_target_rectanglediamonds.svg	10	yes	53	1	379	0	0			0	0			1				0	
6.6.1	win	2023-06-28	03:03:08	03:08:11	298864	62d68f14d9b476ca9b026253	3	1	practice_slash	5	advance_on_keypress_SLASH	14	stimuli_distractor_trianglediamonds.svg	stimuli_target_rectanglediamonds.svg	10	yes	57	0	396	0	0			0	0			1				0	
6.6.1	win	2023-06-28	03:03:08	03:08:13	301278	62d68f14d9b476ca9b026253	3	1	practice_slash	5	practice_slash	15	stimuli_target_squarediamonds.svg	stimuli_distractor_diamondtriangles.svg	2	yes	53	1	363	0	0			0	0			1				0	
6.6.1	win	2023-06-28	03:03:08	03:08:13	301278	62d68f14d9b476ca9b026253	3	1	practice_slash	5	advance_on_keypress_SLASH	16	stimuli_target_squarediamonds.svg	stimuli_distractor_diamondtriangles.svg	2	yes	57	0	272	0	0			0	0			1				0	
6.6.1	win	2023-06-28	03:03:08	03:08:15	303516	62d68f14d9b476ca9b026253	3	1	practice_slash	5	practice_slash	17	stimuli_target_rectanglediamonds.svg	stimuli_distractor_diamondtriangles.svg	1	yes	53	1	333	0	0			0	0			1				0	
6.6.1	win	2023-06-28	03:03:08	03:08:15	303516	62d68f14d9b476ca9b026253	3	1	practice_slash	5	advance_on_keypress_SLASH	18	stimuli_target_rectanglediamonds.svg	stimuli_distractor_diamondtriangles.svg	1	yes	57	0	285	0	0			0	0			1				0	
6.6.1	win	2023-06-28	03:03:08	03:08:18	305848	62d68f14d9b476ca9b026253	3	1	practice_slash	5	practice_slash	19	stimuli_distractor_trianglediamonds.svg	stimuli_target_squarediamonds.svg	11	yes	53	1	395	0	0			0	0			1				0	
6.6.1	win	2023-06-28	03:03:08	03:08:18	305848	62d68f14d9b476ca9b026253	3	1	practice_slash	5	advance_on_keypress_SLASH	20	stimuli_distractor_trianglediamonds.svg	stimuli_target_squarediamonds.svg	11	yes	57	0	302	0	0			0	0			1				0	
6.6.1	win	2023-06-28	03:03:08	03:08:20	308338	62d68f14d9b476ca9b026253	3	1	practice_slash	5	practice_slash	21	stimuli_distractor_trianglediamonds.svg	stimuli_distractor_trianglediamonds.svg	15	no	53	0	549	0	0			0	0			1				0	
6.6.1	win	2023-06-28	03:03:08	03:08:20	308338	62d68f14d9b476ca9b026253	3	1	practice_slash	5	advance_on_keypress_SLASH	22	stimuli_distractor_trianglediamonds.svg	stimuli_distractor_trianglediamonds.svg	15	no	57	0	417	0	0			0	0			1				0	
6.6.1	win	2023-06-28	03:03:08	03:08:24	312408	62d68f14d9b476ca9b026253	3	1	practice_slash	5	practice_slash	23	stimuli_distractor_diamondtriangles.svg	stimuli_target_diamondrectangles.svg	8	yes	0	0	2000	0	0			0	0			1				0	
6.6.1	win	2023-06-28	03:03:08	03:08:24	312408	62d68f14d9b476ca9b026253	3	1	practice_slash	5	advance_on_keypress_SLASH	24	stimuli_distractor_diamondtriangles.svg	stimuli_target_diamondrectangles.svg	8	yes	57	0	544	0	0			0	0			1				0	
6.6.1	win	2023-06-28	03:03:08	03:08:28	316596	62d68f14d9b476ca9b026253	3	1	practice_slash	5	practice_slash	25	stimuli_distractor_diamondtriangles.svg	stimuli_distractor_diamondtriangles.svg	13	no	0	1	2000	0	0			0	0			1				0	
6.6.1	win	2023-06-28	03:03:08	03:08:28	316596	62d68f14d9b476ca9b026253	3	1	practice_slash	5	advance_on_keypress_SLASH	26	stimuli_distractor_diamondtriangles.svg	stimuli_distractor_diamondtriangles.svg	13	no	57	0	2308	0	0			0	0			1				0	
6.6.1	win	2023-06-28	03:03:08	03:08:33	320976	62d68f14d9b476ca9b026253	3	1	practice_slash	5	practice_slash	27	stimuli_target_squarediamonds.svg	stimuli_distractor_trianglediamonds.svg	5	yes	53	1	424	0	0			0	0			1				0	
6.6.1	win	2023-06-28	03:03:08	03:08:33	320976	62d68f14d9b476ca9b026253	3	1	practice_slash	5	advance_on_keypress_SLASH	28	stimuli_target_squarediamonds.svg	stimuli_distractor_trianglediamonds.svg	5	yes	57	0	655	0	0			0	0			1				0	
6.6.1	win	2023-06-28	03:03:08	03:08:37	325271	62d68f14d9b476ca9b026253	3	1	practice_slash	5	practice_slash	29	stimuli_distractor_diamondtriangles.svg	stimuli_distractor_trianglediamonds.svg	14	no	0	1	2000	0	0			0	0			1				0	
6.6.1	win	2023-06-28	03:03:08	03:08:37	325271	62d68f14d9b476ca9b026253	3	1	practice_slash	5	advance_on_keypress_SLASH	30	stimuli_distractor_diamondtriangles.svg	stimuli_distractor_trianglediamonds.svg	14	no	57	0	453	0	0			0	0			1				0	
6.6.1	win	2023-06-28	03:03:08	03:08:41	329375	62d68f14d9b476ca9b026253	3	1	practice_slash	5	practice_slash	31	stimuli_distractor_trianglediamonds.svg	stimuli_distractor_diamondtriangles.svg	16	no	0	1	2000	0	0			0	0			1				0	
6.6.1	win	2023-06-28	03:03:08	03:08:41	329375	62d68f14d9b476ca9b026253	3	1	practice_slash	5	advance_on_keypress_SLASH	32	stimuli_distractor_trianglediamonds.svg	stimuli_distractor_diamondtriangles.svg	16	no	57	0	326	0	0			0	0			1				0	
6.6.1	win	2023-06-28	03:03:08	03:08:49	336916	62d68f14d9b476ca9b026253	3	1	main_slash	7	main_slash	1	stimuli_distractor_diamondtriangles.svg	stimuli_distractor_diamondtriangles.svg	40	no	0	1	2000	0	0			0	0			1				0	
6.6.1	win	2023-06-28	03:03:08	03:08:49	336916	62d68f14d9b476ca9b026253	3	1	main_slash	7	advance_on_keypress_SLASH	2	stimuli_distractor_diamondtriangles.svg	stimuli_distractor_diamondtriangles.svg	40	no	57	0	1978	0	0			0	0			1				0	
6.6.1	win	2023-06-28	03:03:08	03:08:53	341537	62d68f14d9b476ca9b026253	3	1	main_slash	7	main_slash	3	stimuli_distractor_trianglediamonds.svg	stimuli_target_diamondsquares.svg	28	yes	0	0	2000	0	0			0	0			1				0	
6.6.1	win	2023-06-28	03:03:08	03:08:53	341537	62d68f14d9b476ca9b026253	3	1	main_slash	7	advance_on_keypress_SLASH	4	stimuli_distractor_trianglediamonds.svg	stimuli_target_diamondsquares.svg	28	yes	57	0	491	0	0			0	0			1				0	
6.6.1	win	2023-06-28	03:03:08	03:08:55	343029	62d68f14d9b476ca9b026253	3	1	main_slash	7	main_slash	5	stimuli_target_squaretriangles.svg	stimuli_distractor_trianglediamonds.svg	3	yes	53	1	356	0	0			0	0			1				0	
6.6.1	win	2023-06-28	03:03:08	03:08:55	343029	62d68f14d9b476ca9b026253	3	1	main_slash	7	advance_on_keypress_SLASH	6	stimuli_target_squaretriangles.svg	stimuli_distractor_trianglediamonds.svg	3	yes	57	0	1028	0	0			0	0			1				0	
6.6.1	win	2023-06-28	03:03:08	03:08:59	346692	62d68f14d9b476ca9b026253	3	1	main_slash	7	main_slash	7	stimuli_distractor_trianglediamonds.svg	stimuli_distractor_trianglediamonds.svg	33	no	0	1	2000	0	0			0	0			1				0	
6.6.1	win	2023-06-28	03:03:08	03:08:59	346692	62d68f14d9b476ca9b026253	3	1	main_slash	7	advance_on_keypress_SLASH	8	stimuli_distractor_trianglediamonds.svg	stimuli_distractor_trianglediamonds.svg	33	no	57	0	449	0	0			0	0			1				0	
6.6.1	win	2023-06-28	03:03:08	03:09:02	349795	62d68f14d9b476ca9b026253	3	1	main_slash	7	main_slash	9	stimuli_distractor_diamondtriangles.svg	stimuli_distractor_trianglediamonds.svg	38	no	0	1	2000	0	0			0	0			1				0	
6.6.1	win	2023-06-28	03:03:08	03:09:02	349795	62d68f14d9b476ca9b026253	3	1	main_slash	7	advance_on_keypress_SLASH	10	stimuli_distractor_diamondtriangles.svg	stimuli_distractor_trianglediamonds.svg	38	no	57	0	384	0	0			0	0			1				0	
6.6.1	win	2023-06-28	03:03:08	03:09:03	351305	62d68f14d9b476ca9b026253	3	1	main_slash	7	main_slash	11	stimuli_distractor_diamondtriangles.svg	stimuli_target_rectanglediamonds.svg	14	yes	53	1	474	0	0			0	0			1				0	
6.6.1	win	2023-06-28	03:03:08	03:09:03	351305	62d68f14d9b476ca9b026253	3	1	main_slash	7	advance_on_keypress_SLASH	12	stimuli_distractor_diamondtriangles.svg	stimuli_target_rectanglediamonds.svg	14	yes	57	0	689	0	0			0	0			1				0	
6.6.1	win	2023-06-28	03:03:08	03:09:07	354634	62d68f14d9b476ca9b026253	3	1	main_slash	7	main_slash	13	stimuli_target_trianglerectangles.svg	stimuli_distractor_diamondtriangles.svg	21	yes	0	0	2000	0	0			0	0			1				0	
6.6.1	win	2023-06-28	03:03:08	03:09:07	354634	62d68f14d9b476ca9b026253	3	1	main_slash	7	advance_on_keypress_SLASH	14	stimuli_target_trianglerectangles.svg	stimuli_distractor_diamondtriangles.svg	21	yes	57	0	564	0	0			0	0			1				0	
6.6.1	win	2023-06-28	03:03:08	03:09:10	357837	62d68f14d9b476ca9b026253	3	1	main_slash	7	main_slash	15	stimuli_target_diamondsquares.svg	stimuli_distractor_trianglediamonds.svg	20	yes	0	0	2000	0	0			0	0			1				0	
6.6.1	win	2023-06-28	03:03:08	03:09:10	357837	62d68f14d9b476ca9b026253	3	1	main_slash	7	advance_on_keypress_SLASH	16	stimuli_target_diamondsquares.svg	stimuli_distractor_trianglediamonds.svg	20	yes	57	0	302	0	0			0	0			1				0	
6.6.1	win	2023-06-28	03:03:08	03:09:11	359321	62d68f14d9b476ca9b026253	3	1	main_slash	7	main_slash	17	stimuli_distractor_trianglediamonds.svg	stimuli_target_rectangletriangles.svg	9	yes	53	1	531	0	0			0	0			1				0	
6.6.1	win	2023-06-28	03:03:08	03:09:11	359321	62d68f14d9b476ca9b026253	3	1	main_slash	7	advance_on_keypress_SLASH	18	stimuli_distractor_trianglediamonds.svg	stimuli_target_rectangletriangles.svg	9	yes	57	0	625	0	0			0	0			1				0	
6.6.1	win	2023-06-28	03:03:08	03:09:14	362575	62d68f14d9b476ca9b026253	3	1	main_slash	7	main_slash	19	stimuli_distractor_diamondtriangles.svg	stimuli_distractor_diamondtriangles.svg	39	no	0	1	2000	0	0			0	0			1				0	
6.6.1	win	2023-06-28	03:03:08	03:09:14	362575	62d68f14d9b476ca9b026253	3	1	main_slash	7	advance_on_keypress_SLASH	20	stimuli_distractor_diamondtriangles.svg	stimuli_distractor_diamondtriangles.svg	39	no	57	0	478	0	0			0	0			1				0	
6.6.1	win	2023-06-28	03:03:08	03:09:17	364801	62d68f14d9b476ca9b026253	3	1	main_slash	7	main_slash	21	stimuli_distractor_trianglediamonds.svg	stimuli_target_trianglesquares.svg	26	yes	53	1	1106	0	0			0	0			1				0	
6.6.1	win	2023-06-28	03:03:08	03:09:17	364801	62d68f14d9b476ca9b026253	3	1	main_slash	7	advance_on_keypress_SLASH	22	stimuli_distractor_trianglediamonds.svg	stimuli_target_trianglesquares.svg	26	yes	57	0	574	0	0			0	0			1				0	
6.6.1	win	2023-06-28	03:03:08	03:09:20	368014	62d68f14d9b476ca9b026253	3	1	main_slash	7	main_slash	23	stimuli_target_trianglesquares.svg	stimuli_distractor_diamondtriangles.svg	22	yes	0	0	2000	0	0			0	0			1				0	
6.6.1	win	2023-06-28	03:03:08	03:09:20	368014	62d68f14d9b476ca9b026253	3	1	main_slash	7	advance_on_keypress_SLASH	24	stimuli_target_trianglesquares.svg	stimuli_distractor_diamondtriangles.svg	22	yes	57	0	388	0	0			0	0			1				0	
6.6.1	win	2023-06-28	03:03:08	03:09:22	370030	62d68f14d9b476ca9b026253	3	1	main_slash	7	main_slash	25	stimuli_target_trianglerectangles.svg	stimuli_distractor_trianglediamonds.svg	17	yes	53	1	980	0	0			0	0			1				0	
6.6.1	win	2023-06-28	03:03:08	03:09:22	370030	62d68f14d9b476ca9b026253	3	1	main_slash	7	advance_on_keypress_SLASH	26	stimuli_target_trianglerectangles.svg	stimuli_distractor_trianglediamonds.svg	17	yes	57	0	559	0	0			0	0			1				0	
6.6.1	win	2023-06-28	03:03:08	03:09:24	371695	62d68f14d9b476ca9b026253	3	1	main_slash	7	main_slash	27	stimuli_distractor_trianglediamonds.svg	stimuli_target_squarediamonds.svg	12	yes	53	1	477	0	0			0	0			1				0	
6.6.1	win	2023-06-28	03:03:08	03:09:24	371695	62d68f14d9b476ca9b026253	3	1	main_slash	7	advance_on_keypress_SLASH	28	stimuli_distractor_trianglediamonds.svg	stimuli_target_squarediamonds.svg	12	yes	57	0	534	0	0			0	0			1				0	
6.6.1	win	2023-06-28	03:03:08	03:09:26	373750	62d68f14d9b476ca9b026253	3	1	main_slash	7	main_slash	29	stimuli_target_diamondrectangles.svg	stimuli_distractor_trianglediamonds.svg	19	yes	53	1	879	0	0			0	0			1				0	
6.6.1	win	2023-06-28	03:03:08	03:09:26	373750	62d68f14d9b476ca9b026253	3	1	main_slash	7	advance_on_keypress_SLASH	30	stimuli_target_diamondrectangles.svg	stimuli_distractor_trianglediamonds.svg	19	yes	57	0	474	0	0			0	0			1				0	
6.6.1	win	2023-06-28	03:03:08	03:09:29	376856	62d68f14d9b476ca9b026253	3	1	main_slash	7	main_slash	31	stimuli_distractor_diamondtriangles.svg	stimuli_target_diamondrectangles.svg	31	yes	0	0	2000	0	0			0	0			1				0	
6.6.1	win	2023-06-28	03:03:08	03:09:29	376856	62d68f14d9b476ca9b026253	3	1	main_slash	7	advance_on_keypress_SLASH	32	stimuli_distractor_diamondtriangles.svg	stimuli_target_diamondrectangles.svg	31	yes	57	0	328	0	0			0	0			1				0	
6.6.1	win	2023-06-28	03:03:08	03:09:30	378405	62d68f14d9b476ca9b026253	3	1	main_slash	7	main_slash	33	stimuli_distractor_diamondtriangles.svg	stimuli_target_squaretriangles.svg	15	yes	53	1	580	0	0			0	0			1				0	
6.6.1	win	2023-06-28	03:03:08	03:09:30	378405	62d68f14d9b476ca9b026253	3	1	main_slash	7	advance_on_keypress_SLASH	34	stimuli_distractor_diamondtriangles.svg	stimuli_target_squaretriangles.svg	15	yes	57	0	476	0	0			0	0			1				0	
6.6.1	win	2023-06-28	03:03:08	03:09:33	381510	62d68f14d9b476ca9b026253	3	1	main_slash	7	main_slash	35	stimuli_distractor_trianglediamonds.svg	stimuli_distractor_diamondtriangles.svg	36	no	0	1	2000	0	0			0	0			1				0	
6.6.1	win	2023-06-28	03:03:08	03:09:33	381510	62d68f14d9b476ca9b026253	3	1	main_slash	7	advance_on_keypress_SLASH	36	stimuli_distractor_trianglediamonds.svg	stimuli_distractor_diamondtriangles.svg	36	no	57	0	307	0	0			0	0			1				0	
6.6.1	win	2023-06-28	03:03:08	03:09:36	384463	62d68f14d9b476ca9b026253	3	1	main_slash	7	main_slash	37	stimuli_distractor_diamondtriangles.svg	stimuli_distractor_trianglediamonds.svg	37	no	0	1	2000	0	0			0	0			1				0	
6.6.1	win	2023-06-28	03:03:08	03:09:36	384463	62d68f14d9b476ca9b026253	3	1	main_slash	7	advance_on_keypress_SLASH	38	stimuli_distractor_diamondtriangles.svg	stimuli_distractor_trianglediamonds.svg	37	no	57	0	357	0	0			0	0			1				0	
6.6.1	win	2023-06-28	03:03:08	03:09:38	386179	62d68f14d9b476ca9b026253	3	1	main_slash	7	main_slash	39	stimuli_distractor_diamondtriangles.svg	stimuli_target_trianglesquares.svg	30	yes	53	1	713	0	0			0	0			1				0	
6.6.1	win	2023-06-28	03:03:08	03:09:38	386179	62d68f14d9b476ca9b026253	3	1	main_slash	7	advance_on_keypress_SLASH	40	stimuli_distractor_diamondtriangles.svg	stimuli_target_trianglesquares.svg	30	yes	57	0	492	0	0			0	0			1				0	
6.6.1	win	2023-06-28	03:03:08	03:09:40	387819	62d68f14d9b476ca9b026253	3	1	main_slash	7	main_slash	41	stimuli_distractor_diamondtriangles.svg	stimuli_target_squarediamonds.svg	16	yes	53	1	512	0	0			0	0			1				0	
6.6.1	win	2023-06-28	03:03:08	03:09:40	387819	62d68f14d9b476ca9b026253	3	1	main_slash	7	advance_on_keypress_SLASH	42	stimuli_distractor_diamondtriangles.svg	stimuli_target_squarediamonds.svg	16	yes	57	0	525	0	0			0	0			1				0	
6.6.1	win	2023-06-28	03:03:08	03:09:41	389524	62d68f14d9b476ca9b026253	3	1	main_slash	7	main_slash	43	stimuli_distractor_diamondtriangles.svg	stimuli_target_rectangletriangles.svg	13	yes	53	1	538	0	0			0	0			1				0	
6.6.1	win	2023-06-28	03:03:08	03:09:41	389524	62d68f14d9b476ca9b026253	3	1	main_slash	7	advance_on_keypress_SLASH	44	stimuli_distractor_diamondtriangles.svg	stimuli_target_rectangletriangles.svg	13	yes	57	0	427	0	0			0	0			1				0	
6.6.1	win	2023-06-28	03:03:08	03:09:43	391511	62d68f14d9b476ca9b026253	3	1	main_slash	7	main_slash	45	stimuli_target_rectangletriangles.svg	stimuli_distractor_trianglediamonds.svg	1	yes	53	1	923	0	0			0	0			1				0	
6.6.1	win	2023-06-28	03:03:08	03:09:43	391511	62d68f14d9b476ca9b026253	3	1	main_slash	7	advance_on_keypress_SLASH	46	stimuli_target_rectangletriangles.svg	stimuli_distractor_trianglediamonds.svg	1	yes	57	0	521	0	0			0	0			1				0	
6.6.1	win	2023-06-28	03:03:08	03:09:47	394674	62d68f14d9b476ca9b026253	3	1	main_slash	7	main_slash	47	stimuli_target_diamondrectangles.svg	stimuli_distractor_diamondtriangles.svg	23	yes	0	0	2000	0	0			0	0			1				0	
6.6.1	win	2023-06-28	03:03:08	03:09:47	394674	62d68f14d9b476ca9b026253	3	1	main_slash	7	advance_on_keypress_SLASH	48	stimuli_target_diamondrectangles.svg	stimuli_distractor_diamondtriangles.svg	23	yes	57	0	354	0	0			0	0			1				0	
6.6.1	win	2023-06-28	03:03:08	03:09:48	396343	62d68f14d9b476ca9b026253	3	1	main_slash	7	main_slash	49	stimuli_distractor_diamondtriangles.svg	stimuli_target_trianglerectangles.svg	29	yes	53	1	667	0	0			0	0			1				0	
6.6.1	win	2023-06-28	03:03:08	03:09:48	396343	62d68f14d9b476ca9b026253	3	1	main_slash	7	advance_on_keypress_SLASH	50	stimuli_distractor_diamondtriangles.svg	stimuli_target_trianglerectangles.svg	29	yes	57	0	356	0	0			0	0			1				0	
6.6.1	win	2023-06-28	03:03:08	03:09:50	397744	62d68f14d9b476ca9b026253	3	1	main_slash	7	main_slash	51	stimuli_distractor_trianglediamonds.svg	stimuli_target_squaretriangles.svg	11	yes	53	1	400	0	0			0	0			1				0	
6.6.1	win	2023-06-28	03:03:08	03:09:50	397744	62d68f14d9b476ca9b026253	3	1	main_slash	7	advance_on_keypress_SLASH	52	stimuli_distractor_trianglediamonds.svg	stimuli_target_squaretriangles.svg	11	yes	57	0	356	0	0			0	0			1				0	
6.6.1	win	2023-06-28	03:03:08	03:09:51	399220	62d68f14d9b476ca9b026253	3	1	main_slash	7	main_slash	53	stimuli_target_squarediamonds.svg	stimuli_distractor_diamondtriangles.svg	8	yes	53	1	473	0	0			0	0			1				0	
6.6.1	win	2023-06-28	03:03:08	03:09:51	399220	62d68f14d9b476ca9b026253	3	1	main_slash	7	advance_on_keypress_SLASH	54	stimuli_target_squarediamonds.svg	stimuli_distractor_diamondtriangles.svg	8	yes	57	0	363	0	0			0	0			1				0	
6.6.1	win	2023-06-28	03:03:08	03:09:53	401265	62d68f14d9b476ca9b026253	3	1	main_slash	7	main_slash	55	stimuli_target_trianglesquares.svg	stimuli_distractor_trianglediamonds.svg	18	yes	53	1	1050	0	0			0	0			1				0	
6.6.1	win	2023-06-28	03:03:08	03:09:53	401265	62d68f14d9b476ca9b026253	3	1	main_slash	7	advance_on_keypress_SLASH	56	stimuli_target_trianglesquares.svg	stimuli_distractor_trianglediamonds.svg	18	yes	57	0	365	0	0			0	0			1				0	
6.6.1	win	2023-06-28	03:03:08	03:09:55	402687	62d68f14d9b476ca9b026253	3	1	main_slash	7	main_slash	57	stimuli_distractor_trianglediamonds.svg	stimuli_target_rectanglediamonds.svg	10	yes	53	1	404	0	0			0	0			1				0	
6.6.1	win	2023-06-28	03:03:08	03:09:55	402687	62d68f14d9b476ca9b026253	3	1	main_slash	7	advance_on_keypress_SLASH	58	stimuli_distractor_trianglediamonds.svg	stimuli_target_rectanglediamonds.svg	10	yes	57	0	325	0	0			0	0			1				0	
6.6.1	win	2023-06-28	03:03:08	03:09:56	404587	62d68f14d9b476ca9b026253	3	1	main_slash	7	main_slash	59	stimuli_target_squaretriangles.svg	stimuli_distractor_diamondtriangles.svg	7	yes	53	1	935	0	0			0	0			1				0	
6.6.1	win	2023-06-28	03:03:08	03:09:56	404587	62d68f14d9b476ca9b026253	3	1	main_slash	7	advance_on_keypress_SLASH	60	stimuli_target_squaretriangles.svg	stimuli_distractor_diamondtriangles.svg	7	yes	57	0	283	0	0			0	0			1				0	
6.6.1	win	2023-06-28	03:03:08	03:09:59	407520	62d68f14d9b476ca9b026253	3	1	main_slash	7	main_slash	61	stimuli_distractor_trianglediamonds.svg	stimuli_distractor_trianglediamonds.svg	34	no	0	1	2000	0	0			0	0			1				0	
6.6.1	win	2023-06-28	03:03:08	03:09:59	407520	62d68f14d9b476ca9b026253	3	1	main_slash	7	advance_on_keypress_SLASH	62	stimuli_distractor_trianglediamonds.svg	stimuli_distractor_trianglediamonds.svg	34	no	57	0	367	0	0			0	0			1				0	
6.6.1	win	2023-06-28	03:03:08	03:10:01	409021	62d68f14d9b476ca9b026253	3	1	main_slash	7	main_slash	63	stimuli_target_squarediamonds.svg	stimuli_distractor_trianglediamonds.svg	4	yes	53	1	482	0	0			0	0			1				0	
6.6.1	win	2023-06-28	03:03:08	03:10:01	409021	62d68f14d9b476ca9b026253	3	1	main_slash	7	advance_on_keypress_SLASH	64	stimuli_target_squarediamonds.svg	stimuli_distractor_trianglediamonds.svg	4	yes	57	0	275	0	0			0	0			1				0	
6.6.1	win	2023-06-28	03:03:08	03:10:02	410492	62d68f14d9b476ca9b026253	3	1	main_slash	7	main_slash	65	stimuli_target_rectangletriangles.svg	stimuli_distractor_diamondtriangles.svg	5	yes	53	1	552	0	0			0	0			1				0	
6.6.1	win	2023-06-28	03:03:08	03:10:02	410492	62d68f14d9b476ca9b026253	3	1	main_slash	7	advance_on_keypress_SLASH	66	stimuli_target_rectangletriangles.svg	stimuli_distractor_diamondtriangles.svg	5	yes	57	0	291	0	0			0	0			1				0	
6.6.1	win	2023-06-28	03:03:08	03:10:04	412307	62d68f14d9b476ca9b026253	3	1	main_slash	7	main_slash	67	stimuli_distractor_trianglediamonds.svg	stimuli_target_diamondrectangles.svg	27	yes	53	1	882	0	0			0	0			1				0	
6.6.1	win	2023-06-28	03:03:08	03:10:04	412307	62d68f14d9b476ca9b026253	3	1	main_slash	7	advance_on_keypress_SLASH	68	stimuli_distractor_trianglediamonds.svg	stimuli_target_diamondrectangles.svg	27	yes	57	0	325	0	0			0	0			1				0	
6.6.1	win	2023-06-28	03:03:08	03:10:06	413816	62d68f14d9b476ca9b026253	3	1	main_slash	7	main_slash	69	stimuli_target_rectanglediamonds.svg	stimuli_distractor_diamondtriangles.svg	6	yes	53	1	556	0	0			0	0			1				0	
6.6.1	win	2023-06-28	03:03:08	03:10:06	413816	62d68f14d9b476ca9b026253	3	1	main_slash	7	advance_on_keypress_SLASH	70	stimuli_target_rectanglediamonds.svg	stimuli_distractor_diamondtriangles.svg	6	yes	57	0	318	0	0			0	0			1				0	
6.6.1	win	2023-06-28	03:03:08	03:10:09	416779	62d68f14d9b476ca9b026253	3	1	main_slash	7	main_slash	71	stimuli_distractor_trianglediamonds.svg	stimuli_distractor_diamondtriangles.svg	35	no	0	1	2000	0	0			0	0			1				0	
6.6.1	win	2023-06-28	03:03:08	03:10:09	416779	62d68f14d9b476ca9b026253	3	1	main_slash	7	advance_on_keypress_SLASH	72	stimuli_distractor_trianglediamonds.svg	stimuli_distractor_diamondtriangles.svg	35	no	57	0	289	0	0			0	0			1				0	
6.6.1	win	2023-06-28	03:03:08	03:10:10	418079	62d68f14d9b476ca9b026253	3	1	main_slash	7	main_slash	73	stimuli_target_rectanglediamonds.svg	stimuli_distractor_trianglediamonds.svg	2	yes	53	1	363	0	0			0	0			1				0	
6.6.1	win	2023-06-28	03:03:08	03:10:10	418079	62d68f14d9b476ca9b026253	3	1	main_slash	7	advance_on_keypress_SLASH	74	stimuli_target_rectanglediamonds.svg	stimuli_distractor_trianglediamonds.svg	2	yes	57	0	268	0	0			0	0			1				0	
6.6.1	win	2023-06-28	03:03:08	03:10:13	420983	62d68f14d9b476ca9b026253	3	1	main_slash	7	main_slash	75	stimuli_distractor_trianglediamonds.svg	stimuli_target_trianglerectangles.svg	25	yes	0	0	2000	0	0			0	0			1				0	
6.6.1	win	2023-06-28	03:03:08	03:10:13	420983	62d68f14d9b476ca9b026253	3	1	main_slash	7	advance_on_keypress_SLASH	76	stimuli_distractor_trianglediamonds.svg	stimuli_target_trianglerectangles.svg	25	yes	57	0	405	0	0			0	0			1				0	
6.6.1	win	2023-06-28	03:03:08	03:10:16	424036	62d68f14d9b476ca9b026253	3	1	main_slash	7	main_slash	77	stimuli_target_diamondsquares.svg	stimuli_distractor_diamondtriangles.svg	24	yes	0	0	2000	0	0			0	0			1				0	
6.6.1	win	2023-06-28	03:03:08	03:10:16	424036	62d68f14d9b476ca9b026253	3	1	main_slash	7	advance_on_keypress_SLASH	78	stimuli_target_diamondsquares.svg	stimuli_distractor_diamondtriangles.svg	24	yes	57	0	263	0	0			0	0			1				0	
6.6.1	win	2023-06-28	03:03:08	03:10:18	425698	62d68f14d9b476ca9b026253	3	1	main_slash	7	main_slash	79	stimuli_distractor_diamondtriangles.svg	stimuli_target_diamondsquares.svg	32	yes	53	1	759	0	0			0	0			1				0	
6.6.1	win	2023-06-28	03:03:08	03:10:18	425698	62d68f14d9b476ca9b026253	3	1	main_slash	7	advance_on_keypress_SLASH	80	stimuli_distractor_diamondtriangles.svg	stimuli_target_diamondsquares.svg	32	yes	57	0	215	0	0			0	0			1				0	
6.6.1	win	2023-06-28	03:03:08	03:10:20	428558	62d68f14d9b476ca9b026253	3	1	main_slash	7	main_slash	81	stimuli_distractor_trianglediamonds.svg	stimuli_distractor_diamondtriangles.svg	35	no	0	1	2000	0	0			0	0			1				0	
6.6.1	win	2023-06-28	03:03:08	03:10:20	428558	62d68f14d9b476ca9b026253	3	1	main_slash	7	advance_on_keypress_SLASH	82	stimuli_distractor_trianglediamonds.svg	stimuli_distractor_diamondtriangles.svg	35	no	57	0	486	0	0			0	0			1				0	
6.6.1	win	2023-06-28	03:03:08	03:10:22	430078	62d68f14d9b476ca9b026253	3	1	main_slash	7	main_slash	83	stimuli_target_squarediamonds.svg	stimuli_distractor_diamondtriangles.svg	8	yes	53	1	369	0	0			0	0			1				0	
6.6.1	win	2023-06-28	03:03:08	03:10:22	430078	62d68f14d9b476ca9b026253	3	1	main_slash	7	advance_on_keypress_SLASH	84	stimuli_target_squarediamonds.svg	stimuli_distractor_diamondtriangles.svg	8	yes	57	0	368	0	0			0	0			1				0	
6.6.1	win	2023-06-28	03:03:08	03:10:24	431683	62d68f14d9b476ca9b026253	3	1	main_slash	7	main_slash	85	stimuli_distractor_diamondtriangles.svg	stimuli_target_trianglesquares.svg	30	yes	53	1	587	0	0			0	0			1				0	
6.6.1	win	2023-06-28	03:03:08	03:10:24	431683	62d68f14d9b476ca9b026253	3	1	main_slash	7	advance_on_keypress_SLASH	86	stimuli_distractor_diamondtriangles.svg	stimuli_target_trianglesquares.svg	30	yes	57	0	268	0	0			0	0			1				0	
6.6.1	win	2023-06-28	03:03:08	03:10:25	433205	62d68f14d9b476ca9b026253	3	1	main_slash	7	main_slash	87	stimuli_target_rectanglediamonds.svg	stimuli_distractor_trianglediamonds.svg	2	yes	53	1	608	0	0			0	0			1				0	
6.6.1	win	2023-06-28	03:03:08	03:10:25	433205	62d68f14d9b476ca9b026253	3	1	main_slash	7	advance_on_keypress_SLASH	88	stimuli_target_rectanglediamonds.svg	stimuli_distractor_trianglediamonds.svg	2	yes	57	0	496	0	0			0	0			1				0	
6.6.1	win	2023-06-28	03:03:08	03:10:28	436332	62d68f14d9b476ca9b026253	3	1	main_slash	7	main_slash	89	stimuli_target_diamondrectangles.svg	stimuli_distractor_trianglediamonds.svg	19	yes	0	0	2000	0	0			0	0			1				0	
6.6.1	win	2023-06-28	03:03:08	03:10:28	436332	62d68f14d9b476ca9b026253	3	1	main_slash	7	advance_on_keypress_SLASH	90	stimuli_target_diamondrectangles.svg	stimuli_distractor_trianglediamonds.svg	19	yes	57	0	366	0	0			0	0			1				0	
6.6.1	win	2023-06-28	03:03:08	03:10:29	437524	62d68f14d9b476ca9b026253	3	1	main_slash	7	main_slash	91	stimuli_target_rectangletriangles.svg	stimuli_distractor_diamondtriangles.svg	5	yes	53	1	173	0	0			0	0			1				0	
6.6.1	win	2023-06-28	03:03:08	03:10:29	437524	62d68f14d9b476ca9b026253	3	1	main_slash	7	advance_on_keypress_SLASH	92	stimuli_target_rectangletriangles.svg	stimuli_distractor_diamondtriangles.svg	5	yes	57	0	592	0	0			0	0			1				0	
6.6.1	win	2023-06-28	03:03:08	03:10:32	439652	62d68f14d9b476ca9b026253	3	1	main_slash	7	main_slash	93	stimuli_distractor_diamondtriangles.svg	stimuli_target_diamondrectangles.svg	31	yes	53	1	900	0	0			0	0			1				0	
6.6.1	win	2023-06-28	03:03:08	03:10:32	439652	62d68f14d9b476ca9b026253	3	1	main_slash	7	advance_on_keypress_SLASH	94	stimuli_distractor_diamondtriangles.svg	stimuli_target_diamondrectangles.svg	31	yes	57	0	218	0	0			0	0			1				0	
6.6.1	win	2023-06-28	03:03:08	03:10:33	440885	62d68f14d9b476ca9b026253	3	1	main_slash	7	main_slash	95	stimuli_target_squaretriangles.svg	stimuli_distractor_trianglediamonds.svg	3	yes	53	1	363	0	0			0	0			1				0	
6.6.1	win	2023-06-28	03:03:08	03:10:33	440885	62d68f14d9b476ca9b026253	3	1	main_slash	7	advance_on_keypress_SLASH	96	stimuli_target_squaretriangles.svg	stimuli_distractor_trianglediamonds.svg	3	yes	57	0	326	0	0			0	0			1				0	
6.6.1	win	2023-06-28	03:03:08	03:10:34	442357	62d68f14d9b476ca9b026253	3	1	main_slash	7	main_slash	97	stimuli_distractor_trianglediamonds.svg	stimuli_target_trianglerectangles.svg	25	yes	53	1	504	0	0			0	0			1				0	
6.6.1	win	2023-06-28	03:03:08	03:10:34	442357	62d68f14d9b476ca9b026253	3	1	main_slash	7	advance_on_keypress_SLASH	98	stimuli_distractor_trianglediamonds.svg	stimuli_target_trianglerectangles.svg	25	yes	57	0	317	0	0			0	0			1				0	
6.6.1	win	2023-06-28	03:03:08	03:10:37	445324	62d68f14d9b476ca9b026253	3	1	main_slash	7	main_slash	99	stimuli_target_trianglesquares.svg	stimuli_distractor_trianglediamonds.svg	18	yes	0	0	2000	0	0			0	0			1				0	
6.6.1	win	2023-06-28	03:03:08	03:10:37	445324	62d68f14d9b476ca9b026253	3	1	main_slash	7	advance_on_keypress_SLASH	100	stimuli_target_trianglesquares.svg	stimuli_distractor_trianglediamonds.svg	18	yes	57	0	293	0	0			0	0			1				0	
6.6.1	win	2023-06-28	03:03:08	03:10:39	446915	62d68f14d9b476ca9b026253	3	1	main_slash	7	main_slash	101	stimuli_distractor_diamondtriangles.svg	stimuli_distractor_trianglediamonds.svg	37	no	53	0	654	0	0			0	0			1				0	
6.6.1	win	2023-06-28	03:03:08	03:10:39	446915	62d68f14d9b476ca9b026253	3	1	main_slash	7	advance_on_keypress_SLASH	102	stimuli_distractor_diamondtriangles.svg	stimuli_distractor_trianglediamonds.svg	37	no	57	0	276	0	0			0	0			1				0	
6.6.1	win	2023-06-28	03:03:08	03:10:40	448325	62d68f14d9b476ca9b026253	3	1	main_slash	7	main_slash	103	stimuli_distractor_diamondtriangles.svg	stimuli_target_squaretriangles.svg	15	yes	53	1	496	0	0			0	0			1				0	
6.6.1	win	2023-06-28	03:03:08	03:10:40	448325	62d68f14d9b476ca9b026253	3	1	main_slash	7	advance_on_keypress_SLASH	104	stimuli_distractor_diamondtriangles.svg	stimuli_target_squaretriangles.svg	15	yes	57	0	285	0	0			0	0			1				0	
6.6.1	win	2023-06-28	03:03:08	03:10:43	451247	62d68f14d9b476ca9b026253	3	1	main_slash	7	main_slash	105	stimuli_target_diamondrectangles.svg	stimuli_distractor_diamondtriangles.svg	23	yes	0	0	2000	0	0			0	0			1				0	
6.6.1	win	2023-06-28	03:03:08	03:10:43	451247	62d68f14d9b476ca9b026253	3	1	main_slash	7	advance_on_keypress_SLASH	106	stimuli_target_diamondrectangles.svg	stimuli_distractor_diamondtriangles.svg	23	yes	57	0	968	0	0			0	0			1				0	
6.6.1	win	2023-06-28	03:03:08	03:10:45	453274	62d68f14d9b476ca9b026253	3	1	main_slash	7	main_slash	107	stimuli_distractor_trianglediamonds.svg	stimuli_target_squarediamonds.svg	12	yes	53	1	406	0	0			0	0			1				0	
6.6.1	win	2023-06-28	03:03:08	03:10:45	453274	62d68f14d9b476ca9b026253	3	1	main_slash	7	advance_on_keypress_SLASH	108	stimuli_distractor_trianglediamonds.svg	stimuli_target_squarediamonds.svg	12	yes	57	0	266	0	0			0	0			1				0	
6.6.1	win	2023-06-28	03:03:08	03:10:47	454710	62d68f14d9b476ca9b026253	3	1	main_slash	7	main_slash	109	stimuli_distractor_trianglediamonds.svg	stimuli_target_rectanglediamonds.svg	10	yes	53	1	524	0	0			0	0			1				0	
6.6.1	win	2023-06-28	03:03:08	03:10:47	454710	62d68f14d9b476ca9b026253	3	1	main_slash	7	advance_on_keypress_SLASH	110	stimuli_distractor_trianglediamonds.svg	stimuli_target_rectanglediamonds.svg	10	yes	57	0	245	0	0			0	0			1				0	
6.6.1	win	2023-06-28	03:03:08	03:10:49	457587	62d68f14d9b476ca9b026253	3	1	main_slash	7	main_slash	111	stimuli_target_diamondsquares.svg	stimuli_distractor_trianglediamonds.svg	20	yes	0	0	2000	0	0			0	0			1				0	
6.6.1	win	2023-06-28	03:03:08	03:10:49	457587	62d68f14d9b476ca9b026253	3	1	main_slash	7	advance_on_keypress_SLASH	112	stimuli_target_diamondsquares.svg	stimuli_distractor_trianglediamonds.svg	20	yes	57	0	446	0	0			0	0			1				0	
6.6.1	win	2023-06-28	03:03:08	03:10:51	459439	62d68f14d9b476ca9b026253	3	1	main_slash	7	main_slash	113	stimuli_target_diamondsquares.svg	stimuli_distractor_diamondtriangles.svg	24	yes	53	1	767	0	0			0	0			1				0	
6.6.1	win	2023-06-28	03:03:08	03:10:51	459439	62d68f14d9b476ca9b026253	3	1	main_slash	7	advance_on_keypress_SLASH	114	stimuli_target_diamondsquares.svg	stimuli_distractor_diamondtriangles.svg	24	yes	57	0	258	0	0			0	0			1				0	
6.6.1	win	2023-06-28	03:03:08	03:10:53	460892	62d68f14d9b476ca9b026253	3	1	main_slash	7	main_slash	115	stimuli_target_rectanglediamonds.svg	stimuli_distractor_diamondtriangles.svg	6	yes	53	1	551	0	0			0	0			1				0	
6.6.1	win	2023-06-28	03:03:08	03:10:53	460892	62d68f14d9b476ca9b026253	3	1	main_slash	7	advance_on_keypress_SLASH	116	stimuli_target_rectanglediamonds.svg	stimuli_distractor_diamondtriangles.svg	6	yes	57	0	242	0	0			0	0			1				0	
6.6.1	win	2023-06-28	03:03:08	03:10:54	462253	62d68f14d9b476ca9b026253	3	1	main_slash	7	main_slash	117	stimuli_distractor_diamondtriangles.svg	stimuli_target_trianglerectangles.svg	29	yes	53	1	477	0	0			0	0			1				0	
6.6.1	win	2023-06-28	03:03:08	03:10:54	462253	62d68f14d9b476ca9b026253	3	1	main_slash	7	advance_on_keypress_SLASH	118	stimuli_distractor_diamondtriangles.svg	stimuli_target_trianglerectangles.svg	29	yes	57	0	344	0	0			0	0			1				0	
6.6.1	win	2023-06-28	03:03:08	03:10:57	465228	62d68f14d9b476ca9b026253	3	1	main_slash	7	main_slash	119	stimuli_distractor_diamondtriangles.svg	stimuli_distractor_diamondtriangles.svg	39	no	0	1	2000	0	0			0	0			1				0	
6.6.1	win	2023-06-28	03:03:08	03:10:57	465228	62d68f14d9b476ca9b026253	3	1	main_slash	7	advance_on_keypress_SLASH	120	stimuli_distractor_diamondtriangles.svg	stimuli_distractor_diamondtriangles.svg	39	no	57	0	397	0	0			0	0			1				0	
6.6.1	win	2023-06-28	03:03:08	03:11:00	468264	62d68f14d9b476ca9b026253	3	1	main_slash	7	main_slash	121	stimuli_distractor_trianglediamonds.svg	stimuli_distractor_trianglediamonds.svg	34	no	0	1	2000	0	0			0	0			1				0	
6.6.1	win	2023-06-28	03:03:08	03:11:00	468264	62d68f14d9b476ca9b026253	3	1	main_slash	7	advance_on_keypress_SLASH	122	stimuli_distractor_trianglediamonds.svg	stimuli_distractor_trianglediamonds.svg	34	no	57	0	385	0	0			0	0			1				0	
6.6.1	win	2023-06-28	03:03:08	03:11:02	469684	62d68f14d9b476ca9b026253	3	1	main_slash	7	main_slash	123	stimuli_target_rectangletriangles.svg	stimuli_distractor_trianglediamonds.svg	1	yes	53	1	368	0	0			0	0			1				0	
6.6.1	win	2023-06-28	03:03:08	03:11:02	469684	62d68f14d9b476ca9b026253	3	1	main_slash	7	advance_on_keypress_SLASH	124	stimuli_target_rectangletriangles.svg	stimuli_distractor_trianglediamonds.svg	1	yes	57	0	305	0	0			0	0			1				0	
6.6.1	win	2023-06-28	03:03:08	03:11:03	471042	62d68f14d9b476ca9b026253	3	1	main_slash	7	main_slash	125	stimuli_distractor_diamondtriangles.svg	stimuli_target_rectanglediamonds.svg	14	yes	53	1	407	0	0			0	0			1				0	
6.6.1	win	2023-06-28	03:03:08	03:11:03	471042	62d68f14d9b476ca9b026253	3	1	main_slash	7	advance_on_keypress_SLASH	126	stimuli_distractor_diamondtriangles.svg	stimuli_target_rectanglediamonds.svg	14	yes	57	0	244	0	0			0	0			1				0	
6.6.1	win	2023-06-28	03:03:08	03:11:04	472310	62d68f14d9b476ca9b026253	3	1	main_slash	7	main_slash	127	stimuli_distractor_trianglediamonds.svg	stimuli_target_diamondrectangles.svg	27	yes	53	1	391	0	0			0	0			1				0	
6.6.1	win	2023-06-28	03:03:08	03:11:04	472310	62d68f14d9b476ca9b026253	3	1	main_slash	7	advance_on_keypress_SLASH	128	stimuli_distractor_trianglediamonds.svg	stimuli_target_diamondrectangles.svg	27	yes	57	0	376	0	0			0	0			1				0	
6.6.1	win	2023-06-28	03:03:08	03:11:06	473764	62d68f14d9b476ca9b026253	3	1	main_slash	7	main_slash	129	stimuli_distractor_diamondtriangles.svg	stimuli_target_squarediamonds.svg	16	yes	53	1	443	0	0			0	0			1				0	
6.6.1	win	2023-06-28	03:03:08	03:11:06	473764	62d68f14d9b476ca9b026253	3	1	main_slash	7	advance_on_keypress_SLASH	130	stimuli_distractor_diamondtriangles.svg	stimuli_target_squarediamonds.svg	16	yes	57	0	282	0	0			0	0			1				0	
6.6.1	win	2023-06-28	03:03:08	03:11:07	475124	62d68f14d9b476ca9b026253	3	1	main_slash	7	main_slash	131	stimuli_target_squarediamonds.svg	stimuli_distractor_trianglediamonds.svg	4	yes	53	1	436	0	0			0	0			1				0	
6.6.1	win	2023-06-28	03:03:08	03:11:07	475124	62d68f14d9b476ca9b026253	3	1	main_slash	7	advance_on_keypress_SLASH	132	stimuli_target_squarediamonds.svg	stimuli_distractor_trianglediamonds.svg	4	yes	57	0	221	0	0			0	0			1				0	
6.6.1	win	2023-06-28	03:03:08	03:11:10	477990	62d68f14d9b476ca9b026253	3	1	main_slash	7	main_slash	133	stimuli_distractor_diamondtriangles.svg	stimuli_distractor_diamondtriangles.svg	40	no	0	1	2000	0	0			0	0			1				0	
6.6.1	win	2023-06-28	03:03:08	03:11:10	477990	62d68f14d9b476ca9b026253	3	1	main_slash	7	advance_on_keypress_SLASH	134	stimuli_distractor_diamondtriangles.svg	stimuli_distractor_diamondtriangles.svg	40	no	57	0	298	0	0			0	0			1				0	
6.6.1	win	2023-06-28	03:03:08	03:11:13	480927	62d68f14d9b476ca9b026253	3	1	main_slash	7	main_slash	135	stimuli_distractor_diamondtriangles.svg	stimuli_target_diamondsquares.svg	32	yes	0	0	2000	0	0			0	0			1				0	
6.6.1	win	2023-06-28	03:03:08	03:11:13	480927	62d68f14d9b476ca9b026253	3	1	main_slash	7	advance_on_keypress_SLASH	136	stimuli_distractor_diamondtriangles.svg	stimuli_target_diamondsquares.svg	32	yes	57	0	352	0	0			0	0			1				0	
6.6.1	win	2023-06-28	03:03:08	03:11:14	482293	62d68f14d9b476ca9b026253	3	1	main_slash	7	main_slash	137	stimuli_distractor_diamondtriangles.svg	stimuli_target_rectangletriangles.svg	13	yes	53	1	364	0	0			0	0			1				0	
6.6.1	win	2023-06-28	03:03:08	03:11:14	482293	62d68f14d9b476ca9b026253	3	1	main_slash	7	advance_on_keypress_SLASH	138	stimuli_distractor_diamondtriangles.svg	stimuli_target_rectangletriangles.svg	13	yes	57	0	250	0	0			0	0			1				0	
6.6.1	win	2023-06-28	03:03:08	03:11:17	485181	62d68f14d9b476ca9b026253	3	1	main_slash	7	main_slash	139	stimuli_target_trianglerectangles.svg	stimuli_distractor_diamondtriangles.svg	21	yes	0	0	2000	0	0			0	0			1				0	
6.6.1	win	2023-06-28	03:03:08	03:11:17	485181	62d68f14d9b476ca9b026253	3	1	main_slash	7	advance_on_keypress_SLASH	140	stimuli_target_trianglerectangles.svg	stimuli_distractor_diamondtriangles.svg	21	yes	57	0	484	0	0			0	0			1				0	
6.6.1	win	2023-06-28	03:03:08	03:11:19	486662	62d68f14d9b476ca9b026253	3	1	main_slash	7	main_slash	141	stimuli_distractor_trianglediamonds.svg	stimuli_target_squaretriangles.svg	11	yes	53	1	345	0	0			0	0			1				0	
6.6.1	win	2023-06-28	03:03:08	03:11:19	486662	62d68f14d9b476ca9b026253	3	1	main_slash	7	advance_on_keypress_SLASH	142	stimuli_distractor_trianglediamonds.svg	stimuli_target_squaretriangles.svg	11	yes	57	0	253	0	0			0	0			1				0	
6.6.1	win	2023-06-28	03:03:08	03:11:21	489552	62d68f14d9b476ca9b026253	3	1	main_slash	7	main_slash	143	stimuli_target_trianglerectangles.svg	stimuli_distractor_trianglediamonds.svg	17	yes	0	0	2000	0	0			0	0			1				0	
6.6.1	win	2023-06-28	03:03:08	03:11:21	489552	62d68f14d9b476ca9b026253	3	1	main_slash	7	advance_on_keypress_SLASH	144	stimuli_target_trianglerectangles.svg	stimuli_distractor_trianglediamonds.svg	17	yes	57	0	464	0	0			0	0			1				0	
6.6.1	win	2023-06-28	03:03:08	03:11:23	491291	62d68f14d9b476ca9b026253	3	1	main_slash	7	main_slash	145	stimuli_target_trianglesquares.svg	stimuli_distractor_diamondtriangles.svg	22	yes	53	1	637	0	0			0	0			1				0	
6.6.1	win	2023-06-28	03:03:08	03:11:23	491291	62d68f14d9b476ca9b026253	3	1	main_slash	7	advance_on_keypress_SLASH	146	stimuli_target_trianglesquares.svg	stimuli_distractor_diamondtriangles.svg	22	yes	57	0	248	0	0			0	0			1				0	
6.6.1	win	2023-06-28	03:03:08	03:11:25	493023	62d68f14d9b476ca9b026253	3	1	main_slash	7	main_slash	147	stimuli_distractor_diamondtriangles.svg	stimuli_distractor_trianglediamonds.svg	38	no	53	0	833	0	0			0	0			1				0	
6.6.1	win	2023-06-28	03:03:08	03:11:25	493023	62d68f14d9b476ca9b026253	3	1	main_slash	7	advance_on_keypress_SLASH	148	stimuli_distractor_diamondtriangles.svg	stimuli_distractor_trianglediamonds.svg	38	no	57	0	302	0	0			0	0			1				0	
6.6.1	win	2023-06-28	03:03:08	03:11:28	495975	62d68f14d9b476ca9b026253	3	1	main_slash	7	main_slash	149	stimuli_distractor_trianglediamonds.svg	stimuli_target_diamondsquares.svg	28	yes	0	0	2000	0	0			0	0			1				0	
6.6.1	win	2023-06-28	03:03:08	03:11:28	495975	62d68f14d9b476ca9b026253	3	1	main_slash	7	advance_on_keypress_SLASH	150	stimuli_distractor_trianglediamonds.svg	stimuli_target_diamondsquares.svg	28	yes	57	0	516	0	0			0	0			1				0	
6.6.1	win	2023-06-28	03:03:08	03:11:31	499145	62d68f14d9b476ca9b026253	3	1	main_slash	7	main_slash	151	stimuli_distractor_trianglediamonds.svg	stimuli_distractor_trianglediamonds.svg	33	no	0	1	2000	0	0			0	0			1				0	
6.6.1	win	2023-06-28	03:03:08	03:11:31	499145	62d68f14d9b476ca9b026253	3	1	main_slash	7	advance_on_keypress_SLASH	152	stimuli_distractor_trianglediamonds.svg	stimuli_distractor_trianglediamonds.svg	33	no	57	0	464	0	0			0	0			1				0	
6.6.1	win	2023-06-28	03:03:08	03:11:33	500699	62d68f14d9b476ca9b026253	3	1	main_slash	7	main_slash	153	stimuli_distractor_trianglediamonds.svg	stimuli_target_trianglesquares.svg	26	yes	53	1	451	0	0			0	0			1				0	
6.6.1	win	2023-06-28	03:03:08	03:11:33	500699	62d68f14d9b476ca9b026253	3	1	main_slash	7	advance_on_keypress_SLASH	154	stimuli_distractor_trianglediamonds.svg	stimuli_target_trianglesquares.svg	26	yes	57	0	308	0	0			0	0			1				0	
6.6.1	win	2023-06-28	03:03:08	03:11:36	503649	62d68f14d9b476ca9b026253	3	1	main_slash	7	main_slash	155	stimuli_distractor_trianglediamonds.svg	stimuli_distractor_diamondtriangles.svg	36	no	0	1	2000	0	0			0	0			1				0	
6.6.1	win	2023-06-28	03:03:08	03:11:36	503649	62d68f14d9b476ca9b026253	3	1	main_slash	7	advance_on_keypress_SLASH	156	stimuli_distractor_trianglediamonds.svg	stimuli_distractor_diamondtriangles.svg	36	no	57	0	328	0	0			0	0			1				0	
6.6.1	win	2023-06-28	03:03:08	03:11:37	505050	62d68f14d9b476ca9b026253	3	1	main_slash	7	main_slash	157	stimuli_target_squaretriangles.svg	stimuli_distractor_diamondtriangles.svg	7	yes	53	1	431	0	0			0	0			1				0	
6.6.1	win	2023-06-28	03:03:08	03:11:37	505050	62d68f14d9b476ca9b026253	3	1	main_slash	7	advance_on_keypress_SLASH	158	stimuli_target_squaretriangles.svg	stimuli_distractor_diamondtriangles.svg	7	yes	57	0	216	0	0			0	0			1				0	
6.6.1	win	2023-06-28	03:03:08	03:11:38	506482	62d68f14d9b476ca9b026253	3	1	main_slash	7	main_slash	159	stimuli_distractor_trianglediamonds.svg	stimuli_target_rectangletriangles.svg	9	yes	53	1	578	0	0			0	0			1				0	
6.6.1	win	2023-06-28	03:03:08	03:11:38	506482	62d68f14d9b476ca9b026253	3	1	main_slash	7	advance_on_keypress_SLASH	160	stimuli_distractor_trianglediamonds.svg	stimuli_target_rectangletriangles.svg	9	yes	57	0	248	0	0			0	0			1				0	
6.6.1	win	2023-06-28	03:03:08	03:11:52	520577	62d68f14d9b476ca9b026253	3	1	practice_z	9	practice_z	1	stimuli_target_squarediamonds.svg	stimuli_distractor_diamondtriangles.svg	2	yes	44	1	527	0	0			0	0			1				0	
6.6.1	win	2023-06-28	03:03:08	03:11:52	520577	62d68f14d9b476ca9b026253	3	1	practice_z	9	advance_on_keypress_ZEE	2	stimuli_target_squarediamonds.svg	stimuli_distractor_diamondtriangles.svg	2	yes	57	0	781	0	0			0	0			1				0	
6.6.1	win	2023-06-28	03:03:08	03:11:55	523437	62d68f14d9b476ca9b026253	3	1	practice_z	9	practice_z	3	stimuli_target_rectanglediamonds.svg	stimuli_distractor_diamondtriangles.svg	1	yes	44	1	434	0	0			0	0			1				0	
6.6.1	win	2023-06-28	03:03:08	03:11:55	523437	62d68f14d9b476ca9b026253	3	1	practice_z	9	advance_on_keypress_ZEE	4	stimuli_target_rectanglediamonds.svg	stimuli_distractor_diamondtriangles.svg	1	yes	57	0	675	0	0			0	0			1				0	
6.6.1	win	2023-06-28	03:03:08	03:12:00	527757	62d68f14d9b476ca9b026253	3	1	practice_z	9	practice_z	5	stimuli_distractor_trianglediamonds.svg	stimuli_target_diamondrectangles.svg	12	yes	0	0	2000	0	0			0	0			1				0	
6.6.1	win	2023-06-28	03:03:08	03:12:00	527757	62d68f14d9b476ca9b026253	3	1	practice_z	9	advance_on_keypress_ZEE	6	stimuli_distractor_trianglediamonds.svg	stimuli_target_diamondrectangles.svg	12	yes	57	0	474	0	0			0	0			1				0	
6.6.1	win	2023-06-28	03:03:08	03:12:02	530238	62d68f14d9b476ca9b026253	3	1	practice_z	9	practice_z	7	stimuli_target_squarediamonds.svg	stimuli_distractor_trianglediamonds.svg	5	yes	44	1	360	0	0			0	0			1				0	
6.6.1	win	2023-06-28	03:03:08	03:12:02	530238	62d68f14d9b476ca9b026253	3	1	practice_z	9	advance_on_keypress_ZEE	8	stimuli_target_squarediamonds.svg	stimuli_distractor_trianglediamonds.svg	5	yes	57	0	498	0	0			0	0			1				0	
6.6.1	win	2023-06-28	03:03:08	03:12:05	533040	62d68f14d9b476ca9b026253	3	1	practice_z	9	practice_z	9	stimuli_distractor_diamondtriangles.svg	stimuli_target_trianglerectangles.svg	9	yes	44	1	661	0	0			0	0			1				0	
6.6.1	win	2023-06-28	03:03:08	03:12:05	533040	62d68f14d9b476ca9b026253	3	1	practice_z	9	advance_on_keypress_ZEE	10	stimuli_distractor_diamondtriangles.svg	stimuli_target_trianglerectangles.svg	9	yes	57	0	402	0	0			0	0			1				0	
6.6.1	win	2023-06-28	03:03:08	03:12:09	537083	62d68f14d9b476ca9b026253	3	1	practice_z	9	practice_z	11	stimuli_distractor_diamondtriangles.svg	stimuli_distractor_diamondtriangles.svg	13	no	0	1	2000	0	0			0	0			1				0	
6.6.1	win	2023-06-28	03:03:08	03:12:09	537083	62d68f14d9b476ca9b026253	3	1	practice_z	9	advance_on_keypress_ZEE	12	stimuli_distractor_diamondtriangles.svg	stimuli_distractor_diamondtriangles.svg	13	no	57	0	568	0	0			0	0			1				0	
6.6.1	win	2023-06-28	03:03:08	03:12:12	539698	62d68f14d9b476ca9b026253	3	1	practice_z	9	practice_z	13	stimuli_target_diamondsquares.svg	stimuli_distractor_diamondtriangles.svg	3	yes	44	1	394	0	0			0	0			1				0	
6.6.1	win	2023-06-28	03:03:08	03:12:12	539698	62d68f14d9b476ca9b026253	3	1	practice_z	9	advance_on_keypress_ZEE	14	stimuli_target_diamondsquares.svg	stimuli_distractor_diamondtriangles.svg	3	yes	57	0	482	0	0			0	0			1				0	
6.6.1	win	2023-06-28	03:03:08	03:12:15	542625	62d68f14d9b476ca9b026253	3	1	practice_z	9	practice_z	15	stimuli_distractor_diamondtriangles.svg	stimuli_target_diamondrectangles.svg	8	yes	44	1	803	0	0			0	0			1				0	
6.6.1	win	2023-06-28	03:03:08	03:12:15	542625	62d68f14d9b476ca9b026253	3	1	practice_z	9	advance_on_keypress_ZEE	16	stimuli_distractor_diamondtriangles.svg	stimuli_target_diamondrectangles.svg	8	yes	57	0	408	0	0			0	0			1				0	
6.6.1	win	2023-06-28	03:03:08	03:12:17	545106	62d68f14d9b476ca9b026253	3	1	practice_z	9	practice_z	17	stimuli_target_diamondsquares.svg	stimuli_distractor_trianglediamonds.svg	6	yes	44	1	431	0	0			0	0			1				0	
6.6.1	win	2023-06-28	03:03:08	03:12:17	545106	62d68f14d9b476ca9b026253	3	1	practice_z	9	advance_on_keypress_ZEE	18	stimuli_target_diamondsquares.svg	stimuli_distractor_trianglediamonds.svg	6	yes	57	0	454	0	0			0	0			1				0	
6.6.1	win	2023-06-28	03:03:08	03:12:19	547578	62d68f14d9b476ca9b026253	3	1	practice_z	9	practice_z	19	stimuli_target_rectanglediamonds.svg	stimuli_distractor_trianglediamonds.svg	4	yes	44	1	375	0	0			0	0			1				0	
6.6.1	win	2023-06-28	03:03:08	03:12:19	547578	62d68f14d9b476ca9b026253	3	1	practice_z	9	advance_on_keypress_ZEE	20	stimuli_target_rectanglediamonds.svg	stimuli_distractor_trianglediamonds.svg	4	yes	57	0	410	0	0			0	0			1				0	
6.6.1	win	2023-06-28	03:03:08	03:12:24	551631	62d68f14d9b476ca9b026253	3	1	practice_z	9	practice_z	21	stimuli_distractor_diamondtriangles.svg	stimuli_target_rectangletriangles.svg	7	yes	0	0	2000	0	0			0	0			1				0	
6.6.1	win	2023-06-28	03:03:08	03:12:24	551631	62d68f14d9b476ca9b026253	3	1	practice_z	9	advance_on_keypress_ZEE	22	stimuli_distractor_diamondtriangles.svg	stimuli_target_rectangletriangles.svg	7	yes	57	0	326	0	0			0	0			1				0	
6.6.1	win	2023-06-28	03:03:08	03:12:27	555602	62d68f14d9b476ca9b026253	3	1	practice_z	9	practice_z	23	stimuli_distractor_trianglediamonds.svg	stimuli_distractor_diamondtriangles.svg	16	no	0	1	2000	0	0			0	0			1				0	
6.6.1	win	2023-06-28	03:03:08	03:12:27	555602	62d68f14d9b476ca9b026253	3	1	practice_z	9	advance_on_keypress_ZEE	24	stimuli_distractor_trianglediamonds.svg	stimuli_distractor_diamondtriangles.svg	16	no	57	0	549	0	0			0	0			1				0	
6.6.1	win	2023-06-28	03:03:08	03:12:30	558374	62d68f14d9b476ca9b026253	3	1	practice_z	9	practice_z	25	stimuli_distractor_trianglediamonds.svg	stimuli_target_rectanglediamonds.svg	10	yes	44	1	569	0	0			0	0			1				0	
6.6.1	win	2023-06-28	03:03:08	03:12:30	558374	62d68f14d9b476ca9b026253	3	1	practice_z	9	advance_on_keypress_ZEE	26	stimuli_distractor_trianglediamonds.svg	stimuli_target_rectanglediamonds.svg	10	yes	57	0	526	0	0			0	0			1				0	
6.6.1	win	2023-06-28	03:03:08	03:12:33	561009	62d68f14d9b476ca9b026253	3	1	practice_z	9	practice_z	27	stimuli_distractor_trianglediamonds.svg	stimuli_target_squarediamonds.svg	11	yes	44	1	468	0	0			0	0			1				0	
6.6.1	win	2023-06-28	03:03:08	03:12:33	561009	62d68f14d9b476ca9b026253	3	1	practice_z	9	advance_on_keypress_ZEE	28	stimuli_distractor_trianglediamonds.svg	stimuli_target_squarediamonds.svg	11	yes	57	0	238	0	0			0	0			1				0	
6.6.1	win	2023-06-28	03:03:08	03:12:37	564894	62d68f14d9b476ca9b026253	3	1	practice_z	9	practice_z	29	stimuli_distractor_trianglediamonds.svg	stimuli_distractor_trianglediamonds.svg	15	no	0	1	2000	0	0			0	0			1				0	
6.6.1	win	2023-06-28	03:03:08	03:12:37	564894	62d68f14d9b476ca9b026253	3	1	practice_z	9	advance_on_keypress_ZEE	30	stimuli_distractor_trianglediamonds.svg	stimuli_distractor_trianglediamonds.svg	15	no	57	0	550	0	0			0	0			1				0	
6.6.1	win	2023-06-28	03:03:08	03:12:40	567914	62d68f14d9b476ca9b026253	3	1	practice_z	9	practice_z	31	stimuli_distractor_diamondtriangles.svg	stimuli_distractor_trianglediamonds.svg	14	no	44	0	815	0	0			0	0			1				0	
6.6.1	win	2023-06-28	03:03:08	03:12:40	567914	62d68f14d9b476ca9b026253	3	1	practice_z	9	advance_on_keypress_ZEE	32	stimuli_distractor_diamondtriangles.svg	stimuli_distractor_trianglediamonds.svg	14	no	57	0	413	0	0			0	0			1				0	
6.6.1	win	2023-06-28	03:03:08	03:12:44	571995	62d68f14d9b476ca9b026253	3	1	main_z	11	main_z	1	stimuli_target_trianglerectangles.svg	stimuli_distractor_trianglediamonds.svg	17	yes	44	1	576	0	0			0	0			1				0	
6.6.1	win	2023-06-28	03:03:08	03:12:44	571995	62d68f14d9b476ca9b026253	3	1	main_z	11	advance_on_keypress_ZEE	2	stimuli_target_trianglerectangles.svg	stimuli_distractor_trianglediamonds.svg	17	yes	57	0	735	0	0			0	0			1				0	
6.6.1	win	2023-06-28	03:03:08	03:12:47	575371	62d68f14d9b476ca9b026253	3	1	main_z	11	main_z	3	stimuli_distractor_diamondtriangles.svg	stimuli_target_rectanglediamonds.svg	14	yes	0	0	2000	0	0			0	0			1				0	
6.6.1	win	2023-06-28	03:03:08	03:12:47	575371	62d68f14d9b476ca9b026253	3	1	main_z	11	advance_on_keypress_ZEE	4	stimuli_distractor_diamondtriangles.svg	stimuli_target_rectanglediamonds.svg	14	yes	57	0	348	0	0			0	0			1				0	
6.6.1	win	2023-06-28	03:03:08	03:12:49	576773	62d68f14d9b476ca9b026253	3	1	main_z	11	main_z	5	stimuli_target_squaretriangles.svg	stimuli_distractor_diamondtriangles.svg	7	yes	44	1	400	0	0			0	0			1				0	
6.6.1	win	2023-06-28	03:03:08	03:12:49	576773	62d68f14d9b476ca9b026253	3	1	main_z	11	advance_on_keypress_ZEE	6	stimuli_target_squaretriangles.svg	stimuli_distractor_diamondtriangles.svg	7	yes	57	0	659	0	0			0	0			1				0	
6.6.1	win	2023-06-28	03:03:08	03:12:51	578715	62d68f14d9b476ca9b026253	3	1	main_z	11	main_z	7	stimuli_distractor_diamondtriangles.svg	stimuli_target_rectangletriangles.svg	13	yes	44	1	640	0	0			0	0			1				0	
6.6.1	win	2023-06-28	03:03:08	03:12:51	578715	62d68f14d9b476ca9b026253	3	1	main_z	11	advance_on_keypress_ZEE	8	stimuli_distractor_diamondtriangles.svg	stimuli_target_rectangletriangles.svg	13	yes	57	0	595	0	0			0	0			1				0	
6.6.1	win	2023-06-28	03:03:08	03:12:52	580401	62d68f14d9b476ca9b026253	3	1	main_z	11	main_z	9	stimuli_distractor_diamondtriangles.svg	stimuli_target_squarediamonds.svg	16	yes	44	1	457	0	0			0	0			1				0	
6.6.1	win	2023-06-28	03:03:08	03:12:52	580401	62d68f14d9b476ca9b026253	3	1	main_z	11	advance_on_keypress_ZEE	10	stimuli_distractor_diamondtriangles.svg	stimuli_target_squarediamonds.svg	16	yes	57	0	512	0	0			0	0			1				0	
6.6.1	win	2023-06-28	03:03:08	03:12:54	581982	62d68f14d9b476ca9b026253	3	1	main_z	11	main_z	11	stimuli_target_squarediamonds.svg	stimuli_distractor_trianglediamonds.svg	4	yes	44	1	437	0	0			0	0			1				0	
6.6.1	win	2023-06-28	03:03:08	03:12:54	581982	62d68f14d9b476ca9b026253	3	1	main_z	11	advance_on_keypress_ZEE	12	stimuli_target_squarediamonds.svg	stimuli_distractor_trianglediamonds.svg	4	yes	57	0	363	0	0			0	0			1				0	
6.6.1	win	2023-06-28	03:03:08	03:12:57	584981	62d68f14d9b476ca9b026253	3	1	main_z	11	main_z	13	stimuli_distractor_diamondtriangles.svg	stimuli_distractor_diamondtriangles.svg	40	no	0	1	2000	0	0			0	0			1				0	
6.6.1	win	2023-06-28	03:03:08	03:12:57	584981	62d68f14d9b476ca9b026253	3	1	main_z	11	advance_on_keypress_ZEE	14	stimuli_distractor_diamondtriangles.svg	stimuli_distractor_diamondtriangles.svg	40	no	57	0	355	0	0			0	0			1				0	
6.6.1	win	2023-06-28	03:03:08	03:12:58	586408	62d68f14d9b476ca9b026253	3	1	main_z	11	main_z	15	stimuli_target_trianglesquares.svg	stimuli_distractor_trianglediamonds.svg	18	yes	44	1	425	0	0			0	0			1				0	
6.6.1	win	2023-06-28	03:03:08	03:12:58	586408	62d68f14d9b476ca9b026253	3	1	main_z	11	advance_on_keypress_ZEE	16	stimuli_target_trianglesquares.svg	stimuli_distractor_trianglediamonds.svg	18	yes	57	0	442	0	0			0	0			1				0	
6.6.1	win	2023-06-28	03:03:08	03:13:00	587848	62d68f14d9b476ca9b026253	3	1	main_z	11	main_z	17	stimuli_target_rectanglediamonds.svg	stimuli_distractor_diamondtriangles.svg	6	yes	44	1	362	0	0			0	0			1				0	
6.6.1	win	2023-06-28	03:03:08	03:13:00	587848	62d68f14d9b476ca9b026253	3	1	main_z	11	advance_on_keypress_ZEE	18	stimuli_target_rectanglediamonds.svg	stimuli_distractor_diamondtriangles.svg	6	yes	57	0	284	0	0			0	0			1				0	
6.6.1	win	2023-06-28	03:03:08	03:13:03	590770	62d68f14d9b476ca9b026253	3	1	main_z	11	main_z	19	stimuli_distractor_diamondtriangles.svg	stimuli_distractor_diamondtriangles.svg	39	no	0	1	2000	0	0			0	0			1				0	
6.6.1	win	2023-06-28	03:03:08	03:13:03	590770	62d68f14d9b476ca9b026253	3	1	main_z	11	advance_on_keypress_ZEE	20	stimuli_distractor_diamondtriangles.svg	stimuli_distractor_diamondtriangles.svg	39	no	57	0	205	0	0			0	0			1				0	
6.6.1	win	2023-06-28	03:03:08	03:13:04	592158	62d68f14d9b476ca9b026253	3	1	main_z	11	main_z	21	stimuli_distractor_diamondtriangles.svg	stimuli_target_trianglesquares.svg	30	yes	44	1	536	0	0			0	0			1				0	
6.6.1	win	2023-06-28	03:03:08	03:13:04	592158	62d68f14d9b476ca9b026253	3	1	main_z	11	advance_on_keypress_ZEE	22	stimuli_distractor_diamondtriangles.svg	stimuli_target_trianglesquares.svg	30	yes	57	0	349	0	0			0	0			1				0	
6.6.1	win	2023-06-28	03:03:08	03:13:06	593677	62d68f14d9b476ca9b026253	3	1	main_z	11	main_z	23	stimuli_target_diamondrectangles.svg	stimuli_distractor_trianglediamonds.svg	19	yes	44	1	520	0	0			0	0			1				0	
6.6.1	win	2023-06-28	03:03:08	03:13:06	593677	62d68f14d9b476ca9b026253	3	1	main_z	11	advance_on_keypress_ZEE	24	stimuli_target_diamondrectangles.svg	stimuli_distractor_trianglediamonds.svg	19	yes	57	0	346	0	0			0	0			1				0	
6.6.1	win	2023-06-28	03:03:08	03:13:07	595086	62d68f14d9b476ca9b026253	3	1	main_z	11	main_z	25	stimuli_distractor_diamondtriangles.svg	stimuli_target_diamondrectangles.svg	31	yes	44	1	426	0	0			0	0			1				0	
6.6.1	win	2023-06-28	03:03:08	03:13:07	595086	62d68f14d9b476ca9b026253	3	1	main_z	11	advance_on_keypress_ZEE	26	stimuli_distractor_diamondtriangles.svg	stimuli_target_diamondrectangles.svg	31	yes	57	0	419	0	0			0	0			1				0	
6.6.1	win	2023-06-28	03:03:08	03:13:09	596715	62d68f14d9b476ca9b026253	3	1	main_z	11	main_z	27	stimuli_target_diamondrectangles.svg	stimuli_distractor_diamondtriangles.svg	23	yes	44	1	571	0	0			0	0			1				0	
6.6.1	win	2023-06-28	03:03:08	03:13:09	596715	62d68f14d9b476ca9b026253	3	1	main_z	11	advance_on_keypress_ZEE	28	stimuli_target_diamondrectangles.svg	stimuli_distractor_diamondtriangles.svg	23	yes	57	0	280	0	0			0	0			1				0	
6.6.1	win	2023-06-28	03:03:08	03:13:10	598022	62d68f14d9b476ca9b026253	3	1	main_z	11	main_z	29	stimuli_target_squaretriangles.svg	stimuli_distractor_trianglediamonds.svg	3	yes	44	1	393	0	0			0	0			1				0	
6.6.1	win	2023-06-28	03:03:08	03:13:10	598022	62d68f14d9b476ca9b026253	3	1	main_z	11	advance_on_keypress_ZEE	30	stimuli_target_squaretriangles.svg	stimuli_distractor_trianglediamonds.svg	3	yes	57	0	573	0	0			0	0			1				0	
6.6.1	win	2023-06-28	03:03:08	03:13:13	601230	62d68f14d9b476ca9b026253	3	1	main_z	11	main_z	31	stimuli_distractor_trianglediamonds.svg	stimuli_distractor_trianglediamonds.svg	34	no	0	1	2000	0	0			0	0			1				0	
6.6.1	win	2023-06-28	03:03:08	03:13:13	601230	62d68f14d9b476ca9b026253	3	1	main_z	11	advance_on_keypress_ZEE	32	stimuli_distractor_trianglediamonds.svg	stimuli_distractor_trianglediamonds.svg	34	no	57	0	74	0	0			0	0			1				0	
6.6.1	win	2023-06-28	03:03:08	03:13:14	602408	62d68f14d9b476ca9b026253	3	1	main_z	11	main_z	33	stimuli_target_trianglerectangles.svg	stimuli_distractor_diamondtriangles.svg	21	yes	44	1	475	0	0			0	0			1				0	
6.6.1	win	2023-06-28	03:03:08	03:13:14	602408	62d68f14d9b476ca9b026253	3	1	main_z	11	advance_on_keypress_ZEE	34	stimuli_target_trianglerectangles.svg	stimuli_distractor_diamondtriangles.svg	21	yes	57	0	249	0	0			0	0			1				0	
6.6.1	win	2023-06-28	03:03:08	03:13:17	605301	62d68f14d9b476ca9b026253	3	1	main_z	11	main_z	35	stimuli_distractor_trianglediamonds.svg	stimuli_target_diamondsquares.svg	28	yes	0	0	2000	0	0			0	0			1				0	
6.6.1	win	2023-06-28	03:03:08	03:13:17	605301	62d68f14d9b476ca9b026253	3	1	main_z	11	advance_on_keypress_ZEE	36	stimuli_distractor_trianglediamonds.svg	stimuli_target_diamondsquares.svg	28	yes	57	0	402	0	0			0	0			1				0	
6.6.1	win	2023-06-28	03:03:08	03:13:20	608354	62d68f14d9b476ca9b026253	3	1	main_z	11	main_z	37	stimuli_distractor_diamondtriangles.svg	stimuli_distractor_trianglediamonds.svg	37	no	0	1	2000	0	0			0	0			1				0	
6.6.1	win	2023-06-28	03:03:08	03:13:20	608354	62d68f14d9b476ca9b026253	3	1	main_z	11	advance_on_keypress_ZEE	38	stimuli_distractor_diamondtriangles.svg	stimuli_distractor_trianglediamonds.svg	37	no	57	0	214	0	0			0	0			1				0	
6.6.1	win	2023-06-28	03:03:08	03:13:22	609628	62d68f14d9b476ca9b026253	3	1	main_z	11	main_z	39	stimuli_target_squarediamonds.svg	stimuli_distractor_diamondtriangles.svg	8	yes	44	1	404	0	0			0	0			1				0	
6.6.1	win	2023-06-28	03:03:08	03:13:22	609628	62d68f14d9b476ca9b026253	3	1	main_z	11	advance_on_keypress_ZEE	40	stimuli_target_squarediamonds.svg	stimuli_distractor_diamondtriangles.svg	8	yes	57	0	328	0	0			0	0			1				0	
6.6.1	win	2023-06-28	03:03:08	03:13:23	610976	62d68f14d9b476ca9b026253	3	1	main_z	11	main_z	41	stimuli_target_rectanglediamonds.svg	stimuli_distractor_trianglediamonds.svg	2	yes	44	1	369	0	0			0	0			1				0	
6.6.1	win	2023-06-28	03:03:08	03:13:23	610976	62d68f14d9b476ca9b026253	3	1	main_z	11	advance_on_keypress_ZEE	42	stimuli_target_rectanglediamonds.svg	stimuli_distractor_trianglediamonds.svg	2	yes	57	0	297	0	0			0	0			1				0	
6.6.1	win	2023-06-28	03:03:08	03:13:24	612484	62d68f14d9b476ca9b026253	3	1	main_z	11	main_z	43	stimuli_distractor_trianglediamonds.svg	stimuli_target_squaretriangles.svg	11	yes	44	1	575	0	0			0	0			1				0	
6.6.1	win	2023-06-28	03:03:08	03:13:24	612484	62d68f14d9b476ca9b026253	3	1	main_z	11	advance_on_keypress_ZEE	44	stimuli_distractor_trianglediamonds.svg	stimuli_target_squaretriangles.svg	11	yes	57	0	332	0	0			0	0			1				0	
6.6.1	win	2023-06-28	03:03:08	03:13:26	614224	62d68f14d9b476ca9b026253	3	1	main_z	11	main_z	45	stimuli_distractor_trianglediamonds.svg	stimuli_target_diamondrectangles.svg	27	yes	44	1	762	0	0			0	0			1				0	
6.6.1	win	2023-06-28	03:03:08	03:13:26	614224	62d68f14d9b476ca9b026253	3	1	main_z	11	advance_on_keypress_ZEE	46	stimuli_distractor_trianglediamonds.svg	stimuli_target_diamondrectangles.svg	27	yes	57	0	332	0	0			0	0			1				0	
6.6.1	win	2023-06-28	03:03:08	03:13:28	615633	62d68f14d9b476ca9b026253	3	1	main_z	11	main_z	47	stimuli_target_diamondsquares.svg	stimuli_distractor_diamondtriangles.svg	24	yes	44	1	436	0	0			0	0			1				0	
6.6.1	win	2023-06-28	03:03:08	03:13:28	615633	62d68f14d9b476ca9b026253	3	1	main_z	11	advance_on_keypress_ZEE	48	stimuli_target_diamondsquares.svg	stimuli_distractor_diamondtriangles.svg	24	yes	57	0	328	0	0			0	0			1				0	
6.6.1	win	2023-06-28	03:03:08	03:13:29	617164	62d68f14d9b476ca9b026253	3	1	main_z	11	main_z	49	stimuli_target_diamondsquares.svg	stimuli_distractor_trianglediamonds.svg	20	yes	44	1	567	0	0			0	0			1				0	
6.6.1	win	2023-06-28	03:03:08	03:13:29	617164	62d68f14d9b476ca9b026253	3	1	main_z	11	advance_on_keypress_ZEE	50	stimuli_target_diamondsquares.svg	stimuli_distractor_trianglediamonds.svg	20	yes	57	0	351	0	0			0	0			1				0	
6.6.1	win	2023-06-28	03:03:08	03:13:32	620166	62d68f14d9b476ca9b026253	3	1	main_z	11	main_z	51	stimuli_distractor_diamondtriangles.svg	stimuli_distractor_trianglediamonds.svg	38	no	0	1	2000	0	0			0	0			1				0	
6.6.1	win	2023-06-28	03:03:08	03:13:32	620166	62d68f14d9b476ca9b026253	3	1	main_z	11	advance_on_keypress_ZEE	52	stimuli_distractor_diamondtriangles.svg	stimuli_distractor_trianglediamonds.svg	38	no	57	0	2	0	0			0	0			1				0	
6.6.1	win	2023-06-28	03:03:08	03:13:33	621321	62d68f14d9b476ca9b026253	3	1	main_z	11	main_z	53	stimuli_distractor_trianglediamonds.svg	stimuli_target_rectanglediamonds.svg	10	yes	44	1	485	0	0			0	0			1				0	
6.6.1	win	2023-06-28	03:03:08	03:13:33	621321	62d68f14d9b476ca9b026253	3	1	main_z	11	advance_on_keypress_ZEE	54	stimuli_distractor_trianglediamonds.svg	stimuli_target_rectanglediamonds.svg	10	yes	57	0	230	0	0			0	0			1				0	
6.6.1	win	2023-06-28	03:03:08	03:13:34	622575	62d68f14d9b476ca9b026253	3	1	main_z	11	main_z	55	stimuli_distractor_trianglediamonds.svg	stimuli_target_rectangletriangles.svg	9	yes	44	1	388	0	0			0	0			1				0	
6.6.1	win	2023-06-28	03:03:08	03:13:34	622575	62d68f14d9b476ca9b026253	3	1	main_z	11	advance_on_keypress_ZEE	56	stimuli_distractor_trianglediamonds.svg	stimuli_target_rectangletriangles.svg	9	yes	57	0	215	0	0			0	0			1				0	
6.6.1	win	2023-06-28	03:03:08	03:13:36	623781	62d68f14d9b476ca9b026253	3	1	main_z	11	main_z	57	stimuli_target_rectangletriangles.svg	stimuli_distractor_diamondtriangles.svg	5	yes	44	1	343	0	0			0	0			1				0	
6.6.1	win	2023-06-28	03:03:08	03:13:36	623781	62d68f14d9b476ca9b026253	3	1	main_z	11	advance_on_keypress_ZEE	58	stimuli_target_rectangletriangles.svg	stimuli_distractor_diamondtriangles.svg	5	yes	57	0	233	0	0			0	0			1				0	
6.6.1	win	2023-06-28	03:03:08	03:13:39	626656	62d68f14d9b476ca9b026253	3	1	main_z	11	main_z	59	stimuli_distractor_trianglediamonds.svg	stimuli_target_trianglerectangles.svg	25	yes	0	0	2000	0	0			0	0			1				0	
6.6.1	win	2023-06-28	03:03:08	03:13:39	626656	62d68f14d9b476ca9b026253	3	1	main_z	11	advance_on_keypress_ZEE	60	stimuli_distractor_trianglediamonds.svg	stimuli_target_trianglerectangles.svg	25	yes	57	0	353	0	0			0	0			1				0	
6.6.1	win	2023-06-28	03:03:08	03:13:42	629659	62d68f14d9b476ca9b026253	3	1	main_z	11	main_z	61	stimuli_distractor_trianglediamonds.svg	stimuli_distractor_diamondtriangles.svg	35	no	0	1	2000	0	0			0	0			1				0	
6.6.1	win	2023-06-28	03:03:08	03:13:42	629659	62d68f14d9b476ca9b026253	3	1	main_z	11	advance_on_keypress_ZEE	62	stimuli_distractor_trianglediamonds.svg	stimuli_distractor_diamondtriangles.svg	35	no	57	0	229	0	0			0	0			1				0	
6.6.1	win	2023-06-28	03:03:08	03:13:43	631278	62d68f14d9b476ca9b026253	3	1	main_z	11	main_z	63	stimuli_distractor_diamondtriangles.svg	stimuli_target_diamondsquares.svg	32	yes	44	1	750	0	0			0	0			1				0	
6.6.1	win	2023-06-28	03:03:08	03:13:43	631278	62d68f14d9b476ca9b026253	3	1	main_z	11	advance_on_keypress_ZEE	64	stimuli_distractor_diamondtriangles.svg	stimuli_target_diamondsquares.svg	32	yes	57	0	271	0	0			0	0			1				0	
6.6.1	win	2023-06-28	03:03:08	03:13:45	632735	62d68f14d9b476ca9b026253	3	1	main_z	11	main_z	65	stimuli_distractor_trianglediamonds.svg	stimuli_target_squarediamonds.svg	12	yes	44	1	539	0	0			0	0			1				0	
6.6.1	win	2023-06-28	03:03:08	03:13:45	632735	62d68f14d9b476ca9b026253	3	1	main_z	11	advance_on_keypress_ZEE	66	stimuli_distractor_trianglediamonds.svg	stimuli_target_squarediamonds.svg	12	yes	57	0	202	0	0			0	0			1				0	
6.6.1	win	2023-06-28	03:03:08	03:13:46	634179	62d68f14d9b476ca9b026253	3	1	main_z	11	main_z	67	stimuli_distractor_trianglediamonds.svg	stimuli_target_trianglesquares.svg	26	yes	44	1	597	0	0			0	0			1				0	
6.6.1	win	2023-06-28	03:03:08	03:13:46	634179	62d68f14d9b476ca9b026253	3	1	main_z	11	advance_on_keypress_ZEE	68	stimuli_distractor_trianglediamonds.svg	stimuli_target_trianglesquares.svg	26	yes	57	0	246	0	0			0	0			1				0	
6.6.1	win	2023-06-28	03:03:08	03:13:47	635446	62d68f14d9b476ca9b026253	3	1	main_z	11	main_z	69	stimuli_target_rectangletriangles.svg	stimuli_distractor_trianglediamonds.svg	1	yes	44	1	397	0	0			0	0			1				0	
6.6.1	win	2023-06-28	03:03:08	03:13:47	635446	62d68f14d9b476ca9b026253	3	1	main_z	11	advance_on_keypress_ZEE	70	stimuli_target_rectangletriangles.svg	stimuli_distractor_trianglediamonds.svg	1	yes	57	0	232	0	0			0	0			1				0	
6.6.1	win	2023-06-28	03:03:08	03:13:50	638318	62d68f14d9b476ca9b026253	3	1	main_z	11	main_z	71	stimuli_distractor_diamondtriangles.svg	stimuli_target_trianglerectangles.svg	29	yes	0	0	2000	0	0			0	0			1				0	
6.6.1	win	2023-06-28	03:03:08	03:13:50	638318	62d68f14d9b476ca9b026253	3	1	main_z	11	advance_on_keypress_ZEE	72	stimuli_distractor_diamondtriangles.svg	stimuli_target_trianglerectangles.svg	29	yes	57	0	327	0	0			0	0			1				0	
6.6.1	win	2023-06-28	03:03:08	03:13:52	640052	62d68f14d9b476ca9b026253	3	1	main_z	11	main_z	73	stimuli_distractor_diamondtriangles.svg	stimuli_target_squaretriangles.svg	15	yes	44	1	764	0	0			0	0			1				0	
6.6.1	win	2023-06-28	03:03:08	03:13:52	640052	62d68f14d9b476ca9b026253	3	1	main_z	11	advance_on_keypress_ZEE	74	stimuli_distractor_diamondtriangles.svg	stimuli_target_squaretriangles.svg	15	yes	57	0	312	0	0			0	0			1				0	
6.6.1	win	2023-06-28	03:03:08	03:13:55	642989	62d68f14d9b476ca9b026253	3	1	main_z	11	main_z	75	stimuli_distractor_trianglediamonds.svg	stimuli_distractor_diamondtriangles.svg	36	no	0	1	2000	0	0			0	0			1				0	
6.6.1	win	2023-06-28	03:03:08	03:13:55	642989	62d68f14d9b476ca9b026253	3	1	main_z	11	advance_on_keypress_ZEE	76	stimuli_distractor_trianglediamonds.svg	stimuli_distractor_diamondtriangles.svg	36	no	57	0	291	0	0			0	0			1				0	
6.6.1	win	2023-06-28	03:03:08	03:13:58	645925	62d68f14d9b476ca9b026253	3	1	main_z	11	main_z	77	stimuli_target_trianglesquares.svg	stimuli_distractor_diamondtriangles.svg	22	yes	0	0	2000	0	0			0	0			1				0	
6.6.1	win	2023-06-28	03:03:08	03:13:58	645925	62d68f14d9b476ca9b026253	3	1	main_z	11	advance_on_keypress_ZEE	78	stimuli_target_trianglesquares.svg	stimuli_distractor_diamondtriangles.svg	22	yes	57	0	310	0	0			0	0			1				0	
6.6.1	win	2023-06-28	03:03:08	03:14:01	648878	62d68f14d9b476ca9b026253	3	1	main_z	11	main_z	79	stimuli_distractor_trianglediamonds.svg	stimuli_distractor_trianglediamonds.svg	33	no	0	1	2000	0	0			0	0			1				0	
6.6.1	win	2023-06-28	03:03:08	03:14:01	648878	62d68f14d9b476ca9b026253	3	1	main_z	11	advance_on_keypress_ZEE	80	stimuli_distractor_trianglediamonds.svg	stimuli_distractor_trianglediamonds.svg	33	no	57	0	328	0	0			0	0			1				0	
6.6.1	win	2023-06-28	03:03:08	03:14:03	650667	62d68f14d9b476ca9b026253	3	1	main_z	11	main_z	81	stimuli_target_trianglerectangles.svg	stimuli_distractor_trianglediamonds.svg	17	yes	44	1	819	0	0			0	0			1				0	
6.6.1	win	2023-06-28	03:03:08	03:14:03	650667	62d68f14d9b476ca9b026253	3	1	main_z	11	advance_on_keypress_ZEE	82	stimuli_target_trianglerectangles.svg	stimuli_distractor_trianglediamonds.svg	17	yes	57	0	449	0	0			0	0			1				0	
6.6.1	win	2023-06-28	03:03:08	03:14:04	652132	62d68f14d9b476ca9b026253	3	1	main_z	11	main_z	83	stimuli_target_squarediamonds.svg	stimuli_distractor_trianglediamonds.svg	4	yes	44	1	365	0	0			0	0			1				0	
6.6.1	win	2023-06-28	03:03:08	03:14:04	652132	62d68f14d9b476ca9b026253	3	1	main_z	11	advance_on_keypress_ZEE	84	stimuli_target_squarediamonds.svg	stimuli_distractor_trianglediamonds.svg	4	yes	57	0	244	0	0			0	0			1				0	
6.6.1	win	2023-06-28	03:03:08	03:14:07	655018	62d68f14d9b476ca9b026253	3	1	main_z	11	main_z	85	stimuli_distractor_trianglediamonds.svg	stimuli_distractor_trianglediamonds.svg	33	no	0	1	2000	0	0			0	0			1				0	
6.6.1	win	2023-06-28	03:03:08	03:14:07	655018	62d68f14d9b476ca9b026253	3	1	main_z	11	advance_on_keypress_ZEE	86	stimuli_distractor_trianglediamonds.svg	stimuli_distractor_trianglediamonds.svg	33	no	57	0	476	0	0			0	0			1				0	
6.6.1	win	2023-06-28	03:03:08	03:14:08	656530	62d68f14d9b476ca9b026253	3	1	main_z	11	main_z	87	stimuli_distractor_diamondtriangles.svg	stimuli_target_squaretriangles.svg	15	yes	44	1	392	0	0			0	0			1				0	
6.6.1	win	2023-06-28	03:03:08	03:14:08	656530	62d68f14d9b476ca9b026253	3	1	main_z	11	advance_on_keypress_ZEE	88	stimuli_distractor_diamondtriangles.svg	stimuli_target_squaretriangles.svg	15	yes	57	0	245	0	0			0	0			1				0	
6.6.1	win	2023-06-28	03:03:08	03:14:10	657964	62d68f14d9b476ca9b026253	3	1	main_z	11	main_z	89	stimuli_target_diamondrectangles.svg	stimuli_distractor_trianglediamonds.svg	19	yes	44	1	559	0	0			0	0			1				0	
6.6.1	win	2023-06-28	03:03:08	03:14:10	657964	62d68f14d9b476ca9b026253	3	1	main_z	11	advance_on_keypress_ZEE	90	stimuli_target_diamondrectangles.svg	stimuli_distractor_trianglediamonds.svg	19	yes	57	0	246	0	0			0	0			1				0	
6.6.1	win	2023-06-28	03:03:08	03:14:11	659357	62d68f14d9b476ca9b026253	3	1	main_z	11	main_z	91	stimuli_distractor_diamondtriangles.svg	stimuli_target_rectanglediamonds.svg	14	yes	44	1	507	0	0			0	0			1				0	
6.6.1	win	2023-06-28	03:03:08	03:14:11	659357	62d68f14d9b476ca9b026253	3	1	main_z	11	advance_on_keypress_ZEE	92	stimuli_distractor_diamondtriangles.svg	stimuli_target_rectanglediamonds.svg	14	yes	57	0	217	0	0			0	0			1				0	
6.6.1	win	2023-06-28	03:03:08	03:14:13	660963	62d68f14d9b476ca9b026253	3	1	main_z	11	main_z	93	stimuli_distractor_trianglediamonds.svg	stimuli_target_rectangletriangles.svg	9	yes	44	1	738	0	0			0	0			1				0	
6.6.1	win	2023-06-28	03:03:08	03:14:13	660963	62d68f14d9b476ca9b026253	3	1	main_z	11	advance_on_keypress_ZEE	94	stimuli_distractor_trianglediamonds.svg	stimuli_target_rectangletriangles.svg	9	yes	57	0	267	0	0			0	0			1				0	
6.6.1	win	2023-06-28	03:03:08	03:14:14	662301	62d68f14d9b476ca9b026253	3	1	main_z	11	main_z	95	stimuli_distractor_trianglediamonds.svg	stimuli_target_squaretriangles.svg	11	yes	44	1	424	0	0			0	0			1				0	
6.6.1	win	2023-06-28	03:03:08	03:14:14	662301	62d68f14d9b476ca9b026253	3	1	main_z	11	advance_on_keypress_ZEE	96	stimuli_distractor_trianglediamonds.svg	stimuli_target_squaretriangles.svg	11	yes	57	0	249	0	0			0	0			1				0	
6.6.1	win	2023-06-28	03:03:08	03:14:16	663925	62d68f14d9b476ca9b026253	3	1	main_z	11	main_z	97	stimuli_target_diamondsquares.svg	stimuli_distractor_trianglediamonds.svg	20	yes	44	1	731	0	0			0	0			1				0	
6.6.1	win	2023-06-28	03:03:08	03:14:16	663925	62d68f14d9b476ca9b026253	3	1	main_z	11	advance_on_keypress_ZEE	98	stimuli_target_diamondsquares.svg	stimuli_distractor_trianglediamonds.svg	20	yes	57	0	245	0	0			0	0			1				0	
6.6.1	win	2023-06-28	03:03:08	03:14:19	666796	62d68f14d9b476ca9b026253	3	1	main_z	11	main_z	99	stimuli_distractor_diamondtriangles.svg	stimuli_target_diamondrectangles.svg	31	yes	0	0	2000	0	0			0	0			1				0	
6.6.1	win	2023-06-28	03:03:08	03:14:19	666796	62d68f14d9b476ca9b026253	3	1	main_z	11	advance_on_keypress_ZEE	100	stimuli_distractor_diamondtriangles.svg	stimuli_target_diamondrectangles.svg	31	yes	57	0	275	0	0			0	0			1				0	
6.6.1	win	2023-06-28	03:03:08	03:14:20	668319	62d68f14d9b476ca9b026253	3	1	main_z	11	main_z	101	stimuli_distractor_trianglediamonds.svg	stimuli_target_trianglerectangles.svg	25	yes	44	1	604	0	0			0	0			1				0	
6.6.1	win	2023-06-28	03:03:08	03:14:20	668319	62d68f14d9b476ca9b026253	3	1	main_z	11	advance_on_keypress_ZEE	102	stimuli_distractor_trianglediamonds.svg	stimuli_target_trianglerectangles.svg	25	yes	57	0	262	0	0			0	0			1				0	
6.6.1	win	2023-06-28	03:03:08	03:14:23	671217	62d68f14d9b476ca9b026253	3	1	main_z	11	main_z	103	stimuli_target_trianglerectangles.svg	stimuli_distractor_diamondtriangles.svg	21	yes	0	0	2000	0	0			0	0			1				0	
6.6.1	win	2023-06-28	03:03:08	03:14:23	671217	62d68f14d9b476ca9b026253	3	1	main_z	11	advance_on_keypress_ZEE	104	stimuli_target_trianglerectangles.svg	stimuli_distractor_diamondtriangles.svg	21	yes	57	0	308	0	0			0	0			1				0	
6.6.1	win	2023-06-28	03:03:08	03:14:26	674170	62d68f14d9b476ca9b026253	3	1	main_z	11	main_z	105	stimuli_distractor_trianglediamonds.svg	stimuli_target_diamondsquares.svg	28	yes	0	0	2000	0	0			0	0			1				0	
6.6.1	win	2023-06-28	03:03:08	03:14:26	674170	62d68f14d9b476ca9b026253	3	1	main_z	11	advance_on_keypress_ZEE	106	stimuli_distractor_trianglediamonds.svg	stimuli_target_diamondsquares.svg	28	yes	57	0	312	0	0			0	0			1				0	
6.6.1	win	2023-06-28	03:03:08	03:14:29	677123	62d68f14d9b476ca9b026253	3	1	main_z	11	main_z	107	stimuli_distractor_diamondtriangles.svg	stimuli_distractor_diamondtriangles.svg	40	no	0	1	2000	0	0			0	0			1				0	
6.6.1	win	2023-06-28	03:03:08	03:14:29	677123	62d68f14d9b476ca9b026253	3	1	main_z	11	advance_on_keypress_ZEE	108	stimuli_distractor_diamondtriangles.svg	stimuli_distractor_diamondtriangles.svg	40	no	57	0	366	0	0			0	0			1				0	
6.6.1	win	2023-06-28	03:03:08	03:14:32	680143	62d68f14d9b476ca9b026253	3	1	main_z	11	main_z	109	stimuli_distractor_diamondtriangles.svg	stimuli_distractor_trianglediamonds.svg	37	no	0	1	2000	0	0			0	0			1				0	
6.6.1	win	2023-06-28	03:03:08	03:14:32	680143	62d68f14d9b476ca9b026253	3	1	main_z	11	advance_on_keypress_ZEE	110	stimuli_distractor_diamondtriangles.svg	stimuli_distractor_trianglediamonds.svg	37	no	57	0	592	0	0			0	0			1				0	
6.6.1	win	2023-06-28	03:03:08	03:14:34	681925	62d68f14d9b476ca9b026253	3	1	main_z	11	main_z	111	stimuli_distractor_diamondtriangles.svg	stimuli_target_trianglerectangles.svg	29	yes	44	1	545	0	0			0	0			1				0	
6.6.1	win	2023-06-28	03:03:08	03:14:34	681925	62d68f14d9b476ca9b026253	3	1	main_z	11	advance_on_keypress_ZEE	112	stimuli_distractor_diamondtriangles.svg	stimuli_target_trianglerectangles.svg	29	yes	57	0	328	0	0			0	0			1				0	
6.6.1	win	2023-06-28	03:03:08	03:14:35	683398	62d68f14d9b476ca9b026253	3	1	main_z	11	main_z	113	stimuli_target_trianglesquares.svg	stimuli_distractor_trianglediamonds.svg	18	yes	44	1	509	0	0			0	0			1				0	
6.6.1	win	2023-06-28	03:03:08	03:14:35	683398	62d68f14d9b476ca9b026253	3	1	main_z	11	advance_on_keypress_ZEE	114	stimuli_target_trianglesquares.svg	stimuli_distractor_trianglediamonds.svg	18	yes	57	0	277	0	0			0	0			1				0	
6.6.1	win	2023-06-28	03:03:08	03:14:37	684807	62d68f14d9b476ca9b026253	3	1	main_z	11	main_z	115	stimuli_distractor_trianglediamonds.svg	stimuli_target_trianglesquares.svg	26	yes	44	1	492	0	0			0	0			1				0	
6.6.1	win	2023-06-28	03:03:08	03:14:37	684807	62d68f14d9b476ca9b026253	3	1	main_z	11	advance_on_keypress_ZEE	116	stimuli_distractor_trianglediamonds.svg	stimuli_target_trianglesquares.svg	26	yes	57	0	285	0	0			0	0			1				0	
6.6.1	win	2023-06-28	03:03:08	03:14:38	686269	62d68f14d9b476ca9b026253	3	1	main_z	11	main_z	117	stimuli_target_rectanglediamonds.svg	stimuli_distractor_diamondtriangles.svg	6	yes	44	1	535	0	0			0	0			1				0	
6.6.1	win	2023-06-28	03:03:08	03:14:38	686269	62d68f14d9b476ca9b026253	3	1	main_z	11	advance_on_keypress_ZEE	118	stimuli_target_rectanglediamonds.svg	stimuli_distractor_diamondtriangles.svg	6	yes	57	0	278	0	0			0	0			1				0	
6.6.1	win	2023-06-28	03:03:08	03:14:40	687651	62d68f14d9b476ca9b026253	3	1	main_z	11	main_z	119	stimuli_distractor_trianglediamonds.svg	stimuli_target_diamondrectangles.svg	27	yes	44	1	466	0	0			0	0			1				0	
6.6.1	win	2023-06-28	03:03:08	03:14:40	687651	62d68f14d9b476ca9b026253	3	1	main_z	11	advance_on_keypress_ZEE	120	stimuli_distractor_trianglediamonds.svg	stimuli_target_diamondrectangles.svg	27	yes	57	0	262	0	0			0	0			1				0	
6.6.1	win	2023-06-28	03:03:08	03:14:41	689028	62d68f14d9b476ca9b026253	3	1	main_z	11	main_z	121	stimuli_target_squarediamonds.svg	stimuli_distractor_diamondtriangles.svg	8	yes	44	1	475	0	0			0	0			1				0	
6.6.1	win	2023-06-28	03:03:08	03:14:41	689028	62d68f14d9b476ca9b026253	3	1	main_z	11	advance_on_keypress_ZEE	122	stimuli_target_squarediamonds.svg	stimuli_distractor_diamondtriangles.svg	8	yes	57	0	294	0	0			0	0			1				0	
6.6.1	win	2023-06-28	03:03:08	03:14:44	691955	62d68f14d9b476ca9b026253	3	1	main_z	11	main_z	123	stimuli_distractor_diamondtriangles.svg	stimuli_distractor_diamondtriangles.svg	39	no	0	1	2000	0	0			0	0			1				0	
6.6.1	win	2023-06-28	03:03:08	03:14:44	691955	62d68f14d9b476ca9b026253	3	1	main_z	11	advance_on_keypress_ZEE	124	stimuli_distractor_diamondtriangles.svg	stimuli_distractor_diamondtriangles.svg	39	no	57	0	590	0	0			0	0			1				0	
6.6.1	win	2023-06-28	03:03:08	03:14:46	693678	62d68f14d9b476ca9b026253	3	1	main_z	11	main_z	125	stimuli_distractor_diamondtriangles.svg	stimuli_target_diamondsquares.svg	32	yes	44	1	488	0	0			0	0			1				0	
6.6.1	win	2023-06-28	03:03:08	03:14:46	693678	62d68f14d9b476ca9b026253	3	1	main_z	11	advance_on_keypress_ZEE	126	stimuli_distractor_diamondtriangles.svg	stimuli_target_diamondsquares.svg	32	yes	57	0	297	0	0			0	0			1				0	
6.6.1	win	2023-06-28	03:03:08	03:14:47	694985	62d68f14d9b476ca9b026253	3	1	main_z	11	main_z	127	stimuli_target_rectangletriangles.svg	stimuli_distractor_trianglediamonds.svg	1	yes	44	1	359	0	0			0	0			1				0	
6.6.1	win	2023-06-28	03:03:08	03:14:47	694985	62d68f14d9b476ca9b026253	3	1	main_z	11	advance_on_keypress_ZEE	128	stimuli_target_rectangletriangles.svg	stimuli_distractor_trianglediamonds.svg	1	yes	57	0	289	0	0			0	0			1				0	
6.6.1	win	2023-06-28	03:03:08	03:14:48	696294	62d68f14d9b476ca9b026253	3	1	main_z	11	main_z	129	stimuli_distractor_diamondtriangles.svg	stimuli_target_rectangletriangles.svg	13	yes	44	1	376	0	0			0	0			1				0	
6.6.1	win	2023-06-28	03:03:08	03:14:48	696294	62d68f14d9b476ca9b026253	3	1	main_z	11	advance_on_keypress_ZEE	130	stimuli_distractor_diamondtriangles.svg	stimuli_target_rectangletriangles.svg	13	yes	57	0	252	0	0			0	0			1				0	
6.6.1	win	2023-06-28	03:03:08	03:14:49	697580	62d68f14d9b476ca9b026253	3	1	main_z	11	main_z	131	stimuli_distractor_diamondtriangles.svg	stimuli_target_trianglesquares.svg	30	yes	44	1	385	0	0			0	0			1				0	
6.6.1	win	2023-06-28	03:03:08	03:14:49	697580	62d68f14d9b476ca9b026253	3	1	main_z	11	advance_on_keypress_ZEE	132	stimuli_distractor_diamondtriangles.svg	stimuli_target_trianglesquares.svg	30	yes	57	0	326	0	0			0	0			1				0	
6.6.1	win	2023-06-28	03:03:08	03:14:51	698887	62d68f14d9b476ca9b026253	3	1	main_z	11	main_z	133	stimuli_distractor_trianglediamonds.svg	stimuli_distractor_diamondtriangles.svg	36	no	44	0	341	0	0			0	0			1				0	
6.6.1	win	2023-06-28	03:03:08	03:14:51	698887	62d68f14d9b476ca9b026253	3	1	main_z	11	advance_on_keypress_ZEE	134	stimuli_distractor_trianglediamonds.svg	stimuli_distractor_diamondtriangles.svg	36	no	57	0	681	0	0			0	0			1				0	
6.6.1	win	2023-06-28	03:03:08	03:14:54	702198	62d68f14d9b476ca9b026253	3	1	main_z	11	main_z	135	stimuli_distractor_diamondtriangles.svg	stimuli_distractor_trianglediamonds.svg	38	no	0	1	2000	0	0			0	0			1				0	
6.6.1	win	2023-06-28	03:03:08	03:14:54	702198	62d68f14d9b476ca9b026253	3	1	main_z	11	advance_on_keypress_ZEE	136	stimuli_distractor_diamondtriangles.svg	stimuli_distractor_trianglediamonds.svg	38	no	57	0	465	0	0			0	0			1				0	
6.6.1	win	2023-06-28	03:03:08	03:14:56	703837	62d68f14d9b476ca9b026253	3	1	main_z	11	main_z	137	stimuli_target_diamondsquares.svg	stimuli_distractor_diamondtriangles.svg	24	yes	44	1	520	0	0			0	0			1				0	
6.6.1	win	2023-06-28	03:03:08	03:14:56	703837	62d68f14d9b476ca9b026253	3	1	main_z	11	advance_on_keypress_ZEE	138	stimuli_target_diamondsquares.svg	stimuli_distractor_diamondtriangles.svg	24	yes	57	0	261	0	0			0	0			1				0	
6.6.1	win	2023-06-28	03:03:08	03:14:57	705120	62d68f14d9b476ca9b026253	3	1	main_z	11	main_z	139	stimuli_target_squaretriangles.svg	stimuli_distractor_diamondtriangles.svg	7	yes	44	1	369	0	0			0	0			1				0	
6.6.1	win	2023-06-28	03:03:08	03:14:57	705120	62d68f14d9b476ca9b026253	3	1	main_z	11	advance_on_keypress_ZEE	140	stimuli_target_squaretriangles.svg	stimuli_distractor_diamondtriangles.svg	7	yes	57	0	209	0	0			0	0			1				0	
6.6.1	win	2023-06-28	03:03:08	03:14:58	706488	62d68f14d9b476ca9b026253	3	1	main_z	11	main_z	141	stimuli_target_trianglesquares.svg	stimuli_distractor_diamondtriangles.svg	22	yes	44	1	503	0	0			0	0			1				0	
6.6.1	win	2023-06-28	03:03:08	03:14:58	706488	62d68f14d9b476ca9b026253	3	1	main_z	11	advance_on_keypress_ZEE	142	stimuli_target_trianglesquares.svg	stimuli_distractor_diamondtriangles.svg	22	yes	57	0	213	0	0			0	0			1				0	
6.6.1	win	2023-06-28	03:03:08	03:15:00	707726	62d68f14d9b476ca9b026253	3	1	main_z	11	main_z	143	stimuli_target_rectangletriangles.svg	stimuli_distractor_diamondtriangles.svg	5	yes	44	1	388	0	0			0	0			1				0	
6.6.1	win	2023-06-28	03:03:08	03:15:00	707726	62d68f14d9b476ca9b026253	3	1	main_z	11	advance_on_keypress_ZEE	144	stimuli_target_rectangletriangles.svg	stimuli_distractor_diamondtriangles.svg	5	yes	57	0	246	0	0			0	0			1				0	
6.6.1	win	2023-06-28	03:03:08	03:15:02	710607	62d68f14d9b476ca9b026253	3	1	main_z	11	main_z	145	stimuli_distractor_trianglediamonds.svg	stimuli_distractor_trianglediamonds.svg	34	no	0	1	2000	0	0			0	0			1				0	
6.6.1	win	2023-06-28	03:03:08	03:15:02	710607	62d68f14d9b476ca9b026253	3	1	main_z	11	advance_on_keypress_ZEE	146	stimuli_distractor_trianglediamonds.svg	stimuli_distractor_trianglediamonds.svg	34	no	57	0	345	0	0			0	0			1				0	
6.6.1	win	2023-06-28	03:03:08	03:15:05	713593	62d68f14d9b476ca9b026253	3	1	main_z	11	main_z	147	stimuli_distractor_trianglediamonds.svg	stimuli_distractor_diamondtriangles.svg	35	no	0	1	2000	0	0			0	0			1				0	
6.6.1	win	2023-06-28	03:03:08	03:15:05	713593	62d68f14d9b476ca9b026253	3	1	main_z	11	advance_on_keypress_ZEE	148	stimuli_distractor_trianglediamonds.svg	stimuli_distractor_diamondtriangles.svg	35	no	57	0	321	0	0			0	0			1				0	
6.6.1	win	2023-06-28	03:03:08	03:15:07	715212	62d68f14d9b476ca9b026253	3	1	main_z	11	main_z	149	stimuli_distractor_diamondtriangles.svg	stimuli_target_squarediamonds.svg	16	yes	44	1	649	0	0			0	0			1				0	
6.6.1	win	2023-06-28	03:03:08	03:15:07	715212	62d68f14d9b476ca9b026253	3	1	main_z	11	advance_on_keypress_ZEE	150	stimuli_distractor_diamondtriangles.svg	stimuli_target_squarediamonds.svg	16	yes	57	0	195	0	0			0	0			1				0	
6.6.1	win	2023-06-28	03:03:08	03:15:08	716412	62d68f14d9b476ca9b026253	3	1	main_z	11	main_z	151	stimuli_target_squaretriangles.svg	stimuli_distractor_trianglediamonds.svg	3	yes	44	1	364	0	0			0	0			1				0	
6.6.1	win	2023-06-28	03:03:08	03:15:08	716412	62d68f14d9b476ca9b026253	3	1	main_z	11	advance_on_keypress_ZEE	152	stimuli_target_squaretriangles.svg	stimuli_distractor_trianglediamonds.svg	3	yes	57	0	211	0	0			0	0			1				0	
6.6.1	win	2023-06-28	03:03:08	03:15:10	717727	62d68f14d9b476ca9b026253	3	1	main_z	11	main_z	153	stimuli_target_diamondrectangles.svg	stimuli_distractor_diamondtriangles.svg	23	yes	44	1	479	0	0			0	0			1				0	
6.6.1	win	2023-06-28	03:03:08	03:15:10	717727	62d68f14d9b476ca9b026253	3	1	main_z	11	advance_on_keypress_ZEE	154	stimuli_target_diamondrectangles.svg	stimuli_distractor_diamondtriangles.svg	23	yes	57	0	254	0	0			0	0			1				0	
6.6.1	win	2023-06-28	03:03:08	03:15:11	719026	62d68f14d9b476ca9b026253	3	1	main_z	11	main_z	155	stimuli_target_rectanglediamonds.svg	stimuli_distractor_trianglediamonds.svg	2	yes	44	1	410	0	0			0	0			1				0	
6.6.1	win	2023-06-28	03:03:08	03:15:11	719026	62d68f14d9b476ca9b026253	3	1	main_z	11	advance_on_keypress_ZEE	156	stimuli_target_rectanglediamonds.svg	stimuli_distractor_trianglediamonds.svg	2	yes	57	0	246	0	0			0	0			1				0	
6.6.1	win	2023-06-28	03:03:08	03:15:12	720483	62d68f14d9b476ca9b026253	3	1	main_z	11	main_z	157	stimuli_distractor_trianglediamonds.svg	stimuli_target_squarediamonds.svg	12	yes	44	1	581	0	0			0	0			1				0	
6.6.1	win	2023-06-28	03:03:08	03:15:12	720483	62d68f14d9b476ca9b026253	3	1	main_z	11	advance_on_keypress_ZEE	158	stimuli_distractor_trianglediamonds.svg	stimuli_target_squarediamonds.svg	12	yes	57	0	239	0	0			0	0			1				0	
6.6.1	win	2023-06-28	03:03:08	03:15:14	721813	62d68f14d9b476ca9b026253	3	1	main_z	11	main_z	159	stimuli_distractor_trianglediamonds.svg	stimuli_target_rectanglediamonds.svg	10	yes	44	1	460	0	0			0	0			1				0	
6.6.1	win	2023-06-28	03:03:08	03:15:14	721813	62d68f14d9b476ca9b026253	3	1	main_z	11	advance_on_keypress_ZEE	160	stimuli_distractor_trianglediamonds.svg	stimuli_target_rectanglediamonds.svg	10	yes	57	0	193	0	0			0	0			1				0	
6.6.1	win	2023-06-28	03:03:08	03:15:14	721813	62d68f14d9b476ca9b026253	3	1	headphonecheck_calibration	14	headphonecheck_calibrationIntro	1	stimuli_distractor_trianglediamonds.svg	stimuli_target_rectanglediamonds.svg	10	yes	calibrationButton	0	1926	0	0			0	0			1				0	
6.6.1	win	2023-06-28	03:03:08	03:15:14	721813	62d68f14d9b476ca9b026253	3	1	headphonecheck_testphase	15	test_collectResponse	3	stimuli_distractor_trianglediamonds.svg	stimuli_target_rectanglediamonds.svg	10	yes	second	1	9195	1	5	antiphase_hc_osi.wav	2	0	0			1				0	
6.6.1	win	2023-06-28	03:03:08	03:15:14	721813	62d68f14d9b476ca9b026253	3	1	headphonecheck_testphase	15	test_collectResponse	6	stimuli_distractor_trianglediamonds.svg	stimuli_target_rectanglediamonds.svg	10	yes	second	1	376	2	1	antiphase_hc_iso.wav	2	0	0			1				0	
6.6.1	win	2023-06-28	03:03:08	03:15:14	721813	62d68f14d9b476ca9b026253	3	1	headphonecheck_testphase	15	test_collectResponse	9	stimuli_distractor_trianglediamonds.svg	stimuli_target_rectanglediamonds.svg	10	yes	first	1	282	3	3	antiphase_hc_soi.wav	1	0	0			1				0	
6.6.1	win	2023-06-28	03:03:08	03:15:14	721813	62d68f14d9b476ca9b026253	3	1	headphonecheck_testphase	15	test_collectResponse	12	stimuli_distractor_trianglediamonds.svg	stimuli_target_rectanglediamonds.svg	10	yes	third	1	239	4	6	antiphase_hc_ois.wav	3	0	0			1				0	
6.6.1	win	2023-06-28	03:03:08	03:15:14	721813	62d68f14d9b476ca9b026253	3	1	headphonecheck_testphase	15	test_collectResponse	15	stimuli_distractor_trianglediamonds.svg	stimuli_target_rectanglediamonds.svg	10	yes	first	1	136	5	4	antiphase_hc_sio.wav	1	0	0			1				0	
6.6.1	win	2023-06-28	03:03:08	03:15:14	721813	62d68f14d9b476ca9b026253	3	1	headphonecheck_testphase	15	test_collectResponse	18	stimuli_distractor_trianglediamonds.svg	stimuli_target_rectanglediamonds.svg	10	yes	third	1	225	6	2	antiphase_hc_ios.wav	3	0	0			1				0	
6.6.1	win	2023-06-28	03:03:08	03:15:14	721813	62d68f14d9b476ca9b026253	3	1	stereocheck_calibration	17	stereocheck_calibrationIntro	1	stimuli_distractor_trianglediamonds.svg	stimuli_target_rectanglediamonds.svg	10	yes	stereocheck_calibrationButton	0	2939	6	2	antiphase_hc_ios.wav	3	0	0			1				0	
6.6.1	win	2023-06-28	03:03:08	03:15:14	721813	62d68f14d9b476ca9b026253	3	1	stereocheck_testphase	18	stereocheck_test_collectResponse	3	stimuli_distractor_trianglediamonds.svg	stimuli_target_rectanglediamonds.svg	10	yes	stereocheck_right	1	201	6	2	antiphase_hc_ios.wav	3	1	4	noise_calib_stim_RIGHT.wav	2	1				0	
6.6.1	win	2023-06-28	03:03:08	03:15:14	721813	62d68f14d9b476ca9b026253	3	1	stereocheck_testphase	18	stereocheck_test_collectResponse	6	stimuli_distractor_trianglediamonds.svg	stimuli_target_rectanglediamonds.svg	10	yes	stereocheck_left	1	223	6	2	antiphase_hc_ios.wav	3	2	1	noise_calib_stim_LEFT.wav	1	1				0	
6.6.1	win	2023-06-28	03:03:08	03:15:14	721813	62d68f14d9b476ca9b026253	3	1	stereocheck_testphase	18	stereocheck_test_collectResponse	9	stimuli_distractor_trianglediamonds.svg	stimuli_target_rectanglediamonds.svg	10	yes	stereocheck_left	1	307	6	2	antiphase_hc_ios.wav	3	3	3	noise_calib_stim_LEFT.wav	1	1				0	
6.6.1	win	2023-06-28	03:03:08	03:15:14	721813	62d68f14d9b476ca9b026253	3	1	stereocheck_testphase	18	stereocheck_test_collectResponse	12	stimuli_distractor_trianglediamonds.svg	stimuli_target_rectanglediamonds.svg	10	yes	stereocheck_right	1	267	6	2	antiphase_hc_ios.wav	3	4	5	noise_calib_stim_RIGHT.wav	2	1				0	
6.6.1	win	2023-06-28	03:03:08	03:15:14	721813	62d68f14d9b476ca9b026253	3	1	stereocheck_testphase	18	stereocheck_test_collectResponse	15	stimuli_distractor_trianglediamonds.svg	stimuli_target_rectanglediamonds.svg	10	yes	stereocheck_left	1	986	6	2	antiphase_hc_ios.wav	3	5	2	noise_calib_stim_LEFT.wav	1	1				0	
6.6.1	win	2023-06-28	03:03:08	03:15:14	721813	62d68f14d9b476ca9b026253	3	1	stereocheck_testphase	18	stereocheck_test_collectResponse	18	stimuli_distractor_trianglediamonds.svg	stimuli_target_rectanglediamonds.svg	10	yes	stereocheck_right	1	387	6	2	antiphase_hc_ios.wav	3	6	6	noise_calib_stim_RIGHT.wav	2	1				0	
6.6.1	win	2023-06-28	03:03:08	03:15:14	721813	62d68f14d9b476ca9b026253	3	1	DL_practice	21	DL_practice	2	stimuli_distractor_trianglediamonds.svg	stimuli_target_rectanglediamonds.svg	10	yes	da	1	1317	6	2	antiphase_hc_ios.wav	3	6	6	noise_calib_stim_RIGHT.wav	2	8	blb_dichoticlistening_da-da.mp3	da	da	0	left
6.6.1	win	2023-06-28	03:03:08	03:15:14	721813	62d68f14d9b476ca9b026253	3	1	DL_practice	21	DL_practice	3	stimuli_distractor_trianglediamonds.svg	stimuli_target_rectanglediamonds.svg	10	yes	ga	1	893	6	2	antiphase_hc_ios.wav	3	6	6	noise_calib_stim_RIGHT.wav	2	15	blb_dichoticlistening_ga-ga.mp3	ga	ga	0	left
6.6.1	win	2023-06-28	03:03:08	03:15:14	721813	62d68f14d9b476ca9b026253	3	1	DL_practice	21	DL_practice	4	stimuli_distractor_trianglediamonds.svg	stimuli_target_rectanglediamonds.svg	10	yes	ka	0	1791	6	2	antiphase_hc_ios.wav	3	6	6	noise_calib_stim_RIGHT.wav	2	18	blb_dichoticlistening_ga-ta.mp3	ga	ta	1	other
6.6.1	win	2023-06-28	03:03:08	03:15:14	721813	62d68f14d9b476ca9b026253	3	1	DL_practice	21	DL_practice	5	stimuli_distractor_trianglediamonds.svg	stimuli_target_rectanglediamonds.svg	10	yes	pa	1	928	6	2	antiphase_hc_ios.wav	3	6	6	noise_calib_stim_RIGHT.wav	2	29	blb_dichoticlistening_pa-pa.mp3	pa	pa	0	left
6.6.1	win	2023-06-28	03:03:08	03:15:14	721813	62d68f14d9b476ca9b026253	3	1	DL_practice	21	DL_practice	6	stimuli_distractor_trianglediamonds.svg	stimuli_target_rectanglediamonds.svg	10	yes	da	1	1138	6	2	antiphase_hc_ios.wav	3	6	6	noise_calib_stim_RIGHT.wav	2	7	blb_dichoticlistening_da-ba.mp3	da	ba	1	left
6.6.1	win	2023-06-28	03:03:08	03:15:14	721813	62d68f14d9b476ca9b026253	3	1	DL_practice	21	DL_practice	7	stimuli_distractor_trianglediamonds.svg	stimuli_target_rectanglediamonds.svg	10	yes	ta	1	1482	6	2	antiphase_hc_ios.wav	3	6	6	noise_calib_stim_RIGHT.wav	2	36	blb_dichoticlistening_ta-ta.mp3	ta	ta	0	left
6.6.1	win	2023-06-28	03:03:08	03:15:14	721813	62d68f14d9b476ca9b026253	3	1	DL_practice	21	DL_practice	8	stimuli_distractor_trianglediamonds.svg	stimuli_target_rectanglediamonds.svg	10	yes	ba	1	1624	6	2	antiphase_hc_ios.wav	3	6	6	noise_calib_stim_RIGHT.wav	2	1	blb_dichoticlistening_ba-ba.mp3	ba	ba	0	left
6.6.1	win	2023-06-28	03:03:08	03:15:14	721813	62d68f14d9b476ca9b026253	3	1	DL_practice	21	DL_practice	9	stimuli_distractor_trianglediamonds.svg	stimuli_target_rectanglediamonds.svg	10	yes	ka	1	1278	6	2	antiphase_hc_ios.wav	3	6	6	noise_calib_stim_RIGHT.wav	2	22	blb_dichoticlistening_ka-ka.mp3	ka	ka	0	left
6.6.1	win	2023-06-28	03:03:08	03:15:14	721813	62d68f14d9b476ca9b026253	3	1	DL_practice	21	DL_practice	10	stimuli_distractor_trianglediamonds.svg	stimuli_target_rectanglediamonds.svg	10	yes	pa	1	1970	6	2	antiphase_hc_ios.wav	3	6	6	noise_calib_stim_RIGHT.wav	2	23	blb_dichoticlistening_ka-pa.mp3	ka	pa	1	right
6.6.1	win	2023-06-28	03:03:08	03:15:14	721813	62d68f14d9b476ca9b026253	3	1	DL_test	23	DL_test	1	stimuli_distractor_trianglediamonds.svg	stimuli_target_rectanglediamonds.svg	10	yes	ba	1	1386	6	2	antiphase_hc_ios.wav	3	6	6	noise_calib_stim_RIGHT.wav	2	13	blb_dichoticlistening_ga-ba.mp3	ga	ba	1	right
6.6.1	win	2023-06-28	03:03:08	03:15:14	721813	62d68f14d9b476ca9b026253	3	1	DL_test	23	DL_test	2	stimuli_distractor_trianglediamonds.svg	stimuli_target_rectanglediamonds.svg	10	yes	pa	1	1738	6	2	antiphase_hc_ios.wav	3	6	6	noise_calib_stim_RIGHT.wav	2	30	blb_dichoticlistening_pa-ta.mp3	pa	ta	1	left
6.6.1	win	2023-06-28	03:03:08	03:15:14	721813	62d68f14d9b476ca9b026253	3	1	DL_test	23	DL_test	3	stimuli_distractor_trianglediamonds.svg	stimuli_target_rectanglediamonds.svg	10	yes	da	1	1266	6	2	antiphase_hc_ios.wav	3	6	6	noise_calib_stim_RIGHT.wav	2	8	blb_dichoticlistening_da-da.mp3	da	da	0	left
6.6.1	win	2023-06-28	03:03:08	03:15:14	721813	62d68f14d9b476ca9b026253	3	1	DL_test	23	DL_test	4	stimuli_distractor_trianglediamonds.svg	stimuli_target_rectanglediamonds.svg	10	yes	ga	1	1040	6	2	antiphase_hc_ios.wav	3	6	6	noise_calib_stim_RIGHT.wav	2	21	blb_dichoticlistening_ka-ga.mp3	ka	ga	1	right
6.6.1	win	2023-06-28	03:03:08	03:15:14	721813	62d68f14d9b476ca9b026253	3	1	DL_test	23	DL_test	5	stimuli_distractor_trianglediamonds.svg	stimuli_target_rectanglediamonds.svg	10	yes	ga	1	1619	6	2	antiphase_hc_ios.wav	3	6	6	noise_calib_stim_RIGHT.wav	2	9	blb_dichoticlistening_da-ga.mp3	da	ga	1	right
6.6.1	win	2023-06-28	03:03:08	03:15:14	721813	62d68f14d9b476ca9b026253	3	1	DL_test	23	DL_test	6	stimuli_distractor_trianglediamonds.svg	stimuli_target_rectanglediamonds.svg	10	yes	pa	1	1033	6	2	antiphase_hc_ios.wav	3	6	6	noise_calib_stim_RIGHT.wav	2	11	blb_dichoticlistening_da-pa.mp3	da	pa	1	right
6.6.1	win	2023-06-28	03:03:08	03:15:14	721813	62d68f14d9b476ca9b026253	3	1	DL_test	23	DL_test	7	stimuli_distractor_trianglediamonds.svg	stimuli_target_rectanglediamonds.svg	10	yes	pa	1	821	6	2	antiphase_hc_ios.wav	3	6	6	noise_calib_stim_RIGHT.wav	2	17	blb_dichoticlistening_ga-pa.mp3	ga	pa	1	right
6.6.1	win	2023-06-28	03:03:08	03:15:14	721813	62d68f14d9b476ca9b026253	3	1	DL_test	23	DL_test	8	stimuli_distractor_trianglediamonds.svg	stimuli_target_rectanglediamonds.svg	10	yes	da	1	1893	6	2	antiphase_hc_ios.wav	3	6	6	noise_calib_stim_RIGHT.wav	2	32	blb_dichoticlistening_ta-da.mp3	ta	da	1	right
6.6.1	win	2023-06-28	03:03:08	03:15:14	721813	62d68f14d9b476ca9b026253	3	1	DL_test	23	DL_test	9	stimuli_distractor_trianglediamonds.svg	stimuli_target_rectanglediamonds.svg	10	yes	ga	1	1015	6	2	antiphase_hc_ios.wav	3	6	6	noise_calib_stim_RIGHT.wav	2	3	blb_dichoticlistening_ba-ga.mp3	ba	ga	1	right
6.6.1	win	2023-06-28	03:03:08	03:15:14	721813	62d68f14d9b476ca9b026253	3	1	DL_test	23	DL_test	10	stimuli_distractor_trianglediamonds.svg	stimuli_target_rectanglediamonds.svg	10	yes	ga	1	756	6	2	antiphase_hc_ios.wav	3	6	6	noise_calib_stim_RIGHT.wav	2	33	blb_dichoticlistening_ta-ga.mp3	ta	ga	1	right
6.6.1	win	2023-06-28	03:03:08	03:15:14	721813	62d68f14d9b476ca9b026253	3	1	DL_test	23	DL_test	11	stimuli_distractor_trianglediamonds.svg	stimuli_target_rectanglediamonds.svg	10	yes	pa	1	1396	6	2	antiphase_hc_ios.wav	3	6	6	noise_calib_stim_RIGHT.wav	2	26	blb_dichoticlistening_pa-da.mp3	pa	da	1	left
6.6.1	win	2023-06-28	03:03:08	03:15:14	721813	62d68f14d9b476ca9b026253	3	1	DL_test	23	DL_test	12	stimuli_distractor_trianglediamonds.svg	stimuli_target_rectanglediamonds.svg	10	yes	ba	1	1233	6	2	antiphase_hc_ios.wav	3	6	6	noise_calib_stim_RIGHT.wav	2	1	blb_dichoticlistening_ba-ba.mp3	ba	ba	0	left
6.6.1	win	2023-06-28	03:03:08	03:15:14	721813	62d68f14d9b476ca9b026253	3	1	DL_test	23	DL_test	13	stimuli_distractor_trianglediamonds.svg	stimuli_target_rectanglediamonds.svg	10	yes	ba	1	1359	6	2	antiphase_hc_ios.wav	3	6	6	noise_calib_stim_RIGHT.wav	2	2	blb_dichoticlistening_ba-da.mp3	ba	da	1	left
6.6.1	win	2023-06-28	03:03:08	03:15:14	721813	62d68f14d9b476ca9b026253	3	1	DL_test	23	DL_test	14	stimuli_distractor_trianglediamonds.svg	stimuli_target_rectanglediamonds.svg	10	yes	pa	0	1035	6	2	antiphase_hc_ios.wav	3	6	6	noise_calib_stim_RIGHT.wav	2	19	blb_dichoticlistening_ka-ba.mp3	ka	ba	1	other
6.6.1	win	2023-06-28	03:03:08	03:15:14	721813	62d68f14d9b476ca9b026253	3	1	DL_test	23	DL_test	15	stimuli_distractor_trianglediamonds.svg	stimuli_target_rectanglediamonds.svg	10	yes	ta	1	1066	6	2	antiphase_hc_ios.wav	3	6	6	noise_calib_stim_RIGHT.wav	2	12	blb_dichoticlistening_da-ta.mp3	da	ta	1	right
6.6.1	win	2023-06-28	03:03:08	03:15:14	721813	62d68f14d9b476ca9b026253	3	1	DL_test	23	DL_test	16	stimuli_distractor_trianglediamonds.svg	stimuli_target_rectanglediamonds.svg	10	yes	pa	1	761	6	2	antiphase_hc_ios.wav	3	6	6	noise_calib_stim_RIGHT.wav	2	5	blb_dichoticlistening_ba-pa.mp3	ba	pa	1	right
6.6.1	win	2023-06-28	03:03:08	03:15:14	721813	62d68f14d9b476ca9b026253	3	1	DL_test	23	DL_test	17	stimuli_distractor_trianglediamonds.svg	stimuli_target_rectanglediamonds.svg	10	yes	ka	0	1057	6	2	antiphase_hc_ios.wav	3	6	6	noise_calib_stim_RIGHT.wav	2	18	blb_dichoticlistening_ga-ta.mp3	ga	ta	1	other
6.6.1	win	2023-06-28	03:03:08	03:15:14	721813	62d68f14d9b476ca9b026253	3	1	DL_test	23	DL_test	18	stimuli_distractor_trianglediamonds.svg	stimuli_target_rectanglediamonds.svg	10	yes	pa	1	924	6	2	antiphase_hc_ios.wav	3	6	6	noise_calib_stim_RIGHT.wav	2	28	blb_dichoticlistening_pa-ka.mp3	pa	ka	1	left
6.6.1	win	2023-06-28	03:03:08	03:15:14	721813	62d68f14d9b476ca9b026253	3	1	DL_test	23	DL_test	19	stimuli_distractor_trianglediamonds.svg	stimuli_target_rectanglediamonds.svg	10	yes	ka	1	889	6	2	antiphase_hc_ios.wav	3	6	6	noise_calib_stim_RIGHT.wav	2	16	blb_dichoticlistening_ga-ka.mp3	ga	ka	1	right
6.6.1	win	2023-06-28	03:03:08	03:15:14	721813	62d68f14d9b476ca9b026253	3	1	DL_test	23	DL_test	20	stimuli_distractor_trianglediamonds.svg	stimuli_target_rectanglediamonds.svg	10	yes	pa	1	701	6	2	antiphase_hc_ios.wav	3	6	6	noise_calib_stim_RIGHT.wav	2	23	blb_dichoticlistening_ka-pa.mp3	ka	pa	1	right
6.6.1	win	2023-06-28	03:03:08	03:15:14	721813	62d68f14d9b476ca9b026253	3	1	DL_test	23	DL_test	21	stimuli_distractor_trianglediamonds.svg	stimuli_target_rectanglediamonds.svg	10	yes	ka	0	620	6	2	antiphase_hc_ios.wav	3	6	6	noise_calib_stim_RIGHT.wav	2	36	blb_dichoticlistening_ta-ta.mp3	ta	ta	0	other
6.6.1	win	2023-06-28	03:03:08	03:15:14	721813	62d68f14d9b476ca9b026253	3	1	DL_test	23	DL_test	22	stimuli_distractor_trianglediamonds.svg	stimuli_target_rectanglediamonds.svg	10	yes	pa	1	1006	6	2	antiphase_hc_ios.wav	3	6	6	noise_calib_stim_RIGHT.wav	2	35	blb_dichoticlistening_ta-pa.mp3	ta	pa	1	right
6.6.1	win	2023-06-28	03:03:08	03:15:14	721813	62d68f14d9b476ca9b026253	3	1	DL_test	23	DL_test	23	stimuli_distractor_trianglediamonds.svg	stimuli_target_rectanglediamonds.svg	10	yes	pa	1	913	6	2	antiphase_hc_ios.wav	3	6	6	noise_calib_stim_RIGHT.wav	2	25	blb_dichoticlistening_pa-ba.mp3	pa	ba	1	left
6.6.1	win	2023-06-28	03:03:08	03:15:14	721813	62d68f14d9b476ca9b026253	3	1	DL_test	23	DL_test	24	stimuli_distractor_trianglediamonds.svg	stimuli_target_rectanglediamonds.svg	10	yes	ba	1	1348	6	2	antiphase_hc_ios.wav	3	6	6	noise_calib_stim_RIGHT.wav	2	31	blb_dichoticlistening_ta-ba.mp3	ta	ba	1	right
6.6.1	win	2023-06-28	03:03:08	03:15:14	721813	62d68f14d9b476ca9b026253	3	1	DL_test	23	DL_test	25	stimuli_distractor_trianglediamonds.svg	stimuli_target_rectanglediamonds.svg	10	yes	ga	1	778	6	2	antiphase_hc_ios.wav	3	6	6	noise_calib_stim_RIGHT.wav	2	15	blb_dichoticlistening_ga-ga.mp3	ga	ga	0	left
6.6.1	win	2023-06-28	03:03:08	03:15:14	721813	62d68f14d9b476ca9b026253	3	1	DL_test	23	DL_test	26	stimuli_distractor_trianglediamonds.svg	stimuli_target_rectanglediamonds.svg	10	yes	pa	0	1840	6	2	antiphase_hc_ios.wav	3	6	6	noise_calib_stim_RIGHT.wav	2	6	blb_dichoticlistening_ba-ta.mp3	ba	ta	1	other
