build	computer.platform	date	time	timestamp	time_elapsed_ms	subject	group	session	blockcode	blocknum	trialcode	trialnum	stimulus_left	stimulus_right	stim_index	target_present	response	correct	latency	headphonecheck_countTestTrials	headphonecheck_index	headphonecheck_testSound	headphonecheck_correctResponse	stereocheck_countTestTrials	stereocheck_index	stereocheck_testSound	stereocheck_correctResponse	DL_index	DL_soundfile	DL_leftSound	DL_rightSound	DL_dualSound	DL_choice
6.6.1	win	2023-07-10	10:56:13	11:02:45	387700	6107a5be3cbf757b3297d8a1	3	1	practice_slash	5	practice_slash	1	stimuli_distractor_diamondtriangles.svg	stimuli_target_rectangletriangles.svg	7	yes	0	0	2000	0	0			0	0			1				0	
6.6.1	win	2023-07-10	10:56:13	11:02:45	387700	6107a5be3cbf757b3297d8a1	3	1	practice_slash	5	advance_on_keypress_SLASH	2	stimuli_distractor_diamondtriangles.svg	stimuli_target_rectangletriangles.svg	7	yes	57	0	1037	0	0			0	0			1				0	
6.6.1	win	2023-07-10	10:56:13	11:02:48	391185	6107a5be3cbf757b3297d8a1	3	1	practice_slash	5	practice_slash	3	stimuli_distractor_trianglediamonds.svg	stimuli_distractor_trianglediamonds.svg	15	no	53	0	770	0	0			0	0			1				0	
6.6.1	win	2023-07-10	10:56:13	11:02:48	391185	6107a5be3cbf757b3297d8a1	3	1	practice_slash	5	advance_on_keypress_SLASH	4	stimuli_distractor_trianglediamonds.svg	stimuli_distractor_trianglediamonds.svg	15	no	57	0	1297	0	0			0	0			1				0	
6.6.1	win	2023-07-10	10:56:13	11:02:52	394470	6107a5be3cbf757b3297d8a1	3	1	practice_slash	5	practice_slash	5	stimuli_target_rectanglediamonds.svg	stimuli_distractor_trianglediamonds.svg	4	yes	53	1	339	0	0			0	0			1				0	
6.6.1	win	2023-07-10	10:56:13	11:02:52	394470	6107a5be3cbf757b3297d8a1	3	1	practice_slash	5	advance_on_keypress_SLASH	6	stimuli_target_rectanglediamonds.svg	stimuli_distractor_trianglediamonds.svg	4	yes	57	0	3445	0	0			0	0			1				0	
6.6.1	win	2023-07-10	10:56:13	11:02:57	400092	6107a5be3cbf757b3297d8a1	3	1	practice_slash	5	practice_slash	7	stimuli_distractor_diamondtriangles.svg	stimuli_target_trianglerectangles.svg	9	yes	53	1	527	0	0			0	0			1				0	
6.6.1	win	2023-07-10	10:56:13	11:02:57	400092	6107a5be3cbf757b3297d8a1	3	1	practice_slash	5	advance_on_keypress_SLASH	8	stimuli_distractor_diamondtriangles.svg	stimuli_target_trianglerectangles.svg	9	yes	57	0	488	0	0			0	0			1				0	
6.6.1	win	2023-07-10	10:56:13	11:03:02	404248	6107a5be3cbf757b3297d8a1	3	1	practice_slash	5	practice_slash	9	stimuli_target_diamondsquares.svg	stimuli_distractor_diamondtriangles.svg	3	yes	0	0	2000	0	0			0	0			1				0	
6.6.1	win	2023-07-10	10:56:13	11:03:02	404248	6107a5be3cbf757b3297d8a1	3	1	practice_slash	5	advance_on_keypress_SLASH	10	stimuli_target_diamondsquares.svg	stimuli_distractor_diamondtriangles.svg	3	yes	57	0	488	0	0			0	0			1				0	
6.6.1	win	2023-07-10	10:56:13	11:03:04	406762	6107a5be3cbf757b3297d8a1	3	1	practice_slash	5	practice_slash	11	stimuli_target_rectanglediamonds.svg	stimuli_distractor_diamondtriangles.svg	1	yes	53	1	382	0	0			0	0			1				0	
6.6.1	win	2023-07-10	10:56:13	11:03:04	406762	6107a5be3cbf757b3297d8a1	3	1	practice_slash	5	advance_on_keypress_SLASH	12	stimuli_target_rectanglediamonds.svg	stimuli_distractor_diamondtriangles.svg	1	yes	57	0	527	0	0			0	0			1				0	
6.6.1	win	2023-07-10	10:56:13	11:03:07	409298	6107a5be3cbf757b3297d8a1	3	1	practice_slash	5	practice_slash	13	stimuli_distractor_trianglediamonds.svg	stimuli_target_rectanglediamonds.svg	10	yes	53	1	351	0	0			0	0			1				0	
6.6.1	win	2023-07-10	10:56:13	11:03:07	409298	6107a5be3cbf757b3297d8a1	3	1	practice_slash	5	advance_on_keypress_SLASH	14	stimuli_distractor_trianglediamonds.svg	stimuli_target_rectanglediamonds.svg	10	yes	57	0	374	0	0			0	0			1				0	
6.6.1	win	2023-07-10	10:56:13	11:03:09	411758	6107a5be3cbf757b3297d8a1	3	1	practice_slash	5	practice_slash	15	stimuli_target_squarediamonds.svg	stimuli_distractor_diamondtriangles.svg	2	yes	53	1	429	0	0			0	0			1				0	
6.6.1	win	2023-07-10	10:56:13	11:03:09	411758	6107a5be3cbf757b3297d8a1	3	1	practice_slash	5	advance_on_keypress_SLASH	16	stimuli_target_squarediamonds.svg	stimuli_distractor_diamondtriangles.svg	2	yes	57	0	548	0	0			0	0			1				0	
6.6.1	win	2023-07-10	10:56:13	11:03:13	415893	6107a5be3cbf757b3297d8a1	3	1	practice_slash	5	practice_slash	17	stimuli_distractor_diamondtriangles.svg	stimuli_distractor_trianglediamonds.svg	14	no	53	0	1930	0	0			0	0			1				0	
6.6.1	win	2023-07-10	10:56:13	11:03:13	415893	6107a5be3cbf757b3297d8a1	3	1	practice_slash	5	advance_on_keypress_SLASH	18	stimuli_distractor_diamondtriangles.svg	stimuli_distractor_trianglediamonds.svg	14	no	57	0	526	0	0			0	0			1				0	
6.6.1	win	2023-07-10	10:56:13	11:03:16	419024	6107a5be3cbf757b3297d8a1	3	1	practice_slash	5	practice_slash	19	stimuli_distractor_diamondtriangles.svg	stimuli_target_diamondrectangles.svg	8	yes	53	1	944	0	0			0	0			1				0	
6.6.1	win	2023-07-10	10:56:13	11:03:16	419024	6107a5be3cbf757b3297d8a1	3	1	practice_slash	5	advance_on_keypress_SLASH	20	stimuli_distractor_diamondtriangles.svg	stimuli_target_diamondrectangles.svg	8	yes	57	0	323	0	0			0	0			1				0	
6.6.1	win	2023-07-10	10:56:13	11:03:19	421349	6107a5be3cbf757b3297d8a1	3	1	practice_slash	5	practice_slash	21	stimuli_distractor_trianglediamonds.svg	stimuli_target_diamondrectangles.svg	12	yes	53	1	353	0	0			0	0			1				0	
6.6.1	win	2023-07-10	10:56:13	11:03:19	421349	6107a5be3cbf757b3297d8a1	3	1	practice_slash	5	advance_on_keypress_SLASH	22	stimuli_distractor_trianglediamonds.svg	stimuli_target_diamondrectangles.svg	12	yes	57	0	303	0	0			0	0			1				0	
6.6.1	win	2023-07-10	10:56:13	11:03:21	423650	6107a5be3cbf757b3297d8a1	3	1	practice_slash	5	practice_slash	23	stimuli_distractor_trianglediamonds.svg	stimuli_target_squarediamonds.svg	11	yes	53	1	355	0	0			0	0			1				0	
6.6.1	win	2023-07-10	10:56:13	11:03:21	423650	6107a5be3cbf757b3297d8a1	3	1	practice_slash	5	advance_on_keypress_SLASH	24	stimuli_distractor_trianglediamonds.svg	stimuli_target_squarediamonds.svg	11	yes	57	0	268	0	0			0	0			1				0	
6.6.1	win	2023-07-10	10:56:13	11:03:23	425975	6107a5be3cbf757b3297d8a1	3	1	practice_slash	5	practice_slash	25	stimuli_target_diamondsquares.svg	stimuli_distractor_trianglediamonds.svg	6	yes	53	1	413	0	0			0	0			1				0	
6.6.1	win	2023-07-10	10:56:13	11:03:23	425975	6107a5be3cbf757b3297d8a1	3	1	practice_slash	5	advance_on_keypress_SLASH	26	stimuli_target_diamondsquares.svg	stimuli_distractor_trianglediamonds.svg	6	yes	57	0	260	0	0			0	0			1				0	
6.6.1	win	2023-07-10	10:56:13	11:03:25	428140	6107a5be3cbf757b3297d8a1	3	1	practice_slash	5	practice_slash	27	stimuli_distractor_diamondtriangles.svg	stimuli_distractor_diamondtriangles.svg	13	no	53	0	245	0	0			0	0			1				0	
6.6.1	win	2023-07-10	10:56:13	11:03:25	428140	6107a5be3cbf757b3297d8a1	3	1	practice_slash	5	advance_on_keypress_SLASH	28	stimuli_distractor_diamondtriangles.svg	stimuli_distractor_diamondtriangles.svg	13	no	57	0	264	0	0			0	0			1				0	
6.6.1	win	2023-07-10	10:56:13	11:03:29	432061	6107a5be3cbf757b3297d8a1	3	1	practice_slash	5	practice_slash	29	stimuli_distractor_trianglediamonds.svg	stimuli_distractor_diamondtriangles.svg	16	no	0	1	2000	0	0			0	0			1				0	
6.6.1	win	2023-07-10	10:56:13	11:03:29	432061	6107a5be3cbf757b3297d8a1	3	1	practice_slash	5	advance_on_keypress_SLASH	30	stimuli_distractor_trianglediamonds.svg	stimuli_distractor_diamondtriangles.svg	16	no	57	0	293	0	0			0	0			1				0	
6.6.1	win	2023-07-10	10:56:13	11:03:32	434401	6107a5be3cbf757b3297d8a1	3	1	practice_slash	5	practice_slash	31	stimuli_target_squarediamonds.svg	stimuli_distractor_trianglediamonds.svg	5	yes	53	1	390	0	0			0	0			1				0	
6.6.1	win	2023-07-10	10:56:13	11:03:32	434401	6107a5be3cbf757b3297d8a1	3	1	practice_slash	5	advance_on_keypress_SLASH	32	stimuli_target_squarediamonds.svg	stimuli_distractor_trianglediamonds.svg	5	yes	57	0	269	0	0			0	0			1				0	
6.6.1	win	2023-07-10	10:56:13	11:03:40	442407	6107a5be3cbf757b3297d8a1	3	1	main_slash	7	main_slash	1	stimuli_distractor_diamondtriangles.svg	stimuli_target_squarediamonds.svg	16	yes	0	0	2000	0	0			0	0			1				0	
6.6.1	win	2023-07-10	10:56:13	11:03:40	442407	6107a5be3cbf757b3297d8a1	3	1	main_slash	7	advance_on_keypress_SLASH	2	stimuli_distractor_diamondtriangles.svg	stimuli_target_squarediamonds.svg	16	yes	57	0	3551	0	0			0	0			1				0	
6.6.1	win	2023-07-10	10:56:13	11:03:44	446914	6107a5be3cbf757b3297d8a1	3	1	main_slash	7	main_slash	3	stimuli_target_trianglerectangles.svg	stimuli_distractor_trianglediamonds.svg	17	yes	53	1	308	0	0			0	0			1				0	
6.6.1	win	2023-07-10	10:56:13	11:03:44	446914	6107a5be3cbf757b3297d8a1	3	1	main_slash	7	advance_on_keypress_SLASH	4	stimuli_target_trianglerectangles.svg	stimuli_distractor_trianglediamonds.svg	17	yes	57	0	717	0	0			0	0			1				0	
6.6.1	win	2023-07-10	10:56:13	11:03:46	448620	6107a5be3cbf757b3297d8a1	3	1	main_slash	7	main_slash	5	stimuli_distractor_trianglediamonds.svg	stimuli_target_rectanglediamonds.svg	10	yes	53	1	347	0	0			0	0			1				0	
6.6.1	win	2023-07-10	10:56:13	11:03:46	448620	6107a5be3cbf757b3297d8a1	3	1	main_slash	7	advance_on_keypress_SLASH	6	stimuli_distractor_trianglediamonds.svg	stimuli_target_rectanglediamonds.svg	10	yes	57	0	551	0	0			0	0			1				0	
6.6.1	win	2023-07-10	10:56:13	11:03:48	450519	6107a5be3cbf757b3297d8a1	3	1	main_slash	7	main_slash	7	stimuli_target_trianglesquares.svg	stimuli_distractor_trianglediamonds.svg	18	yes	53	1	698	0	0			0	0			1				0	
6.6.1	win	2023-07-10	10:56:13	11:03:48	450519	6107a5be3cbf757b3297d8a1	3	1	main_slash	7	advance_on_keypress_SLASH	8	stimuli_target_trianglesquares.svg	stimuli_distractor_trianglediamonds.svg	18	yes	57	0	381	0	0			0	0			1				0	
6.6.1	win	2023-07-10	10:56:13	11:03:51	453563	6107a5be3cbf757b3297d8a1	3	1	main_slash	7	main_slash	9	stimuli_distractor_diamondtriangles.svg	stimuli_distractor_trianglediamonds.svg	37	no	0	1	2000	0	0			0	0			1				0	
6.6.1	win	2023-07-10	10:56:13	11:03:51	453563	6107a5be3cbf757b3297d8a1	3	1	main_slash	7	advance_on_keypress_SLASH	10	stimuli_distractor_diamondtriangles.svg	stimuli_distractor_trianglediamonds.svg	37	no	57	0	283	0	0			0	0			1				0	
6.6.1	win	2023-07-10	10:56:13	11:03:52	454854	6107a5be3cbf757b3297d8a1	3	1	main_slash	7	main_slash	11	stimuli_target_squarediamonds.svg	stimuli_distractor_trianglediamonds.svg	4	yes	53	1	367	0	0			0	0			1				0	
6.6.1	win	2023-07-10	10:56:13	11:03:52	454854	6107a5be3cbf757b3297d8a1	3	1	main_slash	7	advance_on_keypress_SLASH	12	stimuli_target_squarediamonds.svg	stimuli_distractor_trianglediamonds.svg	4	yes	57	0	493	0	0			0	0			1				0	
6.6.1	win	2023-07-10	10:56:13	11:03:54	456834	6107a5be3cbf757b3297d8a1	3	1	main_slash	7	main_slash	13	stimuli_target_diamondrectangles.svg	stimuli_distractor_trianglediamonds.svg	19	yes	53	1	830	0	0			0	0			1				0	
6.6.1	win	2023-07-10	10:56:13	11:03:54	456834	6107a5be3cbf757b3297d8a1	3	1	main_slash	7	advance_on_keypress_SLASH	14	stimuli_target_diamondrectangles.svg	stimuli_distractor_trianglediamonds.svg	19	yes	57	0	395	0	0			0	0			1				0	
6.6.1	win	2023-07-10	10:56:13	11:03:56	458415	6107a5be3cbf757b3297d8a1	3	1	main_slash	7	main_slash	15	stimuli_distractor_diamondtriangles.svg	stimuli_target_diamondrectangles.svg	31	yes	53	1	527	0	0			0	0			1				0	
6.6.1	win	2023-07-10	10:56:13	11:03:56	458415	6107a5be3cbf757b3297d8a1	3	1	main_slash	7	advance_on_keypress_SLASH	16	stimuli_distractor_diamondtriangles.svg	stimuli_target_diamondrectangles.svg	31	yes	57	0	429	0	0			0	0			1				0	
6.6.1	win	2023-07-10	10:56:13	11:03:57	460085	6107a5be3cbf757b3297d8a1	3	1	main_slash	7	main_slash	17	stimuli_target_diamondrectangles.svg	stimuli_distractor_diamondtriangles.svg	23	yes	53	1	597	0	0			0	0			1				0	
6.6.1	win	2023-07-10	10:56:13	11:03:57	460085	6107a5be3cbf757b3297d8a1	3	1	main_slash	7	advance_on_keypress_SLASH	18	stimuli_target_diamondrectangles.svg	stimuli_distractor_diamondtriangles.svg	23	yes	57	0	431	0	0			0	0			1				0	
6.6.1	win	2023-07-10	10:56:13	11:04:00	463170	6107a5be3cbf757b3297d8a1	3	1	main_slash	7	main_slash	19	stimuli_distractor_trianglediamonds.svg	stimuli_distractor_trianglediamonds.svg	33	no	0	1	2000	0	0			0	0			1				0	
6.6.1	win	2023-07-10	10:56:13	11:04:00	463170	6107a5be3cbf757b3297d8a1	3	1	main_slash	7	advance_on_keypress_SLASH	20	stimuli_distractor_trianglediamonds.svg	stimuli_distractor_trianglediamonds.svg	33	no	57	0	278	0	0			0	0			1				0	
6.6.1	win	2023-07-10	10:56:13	11:04:02	464905	6107a5be3cbf757b3297d8a1	3	1	main_slash	7	main_slash	21	stimuli_distractor_diamondtriangles.svg	stimuli_target_rectangletriangles.svg	13	yes	53	1	801	0	0			0	0			1				0	
6.6.1	win	2023-07-10	10:56:13	11:04:02	464905	6107a5be3cbf757b3297d8a1	3	1	main_slash	7	advance_on_keypress_SLASH	22	stimuli_distractor_diamondtriangles.svg	stimuli_target_rectangletriangles.svg	13	yes	57	0	395	0	0			0	0			1				0	
6.6.1	win	2023-07-10	10:56:13	11:04:04	467187	6107a5be3cbf757b3297d8a1	3	1	main_slash	7	main_slash	23	stimuli_distractor_trianglediamonds.svg	stimuli_distractor_diamondtriangles.svg	36	no	53	0	1233	0	0			0	0			1				0	
6.6.1	win	2023-07-10	10:56:13	11:04:04	467187	6107a5be3cbf757b3297d8a1	3	1	main_slash	7	advance_on_keypress_SLASH	24	stimuli_distractor_trianglediamonds.svg	stimuli_distractor_diamondtriangles.svg	36	no	57	0	268	0	0			0	0			1				0	
6.6.1	win	2023-07-10	10:56:13	11:04:06	468661	6107a5be3cbf757b3297d8a1	3	1	main_slash	7	main_slash	25	stimuli_distractor_diamondtriangles.svg	stimuli_target_trianglerectangles.svg	29	yes	53	1	559	0	0			0	0			1				0	
6.6.1	win	2023-07-10	10:56:13	11:04:06	468661	6107a5be3cbf757b3297d8a1	3	1	main_slash	7	advance_on_keypress_SLASH	26	stimuli_distractor_diamondtriangles.svg	stimuli_target_trianglerectangles.svg	29	yes	57	0	416	0	0			0	0			1				0	
6.6.1	win	2023-07-10	10:56:13	11:04:08	470320	6107a5be3cbf757b3297d8a1	3	1	main_slash	7	main_slash	27	stimuli_target_trianglerectangles.svg	stimuli_distractor_diamondtriangles.svg	21	yes	53	1	601	0	0			0	0			1				0	
6.6.1	win	2023-07-10	10:56:13	11:04:08	470320	6107a5be3cbf757b3297d8a1	3	1	main_slash	7	advance_on_keypress_SLASH	28	stimuli_target_trianglerectangles.svg	stimuli_distractor_diamondtriangles.svg	21	yes	57	0	365	0	0			0	0			1				0	
6.6.1	win	2023-07-10	10:56:13	11:04:11	473336	6107a5be3cbf757b3297d8a1	3	1	main_slash	7	main_slash	29	stimuli_distractor_diamondtriangles.svg	stimuli_target_squaretriangles.svg	15	yes	0	0	2000	0	0			0	0			1				0	
6.6.1	win	2023-07-10	10:56:13	11:04:11	473336	6107a5be3cbf757b3297d8a1	3	1	main_slash	7	advance_on_keypress_SLASH	30	stimuli_distractor_diamondtriangles.svg	stimuli_target_squaretriangles.svg	15	yes	57	0	325	0	0			0	0			1				0	
6.6.1	win	2023-07-10	10:56:13	11:04:12	474612	6107a5be3cbf757b3297d8a1	3	1	main_slash	7	main_slash	31	stimuli_target_squarediamonds.svg	stimuli_distractor_diamondtriangles.svg	8	yes	53	1	309	0	0			0	0			1				0	
6.6.1	win	2023-07-10	10:56:13	11:04:12	474612	6107a5be3cbf757b3297d8a1	3	1	main_slash	7	advance_on_keypress_SLASH	32	stimuli_target_squarediamonds.svg	stimuli_distractor_diamondtriangles.svg	8	yes	57	0	382	0	0			0	0			1				0	
6.6.1	win	2023-07-10	10:56:13	11:04:13	475981	6107a5be3cbf757b3297d8a1	3	1	main_slash	7	main_slash	33	stimuli_target_squaretriangles.svg	stimuli_distractor_diamondtriangles.svg	7	yes	53	1	345	0	0			0	0			1				0	
6.6.1	win	2023-07-10	10:56:13	11:04:13	475981	6107a5be3cbf757b3297d8a1	3	1	main_slash	7	advance_on_keypress_SLASH	34	stimuli_target_squaretriangles.svg	stimuli_distractor_diamondtriangles.svg	7	yes	57	0	309	0	0			0	0			1				0	
6.6.1	win	2023-07-10	10:56:13	11:04:16	478371	6107a5be3cbf757b3297d8a1	3	1	main_slash	7	main_slash	35	stimuli_distractor_diamondtriangles.svg	stimuli_distractor_trianglediamonds.svg	38	no	53	0	1435	0	0			0	0			1				0	
6.6.1	win	2023-07-10	10:56:13	11:04:16	478371	6107a5be3cbf757b3297d8a1	3	1	main_slash	7	advance_on_keypress_SLASH	36	stimuli_distractor_diamondtriangles.svg	stimuli_distractor_trianglediamonds.svg	38	no	57	0	531	0	0			0	0			1				0	
6.6.1	win	2023-07-10	10:56:13	11:04:17	479901	6107a5be3cbf757b3297d8a1	3	1	main_slash	7	main_slash	37	stimuli_target_squaretriangles.svg	stimuli_distractor_trianglediamonds.svg	3	yes	53	1	349	0	0			0	0			1				0	
6.6.1	win	2023-07-10	10:56:13	11:04:17	479901	6107a5be3cbf757b3297d8a1	3	1	main_slash	7	advance_on_keypress_SLASH	38	stimuli_target_squaretriangles.svg	stimuli_distractor_trianglediamonds.svg	3	yes	57	0	297	0	0			0	0			1				0	
6.6.1	win	2023-07-10	10:56:13	11:04:19	481427	6107a5be3cbf757b3297d8a1	3	1	main_slash	7	main_slash	39	stimuli_distractor_trianglediamonds.svg	stimuli_target_trianglesquares.svg	26	yes	53	1	575	0	0			0	0			1				0	
6.6.1	win	2023-07-10	10:56:13	11:04:19	481427	6107a5be3cbf757b3297d8a1	3	1	main_slash	7	advance_on_keypress_SLASH	40	stimuli_distractor_trianglediamonds.svg	stimuli_target_trianglesquares.svg	26	yes	57	0	291	0	0			0	0			1				0	
6.6.1	win	2023-07-10	10:56:13	11:04:20	482931	6107a5be3cbf757b3297d8a1	3	1	main_slash	7	main_slash	41	stimuli_distractor_trianglediamonds.svg	stimuli_target_squaretriangles.svg	11	yes	53	1	580	0	0			0	0			1				0	
6.6.1	win	2023-07-10	10:56:13	11:04:20	482931	6107a5be3cbf757b3297d8a1	3	1	main_slash	7	advance_on_keypress_SLASH	42	stimuli_distractor_trianglediamonds.svg	stimuli_target_squaretriangles.svg	11	yes	57	0	240	0	0			0	0			1				0	
6.6.1	win	2023-07-10	10:56:13	11:04:22	484396	6107a5be3cbf757b3297d8a1	3	1	main_slash	7	main_slash	43	stimuli_distractor_diamondtriangles.svg	stimuli_target_diamondsquares.svg	32	yes	53	1	579	0	0			0	0			1				0	
6.6.1	win	2023-07-10	10:56:13	11:04:22	484396	6107a5be3cbf757b3297d8a1	3	1	main_slash	7	advance_on_keypress_SLASH	44	stimuli_distractor_diamondtriangles.svg	stimuli_target_diamondsquares.svg	32	yes	57	0	278	0	0			0	0			1				0	
6.6.1	win	2023-07-10	10:56:13	11:04:25	487334	6107a5be3cbf757b3297d8a1	3	1	main_slash	7	main_slash	45	stimuli_distractor_diamondtriangles.svg	stimuli_distractor_diamondtriangles.svg	40	no	0	1	2000	0	0			0	0			1				0	
6.6.1	win	2023-07-10	10:56:13	11:04:25	487334	6107a5be3cbf757b3297d8a1	3	1	main_slash	7	advance_on_keypress_SLASH	46	stimuli_distractor_diamondtriangles.svg	stimuli_distractor_diamondtriangles.svg	40	no	57	0	322	0	0			0	0			1				0	
6.6.1	win	2023-07-10	10:56:13	11:04:26	488986	6107a5be3cbf757b3297d8a1	3	1	main_slash	7	main_slash	47	stimuli_distractor_trianglediamonds.svg	stimuli_target_trianglerectangles.svg	25	yes	53	1	686	0	0			0	0			1				0	
6.6.1	win	2023-07-10	10:56:13	11:04:26	488986	6107a5be3cbf757b3297d8a1	3	1	main_slash	7	advance_on_keypress_SLASH	48	stimuli_distractor_trianglediamonds.svg	stimuli_target_trianglerectangles.svg	25	yes	57	0	261	0	0			0	0			1				0	
6.6.1	win	2023-07-10	10:56:13	11:04:28	490292	6107a5be3cbf757b3297d8a1	3	1	main_slash	7	main_slash	49	stimuli_distractor_trianglediamonds.svg	stimuli_target_squarediamonds.svg	12	yes	53	1	391	0	0			0	0			1				0	
6.6.1	win	2023-07-10	10:56:13	11:04:28	490292	6107a5be3cbf757b3297d8a1	3	1	main_slash	7	advance_on_keypress_SLASH	50	stimuli_distractor_trianglediamonds.svg	stimuli_target_squarediamonds.svg	12	yes	57	0	342	0	0			0	0			1				0	
6.6.1	win	2023-07-10	10:56:13	11:04:29	492111	6107a5be3cbf757b3297d8a1	3	1	main_slash	7	main_slash	51	stimuli_target_rectanglediamonds.svg	stimuli_distractor_diamondtriangles.svg	6	yes	53	1	845	0	0			0	0			1				0	
6.6.1	win	2023-07-10	10:56:13	11:04:29	492111	6107a5be3cbf757b3297d8a1	3	1	main_slash	7	advance_on_keypress_SLASH	52	stimuli_target_rectanglediamonds.svg	stimuli_distractor_diamondtriangles.svg	6	yes	57	0	259	0	0			0	0			1				0	
6.6.1	win	2023-07-10	10:56:13	11:04:31	493902	6107a5be3cbf757b3297d8a1	3	1	main_slash	7	main_slash	53	stimuli_target_diamondsquares.svg	stimuli_distractor_trianglediamonds.svg	20	yes	53	1	885	0	0			0	0			1				0	
6.6.1	win	2023-07-10	10:56:13	11:04:31	493902	6107a5be3cbf757b3297d8a1	3	1	main_slash	7	advance_on_keypress_SLASH	54	stimuli_target_diamondsquares.svg	stimuli_distractor_trianglediamonds.svg	20	yes	57	0	215	0	0			0	0			1				0	
6.6.1	win	2023-07-10	10:56:13	11:04:34	496766	6107a5be3cbf757b3297d8a1	3	1	main_slash	7	main_slash	55	stimuli_target_rectangletriangles.svg	stimuli_distractor_trianglediamonds.svg	1	yes	0	0	2000	0	0			0	0			1				0	
6.6.1	win	2023-07-10	10:56:13	11:04:34	496766	6107a5be3cbf757b3297d8a1	3	1	main_slash	7	advance_on_keypress_SLASH	56	stimuli_target_rectangletriangles.svg	stimuli_distractor_trianglediamonds.svg	1	yes	57	0	339	0	0			0	0			1				0	
6.6.1	win	2023-07-10	10:56:13	11:04:35	498037	6107a5be3cbf757b3297d8a1	3	1	main_slash	7	main_slash	57	stimuli_distractor_trianglediamonds.svg	stimuli_target_diamondsquares.svg	28	yes	53	1	288	0	0			0	0			1				0	
6.6.1	win	2023-07-10	10:56:13	11:04:35	498037	6107a5be3cbf757b3297d8a1	3	1	main_slash	7	advance_on_keypress_SLASH	58	stimuli_distractor_trianglediamonds.svg	stimuli_target_diamondsquares.svg	28	yes	57	0	352	0	0			0	0			1				0	
6.6.1	win	2023-07-10	10:56:13	11:04:37	499747	6107a5be3cbf757b3297d8a1	3	1	main_slash	7	main_slash	59	stimuli_distractor_trianglediamonds.svg	stimuli_target_rectangletriangles.svg	9	yes	53	1	714	0	0			0	0			1				0	
6.6.1	win	2023-07-10	10:56:13	11:04:37	499747	6107a5be3cbf757b3297d8a1	3	1	main_slash	7	advance_on_keypress_SLASH	60	stimuli_distractor_trianglediamonds.svg	stimuli_target_rectangletriangles.svg	9	yes	57	0	281	0	0			0	0			1				0	
6.6.1	win	2023-07-10	10:56:13	11:04:38	501022	6107a5be3cbf757b3297d8a1	3	1	main_slash	7	main_slash	61	stimuli_target_rectanglediamonds.svg	stimuli_distractor_trianglediamonds.svg	2	yes	53	1	339	0	0			0	0			1				0	
6.6.1	win	2023-07-10	10:56:13	11:04:38	501022	6107a5be3cbf757b3297d8a1	3	1	main_slash	7	advance_on_keypress_SLASH	62	stimuli_target_rectanglediamonds.svg	stimuli_distractor_trianglediamonds.svg	2	yes	57	0	335	0	0			0	0			1				0	
6.6.1	win	2023-07-10	10:56:13	11:04:40	502511	6107a5be3cbf757b3297d8a1	3	1	main_slash	7	main_slash	63	stimuli_target_trianglesquares.svg	stimuli_distractor_diamondtriangles.svg	22	yes	53	1	510	0	0			0	0			1				0	
6.6.1	win	2023-07-10	10:56:13	11:04:40	502511	6107a5be3cbf757b3297d8a1	3	1	main_slash	7	advance_on_keypress_SLASH	64	stimuli_target_trianglesquares.svg	stimuli_distractor_diamondtriangles.svg	22	yes	57	0	305	0	0			0	0			1				0	
6.6.1	win	2023-07-10	10:56:13	11:04:42	504302	6107a5be3cbf757b3297d8a1	3	1	main_slash	7	main_slash	65	stimuli_distractor_trianglediamonds.svg	stimuli_distractor_diamondtriangles.svg	35	no	53	0	837	0	0			0	0			1				0	
6.6.1	win	2023-07-10	10:56:13	11:04:42	504302	6107a5be3cbf757b3297d8a1	3	1	main_slash	7	advance_on_keypress_SLASH	66	stimuli_distractor_trianglediamonds.svg	stimuli_distractor_diamondtriangles.svg	35	no	57	0	217	0	0			0	0			1				0	
6.6.1	win	2023-07-10	10:56:13	11:04:44	506257	6107a5be3cbf757b3297d8a1	3	1	main_slash	7	main_slash	67	stimuli_distractor_diamondtriangles.svg	stimuli_target_trianglesquares.svg	30	yes	53	1	1092	0	0			0	0			1				0	
6.6.1	win	2023-07-10	10:56:13	11:04:44	506257	6107a5be3cbf757b3297d8a1	3	1	main_slash	7	advance_on_keypress_SLASH	68	stimuli_distractor_diamondtriangles.svg	stimuli_target_trianglesquares.svg	30	yes	57	0	358	0	0			0	0			1				0	
6.6.1	win	2023-07-10	10:56:13	11:04:47	509248	6107a5be3cbf757b3297d8a1	3	1	main_slash	7	main_slash	69	stimuli_distractor_diamondtriangles.svg	stimuli_distractor_diamondtriangles.svg	39	no	0	1	2000	0	0			0	0			1				0	
6.6.1	win	2023-07-10	10:56:13	11:04:47	509248	6107a5be3cbf757b3297d8a1	3	1	main_slash	7	advance_on_keypress_SLASH	70	stimuli_distractor_diamondtriangles.svg	stimuli_distractor_diamondtriangles.svg	39	no	57	0	403	0	0			0	0			1				0	
6.6.1	win	2023-07-10	10:56:13	11:04:48	510697	6107a5be3cbf757b3297d8a1	3	1	main_slash	7	main_slash	71	stimuli_target_rectangletriangles.svg	stimuli_distractor_diamondtriangles.svg	5	yes	53	1	400	0	0			0	0			1				0	
6.6.1	win	2023-07-10	10:56:13	11:04:48	510697	6107a5be3cbf757b3297d8a1	3	1	main_slash	7	advance_on_keypress_SLASH	72	stimuli_target_rectangletriangles.svg	stimuli_distractor_diamondtriangles.svg	5	yes	57	0	329	0	0			0	0			1				0	
6.6.1	win	2023-07-10	10:56:13	11:04:49	512148	6107a5be3cbf757b3297d8a1	3	1	main_slash	7	main_slash	73	stimuli_distractor_trianglediamonds.svg	stimuli_target_diamondrectangles.svg	27	yes	53	1	467	0	0			0	0			1				0	
6.6.1	win	2023-07-10	10:56:13	11:04:49	512148	6107a5be3cbf757b3297d8a1	3	1	main_slash	7	advance_on_keypress_SLASH	74	stimuli_distractor_trianglediamonds.svg	stimuli_target_diamondrectangles.svg	27	yes	57	0	319	0	0			0	0			1				0	
6.6.1	win	2023-07-10	10:56:13	11:04:51	513418	6107a5be3cbf757b3297d8a1	3	1	main_slash	7	main_slash	75	stimuli_distractor_diamondtriangles.svg	stimuli_target_rectanglediamonds.svg	14	yes	53	1	304	0	0			0	0			1				0	
6.6.1	win	2023-07-10	10:56:13	11:04:51	513418	6107a5be3cbf757b3297d8a1	3	1	main_slash	7	advance_on_keypress_SLASH	76	stimuli_distractor_diamondtriangles.svg	stimuli_target_rectanglediamonds.svg	14	yes	57	0	262	0	0			0	0			1				0	
6.6.1	win	2023-07-10	10:56:13	11:04:54	516330	6107a5be3cbf757b3297d8a1	3	1	main_slash	7	main_slash	77	stimuli_distractor_trianglediamonds.svg	stimuli_distractor_trianglediamonds.svg	34	no	0	1	2000	0	0			0	0			1				0	
6.6.1	win	2023-07-10	10:56:13	11:04:54	516330	6107a5be3cbf757b3297d8a1	3	1	main_slash	7	advance_on_keypress_SLASH	78	stimuli_distractor_trianglediamonds.svg	stimuli_distractor_trianglediamonds.svg	34	no	57	0	361	0	0			0	0			1				0	
6.6.1	win	2023-07-10	10:56:13	11:04:55	517768	6107a5be3cbf757b3297d8a1	3	1	main_slash	7	main_slash	79	stimuli_target_diamondsquares.svg	stimuli_distractor_diamondtriangles.svg	24	yes	53	1	421	0	0			0	0			1				0	
6.6.1	win	2023-07-10	10:56:13	11:04:55	517768	6107a5be3cbf757b3297d8a1	3	1	main_slash	7	advance_on_keypress_SLASH	80	stimuli_target_diamondsquares.svg	stimuli_distractor_diamondtriangles.svg	24	yes	57	0	348	0	0			0	0			1				0	
6.6.1	win	2023-07-10	10:56:13	11:04:57	519478	6107a5be3cbf757b3297d8a1	3	1	main_slash	7	main_slash	81	stimuli_distractor_trianglediamonds.svg	stimuli_target_trianglerectangles.svg	25	yes	53	1	715	0	0			0	0			1				0	
6.6.1	win	2023-07-10	10:56:13	11:04:57	519478	6107a5be3cbf757b3297d8a1	3	1	main_slash	7	advance_on_keypress_SLASH	82	stimuli_distractor_trianglediamonds.svg	stimuli_target_trianglerectangles.svg	25	yes	57	0	356	0	0			0	0			1				0	
6.6.1	win	2023-07-10	10:56:13	11:04:58	520889	6107a5be3cbf757b3297d8a1	3	1	main_slash	7	main_slash	83	stimuli_target_rectanglediamonds.svg	stimuli_distractor_trianglediamonds.svg	2	yes	53	1	409	0	0			0	0			1				0	
6.6.1	win	2023-07-10	10:56:13	11:04:58	520889	6107a5be3cbf757b3297d8a1	3	1	main_slash	7	advance_on_keypress_SLASH	84	stimuli_target_rectanglediamonds.svg	stimuli_distractor_trianglediamonds.svg	2	yes	57	0	236	0	0			0	0			1				0	
6.6.1	win	2023-07-10	10:56:13	11:04:59	522190	6107a5be3cbf757b3297d8a1	3	1	main_slash	7	main_slash	85	stimuli_distractor_diamondtriangles.svg	stimuli_target_squaretriangles.svg	15	yes	53	1	427	0	0			0	0			1				0	
6.6.1	win	2023-07-10	10:56:13	11:04:59	522190	6107a5be3cbf757b3297d8a1	3	1	main_slash	7	advance_on_keypress_SLASH	86	stimuli_distractor_diamondtriangles.svg	stimuli_target_squaretriangles.svg	15	yes	57	0	170	0	0			0	0			1				0	
6.6.1	win	2023-07-10	10:56:13	11:05:01	523391	6107a5be3cbf757b3297d8a1	3	1	main_slash	7	main_slash	87	stimuli_distractor_trianglediamonds.svg	stimuli_distractor_diamondtriangles.svg	35	no	53	0	376	0	0			0	0			1				0	
6.6.1	win	2023-07-10	10:56:13	11:05:01	523391	6107a5be3cbf757b3297d8a1	3	1	main_slash	7	advance_on_keypress_SLASH	88	stimuli_distractor_trianglediamonds.svg	stimuli_distractor_diamondtriangles.svg	35	no	57	0	481	0	0			0	0			1				0	
6.6.1	win	2023-07-10	10:56:13	11:05:04	526529	6107a5be3cbf757b3297d8a1	3	1	main_slash	7	main_slash	89	stimuli_distractor_diamondtriangles.svg	stimuli_target_trianglerectangles.svg	29	yes	0	0	2000	0	0			0	0			1				0	
6.6.1	win	2023-07-10	10:56:13	11:05:04	526529	6107a5be3cbf757b3297d8a1	3	1	main_slash	7	advance_on_keypress_SLASH	90	stimuli_distractor_diamondtriangles.svg	stimuli_target_trianglerectangles.svg	29	yes	57	0	114	0	0			0	0			1				0	
6.6.1	win	2023-07-10	10:56:13	11:05:05	527698	6107a5be3cbf757b3297d8a1	3	1	main_slash	7	main_slash	91	stimuli_distractor_trianglediamonds.svg	stimuli_target_diamondsquares.svg	28	yes	53	1	403	0	0			0	0			1				0	
6.6.1	win	2023-07-10	10:56:13	11:05:05	527698	6107a5be3cbf757b3297d8a1	3	1	main_slash	7	advance_on_keypress_SLASH	92	stimuli_distractor_trianglediamonds.svg	stimuli_target_diamondsquares.svg	28	yes	57	0	337	0	0			0	0			1				0	
6.6.1	win	2023-07-10	10:56:13	11:05:06	529149	6107a5be3cbf757b3297d8a1	3	1	main_slash	7	main_slash	93	stimuli_target_squarediamonds.svg	stimuli_distractor_diamondtriangles.svg	8	yes	53	1	470	0	0			0	0			1				0	
6.6.1	win	2023-07-10	10:56:13	11:05:06	529149	6107a5be3cbf757b3297d8a1	3	1	main_slash	7	advance_on_keypress_SLASH	94	stimuli_target_squarediamonds.svg	stimuli_distractor_diamondtriangles.svg	8	yes	57	0	287	0	0			0	0			1				0	
6.6.1	win	2023-07-10	10:56:13	11:05:09	532079	6107a5be3cbf757b3297d8a1	3	1	main_slash	7	main_slash	95	stimuli_distractor_trianglediamonds.svg	stimuli_distractor_trianglediamonds.svg	34	no	0	1	2000	0	0			0	0			1				0	
6.6.1	win	2023-07-10	10:56:13	11:05:09	532079	6107a5be3cbf757b3297d8a1	3	1	main_slash	7	advance_on_keypress_SLASH	96	stimuli_distractor_trianglediamonds.svg	stimuli_distractor_trianglediamonds.svg	34	no	57	0	379	0	0			0	0			1				0	
6.6.1	win	2023-07-10	10:56:13	11:05:12	535112	6107a5be3cbf757b3297d8a1	3	1	main_slash	7	main_slash	97	stimuli_distractor_diamondtriangles.svg	stimuli_distractor_diamondtriangles.svg	39	no	0	1	2000	0	0			0	0			1				0	
6.6.1	win	2023-07-10	10:56:13	11:05:12	535112	6107a5be3cbf757b3297d8a1	3	1	main_slash	7	advance_on_keypress_SLASH	98	stimuli_distractor_diamondtriangles.svg	stimuli_distractor_diamondtriangles.svg	39	no	57	0	317	0	0			0	0			1				0	
6.6.1	win	2023-07-10	10:56:13	11:05:14	536359	6107a5be3cbf757b3297d8a1	3	1	main_slash	7	main_slash	99	stimuli_distractor_diamondtriangles.svg	stimuli_target_trianglesquares.svg	30	yes	53	1	282	0	0			0	0			1				0	
6.6.1	win	2023-07-10	10:56:13	11:05:14	536359	6107a5be3cbf757b3297d8a1	3	1	main_slash	7	advance_on_keypress_SLASH	100	stimuli_distractor_diamondtriangles.svg	stimuli_target_trianglesquares.svg	30	yes	57	0	362	0	0			0	0			1				0	
6.6.1	win	2023-07-10	10:56:13	11:05:15	537875	6107a5be3cbf757b3297d8a1	3	1	main_slash	7	main_slash	101	stimuli_target_diamondrectangles.svg	stimuli_distractor_diamondtriangles.svg	23	yes	53	1	497	0	0			0	0			1				0	
6.6.1	win	2023-07-10	10:56:13	11:05:15	537875	6107a5be3cbf757b3297d8a1	3	1	main_slash	7	advance_on_keypress_SLASH	102	stimuli_target_diamondrectangles.svg	stimuli_distractor_diamondtriangles.svg	23	yes	57	0	316	0	0			0	0			1				0	
6.6.1	win	2023-07-10	10:56:13	11:05:17	539409	6107a5be3cbf757b3297d8a1	3	1	main_slash	7	main_slash	103	stimuli_distractor_trianglediamonds.svg	stimuli_target_rectanglediamonds.svg	10	yes	53	1	566	0	0			0	0			1				0	
6.6.1	win	2023-07-10	10:56:13	11:05:17	539409	6107a5be3cbf757b3297d8a1	3	1	main_slash	7	advance_on_keypress_SLASH	104	stimuli_distractor_trianglediamonds.svg	stimuli_target_rectanglediamonds.svg	10	yes	57	0	318	0	0			0	0			1				0	
6.6.1	win	2023-07-10	10:56:13	11:05:18	540945	6107a5be3cbf757b3297d8a1	3	1	main_slash	7	main_slash	105	stimuli_distractor_diamondtriangles.svg	stimuli_target_squarediamonds.svg	16	yes	53	1	568	0	0			0	0			1				0	
6.6.1	win	2023-07-10	10:56:13	11:05:18	540945	6107a5be3cbf757b3297d8a1	3	1	main_slash	7	advance_on_keypress_SLASH	106	stimuli_distractor_diamondtriangles.svg	stimuli_target_squarediamonds.svg	16	yes	57	0	249	0	0			0	0			1				0	
6.6.1	win	2023-07-10	10:56:13	11:05:20	542280	6107a5be3cbf757b3297d8a1	3	1	main_slash	7	main_slash	107	stimuli_target_trianglerectangles.svg	stimuli_distractor_trianglediamonds.svg	17	yes	53	1	436	0	0			0	0			1				0	
6.6.1	win	2023-07-10	10:56:13	11:05:20	542280	6107a5be3cbf757b3297d8a1	3	1	main_slash	7	advance_on_keypress_SLASH	108	stimuli_target_trianglerectangles.svg	stimuli_distractor_trianglediamonds.svg	17	yes	57	0	266	0	0			0	0			1				0	
6.6.1	win	2023-07-10	10:56:13	11:05:21	543520	6107a5be3cbf757b3297d8a1	3	1	main_slash	7	main_slash	109	stimuli_target_rectangletriangles.svg	stimuli_distractor_diamondtriangles.svg	5	yes	53	1	326	0	0			0	0			1				0	
6.6.1	win	2023-07-10	10:56:13	11:05:21	543520	6107a5be3cbf757b3297d8a1	3	1	main_slash	7	advance_on_keypress_SLASH	110	stimuli_target_rectangletriangles.svg	stimuli_distractor_diamondtriangles.svg	5	yes	57	0	238	0	0			0	0			1				0	
6.6.1	win	2023-07-10	10:56:13	11:05:24	546393	6107a5be3cbf757b3297d8a1	3	1	main_slash	7	main_slash	111	stimuli_distractor_trianglediamonds.svg	stimuli_target_squaretriangles.svg	11	yes	0	0	2000	0	0			0	0			1				0	
6.6.1	win	2023-07-10	10:56:13	11:05:24	546393	6107a5be3cbf757b3297d8a1	3	1	main_slash	7	advance_on_keypress_SLASH	112	stimuli_distractor_trianglediamonds.svg	stimuli_target_squaretriangles.svg	11	yes	57	0	320	0	0			0	0			1				0	
6.6.1	win	2023-07-10	10:56:13	11:05:27	549360	6107a5be3cbf757b3297d8a1	3	1	main_slash	7	main_slash	113	stimuli_distractor_trianglediamonds.svg	stimuli_distractor_diamondtriangles.svg	36	no	0	1	2000	0	0			0	0			1				0	
6.6.1	win	2023-07-10	10:56:13	11:05:27	549360	6107a5be3cbf757b3297d8a1	3	1	main_slash	7	advance_on_keypress_SLASH	114	stimuli_distractor_trianglediamonds.svg	stimuli_distractor_diamondtriangles.svg	36	no	57	0	520	0	0			0	0			1				0	
6.6.1	win	2023-07-10	10:56:13	11:05:29	551241	6107a5be3cbf757b3297d8a1	3	1	main_slash	7	main_slash	115	stimuli_distractor_diamondtriangles.svg	stimuli_target_diamondrectangles.svg	31	yes	53	1	715	0	0			0	0			1				0	
6.6.1	win	2023-07-10	10:56:13	11:05:29	551241	6107a5be3cbf757b3297d8a1	3	1	main_slash	7	advance_on_keypress_SLASH	116	stimuli_distractor_diamondtriangles.svg	stimuli_target_diamondrectangles.svg	31	yes	57	0	393	0	0			0	0			1				0	
6.6.1	win	2023-07-10	10:56:13	11:05:32	554276	6107a5be3cbf757b3297d8a1	3	1	main_slash	7	main_slash	117	stimuli_target_diamondrectangles.svg	stimuli_distractor_trianglediamonds.svg	19	yes	0	0	2000	0	0			0	0			1				0	
6.6.1	win	2023-07-10	10:56:13	11:05:32	554276	6107a5be3cbf757b3297d8a1	3	1	main_slash	7	advance_on_keypress_SLASH	118	stimuli_target_diamondrectangles.svg	stimuli_distractor_trianglediamonds.svg	19	yes	57	0	380	0	0			0	0			1				0	
6.6.1	win	2023-07-10	10:56:13	11:05:33	555607	6107a5be3cbf757b3297d8a1	3	1	main_slash	7	main_slash	119	stimuli_target_diamondsquares.svg	stimuli_distractor_diamondtriangles.svg	24	yes	53	1	298	0	0			0	0			1				0	
6.6.1	win	2023-07-10	10:56:13	11:05:33	555607	6107a5be3cbf757b3297d8a1	3	1	main_slash	7	advance_on_keypress_SLASH	120	stimuli_target_diamondsquares.svg	stimuli_distractor_diamondtriangles.svg	24	yes	57	0	316	0	0			0	0			1				0	
6.6.1	win	2023-07-10	10:56:13	11:05:34	557071	6107a5be3cbf757b3297d8a1	3	1	main_slash	7	main_slash	121	stimuli_target_diamondsquares.svg	stimuli_distractor_trianglediamonds.svg	20	yes	53	1	496	0	0			0	0			1				0	
6.6.1	win	2023-07-10	10:56:13	11:05:34	557071	6107a5be3cbf757b3297d8a1	3	1	main_slash	7	advance_on_keypress_SLASH	122	stimuli_target_diamondsquares.svg	stimuli_distractor_trianglediamonds.svg	20	yes	57	0	240	0	0			0	0			1				0	
6.6.1	win	2023-07-10	10:56:13	11:05:36	558312	6107a5be3cbf757b3297d8a1	3	1	main_slash	7	main_slash	123	stimuli_target_squarediamonds.svg	stimuli_distractor_trianglediamonds.svg	4	yes	53	1	353	0	0			0	0			1				0	
6.6.1	win	2023-07-10	10:56:13	11:05:36	558312	6107a5be3cbf757b3297d8a1	3	1	main_slash	7	advance_on_keypress_SLASH	124	stimuli_target_squarediamonds.svg	stimuli_distractor_trianglediamonds.svg	4	yes	57	0	222	0	0			0	0			1				0	
6.6.1	win	2023-07-10	10:56:13	11:05:37	559732	6107a5be3cbf757b3297d8a1	3	1	main_slash	7	main_slash	125	stimuli_target_trianglesquares.svg	stimuli_distractor_diamondtriangles.svg	22	yes	53	1	557	0	0			0	0			1				0	
6.6.1	win	2023-07-10	10:56:13	11:05:37	559732	6107a5be3cbf757b3297d8a1	3	1	main_slash	7	advance_on_keypress_SLASH	126	stimuli_target_trianglesquares.svg	stimuli_distractor_diamondtriangles.svg	22	yes	57	0	255	0	0			0	0			1				0	
6.6.1	win	2023-07-10	10:56:13	11:05:38	561026	6107a5be3cbf757b3297d8a1	3	1	main_slash	7	main_slash	127	stimuli_target_squaretriangles.svg	stimuli_distractor_diamondtriangles.svg	7	yes	53	1	402	0	0			0	0			1				0	
6.6.1	win	2023-07-10	10:56:13	11:05:38	561026	6107a5be3cbf757b3297d8a1	3	1	main_slash	7	advance_on_keypress_SLASH	128	stimuli_target_squaretriangles.svg	stimuli_distractor_diamondtriangles.svg	7	yes	57	0	485	0	0			0	0			1				0	
6.6.1	win	2023-07-10	10:56:13	11:05:41	564158	6107a5be3cbf757b3297d8a1	3	1	main_slash	7	main_slash	129	stimuli_target_trianglerectangles.svg	stimuli_distractor_diamondtriangles.svg	21	yes	0	0	2000	0	0			0	0			1				0	
6.6.1	win	2023-07-10	10:56:13	11:05:41	564158	6107a5be3cbf757b3297d8a1	3	1	main_slash	7	advance_on_keypress_SLASH	130	stimuli_target_trianglerectangles.svg	stimuli_distractor_diamondtriangles.svg	21	yes	57	0	313	0	0			0	0			1				0	
6.6.1	win	2023-07-10	10:56:13	11:05:43	565932	6107a5be3cbf757b3297d8a1	3	1	main_slash	7	main_slash	131	stimuli_distractor_trianglediamonds.svg	stimuli_target_diamondrectangles.svg	27	yes	53	1	807	0	0			0	0			1				0	
6.6.1	win	2023-07-10	10:56:13	11:05:43	565932	6107a5be3cbf757b3297d8a1	3	1	main_slash	7	advance_on_keypress_SLASH	132	stimuli_distractor_trianglediamonds.svg	stimuli_target_diamondrectangles.svg	27	yes	57	0	256	0	0			0	0			1				0	
6.6.1	win	2023-07-10	10:56:13	11:05:46	568824	6107a5be3cbf757b3297d8a1	3	1	main_slash	7	main_slash	133	stimuli_distractor_diamondtriangles.svg	stimuli_distractor_trianglediamonds.svg	38	no	0	1	2000	0	0			0	0			1				0	
6.6.1	win	2023-07-10	10:56:13	11:05:46	568824	6107a5be3cbf757b3297d8a1	3	1	main_slash	7	advance_on_keypress_SLASH	134	stimuli_distractor_diamondtriangles.svg	stimuli_distractor_trianglediamonds.svg	38	no	57	0	307	0	0			0	0			1				0	
6.6.1	win	2023-07-10	10:56:13	11:05:48	570422	6107a5be3cbf757b3297d8a1	3	1	main_slash	7	main_slash	135	stimuli_distractor_trianglediamonds.svg	stimuli_target_trianglesquares.svg	26	yes	53	1	648	0	0			0	0			1				0	
6.6.1	win	2023-07-10	10:56:13	11:05:48	570422	6107a5be3cbf757b3297d8a1	3	1	main_slash	7	advance_on_keypress_SLASH	136	stimuli_distractor_trianglediamonds.svg	stimuli_target_trianglesquares.svg	26	yes	57	0	288	0	0			0	0			1				0	
6.6.1	win	2023-07-10	10:56:13	11:05:50	572628	6107a5be3cbf757b3297d8a1	3	1	main_slash	7	main_slash	137	stimuli_distractor_diamondtriangles.svg	stimuli_target_rectangletriangles.svg	13	yes	53	1	1272	0	0			0	0			1				0	
6.6.1	win	2023-07-10	10:56:13	11:05:50	572628	6107a5be3cbf757b3297d8a1	3	1	main_slash	7	advance_on_keypress_SLASH	138	stimuli_distractor_diamondtriangles.svg	stimuli_target_rectangletriangles.svg	13	yes	57	0	258	0	0			0	0			1				0	
6.6.1	win	2023-07-10	10:56:13	11:05:52	574312	6107a5be3cbf757b3297d8a1	3	1	main_slash	7	main_slash	139	stimuli_distractor_diamondtriangles.svg	stimuli_distractor_trianglediamonds.svg	37	no	53	0	790	0	0			0	0			1				0	
6.6.1	win	2023-07-10	10:56:13	11:05:52	574312	6107a5be3cbf757b3297d8a1	3	1	main_slash	7	advance_on_keypress_SLASH	140	stimuli_distractor_diamondtriangles.svg	stimuli_distractor_trianglediamonds.svg	37	no	57	0	225	0	0			0	0			1				0	
6.6.1	win	2023-07-10	10:56:13	11:05:54	576323	6107a5be3cbf757b3297d8a1	3	1	main_slash	7	main_slash	141	stimuli_target_trianglesquares.svg	stimuli_distractor_trianglediamonds.svg	18	yes	53	1	1150	0	0			0	0			1				0	
6.6.1	win	2023-07-10	10:56:13	11:05:54	576323	6107a5be3cbf757b3297d8a1	3	1	main_slash	7	advance_on_keypress_SLASH	142	stimuli_target_trianglesquares.svg	stimuli_distractor_trianglediamonds.svg	18	yes	57	0	418	0	0			0	0			1				0	
6.6.1	win	2023-07-10	10:56:13	11:05:55	577907	6107a5be3cbf757b3297d8a1	3	1	main_slash	7	main_slash	143	stimuli_distractor_trianglediamonds.svg	stimuli_target_rectangletriangles.svg	9	yes	53	1	518	0	0			0	0			1				0	
6.6.1	win	2023-07-10	10:56:13	11:05:55	577907	6107a5be3cbf757b3297d8a1	3	1	main_slash	7	advance_on_keypress_SLASH	144	stimuli_distractor_trianglediamonds.svg	stimuli_target_rectangletriangles.svg	9	yes	57	0	260	0	0			0	0			1				0	
6.6.1	win	2023-07-10	10:56:13	11:05:57	579348	6107a5be3cbf757b3297d8a1	3	1	main_slash	7	main_slash	145	stimuli_distractor_diamondtriangles.svg	stimuli_target_diamondsquares.svg	32	yes	53	1	525	0	0			0	0			1				0	
6.6.1	win	2023-07-10	10:56:13	11:05:57	579348	6107a5be3cbf757b3297d8a1	3	1	main_slash	7	advance_on_keypress_SLASH	146	stimuli_distractor_diamondtriangles.svg	stimuli_target_diamondsquares.svg	32	yes	57	0	222	0	0			0	0			1				0	
6.6.1	win	2023-07-10	10:56:13	11:05:59	582205	6107a5be3cbf757b3297d8a1	3	1	main_slash	7	main_slash	147	stimuli_distractor_trianglediamonds.svg	stimuli_distractor_trianglediamonds.svg	33	no	0	1	2000	0	0			0	0			1				0	
6.6.1	win	2023-07-10	10:56:13	11:05:59	582205	6107a5be3cbf757b3297d8a1	3	1	main_slash	7	advance_on_keypress_SLASH	148	stimuli_distractor_trianglediamonds.svg	stimuli_distractor_trianglediamonds.svg	33	no	57	0	321	0	0			0	0			1				0	
6.6.1	win	2023-07-10	10:56:13	11:06:01	583669	6107a5be3cbf757b3297d8a1	3	1	main_slash	7	main_slash	149	stimuli_distractor_diamondtriangles.svg	stimuli_target_rectanglediamonds.svg	14	yes	53	1	497	0	0			0	0			1				0	
6.6.1	win	2023-07-10	10:56:13	11:06:01	583669	6107a5be3cbf757b3297d8a1	3	1	main_slash	7	advance_on_keypress_SLASH	150	stimuli_distractor_diamondtriangles.svg	stimuli_target_rectanglediamonds.svg	14	yes	57	0	294	0	0			0	0			1				0	
6.6.1	win	2023-07-10	10:56:13	11:06:02	585068	6107a5be3cbf757b3297d8a1	3	1	main_slash	7	main_slash	151	stimuli_target_squaretriangles.svg	stimuli_distractor_trianglediamonds.svg	3	yes	53	1	446	0	0			0	0			1				0	
6.6.1	win	2023-07-10	10:56:13	11:06:02	585068	6107a5be3cbf757b3297d8a1	3	1	main_slash	7	advance_on_keypress_SLASH	152	stimuli_target_squaretriangles.svg	stimuli_distractor_trianglediamonds.svg	3	yes	57	0	235	0	0			0	0			1				0	
6.6.1	win	2023-07-10	10:56:13	11:06:04	586383	6107a5be3cbf757b3297d8a1	3	1	main_slash	7	main_slash	153	stimuli_distractor_trianglediamonds.svg	stimuli_target_squarediamonds.svg	12	yes	53	1	428	0	0			0	0			1				0	
6.6.1	win	2023-07-10	10:56:13	11:06:04	586383	6107a5be3cbf757b3297d8a1	3	1	main_slash	7	advance_on_keypress_SLASH	154	stimuli_distractor_trianglediamonds.svg	stimuli_target_squarediamonds.svg	12	yes	57	0	343	0	0			0	0			1				0	
6.6.1	win	2023-07-10	10:56:13	11:06:07	589371	6107a5be3cbf757b3297d8a1	3	1	main_slash	7	main_slash	155	stimuli_distractor_diamondtriangles.svg	stimuli_distractor_diamondtriangles.svg	40	no	0	1	2000	0	0			0	0			1				0	
6.6.1	win	2023-07-10	10:56:13	11:06:07	589371	6107a5be3cbf757b3297d8a1	3	1	main_slash	7	advance_on_keypress_SLASH	156	stimuli_distractor_diamondtriangles.svg	stimuli_distractor_diamondtriangles.svg	40	no	57	0	381	0	0			0	0			1				0	
6.6.1	win	2023-07-10	10:56:13	11:06:08	590748	6107a5be3cbf757b3297d8a1	3	1	main_slash	7	main_slash	157	stimuli_target_rectangletriangles.svg	stimuli_distractor_trianglediamonds.svg	1	yes	53	1	344	0	0			0	0			1				0	
6.6.1	win	2023-07-10	10:56:13	11:06:08	590748	6107a5be3cbf757b3297d8a1	3	1	main_slash	7	advance_on_keypress_SLASH	158	stimuli_target_rectangletriangles.svg	stimuli_distractor_trianglediamonds.svg	1	yes	57	0	344	0	0			0	0			1				0	
6.6.1	win	2023-07-10	10:56:13	11:06:09	592203	6107a5be3cbf757b3297d8a1	3	1	main_slash	7	main_slash	159	stimuli_target_rectanglediamonds.svg	stimuli_distractor_diamondtriangles.svg	6	yes	53	1	466	0	0			0	0			1				0	
6.6.1	win	2023-07-10	10:56:13	11:06:09	592203	6107a5be3cbf757b3297d8a1	3	1	main_slash	7	advance_on_keypress_SLASH	160	stimuli_target_rectanglediamonds.svg	stimuli_distractor_diamondtriangles.svg	6	yes	57	0	267	0	0			0	0			1				0	
6.6.1	win	2023-07-10	10:56:13	11:06:27	609957	6107a5be3cbf757b3297d8a1	3	1	practice_z	9	practice_z	1	stimuli_distractor_diamondtriangles.svg	stimuli_target_diamondrectangles.svg	8	yes	44	1	702	0	0			0	0			1				0	
6.6.1	win	2023-07-10	10:56:13	11:06:27	609957	6107a5be3cbf757b3297d8a1	3	1	practice_z	9	advance_on_keypress_ZEE	2	stimuli_distractor_diamondtriangles.svg	stimuli_target_diamondrectangles.svg	8	yes	57	0	676	0	0			0	0			1				0	
6.6.1	win	2023-07-10	10:56:13	11:06:30	612956	6107a5be3cbf757b3297d8a1	3	1	practice_z	9	practice_z	3	stimuli_distractor_diamondtriangles.svg	stimuli_target_rectangletriangles.svg	7	yes	44	1	686	0	0			0	0			1				0	
6.6.1	win	2023-07-10	10:56:13	11:06:30	612956	6107a5be3cbf757b3297d8a1	3	1	practice_z	9	advance_on_keypress_ZEE	4	stimuli_distractor_diamondtriangles.svg	stimuli_target_rectangletriangles.svg	7	yes	57	0	352	0	0			0	0			1				0	
6.6.1	win	2023-07-10	10:56:13	11:06:33	615498	6107a5be3cbf757b3297d8a1	3	1	practice_z	9	practice_z	5	stimuli_target_diamondsquares.svg	stimuli_distractor_diamondtriangles.svg	3	yes	44	1	544	0	0			0	0			1				0	
6.6.1	win	2023-07-10	10:56:13	11:06:33	615498	6107a5be3cbf757b3297d8a1	3	1	practice_z	9	advance_on_keypress_ZEE	6	stimuli_target_diamondsquares.svg	stimuli_distractor_diamondtriangles.svg	3	yes	57	0	331	0	0			0	0			1				0	
6.6.1	win	2023-07-10	10:56:13	11:06:35	618198	6107a5be3cbf757b3297d8a1	3	1	practice_z	9	practice_z	7	stimuli_distractor_trianglediamonds.svg	stimuli_target_rectanglediamonds.svg	10	yes	44	1	712	0	0			0	0			1				0	
6.6.1	win	2023-07-10	10:56:13	11:06:35	618198	6107a5be3cbf757b3297d8a1	3	1	practice_z	9	advance_on_keypress_ZEE	8	stimuli_distractor_trianglediamonds.svg	stimuli_target_rectanglediamonds.svg	10	yes	57	0	292	0	0			0	0			1				0	
6.6.1	win	2023-07-10	10:56:13	11:06:39	622137	6107a5be3cbf757b3297d8a1	3	1	practice_z	9	practice_z	9	stimuli_distractor_diamondtriangles.svg	stimuli_distractor_diamondtriangles.svg	13	no	0	1	2000	0	0			0	0			1				0	
6.6.1	win	2023-07-10	10:56:13	11:06:39	622137	6107a5be3cbf757b3297d8a1	3	1	practice_z	9	advance_on_keypress_ZEE	10	stimuli_distractor_diamondtriangles.svg	stimuli_distractor_diamondtriangles.svg	13	no	57	0	319	0	0			0	0			1				0	
6.6.1	win	2023-07-10	10:56:13	11:06:42	624576	6107a5be3cbf757b3297d8a1	3	1	practice_z	9	practice_z	11	stimuli_target_diamondsquares.svg	stimuli_distractor_trianglediamonds.svg	6	yes	44	1	474	0	0			0	0			1				0	
6.6.1	win	2023-07-10	10:56:13	11:06:42	624576	6107a5be3cbf757b3297d8a1	3	1	practice_z	9	advance_on_keypress_ZEE	12	stimuli_target_diamondsquares.svg	stimuli_distractor_trianglediamonds.svg	6	yes	57	0	410	0	0			0	0			1				0	
6.6.1	win	2023-07-10	10:56:13	11:06:44	627047	6107a5be3cbf757b3297d8a1	3	1	practice_z	9	practice_z	13	stimuli_target_squarediamonds.svg	stimuli_distractor_trianglediamonds.svg	5	yes	44	1	411	0	0			0	0			1				0	
6.6.1	win	2023-07-10	10:56:13	11:06:44	627047	6107a5be3cbf757b3297d8a1	3	1	practice_z	9	advance_on_keypress_ZEE	14	stimuli_target_squarediamonds.svg	stimuli_distractor_trianglediamonds.svg	5	yes	57	0	338	0	0			0	0			1				0	
6.6.1	win	2023-07-10	10:56:13	11:06:47	629426	6107a5be3cbf757b3297d8a1	3	1	practice_z	9	practice_z	15	stimuli_distractor_trianglediamonds.svg	stimuli_target_squarediamonds.svg	11	yes	44	1	391	0	0			0	0			1				0	
6.6.1	win	2023-07-10	10:56:13	11:06:47	629426	6107a5be3cbf757b3297d8a1	3	1	practice_z	9	advance_on_keypress_ZEE	16	stimuli_distractor_trianglediamonds.svg	stimuli_target_squarediamonds.svg	11	yes	57	0	260	0	0			0	0			1				0	
6.6.1	win	2023-07-10	10:56:13	11:06:49	632016	6107a5be3cbf757b3297d8a1	3	1	practice_z	9	practice_z	17	stimuli_target_rectanglediamonds.svg	stimuli_distractor_diamondtriangles.svg	1	yes	44	1	665	0	0			0	0			1				0	
6.6.1	win	2023-07-10	10:56:13	11:06:49	632016	6107a5be3cbf757b3297d8a1	3	1	practice_z	9	advance_on_keypress_ZEE	18	stimuli_target_rectanglediamonds.svg	stimuli_distractor_diamondtriangles.svg	1	yes	57	0	222	0	0			0	0			1				0	
6.6.1	win	2023-07-10	10:56:13	11:06:52	635157	6107a5be3cbf757b3297d8a1	3	1	practice_z	9	practice_z	19	stimuli_distractor_diamondtriangles.svg	stimuli_distractor_trianglediamonds.svg	14	no	44	0	1272	0	0			0	0			1				0	
6.6.1	win	2023-07-10	10:56:13	11:06:52	635157	6107a5be3cbf757b3297d8a1	3	1	practice_z	9	advance_on_keypress_ZEE	20	stimuli_distractor_diamondtriangles.svg	stimuli_distractor_trianglediamonds.svg	14	no	57	0	313	0	0			0	0			1				0	
6.6.1	win	2023-07-10	10:56:13	11:06:55	637512	6107a5be3cbf757b3297d8a1	3	1	practice_z	9	practice_z	21	stimuli_target_rectanglediamonds.svg	stimuli_distractor_trianglediamonds.svg	4	yes	44	1	394	0	0			0	0			1				0	
6.6.1	win	2023-07-10	10:56:13	11:06:55	637512	6107a5be3cbf757b3297d8a1	3	1	practice_z	9	advance_on_keypress_ZEE	22	stimuli_target_rectanglediamonds.svg	stimuli_distractor_trianglediamonds.svg	4	yes	57	0	347	0	0			0	0			1				0	
6.6.1	win	2023-07-10	10:56:13	11:06:57	640092	6107a5be3cbf757b3297d8a1	3	1	practice_z	9	practice_z	23	stimuli_distractor_trianglediamonds.svg	stimuli_target_diamondrectangles.svg	12	yes	44	1	574	0	0			0	0			1				0	
6.6.1	win	2023-07-10	10:56:13	11:06:57	640092	6107a5be3cbf757b3297d8a1	3	1	practice_z	9	advance_on_keypress_ZEE	24	stimuli_distractor_trianglediamonds.svg	stimuli_target_diamondrectangles.svg	12	yes	57	0	439	0	0			0	0			1				0	
6.6.1	win	2023-07-10	10:56:13	11:07:00	642627	6107a5be3cbf757b3297d8a1	3	1	practice_z	9	practice_z	25	stimuli_distractor_diamondtriangles.svg	stimuli_target_trianglerectangles.svg	9	yes	44	1	444	0	0			0	0			1				0	
6.6.1	win	2023-07-10	10:56:13	11:07:00	642627	6107a5be3cbf757b3297d8a1	3	1	practice_z	9	advance_on_keypress_ZEE	26	stimuli_distractor_diamondtriangles.svg	stimuli_target_trianglerectangles.svg	9	yes	57	0	281	0	0			0	0			1				0	
6.6.1	win	2023-07-10	10:56:13	11:07:02	645021	6107a5be3cbf757b3297d8a1	3	1	practice_z	9	practice_z	27	stimuli_target_squarediamonds.svg	stimuli_distractor_diamondtriangles.svg	2	yes	44	1	455	0	0			0	0			1				0	
6.6.1	win	2023-07-10	10:56:13	11:07:02	645021	6107a5be3cbf757b3297d8a1	3	1	practice_z	9	advance_on_keypress_ZEE	28	stimuli_target_squarediamonds.svg	stimuli_distractor_diamondtriangles.svg	2	yes	57	0	363	0	0			0	0			1				0	
6.6.1	win	2023-07-10	10:56:13	11:07:05	647517	6107a5be3cbf757b3297d8a1	3	1	practice_z	9	practice_z	29	stimuli_distractor_trianglediamonds.svg	stimuli_distractor_diamondtriangles.svg	16	no	44	0	483	0	0			0	0			1				0	
6.6.1	win	2023-07-10	10:56:13	11:07:05	647517	6107a5be3cbf757b3297d8a1	3	1	practice_z	9	advance_on_keypress_ZEE	30	stimuli_distractor_trianglediamonds.svg	stimuli_distractor_diamondtriangles.svg	16	no	57	0	269	0	0			0	0			1				0	
6.6.1	win	2023-07-10	10:56:13	11:07:09	651433	6107a5be3cbf757b3297d8a1	3	1	practice_z	9	practice_z	31	stimuli_distractor_trianglediamonds.svg	stimuli_distractor_trianglediamonds.svg	15	no	0	1	2000	0	0			0	0			1				0	
6.6.1	win	2023-07-10	10:56:13	11:07:09	651433	6107a5be3cbf757b3297d8a1	3	1	practice_z	9	advance_on_keypress_ZEE	32	stimuli_distractor_trianglediamonds.svg	stimuli_distractor_trianglediamonds.svg	15	no	57	0	492	0	0			0	0			1				0	
6.6.1	win	2023-07-10	10:56:13	11:08:06	708293	6107a5be3cbf757b3297d8a1	3	1	main_z	11	main_z	1	stimuli_target_diamondrectangles.svg	stimuli_distractor_diamondtriangles.svg	23	yes	44	1	571	0	0			0	0			1				0	
6.6.1	win	2023-07-10	10:56:13	11:08:06	708293	6107a5be3cbf757b3297d8a1	3	1	main_z	11	advance_on_keypress_ZEE	2	stimuli_target_diamondrectangles.svg	stimuli_distractor_diamondtriangles.svg	23	yes	57	0	1108	0	0			0	0			1				0	
6.6.1	win	2023-07-10	10:56:13	11:08:08	710339	6107a5be3cbf757b3297d8a1	3	1	main_z	11	main_z	3	stimuli_distractor_diamondtriangles.svg	stimuli_target_rectanglediamonds.svg	14	yes	44	1	300	0	0			0	0			1				0	
6.6.1	win	2023-07-10	10:56:13	11:08:08	710339	6107a5be3cbf757b3297d8a1	3	1	main_z	11	advance_on_keypress_ZEE	4	stimuli_distractor_diamondtriangles.svg	stimuli_target_rectanglediamonds.svg	14	yes	57	0	503	0	0			0	0			1				0	
6.6.1	win	2023-07-10	10:56:13	11:08:09	711844	6107a5be3cbf757b3297d8a1	3	1	main_z	11	main_z	5	stimuli_distractor_trianglediamonds.svg	stimuli_target_squaretriangles.svg	11	yes	44	1	355	0	0			0	0			1				0	
6.6.1	win	2023-07-10	10:56:13	11:08:09	711844	6107a5be3cbf757b3297d8a1	3	1	main_z	11	advance_on_keypress_ZEE	6	stimuli_distractor_trianglediamonds.svg	stimuli_target_squaretriangles.svg	11	yes	57	0	289	0	0			0	0			1				0	
6.6.1	win	2023-07-10	10:56:13	11:08:11	713314	6107a5be3cbf757b3297d8a1	3	1	main_z	11	main_z	7	stimuli_target_trianglerectangles.svg	stimuli_distractor_diamondtriangles.svg	21	yes	44	1	542	0	0			0	0			1				0	
6.6.1	win	2023-07-10	10:56:13	11:08:11	713314	6107a5be3cbf757b3297d8a1	3	1	main_z	11	advance_on_keypress_ZEE	8	stimuli_target_trianglerectangles.svg	stimuli_distractor_diamondtriangles.svg	21	yes	57	0	359	0	0			0	0			1				0	
6.6.1	win	2023-07-10	10:56:13	11:08:14	716305	6107a5be3cbf757b3297d8a1	3	1	main_z	11	main_z	9	stimuli_distractor_trianglediamonds.svg	stimuli_distractor_diamondtriangles.svg	36	no	0	1	2000	0	0			0	0			1				0	
6.6.1	win	2023-07-10	10:56:13	11:08:14	716305	6107a5be3cbf757b3297d8a1	3	1	main_z	11	advance_on_keypress_ZEE	10	stimuli_distractor_trianglediamonds.svg	stimuli_distractor_diamondtriangles.svg	36	no	57	0	693	0	0			0	0			1				0	
6.6.1	win	2023-07-10	10:56:13	11:08:15	718135	6107a5be3cbf757b3297d8a1	3	1	main_z	11	main_z	11	stimuli_distractor_diamondtriangles.svg	stimuli_distractor_trianglediamonds.svg	37	no	44	0	497	0	0			0	0			1				0	
6.6.1	win	2023-07-10	10:56:13	11:08:15	718135	6107a5be3cbf757b3297d8a1	3	1	main_z	11	advance_on_keypress_ZEE	12	stimuli_distractor_diamondtriangles.svg	stimuli_distractor_trianglediamonds.svg	37	no	57	0	360	0	0			0	0			1				0	
6.6.1	win	2023-07-10	10:56:13	11:08:17	719545	6107a5be3cbf757b3297d8a1	3	1	main_z	11	main_z	13	stimuli_distractor_diamondtriangles.svg	stimuli_target_squaretriangles.svg	15	yes	44	1	390	0	0			0	0			1				0	
6.6.1	win	2023-07-10	10:56:13	11:08:17	719545	6107a5be3cbf757b3297d8a1	3	1	main_z	11	advance_on_keypress_ZEE	14	stimuli_distractor_diamondtriangles.svg	stimuli_target_squaretriangles.svg	15	yes	57	0	280	0	0			0	0			1				0	
6.6.1	win	2023-07-10	10:56:13	11:08:19	721375	6107a5be3cbf757b3297d8a1	3	1	main_z	11	main_z	15	stimuli_distractor_trianglediamonds.svg	stimuli_target_rectangletriangles.svg	9	yes	44	1	905	0	0			0	0			1				0	
6.6.1	win	2023-07-10	10:56:13	11:08:19	721375	6107a5be3cbf757b3297d8a1	3	1	main_z	11	advance_on_keypress_ZEE	16	stimuli_distractor_trianglediamonds.svg	stimuli_target_rectangletriangles.svg	9	yes	57	0	388	0	0			0	0			1				0	
6.6.1	win	2023-07-10	10:56:13	11:08:20	722720	6107a5be3cbf757b3297d8a1	3	1	main_z	11	main_z	17	stimuli_target_squarediamonds.svg	stimuli_distractor_trianglediamonds.svg	4	yes	44	1	317	0	0			0	0			1				0	
6.6.1	win	2023-07-10	10:56:13	11:08:20	722720	6107a5be3cbf757b3297d8a1	3	1	main_z	11	advance_on_keypress_ZEE	18	stimuli_target_squarediamonds.svg	stimuli_distractor_trianglediamonds.svg	4	yes	57	0	228	0	0			0	0			1				0	
6.6.1	win	2023-07-10	10:56:13	11:08:21	724181	6107a5be3cbf757b3297d8a1	3	1	main_z	11	main_z	19	stimuli_target_rectangletriangles.svg	stimuli_distractor_trianglediamonds.svg	1	yes	44	1	577	0	0			0	0			1				0	
6.6.1	win	2023-07-10	10:56:13	11:08:21	724181	6107a5be3cbf757b3297d8a1	3	1	main_z	11	advance_on_keypress_ZEE	20	stimuli_target_rectangletriangles.svg	stimuli_distractor_trianglediamonds.svg	1	yes	57	0	359	0	0			0	0			1				0	
6.6.1	win	2023-07-10	10:56:13	11:08:23	725549	6107a5be3cbf757b3297d8a1	3	1	main_z	11	main_z	21	stimuli_distractor_trianglediamonds.svg	stimuli_target_rectanglediamonds.svg	10	yes	44	1	376	0	0			0	0			1				0	
6.6.1	win	2023-07-10	10:56:13	11:08:23	725549	6107a5be3cbf757b3297d8a1	3	1	main_z	11	advance_on_keypress_ZEE	22	stimuli_distractor_trianglediamonds.svg	stimuli_target_rectanglediamonds.svg	10	yes	57	0	1396	0	0			0	0			1				0	
6.6.1	win	2023-07-10	10:56:13	11:08:25	727866	6107a5be3cbf757b3297d8a1	3	1	main_z	11	main_z	23	stimuli_distractor_diamondtriangles.svg	stimuli_target_trianglesquares.svg	30	yes	44	1	262	0	0			0	0			1				0	
6.6.1	win	2023-07-10	10:56:13	11:08:25	727866	6107a5be3cbf757b3297d8a1	3	1	main_z	11	advance_on_keypress_ZEE	24	stimuli_distractor_diamondtriangles.svg	stimuli_target_trianglesquares.svg	30	yes	57	0	279	0	0			0	0			1				0	
6.6.1	win	2023-07-10	10:56:13	11:08:27	729356	6107a5be3cbf757b3297d8a1	3	1	main_z	11	main_z	25	stimuli_distractor_diamondtriangles.svg	stimuli_target_trianglerectangles.svg	29	yes	44	1	553	0	0			0	0			1				0	
6.6.1	win	2023-07-10	10:56:13	11:08:27	729356	6107a5be3cbf757b3297d8a1	3	1	main_z	11	advance_on_keypress_ZEE	26	stimuli_distractor_diamondtriangles.svg	stimuli_target_trianglerectangles.svg	29	yes	57	0	356	0	0			0	0			1				0	
6.6.1	win	2023-07-10	10:56:13	11:08:28	731056	6107a5be3cbf757b3297d8a1	3	1	main_z	11	main_z	27	stimuli_target_trianglerectangles.svg	stimuli_distractor_trianglediamonds.svg	17	yes	44	1	703	0	0			0	0			1				0	
6.6.1	win	2023-07-10	10:56:13	11:08:28	731056	6107a5be3cbf757b3297d8a1	3	1	main_z	11	advance_on_keypress_ZEE	28	stimuli_target_trianglerectangles.svg	stimuli_distractor_trianglediamonds.svg	17	yes	57	0	301	0	0			0	0			1				0	
6.6.1	win	2023-07-10	10:56:13	11:08:30	732697	6107a5be3cbf757b3297d8a1	3	1	main_z	11	main_z	29	stimuli_distractor_trianglediamonds.svg	stimuli_distractor_trianglediamonds.svg	34	no	44	0	694	0	0			0	0			1				0	
6.6.1	win	2023-07-10	10:56:13	11:08:30	732697	6107a5be3cbf757b3297d8a1	3	1	main_z	11	advance_on_keypress_ZEE	30	stimuli_distractor_trianglediamonds.svg	stimuli_distractor_trianglediamonds.svg	34	no	57	0	217	0	0			0	0			1				0	
6.6.1	win	2023-07-10	10:56:13	11:08:31	734157	6107a5be3cbf757b3297d8a1	3	1	main_z	11	main_z	31	stimuli_distractor_trianglediamonds.svg	stimuli_target_trianglesquares.svg	26	yes	44	1	587	0	0			0	0			1				0	
6.6.1	win	2023-07-10	10:56:13	11:08:31	734157	6107a5be3cbf757b3297d8a1	3	1	main_z	11	advance_on_keypress_ZEE	32	stimuli_distractor_trianglediamonds.svg	stimuli_target_trianglesquares.svg	26	yes	57	0	217	0	0			0	0			1				0	
6.6.1	win	2023-07-10	10:56:13	11:08:33	735668	6107a5be3cbf757b3297d8a1	3	1	main_z	11	main_z	33	stimuli_target_rectanglediamonds.svg	stimuli_distractor_trianglediamonds.svg	2	yes	44	1	648	0	0			0	0			1				0	
6.6.1	win	2023-07-10	10:56:13	11:08:33	735668	6107a5be3cbf757b3297d8a1	3	1	main_z	11	advance_on_keypress_ZEE	34	stimuli_target_rectanglediamonds.svg	stimuli_distractor_trianglediamonds.svg	2	yes	57	0	301	0	0			0	0			1				0	
6.6.1	win	2023-07-10	10:56:13	11:08:34	737072	6107a5be3cbf757b3297d8a1	3	1	main_z	11	main_z	35	stimuli_target_rectangletriangles.svg	stimuli_distractor_diamondtriangles.svg	5	yes	44	1	453	0	0			0	0			1				0	
6.6.1	win	2023-07-10	10:56:13	11:08:34	737072	6107a5be3cbf757b3297d8a1	3	1	main_z	11	advance_on_keypress_ZEE	36	stimuli_target_rectangletriangles.svg	stimuli_distractor_diamondtriangles.svg	5	yes	57	0	301	0	0			0	0			1				0	
6.6.1	win	2023-07-10	10:56:13	11:08:37	740019	6107a5be3cbf757b3297d8a1	3	1	main_z	11	main_z	37	stimuli_distractor_trianglediamonds.svg	stimuli_distractor_diamondtriangles.svg	35	no	0	1	2000	0	0			0	0			1				0	
6.6.1	win	2023-07-10	10:56:13	11:08:37	740019	6107a5be3cbf757b3297d8a1	3	1	main_z	11	advance_on_keypress_ZEE	38	stimuli_distractor_trianglediamonds.svg	stimuli_distractor_diamondtriangles.svg	35	no	57	0	263	0	0			0	0			1				0	
6.6.1	win	2023-07-10	10:56:13	11:08:40	742935	6107a5be3cbf757b3297d8a1	3	1	main_z	11	main_z	39	stimuli_distractor_trianglediamonds.svg	stimuli_distractor_trianglediamonds.svg	33	no	0	1	2000	0	0			0	0			1				0	
6.6.1	win	2023-07-10	10:56:13	11:08:40	742935	6107a5be3cbf757b3297d8a1	3	1	main_z	11	advance_on_keypress_ZEE	40	stimuli_distractor_trianglediamonds.svg	stimuli_distractor_trianglediamonds.svg	33	no	57	0	461	0	0			0	0			1				0	
6.6.1	win	2023-07-10	10:56:13	11:08:42	744463	6107a5be3cbf757b3297d8a1	3	1	main_z	11	main_z	41	stimuli_target_squarediamonds.svg	stimuli_distractor_diamondtriangles.svg	8	yes	44	1	412	0	0			0	0			1				0	
6.6.1	win	2023-07-10	10:56:13	11:08:42	744463	6107a5be3cbf757b3297d8a1	3	1	main_z	11	advance_on_keypress_ZEE	42	stimuli_target_squarediamonds.svg	stimuli_distractor_diamondtriangles.svg	8	yes	57	0	278	0	0			0	0			1				0	
6.6.1	win	2023-07-10	10:56:13	11:08:43	746038	6107a5be3cbf757b3297d8a1	3	1	main_z	11	main_z	43	stimuli_distractor_trianglediamonds.svg	stimuli_target_diamondsquares.svg	28	yes	44	1	637	0	0			0	0			1				0	
6.6.1	win	2023-07-10	10:56:13	11:08:43	746038	6107a5be3cbf757b3297d8a1	3	1	main_z	11	advance_on_keypress_ZEE	44	stimuli_distractor_trianglediamonds.svg	stimuli_target_diamondsquares.svg	28	yes	57	0	296	0	0			0	0			1				0	
6.6.1	win	2023-07-10	10:56:13	11:08:45	747674	6107a5be3cbf757b3297d8a1	3	1	main_z	11	main_z	45	stimuli_distractor_trianglediamonds.svg	stimuli_target_trianglerectangles.svg	25	yes	44	1	690	0	0			0	0			1				0	
6.6.1	win	2023-07-10	10:56:13	11:08:45	747674	6107a5be3cbf757b3297d8a1	3	1	main_z	11	advance_on_keypress_ZEE	46	stimuli_distractor_trianglediamonds.svg	stimuli_target_trianglerectangles.svg	25	yes	57	0	380	0	0			0	0			1				0	
6.6.1	win	2023-07-10	10:56:13	11:08:48	750701	6107a5be3cbf757b3297d8a1	3	1	main_z	11	main_z	47	stimuli_distractor_diamondtriangles.svg	stimuli_distractor_trianglediamonds.svg	38	no	0	1	2000	0	0			0	0			1				0	
6.6.1	win	2023-07-10	10:56:13	11:08:48	750701	6107a5be3cbf757b3297d8a1	3	1	main_z	11	advance_on_keypress_ZEE	48	stimuli_distractor_diamondtriangles.svg	stimuli_distractor_trianglediamonds.svg	38	no	57	0	313	0	0			0	0			1				0	
6.6.1	win	2023-07-10	10:56:13	11:08:50	752299	6107a5be3cbf757b3297d8a1	3	1	main_z	11	main_z	49	stimuli_target_diamondrectangles.svg	stimuli_distractor_trianglediamonds.svg	19	yes	44	1	633	0	0			0	0			1				0	
6.6.1	win	2023-07-10	10:56:13	11:08:50	752299	6107a5be3cbf757b3297d8a1	3	1	main_z	11	advance_on_keypress_ZEE	50	stimuli_target_diamondrectangles.svg	stimuli_distractor_trianglediamonds.svg	19	yes	57	0	289	0	0			0	0			1				0	
6.6.1	win	2023-07-10	10:56:13	11:08:51	753699	6107a5be3cbf757b3297d8a1	3	1	main_z	11	main_z	51	stimuli_distractor_diamondtriangles.svg	stimuli_target_squarediamonds.svg	16	yes	44	1	466	0	0			0	0			1				0	
6.6.1	win	2023-07-10	10:56:13	11:08:51	753699	6107a5be3cbf757b3297d8a1	3	1	main_z	11	advance_on_keypress_ZEE	52	stimuli_distractor_diamondtriangles.svg	stimuli_target_squarediamonds.svg	16	yes	57	0	248	0	0			0	0			1				0	
6.6.1	win	2023-07-10	10:56:13	11:08:52	755095	6107a5be3cbf757b3297d8a1	3	1	main_z	11	main_z	53	stimuli_distractor_trianglediamonds.svg	stimuli_target_squarediamonds.svg	12	yes	44	1	495	0	0			0	0			1				0	
6.6.1	win	2023-07-10	10:56:13	11:08:52	755095	6107a5be3cbf757b3297d8a1	3	1	main_z	11	advance_on_keypress_ZEE	54	stimuli_distractor_trianglediamonds.svg	stimuli_target_squarediamonds.svg	12	yes	57	0	228	0	0			0	0			1				0	
6.6.1	win	2023-07-10	10:56:13	11:08:54	756395	6107a5be3cbf757b3297d8a1	3	1	main_z	11	main_z	55	stimuli_target_squaretriangles.svg	stimuli_distractor_diamondtriangles.svg	7	yes	44	1	411	0	0			0	0			1				0	
6.6.1	win	2023-07-10	10:56:13	11:08:54	756395	6107a5be3cbf757b3297d8a1	3	1	main_z	11	advance_on_keypress_ZEE	56	stimuli_target_squaretriangles.svg	stimuli_distractor_diamondtriangles.svg	7	yes	57	0	229	0	0			0	0			1				0	
6.6.1	win	2023-07-10	10:56:13	11:08:55	757681	6107a5be3cbf757b3297d8a1	3	1	main_z	11	main_z	57	stimuli_distractor_diamondtriangles.svg	stimuli_target_diamondrectangles.svg	31	yes	44	1	399	0	0			0	0			1				0	
6.6.1	win	2023-07-10	10:56:13	11:08:55	757681	6107a5be3cbf757b3297d8a1	3	1	main_z	11	advance_on_keypress_ZEE	58	stimuli_distractor_diamondtriangles.svg	stimuli_target_diamondrectangles.svg	31	yes	57	0	251	0	0			0	0			1				0	
6.6.1	win	2023-07-10	10:56:13	11:08:56	758926	6107a5be3cbf757b3297d8a1	3	1	main_z	11	main_z	59	stimuli_target_trianglesquares.svg	stimuli_distractor_trianglediamonds.svg	18	yes	44	1	343	0	0			0	0			1				0	
6.6.1	win	2023-07-10	10:56:13	11:08:56	758926	6107a5be3cbf757b3297d8a1	3	1	main_z	11	advance_on_keypress_ZEE	60	stimuli_target_trianglesquares.svg	stimuli_distractor_trianglediamonds.svg	18	yes	57	0	293	0	0			0	0			1				0	
6.6.1	win	2023-07-10	10:56:13	11:08:58	760225	6107a5be3cbf757b3297d8a1	3	1	main_z	11	main_z	61	stimuli_target_trianglesquares.svg	stimuli_distractor_diamondtriangles.svg	22	yes	44	1	367	0	0			0	0			1				0	
6.6.1	win	2023-07-10	10:56:13	11:08:58	760225	6107a5be3cbf757b3297d8a1	3	1	main_z	11	advance_on_keypress_ZEE	62	stimuli_target_trianglesquares.svg	stimuli_distractor_diamondtriangles.svg	22	yes	57	0	243	0	0			0	0			1				0	
6.6.1	win	2023-07-10	10:56:13	11:08:59	761517	6107a5be3cbf757b3297d8a1	3	1	main_z	11	main_z	63	stimuli_target_squaretriangles.svg	stimuli_distractor_trianglediamonds.svg	3	yes	44	1	417	0	0			0	0			1				0	
6.6.1	win	2023-07-10	10:56:13	11:08:59	761517	6107a5be3cbf757b3297d8a1	3	1	main_z	11	advance_on_keypress_ZEE	64	stimuli_target_squaretriangles.svg	stimuli_distractor_trianglediamonds.svg	3	yes	57	0	399	0	0			0	0			1				0	
6.6.1	win	2023-07-10	10:56:13	11:09:00	763172	6107a5be3cbf757b3297d8a1	3	1	main_z	11	main_z	65	stimuli_distractor_diamondtriangles.svg	stimuli_target_diamondsquares.svg	32	yes	44	1	606	0	0			0	0			1				0	
6.6.1	win	2023-07-10	10:56:13	11:09:00	763172	6107a5be3cbf757b3297d8a1	3	1	main_z	11	advance_on_keypress_ZEE	66	stimuli_distractor_diamondtriangles.svg	stimuli_target_diamondsquares.svg	32	yes	57	0	300	0	0			0	0			1				0	
6.6.1	win	2023-07-10	10:56:13	11:09:02	764698	6107a5be3cbf757b3297d8a1	3	1	main_z	11	main_z	67	stimuli_distractor_trianglediamonds.svg	stimuli_target_diamondrectangles.svg	27	yes	44	1	582	0	0			0	0			1				0	
6.6.1	win	2023-07-10	10:56:13	11:09:02	764698	6107a5be3cbf757b3297d8a1	3	1	main_z	11	advance_on_keypress_ZEE	68	stimuli_distractor_trianglediamonds.svg	stimuli_target_diamondrectangles.svg	27	yes	57	0	281	0	0			0	0			1				0	
6.6.1	win	2023-07-10	10:56:13	11:09:04	766512	6107a5be3cbf757b3297d8a1	3	1	main_z	11	main_z	69	stimuli_target_rectanglediamonds.svg	stimuli_distractor_diamondtriangles.svg	6	yes	44	1	881	0	0			0	0			1				0	
6.6.1	win	2023-07-10	10:56:13	11:09:04	766512	6107a5be3cbf757b3297d8a1	3	1	main_z	11	advance_on_keypress_ZEE	70	stimuli_target_rectanglediamonds.svg	stimuli_distractor_diamondtriangles.svg	6	yes	57	0	696	0	0			0	0			1				0	
6.6.1	win	2023-07-10	10:56:13	11:09:06	768528	6107a5be3cbf757b3297d8a1	3	1	main_z	11	main_z	71	stimuli_target_diamondsquares.svg	stimuli_distractor_trianglediamonds.svg	20	yes	44	1	663	0	0			0	0			1				0	
6.6.1	win	2023-07-10	10:56:13	11:09:06	768528	6107a5be3cbf757b3297d8a1	3	1	main_z	11	advance_on_keypress_ZEE	72	stimuli_target_diamondsquares.svg	stimuli_distractor_trianglediamonds.svg	20	yes	57	0	291	0	0			0	0			1				0	
6.6.1	win	2023-07-10	10:56:13	11:09:08	770309	6107a5be3cbf757b3297d8a1	3	1	main_z	11	main_z	73	stimuli_distractor_diamondtriangles.svg	stimuli_target_rectangletriangles.svg	13	yes	44	1	844	0	0			0	0			1				0	
6.6.1	win	2023-07-10	10:56:13	11:09:08	770309	6107a5be3cbf757b3297d8a1	3	1	main_z	11	advance_on_keypress_ZEE	74	stimuli_distractor_diamondtriangles.svg	stimuli_target_rectangletriangles.svg	13	yes	57	0	314	0	0			0	0			1				0	
6.6.1	win	2023-07-10	10:56:13	11:09:11	773281	6107a5be3cbf757b3297d8a1	3	1	main_z	11	main_z	75	stimuli_distractor_diamondtriangles.svg	stimuli_distractor_diamondtriangles.svg	39	no	0	1	2000	0	0			0	0			1				0	
6.6.1	win	2023-07-10	10:56:13	11:09:11	773281	6107a5be3cbf757b3297d8a1	3	1	main_z	11	advance_on_keypress_ZEE	76	stimuli_distractor_diamondtriangles.svg	stimuli_distractor_diamondtriangles.svg	39	no	57	0	462	0	0			0	0			1				0	
6.6.1	win	2023-07-10	10:56:13	11:09:12	774880	6107a5be3cbf757b3297d8a1	3	1	main_z	11	main_z	77	stimuli_target_diamondsquares.svg	stimuli_distractor_diamondtriangles.svg	24	yes	44	1	482	0	0			0	0			1				0	
6.6.1	win	2023-07-10	10:56:13	11:09:12	774880	6107a5be3cbf757b3297d8a1	3	1	main_z	11	advance_on_keypress_ZEE	78	stimuli_target_diamondsquares.svg	stimuli_distractor_diamondtriangles.svg	24	yes	57	0	237	0	0			0	0			1				0	
6.6.1	win	2023-07-10	10:56:13	11:09:15	777764	6107a5be3cbf757b3297d8a1	3	1	main_z	11	main_z	79	stimuli_distractor_diamondtriangles.svg	stimuli_distractor_diamondtriangles.svg	40	no	0	1	2000	0	0			0	0			1				0	
6.6.1	win	2023-07-10	10:56:13	11:09:15	777764	6107a5be3cbf757b3297d8a1	3	1	main_z	11	advance_on_keypress_ZEE	80	stimuli_distractor_diamondtriangles.svg	stimuli_distractor_diamondtriangles.svg	40	no	57	0	395	0	0			0	0			1				0	
6.6.1	win	2023-07-10	10:56:13	11:09:18	780814	6107a5be3cbf757b3297d8a1	3	1	main_z	11	main_z	81	stimuli_distractor_diamondtriangles.svg	stimuli_distractor_diamondtriangles.svg	40	no	0	1	2000	0	0			0	0			1				0	
6.6.1	win	2023-07-10	10:56:13	11:09:18	780814	6107a5be3cbf757b3297d8a1	3	1	main_z	11	advance_on_keypress_ZEE	82	stimuli_distractor_diamondtriangles.svg	stimuli_distractor_diamondtriangles.svg	40	no	57	0	277	0	0			0	0			1				0	
6.6.1	win	2023-07-10	10:56:13	11:09:21	783730	6107a5be3cbf757b3297d8a1	3	1	main_z	11	main_z	83	stimuli_distractor_trianglediamonds.svg	stimuli_distractor_trianglediamonds.svg	34	no	0	1	2000	0	0			0	0			1				0	
6.6.1	win	2023-07-10	10:56:13	11:09:21	783730	6107a5be3cbf757b3297d8a1	3	1	main_z	11	advance_on_keypress_ZEE	84	stimuli_distractor_trianglediamonds.svg	stimuli_distractor_trianglediamonds.svg	34	no	57	0	27	0	0			0	0			1				0	
6.6.1	win	2023-07-10	10:56:13	11:09:22	785143	6107a5be3cbf757b3297d8a1	3	1	main_z	11	main_z	85	stimuli_distractor_diamondtriangles.svg	stimuli_distractor_trianglediamonds.svg	38	no	44	0	746	0	0			0	0			1				0	
6.6.1	win	2023-07-10	10:56:13	11:09:22	785143	6107a5be3cbf757b3297d8a1	3	1	main_z	11	advance_on_keypress_ZEE	86	stimuli_distractor_diamondtriangles.svg	stimuli_distractor_trianglediamonds.svg	38	no	57	0	350	0	0			0	0			1				0	
6.6.1	win	2023-07-10	10:56:13	11:09:24	786522	6107a5be3cbf757b3297d8a1	3	1	main_z	11	main_z	87	stimuli_target_rectanglediamonds.svg	stimuli_distractor_trianglediamonds.svg	2	yes	44	1	373	0	0			0	0			1				0	
6.6.1	win	2023-07-10	10:56:13	11:09:24	786522	6107a5be3cbf757b3297d8a1	3	1	main_z	11	advance_on_keypress_ZEE	88	stimuli_target_rectanglediamonds.svg	stimuli_distractor_trianglediamonds.svg	2	yes	57	0	484	0	0			0	0			1				0	
6.6.1	win	2023-07-10	10:56:13	11:09:26	788349	6107a5be3cbf757b3297d8a1	3	1	main_z	11	main_z	89	stimuli_target_diamondrectangles.svg	stimuli_distractor_diamondtriangles.svg	23	yes	44	1	703	0	0			0	0			1				0	
6.6.1	win	2023-07-10	10:56:13	11:09:26	788349	6107a5be3cbf757b3297d8a1	3	1	main_z	11	advance_on_keypress_ZEE	90	stimuli_target_diamondrectangles.svg	stimuli_distractor_diamondtriangles.svg	23	yes	57	0	337	0	0			0	0			1				0	
6.6.1	win	2023-07-10	10:56:13	11:09:27	789838	6107a5be3cbf757b3297d8a1	3	1	main_z	11	main_z	91	stimuli_target_rectangletriangles.svg	stimuli_distractor_diamondtriangles.svg	5	yes	44	1	506	0	0			0	0			1				0	
6.6.1	win	2023-07-10	10:56:13	11:09:27	789838	6107a5be3cbf757b3297d8a1	3	1	main_z	11	advance_on_keypress_ZEE	92	stimuli_target_rectangletriangles.svg	stimuli_distractor_diamondtriangles.svg	5	yes	57	0	287	0	0			0	0			1				0	
6.6.1	win	2023-07-10	10:56:13	11:09:29	791265	6107a5be3cbf757b3297d8a1	3	1	main_z	11	main_z	93	stimuli_distractor_trianglediamonds.svg	stimuli_target_squarediamonds.svg	12	yes	44	1	486	0	0			0	0			1				0	
6.6.1	win	2023-07-10	10:56:13	11:09:29	791265	6107a5be3cbf757b3297d8a1	3	1	main_z	11	advance_on_keypress_ZEE	94	stimuli_distractor_trianglediamonds.svg	stimuli_target_squarediamonds.svg	12	yes	57	0	321	0	0			0	0			1				0	
6.6.1	win	2023-07-10	10:56:13	11:09:30	792604	6107a5be3cbf757b3297d8a1	3	1	main_z	11	main_z	95	stimuli_target_rectanglediamonds.svg	stimuli_distractor_diamondtriangles.svg	6	yes	44	1	371	0	0			0	0			1				0	
6.6.1	win	2023-07-10	10:56:13	11:09:30	792604	6107a5be3cbf757b3297d8a1	3	1	main_z	11	advance_on_keypress_ZEE	96	stimuli_target_rectanglediamonds.svg	stimuli_distractor_diamondtriangles.svg	6	yes	57	0	278	0	0			0	0			1				0	
6.6.1	win	2023-07-10	10:56:13	11:09:31	793921	6107a5be3cbf757b3297d8a1	3	1	main_z	11	main_z	97	stimuli_target_trianglesquares.svg	stimuli_distractor_diamondtriangles.svg	22	yes	44	1	392	0	0			0	0			1				0	
6.6.1	win	2023-07-10	10:56:13	11:09:31	793921	6107a5be3cbf757b3297d8a1	3	1	main_z	11	advance_on_keypress_ZEE	98	stimuli_target_trianglesquares.svg	stimuli_distractor_diamondtriangles.svg	22	yes	57	0	292	0	0			0	0			1				0	
6.6.1	win	2023-07-10	10:56:13	11:09:33	795286	6107a5be3cbf757b3297d8a1	3	1	main_z	11	main_z	99	stimuli_distractor_diamondtriangles.svg	stimuli_target_diamondsquares.svg	32	yes	44	1	441	0	0			0	0			1				0	
6.6.1	win	2023-07-10	10:56:13	11:09:33	795286	6107a5be3cbf757b3297d8a1	3	1	main_z	11	advance_on_keypress_ZEE	100	stimuli_distractor_diamondtriangles.svg	stimuli_target_diamondsquares.svg	32	yes	57	0	291	0	0			0	0			1				0	
6.6.1	win	2023-07-10	10:56:13	11:09:35	798211	6107a5be3cbf757b3297d8a1	3	1	main_z	11	main_z	101	stimuli_distractor_diamondtriangles.svg	stimuli_distractor_trianglediamonds.svg	37	no	0	1	2000	0	0			0	0			1				0	
6.6.1	win	2023-07-10	10:56:13	11:09:35	798211	6107a5be3cbf757b3297d8a1	3	1	main_z	11	advance_on_keypress_ZEE	102	stimuli_distractor_diamondtriangles.svg	stimuli_distractor_trianglediamonds.svg	37	no	57	0	749	0	0			0	0			1				0	
6.6.1	win	2023-07-10	10:56:13	11:09:37	800120	6107a5be3cbf757b3297d8a1	3	1	main_z	11	main_z	103	stimuli_target_diamondrectangles.svg	stimuli_distractor_trianglediamonds.svg	19	yes	44	1	507	0	0			0	0			1				0	
6.6.1	win	2023-07-10	10:56:13	11:09:37	800120	6107a5be3cbf757b3297d8a1	3	1	main_z	11	advance_on_keypress_ZEE	104	stimuli_target_diamondrectangles.svg	stimuli_distractor_trianglediamonds.svg	19	yes	57	0	364	0	0			0	0			1				0	
6.6.1	win	2023-07-10	10:56:13	11:09:39	801558	6107a5be3cbf757b3297d8a1	3	1	main_z	11	main_z	105	stimuli_distractor_diamondtriangles.svg	stimuli_target_diamondrectangles.svg	31	yes	44	1	414	0	0			0	0			1				0	
6.6.1	win	2023-07-10	10:56:13	11:09:39	801558	6107a5be3cbf757b3297d8a1	3	1	main_z	11	advance_on_keypress_ZEE	106	stimuli_distractor_diamondtriangles.svg	stimuli_target_diamondrectangles.svg	31	yes	57	0	285	0	0			0	0			1				0	
6.6.1	win	2023-07-10	10:56:13	11:09:40	802888	6107a5be3cbf757b3297d8a1	3	1	main_z	11	main_z	107	stimuli_distractor_trianglediamonds.svg	stimuli_target_trianglesquares.svg	26	yes	44	1	395	0	0			0	0			1				0	
6.6.1	win	2023-07-10	10:56:13	11:09:40	802888	6107a5be3cbf757b3297d8a1	3	1	main_z	11	advance_on_keypress_ZEE	108	stimuli_distractor_trianglediamonds.svg	stimuli_target_trianglesquares.svg	26	yes	57	0	278	0	0			0	0			1				0	
6.6.1	win	2023-07-10	10:56:13	11:09:43	805827	6107a5be3cbf757b3297d8a1	3	1	main_z	11	main_z	109	stimuli_distractor_diamondtriangles.svg	stimuli_distractor_diamondtriangles.svg	39	no	0	1	2000	0	0			0	0			1				0	
6.6.1	win	2023-07-10	10:56:13	11:09:43	805827	6107a5be3cbf757b3297d8a1	3	1	main_z	11	advance_on_keypress_ZEE	110	stimuli_distractor_diamondtriangles.svg	stimuli_distractor_diamondtriangles.svg	39	no	57	0	255	0	0			0	0			1				0	
6.6.1	win	2023-07-10	10:56:13	11:09:45	807238	6107a5be3cbf757b3297d8a1	3	1	main_z	11	main_z	111	stimuli_distractor_trianglediamonds.svg	stimuli_distractor_trianglediamonds.svg	33	no	44	0	509	0	0			0	0			1				0	
6.6.1	win	2023-07-10	10:56:13	11:09:45	807238	6107a5be3cbf757b3297d8a1	3	1	main_z	11	advance_on_keypress_ZEE	112	stimuli_distractor_trianglediamonds.svg	stimuli_distractor_trianglediamonds.svg	33	no	57	0	280	0	0			0	0			1				0	
6.6.1	win	2023-07-10	10:56:13	11:09:46	808621	6107a5be3cbf757b3297d8a1	3	1	main_z	11	main_z	113	stimuli_target_squaretriangles.svg	stimuli_distractor_trianglediamonds.svg	3	yes	44	1	444	0	0			0	0			1				0	
6.6.1	win	2023-07-10	10:56:13	11:09:46	808621	6107a5be3cbf757b3297d8a1	3	1	main_z	11	advance_on_keypress_ZEE	114	stimuli_target_squaretriangles.svg	stimuli_distractor_trianglediamonds.svg	3	yes	57	0	267	0	0			0	0			1				0	
6.6.1	win	2023-07-10	10:56:13	11:09:47	809941	6107a5be3cbf757b3297d8a1	3	1	main_z	11	main_z	115	stimuli_target_diamondsquares.svg	stimuli_distractor_trianglediamonds.svg	20	yes	44	1	398	0	0			0	0			1				0	
6.6.1	win	2023-07-10	10:56:13	11:09:47	809941	6107a5be3cbf757b3297d8a1	3	1	main_z	11	advance_on_keypress_ZEE	116	stimuli_target_diamondsquares.svg	stimuli_distractor_trianglediamonds.svg	20	yes	57	0	241	0	0			0	0			1				0	
6.6.1	win	2023-07-10	10:56:13	11:09:50	812826	6107a5be3cbf757b3297d8a1	3	1	main_z	11	main_z	117	stimuli_distractor_trianglediamonds.svg	stimuli_distractor_diamondtriangles.svg	36	no	0	1	2000	0	0			0	0			1				0	
6.6.1	win	2023-07-10	10:56:13	11:09:50	812826	6107a5be3cbf757b3297d8a1	3	1	main_z	11	advance_on_keypress_ZEE	118	stimuli_distractor_trianglediamonds.svg	stimuli_distractor_diamondtriangles.svg	36	no	57	0	399	0	0			0	0			1				0	
6.6.1	win	2023-07-10	10:56:13	11:09:51	814222	6107a5be3cbf757b3297d8a1	3	1	main_z	11	main_z	119	stimuli_target_diamondsquares.svg	stimuli_distractor_diamondtriangles.svg	24	yes	44	1	346	0	0			0	0			1				0	
6.6.1	win	2023-07-10	10:56:13	11:09:51	814222	6107a5be3cbf757b3297d8a1	3	1	main_z	11	advance_on_keypress_ZEE	120	stimuli_target_diamondsquares.svg	stimuli_distractor_diamondtriangles.svg	24	yes	57	0	276	0	0			0	0			1				0	
6.6.1	win	2023-07-10	10:56:13	11:09:53	815442	6107a5be3cbf757b3297d8a1	3	1	main_z	11	main_z	121	stimuli_distractor_diamondtriangles.svg	stimuli_target_trianglerectangles.svg	29	yes	44	1	299	0	0			0	0			1				0	
6.6.1	win	2023-07-10	10:56:13	11:09:53	815442	6107a5be3cbf757b3297d8a1	3	1	main_z	11	advance_on_keypress_ZEE	122	stimuli_distractor_diamondtriangles.svg	stimuli_target_trianglerectangles.svg	29	yes	57	0	309	0	0			0	0			1				0	
6.6.1	win	2023-07-10	10:56:13	11:09:54	816628	6107a5be3cbf757b3297d8a1	3	1	main_z	11	main_z	123	stimuli_distractor_diamondtriangles.svg	stimuli_target_trianglesquares.svg	30	yes	44	1	236	0	0			0	0			1				0	
6.6.1	win	2023-07-10	10:56:13	11:09:54	816628	6107a5be3cbf757b3297d8a1	3	1	main_z	11	advance_on_keypress_ZEE	124	stimuli_distractor_diamondtriangles.svg	stimuli_target_trianglesquares.svg	30	yes	57	0	47	0	0			0	0			1				0	
6.6.1	win	2023-07-10	10:56:13	11:09:55	818183	6107a5be3cbf757b3297d8a1	3	1	main_z	11	main_z	125	stimuli_distractor_trianglediamonds.svg	stimuli_target_trianglerectangles.svg	25	yes	44	1	858	0	0			0	0			1				0	
6.6.1	win	2023-07-10	10:56:13	11:09:55	818183	6107a5be3cbf757b3297d8a1	3	1	main_z	11	advance_on_keypress_ZEE	126	stimuli_distractor_trianglediamonds.svg	stimuli_target_trianglerectangles.svg	25	yes	57	0	428	0	0			0	0			1				0	
6.6.1	win	2023-07-10	10:56:13	11:09:57	819904	6107a5be3cbf757b3297d8a1	3	1	main_z	11	main_z	127	stimuli_distractor_trianglediamonds.svg	stimuli_target_rectangletriangles.svg	9	yes	44	1	645	0	0			0	0			1				0	
6.6.1	win	2023-07-10	10:56:13	11:09:57	819904	6107a5be3cbf757b3297d8a1	3	1	main_z	11	advance_on_keypress_ZEE	128	stimuli_distractor_trianglediamonds.svg	stimuli_target_rectangletriangles.svg	9	yes	57	0	309	0	0			0	0			1				0	
6.6.1	win	2023-07-10	10:56:13	11:09:59	821494	6107a5be3cbf757b3297d8a1	3	1	main_z	11	main_z	129	stimuli_target_squarediamonds.svg	stimuli_distractor_diamondtriangles.svg	8	yes	44	1	635	0	0			0	0			1				0	
6.6.1	win	2023-07-10	10:56:13	11:09:59	821494	6107a5be3cbf757b3297d8a1	3	1	main_z	11	advance_on_keypress_ZEE	130	stimuli_target_squarediamonds.svg	stimuli_distractor_diamondtriangles.svg	8	yes	57	0	321	0	0			0	0			1				0	
6.6.1	win	2023-07-10	10:56:13	11:10:00	822779	6107a5be3cbf757b3297d8a1	3	1	main_z	11	main_z	131	stimuli_target_rectangletriangles.svg	stimuli_distractor_trianglediamonds.svg	1	yes	44	1	322	0	0			0	0			1				0	
6.6.1	win	2023-07-10	10:56:13	11:10:00	822779	6107a5be3cbf757b3297d8a1	3	1	main_z	11	advance_on_keypress_ZEE	132	stimuli_target_rectangletriangles.svg	stimuli_distractor_trianglediamonds.svg	1	yes	57	0	339	0	0			0	0			1				0	
6.6.1	win	2023-07-10	10:56:13	11:10:01	823985	6107a5be3cbf757b3297d8a1	3	1	main_z	11	main_z	133	stimuli_distractor_trianglediamonds.svg	stimuli_target_squaretriangles.svg	11	yes	44	1	227	0	0			0	0			1				0	
6.6.1	win	2023-07-10	10:56:13	11:10:01	823985	6107a5be3cbf757b3297d8a1	3	1	main_z	11	advance_on_keypress_ZEE	134	stimuli_distractor_trianglediamonds.svg	stimuli_target_squaretriangles.svg	11	yes	57	0	214	0	0			0	0			1				0	
6.6.1	win	2023-07-10	10:56:13	11:10:04	826858	6107a5be3cbf757b3297d8a1	3	1	main_z	11	main_z	135	stimuli_target_trianglerectangles.svg	stimuli_distractor_trianglediamonds.svg	17	yes	0	0	2000	0	0			0	0			1				0	
6.6.1	win	2023-07-10	10:56:13	11:10:04	826858	6107a5be3cbf757b3297d8a1	3	1	main_z	11	advance_on_keypress_ZEE	136	stimuli_target_trianglerectangles.svg	stimuli_distractor_trianglediamonds.svg	17	yes	57	0	272	0	0			0	0			1				0	
6.6.1	win	2023-07-10	10:56:13	11:10:06	828241	6107a5be3cbf757b3297d8a1	3	1	main_z	11	main_z	137	stimuli_target_squarediamonds.svg	stimuli_distractor_trianglediamonds.svg	4	yes	44	1	467	0	0			0	0			1				0	
6.6.1	win	2023-07-10	10:56:13	11:10:06	828241	6107a5be3cbf757b3297d8a1	3	1	main_z	11	advance_on_keypress_ZEE	138	stimuli_target_squarediamonds.svg	stimuli_distractor_trianglediamonds.svg	4	yes	57	0	266	0	0			0	0			1				0	
6.6.1	win	2023-07-10	10:56:13	11:10:07	829476	6107a5be3cbf757b3297d8a1	3	1	main_z	11	main_z	139	stimuli_distractor_trianglediamonds.svg	stimuli_target_diamondsquares.svg	28	yes	44	1	319	0	0			0	0			1				0	
6.6.1	win	2023-07-10	10:56:13	11:10:07	829476	6107a5be3cbf757b3297d8a1	3	1	main_z	11	advance_on_keypress_ZEE	140	stimuli_distractor_trianglediamonds.svg	stimuli_target_diamondsquares.svg	28	yes	57	0	301	0	0			0	0			1				0	
6.6.1	win	2023-07-10	10:56:13	11:10:08	830673	6107a5be3cbf757b3297d8a1	3	1	main_z	11	main_z	141	stimuli_distractor_diamondtriangles.svg	stimuli_target_squaretriangles.svg	15	yes	44	1	249	0	0			0	0			1				0	
6.6.1	win	2023-07-10	10:56:13	11:10:08	830673	6107a5be3cbf757b3297d8a1	3	1	main_z	11	advance_on_keypress_ZEE	142	stimuli_distractor_diamondtriangles.svg	stimuli_target_squaretriangles.svg	15	yes	57	0	372	0	0			0	0			1				0	
6.6.1	win	2023-07-10	10:56:13	11:10:09	832032	6107a5be3cbf757b3297d8a1	3	1	main_z	11	main_z	143	stimuli_distractor_trianglediamonds.svg	stimuli_target_rectanglediamonds.svg	10	yes	44	1	343	0	0			0	0			1				0	
6.6.1	win	2023-07-10	10:56:13	11:10:09	832032	6107a5be3cbf757b3297d8a1	3	1	main_z	11	advance_on_keypress_ZEE	144	stimuli_distractor_trianglediamonds.svg	stimuli_target_rectanglediamonds.svg	10	yes	57	0	311	0	0			0	0			1				0	
6.6.1	win	2023-07-10	10:56:13	11:10:11	833267	6107a5be3cbf757b3297d8a1	3	1	main_z	11	main_z	145	stimuli_target_trianglesquares.svg	stimuli_distractor_trianglediamonds.svg	18	yes	44	1	278	0	0			0	0			1				0	
6.6.1	win	2023-07-10	10:56:13	11:10:11	833267	6107a5be3cbf757b3297d8a1	3	1	main_z	11	advance_on_keypress_ZEE	146	stimuli_target_trianglesquares.svg	stimuli_distractor_trianglediamonds.svg	18	yes	57	0	308	0	0			0	0			1				0	
6.6.1	win	2023-07-10	10:56:13	11:10:12	834503	6107a5be3cbf757b3297d8a1	3	1	main_z	11	main_z	147	stimuli_distractor_diamondtriangles.svg	stimuli_target_squarediamonds.svg	16	yes	44	1	279	0	0			0	0			1				0	
6.6.1	win	2023-07-10	10:56:13	11:10:12	834503	6107a5be3cbf757b3297d8a1	3	1	main_z	11	advance_on_keypress_ZEE	148	stimuli_distractor_diamondtriangles.svg	stimuli_target_squarediamonds.svg	16	yes	57	0	275	0	0			0	0			1				0	
6.6.1	win	2023-07-10	10:56:13	11:10:13	835640	6107a5be3cbf757b3297d8a1	3	1	main_z	11	main_z	149	stimuli_distractor_diamondtriangles.svg	stimuli_target_rectangletriangles.svg	13	yes	44	1	216	0	0			0	0			1				0	
6.6.1	win	2023-07-10	10:56:13	11:10:13	835640	6107a5be3cbf757b3297d8a1	3	1	main_z	11	advance_on_keypress_ZEE	150	stimuli_distractor_diamondtriangles.svg	stimuli_target_rectangletriangles.svg	13	yes	57	0	312	0	0			0	0			1				0	
6.6.1	win	2023-07-10	10:56:13	11:10:16	838606	6107a5be3cbf757b3297d8a1	3	1	main_z	11	main_z	151	stimuli_target_trianglerectangles.svg	stimuli_distractor_diamondtriangles.svg	21	yes	0	0	2000	0	0			0	0			1				0	
6.6.1	win	2023-07-10	10:56:13	11:10:16	838606	6107a5be3cbf757b3297d8a1	3	1	main_z	11	advance_on_keypress_ZEE	152	stimuli_target_trianglerectangles.svg	stimuli_distractor_diamondtriangles.svg	21	yes	57	0	246	0	0			0	0			1				0	
6.6.1	win	2023-07-10	10:56:13	11:10:17	839795	6107a5be3cbf757b3297d8a1	3	1	main_z	11	main_z	153	stimuli_target_squaretriangles.svg	stimuli_distractor_diamondtriangles.svg	7	yes	44	1	289	0	0			0	0			1				0	
6.6.1	win	2023-07-10	10:56:13	11:10:17	839795	6107a5be3cbf757b3297d8a1	3	1	main_z	11	advance_on_keypress_ZEE	154	stimuli_target_squaretriangles.svg	stimuli_distractor_diamondtriangles.svg	7	yes	57	0	304	0	0			0	0			1				0	
6.6.1	win	2023-07-10	10:56:13	11:10:18	840985	6107a5be3cbf757b3297d8a1	3	1	main_z	11	main_z	155	stimuli_distractor_trianglediamonds.svg	stimuli_distractor_diamondtriangles.svg	35	no	44	0	246	0	0			0	0			1				0	
6.6.1	win	2023-07-10	10:56:13	11:10:18	840985	6107a5be3cbf757b3297d8a1	3	1	main_z	11	advance_on_keypress_ZEE	156	stimuli_distractor_trianglediamonds.svg	stimuli_distractor_diamondtriangles.svg	35	no	57	0	489	0	0			0	0			1				0	
6.6.1	win	2023-07-10	10:56:13	11:10:20	842470	6107a5be3cbf757b3297d8a1	3	1	main_z	11	main_z	157	stimuli_distractor_diamondtriangles.svg	stimuli_target_rectanglediamonds.svg	14	yes	44	1	348	0	0			0	0			1				0	
6.6.1	win	2023-07-10	10:56:13	11:10:20	842470	6107a5be3cbf757b3297d8a1	3	1	main_z	11	advance_on_keypress_ZEE	158	stimuli_distractor_diamondtriangles.svg	stimuli_target_rectanglediamonds.svg	14	yes	57	0	281	0	0			0	0			1				0	
6.6.1	win	2023-07-10	10:56:13	11:10:22	844251	6107a5be3cbf757b3297d8a1	3	1	main_z	11	main_z	159	stimuli_distractor_trianglediamonds.svg	stimuli_target_diamondrectangles.svg	27	yes	44	1	846	0	0			0	0			1				0	
6.6.1	win	2023-07-10	10:56:13	11:10:22	844251	6107a5be3cbf757b3297d8a1	3	1	main_z	11	advance_on_keypress_ZEE	160	stimuli_distractor_trianglediamonds.svg	stimuli_target_diamondrectangles.svg	27	yes	57	0	426	0	0			0	0			1				0	
6.6.1	win	2023-07-10	10:56:13	11:10:22	844251	6107a5be3cbf757b3297d8a1	3	1	headphonecheck_calibration	14	headphonecheck_calibrationIntro	1	stimuli_distractor_trianglediamonds.svg	stimuli_target_diamondrectangles.svg	27	yes	calibrationButton	0	2035	0	0			0	0			1				0	
6.6.1	win	2023-07-10	10:56:13	11:10:22	844251	6107a5be3cbf757b3297d8a1	3	1	headphonecheck_testphase	15	test_collectResponse	3	stimuli_distractor_trianglediamonds.svg	stimuli_target_diamondrectangles.svg	27	yes	third	0	2178	1	4	antiphase_hc_sio.wav	1	0	0			1				0	
6.6.1	win	2023-07-10	10:56:13	11:10:22	844251	6107a5be3cbf757b3297d8a1	3	1	headphonecheck_testphase	15	test_collectResponse	6	stimuli_distractor_trianglediamonds.svg	stimuli_target_diamondrectangles.svg	27	yes	third	0	6771	2	1	antiphase_hc_iso.wav	2	0	0			1				0	
6.6.1	win	2023-07-10	10:56:13	11:10:22	844251	6107a5be3cbf757b3297d8a1	3	1	headphonecheck_testphase	15	test_collectResponse	9	stimuli_distractor_trianglediamonds.svg	stimuli_target_diamondrectangles.svg	27	yes	second	0	485	3	2	antiphase_hc_ios.wav	3	0	0			1				0	
6.6.1	win	2023-07-10	10:56:13	11:10:22	844251	6107a5be3cbf757b3297d8a1	3	1	headphonecheck_testphase	15	test_collectResponse	12	stimuli_distractor_trianglediamonds.svg	stimuli_target_diamondrectangles.svg	27	yes	second	0	515	4	3	antiphase_hc_soi.wav	1	0	0			1				0	
6.6.1	win	2023-07-10	10:56:13	11:10:22	844251	6107a5be3cbf757b3297d8a1	3	1	headphonecheck_testphase	15	test_collectResponse	15	stimuli_distractor_trianglediamonds.svg	stimuli_target_diamondrectangles.svg	27	yes	first	0	1317	5	6	antiphase_hc_ois.wav	3	0	0			1				0	
6.6.1	win	2023-07-10	10:56:13	11:10:22	844251	6107a5be3cbf757b3297d8a1	3	1	headphonecheck_testphase	15	test_collectResponse	18	stimuli_distractor_trianglediamonds.svg	stimuli_target_diamondrectangles.svg	27	yes	first	0	497	6	5	antiphase_hc_osi.wav	2	0	0			1				0	
6.6.1	win	2023-07-10	10:56:13	11:10:22	844251	6107a5be3cbf757b3297d8a1	3	1	stereocheck_calibration	17	stereocheck_calibrationIntro	1	stimuli_distractor_trianglediamonds.svg	stimuli_target_diamondrectangles.svg	27	yes	stereocheck_calibrationButton	0	1543	6	5	antiphase_hc_osi.wav	2	0	0			1				0	
6.6.1	win	2023-07-10	10:56:13	11:10:22	844251	6107a5be3cbf757b3297d8a1	3	1	stereocheck_testphase	18	stereocheck_test_collectResponse	3	stimuli_distractor_trianglediamonds.svg	stimuli_target_diamondrectangles.svg	27	yes	stereocheck_left	1	625	6	5	antiphase_hc_osi.wav	2	1	2	noise_calib_stim_LEFT.wav	1	1				0	
6.6.1	win	2023-07-10	10:56:13	11:10:22	844251	6107a5be3cbf757b3297d8a1	3	1	stereocheck_testphase	18	stereocheck_test_collectResponse	6	stimuli_distractor_trianglediamonds.svg	stimuli_target_diamondrectangles.svg	27	yes	stereocheck_left	0	927	6	5	antiphase_hc_osi.wav	2	2	5	noise_calib_stim_RIGHT.wav	2	1				0	
6.6.1	win	2023-07-10	10:56:13	11:10:22	844251	6107a5be3cbf757b3297d8a1	3	1	stereocheck_testphase	18	stereocheck_test_collectResponse	9	stimuli_distractor_trianglediamonds.svg	stimuli_target_diamondrectangles.svg	27	yes	stereocheck_right	0	1185	6	5	antiphase_hc_osi.wav	2	3	3	noise_calib_stim_LEFT.wav	1	1				0	
6.6.1	win	2023-07-10	10:56:13	11:10:22	844251	6107a5be3cbf757b3297d8a1	3	1	stereocheck_testphase	18	stereocheck_test_collectResponse	12	stimuli_distractor_trianglediamonds.svg	stimuli_target_diamondrectangles.svg	27	yes	stereocheck_right	0	1860	6	5	antiphase_hc_osi.wav	2	4	1	noise_calib_stim_LEFT.wav	1	1				0	
6.6.1	win	2023-07-10	10:56:13	11:10:22	844251	6107a5be3cbf757b3297d8a1	3	1	stereocheck_testphase	18	stereocheck_test_collectResponse	15	stimuli_distractor_trianglediamonds.svg	stimuli_target_diamondrectangles.svg	27	yes	stereocheck_right	1	900	6	5	antiphase_hc_osi.wav	2	5	6	noise_calib_stim_RIGHT.wav	2	1				0	
6.6.1	win	2023-07-10	10:56:13	11:10:22	844251	6107a5be3cbf757b3297d8a1	3	1	stereocheck_testphase	18	stereocheck_test_collectResponse	18	stimuli_distractor_trianglediamonds.svg	stimuli_target_diamondrectangles.svg	27	yes	stereocheck_left	0	329	6	5	antiphase_hc_osi.wav	2	6	4	noise_calib_stim_RIGHT.wav	2	1				0	
6.6.1	win	2023-07-10	10:56:13	11:10:22	844251	6107a5be3cbf757b3297d8a1	3	1	DL_practice	21	DL_practice	2	stimuli_distractor_trianglediamonds.svg	stimuli_target_diamondrectangles.svg	27	yes	ka	1	1245	6	5	antiphase_hc_osi.wav	2	6	4	noise_calib_stim_RIGHT.wav	2	22	blb_dichoticlistening_ka-ka.mp3	ka	ka	0	left
6.6.1	win	2023-07-10	10:56:13	11:10:22	844251	6107a5be3cbf757b3297d8a1	3	1	DL_practice	21	DL_practice	3	stimuli_distractor_trianglediamonds.svg	stimuli_target_diamondrectangles.svg	27	yes	pa	1	1173	6	5	antiphase_hc_osi.wav	2	6	4	noise_calib_stim_RIGHT.wav	2	29	blb_dichoticlistening_pa-pa.mp3	pa	pa	0	left
6.6.1	win	2023-07-10	10:56:13	11:10:22	844251	6107a5be3cbf757b3297d8a1	3	1	DL_practice	21	DL_practice	4	stimuli_distractor_trianglediamonds.svg	stimuli_target_diamondrectangles.svg	27	yes	ba	1	1661	6	5	antiphase_hc_osi.wav	2	6	4	noise_calib_stim_RIGHT.wav	2	7	blb_dichoticlistening_da-ba.mp3	da	ba	1	right
6.6.1	win	2023-07-10	10:56:13	11:10:22	844251	6107a5be3cbf757b3297d8a1	3	1	DL_practice	21	DL_practice	5	stimuli_distractor_trianglediamonds.svg	stimuli_target_diamondrectangles.svg	27	yes	ta	1	1402	6	5	antiphase_hc_osi.wav	2	6	4	noise_calib_stim_RIGHT.wav	2	36	blb_dichoticlistening_ta-ta.mp3	ta	ta	0	left
6.6.1	win	2023-07-10	10:56:13	11:10:22	844251	6107a5be3cbf757b3297d8a1	3	1	DL_practice	21	DL_practice	6	stimuli_distractor_trianglediamonds.svg	stimuli_target_diamondrectangles.svg	27	yes	da	1	1172	6	5	antiphase_hc_osi.wav	2	6	4	noise_calib_stim_RIGHT.wav	2	8	blb_dichoticlistening_da-da.mp3	da	da	0	left
6.6.1	win	2023-07-10	10:56:13	11:10:22	844251	6107a5be3cbf757b3297d8a1	3	1	DL_practice	21	DL_practice	7	stimuli_distractor_trianglediamonds.svg	stimuli_target_diamondrectangles.svg	27	yes	ga	1	1115	6	5	antiphase_hc_osi.wav	2	6	4	noise_calib_stim_RIGHT.wav	2	15	blb_dichoticlistening_ga-ga.mp3	ga	ga	0	left
6.6.1	win	2023-07-10	10:56:13	11:10:22	844251	6107a5be3cbf757b3297d8a1	3	1	DL_practice	21	DL_practice	8	stimuli_distractor_trianglediamonds.svg	stimuli_target_diamondrectangles.svg	27	yes	ka	1	1632	6	5	antiphase_hc_osi.wav	2	6	4	noise_calib_stim_RIGHT.wav	2	23	blb_dichoticlistening_ka-pa.mp3	ka	pa	1	left
6.6.1	win	2023-07-10	10:56:13	11:10:22	844251	6107a5be3cbf757b3297d8a1	3	1	DL_practice	21	DL_practice	9	stimuli_distractor_trianglediamonds.svg	stimuli_target_diamondrectangles.svg	27	yes	ba	1	1612	6	5	antiphase_hc_osi.wav	2	6	4	noise_calib_stim_RIGHT.wav	2	1	blb_dichoticlistening_ba-ba.mp3	ba	ba	0	left
6.6.1	win	2023-07-10	10:56:13	11:10:22	844251	6107a5be3cbf757b3297d8a1	3	1	DL_practice	21	DL_practice	10	stimuli_distractor_trianglediamonds.svg	stimuli_target_diamondrectangles.svg	27	yes	ga	1	1168	6	5	antiphase_hc_osi.wav	2	6	4	noise_calib_stim_RIGHT.wav	2	18	blb_dichoticlistening_ga-ta.mp3	ga	ta	1	left
6.6.1	win	2023-07-10	10:56:13	11:10:22	844251	6107a5be3cbf757b3297d8a1	3	1	DL_test	23	DL_test	1	stimuli_distractor_trianglediamonds.svg	stimuli_target_diamondrectangles.svg	27	yes	ba	1	1259	6	5	antiphase_hc_osi.wav	2	6	4	noise_calib_stim_RIGHT.wav	2	2	blb_dichoticlistening_ba-da.mp3	ba	da	1	left
6.6.1	win	2023-07-10	10:56:13	11:10:22	844251	6107a5be3cbf757b3297d8a1	3	1	DL_test	23	DL_test	2	stimuli_distractor_trianglediamonds.svg	stimuli_target_diamondrectangles.svg	27	yes	ka	1	1784	6	5	antiphase_hc_osi.wav	2	6	4	noise_calib_stim_RIGHT.wav	2	19	blb_dichoticlistening_ka-ba.mp3	ka	ba	1	left
6.6.1	win	2023-07-10	10:56:13	11:10:22	844251	6107a5be3cbf757b3297d8a1	3	1	DL_test	23	DL_test	3	stimuli_distractor_trianglediamonds.svg	stimuli_target_diamondrectangles.svg	27	yes	da	1	1068	6	5	antiphase_hc_osi.wav	2	6	4	noise_calib_stim_RIGHT.wav	2	8	blb_dichoticlistening_da-da.mp3	da	da	0	left
6.6.1	win	2023-07-10	10:56:13	11:10:22	844251	6107a5be3cbf757b3297d8a1	3	1	DL_test	23	DL_test	4	stimuli_distractor_trianglediamonds.svg	stimuli_target_diamondrectangles.svg	27	yes	ga	1	888	6	5	antiphase_hc_osi.wav	2	6	4	noise_calib_stim_RIGHT.wav	2	9	blb_dichoticlistening_da-ga.mp3	da	ga	1	right
6.6.1	win	2023-07-10	10:56:13	11:10:22	844251	6107a5be3cbf757b3297d8a1	3	1	DL_test	23	DL_test	5	stimuli_distractor_trianglediamonds.svg	stimuli_target_diamondrectangles.svg	27	yes	ta	1	1315	6	5	antiphase_hc_osi.wav	2	6	4	noise_calib_stim_RIGHT.wav	2	36	blb_dichoticlistening_ta-ta.mp3	ta	ta	0	left
6.6.1	win	2023-07-10	10:56:13	11:10:22	844251	6107a5be3cbf757b3297d8a1	3	1	DL_test	23	DL_test	6	stimuli_distractor_trianglediamonds.svg	stimuli_target_diamondrectangles.svg	27	yes	ba	1	1248	6	5	antiphase_hc_osi.wav	2	6	4	noise_calib_stim_RIGHT.wav	2	25	blb_dichoticlistening_pa-ba.mp3	pa	ba	1	right
6.6.1	win	2023-07-10	10:56:13	11:10:22	844251	6107a5be3cbf757b3297d8a1	3	1	DL_test	23	DL_test	7	stimuli_distractor_trianglediamonds.svg	stimuli_target_diamondrectangles.svg	27	yes	ga	1	1260	6	5	antiphase_hc_osi.wav	2	6	4	noise_calib_stim_RIGHT.wav	2	14	blb_dichoticlistening_ga-da.mp3	ga	da	1	left
6.6.1	win	2023-07-10	10:56:13	11:10:22	844251	6107a5be3cbf757b3297d8a1	3	1	DL_test	23	DL_test	8	stimuli_distractor_trianglediamonds.svg	stimuli_target_diamondrectangles.svg	27	yes	ka	1	1180	6	5	antiphase_hc_osi.wav	2	6	4	noise_calib_stim_RIGHT.wav	2	23	blb_dichoticlistening_ka-pa.mp3	ka	pa	1	left
6.6.1	win	2023-07-10	10:56:13	11:10:22	844251	6107a5be3cbf757b3297d8a1	3	1	DL_test	23	DL_test	9	stimuli_distractor_trianglediamonds.svg	stimuli_target_diamondrectangles.svg	27	yes	ga	1	984	6	5	antiphase_hc_osi.wav	2	6	4	noise_calib_stim_RIGHT.wav	2	16	blb_dichoticlistening_ga-ka.mp3	ga	ka	1	left
6.6.1	win	2023-07-10	10:56:13	11:10:22	844251	6107a5be3cbf757b3297d8a1	3	1	DL_test	23	DL_test	10	stimuli_distractor_trianglediamonds.svg	stimuli_target_diamondrectangles.svg	27	yes	pa	0	1502	6	5	antiphase_hc_osi.wav	2	6	4	noise_calib_stim_RIGHT.wav	2	7	blb_dichoticlistening_da-ba.mp3	da	ba	1	other
6.6.1	win	2023-07-10	10:56:13	11:10:22	844251	6107a5be3cbf757b3297d8a1	3	1	DL_test	23	DL_test	11	stimuli_distractor_trianglediamonds.svg	stimuli_target_diamondrectangles.svg	27	yes	ka	1	1735	6	5	antiphase_hc_osi.wav	2	6	4	noise_calib_stim_RIGHT.wav	2	20	blb_dichoticlistening_ka-da.mp3	ka	da	1	left
6.6.1	win	2023-07-10	10:56:13	11:10:22	844251	6107a5be3cbf757b3297d8a1	3	1	DL_test	23	DL_test	12	stimuli_distractor_trianglediamonds.svg	stimuli_target_diamondrectangles.svg	27	yes	ga	1	916	6	5	antiphase_hc_osi.wav	2	6	4	noise_calib_stim_RIGHT.wav	2	21	blb_dichoticlistening_ka-ga.mp3	ka	ga	1	right
6.6.1	win	2023-07-10	10:56:13	11:10:22	844251	6107a5be3cbf757b3297d8a1	3	1	DL_test	23	DL_test	13	stimuli_distractor_trianglediamonds.svg	stimuli_target_diamondrectangles.svg	27	yes	ba	1	1537	6	5	antiphase_hc_osi.wav	2	6	4	noise_calib_stim_RIGHT.wav	2	13	blb_dichoticlistening_ga-ba.mp3	ga	ba	1	right
6.6.1	win	2023-07-10	10:56:13	11:10:22	844251	6107a5be3cbf757b3297d8a1	3	1	DL_test	23	DL_test	14	stimuli_distractor_trianglediamonds.svg	stimuli_target_diamondrectangles.svg	27	yes	da	1	1220	6	5	antiphase_hc_osi.wav	2	6	4	noise_calib_stim_RIGHT.wav	2	12	blb_dichoticlistening_da-ta.mp3	da	ta	1	left
6.6.1	win	2023-07-10	10:56:13	11:10:22	844251	6107a5be3cbf757b3297d8a1	3	1	DL_test	23	DL_test	15	stimuli_distractor_trianglediamonds.svg	stimuli_target_diamondrectangles.svg	27	yes	ka	1	1256	6	5	antiphase_hc_osi.wav	2	6	4	noise_calib_stim_RIGHT.wav	2	34	blb_dichoticlistening_ta-ka.mp3	ta	ka	1	right
6.6.1	win	2023-07-10	10:56:13	11:10:22	844251	6107a5be3cbf757b3297d8a1	3	1	DL_test	23	DL_test	16	stimuli_distractor_trianglediamonds.svg	stimuli_target_diamondrectangles.svg	27	yes	da	1	1129	6	5	antiphase_hc_osi.wav	2	6	4	noise_calib_stim_RIGHT.wav	2	10	blb_dichoticlistening_da-ka.mp3	da	ka	1	left
6.6.1	win	2023-07-10	10:56:13	11:10:22	844251	6107a5be3cbf757b3297d8a1	3	1	DL_test	23	DL_test	17	stimuli_distractor_trianglediamonds.svg	stimuli_target_diamondrectangles.svg	27	yes	ka	0	896	6	5	antiphase_hc_osi.wav	2	6	4	noise_calib_stim_RIGHT.wav	2	17	blb_dichoticlistening_ga-pa.mp3	ga	pa	1	other
6.6.1	win	2023-07-10	10:56:13	11:10:22	844251	6107a5be3cbf757b3297d8a1	3	1	DL_test	23	DL_test	18	stimuli_distractor_trianglediamonds.svg	stimuli_target_diamondrectangles.svg	27	yes	ga	1	940	6	5	antiphase_hc_osi.wav	2	6	4	noise_calib_stim_RIGHT.wav	2	15	blb_dichoticlistening_ga-ga.mp3	ga	ga	0	left
6.6.1	win	2023-07-10	10:56:13	11:10:22	844251	6107a5be3cbf757b3297d8a1	3	1	DL_test	23	DL_test	19	stimuli_distractor_trianglediamonds.svg	stimuli_target_diamondrectangles.svg	27	yes	ga	1	583	6	5	antiphase_hc_osi.wav	2	6	4	noise_calib_stim_RIGHT.wav	2	18	blb_dichoticlistening_ga-ta.mp3	ga	ta	1	left
6.6.1	win	2023-07-10	10:56:13	11:10:22	844251	6107a5be3cbf757b3297d8a1	3	1	DL_test	23	DL_test	20	stimuli_distractor_trianglediamonds.svg	stimuli_target_diamondrectangles.svg	27	yes	ka	1	1193	6	5	antiphase_hc_osi.wav	2	6	4	noise_calib_stim_RIGHT.wav	2	4	blb_dichoticlistening_ba-ka.mp3	ba	ka	1	right
6.6.1	win	2023-07-10	10:56:13	11:10:22	844251	6107a5be3cbf757b3297d8a1	3	1	DL_test	23	DL_test	21	stimuli_distractor_trianglediamonds.svg	stimuli_target_diamondrectangles.svg	27	yes	da	1	1215	6	5	antiphase_hc_osi.wav	2	6	4	noise_calib_stim_RIGHT.wav	2	26	blb_dichoticlistening_pa-da.mp3	pa	da	1	right
6.6.1	win	2023-07-10	10:56:13	11:10:22	844251	6107a5be3cbf757b3297d8a1	3	1	DL_test	23	DL_test	22	stimuli_distractor_trianglediamonds.svg	stimuli_target_diamondrectangles.svg	27	yes	ba	1	1374	6	5	antiphase_hc_osi.wav	2	6	4	noise_calib_stim_RIGHT.wav	2	3	blb_dichoticlistening_ba-ga.mp3	ba	ga	1	left
6.6.1	win	2023-07-10	10:56:13	11:10:22	844251	6107a5be3cbf757b3297d8a1	3	1	DL_test	23	DL_test	23	stimuli_distractor_trianglediamonds.svg	stimuli_target_diamondrectangles.svg	27	yes	da	1	1226	6	5	antiphase_hc_osi.wav	2	6	4	noise_calib_stim_RIGHT.wav	2	32	blb_dichoticlistening_ta-da.mp3	ta	da	1	right
6.6.1	win	2023-07-10	10:56:13	11:10:22	844251	6107a5be3cbf757b3297d8a1	3	1	DL_test	23	DL_test	24	stimuli_distractor_trianglediamonds.svg	stimuli_target_diamondrectangles.svg	27	yes	ta	1	1314	6	5	antiphase_hc_osi.wav	2	6	4	noise_calib_stim_RIGHT.wav	2	30	blb_dichoticlistening_pa-ta.mp3	pa	ta	1	right
6.6.1	win	2023-07-10	10:56:13	11:10:22	844251	6107a5be3cbf757b3297d8a1	3	1	DL_test	23	DL_test	25	stimuli_distractor_trianglediamonds.svg	stimuli_target_diamondrectangles.svg	27	yes	ka	1	1086	6	5	antiphase_hc_osi.wav	2	6	4	noise_calib_stim_RIGHT.wav	2	22	blb_dichoticlistening_ka-ka.mp3	ka	ka	0	left
6.6.1	win	2023-07-10	10:56:13	11:10:22	844251	6107a5be3cbf757b3297d8a1	3	1	DL_test	23	DL_test	26	stimuli_distractor_trianglediamonds.svg	stimuli_target_diamondrectangles.svg	27	yes	pa	1	1330	6	5	antiphase_hc_osi.wav	2	6	4	noise_calib_stim_RIGHT.wav	2	5	blb_dichoticlistening_ba-pa.mp3	ba	pa	1	right
