build	computer.platform	date	time	timestamp	time_elapsed_ms	subject	group	session	blockcode	blocknum	trialcode	trialnum	stimulus_left	stimulus_right	stim_index	target_present	response	correct	latency	headphonecheck_countTestTrials	headphonecheck_index	headphonecheck_testSound	headphonecheck_correctResponse	stereocheck_countTestTrials	stereocheck_index	stereocheck_testSound	stereocheck_correctResponse	DL_index	DL_soundfile	DL_leftSound	DL_rightSound	DL_dualSound	DL_choice
6.6.1	win	2023-06-02	03:20:28	03:42:11	1294345	62cdd40d1b2793efe13fd204	3	1	practice_slash	5	practice_slash	1	stimuli_distractor_trianglediamonds.svg	stimuli_distractor_diamondtriangles.svg	16	no	0	1	2000	0	0			0	0			1				0	
6.6.1	win	2023-06-02	03:20:28	03:42:11	1294345	62cdd40d1b2793efe13fd204	3	1	practice_slash	5	advance_on_keypress_SLASH	2	stimuli_distractor_trianglediamonds.svg	stimuli_distractor_diamondtriangles.svg	16	no	57	0	3063	0	0			0	0			1				0	
6.6.1	win	2023-06-02	03:20:28	03:42:16	1299761	62cdd40d1b2793efe13fd204	3	1	practice_slash	5	practice_slash	3	stimuli_target_diamondsquares.svg	stimuli_distractor_trianglediamonds.svg	6	yes	53	1	693	0	0			0	0			1				0	
6.6.1	win	2023-06-02	03:20:28	03:42:16	1299761	62cdd40d1b2793efe13fd204	3	1	practice_slash	5	advance_on_keypress_SLASH	4	stimuli_target_diamondsquares.svg	stimuli_distractor_trianglediamonds.svg	6	yes	57	0	1687	0	0			0	0			1				0	
6.6.1	win	2023-06-02	03:20:28	03:42:22	1305094	62cdd40d1b2793efe13fd204	3	1	practice_slash	5	practice_slash	5	stimuli_distractor_trianglediamonds.svg	stimuli_distractor_trianglediamonds.svg	15	no	0	1	2000	0	0			0	0			1				0	
6.6.1	win	2023-06-02	03:20:28	03:42:22	1305094	62cdd40d1b2793efe13fd204	3	1	practice_slash	5	advance_on_keypress_SLASH	6	stimuli_distractor_trianglediamonds.svg	stimuli_distractor_trianglediamonds.svg	15	no	57	0	691	0	0			0	0			1				0	
6.6.1	win	2023-06-02	03:20:28	03:42:25	1308646	62cdd40d1b2793efe13fd204	3	1	practice_slash	5	practice_slash	7	stimuli_distractor_diamondtriangles.svg	stimuli_target_trianglerectangles.svg	9	yes	53	1	1208	0	0			0	0			1				0	
6.6.1	win	2023-06-02	03:20:28	03:42:25	1308646	62cdd40d1b2793efe13fd204	3	1	practice_slash	5	advance_on_keypress_SLASH	8	stimuli_distractor_diamondtriangles.svg	stimuli_target_trianglerectangles.svg	9	yes	57	0	796	0	0			0	0			1				0	
6.6.1	win	2023-06-02	03:20:28	03:42:28	1311630	62cdd40d1b2793efe13fd204	3	1	practice_slash	5	practice_slash	9	stimuli_distractor_diamondtriangles.svg	stimuli_target_rectangletriangles.svg	7	yes	53	1	529	0	0			0	0			1				0	
6.6.1	win	2023-06-02	03:20:28	03:42:28	1311630	62cdd40d1b2793efe13fd204	3	1	practice_slash	5	advance_on_keypress_SLASH	10	stimuli_distractor_diamondtriangles.svg	stimuli_target_rectangletriangles.svg	7	yes	57	0	826	0	0			0	0			1				0	
6.6.1	win	2023-06-02	03:20:28	03:42:31	1314521	62cdd40d1b2793efe13fd204	3	1	practice_slash	5	practice_slash	11	stimuli_target_squarediamonds.svg	stimuli_distractor_diamondtriangles.svg	2	yes	53	1	410	0	0			0	0			1				0	
6.6.1	win	2023-06-02	03:20:28	03:42:31	1314521	62cdd40d1b2793efe13fd204	3	1	practice_slash	5	advance_on_keypress_SLASH	12	stimuli_target_squarediamonds.svg	stimuli_distractor_diamondtriangles.svg	2	yes	57	0	688	0	0			0	0			1				0	
6.6.1	win	2023-06-02	03:20:28	03:42:34	1317226	62cdd40d1b2793efe13fd204	3	1	practice_slash	5	practice_slash	13	stimuli_target_rectanglediamonds.svg	stimuli_distractor_trianglediamonds.svg	4	yes	53	1	353	0	0			0	0			1				0	
6.6.1	win	2023-06-02	03:20:28	03:42:34	1317226	62cdd40d1b2793efe13fd204	3	1	practice_slash	5	advance_on_keypress_SLASH	14	stimuli_target_rectanglediamonds.svg	stimuli_distractor_trianglediamonds.svg	4	yes	57	0	422	0	0			0	0			1				0	
6.6.1	win	2023-06-02	03:20:28	03:42:38	1321285	62cdd40d1b2793efe13fd204	3	1	practice_slash	5	practice_slash	15	stimuli_target_diamondsquares.svg	stimuli_distractor_diamondtriangles.svg	3	yes	0	0	2000	0	0			0	0			1				0	
6.6.1	win	2023-06-02	03:20:28	03:42:38	1321285	62cdd40d1b2793efe13fd204	3	1	practice_slash	5	advance_on_keypress_SLASH	16	stimuli_target_diamondsquares.svg	stimuli_distractor_diamondtriangles.svg	3	yes	57	0	612	0	0			0	0			1				0	
6.6.1	win	2023-06-02	03:20:28	03:42:41	1324436	62cdd40d1b2793efe13fd204	3	1	practice_slash	5	practice_slash	17	stimuli_distractor_trianglediamonds.svg	stimuli_target_diamondrectangles.svg	12	yes	53	1	891	0	0			0	0			1				0	
6.6.1	win	2023-06-02	03:20:28	03:42:41	1324436	62cdd40d1b2793efe13fd204	3	1	practice_slash	5	advance_on_keypress_SLASH	18	stimuli_distractor_trianglediamonds.svg	stimuli_target_diamondrectangles.svg	12	yes	57	0	695	0	0			0	0			1				0	
6.6.1	win	2023-06-02	03:20:28	03:42:45	1328534	62cdd40d1b2793efe13fd204	3	1	practice_slash	5	practice_slash	19	stimuli_distractor_diamondtriangles.svg	stimuli_distractor_trianglediamonds.svg	14	no	53	0	1743	0	0			0	0			1				0	
6.6.1	win	2023-06-02	03:20:28	03:42:45	1328534	62cdd40d1b2793efe13fd204	3	1	practice_slash	5	advance_on_keypress_SLASH	20	stimuli_distractor_diamondtriangles.svg	stimuli_distractor_trianglediamonds.svg	14	no	57	0	656	0	0			0	0			1				0	
6.6.1	win	2023-06-02	03:20:28	03:42:48	1331370	62cdd40d1b2793efe13fd204	3	1	practice_slash	5	practice_slash	21	stimuli_distractor_trianglediamonds.svg	stimuli_target_rectanglediamonds.svg	10	yes	53	1	537	0	0			0	0			1				0	
6.6.1	win	2023-06-02	03:20:28	03:42:48	1331370	62cdd40d1b2793efe13fd204	3	1	practice_slash	5	advance_on_keypress_SLASH	22	stimuli_distractor_trianglediamonds.svg	stimuli_target_rectanglediamonds.svg	10	yes	57	0	494	0	0			0	0			1				0	
6.6.1	win	2023-06-02	03:20:28	03:42:52	1335514	62cdd40d1b2793efe13fd204	3	1	practice_slash	5	practice_slash	23	stimuli_distractor_diamondtriangles.svg	stimuli_distractor_diamondtriangles.svg	13	no	0	1	2000	0	0			0	0			1				0	
6.6.1	win	2023-06-02	03:20:28	03:42:52	1335514	62cdd40d1b2793efe13fd204	3	1	practice_slash	5	advance_on_keypress_SLASH	24	stimuli_distractor_diamondtriangles.svg	stimuli_distractor_diamondtriangles.svg	13	no	57	0	512	0	0			0	0			1				0	
6.6.1	win	2023-06-02	03:20:28	03:42:55	1338266	62cdd40d1b2793efe13fd204	3	1	practice_slash	5	practice_slash	25	stimuli_distractor_trianglediamonds.svg	stimuli_target_squarediamonds.svg	11	yes	53	1	592	0	0			0	0			1				0	
6.6.1	win	2023-06-02	03:20:28	03:42:55	1338266	62cdd40d1b2793efe13fd204	3	1	practice_slash	5	advance_on_keypress_SLASH	26	stimuli_distractor_trianglediamonds.svg	stimuli_target_squarediamonds.svg	11	yes	57	0	391	0	0			0	0			1				0	
6.6.1	win	2023-06-02	03:20:28	03:42:58	1341097	62cdd40d1b2793efe13fd204	3	1	practice_slash	5	practice_slash	27	stimuli_distractor_diamondtriangles.svg	stimuli_target_diamondrectangles.svg	8	yes	53	1	776	0	0			0	0			1				0	
6.6.1	win	2023-06-02	03:20:28	03:42:58	1341097	62cdd40d1b2793efe13fd204	3	1	practice_slash	5	advance_on_keypress_SLASH	28	stimuli_distractor_diamondtriangles.svg	stimuli_target_diamondrectangles.svg	8	yes	57	0	248	0	0			0	0			1				0	
6.6.1	win	2023-06-02	03:20:28	03:43:00	1343458	62cdd40d1b2793efe13fd204	3	1	practice_slash	5	practice_slash	29	stimuli_target_squarediamonds.svg	stimuli_distractor_trianglediamonds.svg	5	yes	53	1	459	0	0			0	0			1				0	
6.6.1	win	2023-06-02	03:20:28	03:43:00	1343458	62cdd40d1b2793efe13fd204	3	1	practice_slash	5	advance_on_keypress_SLASH	30	stimuli_target_squarediamonds.svg	stimuli_distractor_trianglediamonds.svg	5	yes	57	0	273	0	0			0	0			1				0	
6.6.1	win	2023-06-02	03:20:28	03:43:02	1345826	62cdd40d1b2793efe13fd204	3	1	practice_slash	5	practice_slash	31	stimuli_target_rectanglediamonds.svg	stimuli_distractor_diamondtriangles.svg	1	yes	53	1	448	0	0			0	0			1				0	
6.6.1	win	2023-06-02	03:20:28	03:43:02	1345826	62cdd40d1b2793efe13fd204	3	1	practice_slash	5	advance_on_keypress_SLASH	32	stimuli_target_rectanglediamonds.svg	stimuli_distractor_diamondtriangles.svg	1	yes	57	0	295	0	0			0	0			1				0	
6.6.1	win	2023-06-02	03:20:28	03:43:39	1382829	62cdd40d1b2793efe13fd204	3	1	main_slash	7	main_slash	1	stimuli_distractor_diamondtriangles.svg	stimuli_distractor_diamondtriangles.svg	40	no	53	0	894	0	0			0	0			1				0	
6.6.1	win	2023-06-02	03:20:28	03:43:39	1382829	62cdd40d1b2793efe13fd204	3	1	main_slash	7	advance_on_keypress_SLASH	2	stimuli_distractor_diamondtriangles.svg	stimuli_distractor_diamondtriangles.svg	40	no	57	0	1416	0	0			0	0			1				0	
6.6.1	win	2023-06-02	03:20:28	03:43:42	1385304	62cdd40d1b2793efe13fd204	3	1	main_slash	7	main_slash	3	stimuli_target_squaretriangles.svg	stimuli_distractor_diamondtriangles.svg	7	yes	53	1	407	0	0			0	0			1				0	
6.6.1	win	2023-06-02	03:20:28	03:43:42	1385304	62cdd40d1b2793efe13fd204	3	1	main_slash	7	advance_on_keypress_SLASH	4	stimuli_target_squaretriangles.svg	stimuli_distractor_diamondtriangles.svg	7	yes	57	0	970	0	0			0	0			1				0	
6.6.1	win	2023-06-02	03:20:28	03:43:45	1388910	62cdd40d1b2793efe13fd204	3	1	main_slash	7	main_slash	5	stimuli_distractor_diamondtriangles.svg	stimuli_distractor_diamondtriangles.svg	39	no	0	1	2000	0	0			0	0			1				0	
6.6.1	win	2023-06-02	03:20:28	03:43:45	1388910	62cdd40d1b2793efe13fd204	3	1	main_slash	7	advance_on_keypress_SLASH	6	stimuli_distractor_diamondtriangles.svg	stimuli_distractor_diamondtriangles.svg	39	no	57	0	454	0	0			0	0			1				0	
6.6.1	win	2023-06-02	03:20:28	03:43:47	1390408	62cdd40d1b2793efe13fd204	3	1	main_slash	7	main_slash	7	stimuli_target_rectangletriangles.svg	stimuli_distractor_diamondtriangles.svg	5	yes	53	1	403	0	0			0	0			1				0	
6.6.1	win	2023-06-02	03:20:28	03:43:47	1390408	62cdd40d1b2793efe13fd204	3	1	main_slash	7	advance_on_keypress_SLASH	8	stimuli_target_rectangletriangles.svg	stimuli_distractor_diamondtriangles.svg	5	yes	57	0	1342	0	0			0	0			1				0	
6.6.1	win	2023-06-02	03:20:28	03:43:49	1392784	62cdd40d1b2793efe13fd204	3	1	main_slash	7	main_slash	9	stimuli_target_rectangletriangles.svg	stimuli_distractor_trianglediamonds.svg	1	yes	53	1	382	0	0			0	0			1				0	
6.6.1	win	2023-06-02	03:20:28	03:43:49	1392784	62cdd40d1b2793efe13fd204	3	1	main_slash	7	advance_on_keypress_SLASH	10	stimuli_target_rectangletriangles.svg	stimuli_distractor_trianglediamonds.svg	1	yes	57	0	547	0	0			0	0			1				0	
6.6.1	win	2023-06-02	03:20:28	03:43:51	1394371	62cdd40d1b2793efe13fd204	3	1	main_slash	7	main_slash	11	stimuli_target_squarediamonds.svg	stimuli_distractor_trianglediamonds.svg	4	yes	53	1	389	0	0			0	0			1				0	
6.6.1	win	2023-06-02	03:20:28	03:43:51	1394371	62cdd40d1b2793efe13fd204	3	1	main_slash	7	advance_on_keypress_SLASH	12	stimuli_target_squarediamonds.svg	stimuli_distractor_trianglediamonds.svg	4	yes	57	0	681	0	0			0	0			1				0	
6.6.1	win	2023-06-02	03:20:28	03:43:53	1396096	62cdd40d1b2793efe13fd204	3	1	main_slash	7	main_slash	13	stimuli_distractor_diamondtriangles.svg	stimuli_target_rectangletriangles.svg	13	yes	53	1	399	0	0			0	0			1				0	
6.6.1	win	2023-06-02	03:20:28	03:43:53	1396096	62cdd40d1b2793efe13fd204	3	1	main_slash	7	advance_on_keypress_SLASH	14	stimuli_distractor_diamondtriangles.svg	stimuli_target_rectangletriangles.svg	13	yes	57	0	454	0	0			0	0			1				0	
6.6.1	win	2023-06-02	03:20:28	03:43:54	1397611	62cdd40d1b2793efe13fd204	3	1	main_slash	7	main_slash	15	stimuli_distractor_trianglediamonds.svg	stimuli_target_squarediamonds.svg	12	yes	53	1	417	0	0			0	0			1				0	
6.6.1	win	2023-06-02	03:20:28	03:43:54	1397611	62cdd40d1b2793efe13fd204	3	1	main_slash	7	advance_on_keypress_SLASH	16	stimuli_distractor_trianglediamonds.svg	stimuli_target_squarediamonds.svg	12	yes	57	0	410	0	0			0	0			1				0	
6.6.1	win	2023-06-02	03:20:28	03:43:56	1399376	62cdd40d1b2793efe13fd204	3	1	main_slash	7	main_slash	17	stimuli_distractor_diamondtriangles.svg	stimuli_distractor_trianglediamonds.svg	37	no	53	0	718	0	0			0	0			1				0	
6.6.1	win	2023-06-02	03:20:28	03:43:56	1399376	62cdd40d1b2793efe13fd204	3	1	main_slash	7	advance_on_keypress_SLASH	18	stimuli_distractor_diamondtriangles.svg	stimuli_distractor_trianglediamonds.svg	37	no	57	0	567	0	0			0	0			1				0	
6.6.1	win	2023-06-02	03:20:28	03:43:57	1400991	62cdd40d1b2793efe13fd204	3	1	main_slash	7	main_slash	19	stimuli_target_rectanglediamonds.svg	stimuli_distractor_diamondtriangles.svg	6	yes	53	1	403	0	0			0	0			1				0	
6.6.1	win	2023-06-02	03:20:28	03:43:57	1400991	62cdd40d1b2793efe13fd204	3	1	main_slash	7	advance_on_keypress_SLASH	20	stimuli_target_rectanglediamonds.svg	stimuli_distractor_diamondtriangles.svg	6	yes	57	0	440	0	0			0	0			1				0	
6.6.1	win	2023-06-02	03:20:28	03:43:59	1403045	62cdd40d1b2793efe13fd204	3	1	main_slash	7	main_slash	21	stimuli_distractor_trianglediamonds.svg	stimuli_target_trianglerectangles.svg	25	yes	53	1	975	0	0			0	0			1				0	
6.6.1	win	2023-06-02	03:20:28	03:43:59	1403045	62cdd40d1b2793efe13fd204	3	1	main_slash	7	advance_on_keypress_SLASH	22	stimuli_distractor_trianglediamonds.svg	stimuli_target_trianglerectangles.svg	25	yes	57	0	389	0	0			0	0			1				0	
6.6.1	win	2023-06-02	03:20:28	03:44:01	1404479	62cdd40d1b2793efe13fd204	3	1	main_slash	7	main_slash	23	stimuli_distractor_trianglediamonds.svg	stimuli_target_rectanglediamonds.svg	10	yes	53	1	412	0	0			0	0			1				0	
6.6.1	win	2023-06-02	03:20:28	03:44:01	1404479	62cdd40d1b2793efe13fd204	3	1	main_slash	7	advance_on_keypress_SLASH	24	stimuli_distractor_trianglediamonds.svg	stimuli_target_rectanglediamonds.svg	10	yes	57	0	480	0	0			0	0			1				0	
6.6.1	win	2023-06-02	03:20:28	03:44:03	1406642	62cdd40d1b2793efe13fd204	3	1	main_slash	7	main_slash	25	stimuli_target_trianglerectangles.svg	stimuli_distractor_diamondtriangles.svg	21	yes	53	1	1027	0	0			0	0			1				0	
6.6.1	win	2023-06-02	03:20:28	03:44:03	1406642	62cdd40d1b2793efe13fd204	3	1	main_slash	7	advance_on_keypress_SLASH	26	stimuli_target_trianglerectangles.svg	stimuli_distractor_diamondtriangles.svg	21	yes	57	0	368	0	0			0	0			1				0	
6.6.1	win	2023-06-02	03:20:28	03:44:05	1408175	62cdd40d1b2793efe13fd204	3	1	main_slash	7	main_slash	27	stimuli_target_squaretriangles.svg	stimuli_distractor_trianglediamonds.svg	3	yes	53	1	513	0	0			0	0			1				0	
6.6.1	win	2023-06-02	03:20:28	03:44:05	1408175	62cdd40d1b2793efe13fd204	3	1	main_slash	7	advance_on_keypress_SLASH	28	stimuli_target_squaretriangles.svg	stimuli_distractor_trianglediamonds.svg	3	yes	57	0	520	0	0			0	0			1				0	
6.6.1	win	2023-06-02	03:20:28	03:44:06	1409723	62cdd40d1b2793efe13fd204	3	1	main_slash	7	main_slash	29	stimuli_distractor_diamondtriangles.svg	stimuli_target_squarediamonds.svg	16	yes	53	1	371	0	0			0	0			1				0	
6.6.1	win	2023-06-02	03:20:28	03:44:06	1409723	62cdd40d1b2793efe13fd204	3	1	main_slash	7	advance_on_keypress_SLASH	30	stimuli_distractor_diamondtriangles.svg	stimuli_target_squarediamonds.svg	16	yes	57	0	373	0	0			0	0			1				0	
6.6.1	win	2023-06-02	03:20:28	03:44:08	1411103	62cdd40d1b2793efe13fd204	3	1	main_slash	7	main_slash	31	stimuli_target_squarediamonds.svg	stimuli_distractor_diamondtriangles.svg	8	yes	53	1	363	0	0			0	0			1				0	
6.6.1	win	2023-06-02	03:20:28	03:44:08	1411103	62cdd40d1b2793efe13fd204	3	1	main_slash	7	advance_on_keypress_SLASH	32	stimuli_target_squarediamonds.svg	stimuli_distractor_diamondtriangles.svg	8	yes	57	0	383	0	0			0	0			1				0	
6.6.1	win	2023-06-02	03:20:28	03:44:09	1412491	62cdd40d1b2793efe13fd204	3	1	main_slash	7	main_slash	33	stimuli_target_trianglesquares.svg	stimuli_distractor_diamondtriangles.svg	22	yes	53	1	353	0	0			0	0			1				0	
6.6.1	win	2023-06-02	03:20:28	03:44:09	1412491	62cdd40d1b2793efe13fd204	3	1	main_slash	7	advance_on_keypress_SLASH	34	stimuli_target_trianglesquares.svg	stimuli_distractor_diamondtriangles.svg	22	yes	57	0	431	0	0			0	0			1				0	
6.6.1	win	2023-06-02	03:20:28	03:44:11	1414217	62cdd40d1b2793efe13fd204	3	1	main_slash	7	main_slash	35	stimuli_target_diamondsquares.svg	stimuli_distractor_trianglediamonds.svg	20	yes	53	1	648	0	0			0	0			1				0	
6.6.1	win	2023-06-02	03:20:28	03:44:11	1414217	62cdd40d1b2793efe13fd204	3	1	main_slash	7	advance_on_keypress_SLASH	36	stimuli_target_diamondsquares.svg	stimuli_distractor_trianglediamonds.svg	20	yes	57	0	673	0	0			0	0			1				0	
6.6.1	win	2023-06-02	03:20:28	03:44:14	1417533	62cdd40d1b2793efe13fd204	3	1	main_slash	7	main_slash	37	stimuli_target_trianglerectangles.svg	stimuli_distractor_trianglediamonds.svg	17	yes	0	0	2000	0	0			0	0			1				0	
6.6.1	win	2023-06-02	03:20:28	03:44:14	1417533	62cdd40d1b2793efe13fd204	3	1	main_slash	7	advance_on_keypress_SLASH	38	stimuli_target_trianglerectangles.svg	stimuli_distractor_trianglediamonds.svg	17	yes	57	0	490	0	0			0	0			1				0	
6.6.1	win	2023-06-02	03:20:28	03:44:16	1419183	62cdd40d1b2793efe13fd204	3	1	main_slash	7	main_slash	39	stimuli_distractor_diamondtriangles.svg	stimuli_target_trianglerectangles.svg	29	yes	53	1	522	0	0			0	0			1				0	
6.6.1	win	2023-06-02	03:20:28	03:44:16	1419183	62cdd40d1b2793efe13fd204	3	1	main_slash	7	advance_on_keypress_SLASH	40	stimuli_distractor_diamondtriangles.svg	stimuli_target_trianglerectangles.svg	29	yes	57	0	758	0	0			0	0			1				0	
6.6.1	win	2023-06-02	03:20:28	03:44:17	1421035	62cdd40d1b2793efe13fd204	3	1	main_slash	7	main_slash	41	stimuli_distractor_trianglediamonds.svg	stimuli_target_trianglesquares.svg	26	yes	53	1	460	0	0			0	0			1				0	
6.6.1	win	2023-06-02	03:20:28	03:44:17	1421035	62cdd40d1b2793efe13fd204	3	1	main_slash	7	advance_on_keypress_SLASH	42	stimuli_distractor_trianglediamonds.svg	stimuli_target_trianglesquares.svg	26	yes	57	0	445	0	0			0	0			1				0	
6.6.1	win	2023-06-02	03:20:28	03:44:20	1423517	62cdd40d1b2793efe13fd204	3	1	main_slash	7	main_slash	43	stimuli_distractor_trianglediamonds.svg	stimuli_target_diamondsquares.svg	28	yes	53	1	1378	0	0			0	0			1				0	
6.6.1	win	2023-06-02	03:20:28	03:44:20	1423517	62cdd40d1b2793efe13fd204	3	1	main_slash	7	advance_on_keypress_SLASH	44	stimuli_distractor_trianglediamonds.svg	stimuli_target_diamondsquares.svg	28	yes	57	0	529	0	0			0	0			1				0	
6.6.1	win	2023-06-02	03:20:28	03:44:23	1426701	62cdd40d1b2793efe13fd204	3	1	main_slash	7	main_slash	45	stimuli_distractor_trianglediamonds.svg	stimuli_distractor_trianglediamonds.svg	34	no	0	1	2000	0	0			0	0			1				0	
6.6.1	win	2023-06-02	03:20:28	03:44:23	1426701	62cdd40d1b2793efe13fd204	3	1	main_slash	7	advance_on_keypress_SLASH	46	stimuli_distractor_trianglediamonds.svg	stimuli_distractor_trianglediamonds.svg	34	no	57	0	259	0	0			0	0			1				0	
6.6.1	win	2023-06-02	03:20:28	03:44:25	1428617	62cdd40d1b2793efe13fd204	3	1	main_slash	7	main_slash	47	stimuli_distractor_diamondtriangles.svg	stimuli_distractor_trianglediamonds.svg	38	no	53	0	1020	0	0			0	0			1				0	
6.6.1	win	2023-06-02	03:20:28	03:44:25	1428617	62cdd40d1b2793efe13fd204	3	1	main_slash	7	advance_on_keypress_SLASH	48	stimuli_distractor_diamondtriangles.svg	stimuli_distractor_trianglediamonds.svg	38	no	57	0	488	0	0			0	0			1				0	
6.6.1	win	2023-06-02	03:20:28	03:44:27	1430330	62cdd40d1b2793efe13fd204	3	1	main_slash	7	main_slash	49	stimuli_distractor_diamondtriangles.svg	stimuli_target_rectanglediamonds.svg	14	yes	53	1	586	0	0			0	0			1				0	
6.6.1	win	2023-06-02	03:20:28	03:44:27	1430330	62cdd40d1b2793efe13fd204	3	1	main_slash	7	advance_on_keypress_SLASH	50	stimuli_distractor_diamondtriangles.svg	stimuli_target_rectanglediamonds.svg	14	yes	57	0	408	0	0			0	0			1				0	
6.6.1	win	2023-06-02	03:20:28	03:44:28	1431926	62cdd40d1b2793efe13fd204	3	1	main_slash	7	main_slash	51	stimuli_distractor_trianglediamonds.svg	stimuli_target_rectangletriangles.svg	9	yes	53	1	551	0	0			0	0			1				0	
6.6.1	win	2023-06-02	03:20:28	03:44:28	1431926	62cdd40d1b2793efe13fd204	3	1	main_slash	7	advance_on_keypress_SLASH	52	stimuli_distractor_trianglediamonds.svg	stimuli_target_rectangletriangles.svg	9	yes	57	0	448	0	0			0	0			1				0	
6.6.1	win	2023-06-02	03:20:28	03:44:31	1434210	62cdd40d1b2793efe13fd204	3	1	main_slash	7	main_slash	53	stimuli_target_trianglesquares.svg	stimuli_distractor_trianglediamonds.svg	18	yes	53	1	1189	0	0			0	0			1				0	
6.6.1	win	2023-06-02	03:20:28	03:44:31	1434210	62cdd40d1b2793efe13fd204	3	1	main_slash	7	advance_on_keypress_SLASH	54	stimuli_target_trianglesquares.svg	stimuli_distractor_trianglediamonds.svg	18	yes	57	0	427	0	0			0	0			1				0	
6.6.1	win	2023-06-02	03:20:28	03:44:34	1437268	62cdd40d1b2793efe13fd204	3	1	main_slash	7	main_slash	55	stimuli_distractor_trianglediamonds.svg	stimuli_distractor_diamondtriangles.svg	35	no	0	1	2000	0	0			0	0			1				0	
6.6.1	win	2023-06-02	03:20:28	03:44:34	1437268	62cdd40d1b2793efe13fd204	3	1	main_slash	7	advance_on_keypress_SLASH	56	stimuli_distractor_trianglediamonds.svg	stimuli_distractor_diamondtriangles.svg	35	no	57	0	496	0	0			0	0			1				0	
6.6.1	win	2023-06-02	03:20:28	03:44:37	1440413	62cdd40d1b2793efe13fd204	3	1	main_slash	7	main_slash	57	stimuli_distractor_trianglediamonds.svg	stimuli_target_diamondrectangles.svg	27	yes	0	0	2000	0	0			0	0			1				0	
6.6.1	win	2023-06-02	03:20:28	03:44:37	1440413	62cdd40d1b2793efe13fd204	3	1	main_slash	7	advance_on_keypress_SLASH	58	stimuli_distractor_trianglediamonds.svg	stimuli_target_diamondrectangles.svg	27	yes	57	0	345	0	0			0	0			1				0	
6.6.1	win	2023-06-02	03:20:28	03:44:39	1442702	62cdd40d1b2793efe13fd204	3	1	main_slash	7	main_slash	59	stimuli_target_diamondsquares.svg	stimuli_distractor_diamondtriangles.svg	24	yes	53	1	1293	0	0			0	0			1				0	
6.6.1	win	2023-06-02	03:20:28	03:44:39	1442702	62cdd40d1b2793efe13fd204	3	1	main_slash	7	advance_on_keypress_SLASH	60	stimuli_target_diamondsquares.svg	stimuli_distractor_diamondtriangles.svg	24	yes	57	0	865	0	0			0	0			1				0	
6.6.1	win	2023-06-02	03:20:28	03:44:41	1444625	62cdd40d1b2793efe13fd204	3	1	main_slash	7	main_slash	61	stimuli_target_rectanglediamonds.svg	stimuli_distractor_trianglediamonds.svg	2	yes	53	1	403	0	0			0	0			1				0	
6.6.1	win	2023-06-02	03:20:28	03:44:41	1444625	62cdd40d1b2793efe13fd204	3	1	main_slash	7	advance_on_keypress_SLASH	62	stimuli_target_rectanglediamonds.svg	stimuli_distractor_trianglediamonds.svg	2	yes	57	0	408	0	0			0	0			1				0	
6.6.1	win	2023-06-02	03:20:28	03:44:43	1446822	62cdd40d1b2793efe13fd204	3	1	main_slash	7	main_slash	63	stimuli_distractor_diamondtriangles.svg	stimuli_target_trianglesquares.svg	30	yes	53	1	1153	0	0			0	0			1				0	
6.6.1	win	2023-06-02	03:20:28	03:44:43	1446822	62cdd40d1b2793efe13fd204	3	1	main_slash	7	advance_on_keypress_SLASH	64	stimuli_distractor_diamondtriangles.svg	stimuli_target_trianglesquares.svg	30	yes	57	0	302	0	0			0	0			1				0	
6.6.1	win	2023-06-02	03:20:28	03:44:45	1448318	62cdd40d1b2793efe13fd204	3	1	main_slash	7	main_slash	65	stimuli_distractor_diamondtriangles.svg	stimuli_target_squaretriangles.svg	15	yes	53	1	552	0	0			0	0			1				0	
6.6.1	win	2023-06-02	03:20:28	03:44:45	1448318	62cdd40d1b2793efe13fd204	3	1	main_slash	7	advance_on_keypress_SLASH	66	stimuli_distractor_diamondtriangles.svg	stimuli_target_squaretriangles.svg	15	yes	57	0	426	0	0			0	0			1				0	
6.6.1	win	2023-06-02	03:20:28	03:44:47	1450215	62cdd40d1b2793efe13fd204	3	1	main_slash	7	main_slash	67	stimuli_target_diamondrectangles.svg	stimuli_distractor_diamondtriangles.svg	23	yes	53	1	835	0	0			0	0			1				0	
6.6.1	win	2023-06-02	03:20:28	03:44:47	1450215	62cdd40d1b2793efe13fd204	3	1	main_slash	7	advance_on_keypress_SLASH	68	stimuli_target_diamondrectangles.svg	stimuli_distractor_diamondtriangles.svg	23	yes	57	0	325	0	0			0	0			1				0	
6.6.1	win	2023-06-02	03:20:28	03:44:49	1452539	62cdd40d1b2793efe13fd204	3	1	main_slash	7	main_slash	69	stimuli_distractor_trianglediamonds.svg	stimuli_distractor_diamondtriangles.svg	36	no	53	0	1362	0	0			0	0			1				0	
6.6.1	win	2023-06-02	03:20:28	03:44:49	1452539	62cdd40d1b2793efe13fd204	3	1	main_slash	7	advance_on_keypress_SLASH	70	stimuli_distractor_trianglediamonds.svg	stimuli_distractor_diamondtriangles.svg	36	no	57	0	405	0	0			0	0			1				0	
6.6.1	win	2023-06-02	03:20:28	03:44:51	1454129	62cdd40d1b2793efe13fd204	3	1	main_slash	7	main_slash	71	stimuli_distractor_trianglediamonds.svg	stimuli_target_squaretriangles.svg	11	yes	53	1	539	0	0			0	0			1				0	
6.6.1	win	2023-06-02	03:20:28	03:44:51	1454129	62cdd40d1b2793efe13fd204	3	1	main_slash	7	advance_on_keypress_SLASH	72	stimuli_distractor_trianglediamonds.svg	stimuli_target_squaretriangles.svg	11	yes	57	0	383	0	0			0	0			1				0	
6.6.1	win	2023-06-02	03:20:28	03:44:53	1456332	62cdd40d1b2793efe13fd204	3	1	main_slash	7	main_slash	73	stimuli_distractor_diamondtriangles.svg	stimuli_target_diamondsquares.svg	32	yes	53	1	1178	0	0			0	0			1				0	
6.6.1	win	2023-06-02	03:20:28	03:44:53	1456332	62cdd40d1b2793efe13fd204	3	1	main_slash	7	advance_on_keypress_SLASH	74	stimuli_distractor_diamondtriangles.svg	stimuli_target_diamondsquares.svg	32	yes	57	0	324	0	0			0	0			1				0	
6.6.1	win	2023-06-02	03:20:28	03:44:55	1458745	62cdd40d1b2793efe13fd204	3	1	main_slash	7	main_slash	75	stimuli_distractor_diamondtriangles.svg	stimuli_target_diamondrectangles.svg	31	yes	53	1	1444	0	0			0	0			1				0	
6.6.1	win	2023-06-02	03:20:28	03:44:55	1458745	62cdd40d1b2793efe13fd204	3	1	main_slash	7	advance_on_keypress_SLASH	76	stimuli_distractor_diamondtriangles.svg	stimuli_target_diamondrectangles.svg	31	yes	57	0	317	0	0			0	0			1				0	
6.6.1	win	2023-06-02	03:20:28	03:44:58	1461714	62cdd40d1b2793efe13fd204	3	1	main_slash	7	main_slash	77	stimuli_distractor_trianglediamonds.svg	stimuli_distractor_trianglediamonds.svg	33	no	0	1	2000	0	0			0	0			1				0	
6.6.1	win	2023-06-02	03:20:28	03:44:58	1461714	62cdd40d1b2793efe13fd204	3	1	main_slash	7	advance_on_keypress_SLASH	78	stimuli_distractor_trianglediamonds.svg	stimuli_distractor_trianglediamonds.svg	33	no	57	0	488	0	0			0	0			1				0	
6.6.1	win	2023-06-02	03:20:28	03:45:01	1464842	62cdd40d1b2793efe13fd204	3	1	main_slash	7	main_slash	79	stimuli_target_diamondrectangles.svg	stimuli_distractor_trianglediamonds.svg	19	yes	0	0	2000	0	0			0	0			1				0	
6.6.1	win	2023-06-02	03:20:28	03:45:01	1464842	62cdd40d1b2793efe13fd204	3	1	main_slash	7	advance_on_keypress_SLASH	80	stimuli_target_diamondrectangles.svg	stimuli_distractor_trianglediamonds.svg	19	yes	57	0	298	0	0			0	0			1				0	
6.6.1	win	2023-06-02	03:20:28	03:45:03	1466246	62cdd40d1b2793efe13fd204	3	1	main_slash	7	main_slash	81	stimuli_distractor_diamondtriangles.svg	stimuli_target_squarediamonds.svg	16	yes	53	1	458	0	0			0	0			1				0	
6.6.1	win	2023-06-02	03:20:28	03:45:03	1466246	62cdd40d1b2793efe13fd204	3	1	main_slash	7	advance_on_keypress_SLASH	82	stimuli_distractor_diamondtriangles.svg	stimuli_target_squarediamonds.svg	16	yes	57	0	516	0	0			0	0			1				0	
6.6.1	win	2023-06-02	03:20:28	03:45:04	1468058	62cdd40d1b2793efe13fd204	3	1	main_slash	7	main_slash	83	stimuli_distractor_trianglediamonds.svg	stimuli_target_squaretriangles.svg	11	yes	53	1	656	0	0			0	0			1				0	
6.6.1	win	2023-06-02	03:20:28	03:45:04	1468058	62cdd40d1b2793efe13fd204	3	1	main_slash	7	advance_on_keypress_SLASH	84	stimuli_distractor_trianglediamonds.svg	stimuli_target_squaretriangles.svg	11	yes	57	0	327	0	0			0	0			1				0	
6.6.1	win	2023-06-02	03:20:28	03:45:06	1469455	62cdd40d1b2793efe13fd204	3	1	main_slash	7	main_slash	85	stimuli_target_rectangletriangles.svg	stimuli_distractor_trianglediamonds.svg	1	yes	53	1	422	0	0			0	0			1				0	
6.6.1	win	2023-06-02	03:20:28	03:45:06	1469455	62cdd40d1b2793efe13fd204	3	1	main_slash	7	advance_on_keypress_SLASH	86	stimuli_target_rectangletriangles.svg	stimuli_distractor_trianglediamonds.svg	1	yes	57	0	463	0	0			0	0			1				0	
6.6.1	win	2023-06-02	03:20:28	03:45:08	1471078	62cdd40d1b2793efe13fd204	3	1	main_slash	7	main_slash	87	stimuli_distractor_diamondtriangles.svg	stimuli_target_trianglesquares.svg	30	yes	53	1	503	0	0			0	0			1				0	
6.6.1	win	2023-06-02	03:20:28	03:45:08	1471078	62cdd40d1b2793efe13fd204	3	1	main_slash	7	advance_on_keypress_SLASH	88	stimuli_distractor_diamondtriangles.svg	stimuli_target_trianglesquares.svg	30	yes	57	0	341	0	0			0	0			1				0	
6.6.1	win	2023-06-02	03:20:28	03:45:10	1474061	62cdd40d1b2793efe13fd204	3	1	main_slash	7	main_slash	89	stimuli_distractor_diamondtriangles.svg	stimuli_distractor_trianglediamonds.svg	38	no	0	1	2000	0	0			0	0			1				0	
6.6.1	win	2023-06-02	03:20:28	03:45:10	1474061	62cdd40d1b2793efe13fd204	3	1	main_slash	7	advance_on_keypress_SLASH	90	stimuli_distractor_diamondtriangles.svg	stimuli_distractor_trianglediamonds.svg	38	no	57	0	216	0	0			0	0			1				0	
6.6.1	win	2023-06-02	03:20:28	03:45:13	1476923	62cdd40d1b2793efe13fd204	3	1	main_slash	7	main_slash	91	stimuli_target_trianglerectangles.svg	stimuli_distractor_diamondtriangles.svg	21	yes	0	0	2000	0	0			0	0			1				0	
6.6.1	win	2023-06-02	03:20:28	03:45:13	1476923	62cdd40d1b2793efe13fd204	3	1	main_slash	7	advance_on_keypress_SLASH	92	stimuli_target_trianglerectangles.svg	stimuli_distractor_diamondtriangles.svg	21	yes	57	0	243	0	0			0	0			1				0	
6.6.1	win	2023-06-02	03:20:28	03:45:15	1478299	62cdd40d1b2793efe13fd204	3	1	main_slash	7	main_slash	93	stimuli_target_squaretriangles.svg	stimuli_distractor_trianglediamonds.svg	3	yes	53	1	498	0	0			0	0			1				0	
6.6.1	win	2023-06-02	03:20:28	03:45:15	1478299	62cdd40d1b2793efe13fd204	3	1	main_slash	7	advance_on_keypress_SLASH	94	stimuli_target_squaretriangles.svg	stimuli_distractor_trianglediamonds.svg	3	yes	57	0	425	0	0			0	0			1				0	
6.6.1	win	2023-06-02	03:20:28	03:45:16	1480064	62cdd40d1b2793efe13fd204	3	1	main_slash	7	main_slash	95	stimuli_target_trianglerectangles.svg	stimuli_distractor_trianglediamonds.svg	17	yes	53	1	697	0	0			0	0			1				0	
6.6.1	win	2023-06-02	03:20:28	03:45:16	1480064	62cdd40d1b2793efe13fd204	3	1	main_slash	7	advance_on_keypress_SLASH	96	stimuli_target_trianglerectangles.svg	stimuli_distractor_trianglediamonds.svg	17	yes	57	0	319	0	0			0	0			1				0	
6.6.1	win	2023-06-02	03:20:28	03:45:18	1481450	62cdd40d1b2793efe13fd204	3	1	main_slash	7	main_slash	97	stimuli_target_rectanglediamonds.svg	stimuli_distractor_diamondtriangles.svg	6	yes	53	1	419	0	0			0	0			1				0	
6.6.1	win	2023-06-02	03:20:28	03:45:18	1481450	62cdd40d1b2793efe13fd204	3	1	main_slash	7	advance_on_keypress_SLASH	98	stimuli_target_rectanglediamonds.svg	stimuli_distractor_diamondtriangles.svg	6	yes	57	0	337	0	0			0	0			1				0	
6.6.1	win	2023-06-02	03:20:28	03:45:20	1483124	62cdd40d1b2793efe13fd204	3	1	main_slash	7	main_slash	99	stimuli_distractor_trianglediamonds.svg	stimuli_target_trianglesquares.svg	26	yes	53	1	696	0	0			0	0			1				0	
6.6.1	win	2023-06-02	03:20:28	03:45:20	1483124	62cdd40d1b2793efe13fd204	3	1	main_slash	7	advance_on_keypress_SLASH	100	stimuli_distractor_trianglediamonds.svg	stimuli_target_trianglesquares.svg	26	yes	57	0	383	0	0			0	0			1				0	
6.6.1	win	2023-06-02	03:20:28	03:45:23	1486159	62cdd40d1b2793efe13fd204	3	1	main_slash	7	main_slash	101	stimuli_distractor_trianglediamonds.svg	stimuli_distractor_diamondtriangles.svg	35	no	0	1	2000	0	0			0	0			1				0	
6.6.1	win	2023-06-02	03:20:28	03:45:23	1486159	62cdd40d1b2793efe13fd204	3	1	main_slash	7	advance_on_keypress_SLASH	102	stimuli_distractor_trianglediamonds.svg	stimuli_distractor_diamondtriangles.svg	35	no	57	0	262	0	0			0	0			1				0	
6.6.1	win	2023-06-02	03:20:28	03:45:24	1487777	62cdd40d1b2793efe13fd204	3	1	main_slash	7	main_slash	103	stimuli_target_diamondrectangles.svg	stimuli_distractor_trianglediamonds.svg	19	yes	53	1	707	0	0			0	0			1				0	
6.6.1	win	2023-06-02	03:20:28	03:45:24	1487777	62cdd40d1b2793efe13fd204	3	1	main_slash	7	advance_on_keypress_SLASH	104	stimuli_target_diamondrectangles.svg	stimuli_distractor_trianglediamonds.svg	19	yes	57	0	426	0	0			0	0			1				0	
6.6.1	win	2023-06-02	03:20:28	03:45:26	1489694	62cdd40d1b2793efe13fd204	3	1	main_slash	7	main_slash	105	stimuli_distractor_trianglediamonds.svg	stimuli_target_diamondrectangles.svg	27	yes	53	1	859	0	0			0	0			1				0	
6.6.1	win	2023-06-02	03:20:28	03:45:26	1489694	62cdd40d1b2793efe13fd204	3	1	main_slash	7	advance_on_keypress_SLASH	106	stimuli_distractor_trianglediamonds.svg	stimuli_target_diamondrectangles.svg	27	yes	57	0	443	0	0			0	0			1				0	
6.6.1	win	2023-06-02	03:20:28	03:45:28	1491318	62cdd40d1b2793efe13fd204	3	1	main_slash	7	main_slash	107	stimuli_target_rectanglediamonds.svg	stimuli_distractor_trianglediamonds.svg	2	yes	53	1	553	0	0			0	0			1				0	
6.6.1	win	2023-06-02	03:20:28	03:45:28	1491318	62cdd40d1b2793efe13fd204	3	1	main_slash	7	advance_on_keypress_SLASH	108	stimuli_target_rectanglediamonds.svg	stimuli_distractor_trianglediamonds.svg	2	yes	57	0	344	0	0			0	0			1				0	
6.6.1	win	2023-06-02	03:20:28	03:45:29	1492938	62cdd40d1b2793efe13fd204	3	1	main_slash	7	main_slash	109	stimuli_target_trianglesquares.svg	stimuli_distractor_diamondtriangles.svg	22	yes	53	1	626	0	0			0	0			1				0	
6.6.1	win	2023-06-02	03:20:28	03:45:29	1492938	62cdd40d1b2793efe13fd204	3	1	main_slash	7	advance_on_keypress_SLASH	110	stimuli_target_trianglesquares.svg	stimuli_distractor_diamondtriangles.svg	22	yes	57	0	297	0	0			0	0			1				0	
6.6.1	win	2023-06-02	03:20:28	03:45:31	1494300	62cdd40d1b2793efe13fd204	3	1	main_slash	7	main_slash	111	stimuli_target_squarediamonds.svg	stimuli_distractor_trianglediamonds.svg	4	yes	53	1	422	0	0			0	0			1				0	
6.6.1	win	2023-06-02	03:20:28	03:45:31	1494300	62cdd40d1b2793efe13fd204	3	1	main_slash	7	advance_on_keypress_SLASH	112	stimuli_target_squarediamonds.svg	stimuli_distractor_trianglediamonds.svg	4	yes	57	0	281	0	0			0	0			1				0	
6.6.1	win	2023-06-02	03:20:28	03:45:32	1495628	62cdd40d1b2793efe13fd204	3	1	main_slash	7	main_slash	113	stimuli_distractor_trianglediamonds.svg	stimuli_target_squarediamonds.svg	12	yes	53	1	403	0	0			0	0			1				0	
6.6.1	win	2023-06-02	03:20:28	03:45:32	1495628	62cdd40d1b2793efe13fd204	3	1	main_slash	7	advance_on_keypress_SLASH	114	stimuli_distractor_trianglediamonds.svg	stimuli_target_squarediamonds.svg	12	yes	57	0	286	0	0			0	0			1				0	
6.6.1	win	2023-06-02	03:20:28	03:45:34	1497455	62cdd40d1b2793efe13fd204	3	1	main_slash	7	main_slash	115	stimuli_distractor_trianglediamonds.svg	stimuli_target_diamondsquares.svg	28	yes	53	1	898	0	0			0	0			1				0	
6.6.1	win	2023-06-02	03:20:28	03:45:34	1497455	62cdd40d1b2793efe13fd204	3	1	main_slash	7	advance_on_keypress_SLASH	116	stimuli_distractor_trianglediamonds.svg	stimuli_target_diamondsquares.svg	28	yes	57	0	275	0	0			0	0			1				0	
6.6.1	win	2023-06-02	03:20:28	03:45:36	1499753	62cdd40d1b2793efe13fd204	3	1	main_slash	7	main_slash	117	stimuli_target_rectangletriangles.svg	stimuli_distractor_diamondtriangles.svg	5	yes	53	1	1382	0	0			0	0			1				0	
6.6.1	win	2023-06-02	03:20:28	03:45:36	1499753	62cdd40d1b2793efe13fd204	3	1	main_slash	7	advance_on_keypress_SLASH	118	stimuli_target_rectangletriangles.svg	stimuli_distractor_diamondtriangles.svg	5	yes	57	0	324	0	0			0	0			1				0	
6.6.1	win	2023-06-02	03:20:28	03:45:39	1502717	62cdd40d1b2793efe13fd204	3	1	main_slash	7	main_slash	119	stimuli_distractor_diamondtriangles.svg	stimuli_distractor_diamondtriangles.svg	39	no	0	1	2000	0	0			0	0			1				0	
6.6.1	win	2023-06-02	03:20:28	03:45:39	1502717	62cdd40d1b2793efe13fd204	3	1	main_slash	7	advance_on_keypress_SLASH	120	stimuli_distractor_diamondtriangles.svg	stimuli_distractor_diamondtriangles.svg	39	no	57	0	294	0	0			0	0			1				0	
6.6.1	win	2023-06-02	03:20:28	03:45:42	1505662	62cdd40d1b2793efe13fd204	3	1	main_slash	7	main_slash	121	stimuli_target_diamondsquares.svg	stimuli_distractor_diamondtriangles.svg	24	yes	0	0	2000	0	0			0	0			1				0	
6.6.1	win	2023-06-02	03:20:28	03:45:42	1505662	62cdd40d1b2793efe13fd204	3	1	main_slash	7	advance_on_keypress_SLASH	122	stimuli_target_diamondsquares.svg	stimuli_distractor_diamondtriangles.svg	24	yes	57	0	292	0	0			0	0			1				0	
6.6.1	win	2023-06-02	03:20:28	03:45:44	1507198	62cdd40d1b2793efe13fd204	3	1	main_slash	7	main_slash	123	stimuli_target_trianglesquares.svg	stimuli_distractor_trianglediamonds.svg	18	yes	53	1	607	0	0			0	0			1				0	
6.6.1	win	2023-06-02	03:20:28	03:45:44	1507198	62cdd40d1b2793efe13fd204	3	1	main_slash	7	advance_on_keypress_SLASH	124	stimuli_target_trianglesquares.svg	stimuli_distractor_trianglediamonds.svg	18	yes	57	0	396	0	0			0	0			1				0	
6.6.1	win	2023-06-02	03:20:28	03:45:45	1508685	62cdd40d1b2793efe13fd204	3	1	main_slash	7	main_slash	125	stimuli_distractor_diamondtriangles.svg	stimuli_target_rectangletriangles.svg	13	yes	53	1	446	0	0			0	0			1				0	
6.6.1	win	2023-06-02	03:20:28	03:45:45	1508685	62cdd40d1b2793efe13fd204	3	1	main_slash	7	advance_on_keypress_SLASH	126	stimuli_distractor_diamondtriangles.svg	stimuli_target_rectangletriangles.svg	13	yes	57	0	318	0	0			0	0			1				0	
6.6.1	win	2023-06-02	03:20:28	03:45:47	1510345	62cdd40d1b2793efe13fd204	3	1	main_slash	7	main_slash	127	stimuli_target_diamondrectangles.svg	stimuli_distractor_diamondtriangles.svg	23	yes	53	1	692	0	0			0	0			1				0	
6.6.1	win	2023-06-02	03:20:28	03:45:47	1510345	62cdd40d1b2793efe13fd204	3	1	main_slash	7	advance_on_keypress_SLASH	128	stimuli_target_diamondrectangles.svg	stimuli_distractor_diamondtriangles.svg	23	yes	57	0	360	0	0			0	0			1				0	
6.6.1	win	2023-06-02	03:20:28	03:45:48	1511834	62cdd40d1b2793efe13fd204	3	1	main_slash	7	main_slash	129	stimuli_distractor_trianglediamonds.svg	stimuli_target_rectangletriangles.svg	9	yes	53	1	485	0	0			0	0			1				0	
6.6.1	win	2023-06-02	03:20:28	03:45:48	1511834	62cdd40d1b2793efe13fd204	3	1	main_slash	7	advance_on_keypress_SLASH	130	stimuli_distractor_trianglediamonds.svg	stimuli_target_rectangletriangles.svg	9	yes	57	0	396	0	0			0	0			1				0	
6.6.1	win	2023-06-02	03:20:28	03:45:51	1514881	62cdd40d1b2793efe13fd204	3	1	main_slash	7	main_slash	131	stimuli_distractor_trianglediamonds.svg	stimuli_distractor_trianglediamonds.svg	33	no	0	1	2000	0	0			0	0			1				0	
6.6.1	win	2023-06-02	03:20:28	03:45:51	1514881	62cdd40d1b2793efe13fd204	3	1	main_slash	7	advance_on_keypress_SLASH	132	stimuli_distractor_trianglediamonds.svg	stimuli_distractor_trianglediamonds.svg	33	no	57	0	474	0	0			0	0			1				0	
6.6.1	win	2023-06-02	03:20:28	03:45:53	1516446	62cdd40d1b2793efe13fd204	3	1	main_slash	7	main_slash	133	stimuli_distractor_diamondtriangles.svg	stimuli_target_squaretriangles.svg	15	yes	53	1	453	0	0			0	0			1				0	
6.6.1	win	2023-06-02	03:20:28	03:45:53	1516446	62cdd40d1b2793efe13fd204	3	1	main_slash	7	advance_on_keypress_SLASH	134	stimuli_distractor_diamondtriangles.svg	stimuli_target_squaretriangles.svg	15	yes	57	0	748	0	0			0	0			1				0	
6.6.1	win	2023-06-02	03:20:28	03:45:55	1518203	62cdd40d1b2793efe13fd204	3	1	main_slash	7	main_slash	135	stimuli_distractor_trianglediamonds.svg	stimuli_target_rectanglediamonds.svg	10	yes	53	1	363	0	0			0	0			1				0	
6.6.1	win	2023-06-02	03:20:28	03:45:55	1518203	62cdd40d1b2793efe13fd204	3	1	main_slash	7	advance_on_keypress_SLASH	136	stimuli_distractor_trianglediamonds.svg	stimuli_target_rectanglediamonds.svg	10	yes	57	0	370	0	0			0	0			1				0	
6.6.1	win	2023-06-02	03:20:28	03:45:58	1521221	62cdd40d1b2793efe13fd204	3	1	main_slash	7	main_slash	137	stimuli_distractor_diamondtriangles.svg	stimuli_distractor_trianglediamonds.svg	37	no	0	1	2000	0	0			0	0			1				0	
6.6.1	win	2023-06-02	03:20:28	03:45:58	1521221	62cdd40d1b2793efe13fd204	3	1	main_slash	7	advance_on_keypress_SLASH	138	stimuli_distractor_diamondtriangles.svg	stimuli_distractor_trianglediamonds.svg	37	no	57	0	291	0	0			0	0			1				0	
6.6.1	win	2023-06-02	03:20:28	03:45:59	1522852	62cdd40d1b2793efe13fd204	3	1	main_slash	7	main_slash	139	stimuli_distractor_trianglediamonds.svg	stimuli_distractor_diamondtriangles.svg	36	no	53	0	702	0	0			0	0			1				0	
6.6.1	win	2023-06-02	03:20:28	03:45:59	1522852	62cdd40d1b2793efe13fd204	3	1	main_slash	7	advance_on_keypress_SLASH	140	stimuli_distractor_trianglediamonds.svg	stimuli_distractor_diamondtriangles.svg	36	no	57	0	352	0	0			0	0			1				0	
6.6.1	win	2023-06-02	03:20:28	03:46:01	1524798	62cdd40d1b2793efe13fd204	3	1	main_slash	7	main_slash	141	stimuli_target_diamondsquares.svg	stimuli_distractor_trianglediamonds.svg	20	yes	53	1	952	0	0			0	0			1				0	
6.6.1	win	2023-06-02	03:20:28	03:46:01	1524798	62cdd40d1b2793efe13fd204	3	1	main_slash	7	advance_on_keypress_SLASH	142	stimuli_target_diamondsquares.svg	stimuli_distractor_trianglediamonds.svg	20	yes	57	0	271	0	0			0	0			1				0	
6.6.1	win	2023-06-02	03:20:28	03:46:03	1526162	62cdd40d1b2793efe13fd204	3	1	main_slash	7	main_slash	143	stimuli_target_squarediamonds.svg	stimuli_distractor_diamondtriangles.svg	8	yes	53	1	451	0	0			0	0			1				0	
6.6.1	win	2023-06-02	03:20:28	03:46:03	1526162	62cdd40d1b2793efe13fd204	3	1	main_slash	7	advance_on_keypress_SLASH	144	stimuli_target_squarediamonds.svg	stimuli_distractor_diamondtriangles.svg	8	yes	57	0	350	0	0			0	0			1				0	
6.6.1	win	2023-06-02	03:20:28	03:46:06	1529159	62cdd40d1b2793efe13fd204	3	1	main_slash	7	main_slash	145	stimuli_distractor_trianglediamonds.svg	stimuli_distractor_trianglediamonds.svg	34	no	0	1	2000	0	0			0	0			1				0	
6.6.1	win	2023-06-02	03:20:28	03:46:06	1529159	62cdd40d1b2793efe13fd204	3	1	main_slash	7	advance_on_keypress_SLASH	146	stimuli_distractor_trianglediamonds.svg	stimuli_distractor_trianglediamonds.svg	34	no	57	0	277	0	0			0	0			1				0	
6.6.1	win	2023-06-02	03:20:28	03:46:07	1530432	62cdd40d1b2793efe13fd204	3	1	main_slash	7	main_slash	147	stimuli_target_squaretriangles.svg	stimuli_distractor_diamondtriangles.svg	7	yes	53	1	362	0	0			0	0			1				0	
6.6.1	win	2023-06-02	03:20:28	03:46:07	1530432	62cdd40d1b2793efe13fd204	3	1	main_slash	7	advance_on_keypress_SLASH	148	stimuli_target_squaretriangles.svg	stimuli_distractor_diamondtriangles.svg	7	yes	57	0	430	0	0			0	0			1				0	
6.6.1	win	2023-06-02	03:20:28	03:46:09	1532214	62cdd40d1b2793efe13fd204	3	1	main_slash	7	main_slash	149	stimuli_distractor_diamondtriangles.svg	stimuli_target_diamondrectangles.svg	31	yes	53	1	695	0	0			0	0			1				0	
6.6.1	win	2023-06-02	03:20:28	03:46:09	1532214	62cdd40d1b2793efe13fd204	3	1	main_slash	7	advance_on_keypress_SLASH	150	stimuli_distractor_diamondtriangles.svg	stimuli_target_diamondrectangles.svg	31	yes	57	0	385	0	0			0	0			1				0	
6.6.1	win	2023-06-02	03:20:28	03:46:10	1533768	62cdd40d1b2793efe13fd204	3	1	main_slash	7	main_slash	151	stimuli_distractor_diamondtriangles.svg	stimuli_target_rectanglediamonds.svg	14	yes	53	1	519	0	0			0	0			1				0	
6.6.1	win	2023-06-02	03:20:28	03:46:10	1533768	62cdd40d1b2793efe13fd204	3	1	main_slash	7	advance_on_keypress_SLASH	152	stimuli_distractor_diamondtriangles.svg	stimuli_target_rectanglediamonds.svg	14	yes	57	0	306	0	0			0	0			1				0	
6.6.1	win	2023-06-02	03:20:28	03:46:12	1535776	62cdd40d1b2793efe13fd204	3	1	main_slash	7	main_slash	153	stimuli_distractor_diamondtriangles.svg	stimuli_target_diamondsquares.svg	32	yes	53	1	1062	0	0			0	0			1				0	
6.6.1	win	2023-06-02	03:20:28	03:46:12	1535776	62cdd40d1b2793efe13fd204	3	1	main_slash	7	advance_on_keypress_SLASH	154	stimuli_distractor_diamondtriangles.svg	stimuli_target_diamondsquares.svg	32	yes	57	0	221	0	0			0	0			1				0	
6.6.1	win	2023-06-02	03:20:28	03:46:15	1538644	62cdd40d1b2793efe13fd204	3	1	main_slash	7	main_slash	155	stimuli_distractor_diamondtriangles.svg	stimuli_target_trianglerectangles.svg	29	yes	0	0	2000	0	0			0	0			1				0	
6.6.1	win	2023-06-02	03:20:28	03:46:15	1538644	62cdd40d1b2793efe13fd204	3	1	main_slash	7	advance_on_keypress_SLASH	156	stimuli_distractor_diamondtriangles.svg	stimuli_target_trianglerectangles.svg	29	yes	57	0	999	0	0			0	0			1				0	
6.6.1	win	2023-06-02	03:20:28	03:46:19	1542288	62cdd40d1b2793efe13fd204	3	1	main_slash	7	main_slash	157	stimuli_distractor_diamondtriangles.svg	stimuli_distractor_diamondtriangles.svg	40	no	0	1	2000	0	0			0	0			1				0	
6.6.1	win	2023-06-02	03:20:28	03:46:19	1542288	62cdd40d1b2793efe13fd204	3	1	main_slash	7	advance_on_keypress_SLASH	158	stimuli_distractor_diamondtriangles.svg	stimuli_distractor_diamondtriangles.svg	40	no	57	0	310	0	0			0	0			1				0	
6.6.1	win	2023-06-02	03:20:28	03:46:20	1543861	62cdd40d1b2793efe13fd204	3	1	main_slash	7	main_slash	159	stimuli_distractor_trianglediamonds.svg	stimuli_target_trianglerectangles.svg	25	yes	53	1	610	0	0			0	0			1				0	
6.6.1	win	2023-06-02	03:20:28	03:46:20	1543861	62cdd40d1b2793efe13fd204	3	1	main_slash	7	advance_on_keypress_SLASH	160	stimuli_distractor_trianglediamonds.svg	stimuli_target_trianglerectangles.svg	25	yes	57	0	421	0	0			0	0			1				0	
6.6.1	win	2023-06-02	03:20:28	03:47:43	1626937	62cdd40d1b2793efe13fd204	3	1	practice_z	9	practice_z	1	stimuli_target_diamondsquares.svg	stimuli_distractor_trianglediamonds.svg	6	yes	44	1	695	0	0			0	0			1				0	
6.6.1	win	2023-06-02	03:20:28	03:47:43	1626937	62cdd40d1b2793efe13fd204	3	1	practice_z	9	advance_on_keypress_ZEE	2	stimuli_target_diamondsquares.svg	stimuli_distractor_trianglediamonds.svg	6	yes	57	0	460	0	0			0	0			1				0	
6.6.1	win	2023-06-02	03:20:28	03:47:46	1629440	62cdd40d1b2793efe13fd204	3	1	practice_z	9	practice_z	3	stimuli_target_squarediamonds.svg	stimuli_distractor_diamondtriangles.svg	2	yes	44	1	386	0	0			0	0			1				0	
6.6.1	win	2023-06-02	03:20:28	03:47:46	1629440	62cdd40d1b2793efe13fd204	3	1	practice_z	9	advance_on_keypress_ZEE	4	stimuli_target_squarediamonds.svg	stimuli_distractor_diamondtriangles.svg	2	yes	57	0	480	0	0			0	0			1				0	
6.6.1	win	2023-06-02	03:20:28	03:47:49	1632209	62cdd40d1b2793efe13fd204	3	1	practice_z	9	practice_z	5	stimuli_distractor_diamondtriangles.svg	stimuli_target_trianglerectangles.svg	9	yes	44	1	643	0	0			0	0			1				0	
6.6.1	win	2023-06-02	03:20:28	03:47:49	1632209	62cdd40d1b2793efe13fd204	3	1	practice_z	9	advance_on_keypress_ZEE	6	stimuli_distractor_diamondtriangles.svg	stimuli_target_trianglerectangles.svg	9	yes	57	0	289	0	0			0	0			1				0	
6.6.1	win	2023-06-02	03:20:28	03:47:51	1634676	62cdd40d1b2793efe13fd204	3	1	practice_z	9	practice_z	7	stimuli_target_diamondsquares.svg	stimuli_distractor_diamondtriangles.svg	3	yes	44	1	531	0	0			0	0			1				0	
6.6.1	win	2023-06-02	03:20:28	03:47:51	1634676	62cdd40d1b2793efe13fd204	3	1	practice_z	9	advance_on_keypress_ZEE	8	stimuli_target_diamondsquares.svg	stimuli_distractor_diamondtriangles.svg	3	yes	57	0	426	0	0			0	0			1				0	
6.6.1	win	2023-06-02	03:20:28	03:47:54	1637283	62cdd40d1b2793efe13fd204	3	1	practice_z	9	practice_z	9	stimuli_distractor_diamondtriangles.svg	stimuli_target_diamondrectangles.svg	8	yes	44	1	524	0	0			0	0			1				0	
6.6.1	win	2023-06-02	03:20:28	03:47:54	1637283	62cdd40d1b2793efe13fd204	3	1	practice_z	9	advance_on_keypress_ZEE	10	stimuli_distractor_diamondtriangles.svg	stimuli_target_diamondrectangles.svg	8	yes	57	0	293	0	0			0	0			1				0	
6.6.1	win	2023-06-02	03:20:28	03:47:56	1639630	62cdd40d1b2793efe13fd204	3	1	practice_z	9	practice_z	11	stimuli_target_rectanglediamonds.svg	stimuli_distractor_diamondtriangles.svg	1	yes	44	1	393	0	0			0	0			1				0	
6.6.1	win	2023-06-02	03:20:28	03:47:56	1639630	62cdd40d1b2793efe13fd204	3	1	practice_z	9	advance_on_keypress_ZEE	12	stimuli_target_rectanglediamonds.svg	stimuli_distractor_diamondtriangles.svg	1	yes	57	0	270	0	0			0	0			1				0	
6.6.1	win	2023-06-02	03:20:28	03:47:58	1641999	62cdd40d1b2793efe13fd204	3	1	practice_z	9	practice_z	13	stimuli_target_rectanglediamonds.svg	stimuli_distractor_trianglediamonds.svg	4	yes	44	1	448	0	0			0	0			1				0	
6.6.1	win	2023-06-02	03:20:28	03:47:58	1641999	62cdd40d1b2793efe13fd204	3	1	practice_z	9	advance_on_keypress_ZEE	14	stimuli_target_rectanglediamonds.svg	stimuli_distractor_trianglediamonds.svg	4	yes	57	0	207	0	0			0	0			1				0	
6.6.1	win	2023-06-02	03:20:28	03:48:01	1644433	62cdd40d1b2793efe13fd204	3	1	practice_z	9	practice_z	15	stimuli_distractor_trianglediamonds.svg	stimuli_target_rectanglediamonds.svg	10	yes	44	1	569	0	0			0	0			1				0	
6.6.1	win	2023-06-02	03:20:28	03:48:01	1644433	62cdd40d1b2793efe13fd204	3	1	practice_z	9	advance_on_keypress_ZEE	16	stimuli_distractor_trianglediamonds.svg	stimuli_target_rectanglediamonds.svg	10	yes	57	0	80	0	0			0	0			1				0	
6.6.1	win	2023-06-02	03:20:28	03:48:05	1648161	62cdd40d1b2793efe13fd204	3	1	practice_z	9	practice_z	17	stimuli_distractor_trianglediamonds.svg	stimuli_distractor_diamondtriangles.svg	16	no	0	1	2000	0	0			0	0			1				0	
6.6.1	win	2023-06-02	03:20:28	03:48:05	1648161	62cdd40d1b2793efe13fd204	3	1	practice_z	9	advance_on_keypress_ZEE	18	stimuli_distractor_trianglediamonds.svg	stimuli_distractor_diamondtriangles.svg	16	no	57	0	125	0	0			0	0			1				0	
6.6.1	win	2023-06-02	03:20:28	03:48:08	1651921	62cdd40d1b2793efe13fd204	3	1	practice_z	9	practice_z	19	stimuli_distractor_diamondtriangles.svg	stimuli_distractor_diamondtriangles.svg	13	no	0	1	2000	0	0			0	0			1				0	
6.6.1	win	2023-06-02	03:20:28	03:48:08	1651921	62cdd40d1b2793efe13fd204	3	1	practice_z	9	advance_on_keypress_ZEE	20	stimuli_distractor_diamondtriangles.svg	stimuli_distractor_diamondtriangles.svg	13	no	57	0	397	0	0			0	0			1				0	
6.6.1	win	2023-06-02	03:20:28	03:48:11	1654412	62cdd40d1b2793efe13fd204	3	1	practice_z	9	practice_z	21	stimuli_distractor_trianglediamonds.svg	stimuli_target_squarediamonds.svg	11	yes	44	1	448	0	0			0	0			1				0	
6.6.1	win	2023-06-02	03:20:28	03:48:11	1654412	62cdd40d1b2793efe13fd204	3	1	practice_z	9	advance_on_keypress_ZEE	22	stimuli_distractor_trianglediamonds.svg	stimuli_target_squarediamonds.svg	11	yes	57	0	262	0	0			0	0			1				0	
6.6.1	win	2023-06-02	03:20:28	03:48:14	1657276	62cdd40d1b2793efe13fd204	3	1	practice_z	9	practice_z	23	stimuli_target_squarediamonds.svg	stimuli_distractor_trianglediamonds.svg	5	yes	44	1	948	0	0			0	0			1				0	
6.6.1	win	2023-06-02	03:20:28	03:48:14	1657276	62cdd40d1b2793efe13fd204	3	1	practice_z	9	advance_on_keypress_ZEE	24	stimuli_target_squarediamonds.svg	stimuli_distractor_trianglediamonds.svg	5	yes	57	0	612	0	0			0	0			1				0	
6.6.1	win	2023-06-02	03:20:28	03:48:18	1661540	62cdd40d1b2793efe13fd204	3	1	practice_z	9	practice_z	25	stimuli_distractor_diamondtriangles.svg	stimuli_distractor_trianglediamonds.svg	14	no	0	1	2000	0	0			0	0			1				0	
6.6.1	win	2023-06-02	03:20:28	03:48:18	1661540	62cdd40d1b2793efe13fd204	3	1	practice_z	9	advance_on_keypress_ZEE	26	stimuli_distractor_diamondtriangles.svg	stimuli_distractor_trianglediamonds.svg	14	no	57	0	435	0	0			0	0			1				0	
6.6.1	win	2023-06-02	03:20:28	03:48:21	1664503	62cdd40d1b2793efe13fd204	3	1	practice_z	9	practice_z	27	stimuli_distractor_trianglediamonds.svg	stimuli_target_diamondrectangles.svg	12	yes	44	1	886	0	0			0	0			1				0	
6.6.1	win	2023-06-02	03:20:28	03:48:21	1664503	62cdd40d1b2793efe13fd204	3	1	practice_z	9	advance_on_keypress_ZEE	28	stimuli_distractor_trianglediamonds.svg	stimuli_target_diamondrectangles.svg	12	yes	57	0	766	0	0			0	0			1				0	
6.6.1	win	2023-06-02	03:20:28	03:48:24	1667438	62cdd40d1b2793efe13fd204	3	1	practice_z	9	practice_z	29	stimuli_distractor_diamondtriangles.svg	stimuli_target_rectangletriangles.svg	7	yes	44	1	526	0	0			0	0			1				0	
6.6.1	win	2023-06-02	03:20:28	03:48:24	1667438	62cdd40d1b2793efe13fd204	3	1	practice_z	9	advance_on_keypress_ZEE	30	stimuli_distractor_diamondtriangles.svg	stimuli_target_rectangletriangles.svg	7	yes	57	0	626	0	0			0	0			1				0	
6.6.1	win	2023-06-02	03:20:28	03:48:27	1670475	62cdd40d1b2793efe13fd204	3	1	practice_z	9	practice_z	31	stimuli_distractor_trianglediamonds.svg	stimuli_distractor_trianglediamonds.svg	15	no	44	0	751	0	0			0	0			1				0	
6.6.1	win	2023-06-02	03:20:28	03:48:27	1670475	62cdd40d1b2793efe13fd204	3	1	practice_z	9	advance_on_keypress_ZEE	32	stimuli_distractor_trianglediamonds.svg	stimuli_distractor_trianglediamonds.svg	15	no	57	0	1096	0	0			0	0			1				0	
6.6.1	win	2023-06-02	03:20:28	03:54:51	2055060	62cdd40d1b2793efe13fd204	3	1	main_z	11	main_z	1	stimuli_distractor_trianglediamonds.svg	stimuli_target_squaretriangles.svg	11	yes	44	1	1518	0	0			0	0			1				0	
6.6.1	win	2023-06-02	03:20:28	03:54:51	2055060	62cdd40d1b2793efe13fd204	3	1	main_z	11	advance_on_keypress_ZEE	2	stimuli_distractor_trianglediamonds.svg	stimuli_target_squaretriangles.svg	11	yes	57	0	2701	0	0			0	0			1				0	
6.6.1	win	2023-06-02	03:20:28	03:54:56	2059637	62cdd40d1b2793efe13fd204	3	1	main_z	11	main_z	3	stimuli_distractor_trianglediamonds.svg	stimuli_distractor_trianglediamonds.svg	33	no	44	0	1238	0	0			0	0			1				0	
6.6.1	win	2023-06-02	03:20:28	03:54:56	2059637	62cdd40d1b2793efe13fd204	3	1	main_z	11	advance_on_keypress_ZEE	4	stimuli_distractor_trianglediamonds.svg	stimuli_distractor_trianglediamonds.svg	33	no	57	0	488	0	0			0	0			1				0	
6.6.1	win	2023-06-02	03:20:28	03:54:58	2061294	62cdd40d1b2793efe13fd204	3	1	main_z	11	main_z	5	stimuli_target_squaretriangles.svg	stimuli_distractor_diamondtriangles.svg	7	yes	44	1	531	0	0			0	0			1				0	
6.6.1	win	2023-06-02	03:20:28	03:54:58	2061294	62cdd40d1b2793efe13fd204	3	1	main_z	11	advance_on_keypress_ZEE	6	stimuli_target_squaretriangles.svg	stimuli_distractor_diamondtriangles.svg	7	yes	57	0	422	0	0			0	0			1				0	
6.6.1	win	2023-06-02	03:20:28	03:54:59	2062804	62cdd40d1b2793efe13fd204	3	1	main_z	11	main_z	7	stimuli_target_diamondsquares.svg	stimuli_distractor_trianglediamonds.svg	20	yes	44	1	443	0	0			0	0			1				0	
6.6.1	win	2023-06-02	03:20:28	03:54:59	2062804	62cdd40d1b2793efe13fd204	3	1	main_z	11	advance_on_keypress_ZEE	8	stimuli_target_diamondsquares.svg	stimuli_distractor_trianglediamonds.svg	20	yes	57	0	407	0	0			0	0			1				0	
6.6.1	win	2023-06-02	03:20:28	03:55:01	2064597	62cdd40d1b2793efe13fd204	3	1	main_z	11	main_z	9	stimuli_distractor_trianglediamonds.svg	stimuli_distractor_diamondtriangles.svg	36	no	44	0	739	0	0			0	0			1				0	
6.6.1	win	2023-06-02	03:20:28	03:55:01	2064597	62cdd40d1b2793efe13fd204	3	1	main_z	11	advance_on_keypress_ZEE	10	stimuli_distractor_trianglediamonds.svg	stimuli_distractor_diamondtriangles.svg	36	no	57	0	371	0	0			0	0			1				0	
6.6.1	win	2023-06-02	03:20:28	03:55:02	2066018	62cdd40d1b2793efe13fd204	3	1	main_z	11	main_z	11	stimuli_distractor_diamondtriangles.svg	stimuli_target_rectanglediamonds.svg	14	yes	44	1	413	0	0			0	0			1				0	
6.6.1	win	2023-06-02	03:20:28	03:55:02	2066018	62cdd40d1b2793efe13fd204	3	1	main_z	11	advance_on_keypress_ZEE	12	stimuli_distractor_diamondtriangles.svg	stimuli_target_rectanglediamonds.svg	14	yes	57	0	391	0	0			0	0			1				0	
6.6.1	win	2023-06-02	03:20:28	03:55:04	2067832	62cdd40d1b2793efe13fd204	3	1	main_z	11	main_z	13	stimuli_distractor_diamondtriangles.svg	stimuli_distractor_diamondtriangles.svg	40	no	44	0	775	0	0			0	0			1				0	
6.6.1	win	2023-06-02	03:20:28	03:55:04	2067832	62cdd40d1b2793efe13fd204	3	1	main_z	11	advance_on_keypress_ZEE	14	stimuli_distractor_diamondtriangles.svg	stimuli_distractor_diamondtriangles.svg	40	no	57	0	331	0	0			0	0			1				0	
6.6.1	win	2023-06-02	03:20:28	03:55:06	2069298	62cdd40d1b2793efe13fd204	3	1	main_z	11	main_z	15	stimuli_distractor_diamondtriangles.svg	stimuli_target_squaretriangles.svg	15	yes	44	1	481	0	0			0	0			1				0	
6.6.1	win	2023-06-02	03:20:28	03:55:06	2069298	62cdd40d1b2793efe13fd204	3	1	main_z	11	advance_on_keypress_ZEE	16	stimuli_distractor_diamondtriangles.svg	stimuli_target_squaretriangles.svg	15	yes	57	0	401	0	0			0	0			1				0	
6.6.1	win	2023-06-02	03:20:28	03:55:09	2072348	62cdd40d1b2793efe13fd204	3	1	main_z	11	main_z	17	stimuli_distractor_diamondtriangles.svg	stimuli_distractor_trianglediamonds.svg	38	no	0	1	2000	0	0			0	0			1				0	
6.6.1	win	2023-06-02	03:20:28	03:55:09	2072348	62cdd40d1b2793efe13fd204	3	1	main_z	11	advance_on_keypress_ZEE	18	stimuli_distractor_diamondtriangles.svg	stimuli_distractor_trianglediamonds.svg	38	no	57	0	397	0	0			0	0			1				0	
6.6.1	win	2023-06-02	03:20:28	03:55:10	2073839	62cdd40d1b2793efe13fd204	3	1	main_z	11	main_z	19	stimuli_distractor_diamondtriangles.svg	stimuli_distractor_trianglediamonds.svg	37	no	44	0	446	0	0			0	0			1				0	
6.6.1	win	2023-06-02	03:20:28	03:55:10	2073839	62cdd40d1b2793efe13fd204	3	1	main_z	11	advance_on_keypress_ZEE	20	stimuli_distractor_diamondtriangles.svg	stimuli_distractor_trianglediamonds.svg	37	no	57	0	345	0	0			0	0			1				0	
6.6.1	win	2023-06-02	03:20:28	03:55:12	2075329	62cdd40d1b2793efe13fd204	3	1	main_z	11	main_z	21	stimuli_target_rectangletriangles.svg	stimuli_distractor_diamondtriangles.svg	5	yes	44	1	489	0	0			0	0			1				0	
6.6.1	win	2023-06-02	03:20:28	03:55:12	2075329	62cdd40d1b2793efe13fd204	3	1	main_z	11	advance_on_keypress_ZEE	22	stimuli_target_rectangletriangles.svg	stimuli_distractor_diamondtriangles.svg	5	yes	57	0	319	0	0			0	0			1				0	
6.6.1	win	2023-06-02	03:20:28	03:55:13	2076939	62cdd40d1b2793efe13fd204	3	1	main_z	11	main_z	23	stimuli_distractor_diamondtriangles.svg	stimuli_target_diamondsquares.svg	32	yes	44	1	650	0	0			0	0			1				0	
6.6.1	win	2023-06-02	03:20:28	03:55:13	2076939	62cdd40d1b2793efe13fd204	3	1	main_z	11	advance_on_keypress_ZEE	24	stimuli_distractor_diamondtriangles.svg	stimuli_target_diamondsquares.svg	32	yes	57	0	297	0	0			0	0			1				0	
6.6.1	win	2023-06-02	03:20:28	03:55:15	2078272	62cdd40d1b2793efe13fd204	3	1	main_z	11	main_z	25	stimuli_distractor_diamondtriangles.svg	stimuli_target_rectangletriangles.svg	13	yes	44	1	386	0	0			0	0			1				0	
6.6.1	win	2023-06-02	03:20:28	03:55:15	2078272	62cdd40d1b2793efe13fd204	3	1	main_z	11	advance_on_keypress_ZEE	26	stimuli_distractor_diamondtriangles.svg	stimuli_target_rectangletriangles.svg	13	yes	57	0	317	0	0			0	0			1				0	
6.6.1	win	2023-06-02	03:20:28	03:55:16	2079615	62cdd40d1b2793efe13fd204	3	1	main_z	11	main_z	27	stimuli_target_rectanglediamonds.svg	stimuli_distractor_diamondtriangles.svg	6	yes	44	1	374	0	0			0	0			1				0	
6.6.1	win	2023-06-02	03:20:28	03:55:16	2079615	62cdd40d1b2793efe13fd204	3	1	main_z	11	advance_on_keypress_ZEE	28	stimuli_target_rectanglediamonds.svg	stimuli_distractor_diamondtriangles.svg	6	yes	57	0	280	0	0			0	0			1				0	
6.6.1	win	2023-06-02	03:20:28	03:55:17	2081066	62cdd40d1b2793efe13fd204	3	1	main_z	11	main_z	29	stimuli_target_diamondsquares.svg	stimuli_distractor_diamondtriangles.svg	24	yes	44	1	518	0	0			0	0			1				0	
6.6.1	win	2023-06-02	03:20:28	03:55:17	2081066	62cdd40d1b2793efe13fd204	3	1	main_z	11	advance_on_keypress_ZEE	30	stimuli_target_diamondsquares.svg	stimuli_distractor_diamondtriangles.svg	24	yes	57	0	325	0	0			0	0			1				0	
6.6.1	win	2023-06-02	03:20:28	03:55:20	2084030	62cdd40d1b2793efe13fd204	3	1	main_z	11	main_z	31	stimuli_distractor_trianglediamonds.svg	stimuli_distractor_diamondtriangles.svg	35	no	0	1	2000	0	0			0	0			1				0	
6.6.1	win	2023-06-02	03:20:28	03:55:20	2084030	62cdd40d1b2793efe13fd204	3	1	main_z	11	advance_on_keypress_ZEE	32	stimuli_distractor_trianglediamonds.svg	stimuli_distractor_diamondtriangles.svg	35	no	57	0	292	0	0			0	0			1				0	
6.6.1	win	2023-06-02	03:20:28	03:55:22	2085575	62cdd40d1b2793efe13fd204	3	1	main_z	11	main_z	33	stimuli_distractor_diamondtriangles.svg	stimuli_target_trianglesquares.svg	30	yes	44	1	616	0	0			0	0			1				0	
6.6.1	win	2023-06-02	03:20:28	03:55:22	2085575	62cdd40d1b2793efe13fd204	3	1	main_z	11	advance_on_keypress_ZEE	34	stimuli_distractor_diamondtriangles.svg	stimuli_target_trianglesquares.svg	30	yes	57	0	340	0	0			0	0			1				0	
6.6.1	win	2023-06-02	03:20:28	03:55:24	2087091	62cdd40d1b2793efe13fd204	3	1	main_z	11	main_z	35	stimuli_target_rectangletriangles.svg	stimuli_distractor_trianglediamonds.svg	1	yes	44	1	536	0	0			0	0			1				0	
6.6.1	win	2023-06-02	03:20:28	03:55:24	2087091	62cdd40d1b2793efe13fd204	3	1	main_z	11	advance_on_keypress_ZEE	36	stimuli_target_rectangletriangles.svg	stimuli_distractor_trianglediamonds.svg	1	yes	57	0	290	0	0			0	0			1				0	
6.6.1	win	2023-06-02	03:20:28	03:55:25	2088912	62cdd40d1b2793efe13fd204	3	1	main_z	11	main_z	37	stimuli_target_trianglerectangles.svg	stimuli_distractor_diamondtriangles.svg	21	yes	44	1	892	0	0			0	0			1				0	
6.6.1	win	2023-06-02	03:20:28	03:55:25	2088912	62cdd40d1b2793efe13fd204	3	1	main_z	11	advance_on_keypress_ZEE	38	stimuli_target_trianglerectangles.svg	stimuli_distractor_diamondtriangles.svg	21	yes	57	0	313	0	0			0	0			1				0	
6.6.1	win	2023-06-02	03:20:28	03:55:27	2090478	62cdd40d1b2793efe13fd204	3	1	main_z	11	main_z	39	stimuli_distractor_trianglediamonds.svg	stimuli_target_diamondsquares.svg	28	yes	44	1	610	0	0			0	0			1				0	
6.6.1	win	2023-06-02	03:20:28	03:55:27	2090478	62cdd40d1b2793efe13fd204	3	1	main_z	11	advance_on_keypress_ZEE	40	stimuli_distractor_trianglediamonds.svg	stimuli_target_diamondsquares.svg	28	yes	57	0	431	0	0			0	0			1				0	
6.6.1	win	2023-06-02	03:20:28	03:55:30	2093565	62cdd40d1b2793efe13fd204	3	1	main_z	11	main_z	41	stimuli_distractor_trianglediamonds.svg	stimuli_target_diamondrectangles.svg	27	yes	0	0	2000	0	0			0	0			1				0	
6.6.1	win	2023-06-02	03:20:28	03:55:30	2093565	62cdd40d1b2793efe13fd204	3	1	main_z	11	advance_on_keypress_ZEE	42	stimuli_distractor_trianglediamonds.svg	stimuli_target_diamondrectangles.svg	27	yes	57	0	255	0	0			0	0			1				0	
6.6.1	win	2023-06-02	03:20:28	03:55:31	2095063	62cdd40d1b2793efe13fd204	3	1	main_z	11	main_z	43	stimuli_distractor_diamondtriangles.svg	stimuli_target_diamondrectangles.svg	31	yes	44	1	602	0	0			0	0			1				0	
6.6.1	win	2023-06-02	03:20:28	03:55:31	2095063	62cdd40d1b2793efe13fd204	3	1	main_z	11	advance_on_keypress_ZEE	44	stimuli_distractor_diamondtriangles.svg	stimuli_target_diamondrectangles.svg	31	yes	57	0	310	0	0			0	0			1				0	
6.6.1	win	2023-06-02	03:20:28	03:55:33	2096894	62cdd40d1b2793efe13fd204	3	1	main_z	11	main_z	45	stimuli_target_diamondrectangles.svg	stimuli_distractor_trianglediamonds.svg	19	yes	44	1	886	0	0			0	0			1				0	
6.6.1	win	2023-06-02	03:20:28	03:55:33	2096894	62cdd40d1b2793efe13fd204	3	1	main_z	11	advance_on_keypress_ZEE	46	stimuli_target_diamondrectangles.svg	stimuli_distractor_trianglediamonds.svg	19	yes	57	0	301	0	0			0	0			1				0	
6.6.1	win	2023-06-02	03:20:28	03:55:35	2098278	62cdd40d1b2793efe13fd204	3	1	main_z	11	main_z	47	stimuli_distractor_diamondtriangles.svg	stimuli_target_squarediamonds.svg	16	yes	44	1	439	0	0			0	0			1				0	
6.6.1	win	2023-06-02	03:20:28	03:55:35	2098278	62cdd40d1b2793efe13fd204	3	1	main_z	11	advance_on_keypress_ZEE	48	stimuli_distractor_diamondtriangles.svg	stimuli_target_squarediamonds.svg	16	yes	57	0	319	0	0			0	0			1				0	
6.6.1	win	2023-06-02	03:20:28	03:55:36	2099586	62cdd40d1b2793efe13fd204	3	1	main_z	11	main_z	49	stimuli_distractor_trianglediamonds.svg	stimuli_target_rectanglediamonds.svg	10	yes	44	1	350	0	0			0	0			1				0	
6.6.1	win	2023-06-02	03:20:28	03:55:36	2099586	62cdd40d1b2793efe13fd204	3	1	main_z	11	advance_on_keypress_ZEE	50	stimuli_distractor_trianglediamonds.svg	stimuli_target_rectanglediamonds.svg	10	yes	57	0	251	0	0			0	0			1				0	
6.6.1	win	2023-06-02	03:20:28	03:55:37	2100872	62cdd40d1b2793efe13fd204	3	1	main_z	11	main_z	51	stimuli_distractor_trianglediamonds.svg	stimuli_target_rectangletriangles.svg	9	yes	44	1	388	0	0			0	0			1				0	
6.6.1	win	2023-06-02	03:20:28	03:55:37	2100872	62cdd40d1b2793efe13fd204	3	1	main_z	11	advance_on_keypress_ZEE	52	stimuli_distractor_trianglediamonds.svg	stimuli_target_rectangletriangles.svg	9	yes	57	0	267	0	0			0	0			1				0	
6.6.1	win	2023-06-02	03:20:28	03:55:39	2102226	62cdd40d1b2793efe13fd204	3	1	main_z	11	main_z	53	stimuli_target_trianglesquares.svg	stimuli_distractor_diamondtriangles.svg	22	yes	44	1	444	0	0			0	0			1				0	
6.6.1	win	2023-06-02	03:20:28	03:55:39	2102226	62cdd40d1b2793efe13fd204	3	1	main_z	11	advance_on_keypress_ZEE	54	stimuli_target_trianglesquares.svg	stimuli_distractor_diamondtriangles.svg	22	yes	57	0	336	0	0			0	0			1				0	
6.6.1	win	2023-06-02	03:20:28	03:55:41	2104075	62cdd40d1b2793efe13fd204	3	1	main_z	11	main_z	55	stimuli_target_trianglerectangles.svg	stimuli_distractor_trianglediamonds.svg	17	yes	44	1	861	0	0			0	0			1				0	
6.6.1	win	2023-06-02	03:20:28	03:55:41	2104075	62cdd40d1b2793efe13fd204	3	1	main_z	11	advance_on_keypress_ZEE	56	stimuli_target_trianglerectangles.svg	stimuli_distractor_trianglediamonds.svg	17	yes	57	0	338	0	0			0	0			1				0	
6.6.1	win	2023-06-02	03:20:28	03:55:43	2106134	62cdd40d1b2793efe13fd204	3	1	main_z	11	main_z	57	stimuli_distractor_trianglediamonds.svg	stimuli_distractor_trianglediamonds.svg	34	no	44	0	1073	0	0			0	0			1				0	
6.6.1	win	2023-06-02	03:20:28	03:55:43	2106134	62cdd40d1b2793efe13fd204	3	1	main_z	11	advance_on_keypress_ZEE	58	stimuli_distractor_trianglediamonds.svg	stimuli_distractor_trianglediamonds.svg	34	no	57	0	314	0	0			0	0			1				0	
6.6.1	win	2023-06-02	03:20:28	03:55:45	2108153	62cdd40d1b2793efe13fd204	3	1	main_z	11	main_z	59	stimuli_target_trianglesquares.svg	stimuli_distractor_trianglediamonds.svg	18	yes	44	1	1063	0	0			0	0			1				0	
6.6.1	win	2023-06-02	03:20:28	03:55:45	2108153	62cdd40d1b2793efe13fd204	3	1	main_z	11	advance_on_keypress_ZEE	60	stimuli_target_trianglesquares.svg	stimuli_distractor_trianglediamonds.svg	18	yes	57	0	349	0	0			0	0			1				0	
6.6.1	win	2023-06-02	03:20:28	03:55:47	2110092	62cdd40d1b2793efe13fd204	3	1	main_z	11	main_z	61	stimuli_distractor_diamondtriangles.svg	stimuli_target_trianglerectangles.svg	29	yes	44	1	938	0	0			0	0			1				0	
6.6.1	win	2023-06-02	03:20:28	03:55:47	2110092	62cdd40d1b2793efe13fd204	3	1	main_z	11	advance_on_keypress_ZEE	62	stimuli_distractor_diamondtriangles.svg	stimuli_target_trianglerectangles.svg	29	yes	57	0	2194	0	0			0	0			1				0	
6.6.1	win	2023-06-02	03:20:28	03:55:50	2113350	62cdd40d1b2793efe13fd204	3	1	main_z	11	main_z	63	stimuli_distractor_trianglediamonds.svg	stimuli_target_squarediamonds.svg	12	yes	44	1	419	0	0			0	0			1				0	
6.6.1	win	2023-06-02	03:20:28	03:55:50	2113350	62cdd40d1b2793efe13fd204	3	1	main_z	11	advance_on_keypress_ZEE	64	stimuli_distractor_trianglediamonds.svg	stimuli_target_squarediamonds.svg	12	yes	57	0	444	0	0			0	0			1				0	
6.6.1	win	2023-06-02	03:20:28	03:55:51	2114796	62cdd40d1b2793efe13fd204	3	1	main_z	11	main_z	65	stimuli_target_squaretriangles.svg	stimuli_distractor_trianglediamonds.svg	3	yes	44	1	351	0	0			0	0			1				0	
6.6.1	win	2023-06-02	03:20:28	03:55:51	2114796	62cdd40d1b2793efe13fd204	3	1	main_z	11	advance_on_keypress_ZEE	66	stimuli_target_squaretriangles.svg	stimuli_distractor_trianglediamonds.svg	3	yes	57	0	334	0	0			0	0			1				0	
6.6.1	win	2023-06-02	03:20:28	03:55:53	2116181	62cdd40d1b2793efe13fd204	3	1	main_z	11	main_z	67	stimuli_distractor_diamondtriangles.svg	stimuli_distractor_diamondtriangles.svg	39	no	44	0	403	0	0			0	0			1				0	
6.6.1	win	2023-06-02	03:20:28	03:55:53	2116181	62cdd40d1b2793efe13fd204	3	1	main_z	11	advance_on_keypress_ZEE	68	stimuli_distractor_diamondtriangles.svg	stimuli_distractor_diamondtriangles.svg	39	no	57	0	415	0	0			0	0			1				0	
6.6.1	win	2023-06-02	03:20:28	03:55:56	2119242	62cdd40d1b2793efe13fd204	3	1	main_z	11	main_z	69	stimuli_distractor_trianglediamonds.svg	stimuli_target_trianglesquares.svg	26	yes	0	0	2000	0	0			0	0			1				0	
6.6.1	win	2023-06-02	03:20:28	03:55:56	2119242	62cdd40d1b2793efe13fd204	3	1	main_z	11	advance_on_keypress_ZEE	70	stimuli_distractor_trianglediamonds.svg	stimuli_target_trianglesquares.svg	26	yes	57	0	3797	0	0			0	0			1				0	
6.6.1	win	2023-06-02	03:20:28	03:56:02	2125682	62cdd40d1b2793efe13fd204	3	1	main_z	11	main_z	71	stimuli_distractor_trianglediamonds.svg	stimuli_target_trianglerectangles.svg	25	yes	0	0	2000	0	0			0	0			1				0	
6.6.1	win	2023-06-02	03:20:28	03:56:02	2125682	62cdd40d1b2793efe13fd204	3	1	main_z	11	advance_on_keypress_ZEE	72	stimuli_distractor_trianglediamonds.svg	stimuli_target_trianglerectangles.svg	25	yes	57	0	9972	0	0			0	0			1				0	
6.6.1	win	2023-06-02	03:20:28	03:56:14	2137998	62cdd40d1b2793efe13fd204	3	1	main_z	11	main_z	73	stimuli_target_rectanglediamonds.svg	stimuli_distractor_trianglediamonds.svg	2	yes	44	1	1701	0	0			0	0			1				0	
6.6.1	win	2023-06-02	03:20:28	03:56:14	2137998	62cdd40d1b2793efe13fd204	3	1	main_z	11	advance_on_keypress_ZEE	74	stimuli_target_rectanglediamonds.svg	stimuli_distractor_trianglediamonds.svg	2	yes	57	0	933	0	0			0	0			1				0	
6.6.1	win	2023-06-02	03:20:28	03:56:17	2140348	62cdd40d1b2793efe13fd204	3	1	main_z	11	main_z	75	stimuli_target_diamondrectangles.svg	stimuli_distractor_diamondtriangles.svg	23	yes	44	1	774	0	0			0	0			1				0	
6.6.1	win	2023-06-02	03:20:28	03:56:17	2140348	62cdd40d1b2793efe13fd204	3	1	main_z	11	advance_on_keypress_ZEE	76	stimuli_target_diamondrectangles.svg	stimuli_distractor_diamondtriangles.svg	23	yes	57	0	861	0	0			0	0			1				0	
6.6.1	win	2023-06-02	03:20:28	03:56:19	2142260	62cdd40d1b2793efe13fd204	3	1	main_z	11	main_z	77	stimuli_target_squarediamonds.svg	stimuli_distractor_diamondtriangles.svg	8	yes	44	1	407	0	0			0	0			1				0	
6.6.1	win	2023-06-02	03:20:28	03:56:19	2142260	62cdd40d1b2793efe13fd204	3	1	main_z	11	advance_on_keypress_ZEE	78	stimuli_target_squarediamonds.svg	stimuli_distractor_diamondtriangles.svg	8	yes	57	0	423	0	0			0	0			1				0	
6.6.1	win	2023-06-02	03:20:28	03:56:20	2143670	62cdd40d1b2793efe13fd204	3	1	main_z	11	main_z	79	stimuli_target_squarediamonds.svg	stimuli_distractor_trianglediamonds.svg	4	yes	44	1	353	0	0			0	0			1				0	
6.6.1	win	2023-06-02	03:20:28	03:56:20	2143670	62cdd40d1b2793efe13fd204	3	1	main_z	11	advance_on_keypress_ZEE	80	stimuli_target_squarediamonds.svg	stimuli_distractor_trianglediamonds.svg	4	yes	57	0	342	0	0			0	0			1				0	
6.6.1	win	2023-06-02	03:20:28	03:56:21	2145046	62cdd40d1b2793efe13fd204	3	1	main_z	11	main_z	81	stimuli_target_squaretriangles.svg	stimuli_distractor_trianglediamonds.svg	3	yes	44	1	397	0	0			0	0			1				0	
6.6.1	win	2023-06-02	03:20:28	03:56:21	2145046	62cdd40d1b2793efe13fd204	3	1	main_z	11	advance_on_keypress_ZEE	82	stimuli_target_squaretriangles.svg	stimuli_distractor_trianglediamonds.svg	3	yes	57	0	350	0	0			0	0			1				0	
6.6.1	win	2023-06-02	03:20:28	03:56:23	2146783	62cdd40d1b2793efe13fd204	3	1	main_z	11	main_z	83	stimuli_target_diamondsquares.svg	stimuli_distractor_trianglediamonds.svg	20	yes	44	1	736	0	0			0	0			1				0	
6.6.1	win	2023-06-02	03:20:28	03:56:23	2146783	62cdd40d1b2793efe13fd204	3	1	main_z	11	advance_on_keypress_ZEE	84	stimuli_target_diamondsquares.svg	stimuli_distractor_trianglediamonds.svg	20	yes	57	0	368	0	0			0	0			1				0	
6.6.1	win	2023-06-02	03:20:28	03:56:25	2148186	62cdd40d1b2793efe13fd204	3	1	main_z	11	main_z	85	stimuli_distractor_diamondtriangles.svg	stimuli_target_squaretriangles.svg	15	yes	44	1	393	0	0			0	0			1				0	
6.6.1	win	2023-06-02	03:20:28	03:56:25	2148186	62cdd40d1b2793efe13fd204	3	1	main_z	11	advance_on_keypress_ZEE	86	stimuli_distractor_diamondtriangles.svg	stimuli_target_squaretriangles.svg	15	yes	57	0	22289	0	0			0	0			1				0	
6.6.1	win	2023-06-02	03:20:28	03:56:50	2173130	62cdd40d1b2793efe13fd204	3	1	main_z	11	main_z	87	stimuli_distractor_trianglediamonds.svg	stimuli_distractor_trianglediamonds.svg	33	no	0	1	2000	0	0			0	0			1				0	
6.6.1	win	2023-06-02	03:20:28	03:56:50	2173130	62cdd40d1b2793efe13fd204	3	1	main_z	11	advance_on_keypress_ZEE	88	stimuli_distractor_trianglediamonds.svg	stimuli_distractor_trianglediamonds.svg	33	no	57	0	317	0	0			0	0			1				0	
6.6.1	win	2023-06-02	03:20:28	03:56:51	2174601	62cdd40d1b2793efe13fd204	3	1	main_z	11	main_z	89	stimuli_distractor_diamondtriangles.svg	stimuli_distractor_trianglediamonds.svg	38	no	44	0	505	0	0			0	0			1				0	
6.6.1	win	2023-06-02	03:20:28	03:56:51	2174601	62cdd40d1b2793efe13fd204	3	1	main_z	11	advance_on_keypress_ZEE	90	stimuli_distractor_diamondtriangles.svg	stimuli_distractor_trianglediamonds.svg	38	no	57	0	462	0	0			0	0			1				0	
6.6.1	win	2023-06-02	03:20:28	03:56:54	2177718	62cdd40d1b2793efe13fd204	3	1	main_z	11	main_z	91	stimuli_distractor_trianglediamonds.svg	stimuli_distractor_trianglediamonds.svg	34	no	0	1	2000	0	0			0	0			1				0	
6.6.1	win	2023-06-02	03:20:28	03:56:54	2177718	62cdd40d1b2793efe13fd204	3	1	main_z	11	advance_on_keypress_ZEE	92	stimuli_distractor_trianglediamonds.svg	stimuli_distractor_trianglediamonds.svg	34	no	57	0	302	0	0			0	0			1				0	
6.6.1	win	2023-06-02	03:20:28	03:56:56	2179204	62cdd40d1b2793efe13fd204	3	1	main_z	11	main_z	93	stimuli_target_diamondrectangles.svg	stimuli_distractor_trianglediamonds.svg	19	yes	44	1	541	0	0			0	0			1				0	
6.6.1	win	2023-06-02	03:20:28	03:56:56	2179204	62cdd40d1b2793efe13fd204	3	1	main_z	11	advance_on_keypress_ZEE	94	stimuli_target_diamondrectangles.svg	stimuli_distractor_trianglediamonds.svg	19	yes	57	0	430	0	0			0	0			1				0	
6.6.1	win	2023-06-02	03:20:28	03:56:58	2182045	62cdd40d1b2793efe13fd204	3	1	main_z	11	main_z	95	stimuli_target_diamondsquares.svg	stimuli_distractor_diamondtriangles.svg	24	yes	44	1	1768	0	0			0	0			1				0	
6.6.1	win	2023-06-02	03:20:28	03:56:58	2182045	62cdd40d1b2793efe13fd204	3	1	main_z	11	advance_on_keypress_ZEE	96	stimuli_target_diamondsquares.svg	stimuli_distractor_diamondtriangles.svg	24	yes	57	0	985	0	0			0	0			1				0	
6.6.1	win	2023-06-02	03:20:28	03:57:02	2185672	62cdd40d1b2793efe13fd204	3	1	main_z	11	main_z	97	stimuli_target_trianglesquares.svg	stimuli_distractor_diamondtriangles.svg	22	yes	0	0	2000	0	0			0	0			1				0	
6.6.1	win	2023-06-02	03:20:28	03:57:02	2185672	62cdd40d1b2793efe13fd204	3	1	main_z	11	advance_on_keypress_ZEE	98	stimuli_target_trianglesquares.svg	stimuli_distractor_diamondtriangles.svg	22	yes	57	0	938	0	0			0	0			1				0	
6.6.1	win	2023-06-02	03:20:28	03:57:04	2187679	62cdd40d1b2793efe13fd204	3	1	main_z	11	main_z	99	stimuli_distractor_trianglediamonds.svg	stimuli_target_squarediamonds.svg	12	yes	44	1	429	0	0			0	0			1				0	
6.6.1	win	2023-06-02	03:20:28	03:57:04	2187679	62cdd40d1b2793efe13fd204	3	1	main_z	11	advance_on_keypress_ZEE	100	stimuli_distractor_trianglediamonds.svg	stimuli_target_squarediamonds.svg	12	yes	57	0	462	0	0			0	0			1				0	
6.6.1	win	2023-06-02	03:20:28	03:57:06	2189162	62cdd40d1b2793efe13fd204	3	1	main_z	11	main_z	101	stimuli_distractor_diamondtriangles.svg	stimuli_target_squarediamonds.svg	16	yes	44	1	365	0	0			0	0			1				0	
6.6.1	win	2023-06-02	03:20:28	03:57:06	2189162	62cdd40d1b2793efe13fd204	3	1	main_z	11	advance_on_keypress_ZEE	102	stimuli_distractor_diamondtriangles.svg	stimuli_target_squarediamonds.svg	16	yes	57	0	362	0	0			0	0			1				0	
6.6.1	win	2023-06-02	03:20:28	03:57:07	2190564	62cdd40d1b2793efe13fd204	3	1	main_z	11	main_z	103	stimuli_distractor_trianglediamonds.svg	stimuli_target_squaretriangles.svg	11	yes	44	1	386	0	0			0	0			1				0	
6.6.1	win	2023-06-02	03:20:28	03:57:07	2190564	62cdd40d1b2793efe13fd204	3	1	main_z	11	advance_on_keypress_ZEE	104	stimuli_distractor_trianglediamonds.svg	stimuli_target_squaretriangles.svg	11	yes	57	0	294	0	0			0	0			1				0	
6.6.1	win	2023-06-02	03:20:28	03:57:08	2191922	62cdd40d1b2793efe13fd204	3	1	main_z	11	main_z	105	stimuli_distractor_diamondtriangles.svg	stimuli_target_rectanglediamonds.svg	14	yes	44	1	404	0	0			0	0			1				0	
6.6.1	win	2023-06-02	03:20:28	03:57:08	2191922	62cdd40d1b2793efe13fd204	3	1	main_z	11	advance_on_keypress_ZEE	106	stimuli_distractor_diamondtriangles.svg	stimuli_target_rectanglediamonds.svg	14	yes	57	0	258	0	0			0	0			1				0	
6.6.1	win	2023-06-02	03:20:28	03:57:10	2193546	62cdd40d1b2793efe13fd204	3	1	main_z	11	main_z	107	stimuli_target_diamondrectangles.svg	stimuli_distractor_diamondtriangles.svg	23	yes	44	1	722	0	0			0	0			1				0	
6.6.1	win	2023-06-02	03:20:28	03:57:10	2193546	62cdd40d1b2793efe13fd204	3	1	main_z	11	advance_on_keypress_ZEE	108	stimuli_target_diamondrectangles.svg	stimuli_distractor_diamondtriangles.svg	23	yes	57	0	313	0	0			0	0			1				0	
6.6.1	win	2023-06-02	03:20:28	03:57:12	2195364	62cdd40d1b2793efe13fd204	3	1	main_z	11	main_z	109	stimuli_distractor_diamondtriangles.svg	stimuli_distractor_trianglediamonds.svg	37	no	44	0	859	0	0			0	0			1				0	
6.6.1	win	2023-06-02	03:20:28	03:57:12	2195364	62cdd40d1b2793efe13fd204	3	1	main_z	11	advance_on_keypress_ZEE	110	stimuli_distractor_diamondtriangles.svg	stimuli_distractor_trianglediamonds.svg	37	no	57	0	364	0	0			0	0			1				0	
6.6.1	win	2023-06-02	03:20:28	03:57:13	2197016	62cdd40d1b2793efe13fd204	3	1	main_z	11	main_z	111	stimuli_distractor_trianglediamonds.svg	stimuli_target_rectanglediamonds.svg	10	yes	44	1	647	0	0			0	0			1				0	
6.6.1	win	2023-06-02	03:20:28	03:57:13	2197016	62cdd40d1b2793efe13fd204	3	1	main_z	11	advance_on_keypress_ZEE	112	stimuli_distractor_trianglediamonds.svg	stimuli_target_rectanglediamonds.svg	10	yes	57	0	323	0	0			0	0			1				0	
6.6.1	win	2023-06-02	03:20:28	03:57:16	2199983	62cdd40d1b2793efe13fd204	3	1	main_z	11	main_z	113	stimuli_distractor_diamondtriangles.svg	stimuli_distractor_diamondtriangles.svg	39	no	0	1	2000	0	0			0	0			1				0	
6.6.1	win	2023-06-02	03:20:28	03:57:16	2199983	62cdd40d1b2793efe13fd204	3	1	main_z	11	advance_on_keypress_ZEE	114	stimuli_distractor_diamondtriangles.svg	stimuli_distractor_diamondtriangles.svg	39	no	57	0	23	0	0			0	0			1				0	
6.6.1	win	2023-06-02	03:20:28	03:57:19	2202646	62cdd40d1b2793efe13fd204	3	1	main_z	11	main_z	115	stimuli_distractor_diamondtriangles.svg	stimuli_target_trianglesquares.svg	30	yes	0	0	2000	0	0			0	0			1				0	
6.6.1	win	2023-06-02	03:20:28	03:57:19	2202646	62cdd40d1b2793efe13fd204	3	1	main_z	11	advance_on_keypress_ZEE	116	stimuli_distractor_diamondtriangles.svg	stimuli_target_trianglesquares.svg	30	yes	57	0	1454	0	0			0	0			1				0	
6.6.1	win	2023-06-02	03:20:28	03:57:23	2206202	62cdd40d1b2793efe13fd204	3	1	main_z	11	main_z	117	stimuli_distractor_trianglediamonds.svg	stimuli_distractor_diamondtriangles.svg	35	no	44	0	1462	0	0			0	0			1				0	
6.6.1	win	2023-06-02	03:20:28	03:57:23	2206202	62cdd40d1b2793efe13fd204	3	1	main_z	11	advance_on_keypress_ZEE	118	stimuli_distractor_trianglediamonds.svg	stimuli_distractor_diamondtriangles.svg	35	no	57	0	2820	0	0			0	0			1				0	
6.6.1	win	2023-06-02	03:20:28	03:57:27	2210594	62cdd40d1b2793efe13fd204	3	1	main_z	11	main_z	119	stimuli_distractor_trianglediamonds.svg	stimuli_target_diamondsquares.svg	28	yes	44	1	929	0	0			0	0			1				0	
6.6.1	win	2023-06-02	03:20:28	03:57:27	2210594	62cdd40d1b2793efe13fd204	3	1	main_z	11	advance_on_keypress_ZEE	120	stimuli_distractor_trianglediamonds.svg	stimuli_target_diamondsquares.svg	28	yes	57	0	718	0	0			0	0			1				0	
6.6.1	win	2023-06-02	03:20:28	03:57:29	2212780	62cdd40d1b2793efe13fd204	3	1	main_z	11	main_z	121	stimuli_distractor_diamondtriangles.svg	stimuli_target_diamondsquares.svg	32	yes	44	1	818	0	0			0	0			1				0	
6.6.1	win	2023-06-02	03:20:28	03:57:29	2212780	62cdd40d1b2793efe13fd204	3	1	main_z	11	advance_on_keypress_ZEE	122	stimuli_distractor_diamondtriangles.svg	stimuli_target_diamondsquares.svg	32	yes	57	0	370	0	0			0	0			1				0	
6.6.1	win	2023-06-02	03:20:28	03:57:32	2215792	62cdd40d1b2793efe13fd204	3	1	main_z	11	main_z	123	stimuli_distractor_trianglediamonds.svg	stimuli_target_trianglesquares.svg	26	yes	0	0	2000	0	0			0	0			1				0	
6.6.1	win	2023-06-02	03:20:28	03:57:32	2215792	62cdd40d1b2793efe13fd204	3	1	main_z	11	advance_on_keypress_ZEE	124	stimuli_distractor_trianglediamonds.svg	stimuli_target_trianglesquares.svg	26	yes	57	0	250	0	0			0	0			1				0	
6.6.1	win	2023-06-02	03:20:28	03:57:34	2217866	62cdd40d1b2793efe13fd204	3	1	main_z	11	main_z	125	stimuli_distractor_diamondtriangles.svg	stimuli_target_trianglerectangles.svg	29	yes	44	1	1179	0	0			0	0			1				0	
6.6.1	win	2023-06-02	03:20:28	03:57:34	2217866	62cdd40d1b2793efe13fd204	3	1	main_z	11	advance_on_keypress_ZEE	126	stimuli_distractor_diamondtriangles.svg	stimuli_target_trianglerectangles.svg	29	yes	57	0	467	0	0			0	0			1				0	
6.6.1	win	2023-06-02	03:20:28	03:57:36	2219395	62cdd40d1b2793efe13fd204	3	1	main_z	11	main_z	127	stimuli_target_rectangletriangles.svg	stimuli_distractor_diamondtriangles.svg	5	yes	44	1	412	0	0			0	0			1				0	
6.6.1	win	2023-06-02	03:20:28	03:57:36	2219395	62cdd40d1b2793efe13fd204	3	1	main_z	11	advance_on_keypress_ZEE	128	stimuli_target_rectangletriangles.svg	stimuli_distractor_diamondtriangles.svg	5	yes	57	0	400	0	0			0	0			1				0	
6.6.1	win	2023-06-02	03:20:28	03:57:37	2220836	62cdd40d1b2793efe13fd204	3	1	main_z	11	main_z	129	stimuli_target_rectanglediamonds.svg	stimuli_distractor_trianglediamonds.svg	2	yes	44	1	388	0	0			0	0			1				0	
6.6.1	win	2023-06-02	03:20:28	03:57:37	2220836	62cdd40d1b2793efe13fd204	3	1	main_z	11	advance_on_keypress_ZEE	130	stimuli_target_rectanglediamonds.svg	stimuli_distractor_trianglediamonds.svg	2	yes	57	0	340	0	0			0	0			1				0	
6.6.1	win	2023-06-02	03:20:28	03:57:40	2223813	62cdd40d1b2793efe13fd204	3	1	main_z	11	main_z	131	stimuli_distractor_trianglediamonds.svg	stimuli_target_diamondrectangles.svg	27	yes	0	0	2000	0	0			0	0			1				0	
6.6.1	win	2023-06-02	03:20:28	03:57:40	2223813	62cdd40d1b2793efe13fd204	3	1	main_z	11	advance_on_keypress_ZEE	132	stimuli_distractor_trianglediamonds.svg	stimuli_target_diamondrectangles.svg	27	yes	57	0	2043	0	0			0	0			1				0	
6.6.1	win	2023-06-02	03:20:28	03:57:43	2226889	62cdd40d1b2793efe13fd204	3	1	main_z	11	main_z	133	stimuli_target_rectangletriangles.svg	stimuli_distractor_trianglediamonds.svg	1	yes	44	1	384	0	0			0	0			1				0	
6.6.1	win	2023-06-02	03:20:28	03:57:43	2226889	62cdd40d1b2793efe13fd204	3	1	main_z	11	advance_on_keypress_ZEE	134	stimuli_target_rectangletriangles.svg	stimuli_distractor_trianglediamonds.svg	1	yes	57	0	383	0	0			0	0			1				0	
6.6.1	win	2023-06-02	03:20:28	03:57:46	2229920	62cdd40d1b2793efe13fd204	3	1	main_z	11	main_z	135	stimuli_target_trianglerectangles.svg	stimuli_distractor_diamondtriangles.svg	21	yes	0	0	2000	0	0			0	0			1				0	
6.6.1	win	2023-06-02	03:20:28	03:57:46	2229920	62cdd40d1b2793efe13fd204	3	1	main_z	11	advance_on_keypress_ZEE	136	stimuli_target_trianglerectangles.svg	stimuli_distractor_diamondtriangles.svg	21	yes	57	0	2584	0	0			0	0			1				0	
6.6.1	win	2023-06-02	03:20:28	03:57:51	2234115	62cdd40d1b2793efe13fd204	3	1	main_z	11	main_z	137	stimuli_distractor_diamondtriangles.svg	stimuli_distractor_diamondtriangles.svg	40	no	44	0	970	0	0			0	0			1				0	
6.6.1	win	2023-06-02	03:20:28	03:57:51	2234115	62cdd40d1b2793efe13fd204	3	1	main_z	11	advance_on_keypress_ZEE	138	stimuli_distractor_diamondtriangles.svg	stimuli_distractor_diamondtriangles.svg	40	no	57	0	1587	0	0			0	0			1				0	
6.6.1	win	2023-06-02	03:20:28	03:57:54	2237216	62cdd40d1b2793efe13fd204	3	1	main_z	11	main_z	139	stimuli_distractor_trianglediamonds.svg	stimuli_distractor_diamondtriangles.svg	36	no	44	0	876	0	0			0	0			1				0	
6.6.1	win	2023-06-02	03:20:28	03:57:54	2237216	62cdd40d1b2793efe13fd204	3	1	main_z	11	advance_on_keypress_ZEE	140	stimuli_distractor_trianglediamonds.svg	stimuli_distractor_diamondtriangles.svg	36	no	57	0	2748	0	0			0	0			1				0	
6.6.1	win	2023-06-02	03:20:28	03:57:59	2242602	62cdd40d1b2793efe13fd204	3	1	main_z	11	main_z	141	stimuli_target_rectanglediamonds.svg	stimuli_distractor_diamondtriangles.svg	6	yes	0	0	2000	0	0			0	0			1				0	
6.6.1	win	2023-06-02	03:20:28	03:57:59	2242602	62cdd40d1b2793efe13fd204	3	1	main_z	11	advance_on_keypress_ZEE	142	stimuli_target_rectanglediamonds.svg	stimuli_distractor_diamondtriangles.svg	6	yes	57	0	876	0	0			0	0			1				0	
6.6.1	win	2023-06-02	03:20:28	03:58:03	2246128	62cdd40d1b2793efe13fd204	3	1	main_z	11	main_z	143	stimuli_target_trianglerectangles.svg	stimuli_distractor_trianglediamonds.svg	17	yes	0	0	2000	0	0			0	0			1				0	
6.6.1	win	2023-06-02	03:20:28	03:58:03	2246128	62cdd40d1b2793efe13fd204	3	1	main_z	11	advance_on_keypress_ZEE	144	stimuli_target_trianglerectangles.svg	stimuli_distractor_trianglediamonds.svg	17	yes	57	0	294	0	0			0	0			1				0	
6.6.1	win	2023-06-02	03:20:28	03:58:06	2249073	62cdd40d1b2793efe13fd204	3	1	main_z	11	main_z	145	stimuli_distractor_diamondtriangles.svg	stimuli_target_rectangletriangles.svg	13	yes	0	0	2000	0	0			0	0			1				0	
6.6.1	win	2023-06-02	03:20:28	03:58:06	2249073	62cdd40d1b2793efe13fd204	3	1	main_z	11	advance_on_keypress_ZEE	146	stimuli_distractor_diamondtriangles.svg	stimuli_target_rectangletriangles.svg	13	yes	57	0	2321	0	0			0	0			1				0	
6.6.1	win	2023-06-02	03:20:28	03:58:10	2253853	62cdd40d1b2793efe13fd204	3	1	main_z	11	main_z	147	stimuli_target_squaretriangles.svg	stimuli_distractor_diamondtriangles.svg	7	yes	44	1	1821	0	0			0	0			1				0	
6.6.1	win	2023-06-02	03:20:28	03:58:10	2253853	62cdd40d1b2793efe13fd204	3	1	main_z	11	advance_on_keypress_ZEE	148	stimuli_target_squaretriangles.svg	stimuli_distractor_diamondtriangles.svg	7	yes	57	0	562	0	0			0	0			1				0	
6.6.1	win	2023-06-02	03:20:28	03:58:12	2255442	62cdd40d1b2793efe13fd204	3	1	main_z	11	main_z	149	stimuli_target_squarediamonds.svg	stimuli_distractor_diamondtriangles.svg	8	yes	44	1	377	0	0			0	0			1				0	
6.6.1	win	2023-06-02	03:20:28	03:58:12	2255442	62cdd40d1b2793efe13fd204	3	1	main_z	11	advance_on_keypress_ZEE	150	stimuli_target_squarediamonds.svg	stimuli_distractor_diamondtriangles.svg	8	yes	57	0	434	0	0			0	0			1				0	
6.6.1	win	2023-06-02	03:20:28	03:58:13	2256919	62cdd40d1b2793efe13fd204	3	1	main_z	11	main_z	151	stimuli_distractor_trianglediamonds.svg	stimuli_target_rectangletriangles.svg	9	yes	44	1	394	0	0			0	0			1				0	
6.6.1	win	2023-06-02	03:20:28	03:58:13	2256919	62cdd40d1b2793efe13fd204	3	1	main_z	11	advance_on_keypress_ZEE	152	stimuli_distractor_trianglediamonds.svg	stimuli_target_rectangletriangles.svg	9	yes	57	0	272	0	0			0	0			1				0	
6.6.1	win	2023-06-02	03:20:28	03:58:16	2259840	62cdd40d1b2793efe13fd204	3	1	main_z	11	main_z	153	stimuli_distractor_trianglediamonds.svg	stimuli_target_trianglerectangles.svg	25	yes	0	0	2000	0	0			0	0			1				0	
6.6.1	win	2023-06-02	03:20:28	03:58:16	2259840	62cdd40d1b2793efe13fd204	3	1	main_z	11	advance_on_keypress_ZEE	154	stimuli_distractor_trianglediamonds.svg	stimuli_target_trianglerectangles.svg	25	yes	57	0	238	0	0			0	0			1				0	
6.6.1	win	2023-06-02	03:20:28	03:58:19	2262719	62cdd40d1b2793efe13fd204	3	1	main_z	11	main_z	155	stimuli_target_squarediamonds.svg	stimuli_distractor_trianglediamonds.svg	4	yes	0	0	2000	0	0			0	0			1				0	
6.6.1	win	2023-06-02	03:20:28	03:58:19	2262719	62cdd40d1b2793efe13fd204	3	1	main_z	11	advance_on_keypress_ZEE	156	stimuli_target_squarediamonds.svg	stimuli_distractor_trianglediamonds.svg	4	yes	57	0	383	0	0			0	0			1				0	
6.6.1	win	2023-06-02	03:20:28	03:58:22	2265356	62cdd40d1b2793efe13fd204	3	1	main_z	11	main_z	157	stimuli_distractor_diamondtriangles.svg	stimuli_target_diamondrectangles.svg	31	yes	44	1	1609	0	0			0	0			1				0	
6.6.1	win	2023-06-02	03:20:28	03:58:22	2265356	62cdd40d1b2793efe13fd204	3	1	main_z	11	advance_on_keypress_ZEE	158	stimuli_distractor_diamondtriangles.svg	stimuli_target_diamondrectangles.svg	31	yes	57	0	629	0	0			0	0			1				0	
6.6.1	win	2023-06-02	03:20:28	03:58:25	2268643	62cdd40d1b2793efe13fd204	3	1	main_z	11	main_z	159	stimuli_target_trianglesquares.svg	stimuli_distractor_trianglediamonds.svg	18	yes	0	0	2000	0	0			0	0			1				0	
6.6.1	win	2023-06-02	03:20:28	03:58:25	2268643	62cdd40d1b2793efe13fd204	3	1	main_z	11	advance_on_keypress_ZEE	160	stimuli_target_trianglesquares.svg	stimuli_distractor_trianglediamonds.svg	18	yes	57	0	243	0	0			0	0			1				0	
6.6.1	win	2023-06-02	03:20:28	03:58:25	2268643	62cdd40d1b2793efe13fd204	3	1	headphonecheck_calibration	14	headphonecheck_calibrationIntro	1	stimuli_target_trianglesquares.svg	stimuli_distractor_trianglediamonds.svg	18	yes	calibrationButton	0	11008	0	0			0	0			1				0	
6.6.1	win	2023-06-02	03:20:28	03:58:25	2268643	62cdd40d1b2793efe13fd204	3	1	headphonecheck_testphase	15	test_collectResponse	3	stimuli_target_trianglesquares.svg	stimuli_distractor_trianglediamonds.svg	18	yes	third	1	1344	1	2	antiphase_hc_ios.wav	3	0	0			1				0	
6.6.1	win	2023-06-02	03:20:28	03:58:25	2268643	62cdd40d1b2793efe13fd204	3	1	headphonecheck_testphase	15	test_collectResponse	6	stimuli_target_trianglesquares.svg	stimuli_distractor_trianglediamonds.svg	18	yes	first	1	1285	2	4	antiphase_hc_sio.wav	1	0	0			1				0	
6.6.1	win	2023-06-02	03:20:28	03:58:25	2268643	62cdd40d1b2793efe13fd204	3	1	headphonecheck_testphase	15	test_collectResponse	9	stimuli_target_trianglesquares.svg	stimuli_distractor_trianglediamonds.svg	18	yes	second	1	5436	3	5	antiphase_hc_osi.wav	2	0	0			1				0	
6.6.1	win	2023-06-02	03:20:28	03:58:25	2268643	62cdd40d1b2793efe13fd204	3	1	headphonecheck_testphase	15	test_collectResponse	12	stimuli_target_trianglesquares.svg	stimuli_distractor_trianglediamonds.svg	18	yes	third	1	1377	4	6	antiphase_hc_ois.wav	3	0	0			1				0	
6.6.1	win	2023-06-02	03:20:28	03:58:25	2268643	62cdd40d1b2793efe13fd204	3	1	headphonecheck_testphase	15	test_collectResponse	15	stimuli_target_trianglesquares.svg	stimuli_distractor_trianglediamonds.svg	18	yes	second	1	342	5	1	antiphase_hc_iso.wav	2	0	0			1				0	
6.6.1	win	2023-06-02	03:20:28	03:58:25	2268643	62cdd40d1b2793efe13fd204	3	1	headphonecheck_testphase	15	test_collectResponse	18	stimuli_target_trianglesquares.svg	stimuli_distractor_trianglediamonds.svg	18	yes	first	1	207	6	3	antiphase_hc_soi.wav	1	0	0			1				0	
6.6.1	win	2023-06-02	03:20:28	03:58:25	2268643	62cdd40d1b2793efe13fd204	3	1	stereocheck_calibration	17	stereocheck_calibrationIntro	1	stimuli_target_trianglesquares.svg	stimuli_distractor_trianglediamonds.svg	18	yes	stereocheck_calibrationButton	0	5800	6	3	antiphase_hc_soi.wav	1	0	0			1				0	
6.6.1	win	2023-06-02	03:20:28	03:58:25	2268643	62cdd40d1b2793efe13fd204	3	1	stereocheck_testphase	18	stereocheck_test_collectResponse	3	stimuli_target_trianglesquares.svg	stimuli_distractor_trianglediamonds.svg	18	yes	stereocheck_right	1	568	6	3	antiphase_hc_soi.wav	1	1	6	noise_calib_stim_RIGHT.wav	2	1				0	
6.6.1	win	2023-06-02	03:20:28	03:58:25	2268643	62cdd40d1b2793efe13fd204	3	1	stereocheck_testphase	18	stereocheck_test_collectResponse	6	stimuli_target_trianglesquares.svg	stimuli_distractor_trianglediamonds.svg	18	yes	stereocheck_left	1	272	6	3	antiphase_hc_soi.wav	1	2	1	noise_calib_stim_LEFT.wav	1	1				0	
6.6.1	win	2023-06-02	03:20:28	03:58:25	2268643	62cdd40d1b2793efe13fd204	3	1	stereocheck_testphase	18	stereocheck_test_collectResponse	9	stimuli_target_trianglesquares.svg	stimuli_distractor_trianglediamonds.svg	18	yes	stereocheck_left	1	242	6	3	antiphase_hc_soi.wav	1	3	3	noise_calib_stim_LEFT.wav	1	1				0	
6.6.1	win	2023-06-02	03:20:28	03:58:25	2268643	62cdd40d1b2793efe13fd204	3	1	stereocheck_testphase	18	stereocheck_test_collectResponse	12	stimuli_target_trianglesquares.svg	stimuli_distractor_trianglediamonds.svg	18	yes	stereocheck_left	1	523	6	3	antiphase_hc_soi.wav	1	4	2	noise_calib_stim_LEFT.wav	1	1				0	
6.6.1	win	2023-06-02	03:20:28	03:58:25	2268643	62cdd40d1b2793efe13fd204	3	1	stereocheck_testphase	18	stereocheck_test_collectResponse	15	stimuli_target_trianglesquares.svg	stimuli_distractor_trianglediamonds.svg	18	yes	stereocheck_right	1	186	6	3	antiphase_hc_soi.wav	1	5	4	noise_calib_stim_RIGHT.wav	2	1				0	
6.6.1	win	2023-06-02	03:20:28	03:58:25	2268643	62cdd40d1b2793efe13fd204	3	1	stereocheck_testphase	18	stereocheck_test_collectResponse	18	stimuli_target_trianglesquares.svg	stimuli_distractor_trianglediamonds.svg	18	yes	stereocheck_right	1	537	6	3	antiphase_hc_soi.wav	1	6	5	noise_calib_stim_RIGHT.wav	2	1				0	
6.6.1	win	2023-06-02	03:20:28	03:58:25	2268643	62cdd40d1b2793efe13fd204	3	1	DL_practice	21	DL_practice	2	stimuli_target_trianglesquares.svg	stimuli_distractor_trianglediamonds.svg	18	yes	da	1	2305	6	3	antiphase_hc_soi.wav	1	6	5	noise_calib_stim_RIGHT.wav	2	7	blb_dichoticlistening_da-ba.mp3	da	ba	1	left
6.6.1	win	2023-06-02	03:20:28	03:58:25	2268643	62cdd40d1b2793efe13fd204	3	1	DL_practice	21	DL_practice	3	stimuli_target_trianglesquares.svg	stimuli_distractor_trianglediamonds.svg	18	yes	ka	0	1872	6	3	antiphase_hc_soi.wav	1	6	5	noise_calib_stim_RIGHT.wav	2	18	blb_dichoticlistening_ga-ta.mp3	ga	ta	1	other
6.6.1	win	2023-06-02	03:20:28	03:58:25	2268643	62cdd40d1b2793efe13fd204	3	1	DL_practice	21	DL_practice	4	stimuli_target_trianglesquares.svg	stimuli_distractor_trianglediamonds.svg	18	yes	pa	1	1096	6	3	antiphase_hc_soi.wav	1	6	5	noise_calib_stim_RIGHT.wav	2	29	blb_dichoticlistening_pa-pa.mp3	pa	pa	0	left
6.6.1	win	2023-06-02	03:20:28	03:58:25	2268643	62cdd40d1b2793efe13fd204	3	1	DL_practice	21	DL_practice	5	stimuli_target_trianglesquares.svg	stimuli_distractor_trianglediamonds.svg	18	yes	da	1	1833	6	3	antiphase_hc_soi.wav	1	6	5	noise_calib_stim_RIGHT.wav	2	8	blb_dichoticlistening_da-da.mp3	da	da	0	left
6.6.1	win	2023-06-02	03:20:28	03:58:25	2268643	62cdd40d1b2793efe13fd204	3	1	DL_practice	21	DL_practice	6	stimuli_target_trianglesquares.svg	stimuli_distractor_trianglediamonds.svg	18	yes	ga	1	1007	6	3	antiphase_hc_soi.wav	1	6	5	noise_calib_stim_RIGHT.wav	2	15	blb_dichoticlistening_ga-ga.mp3	ga	ga	0	left
6.6.1	win	2023-06-02	03:20:28	03:58:25	2268643	62cdd40d1b2793efe13fd204	3	1	DL_practice	21	DL_practice	7	stimuli_target_trianglesquares.svg	stimuli_distractor_trianglediamonds.svg	18	yes	ka	1	986	6	3	antiphase_hc_soi.wav	1	6	5	noise_calib_stim_RIGHT.wav	2	22	blb_dichoticlistening_ka-ka.mp3	ka	ka	0	left
6.6.1	win	2023-06-02	03:20:28	03:58:25	2268643	62cdd40d1b2793efe13fd204	3	1	DL_practice	21	DL_practice	8	stimuli_target_trianglesquares.svg	stimuli_distractor_trianglediamonds.svg	18	yes	ta	1	1651	6	3	antiphase_hc_soi.wav	1	6	5	noise_calib_stim_RIGHT.wav	2	36	blb_dichoticlistening_ta-ta.mp3	ta	ta	0	left
6.6.1	win	2023-06-02	03:20:28	03:58:25	2268643	62cdd40d1b2793efe13fd204	3	1	DL_practice	21	DL_practice	9	stimuli_target_trianglesquares.svg	stimuli_distractor_trianglediamonds.svg	18	yes	ba	1	3402	6	3	antiphase_hc_soi.wav	1	6	5	noise_calib_stim_RIGHT.wav	2	1	blb_dichoticlistening_ba-ba.mp3	ba	ba	0	left
6.6.1	win	2023-06-02	03:20:28	03:58:25	2268643	62cdd40d1b2793efe13fd204	3	1	DL_practice	21	DL_practice	10	stimuli_target_trianglesquares.svg	stimuli_distractor_trianglediamonds.svg	18	yes	pa	1	1379	6	3	antiphase_hc_soi.wav	1	6	5	noise_calib_stim_RIGHT.wav	2	23	blb_dichoticlistening_ka-pa.mp3	ka	pa	1	right
6.6.1	win	2023-06-02	03:20:28	03:58:25	2268643	62cdd40d1b2793efe13fd204	3	1	DL_test	23	DL_test	1	stimuli_target_trianglesquares.svg	stimuli_distractor_trianglediamonds.svg	18	yes	da	1	1209	6	3	antiphase_hc_soi.wav	1	6	5	noise_calib_stim_RIGHT.wav	2	8	blb_dichoticlistening_da-da.mp3	da	da	0	left
6.6.1	win	2023-06-02	03:20:28	03:58:25	2268643	62cdd40d1b2793efe13fd204	3	1	DL_test	23	DL_test	2	stimuli_target_trianglesquares.svg	stimuli_distractor_trianglediamonds.svg	18	yes	ga	1	791	6	3	antiphase_hc_soi.wav	1	6	5	noise_calib_stim_RIGHT.wav	2	15	blb_dichoticlistening_ga-ga.mp3	ga	ga	0	left
6.6.1	win	2023-06-02	03:20:28	03:58:25	2268643	62cdd40d1b2793efe13fd204	3	1	DL_test	23	DL_test	3	stimuli_target_trianglesquares.svg	stimuli_distractor_trianglediamonds.svg	18	yes	ta	1	1346	6	3	antiphase_hc_soi.wav	1	6	5	noise_calib_stim_RIGHT.wav	2	36	blb_dichoticlistening_ta-ta.mp3	ta	ta	0	left
6.6.1	win	2023-06-02	03:20:28	03:58:25	2268643	62cdd40d1b2793efe13fd204	3	1	DL_test	23	DL_test	4	stimuli_target_trianglesquares.svg	stimuli_distractor_trianglediamonds.svg	18	yes	ta	1	1013	6	3	antiphase_hc_soi.wav	1	6	5	noise_calib_stim_RIGHT.wav	2	33	blb_dichoticlistening_ta-ga.mp3	ta	ga	1	left
6.6.1	win	2023-06-02	03:20:28	03:58:25	2268643	62cdd40d1b2793efe13fd204	3	1	DL_test	23	DL_test	5	stimuli_target_trianglesquares.svg	stimuli_distractor_trianglediamonds.svg	18	yes	ka	1	997	6	3	antiphase_hc_soi.wav	1	6	5	noise_calib_stim_RIGHT.wav	2	34	blb_dichoticlistening_ta-ka.mp3	ta	ka	1	right
6.6.1	win	2023-06-02	03:20:28	03:58:25	2268643	62cdd40d1b2793efe13fd204	3	1	DL_test	23	DL_test	6	stimuli_target_trianglesquares.svg	stimuli_distractor_trianglediamonds.svg	18	yes	pa	0	1785	6	3	antiphase_hc_soi.wav	1	6	5	noise_calib_stim_RIGHT.wav	2	10	blb_dichoticlistening_da-ka.mp3	da	ka	1	other
6.6.1	win	2023-06-02	03:20:28	03:58:25	2268643	62cdd40d1b2793efe13fd204	3	1	DL_test	23	DL_test	7	stimuli_target_trianglesquares.svg	stimuli_distractor_trianglediamonds.svg	18	yes	pa	1	1286	6	3	antiphase_hc_soi.wav	1	6	5	noise_calib_stim_RIGHT.wav	2	5	blb_dichoticlistening_ba-pa.mp3	ba	pa	1	right
6.6.1	win	2023-06-02	03:20:28	03:58:25	2268643	62cdd40d1b2793efe13fd204	3	1	DL_test	23	DL_test	8	stimuli_target_trianglesquares.svg	stimuli_distractor_trianglediamonds.svg	18	yes	da	1	1434	6	3	antiphase_hc_soi.wav	1	6	5	noise_calib_stim_RIGHT.wav	2	9	blb_dichoticlistening_da-ga.mp3	da	ga	1	left
6.6.1	win	2023-06-02	03:20:28	03:58:25	2268643	62cdd40d1b2793efe13fd204	3	1	DL_test	23	DL_test	9	stimuli_target_trianglesquares.svg	stimuli_distractor_trianglediamonds.svg	18	yes	pa	1	1960	6	3	antiphase_hc_soi.wav	1	6	5	noise_calib_stim_RIGHT.wav	2	26	blb_dichoticlistening_pa-da.mp3	pa	da	1	left
6.6.1	win	2023-06-02	03:20:28	03:58:25	2268643	62cdd40d1b2793efe13fd204	3	1	DL_test	23	DL_test	10	stimuli_target_trianglesquares.svg	stimuli_distractor_trianglediamonds.svg	18	yes	ta	1	1282	6	3	antiphase_hc_soi.wav	1	6	5	noise_calib_stim_RIGHT.wav	2	18	blb_dichoticlistening_ga-ta.mp3	ga	ta	1	right
6.6.1	win	2023-06-02	03:20:28	03:58:25	2268643	62cdd40d1b2793efe13fd204	3	1	DL_test	23	DL_test	11	stimuli_target_trianglesquares.svg	stimuli_distractor_trianglediamonds.svg	18	yes	ta	1	1261	6	3	antiphase_hc_soi.wav	1	6	5	noise_calib_stim_RIGHT.wav	2	6	blb_dichoticlistening_ba-ta.mp3	ba	ta	1	right
6.6.1	win	2023-06-02	03:20:28	03:58:25	2268643	62cdd40d1b2793efe13fd204	3	1	DL_test	23	DL_test	12	stimuli_target_trianglesquares.svg	stimuli_distractor_trianglediamonds.svg	18	yes	ka	1	1226	6	3	antiphase_hc_soi.wav	1	6	5	noise_calib_stim_RIGHT.wav	2	20	blb_dichoticlistening_ka-da.mp3	ka	da	1	left
6.6.1	win	2023-06-02	03:20:28	03:58:25	2268643	62cdd40d1b2793efe13fd204	3	1	DL_test	23	DL_test	13	stimuli_target_trianglesquares.svg	stimuli_distractor_trianglediamonds.svg	18	yes	pa	1	1626	6	3	antiphase_hc_soi.wav	1	6	5	noise_calib_stim_RIGHT.wav	2	30	blb_dichoticlistening_pa-ta.mp3	pa	ta	1	left
6.6.1	win	2023-06-02	03:20:28	03:58:25	2268643	62cdd40d1b2793efe13fd204	3	1	DL_test	23	DL_test	14	stimuli_target_trianglesquares.svg	stimuli_distractor_trianglediamonds.svg	18	yes	pa	1	918	6	3	antiphase_hc_soi.wav	1	6	5	noise_calib_stim_RIGHT.wav	2	25	blb_dichoticlistening_pa-ba.mp3	pa	ba	1	left
6.6.1	win	2023-06-02	03:20:28	03:58:25	2268643	62cdd40d1b2793efe13fd204	3	1	DL_test	23	DL_test	15	stimuli_target_trianglesquares.svg	stimuli_distractor_trianglediamonds.svg	18	yes	ga	1	1090	6	3	antiphase_hc_soi.wav	1	6	5	noise_calib_stim_RIGHT.wav	2	13	blb_dichoticlistening_ga-ba.mp3	ga	ba	1	left
6.6.1	win	2023-06-02	03:20:28	03:58:25	2268643	62cdd40d1b2793efe13fd204	3	1	DL_test	23	DL_test	16	stimuli_target_trianglesquares.svg	stimuli_distractor_trianglediamonds.svg	18	yes	ta	1	1681	6	3	antiphase_hc_soi.wav	1	6	5	noise_calib_stim_RIGHT.wav	2	32	blb_dichoticlistening_ta-da.mp3	ta	da	1	left
6.6.1	win	2023-06-02	03:20:28	03:58:25	2268643	62cdd40d1b2793efe13fd204	3	1	DL_test	23	DL_test	17	stimuli_target_trianglesquares.svg	stimuli_distractor_trianglediamonds.svg	18	yes	da	1	1176	6	3	antiphase_hc_soi.wav	1	6	5	noise_calib_stim_RIGHT.wav	2	2	blb_dichoticlistening_ba-da.mp3	ba	da	1	right
6.6.1	win	2023-06-02	03:20:28	03:58:25	2268643	62cdd40d1b2793efe13fd204	3	1	DL_test	23	DL_test	18	stimuli_target_trianglesquares.svg	stimuli_distractor_trianglediamonds.svg	18	yes	ba	1	1192	6	3	antiphase_hc_soi.wav	1	6	5	noise_calib_stim_RIGHT.wav	2	1	blb_dichoticlistening_ba-ba.mp3	ba	ba	0	left
6.6.1	win	2023-06-02	03:20:28	03:58:25	2268643	62cdd40d1b2793efe13fd204	3	1	DL_test	23	DL_test	19	stimuli_target_trianglesquares.svg	stimuli_distractor_trianglediamonds.svg	18	yes	pa	1	1555	6	3	antiphase_hc_soi.wav	1	6	5	noise_calib_stim_RIGHT.wav	2	23	blb_dichoticlistening_ka-pa.mp3	ka	pa	1	right
6.6.1	win	2023-06-02	03:20:28	03:58:25	2268643	62cdd40d1b2793efe13fd204	3	1	DL_test	23	DL_test	20	stimuli_target_trianglesquares.svg	stimuli_distractor_trianglediamonds.svg	18	yes	pa	1	996	6	3	antiphase_hc_soi.wav	1	6	5	noise_calib_stim_RIGHT.wav	2	11	blb_dichoticlistening_da-pa.mp3	da	pa	1	right
6.6.1	win	2023-06-02	03:20:28	03:58:25	2268643	62cdd40d1b2793efe13fd204	3	1	DL_test	23	DL_test	21	stimuli_target_trianglesquares.svg	stimuli_distractor_trianglediamonds.svg	18	yes	ka	1	809	6	3	antiphase_hc_soi.wav	1	6	5	noise_calib_stim_RIGHT.wav	2	4	blb_dichoticlistening_ba-ka.mp3	ba	ka	1	right
6.6.1	win	2023-06-02	03:20:28	03:58:25	2268643	62cdd40d1b2793efe13fd204	3	1	DL_test	23	DL_test	22	stimuli_target_trianglesquares.svg	stimuli_distractor_trianglediamonds.svg	18	yes	da	1	1327	6	3	antiphase_hc_soi.wav	1	6	5	noise_calib_stim_RIGHT.wav	2	7	blb_dichoticlistening_da-ba.mp3	da	ba	1	left
6.6.1	win	2023-06-02	03:20:28	03:58:25	2268643	62cdd40d1b2793efe13fd204	3	1	DL_test	23	DL_test	23	stimuli_target_trianglesquares.svg	stimuli_distractor_trianglediamonds.svg	18	yes	ta	1	1882	6	3	antiphase_hc_soi.wav	1	6	5	noise_calib_stim_RIGHT.wav	2	31	blb_dichoticlistening_ta-ba.mp3	ta	ba	1	left
6.6.1	win	2023-06-02	03:20:28	03:58:25	2268643	62cdd40d1b2793efe13fd204	3	1	DL_test	23	DL_test	24	stimuli_target_trianglesquares.svg	stimuli_distractor_trianglediamonds.svg	18	yes	da	0	1073	6	3	antiphase_hc_soi.wav	1	6	5	noise_calib_stim_RIGHT.wav	2	3	blb_dichoticlistening_ba-ga.mp3	ba	ga	1	other
6.6.1	win	2023-06-02	03:20:28	03:58:25	2268643	62cdd40d1b2793efe13fd204	3	1	DL_test	23	DL_test	25	stimuli_target_trianglesquares.svg	stimuli_distractor_trianglediamonds.svg	18	yes	pa	1	1452	6	3	antiphase_hc_soi.wav	1	6	5	noise_calib_stim_RIGHT.wav	2	27	blb_dichoticlistening_pa-ga.mp3	pa	ga	1	left
