build	computer.platform	date	time	timestamp	time_elapsed_ms	subject	group	session	blockcode	blocknum	trialcode	trialnum	stimulus_left	stimulus_right	stim_index	target_present	response	correct	latency	headphonecheck_countTestTrials	headphonecheck_index	headphonecheck_testSound	headphonecheck_correctResponse	stereocheck_countTestTrials	stereocheck_index	stereocheck_testSound	stereocheck_correctResponse	DL_index	DL_soundfile	DL_leftSound	DL_rightSound	DL_dualSound	DL_choice
6.6.3	ios	2023-06-02	07:26:21	0	0	63f5c99a1cecb4136b93f7db	1	1	headphonecheck_calibration	4	headphonecheck_calibrationIntro	1			0		calibrationButton	0	525	0	0			0	0			1				0	
6.6.3	ios	2023-06-02	07:26:21	0	0	63f5c99a1cecb4136b93f7db	1	1	headphonecheck_testphase	5	test_collectResponse	3			0		second	0	3527	1	3	antiphase_hc_soi.wav	1	0	0			1				0	
6.6.3	ios	2023-06-02	07:26:21	0	0	63f5c99a1cecb4136b93f7db	1	1	headphonecheck_testphase	5	test_collectResponse	6			0		first	1	825	2	4	antiphase_hc_sio.wav	1	0	0			1				0	
6.6.3	ios	2023-06-02	07:26:21	0	0	63f5c99a1cecb4136b93f7db	1	1	headphonecheck_testphase	5	test_collectResponse	9			0		second	1	58	3	5	antiphase_hc_osi.wav	2	0	0			1				0	
6.6.3	ios	2023-06-02	07:26:21	0	0	63f5c99a1cecb4136b93f7db	1	1	headphonecheck_testphase	5	test_collectResponse	12			0		third	1	184	4	6	antiphase_hc_ois.wav	3	0	0			1				0	
6.6.3	ios	2023-06-02	07:26:21	0	0	63f5c99a1cecb4136b93f7db	1	1	headphonecheck_testphase	5	test_collectResponse	15			0		second	1	176	5	1	antiphase_hc_iso.wav	2	0	0			1				0	
6.6.3	ios	2023-06-02	07:26:21	0	0	63f5c99a1cecb4136b93f7db	1	1	headphonecheck_testphase	5	test_collectResponse	18			0		third	1	625	6	2	antiphase_hc_ios.wav	3	0	0			1				0	
6.6.3	ios	2023-06-02	07:26:21	0	0	63f5c99a1cecb4136b93f7db	1	1	stereocheck_calibration	7	stereocheck_calibrationIntro	1			0		stereocheck_calibrationButton	0	549	6	2	antiphase_hc_ios.wav	3	0	0			1				0	
6.6.3	ios	2023-06-02	07:26:21	0	0	63f5c99a1cecb4136b93f7db	1	1	stereocheck_testphase	8	stereocheck_test_collectResponse	3			0		stereocheck_right	1	358	6	2	antiphase_hc_ios.wav	3	1	5	noise_calib_stim_RIGHT.wav	2	1				0	
6.6.3	ios	2023-06-02	07:26:21	0	0	63f5c99a1cecb4136b93f7db	1	1	stereocheck_testphase	8	stereocheck_test_collectResponse	6			0		stereocheck_left	1	567	6	2	antiphase_hc_ios.wav	3	2	3	noise_calib_stim_LEFT.wav	1	1				0	
6.6.3	ios	2023-06-02	07:26:21	0	0	63f5c99a1cecb4136b93f7db	1	1	stereocheck_testphase	8	stereocheck_test_collectResponse	9			0		stereocheck_right	1	5542	6	2	antiphase_hc_ios.wav	3	3	6	noise_calib_stim_RIGHT.wav	2	1				0	
6.6.3	ios	2023-06-02	07:26:21	0	0	63f5c99a1cecb4136b93f7db	1	1	stereocheck_testphase	8	stereocheck_test_collectResponse	12			0		stereocheck_right	1	632	6	2	antiphase_hc_ios.wav	3	4	4	noise_calib_stim_RIGHT.wav	2	1				0	
6.6.3	ios	2023-06-02	07:26:21	0	0	63f5c99a1cecb4136b93f7db	1	1	stereocheck_testphase	8	stereocheck_test_collectResponse	15			0		stereocheck_right	0	2713	6	2	antiphase_hc_ios.wav	3	5	2	noise_calib_stim_LEFT.wav	1	1				0	
6.6.3	ios	2023-06-02	07:26:21	0	0	63f5c99a1cecb4136b93f7db	1	1	stereocheck_testphase	8	stereocheck_test_collectResponse	18			0		stereocheck_left	1	358	6	2	antiphase_hc_ios.wav	3	6	1	noise_calib_stim_LEFT.wav	1	1				0	
6.6.3	ios	2023-06-02	07:26:21	0	0	63f5c99a1cecb4136b93f7db	1	1	DL_practice	11	DL_practice	2			0		ga	0	575	6	2	antiphase_hc_ios.wav	3	6	1	noise_calib_stim_LEFT.wav	1	8	blb_dichoticlistening_da-da.mp3	da	da	0	other
6.6.3	ios	2023-06-02	07:26:21	0	0	63f5c99a1cecb4136b93f7db	1	1	DL_practice	11	DL_practice	3			0		pa	1	592	6	2	antiphase_hc_ios.wav	3	6	1	noise_calib_stim_LEFT.wav	1	23	blb_dichoticlistening_ka-pa.mp3	ka	pa	1	right
6.6.3	ios	2023-06-02	07:26:21	0	0	63f5c99a1cecb4136b93f7db	1	1	DL_practice	11	DL_practice	4			0		pa	1	866	6	2	antiphase_hc_ios.wav	3	6	1	noise_calib_stim_LEFT.wav	1	29	blb_dichoticlistening_pa-pa.mp3	pa	pa	0	left
6.6.3	ios	2023-06-02	07:26:21	0	0	63f5c99a1cecb4136b93f7db	1	1	DL_practice	11	DL_practice	5			0		ga	1	1142	6	2	antiphase_hc_ios.wav	3	6	1	noise_calib_stim_LEFT.wav	1	15	blb_dichoticlistening_ga-ga.mp3	ga	ga	0	left
6.6.3	ios	2023-06-02	07:26:21	0	0	63f5c99a1cecb4136b93f7db	1	1	DL_practice	11	DL_practice	6			0		pa	0	900	6	2	antiphase_hc_ios.wav	3	6	1	noise_calib_stim_LEFT.wav	1	7	blb_dichoticlistening_da-ba.mp3	da	ba	1	other
6.6.3	ios	2023-06-02	07:26:21	0	0	63f5c99a1cecb4136b93f7db	1	1	DL_practice	11	DL_practice	7			0		ka	1	709	6	2	antiphase_hc_ios.wav	3	6	1	noise_calib_stim_LEFT.wav	1	22	blb_dichoticlistening_ka-ka.mp3	ka	ka	0	left
6.6.3	ios	2023-06-02	07:26:21	0	0	63f5c99a1cecb4136b93f7db	1	1	DL_practice	11	DL_practice	8			0		ta	1	791	6	2	antiphase_hc_ios.wav	3	6	1	noise_calib_stim_LEFT.wav	1	36	blb_dichoticlistening_ta-ta.mp3	ta	ta	0	left
6.6.3	ios	2023-06-02	07:26:21	0	0	63f5c99a1cecb4136b93f7db	1	1	DL_practice	11	DL_practice	9			0		pa	0	492	6	2	antiphase_hc_ios.wav	3	6	1	noise_calib_stim_LEFT.wav	1	1	blb_dichoticlistening_ba-ba.mp3	ba	ba	0	other
6.6.3	ios	2023-06-02	07:26:21	0	0	63f5c99a1cecb4136b93f7db	1	1	DL_practice	11	DL_practice	10			0		pa	0	392	6	2	antiphase_hc_ios.wav	3	6	1	noise_calib_stim_LEFT.wav	1	18	blb_dichoticlistening_ga-ta.mp3	ga	ta	1	other
6.6.3	ios	2023-06-02	07:26:21	0	0	63f5c99a1cecb4136b93f7db	1	1	DL_test	13	DL_test	1			0		ka	0	157	6	2	antiphase_hc_ios.wav	3	6	1	noise_calib_stim_LEFT.wav	1	2	blb_dichoticlistening_ba-da.mp3	ba	da	1	other
6.6.3	ios	2023-06-02	07:26:21	0	0	63f5c99a1cecb4136b93f7db	1	1	DL_test	13	DL_test	2			0		pa	0	218	6	2	antiphase_hc_ios.wav	3	6	1	noise_calib_stim_LEFT.wav	1	14	blb_dichoticlistening_ga-da.mp3	ga	da	1	other
6.6.3	ios	2023-06-02	07:26:21	0	0	63f5c99a1cecb4136b93f7db	1	1	DL_test	13	DL_test	3			0		pa	0	26	6	2	antiphase_hc_ios.wav	3	6	1	noise_calib_stim_LEFT.wav	1	1	blb_dichoticlistening_ba-ba.mp3	ba	ba	0	other
6.6.3	ios	2023-06-02	07:26:21	0	0	63f5c99a1cecb4136b93f7db	1	1	DL_test	13	DL_test	4			0		da	0	84	6	2	antiphase_hc_ios.wav	3	6	1	noise_calib_stim_LEFT.wav	1	4	blb_dichoticlistening_ba-ka.mp3	ba	ka	1	other
6.6.3	ios	2023-06-02	07:26:21	0	0	63f5c99a1cecb4136b93f7db	1	1	DL_test	13	DL_test	5			0		pa	1	118	6	2	antiphase_hc_ios.wav	3	6	1	noise_calib_stim_LEFT.wav	1	11	blb_dichoticlistening_da-pa.mp3	da	pa	1	right
6.6.3	ios	2023-06-02	07:26:21	0	0	63f5c99a1cecb4136b93f7db	1	1	DL_test	13	DL_test	6			0		pa	1	10	6	2	antiphase_hc_ios.wav	3	6	1	noise_calib_stim_LEFT.wav	1	17	blb_dichoticlistening_ga-pa.mp3	ga	pa	1	right
6.6.3	ios	2023-06-02	07:26:21	0	0	63f5c99a1cecb4136b93f7db	1	1	DL_test	13	DL_test	7			0		ka	1	25	6	2	antiphase_hc_ios.wav	3	6	1	noise_calib_stim_LEFT.wav	1	16	blb_dichoticlistening_ga-ka.mp3	ga	ka	1	right
6.6.3	ios	2023-06-02	07:26:21	0	0	63f5c99a1cecb4136b93f7db	1	1	DL_test	13	DL_test	8			0		pa	0	168	6	2	antiphase_hc_ios.wav	3	6	1	noise_calib_stim_LEFT.wav	1	32	blb_dichoticlistening_ta-da.mp3	ta	da	1	other
6.6.3	ios	2023-06-02	07:26:21	0	0	63f5c99a1cecb4136b93f7db	1	1	DL_test	13	DL_test	9			0		ka	0	134	6	2	antiphase_hc_ios.wav	3	6	1	noise_calib_stim_LEFT.wav	1	36	blb_dichoticlistening_ta-ta.mp3	ta	ta	0	other
6.6.3	ios	2023-06-02	07:26:21	0	0	63f5c99a1cecb4136b93f7db	1	1	DL_test	13	DL_test	10			0		pa	0	17	6	2	antiphase_hc_ios.wav	3	6	1	noise_calib_stim_LEFT.wav	1	12	blb_dichoticlistening_da-ta.mp3	da	ta	1	other
6.6.3	ios	2023-06-02	07:26:21	0	0	63f5c99a1cecb4136b93f7db	1	1	DL_test	13	DL_test	11			0		ta	0	476	6	2	antiphase_hc_ios.wav	3	6	1	noise_calib_stim_LEFT.wav	1	22	blb_dichoticlistening_ka-ka.mp3	ka	ka	0	other
6.6.3	ios	2023-06-02	07:26:21	0	0	63f5c99a1cecb4136b93f7db	1	1	DL_test	13	DL_test	12			0		ka	1	708	6	2	antiphase_hc_ios.wav	3	6	1	noise_calib_stim_LEFT.wav	1	24	blb_dichoticlistening_ka-ta.mp3	ka	ta	1	left
6.6.3	ios	2023-06-02	07:26:21	0	0	63f5c99a1cecb4136b93f7db	1	1	DL_test	13	DL_test	13			0		ka	0	201	6	2	antiphase_hc_ios.wav	3	6	1	noise_calib_stim_LEFT.wav	1	13	blb_dichoticlistening_ga-ba.mp3	ga	ba	1	other
6.6.3	ios	2023-06-02	07:26:21	0	0	63f5c99a1cecb4136b93f7db	1	1	DL_test	13	DL_test	14			0		pa	0	484	6	2	antiphase_hc_ios.wav	3	6	1	noise_calib_stim_LEFT.wav	1	19	blb_dichoticlistening_ka-ba.mp3	ka	ba	1	other
6.6.3	ios	2023-06-02	07:26:21	0	0	63f5c99a1cecb4136b93f7db	1	1	DL_test	13	DL_test	15			0		ka	0	392	6	2	antiphase_hc_ios.wav	3	6	1	noise_calib_stim_LEFT.wav	1	15	blb_dichoticlistening_ga-ga.mp3	ga	ga	0	other
6.6.3	ios	2023-06-02	07:26:21	0	0	63f5c99a1cecb4136b93f7db	1	1	DL_test	13	DL_test	16			0		pa	0	1599	6	2	antiphase_hc_ios.wav	3	6	1	noise_calib_stim_LEFT.wav	1	33	blb_dichoticlistening_ta-ga.mp3	ta	ga	1	other
6.6.3	ios	2023-06-02	07:26:21	0	0	63f5c99a1cecb4136b93f7db	1	1	DL_test	13	DL_test	17			0		pa	0	800	6	2	antiphase_hc_ios.wav	3	6	1	noise_calib_stim_LEFT.wav	1	31	blb_dichoticlistening_ta-ba.mp3	ta	ba	1	other
6.6.3	ios	2023-06-02	07:26:21	0	0	63f5c99a1cecb4136b93f7db	1	1	DL_test	13	DL_test	18			0		pa	0	833	6	2	antiphase_hc_ios.wav	3	6	1	noise_calib_stim_LEFT.wav	1	20	blb_dichoticlistening_ka-da.mp3	ka	da	1	other
6.6.3	ios	2023-06-02	07:26:21	0	0	63f5c99a1cecb4136b93f7db	1	1	DL_test	13	DL_test	19			0		pa	0	43	6	2	antiphase_hc_ios.wav	3	6	1	noise_calib_stim_LEFT.wav	1	7	blb_dichoticlistening_da-ba.mp3	da	ba	1	other
6.6.3	ios	2023-06-02	07:26:21	0	0	63f5c99a1cecb4136b93f7db	1	1	DL_test	13	DL_test	20			0		pa	0	874	6	2	antiphase_hc_ios.wav	3	6	1	noise_calib_stim_LEFT.wav	1	6	blb_dichoticlistening_ba-ta.mp3	ba	ta	1	other
6.6.3	ios	2023-06-02	07:26:21	0	0	63f5c99a1cecb4136b93f7db	1	1	DL_test	13	DL_test	21			0		ga	0	1507	6	2	antiphase_hc_ios.wav	3	6	1	noise_calib_stim_LEFT.wav	1	26	blb_dichoticlistening_pa-da.mp3	pa	da	1	other
6.6.3	ios	2023-06-02	07:26:21	0	0	63f5c99a1cecb4136b93f7db	1	1	DL_test	13	DL_test	22			0		ga	1	1208	6	2	antiphase_hc_ios.wav	3	6	1	noise_calib_stim_LEFT.wav	1	27	blb_dichoticlistening_pa-ga.mp3	pa	ga	1	right
6.6.3	ios	2023-06-02	07:26:21	0	0	63f5c99a1cecb4136b93f7db	1	1	DL_test	13	DL_test	23			0		ga	0	26	6	2	antiphase_hc_ios.wav	3	6	1	noise_calib_stim_LEFT.wav	1	30	blb_dichoticlistening_pa-ta.mp3	pa	ta	1	other
6.6.3	ios	2023-06-02	07:26:21	0	0	63f5c99a1cecb4136b93f7db	1	1	DL_test	13	DL_test	24			0		ba	0	167	6	2	antiphase_hc_ios.wav	3	6	1	noise_calib_stim_LEFT.wav	1	8	blb_dichoticlistening_da-da.mp3	da	da	0	other
6.6.3	ios	2023-06-02	07:26:21	0	0	63f5c99a1cecb4136b93f7db	1	1	DL_test	13	DL_test	25			0		ka	0	134	6	2	antiphase_hc_ios.wav	3	6	1	noise_calib_stim_LEFT.wav	1	29	blb_dichoticlistening_pa-pa.mp3	pa	pa	0	other
6.6.3	ios	2023-06-02	07:26:21	0	0	63f5c99a1cecb4136b93f7db	1	1	DL_test	13	DL_test	26			0		pa	0	251	6	2	antiphase_hc_ios.wav	3	6	1	noise_calib_stim_LEFT.wav	1	3	blb_dichoticlistening_ba-ga.mp3	ba	ga	1	other
6.6.3	ios	2023-06-02	07:26:21	0	0	63f5c99a1cecb4136b93f7db	1	1	DL_test	13	DL_test	27			0		ka	1	17	6	2	antiphase_hc_ios.wav	3	6	1	noise_calib_stim_LEFT.wav	1	21	blb_dichoticlistening_ka-ga.mp3	ka	ga	1	left
6.6.3	ios	2023-06-02	07:26:21	0	0	63f5c99a1cecb4136b93f7db	1	1	DL_test	13	DL_test	28			0		pa	0	94	6	2	antiphase_hc_ios.wav	3	6	1	noise_calib_stim_LEFT.wav	1	10	blb_dichoticlistening_da-ka.mp3	da	ka	1	other
6.6.3	ios	2023-06-02	07:26:21	0	0	63f5c99a1cecb4136b93f7db	1	1	DL_test	13	DL_test	29			0		ka	1	27	6	2	antiphase_hc_ios.wav	3	6	1	noise_calib_stim_LEFT.wav	1	28	blb_dichoticlistening_pa-ka.mp3	pa	ka	1	right
6.6.3	ios	2023-06-02	07:26:21	0	0	63f5c99a1cecb4136b93f7db	1	1	DL_test	13	DL_test	30			0		ga	0	100	6	2	antiphase_hc_ios.wav	3	6	1	noise_calib_stim_LEFT.wav	1	34	blb_dichoticlistening_ta-ka.mp3	ta	ka	1	other
6.6.3	ios	2023-06-02	07:26:21	0	0	63f5c99a1cecb4136b93f7db	1	1	DL_test	13	DL_test	31			0		pa	0	201	6	2	antiphase_hc_ios.wav	3	6	1	noise_calib_stim_LEFT.wav	1	9	blb_dichoticlistening_da-ga.mp3	da	ga	1	other
6.6.3	ios	2023-06-02	07:26:21	0	0	63f5c99a1cecb4136b93f7db	1	1	DL_test	13	DL_test	32			0		pa	0	268	6	2	antiphase_hc_ios.wav	3	6	1	noise_calib_stim_LEFT.wav	1	18	blb_dichoticlistening_ga-ta.mp3	ga	ta	1	other
6.6.3	ios	2023-06-02	07:26:21	0	0	63f5c99a1cecb4136b93f7db	1	1	DL_test	13	DL_test	33			0		ka	0	17	6	2	antiphase_hc_ios.wav	3	6	1	noise_calib_stim_LEFT.wav	1	25	blb_dichoticlistening_pa-ba.mp3	pa	ba	1	other
6.6.3	ios	2023-06-02	07:26:21	0	0	63f5c99a1cecb4136b93f7db	1	1	DL_test	13	DL_test	34			0		pa	1	1	6	2	antiphase_hc_ios.wav	3	6	1	noise_calib_stim_LEFT.wav	1	23	blb_dichoticlistening_ka-pa.mp3	ka	pa	1	right
6.6.3	ios	2023-06-02	07:26:21	0	0	63f5c99a1cecb4136b93f7db	1	1	DL_test	13	DL_test	35			0		da	0	92	6	2	antiphase_hc_ios.wav	3	6	1	noise_calib_stim_LEFT.wav	1	35	blb_dichoticlistening_ta-pa.mp3	ta	pa	1	other
6.6.3	ios	2023-06-02	07:26:21	0	0	63f5c99a1cecb4136b93f7db	1	1	DL_test	13	DL_test	36			0		da	0	159	6	2	antiphase_hc_ios.wav	3	6	1	noise_calib_stim_LEFT.wav	1	5	blb_dichoticlistening_ba-pa.mp3	ba	pa	1	other
6.6.3	ios	2023-06-02	07:26:21	0	0	63f5c99a1cecb4136b93f7db	1	1	DL_test	14	DL_test	1			0		ka	1	65	6	2	antiphase_hc_ios.wav	3	6	1	noise_calib_stim_LEFT.wav	1	19	blb_dichoticlistening_ka-ba.mp3	ka	ba	1	left
6.6.3	ios	2023-06-02	07:26:21	0	0	63f5c99a1cecb4136b93f7db	1	1	DL_test	14	DL_test	2			0		ba	0	42	6	2	antiphase_hc_ios.wav	3	6	1	noise_calib_stim_LEFT.wav	1	18	blb_dichoticlistening_ga-ta.mp3	ga	ta	1	other
6.6.3	ios	2023-06-02	07:26:21	0	0	63f5c99a1cecb4136b93f7db	1	1	DL_test	14	DL_test	3			0		pa	0	1100	6	2	antiphase_hc_ios.wav	3	6	1	noise_calib_stim_LEFT.wav	1	31	blb_dichoticlistening_ta-ba.mp3	ta	ba	1	other
6.6.3	ios	2023-06-02	07:26:21	0	0	63f5c99a1cecb4136b93f7db	1	1	DL_test	14	DL_test	4			0		ka	0	159	6	2	antiphase_hc_ios.wav	3	6	1	noise_calib_stim_LEFT.wav	1	1	blb_dichoticlistening_ba-ba.mp3	ba	ba	0	other
6.6.3	ios	2023-06-02	07:26:21	0	0	63f5c99a1cecb4136b93f7db	1	1	DL_test	14	DL_test	5			0		ga	1	118	6	2	antiphase_hc_ios.wav	3	6	1	noise_calib_stim_LEFT.wav	1	13	blb_dichoticlistening_ga-ba.mp3	ga	ba	1	left
6.6.3	ios	2023-06-02	07:26:21	0	0	63f5c99a1cecb4136b93f7db	1	1	DL_test	14	DL_test	6			0		ga	0	3229	6	2	antiphase_hc_ios.wav	3	6	1	noise_calib_stim_LEFT.wav	1	32	blb_dichoticlistening_ta-da.mp3	ta	da	1	other
6.6.3	ios	2023-06-02	07:26:21	0	0	63f5c99a1cecb4136b93f7db	1	1	DL_test	14	DL_test	7			0		ka	1	441	6	2	antiphase_hc_ios.wav	3	6	1	noise_calib_stim_LEFT.wav	1	28	blb_dichoticlistening_pa-ka.mp3	pa	ka	1	right
6.6.3	ios	2023-06-02	07:26:21	0	0	63f5c99a1cecb4136b93f7db	1	1	DL_test	14	DL_test	8			0		ga	0	0	6	2	antiphase_hc_ios.wav	3	6	1	noise_calib_stim_LEFT.wav	1	10	blb_dichoticlistening_da-ka.mp3	da	ka	1	other
6.6.3	ios	2023-06-02	07:26:21	0	0	63f5c99a1cecb4136b93f7db	1	1	DL_test	14	DL_test	9			0		ga	1	134	6	2	antiphase_hc_ios.wav	3	6	1	noise_calib_stim_LEFT.wav	1	16	blb_dichoticlistening_ga-ka.mp3	ga	ka	1	left
6.6.3	ios	2023-06-02	07:26:21	0	0	63f5c99a1cecb4136b93f7db	1	1	DL_test	14	DL_test	10			0		ka	0	109	6	2	antiphase_hc_ios.wav	3	6	1	noise_calib_stim_LEFT.wav	1	35	blb_dichoticlistening_ta-pa.mp3	ta	pa	1	other
6.6.3	ios	2023-06-02	07:26:21	0	0	63f5c99a1cecb4136b93f7db	1	1	DL_test	14	DL_test	11			0		ga	0	160	6	2	antiphase_hc_ios.wav	3	6	1	noise_calib_stim_LEFT.wav	1	26	blb_dichoticlistening_pa-da.mp3	pa	da	1	other
6.6.3	ios	2023-06-02	07:26:21	0	0	63f5c99a1cecb4136b93f7db	1	1	DL_test	14	DL_test	12			0		pa	1	92	6	2	antiphase_hc_ios.wav	3	6	1	noise_calib_stim_LEFT.wav	1	30	blb_dichoticlistening_pa-ta.mp3	pa	ta	1	left
6.6.3	ios	2023-06-02	07:26:21	0	0	63f5c99a1cecb4136b93f7db	1	1	DL_test	14	DL_test	13			0		ka	0	217	6	2	antiphase_hc_ios.wav	3	6	1	noise_calib_stim_LEFT.wav	1	25	blb_dichoticlistening_pa-ba.mp3	pa	ba	1	other
6.6.3	ios	2023-06-02	07:26:21	0	0	63f5c99a1cecb4136b93f7db	1	1	DL_test	14	DL_test	14			0		ga	0	167	6	2	antiphase_hc_ios.wav	3	6	1	noise_calib_stim_LEFT.wav	1	20	blb_dichoticlistening_ka-da.mp3	ka	da	1	other
6.6.3	ios	2023-06-02	07:26:21	0	0	63f5c99a1cecb4136b93f7db	1	1	DL_test	14	DL_test	15			0		ka	0	293	6	2	antiphase_hc_ios.wav	3	6	1	noise_calib_stim_LEFT.wav	1	33	blb_dichoticlistening_ta-ga.mp3	ta	ga	1	other
6.6.3	ios	2023-06-02	07:26:21	0	0	63f5c99a1cecb4136b93f7db	1	1	DL_test	14	DL_test	16			0		ka	0	916	6	2	antiphase_hc_ios.wav	3	6	1	noise_calib_stim_LEFT.wav	1	11	blb_dichoticlistening_da-pa.mp3	da	pa	1	other
6.6.3	ios	2023-06-02	07:26:21	0	0	63f5c99a1cecb4136b93f7db	1	1	DL_test	14	DL_test	17			0		ga	0	734	6	2	antiphase_hc_ios.wav	3	6	1	noise_calib_stim_LEFT.wav	1	36	blb_dichoticlistening_ta-ta.mp3	ta	ta	0	other
6.6.3	ios	2023-06-02	07:26:21	0	0	63f5c99a1cecb4136b93f7db	1	1	DL_test	14	DL_test	18			0		ga	1	126	6	2	antiphase_hc_ios.wav	3	6	1	noise_calib_stim_LEFT.wav	1	21	blb_dichoticlistening_ka-ga.mp3	ka	ga	1	right
6.6.3	ios	2023-06-02	07:26:21	0	0	63f5c99a1cecb4136b93f7db	1	1	DL_test	14	DL_test	19			0		da	0	193	6	2	antiphase_hc_ios.wav	3	6	1	noise_calib_stim_LEFT.wav	1	6	blb_dichoticlistening_ba-ta.mp3	ba	ta	1	other
6.6.3	ios	2023-06-02	07:26:21	0	0	63f5c99a1cecb4136b93f7db	1	1	DL_test	14	DL_test	20			0		pa	1	251	6	2	antiphase_hc_ios.wav	3	6	1	noise_calib_stim_LEFT.wav	1	29	blb_dichoticlistening_pa-pa.mp3	pa	pa	0	left
6.6.3	ios	2023-06-02	07:26:21	0	0	63f5c99a1cecb4136b93f7db	1	1	DL_test	14	DL_test	21			0		pa	0	93	6	2	antiphase_hc_ios.wav	3	6	1	noise_calib_stim_LEFT.wav	1	22	blb_dichoticlistening_ka-ka.mp3	ka	ka	0	other
6.6.3	ios	2023-06-02	07:26:21	0	0	63f5c99a1cecb4136b93f7db	1	1	DL_test	14	DL_test	22			0		pa	0	300	6	2	antiphase_hc_ios.wav	3	6	1	noise_calib_stim_LEFT.wav	1	4	blb_dichoticlistening_ba-ka.mp3	ba	ka	1	other
6.6.3	ios	2023-06-02	07:26:21	0	0	63f5c99a1cecb4136b93f7db	1	1	DL_test	14	DL_test	23			0		ka	1	358	6	2	antiphase_hc_ios.wav	3	6	1	noise_calib_stim_LEFT.wav	1	23	blb_dichoticlistening_ka-pa.mp3	ka	pa	1	left
6.6.3	ios	2023-06-02	07:26:21	0	0	63f5c99a1cecb4136b93f7db	1	1	DL_test	14	DL_test	24			0		ka	0	516	6	2	antiphase_hc_ios.wav	3	6	1	noise_calib_stim_LEFT.wav	1	3	blb_dichoticlistening_ba-ga.mp3	ba	ga	1	other
6.6.3	ios	2023-06-02	07:26:21	0	0	63f5c99a1cecb4136b93f7db	1	1	DL_test	14	DL_test	25			0		ka	1	1166	6	2	antiphase_hc_ios.wav	3	6	1	noise_calib_stim_LEFT.wav	1	34	blb_dichoticlistening_ta-ka.mp3	ta	ka	1	right
6.6.3	ios	2023-06-02	07:26:21	0	0	63f5c99a1cecb4136b93f7db	1	1	DL_test	14	DL_test	26			0		ka	0	459	6	2	antiphase_hc_ios.wav	3	6	1	noise_calib_stim_LEFT.wav	1	17	blb_dichoticlistening_ga-pa.mp3	ga	pa	1	other
6.6.3	ios	2023-06-02	07:26:21	0	0	63f5c99a1cecb4136b93f7db	1	1	DL_test	14	DL_test	27			0		ga	0	34	6	2	antiphase_hc_ios.wav	3	6	1	noise_calib_stim_LEFT.wav	1	2	blb_dichoticlistening_ba-da.mp3	ba	da	1	other
6.6.3	ios	2023-06-02	07:26:21	0	0	63f5c99a1cecb4136b93f7db	1	1	DL_test	14	DL_test	28			0		ka	0	250	6	2	antiphase_hc_ios.wav	3	6	1	noise_calib_stim_LEFT.wav	1	12	blb_dichoticlistening_da-ta.mp3	da	ta	1	other
6.6.3	ios	2023-06-02	07:26:21	0	0	63f5c99a1cecb4136b93f7db	1	1	DL_test	14	DL_test	29			0		ka	0	34	6	2	antiphase_hc_ios.wav	3	6	1	noise_calib_stim_LEFT.wav	1	9	blb_dichoticlistening_da-ga.mp3	da	ga	1	other
6.6.3	ios	2023-06-02	07:26:21	0	0	63f5c99a1cecb4136b93f7db	1	1	DL_test	14	DL_test	30			0		ka	0	226	6	2	antiphase_hc_ios.wav	3	6	1	noise_calib_stim_LEFT.wav	1	8	blb_dichoticlistening_da-da.mp3	da	da	0	other
6.6.3	ios	2023-06-02	07:26:21	0	0	63f5c99a1cecb4136b93f7db	1	1	DL_test	14	DL_test	31			0		ka	0	326	6	2	antiphase_hc_ios.wav	3	6	1	noise_calib_stim_LEFT.wav	1	27	blb_dichoticlistening_pa-ga.mp3	pa	ga	1	other
6.6.3	ios	2023-06-02	07:26:21	0	0	63f5c99a1cecb4136b93f7db	1	1	DL_test	14	DL_test	32			0		ga	0	101	6	2	antiphase_hc_ios.wav	3	6	1	noise_calib_stim_LEFT.wav	1	7	blb_dichoticlistening_da-ba.mp3	da	ba	1	other
6.6.3	ios	2023-06-02	07:26:21	0	0	63f5c99a1cecb4136b93f7db	1	1	DL_test	14	DL_test	33			0		ga	0	100	6	2	antiphase_hc_ios.wav	3	6	1	noise_calib_stim_LEFT.wav	1	24	blb_dichoticlistening_ka-ta.mp3	ka	ta	1	other
6.6.3	ios	2023-06-02	07:26:21	0	0	63f5c99a1cecb4136b93f7db	1	1	DL_test	14	DL_test	34			0		ta	0	591	6	2	antiphase_hc_ios.wav	3	6	1	noise_calib_stim_LEFT.wav	1	15	blb_dichoticlistening_ga-ga.mp3	ga	ga	0	other
6.6.3	ios	2023-06-02	07:26:21	0	0	63f5c99a1cecb4136b93f7db	1	1	DL_test	14	DL_test	35			0		pa	1	550	6	2	antiphase_hc_ios.wav	3	6	1	noise_calib_stim_LEFT.wav	1	5	blb_dichoticlistening_ba-pa.mp3	ba	pa	1	right
6.6.3	ios	2023-06-02	07:26:21	0	0	63f5c99a1cecb4136b93f7db	1	1	DL_test	14	DL_test	36			0		ka	0	342	6	2	antiphase_hc_ios.wav	3	6	1	noise_calib_stim_LEFT.wav	1	14	blb_dichoticlistening_ga-da.mp3	ga	da	1	other
6.6.3	ios	2023-06-02	07:26:21	0	0	63f5c99a1cecb4136b93f7db	1	1	DL_test	15	DL_test	1			0		ga	1	574	6	2	antiphase_hc_ios.wav	3	6	1	noise_calib_stim_LEFT.wav	1	17	blb_dichoticlistening_ga-pa.mp3	ga	pa	1	left
6.6.3	ios	2023-06-02	07:26:21	0	0	63f5c99a1cecb4136b93f7db	1	1	DL_test	15	DL_test	2			0		ga	0	102	6	2	antiphase_hc_ios.wav	3	6	1	noise_calib_stim_LEFT.wav	1	2	blb_dichoticlistening_ba-da.mp3	ba	da	1	other
6.6.3	ios	2023-06-02	07:26:21	0	0	63f5c99a1cecb4136b93f7db	1	1	DL_test	15	DL_test	3			0		ka	0	676	6	2	antiphase_hc_ios.wav	3	6	1	noise_calib_stim_LEFT.wav	1	13	blb_dichoticlistening_ga-ba.mp3	ga	ba	1	other
6.6.3	ios	2023-06-02	07:26:21	0	0	63f5c99a1cecb4136b93f7db	1	1	DL_test	15	DL_test	4			0		pa	1	9	6	2	antiphase_hc_ios.wav	3	6	1	noise_calib_stim_LEFT.wav	1	23	blb_dichoticlistening_ka-pa.mp3	ka	pa	1	right
6.6.3	ios	2023-06-02	07:26:21	0	0	63f5c99a1cecb4136b93f7db	1	1	DL_test	15	DL_test	5			0		pa	0	417	6	2	antiphase_hc_ios.wav	3	6	1	noise_calib_stim_LEFT.wav	1	32	blb_dichoticlistening_ta-da.mp3	ta	da	1	other
6.6.3	ios	2023-06-02	07:26:21	0	0	63f5c99a1cecb4136b93f7db	1	1	DL_test	15	DL_test	6			0		ka	0	9	6	2	antiphase_hc_ios.wav	3	6	1	noise_calib_stim_LEFT.wav	1	29	blb_dichoticlistening_pa-pa.mp3	pa	pa	0	other
6.6.3	ios	2023-06-02	07:26:21	0	0	63f5c99a1cecb4136b93f7db	1	1	DL_test	15	DL_test	7			0		ka	0	4219	6	2	antiphase_hc_ios.wav	3	6	1	noise_calib_stim_LEFT.wav	1	1	blb_dichoticlistening_ba-ba.mp3	ba	ba	0	other
6.6.3	ios	2023-06-02	07:26:21	0	0	63f5c99a1cecb4136b93f7db	1	1	DL_test	15	DL_test	8			0		ga	0	167	6	2	antiphase_hc_ios.wav	3	6	1	noise_calib_stim_LEFT.wav	1	8	blb_dichoticlistening_da-da.mp3	da	da	0	other
6.6.3	ios	2023-06-02	07:26:21	0	0	63f5c99a1cecb4136b93f7db	1	1	DL_test	15	DL_test	9			0		pa	1	67	6	2	antiphase_hc_ios.wav	3	6	1	noise_calib_stim_LEFT.wav	1	27	blb_dichoticlistening_pa-ga.mp3	pa	ga	1	left
6.6.3	ios	2023-06-02	07:26:21	0	0	63f5c99a1cecb4136b93f7db	1	1	DL_test	15	DL_test	10			0		ka	0	1591	6	2	antiphase_hc_ios.wav	3	6	1	noise_calib_stim_LEFT.wav	1	6	blb_dichoticlistening_ba-ta.mp3	ba	ta	1	other
6.6.3	ios	2023-06-02	07:26:21	0	0	63f5c99a1cecb4136b93f7db	1	1	DL_test	15	DL_test	11			0		ka	1	1225	6	2	antiphase_hc_ios.wav	3	6	1	noise_calib_stim_LEFT.wav	1	21	blb_dichoticlistening_ka-ga.mp3	ka	ga	1	left
6.6.3	ios	2023-06-02	07:26:21	0	0	63f5c99a1cecb4136b93f7db	1	1	DL_test	15	DL_test	12			0		ka	0	59	6	2	antiphase_hc_ios.wav	3	6	1	noise_calib_stim_LEFT.wav	1	30	blb_dichoticlistening_pa-ta.mp3	pa	ta	1	other
6.6.3	ios	2023-06-02	07:26:21	0	0	63f5c99a1cecb4136b93f7db	1	1	DL_test	15	DL_test	13			0		ka	1	118	6	2	antiphase_hc_ios.wav	3	6	1	noise_calib_stim_LEFT.wav	1	16	blb_dichoticlistening_ga-ka.mp3	ga	ka	1	right
6.6.3	ios	2023-06-02	07:26:21	0	0	63f5c99a1cecb4136b93f7db	1	1	DL_test	15	DL_test	14			0		ba	0	18	6	2	antiphase_hc_ios.wav	3	6	1	noise_calib_stim_LEFT.wav	1	35	blb_dichoticlistening_ta-pa.mp3	ta	pa	1	other
6.6.3	ios	2023-06-02	07:26:21	0	0	63f5c99a1cecb4136b93f7db	1	1	DL_test	15	DL_test	15			0		ka	0	51	6	2	antiphase_hc_ios.wav	3	6	1	noise_calib_stim_LEFT.wav	1	9	blb_dichoticlistening_da-ga.mp3	da	ga	1	other
6.6.3	ios	2023-06-02	07:26:21	0	0	63f5c99a1cecb4136b93f7db	1	1	DL_test	15	DL_test	16			0		ba	0	400	6	2	antiphase_hc_ios.wav	3	6	1	noise_calib_stim_LEFT.wav	1	34	blb_dichoticlistening_ta-ka.mp3	ta	ka	1	other
6.6.3	ios	2023-06-02	07:26:21	0	0	63f5c99a1cecb4136b93f7db	1	1	DL_test	15	DL_test	17			0		ba	1	127	6	2	antiphase_hc_ios.wav	3	6	1	noise_calib_stim_LEFT.wav	1	19	blb_dichoticlistening_ka-ba.mp3	ka	ba	1	right
6.6.3	ios	2023-06-02	07:26:21	0	0	63f5c99a1cecb4136b93f7db	1	1	DL_test	15	DL_test	18			0		ka	0	126	6	2	antiphase_hc_ios.wav	3	6	1	noise_calib_stim_LEFT.wav	1	31	blb_dichoticlistening_ta-ba.mp3	ta	ba	1	other
6.6.3	ios	2023-06-02	07:26:21	0	0	63f5c99a1cecb4136b93f7db	1	1	DL_test	15	DL_test	19			0		ba	0	10	6	2	antiphase_hc_ios.wav	3	6	1	noise_calib_stim_LEFT.wav	1	20	blb_dichoticlistening_ka-da.mp3	ka	da	1	other
6.6.3	ios	2023-06-02	07:26:21	0	0	63f5c99a1cecb4136b93f7db	1	1	DL_test	15	DL_test	20			0		ba	0	133	6	2	antiphase_hc_ios.wav	3	6	1	noise_calib_stim_LEFT.wav	1	11	blb_dichoticlistening_da-pa.mp3	da	pa	1	other
6.6.3	ios	2023-06-02	07:26:21	0	0	63f5c99a1cecb4136b93f7db	1	1	DL_test	15	DL_test	21			0		ka	0	68	6	2	antiphase_hc_ios.wav	3	6	1	noise_calib_stim_LEFT.wav	1	3	blb_dichoticlistening_ba-ga.mp3	ba	ga	1	other
6.6.3	ios	2023-06-02	07:26:21	0	0	63f5c99a1cecb4136b93f7db	1	1	DL_test	15	DL_test	22			0		ka	0	67	6	2	antiphase_hc_ios.wav	3	6	1	noise_calib_stim_LEFT.wav	1	15	blb_dichoticlistening_ga-ga.mp3	ga	ga	0	other
6.6.3	ios	2023-06-02	07:26:21	0	0	63f5c99a1cecb4136b93f7db	1	1	DL_test	15	DL_test	23			0		ka	0	143	6	2	antiphase_hc_ios.wav	3	6	1	noise_calib_stim_LEFT.wav	1	12	blb_dichoticlistening_da-ta.mp3	da	ta	1	other
6.6.3	ios	2023-06-02	07:26:21	0	0	63f5c99a1cecb4136b93f7db	1	1	DL_test	15	DL_test	24			0		ka	1	35	6	2	antiphase_hc_ios.wav	3	6	1	noise_calib_stim_LEFT.wav	1	10	blb_dichoticlistening_da-ka.mp3	da	ka	1	right
6.6.3	ios	2023-06-02	07:26:21	0	0	63f5c99a1cecb4136b93f7db	1	1	DL_test	15	DL_test	25			0		ka	0	59	6	2	antiphase_hc_ios.wav	3	6	1	noise_calib_stim_LEFT.wav	1	26	blb_dichoticlistening_pa-da.mp3	pa	da	1	other
6.6.3	ios	2023-06-02	07:26:21	0	0	63f5c99a1cecb4136b93f7db	1	1	DL_test	15	DL_test	26			0		ka	1	93	6	2	antiphase_hc_ios.wav	3	6	1	noise_calib_stim_LEFT.wav	1	24	blb_dichoticlistening_ka-ta.mp3	ka	ta	1	left
6.6.3	ios	2023-06-02	07:26:21	0	0	63f5c99a1cecb4136b93f7db	1	1	DL_test	15	DL_test	27			0		ka	0	84	6	2	antiphase_hc_ios.wav	3	6	1	noise_calib_stim_LEFT.wav	1	18	blb_dichoticlistening_ga-ta.mp3	ga	ta	1	other
6.6.3	ios	2023-06-02	07:26:21	0	0	63f5c99a1cecb4136b93f7db	1	1	DL_test	15	DL_test	28			0		ba	0	384	6	2	antiphase_hc_ios.wav	3	6	1	noise_calib_stim_LEFT.wav	1	33	blb_dichoticlistening_ta-ga.mp3	ta	ga	1	other
6.6.3	ios	2023-06-02	07:26:21	0	0	63f5c99a1cecb4136b93f7db	1	1	DL_test	15	DL_test	29			0		ba	0	118	6	2	antiphase_hc_ios.wav	3	6	1	noise_calib_stim_LEFT.wav	1	36	blb_dichoticlistening_ta-ta.mp3	ta	ta	0	other
6.6.3	ios	2023-06-02	07:26:21	0	0	63f5c99a1cecb4136b93f7db	1	1	DL_test	15	DL_test	30			0		ba	1	217	6	2	antiphase_hc_ios.wav	3	6	1	noise_calib_stim_LEFT.wav	1	5	blb_dichoticlistening_ba-pa.mp3	ba	pa	1	left
6.6.3	ios	2023-06-02	07:26:21	0	0	63f5c99a1cecb4136b93f7db	1	1	DL_test	15	DL_test	31			0		ka	0	143	6	2	antiphase_hc_ios.wav	3	6	1	noise_calib_stim_LEFT.wav	1	14	blb_dichoticlistening_ga-da.mp3	ga	da	1	other
6.6.3	ios	2023-06-02	07:26:21	0	0	63f5c99a1cecb4136b93f7db	1	1	DL_test	15	DL_test	32			0		ga	0	483	6	2	antiphase_hc_ios.wav	3	6	1	noise_calib_stim_LEFT.wav	1	28	blb_dichoticlistening_pa-ka.mp3	pa	ka	1	other
6.6.3	ios	2023-06-02	07:26:21	0	0	63f5c99a1cecb4136b93f7db	1	1	DL_test	15	DL_test	33			0		ga	0	2547	6	2	antiphase_hc_ios.wav	3	6	1	noise_calib_stim_LEFT.wav	1	25	blb_dichoticlistening_pa-ba.mp3	pa	ba	1	other
6.6.3	ios	2023-06-02	07:26:21	0	0	63f5c99a1cecb4136b93f7db	1	1	DL_test	15	DL_test	34			0		ga	0	384	6	2	antiphase_hc_ios.wav	3	6	1	noise_calib_stim_LEFT.wav	1	22	blb_dichoticlistening_ka-ka.mp3	ka	ka	0	other
6.6.3	ios	2023-06-02	07:26:21	0	0	63f5c99a1cecb4136b93f7db	1	1	DL_test	15	DL_test	35			0		ga	0	10	6	2	antiphase_hc_ios.wav	3	6	1	noise_calib_stim_LEFT.wav	1	4	blb_dichoticlistening_ba-ka.mp3	ba	ka	1	other
6.6.3	ios	2023-06-02	07:26:21	0	0	63f5c99a1cecb4136b93f7db	1	1	DL_test	15	DL_test	36			0		pa	0	84	6	2	antiphase_hc_ios.wav	3	6	1	noise_calib_stim_LEFT.wav	1	7	blb_dichoticlistening_da-ba.mp3	da	ba	1	other
6.6.3	ios	2023-06-02	07:26:21	0	0	63f5c99a1cecb4136b93f7db	1	1	DL_test	16	DL_test	1			0		da	1	1205	6	2	antiphase_hc_ios.wav	3	6	1	noise_calib_stim_LEFT.wav	1	8	blb_dichoticlistening_da-da.mp3	da	da	0	left
6.6.3	ios	2023-06-02	07:26:21	0	0	63f5c99a1cecb4136b93f7db	1	1	DL_test	16	DL_test	2			0		pa	1	1249	6	2	antiphase_hc_ios.wav	3	6	1	noise_calib_stim_LEFT.wav	1	5	blb_dichoticlistening_ba-pa.mp3	ba	pa	1	right
6.6.3	ios	2023-06-02	07:26:21	0	0	63f5c99a1cecb4136b93f7db	1	1	DL_test	16	DL_test	3			0		da	1	1016	6	2	antiphase_hc_ios.wav	3	6	1	noise_calib_stim_LEFT.wav	1	32	blb_dichoticlistening_ta-da.mp3	ta	da	1	right
6.6.3	ios	2023-06-02	07:26:21	0	0	63f5c99a1cecb4136b93f7db	1	1	DL_test	16	DL_test	4			0		pa	1	185	6	2	antiphase_hc_ios.wav	3	6	1	noise_calib_stim_LEFT.wav	1	27	blb_dichoticlistening_pa-ga.mp3	pa	ga	1	left
6.6.3	ios	2023-06-02	07:26:21	0	0	63f5c99a1cecb4136b93f7db	1	1	DL_test	16	DL_test	5			0		ka	0	217	6	2	antiphase_hc_ios.wav	3	6	1	noise_calib_stim_LEFT.wav	1	1	blb_dichoticlistening_ba-ba.mp3	ba	ba	0	other
6.6.3	ios	2023-06-02	07:26:21	0	0	63f5c99a1cecb4136b93f7db	1	1	DL_test	16	DL_test	6			0		pa	0	550	6	2	antiphase_hc_ios.wav	3	6	1	noise_calib_stim_LEFT.wav	1	15	blb_dichoticlistening_ga-ga.mp3	ga	ga	0	other
6.6.3	ios	2023-06-02	07:26:21	0	0	63f5c99a1cecb4136b93f7db	1	1	DL_test	16	DL_test	7			0		ba	0	392	6	2	antiphase_hc_ios.wav	3	6	1	noise_calib_stim_LEFT.wav	1	24	blb_dichoticlistening_ka-ta.mp3	ka	ta	1	other
6.6.3	ios	2023-06-02	07:26:21	0	0	63f5c99a1cecb4136b93f7db	1	1	DL_test	16	DL_test	8			0		ta	0	1507	6	2	antiphase_hc_ios.wav	3	6	1	noise_calib_stim_LEFT.wav	1	28	blb_dichoticlistening_pa-ka.mp3	pa	ka	1	other
6.6.3	ios	2023-06-02	07:26:21	0	0	63f5c99a1cecb4136b93f7db	1	1	DL_test	16	DL_test	9			0		ka	0	417	6	2	antiphase_hc_ios.wav	3	6	1	noise_calib_stim_LEFT.wav	1	29	blb_dichoticlistening_pa-pa.mp3	pa	pa	0	other
6.6.3	ios	2023-06-02	07:26:21	0	0	63f5c99a1cecb4136b93f7db	1	1	DL_test	16	DL_test	10			0		ka	1	68	6	2	antiphase_hc_ios.wav	3	6	1	noise_calib_stim_LEFT.wav	1	34	blb_dichoticlistening_ta-ka.mp3	ta	ka	1	right
6.6.3	ios	2023-06-02	07:26:21	0	0	63f5c99a1cecb4136b93f7db	1	1	DL_test	16	DL_test	11			0		pa	1	101	6	2	antiphase_hc_ios.wav	3	6	1	noise_calib_stim_LEFT.wav	1	26	blb_dichoticlistening_pa-da.mp3	pa	da	1	left
6.6.3	ios	2023-06-02	07:26:21	0	0	63f5c99a1cecb4136b93f7db	1	1	DL_test	16	DL_test	12			0		pa	1	77	6	2	antiphase_hc_ios.wav	3	6	1	noise_calib_stim_LEFT.wav	1	17	blb_dichoticlistening_ga-pa.mp3	ga	pa	1	right
6.6.3	ios	2023-06-02	07:26:21	0	0	63f5c99a1cecb4136b93f7db	1	1	DL_test	16	DL_test	13			0		ta	1	10	6	2	antiphase_hc_ios.wav	3	6	1	noise_calib_stim_LEFT.wav	1	30	blb_dichoticlistening_pa-ta.mp3	pa	ta	1	right
6.6.3	ios	2023-06-02	07:26:21	0	0	63f5c99a1cecb4136b93f7db	1	1	DL_test	16	DL_test	14			0		ka	0	26	6	2	antiphase_hc_ios.wav	3	6	1	noise_calib_stim_LEFT.wav	1	35	blb_dichoticlistening_ta-pa.mp3	ta	pa	1	other
6.6.3	ios	2023-06-02	07:26:21	0	0	63f5c99a1cecb4136b93f7db	1	1	DL_test	16	DL_test	15			0		ka	0	1907	6	2	antiphase_hc_ios.wav	3	6	1	noise_calib_stim_LEFT.wav	1	31	blb_dichoticlistening_ta-ba.mp3	ta	ba	1	other
6.6.3	ios	2023-06-02	07:26:21	0	0	63f5c99a1cecb4136b93f7db	1	1	DL_test	16	DL_test	16			0		da	1	825	6	2	antiphase_hc_ios.wav	3	6	1	noise_calib_stim_LEFT.wav	1	11	blb_dichoticlistening_da-pa.mp3	da	pa	1	left
6.6.3	ios	2023-06-02	07:26:21	0	0	63f5c99a1cecb4136b93f7db	1	1	DL_test	16	DL_test	17			0		ta	1	1041	6	2	antiphase_hc_ios.wav	3	6	1	noise_calib_stim_LEFT.wav	1	36	blb_dichoticlistening_ta-ta.mp3	ta	ta	0	left
6.6.3	ios	2023-06-02	07:26:21	0	0	63f5c99a1cecb4136b93f7db	1	1	DL_test	16	DL_test	18			0		pa	0	251	6	2	antiphase_hc_ios.wav	3	6	1	noise_calib_stim_LEFT.wav	1	22	blb_dichoticlistening_ka-ka.mp3	ka	ka	0	other
6.6.3	ios	2023-06-02	07:26:21	0	0	63f5c99a1cecb4136b93f7db	1	1	DL_test	16	DL_test	19			0		pa	0	60	6	2	antiphase_hc_ios.wav	3	6	1	noise_calib_stim_LEFT.wav	1	13	blb_dichoticlistening_ga-ba.mp3	ga	ba	1	other
6.6.3	ios	2023-06-02	07:26:21	0	0	63f5c99a1cecb4136b93f7db	1	1	DL_test	16	DL_test	20			0		pa	1	475	6	2	antiphase_hc_ios.wav	3	6	1	noise_calib_stim_LEFT.wav	1	23	blb_dichoticlistening_ka-pa.mp3	ka	pa	1	right
6.6.3	ios	2023-06-02	07:26:21	0	0	63f5c99a1cecb4136b93f7db	1	1	DL_test	16	DL_test	21			0		da	0	60	6	2	antiphase_hc_ios.wav	3	6	1	noise_calib_stim_LEFT.wav	1	4	blb_dichoticlistening_ba-ka.mp3	ba	ka	1	other
6.6.3	ios	2023-06-02	07:26:21	0	0	63f5c99a1cecb4136b93f7db	1	1	DL_test	16	DL_test	22			0		da	0	0	6	2	antiphase_hc_ios.wav	3	6	1	noise_calib_stim_LEFT.wav	1	3	blb_dichoticlistening_ba-ga.mp3	ba	ga	1	other
6.6.3	ios	2023-06-02	07:26:21	0	0	63f5c99a1cecb4136b93f7db	1	1	DL_test	16	DL_test	23			0		pa	0	109	6	2	antiphase_hc_ios.wav	3	6	1	noise_calib_stim_LEFT.wav	1	6	blb_dichoticlistening_ba-ta.mp3	ba	ta	1	other
6.6.3	ios	2023-06-02	07:26:21	0	0	63f5c99a1cecb4136b93f7db	1	1	DL_test	16	DL_test	24			0		ka	0	3155	6	2	antiphase_hc_ios.wav	3	6	1	noise_calib_stim_LEFT.wav	1	25	blb_dichoticlistening_pa-ba.mp3	pa	ba	1	other
6.6.3	ios	2023-06-02	07:26:21	0	0	63f5c99a1cecb4136b93f7db	1	1	DL_test	16	DL_test	25			0		ka	1	1017	6	2	antiphase_hc_ios.wav	3	6	1	noise_calib_stim_LEFT.wav	1	16	blb_dichoticlistening_ga-ka.mp3	ga	ka	1	right
6.6.3	ios	2023-06-02	07:26:21	0	0	63f5c99a1cecb4136b93f7db	1	1	DL_test	16	DL_test	26			0		da	0	234	6	2	antiphase_hc_ios.wav	3	6	1	noise_calib_stim_LEFT.wav	1	18	blb_dichoticlistening_ga-ta.mp3	ga	ta	1	other
6.6.3	ios	2023-06-02	07:26:21	0	0	63f5c99a1cecb4136b93f7db	1	1	DL_test	16	DL_test	27			0		da	1	35	6	2	antiphase_hc_ios.wav	3	6	1	noise_calib_stim_LEFT.wav	1	14	blb_dichoticlistening_ga-da.mp3	ga	da	1	right
6.6.3	ios	2023-06-02	07:26:21	0	0	63f5c99a1cecb4136b93f7db	1	1	DL_test	16	DL_test	28			0		pa	0	142	6	2	antiphase_hc_ios.wav	3	6	1	noise_calib_stim_LEFT.wav	1	9	blb_dichoticlistening_da-ga.mp3	da	ga	1	other
6.6.3	ios	2023-06-02	07:26:21	0	0	63f5c99a1cecb4136b93f7db	1	1	DL_test	16	DL_test	29			0		ka	1	410	6	2	antiphase_hc_ios.wav	3	6	1	noise_calib_stim_LEFT.wav	1	21	blb_dichoticlistening_ka-ga.mp3	ka	ga	1	left
6.6.3	ios	2023-06-02	07:26:21	0	0	63f5c99a1cecb4136b93f7db	1	1	DL_test	16	DL_test	30			0		ka	0	509	6	2	antiphase_hc_ios.wav	3	6	1	noise_calib_stim_LEFT.wav	1	2	blb_dichoticlistening_ba-da.mp3	ba	da	1	other
6.6.3	ios	2023-06-02	07:26:21	0	0	63f5c99a1cecb4136b93f7db	1	1	DL_test	16	DL_test	31			0		ka	1	60	6	2	antiphase_hc_ios.wav	3	6	1	noise_calib_stim_LEFT.wav	1	20	blb_dichoticlistening_ka-da.mp3	ka	da	1	left
6.6.3	ios	2023-06-02	07:26:21	0	0	63f5c99a1cecb4136b93f7db	1	1	DL_test	16	DL_test	32			0		ka	0	600	6	2	antiphase_hc_ios.wav	3	6	1	noise_calib_stim_LEFT.wav	1	12	blb_dichoticlistening_da-ta.mp3	da	ta	1	other
6.6.3	ios	2023-06-02	07:26:21	0	0	63f5c99a1cecb4136b93f7db	1	1	DL_test	16	DL_test	33			0		ka	0	59	6	2	antiphase_hc_ios.wav	3	6	1	noise_calib_stim_LEFT.wav	1	7	blb_dichoticlistening_da-ba.mp3	da	ba	1	other
6.6.3	ios	2023-06-02	07:26:21	0	0	63f5c99a1cecb4136b93f7db	1	1	DL_test	16	DL_test	34			0		ka	1	442	6	2	antiphase_hc_ios.wav	3	6	1	noise_calib_stim_LEFT.wav	1	19	blb_dichoticlistening_ka-ba.mp3	ka	ba	1	left
6.6.3	ios	2023-06-02	07:26:21	0	0	63f5c99a1cecb4136b93f7db	1	1	DL_test	16	DL_test	35			0		ka	1	60	6	2	antiphase_hc_ios.wav	3	6	1	noise_calib_stim_LEFT.wav	1	10	blb_dichoticlistening_da-ka.mp3	da	ka	1	right
6.6.3	ios	2023-06-02	07:26:21	0	0	63f5c99a1cecb4136b93f7db	1	1	DL_test	16	DL_test	36			0		ka	0	308	6	2	antiphase_hc_ios.wav	3	6	1	noise_calib_stim_LEFT.wav	1	33	blb_dichoticlistening_ta-ga.mp3	ta	ga	1	other
6.6.3	ios	2023-06-02	07:26:21	07:33:09	332175	63f5c99a1cecb4136b93f7db	1	1	practice_slash	22	practice_slash	1	stimuli_distractor_trianglediamonds.svg	stimuli_target_diamondrectangles.svg	12	yes	53	1	254	6	2	antiphase_hc_ios.wav	3	6	1	noise_calib_stim_LEFT.wav	1	33	blb_dichoticlistening_ta-ga.mp3	ta	ga	1	other
6.6.3	ios	2023-06-02	07:26:21	07:33:09	332175	63f5c99a1cecb4136b93f7db	1	1	practice_slash	22	advance_on_keypress_SLASH	2	stimuli_distractor_trianglediamonds.svg	stimuli_target_diamondrectangles.svg	12	yes	57	0	139	6	2	antiphase_hc_ios.wav	3	6	1	noise_calib_stim_LEFT.wav	1	33	blb_dichoticlistening_ta-ga.mp3	ta	ga	1	other
6.6.3	ios	2023-06-02	07:26:21	07:33:11	334200	63f5c99a1cecb4136b93f7db	1	1	practice_slash	22	practice_slash	3	stimuli_distractor_diamondtriangles.svg	stimuli_target_rectangletriangles.svg	7	yes	53	1	167	6	2	antiphase_hc_ios.wav	3	6	1	noise_calib_stim_LEFT.wav	1	33	blb_dichoticlistening_ta-ga.mp3	ta	ga	1	other
6.6.3	ios	2023-06-02	07:26:21	07:33:11	334200	63f5c99a1cecb4136b93f7db	1	1	practice_slash	22	advance_on_keypress_SLASH	4	stimuli_distractor_diamondtriangles.svg	stimuli_target_rectangletriangles.svg	7	yes	57	0	123	6	2	antiphase_hc_ios.wav	3	6	1	noise_calib_stim_LEFT.wav	1	33	blb_dichoticlistening_ta-ga.mp3	ta	ga	1	other
6.6.3	ios	2023-06-02	07:26:21	07:33:13	336202	63f5c99a1cecb4136b93f7db	1	1	practice_slash	22	practice_slash	5	stimuli_target_squarediamonds.svg	stimuli_distractor_trianglediamonds.svg	5	yes	53	1	201	6	2	antiphase_hc_ios.wav	3	6	1	noise_calib_stim_LEFT.wav	1	33	blb_dichoticlistening_ta-ga.mp3	ta	ga	1	other
6.6.3	ios	2023-06-02	07:26:21	07:33:13	336202	63f5c99a1cecb4136b93f7db	1	1	practice_slash	22	advance_on_keypress_SLASH	6	stimuli_target_squarediamonds.svg	stimuli_distractor_trianglediamonds.svg	5	yes	57	0	148	6	2	antiphase_hc_ios.wav	3	6	1	noise_calib_stim_LEFT.wav	1	33	blb_dichoticlistening_ta-ga.mp3	ta	ga	1	other
6.6.3	ios	2023-06-02	07:26:21	07:33:15	338540	63f5c99a1cecb4136b93f7db	1	1	practice_slash	22	practice_slash	7	stimuli_distractor_diamondtriangles.svg	stimuli_distractor_trianglediamonds.svg	14	no	53	0	524	6	2	antiphase_hc_ios.wav	3	6	1	noise_calib_stim_LEFT.wav	1	33	blb_dichoticlistening_ta-ga.mp3	ta	ga	1	other
6.6.3	ios	2023-06-02	07:26:21	07:33:15	338540	63f5c99a1cecb4136b93f7db	1	1	practice_slash	22	advance_on_keypress_SLASH	8	stimuli_distractor_diamondtriangles.svg	stimuli_distractor_trianglediamonds.svg	14	no	57	0	97	6	2	antiphase_hc_ios.wav	3	6	1	noise_calib_stim_LEFT.wav	1	33	blb_dichoticlistening_ta-ga.mp3	ta	ga	1	other
6.6.3	ios	2023-06-02	07:26:21	07:33:17	340353	63f5c99a1cecb4136b93f7db	1	1	practice_slash	22	practice_slash	9	stimuli_target_squarediamonds.svg	stimuli_distractor_diamondtriangles.svg	2	yes	53	1	44	6	2	antiphase_hc_ios.wav	3	6	1	noise_calib_stim_LEFT.wav	1	33	blb_dichoticlistening_ta-ga.mp3	ta	ga	1	other
6.6.3	ios	2023-06-02	07:26:21	07:33:17	340353	63f5c99a1cecb4136b93f7db	1	1	practice_slash	22	advance_on_keypress_SLASH	10	stimuli_target_squarediamonds.svg	stimuli_distractor_diamondtriangles.svg	2	yes	57	0	9693	6	2	antiphase_hc_ios.wav	3	6	1	noise_calib_stim_LEFT.wav	1	33	blb_dichoticlistening_ta-ga.mp3	ta	ga	1	other
6.6.3	ios	2023-06-02	07:26:21	07:33:30	353181	63f5c99a1cecb4136b93f7db	1	1	practice_slash	22	practice_slash	11	stimuli_target_diamondsquares.svg	stimuli_distractor_trianglediamonds.svg	6	yes	53	1	1457	6	2	antiphase_hc_ios.wav	3	6	1	noise_calib_stim_LEFT.wav	1	33	blb_dichoticlistening_ta-ga.mp3	ta	ga	1	other
6.6.3	ios	2023-06-02	07:26:21	07:33:30	353181	63f5c99a1cecb4136b93f7db	1	1	practice_slash	22	advance_on_keypress_SLASH	12	stimuli_target_diamondsquares.svg	stimuli_distractor_trianglediamonds.svg	6	yes	57	0	222	6	2	antiphase_hc_ios.wav	3	6	1	noise_calib_stim_LEFT.wav	1	33	blb_dichoticlistening_ta-ga.mp3	ta	ga	1	other
6.6.3	ios	2023-06-02	07:26:21	07:33:32	355195	63f5c99a1cecb4136b93f7db	1	1	practice_slash	22	practice_slash	13	stimuli_distractor_trianglediamonds.svg	stimuli_target_squarediamonds.svg	11	yes	53	1	93	6	2	antiphase_hc_ios.wav	3	6	1	noise_calib_stim_LEFT.wav	1	33	blb_dichoticlistening_ta-ga.mp3	ta	ga	1	other
6.6.3	ios	2023-06-02	07:26:21	07:33:32	355195	63f5c99a1cecb4136b93f7db	1	1	practice_slash	22	advance_on_keypress_SLASH	14	stimuli_distractor_trianglediamonds.svg	stimuli_target_squarediamonds.svg	11	yes	57	0	105	6	2	antiphase_hc_ios.wav	3	6	1	noise_calib_stim_LEFT.wav	1	33	blb_dichoticlistening_ta-ga.mp3	ta	ga	1	other
6.6.3	ios	2023-06-02	07:26:21	07:33:34	357024	63f5c99a1cecb4136b93f7db	1	1	practice_slash	22	practice_slash	15	stimuli_distractor_diamondtriangles.svg	stimuli_distractor_diamondtriangles.svg	13	no	53	0	42	6	2	antiphase_hc_ios.wav	3	6	1	noise_calib_stim_LEFT.wav	1	33	blb_dichoticlistening_ta-ga.mp3	ta	ga	1	other
6.6.3	ios	2023-06-02	07:26:21	07:33:34	357024	63f5c99a1cecb4136b93f7db	1	1	practice_slash	22	advance_on_keypress_SLASH	16	stimuli_distractor_diamondtriangles.svg	stimuli_distractor_diamondtriangles.svg	13	no	57	0	120	6	2	antiphase_hc_ios.wav	3	6	1	noise_calib_stim_LEFT.wav	1	33	blb_dichoticlistening_ta-ga.mp3	ta	ga	1	other
6.6.3	ios	2023-06-02	07:26:21	07:33:36	358862	63f5c99a1cecb4136b93f7db	1	1	practice_slash	22	practice_slash	17	stimuli_distractor_trianglediamonds.svg	stimuli_distractor_trianglediamonds.svg	15	no	53	0	35	6	2	antiphase_hc_ios.wav	3	6	1	noise_calib_stim_LEFT.wav	1	33	blb_dichoticlistening_ta-ga.mp3	ta	ga	1	other
6.6.3	ios	2023-06-02	07:26:21	07:33:36	358862	63f5c99a1cecb4136b93f7db	1	1	practice_slash	22	advance_on_keypress_SLASH	18	stimuli_distractor_trianglediamonds.svg	stimuli_distractor_trianglediamonds.svg	15	no	57	0	147	6	2	antiphase_hc_ios.wav	3	6	1	noise_calib_stim_LEFT.wav	1	33	blb_dichoticlistening_ta-ga.mp3	ta	ga	1	other
6.6.3	ios	2023-06-02	07:26:21	07:33:38	360883	63f5c99a1cecb4136b93f7db	1	1	practice_slash	22	practice_slash	19	stimuli_target_rectanglediamonds.svg	stimuli_distractor_trianglediamonds.svg	4	yes	53	1	197	6	2	antiphase_hc_ios.wav	3	6	1	noise_calib_stim_LEFT.wav	1	33	blb_dichoticlistening_ta-ga.mp3	ta	ga	1	other
6.6.3	ios	2023-06-02	07:26:21	07:33:38	360883	63f5c99a1cecb4136b93f7db	1	1	practice_slash	22	advance_on_keypress_SLASH	20	stimuli_target_rectanglediamonds.svg	stimuli_distractor_trianglediamonds.svg	4	yes	57	0	81	6	2	antiphase_hc_ios.wav	3	6	1	noise_calib_stim_LEFT.wav	1	33	blb_dichoticlistening_ta-ga.mp3	ta	ga	1	other
6.6.3	ios	2023-06-02	07:26:21	07:33:39	362667	63f5c99a1cecb4136b93f7db	1	1	practice_slash	22	practice_slash	21	stimuli_distractor_diamondtriangles.svg	stimuli_target_trianglerectangles.svg	9	yes	53	1	18	6	2	antiphase_hc_ios.wav	3	6	1	noise_calib_stim_LEFT.wav	1	33	blb_dichoticlistening_ta-ga.mp3	ta	ga	1	other
6.6.3	ios	2023-06-02	07:26:21	07:33:39	362667	63f5c99a1cecb4136b93f7db	1	1	practice_slash	22	advance_on_keypress_SLASH	22	stimuli_distractor_diamondtriangles.svg	stimuli_target_trianglerectangles.svg	9	yes	57	0	64	6	2	antiphase_hc_ios.wav	3	6	1	noise_calib_stim_LEFT.wav	1	33	blb_dichoticlistening_ta-ga.mp3	ta	ga	1	other
6.6.3	ios	2023-06-02	07:26:21	07:33:41	364447	63f5c99a1cecb4136b93f7db	1	1	practice_slash	22	practice_slash	23	stimuli_target_rectanglediamonds.svg	stimuli_distractor_diamondtriangles.svg	1	yes	53	1	35	6	2	antiphase_hc_ios.wav	3	6	1	noise_calib_stim_LEFT.wav	1	33	blb_dichoticlistening_ta-ga.mp3	ta	ga	1	other
6.6.3	ios	2023-06-02	07:26:21	07:33:41	364447	63f5c99a1cecb4136b93f7db	1	1	practice_slash	22	advance_on_keypress_SLASH	24	stimuli_target_rectanglediamonds.svg	stimuli_distractor_diamondtriangles.svg	1	yes	57	0	131	6	2	antiphase_hc_ios.wav	3	6	1	noise_calib_stim_LEFT.wav	1	33	blb_dichoticlistening_ta-ga.mp3	ta	ga	1	other
6.6.3	ios	2023-06-02	07:26:21	07:33:43	366276	63f5c99a1cecb4136b93f7db	1	1	practice_slash	22	practice_slash	25	stimuli_distractor_trianglediamonds.svg	stimuli_target_rectanglediamonds.svg	10	yes	53	1	27	6	2	antiphase_hc_ios.wav	3	6	1	noise_calib_stim_LEFT.wav	1	33	blb_dichoticlistening_ta-ga.mp3	ta	ga	1	other
6.6.3	ios	2023-06-02	07:26:21	07:33:43	366276	63f5c99a1cecb4136b93f7db	1	1	practice_slash	22	advance_on_keypress_SLASH	26	stimuli_distractor_trianglediamonds.svg	stimuli_target_rectanglediamonds.svg	10	yes	57	0	121	6	2	antiphase_hc_ios.wav	3	6	1	noise_calib_stim_LEFT.wav	1	33	blb_dichoticlistening_ta-ga.mp3	ta	ga	1	other
6.6.3	ios	2023-06-02	07:26:21	07:33:45	368129	63f5c99a1cecb4136b93f7db	1	1	practice_slash	22	practice_slash	27	stimuli_distractor_diamondtriangles.svg	stimuli_target_diamondrectangles.svg	8	yes	53	1	38	6	2	antiphase_hc_ios.wav	3	6	1	noise_calib_stim_LEFT.wav	1	33	blb_dichoticlistening_ta-ga.mp3	ta	ga	1	other
6.6.3	ios	2023-06-02	07:26:21	07:33:45	368129	63f5c99a1cecb4136b93f7db	1	1	practice_slash	22	advance_on_keypress_SLASH	28	stimuli_distractor_diamondtriangles.svg	stimuli_target_diamondrectangles.svg	8	yes	57	0	145	6	2	antiphase_hc_ios.wav	3	6	1	noise_calib_stim_LEFT.wav	1	33	blb_dichoticlistening_ta-ga.mp3	ta	ga	1	other
6.6.3	ios	2023-06-02	07:26:21	07:33:47	369958	63f5c99a1cecb4136b93f7db	1	1	practice_slash	22	practice_slash	29	stimuli_distractor_trianglediamonds.svg	stimuli_distractor_diamondtriangles.svg	16	no	53	0	17	6	2	antiphase_hc_ios.wav	3	6	1	noise_calib_stim_LEFT.wav	1	33	blb_dichoticlistening_ta-ga.mp3	ta	ga	1	other
6.6.3	ios	2023-06-02	07:26:21	07:33:47	369958	63f5c99a1cecb4136b93f7db	1	1	practice_slash	22	advance_on_keypress_SLASH	30	stimuli_distractor_trianglediamonds.svg	stimuli_distractor_diamondtriangles.svg	16	no	57	0	30	6	2	antiphase_hc_ios.wav	3	6	1	noise_calib_stim_LEFT.wav	1	33	blb_dichoticlistening_ta-ga.mp3	ta	ga	1	other
6.6.3	ios	2023-06-02	07:26:21	07:33:49	371881	63f5c99a1cecb4136b93f7db	1	1	practice_slash	22	practice_slash	31	stimuli_target_diamondsquares.svg	stimuli_distractor_diamondtriangles.svg	3	yes	53	1	195	6	2	antiphase_hc_ios.wav	3	6	1	noise_calib_stim_LEFT.wav	1	33	blb_dichoticlistening_ta-ga.mp3	ta	ga	1	other
6.6.3	ios	2023-06-02	07:26:21	07:33:49	371881	63f5c99a1cecb4136b93f7db	1	1	practice_slash	22	advance_on_keypress_SLASH	32	stimuli_target_diamondsquares.svg	stimuli_distractor_diamondtriangles.svg	3	yes	57	0	155	6	2	antiphase_hc_ios.wav	3	6	1	noise_calib_stim_LEFT.wav	1	33	blb_dichoticlistening_ta-ga.mp3	ta	ga	1	other
6.6.3	ios	2023-06-02	07:26:21	07:33:50	373575	63f5c99a1cecb4136b93f7db	1	1	main_slash	24	main_slash	1	stimuli_target_rectangletriangles.svg	stimuli_distractor_diamondtriangles.svg	5	yes	53	1	64	6	2	antiphase_hc_ios.wav	3	6	1	noise_calib_stim_LEFT.wav	1	33	blb_dichoticlistening_ta-ga.mp3	ta	ga	1	other
6.6.3	ios	2023-06-02	07:26:21	07:33:50	373575	63f5c99a1cecb4136b93f7db	1	1	main_slash	24	advance_on_keypress_SLASH	2	stimuli_target_rectangletriangles.svg	stimuli_distractor_diamondtriangles.svg	5	yes	57	0	171	6	2	antiphase_hc_ios.wav	3	6	1	noise_calib_stim_LEFT.wav	1	33	blb_dichoticlistening_ta-ga.mp3	ta	ga	1	other
6.6.3	ios	2023-06-02	07:26:21	07:33:51	374665	63f5c99a1cecb4136b93f7db	1	1	main_slash	24	main_slash	3	stimuli_target_diamondrectangles.svg	stimuli_distractor_diamondtriangles.svg	23	yes	53	1	204	6	2	antiphase_hc_ios.wav	3	6	1	noise_calib_stim_LEFT.wav	1	33	blb_dichoticlistening_ta-ga.mp3	ta	ga	1	other
6.6.3	ios	2023-06-02	07:26:21	07:33:51	374665	63f5c99a1cecb4136b93f7db	1	1	main_slash	24	advance_on_keypress_SLASH	4	stimuli_target_diamondrectangles.svg	stimuli_distractor_diamondtriangles.svg	23	yes	57	0	147	6	2	antiphase_hc_ios.wav	3	6	1	noise_calib_stim_LEFT.wav	1	33	blb_dichoticlistening_ta-ga.mp3	ta	ga	1	other
6.6.3	ios	2023-06-02	07:26:21	07:33:52	375730	63f5c99a1cecb4136b93f7db	1	1	main_slash	24	main_slash	5	stimuli_distractor_diamondtriangles.svg	stimuli_target_trianglerectangles.svg	29	yes	53	1	218	6	2	antiphase_hc_ios.wav	3	6	1	noise_calib_stim_LEFT.wav	1	33	blb_dichoticlistening_ta-ga.mp3	ta	ga	1	other
6.6.3	ios	2023-06-02	07:26:21	07:33:52	375730	63f5c99a1cecb4136b93f7db	1	1	main_slash	24	advance_on_keypress_SLASH	6	stimuli_distractor_diamondtriangles.svg	stimuli_target_trianglerectangles.svg	29	yes	57	0	163	6	2	antiphase_hc_ios.wav	3	6	1	noise_calib_stim_LEFT.wav	1	33	blb_dichoticlistening_ta-ga.mp3	ta	ga	1	other
6.6.3	ios	2023-06-02	07:26:21	07:33:53	376637	63f5c99a1cecb4136b93f7db	1	1	main_slash	24	main_slash	7	stimuli_distractor_diamondtriangles.svg	stimuli_target_trianglesquares.svg	30	yes	53	1	44	6	2	antiphase_hc_ios.wav	3	6	1	noise_calib_stim_LEFT.wav	1	33	blb_dichoticlistening_ta-ga.mp3	ta	ga	1	other
6.6.3	ios	2023-06-02	07:26:21	07:33:53	376637	63f5c99a1cecb4136b93f7db	1	1	main_slash	24	advance_on_keypress_SLASH	8	stimuli_distractor_diamondtriangles.svg	stimuli_target_trianglesquares.svg	30	yes	57	0	180	6	2	antiphase_hc_ios.wav	3	6	1	noise_calib_stim_LEFT.wav	1	33	blb_dichoticlistening_ta-ga.mp3	ta	ga	1	other
6.6.3	ios	2023-06-02	07:26:21	07:33:54	377627	63f5c99a1cecb4136b93f7db	1	1	main_slash	24	main_slash	9	stimuli_target_trianglerectangles.svg	stimuli_distractor_diamondtriangles.svg	21	yes	53	1	105	6	2	antiphase_hc_ios.wav	3	6	1	noise_calib_stim_LEFT.wav	1	33	blb_dichoticlistening_ta-ga.mp3	ta	ga	1	other
6.6.3	ios	2023-06-02	07:26:21	07:33:54	377627	63f5c99a1cecb4136b93f7db	1	1	main_slash	24	advance_on_keypress_SLASH	10	stimuli_target_trianglerectangles.svg	stimuli_distractor_diamondtriangles.svg	21	yes	57	0	188	6	2	antiphase_hc_ios.wav	3	6	1	noise_calib_stim_LEFT.wav	1	33	blb_dichoticlistening_ta-ga.mp3	ta	ga	1	other
6.6.3	ios	2023-06-02	07:26:21	07:33:55	378584	63f5c99a1cecb4136b93f7db	1	1	main_slash	24	main_slash	11	stimuli_distractor_trianglediamonds.svg	stimuli_target_trianglerectangles.svg	25	yes	53	1	61	6	2	antiphase_hc_ios.wav	3	6	1	noise_calib_stim_LEFT.wav	1	33	blb_dichoticlistening_ta-ga.mp3	ta	ga	1	other
6.6.3	ios	2023-06-02	07:26:21	07:33:55	378584	63f5c99a1cecb4136b93f7db	1	1	main_slash	24	advance_on_keypress_SLASH	12	stimuli_distractor_trianglediamonds.svg	stimuli_target_trianglerectangles.svg	25	yes	57	0	171	6	2	antiphase_hc_ios.wav	3	6	1	noise_calib_stim_LEFT.wav	1	33	blb_dichoticlistening_ta-ga.mp3	ta	ga	1	other
6.6.3	ios	2023-06-02	07:26:21	07:33:58	381309	63f5c99a1cecb4136b93f7db	1	1	main_slash	24	main_slash	13	stimuli_distractor_trianglediamonds.svg	stimuli_target_squarediamonds.svg	12	yes	53	1	1852	6	2	antiphase_hc_ios.wav	3	6	1	noise_calib_stim_LEFT.wav	1	33	blb_dichoticlistening_ta-ga.mp3	ta	ga	1	other
6.6.3	ios	2023-06-02	07:26:21	07:33:58	381309	63f5c99a1cecb4136b93f7db	1	1	main_slash	24	advance_on_keypress_SLASH	14	stimuli_distractor_trianglediamonds.svg	stimuli_target_squarediamonds.svg	12	yes	57	0	197	6	2	antiphase_hc_ios.wav	3	6	1	noise_calib_stim_LEFT.wav	1	33	blb_dichoticlistening_ta-ga.mp3	ta	ga	1	other
6.6.3	ios	2023-06-02	07:26:21	07:33:59	382230	63f5c99a1cecb4136b93f7db	1	1	main_slash	24	main_slash	15	stimuli_target_squarediamonds.svg	stimuli_distractor_diamondtriangles.svg	8	yes	53	1	26	6	2	antiphase_hc_ios.wav	3	6	1	noise_calib_stim_LEFT.wav	1	33	blb_dichoticlistening_ta-ga.mp3	ta	ga	1	other
6.6.3	ios	2023-06-02	07:26:21	07:33:59	382230	63f5c99a1cecb4136b93f7db	1	1	main_slash	24	advance_on_keypress_SLASH	16	stimuli_target_squarediamonds.svg	stimuli_distractor_diamondtriangles.svg	8	yes	57	0	188	6	2	antiphase_hc_ios.wav	3	6	1	noise_calib_stim_LEFT.wav	1	33	blb_dichoticlistening_ta-ga.mp3	ta	ga	1	other
6.6.3	ios	2023-06-02	07:26:21	07:34:02	385137	63f5c99a1cecb4136b93f7db	1	1	main_slash	24	main_slash	17	stimuli_distractor_trianglediamonds.svg	stimuli_distractor_trianglediamonds.svg	33	no	0	1	2000	6	2	antiphase_hc_ios.wav	3	6	1	noise_calib_stim_LEFT.wav	1	33	blb_dichoticlistening_ta-ga.mp3	ta	ga	1	other
6.6.3	ios	2023-06-02	07:26:21	07:34:02	385137	63f5c99a1cecb4136b93f7db	1	1	main_slash	24	advance_on_keypress_SLASH	18	stimuli_distractor_trianglediamonds.svg	stimuli_distractor_trianglediamonds.svg	33	no	57	0	922	6	2	antiphase_hc_ios.wav	3	6	1	noise_calib_stim_LEFT.wav	1	33	blb_dichoticlistening_ta-ga.mp3	ta	ga	1	other
6.6.3	ios	2023-06-02	07:26:21	07:34:04	386937	63f5c99a1cecb4136b93f7db	1	1	main_slash	24	main_slash	19	stimuli_distractor_diamondtriangles.svg	stimuli_target_rectangletriangles.svg	13	yes	53	1	194	6	2	antiphase_hc_ios.wav	3	6	1	noise_calib_stim_LEFT.wav	1	33	blb_dichoticlistening_ta-ga.mp3	ta	ga	1	other
6.6.3	ios	2023-06-02	07:26:21	07:34:04	386937	63f5c99a1cecb4136b93f7db	1	1	main_slash	24	advance_on_keypress_SLASH	20	stimuli_distractor_diamondtriangles.svg	stimuli_target_rectangletriangles.svg	13	yes	57	0	213	6	2	antiphase_hc_ios.wav	3	6	1	noise_calib_stim_LEFT.wav	1	33	blb_dichoticlistening_ta-ga.mp3	ta	ga	1	other
6.6.3	ios	2023-06-02	07:26:21	07:34:05	388068	63f5c99a1cecb4136b93f7db	1	1	main_slash	24	main_slash	21	stimuli_distractor_diamondtriangles.svg	stimuli_target_squarediamonds.svg	16	yes	53	1	227	6	2	antiphase_hc_ios.wav	3	6	1	noise_calib_stim_LEFT.wav	1	33	blb_dichoticlistening_ta-ga.mp3	ta	ga	1	other
6.6.3	ios	2023-06-02	07:26:21	07:34:05	388068	63f5c99a1cecb4136b93f7db	1	1	main_slash	24	advance_on_keypress_SLASH	22	stimuli_distractor_diamondtriangles.svg	stimuli_target_squarediamonds.svg	16	yes	57	0	422	6	2	antiphase_hc_ios.wav	3	6	1	noise_calib_stim_LEFT.wav	1	33	blb_dichoticlistening_ta-ga.mp3	ta	ga	1	other
6.6.3	ios	2023-06-02	07:26:21	07:34:06	389365	63f5c99a1cecb4136b93f7db	1	1	main_slash	24	main_slash	23	stimuli_distractor_diamondtriangles.svg	stimuli_target_rectanglediamonds.svg	14	yes	53	1	173	6	2	antiphase_hc_ios.wav	3	6	1	noise_calib_stim_LEFT.wav	1	33	blb_dichoticlistening_ta-ga.mp3	ta	ga	1	other
6.6.3	ios	2023-06-02	07:26:21	07:34:06	389365	63f5c99a1cecb4136b93f7db	1	1	main_slash	24	advance_on_keypress_SLASH	24	stimuli_distractor_diamondtriangles.svg	stimuli_target_rectanglediamonds.svg	14	yes	57	0	229	6	2	antiphase_hc_ios.wav	3	6	1	noise_calib_stim_LEFT.wav	1	33	blb_dichoticlistening_ta-ga.mp3	ta	ga	1	other
6.6.3	ios	2023-06-02	07:26:21	07:34:07	390483	63f5c99a1cecb4136b93f7db	1	1	main_slash	24	main_slash	25	stimuli_distractor_trianglediamonds.svg	stimuli_target_rectangletriangles.svg	9	yes	53	1	154	6	2	antiphase_hc_ios.wav	3	6	1	noise_calib_stim_LEFT.wav	1	33	blb_dichoticlistening_ta-ga.mp3	ta	ga	1	other
6.6.3	ios	2023-06-02	07:26:21	07:34:07	390483	63f5c99a1cecb4136b93f7db	1	1	main_slash	24	advance_on_keypress_SLASH	26	stimuli_distractor_trianglediamonds.svg	stimuli_target_rectangletriangles.svg	9	yes	57	0	187	6	2	antiphase_hc_ios.wav	3	6	1	noise_calib_stim_LEFT.wav	1	33	blb_dichoticlistening_ta-ga.mp3	ta	ga	1	other
6.6.3	ios	2023-06-02	07:26:21	07:34:08	391595	63f5c99a1cecb4136b93f7db	1	1	main_slash	24	main_slash	27	stimuli_target_diamondsquares.svg	stimuli_distractor_diamondtriangles.svg	24	yes	53	1	210	6	2	antiphase_hc_ios.wav	3	6	1	noise_calib_stim_LEFT.wav	1	33	blb_dichoticlistening_ta-ga.mp3	ta	ga	1	other
6.6.3	ios	2023-06-02	07:26:21	07:34:08	391595	63f5c99a1cecb4136b93f7db	1	1	main_slash	24	advance_on_keypress_SLASH	28	stimuli_target_diamondsquares.svg	stimuli_distractor_diamondtriangles.svg	24	yes	57	0	172	6	2	antiphase_hc_ios.wav	3	6	1	noise_calib_stim_LEFT.wav	1	33	blb_dichoticlistening_ta-ga.mp3	ta	ga	1	other
6.6.3	ios	2023-06-02	07:26:21	07:34:09	392568	63f5c99a1cecb4136b93f7db	1	1	main_slash	24	main_slash	29	stimuli_target_diamondrectangles.svg	stimuli_distractor_trianglediamonds.svg	19	yes	53	1	102	6	2	antiphase_hc_ios.wav	3	6	1	noise_calib_stim_LEFT.wav	1	33	blb_dichoticlistening_ta-ga.mp3	ta	ga	1	other
6.6.3	ios	2023-06-02	07:26:21	07:34:09	392568	63f5c99a1cecb4136b93f7db	1	1	main_slash	24	advance_on_keypress_SLASH	30	stimuli_target_diamondrectangles.svg	stimuli_distractor_trianglediamonds.svg	19	yes	57	0	155	6	2	antiphase_hc_ios.wav	3	6	1	noise_calib_stim_LEFT.wav	1	33	blb_dichoticlistening_ta-ga.mp3	ta	ga	1	other
6.6.3	ios	2023-06-02	07:26:21	07:34:12	395435	63f5c99a1cecb4136b93f7db	1	1	main_slash	24	main_slash	31	stimuli_target_diamondsquares.svg	stimuli_distractor_trianglediamonds.svg	20	yes	0	0	2000	6	2	antiphase_hc_ios.wav	3	6	1	noise_calib_stim_LEFT.wav	1	33	blb_dichoticlistening_ta-ga.mp3	ta	ga	1	other
6.6.3	ios	2023-06-02	07:26:21	07:34:12	395435	63f5c99a1cecb4136b93f7db	1	1	main_slash	24	advance_on_keypress_SLASH	32	stimuli_target_diamondsquares.svg	stimuli_distractor_trianglediamonds.svg	20	yes	57	0	273	6	2	antiphase_hc_ios.wav	3	6	1	noise_calib_stim_LEFT.wav	1	33	blb_dichoticlistening_ta-ga.mp3	ta	ga	1	other
6.6.3	ios	2023-06-02	07:26:21	07:34:13	396670	63f5c99a1cecb4136b93f7db	1	1	main_slash	24	main_slash	33	stimuli_target_trianglerectangles.svg	stimuli_distractor_trianglediamonds.svg	17	yes	53	1	278	6	2	antiphase_hc_ios.wav	3	6	1	noise_calib_stim_LEFT.wav	1	33	blb_dichoticlistening_ta-ga.mp3	ta	ga	1	other
6.6.3	ios	2023-06-02	07:26:21	07:34:13	396670	63f5c99a1cecb4136b93f7db	1	1	main_slash	24	advance_on_keypress_SLASH	34	stimuli_target_trianglerectangles.svg	stimuli_distractor_trianglediamonds.svg	17	yes	57	0	154	6	2	antiphase_hc_ios.wav	3	6	1	noise_calib_stim_LEFT.wav	1	33	blb_dichoticlistening_ta-ga.mp3	ta	ga	1	other
6.6.3	ios	2023-06-02	07:26:21	07:34:14	397553	63f5c99a1cecb4136b93f7db	1	1	main_slash	24	main_slash	35	stimuli_distractor_diamondtriangles.svg	stimuli_target_diamondrectangles.svg	31	yes	53	1	19	6	2	antiphase_hc_ios.wav	3	6	1	noise_calib_stim_LEFT.wav	1	33	blb_dichoticlistening_ta-ga.mp3	ta	ga	1	other
6.6.3	ios	2023-06-02	07:26:21	07:34:14	397553	63f5c99a1cecb4136b93f7db	1	1	main_slash	24	advance_on_keypress_SLASH	36	stimuli_distractor_diamondtriangles.svg	stimuli_target_diamondrectangles.svg	31	yes	57	0	155	6	2	antiphase_hc_ios.wav	3	6	1	noise_calib_stim_LEFT.wav	1	33	blb_dichoticlistening_ta-ga.mp3	ta	ga	1	other
6.6.3	ios	2023-06-02	07:26:21	07:34:15	398657	63f5c99a1cecb4136b93f7db	1	1	main_slash	24	main_slash	37	stimuli_distractor_diamondtriangles.svg	stimuli_distractor_trianglediamonds.svg	37	no	53	0	221	6	2	antiphase_hc_ios.wav	3	6	1	noise_calib_stim_LEFT.wav	1	33	blb_dichoticlistening_ta-ga.mp3	ta	ga	1	other
6.6.3	ios	2023-06-02	07:26:21	07:34:15	398657	63f5c99a1cecb4136b93f7db	1	1	main_slash	24	advance_on_keypress_SLASH	38	stimuli_distractor_diamondtriangles.svg	stimuli_distractor_trianglediamonds.svg	37	no	57	0	164	6	2	antiphase_hc_ios.wav	3	6	1	noise_calib_stim_LEFT.wav	1	33	blb_dichoticlistening_ta-ga.mp3	ta	ga	1	other
6.6.3	ios	2023-06-02	07:26:21	07:34:16	399723	63f5c99a1cecb4136b93f7db	1	1	main_slash	24	main_slash	39	stimuli_target_squarediamonds.svg	stimuli_distractor_trianglediamonds.svg	4	yes	53	1	203	6	2	antiphase_hc_ios.wav	3	6	1	noise_calib_stim_LEFT.wav	1	33	blb_dichoticlistening_ta-ga.mp3	ta	ga	1	other
6.6.3	ios	2023-06-02	07:26:21	07:34:16	399723	63f5c99a1cecb4136b93f7db	1	1	main_slash	24	advance_on_keypress_SLASH	40	stimuli_target_squarediamonds.svg	stimuli_distractor_trianglediamonds.svg	4	yes	57	0	163	6	2	antiphase_hc_ios.wav	3	6	1	noise_calib_stim_LEFT.wav	1	33	blb_dichoticlistening_ta-ga.mp3	ta	ga	1	other
6.6.3	ios	2023-06-02	07:26:21	07:34:17	400604	63f5c99a1cecb4136b93f7db	1	1	main_slash	24	main_slash	41	stimuli_distractor_diamondtriangles.svg	stimuli_distractor_trianglediamonds.svg	38	no	53	0	17	6	2	antiphase_hc_ios.wav	3	6	1	noise_calib_stim_LEFT.wav	1	33	blb_dichoticlistening_ta-ga.mp3	ta	ga	1	other
6.6.3	ios	2023-06-02	07:26:21	07:34:17	400604	63f5c99a1cecb4136b93f7db	1	1	main_slash	24	advance_on_keypress_SLASH	42	stimuli_distractor_diamondtriangles.svg	stimuli_distractor_trianglediamonds.svg	38	no	57	0	172	6	2	antiphase_hc_ios.wav	3	6	1	noise_calib_stim_LEFT.wav	1	33	blb_dichoticlistening_ta-ga.mp3	ta	ga	1	other
6.6.3	ios	2023-06-02	07:26:21	07:34:18	401595	63f5c99a1cecb4136b93f7db	1	1	main_slash	24	main_slash	43	stimuli_distractor_diamondtriangles.svg	stimuli_distractor_diamondtriangles.svg	40	no	53	0	111	6	2	antiphase_hc_ios.wav	3	6	1	noise_calib_stim_LEFT.wav	1	33	blb_dichoticlistening_ta-ga.mp3	ta	ga	1	other
6.6.3	ios	2023-06-02	07:26:21	07:34:18	401595	63f5c99a1cecb4136b93f7db	1	1	main_slash	24	advance_on_keypress_SLASH	44	stimuli_distractor_diamondtriangles.svg	stimuli_distractor_diamondtriangles.svg	40	no	57	0	189	6	2	antiphase_hc_ios.wav	3	6	1	noise_calib_stim_LEFT.wav	1	33	blb_dichoticlistening_ta-ga.mp3	ta	ga	1	other
6.6.3	ios	2023-06-02	07:26:21	07:34:19	402558	63f5c99a1cecb4136b93f7db	1	1	main_slash	24	main_slash	45	stimuli_distractor_trianglediamonds.svg	stimuli_distractor_diamondtriangles.svg	36	no	53	0	77	6	2	antiphase_hc_ios.wav	3	6	1	noise_calib_stim_LEFT.wav	1	33	blb_dichoticlistening_ta-ga.mp3	ta	ga	1	other
6.6.3	ios	2023-06-02	07:26:21	07:34:19	402558	63f5c99a1cecb4136b93f7db	1	1	main_slash	24	advance_on_keypress_SLASH	46	stimuli_distractor_trianglediamonds.svg	stimuli_distractor_diamondtriangles.svg	36	no	57	0	231	6	2	antiphase_hc_ios.wav	3	6	1	noise_calib_stim_LEFT.wav	1	33	blb_dichoticlistening_ta-ga.mp3	ta	ga	1	other
6.6.3	ios	2023-06-02	07:26:21	07:34:20	403616	63f5c99a1cecb4136b93f7db	1	1	main_slash	24	main_slash	47	stimuli_target_rectangletriangles.svg	stimuli_distractor_trianglediamonds.svg	1	yes	53	1	105	6	2	antiphase_hc_ios.wav	3	6	1	noise_calib_stim_LEFT.wav	1	33	blb_dichoticlistening_ta-ga.mp3	ta	ga	1	other
6.6.3	ios	2023-06-02	07:26:21	07:34:20	403616	63f5c99a1cecb4136b93f7db	1	1	main_slash	24	advance_on_keypress_SLASH	48	stimuli_target_rectangletriangles.svg	stimuli_distractor_trianglediamonds.svg	1	yes	57	0	182	6	2	antiphase_hc_ios.wav	3	6	1	noise_calib_stim_LEFT.wav	1	33	blb_dichoticlistening_ta-ga.mp3	ta	ga	1	other
6.6.3	ios	2023-06-02	07:26:21	07:34:21	404571	63f5c99a1cecb4136b93f7db	1	1	main_slash	24	main_slash	49	stimuli_distractor_diamondtriangles.svg	stimuli_target_squaretriangles.svg	15	yes	53	1	77	6	2	antiphase_hc_ios.wav	3	6	1	noise_calib_stim_LEFT.wav	1	33	blb_dichoticlistening_ta-ga.mp3	ta	ga	1	other
6.6.3	ios	2023-06-02	07:26:21	07:34:21	404571	63f5c99a1cecb4136b93f7db	1	1	main_slash	24	advance_on_keypress_SLASH	50	stimuli_distractor_diamondtriangles.svg	stimuli_target_squaretriangles.svg	15	yes	57	0	331	6	2	antiphase_hc_ios.wav	3	6	1	noise_calib_stim_LEFT.wav	1	33	blb_dichoticlistening_ta-ga.mp3	ta	ga	1	other
6.6.3	ios	2023-06-02	07:26:21	07:34:22	405661	63f5c99a1cecb4136b93f7db	1	1	main_slash	24	main_slash	51	stimuli_target_trianglesquares.svg	stimuli_distractor_trianglediamonds.svg	18	yes	53	1	69	6	2	antiphase_hc_ios.wav	3	6	1	noise_calib_stim_LEFT.wav	1	33	blb_dichoticlistening_ta-ga.mp3	ta	ga	1	other
6.6.3	ios	2023-06-02	07:26:21	07:34:22	405661	63f5c99a1cecb4136b93f7db	1	1	main_slash	24	advance_on_keypress_SLASH	52	stimuli_target_trianglesquares.svg	stimuli_distractor_trianglediamonds.svg	18	yes	57	0	189	6	2	antiphase_hc_ios.wav	3	6	1	noise_calib_stim_LEFT.wav	1	33	blb_dichoticlistening_ta-ga.mp3	ta	ga	1	other
6.6.3	ios	2023-06-02	07:26:21	07:34:23	406725	63f5c99a1cecb4136b93f7db	1	1	main_slash	24	main_slash	53	stimuli_distractor_trianglediamonds.svg	stimuli_target_diamondsquares.svg	28	yes	53	1	167	6	2	antiphase_hc_ios.wav	3	6	1	noise_calib_stim_LEFT.wav	1	33	blb_dichoticlistening_ta-ga.mp3	ta	ga	1	other
6.6.3	ios	2023-06-02	07:26:21	07:34:23	406725	63f5c99a1cecb4136b93f7db	1	1	main_slash	24	advance_on_keypress_SLASH	54	stimuli_distractor_trianglediamonds.svg	stimuli_target_diamondsquares.svg	28	yes	57	0	205	6	2	antiphase_hc_ios.wav	3	6	1	noise_calib_stim_LEFT.wav	1	33	blb_dichoticlistening_ta-ga.mp3	ta	ga	1	other
6.6.3	ios	2023-06-02	07:26:21	07:34:24	407724	63f5c99a1cecb4136b93f7db	1	1	main_slash	24	main_slash	55	stimuli_distractor_diamondtriangles.svg	stimuli_target_diamondsquares.svg	32	yes	53	1	85	6	2	antiphase_hc_ios.wav	3	6	1	noise_calib_stim_LEFT.wav	1	33	blb_dichoticlistening_ta-ga.mp3	ta	ga	1	other
6.6.3	ios	2023-06-02	07:26:21	07:34:24	407724	63f5c99a1cecb4136b93f7db	1	1	main_slash	24	advance_on_keypress_SLASH	56	stimuli_distractor_diamondtriangles.svg	stimuli_target_diamondsquares.svg	32	yes	57	0	180	6	2	antiphase_hc_ios.wav	3	6	1	noise_calib_stim_LEFT.wav	1	33	blb_dichoticlistening_ta-ga.mp3	ta	ga	1	other
6.6.3	ios	2023-06-02	07:26:21	07:34:26	409106	63f5c99a1cecb4136b93f7db	1	1	main_slash	24	main_slash	57	stimuli_target_rectanglediamonds.svg	stimuli_distractor_trianglediamonds.svg	2	yes	53	1	502	6	2	antiphase_hc_ios.wav	3	6	1	noise_calib_stim_LEFT.wav	1	33	blb_dichoticlistening_ta-ga.mp3	ta	ga	1	other
6.6.3	ios	2023-06-02	07:26:21	07:34:26	409106	63f5c99a1cecb4136b93f7db	1	1	main_slash	24	advance_on_keypress_SLASH	58	stimuli_target_rectanglediamonds.svg	stimuli_distractor_trianglediamonds.svg	2	yes	57	0	196	6	2	antiphase_hc_ios.wav	3	6	1	noise_calib_stim_LEFT.wav	1	33	blb_dichoticlistening_ta-ga.mp3	ta	ga	1	other
6.6.3	ios	2023-06-02	07:26:21	07:34:27	410287	63f5c99a1cecb4136b93f7db	1	1	main_slash	24	main_slash	59	stimuli_distractor_diamondtriangles.svg	stimuli_distractor_diamondtriangles.svg	39	no	53	0	285	6	2	antiphase_hc_ios.wav	3	6	1	noise_calib_stim_LEFT.wav	1	33	blb_dichoticlistening_ta-ga.mp3	ta	ga	1	other
6.6.3	ios	2023-06-02	07:26:21	07:34:27	410287	63f5c99a1cecb4136b93f7db	1	1	main_slash	24	advance_on_keypress_SLASH	60	stimuli_distractor_diamondtriangles.svg	stimuli_distractor_diamondtriangles.svg	39	no	57	0	196	6	2	antiphase_hc_ios.wav	3	6	1	noise_calib_stim_LEFT.wav	1	33	blb_dichoticlistening_ta-ga.mp3	ta	ga	1	other
6.6.3	ios	2023-06-02	07:26:21	07:34:28	411269	63f5c99a1cecb4136b93f7db	1	1	main_slash	24	main_slash	61	stimuli_target_trianglesquares.svg	stimuli_distractor_diamondtriangles.svg	22	yes	53	1	86	6	2	antiphase_hc_ios.wav	3	6	1	noise_calib_stim_LEFT.wav	1	33	blb_dichoticlistening_ta-ga.mp3	ta	ga	1	other
6.6.3	ios	2023-06-02	07:26:21	07:34:28	411269	63f5c99a1cecb4136b93f7db	1	1	main_slash	24	advance_on_keypress_SLASH	62	stimuli_target_trianglesquares.svg	stimuli_distractor_diamondtriangles.svg	22	yes	57	0	155	6	2	antiphase_hc_ios.wav	3	6	1	noise_calib_stim_LEFT.wav	1	33	blb_dichoticlistening_ta-ga.mp3	ta	ga	1	other
6.6.3	ios	2023-06-02	07:26:21	07:34:29	412150	63f5c99a1cecb4136b93f7db	1	1	main_slash	24	main_slash	63	stimuli_distractor_trianglediamonds.svg	stimuli_target_squaretriangles.svg	11	yes	53	1	17	6	2	antiphase_hc_ios.wav	3	6	1	noise_calib_stim_LEFT.wav	1	33	blb_dichoticlistening_ta-ga.mp3	ta	ga	1	other
6.6.3	ios	2023-06-02	07:26:21	07:34:29	412150	63f5c99a1cecb4136b93f7db	1	1	main_slash	24	advance_on_keypress_SLASH	64	stimuli_distractor_trianglediamonds.svg	stimuli_target_squaretriangles.svg	11	yes	57	0	179	6	2	antiphase_hc_ios.wav	3	6	1	noise_calib_stim_LEFT.wav	1	33	blb_dichoticlistening_ta-ga.mp3	ta	ga	1	other
6.6.3	ios	2023-06-02	07:26:21	07:34:30	413040	63f5c99a1cecb4136b93f7db	1	1	main_slash	24	main_slash	65	stimuli_distractor_trianglediamonds.svg	stimuli_distractor_trianglediamonds.svg	34	no	53	0	8	6	2	antiphase_hc_ios.wav	3	6	1	noise_calib_stim_LEFT.wav	1	33	blb_dichoticlistening_ta-ga.mp3	ta	ga	1	other
6.6.3	ios	2023-06-02	07:26:21	07:34:30	413040	63f5c99a1cecb4136b93f7db	1	1	main_slash	24	advance_on_keypress_SLASH	66	stimuli_distractor_trianglediamonds.svg	stimuli_distractor_trianglediamonds.svg	34	no	57	0	189	6	2	antiphase_hc_ios.wav	3	6	1	noise_calib_stim_LEFT.wav	1	33	blb_dichoticlistening_ta-ga.mp3	ta	ga	1	other
6.6.3	ios	2023-06-02	07:26:21	07:34:31	414714	63f5c99a1cecb4136b93f7db	1	1	main_slash	24	main_slash	67	stimuli_target_squaretriangles.svg	stimuli_distractor_trianglediamonds.svg	3	yes	53	1	785	6	2	antiphase_hc_ios.wav	3	6	1	noise_calib_stim_LEFT.wav	1	33	blb_dichoticlistening_ta-ga.mp3	ta	ga	1	other
6.6.3	ios	2023-06-02	07:26:21	07:34:31	414714	63f5c99a1cecb4136b93f7db	1	1	main_slash	24	advance_on_keypress_SLASH	68	stimuli_target_squaretriangles.svg	stimuli_distractor_trianglediamonds.svg	3	yes	57	0	205	6	2	antiphase_hc_ios.wav	3	6	1	noise_calib_stim_LEFT.wav	1	33	blb_dichoticlistening_ta-ga.mp3	ta	ga	1	other
6.6.3	ios	2023-06-02	07:26:21	07:34:34	417630	63f5c99a1cecb4136b93f7db	1	1	main_slash	24	main_slash	69	stimuli_distractor_trianglediamonds.svg	stimuli_distractor_diamondtriangles.svg	35	no	0	1	2000	6	2	antiphase_hc_ios.wav	3	6	1	noise_calib_stim_LEFT.wav	1	33	blb_dichoticlistening_ta-ga.mp3	ta	ga	1	other
6.6.3	ios	2023-06-02	07:26:21	07:34:34	417630	63f5c99a1cecb4136b93f7db	1	1	main_slash	24	advance_on_keypress_SLASH	70	stimuli_distractor_trianglediamonds.svg	stimuli_distractor_diamondtriangles.svg	35	no	57	0	1714	6	2	antiphase_hc_ios.wav	3	6	1	noise_calib_stim_LEFT.wav	1	33	blb_dichoticlistening_ta-ga.mp3	ta	ga	1	other
6.6.3	ios	2023-06-02	07:26:21	07:34:37	420288	63f5c99a1cecb4136b93f7db	1	1	main_slash	24	main_slash	71	stimuli_target_squaretriangles.svg	stimuli_distractor_diamondtriangles.svg	7	yes	53	1	253	6	2	antiphase_hc_ios.wav	3	6	1	noise_calib_stim_LEFT.wav	1	33	blb_dichoticlistening_ta-ga.mp3	ta	ga	1	other
6.6.3	ios	2023-06-02	07:26:21	07:34:37	420288	63f5c99a1cecb4136b93f7db	1	1	main_slash	24	advance_on_keypress_SLASH	72	stimuli_target_squaretriangles.svg	stimuli_distractor_diamondtriangles.svg	7	yes	57	0	163	6	2	antiphase_hc_ios.wav	3	6	1	noise_calib_stim_LEFT.wav	1	33	blb_dichoticlistening_ta-ga.mp3	ta	ga	1	other
6.6.3	ios	2023-06-02	07:26:21	07:34:38	421236	63f5c99a1cecb4136b93f7db	1	1	main_slash	24	main_slash	73	stimuli_distractor_trianglediamonds.svg	stimuli_target_diamondrectangles.svg	27	yes	53	1	86	6	2	antiphase_hc_ios.wav	3	6	1	noise_calib_stim_LEFT.wav	1	33	blb_dichoticlistening_ta-ga.mp3	ta	ga	1	other
6.6.3	ios	2023-06-02	07:26:21	07:34:38	421236	63f5c99a1cecb4136b93f7db	1	1	main_slash	24	advance_on_keypress_SLASH	74	stimuli_distractor_trianglediamonds.svg	stimuli_target_diamondrectangles.svg	27	yes	57	0	188	6	2	antiphase_hc_ios.wav	3	6	1	noise_calib_stim_LEFT.wav	1	33	blb_dichoticlistening_ta-ga.mp3	ta	ga	1	other
6.6.3	ios	2023-06-02	07:26:21	07:34:39	422176	63f5c99a1cecb4136b93f7db	1	1	main_slash	24	main_slash	75	stimuli_distractor_trianglediamonds.svg	stimuli_target_rectanglediamonds.svg	10	yes	53	1	45	6	2	antiphase_hc_ios.wav	3	6	1	noise_calib_stim_LEFT.wav	1	33	blb_dichoticlistening_ta-ga.mp3	ta	ga	1	other
6.6.3	ios	2023-06-02	07:26:21	07:34:39	422176	63f5c99a1cecb4136b93f7db	1	1	main_slash	24	advance_on_keypress_SLASH	76	stimuli_distractor_trianglediamonds.svg	stimuli_target_rectanglediamonds.svg	10	yes	57	0	213	6	2	antiphase_hc_ios.wav	3	6	1	noise_calib_stim_LEFT.wav	1	33	blb_dichoticlistening_ta-ga.mp3	ta	ga	1	other
6.6.3	ios	2023-06-02	07:26:21	07:34:40	423282	63f5c99a1cecb4136b93f7db	1	1	main_slash	24	main_slash	77	stimuli_distractor_trianglediamonds.svg	stimuli_target_trianglesquares.svg	26	yes	53	1	202	6	2	antiphase_hc_ios.wav	3	6	1	noise_calib_stim_LEFT.wav	1	33	blb_dichoticlistening_ta-ga.mp3	ta	ga	1	other
6.6.3	ios	2023-06-02	07:26:21	07:34:40	423282	63f5c99a1cecb4136b93f7db	1	1	main_slash	24	advance_on_keypress_SLASH	78	stimuli_distractor_trianglediamonds.svg	stimuli_target_trianglesquares.svg	26	yes	57	0	256	6	2	antiphase_hc_ios.wav	3	6	1	noise_calib_stim_LEFT.wav	1	33	blb_dichoticlistening_ta-ga.mp3	ta	ga	1	other
6.6.3	ios	2023-06-02	07:26:21	07:34:41	424463	63f5c99a1cecb4136b93f7db	1	1	main_slash	24	main_slash	79	stimuli_target_rectanglediamonds.svg	stimuli_distractor_diamondtriangles.svg	6	yes	53	1	220	6	2	antiphase_hc_ios.wav	3	6	1	noise_calib_stim_LEFT.wav	1	33	blb_dichoticlistening_ta-ga.mp3	ta	ga	1	other
6.6.3	ios	2023-06-02	07:26:21	07:34:41	424463	63f5c99a1cecb4136b93f7db	1	1	main_slash	24	advance_on_keypress_SLASH	80	stimuli_target_rectanglediamonds.svg	stimuli_distractor_diamondtriangles.svg	6	yes	57	0	338	6	2	antiphase_hc_ios.wav	3	6	1	noise_calib_stim_LEFT.wav	1	33	blb_dichoticlistening_ta-ga.mp3	ta	ga	1	other
6.6.3	ios	2023-06-02	07:26:21	07:34:42	425703	63f5c99a1cecb4136b93f7db	1	1	main_slash	24	main_slash	81	stimuli_target_trianglesquares.svg	stimuli_distractor_trianglediamonds.svg	18	yes	53	1	194	6	2	antiphase_hc_ios.wav	3	6	1	noise_calib_stim_LEFT.wav	1	33	blb_dichoticlistening_ta-ga.mp3	ta	ga	1	other
6.6.3	ios	2023-06-02	07:26:21	07:34:42	425703	63f5c99a1cecb4136b93f7db	1	1	main_slash	24	advance_on_keypress_SLASH	82	stimuli_target_trianglesquares.svg	stimuli_distractor_trianglediamonds.svg	18	yes	57	0	196	6	2	antiphase_hc_ios.wav	3	6	1	noise_calib_stim_LEFT.wav	1	33	blb_dichoticlistening_ta-ga.mp3	ta	ga	1	other
6.6.3	ios	2023-06-02	07:26:21	07:34:43	426718	63f5c99a1cecb4136b93f7db	1	1	main_slash	24	main_slash	83	stimuli_distractor_diamondtriangles.svg	stimuli_target_squarediamonds.svg	16	yes	53	1	128	6	2	antiphase_hc_ios.wav	3	6	1	noise_calib_stim_LEFT.wav	1	33	blb_dichoticlistening_ta-ga.mp3	ta	ga	1	other
6.6.3	ios	2023-06-02	07:26:21	07:34:43	426718	63f5c99a1cecb4136b93f7db	1	1	main_slash	24	advance_on_keypress_SLASH	84	stimuli_distractor_diamondtriangles.svg	stimuli_target_squarediamonds.svg	16	yes	57	0	197	6	2	antiphase_hc_ios.wav	3	6	1	noise_calib_stim_LEFT.wav	1	33	blb_dichoticlistening_ta-ga.mp3	ta	ga	1	other
6.6.3	ios	2023-06-02	07:26:21	07:34:44	427641	63f5c99a1cecb4136b93f7db	1	1	main_slash	24	main_slash	85	stimuli_distractor_trianglediamonds.svg	stimuli_distractor_diamondtriangles.svg	35	no	53	0	37	6	2	antiphase_hc_ios.wav	3	6	1	noise_calib_stim_LEFT.wav	1	33	blb_dichoticlistening_ta-ga.mp3	ta	ga	1	other
6.6.3	ios	2023-06-02	07:26:21	07:34:44	427641	63f5c99a1cecb4136b93f7db	1	1	main_slash	24	advance_on_keypress_SLASH	86	stimuli_distractor_trianglediamonds.svg	stimuli_distractor_diamondtriangles.svg	35	no	57	0	163	6	2	antiphase_hc_ios.wav	3	6	1	noise_calib_stim_LEFT.wav	1	33	blb_dichoticlistening_ta-ga.mp3	ta	ga	1	other
6.6.3	ios	2023-06-02	07:26:21	07:34:45	428581	63f5c99a1cecb4136b93f7db	1	1	main_slash	24	main_slash	87	stimuli_target_rectangletriangles.svg	stimuli_distractor_diamondtriangles.svg	5	yes	53	1	78	6	2	antiphase_hc_ios.wav	3	6	1	noise_calib_stim_LEFT.wav	1	33	blb_dichoticlistening_ta-ga.mp3	ta	ga	1	other
6.6.3	ios	2023-06-02	07:26:21	07:34:45	428581	63f5c99a1cecb4136b93f7db	1	1	main_slash	24	advance_on_keypress_SLASH	88	stimuli_target_rectangletriangles.svg	stimuli_distractor_diamondtriangles.svg	5	yes	57	0	204	6	2	antiphase_hc_ios.wav	3	6	1	noise_calib_stim_LEFT.wav	1	33	blb_dichoticlistening_ta-ga.mp3	ta	ga	1	other
6.6.3	ios	2023-06-02	07:26:21	07:34:46	429679	63f5c99a1cecb4136b93f7db	1	1	main_slash	24	main_slash	89	stimuli_target_diamondrectangles.svg	stimuli_distractor_trianglediamonds.svg	19	yes	53	1	193	6	2	antiphase_hc_ios.wav	3	6	1	noise_calib_stim_LEFT.wav	1	33	blb_dichoticlistening_ta-ga.mp3	ta	ga	1	other
6.6.3	ios	2023-06-02	07:26:21	07:34:46	429679	63f5c99a1cecb4136b93f7db	1	1	main_slash	24	advance_on_keypress_SLASH	90	stimuli_target_diamondrectangles.svg	stimuli_distractor_trianglediamonds.svg	19	yes	57	0	172	6	2	antiphase_hc_ios.wav	3	6	1	noise_calib_stim_LEFT.wav	1	33	blb_dichoticlistening_ta-ga.mp3	ta	ga	1	other
6.6.3	ios	2023-06-02	07:26:21	07:34:47	430636	63f5c99a1cecb4136b93f7db	1	1	main_slash	24	main_slash	91	stimuli_distractor_trianglediamonds.svg	stimuli_target_rectangletriangles.svg	9	yes	53	1	86	6	2	antiphase_hc_ios.wav	3	6	1	noise_calib_stim_LEFT.wav	1	33	blb_dichoticlistening_ta-ga.mp3	ta	ga	1	other
6.6.3	ios	2023-06-02	07:26:21	07:34:47	430636	63f5c99a1cecb4136b93f7db	1	1	main_slash	24	advance_on_keypress_SLASH	92	stimuli_distractor_trianglediamonds.svg	stimuli_target_rectangletriangles.svg	9	yes	57	0	188	6	2	antiphase_hc_ios.wav	3	6	1	noise_calib_stim_LEFT.wav	1	33	blb_dichoticlistening_ta-ga.mp3	ta	ga	1	other
6.6.3	ios	2023-06-02	07:26:21	07:34:48	431635	63f5c99a1cecb4136b93f7db	1	1	main_slash	24	main_slash	93	stimuli_distractor_trianglediamonds.svg	stimuli_target_trianglesquares.svg	26	yes	53	1	103	6	2	antiphase_hc_ios.wav	3	6	1	noise_calib_stim_LEFT.wav	1	33	blb_dichoticlistening_ta-ga.mp3	ta	ga	1	other
6.6.3	ios	2023-06-02	07:26:21	07:34:48	431635	63f5c99a1cecb4136b93f7db	1	1	main_slash	24	advance_on_keypress_SLASH	94	stimuli_distractor_trianglediamonds.svg	stimuli_target_trianglesquares.svg	26	yes	57	0	213	6	2	antiphase_hc_ios.wav	3	6	1	noise_calib_stim_LEFT.wav	1	33	blb_dichoticlistening_ta-ga.mp3	ta	ga	1	other
6.6.3	ios	2023-06-02	07:26:21	07:34:49	432666	63f5c99a1cecb4136b93f7db	1	1	main_slash	24	main_slash	95	stimuli_distractor_diamondtriangles.svg	stimuli_target_diamondrectangles.svg	31	yes	53	1	119	6	2	antiphase_hc_ios.wav	3	6	1	noise_calib_stim_LEFT.wav	1	33	blb_dichoticlistening_ta-ga.mp3	ta	ga	1	other
6.6.3	ios	2023-06-02	07:26:21	07:34:49	432666	63f5c99a1cecb4136b93f7db	1	1	main_slash	24	advance_on_keypress_SLASH	96	stimuli_distractor_diamondtriangles.svg	stimuli_target_diamondrectangles.svg	31	yes	57	0	205	6	2	antiphase_hc_ios.wav	3	6	1	noise_calib_stim_LEFT.wav	1	33	blb_dichoticlistening_ta-ga.mp3	ta	ga	1	other
6.6.3	ios	2023-06-02	07:26:21	07:34:50	433689	63f5c99a1cecb4136b93f7db	1	1	main_slash	24	main_slash	97	stimuli_distractor_trianglediamonds.svg	stimuli_target_trianglerectangles.svg	25	yes	53	1	111	6	2	antiphase_hc_ios.wav	3	6	1	noise_calib_stim_LEFT.wav	1	33	blb_dichoticlistening_ta-ga.mp3	ta	ga	1	other
6.6.3	ios	2023-06-02	07:26:21	07:34:50	433689	63f5c99a1cecb4136b93f7db	1	1	main_slash	24	advance_on_keypress_SLASH	98	stimuli_distractor_trianglediamonds.svg	stimuli_target_trianglerectangles.svg	25	yes	57	0	188	6	2	antiphase_hc_ios.wav	3	6	1	noise_calib_stim_LEFT.wav	1	33	blb_dichoticlistening_ta-ga.mp3	ta	ga	1	other
6.6.3	ios	2023-06-02	07:26:21	07:34:51	434728	63f5c99a1cecb4136b93f7db	1	1	main_slash	24	main_slash	99	stimuli_distractor_diamondtriangles.svg	stimuli_target_rectangletriangles.svg	13	yes	53	1	149	6	2	antiphase_hc_ios.wav	3	6	1	noise_calib_stim_LEFT.wav	1	33	blb_dichoticlistening_ta-ga.mp3	ta	ga	1	other
6.6.3	ios	2023-06-02	07:26:21	07:34:51	434728	63f5c99a1cecb4136b93f7db	1	1	main_slash	24	advance_on_keypress_SLASH	100	stimuli_distractor_diamondtriangles.svg	stimuli_target_rectangletriangles.svg	13	yes	57	0	197	6	2	antiphase_hc_ios.wav	3	6	1	noise_calib_stim_LEFT.wav	1	33	blb_dichoticlistening_ta-ga.mp3	ta	ga	1	other
6.6.3	ios	2023-06-02	07:26:21	07:34:53	435885	63f5c99a1cecb4136b93f7db	1	1	main_slash	24	main_slash	101	stimuli_target_squaretriangles.svg	stimuli_distractor_trianglediamonds.svg	3	yes	53	1	262	6	2	antiphase_hc_ios.wav	3	6	1	noise_calib_stim_LEFT.wav	1	33	blb_dichoticlistening_ta-ga.mp3	ta	ga	1	other
6.6.3	ios	2023-06-02	07:26:21	07:34:53	435885	63f5c99a1cecb4136b93f7db	1	1	main_slash	24	advance_on_keypress_SLASH	102	stimuli_target_squaretriangles.svg	stimuli_distractor_trianglediamonds.svg	3	yes	57	0	214	6	2	antiphase_hc_ios.wav	3	6	1	noise_calib_stim_LEFT.wav	1	33	blb_dichoticlistening_ta-ga.mp3	ta	ga	1	other
6.6.3	ios	2023-06-02	07:26:21	07:34:54	436917	63f5c99a1cecb4136b93f7db	1	1	main_slash	24	main_slash	103	stimuli_target_diamondrectangles.svg	stimuli_distractor_diamondtriangles.svg	23	yes	53	1	126	6	2	antiphase_hc_ios.wav	3	6	1	noise_calib_stim_LEFT.wav	1	33	blb_dichoticlistening_ta-ga.mp3	ta	ga	1	other
6.6.3	ios	2023-06-02	07:26:21	07:34:54	436917	63f5c99a1cecb4136b93f7db	1	1	main_slash	24	advance_on_keypress_SLASH	104	stimuli_target_diamondrectangles.svg	stimuli_distractor_diamondtriangles.svg	23	yes	57	0	187	6	2	antiphase_hc_ios.wav	3	6	1	noise_calib_stim_LEFT.wav	1	33	blb_dichoticlistening_ta-ga.mp3	ta	ga	1	other
6.6.3	ios	2023-06-02	07:26:21	07:34:55	437943	63f5c99a1cecb4136b93f7db	1	1	main_slash	24	main_slash	105	stimuli_distractor_diamondtriangles.svg	stimuli_target_diamondsquares.svg	32	yes	53	1	134	6	2	antiphase_hc_ios.wav	3	6	1	noise_calib_stim_LEFT.wav	1	33	blb_dichoticlistening_ta-ga.mp3	ta	ga	1	other
6.6.3	ios	2023-06-02	07:26:21	07:34:55	437943	63f5c99a1cecb4136b93f7db	1	1	main_slash	24	advance_on_keypress_SLASH	106	stimuli_distractor_diamondtriangles.svg	stimuli_target_diamondsquares.svg	32	yes	57	0	179	6	2	antiphase_hc_ios.wav	3	6	1	noise_calib_stim_LEFT.wav	1	33	blb_dichoticlistening_ta-ga.mp3	ta	ga	1	other
6.6.3	ios	2023-06-02	07:26:21	07:34:56	438970	63f5c99a1cecb4136b93f7db	1	1	main_slash	24	main_slash	107	stimuli_distractor_diamondtriangles.svg	stimuli_target_squaretriangles.svg	15	yes	53	1	136	6	2	antiphase_hc_ios.wav	3	6	1	noise_calib_stim_LEFT.wav	1	33	blb_dichoticlistening_ta-ga.mp3	ta	ga	1	other
6.6.3	ios	2023-06-02	07:26:21	07:34:56	438970	63f5c99a1cecb4136b93f7db	1	1	main_slash	24	advance_on_keypress_SLASH	108	stimuli_distractor_diamondtriangles.svg	stimuli_target_squaretriangles.svg	15	yes	57	0	189	6	2	antiphase_hc_ios.wav	3	6	1	noise_calib_stim_LEFT.wav	1	33	blb_dichoticlistening_ta-ga.mp3	ta	ga	1	other
6.6.3	ios	2023-06-02	07:26:21	07:34:57	439928	63f5c99a1cecb4136b93f7db	1	1	main_slash	24	main_slash	109	stimuli_distractor_trianglediamonds.svg	stimuli_distractor_trianglediamonds.svg	33	no	53	0	62	6	2	antiphase_hc_ios.wav	3	6	1	noise_calib_stim_LEFT.wav	1	33	blb_dichoticlistening_ta-ga.mp3	ta	ga	1	other
6.6.3	ios	2023-06-02	07:26:21	07:34:57	439928	63f5c99a1cecb4136b93f7db	1	1	main_slash	24	advance_on_keypress_SLASH	110	stimuli_distractor_trianglediamonds.svg	stimuli_distractor_trianglediamonds.svg	33	no	57	0	179	6	2	antiphase_hc_ios.wav	3	6	1	noise_calib_stim_LEFT.wav	1	33	blb_dichoticlistening_ta-ga.mp3	ta	ga	1	other
6.6.3	ios	2023-06-02	07:26:21	07:34:58	440884	63f5c99a1cecb4136b93f7db	1	1	main_slash	24	main_slash	111	stimuli_target_diamondsquares.svg	stimuli_distractor_trianglediamonds.svg	20	yes	53	1	85	6	2	antiphase_hc_ios.wav	3	6	1	noise_calib_stim_LEFT.wav	1	33	blb_dichoticlistening_ta-ga.mp3	ta	ga	1	other
6.6.3	ios	2023-06-02	07:26:21	07:34:58	440884	63f5c99a1cecb4136b93f7db	1	1	main_slash	24	advance_on_keypress_SLASH	112	stimuli_target_diamondsquares.svg	stimuli_distractor_trianglediamonds.svg	20	yes	57	0	171	6	2	antiphase_hc_ios.wav	3	6	1	noise_calib_stim_LEFT.wav	1	33	blb_dichoticlistening_ta-ga.mp3	ta	ga	1	other
6.6.3	ios	2023-06-02	07:26:21	07:34:58	441850	63f5c99a1cecb4136b93f7db	1	1	main_slash	24	main_slash	113	stimuli_target_diamondsquares.svg	stimuli_distractor_diamondtriangles.svg	24	yes	53	1	86	6	2	antiphase_hc_ios.wav	3	6	1	noise_calib_stim_LEFT.wav	1	33	blb_dichoticlistening_ta-ga.mp3	ta	ga	1	other
6.6.3	ios	2023-06-02	07:26:21	07:34:58	441850	63f5c99a1cecb4136b93f7db	1	1	main_slash	24	advance_on_keypress_SLASH	114	stimuli_target_diamondsquares.svg	stimuli_distractor_diamondtriangles.svg	24	yes	57	0	204	6	2	antiphase_hc_ios.wav	3	6	1	noise_calib_stim_LEFT.wav	1	33	blb_dichoticlistening_ta-ga.mp3	ta	ga	1	other
6.6.3	ios	2023-06-02	07:26:21	07:34:59	442823	63f5c99a1cecb4136b93f7db	1	1	main_slash	24	main_slash	115	stimuli_target_trianglesquares.svg	stimuli_distractor_diamondtriangles.svg	22	yes	53	1	61	6	2	antiphase_hc_ios.wav	3	6	1	noise_calib_stim_LEFT.wav	1	33	blb_dichoticlistening_ta-ga.mp3	ta	ga	1	other
6.6.3	ios	2023-06-02	07:26:21	07:34:59	442823	63f5c99a1cecb4136b93f7db	1	1	main_slash	24	advance_on_keypress_SLASH	116	stimuli_target_trianglesquares.svg	stimuli_distractor_diamondtriangles.svg	22	yes	57	0	197	6	2	antiphase_hc_ios.wav	3	6	1	noise_calib_stim_LEFT.wav	1	33	blb_dichoticlistening_ta-ga.mp3	ta	ga	1	other
6.6.3	ios	2023-06-02	07:26:21	07:35:00	443754	63f5c99a1cecb4136b93f7db	1	1	main_slash	24	main_slash	117	stimuli_distractor_trianglediamonds.svg	stimuli_distractor_trianglediamonds.svg	34	no	53	0	45	6	2	antiphase_hc_ios.wav	3	6	1	noise_calib_stim_LEFT.wav	1	33	blb_dichoticlistening_ta-ga.mp3	ta	ga	1	other
6.6.3	ios	2023-06-02	07:26:21	07:35:00	443754	63f5c99a1cecb4136b93f7db	1	1	main_slash	24	advance_on_keypress_SLASH	118	stimuli_distractor_trianglediamonds.svg	stimuli_distractor_trianglediamonds.svg	34	no	57	0	147	6	2	antiphase_hc_ios.wav	3	6	1	noise_calib_stim_LEFT.wav	1	33	blb_dichoticlistening_ta-ga.mp3	ta	ga	1	other
6.6.3	ios	2023-06-02	07:26:21	07:35:01	444636	63f5c99a1cecb4136b93f7db	1	1	main_slash	24	main_slash	119	stimuli_distractor_trianglediamonds.svg	stimuli_distractor_diamondtriangles.svg	36	no	53	0	44	6	2	antiphase_hc_ios.wav	3	6	1	noise_calib_stim_LEFT.wav	1	33	blb_dichoticlistening_ta-ga.mp3	ta	ga	1	other
6.6.3	ios	2023-06-02	07:26:21	07:35:01	444636	63f5c99a1cecb4136b93f7db	1	1	main_slash	24	advance_on_keypress_SLASH	120	stimuli_distractor_trianglediamonds.svg	stimuli_distractor_diamondtriangles.svg	36	no	57	0	181	6	2	antiphase_hc_ios.wav	3	6	1	noise_calib_stim_LEFT.wav	1	33	blb_dichoticlistening_ta-ga.mp3	ta	ga	1	other
6.6.3	ios	2023-06-02	07:26:21	07:35:02	445568	63f5c99a1cecb4136b93f7db	1	1	main_slash	24	main_slash	121	stimuli_distractor_diamondtriangles.svg	stimuli_distractor_diamondtriangles.svg	40	no	53	0	60	6	2	antiphase_hc_ios.wav	3	6	1	noise_calib_stim_LEFT.wav	1	33	blb_dichoticlistening_ta-ga.mp3	ta	ga	1	other
6.6.3	ios	2023-06-02	07:26:21	07:35:02	445568	63f5c99a1cecb4136b93f7db	1	1	main_slash	24	advance_on_keypress_SLASH	122	stimuli_distractor_diamondtriangles.svg	stimuli_distractor_diamondtriangles.svg	40	no	57	0	231	6	2	antiphase_hc_ios.wav	3	6	1	noise_calib_stim_LEFT.wav	1	33	blb_dichoticlistening_ta-ga.mp3	ta	ga	1	other
6.6.3	ios	2023-06-02	07:26:21	07:35:03	446533	63f5c99a1cecb4136b93f7db	1	1	main_slash	24	main_slash	123	stimuli_distractor_trianglediamonds.svg	stimuli_target_diamondsquares.svg	28	yes	53	1	44	6	2	antiphase_hc_ios.wav	3	6	1	noise_calib_stim_LEFT.wav	1	33	blb_dichoticlistening_ta-ga.mp3	ta	ga	1	other
6.6.3	ios	2023-06-02	07:26:21	07:35:03	446533	63f5c99a1cecb4136b93f7db	1	1	main_slash	24	advance_on_keypress_SLASH	124	stimuli_distractor_trianglediamonds.svg	stimuli_target_diamondsquares.svg	28	yes	57	0	114	6	2	antiphase_hc_ios.wav	3	6	1	noise_calib_stim_LEFT.wav	1	33	blb_dichoticlistening_ta-ga.mp3	ta	ga	1	other
6.6.3	ios	2023-06-02	07:26:21	07:35:04	447368	63f5c99a1cecb4136b93f7db	1	1	main_slash	24	main_slash	125	stimuli_distractor_diamondtriangles.svg	stimuli_target_trianglerectangles.svg	29	yes	53	1	20	6	2	antiphase_hc_ios.wav	3	6	1	noise_calib_stim_LEFT.wav	1	33	blb_dichoticlistening_ta-ga.mp3	ta	ga	1	other
6.6.3	ios	2023-06-02	07:26:21	07:35:04	447368	63f5c99a1cecb4136b93f7db	1	1	main_slash	24	advance_on_keypress_SLASH	126	stimuli_distractor_diamondtriangles.svg	stimuli_target_trianglerectangles.svg	29	yes	57	0	147	6	2	antiphase_hc_ios.wav	3	6	1	noise_calib_stim_LEFT.wav	1	33	blb_dichoticlistening_ta-ga.mp3	ta	ga	1	other
6.6.3	ios	2023-06-02	07:26:21	07:35:05	448289	63f5c99a1cecb4136b93f7db	1	1	main_slash	24	main_slash	127	stimuli_distractor_trianglediamonds.svg	stimuli_target_rectanglediamonds.svg	10	yes	53	1	69	6	2	antiphase_hc_ios.wav	3	6	1	noise_calib_stim_LEFT.wav	1	33	blb_dichoticlistening_ta-ga.mp3	ta	ga	1	other
6.6.3	ios	2023-06-02	07:26:21	07:35:05	448289	63f5c99a1cecb4136b93f7db	1	1	main_slash	24	advance_on_keypress_SLASH	128	stimuli_distractor_trianglediamonds.svg	stimuli_target_rectanglediamonds.svg	10	yes	57	0	272	6	2	antiphase_hc_ios.wav	3	6	1	noise_calib_stim_LEFT.wav	1	33	blb_dichoticlistening_ta-ga.mp3	ta	ga	1	other
6.6.3	ios	2023-06-02	07:26:21	07:35:06	449337	63f5c99a1cecb4136b93f7db	1	1	main_slash	24	main_slash	129	stimuli_target_squarediamonds.svg	stimuli_distractor_diamondtriangles.svg	8	yes	53	1	69	6	2	antiphase_hc_ios.wav	3	6	1	noise_calib_stim_LEFT.wav	1	33	blb_dichoticlistening_ta-ga.mp3	ta	ga	1	other
6.6.3	ios	2023-06-02	07:26:21	07:35:06	449337	63f5c99a1cecb4136b93f7db	1	1	main_slash	24	advance_on_keypress_SLASH	130	stimuli_target_squarediamonds.svg	stimuli_distractor_diamondtriangles.svg	8	yes	57	0	172	6	2	antiphase_hc_ios.wav	3	6	1	noise_calib_stim_LEFT.wav	1	33	blb_dichoticlistening_ta-ga.mp3	ta	ga	1	other
6.6.3	ios	2023-06-02	07:26:21	07:35:07	450310	63f5c99a1cecb4136b93f7db	1	1	main_slash	24	main_slash	131	stimuli_distractor_trianglediamonds.svg	stimuli_target_diamondrectangles.svg	27	yes	53	1	94	6	2	antiphase_hc_ios.wav	3	6	1	noise_calib_stim_LEFT.wav	1	33	blb_dichoticlistening_ta-ga.mp3	ta	ga	1	other
6.6.3	ios	2023-06-02	07:26:21	07:35:07	450310	63f5c99a1cecb4136b93f7db	1	1	main_slash	24	advance_on_keypress_SLASH	132	stimuli_distractor_trianglediamonds.svg	stimuli_target_diamondrectangles.svg	27	yes	57	0	321	6	2	antiphase_hc_ios.wav	3	6	1	noise_calib_stim_LEFT.wav	1	33	blb_dichoticlistening_ta-ga.mp3	ta	ga	1	other
6.6.3	ios	2023-06-02	07:26:21	07:35:08	451361	63f5c99a1cecb4136b93f7db	1	1	main_slash	24	main_slash	133	stimuli_distractor_diamondtriangles.svg	stimuli_distractor_trianglediamonds.svg	38	no	53	0	30	6	2	antiphase_hc_ios.wav	3	6	1	noise_calib_stim_LEFT.wav	1	33	blb_dichoticlistening_ta-ga.mp3	ta	ga	1	other
6.6.3	ios	2023-06-02	07:26:21	07:35:08	451361	63f5c99a1cecb4136b93f7db	1	1	main_slash	24	advance_on_keypress_SLASH	134	stimuli_distractor_diamondtriangles.svg	stimuli_distractor_trianglediamonds.svg	38	no	57	0	163	6	2	antiphase_hc_ios.wav	3	6	1	noise_calib_stim_LEFT.wav	1	33	blb_dichoticlistening_ta-ga.mp3	ta	ga	1	other
6.6.3	ios	2023-06-02	07:26:21	07:35:09	452348	63f5c99a1cecb4136b93f7db	1	1	main_slash	24	main_slash	135	stimuli_distractor_diamondtriangles.svg	stimuli_target_trianglesquares.svg	30	yes	53	1	119	6	2	antiphase_hc_ios.wav	3	6	1	noise_calib_stim_LEFT.wav	1	33	blb_dichoticlistening_ta-ga.mp3	ta	ga	1	other
6.6.3	ios	2023-06-02	07:26:21	07:35:09	452348	63f5c99a1cecb4136b93f7db	1	1	main_slash	24	advance_on_keypress_SLASH	136	stimuli_distractor_diamondtriangles.svg	stimuli_target_trianglesquares.svg	30	yes	57	0	238	6	2	antiphase_hc_ios.wav	3	6	1	noise_calib_stim_LEFT.wav	1	33	blb_dichoticlistening_ta-ga.mp3	ta	ga	1	other
6.6.3	ios	2023-06-02	07:26:21	07:35:10	453412	63f5c99a1cecb4136b93f7db	1	1	main_slash	24	main_slash	137	stimuli_target_squaretriangles.svg	stimuli_distractor_diamondtriangles.svg	7	yes	53	1	118	6	2	antiphase_hc_ios.wav	3	6	1	noise_calib_stim_LEFT.wav	1	33	blb_dichoticlistening_ta-ga.mp3	ta	ga	1	other
6.6.3	ios	2023-06-02	07:26:21	07:35:10	453412	63f5c99a1cecb4136b93f7db	1	1	main_slash	24	advance_on_keypress_SLASH	138	stimuli_target_squaretriangles.svg	stimuli_distractor_diamondtriangles.svg	7	yes	57	0	255	6	2	antiphase_hc_ios.wav	3	6	1	noise_calib_stim_LEFT.wav	1	33	blb_dichoticlistening_ta-ga.mp3	ta	ga	1	other
6.6.3	ios	2023-06-02	07:26:21	07:35:11	454693	63f5c99a1cecb4136b93f7db	1	1	main_slash	24	main_slash	139	stimuli_target_rectangletriangles.svg	stimuli_distractor_trianglediamonds.svg	1	yes	53	1	318	6	2	antiphase_hc_ios.wav	3	6	1	noise_calib_stim_LEFT.wav	1	33	blb_dichoticlistening_ta-ga.mp3	ta	ga	1	other
6.6.3	ios	2023-06-02	07:26:21	07:35:11	454693	63f5c99a1cecb4136b93f7db	1	1	main_slash	24	advance_on_keypress_SLASH	140	stimuli_target_rectangletriangles.svg	stimuli_distractor_trianglediamonds.svg	1	yes	57	0	264	6	2	antiphase_hc_ios.wav	3	6	1	noise_calib_stim_LEFT.wav	1	33	blb_dichoticlistening_ta-ga.mp3	ta	ga	1	other
6.6.3	ios	2023-06-02	07:26:21	07:35:12	455775	63f5c99a1cecb4136b93f7db	1	1	main_slash	24	main_slash	141	stimuli_distractor_diamondtriangles.svg	stimuli_target_rectanglediamonds.svg	14	yes	53	1	120	6	2	antiphase_hc_ios.wav	3	6	1	noise_calib_stim_LEFT.wav	1	33	blb_dichoticlistening_ta-ga.mp3	ta	ga	1	other
6.6.3	ios	2023-06-02	07:26:21	07:35:12	455775	63f5c99a1cecb4136b93f7db	1	1	main_slash	24	advance_on_keypress_SLASH	142	stimuli_distractor_diamondtriangles.svg	stimuli_target_rectanglediamonds.svg	14	yes	57	0	314	6	2	antiphase_hc_ios.wav	3	6	1	noise_calib_stim_LEFT.wav	1	33	blb_dichoticlistening_ta-ga.mp3	ta	ga	1	other
6.6.3	ios	2023-06-02	07:26:21	07:35:14	456923	63f5c99a1cecb4136b93f7db	1	1	main_slash	24	main_slash	143	stimuli_target_rectanglediamonds.svg	stimuli_distractor_diamondtriangles.svg	6	yes	53	1	135	6	2	antiphase_hc_ios.wav	3	6	1	noise_calib_stim_LEFT.wav	1	33	blb_dichoticlistening_ta-ga.mp3	ta	ga	1	other
6.6.3	ios	2023-06-02	07:26:21	07:35:14	456923	63f5c99a1cecb4136b93f7db	1	1	main_slash	24	advance_on_keypress_SLASH	144	stimuli_target_rectanglediamonds.svg	stimuli_distractor_diamondtriangles.svg	6	yes	57	0	155	6	2	antiphase_hc_ios.wav	3	6	1	noise_calib_stim_LEFT.wav	1	33	blb_dichoticlistening_ta-ga.mp3	ta	ga	1	other
6.6.3	ios	2023-06-02	07:26:21	07:35:15	458004	63f5c99a1cecb4136b93f7db	1	1	main_slash	24	main_slash	145	stimuli_target_trianglerectangles.svg	stimuli_distractor_trianglediamonds.svg	17	yes	53	1	217	6	2	antiphase_hc_ios.wav	3	6	1	noise_calib_stim_LEFT.wav	1	33	blb_dichoticlistening_ta-ga.mp3	ta	ga	1	other
6.6.3	ios	2023-06-02	07:26:21	07:35:15	458004	63f5c99a1cecb4136b93f7db	1	1	main_slash	24	advance_on_keypress_SLASH	146	stimuli_target_trianglerectangles.svg	stimuli_distractor_trianglediamonds.svg	17	yes	57	0	281	6	2	antiphase_hc_ios.wav	3	6	1	noise_calib_stim_LEFT.wav	1	33	blb_dichoticlistening_ta-ga.mp3	ta	ga	1	other
6.6.3	ios	2023-06-02	07:26:21	07:35:16	459112	63f5c99a1cecb4136b93f7db	1	1	main_slash	24	main_slash	147	stimuli_distractor_trianglediamonds.svg	stimuli_target_squarediamonds.svg	12	yes	53	1	128	6	2	antiphase_hc_ios.wav	3	6	1	noise_calib_stim_LEFT.wav	1	33	blb_dichoticlistening_ta-ga.mp3	ta	ga	1	other
6.6.3	ios	2023-06-02	07:26:21	07:35:16	459112	63f5c99a1cecb4136b93f7db	1	1	main_slash	24	advance_on_keypress_SLASH	148	stimuli_distractor_trianglediamonds.svg	stimuli_target_squarediamonds.svg	12	yes	57	0	156	6	2	antiphase_hc_ios.wav	3	6	1	noise_calib_stim_LEFT.wav	1	33	blb_dichoticlistening_ta-ga.mp3	ta	ga	1	other
6.6.3	ios	2023-06-02	07:26:21	07:35:19	461969	63f5c99a1cecb4136b93f7db	1	1	main_slash	24	main_slash	149	stimuli_distractor_diamondtriangles.svg	stimuli_distractor_trianglediamonds.svg	37	no	0	1	2000	6	2	antiphase_hc_ios.wav	3	6	1	noise_calib_stim_LEFT.wav	1	33	blb_dichoticlistening_ta-ga.mp3	ta	ga	1	other
6.6.3	ios	2023-06-02	07:26:21	07:35:19	461969	63f5c99a1cecb4136b93f7db	1	1	main_slash	24	advance_on_keypress_SLASH	150	stimuli_distractor_diamondtriangles.svg	stimuli_distractor_trianglediamonds.svg	37	no	57	0	18879	6	2	antiphase_hc_ios.wav	3	6	1	noise_calib_stim_LEFT.wav	1	33	blb_dichoticlistening_ta-ga.mp3	ta	ga	1	other
6.6.3	ios	2023-06-02	07:26:21	07:35:38	481848	63f5c99a1cecb4136b93f7db	1	1	main_slash	24	main_slash	151	stimuli_target_trianglerectangles.svg	stimuli_distractor_diamondtriangles.svg	21	yes	53	1	335	6	2	antiphase_hc_ios.wav	3	6	1	noise_calib_stim_LEFT.wav	1	33	blb_dichoticlistening_ta-ga.mp3	ta	ga	1	other
6.6.3	ios	2023-06-02	07:26:21	07:35:38	481848	63f5c99a1cecb4136b93f7db	1	1	main_slash	24	advance_on_keypress_SLASH	152	stimuli_target_trianglerectangles.svg	stimuli_distractor_diamondtriangles.svg	21	yes	57	0	338	6	2	antiphase_hc_ios.wav	3	6	1	noise_calib_stim_LEFT.wav	1	33	blb_dichoticlistening_ta-ga.mp3	ta	ga	1	other
6.6.3	ios	2023-06-02	07:26:21	07:35:42	484899	63f5c99a1cecb4136b93f7db	1	1	main_slash	24	main_slash	153	stimuli_target_squarediamonds.svg	stimuli_distractor_trianglediamonds.svg	4	yes	0	0	2000	6	2	antiphase_hc_ios.wav	3	6	1	noise_calib_stim_LEFT.wav	1	33	blb_dichoticlistening_ta-ga.mp3	ta	ga	1	other
6.6.3	ios	2023-06-02	07:26:21	07:35:42	484899	63f5c99a1cecb4136b93f7db	1	1	main_slash	24	advance_on_keypress_SLASH	154	stimuli_target_squarediamonds.svg	stimuli_distractor_trianglediamonds.svg	4	yes	57	0	49881	6	2	antiphase_hc_ios.wav	3	6	1	noise_calib_stim_LEFT.wav	1	33	blb_dichoticlistening_ta-ga.mp3	ta	ga	1	other
6.6.3	ios	2023-06-02	07:26:21	07:36:32	535512	63f5c99a1cecb4136b93f7db	1	1	main_slash	24	main_slash	155	stimuli_distractor_diamondtriangles.svg	stimuli_distractor_diamondtriangles.svg	39	no	53	0	36	6	2	antiphase_hc_ios.wav	3	6	1	noise_calib_stim_LEFT.wav	1	33	blb_dichoticlistening_ta-ga.mp3	ta	ga	1	other
6.6.3	ios	2023-06-02	07:26:21	07:36:32	535512	63f5c99a1cecb4136b93f7db	1	1	main_slash	24	advance_on_keypress_SLASH	156	stimuli_distractor_diamondtriangles.svg	stimuli_distractor_diamondtriangles.svg	39	no	57	0	131	6	2	antiphase_hc_ios.wav	3	6	1	noise_calib_stim_LEFT.wav	1	33	blb_dichoticlistening_ta-ga.mp3	ta	ga	1	other
6.6.3	ios	2023-06-02	07:26:21	07:36:33	536372	63f5c99a1cecb4136b93f7db	1	1	main_slash	24	main_slash	157	stimuli_distractor_trianglediamonds.svg	stimuli_target_squaretriangles.svg	11	yes	53	1	26	6	2	antiphase_hc_ios.wav	3	6	1	noise_calib_stim_LEFT.wav	1	33	blb_dichoticlistening_ta-ga.mp3	ta	ga	1	other
6.6.3	ios	2023-06-02	07:26:21	07:36:33	536372	63f5c99a1cecb4136b93f7db	1	1	main_slash	24	advance_on_keypress_SLASH	158	stimuli_distractor_trianglediamonds.svg	stimuli_target_squaretriangles.svg	11	yes	57	0	205	6	2	antiphase_hc_ios.wav	3	6	1	noise_calib_stim_LEFT.wav	1	33	blb_dichoticlistening_ta-ga.mp3	ta	ga	1	other
6.6.3	ios	2023-06-02	07:26:21	07:36:34	537459	63f5c99a1cecb4136b93f7db	1	1	main_slash	24	main_slash	159	stimuli_target_rectanglediamonds.svg	stimuli_distractor_trianglediamonds.svg	2	yes	53	1	155	6	2	antiphase_hc_ios.wav	3	6	1	noise_calib_stim_LEFT.wav	1	33	blb_dichoticlistening_ta-ga.mp3	ta	ga	1	other
6.6.3	ios	2023-06-02	07:26:21	07:36:34	537459	63f5c99a1cecb4136b93f7db	1	1	main_slash	24	advance_on_keypress_SLASH	160	stimuli_target_rectanglediamonds.svg	stimuli_distractor_trianglediamonds.svg	2	yes	57	0	338	6	2	antiphase_hc_ios.wav	3	6	1	noise_calib_stim_LEFT.wav	1	33	blb_dichoticlistening_ta-ga.mp3	ta	ga	1	other
6.6.3	ios	2023-06-02	07:26:21	07:36:38	541429	63f5c99a1cecb4136b93f7db	1	1	practice_z	26	practice_z	1	stimuli_distractor_diamondtriangles.svg	stimuli_distractor_diamondtriangles.svg	13	no	44	0	281	6	2	antiphase_hc_ios.wav	3	6	1	noise_calib_stim_LEFT.wav	1	33	blb_dichoticlistening_ta-ga.mp3	ta	ga	1	other
6.6.3	ios	2023-06-02	07:26:21	07:36:38	541429	63f5c99a1cecb4136b93f7db	1	1	practice_z	26	advance_on_keypress_ZEE	2	stimuli_distractor_diamondtriangles.svg	stimuli_distractor_diamondtriangles.svg	13	no	57	0	72	6	2	antiphase_hc_ios.wav	3	6	1	noise_calib_stim_LEFT.wav	1	33	blb_dichoticlistening_ta-ga.mp3	ta	ga	1	other
6.6.3	ios	2023-06-02	07:26:21	07:36:42	545187	63f5c99a1cecb4136b93f7db	1	1	practice_z	26	practice_z	3	stimuli_target_rectanglediamonds.svg	stimuli_distractor_trianglediamonds.svg	4	yes	0	0	2000	6	2	antiphase_hc_ios.wav	3	6	1	noise_calib_stim_LEFT.wav	1	33	blb_dichoticlistening_ta-ga.mp3	ta	ga	1	other
6.6.3	ios	2023-06-02	07:26:21	07:36:42	545187	63f5c99a1cecb4136b93f7db	1	1	practice_z	26	advance_on_keypress_ZEE	4	stimuli_target_rectanglediamonds.svg	stimuli_distractor_trianglediamonds.svg	4	yes	57	0	3195	6	2	antiphase_hc_ios.wav	3	6	1	noise_calib_stim_LEFT.wav	1	33	blb_dichoticlistening_ta-ga.mp3	ta	ga	1	other
6.6.3	ios	2023-06-02	07:26:21	07:36:47	550255	63f5c99a1cecb4136b93f7db	1	1	practice_z	26	practice_z	5	stimuli_distractor_trianglediamonds.svg	stimuli_target_squarediamonds.svg	11	yes	44	1	186	6	2	antiphase_hc_ios.wav	3	6	1	noise_calib_stim_LEFT.wav	1	33	blb_dichoticlistening_ta-ga.mp3	ta	ga	1	other
6.6.3	ios	2023-06-02	07:26:21	07:36:47	550255	63f5c99a1cecb4136b93f7db	1	1	practice_z	26	advance_on_keypress_ZEE	6	stimuli_distractor_trianglediamonds.svg	stimuli_target_squarediamonds.svg	11	yes	57	0	63	6	2	antiphase_hc_ios.wav	3	6	1	noise_calib_stim_LEFT.wav	1	33	blb_dichoticlistening_ta-ga.mp3	ta	ga	1	other
6.6.3	ios	2023-06-02	07:26:21	07:36:49	552052	63f5c99a1cecb4136b93f7db	1	1	practice_z	26	practice_z	7	stimuli_distractor_trianglediamonds.svg	stimuli_target_diamondrectangles.svg	12	yes	44	1	69	6	2	antiphase_hc_ios.wav	3	6	1	noise_calib_stim_LEFT.wav	1	33	blb_dichoticlistening_ta-ga.mp3	ta	ga	1	other
6.6.3	ios	2023-06-02	07:26:21	07:36:49	552052	63f5c99a1cecb4136b93f7db	1	1	practice_z	26	advance_on_keypress_ZEE	8	stimuli_distractor_trianglediamonds.svg	stimuli_target_diamondrectangles.svg	12	yes	57	0	205	6	2	antiphase_hc_ios.wav	3	6	1	noise_calib_stim_LEFT.wav	1	33	blb_dichoticlistening_ta-ga.mp3	ta	ga	1	other
6.6.3	ios	2023-06-02	07:26:21	07:36:51	554139	63f5c99a1cecb4136b93f7db	1	1	practice_z	26	practice_z	9	stimuli_target_diamondsquares.svg	stimuli_distractor_trianglediamonds.svg	6	yes	44	1	210	6	2	antiphase_hc_ios.wav	3	6	1	noise_calib_stim_LEFT.wav	1	33	blb_dichoticlistening_ta-ga.mp3	ta	ga	1	other
6.6.3	ios	2023-06-02	07:26:21	07:36:51	554139	63f5c99a1cecb4136b93f7db	1	1	practice_z	26	advance_on_keypress_ZEE	10	stimuli_target_diamondsquares.svg	stimuli_distractor_trianglediamonds.svg	6	yes	57	0	397	6	2	antiphase_hc_ios.wav	3	6	1	noise_calib_stim_LEFT.wav	1	33	blb_dichoticlistening_ta-ga.mp3	ta	ga	1	other
6.6.3	ios	2023-06-02	07:26:21	07:36:53	556512	63f5c99a1cecb4136b93f7db	1	1	practice_z	26	practice_z	11	stimuli_distractor_diamondtriangles.svg	stimuli_target_diamondrectangles.svg	8	yes	44	1	272	6	2	antiphase_hc_ios.wav	3	6	1	noise_calib_stim_LEFT.wav	1	33	blb_dichoticlistening_ta-ga.mp3	ta	ga	1	other
6.6.3	ios	2023-06-02	07:26:21	07:36:53	556512	63f5c99a1cecb4136b93f7db	1	1	practice_z	26	advance_on_keypress_ZEE	12	stimuli_distractor_diamondtriangles.svg	stimuli_target_diamondrectangles.svg	8	yes	57	0	2781	6	2	antiphase_hc_ios.wav	3	6	1	noise_calib_stim_LEFT.wav	1	33	blb_dichoticlistening_ta-ga.mp3	ta	ga	1	other
6.6.3	ios	2023-06-02	07:26:21	07:36:58	561079	63f5c99a1cecb4136b93f7db	1	1	practice_z	26	practice_z	13	stimuli_distractor_trianglediamonds.svg	stimuli_target_rectanglediamonds.svg	10	yes	44	1	109	6	2	antiphase_hc_ios.wav	3	6	1	noise_calib_stim_LEFT.wav	1	33	blb_dichoticlistening_ta-ga.mp3	ta	ga	1	other
6.6.3	ios	2023-06-02	07:26:21	07:36:58	561079	63f5c99a1cecb4136b93f7db	1	1	practice_z	26	advance_on_keypress_ZEE	14	stimuli_distractor_trianglediamonds.svg	stimuli_target_rectanglediamonds.svg	10	yes	57	0	113	6	2	antiphase_hc_ios.wav	3	6	1	noise_calib_stim_LEFT.wav	1	33	blb_dichoticlistening_ta-ga.mp3	ta	ga	1	other
6.6.3	ios	2023-06-02	07:26:21	07:37:00	563029	63f5c99a1cecb4136b93f7db	1	1	practice_z	26	practice_z	15	stimuli_distractor_diamondtriangles.svg	stimuli_target_rectangletriangles.svg	7	yes	44	1	153	6	2	antiphase_hc_ios.wav	3	6	1	noise_calib_stim_LEFT.wav	1	33	blb_dichoticlistening_ta-ga.mp3	ta	ga	1	other
6.6.3	ios	2023-06-02	07:26:21	07:37:00	563029	63f5c99a1cecb4136b93f7db	1	1	practice_z	26	advance_on_keypress_ZEE	16	stimuli_distractor_diamondtriangles.svg	stimuli_target_rectangletriangles.svg	7	yes	57	0	446	6	2	antiphase_hc_ios.wav	3	6	1	noise_calib_stim_LEFT.wav	1	33	blb_dichoticlistening_ta-ga.mp3	ta	ga	1	other
