build	computer.platform	date	time	timestamp	time_elapsed_ms	subject	group	session	blockcode	blocknum	trialcode	trialnum	stimulus_left	stimulus_right	stim_index	target_present	response	correct	latency	headphonecheck_countTestTrials	headphonecheck_index	headphonecheck_testSound	headphonecheck_correctResponse	stereocheck_countTestTrials	stereocheck_index	stereocheck_testSound	stereocheck_correctResponse	DL_index	DL_soundfile	DL_leftSound	DL_rightSound	DL_dualSound	DL_choice
6.6.1	win	2023-06-27	09:56:09	10:00:33	260217	612669b8c92504572e54c62b	4	1	practice_z	5	practice_z	1	stimuli_target_rectanglediamonds.svg	stimuli_distractor_trianglediamonds.svg	4	yes	44	1	358	0	0			0	0			1				0	
6.6.1	win	2023-06-27	09:56:09	10:00:33	260217	612669b8c92504572e54c62b	4	1	practice_z	5	advance_on_keypress_ZEE	2	stimuli_target_rectanglediamonds.svg	stimuli_distractor_trianglediamonds.svg	4	yes	57	0	1629	0	0			0	0			1				0	
6.6.1	win	2023-06-27	09:56:09	10:00:37	263921	612669b8c92504572e54c62b	4	1	practice_z	5	practice_z	3	stimuli_distractor_diamondtriangles.svg	stimuli_target_diamondrectangles.svg	8	yes	44	1	419	0	0			0	0			1				0	
6.6.1	win	2023-06-27	09:56:09	10:00:37	263921	612669b8c92504572e54c62b	4	1	practice_z	5	advance_on_keypress_ZEE	4	stimuli_distractor_diamondtriangles.svg	stimuli_target_diamondrectangles.svg	8	yes	57	0	1315	0	0			0	0			1				0	
6.6.1	win	2023-06-27	09:56:09	10:00:40	267271	612669b8c92504572e54c62b	4	1	practice_z	5	practice_z	5	stimuli_distractor_trianglediamonds.svg	stimuli_target_squarediamonds.svg	11	yes	44	1	397	0	0			0	0			1				0	
6.6.1	win	2023-06-27	09:56:09	10:00:40	267271	612669b8c92504572e54c62b	4	1	practice_z	5	advance_on_keypress_ZEE	6	stimuli_distractor_trianglediamonds.svg	stimuli_target_squarediamonds.svg	11	yes	57	0	704	0	0			0	0			1				0	
6.6.1	win	2023-06-27	09:56:09	10:00:43	270009	612669b8c92504572e54c62b	4	1	practice_z	5	practice_z	7	stimuli_distractor_trianglediamonds.svg	stimuli_target_diamondrectangles.svg	12	yes	44	1	398	0	0			0	0			1				0	
6.6.1	win	2023-06-27	09:56:09	10:00:43	270009	612669b8c92504572e54c62b	4	1	practice_z	5	advance_on_keypress_ZEE	8	stimuli_distractor_trianglediamonds.svg	stimuli_target_diamondrectangles.svg	12	yes	57	0	753	0	0			0	0			1				0	
6.6.1	win	2023-06-27	09:56:09	10:00:47	274400	612669b8c92504572e54c62b	4	1	practice_z	5	practice_z	9	stimuli_target_diamondsquares.svg	stimuli_distractor_trianglediamonds.svg	6	yes	0	0	2000	0	0			0	0			1				0	
6.6.1	win	2023-06-27	09:56:09	10:00:47	274400	612669b8c92504572e54c62b	4	1	practice_z	5	advance_on_keypress_ZEE	10	stimuli_target_diamondsquares.svg	stimuli_distractor_trianglediamonds.svg	6	yes	57	0	673	0	0			0	0			1				0	
6.6.1	win	2023-06-27	09:56:09	10:00:50	277153	612669b8c92504572e54c62b	4	1	practice_z	5	practice_z	11	stimuli_target_squarediamonds.svg	stimuli_distractor_diamondtriangles.svg	2	yes	44	1	443	0	0			0	0			1				0	
6.6.1	win	2023-06-27	09:56:09	10:00:50	277153	612669b8c92504572e54c62b	4	1	practice_z	5	advance_on_keypress_ZEE	12	stimuli_target_squarediamonds.svg	stimuli_distractor_diamondtriangles.svg	2	yes	57	0	1043	0	0			0	0			1				0	
6.6.1	win	2023-06-27	09:56:09	10:00:53	280211	612669b8c92504572e54c62b	4	1	practice_z	5	practice_z	13	stimuli_distractor_trianglediamonds.svg	stimuli_distractor_diamondtriangles.svg	16	no	44	0	377	0	0			0	0			1				0	
6.6.1	win	2023-06-27	09:56:09	10:00:53	280211	612669b8c92504572e54c62b	4	1	practice_z	5	advance_on_keypress_ZEE	14	stimuli_distractor_trianglediamonds.svg	stimuli_distractor_diamondtriangles.svg	16	no	57	0	641	0	0			0	0			1				0	
6.6.1	win	2023-06-27	09:56:09	10:00:56	282866	612669b8c92504572e54c62b	4	1	practice_z	5	practice_z	15	stimuli_target_rectanglediamonds.svg	stimuli_distractor_diamondtriangles.svg	1	yes	44	1	378	0	0			0	0			1				0	
6.6.1	win	2023-06-27	09:56:09	10:00:56	282866	612669b8c92504572e54c62b	4	1	practice_z	5	advance_on_keypress_ZEE	16	stimuli_target_rectanglediamonds.svg	stimuli_distractor_diamondtriangles.svg	1	yes	57	0	529	0	0			0	0			1				0	
6.6.1	win	2023-06-27	09:56:09	10:00:58	285434	612669b8c92504572e54c62b	4	1	practice_z	5	practice_z	17	stimuli_distractor_diamondtriangles.svg	stimuli_target_rectangletriangles.svg	7	yes	44	1	401	0	0			0	0			1				0	
6.6.1	win	2023-06-27	09:56:09	10:00:58	285434	612669b8c92504572e54c62b	4	1	practice_z	5	advance_on_keypress_ZEE	18	stimuli_distractor_diamondtriangles.svg	stimuli_target_rectangletriangles.svg	7	yes	57	0	470	0	0			0	0			1				0	
6.6.1	win	2023-06-27	09:56:09	10:01:01	287872	612669b8c92504572e54c62b	4	1	practice_z	5	practice_z	19	stimuli_target_diamondsquares.svg	stimuli_distractor_diamondtriangles.svg	3	yes	44	1	332	0	0			0	0			1				0	
6.6.1	win	2023-06-27	09:56:09	10:01:01	287872	612669b8c92504572e54c62b	4	1	practice_z	5	advance_on_keypress_ZEE	20	stimuli_target_diamondsquares.svg	stimuli_distractor_diamondtriangles.svg	3	yes	57	0	601	0	0			0	0			1				0	
6.6.1	win	2023-06-27	09:56:09	10:01:05	292109	612669b8c92504572e54c62b	4	1	practice_z	5	practice_z	21	stimuli_distractor_diamondtriangles.svg	stimuli_distractor_trianglediamonds.svg	14	no	0	1	2000	0	0			0	0			1				0	
6.6.1	win	2023-06-27	09:56:09	10:01:05	292109	612669b8c92504572e54c62b	4	1	practice_z	5	advance_on_keypress_ZEE	22	stimuli_distractor_diamondtriangles.svg	stimuli_distractor_trianglediamonds.svg	14	no	57	0	378	0	0			0	0			1				0	
6.6.1	win	2023-06-27	09:56:09	10:01:07	294528	612669b8c92504572e54c62b	4	1	practice_z	5	practice_z	23	stimuli_distractor_trianglediamonds.svg	stimuli_target_rectanglediamonds.svg	10	yes	44	1	404	0	0			0	0			1				0	
6.6.1	win	2023-06-27	09:56:09	10:01:07	294528	612669b8c92504572e54c62b	4	1	practice_z	5	advance_on_keypress_ZEE	24	stimuli_distractor_trianglediamonds.svg	stimuli_target_rectanglediamonds.svg	10	yes	57	0	519	0	0			0	0			1				0	
6.6.1	win	2023-06-27	09:56:09	10:01:10	296987	612669b8c92504572e54c62b	4	1	practice_z	5	practice_z	25	stimuli_target_squarediamonds.svg	stimuli_distractor_trianglediamonds.svg	5	yes	44	1	301	0	0			0	0			1				0	
6.6.1	win	2023-06-27	09:56:09	10:01:10	296987	612669b8c92504572e54c62b	4	1	practice_z	5	advance_on_keypress_ZEE	26	stimuli_target_squarediamonds.svg	stimuli_distractor_trianglediamonds.svg	5	yes	57	0	553	0	0			0	0			1				0	
6.6.1	win	2023-06-27	09:56:09	10:01:14	301177	612669b8c92504572e54c62b	4	1	practice_z	5	practice_z	27	stimuli_distractor_trianglediamonds.svg	stimuli_distractor_trianglediamonds.svg	15	no	0	1	2000	0	0			0	0			1				0	
6.6.1	win	2023-06-27	09:56:09	10:01:14	301177	612669b8c92504572e54c62b	4	1	practice_z	5	advance_on_keypress_ZEE	28	stimuli_distractor_trianglediamonds.svg	stimuli_distractor_trianglediamonds.svg	15	no	57	0	406	0	0			0	0			1				0	
6.6.1	win	2023-06-27	09:56:09	10:01:16	303690	612669b8c92504572e54c62b	4	1	practice_z	5	practice_z	29	stimuli_distractor_diamondtriangles.svg	stimuli_target_trianglerectangles.svg	9	yes	44	1	471	0	0			0	0			1				0	
6.6.1	win	2023-06-27	09:56:09	10:01:16	303690	612669b8c92504572e54c62b	4	1	practice_z	5	advance_on_keypress_ZEE	30	stimuli_distractor_diamondtriangles.svg	stimuli_target_trianglerectangles.svg	9	yes	57	0	430	0	0			0	0			1				0	
6.6.1	win	2023-06-27	09:56:09	10:01:20	307759	612669b8c92504572e54c62b	4	1	practice_z	5	practice_z	31	stimuli_distractor_diamondtriangles.svg	stimuli_distractor_diamondtriangles.svg	13	no	0	1	2000	0	0			0	0			1				0	
6.6.1	win	2023-06-27	09:56:09	10:01:20	307759	612669b8c92504572e54c62b	4	1	practice_z	5	advance_on_keypress_ZEE	32	stimuli_distractor_diamondtriangles.svg	stimuli_distractor_diamondtriangles.svg	13	no	57	0	437	0	0			0	0			1				0	
6.6.1	win	2023-06-27	09:56:09	10:01:35	322445	612669b8c92504572e54c62b	4	1	main_z	7	main_z	1	stimuli_distractor_diamondtriangles.svg	stimuli_distractor_diamondtriangles.svg	39	no	0	1	2000	0	0			0	0			1				0	
6.6.1	win	2023-06-27	09:56:09	10:01:35	322445	612669b8c92504572e54c62b	4	1	main_z	7	advance_on_keypress_ZEE	2	stimuli_distractor_diamondtriangles.svg	stimuli_distractor_diamondtriangles.svg	39	no	57	0	747	0	0			0	0			1				0	
6.6.1	win	2023-06-27	09:56:09	10:01:37	324268	612669b8c92504572e54c62b	4	1	main_z	7	main_z	3	stimuli_distractor_trianglediamonds.svg	stimuli_target_diamondrectangles.svg	27	yes	44	1	442	0	0			0	0			1				0	
6.6.1	win	2023-06-27	09:56:09	10:01:37	324268	612669b8c92504572e54c62b	4	1	main_z	7	advance_on_keypress_ZEE	4	stimuli_distractor_trianglediamonds.svg	stimuli_target_diamondrectangles.svg	27	yes	57	0	1148	0	0			0	0			1				0	
6.6.1	win	2023-06-27	09:56:09	10:01:39	326337	612669b8c92504572e54c62b	4	1	main_z	7	main_z	5	stimuli_distractor_diamondtriangles.svg	stimuli_target_squaretriangles.svg	15	yes	44	1	279	0	0			0	0			1				0	
6.6.1	win	2023-06-27	09:56:09	10:01:39	326337	612669b8c92504572e54c62b	4	1	main_z	7	advance_on_keypress_ZEE	6	stimuli_distractor_diamondtriangles.svg	stimuli_target_squaretriangles.svg	15	yes	57	0	719	0	0			0	0			1				0	
6.6.1	win	2023-06-27	09:56:09	10:01:41	328157	612669b8c92504572e54c62b	4	1	main_z	7	main_z	7	stimuli_target_diamondrectangles.svg	stimuli_distractor_diamondtriangles.svg	23	yes	44	1	467	0	0			0	0			1				0	
6.6.1	win	2023-06-27	09:56:09	10:01:41	328157	612669b8c92504572e54c62b	4	1	main_z	7	advance_on_keypress_ZEE	8	stimuli_target_diamondrectangles.svg	stimuli_distractor_diamondtriangles.svg	23	yes	57	0	534	0	0			0	0			1				0	
6.6.1	win	2023-06-27	09:56:09	10:01:44	331328	612669b8c92504572e54c62b	4	1	main_z	7	main_z	9	stimuli_distractor_trianglediamonds.svg	stimuli_distractor_trianglediamonds.svg	34	no	0	1	2000	0	0			0	0			1				0	
6.6.1	win	2023-06-27	09:56:09	10:01:44	331328	612669b8c92504572e54c62b	4	1	main_z	7	advance_on_keypress_ZEE	10	stimuli_distractor_trianglediamonds.svg	stimuli_distractor_trianglediamonds.svg	34	no	57	0	345	0	0			0	0			1				0	
6.6.1	win	2023-06-27	09:56:09	10:01:45	332726	612669b8c92504572e54c62b	4	1	main_z	7	main_z	11	stimuli_distractor_diamondtriangles.svg	stimuli_target_diamondrectangles.svg	31	yes	44	1	420	0	0			0	0			1				0	
6.6.1	win	2023-06-27	09:56:09	10:01:45	332726	612669b8c92504572e54c62b	4	1	main_z	7	advance_on_keypress_ZEE	12	stimuli_distractor_diamondtriangles.svg	stimuli_target_diamondrectangles.svg	31	yes	57	0	739	0	0			0	0			1				0	
6.6.1	win	2023-06-27	09:56:09	10:01:47	334623	612669b8c92504572e54c62b	4	1	main_z	7	main_z	13	stimuli_distractor_trianglediamonds.svg	stimuli_target_rectangletriangles.svg	9	yes	44	1	527	0	0			0	0			1				0	
6.6.1	win	2023-06-27	09:56:09	10:01:47	334623	612669b8c92504572e54c62b	4	1	main_z	7	advance_on_keypress_ZEE	14	stimuli_distractor_trianglediamonds.svg	stimuli_target_rectangletriangles.svg	9	yes	57	0	766	0	0			0	0			1				0	
6.6.1	win	2023-06-27	09:56:09	10:01:49	336508	612669b8c92504572e54c62b	4	1	main_z	7	main_z	15	stimuli_target_trianglerectangles.svg	stimuli_distractor_trianglediamonds.svg	17	yes	44	1	478	0	0			0	0			1				0	
6.6.1	win	2023-06-27	09:56:09	10:01:49	336508	612669b8c92504572e54c62b	4	1	main_z	7	advance_on_keypress_ZEE	16	stimuli_target_trianglerectangles.svg	stimuli_distractor_trianglediamonds.svg	17	yes	57	0	578	0	0			0	0			1				0	
6.6.1	win	2023-06-27	09:56:09	10:01:52	339727	612669b8c92504572e54c62b	4	1	main_z	7	main_z	17	stimuli_target_trianglesquares.svg	stimuli_distractor_trianglediamonds.svg	18	yes	0	0	2000	0	0			0	0			1				0	
6.6.1	win	2023-06-27	09:56:09	10:01:52	339727	612669b8c92504572e54c62b	4	1	main_z	7	advance_on_keypress_ZEE	18	stimuli_target_trianglesquares.svg	stimuli_distractor_trianglediamonds.svg	18	yes	57	0	371	0	0			0	0			1				0	
6.6.1	win	2023-06-27	09:56:09	10:01:54	341240	612669b8c92504572e54c62b	4	1	main_z	7	main_z	19	stimuli_target_trianglesquares.svg	stimuli_distractor_diamondtriangles.svg	22	yes	44	1	502	0	0			0	0			1				0	
6.6.1	win	2023-06-27	09:56:09	10:01:54	341240	612669b8c92504572e54c62b	4	1	main_z	7	advance_on_keypress_ZEE	20	stimuli_target_trianglesquares.svg	stimuli_distractor_diamondtriangles.svg	22	yes	57	0	861	0	0			0	0			1				0	
6.6.1	win	2023-06-27	09:56:09	10:01:56	343328	612669b8c92504572e54c62b	4	1	main_z	7	main_z	21	stimuli_distractor_trianglediamonds.svg	stimuli_target_trianglesquares.svg	26	yes	44	1	582	0	0			0	0			1				0	
6.6.1	win	2023-06-27	09:56:09	10:01:56	343328	612669b8c92504572e54c62b	4	1	main_z	7	advance_on_keypress_ZEE	22	stimuli_distractor_trianglediamonds.svg	stimuli_target_trianglesquares.svg	26	yes	57	0	984	0	0			0	0			1				0	
6.6.1	win	2023-06-27	09:56:09	10:01:58	345394	612669b8c92504572e54c62b	4	1	main_z	7	main_z	23	stimuli_target_rectanglediamonds.svg	stimuli_distractor_trianglediamonds.svg	2	yes	44	1	448	0	0			0	0			1				0	
6.6.1	win	2023-06-27	09:56:09	10:01:58	345394	612669b8c92504572e54c62b	4	1	main_z	7	advance_on_keypress_ZEE	24	stimuli_target_rectanglediamonds.svg	stimuli_distractor_trianglediamonds.svg	2	yes	57	0	801	0	0			0	0			1				0	
6.6.1	win	2023-06-27	09:56:09	10:02:02	348831	612669b8c92504572e54c62b	4	1	main_z	7	main_z	25	stimuli_distractor_diamondtriangles.svg	stimuli_distractor_trianglediamonds.svg	37	no	0	1	2000	0	0			0	0			1				0	
6.6.1	win	2023-06-27	09:56:09	10:02:02	348831	612669b8c92504572e54c62b	4	1	main_z	7	advance_on_keypress_ZEE	26	stimuli_distractor_diamondtriangles.svg	stimuli_distractor_trianglediamonds.svg	37	no	57	0	292	0	0			0	0			1				0	
6.6.1	win	2023-06-27	09:56:09	10:02:03	350126	612669b8c92504572e54c62b	4	1	main_z	7	main_z	27	stimuli_target_squarediamonds.svg	stimuli_distractor_trianglediamonds.svg	4	yes	44	1	366	0	0			0	0			1				0	
6.6.1	win	2023-06-27	09:56:09	10:02:03	350126	612669b8c92504572e54c62b	4	1	main_z	7	advance_on_keypress_ZEE	28	stimuli_target_squarediamonds.svg	stimuli_distractor_trianglediamonds.svg	4	yes	57	0	693	0	0			0	0			1				0	
6.6.1	win	2023-06-27	09:56:09	10:02:05	351854	612669b8c92504572e54c62b	4	1	main_z	7	main_z	29	stimuli_target_rectanglediamonds.svg	stimuli_distractor_diamondtriangles.svg	6	yes	44	1	401	0	0			0	0			1				0	
6.6.1	win	2023-06-27	09:56:09	10:02:05	351854	612669b8c92504572e54c62b	4	1	main_z	7	advance_on_keypress_ZEE	30	stimuli_target_rectanglediamonds.svg	stimuli_distractor_diamondtriangles.svg	6	yes	57	0	582	0	0			0	0			1				0	
6.6.1	win	2023-06-27	09:56:09	10:02:06	353476	612669b8c92504572e54c62b	4	1	main_z	7	main_z	31	stimuli_target_squarediamonds.svg	stimuli_distractor_diamondtriangles.svg	8	yes	44	1	408	0	0			0	0			1				0	
6.6.1	win	2023-06-27	09:56:09	10:02:06	353476	612669b8c92504572e54c62b	4	1	main_z	7	advance_on_keypress_ZEE	32	stimuli_target_squarediamonds.svg	stimuli_distractor_diamondtriangles.svg	8	yes	57	0	411	0	0			0	0			1				0	
6.6.1	win	2023-06-27	09:56:09	10:02:08	354890	612669b8c92504572e54c62b	4	1	main_z	7	main_z	33	stimuli_distractor_trianglediamonds.svg	stimuli_target_squaretriangles.svg	11	yes	44	1	359	0	0			0	0			1				0	
6.6.1	win	2023-06-27	09:56:09	10:02:08	354890	612669b8c92504572e54c62b	4	1	main_z	7	advance_on_keypress_ZEE	34	stimuli_distractor_trianglediamonds.svg	stimuli_target_squaretriangles.svg	11	yes	57	0	382	0	0			0	0			1				0	
6.6.1	win	2023-06-27	09:56:09	10:02:09	356251	612669b8c92504572e54c62b	4	1	main_z	7	main_z	35	stimuli_distractor_diamondtriangles.svg	stimuli_target_squarediamonds.svg	16	yes	44	1	344	0	0			0	0			1				0	
6.6.1	win	2023-06-27	09:56:09	10:02:09	356251	612669b8c92504572e54c62b	4	1	main_z	7	advance_on_keypress_ZEE	36	stimuli_distractor_diamondtriangles.svg	stimuli_target_squarediamonds.svg	16	yes	57	0	444	0	0			0	0			1				0	
6.6.1	win	2023-06-27	09:56:09	10:02:12	359330	612669b8c92504572e54c62b	4	1	main_z	7	main_z	37	stimuli_distractor_diamondtriangles.svg	stimuli_distractor_trianglediamonds.svg	38	no	0	1	2000	0	0			0	0			1				0	
6.6.1	win	2023-06-27	09:56:09	10:02:12	359330	612669b8c92504572e54c62b	4	1	main_z	7	advance_on_keypress_ZEE	38	stimuli_distractor_diamondtriangles.svg	stimuli_distractor_trianglediamonds.svg	38	no	57	0	429	0	0			0	0			1				0	
6.6.1	win	2023-06-27	09:56:09	10:02:13	360715	612669b8c92504572e54c62b	4	1	main_z	7	main_z	39	stimuli_distractor_diamondtriangles.svg	stimuli_target_trianglesquares.svg	30	yes	44	1	322	0	0			0	0			1				0	
6.6.1	win	2023-06-27	09:56:09	10:02:13	360715	612669b8c92504572e54c62b	4	1	main_z	7	advance_on_keypress_ZEE	40	stimuli_distractor_diamondtriangles.svg	stimuli_target_trianglesquares.svg	30	yes	57	0	462	0	0			0	0			1				0	
6.6.1	win	2023-06-27	09:56:09	10:02:15	362263	612669b8c92504572e54c62b	4	1	main_z	7	main_z	41	stimuli_target_rectangletriangles.svg	stimuli_distractor_trianglediamonds.svg	1	yes	44	1	452	0	0			0	0			1				0	
6.6.1	win	2023-06-27	09:56:09	10:02:15	362263	612669b8c92504572e54c62b	4	1	main_z	7	advance_on_keypress_ZEE	42	stimuli_target_rectangletriangles.svg	stimuli_distractor_trianglediamonds.svg	1	yes	57	0	546	0	0			0	0			1				0	
6.6.1	win	2023-06-27	09:56:09	10:02:16	363756	612669b8c92504572e54c62b	4	1	main_z	7	main_z	43	stimuli_target_squaretriangles.svg	stimuli_distractor_diamondtriangles.svg	7	yes	44	1	314	0	0			0	0			1				0	
6.6.1	win	2023-06-27	09:56:09	10:02:16	363756	612669b8c92504572e54c62b	4	1	main_z	7	advance_on_keypress_ZEE	44	stimuli_target_squaretriangles.svg	stimuli_distractor_diamondtriangles.svg	7	yes	57	0	381	0	0			0	0			1				0	
6.6.1	win	2023-06-27	09:56:09	10:02:19	366772	612669b8c92504572e54c62b	4	1	main_z	7	main_z	45	stimuli_target_diamondrectangles.svg	stimuli_distractor_trianglediamonds.svg	19	yes	0	0	2000	0	0			0	0			1				0	
6.6.1	win	2023-06-27	09:56:09	10:02:19	366772	612669b8c92504572e54c62b	4	1	main_z	7	advance_on_keypress_ZEE	46	stimuli_target_diamondrectangles.svg	stimuli_distractor_trianglediamonds.svg	19	yes	57	0	426	0	0			0	0			1				0	
6.6.1	win	2023-06-27	09:56:09	10:02:21	368226	612669b8c92504572e54c62b	4	1	main_z	7	main_z	47	stimuli_distractor_trianglediamonds.svg	stimuli_distractor_diamondtriangles.svg	35	no	44	0	395	0	0			0	0			1				0	
6.6.1	win	2023-06-27	09:56:09	10:02:21	368226	612669b8c92504572e54c62b	4	1	main_z	7	advance_on_keypress_ZEE	48	stimuli_distractor_trianglediamonds.svg	stimuli_distractor_diamondtriangles.svg	35	no	57	0	373	0	0			0	0			1				0	
6.6.1	win	2023-06-27	09:56:09	10:02:24	371240	612669b8c92504572e54c62b	4	1	main_z	7	main_z	49	stimuli_target_trianglerectangles.svg	stimuli_distractor_diamondtriangles.svg	21	yes	0	0	2000	0	0			0	0			1				0	
6.6.1	win	2023-06-27	09:56:09	10:02:24	371240	612669b8c92504572e54c62b	4	1	main_z	7	advance_on_keypress_ZEE	50	stimuli_target_trianglerectangles.svg	stimuli_distractor_diamondtriangles.svg	21	yes	57	0	387	0	0			0	0			1				0	
6.6.1	win	2023-06-27	09:56:09	10:02:25	372663	612669b8c92504572e54c62b	4	1	main_z	7	main_z	51	stimuli_distractor_diamondtriangles.svg	stimuli_target_diamondsquares.svg	32	yes	44	1	401	0	0			0	0			1				0	
6.6.1	win	2023-06-27	09:56:09	10:02:25	372663	612669b8c92504572e54c62b	4	1	main_z	7	advance_on_keypress_ZEE	52	stimuli_distractor_diamondtriangles.svg	stimuli_target_diamondsquares.svg	32	yes	57	0	354	0	0			0	0			1				0	
6.6.1	win	2023-06-27	09:56:09	10:02:27	374002	612669b8c92504572e54c62b	4	1	main_z	7	main_z	53	stimuli_distractor_trianglediamonds.svg	stimuli_target_squarediamonds.svg	12	yes	44	1	351	0	0			0	0			1				0	
6.6.1	win	2023-06-27	09:56:09	10:02:27	374002	612669b8c92504572e54c62b	4	1	main_z	7	advance_on_keypress_ZEE	54	stimuli_distractor_trianglediamonds.svg	stimuli_target_squarediamonds.svg	12	yes	57	0	453	0	0			0	0			1				0	
6.6.1	win	2023-06-27	09:56:09	10:02:28	375482	612669b8c92504572e54c62b	4	1	main_z	7	main_z	55	stimuli_target_rectangletriangles.svg	stimuli_distractor_diamondtriangles.svg	5	yes	44	1	392	0	0			0	0			1				0	
6.6.1	win	2023-06-27	09:56:09	10:02:28	375482	612669b8c92504572e54c62b	4	1	main_z	7	advance_on_keypress_ZEE	56	stimuli_target_rectangletriangles.svg	stimuli_distractor_diamondtriangles.svg	5	yes	57	0	400	0	0			0	0			1				0	
6.6.1	win	2023-06-27	09:56:09	10:02:31	378526	612669b8c92504572e54c62b	4	1	main_z	7	main_z	57	stimuli_target_diamondsquares.svg	stimuli_distractor_diamondtriangles.svg	24	yes	0	0	2000	0	0			0	0			1				0	
6.6.1	win	2023-06-27	09:56:09	10:02:31	378526	612669b8c92504572e54c62b	4	1	main_z	7	advance_on_keypress_ZEE	58	stimuli_target_diamondsquares.svg	stimuli_distractor_diamondtriangles.svg	24	yes	57	0	475	0	0			0	0			1				0	
6.6.1	win	2023-06-27	09:56:09	10:02:33	379936	612669b8c92504572e54c62b	4	1	main_z	7	main_z	59	stimuli_distractor_diamondtriangles.svg	stimuli_target_rectangletriangles.svg	13	yes	44	1	301	0	0			0	0			1				0	
6.6.1	win	2023-06-27	09:56:09	10:02:33	379936	612669b8c92504572e54c62b	4	1	main_z	7	advance_on_keypress_ZEE	60	stimuli_distractor_diamondtriangles.svg	stimuli_target_rectangletriangles.svg	13	yes	57	0	454	0	0			0	0			1				0	
6.6.1	win	2023-06-27	09:56:09	10:02:34	381425	612669b8c92504572e54c62b	4	1	main_z	7	main_z	61	stimuli_target_squaretriangles.svg	stimuli_distractor_trianglediamonds.svg	3	yes	44	1	400	0	0			0	0			1				0	
6.6.1	win	2023-06-27	09:56:09	10:02:34	381425	612669b8c92504572e54c62b	4	1	main_z	7	advance_on_keypress_ZEE	62	stimuli_target_squaretriangles.svg	stimuli_distractor_trianglediamonds.svg	3	yes	57	0	428	0	0			0	0			1				0	
6.6.1	win	2023-06-27	09:56:09	10:02:36	382853	612669b8c92504572e54c62b	4	1	main_z	7	main_z	63	stimuli_distractor_diamondtriangles.svg	stimuli_target_rectanglediamonds.svg	14	yes	44	1	365	0	0			0	0			1				0	
6.6.1	win	2023-06-27	09:56:09	10:02:36	382853	612669b8c92504572e54c62b	4	1	main_z	7	advance_on_keypress_ZEE	64	stimuli_distractor_diamondtriangles.svg	stimuli_target_rectanglediamonds.svg	14	yes	57	0	355	0	0			0	0			1				0	
6.6.1	win	2023-06-27	09:56:09	10:02:39	385843	612669b8c92504572e54c62b	4	1	main_z	7	main_z	65	stimuli_target_diamondsquares.svg	stimuli_distractor_trianglediamonds.svg	20	yes	0	0	2000	0	0			0	0			1				0	
6.6.1	win	2023-06-27	09:56:09	10:02:39	385843	612669b8c92504572e54c62b	4	1	main_z	7	advance_on_keypress_ZEE	66	stimuli_target_diamondsquares.svg	stimuli_distractor_trianglediamonds.svg	20	yes	57	0	335	0	0			0	0			1				0	
6.6.1	win	2023-06-27	09:56:09	10:02:40	387185	612669b8c92504572e54c62b	4	1	main_z	7	main_z	67	stimuli_distractor_trianglediamonds.svg	stimuli_target_diamondsquares.svg	28	yes	44	1	372	0	0			0	0			1				0	
6.6.1	win	2023-06-27	09:56:09	10:02:40	387185	612669b8c92504572e54c62b	4	1	main_z	7	advance_on_keypress_ZEE	68	stimuli_distractor_trianglediamonds.svg	stimuli_target_diamondsquares.svg	28	yes	57	0	329	0	0			0	0			1				0	
6.6.1	win	2023-06-27	09:56:09	10:02:43	390160	612669b8c92504572e54c62b	4	1	main_z	7	main_z	69	stimuli_distractor_diamondtriangles.svg	stimuli_target_trianglerectangles.svg	29	yes	0	0	2000	0	0			0	0			1				0	
6.6.1	win	2023-06-27	09:56:09	10:02:43	390160	612669b8c92504572e54c62b	4	1	main_z	7	advance_on_keypress_ZEE	70	stimuli_distractor_diamondtriangles.svg	stimuli_target_trianglerectangles.svg	29	yes	57	0	573	0	0			0	0			1				0	
6.6.1	win	2023-06-27	09:56:09	10:02:44	391688	612669b8c92504572e54c62b	4	1	main_z	7	main_z	71	stimuli_distractor_diamondtriangles.svg	stimuli_distractor_diamondtriangles.svg	40	no	44	0	320	0	0			0	0			1				0	
6.6.1	win	2023-06-27	09:56:09	10:02:44	391688	612669b8c92504572e54c62b	4	1	main_z	7	advance_on_keypress_ZEE	72	stimuli_distractor_diamondtriangles.svg	stimuli_distractor_diamondtriangles.svg	40	no	57	0	320	0	0			0	0			1				0	
6.6.1	win	2023-06-27	09:56:09	10:02:46	392991	612669b8c92504572e54c62b	4	1	main_z	7	main_z	73	stimuli_distractor_trianglediamonds.svg	stimuli_target_rectanglediamonds.svg	10	yes	44	1	350	0	0			0	0			1				0	
6.6.1	win	2023-06-27	09:56:09	10:02:46	392991	612669b8c92504572e54c62b	4	1	main_z	7	advance_on_keypress_ZEE	74	stimuli_distractor_trianglediamonds.svg	stimuli_target_rectanglediamonds.svg	10	yes	57	0	411	0	0			0	0			1				0	
6.6.1	win	2023-06-27	09:56:09	10:02:49	396037	612669b8c92504572e54c62b	4	1	main_z	7	main_z	75	stimuli_distractor_trianglediamonds.svg	stimuli_target_trianglerectangles.svg	25	yes	0	0	2000	0	0			0	0			1				0	
6.6.1	win	2023-06-27	09:56:09	10:02:49	396037	612669b8c92504572e54c62b	4	1	main_z	7	advance_on_keypress_ZEE	76	stimuli_distractor_trianglediamonds.svg	stimuli_target_trianglerectangles.svg	25	yes	57	0	479	0	0			0	0			1				0	
6.6.1	win	2023-06-27	09:56:09	10:02:52	399151	612669b8c92504572e54c62b	4	1	main_z	7	main_z	77	stimuli_distractor_trianglediamonds.svg	stimuli_distractor_trianglediamonds.svg	33	no	0	1	2000	0	0			0	0			1				0	
6.6.1	win	2023-06-27	09:56:09	10:02:52	399151	612669b8c92504572e54c62b	4	1	main_z	7	advance_on_keypress_ZEE	78	stimuli_distractor_trianglediamonds.svg	stimuli_distractor_trianglediamonds.svg	33	no	57	0	344	0	0			0	0			1				0	
6.6.1	win	2023-06-27	09:56:09	10:02:53	400431	612669b8c92504572e54c62b	4	1	main_z	7	main_z	79	stimuli_distractor_trianglediamonds.svg	stimuli_distractor_diamondtriangles.svg	36	no	44	0	301	0	0			0	0			1				0	
6.6.1	win	2023-06-27	09:56:09	10:02:53	400431	612669b8c92504572e54c62b	4	1	main_z	7	advance_on_keypress_ZEE	80	stimuli_distractor_trianglediamonds.svg	stimuli_distractor_diamondtriangles.svg	36	no	57	0	338	0	0			0	0			1				0	
6.6.1	win	2023-06-27	09:56:09	10:02:56	403403	612669b8c92504572e54c62b	4	1	main_z	7	main_z	81	stimuli_target_trianglerectangles.svg	stimuli_distractor_trianglediamonds.svg	17	yes	0	0	2000	0	0			0	0			1				0	
6.6.1	win	2023-06-27	09:56:09	10:02:56	403403	612669b8c92504572e54c62b	4	1	main_z	7	advance_on_keypress_ZEE	82	stimuli_target_trianglerectangles.svg	stimuli_distractor_trianglediamonds.svg	17	yes	57	0	595	0	0			0	0			1				0	
6.6.1	win	2023-06-27	09:56:09	10:02:58	405057	612669b8c92504572e54c62b	4	1	main_z	7	main_z	83	stimuli_target_diamondrectangles.svg	stimuli_distractor_diamondtriangles.svg	23	yes	44	1	424	0	0			0	0			1				0	
6.6.1	win	2023-06-27	09:56:09	10:02:58	405057	612669b8c92504572e54c62b	4	1	main_z	7	advance_on_keypress_ZEE	84	stimuli_target_diamondrectangles.svg	stimuli_distractor_diamondtriangles.svg	23	yes	57	0	352	0	0			0	0			1				0	
6.6.1	win	2023-06-27	09:56:09	10:03:01	408053	612669b8c92504572e54c62b	4	1	main_z	7	main_z	85	stimuli_distractor_diamondtriangles.svg	stimuli_target_trianglesquares.svg	30	yes	0	0	2000	0	0			0	0			1				0	
6.6.1	win	2023-06-27	09:56:09	10:03:01	408053	612669b8c92504572e54c62b	4	1	main_z	7	advance_on_keypress_ZEE	86	stimuli_distractor_diamondtriangles.svg	stimuli_target_trianglesquares.svg	30	yes	57	0	420	0	0			0	0			1				0	
6.6.1	win	2023-06-27	09:56:09	10:03:02	409501	612669b8c92504572e54c62b	4	1	main_z	7	main_z	87	stimuli_distractor_diamondtriangles.svg	stimuli_target_rectangletriangles.svg	13	yes	44	1	393	0	0			0	0			1				0	
6.6.1	win	2023-06-27	09:56:09	10:03:02	409501	612669b8c92504572e54c62b	4	1	main_z	7	advance_on_keypress_ZEE	88	stimuli_distractor_diamondtriangles.svg	stimuli_target_rectangletriangles.svg	13	yes	57	0	324	0	0			0	0			1				0	
6.6.1	win	2023-06-27	09:56:09	10:03:04	410801	612669b8c92504572e54c62b	4	1	main_z	7	main_z	89	stimuli_target_squarediamonds.svg	stimuli_distractor_diamondtriangles.svg	8	yes	44	1	334	0	0			0	0			1				0	
6.6.1	win	2023-06-27	09:56:09	10:03:04	410801	612669b8c92504572e54c62b	4	1	main_z	7	advance_on_keypress_ZEE	90	stimuli_target_squarediamonds.svg	stimuli_distractor_diamondtriangles.svg	8	yes	57	0	255	0	0			0	0			1				0	
6.6.1	win	2023-06-27	09:56:09	10:03:06	413692	612669b8c92504572e54c62b	4	1	main_z	7	main_z	91	stimuli_distractor_diamondtriangles.svg	stimuli_target_diamondrectangles.svg	31	yes	0	0	2000	0	0			0	0			1				0	
6.6.1	win	2023-06-27	09:56:09	10:03:06	413692	612669b8c92504572e54c62b	4	1	main_z	7	advance_on_keypress_ZEE	92	stimuli_distractor_diamondtriangles.svg	stimuli_target_diamondrectangles.svg	31	yes	57	0	290	0	0			0	0			1				0	
6.6.1	win	2023-06-27	09:56:09	10:03:09	416617	612669b8c92504572e54c62b	4	1	main_z	7	main_z	93	stimuli_distractor_diamondtriangles.svg	stimuli_distractor_diamondtriangles.svg	40	no	0	1	2000	0	0			0	0			1				0	
6.6.1	win	2023-06-27	09:56:09	10:03:09	416617	612669b8c92504572e54c62b	4	1	main_z	7	advance_on_keypress_ZEE	94	stimuli_distractor_diamondtriangles.svg	stimuli_distractor_diamondtriangles.svg	40	no	57	0	510	0	0			0	0			1				0	
6.6.1	win	2023-06-27	09:56:09	10:03:11	418282	612669b8c92504572e54c62b	4	1	main_z	7	main_z	95	stimuli_distractor_trianglediamonds.svg	stimuli_target_trianglerectangles.svg	25	yes	44	1	521	0	0			0	0			1				0	
6.6.1	win	2023-06-27	09:56:09	10:03:11	418282	612669b8c92504572e54c62b	4	1	main_z	7	advance_on_keypress_ZEE	96	stimuli_distractor_trianglediamonds.svg	stimuli_target_trianglerectangles.svg	25	yes	57	0	346	0	0			0	0			1				0	
6.6.1	win	2023-06-27	09:56:09	10:03:14	421260	612669b8c92504572e54c62b	4	1	main_z	7	main_z	97	stimuli_distractor_trianglediamonds.svg	stimuli_target_trianglesquares.svg	26	yes	0	0	2000	0	0			0	0			1				0	
6.6.1	win	2023-06-27	09:56:09	10:03:14	421260	612669b8c92504572e54c62b	4	1	main_z	7	advance_on_keypress_ZEE	98	stimuli_distractor_trianglediamonds.svg	stimuli_target_trianglesquares.svg	26	yes	57	0	339	0	0			0	0			1				0	
6.6.1	win	2023-06-27	09:56:09	10:03:15	422524	612669b8c92504572e54c62b	4	1	main_z	7	main_z	99	stimuli_target_rectanglediamonds.svg	stimuli_distractor_trianglediamonds.svg	2	yes	44	1	290	0	0			0	0			1				0	
6.6.1	win	2023-06-27	09:56:09	10:03:15	422524	612669b8c92504572e54c62b	4	1	main_z	7	advance_on_keypress_ZEE	100	stimuli_target_rectanglediamonds.svg	stimuli_distractor_trianglediamonds.svg	2	yes	57	0	273	0	0			0	0			1				0	
6.6.1	win	2023-06-27	09:56:09	10:03:16	423714	612669b8c92504572e54c62b	4	1	main_z	7	main_z	101	stimuli_target_rectanglediamonds.svg	stimuli_distractor_diamondtriangles.svg	6	yes	44	1	282	0	0			0	0			1				0	
6.6.1	win	2023-06-27	09:56:09	10:03:16	423714	612669b8c92504572e54c62b	4	1	main_z	7	advance_on_keypress_ZEE	102	stimuli_target_rectanglediamonds.svg	stimuli_distractor_diamondtriangles.svg	6	yes	57	0	240	0	0			0	0			1				0	
6.6.1	win	2023-06-27	09:56:09	10:03:18	425008	612669b8c92504572e54c62b	4	1	main_z	7	main_z	103	stimuli_distractor_diamondtriangles.svg	stimuli_distractor_trianglediamonds.svg	38	no	44	0	421	0	0			0	0			1				0	
6.6.1	win	2023-06-27	09:56:09	10:03:18	425008	612669b8c92504572e54c62b	4	1	main_z	7	advance_on_keypress_ZEE	104	stimuli_distractor_diamondtriangles.svg	stimuli_distractor_trianglediamonds.svg	38	no	57	0	249	0	0			0	0			1				0	
6.6.1	win	2023-06-27	09:56:09	10:03:19	426356	612669b8c92504572e54c62b	4	1	main_z	7	main_z	105	stimuli_distractor_diamondtriangles.svg	stimuli_target_diamondsquares.svg	32	yes	44	1	469	0	0			0	0			1				0	
6.6.1	win	2023-06-27	09:56:09	10:03:19	426356	612669b8c92504572e54c62b	4	1	main_z	7	advance_on_keypress_ZEE	106	stimuli_distractor_diamondtriangles.svg	stimuli_target_diamondsquares.svg	32	yes	57	0	209	0	0			0	0			1				0	
6.6.1	win	2023-06-27	09:56:09	10:03:22	429198	612669b8c92504572e54c62b	4	1	main_z	7	main_z	107	stimuli_target_trianglerectangles.svg	stimuli_distractor_diamondtriangles.svg	21	yes	0	0	2000	0	0			0	0			1				0	
6.6.1	win	2023-06-27	09:56:09	10:03:22	429198	612669b8c92504572e54c62b	4	1	main_z	7	advance_on_keypress_ZEE	108	stimuli_target_trianglerectangles.svg	stimuli_distractor_diamondtriangles.svg	21	yes	57	0	321	0	0			0	0			1				0	
6.6.1	win	2023-06-27	09:56:09	10:03:23	430519	612669b8c92504572e54c62b	4	1	main_z	7	main_z	109	stimuli_distractor_diamondtriangles.svg	stimuli_distractor_diamondtriangles.svg	39	no	44	0	365	0	0			0	0			1				0	
6.6.1	win	2023-06-27	09:56:09	10:03:23	430519	612669b8c92504572e54c62b	4	1	main_z	7	advance_on_keypress_ZEE	110	stimuli_distractor_diamondtriangles.svg	stimuli_distractor_diamondtriangles.svg	39	no	57	0	224	0	0			0	0			1				0	
6.6.1	win	2023-06-27	09:56:09	10:03:26	433378	612669b8c92504572e54c62b	4	1	main_z	7	main_z	111	stimuli_distractor_diamondtriangles.svg	stimuli_target_trianglerectangles.svg	29	yes	0	0	2000	0	0			0	0			1				0	
6.6.1	win	2023-06-27	09:56:09	10:03:26	433378	612669b8c92504572e54c62b	4	1	main_z	7	advance_on_keypress_ZEE	112	stimuli_distractor_diamondtriangles.svg	stimuli_target_trianglerectangles.svg	29	yes	57	0	440	0	0			0	0			1				0	
6.6.1	win	2023-06-27	09:56:09	10:03:28	434817	612669b8c92504572e54c62b	4	1	main_z	7	main_z	113	stimuli_target_squarediamonds.svg	stimuli_distractor_trianglediamonds.svg	4	yes	44	1	364	0	0			0	0			1				0	
6.6.1	win	2023-06-27	09:56:09	10:03:28	434817	612669b8c92504572e54c62b	4	1	main_z	7	advance_on_keypress_ZEE	114	stimuli_target_squarediamonds.svg	stimuli_distractor_trianglediamonds.svg	4	yes	57	0	234	0	0			0	0			1				0	
6.6.1	win	2023-06-27	09:56:09	10:03:30	437686	612669b8c92504572e54c62b	4	1	main_z	7	main_z	115	stimuli_distractor_trianglediamonds.svg	stimuli_distractor_trianglediamonds.svg	33	no	0	1	2000	0	0			0	0			1				0	
6.6.1	win	2023-06-27	09:56:09	10:03:30	437686	612669b8c92504572e54c62b	4	1	main_z	7	advance_on_keypress_ZEE	116	stimuli_distractor_trianglediamonds.svg	stimuli_distractor_trianglediamonds.svg	33	no	57	0	304	0	0			0	0			1				0	
6.6.1	win	2023-06-27	09:56:09	10:03:33	440626	612669b8c92504572e54c62b	4	1	main_z	7	main_z	117	stimuli_distractor_trianglediamonds.svg	stimuli_distractor_diamondtriangles.svg	35	no	0	1	2000	0	0			0	0			1				0	
6.6.1	win	2023-06-27	09:56:09	10:03:33	440626	612669b8c92504572e54c62b	4	1	main_z	7	advance_on_keypress_ZEE	118	stimuli_distractor_trianglediamonds.svg	stimuli_distractor_diamondtriangles.svg	35	no	57	0	520	0	0			0	0			1				0	
6.6.1	win	2023-06-27	09:56:09	10:03:35	442090	612669b8c92504572e54c62b	4	1	main_z	7	main_z	119	stimuli_target_squaretriangles.svg	stimuli_distractor_trianglediamonds.svg	3	yes	44	1	309	0	0			0	0			1				0	
6.6.1	win	2023-06-27	09:56:09	10:03:35	442090	612669b8c92504572e54c62b	4	1	main_z	7	advance_on_keypress_ZEE	120	stimuli_target_squaretriangles.svg	stimuli_distractor_trianglediamonds.svg	3	yes	57	0	293	0	0			0	0			1				0	
6.6.1	win	2023-06-27	09:56:09	10:03:38	445019	612669b8c92504572e54c62b	4	1	main_z	7	main_z	121	stimuli_target_diamondsquares.svg	stimuli_distractor_diamondtriangles.svg	24	yes	0	0	2000	0	0			0	0			1				0	
6.6.1	win	2023-06-27	09:56:09	10:03:38	445019	612669b8c92504572e54c62b	4	1	main_z	7	advance_on_keypress_ZEE	122	stimuli_target_diamondsquares.svg	stimuli_distractor_diamondtriangles.svg	24	yes	57	0	316	0	0			0	0			1				0	
6.6.1	win	2023-06-27	09:56:09	10:03:39	446301	612669b8c92504572e54c62b	4	1	main_z	7	main_z	123	stimuli_distractor_diamondtriangles.svg	stimuli_target_rectanglediamonds.svg	14	yes	44	1	332	0	0			0	0			1				0	
6.6.1	win	2023-06-27	09:56:09	10:03:39	446301	612669b8c92504572e54c62b	4	1	main_z	7	advance_on_keypress_ZEE	124	stimuli_distractor_diamondtriangles.svg	stimuli_target_rectanglediamonds.svg	14	yes	57	0	233	0	0			0	0			1				0	
6.6.1	win	2023-06-27	09:56:09	10:03:42	449168	612669b8c92504572e54c62b	4	1	main_z	7	main_z	125	stimuli_distractor_trianglediamonds.svg	stimuli_distractor_trianglediamonds.svg	34	no	0	1	2000	0	0			0	0			1				0	
6.6.1	win	2023-06-27	09:56:09	10:03:42	449168	612669b8c92504572e54c62b	4	1	main_z	7	advance_on_keypress_ZEE	126	stimuli_distractor_trianglediamonds.svg	stimuli_distractor_trianglediamonds.svg	34	no	57	0	293	0	0			0	0			1				0	
6.6.1	win	2023-06-27	09:56:09	10:03:43	450379	612669b8c92504572e54c62b	4	1	main_z	7	main_z	127	stimuli_distractor_trianglediamonds.svg	stimuli_target_rectangletriangles.svg	9	yes	44	1	276	0	0			0	0			1				0	
6.6.1	win	2023-06-27	09:56:09	10:03:43	450379	612669b8c92504572e54c62b	4	1	main_z	7	advance_on_keypress_ZEE	128	stimuli_distractor_trianglediamonds.svg	stimuli_target_rectangletriangles.svg	9	yes	57	0	266	0	0			0	0			1				0	
6.6.1	win	2023-06-27	09:56:09	10:03:44	451743	612669b8c92504572e54c62b	4	1	main_z	7	main_z	129	stimuli_target_trianglesquares.svg	stimuli_distractor_trianglediamonds.svg	18	yes	44	1	465	0	0			0	0			1				0	
6.6.1	win	2023-06-27	09:56:09	10:03:44	451743	612669b8c92504572e54c62b	4	1	main_z	7	advance_on_keypress_ZEE	130	stimuli_target_trianglesquares.svg	stimuli_distractor_trianglediamonds.svg	18	yes	57	0	292	0	0			0	0			1				0	
6.6.1	win	2023-06-27	09:56:09	10:03:46	453048	612669b8c92504572e54c62b	4	1	main_z	7	main_z	131	stimuli_distractor_trianglediamonds.svg	stimuli_target_rectanglediamonds.svg	10	yes	44	1	374	0	0			0	0			1				0	
6.6.1	win	2023-06-27	09:56:09	10:03:46	453048	612669b8c92504572e54c62b	4	1	main_z	7	advance_on_keypress_ZEE	132	stimuli_distractor_trianglediamonds.svg	stimuli_target_rectanglediamonds.svg	10	yes	57	0	184	0	0			0	0			1				0	
6.6.1	win	2023-06-27	09:56:09	10:03:47	454157	612669b8c92504572e54c62b	4	1	main_z	7	main_z	133	stimuli_distractor_trianglediamonds.svg	stimuli_target_diamondrectangles.svg	27	yes	44	1	284	0	0			0	0			1				0	
6.6.1	win	2023-06-27	09:56:09	10:03:47	454157	612669b8c92504572e54c62b	4	1	main_z	7	advance_on_keypress_ZEE	134	stimuli_distractor_trianglediamonds.svg	stimuli_target_diamondrectangles.svg	27	yes	57	0	218	0	0			0	0			1				0	
6.6.1	win	2023-06-27	09:56:09	10:03:50	457010	612669b8c92504572e54c62b	4	1	main_z	7	main_z	135	stimuli_distractor_diamondtriangles.svg	stimuli_distractor_trianglediamonds.svg	37	no	0	1	2000	0	0			0	0			1				0	
6.6.1	win	2023-06-27	09:56:09	10:03:50	457010	612669b8c92504572e54c62b	4	1	main_z	7	advance_on_keypress_ZEE	136	stimuli_distractor_diamondtriangles.svg	stimuli_distractor_trianglediamonds.svg	37	no	57	0	346	0	0			0	0			1				0	
6.6.1	win	2023-06-27	09:56:09	10:03:53	459990	612669b8c92504572e54c62b	4	1	main_z	7	main_z	137	stimuli_target_diamondrectangles.svg	stimuli_distractor_trianglediamonds.svg	19	yes	0	0	2000	0	0			0	0			1				0	
6.6.1	win	2023-06-27	09:56:09	10:03:53	459990	612669b8c92504572e54c62b	4	1	main_z	7	advance_on_keypress_ZEE	138	stimuli_target_diamondrectangles.svg	stimuli_distractor_trianglediamonds.svg	19	yes	57	0	413	0	0			0	0			1				0	
6.6.1	win	2023-06-27	09:56:09	10:03:54	461322	612669b8c92504572e54c62b	4	1	main_z	7	main_z	139	stimuli_target_rectangletriangles.svg	stimuli_distractor_diamondtriangles.svg	5	yes	44	1	283	0	0			0	0			1				0	
6.6.1	win	2023-06-27	09:56:09	10:03:54	461322	612669b8c92504572e54c62b	4	1	main_z	7	advance_on_keypress_ZEE	140	stimuli_target_rectangletriangles.svg	stimuli_distractor_diamondtriangles.svg	5	yes	57	0	201	0	0			0	0			1				0	
6.6.1	win	2023-06-27	09:56:09	10:03:55	462500	612669b8c92504572e54c62b	4	1	main_z	7	main_z	141	stimuli_distractor_diamondtriangles.svg	stimuli_target_squaretriangles.svg	15	yes	44	1	343	0	0			0	0			1				0	
6.6.1	win	2023-06-27	09:56:09	10:03:55	462500	612669b8c92504572e54c62b	4	1	main_z	7	advance_on_keypress_ZEE	142	stimuli_distractor_diamondtriangles.svg	stimuli_target_squaretriangles.svg	15	yes	57	0	192	0	0			0	0			1				0	
6.6.1	win	2023-06-27	09:56:09	10:03:56	463647	612669b8c92504572e54c62b	4	1	main_z	7	main_z	143	stimuli_distractor_diamondtriangles.svg	stimuli_target_squarediamonds.svg	16	yes	44	1	319	0	0			0	0			1				0	
6.6.1	win	2023-06-27	09:56:09	10:03:56	463647	612669b8c92504572e54c62b	4	1	main_z	7	advance_on_keypress_ZEE	144	stimuli_distractor_diamondtriangles.svg	stimuli_target_squarediamonds.svg	16	yes	57	0	176	0	0			0	0			1				0	
6.6.1	win	2023-06-27	09:56:09	10:03:57	464770	612669b8c92504572e54c62b	4	1	main_z	7	main_z	145	stimuli_distractor_trianglediamonds.svg	stimuli_target_squaretriangles.svg	11	yes	44	1	313	0	0			0	0			1				0	
6.6.1	win	2023-06-27	09:56:09	10:03:57	464770	612669b8c92504572e54c62b	4	1	main_z	7	advance_on_keypress_ZEE	146	stimuli_distractor_trianglediamonds.svg	stimuli_target_squaretriangles.svg	11	yes	57	0	183	0	0			0	0			1				0	
6.6.1	win	2023-06-27	09:56:09	10:03:59	465920	612669b8c92504572e54c62b	4	1	main_z	7	main_z	147	stimuli_target_squaretriangles.svg	stimuli_distractor_diamondtriangles.svg	7	yes	44	1	331	0	0			0	0			1				0	
6.6.1	win	2023-06-27	09:56:09	10:03:59	465920	612669b8c92504572e54c62b	4	1	main_z	7	advance_on_keypress_ZEE	148	stimuli_target_squaretriangles.svg	stimuli_distractor_diamondtriangles.svg	7	yes	57	0	157	0	0			0	0			1				0	
6.6.1	win	2023-06-27	09:56:09	10:04:01	468712	612669b8c92504572e54c62b	4	1	main_z	7	main_z	149	stimuli_distractor_trianglediamonds.svg	stimuli_distractor_diamondtriangles.svg	36	no	0	1	2000	0	0			0	0			1				0	
6.6.1	win	2023-06-27	09:56:09	10:04:01	468712	612669b8c92504572e54c62b	4	1	main_z	7	advance_on_keypress_ZEE	150	stimuli_distractor_trianglediamonds.svg	stimuli_distractor_diamondtriangles.svg	36	no	57	0	416	0	0			0	0			1				0	
6.6.1	win	2023-06-27	09:56:09	10:04:03	470106	612669b8c92504572e54c62b	4	1	main_z	7	main_z	151	stimuli_distractor_trianglediamonds.svg	stimuli_target_squarediamonds.svg	12	yes	44	1	342	0	0			0	0			1				0	
6.6.1	win	2023-06-27	09:56:09	10:04:03	470106	612669b8c92504572e54c62b	4	1	main_z	7	advance_on_keypress_ZEE	152	stimuli_distractor_trianglediamonds.svg	stimuli_target_squarediamonds.svg	12	yes	57	0	265	0	0			0	0			1				0	
6.6.1	win	2023-06-27	09:56:09	10:04:04	471661	612669b8c92504572e54c62b	4	1	main_z	7	main_z	153	stimuli_target_trianglesquares.svg	stimuli_distractor_diamondtriangles.svg	22	yes	44	1	656	0	0			0	0			1				0	
6.6.1	win	2023-06-27	09:56:09	10:04:04	471661	612669b8c92504572e54c62b	4	1	main_z	7	advance_on_keypress_ZEE	154	stimuli_target_trianglesquares.svg	stimuli_distractor_diamondtriangles.svg	22	yes	57	0	314	0	0			0	0			1				0	
6.6.1	win	2023-06-27	09:56:09	10:04:07	474612	612669b8c92504572e54c62b	4	1	main_z	7	main_z	155	stimuli_distractor_trianglediamonds.svg	stimuli_target_diamondsquares.svg	28	yes	0	0	2000	0	0			0	0			1				0	
6.6.1	win	2023-06-27	09:56:09	10:04:07	474612	612669b8c92504572e54c62b	4	1	main_z	7	advance_on_keypress_ZEE	156	stimuli_distractor_trianglediamonds.svg	stimuli_target_diamondsquares.svg	28	yes	57	0	295	0	0			0	0			1				0	
6.6.1	win	2023-06-27	09:56:09	10:04:09	475817	612669b8c92504572e54c62b	4	1	main_z	7	main_z	157	stimuli_target_rectangletriangles.svg	stimuli_distractor_trianglediamonds.svg	1	yes	44	1	277	0	0			0	0			1				0	
6.6.1	win	2023-06-27	09:56:09	10:04:09	475817	612669b8c92504572e54c62b	4	1	main_z	7	advance_on_keypress_ZEE	158	stimuli_target_rectangletriangles.svg	stimuli_distractor_trianglediamonds.svg	1	yes	57	0	224	0	0			0	0			1				0	
6.6.1	win	2023-06-27	09:56:09	10:04:10	476928	612669b8c92504572e54c62b	4	1	main_z	7	main_z	159	stimuli_target_diamondsquares.svg	stimuli_distractor_trianglediamonds.svg	20	yes	44	1	251	0	0			0	0			1				0	
6.6.1	win	2023-06-27	09:56:09	10:04:10	476928	612669b8c92504572e54c62b	4	1	main_z	7	advance_on_keypress_ZEE	160	stimuli_target_diamondsquares.svg	stimuli_distractor_trianglediamonds.svg	20	yes	57	0	246	0	0			0	0			1				0	
6.6.1	win	2023-06-27	09:56:09	10:04:34	501297	612669b8c92504572e54c62b	4	1	practice_slash	9	practice_slash	1	stimuli_target_squarediamonds.svg	stimuli_distractor_trianglediamonds.svg	5	yes	53	1	379	0	0			0	0			1				0	
6.6.1	win	2023-06-27	09:56:09	10:04:34	501297	612669b8c92504572e54c62b	4	1	practice_slash	9	advance_on_keypress_SLASH	2	stimuli_target_squarediamonds.svg	stimuli_distractor_trianglediamonds.svg	5	yes	57	0	510	0	0			0	0			1				0	
6.6.1	win	2023-06-27	09:56:09	10:04:37	503896	612669b8c92504572e54c62b	4	1	practice_slash	9	practice_slash	3	stimuli_distractor_trianglediamonds.svg	stimuli_target_diamondrectangles.svg	12	yes	53	1	453	0	0			0	0			1				0	
6.6.1	win	2023-06-27	09:56:09	10:04:37	503896	612669b8c92504572e54c62b	4	1	practice_slash	9	advance_on_keypress_SLASH	4	stimuli_distractor_trianglediamonds.svg	stimuli_target_diamondrectangles.svg	12	yes	57	0	818	0	0			0	0			1				0	
6.6.1	win	2023-06-27	09:56:09	10:04:39	506673	612669b8c92504572e54c62b	4	1	practice_slash	9	practice_slash	5	stimuli_target_diamondsquares.svg	stimuli_distractor_trianglediamonds.svg	6	yes	53	1	320	0	0			0	0			1				0	
6.6.1	win	2023-06-27	09:56:09	10:04:39	506673	612669b8c92504572e54c62b	4	1	practice_slash	9	advance_on_keypress_SLASH	6	stimuli_target_diamondsquares.svg	stimuli_distractor_trianglediamonds.svg	6	yes	57	0	467	0	0			0	0			1				0	
6.6.1	win	2023-06-27	09:56:09	10:04:42	509267	612669b8c92504572e54c62b	4	1	practice_slash	9	practice_slash	7	stimuli_distractor_diamondtriangles.svg	stimuli_target_trianglerectangles.svg	9	yes	53	1	489	0	0			0	0			1				0	
6.6.1	win	2023-06-27	09:56:09	10:04:42	509267	612669b8c92504572e54c62b	4	1	practice_slash	9	advance_on_keypress_SLASH	8	stimuli_distractor_diamondtriangles.svg	stimuli_target_trianglerectangles.svg	9	yes	57	0	446	0	0			0	0			1				0	
6.6.1	win	2023-06-27	09:56:09	10:04:46	513350	612669b8c92504572e54c62b	4	1	practice_slash	9	practice_slash	9	stimuli_distractor_diamondtriangles.svg	stimuli_distractor_trianglediamonds.svg	14	no	0	1	2000	0	0			0	0			1				0	
6.6.1	win	2023-06-27	09:56:09	10:04:46	513350	612669b8c92504572e54c62b	4	1	practice_slash	9	advance_on_keypress_SLASH	10	stimuli_distractor_diamondtriangles.svg	stimuli_distractor_trianglediamonds.svg	14	no	57	0	346	0	0			0	0			1				0	
6.6.1	win	2023-06-27	09:56:09	10:04:48	515636	612669b8c92504572e54c62b	4	1	practice_slash	9	practice_slash	11	stimuli_distractor_diamondtriangles.svg	stimuli_target_rectangletriangles.svg	7	yes	53	1	303	0	0			0	0			1				0	
6.6.1	win	2023-06-27	09:56:09	10:04:48	515636	612669b8c92504572e54c62b	4	1	practice_slash	9	advance_on_keypress_SLASH	12	stimuli_distractor_diamondtriangles.svg	stimuli_target_rectangletriangles.svg	7	yes	57	0	1318	0	0			0	0			1				0	
6.6.1	win	2023-06-27	09:56:09	10:04:52	518966	612669b8c92504572e54c62b	4	1	practice_slash	9	practice_slash	13	stimuli_target_squarediamonds.svg	stimuli_distractor_diamondtriangles.svg	2	yes	53	1	372	0	0			0	0			1				0	
6.6.1	win	2023-06-27	09:56:09	10:04:52	518966	612669b8c92504572e54c62b	4	1	practice_slash	9	advance_on_keypress_SLASH	14	stimuli_target_squarediamonds.svg	stimuli_distractor_diamondtriangles.svg	2	yes	57	0	747	0	0			0	0			1				0	
6.6.1	win	2023-06-27	09:56:09	10:04:54	521629	612669b8c92504572e54c62b	4	1	practice_slash	9	practice_slash	15	stimuli_target_rectanglediamonds.svg	stimuli_distractor_trianglediamonds.svg	4	yes	53	1	279	0	0			0	0			1				0	
6.6.1	win	2023-06-27	09:56:09	10:04:54	521629	612669b8c92504572e54c62b	4	1	practice_slash	9	advance_on_keypress_SLASH	16	stimuli_target_rectanglediamonds.svg	stimuli_distractor_trianglediamonds.svg	4	yes	57	0	326	0	0			0	0			1				0	
6.6.1	win	2023-06-27	09:56:09	10:04:57	523949	612669b8c92504572e54c62b	4	1	practice_slash	9	practice_slash	17	stimuli_target_diamondsquares.svg	stimuli_distractor_diamondtriangles.svg	3	yes	53	1	356	0	0			0	0			1				0	
6.6.1	win	2023-06-27	09:56:09	10:04:57	523949	612669b8c92504572e54c62b	4	1	practice_slash	9	advance_on_keypress_SLASH	18	stimuli_target_diamondsquares.svg	stimuli_distractor_diamondtriangles.svg	3	yes	57	0	466	0	0			0	0			1				0	
6.6.1	win	2023-06-27	09:56:09	10:05:01	528053	612669b8c92504572e54c62b	4	1	practice_slash	9	practice_slash	19	stimuli_distractor_diamondtriangles.svg	stimuli_target_diamondrectangles.svg	8	yes	0	0	2000	0	0			0	0			1				0	
6.6.1	win	2023-06-27	09:56:09	10:05:01	528053	612669b8c92504572e54c62b	4	1	practice_slash	9	advance_on_keypress_SLASH	20	stimuli_distractor_diamondtriangles.svg	stimuli_target_diamondrectangles.svg	8	yes	57	0	290	0	0			0	0			1				0	
6.6.1	win	2023-06-27	09:56:09	10:05:03	530209	612669b8c92504572e54c62b	4	1	practice_slash	9	practice_slash	21	stimuli_target_rectanglediamonds.svg	stimuli_distractor_diamondtriangles.svg	1	yes	53	1	232	0	0			0	0			1				0	
6.6.1	win	2023-06-27	09:56:09	10:05:03	530209	612669b8c92504572e54c62b	4	1	practice_slash	9	advance_on_keypress_SLASH	22	stimuli_target_rectanglediamonds.svg	stimuli_distractor_diamondtriangles.svg	1	yes	57	0	364	0	0			0	0			1				0	
6.6.1	win	2023-06-27	09:56:09	10:05:05	532686	612669b8c92504572e54c62b	4	1	practice_slash	9	practice_slash	23	stimuli_distractor_trianglediamonds.svg	stimuli_distractor_trianglediamonds.svg	15	no	53	0	476	0	0			0	0			1				0	
6.6.1	win	2023-06-27	09:56:09	10:05:05	532686	612669b8c92504572e54c62b	4	1	practice_slash	9	advance_on_keypress_SLASH	24	stimuli_distractor_trianglediamonds.svg	stimuli_distractor_trianglediamonds.svg	15	no	57	0	301	0	0			0	0			1				0	
6.6.1	win	2023-06-27	09:56:09	10:05:08	534938	612669b8c92504572e54c62b	4	1	practice_slash	9	practice_slash	25	stimuli_distractor_trianglediamonds.svg	stimuli_target_squarediamonds.svg	11	yes	53	1	313	0	0			0	0			1				0	
6.6.1	win	2023-06-27	09:56:09	10:05:08	534938	612669b8c92504572e54c62b	4	1	practice_slash	9	advance_on_keypress_SLASH	26	stimuli_distractor_trianglediamonds.svg	stimuli_target_squarediamonds.svg	11	yes	57	0	321	0	0			0	0			1				0	
6.6.1	win	2023-06-27	09:56:09	10:05:10	537217	612669b8c92504572e54c62b	4	1	practice_slash	9	practice_slash	27	stimuli_distractor_trianglediamonds.svg	stimuli_target_rectanglediamonds.svg	10	yes	53	1	320	0	0			0	0			1				0	
6.6.1	win	2023-06-27	09:56:09	10:05:10	537217	612669b8c92504572e54c62b	4	1	practice_slash	9	advance_on_keypress_SLASH	28	stimuli_distractor_trianglediamonds.svg	stimuli_target_rectanglediamonds.svg	10	yes	57	0	438	0	0			0	0			1				0	
6.6.1	win	2023-06-27	09:56:09	10:05:12	539600	612669b8c92504572e54c62b	4	1	practice_slash	9	practice_slash	29	stimuli_distractor_diamondtriangles.svg	stimuli_distractor_diamondtriangles.svg	13	no	53	0	309	0	0			0	0			1				0	
6.6.1	win	2023-06-27	09:56:09	10:05:12	539600	612669b8c92504572e54c62b	4	1	practice_slash	9	advance_on_keypress_SLASH	30	stimuli_distractor_diamondtriangles.svg	stimuli_distractor_diamondtriangles.svg	13	no	57	0	296	0	0			0	0			1				0	
6.6.1	win	2023-06-27	09:56:09	10:05:16	543535	612669b8c92504572e54c62b	4	1	practice_slash	9	practice_slash	31	stimuli_distractor_trianglediamonds.svg	stimuli_distractor_diamondtriangles.svg	16	no	0	1	2000	0	0			0	0			1				0	
6.6.1	win	2023-06-27	09:56:09	10:05:16	543535	612669b8c92504572e54c62b	4	1	practice_slash	9	advance_on_keypress_SLASH	32	stimuli_distractor_trianglediamonds.svg	stimuli_distractor_diamondtriangles.svg	16	no	57	0	360	0	0			0	0			1				0	
6.6.1	win	2023-06-27	09:56:09	10:05:23	550480	612669b8c92504572e54c62b	4	1	main_slash	11	main_slash	1	stimuli_distractor_diamondtriangles.svg	stimuli_target_diamondsquares.svg	32	yes	53	1	300	0	0			0	0			1				0	
6.6.1	win	2023-06-27	09:56:09	10:05:23	550480	612669b8c92504572e54c62b	4	1	main_slash	11	advance_on_keypress_SLASH	2	stimuli_distractor_diamondtriangles.svg	stimuli_target_diamondsquares.svg	32	yes	57	0	887	0	0			0	0			1				0	
6.6.1	win	2023-06-27	09:56:09	10:05:25	552290	612669b8c92504572e54c62b	4	1	main_slash	11	main_slash	3	stimuli_target_squaretriangles.svg	stimuli_distractor_diamondtriangles.svg	7	yes	53	1	290	0	0			0	0			1				0	
6.6.1	win	2023-06-27	09:56:09	10:05:25	552290	612669b8c92504572e54c62b	4	1	main_slash	11	advance_on_keypress_SLASH	4	stimuli_target_squaretriangles.svg	stimuli_distractor_diamondtriangles.svg	7	yes	57	0	921	0	0			0	0			1				0	
6.6.1	win	2023-06-27	09:56:09	10:05:27	554429	612669b8c92504572e54c62b	4	1	main_slash	11	main_slash	5	stimuli_distractor_trianglediamonds.svg	stimuli_target_trianglesquares.svg	26	yes	53	1	585	0	0			0	0			1				0	
6.6.1	win	2023-06-27	09:56:09	10:05:27	554429	612669b8c92504572e54c62b	4	1	main_slash	11	advance_on_keypress_SLASH	6	stimuli_distractor_trianglediamonds.svg	stimuli_target_trianglesquares.svg	26	yes	57	0	674	0	0			0	0			1				0	
6.6.1	win	2023-06-27	09:56:09	10:05:29	556067	612669b8c92504572e54c62b	4	1	main_slash	11	main_slash	7	stimuli_distractor_trianglediamonds.svg	stimuli_target_squaretriangles.svg	11	yes	53	1	330	0	0			0	0			1				0	
6.6.1	win	2023-06-27	09:56:09	10:05:29	556067	612669b8c92504572e54c62b	4	1	main_slash	11	advance_on_keypress_SLASH	8	stimuli_distractor_trianglediamonds.svg	stimuli_target_squaretriangles.svg	11	yes	57	0	1115	0	0			0	0			1				0	
6.6.1	win	2023-06-27	09:56:09	10:05:31	558124	612669b8c92504572e54c62b	4	1	main_slash	11	main_slash	9	stimuli_distractor_trianglediamonds.svg	stimuli_target_rectangletriangles.svg	9	yes	53	1	309	0	0			0	0			1				0	
6.6.1	win	2023-06-27	09:56:09	10:05:31	558124	612669b8c92504572e54c62b	4	1	main_slash	11	advance_on_keypress_SLASH	10	stimuli_distractor_trianglediamonds.svg	stimuli_target_rectangletriangles.svg	9	yes	57	0	995	0	0			0	0			1				0	
6.6.1	win	2023-06-27	09:56:09	10:05:33	560136	612669b8c92504572e54c62b	4	1	main_slash	11	main_slash	11	stimuli_distractor_trianglediamonds.svg	stimuli_target_diamondsquares.svg	28	yes	53	1	383	0	0			0	0			1				0	
6.6.1	win	2023-06-27	09:56:09	10:05:33	560136	612669b8c92504572e54c62b	4	1	main_slash	11	advance_on_keypress_SLASH	12	stimuli_distractor_trianglediamonds.svg	stimuli_target_diamondsquares.svg	28	yes	57	0	706	0	0			0	0			1				0	
6.6.1	win	2023-06-27	09:56:09	10:05:35	561807	612669b8c92504572e54c62b	4	1	main_slash	11	main_slash	13	stimuli_target_rectangletriangles.svg	stimuli_distractor_diamondtriangles.svg	5	yes	53	1	331	0	0			0	0			1				0	
6.6.1	win	2023-06-27	09:56:09	10:05:35	561807	612669b8c92504572e54c62b	4	1	main_slash	11	advance_on_keypress_SLASH	14	stimuli_target_rectangletriangles.svg	stimuli_distractor_diamondtriangles.svg	5	yes	57	0	768	0	0			0	0			1				0	
6.6.1	win	2023-06-27	09:56:09	10:05:36	563646	612669b8c92504572e54c62b	4	1	main_slash	11	main_slash	15	stimuli_distractor_trianglediamonds.svg	stimuli_distractor_trianglediamonds.svg	33	no	53	0	437	0	0			0	0			1				0	
6.6.1	win	2023-06-27	09:56:09	10:05:36	563646	612669b8c92504572e54c62b	4	1	main_slash	11	advance_on_keypress_SLASH	16	stimuli_distractor_trianglediamonds.svg	stimuli_distractor_trianglediamonds.svg	33	no	57	0	495	0	0			0	0			1				0	
6.6.1	win	2023-06-27	09:56:09	10:05:39	566773	612669b8c92504572e54c62b	4	1	main_slash	11	main_slash	17	stimuli_distractor_diamondtriangles.svg	stimuli_distractor_diamondtriangles.svg	39	no	0	1	2000	0	0			0	0			1				0	
6.6.1	win	2023-06-27	09:56:09	10:05:39	566773	612669b8c92504572e54c62b	4	1	main_slash	11	advance_on_keypress_SLASH	18	stimuli_distractor_diamondtriangles.svg	stimuli_distractor_diamondtriangles.svg	39	no	57	0	266	0	0			0	0			1				0	
6.6.1	win	2023-06-27	09:56:09	10:05:42	569675	612669b8c92504572e54c62b	4	1	main_slash	11	main_slash	19	stimuli_distractor_diamondtriangles.svg	stimuli_distractor_diamondtriangles.svg	40	no	0	1	2000	0	0			0	0			1				0	
6.6.1	win	2023-06-27	09:56:09	10:05:42	569675	612669b8c92504572e54c62b	4	1	main_slash	11	advance_on_keypress_SLASH	20	stimuli_distractor_diamondtriangles.svg	stimuli_distractor_diamondtriangles.svg	40	no	57	0	304	0	0			0	0			1				0	
6.6.1	win	2023-06-27	09:56:09	10:05:44	571186	612669b8c92504572e54c62b	4	1	main_slash	11	main_slash	21	stimuli_target_trianglerectangles.svg	stimuli_distractor_trianglediamonds.svg	17	yes	53	1	572	0	0			0	0			1				0	
6.6.1	win	2023-06-27	09:56:09	10:05:44	571186	612669b8c92504572e54c62b	4	1	main_slash	11	advance_on_keypress_SLASH	22	stimuli_target_trianglerectangles.svg	stimuli_distractor_trianglediamonds.svg	17	yes	57	0	388	0	0			0	0			1				0	
6.6.1	win	2023-06-27	09:56:09	10:05:45	572739	612669b8c92504572e54c62b	4	1	main_slash	11	main_slash	23	stimuli_target_diamondrectangles.svg	stimuli_distractor_diamondtriangles.svg	23	yes	53	1	520	0	0			0	0			1				0	
6.6.1	win	2023-06-27	09:56:09	10:05:45	572739	612669b8c92504572e54c62b	4	1	main_slash	11	advance_on_keypress_SLASH	24	stimuli_target_diamondrectangles.svg	stimuli_distractor_diamondtriangles.svg	23	yes	57	0	413	0	0			0	0			1				0	
6.6.1	win	2023-06-27	09:56:09	10:05:47	574093	612669b8c92504572e54c62b	4	1	main_slash	11	main_slash	25	stimuli_distractor_diamondtriangles.svg	stimuli_target_squarediamonds.svg	16	yes	53	1	308	0	0			0	0			1				0	
6.6.1	win	2023-06-27	09:56:09	10:05:47	574093	612669b8c92504572e54c62b	4	1	main_slash	11	advance_on_keypress_SLASH	26	stimuli_distractor_diamondtriangles.svg	stimuli_target_squarediamonds.svg	16	yes	57	0	503	0	0			0	0			1				0	
6.6.1	win	2023-06-27	09:56:09	10:05:49	576187	612669b8c92504572e54c62b	4	1	main_slash	11	main_slash	27	stimuli_distractor_diamondtriangles.svg	stimuli_target_trianglesquares.svg	30	yes	53	1	957	0	0			0	0			1				0	
6.6.1	win	2023-06-27	09:56:09	10:05:49	576187	612669b8c92504572e54c62b	4	1	main_slash	11	advance_on_keypress_SLASH	28	stimuli_distractor_diamondtriangles.svg	stimuli_target_trianglesquares.svg	30	yes	57	0	440	0	0			0	0			1				0	
6.6.1	win	2023-06-27	09:56:09	10:05:50	577575	612669b8c92504572e54c62b	4	1	main_slash	11	main_slash	29	stimuli_distractor_diamondtriangles.svg	stimuli_target_squaretriangles.svg	15	yes	53	1	314	0	0			0	0			1				0	
6.6.1	win	2023-06-27	09:56:09	10:05:50	577575	612669b8c92504572e54c62b	4	1	main_slash	11	advance_on_keypress_SLASH	30	stimuli_distractor_diamondtriangles.svg	stimuli_target_squaretriangles.svg	15	yes	57	0	402	0	0			0	0			1				0	
6.6.1	win	2023-06-27	09:56:09	10:05:52	578968	612669b8c92504572e54c62b	4	1	main_slash	11	main_slash	31	stimuli_target_rectangletriangles.svg	stimuli_distractor_trianglediamonds.svg	1	yes	53	1	357	0	0			0	0			1				0	
6.6.1	win	2023-06-27	09:56:09	10:05:52	578968	612669b8c92504572e54c62b	4	1	main_slash	11	advance_on_keypress_SLASH	32	stimuli_target_rectangletriangles.svg	stimuli_distractor_trianglediamonds.svg	1	yes	57	0	305	0	0			0	0			1				0	
6.6.1	win	2023-06-27	09:56:09	10:05:53	580434	612669b8c92504572e54c62b	4	1	main_slash	11	main_slash	33	stimuli_target_diamondsquares.svg	stimuli_distractor_trianglediamonds.svg	20	yes	53	1	527	0	0			0	0			1				0	
6.6.1	win	2023-06-27	09:56:09	10:05:53	580434	612669b8c92504572e54c62b	4	1	main_slash	11	advance_on_keypress_SLASH	34	stimuli_target_diamondsquares.svg	stimuli_distractor_trianglediamonds.svg	20	yes	57	0	241	0	0			0	0			1				0	
6.6.1	win	2023-06-27	09:56:09	10:05:56	583317	612669b8c92504572e54c62b	4	1	main_slash	11	main_slash	35	stimuli_target_trianglesquares.svg	stimuli_distractor_trianglediamonds.svg	18	yes	0	0	2000	0	0			0	0			1				0	
6.6.1	win	2023-06-27	09:56:09	10:05:56	583317	612669b8c92504572e54c62b	4	1	main_slash	11	advance_on_keypress_SLASH	36	stimuli_target_trianglesquares.svg	stimuli_distractor_trianglediamonds.svg	18	yes	57	0	11	0	0			0	0			1				0	
6.6.1	win	2023-06-27	09:56:09	10:05:57	584330	612669b8c92504572e54c62b	4	1	main_slash	11	main_slash	37	stimuli_distractor_trianglediamonds.svg	stimuli_target_trianglerectangles.svg	25	yes	53	1	354	0	0			0	0			1				0	
6.6.1	win	2023-06-27	09:56:09	10:05:57	584330	612669b8c92504572e54c62b	4	1	main_slash	11	advance_on_keypress_SLASH	38	stimuli_distractor_trianglediamonds.svg	stimuli_target_trianglerectangles.svg	25	yes	57	0	420	0	0			0	0			1				0	
6.6.1	win	2023-06-27	09:56:09	10:06:00	587385	612669b8c92504572e54c62b	4	1	main_slash	11	main_slash	39	stimuli_distractor_trianglediamonds.svg	stimuli_distractor_diamondtriangles.svg	36	no	0	1	2000	0	0			0	0			1				0	
6.6.1	win	2023-06-27	09:56:09	10:06:00	587385	612669b8c92504572e54c62b	4	1	main_slash	11	advance_on_keypress_SLASH	40	stimuli_distractor_trianglediamonds.svg	stimuli_distractor_diamondtriangles.svg	36	no	57	0	260	0	0			0	0			1				0	
6.6.1	win	2023-06-27	09:56:09	10:06:01	588585	612669b8c92504572e54c62b	4	1	main_slash	11	main_slash	41	stimuli_target_squaretriangles.svg	stimuli_distractor_trianglediamonds.svg	3	yes	53	1	308	0	0			0	0			1				0	
6.6.1	win	2023-06-27	09:56:09	10:06:01	588585	612669b8c92504572e54c62b	4	1	main_slash	11	advance_on_keypress_SLASH	42	stimuli_target_squaretriangles.svg	stimuli_distractor_trianglediamonds.svg	3	yes	57	0	289	0	0			0	0			1				0	
6.6.1	win	2023-06-27	09:56:09	10:06:03	589852	612669b8c92504572e54c62b	4	1	main_slash	11	main_slash	43	stimuli_distractor_trianglediamonds.svg	stimuli_distractor_diamondtriangles.svg	35	no	53	0	344	0	0			0	0			1				0	
6.6.1	win	2023-06-27	09:56:09	10:06:03	589852	612669b8c92504572e54c62b	4	1	main_slash	11	advance_on_keypress_SLASH	44	stimuli_distractor_trianglediamonds.svg	stimuli_distractor_diamondtriangles.svg	35	no	57	0	372	0	0			0	0			1				0	
6.6.1	win	2023-06-27	09:56:09	10:06:06	592860	612669b8c92504572e54c62b	4	1	main_slash	11	main_slash	45	stimuli_target_trianglesquares.svg	stimuli_distractor_diamondtriangles.svg	22	yes	0	0	2000	0	0			0	0			1				0	
6.6.1	win	2023-06-27	09:56:09	10:06:06	592860	612669b8c92504572e54c62b	4	1	main_slash	11	advance_on_keypress_SLASH	46	stimuli_target_trianglesquares.svg	stimuli_distractor_diamondtriangles.svg	22	yes	57	0	324	0	0			0	0			1				0	
6.6.1	win	2023-06-27	09:56:09	10:06:07	594247	612669b8c92504572e54c62b	4	1	main_slash	11	main_slash	47	stimuli_distractor_diamondtriangles.svg	stimuli_target_trianglerectangles.svg	29	yes	53	1	429	0	0			0	0			1				0	
6.6.1	win	2023-06-27	09:56:09	10:06:07	594247	612669b8c92504572e54c62b	4	1	main_slash	11	advance_on_keypress_SLASH	48	stimuli_distractor_diamondtriangles.svg	stimuli_target_trianglerectangles.svg	29	yes	57	0	335	0	0			0	0			1				0	
6.6.1	win	2023-06-27	09:56:09	10:06:08	595636	612669b8c92504572e54c62b	4	1	main_slash	11	main_slash	49	stimuli_target_rectanglediamonds.svg	stimuli_distractor_diamondtriangles.svg	6	yes	53	1	414	0	0			0	0			1				0	
6.6.1	win	2023-06-27	09:56:09	10:06:08	595636	612669b8c92504572e54c62b	4	1	main_slash	11	advance_on_keypress_SLASH	50	stimuli_target_rectanglediamonds.svg	stimuli_distractor_diamondtriangles.svg	6	yes	57	0	368	0	0			0	0			1				0	
6.6.1	win	2023-06-27	09:56:09	10:06:10	597101	612669b8c92504572e54c62b	4	1	main_slash	11	main_slash	51	stimuli_distractor_trianglediamonds.svg	stimuli_distractor_trianglediamonds.svg	34	no	53	0	460	0	0			0	0			1				0	
6.6.1	win	2023-06-27	09:56:09	10:06:10	597101	612669b8c92504572e54c62b	4	1	main_slash	11	advance_on_keypress_SLASH	52	stimuli_distractor_trianglediamonds.svg	stimuli_distractor_trianglediamonds.svg	34	no	57	0	358	0	0			0	0			1				0	
6.6.1	win	2023-06-27	09:56:09	10:06:13	600101	612669b8c92504572e54c62b	4	1	main_slash	11	main_slash	53	stimuli_distractor_diamondtriangles.svg	stimuli_distractor_trianglediamonds.svg	38	no	0	1	2000	0	0			0	0			1				0	
6.6.1	win	2023-06-27	09:56:09	10:06:13	600101	612669b8c92504572e54c62b	4	1	main_slash	11	advance_on_keypress_SLASH	54	stimuli_distractor_diamondtriangles.svg	stimuli_distractor_trianglediamonds.svg	38	no	57	0	292	0	0			0	0			1				0	
6.6.1	win	2023-06-27	09:56:09	10:06:14	601360	612669b8c92504572e54c62b	4	1	main_slash	11	main_slash	55	stimuli_target_trianglerectangles.svg	stimuli_distractor_diamondtriangles.svg	21	yes	53	1	332	0	0			0	0			1				0	
6.6.1	win	2023-06-27	09:56:09	10:06:14	601360	612669b8c92504572e54c62b	4	1	main_slash	11	advance_on_keypress_SLASH	56	stimuli_target_trianglerectangles.svg	stimuli_distractor_diamondtriangles.svg	21	yes	57	0	245	0	0			0	0			1				0	
6.6.1	win	2023-06-27	09:56:09	10:06:15	602628	612669b8c92504572e54c62b	4	1	main_slash	11	main_slash	57	stimuli_distractor_trianglediamonds.svg	stimuli_target_squarediamonds.svg	12	yes	53	1	389	0	0			0	0			1				0	
6.6.1	win	2023-06-27	09:56:09	10:06:15	602628	612669b8c92504572e54c62b	4	1	main_slash	11	advance_on_keypress_SLASH	58	stimuli_distractor_trianglediamonds.svg	stimuli_target_squarediamonds.svg	12	yes	57	0	340	0	0			0	0			1				0	
6.6.1	win	2023-06-27	09:56:09	10:06:17	604196	612669b8c92504572e54c62b	4	1	main_slash	11	main_slash	59	stimuli_distractor_diamondtriangles.svg	stimuli_distractor_trianglediamonds.svg	37	no	53	0	583	0	0			0	0			1				0	
6.6.1	win	2023-06-27	09:56:09	10:06:17	604196	612669b8c92504572e54c62b	4	1	main_slash	11	advance_on_keypress_SLASH	60	stimuli_distractor_diamondtriangles.svg	stimuli_distractor_trianglediamonds.svg	37	no	57	0	268	0	0			0	0			1				0	
6.6.1	win	2023-06-27	09:56:09	10:06:18	605525	612669b8c92504572e54c62b	4	1	main_slash	11	main_slash	61	stimuli_distractor_trianglediamonds.svg	stimuli_target_rectanglediamonds.svg	10	yes	53	1	425	0	0			0	0			1				0	
6.6.1	win	2023-06-27	09:56:09	10:06:18	605525	612669b8c92504572e54c62b	4	1	main_slash	11	advance_on_keypress_SLASH	62	stimuli_distractor_trianglediamonds.svg	stimuli_target_rectanglediamonds.svg	10	yes	57	0	347	0	0			0	0			1				0	
6.6.1	win	2023-06-27	09:56:09	10:06:20	606830	612669b8c92504572e54c62b	4	1	main_slash	11	main_slash	63	stimuli_target_diamondsquares.svg	stimuli_distractor_diamondtriangles.svg	24	yes	53	1	316	0	0			0	0			1				0	
6.6.1	win	2023-06-27	09:56:09	10:06:20	606830	612669b8c92504572e54c62b	4	1	main_slash	11	advance_on_keypress_SLASH	64	stimuli_target_diamondsquares.svg	stimuli_distractor_diamondtriangles.svg	24	yes	57	0	311	0	0			0	0			1				0	
6.6.1	win	2023-06-27	09:56:09	10:06:21	608291	612669b8c92504572e54c62b	4	1	main_slash	11	main_slash	65	stimuli_distractor_diamondtriangles.svg	stimuli_target_diamondrectangles.svg	31	yes	53	1	516	0	0			0	0			1				0	
6.6.1	win	2023-06-27	09:56:09	10:06:21	608291	612669b8c92504572e54c62b	4	1	main_slash	11	advance_on_keypress_SLASH	66	stimuli_distractor_diamondtriangles.svg	stimuli_target_diamondrectangles.svg	31	yes	57	0	272	0	0			0	0			1				0	
6.6.1	win	2023-06-27	09:56:09	10:06:22	609600	612669b8c92504572e54c62b	4	1	main_slash	11	main_slash	67	stimuli_target_rectanglediamonds.svg	stimuli_distractor_trianglediamonds.svg	2	yes	53	1	401	0	0			0	0			1				0	
6.6.1	win	2023-06-27	09:56:09	10:06:22	609600	612669b8c92504572e54c62b	4	1	main_slash	11	advance_on_keypress_SLASH	68	stimuli_target_rectanglediamonds.svg	stimuli_distractor_trianglediamonds.svg	2	yes	57	0	373	0	0			0	0			1				0	
6.6.1	win	2023-06-27	09:56:09	10:06:24	610928	612669b8c92504572e54c62b	4	1	main_slash	11	main_slash	69	stimuli_target_diamondrectangles.svg	stimuli_distractor_trianglediamonds.svg	19	yes	53	1	320	0	0			0	0			1				0	
6.6.1	win	2023-06-27	09:56:09	10:06:24	610928	612669b8c92504572e54c62b	4	1	main_slash	11	advance_on_keypress_SLASH	70	stimuli_target_diamondrectangles.svg	stimuli_distractor_trianglediamonds.svg	19	yes	57	0	268	0	0			0	0			1				0	
6.6.1	win	2023-06-27	09:56:09	10:06:27	613831	612669b8c92504572e54c62b	4	1	main_slash	11	main_slash	71	stimuli_distractor_trianglediamonds.svg	stimuli_target_diamondrectangles.svg	27	yes	0	0	2000	0	0			0	0			1				0	
6.6.1	win	2023-06-27	09:56:09	10:06:27	613831	612669b8c92504572e54c62b	4	1	main_slash	11	advance_on_keypress_SLASH	72	stimuli_distractor_trianglediamonds.svg	stimuli_target_diamondrectangles.svg	27	yes	57	0	91	0	0			0	0			1				0	
6.6.1	win	2023-06-27	09:56:09	10:06:28	614862	612669b8c92504572e54c62b	4	1	main_slash	11	main_slash	73	stimuli_target_squarediamonds.svg	stimuli_distractor_diamondtriangles.svg	8	yes	53	1	306	0	0			0	0			1				0	
6.6.1	win	2023-06-27	09:56:09	10:06:28	614862	612669b8c92504572e54c62b	4	1	main_slash	11	advance_on_keypress_SLASH	74	stimuli_target_squarediamonds.svg	stimuli_distractor_diamondtriangles.svg	8	yes	57	0	384	0	0			0	0			1				0	
6.6.1	win	2023-06-27	09:56:09	10:06:29	616127	612669b8c92504572e54c62b	4	1	main_slash	11	main_slash	75	stimuli_target_squarediamonds.svg	stimuli_distractor_trianglediamonds.svg	4	yes	53	1	247	0	0			0	0			1				0	
6.6.1	win	2023-06-27	09:56:09	10:06:29	616127	612669b8c92504572e54c62b	4	1	main_slash	11	advance_on_keypress_SLASH	76	stimuli_target_squarediamonds.svg	stimuli_distractor_trianglediamonds.svg	4	yes	57	0	497	0	0			0	0			1				0	
6.6.1	win	2023-06-27	09:56:09	10:06:30	617556	612669b8c92504572e54c62b	4	1	main_slash	11	main_slash	77	stimuli_distractor_diamondtriangles.svg	stimuli_target_rectanglediamonds.svg	14	yes	53	1	293	0	0			0	0			1				0	
6.6.1	win	2023-06-27	09:56:09	10:06:30	617556	612669b8c92504572e54c62b	4	1	main_slash	11	advance_on_keypress_SLASH	78	stimuli_distractor_diamondtriangles.svg	stimuli_target_rectanglediamonds.svg	14	yes	57	0	250	0	0			0	0			1				0	
6.6.1	win	2023-06-27	09:56:09	10:06:31	618751	612669b8c92504572e54c62b	4	1	main_slash	11	main_slash	79	stimuli_distractor_diamondtriangles.svg	stimuli_target_rectangletriangles.svg	13	yes	53	1	311	0	0			0	0			1				0	
6.6.1	win	2023-06-27	09:56:09	10:06:31	618751	612669b8c92504572e54c62b	4	1	main_slash	11	advance_on_keypress_SLASH	80	stimuli_distractor_diamondtriangles.svg	stimuli_target_rectangletriangles.svg	13	yes	57	0	435	0	0			0	0			1				0	
6.6.1	win	2023-06-27	09:56:09	10:06:33	620072	612669b8c92504572e54c62b	4	1	main_slash	11	main_slash	81	stimuli_distractor_diamondtriangles.svg	stimuli_target_squarediamonds.svg	16	yes	53	1	251	0	0			0	0			1				0	
6.6.1	win	2023-06-27	09:56:09	10:06:33	620072	612669b8c92504572e54c62b	4	1	main_slash	11	advance_on_keypress_SLASH	82	stimuli_distractor_diamondtriangles.svg	stimuli_target_squarediamonds.svg	16	yes	57	0	436	0	0			0	0			1				0	
6.6.1	win	2023-06-27	09:56:09	10:06:34	621428	612669b8c92504572e54c62b	4	1	main_slash	11	main_slash	83	stimuli_target_diamondrectangles.svg	stimuli_distractor_trianglediamonds.svg	19	yes	53	1	286	0	0			0	0			1				0	
6.6.1	win	2023-06-27	09:56:09	10:06:34	621428	612669b8c92504572e54c62b	4	1	main_slash	11	advance_on_keypress_SLASH	84	stimuli_target_diamondrectangles.svg	stimuli_distractor_trianglediamonds.svg	19	yes	57	0	215	0	0			0	0			1				0	
6.6.1	win	2023-06-27	09:56:09	10:06:35	622557	612669b8c92504572e54c62b	4	1	main_slash	11	main_slash	85	stimuli_distractor_trianglediamonds.svg	stimuli_distractor_diamondtriangles.svg	36	no	53	0	279	0	0			0	0			1				0	
6.6.1	win	2023-06-27	09:56:09	10:06:35	622557	612669b8c92504572e54c62b	4	1	main_slash	11	advance_on_keypress_SLASH	86	stimuli_distractor_trianglediamonds.svg	stimuli_distractor_diamondtriangles.svg	36	no	57	0	159	0	0			0	0			1				0	
6.6.1	win	2023-06-27	09:56:09	10:06:38	625350	612669b8c92504572e54c62b	4	1	main_slash	11	main_slash	87	stimuli_distractor_diamondtriangles.svg	stimuli_distractor_trianglediamonds.svg	38	no	0	1	2000	0	0			0	0			1				0	
6.6.1	win	2023-06-27	09:56:09	10:06:38	625350	612669b8c92504572e54c62b	4	1	main_slash	11	advance_on_keypress_SLASH	88	stimuli_distractor_diamondtriangles.svg	stimuli_distractor_trianglediamonds.svg	38	no	57	0	237	0	0			0	0			1				0	
6.6.1	win	2023-06-27	09:56:09	10:06:39	626490	612669b8c92504572e54c62b	4	1	main_slash	11	main_slash	89	stimuli_target_rectangletriangles.svg	stimuli_distractor_trianglediamonds.svg	1	yes	53	1	270	0	0			0	0			1				0	
6.6.1	win	2023-06-27	09:56:09	10:06:39	626490	612669b8c92504572e54c62b	4	1	main_slash	11	advance_on_keypress_SLASH	90	stimuli_target_rectangletriangles.svg	stimuli_distractor_trianglediamonds.svg	1	yes	57	0	240	0	0			0	0			1				0	
6.6.1	win	2023-06-27	09:56:09	10:06:40	627621	612669b8c92504572e54c62b	4	1	main_slash	11	main_slash	91	stimuli_distractor_diamondtriangles.svg	stimuli_target_trianglerectangles.svg	29	yes	53	1	261	0	0			0	0			1				0	
6.6.1	win	2023-06-27	09:56:09	10:06:40	627621	612669b8c92504572e54c62b	4	1	main_slash	11	advance_on_keypress_SLASH	92	stimuli_distractor_diamondtriangles.svg	stimuli_target_trianglerectangles.svg	29	yes	57	0	244	0	0			0	0			1				0	
6.6.1	win	2023-06-27	09:56:09	10:06:41	628753	612669b8c92504572e54c62b	4	1	main_slash	11	main_slash	93	stimuli_distractor_diamondtriangles.svg	stimuli_distractor_diamondtriangles.svg	40	no	53	0	246	0	0			0	0			1				0	
6.6.1	win	2023-06-27	09:56:09	10:06:41	628753	612669b8c92504572e54c62b	4	1	main_slash	11	advance_on_keypress_SLASH	94	stimuli_distractor_diamondtriangles.svg	stimuli_distractor_diamondtriangles.svg	40	no	57	0	279	0	0			0	0			1				0	
6.6.1	win	2023-06-27	09:56:09	10:06:44	631672	612669b8c92504572e54c62b	4	1	main_slash	11	main_slash	95	stimuli_distractor_diamondtriangles.svg	stimuli_target_trianglesquares.svg	30	yes	0	0	2000	0	0			0	0			1				0	
6.6.1	win	2023-06-27	09:56:09	10:06:44	631672	612669b8c92504572e54c62b	4	1	main_slash	11	advance_on_keypress_SLASH	96	stimuli_distractor_diamondtriangles.svg	stimuli_target_trianglesquares.svg	30	yes	57	0	376	0	0			0	0			1				0	
6.6.1	win	2023-06-27	09:56:09	10:06:46	632981	612669b8c92504572e54c62b	4	1	main_slash	11	main_slash	97	stimuli_target_trianglerectangles.svg	stimuli_distractor_trianglediamonds.svg	17	yes	53	1	299	0	0			0	0			1				0	
6.6.1	win	2023-06-27	09:56:09	10:06:46	632981	612669b8c92504572e54c62b	4	1	main_slash	11	advance_on_keypress_SLASH	98	stimuli_target_trianglerectangles.svg	stimuli_distractor_trianglediamonds.svg	17	yes	57	0	191	0	0			0	0			1				0	
6.6.1	win	2023-06-27	09:56:09	10:06:47	634100	612669b8c92504572e54c62b	4	1	main_slash	11	main_slash	99	stimuli_distractor_trianglediamonds.svg	stimuli_target_diamondsquares.svg	28	yes	53	1	294	0	0			0	0			1				0	
6.6.1	win	2023-06-27	09:56:09	10:06:47	634100	612669b8c92504572e54c62b	4	1	main_slash	11	advance_on_keypress_SLASH	100	stimuli_distractor_trianglediamonds.svg	stimuli_target_diamondsquares.svg	28	yes	57	0	249	0	0			0	0			1				0	
6.6.1	win	2023-06-27	09:56:09	10:06:48	635300	612669b8c92504572e54c62b	4	1	main_slash	11	main_slash	101	stimuli_target_diamondsquares.svg	stimuli_distractor_diamondtriangles.svg	24	yes	53	1	317	0	0			0	0			1				0	
6.6.1	win	2023-06-27	09:56:09	10:06:48	635300	612669b8c92504572e54c62b	4	1	main_slash	11	advance_on_keypress_SLASH	102	stimuli_target_diamondsquares.svg	stimuli_distractor_diamondtriangles.svg	24	yes	57	0	259	0	0			0	0			1				0	
6.6.1	win	2023-06-27	09:56:09	10:06:51	638193	612669b8c92504572e54c62b	4	1	main_slash	11	main_slash	103	stimuli_distractor_diamondtriangles.svg	stimuli_target_diamondsquares.svg	32	yes	0	0	2000	0	0			0	0			1				0	
6.6.1	win	2023-06-27	09:56:09	10:06:51	638193	612669b8c92504572e54c62b	4	1	main_slash	11	advance_on_keypress_SLASH	104	stimuli_distractor_diamondtriangles.svg	stimuli_target_diamondsquares.svg	32	yes	57	0	256	0	0			0	0			1				0	
6.6.1	win	2023-06-27	09:56:09	10:06:54	641084	612669b8c92504572e54c62b	4	1	main_slash	11	main_slash	105	stimuli_distractor_trianglediamonds.svg	stimuli_distractor_trianglediamonds.svg	34	no	0	1	2000	0	0			0	0			1				0	
6.6.1	win	2023-06-27	09:56:09	10:06:54	641084	612669b8c92504572e54c62b	4	1	main_slash	11	advance_on_keypress_SLASH	106	stimuli_distractor_trianglediamonds.svg	stimuli_distractor_trianglediamonds.svg	34	no	57	0	258	0	0			0	0			1				0	
6.6.1	win	2023-06-27	09:56:09	10:06:55	642234	612669b8c92504572e54c62b	4	1	main_slash	11	main_slash	107	stimuli_target_trianglesquares.svg	stimuli_distractor_trianglediamonds.svg	18	yes	53	1	257	0	0			0	0			1				0	
6.6.1	win	2023-06-27	09:56:09	10:06:55	642234	612669b8c92504572e54c62b	4	1	main_slash	11	advance_on_keypress_SLASH	108	stimuli_target_trianglesquares.svg	stimuli_distractor_trianglediamonds.svg	18	yes	57	0	232	0	0			0	0			1				0	
6.6.1	win	2023-06-27	09:56:09	10:06:56	643390	612669b8c92504572e54c62b	4	1	main_slash	11	main_slash	109	stimuli_distractor_trianglediamonds.svg	stimuli_target_trianglesquares.svg	26	yes	53	1	281	0	0			0	0			1				0	
6.6.1	win	2023-06-27	09:56:09	10:06:56	643390	612669b8c92504572e54c62b	4	1	main_slash	11	advance_on_keypress_SLASH	110	stimuli_distractor_trianglediamonds.svg	stimuli_target_trianglesquares.svg	26	yes	57	0	283	0	0			0	0			1				0	
6.6.1	win	2023-06-27	09:56:09	10:06:57	644630	612669b8c92504572e54c62b	4	1	main_slash	11	main_slash	111	stimuli_target_rectangletriangles.svg	stimuli_distractor_diamondtriangles.svg	5	yes	53	1	323	0	0			0	0			1				0	
6.6.1	win	2023-06-27	09:56:09	10:06:57	644630	612669b8c92504572e54c62b	4	1	main_slash	11	advance_on_keypress_SLASH	112	stimuli_target_rectangletriangles.svg	stimuli_distractor_diamondtriangles.svg	5	yes	57	0	230	0	0			0	0			1				0	
6.6.1	win	2023-06-27	09:56:09	10:06:59	645821	612669b8c92504572e54c62b	4	1	main_slash	11	main_slash	113	stimuli_distractor_trianglediamonds.svg	stimuli_target_squarediamonds.svg	12	yes	53	1	325	0	0			0	0			1				0	
6.6.1	win	2023-06-27	09:56:09	10:06:59	645821	612669b8c92504572e54c62b	4	1	main_slash	11	advance_on_keypress_SLASH	114	stimuli_distractor_trianglediamonds.svg	stimuli_target_squarediamonds.svg	12	yes	57	0	336	0	0			0	0			1				0	
6.6.1	win	2023-06-27	09:56:09	10:07:00	647031	612669b8c92504572e54c62b	4	1	main_slash	11	main_slash	115	stimuli_target_rectanglediamonds.svg	stimuli_distractor_diamondtriangles.svg	6	yes	53	1	240	0	0			0	0			1				0	
6.6.1	win	2023-06-27	09:56:09	10:07:00	647031	612669b8c92504572e54c62b	4	1	main_slash	11	advance_on_keypress_SLASH	116	stimuli_target_rectanglediamonds.svg	stimuli_distractor_diamondtriangles.svg	6	yes	57	0	348	0	0			0	0			1				0	
6.6.1	win	2023-06-27	09:56:09	10:07:01	648247	612669b8c92504572e54c62b	4	1	main_slash	11	main_slash	117	stimuli_target_diamondsquares.svg	stimuli_distractor_trianglediamonds.svg	20	yes	53	1	228	0	0			0	0			1				0	
6.6.1	win	2023-06-27	09:56:09	10:07:01	648247	612669b8c92504572e54c62b	4	1	main_slash	11	advance_on_keypress_SLASH	118	stimuli_target_diamondsquares.svg	stimuli_distractor_trianglediamonds.svg	20	yes	57	0	174	0	0			0	0			1				0	
6.6.1	win	2023-06-27	09:56:09	10:07:02	649364	612669b8c92504572e54c62b	4	1	main_slash	11	main_slash	119	stimuli_target_trianglesquares.svg	stimuli_distractor_diamondtriangles.svg	22	yes	53	1	300	0	0			0	0			1				0	
6.6.1	win	2023-06-27	09:56:09	10:07:02	649364	612669b8c92504572e54c62b	4	1	main_slash	11	advance_on_keypress_SLASH	120	stimuli_target_trianglesquares.svg	stimuli_distractor_diamondtriangles.svg	22	yes	57	0	226	0	0			0	0			1				0	
6.6.1	win	2023-06-27	09:56:09	10:07:03	650474	612669b8c92504572e54c62b	4	1	main_slash	11	main_slash	121	stimuli_target_squaretriangles.svg	stimuli_distractor_diamondtriangles.svg	7	yes	53	1	249	0	0			0	0			1				0	
6.6.1	win	2023-06-27	09:56:09	10:07:03	650474	612669b8c92504572e54c62b	4	1	main_slash	11	advance_on_keypress_SLASH	122	stimuli_target_squaretriangles.svg	stimuli_distractor_diamondtriangles.svg	7	yes	57	0	283	0	0			0	0			1				0	
6.6.1	win	2023-06-27	09:56:09	10:07:04	651629	612669b8c92504572e54c62b	4	1	main_slash	11	main_slash	123	stimuli_distractor_diamondtriangles.svg	stimuli_distractor_trianglediamonds.svg	37	no	53	0	236	0	0			0	0			1				0	
6.6.1	win	2023-06-27	09:56:09	10:07:04	651629	612669b8c92504572e54c62b	4	1	main_slash	11	advance_on_keypress_SLASH	124	stimuli_distractor_diamondtriangles.svg	stimuli_distractor_trianglediamonds.svg	37	no	57	0	295	0	0			0	0			1				0	
6.6.1	win	2023-06-27	09:56:09	10:07:06	653378	612669b8c92504572e54c62b	4	1	main_slash	11	main_slash	125	stimuli_target_trianglerectangles.svg	stimuli_distractor_diamondtriangles.svg	21	yes	53	1	822	0	0			0	0			1				0	
6.6.1	win	2023-06-27	09:56:09	10:07:06	653378	612669b8c92504572e54c62b	4	1	main_slash	11	advance_on_keypress_SLASH	126	stimuli_target_trianglerectangles.svg	stimuli_distractor_diamondtriangles.svg	21	yes	57	0	438	0	0			0	0			1				0	
6.6.1	win	2023-06-27	09:56:09	10:07:07	654755	612669b8c92504572e54c62b	4	1	main_slash	11	main_slash	127	stimuli_distractor_diamondtriangles.svg	stimuli_target_rectanglediamonds.svg	14	yes	53	1	304	0	0			0	0			1				0	
6.6.1	win	2023-06-27	09:56:09	10:07:07	654755	612669b8c92504572e54c62b	4	1	main_slash	11	advance_on_keypress_SLASH	128	stimuli_distractor_diamondtriangles.svg	stimuli_target_rectanglediamonds.svg	14	yes	57	0	311	0	0			0	0			1				0	
6.6.1	win	2023-06-27	09:56:09	10:07:09	656228	612669b8c92504572e54c62b	4	1	main_slash	11	main_slash	129	stimuli_distractor_trianglediamonds.svg	stimuli_target_trianglerectangles.svg	25	yes	53	1	526	0	0			0	0			1				0	
6.6.1	win	2023-06-27	09:56:09	10:07:09	656228	612669b8c92504572e54c62b	4	1	main_slash	11	advance_on_keypress_SLASH	130	stimuli_distractor_trianglediamonds.svg	stimuli_target_trianglerectangles.svg	25	yes	57	0	632	0	0			0	0			1				0	
6.6.1	win	2023-06-27	09:56:09	10:07:11	657835	612669b8c92504572e54c62b	4	1	main_slash	11	main_slash	131	stimuli_target_squarediamonds.svg	stimuli_distractor_diamondtriangles.svg	8	yes	53	1	333	0	0			0	0			1				0	
6.6.1	win	2023-06-27	09:56:09	10:07:11	657835	612669b8c92504572e54c62b	4	1	main_slash	11	advance_on_keypress_SLASH	132	stimuli_target_squarediamonds.svg	stimuli_distractor_diamondtriangles.svg	8	yes	57	0	218	0	0			0	0			1				0	
6.6.1	win	2023-06-27	09:56:09	10:07:12	658970	612669b8c92504572e54c62b	4	1	main_slash	11	main_slash	133	stimuli_target_rectanglediamonds.svg	stimuli_distractor_trianglediamonds.svg	2	yes	53	1	282	0	0			0	0			1				0	
6.6.1	win	2023-06-27	09:56:09	10:07:12	658970	612669b8c92504572e54c62b	4	1	main_slash	11	advance_on_keypress_SLASH	134	stimuli_target_rectanglediamonds.svg	stimuli_distractor_trianglediamonds.svg	2	yes	57	0	205	0	0			0	0			1				0	
6.6.1	win	2023-06-27	09:56:09	10:07:13	660057	612669b8c92504572e54c62b	4	1	main_slash	11	main_slash	135	stimuli_distractor_trianglediamonds.svg	stimuli_target_rectangletriangles.svg	9	yes	53	1	249	0	0			0	0			1				0	
6.6.1	win	2023-06-27	09:56:09	10:07:13	660057	612669b8c92504572e54c62b	4	1	main_slash	11	advance_on_keypress_SLASH	136	stimuli_distractor_trianglediamonds.svg	stimuli_target_rectangletriangles.svg	9	yes	57	0	195	0	0			0	0			1				0	
6.6.1	win	2023-06-27	09:56:09	10:07:14	661148	612669b8c92504572e54c62b	4	1	main_slash	11	main_slash	137	stimuli_distractor_trianglediamonds.svg	stimuli_target_rectanglediamonds.svg	10	yes	53	1	260	0	0			0	0			1				0	
6.6.1	win	2023-06-27	09:56:09	10:07:14	661148	612669b8c92504572e54c62b	4	1	main_slash	11	advance_on_keypress_SLASH	138	stimuli_distractor_trianglediamonds.svg	stimuli_target_rectanglediamonds.svg	10	yes	57	0	80	0	0			0	0			1				0	
6.6.1	win	2023-06-27	09:56:09	10:07:15	662110	612669b8c92504572e54c62b	4	1	main_slash	11	main_slash	139	stimuli_distractor_trianglediamonds.svg	stimuli_target_diamondrectangles.svg	27	yes	53	1	241	0	0			0	0			1				0	
6.6.1	win	2023-06-27	09:56:09	10:07:15	662110	612669b8c92504572e54c62b	4	1	main_slash	11	advance_on_keypress_SLASH	140	stimuli_distractor_trianglediamonds.svg	stimuli_target_diamondrectangles.svg	27	yes	57	0	102	0	0			0	0			1				0	
6.6.1	win	2023-06-27	09:56:09	10:07:16	663129	612669b8c92504572e54c62b	4	1	main_slash	11	main_slash	141	stimuli_distractor_trianglediamonds.svg	stimuli_target_squaretriangles.svg	11	yes	53	1	267	0	0			0	0			1				0	
6.6.1	win	2023-06-27	09:56:09	10:07:16	663129	612669b8c92504572e54c62b	4	1	main_slash	11	advance_on_keypress_SLASH	142	stimuli_distractor_trianglediamonds.svg	stimuli_target_squaretriangles.svg	11	yes	57	0	117	0	0			0	0			1				0	
6.6.1	win	2023-06-27	09:56:09	10:07:17	664150	612669b8c92504572e54c62b	4	1	main_slash	11	main_slash	143	stimuli_distractor_diamondtriangles.svg	stimuli_target_rectangletriangles.svg	13	yes	53	1	274	0	0			0	0			1				0	
6.6.1	win	2023-06-27	09:56:09	10:07:17	664150	612669b8c92504572e54c62b	4	1	main_slash	11	advance_on_keypress_SLASH	144	stimuli_distractor_diamondtriangles.svg	stimuli_target_rectangletriangles.svg	13	yes	57	0	71	0	0			0	0			1				0	
6.6.1	win	2023-06-27	09:56:09	10:07:18	665102	612669b8c92504572e54c62b	4	1	main_slash	11	main_slash	145	stimuli_distractor_diamondtriangles.svg	stimuli_target_diamondrectangles.svg	31	yes	53	1	226	0	0			0	0			1				0	
6.6.1	win	2023-06-27	09:56:09	10:07:18	665102	612669b8c92504572e54c62b	4	1	main_slash	11	advance_on_keypress_SLASH	146	stimuli_distractor_diamondtriangles.svg	stimuli_target_diamondrectangles.svg	31	yes	57	0	46	0	0			0	0			1				0	
6.6.1	win	2023-06-27	09:56:09	10:07:19	666123	612669b8c92504572e54c62b	4	1	main_slash	11	main_slash	147	stimuli_distractor_trianglediamonds.svg	stimuli_distractor_trianglediamonds.svg	33	no	53	0	321	0	0			0	0			1				0	
6.6.1	win	2023-06-27	09:56:09	10:07:19	666123	612669b8c92504572e54c62b	4	1	main_slash	11	advance_on_keypress_SLASH	148	stimuli_distractor_trianglediamonds.svg	stimuli_distractor_trianglediamonds.svg	33	no	57	0	23	0	0			0	0			1				0	
6.6.1	win	2023-06-27	09:56:09	10:07:20	667081	612669b8c92504572e54c62b	4	1	main_slash	11	main_slash	149	stimuli_distractor_diamondtriangles.svg	stimuli_target_squaretriangles.svg	15	yes	53	1	299	0	0			0	0			1				0	
6.6.1	win	2023-06-27	09:56:09	10:07:20	667081	612669b8c92504572e54c62b	4	1	main_slash	11	advance_on_keypress_SLASH	150	stimuli_distractor_diamondtriangles.svg	stimuli_target_squaretriangles.svg	15	yes	57	0	218	0	0			0	0			1				0	
6.6.1	win	2023-06-27	09:56:09	10:07:21	668176	612669b8c92504572e54c62b	4	1	main_slash	11	main_slash	151	stimuli_target_squaretriangles.svg	stimuli_distractor_trianglediamonds.svg	3	yes	53	1	243	0	0			0	0			1				0	
6.6.1	win	2023-06-27	09:56:09	10:07:21	668176	612669b8c92504572e54c62b	4	1	main_slash	11	advance_on_keypress_SLASH	152	stimuli_target_squaretriangles.svg	stimuli_distractor_trianglediamonds.svg	3	yes	57	0	371	0	0			0	0			1				0	
6.6.1	win	2023-06-27	09:56:09	10:07:22	669404	612669b8c92504572e54c62b	4	1	main_slash	11	main_slash	153	stimuli_distractor_trianglediamonds.svg	stimuli_distractor_diamondtriangles.svg	35	no	53	0	216	0	0			0	0			1				0	
6.6.1	win	2023-06-27	09:56:09	10:07:22	669404	612669b8c92504572e54c62b	4	1	main_slash	11	advance_on_keypress_SLASH	154	stimuli_distractor_trianglediamonds.svg	stimuli_distractor_diamondtriangles.svg	35	no	57	0	358	0	0			0	0			1				0	
6.6.1	win	2023-06-27	09:56:09	10:07:23	670643	612669b8c92504572e54c62b	4	1	main_slash	11	main_slash	155	stimuli_distractor_diamondtriangles.svg	stimuli_distractor_diamondtriangles.svg	39	no	53	0	244	0	0			0	0			1				0	
6.6.1	win	2023-06-27	09:56:09	10:07:23	670643	612669b8c92504572e54c62b	4	1	main_slash	11	advance_on_keypress_SLASH	156	stimuli_distractor_diamondtriangles.svg	stimuli_distractor_diamondtriangles.svg	39	no	57	0	272	0	0			0	0			1				0	
6.6.1	win	2023-06-27	09:56:09	10:07:26	673556	612669b8c92504572e54c62b	4	1	main_slash	11	main_slash	157	stimuli_target_diamondrectangles.svg	stimuli_distractor_diamondtriangles.svg	23	yes	0	0	2000	0	0			0	0			1				0	
6.6.1	win	2023-06-27	09:56:09	10:07:26	673556	612669b8c92504572e54c62b	4	1	main_slash	11	advance_on_keypress_SLASH	158	stimuli_target_diamondrectangles.svg	stimuli_distractor_diamondtriangles.svg	23	yes	57	0	294	0	0			0	0			1				0	
6.6.1	win	2023-06-27	09:56:09	10:07:27	674697	612669b8c92504572e54c62b	4	1	main_slash	11	main_slash	159	stimuli_target_squarediamonds.svg	stimuli_distractor_trianglediamonds.svg	4	yes	53	1	213	0	0			0	0			1				0	
6.6.1	win	2023-06-27	09:56:09	10:07:27	674697	612669b8c92504572e54c62b	4	1	main_slash	11	advance_on_keypress_SLASH	160	stimuli_target_squarediamonds.svg	stimuli_distractor_trianglediamonds.svg	4	yes	57	0	374	0	0			0	0			1				0	
6.6.1	win	2023-06-27	09:56:09	10:07:27	674697	612669b8c92504572e54c62b	4	1	headphonecheck_calibration	14	headphonecheck_calibrationIntro	1	stimuli_target_squarediamonds.svg	stimuli_distractor_trianglediamonds.svg	4	yes	calibrationButton	0	3492	0	0			0	0			1				0	
6.6.1	win	2023-06-27	09:56:09	10:07:27	674697	612669b8c92504572e54c62b	4	1	headphonecheck_testphase	15	test_collectResponse	3	stimuli_target_squarediamonds.svg	stimuli_distractor_trianglediamonds.svg	4	yes	third	1	912	1	6	antiphase_hc_ois.wav	3	0	0			1				0	
6.6.1	win	2023-06-27	09:56:09	10:07:27	674697	612669b8c92504572e54c62b	4	1	headphonecheck_testphase	15	test_collectResponse	6	stimuli_target_squarediamonds.svg	stimuli_distractor_trianglediamonds.svg	4	yes	first	1	804	2	3	antiphase_hc_soi.wav	1	0	0			1				0	
6.6.1	win	2023-06-27	09:56:09	10:07:27	674697	612669b8c92504572e54c62b	4	1	headphonecheck_testphase	15	test_collectResponse	9	stimuli_target_squarediamonds.svg	stimuli_distractor_trianglediamonds.svg	4	yes	second	1	607	3	5	antiphase_hc_osi.wav	2	0	0			1				0	
6.6.1	win	2023-06-27	09:56:09	10:07:27	674697	612669b8c92504572e54c62b	4	1	headphonecheck_testphase	15	test_collectResponse	12	stimuli_target_squarediamonds.svg	stimuli_distractor_trianglediamonds.svg	4	yes	third	1	481	4	2	antiphase_hc_ios.wav	3	0	0			1				0	
6.6.1	win	2023-06-27	09:56:09	10:07:27	674697	612669b8c92504572e54c62b	4	1	headphonecheck_testphase	15	test_collectResponse	15	stimuli_target_squarediamonds.svg	stimuli_distractor_trianglediamonds.svg	4	yes	second	1	568	5	1	antiphase_hc_iso.wav	2	0	0			1				0	
6.6.1	win	2023-06-27	09:56:09	10:07:27	674697	612669b8c92504572e54c62b	4	1	headphonecheck_testphase	15	test_collectResponse	18	stimuli_target_squarediamonds.svg	stimuli_distractor_trianglediamonds.svg	4	yes	first	1	558	6	4	antiphase_hc_sio.wav	1	0	0			1				0	
6.6.1	win	2023-06-27	09:56:09	10:07:27	674697	612669b8c92504572e54c62b	4	1	stereocheck_calibration	17	stereocheck_calibrationIntro	1	stimuli_target_squarediamonds.svg	stimuli_distractor_trianglediamonds.svg	4	yes	stereocheck_calibrationButton	0	5525	6	4	antiphase_hc_sio.wav	1	0	0			1				0	
6.6.1	win	2023-06-27	09:56:09	10:07:27	674697	612669b8c92504572e54c62b	4	1	stereocheck_testphase	18	stereocheck_test_collectResponse	3	stimuli_target_squarediamonds.svg	stimuli_distractor_trianglediamonds.svg	4	yes	stereocheck_right	1	1557	6	4	antiphase_hc_sio.wav	1	1	6	noise_calib_stim_RIGHT.wav	2	1				0	
6.6.1	win	2023-06-27	09:56:09	10:07:27	674697	612669b8c92504572e54c62b	4	1	stereocheck_testphase	18	stereocheck_test_collectResponse	6	stimuli_target_squarediamonds.svg	stimuli_distractor_trianglediamonds.svg	4	yes	stereocheck_right	1	1265	6	4	antiphase_hc_sio.wav	1	2	4	noise_calib_stim_RIGHT.wav	2	1				0	
6.6.1	win	2023-06-27	09:56:09	10:07:27	674697	612669b8c92504572e54c62b	4	1	stereocheck_testphase	18	stereocheck_test_collectResponse	9	stimuli_target_squarediamonds.svg	stimuli_distractor_trianglediamonds.svg	4	yes	stereocheck_left	1	565	6	4	antiphase_hc_sio.wav	1	3	1	noise_calib_stim_LEFT.wav	1	1				0	
6.6.1	win	2023-06-27	09:56:09	10:07:27	674697	612669b8c92504572e54c62b	4	1	stereocheck_testphase	18	stereocheck_test_collectResponse	12	stimuli_target_squarediamonds.svg	stimuli_distractor_trianglediamonds.svg	4	yes	stereocheck_right	1	917	6	4	antiphase_hc_sio.wav	1	4	5	noise_calib_stim_RIGHT.wav	2	1				0	
6.6.1	win	2023-06-27	09:56:09	10:07:27	674697	612669b8c92504572e54c62b	4	1	stereocheck_testphase	18	stereocheck_test_collectResponse	15	stimuli_target_squarediamonds.svg	stimuli_distractor_trianglediamonds.svg	4	yes	stereocheck_left	1	454	6	4	antiphase_hc_sio.wav	1	5	3	noise_calib_stim_LEFT.wav	1	1				0	
6.6.1	win	2023-06-27	09:56:09	10:07:27	674697	612669b8c92504572e54c62b	4	1	stereocheck_testphase	18	stereocheck_test_collectResponse	18	stimuli_target_squarediamonds.svg	stimuli_distractor_trianglediamonds.svg	4	yes	stereocheck_left	1	4660	6	4	antiphase_hc_sio.wav	1	6	2	noise_calib_stim_LEFT.wav	1	1				0	
6.6.1	win	2023-06-27	09:56:09	10:07:27	674697	612669b8c92504572e54c62b	4	1	DL_practice	21	DL_practice	2	stimuli_target_squarediamonds.svg	stimuli_distractor_trianglediamonds.svg	4	yes	ba	1	1569	6	4	antiphase_hc_sio.wav	1	6	2	noise_calib_stim_LEFT.wav	1	1	blb_dichoticlistening_ba-ba.mp3	ba	ba	0	left
6.6.1	win	2023-06-27	09:56:09	10:07:27	674697	612669b8c92504572e54c62b	4	1	DL_practice	21	DL_practice	3	stimuli_target_squarediamonds.svg	stimuli_distractor_trianglediamonds.svg	4	yes	ka	1	1412	6	4	antiphase_hc_sio.wav	1	6	2	noise_calib_stim_LEFT.wav	1	22	blb_dichoticlistening_ka-ka.mp3	ka	ka	0	left
6.6.1	win	2023-06-27	09:56:09	10:07:27	674697	612669b8c92504572e54c62b	4	1	DL_practice	21	DL_practice	4	stimuli_target_squarediamonds.svg	stimuli_distractor_trianglediamonds.svg	4	yes	ka	1	3596	6	4	antiphase_hc_sio.wav	1	6	2	noise_calib_stim_LEFT.wav	1	23	blb_dichoticlistening_ka-pa.mp3	ka	pa	1	left
6.6.1	win	2023-06-27	09:56:09	10:07:27	674697	612669b8c92504572e54c62b	4	1	DL_practice	21	DL_practice	5	stimuli_target_squarediamonds.svg	stimuli_distractor_trianglediamonds.svg	4	yes	da	1	1737	6	4	antiphase_hc_sio.wav	1	6	2	noise_calib_stim_LEFT.wav	1	8	blb_dichoticlistening_da-da.mp3	da	da	0	left
6.6.1	win	2023-06-27	09:56:09	10:07:27	674697	612669b8c92504572e54c62b	4	1	DL_practice	21	DL_practice	6	stimuli_target_squarediamonds.svg	stimuli_distractor_trianglediamonds.svg	4	yes	ta	1	1969	6	4	antiphase_hc_sio.wav	1	6	2	noise_calib_stim_LEFT.wav	1	18	blb_dichoticlistening_ga-ta.mp3	ga	ta	1	right
6.6.1	win	2023-06-27	09:56:09	10:07:27	674697	612669b8c92504572e54c62b	4	1	DL_practice	21	DL_practice	7	stimuli_target_squarediamonds.svg	stimuli_distractor_trianglediamonds.svg	4	yes	ta	1	1830	6	4	antiphase_hc_sio.wav	1	6	2	noise_calib_stim_LEFT.wav	1	36	blb_dichoticlistening_ta-ta.mp3	ta	ta	0	left
6.6.1	win	2023-06-27	09:56:09	10:07:27	674697	612669b8c92504572e54c62b	4	1	DL_practice	21	DL_practice	8	stimuli_target_squarediamonds.svg	stimuli_distractor_trianglediamonds.svg	4	yes	pa	1	1734	6	4	antiphase_hc_sio.wav	1	6	2	noise_calib_stim_LEFT.wav	1	29	blb_dichoticlistening_pa-pa.mp3	pa	pa	0	left
6.6.1	win	2023-06-27	09:56:09	10:07:27	674697	612669b8c92504572e54c62b	4	1	DL_practice	21	DL_practice	9	stimuli_target_squarediamonds.svg	stimuli_distractor_trianglediamonds.svg	4	yes	da	1	1688	6	4	antiphase_hc_sio.wav	1	6	2	noise_calib_stim_LEFT.wav	1	7	blb_dichoticlistening_da-ba.mp3	da	ba	1	left
6.6.1	win	2023-06-27	09:56:09	10:07:27	674697	612669b8c92504572e54c62b	4	1	DL_practice	21	DL_practice	10	stimuli_target_squarediamonds.svg	stimuli_distractor_trianglediamonds.svg	4	yes	ga	1	1263	6	4	antiphase_hc_sio.wav	1	6	2	noise_calib_stim_LEFT.wav	1	15	blb_dichoticlistening_ga-ga.mp3	ga	ga	0	left
6.6.1	win	2023-06-27	09:56:09	10:07:27	674697	612669b8c92504572e54c62b	4	1	DL_test	23	DL_test	1	stimuli_target_squarediamonds.svg	stimuli_distractor_trianglediamonds.svg	4	yes	pa	1	1495	6	4	antiphase_hc_sio.wav	1	6	2	noise_calib_stim_LEFT.wav	1	29	blb_dichoticlistening_pa-pa.mp3	pa	pa	0	left
6.6.1	win	2023-06-27	09:56:09	10:07:27	674697	612669b8c92504572e54c62b	4	1	DL_test	23	DL_test	2	stimuli_target_squarediamonds.svg	stimuli_distractor_trianglediamonds.svg	4	yes	ka	1	1395	6	4	antiphase_hc_sio.wav	1	6	2	noise_calib_stim_LEFT.wav	1	16	blb_dichoticlistening_ga-ka.mp3	ga	ka	1	right
6.6.1	win	2023-06-27	09:56:09	10:07:27	674697	612669b8c92504572e54c62b	4	1	DL_test	23	DL_test	3	stimuli_target_squarediamonds.svg	stimuli_distractor_trianglediamonds.svg	4	yes	ta	1	1788	6	4	antiphase_hc_sio.wav	1	6	2	noise_calib_stim_LEFT.wav	1	24	blb_dichoticlistening_ka-ta.mp3	ka	ta	1	right
6.6.1	win	2023-06-27	09:56:09	10:07:27	674697	612669b8c92504572e54c62b	4	1	DL_test	23	DL_test	4	stimuli_target_squarediamonds.svg	stimuli_distractor_trianglediamonds.svg	4	yes	ta	1	1713	6	4	antiphase_hc_sio.wav	1	6	2	noise_calib_stim_LEFT.wav	1	12	blb_dichoticlistening_da-ta.mp3	da	ta	1	right
6.6.1	win	2023-06-27	09:56:09	10:07:27	674697	612669b8c92504572e54c62b	4	1	DL_test	23	DL_test	5	stimuli_target_squarediamonds.svg	stimuli_distractor_trianglediamonds.svg	4	yes	da	0	1438	6	4	antiphase_hc_sio.wav	1	6	2	noise_calib_stim_LEFT.wav	1	13	blb_dichoticlistening_ga-ba.mp3	ga	ba	1	other
6.6.1	win	2023-06-27	09:56:09	10:07:27	674697	612669b8c92504572e54c62b	4	1	DL_test	23	DL_test	6	stimuli_target_squarediamonds.svg	stimuli_distractor_trianglediamonds.svg	4	yes	ta	1	1416	6	4	antiphase_hc_sio.wav	1	6	2	noise_calib_stim_LEFT.wav	1	30	blb_dichoticlistening_pa-ta.mp3	pa	ta	1	right
6.6.1	win	2023-06-27	09:56:09	10:07:27	674697	612669b8c92504572e54c62b	4	1	DL_test	23	DL_test	7	stimuli_target_squarediamonds.svg	stimuli_distractor_trianglediamonds.svg	4	yes	ta	1	2318	6	4	antiphase_hc_sio.wav	1	6	2	noise_calib_stim_LEFT.wav	1	31	blb_dichoticlistening_ta-ba.mp3	ta	ba	1	left
6.6.1	win	2023-06-27	09:56:09	10:07:27	674697	612669b8c92504572e54c62b	4	1	DL_test	23	DL_test	8	stimuli_target_squarediamonds.svg	stimuli_distractor_trianglediamonds.svg	4	yes	ba	1	1454	6	4	antiphase_hc_sio.wav	1	6	2	noise_calib_stim_LEFT.wav	1	1	blb_dichoticlistening_ba-ba.mp3	ba	ba	0	left
6.6.1	win	2023-06-27	09:56:09	10:07:27	674697	612669b8c92504572e54c62b	4	1	DL_test	23	DL_test	9	stimuli_target_squarediamonds.svg	stimuli_distractor_trianglediamonds.svg	4	yes	ga	1	1478	6	4	antiphase_hc_sio.wav	1	6	2	noise_calib_stim_LEFT.wav	1	27	blb_dichoticlistening_pa-ga.mp3	pa	ga	1	right
6.6.1	win	2023-06-27	09:56:09	10:07:27	674697	612669b8c92504572e54c62b	4	1	DL_test	23	DL_test	10	stimuli_target_squarediamonds.svg	stimuli_distractor_trianglediamonds.svg	4	yes	da	1	1736	6	4	antiphase_hc_sio.wav	1	6	2	noise_calib_stim_LEFT.wav	1	26	blb_dichoticlistening_pa-da.mp3	pa	da	1	right
6.6.1	win	2023-06-27	09:56:09	10:07:27	674697	612669b8c92504572e54c62b	4	1	DL_test	23	DL_test	11	stimuli_target_squarediamonds.svg	stimuli_distractor_trianglediamonds.svg	4	yes	da	1	1693	6	4	antiphase_hc_sio.wav	1	6	2	noise_calib_stim_LEFT.wav	1	9	blb_dichoticlistening_da-ga.mp3	da	ga	1	left
6.6.1	win	2023-06-27	09:56:09	10:07:27	674697	612669b8c92504572e54c62b	4	1	DL_test	23	DL_test	12	stimuli_target_squarediamonds.svg	stimuli_distractor_trianglediamonds.svg	4	yes	ka	1	1415	6	4	antiphase_hc_sio.wav	1	6	2	noise_calib_stim_LEFT.wav	1	20	blb_dichoticlistening_ka-da.mp3	ka	da	1	left
6.6.1	win	2023-06-27	09:56:09	10:07:27	674697	612669b8c92504572e54c62b	4	1	DL_test	23	DL_test	13	stimuli_target_squarediamonds.svg	stimuli_distractor_trianglediamonds.svg	4	yes	ga	1	1856	6	4	antiphase_hc_sio.wav	1	6	2	noise_calib_stim_LEFT.wav	1	3	blb_dichoticlistening_ba-ga.mp3	ba	ga	1	right
6.6.1	win	2023-06-27	09:56:09	10:07:27	674697	612669b8c92504572e54c62b	4	1	DL_test	23	DL_test	14	stimuli_target_squarediamonds.svg	stimuli_distractor_trianglediamonds.svg	4	yes	da	1	1502	6	4	antiphase_hc_sio.wav	1	6	2	noise_calib_stim_LEFT.wav	1	2	blb_dichoticlistening_ba-da.mp3	ba	da	1	right
6.6.1	win	2023-06-27	09:56:09	10:07:27	674697	612669b8c92504572e54c62b	4	1	DL_test	23	DL_test	15	stimuli_target_squarediamonds.svg	stimuli_distractor_trianglediamonds.svg	4	yes	ta	1	1622	6	4	antiphase_hc_sio.wav	1	6	2	noise_calib_stim_LEFT.wav	1	33	blb_dichoticlistening_ta-ga.mp3	ta	ga	1	left
6.6.1	win	2023-06-27	09:56:09	10:07:27	674697	612669b8c92504572e54c62b	4	1	DL_test	23	DL_test	16	stimuli_target_squarediamonds.svg	stimuli_distractor_trianglediamonds.svg	4	yes	ta	1	1638	6	4	antiphase_hc_sio.wav	1	6	2	noise_calib_stim_LEFT.wav	1	36	blb_dichoticlistening_ta-ta.mp3	ta	ta	0	left
6.6.1	win	2023-06-27	09:56:09	10:07:27	674697	612669b8c92504572e54c62b	4	1	DL_test	23	DL_test	17	stimuli_target_squarediamonds.svg	stimuli_distractor_trianglediamonds.svg	4	yes	da	1	1634	6	4	antiphase_hc_sio.wav	1	6	2	noise_calib_stim_LEFT.wav	1	32	blb_dichoticlistening_ta-da.mp3	ta	da	1	right
6.6.1	win	2023-06-27	09:56:09	10:07:27	674697	612669b8c92504572e54c62b	4	1	DL_test	23	DL_test	18	stimuli_target_squarediamonds.svg	stimuli_distractor_trianglediamonds.svg	4	yes	ga	1	2110	6	4	antiphase_hc_sio.wav	1	6	2	noise_calib_stim_LEFT.wav	1	21	blb_dichoticlistening_ka-ga.mp3	ka	ga	1	right
6.6.1	win	2023-06-27	09:56:09	10:07:27	674697	612669b8c92504572e54c62b	4	1	DL_test	23	DL_test	19	stimuli_target_squarediamonds.svg	stimuli_distractor_trianglediamonds.svg	4	yes	ta	0	1499	6	4	antiphase_hc_sio.wav	1	6	2	noise_calib_stim_LEFT.wav	1	28	blb_dichoticlistening_pa-ka.mp3	pa	ka	1	other
6.6.1	win	2023-06-27	09:56:09	10:07:27	674697	612669b8c92504572e54c62b	4	1	DL_test	23	DL_test	20	stimuli_target_squarediamonds.svg	stimuli_distractor_trianglediamonds.svg	4	yes	ka	1	1524	6	4	antiphase_hc_sio.wav	1	6	2	noise_calib_stim_LEFT.wav	1	22	blb_dichoticlistening_ka-ka.mp3	ka	ka	0	left
6.6.1	win	2023-06-27	09:56:09	10:07:27	674697	612669b8c92504572e54c62b	4	1	DL_test	23	DL_test	21	stimuli_target_squarediamonds.svg	stimuli_distractor_trianglediamonds.svg	4	yes	ta	1	3211	6	4	antiphase_hc_sio.wav	1	6	2	noise_calib_stim_LEFT.wav	1	6	blb_dichoticlistening_ba-ta.mp3	ba	ta	1	right
6.6.1	win	2023-06-27	09:56:09	10:07:27	674697	612669b8c92504572e54c62b	4	1	DL_test	23	DL_test	22	stimuli_target_squarediamonds.svg	stimuli_distractor_trianglediamonds.svg	4	yes	pa	1	1337	6	4	antiphase_hc_sio.wav	1	6	2	noise_calib_stim_LEFT.wav	1	11	blb_dichoticlistening_da-pa.mp3	da	pa	1	right
6.6.1	win	2023-06-27	09:56:09	10:07:27	674697	612669b8c92504572e54c62b	4	1	DL_test	23	DL_test	23	stimuli_target_squarediamonds.svg	stimuli_distractor_trianglediamonds.svg	4	yes	ka	1	1254	6	4	antiphase_hc_sio.wav	1	6	2	noise_calib_stim_LEFT.wav	1	4	blb_dichoticlistening_ba-ka.mp3	ba	ka	1	right
6.6.1	win	2023-06-27	09:56:09	10:07:27	674697	612669b8c92504572e54c62b	4	1	DL_test	23	DL_test	24	stimuli_target_squarediamonds.svg	stimuli_distractor_trianglediamonds.svg	4	yes	ka	1	1883	6	4	antiphase_hc_sio.wav	1	6	2	noise_calib_stim_LEFT.wav	1	34	blb_dichoticlistening_ta-ka.mp3	ta	ka	1	right
6.6.1	win	2023-06-27	09:56:09	10:07:27	674697	612669b8c92504572e54c62b	4	1	DL_test	23	DL_test	25	stimuli_target_squarediamonds.svg	stimuli_distractor_trianglediamonds.svg	4	yes	ba	1	1603	6	4	antiphase_hc_sio.wav	1	6	2	noise_calib_stim_LEFT.wav	1	25	blb_dichoticlistening_pa-ba.mp3	pa	ba	1	right
6.6.1	win	2023-06-27	09:56:09	10:07:27	674697	612669b8c92504572e54c62b	4	1	DL_test	23	DL_test	26	stimuli_target_squarediamonds.svg	stimuli_distractor_trianglediamonds.svg	4	yes	ga	1	1453	6	4	antiphase_hc_sio.wav	1	6	2	noise_calib_stim_LEFT.wav	1	15	blb_dichoticlistening_ga-ga.mp3	ga	ga	0	left
6.6.1	win	2023-06-27	09:56:09	10:07:27	674697	612669b8c92504572e54c62b	4	1	DL_test	23	DL_test	27	stimuli_target_squarediamonds.svg	stimuli_distractor_trianglediamonds.svg	4	yes	ga	0	2625	6	4	antiphase_hc_sio.wav	1	6	2	noise_calib_stim_LEFT.wav	1	19	blb_dichoticlistening_ka-ba.mp3	ka	ba	1	other
