build	computer.platform	date	time	timestamp	time_elapsed_ms	subject	group	session	blockcode	blocknum	trialcode	trialnum	stimulus_left	stimulus_right	stim_index	target_present	response	correct	latency	headphonecheck_countTestTrials	headphonecheck_index	headphonecheck_testSound	headphonecheck_correctResponse	stereocheck_countTestTrials	stereocheck_index	stereocheck_testSound	stereocheck_correctResponse	DL_index	DL_soundfile	DL_leftSound	DL_rightSound	DL_dualSound	DL_choice
6.6.1	win	2023-06-28	10:48:00	10:50:12	126292	6116006273dc164b00631515	4	1	practice_z	5	practice_z	1	stimuli_target_squarediamonds.svg	stimuli_distractor_diamondtriangles.svg	2	yes	44	1	1021	0	0			0	0			1				0	
6.6.1	win	2023-06-28	10:48:00	10:50:12	126292	6116006273dc164b00631515	4	1	practice_z	5	advance_on_keypress_ZEE	2	stimuli_target_squarediamonds.svg	stimuli_distractor_diamondtriangles.svg	2	yes	57	0	1079	0	0			0	0			1				0	
6.6.1	win	2023-06-28	10:48:00	10:50:17	131060	6116006273dc164b00631515	4	1	practice_z	5	practice_z	3	stimuli_distractor_trianglediamonds.svg	stimuli_target_diamondrectangles.svg	12	yes	0	0	2000	0	0			0	0			1				0	
6.6.1	win	2023-06-28	10:48:00	10:50:17	131060	6116006273dc164b00631515	4	1	practice_z	5	advance_on_keypress_ZEE	4	stimuli_distractor_trianglediamonds.svg	stimuli_target_diamondrectangles.svg	12	yes	57	0	428	0	0			0	0			1				0	
6.6.1	win	2023-06-28	10:48:00	10:50:20	134073	6116006273dc164b00631515	4	1	practice_z	5	practice_z	5	stimuli_target_diamondsquares.svg	stimuli_distractor_diamondtriangles.svg	3	yes	44	1	917	0	0			0	0			1				0	
6.6.1	win	2023-06-28	10:48:00	10:50:20	134073	6116006273dc164b00631515	4	1	practice_z	5	advance_on_keypress_ZEE	6	stimuli_target_diamondsquares.svg	stimuli_distractor_diamondtriangles.svg	3	yes	57	0	564	0	0			0	0			1				0	
6.6.1	win	2023-06-28	10:48:00	10:50:23	137256	6116006273dc164b00631515	4	1	practice_z	5	practice_z	7	stimuli_target_diamondsquares.svg	stimuli_distractor_trianglediamonds.svg	6	yes	44	1	964	0	0			0	0			1				0	
6.6.1	win	2023-06-28	10:48:00	10:50:23	137256	6116006273dc164b00631515	4	1	practice_z	5	advance_on_keypress_ZEE	8	stimuli_target_diamondsquares.svg	stimuli_distractor_trianglediamonds.svg	6	yes	57	0	523	0	0			0	0			1				0	
6.6.1	win	2023-06-28	10:48:00	10:50:26	140530	6116006273dc164b00631515	4	1	practice_z	5	practice_z	9	stimuli_distractor_trianglediamonds.svg	stimuli_target_squarediamonds.svg	11	yes	44	1	1087	0	0			0	0			1				0	
6.6.1	win	2023-06-28	10:48:00	10:50:26	140530	6116006273dc164b00631515	4	1	practice_z	5	advance_on_keypress_ZEE	10	stimuli_distractor_trianglediamonds.svg	stimuli_target_squarediamonds.svg	11	yes	57	0	506	0	0			0	0			1				0	
6.6.1	win	2023-06-28	10:48:00	10:50:31	144711	6116006273dc164b00631515	4	1	practice_z	5	practice_z	11	stimuli_distractor_trianglediamonds.svg	stimuli_target_rectanglediamonds.svg	10	yes	0	0	2000	0	0			0	0			1				0	
6.6.1	win	2023-06-28	10:48:00	10:50:31	144711	6116006273dc164b00631515	4	1	practice_z	5	advance_on_keypress_ZEE	12	stimuli_distractor_trianglediamonds.svg	stimuli_target_rectanglediamonds.svg	10	yes	57	0	306	0	0			0	0			1				0	
6.6.1	win	2023-06-28	10:48:00	10:50:35	148680	6116006273dc164b00631515	4	1	practice_z	5	practice_z	13	stimuli_distractor_diamondtriangles.svg	stimuli_distractor_trianglediamonds.svg	14	no	0	1	2000	0	0			0	0			1				0	
6.6.1	win	2023-06-28	10:48:00	10:50:35	148680	6116006273dc164b00631515	4	1	practice_z	5	advance_on_keypress_ZEE	14	stimuli_distractor_diamondtriangles.svg	stimuli_distractor_trianglediamonds.svg	14	no	57	0	269	0	0			0	0			1				0	
6.6.1	win	2023-06-28	10:48:00	10:50:37	151287	6116006273dc164b00631515	4	1	practice_z	5	practice_z	15	stimuli_target_squarediamonds.svg	stimuli_distractor_trianglediamonds.svg	5	yes	44	1	689	0	0			0	0			1				0	
6.6.1	win	2023-06-28	10:48:00	10:50:37	151287	6116006273dc164b00631515	4	1	practice_z	5	advance_on_keypress_ZEE	16	stimuli_target_squarediamonds.svg	stimuli_distractor_trianglediamonds.svg	5	yes	57	0	377	0	0			0	0			1				0	
6.6.1	win	2023-06-28	10:48:00	10:50:40	154216	6116006273dc164b00631515	4	1	practice_z	5	practice_z	17	stimuli_distractor_diamondtriangles.svg	stimuli_target_rectangletriangles.svg	7	yes	44	1	882	0	0			0	0			1				0	
6.6.1	win	2023-06-28	10:48:00	10:50:40	154216	6116006273dc164b00631515	4	1	practice_z	5	advance_on_keypress_ZEE	18	stimuli_distractor_diamondtriangles.svg	stimuli_target_rectangletriangles.svg	7	yes	57	0	764	0	0			0	0			1				0	
6.6.1	win	2023-06-28	10:48:00	10:50:44	157750	6116006273dc164b00631515	4	1	practice_z	5	practice_z	19	stimuli_distractor_trianglediamonds.svg	stimuli_distractor_trianglediamonds.svg	15	no	44	0	1114	0	0			0	0			1				0	
6.6.1	win	2023-06-28	10:48:00	10:50:44	157750	6116006273dc164b00631515	4	1	practice_z	5	advance_on_keypress_ZEE	20	stimuli_distractor_trianglediamonds.svg	stimuli_distractor_trianglediamonds.svg	15	no	57	0	417	0	0			0	0			1				0	
6.6.1	win	2023-06-28	10:48:00	10:50:48	161817	6116006273dc164b00631515	4	1	practice_z	5	practice_z	21	stimuli_distractor_diamondtriangles.svg	stimuli_distractor_diamondtriangles.svg	13	no	0	1	2000	0	0			0	0			1				0	
6.6.1	win	2023-06-28	10:48:00	10:50:48	161817	6116006273dc164b00631515	4	1	practice_z	5	advance_on_keypress_ZEE	22	stimuli_distractor_diamondtriangles.svg	stimuli_distractor_diamondtriangles.svg	13	no	57	0	259	0	0			0	0			1				0	
6.6.1	win	2023-06-28	10:48:00	10:50:50	164586	6116006273dc164b00631515	4	1	practice_z	5	practice_z	23	stimuli_distractor_diamondtriangles.svg	stimuli_target_trianglerectangles.svg	9	yes	44	1	851	0	0			0	0			1				0	
6.6.1	win	2023-06-28	10:48:00	10:50:50	164586	6116006273dc164b00631515	4	1	practice_z	5	advance_on_keypress_ZEE	24	stimuli_distractor_diamondtriangles.svg	stimuli_target_trianglerectangles.svg	9	yes	57	0	460	0	0			0	0			1				0	
6.6.1	win	2023-06-28	10:48:00	10:50:55	168703	6116006273dc164b00631515	4	1	practice_z	5	practice_z	25	stimuli_distractor_trianglediamonds.svg	stimuli_distractor_diamondtriangles.svg	16	no	0	1	2000	0	0			0	0			1				0	
6.6.1	win	2023-06-28	10:48:00	10:50:55	168703	6116006273dc164b00631515	4	1	practice_z	5	advance_on_keypress_ZEE	26	stimuli_distractor_trianglediamonds.svg	stimuli_distractor_diamondtriangles.svg	16	no	57	0	398	0	0			0	0			1				0	
6.6.1	win	2023-06-28	10:48:00	10:50:58	171631	6116006273dc164b00631515	4	1	practice_z	5	practice_z	27	stimuli_distractor_diamondtriangles.svg	stimuli_target_diamondrectangles.svg	8	yes	44	1	875	0	0			0	0			1				0	
6.6.1	win	2023-06-28	10:48:00	10:50:58	171631	6116006273dc164b00631515	4	1	practice_z	5	advance_on_keypress_ZEE	28	stimuli_distractor_diamondtriangles.svg	stimuli_target_diamondrectangles.svg	8	yes	57	0	400	0	0			0	0			1				0	
6.6.1	win	2023-06-28	10:48:00	10:51:00	174501	6116006273dc164b00631515	4	1	practice_z	5	practice_z	29	stimuli_target_rectanglediamonds.svg	stimuli_distractor_diamondtriangles.svg	1	yes	44	1	810	0	0			0	0			1				0	
6.6.1	win	2023-06-28	10:48:00	10:51:00	174501	6116006273dc164b00631515	4	1	practice_z	5	advance_on_keypress_ZEE	30	stimuli_target_rectanglediamonds.svg	stimuli_distractor_diamondtriangles.svg	1	yes	57	0	394	0	0			0	0			1				0	
6.6.1	win	2023-06-28	10:48:00	10:51:04	177679	6116006273dc164b00631515	4	1	practice_z	5	practice_z	31	stimuli_target_rectanglediamonds.svg	stimuli_distractor_trianglediamonds.svg	4	yes	44	1	1121	0	0			0	0			1				0	
6.6.1	win	2023-06-28	10:48:00	10:51:04	177679	6116006273dc164b00631515	4	1	practice_z	5	advance_on_keypress_ZEE	32	stimuli_target_rectanglediamonds.svg	stimuli_distractor_trianglediamonds.svg	4	yes	57	0	390	0	0			0	0			1				0	
6.6.1	win	2023-06-28	10:48:00	10:51:28	201767	6116006273dc164b00631515	4	1	main_z	7	main_z	1	stimuli_distractor_trianglediamonds.svg	stimuli_target_rectanglediamonds.svg	10	yes	44	1	885	0	0			0	0			1				0	
6.6.1	win	2023-06-28	10:48:00	10:51:28	201767	6116006273dc164b00631515	4	1	main_z	7	advance_on_keypress_ZEE	2	stimuli_distractor_trianglediamonds.svg	stimuli_target_rectanglediamonds.svg	10	yes	57	0	793	0	0			0	0			1				0	
6.6.1	win	2023-06-28	10:48:00	10:51:30	203897	6116006273dc164b00631515	4	1	main_z	7	main_z	3	stimuli_distractor_trianglediamonds.svg	stimuli_target_squaretriangles.svg	11	yes	44	1	681	0	0			0	0			1				0	
6.6.1	win	2023-06-28	10:48:00	10:51:30	203897	6116006273dc164b00631515	4	1	main_z	7	advance_on_keypress_ZEE	4	stimuli_distractor_trianglediamonds.svg	stimuli_target_squaretriangles.svg	11	yes	57	0	746	0	0			0	0			1				0	
6.6.1	win	2023-06-28	10:48:00	10:51:32	205975	6116006273dc164b00631515	4	1	main_z	7	main_z	5	stimuli_target_rectangletriangles.svg	stimuli_distractor_trianglediamonds.svg	1	yes	44	1	673	0	0			0	0			1				0	
6.6.1	win	2023-06-28	10:48:00	10:51:32	205975	6116006273dc164b00631515	4	1	main_z	7	advance_on_keypress_ZEE	6	stimuli_target_rectangletriangles.svg	stimuli_distractor_trianglediamonds.svg	1	yes	57	0	700	0	0			0	0			1				0	
6.6.1	win	2023-06-28	10:48:00	10:51:34	208079	6116006273dc164b00631515	4	1	main_z	7	main_z	7	stimuli_distractor_diamondtriangles.svg	stimuli_target_squaretriangles.svg	15	yes	44	1	762	0	0			0	0			1				0	
6.6.1	win	2023-06-28	10:48:00	10:51:34	208079	6116006273dc164b00631515	4	1	main_z	7	advance_on_keypress_ZEE	8	stimuli_distractor_diamondtriangles.svg	stimuli_target_squaretriangles.svg	15	yes	57	0	664	0	0			0	0			1				0	
6.6.1	win	2023-06-28	10:48:00	10:51:37	211403	6116006273dc164b00631515	4	1	main_z	7	main_z	9	stimuli_distractor_diamondtriangles.svg	stimuli_distractor_diamondtriangles.svg	39	no	0	1	2000	0	0			0	0			1				0	
6.6.1	win	2023-06-28	10:48:00	10:51:37	211403	6116006273dc164b00631515	4	1	main_z	7	advance_on_keypress_ZEE	10	stimuli_distractor_diamondtriangles.svg	stimuli_distractor_diamondtriangles.svg	39	no	57	0	410	0	0			0	0			1				0	
6.6.1	win	2023-06-28	10:48:00	10:51:39	213611	6116006273dc164b00631515	4	1	main_z	7	main_z	11	stimuli_distractor_diamondtriangles.svg	stimuli_target_rectanglediamonds.svg	14	yes	44	1	1140	0	0			0	0			1				0	
6.6.1	win	2023-06-28	10:48:00	10:51:39	213611	6116006273dc164b00631515	4	1	main_z	7	advance_on_keypress_ZEE	12	stimuli_distractor_diamondtriangles.svg	stimuli_target_rectanglediamonds.svg	14	yes	57	0	704	0	0			0	0			1				0	
6.6.1	win	2023-06-28	10:48:00	10:51:42	215884	6116006273dc164b00631515	4	1	main_z	7	main_z	13	stimuli_distractor_trianglediamonds.svg	stimuli_target_trianglesquares.svg	26	yes	44	1	928	0	0			0	0			1				0	
6.6.1	win	2023-06-28	10:48:00	10:51:42	215884	6116006273dc164b00631515	4	1	main_z	7	advance_on_keypress_ZEE	14	stimuli_distractor_trianglediamonds.svg	stimuli_target_trianglesquares.svg	26	yes	57	0	587	0	0			0	0			1				0	
6.6.1	win	2023-06-28	10:48:00	10:51:44	218033	6116006273dc164b00631515	4	1	main_z	7	main_z	15	stimuli_distractor_diamondtriangles.svg	stimuli_target_diamondsquares.svg	32	yes	44	1	910	0	0			0	0			1				0	
6.6.1	win	2023-06-28	10:48:00	10:51:44	218033	6116006273dc164b00631515	4	1	main_z	7	advance_on_keypress_ZEE	16	stimuli_distractor_diamondtriangles.svg	stimuli_target_diamondsquares.svg	32	yes	57	0	583	0	0			0	0			1				0	
6.6.1	win	2023-06-28	10:48:00	10:51:47	220867	6116006273dc164b00631515	4	1	main_z	7	main_z	17	stimuli_distractor_diamondtriangles.svg	stimuli_distractor_trianglediamonds.svg	38	no	44	0	1593	0	0			0	0			1				0	
6.6.1	win	2023-06-28	10:48:00	10:51:47	220867	6116006273dc164b00631515	4	1	main_z	7	advance_on_keypress_ZEE	18	stimuli_distractor_diamondtriangles.svg	stimuli_distractor_trianglediamonds.svg	38	no	57	0	1015	0	0			0	0			1				0	
6.6.1	win	2023-06-28	10:48:00	10:51:49	223184	6116006273dc164b00631515	4	1	main_z	7	main_z	19	stimuli_target_rectanglediamonds.svg	stimuli_distractor_diamondtriangles.svg	6	yes	44	1	642	0	0			0	0			1				0	
6.6.1	win	2023-06-28	10:48:00	10:51:49	223184	6116006273dc164b00631515	4	1	main_z	7	advance_on_keypress_ZEE	20	stimuli_target_rectanglediamonds.svg	stimuli_distractor_diamondtriangles.svg	6	yes	57	0	684	0	0			0	0			1				0	
6.6.1	win	2023-06-28	10:48:00	10:51:51	225552	6116006273dc164b00631515	4	1	main_z	7	main_z	21	stimuli_target_squarediamonds.svg	stimuli_distractor_trianglediamonds.svg	4	yes	44	1	1043	0	0			0	0			1				0	
6.6.1	win	2023-06-28	10:48:00	10:51:51	225552	6116006273dc164b00631515	4	1	main_z	7	advance_on_keypress_ZEE	22	stimuli_target_squarediamonds.svg	stimuli_distractor_trianglediamonds.svg	4	yes	57	0	1313	0	0			0	0			1				0	
6.6.1	win	2023-06-28	10:48:00	10:51:55	229511	6116006273dc164b00631515	4	1	main_z	7	main_z	23	stimuli_distractor_trianglediamonds.svg	stimuli_distractor_trianglediamonds.svg	34	no	0	1	2000	0	0			0	0			1				0	
6.6.1	win	2023-06-28	10:48:00	10:51:55	229511	6116006273dc164b00631515	4	1	main_z	7	advance_on_keypress_ZEE	24	stimuli_distractor_trianglediamonds.svg	stimuli_distractor_trianglediamonds.svg	34	no	57	0	255	0	0			0	0			1				0	
6.6.1	win	2023-06-28	10:48:00	10:51:57	231110	6116006273dc164b00631515	4	1	main_z	7	main_z	25	stimuli_target_trianglesquares.svg	stimuli_distractor_trianglediamonds.svg	18	yes	44	1	698	0	0			0	0			1				0	
6.6.1	win	2023-06-28	10:48:00	10:51:57	231110	6116006273dc164b00631515	4	1	main_z	7	advance_on_keypress_ZEE	26	stimuli_target_trianglesquares.svg	stimuli_distractor_trianglediamonds.svg	18	yes	57	0	565	0	0			0	0			1				0	
6.6.1	win	2023-06-28	10:48:00	10:51:59	233452	6116006273dc164b00631515	4	1	main_z	7	main_z	27	stimuli_distractor_trianglediamonds.svg	stimuli_target_trianglerectangles.svg	25	yes	44	1	1121	0	0			0	0			1				0	
6.6.1	win	2023-06-28	10:48:00	10:51:59	233452	6116006273dc164b00631515	4	1	main_z	7	advance_on_keypress_ZEE	28	stimuli_distractor_trianglediamonds.svg	stimuli_target_trianglerectangles.svg	25	yes	57	0	530	0	0			0	0			1				0	
6.6.1	win	2023-06-28	10:48:00	10:52:01	235365	6116006273dc164b00631515	4	1	main_z	7	main_z	29	stimuli_target_trianglerectangles.svg	stimuli_distractor_diamondtriangles.svg	21	yes	44	1	735	0	0			0	0			1				0	
6.6.1	win	2023-06-28	10:48:00	10:52:01	235365	6116006273dc164b00631515	4	1	main_z	7	advance_on_keypress_ZEE	30	stimuli_target_trianglerectangles.svg	stimuli_distractor_diamondtriangles.svg	21	yes	57	0	496	0	0			0	0			1				0	
6.6.1	win	2023-06-28	10:48:00	10:52:03	237262	6116006273dc164b00631515	4	1	main_z	7	main_z	31	stimuli_target_squaretriangles.svg	stimuli_distractor_diamondtriangles.svg	7	yes	44	1	747	0	0			0	0			1				0	
6.6.1	win	2023-06-28	10:48:00	10:52:03	237262	6116006273dc164b00631515	4	1	main_z	7	advance_on_keypress_ZEE	32	stimuli_target_squaretriangles.svg	stimuli_distractor_diamondtriangles.svg	7	yes	57	0	487	0	0			0	0			1				0	
6.6.1	win	2023-06-28	10:48:00	10:52:05	239218	6116006273dc164b00631515	4	1	main_z	7	main_z	33	stimuli_distractor_trianglediamonds.svg	stimuli_target_diamondsquares.svg	28	yes	44	1	819	0	0			0	0			1				0	
6.6.1	win	2023-06-28	10:48:00	10:52:05	239218	6116006273dc164b00631515	4	1	main_z	7	advance_on_keypress_ZEE	34	stimuli_distractor_trianglediamonds.svg	stimuli_target_diamondsquares.svg	28	yes	57	0	616	0	0			0	0			1				0	
6.6.1	win	2023-06-28	10:48:00	10:52:07	241268	6116006273dc164b00631515	4	1	main_z	7	main_z	35	stimuli_target_squarediamonds.svg	stimuli_distractor_diamondtriangles.svg	8	yes	44	1	785	0	0			0	0			1				0	
6.6.1	win	2023-06-28	10:48:00	10:52:07	241268	6116006273dc164b00631515	4	1	main_z	7	advance_on_keypress_ZEE	36	stimuli_target_squarediamonds.svg	stimuli_distractor_diamondtriangles.svg	8	yes	57	0	486	0	0			0	0			1				0	
6.6.1	win	2023-06-28	10:48:00	10:52:09	243255	6116006273dc164b00631515	4	1	main_z	7	main_z	37	stimuli_target_rectangletriangles.svg	stimuli_distractor_diamondtriangles.svg	5	yes	44	1	854	0	0			0	0			1				0	
6.6.1	win	2023-06-28	10:48:00	10:52:09	243255	6116006273dc164b00631515	4	1	main_z	7	advance_on_keypress_ZEE	38	stimuli_target_rectangletriangles.svg	stimuli_distractor_diamondtriangles.svg	5	yes	57	0	490	0	0			0	0			1				0	
6.6.1	win	2023-06-28	10:48:00	10:52:11	245217	6116006273dc164b00631515	4	1	main_z	7	main_z	39	stimuli_distractor_trianglediamonds.svg	stimuli_target_diamondrectangles.svg	27	yes	44	1	832	0	0			0	0			1				0	
6.6.1	win	2023-06-28	10:48:00	10:52:11	245217	6116006273dc164b00631515	4	1	main_z	7	advance_on_keypress_ZEE	40	stimuli_distractor_trianglediamonds.svg	stimuli_target_diamondrectangles.svg	27	yes	57	0	484	0	0			0	0			1				0	
6.6.1	win	2023-06-28	10:48:00	10:52:13	247120	6116006273dc164b00631515	4	1	main_z	7	main_z	41	stimuli_distractor_diamondtriangles.svg	stimuli_target_trianglerectangles.svg	29	yes	44	1	768	0	0			0	0			1				0	
6.6.1	win	2023-06-28	10:48:00	10:52:13	247120	6116006273dc164b00631515	4	1	main_z	7	advance_on_keypress_ZEE	42	stimuli_distractor_diamondtriangles.svg	stimuli_target_trianglerectangles.svg	29	yes	57	0	465	0	0			0	0			1				0	
6.6.1	win	2023-06-28	10:48:00	10:52:15	249059	6116006273dc164b00631515	4	1	main_z	7	main_z	43	stimuli_target_diamondrectangles.svg	stimuli_distractor_trianglediamonds.svg	19	yes	44	1	822	0	0			0	0			1				0	
6.6.1	win	2023-06-28	10:48:00	10:52:15	249059	6116006273dc164b00631515	4	1	main_z	7	advance_on_keypress_ZEE	44	stimuli_target_diamondrectangles.svg	stimuli_distractor_trianglediamonds.svg	19	yes	57	0	436	0	0			0	0			1				0	
6.6.1	win	2023-06-28	10:48:00	10:52:17	250964	6116006273dc164b00631515	4	1	main_z	7	main_z	45	stimuli_target_diamondsquares.svg	stimuli_distractor_trianglediamonds.svg	20	yes	44	1	827	0	0			0	0			1				0	
6.6.1	win	2023-06-28	10:48:00	10:52:17	250964	6116006273dc164b00631515	4	1	main_z	7	advance_on_keypress_ZEE	46	stimuli_target_diamondsquares.svg	stimuli_distractor_trianglediamonds.svg	20	yes	57	0	475	0	0			0	0			1				0	
6.6.1	win	2023-06-28	10:48:00	10:52:19	252888	6116006273dc164b00631515	4	1	main_z	7	main_z	47	stimuli_target_diamondrectangles.svg	stimuli_distractor_diamondtriangles.svg	23	yes	44	1	800	0	0			0	0			1				0	
6.6.1	win	2023-06-28	10:48:00	10:52:19	252888	6116006273dc164b00631515	4	1	main_z	7	advance_on_keypress_ZEE	48	stimuli_target_diamondrectangles.svg	stimuli_distractor_diamondtriangles.svg	23	yes	57	0	433	0	0			0	0			1				0	
6.6.1	win	2023-06-28	10:48:00	10:52:22	255973	6116006273dc164b00631515	4	1	main_z	7	main_z	49	stimuli_distractor_diamondtriangles.svg	stimuli_distractor_trianglediamonds.svg	37	no	0	1	2000	0	0			0	0			1				0	
6.6.1	win	2023-06-28	10:48:00	10:52:22	255973	6116006273dc164b00631515	4	1	main_z	7	advance_on_keypress_ZEE	50	stimuli_distractor_diamondtriangles.svg	stimuli_distractor_trianglediamonds.svg	37	no	57	0	272	0	0			0	0			1				0	
6.6.1	win	2023-06-28	10:48:00	10:52:24	257924	6116006273dc164b00631515	4	1	main_z	7	main_z	51	stimuli_distractor_trianglediamonds.svg	stimuli_target_squarediamonds.svg	12	yes	44	1	1033	0	0			0	0			1				0	
6.6.1	win	2023-06-28	10:48:00	10:52:24	257924	6116006273dc164b00631515	4	1	main_z	7	advance_on_keypress_ZEE	52	stimuli_distractor_trianglediamonds.svg	stimuli_target_squarediamonds.svg	12	yes	57	0	419	0	0			0	0			1				0	
6.6.1	win	2023-06-28	10:48:00	10:52:26	260136	6116006273dc164b00631515	4	1	main_z	7	main_z	53	stimuli_distractor_diamondtriangles.svg	stimuli_target_diamondrectangles.svg	31	yes	44	1	1142	0	0			0	0			1				0	
6.6.1	win	2023-06-28	10:48:00	10:52:26	260136	6116006273dc164b00631515	4	1	main_z	7	advance_on_keypress_ZEE	54	stimuli_distractor_diamondtriangles.svg	stimuli_target_diamondrectangles.svg	31	yes	57	0	377	0	0			0	0			1				0	
6.6.1	win	2023-06-28	10:48:00	10:52:29	263178	6116006273dc164b00631515	4	1	main_z	7	main_z	55	stimuli_distractor_diamondtriangles.svg	stimuli_target_rectangletriangles.svg	13	yes	0	0	2000	0	0			0	0			1				0	
6.6.1	win	2023-06-28	10:48:00	10:52:29	263178	6116006273dc164b00631515	4	1	main_z	7	advance_on_keypress_ZEE	56	stimuli_distractor_diamondtriangles.svg	stimuli_target_rectangletriangles.svg	13	yes	57	0	218	0	0			0	0			1				0	
6.6.1	win	2023-06-28	10:48:00	10:52:31	264938	6116006273dc164b00631515	4	1	main_z	7	main_z	57	stimuli_target_rectanglediamonds.svg	stimuli_distractor_trianglediamonds.svg	2	yes	44	1	894	0	0			0	0			1				0	
6.6.1	win	2023-06-28	10:48:00	10:52:31	264938	6116006273dc164b00631515	4	1	main_z	7	advance_on_keypress_ZEE	58	stimuli_target_rectanglediamonds.svg	stimuli_distractor_trianglediamonds.svg	2	yes	57	0	441	0	0			0	0			1				0	
6.6.1	win	2023-06-28	10:48:00	10:52:33	266934	6116006273dc164b00631515	4	1	main_z	7	main_z	59	stimuli_distractor_diamondtriangles.svg	stimuli_target_trianglesquares.svg	30	yes	44	1	904	0	0			0	0			1				0	
6.6.1	win	2023-06-28	10:48:00	10:52:33	266934	6116006273dc164b00631515	4	1	main_z	7	advance_on_keypress_ZEE	60	stimuli_distractor_diamondtriangles.svg	stimuli_target_trianglesquares.svg	30	yes	57	0	417	0	0			0	0			1				0	
6.6.1	win	2023-06-28	10:48:00	10:52:35	268812	6116006273dc164b00631515	4	1	main_z	7	main_z	61	stimuli_target_trianglesquares.svg	stimuli_distractor_diamondtriangles.svg	22	yes	44	1	816	0	0			0	0			1				0	
6.6.1	win	2023-06-28	10:48:00	10:52:35	268812	6116006273dc164b00631515	4	1	main_z	7	advance_on_keypress_ZEE	62	stimuli_target_trianglesquares.svg	stimuli_distractor_diamondtriangles.svg	22	yes	57	0	383	0	0			0	0			1				0	
6.6.1	win	2023-06-28	10:48:00	10:52:37	270636	6116006273dc164b00631515	4	1	main_z	7	main_z	63	stimuli_distractor_trianglediamonds.svg	stimuli_target_rectangletriangles.svg	9	yes	44	1	789	0	0			0	0			1				0	
6.6.1	win	2023-06-28	10:48:00	10:52:37	270636	6116006273dc164b00631515	4	1	main_z	7	advance_on_keypress_ZEE	64	stimuli_distractor_trianglediamonds.svg	stimuli_target_rectangletriangles.svg	9	yes	57	0	437	0	0			0	0			1				0	
6.6.1	win	2023-06-28	10:48:00	10:52:40	273716	6116006273dc164b00631515	4	1	main_z	7	main_z	65	stimuli_distractor_trianglediamonds.svg	stimuli_distractor_diamondtriangles.svg	36	no	0	1	2000	0	0			0	0			1				0	
6.6.1	win	2023-06-28	10:48:00	10:52:40	273716	6116006273dc164b00631515	4	1	main_z	7	advance_on_keypress_ZEE	66	stimuli_distractor_trianglediamonds.svg	stimuli_distractor_diamondtriangles.svg	36	no	57	0	280	0	0			0	0			1				0	
6.6.1	win	2023-06-28	10:48:00	10:52:42	275670	6116006273dc164b00631515	4	1	main_z	7	main_z	67	stimuli_distractor_diamondtriangles.svg	stimuli_target_squarediamonds.svg	16	yes	44	1	1020	0	0			0	0			1				0	
6.6.1	win	2023-06-28	10:48:00	10:52:42	275670	6116006273dc164b00631515	4	1	main_z	7	advance_on_keypress_ZEE	68	stimuli_distractor_diamondtriangles.svg	stimuli_target_squarediamonds.svg	16	yes	57	0	555	0	0			0	0			1				0	
6.6.1	win	2023-06-28	10:48:00	10:52:43	277573	6116006273dc164b00631515	4	1	main_z	7	main_z	69	stimuli_target_diamondsquares.svg	stimuli_distractor_diamondtriangles.svg	24	yes	44	1	708	0	0			0	0			1				0	
6.6.1	win	2023-06-28	10:48:00	10:52:43	277573	6116006273dc164b00631515	4	1	main_z	7	advance_on_keypress_ZEE	70	stimuli_target_diamondsquares.svg	stimuli_distractor_diamondtriangles.svg	24	yes	57	0	386	0	0			0	0			1				0	
6.6.1	win	2023-06-28	10:48:00	10:52:46	280601	6116006273dc164b00631515	4	1	main_z	7	main_z	71	stimuli_distractor_diamondtriangles.svg	stimuli_distractor_diamondtriangles.svg	40	no	0	1	2000	0	0			0	0			1				0	
6.6.1	win	2023-06-28	10:48:00	10:52:46	280601	6116006273dc164b00631515	4	1	main_z	7	advance_on_keypress_ZEE	72	stimuli_distractor_diamondtriangles.svg	stimuli_distractor_diamondtriangles.svg	40	no	57	0	232	0	0			0	0			1				0	
6.6.1	win	2023-06-28	10:48:00	10:52:48	282138	6116006273dc164b00631515	4	1	main_z	7	main_z	73	stimuli_target_trianglerectangles.svg	stimuli_distractor_trianglediamonds.svg	17	yes	44	1	653	0	0			0	0			1				0	
6.6.1	win	2023-06-28	10:48:00	10:52:48	282138	6116006273dc164b00631515	4	1	main_z	7	advance_on_keypress_ZEE	74	stimuli_target_trianglerectangles.svg	stimuli_distractor_trianglediamonds.svg	17	yes	57	0	385	0	0			0	0			1				0	
6.6.1	win	2023-06-28	10:48:00	10:52:51	285170	6116006273dc164b00631515	4	1	main_z	7	main_z	75	stimuli_distractor_trianglediamonds.svg	stimuli_distractor_diamondtriangles.svg	35	no	0	1	2000	0	0			0	0			1				0	
6.6.1	win	2023-06-28	10:48:00	10:52:51	285170	6116006273dc164b00631515	4	1	main_z	7	advance_on_keypress_ZEE	76	stimuli_distractor_trianglediamonds.svg	stimuli_distractor_diamondtriangles.svg	35	no	57	0	274	0	0			0	0			1				0	
6.6.1	win	2023-06-28	10:48:00	10:52:54	288088	6116006273dc164b00631515	4	1	main_z	7	main_z	77	stimuli_distractor_trianglediamonds.svg	stimuli_distractor_trianglediamonds.svg	33	no	0	1	2000	0	0			0	0			1				0	
6.6.1	win	2023-06-28	10:48:00	10:52:54	288088	6116006273dc164b00631515	4	1	main_z	7	advance_on_keypress_ZEE	78	stimuli_distractor_trianglediamonds.svg	stimuli_distractor_trianglediamonds.svg	33	no	57	0	262	0	0			0	0			1				0	
6.6.1	win	2023-06-28	10:48:00	10:52:56	290053	6116006273dc164b00631515	4	1	main_z	7	main_z	79	stimuli_target_squaretriangles.svg	stimuli_distractor_trianglediamonds.svg	3	yes	44	1	1047	0	0			0	0			1				0	
6.6.1	win	2023-06-28	10:48:00	10:52:56	290053	6116006273dc164b00631515	4	1	main_z	7	advance_on_keypress_ZEE	80	stimuli_target_squaretriangles.svg	stimuli_distractor_trianglediamonds.svg	3	yes	57	0	400	0	0			0	0			1				0	
6.6.1	win	2023-06-28	10:48:00	10:52:58	292114	6116006273dc164b00631515	4	1	main_z	7	main_z	81	stimuli_distractor_diamondtriangles.svg	stimuli_target_trianglerectangles.svg	29	yes	44	1	1007	0	0			0	0			1				0	
6.6.1	win	2023-06-28	10:48:00	10:52:58	292114	6116006273dc164b00631515	4	1	main_z	7	advance_on_keypress_ZEE	82	stimuli_distractor_diamondtriangles.svg	stimuli_target_trianglerectangles.svg	29	yes	57	0	403	0	0			0	0			1				0	
6.6.1	win	2023-06-28	10:48:00	10:53:00	294058	6116006273dc164b00631515	4	1	main_z	7	main_z	83	stimuli_distractor_trianglediamonds.svg	stimuli_target_trianglesquares.svg	26	yes	44	1	900	0	0			0	0			1				0	
6.6.1	win	2023-06-28	10:48:00	10:53:00	294058	6116006273dc164b00631515	4	1	main_z	7	advance_on_keypress_ZEE	84	stimuli_distractor_trianglediamonds.svg	stimuli_target_trianglesquares.svg	26	yes	57	0	351	0	0			0	0			1				0	
6.6.1	win	2023-06-28	10:48:00	10:53:02	295994	6116006273dc164b00631515	4	1	main_z	7	main_z	85	stimuli_distractor_diamondtriangles.svg	stimuli_target_diamondsquares.svg	32	yes	44	1	936	0	0			0	0			1				0	
6.6.1	win	2023-06-28	10:48:00	10:53:02	295994	6116006273dc164b00631515	4	1	main_z	7	advance_on_keypress_ZEE	86	stimuli_distractor_diamondtriangles.svg	stimuli_target_diamondsquares.svg	32	yes	57	0	731	0	0			0	0			1				0	
6.6.1	win	2023-06-28	10:48:00	10:53:04	298269	6116006273dc164b00631515	4	1	main_z	7	main_z	87	stimuli_target_trianglerectangles.svg	stimuli_distractor_trianglediamonds.svg	17	yes	44	1	809	0	0			0	0			1				0	
6.6.1	win	2023-06-28	10:48:00	10:53:04	298269	6116006273dc164b00631515	4	1	main_z	7	advance_on_keypress_ZEE	88	stimuli_target_trianglerectangles.svg	stimuli_distractor_trianglediamonds.svg	17	yes	57	0	388	0	0			0	0			1				0	
6.6.1	win	2023-06-28	10:48:00	10:53:06	300218	6116006273dc164b00631515	4	1	main_z	7	main_z	89	stimuli_distractor_trianglediamonds.svg	stimuli_target_trianglerectangles.svg	25	yes	44	1	907	0	0			0	0			1				0	
6.6.1	win	2023-06-28	10:48:00	10:53:06	300218	6116006273dc164b00631515	4	1	main_z	7	advance_on_keypress_ZEE	90	stimuli_distractor_trianglediamonds.svg	stimuli_target_trianglerectangles.svg	25	yes	57	0	387	0	0			0	0			1				0	
6.6.1	win	2023-06-28	10:48:00	10:53:08	302012	6116006273dc164b00631515	4	1	main_z	7	main_z	91	stimuli_target_squarediamonds.svg	stimuli_distractor_trianglediamonds.svg	4	yes	44	1	767	0	0			0	0			1				0	
6.6.1	win	2023-06-28	10:48:00	10:53:08	302012	6116006273dc164b00631515	4	1	main_z	7	advance_on_keypress_ZEE	92	stimuli_target_squarediamonds.svg	stimuli_distractor_trianglediamonds.svg	4	yes	57	0	395	0	0			0	0			1				0	
6.6.1	win	2023-06-28	10:48:00	10:53:10	303776	6116006273dc164b00631515	4	1	main_z	7	main_z	93	stimuli_target_squarediamonds.svg	stimuli_distractor_diamondtriangles.svg	8	yes	44	1	715	0	0			0	0			1				0	
6.6.1	win	2023-06-28	10:48:00	10:53:10	303776	6116006273dc164b00631515	4	1	main_z	7	advance_on_keypress_ZEE	94	stimuli_target_squarediamonds.svg	stimuli_distractor_diamondtriangles.svg	8	yes	57	0	545	0	0			0	0			1				0	
6.6.1	win	2023-06-28	10:48:00	10:53:12	305909	6116006273dc164b00631515	4	1	main_z	7	main_z	95	stimuli_distractor_diamondtriangles.svg	stimuli_target_rectangletriangles.svg	13	yes	44	1	929	0	0			0	0			1				0	
6.6.1	win	2023-06-28	10:48:00	10:53:12	305909	6116006273dc164b00631515	4	1	main_z	7	advance_on_keypress_ZEE	96	stimuli_distractor_diamondtriangles.svg	stimuli_target_rectangletriangles.svg	13	yes	57	0	351	0	0			0	0			1				0	
6.6.1	win	2023-06-28	10:48:00	10:53:14	307694	6116006273dc164b00631515	4	1	main_z	7	main_z	97	stimuli_distractor_trianglediamonds.svg	stimuli_target_squarediamonds.svg	12	yes	44	1	780	0	0			0	0			1				0	
6.6.1	win	2023-06-28	10:48:00	10:53:14	307694	6116006273dc164b00631515	4	1	main_z	7	advance_on_keypress_ZEE	98	stimuli_distractor_trianglediamonds.svg	stimuli_target_squarediamonds.svg	12	yes	57	0	355	0	0			0	0			1				0	
6.6.1	win	2023-06-28	10:48:00	10:53:15	309624	6116006273dc164b00631515	4	1	main_z	7	main_z	99	stimuli_target_diamondrectangles.svg	stimuli_distractor_trianglediamonds.svg	19	yes	44	1	927	0	0			0	0			1				0	
6.6.1	win	2023-06-28	10:48:00	10:53:15	309624	6116006273dc164b00631515	4	1	main_z	7	advance_on_keypress_ZEE	100	stimuli_target_diamondrectangles.svg	stimuli_distractor_trianglediamonds.svg	19	yes	57	0	327	0	0			0	0			1				0	
6.6.1	win	2023-06-28	10:48:00	10:53:17	311392	6116006273dc164b00631515	4	1	main_z	7	main_z	101	stimuli_target_squaretriangles.svg	stimuli_distractor_trianglediamonds.svg	3	yes	44	1	777	0	0			0	0			1				0	
6.6.1	win	2023-06-28	10:48:00	10:53:17	311392	6116006273dc164b00631515	4	1	main_z	7	advance_on_keypress_ZEE	102	stimuli_target_squaretriangles.svg	stimuli_distractor_trianglediamonds.svg	3	yes	57	0	350	0	0			0	0			1				0	
6.6.1	win	2023-06-28	10:48:00	10:53:19	313124	6116006273dc164b00631515	4	1	main_z	7	main_z	103	stimuli_target_rectangletriangles.svg	stimuli_distractor_diamondtriangles.svg	5	yes	44	1	724	0	0			0	0			1				0	
6.6.1	win	2023-06-28	10:48:00	10:53:19	313124	6116006273dc164b00631515	4	1	main_z	7	advance_on_keypress_ZEE	104	stimuli_target_rectangletriangles.svg	stimuli_distractor_diamondtriangles.svg	5	yes	57	0	434	0	0			0	0			1				0	
6.6.1	win	2023-06-28	10:48:00	10:53:21	315113	6116006273dc164b00631515	4	1	main_z	7	main_z	105	stimuli_target_diamondsquares.svg	stimuli_distractor_trianglediamonds.svg	20	yes	44	1	913	0	0			0	0			1				0	
6.6.1	win	2023-06-28	10:48:00	10:53:21	315113	6116006273dc164b00631515	4	1	main_z	7	advance_on_keypress_ZEE	106	stimuli_target_diamondsquares.svg	stimuli_distractor_trianglediamonds.svg	20	yes	57	0	362	0	0			0	0			1				0	
6.6.1	win	2023-06-28	10:48:00	10:53:23	317217	6116006273dc164b00631515	4	1	main_z	7	main_z	107	stimuli_distractor_trianglediamonds.svg	stimuli_target_rectanglediamonds.svg	10	yes	44	1	1082	0	0			0	0			1				0	
6.6.1	win	2023-06-28	10:48:00	10:53:23	317217	6116006273dc164b00631515	4	1	main_z	7	advance_on_keypress_ZEE	108	stimuli_distractor_trianglediamonds.svg	stimuli_target_rectanglediamonds.svg	10	yes	57	0	410	0	0			0	0			1				0	
6.6.1	win	2023-06-28	10:48:00	10:53:25	319232	6116006273dc164b00631515	4	1	main_z	7	main_z	109	stimuli_target_diamondrectangles.svg	stimuli_distractor_diamondtriangles.svg	23	yes	44	1	946	0	0			0	0			1				0	
6.6.1	win	2023-06-28	10:48:00	10:53:25	319232	6116006273dc164b00631515	4	1	main_z	7	advance_on_keypress_ZEE	110	stimuli_target_diamondrectangles.svg	stimuli_distractor_diamondtriangles.svg	23	yes	57	0	386	0	0			0	0			1				0	
6.6.1	win	2023-06-28	10:48:00	10:53:27	321287	6116006273dc164b00631515	4	1	main_z	7	main_z	111	stimuli_distractor_trianglediamonds.svg	stimuli_distractor_trianglediamonds.svg	33	no	44	0	1017	0	0			0	0			1				0	
6.6.1	win	2023-06-28	10:48:00	10:53:27	321287	6116006273dc164b00631515	4	1	main_z	7	advance_on_keypress_ZEE	112	stimuli_distractor_trianglediamonds.svg	stimuli_distractor_trianglediamonds.svg	33	no	57	0	357	0	0			0	0			1				0	
6.6.1	win	2023-06-28	10:48:00	10:53:30	324289	6116006273dc164b00631515	4	1	main_z	7	main_z	113	stimuli_distractor_diamondtriangles.svg	stimuli_target_squarediamonds.svg	16	yes	0	0	2000	0	0			0	0			1				0	
6.6.1	win	2023-06-28	10:48:00	10:53:30	324289	6116006273dc164b00631515	4	1	main_z	7	advance_on_keypress_ZEE	114	stimuli_distractor_diamondtriangles.svg	stimuli_target_squarediamonds.svg	16	yes	57	0	1111	0	0			0	0			1				0	
6.6.1	win	2023-06-28	10:48:00	10:53:32	326571	6116006273dc164b00631515	4	1	main_z	7	main_z	115	stimuli_target_trianglesquares.svg	stimuli_distractor_diamondtriangles.svg	22	yes	44	1	507	0	0			0	0			1				0	
6.6.1	win	2023-06-28	10:48:00	10:53:32	326571	6116006273dc164b00631515	4	1	main_z	7	advance_on_keypress_ZEE	116	stimuli_target_trianglesquares.svg	stimuli_distractor_diamondtriangles.svg	22	yes	57	0	476	0	0			0	0			1				0	
6.6.1	win	2023-06-28	10:48:00	10:53:36	329707	6116006273dc164b00631515	4	1	main_z	7	main_z	117	stimuli_distractor_diamondtriangles.svg	stimuli_distractor_diamondtriangles.svg	39	no	0	1	2000	0	0			0	0			1				0	
6.6.1	win	2023-06-28	10:48:00	10:53:36	329707	6116006273dc164b00631515	4	1	main_z	7	advance_on_keypress_ZEE	118	stimuli_distractor_diamondtriangles.svg	stimuli_distractor_diamondtriangles.svg	39	no	57	0	388	0	0			0	0			1				0	
6.6.1	win	2023-06-28	10:48:00	10:53:37	331627	6116006273dc164b00631515	4	1	main_z	7	main_z	119	stimuli_distractor_diamondtriangles.svg	stimuli_target_rectanglediamonds.svg	14	yes	44	1	886	0	0			0	0			1				0	
6.6.1	win	2023-06-28	10:48:00	10:53:37	331627	6116006273dc164b00631515	4	1	main_z	7	advance_on_keypress_ZEE	120	stimuli_distractor_diamondtriangles.svg	stimuli_target_rectanglediamonds.svg	14	yes	57	0	340	0	0			0	0			1				0	
6.6.1	win	2023-06-28	10:48:00	10:53:39	333457	6116006273dc164b00631515	4	1	main_z	7	main_z	121	stimuli_distractor_trianglediamonds.svg	stimuli_target_diamondrectangles.svg	27	yes	44	1	848	0	0			0	0			1				0	
6.6.1	win	2023-06-28	10:48:00	10:53:39	333457	6116006273dc164b00631515	4	1	main_z	7	advance_on_keypress_ZEE	122	stimuli_distractor_trianglediamonds.svg	stimuli_target_diamondrectangles.svg	27	yes	57	0	331	0	0			0	0			1				0	
6.6.1	win	2023-06-28	10:48:00	10:53:42	336443	6116006273dc164b00631515	4	1	main_z	7	main_z	123	stimuli_distractor_trianglediamonds.svg	stimuli_target_rectangletriangles.svg	9	yes	0	0	2000	0	0			0	0			1				0	
6.6.1	win	2023-06-28	10:48:00	10:53:42	336443	6116006273dc164b00631515	4	1	main_z	7	advance_on_keypress_ZEE	124	stimuli_distractor_trianglediamonds.svg	stimuli_target_rectangletriangles.svg	9	yes	57	0	267	0	0			0	0			1				0	
6.6.1	win	2023-06-28	10:48:00	10:53:45	339361	6116006273dc164b00631515	4	1	main_z	7	main_z	125	stimuli_distractor_diamondtriangles.svg	stimuli_distractor_diamondtriangles.svg	40	no	0	1	2000	0	0			0	0			1				0	
6.6.1	win	2023-06-28	10:48:00	10:53:45	339361	6116006273dc164b00631515	4	1	main_z	7	advance_on_keypress_ZEE	126	stimuli_distractor_diamondtriangles.svg	stimuli_distractor_diamondtriangles.svg	40	no	57	0	243	0	0			0	0			1				0	
6.6.1	win	2023-06-28	10:48:00	10:53:48	342262	6116006273dc164b00631515	4	1	main_z	7	main_z	127	stimuli_distractor_trianglediamonds.svg	stimuli_distractor_diamondtriangles.svg	35	no	0	1	2000	0	0			0	0			1				0	
6.6.1	win	2023-06-28	10:48:00	10:53:48	342262	6116006273dc164b00631515	4	1	main_z	7	advance_on_keypress_ZEE	128	stimuli_distractor_trianglediamonds.svg	stimuli_distractor_diamondtriangles.svg	35	no	57	0	290	0	0			0	0			1				0	
6.6.1	win	2023-06-28	10:48:00	10:53:50	344063	6116006273dc164b00631515	4	1	main_z	7	main_z	129	stimuli_target_rectanglediamonds.svg	stimuli_distractor_diamondtriangles.svg	6	yes	44	1	867	0	0			0	0			1				0	
6.6.1	win	2023-06-28	10:48:00	10:53:50	344063	6116006273dc164b00631515	4	1	main_z	7	advance_on_keypress_ZEE	130	stimuli_target_rectanglediamonds.svg	stimuli_distractor_diamondtriangles.svg	6	yes	57	0	372	0	0			0	0			1				0	
6.6.1	win	2023-06-28	10:48:00	10:53:52	345908	6116006273dc164b00631515	4	1	main_z	7	main_z	131	stimuli_target_rectanglediamonds.svg	stimuli_distractor_trianglediamonds.svg	2	yes	44	1	827	0	0			0	0			1				0	
6.6.1	win	2023-06-28	10:48:00	10:53:52	345908	6116006273dc164b00631515	4	1	main_z	7	advance_on_keypress_ZEE	132	stimuli_target_rectanglediamonds.svg	stimuli_distractor_trianglediamonds.svg	2	yes	57	0	355	0	0			0	0			1				0	
6.6.1	win	2023-06-28	10:48:00	10:53:54	347819	6116006273dc164b00631515	4	1	main_z	7	main_z	133	stimuli_distractor_diamondtriangles.svg	stimuli_target_squaretriangles.svg	15	yes	44	1	904	0	0			0	0			1				0	
6.6.1	win	2023-06-28	10:48:00	10:53:54	347819	6116006273dc164b00631515	4	1	main_z	7	advance_on_keypress_ZEE	134	stimuli_distractor_diamondtriangles.svg	stimuli_target_squaretriangles.svg	15	yes	57	0	370	0	0			0	0			1				0	
6.6.1	win	2023-06-28	10:48:00	10:53:57	350833	6116006273dc164b00631515	4	1	main_z	7	main_z	135	stimuli_distractor_diamondtriangles.svg	stimuli_distractor_trianglediamonds.svg	37	no	0	1	2000	0	0			0	0			1				0	
6.6.1	win	2023-06-28	10:48:00	10:53:57	350833	6116006273dc164b00631515	4	1	main_z	7	advance_on_keypress_ZEE	136	stimuli_distractor_diamondtriangles.svg	stimuli_distractor_trianglediamonds.svg	37	no	57	0	266	0	0			0	0			1				0	
6.6.1	win	2023-06-28	10:48:00	10:53:58	352501	6116006273dc164b00631515	4	1	main_z	7	main_z	137	stimuli_distractor_diamondtriangles.svg	stimuli_target_trianglesquares.svg	30	yes	44	1	750	0	0			0	0			1				0	
6.6.1	win	2023-06-28	10:48:00	10:53:58	352501	6116006273dc164b00631515	4	1	main_z	7	advance_on_keypress_ZEE	138	stimuli_distractor_diamondtriangles.svg	stimuli_target_trianglesquares.svg	30	yes	57	0	378	0	0			0	0			1				0	
6.6.1	win	2023-06-28	10:48:00	10:54:00	354515	6116006273dc164b00631515	4	1	main_z	7	main_z	139	stimuli_distractor_trianglediamonds.svg	stimuli_target_diamondsquares.svg	28	yes	44	1	980	0	0			0	0			1				0	
6.6.1	win	2023-06-28	10:48:00	10:54:00	354515	6116006273dc164b00631515	4	1	main_z	7	advance_on_keypress_ZEE	140	stimuli_distractor_trianglediamonds.svg	stimuli_target_diamondsquares.svg	28	yes	57	0	558	0	0			0	0			1				0	
6.6.1	win	2023-06-28	10:48:00	10:54:03	356792	6116006273dc164b00631515	4	1	main_z	7	main_z	141	stimuli_target_trianglerectangles.svg	stimuli_distractor_diamondtriangles.svg	21	yes	44	1	1075	0	0			0	0			1				0	
6.6.1	win	2023-06-28	10:48:00	10:54:03	356792	6116006273dc164b00631515	4	1	main_z	7	advance_on_keypress_ZEE	142	stimuli_target_trianglerectangles.svg	stimuli_distractor_diamondtriangles.svg	21	yes	57	0	377	0	0			0	0			1				0	
6.6.1	win	2023-06-28	10:48:00	10:54:06	359820	6116006273dc164b00631515	4	1	main_z	7	main_z	143	stimuli_distractor_trianglediamonds.svg	stimuli_distractor_trianglediamonds.svg	34	no	0	1	2000	0	0			0	0			1				0	
6.6.1	win	2023-06-28	10:48:00	10:54:06	359820	6116006273dc164b00631515	4	1	main_z	7	advance_on_keypress_ZEE	144	stimuli_distractor_trianglediamonds.svg	stimuli_distractor_trianglediamonds.svg	34	no	57	0	401	0	0			0	0			1				0	
6.6.1	win	2023-06-28	10:48:00	10:54:08	361823	6116006273dc164b00631515	4	1	main_z	7	main_z	145	stimuli_target_rectangletriangles.svg	stimuli_distractor_trianglediamonds.svg	1	yes	44	1	951	0	0			0	0			1				0	
6.6.1	win	2023-06-28	10:48:00	10:54:08	361823	6116006273dc164b00631515	4	1	main_z	7	advance_on_keypress_ZEE	146	stimuli_target_rectangletriangles.svg	stimuli_distractor_trianglediamonds.svg	1	yes	57	0	395	0	0			0	0			1				0	
6.6.1	win	2023-06-28	10:48:00	10:54:10	363857	6116006273dc164b00631515	4	1	main_z	7	main_z	147	stimuli_target_diamondsquares.svg	stimuli_distractor_diamondtriangles.svg	24	yes	44	1	984	0	0			0	0			1				0	
6.6.1	win	2023-06-28	10:48:00	10:54:10	363857	6116006273dc164b00631515	4	1	main_z	7	advance_on_keypress_ZEE	148	stimuli_target_diamondsquares.svg	stimuli_distractor_diamondtriangles.svg	24	yes	57	0	370	0	0			0	0			1				0	
6.6.1	win	2023-06-28	10:48:00	10:54:12	365924	6116006273dc164b00631515	4	1	main_z	7	main_z	149	stimuli_distractor_diamondtriangles.svg	stimuli_target_diamondrectangles.svg	31	yes	44	1	1050	0	0			0	0			1				0	
6.6.1	win	2023-06-28	10:48:00	10:54:12	365924	6116006273dc164b00631515	4	1	main_z	7	advance_on_keypress_ZEE	150	stimuli_distractor_diamondtriangles.svg	stimuli_target_diamondrectangles.svg	31	yes	57	0	324	0	0			0	0			1				0	
6.6.1	win	2023-06-28	10:48:00	10:54:14	367848	6116006273dc164b00631515	4	1	main_z	7	main_z	151	stimuli_distractor_trianglediamonds.svg	stimuli_target_squaretriangles.svg	11	yes	44	1	957	0	0			0	0			1				0	
6.6.1	win	2023-06-28	10:48:00	10:54:14	367848	6116006273dc164b00631515	4	1	main_z	7	advance_on_keypress_ZEE	152	stimuli_distractor_trianglediamonds.svg	stimuli_target_squaretriangles.svg	11	yes	57	0	351	0	0			0	0			1				0	
6.6.1	win	2023-06-28	10:48:00	10:54:17	370842	6116006273dc164b00631515	4	1	main_z	7	main_z	153	stimuli_distractor_trianglediamonds.svg	stimuli_distractor_diamondtriangles.svg	36	no	0	1	2000	0	0			0	0			1				0	
6.6.1	win	2023-06-28	10:48:00	10:54:17	370842	6116006273dc164b00631515	4	1	main_z	7	advance_on_keypress_ZEE	154	stimuli_distractor_trianglediamonds.svg	stimuli_distractor_diamondtriangles.svg	36	no	57	0	232	0	0			0	0			1				0	
6.6.1	win	2023-06-28	10:48:00	10:54:19	372658	6116006273dc164b00631515	4	1	main_z	7	main_z	155	stimuli_target_squaretriangles.svg	stimuli_distractor_diamondtriangles.svg	7	yes	44	1	930	0	0			0	0			1				0	
6.6.1	win	2023-06-28	10:48:00	10:54:19	372658	6116006273dc164b00631515	4	1	main_z	7	advance_on_keypress_ZEE	156	stimuli_target_squaretriangles.svg	stimuli_distractor_diamondtriangles.svg	7	yes	57	0	386	0	0			0	0			1				0	
6.6.1	win	2023-06-28	10:48:00	10:54:21	374635	6116006273dc164b00631515	4	1	main_z	7	main_z	157	stimuli_target_trianglesquares.svg	stimuli_distractor_trianglediamonds.svg	18	yes	44	1	940	0	0			0	0			1				0	
6.6.1	win	2023-06-28	10:48:00	10:54:21	374635	6116006273dc164b00631515	4	1	main_z	7	advance_on_keypress_ZEE	158	stimuli_target_trianglesquares.svg	stimuli_distractor_trianglediamonds.svg	18	yes	57	0	319	0	0			0	0			1				0	
6.6.1	win	2023-06-28	10:48:00	10:54:23	377594	6116006273dc164b00631515	4	1	main_z	7	main_z	159	stimuli_distractor_diamondtriangles.svg	stimuli_distractor_trianglediamonds.svg	38	no	0	1	2000	0	0			0	0			1				0	
6.6.1	win	2023-06-28	10:48:00	10:54:23	377594	6116006273dc164b00631515	4	1	main_z	7	advance_on_keypress_ZEE	160	stimuli_distractor_diamondtriangles.svg	stimuli_distractor_trianglediamonds.svg	38	no	57	0	276	0	0			0	0			1				0	
6.6.1	win	2023-06-28	10:48:00	10:54:43	397507	6116006273dc164b00631515	4	1	practice_slash	9	practice_slash	1	stimuli_distractor_trianglediamonds.svg	stimuli_target_rectanglediamonds.svg	10	yes	53	1	816	0	0			0	0			1				0	
6.6.1	win	2023-06-28	10:48:00	10:54:43	397507	6116006273dc164b00631515	4	1	practice_slash	9	advance_on_keypress_SLASH	2	stimuli_distractor_trianglediamonds.svg	stimuli_target_rectanglediamonds.svg	10	yes	57	0	704	0	0			0	0			1				0	
6.6.1	win	2023-06-28	10:48:00	10:54:47	400680	6116006273dc164b00631515	4	1	practice_slash	9	practice_slash	3	stimuli_target_diamondsquares.svg	stimuli_distractor_trianglediamonds.svg	6	yes	53	1	821	0	0			0	0			1				0	
6.6.1	win	2023-06-28	10:48:00	10:54:47	400680	6116006273dc164b00631515	4	1	practice_slash	9	advance_on_keypress_SLASH	4	stimuli_target_diamondsquares.svg	stimuli_distractor_trianglediamonds.svg	6	yes	57	0	222	0	0			0	0			1				0	
6.6.1	win	2023-06-28	10:48:00	10:54:49	403478	6116006273dc164b00631515	4	1	practice_slash	9	practice_slash	5	stimuli_distractor_trianglediamonds.svg	stimuli_target_squarediamonds.svg	11	yes	53	1	936	0	0			0	0			1				0	
6.6.1	win	2023-06-28	10:48:00	10:54:49	403478	6116006273dc164b00631515	4	1	practice_slash	9	advance_on_keypress_SLASH	6	stimuli_distractor_trianglediamonds.svg	stimuli_target_squarediamonds.svg	11	yes	57	0	224	0	0			0	0			1				0	
6.6.1	win	2023-06-28	10:48:00	10:54:53	407344	6116006273dc164b00631515	4	1	practice_slash	9	practice_slash	7	stimuli_distractor_diamondtriangles.svg	stimuli_target_rectangletriangles.svg	7	yes	0	0	2000	0	0			0	0			1				0	
6.6.1	win	2023-06-28	10:48:00	10:54:53	407344	6116006273dc164b00631515	4	1	practice_slash	9	advance_on_keypress_SLASH	8	stimuli_distractor_diamondtriangles.svg	stimuli_target_rectangletriangles.svg	7	yes	57	0	231	0	0			0	0			1				0	
6.6.1	win	2023-06-28	10:48:00	10:54:57	411228	6116006273dc164b00631515	4	1	practice_slash	9	practice_slash	9	stimuli_distractor_diamondtriangles.svg	stimuli_distractor_diamondtriangles.svg	13	no	0	1	2000	0	0			0	0			1				0	
6.6.1	win	2023-06-28	10:48:00	10:54:57	411228	6116006273dc164b00631515	4	1	practice_slash	9	advance_on_keypress_SLASH	10	stimuli_distractor_diamondtriangles.svg	stimuli_distractor_diamondtriangles.svg	13	no	57	0	236	0	0			0	0			1				0	
6.6.1	win	2023-06-28	10:48:00	10:55:00	414262	6116006273dc164b00631515	4	1	practice_slash	9	practice_slash	11	stimuli_target_squarediamonds.svg	stimuli_distractor_diamondtriangles.svg	2	yes	53	1	1147	0	0			0	0			1				0	
6.6.1	win	2023-06-28	10:48:00	10:55:00	414262	6116006273dc164b00631515	4	1	practice_slash	9	advance_on_keypress_SLASH	12	stimuli_target_squarediamonds.svg	stimuli_distractor_diamondtriangles.svg	2	yes	57	0	228	0	0			0	0			1				0	
6.6.1	win	2023-06-28	10:48:00	10:55:03	417076	6116006273dc164b00631515	4	1	practice_slash	9	practice_slash	13	stimuli_target_diamondsquares.svg	stimuli_distractor_diamondtriangles.svg	3	yes	53	1	926	0	0			0	0			1				0	
6.6.1	win	2023-06-28	10:48:00	10:55:03	417076	6116006273dc164b00631515	4	1	practice_slash	9	advance_on_keypress_SLASH	14	stimuli_target_diamondsquares.svg	stimuli_distractor_diamondtriangles.svg	3	yes	57	0	323	0	0			0	0			1				0	
6.6.1	win	2023-06-28	10:48:00	10:55:07	421051	6116006273dc164b00631515	4	1	practice_slash	9	practice_slash	15	stimuli_distractor_trianglediamonds.svg	stimuli_distractor_trianglediamonds.svg	15	no	0	1	2000	0	0			0	0			1				0	
6.6.1	win	2023-06-28	10:48:00	10:55:07	421051	6116006273dc164b00631515	4	1	practice_slash	9	advance_on_keypress_SLASH	16	stimuli_distractor_trianglediamonds.svg	stimuli_distractor_trianglediamonds.svg	15	no	57	0	218	0	0			0	0			1				0	
6.6.1	win	2023-06-28	10:48:00	10:55:10	423873	6116006273dc164b00631515	4	1	practice_slash	9	practice_slash	17	stimuli_target_squarediamonds.svg	stimuli_distractor_trianglediamonds.svg	5	yes	53	1	955	0	0			0	0			1				0	
6.6.1	win	2023-06-28	10:48:00	10:55:10	423873	6116006273dc164b00631515	4	1	practice_slash	9	advance_on_keypress_SLASH	18	stimuli_target_squarediamonds.svg	stimuli_distractor_trianglediamonds.svg	5	yes	57	0	409	0	0			0	0			1				0	
6.6.1	win	2023-06-28	10:48:00	10:55:13	426884	6116006273dc164b00631515	4	1	practice_slash	9	practice_slash	19	stimuli_distractor_diamondtriangles.svg	stimuli_target_trianglerectangles.svg	9	yes	53	1	947	0	0			0	0			1				0	
6.6.1	win	2023-06-28	10:48:00	10:55:13	426884	6116006273dc164b00631515	4	1	practice_slash	9	advance_on_keypress_SLASH	20	stimuli_distractor_diamondtriangles.svg	stimuli_target_trianglerectangles.svg	9	yes	57	0	344	0	0			0	0			1				0	
6.6.1	win	2023-06-28	10:48:00	10:55:16	430082	6116006273dc164b00631515	4	1	practice_slash	9	practice_slash	21	stimuli_distractor_diamondtriangles.svg	stimuli_distractor_trianglediamonds.svg	14	no	53	0	1196	0	0			0	0			1				0	
6.6.1	win	2023-06-28	10:48:00	10:55:16	430082	6116006273dc164b00631515	4	1	practice_slash	9	advance_on_keypress_SLASH	22	stimuli_distractor_diamondtriangles.svg	stimuli_distractor_trianglediamonds.svg	14	no	57	0	252	0	0			0	0			1				0	
6.6.1	win	2023-06-28	10:48:00	10:55:19	432796	6116006273dc164b00631515	4	1	practice_slash	9	practice_slash	23	stimuli_target_rectanglediamonds.svg	stimuli_distractor_diamondtriangles.svg	1	yes	53	1	807	0	0			0	0			1				0	
6.6.1	win	2023-06-28	10:48:00	10:55:19	432796	6116006273dc164b00631515	4	1	practice_slash	9	advance_on_keypress_SLASH	24	stimuli_target_rectanglediamonds.svg	stimuli_distractor_diamondtriangles.svg	1	yes	57	0	351	0	0			0	0			1				0	
6.6.1	win	2023-06-28	10:48:00	10:55:22	435632	6116006273dc164b00631515	4	1	practice_slash	9	practice_slash	25	stimuli_distractor_diamondtriangles.svg	stimuli_target_diamondrectangles.svg	8	yes	53	1	825	0	0			0	0			1				0	
6.6.1	win	2023-06-28	10:48:00	10:55:22	435632	6116006273dc164b00631515	4	1	practice_slash	9	advance_on_keypress_SLASH	26	stimuli_distractor_diamondtriangles.svg	stimuli_target_diamondrectangles.svg	8	yes	57	0	177	0	0			0	0			1				0	
6.6.1	win	2023-06-28	10:48:00	10:55:24	438061	6116006273dc164b00631515	4	1	practice_slash	9	practice_slash	27	stimuli_distractor_trianglediamonds.svg	stimuli_target_diamondrectangles.svg	12	yes	53	1	586	0	0			0	0			1				0	
6.6.1	win	2023-06-28	10:48:00	10:55:24	438061	6116006273dc164b00631515	4	1	practice_slash	9	advance_on_keypress_SLASH	28	stimuli_distractor_trianglediamonds.svg	stimuli_target_diamondrectangles.svg	12	yes	57	0	225	0	0			0	0			1				0	
6.6.1	win	2023-06-28	10:48:00	10:55:28	441942	6116006273dc164b00631515	4	1	practice_slash	9	practice_slash	29	stimuli_distractor_trianglediamonds.svg	stimuli_distractor_diamondtriangles.svg	16	no	0	1	2000	0	0			0	0			1				0	
6.6.1	win	2023-06-28	10:48:00	10:55:28	441942	6116006273dc164b00631515	4	1	practice_slash	9	advance_on_keypress_SLASH	30	stimuli_distractor_trianglediamonds.svg	stimuli_distractor_diamondtriangles.svg	16	no	57	0	272	0	0			0	0			1				0	
6.6.1	win	2023-06-28	10:48:00	10:55:31	444656	6116006273dc164b00631515	4	1	practice_slash	9	practice_slash	31	stimuli_target_rectanglediamonds.svg	stimuli_distractor_trianglediamonds.svg	4	yes	53	1	795	0	0			0	0			1				0	
6.6.1	win	2023-06-28	10:48:00	10:55:31	444656	6116006273dc164b00631515	4	1	practice_slash	9	advance_on_keypress_SLASH	32	stimuli_target_rectanglediamonds.svg	stimuli_distractor_trianglediamonds.svg	4	yes	57	0	250	0	0			0	0			1				0	
6.6.1	win	2023-06-28	10:48:00	10:55:36	450556	6116006273dc164b00631515	4	1	main_slash	11	main_slash	1	stimuli_target_diamondrectangles.svg	stimuli_distractor_diamondtriangles.svg	23	yes	53	1	828	0	0			0	0			1				0	
6.6.1	win	2023-06-28	10:48:00	10:55:36	450556	6116006273dc164b00631515	4	1	main_slash	11	advance_on_keypress_SLASH	2	stimuli_target_diamondrectangles.svg	stimuli_distractor_diamondtriangles.svg	23	yes	57	0	593	0	0			0	0			1				0	
6.6.1	win	2023-06-28	10:48:00	10:55:39	452665	6116006273dc164b00631515	4	1	main_slash	11	main_slash	3	stimuli_target_trianglesquares.svg	stimuli_distractor_diamondtriangles.svg	22	yes	53	1	870	0	0			0	0			1				0	
6.6.1	win	2023-06-28	10:48:00	10:55:39	452665	6116006273dc164b00631515	4	1	main_slash	11	advance_on_keypress_SLASH	4	stimuli_target_trianglesquares.svg	stimuli_distractor_diamondtriangles.svg	22	yes	57	0	546	0	0			0	0			1				0	
6.6.1	win	2023-06-28	10:48:00	10:55:41	454711	6116006273dc164b00631515	4	1	main_slash	11	main_slash	5	stimuli_target_rectangletriangles.svg	stimuli_distractor_diamondtriangles.svg	5	yes	53	1	847	0	0			0	0			1				0	
6.6.1	win	2023-06-28	10:48:00	10:55:41	454711	6116006273dc164b00631515	4	1	main_slash	11	advance_on_keypress_SLASH	6	stimuli_target_rectangletriangles.svg	stimuli_distractor_diamondtriangles.svg	5	yes	57	0	518	0	0			0	0			1				0	
6.6.1	win	2023-06-28	10:48:00	10:55:42	456475	6116006273dc164b00631515	4	1	main_slash	11	main_slash	7	stimuli_distractor_trianglediamonds.svg	stimuli_target_squaretriangles.svg	11	yes	53	1	593	0	0			0	0			1				0	
6.6.1	win	2023-06-28	10:48:00	10:55:42	456475	6116006273dc164b00631515	4	1	main_slash	11	advance_on_keypress_SLASH	8	stimuli_distractor_trianglediamonds.svg	stimuli_target_squaretriangles.svg	11	yes	57	0	414	0	0			0	0			1				0	
6.6.1	win	2023-06-28	10:48:00	10:55:44	458356	6116006273dc164b00631515	4	1	main_slash	11	main_slash	9	stimuli_distractor_trianglediamonds.svg	stimuli_target_diamondrectangles.svg	27	yes	53	1	808	0	0			0	0			1				0	
6.6.1	win	2023-06-28	10:48:00	10:55:44	458356	6116006273dc164b00631515	4	1	main_slash	11	advance_on_keypress_SLASH	10	stimuli_distractor_trianglediamonds.svg	stimuli_target_diamondrectangles.svg	27	yes	57	0	344	0	0			0	0			1				0	
6.6.1	win	2023-06-28	10:48:00	10:55:46	460163	6116006273dc164b00631515	4	1	main_slash	11	main_slash	11	stimuli_target_diamondsquares.svg	stimuli_distractor_trianglediamonds.svg	20	yes	53	1	811	0	0			0	0			1				0	
6.6.1	win	2023-06-28	10:48:00	10:55:46	460163	6116006273dc164b00631515	4	1	main_slash	11	advance_on_keypress_SLASH	12	stimuli_target_diamondsquares.svg	stimuli_distractor_trianglediamonds.svg	20	yes	57	0	373	0	0			0	0			1				0	
6.6.1	win	2023-06-28	10:48:00	10:55:48	461841	6116006273dc164b00631515	4	1	main_slash	11	main_slash	13	stimuli_distractor_diamondtriangles.svg	stimuli_target_squaretriangles.svg	15	yes	53	1	641	0	0			0	0			1				0	
6.6.1	win	2023-06-28	10:48:00	10:55:48	461841	6116006273dc164b00631515	4	1	main_slash	11	advance_on_keypress_SLASH	14	stimuli_distractor_diamondtriangles.svg	stimuli_target_squaretriangles.svg	15	yes	57	0	394	0	0			0	0			1				0	
6.6.1	win	2023-06-28	10:48:00	10:55:49	463608	6116006273dc164b00631515	4	1	main_slash	11	main_slash	15	stimuli_target_trianglesquares.svg	stimuli_distractor_trianglediamonds.svg	18	yes	53	1	707	0	0			0	0			1				0	
6.6.1	win	2023-06-28	10:48:00	10:55:49	463608	6116006273dc164b00631515	4	1	main_slash	11	advance_on_keypress_SLASH	16	stimuli_target_trianglesquares.svg	stimuli_distractor_trianglediamonds.svg	18	yes	57	0	330	0	0			0	0			1				0	
6.6.1	win	2023-06-28	10:48:00	10:55:53	466638	6116006273dc164b00631515	4	1	main_slash	11	main_slash	17	stimuli_distractor_diamondtriangles.svg	stimuli_distractor_diamondtriangles.svg	39	no	0	1	2000	0	0			0	0			1				0	
6.6.1	win	2023-06-28	10:48:00	10:55:53	466638	6116006273dc164b00631515	4	1	main_slash	11	advance_on_keypress_SLASH	18	stimuli_distractor_diamondtriangles.svg	stimuli_distractor_diamondtriangles.svg	39	no	57	0	259	0	0			0	0			1				0	
6.6.1	win	2023-06-28	10:48:00	10:55:54	468386	6116006273dc164b00631515	4	1	main_slash	11	main_slash	19	stimuli_target_trianglerectangles.svg	stimuli_distractor_trianglediamonds.svg	17	yes	53	1	834	0	0			0	0			1				0	
6.6.1	win	2023-06-28	10:48:00	10:55:54	468386	6116006273dc164b00631515	4	1	main_slash	11	advance_on_keypress_SLASH	20	stimuli_target_trianglerectangles.svg	stimuli_distractor_trianglediamonds.svg	17	yes	57	0	326	0	0			0	0			1				0	
6.6.1	win	2023-06-28	10:48:00	10:55:56	470308	6116006273dc164b00631515	4	1	main_slash	11	main_slash	21	stimuli_distractor_trianglediamonds.svg	stimuli_target_trianglerectangles.svg	25	yes	53	1	934	0	0			0	0			1				0	
6.6.1	win	2023-06-28	10:48:00	10:55:56	470308	6116006273dc164b00631515	4	1	main_slash	11	advance_on_keypress_SLASH	22	stimuli_distractor_trianglediamonds.svg	stimuli_target_trianglerectangles.svg	25	yes	57	0	310	0	0			0	0			1				0	
6.6.1	win	2023-06-28	10:48:00	10:55:58	472129	6116006273dc164b00631515	4	1	main_slash	11	main_slash	23	stimuli_distractor_diamondtriangles.svg	stimuli_target_diamondrectangles.svg	31	yes	53	1	855	0	0			0	0			1				0	
6.6.1	win	2023-06-28	10:48:00	10:55:58	472129	6116006273dc164b00631515	4	1	main_slash	11	advance_on_keypress_SLASH	24	stimuli_distractor_diamondtriangles.svg	stimuli_target_diamondrectangles.svg	31	yes	57	0	370	0	0			0	0			1				0	
6.6.1	win	2023-06-28	10:48:00	10:56:00	474051	6116006273dc164b00631515	4	1	main_slash	11	main_slash	25	stimuli_distractor_diamondtriangles.svg	stimuli_target_diamondsquares.svg	32	yes	53	1	895	0	0			0	0			1				0	
6.6.1	win	2023-06-28	10:48:00	10:56:00	474051	6116006273dc164b00631515	4	1	main_slash	11	advance_on_keypress_SLASH	26	stimuli_distractor_diamondtriangles.svg	stimuli_target_diamondsquares.svg	32	yes	57	0	317	0	0			0	0			1				0	
6.6.1	win	2023-06-28	10:48:00	10:56:02	475888	6116006273dc164b00631515	4	1	main_slash	11	main_slash	27	stimuli_target_diamondsquares.svg	stimuli_distractor_diamondtriangles.svg	24	yes	53	1	866	0	0			0	0			1				0	
6.6.1	win	2023-06-28	10:48:00	10:56:02	475888	6116006273dc164b00631515	4	1	main_slash	11	advance_on_keypress_SLASH	28	stimuli_target_diamondsquares.svg	stimuli_distractor_diamondtriangles.svg	24	yes	57	0	304	0	0			0	0			1				0	
6.6.1	win	2023-06-28	10:48:00	10:56:05	478839	6116006273dc164b00631515	4	1	main_slash	11	main_slash	29	stimuli_distractor_trianglediamonds.svg	stimuli_distractor_trianglediamonds.svg	33	no	0	1	2000	0	0			0	0			1				0	
6.6.1	win	2023-06-28	10:48:00	10:56:05	478839	6116006273dc164b00631515	4	1	main_slash	11	advance_on_keypress_SLASH	30	stimuli_distractor_trianglediamonds.svg	stimuli_distractor_trianglediamonds.svg	33	no	57	0	357	0	0			0	0			1				0	
6.6.1	win	2023-06-28	10:48:00	10:56:07	480664	6116006273dc164b00631515	4	1	main_slash	11	main_slash	31	stimuli_distractor_diamondtriangles.svg	stimuli_target_trianglesquares.svg	30	yes	53	1	806	0	0			0	0			1				0	
6.6.1	win	2023-06-28	10:48:00	10:56:07	480664	6116006273dc164b00631515	4	1	main_slash	11	advance_on_keypress_SLASH	32	stimuli_distractor_diamondtriangles.svg	stimuli_target_trianglesquares.svg	30	yes	57	0	274	0	0			0	0			1				0	
6.6.1	win	2023-06-28	10:48:00	10:56:08	482402	6116006273dc164b00631515	4	1	main_slash	11	main_slash	33	stimuli_target_squaretriangles.svg	stimuli_distractor_diamondtriangles.svg	7	yes	53	1	826	0	0			0	0			1				0	
6.6.1	win	2023-06-28	10:48:00	10:56:08	482402	6116006273dc164b00631515	4	1	main_slash	11	advance_on_keypress_SLASH	34	stimuli_target_squaretriangles.svg	stimuli_distractor_diamondtriangles.svg	7	yes	57	0	284	0	0			0	0			1				0	
6.6.1	win	2023-06-28	10:48:00	10:56:10	484196	6116006273dc164b00631515	4	1	main_slash	11	main_slash	35	stimuli_target_rectanglediamonds.svg	stimuli_distractor_trianglediamonds.svg	2	yes	53	1	853	0	0			0	0			1				0	
6.6.1	win	2023-06-28	10:48:00	10:56:10	484196	6116006273dc164b00631515	4	1	main_slash	11	advance_on_keypress_SLASH	36	stimuli_target_rectanglediamonds.svg	stimuli_distractor_trianglediamonds.svg	2	yes	57	0	392	0	0			0	0			1				0	
6.6.1	win	2023-06-28	10:48:00	10:56:12	486063	6116006273dc164b00631515	4	1	main_slash	11	main_slash	37	stimuli_distractor_diamondtriangles.svg	stimuli_target_rectanglediamonds.svg	14	yes	53	1	836	0	0			0	0			1				0	
6.6.1	win	2023-06-28	10:48:00	10:56:12	486063	6116006273dc164b00631515	4	1	main_slash	11	advance_on_keypress_SLASH	38	stimuli_distractor_diamondtriangles.svg	stimuli_target_rectanglediamonds.svg	14	yes	57	0	318	0	0			0	0			1				0	
6.6.1	win	2023-06-28	10:48:00	10:56:14	487824	6116006273dc164b00631515	4	1	main_slash	11	main_slash	39	stimuli_target_squarediamonds.svg	stimuli_distractor_trianglediamonds.svg	4	yes	53	1	795	0	0			0	0			1				0	
6.6.1	win	2023-06-28	10:48:00	10:56:14	487824	6116006273dc164b00631515	4	1	main_slash	11	advance_on_keypress_SLASH	40	stimuli_target_squarediamonds.svg	stimuli_distractor_trianglediamonds.svg	4	yes	57	0	390	0	0			0	0			1				0	
6.6.1	win	2023-06-28	10:48:00	10:56:15	489488	6116006273dc164b00631515	4	1	main_slash	11	main_slash	41	stimuli_distractor_trianglediamonds.svg	stimuli_target_diamondsquares.svg	28	yes	53	1	626	0	0			0	0			1				0	
6.6.1	win	2023-06-28	10:48:00	10:56:15	489488	6116006273dc164b00631515	4	1	main_slash	11	advance_on_keypress_SLASH	42	stimuli_distractor_trianglediamonds.svg	stimuli_target_diamondsquares.svg	28	yes	57	0	366	0	0			0	0			1				0	
6.6.1	win	2023-06-28	10:48:00	10:56:17	491133	6116006273dc164b00631515	4	1	main_slash	11	main_slash	43	stimuli_target_trianglerectangles.svg	stimuli_distractor_diamondtriangles.svg	21	yes	53	1	616	0	0			0	0			1				0	
6.6.1	win	2023-06-28	10:48:00	10:56:17	491133	6116006273dc164b00631515	4	1	main_slash	11	advance_on_keypress_SLASH	44	stimuli_target_trianglerectangles.svg	stimuli_distractor_diamondtriangles.svg	21	yes	57	0	384	0	0			0	0			1				0	
6.6.1	win	2023-06-28	10:48:00	10:56:19	493532	6116006273dc164b00631515	4	1	main_slash	11	main_slash	45	stimuli_target_rectangletriangles.svg	stimuli_distractor_trianglediamonds.svg	1	yes	53	1	1368	0	0			0	0			1				0	
6.6.1	win	2023-06-28	10:48:00	10:56:19	493532	6116006273dc164b00631515	4	1	main_slash	11	advance_on_keypress_SLASH	46	stimuli_target_rectangletriangles.svg	stimuli_distractor_trianglediamonds.svg	1	yes	57	0	458	0	0			0	0			1				0	
6.6.1	win	2023-06-28	10:48:00	10:56:23	496649	6116006273dc164b00631515	4	1	main_slash	11	main_slash	47	stimuli_distractor_trianglediamonds.svg	stimuli_distractor_trianglediamonds.svg	34	no	0	1	2000	0	0			0	0			1				0	
6.6.1	win	2023-06-28	10:48:00	10:56:23	496649	6116006273dc164b00631515	4	1	main_slash	11	advance_on_keypress_SLASH	48	stimuli_distractor_trianglediamonds.svg	stimuli_distractor_trianglediamonds.svg	34	no	57	0	505	0	0			0	0			1				0	
6.6.1	win	2023-06-28	10:48:00	10:56:24	498424	6116006273dc164b00631515	4	1	main_slash	11	main_slash	49	stimuli_target_diamondrectangles.svg	stimuli_distractor_trianglediamonds.svg	19	yes	53	1	623	0	0			0	0			1				0	
6.6.1	win	2023-06-28	10:48:00	10:56:24	498424	6116006273dc164b00631515	4	1	main_slash	11	advance_on_keypress_SLASH	50	stimuli_target_diamondrectangles.svg	stimuli_distractor_trianglediamonds.svg	19	yes	57	0	423	0	0			0	0			1				0	
6.6.1	win	2023-06-28	10:48:00	10:56:26	500386	6116006273dc164b00631515	4	1	main_slash	11	main_slash	51	stimuli_target_squarediamonds.svg	stimuli_distractor_diamondtriangles.svg	8	yes	53	1	903	0	0			0	0			1				0	
6.6.1	win	2023-06-28	10:48:00	10:56:26	500386	6116006273dc164b00631515	4	1	main_slash	11	advance_on_keypress_SLASH	52	stimuli_target_squarediamonds.svg	stimuli_distractor_diamondtriangles.svg	8	yes	57	0	337	0	0			0	0			1				0	
6.6.1	win	2023-06-28	10:48:00	10:56:28	502249	6116006273dc164b00631515	4	1	main_slash	11	main_slash	53	stimuli_distractor_trianglediamonds.svg	stimuli_target_squarediamonds.svg	12	yes	53	1	880	0	0			0	0			1				0	
6.6.1	win	2023-06-28	10:48:00	10:56:28	502249	6116006273dc164b00631515	4	1	main_slash	11	advance_on_keypress_SLASH	54	stimuli_distractor_trianglediamonds.svg	stimuli_target_squarediamonds.svg	12	yes	57	0	293	0	0			0	0			1				0	
6.6.1	win	2023-06-28	10:48:00	10:56:31	505202	6116006273dc164b00631515	4	1	main_slash	11	main_slash	55	stimuli_distractor_diamondtriangles.svg	stimuli_distractor_trianglediamonds.svg	37	no	0	1	2000	0	0			0	0			1				0	
6.6.1	win	2023-06-28	10:48:00	10:56:31	505202	6116006273dc164b00631515	4	1	main_slash	11	advance_on_keypress_SLASH	56	stimuli_distractor_diamondtriangles.svg	stimuli_distractor_trianglediamonds.svg	37	no	57	0	237	0	0			0	0			1				0	
6.6.1	win	2023-06-28	10:48:00	10:56:33	506911	6116006273dc164b00631515	4	1	main_slash	11	main_slash	57	stimuli_distractor_diamondtriangles.svg	stimuli_target_rectangletriangles.svg	13	yes	53	1	824	0	0			0	0			1				0	
6.6.1	win	2023-06-28	10:48:00	10:56:33	506911	6116006273dc164b00631515	4	1	main_slash	11	advance_on_keypress_SLASH	58	stimuli_distractor_diamondtriangles.svg	stimuli_target_rectangletriangles.svg	13	yes	57	0	289	0	0			0	0			1				0	
6.6.1	win	2023-06-28	10:48:00	10:56:35	508905	6116006273dc164b00631515	4	1	main_slash	11	main_slash	59	stimuli_distractor_diamondtriangles.svg	stimuli_target_trianglerectangles.svg	29	yes	53	1	1068	0	0			0	0			1				0	
6.6.1	win	2023-06-28	10:48:00	10:56:35	508905	6116006273dc164b00631515	4	1	main_slash	11	advance_on_keypress_SLASH	60	stimuli_distractor_diamondtriangles.svg	stimuli_target_trianglerectangles.svg	29	yes	57	0	272	0	0			0	0			1				0	
6.6.1	win	2023-06-28	10:48:00	10:56:37	510724	6116006273dc164b00631515	4	1	main_slash	11	main_slash	61	stimuli_distractor_trianglediamonds.svg	stimuli_target_rectangletriangles.svg	9	yes	53	1	903	0	0			0	0			1				0	
6.6.1	win	2023-06-28	10:48:00	10:56:37	510724	6116006273dc164b00631515	4	1	main_slash	11	advance_on_keypress_SLASH	62	stimuli_distractor_trianglediamonds.svg	stimuli_target_rectangletriangles.svg	9	yes	57	0	306	0	0			0	0			1				0	
6.6.1	win	2023-06-28	10:48:00	10:56:38	512559	6116006273dc164b00631515	4	1	main_slash	11	main_slash	63	stimuli_distractor_trianglediamonds.svg	stimuli_target_rectanglediamonds.svg	10	yes	53	1	886	0	0			0	0			1				0	
6.6.1	win	2023-06-28	10:48:00	10:56:38	512559	6116006273dc164b00631515	4	1	main_slash	11	advance_on_keypress_SLASH	64	stimuli_distractor_trianglediamonds.svg	stimuli_target_rectanglediamonds.svg	10	yes	57	0	301	0	0			0	0			1				0	
6.6.1	win	2023-06-28	10:48:00	10:56:40	514408	6116006273dc164b00631515	4	1	main_slash	11	main_slash	65	stimuli_distractor_trianglediamonds.svg	stimuli_target_trianglesquares.svg	26	yes	53	1	902	0	0			0	0			1				0	
6.6.1	win	2023-06-28	10:48:00	10:56:40	514408	6116006273dc164b00631515	4	1	main_slash	11	advance_on_keypress_SLASH	66	stimuli_distractor_trianglediamonds.svg	stimuli_target_trianglesquares.svg	26	yes	57	0	387	0	0			0	0			1				0	
6.6.1	win	2023-06-28	10:48:00	10:56:43	517440	6116006273dc164b00631515	4	1	main_slash	11	main_slash	67	stimuli_distractor_diamondtriangles.svg	stimuli_distractor_trianglediamonds.svg	38	no	0	1	2000	0	0			0	0			1				0	
6.6.1	win	2023-06-28	10:48:00	10:56:43	517440	6116006273dc164b00631515	4	1	main_slash	11	advance_on_keypress_SLASH	68	stimuli_distractor_diamondtriangles.svg	stimuli_distractor_trianglediamonds.svg	38	no	57	0	238	0	0			0	0			1				0	
6.6.1	win	2023-06-28	10:48:00	10:56:46	520325	6116006273dc164b00631515	4	1	main_slash	11	main_slash	69	stimuli_distractor_trianglediamonds.svg	stimuli_distractor_diamondtriangles.svg	36	no	0	1	2000	0	0			0	0			1				0	
6.6.1	win	2023-06-28	10:48:00	10:56:46	520325	6116006273dc164b00631515	4	1	main_slash	11	advance_on_keypress_SLASH	70	stimuli_distractor_trianglediamonds.svg	stimuli_distractor_diamondtriangles.svg	36	no	57	0	335	0	0			0	0			1				0	
6.6.1	win	2023-06-28	10:48:00	10:56:48	522402	6116006273dc164b00631515	4	1	main_slash	11	main_slash	71	stimuli_distractor_diamondtriangles.svg	stimuli_target_squarediamonds.svg	16	yes	53	1	1093	0	0			0	0			1				0	
6.6.1	win	2023-06-28	10:48:00	10:56:48	522402	6116006273dc164b00631515	4	1	main_slash	11	advance_on_keypress_SLASH	72	stimuli_distractor_diamondtriangles.svg	stimuli_target_squarediamonds.svg	16	yes	57	0	568	0	0			0	0			1				0	
6.6.1	win	2023-06-28	10:48:00	10:56:51	525612	6116006273dc164b00631515	4	1	main_slash	11	main_slash	73	stimuli_distractor_trianglediamonds.svg	stimuli_distractor_diamondtriangles.svg	35	no	0	1	2000	0	0			0	0			1				0	
6.6.1	win	2023-06-28	10:48:00	10:56:51	525612	6116006273dc164b00631515	4	1	main_slash	11	advance_on_keypress_SLASH	74	stimuli_distractor_trianglediamonds.svg	stimuli_distractor_diamondtriangles.svg	35	no	57	0	263	0	0			0	0			1				0	
6.6.1	win	2023-06-28	10:48:00	10:56:54	528529	6116006273dc164b00631515	4	1	main_slash	11	main_slash	75	stimuli_distractor_diamondtriangles.svg	stimuli_distractor_diamondtriangles.svg	40	no	0	1	2000	0	0			0	0			1				0	
6.6.1	win	2023-06-28	10:48:00	10:56:54	528529	6116006273dc164b00631515	4	1	main_slash	11	advance_on_keypress_SLASH	76	stimuli_distractor_diamondtriangles.svg	stimuli_distractor_diamondtriangles.svg	40	no	57	0	233	0	0			0	0			1				0	
6.6.1	win	2023-06-28	10:48:00	10:56:56	530239	6116006273dc164b00631515	4	1	main_slash	11	main_slash	77	stimuli_target_rectanglediamonds.svg	stimuli_distractor_diamondtriangles.svg	6	yes	53	1	825	0	0			0	0			1				0	
6.6.1	win	2023-06-28	10:48:00	10:56:56	530239	6116006273dc164b00631515	4	1	main_slash	11	advance_on_keypress_SLASH	78	stimuli_target_rectanglediamonds.svg	stimuli_distractor_diamondtriangles.svg	6	yes	57	0	321	0	0			0	0			1				0	
6.6.1	win	2023-06-28	10:48:00	10:56:58	532028	6116006273dc164b00631515	4	1	main_slash	11	main_slash	79	stimuli_target_squaretriangles.svg	stimuli_distractor_trianglediamonds.svg	3	yes	53	1	829	0	0			0	0			1				0	
6.6.1	win	2023-06-28	10:48:00	10:56:58	532028	6116006273dc164b00631515	4	1	main_slash	11	advance_on_keypress_SLASH	80	stimuli_target_squaretriangles.svg	stimuli_distractor_trianglediamonds.svg	3	yes	57	0	303	0	0			0	0			1				0	
6.6.1	win	2023-06-28	10:48:00	10:57:00	533831	6116006273dc164b00631515	4	1	main_slash	11	main_slash	81	stimuli_target_diamondrectangles.svg	stimuli_distractor_diamondtriangles.svg	23	yes	53	1	849	0	0			0	0			1				0	
6.6.1	win	2023-06-28	10:48:00	10:57:00	533831	6116006273dc164b00631515	4	1	main_slash	11	advance_on_keypress_SLASH	82	stimuli_target_diamondrectangles.svg	stimuli_distractor_diamondtriangles.svg	23	yes	57	0	289	0	0			0	0			1				0	
6.6.1	win	2023-06-28	10:48:00	10:57:02	535632	6116006273dc164b00631515	4	1	main_slash	11	main_slash	83	stimuli_target_diamondsquares.svg	stimuli_distractor_diamondtriangles.svg	24	yes	53	1	866	0	0			0	0			1				0	
6.6.1	win	2023-06-28	10:48:00	10:57:02	535632	6116006273dc164b00631515	4	1	main_slash	11	advance_on_keypress_SLASH	84	stimuli_target_diamondsquares.svg	stimuli_distractor_diamondtriangles.svg	24	yes	57	0	281	0	0			0	0			1				0	
6.6.1	win	2023-06-28	10:48:00	10:57:03	537406	6116006273dc164b00631515	4	1	main_slash	11	main_slash	85	stimuli_target_diamondrectangles.svg	stimuli_distractor_trianglediamonds.svg	19	yes	53	1	839	0	0			0	0			1				0	
6.6.1	win	2023-06-28	10:48:00	10:57:03	537406	6116006273dc164b00631515	4	1	main_slash	11	advance_on_keypress_SLASH	86	stimuli_target_diamondrectangles.svg	stimuli_distractor_trianglediamonds.svg	19	yes	57	0	287	0	0			0	0			1				0	
6.6.1	win	2023-06-28	10:48:00	10:57:06	539670	6116006273dc164b00631515	4	1	main_slash	11	main_slash	87	stimuli_distractor_diamondtriangles.svg	stimuli_target_rectangletriangles.svg	13	yes	53	1	1335	0	0			0	0			1				0	
6.6.1	win	2023-06-28	10:48:00	10:57:06	539670	6116006273dc164b00631515	4	1	main_slash	11	advance_on_keypress_SLASH	88	stimuli_distractor_diamondtriangles.svg	stimuli_target_rectangletriangles.svg	13	yes	57	0	319	0	0			0	0			1				0	
6.6.1	win	2023-06-28	10:48:00	10:57:07	541475	6116006273dc164b00631515	4	1	main_slash	11	main_slash	89	stimuli_distractor_diamondtriangles.svg	stimuli_target_diamondsquares.svg	32	yes	53	1	841	0	0			0	0			1				0	
6.6.1	win	2023-06-28	10:48:00	10:57:07	541475	6116006273dc164b00631515	4	1	main_slash	11	advance_on_keypress_SLASH	90	stimuli_distractor_diamondtriangles.svg	stimuli_target_diamondsquares.svg	32	yes	57	0	242	0	0			0	0			1				0	
6.6.1	win	2023-06-28	10:48:00	10:57:09	543153	6116006273dc164b00631515	4	1	main_slash	11	main_slash	91	stimuli_distractor_trianglediamonds.svg	stimuli_target_trianglesquares.svg	26	yes	53	1	785	0	0			0	0			1				0	
6.6.1	win	2023-06-28	10:48:00	10:57:09	543153	6116006273dc164b00631515	4	1	main_slash	11	advance_on_keypress_SLASH	92	stimuli_distractor_trianglediamonds.svg	stimuli_target_trianglesquares.svg	26	yes	57	0	213	0	0			0	0			1				0	
6.6.1	win	2023-06-28	10:48:00	10:57:11	544828	6116006273dc164b00631515	4	1	main_slash	11	main_slash	93	stimuli_target_trianglerectangles.svg	stimuli_distractor_trianglediamonds.svg	17	yes	53	1	724	0	0			0	0			1				0	
6.6.1	win	2023-06-28	10:48:00	10:57:11	544828	6116006273dc164b00631515	4	1	main_slash	11	advance_on_keypress_SLASH	94	stimuli_target_trianglerectangles.svg	stimuli_distractor_trianglediamonds.svg	17	yes	57	0	286	0	0			0	0			1				0	
6.6.1	win	2023-06-28	10:48:00	10:57:12	546532	6116006273dc164b00631515	4	1	main_slash	11	main_slash	95	stimuli_target_trianglerectangles.svg	stimuli_distractor_diamondtriangles.svg	21	yes	53	1	778	0	0			0	0			1				0	
6.6.1	win	2023-06-28	10:48:00	10:57:12	546532	6116006273dc164b00631515	4	1	main_slash	11	advance_on_keypress_SLASH	96	stimuli_target_trianglerectangles.svg	stimuli_distractor_diamondtriangles.svg	21	yes	57	0	275	0	0			0	0			1				0	
6.6.1	win	2023-06-28	10:48:00	10:57:14	548306	6116006273dc164b00631515	4	1	main_slash	11	main_slash	97	stimuli_distractor_diamondtriangles.svg	stimuli_distractor_trianglediamonds.svg	38	no	53	0	851	0	0			0	0			1				0	
6.6.1	win	2023-06-28	10:48:00	10:57:14	548306	6116006273dc164b00631515	4	1	main_slash	11	advance_on_keypress_SLASH	98	stimuli_distractor_diamondtriangles.svg	stimuli_distractor_trianglediamonds.svg	38	no	57	0	253	0	0			0	0			1				0	
6.6.1	win	2023-06-28	10:48:00	10:57:16	550178	6116006273dc164b00631515	4	1	main_slash	11	main_slash	99	stimuli_target_diamondsquares.svg	stimuli_distractor_trianglediamonds.svg	20	yes	53	1	971	0	0			0	0			1				0	
6.6.1	win	2023-06-28	10:48:00	10:57:16	550178	6116006273dc164b00631515	4	1	main_slash	11	advance_on_keypress_SLASH	100	stimuli_target_diamondsquares.svg	stimuli_distractor_trianglediamonds.svg	20	yes	57	0	276	0	0			0	0			1				0	
6.6.1	win	2023-06-28	10:48:00	10:57:18	552066	6116006273dc164b00631515	4	1	main_slash	11	main_slash	101	stimuli_target_squarediamonds.svg	stimuli_distractor_trianglediamonds.svg	4	yes	53	1	959	0	0			0	0			1				0	
6.6.1	win	2023-06-28	10:48:00	10:57:18	552066	6116006273dc164b00631515	4	1	main_slash	11	advance_on_keypress_SLASH	102	stimuli_target_squarediamonds.svg	stimuli_distractor_trianglediamonds.svg	4	yes	57	0	567	0	0			0	0			1				0	
6.6.1	win	2023-06-28	10:48:00	10:57:20	554163	6116006273dc164b00631515	4	1	main_slash	11	main_slash	103	stimuli_distractor_diamondtriangles.svg	stimuli_distractor_trianglediamonds.svg	37	no	53	0	888	0	0			0	0			1				0	
6.6.1	win	2023-06-28	10:48:00	10:57:20	554163	6116006273dc164b00631515	4	1	main_slash	11	advance_on_keypress_SLASH	104	stimuli_distractor_diamondtriangles.svg	stimuli_distractor_trianglediamonds.svg	37	no	57	0	252	0	0			0	0			1				0	
6.6.1	win	2023-06-28	10:48:00	10:57:23	557058	6116006273dc164b00631515	4	1	main_slash	11	main_slash	105	stimuli_distractor_diamondtriangles.svg	stimuli_distractor_diamondtriangles.svg	39	no	0	1	2000	0	0			0	0			1				0	
6.6.1	win	2023-06-28	10:48:00	10:57:23	557058	6116006273dc164b00631515	4	1	main_slash	11	advance_on_keypress_SLASH	106	stimuli_distractor_diamondtriangles.svg	stimuli_distractor_diamondtriangles.svg	39	no	57	0	228	0	0			0	0			1				0	
6.6.1	win	2023-06-28	10:48:00	10:57:25	558847	6116006273dc164b00631515	4	1	main_slash	11	main_slash	107	stimuli_distractor_trianglediamonds.svg	stimuli_target_squarediamonds.svg	12	yes	53	1	904	0	0			0	0			1				0	
6.6.1	win	2023-06-28	10:48:00	10:57:25	558847	6116006273dc164b00631515	4	1	main_slash	11	advance_on_keypress_SLASH	108	stimuli_distractor_trianglediamonds.svg	stimuli_target_squarediamonds.svg	12	yes	57	0	240	0	0			0	0			1				0	
6.6.1	win	2023-06-28	10:48:00	10:57:26	560563	6116006273dc164b00631515	4	1	main_slash	11	main_slash	109	stimuli_distractor_trianglediamonds.svg	stimuli_target_rectangletriangles.svg	9	yes	53	1	836	0	0			0	0			1				0	
6.6.1	win	2023-06-28	10:48:00	10:57:26	560563	6116006273dc164b00631515	4	1	main_slash	11	advance_on_keypress_SLASH	110	stimuli_distractor_trianglediamonds.svg	stimuli_target_rectangletriangles.svg	9	yes	57	0	217	0	0			0	0			1				0	
6.6.1	win	2023-06-28	10:48:00	10:57:28	562272	6116006273dc164b00631515	4	1	main_slash	11	main_slash	111	stimuli_distractor_trianglediamonds.svg	stimuli_target_diamondrectangles.svg	27	yes	53	1	845	0	0			0	0			1				0	
6.6.1	win	2023-06-28	10:48:00	10:57:28	562272	6116006273dc164b00631515	4	1	main_slash	11	advance_on_keypress_SLASH	112	stimuli_distractor_trianglediamonds.svg	stimuli_target_diamondrectangles.svg	27	yes	57	0	248	0	0			0	0			1				0	
6.6.1	win	2023-06-28	10:48:00	10:57:30	564153	6116006273dc164b00631515	4	1	main_slash	11	main_slash	113	stimuli_target_rectangletriangles.svg	stimuli_distractor_trianglediamonds.svg	1	yes	53	1	975	0	0			0	0			1				0	
6.6.1	win	2023-06-28	10:48:00	10:57:30	564153	6116006273dc164b00631515	4	1	main_slash	11	advance_on_keypress_SLASH	114	stimuli_target_rectangletriangles.svg	stimuli_distractor_trianglediamonds.svg	1	yes	57	0	272	0	0			0	0			1				0	
6.6.1	win	2023-06-28	10:48:00	10:57:33	567063	6116006273dc164b00631515	4	1	main_slash	11	main_slash	115	stimuli_distractor_trianglediamonds.svg	stimuli_distractor_diamondtriangles.svg	36	no	0	1	2000	0	0			0	0			1				0	
6.6.1	win	2023-06-28	10:48:00	10:57:33	567063	6116006273dc164b00631515	4	1	main_slash	11	advance_on_keypress_SLASH	116	stimuli_distractor_trianglediamonds.svg	stimuli_distractor_diamondtriangles.svg	36	no	57	0	302	0	0			0	0			1				0	
6.6.1	win	2023-06-28	10:48:00	10:57:35	568805	6116006273dc164b00631515	4	1	main_slash	11	main_slash	117	stimuli_distractor_diamondtriangles.svg	stimuli_target_trianglesquares.svg	30	yes	53	1	791	0	0			0	0			1				0	
6.6.1	win	2023-06-28	10:48:00	10:57:35	568805	6116006273dc164b00631515	4	1	main_slash	11	advance_on_keypress_SLASH	118	stimuli_distractor_diamondtriangles.svg	stimuli_target_trianglesquares.svg	30	yes	57	0	9281	0	0			0	0			1				0	
6.6.1	win	2023-06-28	10:48:00	10:57:47	580735	6116006273dc164b00631515	4	1	main_slash	11	main_slash	119	stimuli_distractor_trianglediamonds.svg	stimuli_distractor_diamondtriangles.svg	35	no	0	1	2000	0	0			0	0			1				0	
6.6.1	win	2023-06-28	10:48:00	10:57:47	580735	6116006273dc164b00631515	4	1	main_slash	11	advance_on_keypress_SLASH	120	stimuli_distractor_trianglediamonds.svg	stimuli_distractor_diamondtriangles.svg	35	no	57	0	230	0	0			0	0			1				0	
6.6.1	win	2023-06-28	10:48:00	10:57:48	582353	6116006273dc164b00631515	4	1	main_slash	11	main_slash	121	stimuli_target_squaretriangles.svg	stimuli_distractor_diamondtriangles.svg	7	yes	53	1	732	0	0			0	0			1				0	
6.6.1	win	2023-06-28	10:48:00	10:57:48	582353	6116006273dc164b00631515	4	1	main_slash	11	advance_on_keypress_SLASH	122	stimuli_target_squaretriangles.svg	stimuli_distractor_diamondtriangles.svg	7	yes	57	0	259	0	0			0	0			1				0	
6.6.1	win	2023-06-28	10:48:00	10:57:50	583973	6116006273dc164b00631515	4	1	main_slash	11	main_slash	123	stimuli_target_rectanglediamonds.svg	stimuli_distractor_trianglediamonds.svg	2	yes	53	1	702	0	0			0	0			1				0	
6.6.1	win	2023-06-28	10:48:00	10:57:50	583973	6116006273dc164b00631515	4	1	main_slash	11	advance_on_keypress_SLASH	124	stimuli_target_rectanglediamonds.svg	stimuli_distractor_trianglediamonds.svg	2	yes	57	0	303	0	0			0	0			1				0	
6.6.1	win	2023-06-28	10:48:00	10:57:51	585605	6116006273dc164b00631515	4	1	main_slash	11	main_slash	125	stimuli_target_squarediamonds.svg	stimuli_distractor_diamondtriangles.svg	8	yes	53	1	683	0	0			0	0			1				0	
6.6.1	win	2023-06-28	10:48:00	10:57:51	585605	6116006273dc164b00631515	4	1	main_slash	11	advance_on_keypress_SLASH	126	stimuli_target_squarediamonds.svg	stimuli_distractor_diamondtriangles.svg	8	yes	57	0	363	0	0			0	0			1				0	
6.6.1	win	2023-06-28	10:48:00	10:57:53	587462	6116006273dc164b00631515	4	1	main_slash	11	main_slash	127	stimuli_distractor_diamondtriangles.svg	stimuli_target_rectanglediamonds.svg	14	yes	53	1	823	0	0			0	0			1				0	
6.6.1	win	2023-06-28	10:48:00	10:57:53	587462	6116006273dc164b00631515	4	1	main_slash	11	advance_on_keypress_SLASH	128	stimuli_distractor_diamondtriangles.svg	stimuli_target_rectanglediamonds.svg	14	yes	57	0	383	0	0			0	0			1				0	
6.6.1	win	2023-06-28	10:48:00	10:57:55	589229	6116006273dc164b00631515	4	1	main_slash	11	main_slash	129	stimuli_distractor_trianglediamonds.svg	stimuli_target_trianglerectangles.svg	25	yes	53	1	739	0	0			0	0			1				0	
6.6.1	win	2023-06-28	10:48:00	10:57:55	589229	6116006273dc164b00631515	4	1	main_slash	11	advance_on_keypress_SLASH	130	stimuli_distractor_trianglediamonds.svg	stimuli_target_trianglerectangles.svg	25	yes	57	0	378	0	0			0	0			1				0	
6.6.1	win	2023-06-28	10:48:00	10:57:57	591053	6116006273dc164b00631515	4	1	main_slash	11	main_slash	131	stimuli_target_rectanglediamonds.svg	stimuli_distractor_diamondtriangles.svg	6	yes	53	1	796	0	0			0	0			1				0	
6.6.1	win	2023-06-28	10:48:00	10:57:57	591053	6116006273dc164b00631515	4	1	main_slash	11	advance_on_keypress_SLASH	132	stimuli_target_rectanglediamonds.svg	stimuli_distractor_diamondtriangles.svg	6	yes	57	0	290	0	0			0	0			1				0	
6.6.1	win	2023-06-28	10:48:00	10:57:59	592760	6116006273dc164b00631515	4	1	main_slash	11	main_slash	133	stimuli_distractor_trianglediamonds.svg	stimuli_target_rectanglediamonds.svg	10	yes	53	1	767	0	0			0	0			1				0	
6.6.1	win	2023-06-28	10:48:00	10:57:59	592760	6116006273dc164b00631515	4	1	main_slash	11	advance_on_keypress_SLASH	134	stimuli_distractor_trianglediamonds.svg	stimuli_target_rectanglediamonds.svg	10	yes	57	0	320	0	0			0	0			1				0	
6.6.1	win	2023-06-28	10:48:00	10:58:02	595726	6116006273dc164b00631515	4	1	main_slash	11	main_slash	135	stimuli_distractor_trianglediamonds.svg	stimuli_distractor_trianglediamonds.svg	34	no	0	1	2000	0	0			0	0			1				0	
6.6.1	win	2023-06-28	10:48:00	10:58:02	595726	6116006273dc164b00631515	4	1	main_slash	11	advance_on_keypress_SLASH	136	stimuli_distractor_trianglediamonds.svg	stimuli_distractor_trianglediamonds.svg	34	no	57	0	46	0	0			0	0			1				0	
6.6.1	win	2023-06-28	10:48:00	10:58:03	596998	6116006273dc164b00631515	4	1	main_slash	11	main_slash	137	stimuli_target_squaretriangles.svg	stimuli_distractor_trianglediamonds.svg	3	yes	53	1	571	0	0			0	0			1				0	
6.6.1	win	2023-06-28	10:48:00	10:58:03	596998	6116006273dc164b00631515	4	1	main_slash	11	advance_on_keypress_SLASH	138	stimuli_target_squaretriangles.svg	stimuli_distractor_trianglediamonds.svg	3	yes	57	0	390	0	0			0	0			1				0	
6.6.1	win	2023-06-28	10:48:00	10:58:05	598911	6116006273dc164b00631515	4	1	main_slash	11	main_slash	139	stimuli_target_trianglesquares.svg	stimuli_distractor_diamondtriangles.svg	22	yes	53	1	883	0	0			0	0			1				0	
6.6.1	win	2023-06-28	10:48:00	10:58:05	598911	6116006273dc164b00631515	4	1	main_slash	11	advance_on_keypress_SLASH	140	stimuli_target_trianglesquares.svg	stimuli_distractor_diamondtriangles.svg	22	yes	57	0	333	0	0			0	0			1				0	
6.6.1	win	2023-06-28	10:48:00	10:58:07	600724	6116006273dc164b00631515	4	1	main_slash	11	main_slash	141	stimuli_distractor_diamondtriangles.svg	stimuli_target_trianglerectangles.svg	29	yes	53	1	830	0	0			0	0			1				0	
6.6.1	win	2023-06-28	10:48:00	10:58:07	600724	6116006273dc164b00631515	4	1	main_slash	11	advance_on_keypress_SLASH	142	stimuli_distractor_diamondtriangles.svg	stimuli_target_trianglerectangles.svg	29	yes	57	0	295	0	0			0	0			1				0	
6.6.1	win	2023-06-28	10:48:00	10:58:08	602453	6116006273dc164b00631515	4	1	main_slash	11	main_slash	143	stimuli_target_trianglesquares.svg	stimuli_distractor_trianglediamonds.svg	18	yes	53	1	774	0	0			0	0			1				0	
6.6.1	win	2023-06-28	10:48:00	10:58:08	602453	6116006273dc164b00631515	4	1	main_slash	11	advance_on_keypress_SLASH	144	stimuli_target_trianglesquares.svg	stimuli_distractor_trianglediamonds.svg	18	yes	57	0	311	0	0			0	0			1				0	
6.6.1	win	2023-06-28	10:48:00	10:58:10	604574	6116006273dc164b00631515	4	1	main_slash	11	main_slash	145	stimuli_distractor_trianglediamonds.svg	stimuli_target_squaretriangles.svg	11	yes	53	1	1160	0	0			0	0			1				0	
6.6.1	win	2023-06-28	10:48:00	10:58:10	604574	6116006273dc164b00631515	4	1	main_slash	11	advance_on_keypress_SLASH	146	stimuli_distractor_trianglediamonds.svg	stimuli_target_squaretriangles.svg	11	yes	57	0	285	0	0			0	0			1				0	
6.6.1	win	2023-06-28	10:48:00	10:58:13	607514	6116006273dc164b00631515	4	1	main_slash	11	main_slash	147	stimuli_distractor_trianglediamonds.svg	stimuli_distractor_trianglediamonds.svg	33	no	0	1	2000	0	0			0	0			1				0	
6.6.1	win	2023-06-28	10:48:00	10:58:13	607514	6116006273dc164b00631515	4	1	main_slash	11	advance_on_keypress_SLASH	148	stimuli_distractor_trianglediamonds.svg	stimuli_distractor_trianglediamonds.svg	33	no	57	0	246	0	0			0	0			1				0	
6.6.1	win	2023-06-28	10:48:00	10:58:15	609238	6116006273dc164b00631515	4	1	main_slash	11	main_slash	149	stimuli_distractor_trianglediamonds.svg	stimuli_target_diamondsquares.svg	28	yes	53	1	822	0	0			0	0			1				0	
6.6.1	win	2023-06-28	10:48:00	10:58:15	609238	6116006273dc164b00631515	4	1	main_slash	11	advance_on_keypress_SLASH	150	stimuli_distractor_trianglediamonds.svg	stimuli_target_diamondsquares.svg	28	yes	57	0	352	0	0			0	0			1				0	
6.6.1	win	2023-06-28	10:48:00	10:58:17	611119	6116006273dc164b00631515	4	1	main_slash	11	main_slash	151	stimuli_distractor_diamondtriangles.svg	stimuli_target_squarediamonds.svg	16	yes	53	1	886	0	0			0	0			1				0	
6.6.1	win	2023-06-28	10:48:00	10:58:17	611119	6116006273dc164b00631515	4	1	main_slash	11	advance_on_keypress_SLASH	152	stimuli_distractor_diamondtriangles.svg	stimuli_target_squarediamonds.svg	16	yes	57	0	273	0	0			0	0			1				0	
6.6.1	win	2023-06-28	10:48:00	10:58:19	612935	6116006273dc164b00631515	4	1	main_slash	11	main_slash	153	stimuli_distractor_diamondtriangles.svg	stimuli_target_diamondrectangles.svg	31	yes	53	1	901	0	0			0	0			1				0	
6.6.1	win	2023-06-28	10:48:00	10:58:19	612935	6116006273dc164b00631515	4	1	main_slash	11	advance_on_keypress_SLASH	154	stimuli_distractor_diamondtriangles.svg	stimuli_target_diamondrectangles.svg	31	yes	57	0	276	0	0			0	0			1				0	
6.6.1	win	2023-06-28	10:48:00	10:58:21	615118	6116006273dc164b00631515	4	1	main_slash	11	main_slash	155	stimuli_target_rectangletriangles.svg	stimuli_distractor_diamondtriangles.svg	5	yes	53	1	1250	0	0			0	0			1				0	
6.6.1	win	2023-06-28	10:48:00	10:58:21	615118	6116006273dc164b00631515	4	1	main_slash	11	advance_on_keypress_SLASH	156	stimuli_target_rectangletriangles.svg	stimuli_distractor_diamondtriangles.svg	5	yes	57	0	342	0	0			0	0			1				0	
6.6.1	win	2023-06-28	10:48:00	10:58:24	618103	6116006273dc164b00631515	4	1	main_slash	11	main_slash	157	stimuli_distractor_diamondtriangles.svg	stimuli_distractor_diamondtriangles.svg	40	no	0	1	2000	0	0			0	0			1				0	
6.6.1	win	2023-06-28	10:48:00	10:58:24	618103	6116006273dc164b00631515	4	1	main_slash	11	advance_on_keypress_SLASH	158	stimuli_distractor_diamondtriangles.svg	stimuli_distractor_diamondtriangles.svg	40	no	57	0	246	0	0			0	0			1				0	
6.6.1	win	2023-06-28	10:48:00	10:58:26	619802	6116006273dc164b00631515	4	1	main_slash	11	main_slash	159	stimuli_distractor_diamondtriangles.svg	stimuli_target_squaretriangles.svg	15	yes	53	1	798	0	0			0	0			1				0	
6.6.1	win	2023-06-28	10:48:00	10:58:26	619802	6116006273dc164b00631515	4	1	main_slash	11	advance_on_keypress_SLASH	160	stimuli_distractor_diamondtriangles.svg	stimuli_target_squaretriangles.svg	15	yes	57	0	331	0	0			0	0			1				0	
6.6.1	win	2023-06-28	10:48:00	10:58:26	619802	6116006273dc164b00631515	4	1	headphonecheck_calibration	14	headphonecheck_calibrationIntro	1	stimuli_distractor_diamondtriangles.svg	stimuli_target_squaretriangles.svg	15	yes	calibrationButton	0	2233	0	0			0	0			1				0	
6.6.1	win	2023-06-28	10:48:00	10:58:26	619802	6116006273dc164b00631515	4	1	headphonecheck_testphase	15	test_collectResponse	3	stimuli_distractor_diamondtriangles.svg	stimuli_target_squaretriangles.svg	15	yes	first	1	45925	1	4	antiphase_hc_sio.wav	1	0	0			1				0	
6.6.1	win	2023-06-28	10:48:00	10:58:26	619802	6116006273dc164b00631515	4	1	headphonecheck_testphase	15	test_collectResponse	6	stimuli_distractor_diamondtriangles.svg	stimuli_target_squaretriangles.svg	15	yes	first	0	582	2	1	antiphase_hc_iso.wav	2	0	0			1				0	
6.6.1	win	2023-06-28	10:48:00	10:58:26	619802	6116006273dc164b00631515	4	1	headphonecheck_testphase	15	test_collectResponse	9	stimuli_distractor_diamondtriangles.svg	stimuli_target_squaretriangles.svg	15	yes	third	1	216	3	2	antiphase_hc_ios.wav	3	0	0			1				0	
6.6.1	win	2023-06-28	10:48:00	10:58:26	619802	6116006273dc164b00631515	4	1	headphonecheck_testphase	15	test_collectResponse	12	stimuli_distractor_diamondtriangles.svg	stimuli_target_squaretriangles.svg	15	yes	third	1	146	4	6	antiphase_hc_ois.wav	3	0	0			1				0	
6.6.1	win	2023-06-28	10:48:00	10:58:26	619802	6116006273dc164b00631515	4	1	headphonecheck_testphase	15	test_collectResponse	15	stimuli_distractor_diamondtriangles.svg	stimuli_target_squaretriangles.svg	15	yes	second	1	160	5	5	antiphase_hc_osi.wav	2	0	0			1				0	
6.6.1	win	2023-06-28	10:48:00	10:58:26	619802	6116006273dc164b00631515	4	1	headphonecheck_testphase	15	test_collectResponse	18	stimuli_distractor_diamondtriangles.svg	stimuli_target_squaretriangles.svg	15	yes	third	0	249	6	3	antiphase_hc_soi.wav	1	0	0			1				0	
6.6.1	win	2023-06-28	10:48:00	10:58:26	619802	6116006273dc164b00631515	4	1	stereocheck_calibration	17	stereocheck_calibrationIntro	1	stimuli_distractor_diamondtriangles.svg	stimuli_target_squaretriangles.svg	15	yes	stereocheck_calibrationButton	0	1657	6	3	antiphase_hc_soi.wav	1	0	0			1				0	
6.6.1	win	2023-06-28	10:48:00	10:58:26	619802	6116006273dc164b00631515	4	1	stereocheck_testphase	18	stereocheck_test_collectResponse	3	stimuli_distractor_diamondtriangles.svg	stimuli_target_squaretriangles.svg	15	yes	stereocheck_left	1	1089	6	3	antiphase_hc_soi.wav	1	1	2	noise_calib_stim_LEFT.wav	1	1				0	
6.6.1	win	2023-06-28	10:48:00	10:58:26	619802	6116006273dc164b00631515	4	1	stereocheck_testphase	18	stereocheck_test_collectResponse	6	stimuli_distractor_diamondtriangles.svg	stimuli_target_squaretriangles.svg	15	yes	stereocheck_right	1	239	6	3	antiphase_hc_soi.wav	1	2	5	noise_calib_stim_RIGHT.wav	2	1				0	
6.6.1	win	2023-06-28	10:48:00	10:58:26	619802	6116006273dc164b00631515	4	1	stereocheck_testphase	18	stereocheck_test_collectResponse	9	stimuli_distractor_diamondtriangles.svg	stimuli_target_squaretriangles.svg	15	yes	stereocheck_left	1	220	6	3	antiphase_hc_soi.wav	1	3	1	noise_calib_stim_LEFT.wav	1	1				0	
6.6.1	win	2023-06-28	10:48:00	10:58:26	619802	6116006273dc164b00631515	4	1	stereocheck_testphase	18	stereocheck_test_collectResponse	12	stimuli_distractor_diamondtriangles.svg	stimuli_target_squaretriangles.svg	15	yes	stereocheck_right	1	231	6	3	antiphase_hc_soi.wav	1	4	4	noise_calib_stim_RIGHT.wav	2	1				0	
6.6.1	win	2023-06-28	10:48:00	10:58:26	619802	6116006273dc164b00631515	4	1	stereocheck_testphase	18	stereocheck_test_collectResponse	15	stimuli_distractor_diamondtriangles.svg	stimuli_target_squaretriangles.svg	15	yes	stereocheck_left	1	197	6	3	antiphase_hc_soi.wav	1	5	3	noise_calib_stim_LEFT.wav	1	1				0	
6.6.1	win	2023-06-28	10:48:00	10:58:26	619802	6116006273dc164b00631515	4	1	stereocheck_testphase	18	stereocheck_test_collectResponse	18	stimuli_distractor_diamondtriangles.svg	stimuli_target_squaretriangles.svg	15	yes	stereocheck_right	1	4437	6	3	antiphase_hc_soi.wav	1	6	6	noise_calib_stim_RIGHT.wav	2	1				0	
6.6.1	win	2023-06-28	10:48:00	10:58:26	619802	6116006273dc164b00631515	4	1	DL_practice	21	DL_practice	2	stimuli_distractor_diamondtriangles.svg	stimuli_target_squaretriangles.svg	15	yes	ba	1	1685	6	3	antiphase_hc_soi.wav	1	6	6	noise_calib_stim_RIGHT.wav	2	1	blb_dichoticlistening_ba-ba.mp3	ba	ba	0	left
6.6.1	win	2023-06-28	10:48:00	10:58:26	619802	6116006273dc164b00631515	4	1	DL_practice	21	DL_practice	3	stimuli_distractor_diamondtriangles.svg	stimuli_target_squaretriangles.svg	15	yes	ga	1	1426	6	3	antiphase_hc_soi.wav	1	6	6	noise_calib_stim_RIGHT.wav	2	15	blb_dichoticlistening_ga-ga.mp3	ga	ga	0	left
6.6.1	win	2023-06-28	10:48:00	10:58:26	619802	6116006273dc164b00631515	4	1	DL_practice	21	DL_practice	4	stimuli_distractor_diamondtriangles.svg	stimuli_target_squaretriangles.svg	15	yes	ka	0	2602	6	3	antiphase_hc_soi.wav	1	6	6	noise_calib_stim_RIGHT.wav	2	18	blb_dichoticlistening_ga-ta.mp3	ga	ta	1	other
6.6.1	win	2023-06-28	10:48:00	10:58:26	619802	6116006273dc164b00631515	4	1	DL_practice	21	DL_practice	5	stimuli_distractor_diamondtriangles.svg	stimuli_target_squaretriangles.svg	15	yes	ba	1	1512	6	3	antiphase_hc_soi.wav	1	6	6	noise_calib_stim_RIGHT.wav	2	7	blb_dichoticlistening_da-ba.mp3	da	ba	1	right
6.6.1	win	2023-06-28	10:48:00	10:58:26	619802	6116006273dc164b00631515	4	1	DL_practice	21	DL_practice	6	stimuli_distractor_diamondtriangles.svg	stimuli_target_squaretriangles.svg	15	yes	da	1	924	6	3	antiphase_hc_soi.wav	1	6	6	noise_calib_stim_RIGHT.wav	2	8	blb_dichoticlistening_da-da.mp3	da	da	0	left
6.6.1	win	2023-06-28	10:48:00	10:58:26	619802	6116006273dc164b00631515	4	1	DL_practice	21	DL_practice	7	stimuli_distractor_diamondtriangles.svg	stimuli_target_squaretriangles.svg	15	yes	pa	1	1126	6	3	antiphase_hc_soi.wav	1	6	6	noise_calib_stim_RIGHT.wav	2	29	blb_dichoticlistening_pa-pa.mp3	pa	pa	0	left
6.6.1	win	2023-06-28	10:48:00	10:58:26	619802	6116006273dc164b00631515	4	1	DL_practice	21	DL_practice	8	stimuli_distractor_diamondtriangles.svg	stimuli_target_squaretriangles.svg	15	yes	ta	1	1037	6	3	antiphase_hc_soi.wav	1	6	6	noise_calib_stim_RIGHT.wav	2	36	blb_dichoticlistening_ta-ta.mp3	ta	ta	0	left
6.6.1	win	2023-06-28	10:48:00	10:58:26	619802	6116006273dc164b00631515	4	1	DL_practice	21	DL_practice	9	stimuli_distractor_diamondtriangles.svg	stimuli_target_squaretriangles.svg	15	yes	ka	1	1142	6	3	antiphase_hc_soi.wav	1	6	6	noise_calib_stim_RIGHT.wav	2	22	blb_dichoticlistening_ka-ka.mp3	ka	ka	0	left
6.6.1	win	2023-06-28	10:48:00	10:58:26	619802	6116006273dc164b00631515	4	1	DL_practice	21	DL_practice	10	stimuli_distractor_diamondtriangles.svg	stimuli_target_squaretriangles.svg	15	yes	ka	1	929	6	3	antiphase_hc_soi.wav	1	6	6	noise_calib_stim_RIGHT.wav	2	23	blb_dichoticlistening_ka-pa.mp3	ka	pa	1	left
6.6.1	win	2023-06-28	10:48:00	10:58:26	619802	6116006273dc164b00631515	4	1	DL_test	23	DL_test	1	stimuli_distractor_diamondtriangles.svg	stimuli_target_squaretriangles.svg	15	yes	ga	1	989	6	3	antiphase_hc_soi.wav	1	6	6	noise_calib_stim_RIGHT.wav	2	9	blb_dichoticlistening_da-ga.mp3	da	ga	1	right
6.6.1	win	2023-06-28	10:48:00	10:58:26	619802	6116006273dc164b00631515	4	1	DL_test	23	DL_test	2	stimuli_distractor_diamondtriangles.svg	stimuli_target_squaretriangles.svg	15	yes	ka	1	799	6	3	antiphase_hc_soi.wav	1	6	6	noise_calib_stim_RIGHT.wav	2	24	blb_dichoticlistening_ka-ta.mp3	ka	ta	1	left
6.6.1	win	2023-06-28	10:48:00	10:58:26	619802	6116006273dc164b00631515	4	1	DL_test	23	DL_test	3	stimuli_distractor_diamondtriangles.svg	stimuli_target_squaretriangles.svg	15	yes	pa	1	1043	6	3	antiphase_hc_soi.wav	1	6	6	noise_calib_stim_RIGHT.wav	2	11	blb_dichoticlistening_da-pa.mp3	da	pa	1	right
6.6.1	win	2023-06-28	10:48:00	10:58:26	619802	6116006273dc164b00631515	4	1	DL_test	23	DL_test	4	stimuli_distractor_diamondtriangles.svg	stimuli_target_squaretriangles.svg	15	yes	ba	1	1699	6	3	antiphase_hc_soi.wav	1	6	6	noise_calib_stim_RIGHT.wav	2	2	blb_dichoticlistening_ba-da.mp3	ba	da	1	left
6.6.1	win	2023-06-28	10:48:00	10:58:26	619802	6116006273dc164b00631515	4	1	DL_test	23	DL_test	5	stimuli_distractor_diamondtriangles.svg	stimuli_target_squaretriangles.svg	15	yes	pa	0	1620	6	3	antiphase_hc_soi.wav	1	6	6	noise_calib_stim_RIGHT.wav	2	10	blb_dichoticlistening_da-ka.mp3	da	ka	1	other
6.6.1	win	2023-06-28	10:48:00	10:58:26	619802	6116006273dc164b00631515	4	1	DL_test	23	DL_test	6	stimuli_distractor_diamondtriangles.svg	stimuli_target_squaretriangles.svg	15	yes	ka	0	949	6	3	antiphase_hc_soi.wav	1	6	6	noise_calib_stim_RIGHT.wav	2	18	blb_dichoticlistening_ga-ta.mp3	ga	ta	1	other
6.6.1	win	2023-06-28	10:48:00	10:58:26	619802	6116006273dc164b00631515	4	1	DL_test	23	DL_test	7	stimuli_distractor_diamondtriangles.svg	stimuli_target_squaretriangles.svg	15	yes	da	1	837	6	3	antiphase_hc_soi.wav	1	6	6	noise_calib_stim_RIGHT.wav	2	8	blb_dichoticlistening_da-da.mp3	da	da	0	left
6.6.1	win	2023-06-28	10:48:00	10:58:26	619802	6116006273dc164b00631515	4	1	DL_test	23	DL_test	8	stimuli_distractor_diamondtriangles.svg	stimuli_target_squaretriangles.svg	15	yes	ba	1	890	6	3	antiphase_hc_soi.wav	1	6	6	noise_calib_stim_RIGHT.wav	2	1	blb_dichoticlistening_ba-ba.mp3	ba	ba	0	left
6.6.1	win	2023-06-28	10:48:00	10:58:26	619802	6116006273dc164b00631515	4	1	DL_test	23	DL_test	9	stimuli_distractor_diamondtriangles.svg	stimuli_target_squaretriangles.svg	15	yes	ba	1	1023	6	3	antiphase_hc_soi.wav	1	6	6	noise_calib_stim_RIGHT.wav	2	3	blb_dichoticlistening_ba-ga.mp3	ba	ga	1	left
6.6.1	win	2023-06-28	10:48:00	10:58:26	619802	6116006273dc164b00631515	4	1	DL_test	23	DL_test	10	stimuli_distractor_diamondtriangles.svg	stimuli_target_squaretriangles.svg	15	yes	ka	1	1229	6	3	antiphase_hc_soi.wav	1	6	6	noise_calib_stim_RIGHT.wav	2	28	blb_dichoticlistening_pa-ka.mp3	pa	ka	1	right
6.6.1	win	2023-06-28	10:48:00	10:58:26	619802	6116006273dc164b00631515	4	1	DL_test	23	DL_test	11	stimuli_distractor_diamondtriangles.svg	stimuli_target_squaretriangles.svg	15	yes	pa	1	1249	6	3	antiphase_hc_soi.wav	1	6	6	noise_calib_stim_RIGHT.wav	2	29	blb_dichoticlistening_pa-pa.mp3	pa	pa	0	left
6.6.1	win	2023-06-28	10:48:00	10:58:26	619802	6116006273dc164b00631515	4	1	DL_test	23	DL_test	12	stimuli_distractor_diamondtriangles.svg	stimuli_target_squaretriangles.svg	15	yes	ka	0	1723	6	3	antiphase_hc_soi.wav	1	6	6	noise_calib_stim_RIGHT.wav	2	6	blb_dichoticlistening_ba-ta.mp3	ba	ta	1	other
6.6.1	win	2023-06-28	10:48:00	10:58:26	619802	6116006273dc164b00631515	4	1	DL_test	23	DL_test	13	stimuli_distractor_diamondtriangles.svg	stimuli_target_squaretriangles.svg	15	yes	ka	1	657	6	3	antiphase_hc_soi.wav	1	6	6	noise_calib_stim_RIGHT.wav	2	4	blb_dichoticlistening_ba-ka.mp3	ba	ka	1	right
6.6.1	win	2023-06-28	10:48:00	10:58:26	619802	6116006273dc164b00631515	4	1	DL_test	23	DL_test	14	stimuli_distractor_diamondtriangles.svg	stimuli_target_squaretriangles.svg	15	yes	ka	0	556	6	3	antiphase_hc_soi.wav	1	6	6	noise_calib_stim_RIGHT.wav	2	33	blb_dichoticlistening_ta-ga.mp3	ta	ga	1	other
6.6.1	win	2023-06-28	10:48:00	10:58:26	619802	6116006273dc164b00631515	4	1	DL_test	23	DL_test	15	stimuli_distractor_diamondtriangles.svg	stimuli_target_squaretriangles.svg	15	yes	pa	1	1167	6	3	antiphase_hc_soi.wav	1	6	6	noise_calib_stim_RIGHT.wav	2	23	blb_dichoticlistening_ka-pa.mp3	ka	pa	1	right
6.6.1	win	2023-06-28	10:48:00	10:58:26	619802	6116006273dc164b00631515	4	1	DL_test	23	DL_test	16	stimuli_distractor_diamondtriangles.svg	stimuli_target_squaretriangles.svg	15	yes	ka	0	859	6	3	antiphase_hc_soi.wav	1	6	6	noise_calib_stim_RIGHT.wav	2	32	blb_dichoticlistening_ta-da.mp3	ta	da	1	other
6.6.1	win	2023-06-28	10:48:00	10:58:26	619802	6116006273dc164b00631515	4	1	DL_test	23	DL_test	17	stimuli_distractor_diamondtriangles.svg	stimuli_target_squaretriangles.svg	15	yes	ga	1	1039	6	3	antiphase_hc_soi.wav	1	6	6	noise_calib_stim_RIGHT.wav	2	14	blb_dichoticlistening_ga-da.mp3	ga	da	1	left
6.6.1	win	2023-06-28	10:48:00	10:58:26	619802	6116006273dc164b00631515	4	1	DL_test	23	DL_test	18	stimuli_distractor_diamondtriangles.svg	stimuli_target_squaretriangles.svg	15	yes	ba	1	2258	6	3	antiphase_hc_soi.wav	1	6	6	noise_calib_stim_RIGHT.wav	2	19	blb_dichoticlistening_ka-ba.mp3	ka	ba	1	right
6.6.1	win	2023-06-28	10:48:00	10:58:26	619802	6116006273dc164b00631515	4	1	DL_test	23	DL_test	19	stimuli_distractor_diamondtriangles.svg	stimuli_target_squaretriangles.svg	15	yes	ka	1	1029	6	3	antiphase_hc_soi.wav	1	6	6	noise_calib_stim_RIGHT.wav	2	21	blb_dichoticlistening_ka-ga.mp3	ka	ga	1	left
6.6.1	win	2023-06-28	10:48:00	10:58:26	619802	6116006273dc164b00631515	4	1	DL_test	23	DL_test	20	stimuli_distractor_diamondtriangles.svg	stimuli_target_squaretriangles.svg	15	yes	ba	1	1580	6	3	antiphase_hc_soi.wav	1	6	6	noise_calib_stim_RIGHT.wav	2	13	blb_dichoticlistening_ga-ba.mp3	ga	ba	1	right
6.6.1	win	2023-06-28	10:48:00	10:58:26	619802	6116006273dc164b00631515	4	1	DL_test	23	DL_test	21	stimuli_distractor_diamondtriangles.svg	stimuli_target_squaretriangles.svg	15	yes	ba	1	1246	6	3	antiphase_hc_soi.wav	1	6	6	noise_calib_stim_RIGHT.wav	2	7	blb_dichoticlistening_da-ba.mp3	da	ba	1	right
6.6.1	win	2023-06-28	10:48:00	10:58:26	619802	6116006273dc164b00631515	4	1	DL_test	23	DL_test	22	stimuli_distractor_diamondtriangles.svg	stimuli_target_squaretriangles.svg	15	yes	ka	1	1733	6	3	antiphase_hc_soi.wav	1	6	6	noise_calib_stim_RIGHT.wav	2	34	blb_dichoticlistening_ta-ka.mp3	ta	ka	1	right
6.6.1	win	2023-06-28	10:48:00	10:58:26	619802	6116006273dc164b00631515	4	1	DL_test	23	DL_test	23	stimuli_distractor_diamondtriangles.svg	stimuli_target_squaretriangles.svg	15	yes	ka	1	648	6	3	antiphase_hc_soi.wav	1	6	6	noise_calib_stim_RIGHT.wav	2	16	blb_dichoticlistening_ga-ka.mp3	ga	ka	1	right
6.6.1	win	2023-06-28	10:48:00	10:58:26	619802	6116006273dc164b00631515	4	1	DL_test	23	DL_test	24	stimuli_distractor_diamondtriangles.svg	stimuli_target_squaretriangles.svg	15	yes	pa	1	1047	6	3	antiphase_hc_soi.wav	1	6	6	noise_calib_stim_RIGHT.wav	2	35	blb_dichoticlistening_ta-pa.mp3	ta	pa	1	right
6.6.1	win	2023-06-28	10:48:00	10:58:26	619802	6116006273dc164b00631515	4	1	DL_test	23	DL_test	25	stimuli_distractor_diamondtriangles.svg	stimuli_target_squaretriangles.svg	15	yes	ka	1	1006	6	3	antiphase_hc_soi.wav	1	6	6	noise_calib_stim_RIGHT.wav	2	20	blb_dichoticlistening_ka-da.mp3	ka	da	1	left
6.6.1	win	2023-06-28	10:48:00	10:58:26	619802	6116006273dc164b00631515	4	1	DL_test	23	DL_test	26	stimuli_distractor_diamondtriangles.svg	stimuli_target_squaretriangles.svg	15	yes	pa	1	1284	6	3	antiphase_hc_soi.wav	1	6	6	noise_calib_stim_RIGHT.wav	2	25	blb_dichoticlistening_pa-ba.mp3	pa	ba	1	left
