build	computer.platform	date	time	timestamp	time_elapsed_ms	subject	group	session	blockcode	blocknum	trialcode	trialnum	stimulus_left	stimulus_right	stim_index	target_present	response	correct	latency	headphonecheck_countTestTrials	headphonecheck_index	headphonecheck_testSound	headphonecheck_correctResponse	stereocheck_countTestTrials	stereocheck_index	stereocheck_testSound	stereocheck_correctResponse	DL_index	DL_soundfile	DL_leftSound	DL_rightSound	DL_dualSound	DL_choice
6.6.1	win	2023-07-15	15:24:55	15:27:33	153578	601d7cc678b34c000c119699	3	1	practice_slash	5	practice_slash	1	stimuli_target_diamondsquares.svg	stimuli_distractor_trianglediamonds.svg	6	yes	0	0	2000	0	0			0	0			1				0	
6.6.1	win	2023-07-15	15:24:55	15:27:33	153578	601d7cc678b34c000c119699	3	1	practice_slash	5	advance_on_keypress_SLASH	2	stimuli_target_diamondsquares.svg	stimuli_distractor_trianglediamonds.svg	6	yes	57	0	1657	0	0			0	0			1				0	
6.6.1	win	2023-07-15	15:24:55	15:27:36	157428	601d7cc678b34c000c119699	3	1	practice_slash	5	practice_slash	3	stimuli_target_rectanglediamonds.svg	stimuli_distractor_trianglediamonds.svg	4	yes	53	1	550	0	0			0	0			1				0	
6.6.1	win	2023-07-15	15:24:55	15:27:36	157428	601d7cc678b34c000c119699	3	1	practice_slash	5	advance_on_keypress_SLASH	4	stimuli_target_rectanglediamonds.svg	stimuli_distractor_trianglediamonds.svg	4	yes	57	0	2959	0	0			0	0			1				0	
6.6.1	win	2023-07-15	15:24:55	15:27:41	162432	601d7cc678b34c000c119699	3	1	practice_slash	5	practice_slash	5	stimuli_target_rectanglediamonds.svg	stimuli_distractor_diamondtriangles.svg	1	yes	53	1	404	0	0			0	0			1				0	
6.6.1	win	2023-07-15	15:24:55	15:27:41	162432	601d7cc678b34c000c119699	3	1	practice_slash	5	advance_on_keypress_SLASH	6	stimuli_target_rectanglediamonds.svg	stimuli_distractor_diamondtriangles.svg	1	yes	57	0	532	0	0			0	0			1				0	
6.6.1	win	2023-07-15	15:24:55	15:27:44	165203	601d7cc678b34c000c119699	3	1	practice_slash	5	practice_slash	7	stimuli_target_diamondsquares.svg	stimuli_distractor_diamondtriangles.svg	3	yes	53	1	592	0	0			0	0			1				0	
6.6.1	win	2023-07-15	15:24:55	15:27:44	165203	601d7cc678b34c000c119699	3	1	practice_slash	5	advance_on_keypress_SLASH	8	stimuli_target_diamondsquares.svg	stimuli_distractor_diamondtriangles.svg	3	yes	57	0	565	0	0			0	0			1				0	
6.6.1	win	2023-07-15	15:24:55	15:27:47	167968	601d7cc678b34c000c119699	3	1	practice_slash	5	practice_slash	9	stimuli_distractor_trianglediamonds.svg	stimuli_target_squarediamonds.svg	11	yes	53	1	540	0	0			0	0			1				0	
6.6.1	win	2023-07-15	15:24:55	15:27:47	167968	601d7cc678b34c000c119699	3	1	practice_slash	5	advance_on_keypress_SLASH	10	stimuli_distractor_trianglediamonds.svg	stimuli_target_squarediamonds.svg	11	yes	57	0	385	0	0			0	0			1				0	
6.6.1	win	2023-07-15	15:24:55	15:27:49	170390	601d7cc678b34c000c119699	3	1	practice_slash	5	practice_slash	11	stimuli_target_squarediamonds.svg	stimuli_distractor_trianglediamonds.svg	5	yes	53	1	396	0	0			0	0			1				0	
6.6.1	win	2023-07-15	15:24:55	15:27:49	170390	601d7cc678b34c000c119699	3	1	practice_slash	5	advance_on_keypress_SLASH	12	stimuli_target_squarediamonds.svg	stimuli_distractor_trianglediamonds.svg	5	yes	57	0	303	0	0			0	0			1				0	
6.6.1	win	2023-07-15	15:24:55	15:27:53	174345	601d7cc678b34c000c119699	3	1	practice_slash	5	practice_slash	13	stimuli_distractor_trianglediamonds.svg	stimuli_distractor_diamondtriangles.svg	16	no	0	1	2000	0	0			0	0			1				0	
6.6.1	win	2023-07-15	15:24:55	15:27:53	174345	601d7cc678b34c000c119699	3	1	practice_slash	5	advance_on_keypress_SLASH	14	stimuli_distractor_trianglediamonds.svg	stimuli_distractor_diamondtriangles.svg	16	no	57	0	463	0	0			0	0			1				0	
6.6.1	win	2023-07-15	15:24:55	15:27:56	176844	601d7cc678b34c000c119699	3	1	practice_slash	5	practice_slash	15	stimuli_distractor_diamondtriangles.svg	stimuli_target_rectangletriangles.svg	7	yes	53	1	368	0	0			0	0			1				0	
6.6.1	win	2023-07-15	15:24:55	15:27:56	176844	601d7cc678b34c000c119699	3	1	practice_slash	5	advance_on_keypress_SLASH	16	stimuli_distractor_diamondtriangles.svg	stimuli_target_rectangletriangles.svg	7	yes	57	0	406	0	0			0	0			1				0	
6.6.1	win	2023-07-15	15:24:55	15:27:58	179502	601d7cc678b34c000c119699	3	1	practice_slash	5	practice_slash	17	stimuli_distractor_diamondtriangles.svg	stimuli_target_diamondrectangles.svg	8	yes	53	1	608	0	0			0	0			1				0	
6.6.1	win	2023-07-15	15:24:55	15:27:58	179502	601d7cc678b34c000c119699	3	1	practice_slash	5	advance_on_keypress_SLASH	18	stimuli_distractor_diamondtriangles.svg	stimuli_target_diamondrectangles.svg	8	yes	57	0	720	0	0			0	0			1				0	
6.6.1	win	2023-07-15	15:24:55	15:28:02	182508	601d7cc678b34c000c119699	3	1	practice_slash	5	practice_slash	19	stimuli_distractor_diamondtriangles.svg	stimuli_target_trianglerectangles.svg	9	yes	53	1	647	0	0			0	0			1				0	
6.6.1	win	2023-07-15	15:24:55	15:28:02	182508	601d7cc678b34c000c119699	3	1	practice_slash	5	advance_on_keypress_SLASH	20	stimuli_distractor_diamondtriangles.svg	stimuli_target_trianglerectangles.svg	9	yes	57	0	347	0	0			0	0			1				0	
6.6.1	win	2023-07-15	15:24:55	15:28:04	185036	601d7cc678b34c000c119699	3	1	practice_slash	5	practice_slash	21	stimuli_distractor_trianglediamonds.svg	stimuli_target_diamondrectangles.svg	12	yes	53	1	525	0	0			0	0			1				0	
6.6.1	win	2023-07-15	15:24:55	15:28:04	185036	601d7cc678b34c000c119699	3	1	practice_slash	5	advance_on_keypress_SLASH	22	stimuli_distractor_trianglediamonds.svg	stimuli_target_diamondrectangles.svg	12	yes	57	0	403	0	0			0	0			1				0	
6.6.1	win	2023-07-15	15:24:55	15:28:07	187802	601d7cc678b34c000c119699	3	1	practice_slash	5	practice_slash	23	stimuli_distractor_diamondtriangles.svg	stimuli_distractor_diamondtriangles.svg	13	no	53	0	724	0	0			0	0			1				0	
6.6.1	win	2023-07-15	15:24:55	15:28:07	187802	601d7cc678b34c000c119699	3	1	practice_slash	5	advance_on_keypress_SLASH	24	stimuli_distractor_diamondtriangles.svg	stimuli_distractor_diamondtriangles.svg	13	no	57	0	404	0	0			0	0			1				0	
6.6.1	win	2023-07-15	15:24:55	15:28:10	191036	601d7cc678b34c000c119699	3	1	practice_slash	5	practice_slash	25	stimuli_distractor_diamondtriangles.svg	stimuli_distractor_trianglediamonds.svg	14	no	53	0	1191	0	0			0	0			1				0	
6.6.1	win	2023-07-15	15:24:55	15:28:10	191036	601d7cc678b34c000c119699	3	1	practice_slash	5	advance_on_keypress_SLASH	26	stimuli_distractor_diamondtriangles.svg	stimuli_distractor_trianglediamonds.svg	14	no	57	0	447	0	0			0	0			1				0	
6.6.1	win	2023-07-15	15:24:55	15:28:13	193943	601d7cc678b34c000c119699	3	1	practice_slash	5	practice_slash	27	stimuli_target_squarediamonds.svg	stimuli_distractor_diamondtriangles.svg	2	yes	53	1	815	0	0			0	0			1				0	
6.6.1	win	2023-07-15	15:24:55	15:28:13	193943	601d7cc678b34c000c119699	3	1	practice_slash	5	advance_on_keypress_SLASH	28	stimuli_target_squarediamonds.svg	stimuli_distractor_diamondtriangles.svg	2	yes	57	0	353	0	0			0	0			1				0	
6.6.1	win	2023-07-15	15:24:55	15:28:17	197944	601d7cc678b34c000c119699	3	1	practice_slash	5	practice_slash	29	stimuli_distractor_trianglediamonds.svg	stimuli_distractor_trianglediamonds.svg	15	no	0	1	2000	0	0			0	0			1				0	
6.6.1	win	2023-07-15	15:24:55	15:28:17	197944	601d7cc678b34c000c119699	3	1	practice_slash	5	advance_on_keypress_SLASH	30	stimuli_distractor_trianglediamonds.svg	stimuli_distractor_trianglediamonds.svg	15	no	57	0	484	0	0			0	0			1				0	
6.6.1	win	2023-07-15	15:24:55	15:28:20	200742	601d7cc678b34c000c119699	3	1	practice_slash	5	practice_slash	31	stimuli_distractor_trianglediamonds.svg	stimuli_target_rectanglediamonds.svg	10	yes	53	1	665	0	0			0	0			1				0	
6.6.1	win	2023-07-15	15:24:55	15:28:20	200742	601d7cc678b34c000c119699	3	1	practice_slash	5	advance_on_keypress_SLASH	32	stimuli_distractor_trianglediamonds.svg	stimuli_target_rectanglediamonds.svg	10	yes	57	0	340	0	0			0	0			1				0	
6.6.1	win	2023-07-15	15:24:55	15:28:34	214859	601d7cc678b34c000c119699	3	1	main_slash	7	main_slash	1	stimuli_distractor_trianglediamonds.svg	stimuli_target_diamondrectangles.svg	27	yes	53	1	565	0	0			0	0			1				0	
6.6.1	win	2023-07-15	15:24:55	15:28:34	214859	601d7cc678b34c000c119699	3	1	main_slash	7	advance_on_keypress_SLASH	2	stimuli_distractor_trianglediamonds.svg	stimuli_target_diamondrectangles.svg	27	yes	57	0	1270	0	0			0	0			1				0	
6.6.1	win	2023-07-15	15:24:55	15:28:36	217204	601d7cc678b34c000c119699	3	1	main_slash	7	main_slash	3	stimuli_distractor_trianglediamonds.svg	stimuli_target_trianglesquares.svg	26	yes	53	1	427	0	0			0	0			1				0	
6.6.1	win	2023-07-15	15:24:55	15:28:36	217204	601d7cc678b34c000c119699	3	1	main_slash	7	advance_on_keypress_SLASH	4	stimuli_distractor_trianglediamonds.svg	stimuli_target_trianglesquares.svg	26	yes	57	0	1421	0	0			0	0			1				0	
6.6.1	win	2023-07-15	15:24:55	15:28:40	221278	601d7cc678b34c000c119699	3	1	main_slash	7	main_slash	5	stimuli_distractor_diamondtriangles.svg	stimuli_distractor_trianglediamonds.svg	37	no	0	1	2000	0	0			0	0			1				0	
6.6.1	win	2023-07-15	15:24:55	15:28:40	221278	601d7cc678b34c000c119699	3	1	main_slash	7	advance_on_keypress_SLASH	6	stimuli_distractor_diamondtriangles.svg	stimuli_distractor_trianglediamonds.svg	37	no	57	0	510	0	0			0	0			1				0	
6.6.1	win	2023-07-15	15:24:55	15:28:42	223078	601d7cc678b34c000c119699	3	1	main_slash	7	main_slash	7	stimuli_distractor_trianglediamonds.svg	stimuli_target_rectangletriangles.svg	9	yes	53	1	651	0	0			0	0			1				0	
6.6.1	win	2023-07-15	15:24:55	15:28:42	223078	601d7cc678b34c000c119699	3	1	main_slash	7	advance_on_keypress_SLASH	8	stimuli_distractor_trianglediamonds.svg	stimuli_target_rectangletriangles.svg	9	yes	57	0	830	0	0			0	0			1				0	
6.6.1	win	2023-07-15	15:24:55	15:28:44	225098	601d7cc678b34c000c119699	3	1	main_slash	7	main_slash	9	stimuli_distractor_diamondtriangles.svg	stimuli_target_trianglesquares.svg	30	yes	53	1	554	0	0			0	0			1				0	
6.6.1	win	2023-07-15	15:24:55	15:28:44	225098	601d7cc678b34c000c119699	3	1	main_slash	7	advance_on_keypress_SLASH	10	stimuli_distractor_diamondtriangles.svg	stimuli_target_trianglesquares.svg	30	yes	57	0	680	0	0			0	0			1				0	
6.6.1	win	2023-07-15	15:24:55	15:28:46	226967	601d7cc678b34c000c119699	3	1	main_slash	7	main_slash	11	stimuli_target_trianglerectangles.svg	stimuli_distractor_diamondtriangles.svg	21	yes	53	1	556	0	0			0	0			1				0	
6.6.1	win	2023-07-15	15:24:55	15:28:46	226967	601d7cc678b34c000c119699	3	1	main_slash	7	advance_on_keypress_SLASH	12	stimuli_target_trianglerectangles.svg	stimuli_distractor_diamondtriangles.svg	21	yes	57	0	404	0	0			0	0			1				0	
6.6.1	win	2023-07-15	15:24:55	15:28:48	228658	601d7cc678b34c000c119699	3	1	main_slash	7	main_slash	13	stimuli_distractor_trianglediamonds.svg	stimuli_target_squarediamonds.svg	12	yes	53	1	647	0	0			0	0			1				0	
6.6.1	win	2023-07-15	15:24:55	15:28:48	228658	601d7cc678b34c000c119699	3	1	main_slash	7	advance_on_keypress_SLASH	14	stimuli_distractor_trianglediamonds.svg	stimuli_target_squarediamonds.svg	12	yes	57	0	433	0	0			0	0			1				0	
6.6.1	win	2023-07-15	15:24:55	15:28:50	230587	601d7cc678b34c000c119699	3	1	main_slash	7	main_slash	15	stimuli_target_squaretriangles.svg	stimuli_distractor_diamondtriangles.svg	7	yes	53	1	843	0	0			0	0			1				0	
6.6.1	win	2023-07-15	15:24:55	15:28:50	230587	601d7cc678b34c000c119699	3	1	main_slash	7	advance_on_keypress_SLASH	16	stimuli_target_squaretriangles.svg	stimuli_distractor_diamondtriangles.svg	7	yes	57	0	527	0	0			0	0			1				0	
6.6.1	win	2023-07-15	15:24:55	15:28:53	233762	601d7cc678b34c000c119699	3	1	main_slash	7	main_slash	17	stimuli_distractor_diamondtriangles.svg	stimuli_distractor_diamondtriangles.svg	39	no	0	1	2000	0	0			0	0			1				0	
6.6.1	win	2023-07-15	15:24:55	15:28:53	233762	601d7cc678b34c000c119699	3	1	main_slash	7	advance_on_keypress_SLASH	18	stimuli_distractor_diamondtriangles.svg	stimuli_distractor_diamondtriangles.svg	39	no	57	0	666	0	0			0	0			1				0	
6.6.1	win	2023-07-15	15:24:55	15:28:55	235620	601d7cc678b34c000c119699	3	1	main_slash	7	main_slash	19	stimuli_target_squarediamonds.svg	stimuli_distractor_diamondtriangles.svg	8	yes	53	1	543	0	0			0	0			1				0	
6.6.1	win	2023-07-15	15:24:55	15:28:55	235620	601d7cc678b34c000c119699	3	1	main_slash	7	advance_on_keypress_SLASH	20	stimuli_target_squarediamonds.svg	stimuli_distractor_diamondtriangles.svg	8	yes	57	0	471	0	0			0	0			1				0	
6.6.1	win	2023-07-15	15:24:55	15:28:56	237135	601d7cc678b34c000c119699	3	1	main_slash	7	main_slash	21	stimuli_distractor_trianglediamonds.svg	stimuli_target_rectanglediamonds.svg	10	yes	53	1	408	0	0			0	0			1				0	
6.6.1	win	2023-07-15	15:24:55	15:28:56	237135	601d7cc678b34c000c119699	3	1	main_slash	7	advance_on_keypress_SLASH	22	stimuli_distractor_trianglediamonds.svg	stimuli_target_rectanglediamonds.svg	10	yes	57	0	343	0	0			0	0			1				0	
6.6.1	win	2023-07-15	15:24:55	15:28:59	240111	601d7cc678b34c000c119699	3	1	main_slash	7	main_slash	23	stimuli_distractor_trianglediamonds.svg	stimuli_target_trianglerectangles.svg	25	yes	0	0	2000	0	0			0	0			1				0	
6.6.1	win	2023-07-15	15:24:55	15:28:59	240111	601d7cc678b34c000c119699	3	1	main_slash	7	advance_on_keypress_SLASH	24	stimuli_distractor_trianglediamonds.svg	stimuli_target_trianglerectangles.svg	25	yes	57	0	640	0	0			0	0			1				0	
6.6.1	win	2023-07-15	15:24:55	15:29:01	241777	601d7cc678b34c000c119699	3	1	main_slash	7	main_slash	25	stimuli_distractor_diamondtriangles.svg	stimuli_target_squaretriangles.svg	15	yes	53	1	381	0	0			0	0			1				0	
6.6.1	win	2023-07-15	15:24:55	15:29:01	241777	601d7cc678b34c000c119699	3	1	main_slash	7	advance_on_keypress_SLASH	26	stimuli_distractor_diamondtriangles.svg	stimuli_target_squaretriangles.svg	15	yes	57	0	458	0	0			0	0			1				0	
6.6.1	win	2023-07-15	15:24:55	15:29:02	243475	601d7cc678b34c000c119699	3	1	main_slash	7	main_slash	27	stimuli_target_diamondrectangles.svg	stimuli_distractor_trianglediamonds.svg	19	yes	53	1	598	0	0			0	0			1				0	
6.6.1	win	2023-07-15	15:24:55	15:29:02	243475	601d7cc678b34c000c119699	3	1	main_slash	7	advance_on_keypress_SLASH	28	stimuli_target_diamondrectangles.svg	stimuli_distractor_trianglediamonds.svg	19	yes	57	0	454	0	0			0	0			1				0	
6.6.1	win	2023-07-15	15:24:55	15:29:04	245274	601d7cc678b34c000c119699	3	1	main_slash	7	main_slash	29	stimuli_target_rectangletriangles.svg	stimuli_distractor_trianglediamonds.svg	1	yes	53	1	697	0	0			0	0			1				0	
6.6.1	win	2023-07-15	15:24:55	15:29:04	245274	601d7cc678b34c000c119699	3	1	main_slash	7	advance_on_keypress_SLASH	30	stimuli_target_rectangletriangles.svg	stimuli_distractor_trianglediamonds.svg	1	yes	57	0	282	0	0			0	0			1				0	
6.6.1	win	2023-07-15	15:24:55	15:29:06	246980	601d7cc678b34c000c119699	3	1	main_slash	7	main_slash	31	stimuli_distractor_diamondtriangles.svg	stimuli_target_trianglerectangles.svg	29	yes	53	1	786	0	0			0	0			1				0	
6.6.1	win	2023-07-15	15:24:55	15:29:06	246980	601d7cc678b34c000c119699	3	1	main_slash	7	advance_on_keypress_SLASH	32	stimuli_distractor_diamondtriangles.svg	stimuli_target_trianglerectangles.svg	29	yes	57	0	310	0	0			0	0			1				0	
6.6.1	win	2023-07-15	15:24:55	15:29:07	248460	601d7cc678b34c000c119699	3	1	main_slash	7	main_slash	33	stimuli_target_trianglesquares.svg	stimuli_distractor_trianglediamonds.svg	18	yes	53	1	533	0	0			0	0			1				0	
6.6.1	win	2023-07-15	15:24:55	15:29:07	248460	601d7cc678b34c000c119699	3	1	main_slash	7	advance_on_keypress_SLASH	34	stimuli_target_trianglesquares.svg	stimuli_distractor_trianglediamonds.svg	18	yes	57	0	356	0	0			0	0			1				0	
6.6.1	win	2023-07-15	15:24:55	15:29:09	250018	601d7cc678b34c000c119699	3	1	main_slash	7	main_slash	35	stimuli_distractor_diamondtriangles.svg	stimuli_target_rectangletriangles.svg	13	yes	53	1	557	0	0			0	0			1				0	
6.6.1	win	2023-07-15	15:24:55	15:29:09	250018	601d7cc678b34c000c119699	3	1	main_slash	7	advance_on_keypress_SLASH	36	stimuli_distractor_diamondtriangles.svg	stimuli_target_rectangletriangles.svg	13	yes	57	0	310	0	0			0	0			1				0	
6.6.1	win	2023-07-15	15:24:55	15:29:11	251595	601d7cc678b34c000c119699	3	1	main_slash	7	main_slash	37	stimuli_distractor_trianglediamonds.svg	stimuli_target_diamondsquares.svg	28	yes	53	1	634	0	0			0	0			1				0	
6.6.1	win	2023-07-15	15:24:55	15:29:11	251595	601d7cc678b34c000c119699	3	1	main_slash	7	advance_on_keypress_SLASH	38	stimuli_distractor_trianglediamonds.svg	stimuli_target_diamondsquares.svg	28	yes	57	0	227	0	0			0	0			1				0	
6.6.1	win	2023-07-15	15:24:55	15:29:12	252944	601d7cc678b34c000c119699	3	1	main_slash	7	main_slash	39	stimuli_target_rectangletriangles.svg	stimuli_distractor_diamondtriangles.svg	5	yes	53	1	482	0	0			0	0			1				0	
6.6.1	win	2023-07-15	15:24:55	15:29:12	252944	601d7cc678b34c000c119699	3	1	main_slash	7	advance_on_keypress_SLASH	40	stimuli_target_rectangletriangles.svg	stimuli_distractor_diamondtriangles.svg	5	yes	57	0	334	0	0			0	0			1				0	
6.6.1	win	2023-07-15	15:24:55	15:29:15	255928	601d7cc678b34c000c119699	3	1	main_slash	7	main_slash	41	stimuli_target_trianglerectangles.svg	stimuli_distractor_trianglediamonds.svg	17	yes	0	0	2000	0	0			0	0			1				0	
6.6.1	win	2023-07-15	15:24:55	15:29:15	255928	601d7cc678b34c000c119699	3	1	main_slash	7	advance_on_keypress_SLASH	42	stimuli_target_trianglerectangles.svg	stimuli_distractor_trianglediamonds.svg	17	yes	57	0	489	0	0			0	0			1				0	
6.6.1	win	2023-07-15	15:24:55	15:29:17	257589	601d7cc678b34c000c119699	3	1	main_slash	7	main_slash	43	stimuli_distractor_trianglediamonds.svg	stimuli_distractor_trianglediamonds.svg	33	no	53	0	528	0	0			0	0			1				0	
6.6.1	win	2023-07-15	15:24:55	15:29:17	257589	601d7cc678b34c000c119699	3	1	main_slash	7	advance_on_keypress_SLASH	44	stimuli_distractor_trianglediamonds.svg	stimuli_distractor_trianglediamonds.svg	33	no	57	0	425	0	0			0	0			1				0	
6.6.1	win	2023-07-15	15:24:55	15:29:18	259185	601d7cc678b34c000c119699	3	1	main_slash	7	main_slash	45	stimuli_target_rectanglediamonds.svg	stimuli_distractor_diamondtriangles.svg	6	yes	53	1	524	0	0			0	0			1				0	
6.6.1	win	2023-07-15	15:24:55	15:29:18	259185	601d7cc678b34c000c119699	3	1	main_slash	7	advance_on_keypress_SLASH	46	stimuli_target_rectanglediamonds.svg	stimuli_distractor_diamondtriangles.svg	6	yes	57	0	363	0	0			0	0			1				0	
6.6.1	win	2023-07-15	15:24:55	15:29:20	260694	601d7cc678b34c000c119699	3	1	main_slash	7	main_slash	47	stimuli_distractor_diamondtriangles.svg	stimuli_target_rectanglediamonds.svg	14	yes	53	1	506	0	0			0	0			1				0	
6.6.1	win	2023-07-15	15:24:55	15:29:20	260694	601d7cc678b34c000c119699	3	1	main_slash	7	advance_on_keypress_SLASH	48	stimuli_distractor_diamondtriangles.svg	stimuli_target_rectanglediamonds.svg	14	yes	57	0	273	0	0			0	0			1				0	
6.6.1	win	2023-07-15	15:24:55	15:29:23	263611	601d7cc678b34c000c119699	3	1	main_slash	7	main_slash	49	stimuli_distractor_diamondtriangles.svg	stimuli_distractor_diamondtriangles.svg	40	no	0	1	2000	0	0			0	0			1				0	
6.6.1	win	2023-07-15	15:24:55	15:29:23	263611	601d7cc678b34c000c119699	3	1	main_slash	7	advance_on_keypress_SLASH	50	stimuli_distractor_diamondtriangles.svg	stimuli_distractor_diamondtriangles.svg	40	no	57	0	367	0	0			0	0			1				0	
6.6.1	win	2023-07-15	15:24:55	15:29:24	265027	601d7cc678b34c000c119699	3	1	main_slash	7	main_slash	51	stimuli_distractor_diamondtriangles.svg	stimuli_target_squarediamonds.svg	16	yes	53	1	400	0	0			0	0			1				0	
6.6.1	win	2023-07-15	15:24:55	15:29:24	265027	601d7cc678b34c000c119699	3	1	main_slash	7	advance_on_keypress_SLASH	52	stimuli_distractor_diamondtriangles.svg	stimuli_target_squarediamonds.svg	16	yes	57	0	354	0	0			0	0			1				0	
6.6.1	win	2023-07-15	15:24:55	15:29:26	266745	601d7cc678b34c000c119699	3	1	main_slash	7	main_slash	53	stimuli_distractor_diamondtriangles.svg	stimuli_distractor_trianglediamonds.svg	38	no	53	0	718	0	0			0	0			1				0	
6.6.1	win	2023-07-15	15:24:55	15:29:26	266745	601d7cc678b34c000c119699	3	1	main_slash	7	advance_on_keypress_SLASH	54	stimuli_distractor_diamondtriangles.svg	stimuli_distractor_trianglediamonds.svg	38	no	57	0	486	0	0			0	0			1				0	
6.6.1	win	2023-07-15	15:24:55	15:29:28	268527	601d7cc678b34c000c119699	3	1	main_slash	7	main_slash	55	stimuli_distractor_diamondtriangles.svg	stimuli_target_diamondrectangles.svg	31	yes	53	1	650	0	0			0	0			1				0	
6.6.1	win	2023-07-15	15:24:55	15:29:28	268527	601d7cc678b34c000c119699	3	1	main_slash	7	advance_on_keypress_SLASH	56	stimuli_distractor_diamondtriangles.svg	stimuli_target_diamondrectangles.svg	31	yes	57	0	308	0	0			0	0			1				0	
6.6.1	win	2023-07-15	15:24:55	15:29:29	270003	601d7cc678b34c000c119699	3	1	main_slash	7	main_slash	57	stimuli_target_squarediamonds.svg	stimuli_distractor_trianglediamonds.svg	4	yes	53	1	526	0	0			0	0			1				0	
6.6.1	win	2023-07-15	15:24:55	15:29:29	270003	601d7cc678b34c000c119699	3	1	main_slash	7	advance_on_keypress_SLASH	58	stimuli_target_squarediamonds.svg	stimuli_distractor_trianglediamonds.svg	4	yes	57	0	318	0	0			0	0			1				0	
6.6.1	win	2023-07-15	15:24:55	15:29:32	272962	601d7cc678b34c000c119699	3	1	main_slash	7	main_slash	59	stimuli_distractor_trianglediamonds.svg	stimuli_distractor_diamondtriangles.svg	35	no	0	1	2000	0	0			0	0			1				0	
6.6.1	win	2023-07-15	15:24:55	15:29:32	272962	601d7cc678b34c000c119699	3	1	main_slash	7	advance_on_keypress_SLASH	60	stimuli_distractor_trianglediamonds.svg	stimuli_distractor_diamondtriangles.svg	35	no	57	0	511	0	0			0	0			1				0	
6.6.1	win	2023-07-15	15:24:55	15:29:33	274496	601d7cc678b34c000c119699	3	1	main_slash	7	main_slash	61	stimuli_target_diamondrectangles.svg	stimuli_distractor_diamondtriangles.svg	23	yes	53	1	385	0	0			0	0			1				0	
6.6.1	win	2023-07-15	15:24:55	15:29:33	274496	601d7cc678b34c000c119699	3	1	main_slash	7	advance_on_keypress_SLASH	62	stimuli_target_diamondrectangles.svg	stimuli_distractor_diamondtriangles.svg	23	yes	57	0	357	0	0			0	0			1				0	
6.6.1	win	2023-07-15	15:24:55	15:29:36	277495	601d7cc678b34c000c119699	3	1	main_slash	7	main_slash	63	stimuli_distractor_trianglediamonds.svg	stimuli_distractor_trianglediamonds.svg	34	no	0	1	2000	0	0			0	0			1				0	
6.6.1	win	2023-07-15	15:24:55	15:29:36	277495	601d7cc678b34c000c119699	3	1	main_slash	7	advance_on_keypress_SLASH	64	stimuli_distractor_trianglediamonds.svg	stimuli_distractor_trianglediamonds.svg	34	no	57	0	362	0	0			0	0			1				0	
6.6.1	win	2023-07-15	15:24:55	15:29:38	278957	601d7cc678b34c000c119699	3	1	main_slash	7	main_slash	65	stimuli_distractor_diamondtriangles.svg	stimuli_target_diamondsquares.svg	32	yes	53	1	463	0	0			0	0			1				0	
6.6.1	win	2023-07-15	15:24:55	15:29:38	278957	601d7cc678b34c000c119699	3	1	main_slash	7	advance_on_keypress_SLASH	66	stimuli_distractor_diamondtriangles.svg	stimuli_target_diamondsquares.svg	32	yes	57	0	350	0	0			0	0			1				0	
6.6.1	win	2023-07-15	15:24:55	15:29:40	280577	601d7cc678b34c000c119699	3	1	main_slash	7	main_slash	67	stimuli_target_diamondsquares.svg	stimuli_distractor_diamondtriangles.svg	24	yes	53	1	616	0	0			0	0			1				0	
6.6.1	win	2023-07-15	15:24:55	15:29:40	280577	601d7cc678b34c000c119699	3	1	main_slash	7	advance_on_keypress_SLASH	68	stimuli_target_diamondsquares.svg	stimuli_distractor_diamondtriangles.svg	24	yes	57	0	282	0	0			0	0			1				0	
6.6.1	win	2023-07-15	15:24:55	15:29:41	282332	601d7cc678b34c000c119699	3	1	main_slash	7	main_slash	69	stimuli_target_trianglesquares.svg	stimuli_distractor_diamondtriangles.svg	22	yes	53	1	837	0	0			0	0			1				0	
6.6.1	win	2023-07-15	15:24:55	15:29:41	282332	601d7cc678b34c000c119699	3	1	main_slash	7	advance_on_keypress_SLASH	70	stimuli_target_trianglesquares.svg	stimuli_distractor_diamondtriangles.svg	22	yes	57	0	441	0	0			0	0			1				0	
6.6.1	win	2023-07-15	15:24:55	15:29:44	285411	601d7cc678b34c000c119699	3	1	main_slash	7	main_slash	71	stimuli_target_rectanglediamonds.svg	stimuli_distractor_trianglediamonds.svg	2	yes	0	0	2000	0	0			0	0			1				0	
6.6.1	win	2023-07-15	15:24:55	15:29:44	285411	601d7cc678b34c000c119699	3	1	main_slash	7	advance_on_keypress_SLASH	72	stimuli_target_rectanglediamonds.svg	stimuli_distractor_trianglediamonds.svg	2	yes	57	0	844	0	0			0	0			1				0	
6.6.1	win	2023-07-15	15:24:55	15:29:47	287568	601d7cc678b34c000c119699	3	1	main_slash	7	main_slash	73	stimuli_target_diamondsquares.svg	stimuli_distractor_trianglediamonds.svg	20	yes	53	1	674	0	0			0	0			1				0	
6.6.1	win	2023-07-15	15:24:55	15:29:47	287568	601d7cc678b34c000c119699	3	1	main_slash	7	advance_on_keypress_SLASH	74	stimuli_target_diamondsquares.svg	stimuli_distractor_trianglediamonds.svg	20	yes	57	0	365	0	0			0	0			1				0	
6.6.1	win	2023-07-15	15:24:55	15:29:50	290561	601d7cc678b34c000c119699	3	1	main_slash	7	main_slash	75	stimuli_distractor_trianglediamonds.svg	stimuli_distractor_diamondtriangles.svg	36	no	0	1	2000	0	0			0	0			1				0	
6.6.1	win	2023-07-15	15:24:55	15:29:50	290561	601d7cc678b34c000c119699	3	1	main_slash	7	advance_on_keypress_SLASH	76	stimuli_distractor_trianglediamonds.svg	stimuli_distractor_diamondtriangles.svg	36	no	57	0	269	0	0			0	0			1				0	
6.6.1	win	2023-07-15	15:24:55	15:29:51	291921	601d7cc678b34c000c119699	3	1	main_slash	7	main_slash	77	stimuli_distractor_trianglediamonds.svg	stimuli_target_squaretriangles.svg	11	yes	53	1	444	0	0			0	0			1				0	
6.6.1	win	2023-07-15	15:24:55	15:29:51	291921	601d7cc678b34c000c119699	3	1	main_slash	7	advance_on_keypress_SLASH	78	stimuli_distractor_trianglediamonds.svg	stimuli_target_squaretriangles.svg	11	yes	57	0	400	0	0			0	0			1				0	
6.6.1	win	2023-07-15	15:24:55	15:29:52	293379	601d7cc678b34c000c119699	3	1	main_slash	7	main_slash	79	stimuli_target_squaretriangles.svg	stimuli_distractor_trianglediamonds.svg	3	yes	53	1	402	0	0			0	0			1				0	
6.6.1	win	2023-07-15	15:24:55	15:29:52	293379	601d7cc678b34c000c119699	3	1	main_slash	7	advance_on_keypress_SLASH	80	stimuli_target_squaretriangles.svg	stimuli_distractor_trianglediamonds.svg	3	yes	57	0	330	0	0			0	0			1				0	
6.6.1	win	2023-07-15	15:24:55	15:29:54	294778	601d7cc678b34c000c119699	3	1	main_slash	7	main_slash	81	stimuli_distractor_diamondtriangles.svg	stimuli_target_squaretriangles.svg	15	yes	53	1	434	0	0			0	0			1				0	
6.6.1	win	2023-07-15	15:24:55	15:29:54	294778	601d7cc678b34c000c119699	3	1	main_slash	7	advance_on_keypress_SLASH	82	stimuli_distractor_diamondtriangles.svg	stimuli_target_squaretriangles.svg	15	yes	57	0	353	0	0			0	0			1				0	
6.6.1	win	2023-07-15	15:24:55	15:29:57	297778	601d7cc678b34c000c119699	3	1	main_slash	7	main_slash	83	stimuli_distractor_trianglediamonds.svg	stimuli_distractor_diamondtriangles.svg	36	no	0	1	2000	0	0			0	0			1				0	
6.6.1	win	2023-07-15	15:24:55	15:29:57	297778	601d7cc678b34c000c119699	3	1	main_slash	7	advance_on_keypress_SLASH	84	stimuli_distractor_trianglediamonds.svg	stimuli_distractor_diamondtriangles.svg	36	no	57	0	937	0	0			0	0			1				0	
6.6.1	win	2023-07-15	15:24:55	15:29:59	299788	601d7cc678b34c000c119699	3	1	main_slash	7	main_slash	85	stimuli_target_rectanglediamonds.svg	stimuli_distractor_diamondtriangles.svg	6	yes	53	1	427	0	0			0	0			1				0	
6.6.1	win	2023-07-15	15:24:55	15:29:59	299788	601d7cc678b34c000c119699	3	1	main_slash	7	advance_on_keypress_SLASH	86	stimuli_target_rectanglediamonds.svg	stimuli_distractor_diamondtriangles.svg	6	yes	57	0	301	0	0			0	0			1				0	
6.6.1	win	2023-07-15	15:24:55	15:30:00	301147	601d7cc678b34c000c119699	3	1	main_slash	7	main_slash	87	stimuli_target_squarediamonds.svg	stimuli_distractor_trianglediamonds.svg	4	yes	53	1	403	0	0			0	0			1				0	
6.6.1	win	2023-07-15	15:24:55	15:30:00	301147	601d7cc678b34c000c119699	3	1	main_slash	7	advance_on_keypress_SLASH	88	stimuli_target_squarediamonds.svg	stimuli_distractor_trianglediamonds.svg	4	yes	57	0	281	0	0			0	0			1				0	
6.6.1	win	2023-07-15	15:24:55	15:30:03	304061	601d7cc678b34c000c119699	3	1	main_slash	7	main_slash	89	stimuli_distractor_diamondtriangles.svg	stimuli_target_trianglerectangles.svg	29	yes	0	0	2000	0	0			0	0			1				0	
6.6.1	win	2023-07-15	15:24:55	15:30:03	304061	601d7cc678b34c000c119699	3	1	main_slash	7	advance_on_keypress_SLASH	90	stimuli_distractor_diamondtriangles.svg	stimuli_target_trianglerectangles.svg	29	yes	57	0	970	0	0			0	0			1				0	
6.6.1	win	2023-07-15	15:24:55	15:30:05	306073	601d7cc678b34c000c119699	3	1	main_slash	7	main_slash	91	stimuli_distractor_trianglediamonds.svg	stimuli_target_trianglesquares.svg	26	yes	53	1	396	0	0			0	0			1				0	
6.6.1	win	2023-07-15	15:24:55	15:30:05	306073	601d7cc678b34c000c119699	3	1	main_slash	7	advance_on_keypress_SLASH	92	stimuli_distractor_trianglediamonds.svg	stimuli_target_trianglesquares.svg	26	yes	57	0	330	0	0			0	0			1				0	
6.6.1	win	2023-07-15	15:24:55	15:30:06	307482	601d7cc678b34c000c119699	3	1	main_slash	7	main_slash	93	stimuli_distractor_diamondtriangles.svg	stimuli_target_diamondsquares.svg	32	yes	53	1	438	0	0			0	0			1				0	
6.6.1	win	2023-07-15	15:24:55	15:30:06	307482	601d7cc678b34c000c119699	3	1	main_slash	7	advance_on_keypress_SLASH	94	stimuli_distractor_diamondtriangles.svg	stimuli_target_diamondsquares.svg	32	yes	57	0	287	0	0			0	0			1				0	
6.6.1	win	2023-07-15	15:24:55	15:30:08	308961	601d7cc678b34c000c119699	3	1	main_slash	7	main_slash	95	stimuli_distractor_diamondtriangles.svg	stimuli_target_rectangletriangles.svg	13	yes	53	1	549	0	0			0	0			1				0	
6.6.1	win	2023-07-15	15:24:55	15:30:08	308961	601d7cc678b34c000c119699	3	1	main_slash	7	advance_on_keypress_SLASH	96	stimuli_distractor_diamondtriangles.svg	stimuli_target_rectangletriangles.svg	13	yes	57	0	353	0	0			0	0			1				0	
6.6.1	win	2023-07-15	15:24:55	15:30:09	310385	601d7cc678b34c000c119699	3	1	main_slash	7	main_slash	97	stimuli_target_rectanglediamonds.svg	stimuli_distractor_trianglediamonds.svg	2	yes	53	1	424	0	0			0	0			1				0	
6.6.1	win	2023-07-15	15:24:55	15:30:09	310385	601d7cc678b34c000c119699	3	1	main_slash	7	advance_on_keypress_SLASH	98	stimuli_target_rectanglediamonds.svg	stimuli_distractor_trianglediamonds.svg	2	yes	57	0	312	0	0			0	0			1				0	
6.6.1	win	2023-07-15	15:24:55	15:30:12	313328	601d7cc678b34c000c119699	3	1	main_slash	7	main_slash	99	stimuli_distractor_trianglediamonds.svg	stimuli_target_trianglerectangles.svg	25	yes	0	0	2000	0	0			0	0			1				0	
6.6.1	win	2023-07-15	15:24:55	15:30:12	313328	601d7cc678b34c000c119699	3	1	main_slash	7	advance_on_keypress_SLASH	100	stimuli_distractor_trianglediamonds.svg	stimuli_target_trianglerectangles.svg	25	yes	57	0	462	0	0			0	0			1				0	
6.6.1	win	2023-07-15	15:24:55	15:30:14	314811	601d7cc678b34c000c119699	3	1	main_slash	7	main_slash	101	stimuli_distractor_diamondtriangles.svg	stimuli_target_squarediamonds.svg	16	yes	53	1	383	0	0			0	0			1				0	
6.6.1	win	2023-07-15	15:24:55	15:30:14	314811	601d7cc678b34c000c119699	3	1	main_slash	7	advance_on_keypress_SLASH	102	stimuli_distractor_diamondtriangles.svg	stimuli_target_squarediamonds.svg	16	yes	57	0	1219	0	0			0	0			1				0	
6.6.1	win	2023-07-15	15:24:55	15:30:16	317273	601d7cc678b34c000c119699	3	1	main_slash	7	main_slash	103	stimuli_target_diamondsquares.svg	stimuli_distractor_diamondtriangles.svg	24	yes	53	1	596	0	0			0	0			1				0	
6.6.1	win	2023-07-15	15:24:55	15:30:16	317273	601d7cc678b34c000c119699	3	1	main_slash	7	advance_on_keypress_SLASH	104	stimuli_target_diamondsquares.svg	stimuli_distractor_diamondtriangles.svg	24	yes	57	0	400	0	0			0	0			1				0	
6.6.1	win	2023-07-15	15:24:55	15:30:18	318817	601d7cc678b34c000c119699	3	1	main_slash	7	main_slash	105	stimuli_distractor_diamondtriangles.svg	stimuli_target_trianglesquares.svg	30	yes	53	1	490	0	0			0	0			1				0	
6.6.1	win	2023-07-15	15:24:55	15:30:18	318817	601d7cc678b34c000c119699	3	1	main_slash	7	advance_on_keypress_SLASH	106	stimuli_distractor_diamondtriangles.svg	stimuli_target_trianglesquares.svg	30	yes	57	0	392	0	0			0	0			1				0	
6.6.1	win	2023-07-15	15:24:55	15:30:19	320248	601d7cc678b34c000c119699	3	1	main_slash	7	main_slash	107	stimuli_distractor_trianglediamonds.svg	stimuli_target_rectangletriangles.svg	9	yes	53	1	404	0	0			0	0			1				0	
6.6.1	win	2023-07-15	15:24:55	15:30:19	320248	601d7cc678b34c000c119699	3	1	main_slash	7	advance_on_keypress_SLASH	108	stimuli_distractor_trianglediamonds.svg	stimuli_target_rectangletriangles.svg	9	yes	57	0	336	0	0			0	0			1				0	
6.6.1	win	2023-07-15	15:24:55	15:30:21	321802	601d7cc678b34c000c119699	3	1	main_slash	7	main_slash	109	stimuli_target_diamondsquares.svg	stimuli_distractor_trianglediamonds.svg	20	yes	53	1	575	0	0			0	0			1				0	
6.6.1	win	2023-07-15	15:24:55	15:30:21	321802	601d7cc678b34c000c119699	3	1	main_slash	7	advance_on_keypress_SLASH	110	stimuli_target_diamondsquares.svg	stimuli_distractor_trianglediamonds.svg	20	yes	57	0	391	0	0			0	0			1				0	
6.6.1	win	2023-07-15	15:24:55	15:30:22	323259	601d7cc678b34c000c119699	3	1	main_slash	7	main_slash	111	stimuli_distractor_trianglediamonds.svg	stimuli_target_squaretriangles.svg	11	yes	53	1	432	0	0			0	0			1				0	
6.6.1	win	2023-07-15	15:24:55	15:30:22	323259	601d7cc678b34c000c119699	3	1	main_slash	7	advance_on_keypress_SLASH	112	stimuli_distractor_trianglediamonds.svg	stimuli_target_squaretriangles.svg	11	yes	57	0	254	0	0			0	0			1				0	
6.6.1	win	2023-07-15	15:24:55	15:30:25	326161	601d7cc678b34c000c119699	3	1	main_slash	7	main_slash	113	stimuli_distractor_trianglediamonds.svg	stimuli_distractor_trianglediamonds.svg	34	no	0	1	2000	0	0			0	0			1				0	
6.6.1	win	2023-07-15	15:24:55	15:30:25	326161	601d7cc678b34c000c119699	3	1	main_slash	7	advance_on_keypress_SLASH	114	stimuli_distractor_trianglediamonds.svg	stimuli_distractor_trianglediamonds.svg	34	no	57	0	217	0	0			0	0			1				0	
6.6.1	win	2023-07-15	15:24:55	15:30:26	327427	601d7cc678b34c000c119699	3	1	main_slash	7	main_slash	115	stimuli_distractor_trianglediamonds.svg	stimuli_target_squarediamonds.svg	12	yes	53	1	399	0	0			0	0			1				0	
6.6.1	win	2023-07-15	15:24:55	15:30:26	327427	601d7cc678b34c000c119699	3	1	main_slash	7	advance_on_keypress_SLASH	116	stimuli_distractor_trianglediamonds.svg	stimuli_target_squarediamonds.svg	12	yes	57	0	330	0	0			0	0			1				0	
6.6.1	win	2023-07-15	15:24:55	15:30:29	330394	601d7cc678b34c000c119699	3	1	main_slash	7	main_slash	117	stimuli_distractor_diamondtriangles.svg	stimuli_target_diamondrectangles.svg	31	yes	0	0	2000	0	0			0	0			1				0	
6.6.1	win	2023-07-15	15:24:55	15:30:29	330394	601d7cc678b34c000c119699	3	1	main_slash	7	advance_on_keypress_SLASH	118	stimuli_distractor_diamondtriangles.svg	stimuli_target_diamondrectangles.svg	31	yes	57	0	476	0	0			0	0			1				0	
6.6.1	win	2023-07-15	15:24:55	15:30:31	332136	601d7cc678b34c000c119699	3	1	main_slash	7	main_slash	119	stimuli_target_trianglerectangles.svg	stimuli_distractor_trianglediamonds.svg	17	yes	53	1	624	0	0			0	0			1				0	
6.6.1	win	2023-07-15	15:24:55	15:30:31	332136	601d7cc678b34c000c119699	3	1	main_slash	7	advance_on_keypress_SLASH	120	stimuli_target_trianglerectangles.svg	stimuli_distractor_trianglediamonds.svg	17	yes	57	0	664	0	0			0	0			1				0	
6.6.1	win	2023-07-15	15:24:55	15:30:34	335428	601d7cc678b34c000c119699	3	1	main_slash	7	main_slash	121	stimuli_target_diamondrectangles.svg	stimuli_distractor_diamondtriangles.svg	23	yes	0	0	2000	0	0			0	0			1				0	
6.6.1	win	2023-07-15	15:24:55	15:30:34	335428	601d7cc678b34c000c119699	3	1	main_slash	7	advance_on_keypress_SLASH	122	stimuli_target_diamondrectangles.svg	stimuli_distractor_diamondtriangles.svg	23	yes	57	0	377	0	0			0	0			1				0	
6.6.1	win	2023-07-15	15:24:55	15:30:36	336895	601d7cc678b34c000c119699	3	1	main_slash	7	main_slash	123	stimuli_target_diamondrectangles.svg	stimuli_distractor_trianglediamonds.svg	19	yes	53	1	451	0	0			0	0			1				0	
6.6.1	win	2023-07-15	15:24:55	15:30:36	336895	601d7cc678b34c000c119699	3	1	main_slash	7	advance_on_keypress_SLASH	124	stimuli_target_diamondrectangles.svg	stimuli_distractor_trianglediamonds.svg	19	yes	57	0	404	0	0			0	0			1				0	
6.6.1	win	2023-07-15	15:24:55	15:30:39	339944	601d7cc678b34c000c119699	3	1	main_slash	7	main_slash	125	stimuli_distractor_diamondtriangles.svg	stimuli_distractor_trianglediamonds.svg	38	no	0	1	2000	0	0			0	0			1				0	
6.6.1	win	2023-07-15	15:24:55	15:30:39	339944	601d7cc678b34c000c119699	3	1	main_slash	7	advance_on_keypress_SLASH	126	stimuli_distractor_diamondtriangles.svg	stimuli_distractor_trianglediamonds.svg	38	no	57	0	282	0	0			0	0			1				0	
6.6.1	win	2023-07-15	15:24:55	15:30:42	342861	601d7cc678b34c000c119699	3	1	main_slash	7	main_slash	127	stimuli_distractor_diamondtriangles.svg	stimuli_distractor_diamondtriangles.svg	39	no	0	1	2000	0	0			0	0			1				0	
6.6.1	win	2023-07-15	15:24:55	15:30:42	342861	601d7cc678b34c000c119699	3	1	main_slash	7	advance_on_keypress_SLASH	128	stimuli_distractor_diamondtriangles.svg	stimuli_distractor_diamondtriangles.svg	39	no	57	0	6	0	0			0	0			1				0	
6.6.1	win	2023-07-15	15:24:55	15:30:45	345528	601d7cc678b34c000c119699	3	1	main_slash	7	main_slash	129	stimuli_distractor_trianglediamonds.svg	stimuli_distractor_trianglediamonds.svg	33	no	0	1	2000	0	0			0	0			1				0	
6.6.1	win	2023-07-15	15:24:55	15:30:45	345528	601d7cc678b34c000c119699	3	1	main_slash	7	advance_on_keypress_SLASH	130	stimuli_distractor_trianglediamonds.svg	stimuli_distractor_trianglediamonds.svg	33	no	57	0	1038	0	0			0	0			1				0	
6.6.1	win	2023-07-15	15:24:55	15:30:48	349211	601d7cc678b34c000c119699	3	1	main_slash	7	main_slash	131	stimuli_distractor_trianglediamonds.svg	stimuli_distractor_diamondtriangles.svg	35	no	0	1	2000	0	0			0	0			1				0	
6.6.1	win	2023-07-15	15:24:55	15:30:48	349211	601d7cc678b34c000c119699	3	1	main_slash	7	advance_on_keypress_SLASH	132	stimuli_distractor_trianglediamonds.svg	stimuli_distractor_diamondtriangles.svg	35	no	57	0	269	0	0			0	0			1				0	
6.6.1	win	2023-07-15	15:24:55	15:30:51	352128	601d7cc678b34c000c119699	3	1	main_slash	7	main_slash	133	stimuli_target_trianglesquares.svg	stimuli_distractor_trianglediamonds.svg	18	yes	0	0	2000	0	0			0	0			1				0	
6.6.1	win	2023-07-15	15:24:55	15:30:51	352128	601d7cc678b34c000c119699	3	1	main_slash	7	advance_on_keypress_SLASH	134	stimuli_target_trianglesquares.svg	stimuli_distractor_trianglediamonds.svg	18	yes	57	0	286	0	0			0	0			1				0	
6.6.1	win	2023-07-15	15:24:55	15:30:53	353755	601d7cc678b34c000c119699	3	1	main_slash	7	main_slash	135	stimuli_target_squarediamonds.svg	stimuli_distractor_diamondtriangles.svg	8	yes	53	1	693	0	0			0	0			1				0	
6.6.1	win	2023-07-15	15:24:55	15:30:53	353755	601d7cc678b34c000c119699	3	1	main_slash	7	advance_on_keypress_SLASH	136	stimuli_target_squarediamonds.svg	stimuli_distractor_diamondtriangles.svg	8	yes	57	0	543	0	0			0	0			1				0	
6.6.1	win	2023-07-15	15:24:55	15:30:54	355482	601d7cc678b34c000c119699	3	1	main_slash	7	main_slash	137	stimuli_target_trianglesquares.svg	stimuli_distractor_diamondtriangles.svg	22	yes	53	1	537	0	0			0	0			1				0	
6.6.1	win	2023-07-15	15:24:55	15:30:54	355482	601d7cc678b34c000c119699	3	1	main_slash	7	advance_on_keypress_SLASH	138	stimuli_target_trianglesquares.svg	stimuli_distractor_diamondtriangles.svg	22	yes	57	0	433	0	0			0	0			1				0	
6.6.1	win	2023-07-15	15:24:55	15:30:56	357008	601d7cc678b34c000c119699	3	1	main_slash	7	main_slash	139	stimuli_distractor_trianglediamonds.svg	stimuli_target_rectanglediamonds.svg	10	yes	53	1	446	0	0			0	0			1				0	
6.6.1	win	2023-07-15	15:24:55	15:30:56	357008	601d7cc678b34c000c119699	3	1	main_slash	7	advance_on_keypress_SLASH	140	stimuli_distractor_trianglediamonds.svg	stimuli_target_rectanglediamonds.svg	10	yes	57	0	383	0	0			0	0			1				0	
6.6.1	win	2023-07-15	15:24:55	15:30:59	360044	601d7cc678b34c000c119699	3	1	main_slash	7	main_slash	141	stimuli_distractor_trianglediamonds.svg	stimuli_target_diamondsquares.svg	28	yes	0	0	2000	0	0			0	0			1				0	
6.6.1	win	2023-07-15	15:24:55	15:30:59	360044	601d7cc678b34c000c119699	3	1	main_slash	7	advance_on_keypress_SLASH	142	stimuli_distractor_trianglediamonds.svg	stimuli_target_diamondsquares.svg	28	yes	57	0	424	0	0			0	0			1				0	
6.6.1	win	2023-07-15	15:24:55	15:31:01	361562	601d7cc678b34c000c119699	3	1	main_slash	7	main_slash	143	stimuli_target_rectangletriangles.svg	stimuli_distractor_diamondtriangles.svg	5	yes	53	1	451	0	0			0	0			1				0	
6.6.1	win	2023-07-15	15:24:55	15:31:01	361562	601d7cc678b34c000c119699	3	1	main_slash	7	advance_on_keypress_SLASH	144	stimuli_target_rectangletriangles.svg	stimuli_distractor_diamondtriangles.svg	5	yes	57	0	357	0	0			0	0			1				0	
6.6.1	win	2023-07-15	15:24:55	15:31:04	364562	601d7cc678b34c000c119699	3	1	main_slash	7	main_slash	145	stimuli_target_trianglerectangles.svg	stimuli_distractor_diamondtriangles.svg	21	yes	0	0	2000	0	0			0	0			1				0	
6.6.1	win	2023-07-15	15:24:55	15:31:04	364562	601d7cc678b34c000c119699	3	1	main_slash	7	advance_on_keypress_SLASH	146	stimuli_target_trianglerectangles.svg	stimuli_distractor_diamondtriangles.svg	21	yes	57	0	238	0	0			0	0			1				0	
6.6.1	win	2023-07-15	15:24:55	15:31:05	365989	601d7cc678b34c000c119699	3	1	main_slash	7	main_slash	147	stimuli_target_squaretriangles.svg	stimuli_distractor_trianglediamonds.svg	3	yes	53	1	544	0	0			0	0			1				0	
6.6.1	win	2023-07-15	15:24:55	15:31:05	365989	601d7cc678b34c000c119699	3	1	main_slash	7	advance_on_keypress_SLASH	148	stimuli_target_squaretriangles.svg	stimuli_distractor_trianglediamonds.svg	3	yes	57	0	381	0	0			0	0			1				0	
6.6.1	win	2023-07-15	15:24:55	15:31:08	369011	601d7cc678b34c000c119699	3	1	main_slash	7	main_slash	149	stimuli_distractor_diamondtriangles.svg	stimuli_distractor_trianglediamonds.svg	37	no	0	1	2000	0	0			0	0			1				0	
6.6.1	win	2023-07-15	15:24:55	15:31:08	369011	601d7cc678b34c000c119699	3	1	main_slash	7	advance_on_keypress_SLASH	150	stimuli_distractor_diamondtriangles.svg	stimuli_distractor_trianglediamonds.svg	37	no	57	0	275	0	0			0	0			1				0	
6.6.1	win	2023-07-15	15:24:55	15:31:09	370333	601d7cc678b34c000c119699	3	1	main_slash	7	main_slash	151	stimuli_target_rectangletriangles.svg	stimuli_distractor_trianglediamonds.svg	1	yes	53	1	405	0	0			0	0			1				0	
6.6.1	win	2023-07-15	15:24:55	15:31:09	370333	601d7cc678b34c000c119699	3	1	main_slash	7	advance_on_keypress_SLASH	152	stimuli_target_rectangletriangles.svg	stimuli_distractor_trianglediamonds.svg	1	yes	57	0	339	0	0			0	0			1				0	
6.6.1	win	2023-07-15	15:24:55	15:31:12	373311	601d7cc678b34c000c119699	3	1	main_slash	7	main_slash	153	stimuli_distractor_trianglediamonds.svg	stimuli_target_diamondrectangles.svg	27	yes	0	0	2000	0	0			0	0			1				0	
6.6.1	win	2023-07-15	15:24:55	15:31:12	373311	601d7cc678b34c000c119699	3	1	main_slash	7	advance_on_keypress_SLASH	154	stimuli_distractor_trianglediamonds.svg	stimuli_target_diamondrectangles.svg	27	yes	57	0	443	0	0			0	0			1				0	
6.6.1	win	2023-07-15	15:24:55	15:31:15	376394	601d7cc678b34c000c119699	3	1	main_slash	7	main_slash	155	stimuli_distractor_diamondtriangles.svg	stimuli_distractor_diamondtriangles.svg	40	no	0	1	2000	0	0			0	0			1				0	
6.6.1	win	2023-07-15	15:24:55	15:31:15	376394	601d7cc678b34c000c119699	3	1	main_slash	7	advance_on_keypress_SLASH	156	stimuli_distractor_diamondtriangles.svg	stimuli_distractor_diamondtriangles.svg	40	no	57	0	441	0	0			0	0			1				0	
6.6.1	win	2023-07-15	15:24:55	15:31:17	378130	601d7cc678b34c000c119699	3	1	main_slash	7	main_slash	157	stimuli_target_squaretriangles.svg	stimuli_distractor_diamondtriangles.svg	7	yes	53	1	652	0	0			0	0			1				0	
6.6.1	win	2023-07-15	15:24:55	15:31:17	378130	601d7cc678b34c000c119699	3	1	main_slash	7	advance_on_keypress_SLASH	158	stimuli_target_squaretriangles.svg	stimuli_distractor_diamondtriangles.svg	7	yes	57	0	337	0	0			0	0			1				0	
6.6.1	win	2023-07-15	15:24:55	15:31:19	379537	601d7cc678b34c000c119699	3	1	main_slash	7	main_slash	159	stimuli_distractor_diamondtriangles.svg	stimuli_target_rectanglediamonds.svg	14	yes	53	1	425	0	0			0	0			1				0	
6.6.1	win	2023-07-15	15:24:55	15:31:19	379537	601d7cc678b34c000c119699	3	1	main_slash	7	advance_on_keypress_SLASH	160	stimuli_distractor_diamondtriangles.svg	stimuli_target_rectanglediamonds.svg	14	yes	57	0	344	0	0			0	0			1				0	
6.6.1	win	2023-07-15	15:24:55	15:31:42	402657	601d7cc678b34c000c119699	3	1	practice_z	9	practice_z	1	stimuli_target_rectanglediamonds.svg	stimuli_distractor_diamondtriangles.svg	1	yes	44	1	679	0	0			0	0			1				0	
6.6.1	win	2023-07-15	15:24:55	15:31:42	402657	601d7cc678b34c000c119699	3	1	practice_z	9	advance_on_keypress_ZEE	2	stimuli_target_rectanglediamonds.svg	stimuli_distractor_diamondtriangles.svg	1	yes	57	0	479	0	0			0	0			1				0	
6.6.1	win	2023-07-15	15:24:55	15:31:45	405530	601d7cc678b34c000c119699	3	1	practice_z	9	practice_z	3	stimuli_distractor_diamondtriangles.svg	stimuli_target_trianglerectangles.svg	9	yes	44	1	736	0	0			0	0			1				0	
6.6.1	win	2023-07-15	15:24:55	15:31:45	405530	601d7cc678b34c000c119699	3	1	practice_z	9	advance_on_keypress_ZEE	4	stimuli_distractor_diamondtriangles.svg	stimuli_target_trianglerectangles.svg	9	yes	57	0	463	0	0			0	0			1				0	
6.6.1	win	2023-07-15	15:24:55	15:31:49	409645	601d7cc678b34c000c119699	3	1	practice_z	9	practice_z	5	stimuli_distractor_diamondtriangles.svg	stimuli_distractor_trianglediamonds.svg	14	no	0	1	2000	0	0			0	0			1				0	
6.6.1	win	2023-07-15	15:24:55	15:31:49	409645	601d7cc678b34c000c119699	3	1	practice_z	9	advance_on_keypress_ZEE	6	stimuli_distractor_diamondtriangles.svg	stimuli_distractor_trianglediamonds.svg	14	no	57	0	577	0	0			0	0			1				0	
6.6.1	win	2023-07-15	15:24:55	15:31:53	413861	601d7cc678b34c000c119699	3	1	practice_z	9	practice_z	7	stimuli_distractor_trianglediamonds.svg	stimuli_distractor_diamondtriangles.svg	16	no	0	1	2000	0	0			0	0			1				0	
6.6.1	win	2023-07-15	15:24:55	15:31:53	413861	601d7cc678b34c000c119699	3	1	practice_z	9	advance_on_keypress_ZEE	8	stimuli_distractor_trianglediamonds.svg	stimuli_distractor_diamondtriangles.svg	16	no	57	0	495	0	0			0	0			1				0	
6.6.1	win	2023-07-15	15:24:55	15:31:57	417995	601d7cc678b34c000c119699	3	1	practice_z	9	practice_z	9	stimuli_distractor_trianglediamonds.svg	stimuli_distractor_trianglediamonds.svg	15	no	0	1	2000	0	0			0	0			1				0	
6.6.1	win	2023-07-15	15:24:55	15:31:57	417995	601d7cc678b34c000c119699	3	1	practice_z	9	advance_on_keypress_ZEE	10	stimuli_distractor_trianglediamonds.svg	stimuli_distractor_trianglediamonds.svg	15	no	57	0	261	0	0			0	0			1				0	
6.6.1	win	2023-07-15	15:24:55	15:31:59	420460	601d7cc678b34c000c119699	3	1	practice_z	9	practice_z	11	stimuli_target_diamondsquares.svg	stimuli_distractor_trianglediamonds.svg	6	yes	44	1	565	0	0			0	0			1				0	
6.6.1	win	2023-07-15	15:24:55	15:31:59	420460	601d7cc678b34c000c119699	3	1	practice_z	9	advance_on_keypress_ZEE	12	stimuli_target_diamondsquares.svg	stimuli_distractor_trianglediamonds.svg	6	yes	57	0	458	0	0			0	0			1				0	
6.6.1	win	2023-07-15	15:24:55	15:32:02	422982	601d7cc678b34c000c119699	3	1	practice_z	9	practice_z	13	stimuli_target_diamondsquares.svg	stimuli_distractor_diamondtriangles.svg	3	yes	44	1	421	0	0			0	0			1				0	
6.6.1	win	2023-07-15	15:24:55	15:32:02	422982	601d7cc678b34c000c119699	3	1	practice_z	9	advance_on_keypress_ZEE	14	stimuli_target_diamondsquares.svg	stimuli_distractor_diamondtriangles.svg	3	yes	57	0	472	0	0			0	0			1				0	
6.6.1	win	2023-07-15	15:24:55	15:32:06	427095	601d7cc678b34c000c119699	3	1	practice_z	9	practice_z	15	stimuli_distractor_diamondtriangles.svg	stimuli_distractor_diamondtriangles.svg	13	no	0	1	2000	0	0			0	0			1				0	
6.6.1	win	2023-07-15	15:24:55	15:32:06	427095	601d7cc678b34c000c119699	3	1	practice_z	9	advance_on_keypress_ZEE	16	stimuli_distractor_diamondtriangles.svg	stimuli_distractor_diamondtriangles.svg	13	no	57	0	286	0	0			0	0			1				0	
6.6.1	win	2023-07-15	15:24:55	15:32:09	429662	601d7cc678b34c000c119699	3	1	practice_z	9	practice_z	17	stimuli_distractor_trianglediamonds.svg	stimuli_target_diamondrectangles.svg	12	yes	44	1	634	0	0			0	0			1				0	
6.6.1	win	2023-07-15	15:24:55	15:32:09	429662	601d7cc678b34c000c119699	3	1	practice_z	9	advance_on_keypress_ZEE	18	stimuli_distractor_trianglediamonds.svg	stimuli_target_diamondrectangles.svg	12	yes	57	0	473	0	0			0	0			1				0	
6.6.1	win	2023-07-15	15:24:55	15:32:11	432223	601d7cc678b34c000c119699	3	1	practice_z	9	practice_z	19	stimuli_distractor_diamondtriangles.svg	stimuli_target_diamondrectangles.svg	8	yes	44	1	445	0	0			0	0			1				0	
6.6.1	win	2023-07-15	15:24:55	15:32:11	432223	601d7cc678b34c000c119699	3	1	practice_z	9	advance_on_keypress_ZEE	20	stimuli_distractor_diamondtriangles.svg	stimuli_target_diamondrectangles.svg	8	yes	57	0	234	0	0			0	0			1				0	
6.6.1	win	2023-07-15	15:24:55	15:32:14	434601	601d7cc678b34c000c119699	3	1	practice_z	9	practice_z	21	stimuli_distractor_trianglediamonds.svg	stimuli_target_rectanglediamonds.svg	10	yes	44	1	490	0	0			0	0			1				0	
6.6.1	win	2023-07-15	15:24:55	15:32:14	434601	601d7cc678b34c000c119699	3	1	practice_z	9	advance_on_keypress_ZEE	22	stimuli_distractor_trianglediamonds.svg	stimuli_target_rectanglediamonds.svg	10	yes	57	0	241	0	0			0	0			1				0	
6.6.1	win	2023-07-15	15:24:55	15:32:16	436966	601d7cc678b34c000c119699	3	1	practice_z	9	practice_z	23	stimuli_distractor_diamondtriangles.svg	stimuli_target_rectangletriangles.svg	7	yes	44	1	488	0	0			0	0			1				0	
6.6.1	win	2023-07-15	15:24:55	15:32:16	436966	601d7cc678b34c000c119699	3	1	practice_z	9	advance_on_keypress_ZEE	24	stimuli_distractor_diamondtriangles.svg	stimuli_target_rectangletriangles.svg	7	yes	57	0	434	0	0			0	0			1				0	
6.6.1	win	2023-07-15	15:24:55	15:32:19	439508	601d7cc678b34c000c119699	3	1	practice_z	9	practice_z	25	stimuli_distractor_trianglediamonds.svg	stimuli_target_squarediamonds.svg	11	yes	44	1	463	0	0			0	0			1				0	
6.6.1	win	2023-07-15	15:24:55	15:32:19	439508	601d7cc678b34c000c119699	3	1	practice_z	9	advance_on_keypress_ZEE	26	stimuli_distractor_trianglediamonds.svg	stimuli_target_squarediamonds.svg	11	yes	57	0	330	0	0			0	0			1				0	
6.6.1	win	2023-07-15	15:24:55	15:32:21	441981	601d7cc678b34c000c119699	3	1	practice_z	9	practice_z	27	stimuli_target_rectanglediamonds.svg	stimuli_distractor_trianglediamonds.svg	4	yes	44	1	486	0	0			0	0			1				0	
6.6.1	win	2023-07-15	15:24:55	15:32:21	441981	601d7cc678b34c000c119699	3	1	practice_z	9	advance_on_keypress_ZEE	28	stimuli_target_rectanglediamonds.svg	stimuli_distractor_trianglediamonds.svg	4	yes	57	0	413	0	0			0	0			1				0	
6.6.1	win	2023-07-15	15:24:55	15:32:23	444453	601d7cc678b34c000c119699	3	1	practice_z	9	practice_z	29	stimuli_target_squarediamonds.svg	stimuli_distractor_diamondtriangles.svg	2	yes	44	1	409	0	0			0	0			1				0	
6.6.1	win	2023-07-15	15:24:55	15:32:23	444453	601d7cc678b34c000c119699	3	1	practice_z	9	advance_on_keypress_ZEE	30	stimuli_target_squarediamonds.svg	stimuli_distractor_diamondtriangles.svg	2	yes	57	0	369	0	0			0	0			1				0	
6.6.1	win	2023-07-15	15:24:55	15:32:26	446854	601d7cc678b34c000c119699	3	1	practice_z	9	practice_z	31	stimuli_target_squarediamonds.svg	stimuli_distractor_trianglediamonds.svg	5	yes	44	1	393	0	0			0	0			1				0	
6.6.1	win	2023-07-15	15:24:55	15:32:26	446854	601d7cc678b34c000c119699	3	1	practice_z	9	advance_on_keypress_ZEE	32	stimuli_target_squarediamonds.svg	stimuli_distractor_trianglediamonds.svg	5	yes	57	0	271	0	0			0	0			1				0	
6.6.1	win	2023-07-15	15:24:55	15:32:35	455894	601d7cc678b34c000c119699	3	1	main_z	11	main_z	1	stimuli_distractor_trianglediamonds.svg	stimuli_distractor_diamondtriangles.svg	35	no	0	1	2000	0	0			0	0			1				0	
6.6.1	win	2023-07-15	15:24:55	15:32:35	455894	601d7cc678b34c000c119699	3	1	main_z	11	advance_on_keypress_ZEE	2	stimuli_distractor_trianglediamonds.svg	stimuli_distractor_diamondtriangles.svg	35	no	57	0	254	0	0			0	0			1				0	
6.6.1	win	2023-07-15	15:24:55	15:32:36	457231	601d7cc678b34c000c119699	3	1	main_z	11	main_z	3	stimuli_distractor_trianglediamonds.svg	stimuli_target_diamondrectangles.svg	27	yes	44	1	436	0	0			0	0			1				0	
6.6.1	win	2023-07-15	15:24:55	15:32:36	457231	601d7cc678b34c000c119699	3	1	main_z	11	advance_on_keypress_ZEE	4	stimuli_distractor_trianglediamonds.svg	stimuli_target_diamondrectangles.svg	27	yes	57	0	420	0	0			0	0			1				0	
6.6.1	win	2023-07-15	15:24:55	15:32:39	460294	601d7cc678b34c000c119699	3	1	main_z	11	main_z	5	stimuli_distractor_trianglediamonds.svg	stimuli_distractor_trianglediamonds.svg	33	no	0	1	2000	0	0			0	0			1				0	
6.6.1	win	2023-07-15	15:24:55	15:32:39	460294	601d7cc678b34c000c119699	3	1	main_z	11	advance_on_keypress_ZEE	6	stimuli_distractor_trianglediamonds.svg	stimuli_distractor_trianglediamonds.svg	33	no	57	0	363	0	0			0	0			1				0	
6.6.1	win	2023-07-15	15:24:55	15:32:41	462035	601d7cc678b34c000c119699	3	1	main_z	11	main_z	7	stimuli_distractor_diamondtriangles.svg	stimuli_target_squaretriangles.svg	15	yes	44	1	740	0	0			0	0			1				0	
6.6.1	win	2023-07-15	15:24:55	15:32:41	462035	601d7cc678b34c000c119699	3	1	main_z	11	advance_on_keypress_ZEE	8	stimuli_distractor_diamondtriangles.svg	stimuli_target_squaretriangles.svg	15	yes	57	0	593	0	0			0	0			1				0	
6.6.1	win	2023-07-15	15:24:55	15:32:44	465261	601d7cc678b34c000c119699	3	1	main_z	11	main_z	9	stimuli_target_trianglerectangles.svg	stimuli_distractor_trianglediamonds.svg	17	yes	0	0	2000	0	0			0	0			1				0	
6.6.1	win	2023-07-15	15:24:55	15:32:44	465261	601d7cc678b34c000c119699	3	1	main_z	11	advance_on_keypress_ZEE	10	stimuli_target_trianglerectangles.svg	stimuli_distractor_trianglediamonds.svg	17	yes	57	0	274	0	0			0	0			1				0	
6.6.1	win	2023-07-15	15:24:55	15:32:46	466618	601d7cc678b34c000c119699	3	1	main_z	11	main_z	11	stimuli_target_diamondsquares.svg	stimuli_distractor_trianglediamonds.svg	20	yes	44	1	440	0	0			0	0			1				0	
6.6.1	win	2023-07-15	15:24:55	15:32:46	466618	601d7cc678b34c000c119699	3	1	main_z	11	advance_on_keypress_ZEE	12	stimuli_target_diamondsquares.svg	stimuli_distractor_trianglediamonds.svg	20	yes	57	0	3016	0	0			0	0			1				0	
6.6.1	win	2023-07-15	15:24:55	15:32:50	470739	601d7cc678b34c000c119699	3	1	main_z	11	main_z	13	stimuli_target_diamondrectangles.svg	stimuli_distractor_trianglediamonds.svg	19	yes	44	1	462	0	0			0	0			1				0	
6.6.1	win	2023-07-15	15:24:55	15:32:50	470739	601d7cc678b34c000c119699	3	1	main_z	11	advance_on_keypress_ZEE	14	stimuli_target_diamondrectangles.svg	stimuli_distractor_trianglediamonds.svg	19	yes	57	0	438	0	0			0	0			1				0	
6.6.1	win	2023-07-15	15:24:55	15:32:53	473828	601d7cc678b34c000c119699	3	1	main_z	11	main_z	15	stimuli_distractor_diamondtriangles.svg	stimuli_distractor_trianglediamonds.svg	37	no	0	1	2000	0	0			0	0			1				0	
6.6.1	win	2023-07-15	15:24:55	15:32:53	473828	601d7cc678b34c000c119699	3	1	main_z	11	advance_on_keypress_ZEE	16	stimuli_distractor_diamondtriangles.svg	stimuli_distractor_trianglediamonds.svg	37	no	57	0	190	0	0			0	0			1				0	
6.6.1	win	2023-07-15	15:24:55	15:32:54	475180	601d7cc678b34c000c119699	3	1	main_z	11	main_z	17	stimuli_target_rectanglediamonds.svg	stimuli_distractor_trianglediamonds.svg	2	yes	44	1	519	0	0			0	0			1				0	
6.6.1	win	2023-07-15	15:24:55	15:32:54	475180	601d7cc678b34c000c119699	3	1	main_z	11	advance_on_keypress_ZEE	18	stimuli_target_rectanglediamonds.svg	stimuli_distractor_trianglediamonds.svg	2	yes	57	0	496	0	0			0	0			1				0	
6.6.1	win	2023-07-15	15:24:55	15:32:56	477099	601d7cc678b34c000c119699	3	1	main_z	11	main_z	19	stimuli_target_squaretriangles.svg	stimuli_distractor_diamondtriangles.svg	7	yes	44	1	787	0	0			0	0			1				0	
6.6.1	win	2023-07-15	15:24:55	15:32:56	477099	601d7cc678b34c000c119699	3	1	main_z	11	advance_on_keypress_ZEE	20	stimuli_target_squaretriangles.svg	stimuli_distractor_diamondtriangles.svg	7	yes	57	0	349	0	0			0	0			1				0	
6.6.1	win	2023-07-15	15:24:55	15:32:59	480094	601d7cc678b34c000c119699	3	1	main_z	11	main_z	21	stimuli_distractor_trianglediamonds.svg	stimuli_distractor_diamondtriangles.svg	36	no	0	1	2000	0	0			0	0			1				0	
6.6.1	win	2023-07-15	15:24:55	15:32:59	480094	601d7cc678b34c000c119699	3	1	main_z	11	advance_on_keypress_ZEE	22	stimuli_distractor_trianglediamonds.svg	stimuli_distractor_diamondtriangles.svg	36	no	57	0	232	0	0			0	0			1				0	
6.6.1	win	2023-07-15	15:24:55	15:33:01	481559	601d7cc678b34c000c119699	3	1	main_z	11	main_z	23	stimuli_target_trianglesquares.svg	stimuli_distractor_trianglediamonds.svg	18	yes	44	1	582	0	0			0	0			1				0	
6.6.1	win	2023-07-15	15:24:55	15:33:01	481559	601d7cc678b34c000c119699	3	1	main_z	11	advance_on_keypress_ZEE	24	stimuli_target_trianglesquares.svg	stimuli_distractor_trianglediamonds.svg	18	yes	57	0	668	0	0			0	0			1				0	
6.6.1	win	2023-07-15	15:24:55	15:33:04	484878	601d7cc678b34c000c119699	3	1	main_z	11	main_z	25	stimuli_distractor_diamondtriangles.svg	stimuli_distractor_diamondtriangles.svg	39	no	0	1	2000	0	0			0	0			1				0	
6.6.1	win	2023-07-15	15:24:55	15:33:04	484878	601d7cc678b34c000c119699	3	1	main_z	11	advance_on_keypress_ZEE	26	stimuli_distractor_diamondtriangles.svg	stimuli_distractor_diamondtriangles.svg	39	no	57	0	454	0	0			0	0			1				0	
6.6.1	win	2023-07-15	15:24:55	15:33:06	486569	601d7cc678b34c000c119699	3	1	main_z	11	main_z	27	stimuli_target_trianglesquares.svg	stimuli_distractor_diamondtriangles.svg	22	yes	44	1	592	0	0			0	0			1				0	
6.6.1	win	2023-07-15	15:24:55	15:33:06	486569	601d7cc678b34c000c119699	3	1	main_z	11	advance_on_keypress_ZEE	28	stimuli_target_trianglesquares.svg	stimuli_distractor_diamondtriangles.svg	22	yes	57	0	449	0	0			0	0			1				0	
6.6.1	win	2023-07-15	15:24:55	15:33:07	488250	601d7cc678b34c000c119699	3	1	main_z	11	main_z	29	stimuli_distractor_trianglediamonds.svg	stimuli_target_squarediamonds.svg	12	yes	44	1	606	0	0			0	0			1				0	
6.6.1	win	2023-07-15	15:24:55	15:33:07	488250	601d7cc678b34c000c119699	3	1	main_z	11	advance_on_keypress_ZEE	30	stimuli_distractor_trianglediamonds.svg	stimuli_target_squarediamonds.svg	12	yes	57	0	300	0	0			0	0			1				0	
6.6.1	win	2023-07-15	15:24:55	15:33:09	489711	601d7cc678b34c000c119699	3	1	main_z	11	main_z	31	stimuli_target_diamondrectangles.svg	stimuli_distractor_diamondtriangles.svg	23	yes	44	1	504	0	0			0	0			1				0	
6.6.1	win	2023-07-15	15:24:55	15:33:09	489711	601d7cc678b34c000c119699	3	1	main_z	11	advance_on_keypress_ZEE	32	stimuli_target_diamondrectangles.svg	stimuli_distractor_diamondtriangles.svg	23	yes	57	0	331	0	0			0	0			1				0	
6.6.1	win	2023-07-15	15:24:55	15:33:11	491598	601d7cc678b34c000c119699	3	1	main_z	11	main_z	33	stimuli_distractor_trianglediamonds.svg	stimuli_target_trianglesquares.svg	26	yes	44	1	921	0	0			0	0			1				0	
6.6.1	win	2023-07-15	15:24:55	15:33:11	491598	601d7cc678b34c000c119699	3	1	main_z	11	advance_on_keypress_ZEE	34	stimuli_distractor_trianglediamonds.svg	stimuli_target_trianglesquares.svg	26	yes	57	0	298	0	0			0	0			1				0	
6.6.1	win	2023-07-15	15:24:55	15:33:12	493005	601d7cc678b34c000c119699	3	1	main_z	11	main_z	35	stimuli_distractor_trianglediamonds.svg	stimuli_target_diamondsquares.svg	28	yes	44	1	478	0	0			0	0			1				0	
6.6.1	win	2023-07-15	15:24:55	15:33:12	493005	601d7cc678b34c000c119699	3	1	main_z	11	advance_on_keypress_ZEE	36	stimuli_distractor_trianglediamonds.svg	stimuli_target_diamondsquares.svg	28	yes	57	0	334	0	0			0	0			1				0	
6.6.1	win	2023-07-15	15:24:55	15:33:14	494520	601d7cc678b34c000c119699	3	1	main_z	11	main_z	37	stimuli_distractor_diamondtriangles.svg	stimuli_target_trianglesquares.svg	30	yes	44	1	526	0	0			0	0			1				0	
6.6.1	win	2023-07-15	15:24:55	15:33:14	494520	601d7cc678b34c000c119699	3	1	main_z	11	advance_on_keypress_ZEE	38	stimuli_distractor_diamondtriangles.svg	stimuli_target_trianglesquares.svg	30	yes	57	0	454	0	0			0	0			1				0	
6.6.1	win	2023-07-15	15:24:55	15:33:15	496462	601d7cc678b34c000c119699	3	1	main_z	11	main_z	39	stimuli_target_squaretriangles.svg	stimuli_distractor_trianglediamonds.svg	3	yes	44	1	851	0	0			0	0			1				0	
6.6.1	win	2023-07-15	15:24:55	15:33:15	496462	601d7cc678b34c000c119699	3	1	main_z	11	advance_on_keypress_ZEE	40	stimuli_target_squaretriangles.svg	stimuli_distractor_trianglediamonds.svg	3	yes	57	0	447	0	0			0	0			1				0	
6.6.1	win	2023-07-15	15:24:55	15:33:19	499544	601d7cc678b34c000c119699	3	1	main_z	11	main_z	41	stimuli_target_trianglerectangles.svg	stimuli_distractor_diamondtriangles.svg	21	yes	0	0	2000	0	0			0	0			1				0	
6.6.1	win	2023-07-15	15:24:55	15:33:19	499544	601d7cc678b34c000c119699	3	1	main_z	11	advance_on_keypress_ZEE	42	stimuli_target_trianglerectangles.svg	stimuli_distractor_diamondtriangles.svg	21	yes	57	0	276	0	0			0	0			1				0	
6.6.1	win	2023-07-15	15:24:55	15:33:21	502461	601d7cc678b34c000c119699	3	1	main_z	11	main_z	43	stimuli_distractor_trianglediamonds.svg	stimuli_distractor_trianglediamonds.svg	34	no	0	1	2000	0	0			0	0			1				0	
6.6.1	win	2023-07-15	15:24:55	15:33:21	502461	601d7cc678b34c000c119699	3	1	main_z	11	advance_on_keypress_ZEE	44	stimuli_distractor_trianglediamonds.svg	stimuli_distractor_trianglediamonds.svg	34	no	57	0	299	0	0			0	0			1				0	
6.6.1	win	2023-07-15	15:24:55	15:33:23	503893	601d7cc678b34c000c119699	3	1	main_z	11	main_z	45	stimuli_target_rectangletriangles.svg	stimuli_distractor_diamondtriangles.svg	5	yes	44	1	481	0	0			0	0			1				0	
6.6.1	win	2023-07-15	15:24:55	15:33:23	503893	601d7cc678b34c000c119699	3	1	main_z	11	advance_on_keypress_ZEE	46	stimuli_target_rectangletriangles.svg	stimuli_distractor_diamondtriangles.svg	5	yes	57	0	511	0	0			0	0			1				0	
6.6.1	win	2023-07-15	15:24:55	15:33:25	505664	601d7cc678b34c000c119699	3	1	main_z	11	main_z	47	stimuli_distractor_diamondtriangles.svg	stimuli_target_diamondsquares.svg	32	yes	44	1	619	0	0			0	0			1				0	
6.6.1	win	2023-07-15	15:24:55	15:33:25	505664	601d7cc678b34c000c119699	3	1	main_z	11	advance_on_keypress_ZEE	48	stimuli_distractor_diamondtriangles.svg	stimuli_target_diamondsquares.svg	32	yes	57	0	596	0	0			0	0			1				0	
6.6.1	win	2023-07-15	15:24:55	15:33:26	507481	601d7cc678b34c000c119699	3	1	main_z	11	main_z	49	stimuli_target_rectanglediamonds.svg	stimuli_distractor_diamondtriangles.svg	6	yes	44	1	587	0	0			0	0			1				0	
6.6.1	win	2023-07-15	15:24:55	15:33:26	507481	601d7cc678b34c000c119699	3	1	main_z	11	advance_on_keypress_ZEE	50	stimuli_target_rectanglediamonds.svg	stimuli_distractor_diamondtriangles.svg	6	yes	57	0	427	0	0			0	0			1				0	
6.6.1	win	2023-07-15	15:24:55	15:33:30	510544	601d7cc678b34c000c119699	3	1	main_z	11	main_z	51	stimuli_distractor_diamondtriangles.svg	stimuli_target_trianglerectangles.svg	29	yes	0	0	2000	0	0			0	0			1				0	
6.6.1	win	2023-07-15	15:24:55	15:33:30	510544	601d7cc678b34c000c119699	3	1	main_z	11	advance_on_keypress_ZEE	52	stimuli_distractor_diamondtriangles.svg	stimuli_target_trianglerectangles.svg	29	yes	57	0	314	0	0			0	0			1				0	
6.6.1	win	2023-07-15	15:24:55	15:33:31	512242	601d7cc678b34c000c119699	3	1	main_z	11	main_z	53	stimuli_distractor_diamondtriangles.svg	stimuli_target_diamondrectangles.svg	31	yes	44	1	748	0	0			0	0			1				0	
6.6.1	win	2023-07-15	15:24:55	15:33:31	512242	601d7cc678b34c000c119699	3	1	main_z	11	advance_on_keypress_ZEE	54	stimuli_distractor_diamondtriangles.svg	stimuli_target_diamondrectangles.svg	31	yes	57	0	493	0	0			0	0			1				0	
6.6.1	win	2023-07-15	15:24:55	15:33:33	513998	601d7cc678b34c000c119699	3	1	main_z	11	main_z	55	stimuli_target_squarediamonds.svg	stimuli_distractor_diamondtriangles.svg	8	yes	44	1	620	0	0			0	0			1				0	
6.6.1	win	2023-07-15	15:24:55	15:33:33	513998	601d7cc678b34c000c119699	3	1	main_z	11	advance_on_keypress_ZEE	56	stimuli_target_squarediamonds.svg	stimuli_distractor_diamondtriangles.svg	8	yes	57	0	381	0	0			0	0			1				0	
6.6.1	win	2023-07-15	15:24:55	15:33:34	515488	601d7cc678b34c000c119699	3	1	main_z	11	main_z	57	stimuli_distractor_trianglediamonds.svg	stimuli_target_rectangletriangles.svg	9	yes	44	1	477	0	0			0	0			1				0	
6.6.1	win	2023-07-15	15:24:55	15:33:34	515488	601d7cc678b34c000c119699	3	1	main_z	11	advance_on_keypress_ZEE	58	stimuli_distractor_trianglediamonds.svg	stimuli_target_rectangletriangles.svg	9	yes	57	0	436	0	0			0	0			1				0	
6.6.1	win	2023-07-15	15:24:55	15:33:36	517066	601d7cc678b34c000c119699	3	1	main_z	11	main_z	59	stimuli_distractor_trianglediamonds.svg	stimuli_target_rectanglediamonds.svg	10	yes	44	1	488	0	0			0	0			1				0	
6.6.1	win	2023-07-15	15:24:55	15:33:36	517066	601d7cc678b34c000c119699	3	1	main_z	11	advance_on_keypress_ZEE	60	stimuli_distractor_trianglediamonds.svg	stimuli_target_rectanglediamonds.svg	10	yes	57	0	372	0	0			0	0			1				0	
6.6.1	win	2023-07-15	15:24:55	15:33:38	518520	601d7cc678b34c000c119699	3	1	main_z	11	main_z	61	stimuli_target_squarediamonds.svg	stimuli_distractor_trianglediamonds.svg	4	yes	44	1	443	0	0			0	0			1				0	
6.6.1	win	2023-07-15	15:24:55	15:33:38	518520	601d7cc678b34c000c119699	3	1	main_z	11	advance_on_keypress_ZEE	62	stimuli_target_squarediamonds.svg	stimuli_distractor_trianglediamonds.svg	4	yes	57	0	348	0	0			0	0			1				0	
6.6.1	win	2023-07-15	15:24:55	15:33:40	521495	601d7cc678b34c000c119699	3	1	main_z	11	main_z	63	stimuli_distractor_diamondtriangles.svg	stimuli_distractor_diamondtriangles.svg	40	no	0	1	2000	0	0			0	0			1				0	
6.6.1	win	2023-07-15	15:24:55	15:33:40	521495	601d7cc678b34c000c119699	3	1	main_z	11	advance_on_keypress_ZEE	64	stimuli_distractor_diamondtriangles.svg	stimuli_distractor_diamondtriangles.svg	40	no	57	0	1001	0	0			0	0			1				0	
6.6.1	win	2023-07-15	15:24:55	15:33:43	523728	601d7cc678b34c000c119699	3	1	main_z	11	main_z	65	stimuli_distractor_diamondtriangles.svg	stimuli_target_squarediamonds.svg	16	yes	44	1	584	0	0			0	0			1				0	
6.6.1	win	2023-07-15	15:24:55	15:33:43	523728	601d7cc678b34c000c119699	3	1	main_z	11	advance_on_keypress_ZEE	66	stimuli_distractor_diamondtriangles.svg	stimuli_target_squarediamonds.svg	16	yes	57	0	325	0	0			0	0			1				0	
6.6.1	win	2023-07-15	15:24:55	15:33:44	525211	601d7cc678b34c000c119699	3	1	main_z	11	main_z	67	stimuli_distractor_diamondtriangles.svg	stimuli_target_rectanglediamonds.svg	14	yes	44	1	510	0	0			0	0			1				0	
6.6.1	win	2023-07-15	15:24:55	15:33:44	525211	601d7cc678b34c000c119699	3	1	main_z	11	advance_on_keypress_ZEE	68	stimuli_distractor_diamondtriangles.svg	stimuli_target_rectanglediamonds.svg	14	yes	57	0	360	0	0			0	0			1				0	
6.6.1	win	2023-07-15	15:24:55	15:33:46	526727	601d7cc678b34c000c119699	3	1	main_z	11	main_z	69	stimuli_target_rectangletriangles.svg	stimuli_distractor_trianglediamonds.svg	1	yes	44	1	502	0	0			0	0			1				0	
6.6.1	win	2023-07-15	15:24:55	15:33:46	526727	601d7cc678b34c000c119699	3	1	main_z	11	advance_on_keypress_ZEE	70	stimuli_target_rectangletriangles.svg	stimuli_distractor_trianglediamonds.svg	1	yes	57	0	302	0	0			0	0			1				0	
6.6.1	win	2023-07-15	15:24:55	15:33:49	529678	601d7cc678b34c000c119699	3	1	main_z	11	main_z	71	stimuli_distractor_trianglediamonds.svg	stimuli_target_trianglerectangles.svg	25	yes	0	0	2000	0	0			0	0			1				0	
6.6.1	win	2023-07-15	15:24:55	15:33:49	529678	601d7cc678b34c000c119699	3	1	main_z	11	advance_on_keypress_ZEE	72	stimuli_distractor_trianglediamonds.svg	stimuli_target_trianglerectangles.svg	25	yes	57	0	645	0	0			0	0			1				0	
6.6.1	win	2023-07-15	15:24:55	15:33:51	531536	601d7cc678b34c000c119699	3	1	main_z	11	main_z	73	stimuli_distractor_trianglediamonds.svg	stimuli_target_squaretriangles.svg	11	yes	44	1	575	0	0			0	0			1				0	
6.6.1	win	2023-07-15	15:24:55	15:33:51	531536	601d7cc678b34c000c119699	3	1	main_z	11	advance_on_keypress_ZEE	74	stimuli_distractor_trianglediamonds.svg	stimuli_target_squaretriangles.svg	11	yes	57	0	302	0	0			0	0			1				0	
6.6.1	win	2023-07-15	15:24:55	15:33:53	534478	601d7cc678b34c000c119699	3	1	main_z	11	main_z	75	stimuli_distractor_diamondtriangles.svg	stimuli_distractor_trianglediamonds.svg	38	no	0	1	2000	0	0			0	0			1				0	
6.6.1	win	2023-07-15	15:24:55	15:33:53	534478	601d7cc678b34c000c119699	3	1	main_z	11	advance_on_keypress_ZEE	76	stimuli_distractor_diamondtriangles.svg	stimuli_distractor_trianglediamonds.svg	38	no	57	0	699	0	0			0	0			1				0	
6.6.1	win	2023-07-15	15:24:55	15:33:55	536228	601d7cc678b34c000c119699	3	1	main_z	11	main_z	77	stimuli_distractor_diamondtriangles.svg	stimuli_target_rectangletriangles.svg	13	yes	44	1	401	0	0			0	0			1				0	
6.6.1	win	2023-07-15	15:24:55	15:33:55	536228	601d7cc678b34c000c119699	3	1	main_z	11	advance_on_keypress_ZEE	78	stimuli_distractor_diamondtriangles.svg	stimuli_target_rectangletriangles.svg	13	yes	57	0	224	0	0			0	0			1				0	
6.6.1	win	2023-07-15	15:24:55	15:33:57	537691	601d7cc678b34c000c119699	3	1	main_z	11	main_z	79	stimuli_target_diamondsquares.svg	stimuli_distractor_diamondtriangles.svg	24	yes	44	1	596	0	0			0	0			1				0	
6.6.1	win	2023-07-15	15:24:55	15:33:57	537691	601d7cc678b34c000c119699	3	1	main_z	11	advance_on_keypress_ZEE	80	stimuli_target_diamondsquares.svg	stimuli_distractor_diamondtriangles.svg	24	yes	57	0	294	0	0			0	0			1				0	
6.6.1	win	2023-07-15	15:24:55	15:33:58	539073	601d7cc678b34c000c119699	3	1	main_z	11	main_z	81	stimuli_target_diamondsquares.svg	stimuli_distractor_trianglediamonds.svg	20	yes	44	1	446	0	0			0	0			1				0	
6.6.1	win	2023-07-15	15:24:55	15:33:58	539073	601d7cc678b34c000c119699	3	1	main_z	11	advance_on_keypress_ZEE	82	stimuli_target_diamondsquares.svg	stimuli_distractor_trianglediamonds.svg	20	yes	57	0	310	0	0			0	0			1				0	
6.6.1	win	2023-07-15	15:24:55	15:34:00	540800	601d7cc678b34c000c119699	3	1	main_z	11	main_z	83	stimuli_distractor_trianglediamonds.svg	stimuli_target_diamondsquares.svg	28	yes	44	1	773	0	0			0	0			1				0	
6.6.1	win	2023-07-15	15:24:55	15:34:00	540800	601d7cc678b34c000c119699	3	1	main_z	11	advance_on_keypress_ZEE	84	stimuli_distractor_trianglediamonds.svg	stimuli_target_diamondsquares.svg	28	yes	57	0	322	0	0			0	0			1				0	
6.6.1	win	2023-07-15	15:24:55	15:34:03	543761	601d7cc678b34c000c119699	3	1	main_z	11	main_z	85	stimuli_distractor_diamondtriangles.svg	stimuli_distractor_diamondtriangles.svg	40	no	0	1	2000	0	0			0	0			1				0	
6.6.1	win	2023-07-15	15:24:55	15:34:03	543761	601d7cc678b34c000c119699	3	1	main_z	11	advance_on_keypress_ZEE	86	stimuli_distractor_diamondtriangles.svg	stimuli_distractor_diamondtriangles.svg	40	no	57	0	590	0	0			0	0			1				0	
6.6.1	win	2023-07-15	15:24:55	15:34:04	545411	601d7cc678b34c000c119699	3	1	main_z	11	main_z	87	stimuli_target_rectangletriangles.svg	stimuli_distractor_trianglediamonds.svg	1	yes	44	1	417	0	0			0	0			1				0	
6.6.1	win	2023-07-15	15:24:55	15:34:04	545411	601d7cc678b34c000c119699	3	1	main_z	11	advance_on_keypress_ZEE	88	stimuli_target_rectangletriangles.svg	stimuli_distractor_trianglediamonds.svg	1	yes	57	0	317	0	0			0	0			1				0	
6.6.1	win	2023-07-15	15:24:55	15:34:06	546899	601d7cc678b34c000c119699	3	1	main_z	11	main_z	89	stimuli_target_rectangletriangles.svg	stimuli_distractor_diamondtriangles.svg	5	yes	44	1	520	0	0			0	0			1				0	
6.6.1	win	2023-07-15	15:24:55	15:34:06	546899	601d7cc678b34c000c119699	3	1	main_z	11	advance_on_keypress_ZEE	90	stimuli_target_rectangletriangles.svg	stimuli_distractor_diamondtriangles.svg	5	yes	57	0	547	0	0			0	0			1				0	
6.6.1	win	2023-07-15	15:24:55	15:34:09	550078	601d7cc678b34c000c119699	3	1	main_z	11	main_z	91	stimuli_distractor_trianglediamonds.svg	stimuli_distractor_diamondtriangles.svg	35	no	0	1	2000	0	0			0	0			1				0	
6.6.1	win	2023-07-15	15:24:55	15:34:09	550078	601d7cc678b34c000c119699	3	1	main_z	11	advance_on_keypress_ZEE	92	stimuli_distractor_trianglediamonds.svg	stimuli_distractor_diamondtriangles.svg	35	no	57	0	659	0	0			0	0			1				0	
6.6.1	win	2023-07-15	15:24:55	15:34:11	551818	601d7cc678b34c000c119699	3	1	main_z	11	main_z	93	stimuli_target_squaretriangles.svg	stimuli_distractor_diamondtriangles.svg	7	yes	44	1	441	0	0			0	0			1				0	
6.6.1	win	2023-07-15	15:24:55	15:34:11	551818	601d7cc678b34c000c119699	3	1	main_z	11	advance_on_keypress_ZEE	94	stimuli_target_squaretriangles.svg	stimuli_distractor_diamondtriangles.svg	7	yes	57	0	303	0	0			0	0			1				0	
6.6.1	win	2023-07-15	15:24:55	15:34:14	554761	601d7cc678b34c000c119699	3	1	main_z	11	main_z	95	stimuli_distractor_diamondtriangles.svg	stimuli_distractor_diamondtriangles.svg	39	no	0	1	2000	0	0			0	0			1				0	
6.6.1	win	2023-07-15	15:24:55	15:34:14	554761	601d7cc678b34c000c119699	3	1	main_z	11	advance_on_keypress_ZEE	96	stimuli_distractor_diamondtriangles.svg	stimuli_distractor_diamondtriangles.svg	39	no	57	0	682	0	0			0	0			1				0	
6.6.1	win	2023-07-15	15:24:55	15:34:16	556504	601d7cc678b34c000c119699	3	1	main_z	11	main_z	97	stimuli_target_rectanglediamonds.svg	stimuli_distractor_trianglediamonds.svg	2	yes	44	1	427	0	0			0	0			1				0	
6.6.1	win	2023-07-15	15:24:55	15:34:16	556504	601d7cc678b34c000c119699	3	1	main_z	11	advance_on_keypress_ZEE	98	stimuli_target_rectanglediamonds.svg	stimuli_distractor_trianglediamonds.svg	2	yes	57	0	301	0	0			0	0			1				0	
6.6.1	win	2023-07-15	15:24:55	15:34:18	559445	601d7cc678b34c000c119699	3	1	main_z	11	main_z	99	stimuli_distractor_trianglediamonds.svg	stimuli_distractor_trianglediamonds.svg	34	no	0	1	2000	0	0			0	0			1				0	
6.6.1	win	2023-07-15	15:24:55	15:34:18	559445	601d7cc678b34c000c119699	3	1	main_z	11	advance_on_keypress_ZEE	100	stimuli_distractor_trianglediamonds.svg	stimuli_distractor_trianglediamonds.svg	34	no	57	0	266	0	0			0	0			1				0	
6.6.1	win	2023-07-15	15:24:55	15:34:21	562361	601d7cc678b34c000c119699	3	1	main_z	11	main_z	101	stimuli_distractor_diamondtriangles.svg	stimuli_distractor_trianglediamonds.svg	37	no	0	1	2000	0	0			0	0			1				0	
6.6.1	win	2023-07-15	15:24:55	15:34:21	562361	601d7cc678b34c000c119699	3	1	main_z	11	advance_on_keypress_ZEE	102	stimuli_distractor_diamondtriangles.svg	stimuli_distractor_trianglediamonds.svg	37	no	57	0	261	0	0			0	0			1				0	
6.6.1	win	2023-07-15	15:24:55	15:34:23	563850	601d7cc678b34c000c119699	3	1	main_z	11	main_z	103	stimuli_distractor_trianglediamonds.svg	stimuli_target_trianglesquares.svg	26	yes	44	1	589	0	0			0	0			1				0	
6.6.1	win	2023-07-15	15:24:55	15:34:23	563850	601d7cc678b34c000c119699	3	1	main_z	11	advance_on_keypress_ZEE	104	stimuli_distractor_trianglediamonds.svg	stimuli_target_trianglesquares.svg	26	yes	57	0	305	0	0			0	0			1				0	
6.6.1	win	2023-07-15	15:24:55	15:34:24	565257	601d7cc678b34c000c119699	3	1	main_z	11	main_z	105	stimuli_distractor_diamondtriangles.svg	stimuli_target_diamondsquares.svg	32	yes	44	1	463	0	0			0	0			1				0	
6.6.1	win	2023-07-15	15:24:55	15:34:24	565257	601d7cc678b34c000c119699	3	1	main_z	11	advance_on_keypress_ZEE	106	stimuli_distractor_diamondtriangles.svg	stimuli_target_diamondsquares.svg	32	yes	57	0	295	0	0			0	0			1				0	
6.6.1	win	2023-07-15	15:24:55	15:34:26	566842	601d7cc678b34c000c119699	3	1	main_z	11	main_z	107	stimuli_target_squarediamonds.svg	stimuli_distractor_diamondtriangles.svg	8	yes	44	1	648	0	0			0	0			1				0	
6.6.1	win	2023-07-15	15:24:55	15:34:26	566842	601d7cc678b34c000c119699	3	1	main_z	11	advance_on_keypress_ZEE	108	stimuli_target_squarediamonds.svg	stimuli_distractor_diamondtriangles.svg	8	yes	57	0	334	0	0			0	0			1				0	
6.6.1	win	2023-07-15	15:24:55	15:34:27	568360	601d7cc678b34c000c119699	3	1	main_z	11	main_z	109	stimuli_distractor_diamondtriangles.svg	stimuli_target_rectangletriangles.svg	13	yes	44	1	533	0	0			0	0			1				0	
6.6.1	win	2023-07-15	15:24:55	15:34:27	568360	601d7cc678b34c000c119699	3	1	main_z	11	advance_on_keypress_ZEE	110	stimuli_distractor_diamondtriangles.svg	stimuli_target_rectangletriangles.svg	13	yes	57	0	217	0	0			0	0			1				0	
6.6.1	win	2023-07-15	15:24:55	15:34:29	569659	601d7cc678b34c000c119699	3	1	main_z	11	main_z	111	stimuli_distractor_trianglediamonds.svg	stimuli_target_rectanglediamonds.svg	10	yes	44	1	432	0	0			0	0			1				0	
6.6.1	win	2023-07-15	15:24:55	15:34:29	569659	601d7cc678b34c000c119699	3	1	main_z	11	advance_on_keypress_ZEE	112	stimuli_distractor_trianglediamonds.svg	stimuli_target_rectanglediamonds.svg	10	yes	57	0	266	0	0			0	0			1				0	
6.6.1	win	2023-07-15	15:24:55	15:34:30	571011	601d7cc678b34c000c119699	3	1	main_z	11	main_z	113	stimuli_distractor_diamondtriangles.svg	stimuli_target_squarediamonds.svg	16	yes	44	1	434	0	0			0	0			1				0	
6.6.1	win	2023-07-15	15:24:55	15:34:30	571011	601d7cc678b34c000c119699	3	1	main_z	11	advance_on_keypress_ZEE	114	stimuli_distractor_diamondtriangles.svg	stimuli_target_squarediamonds.svg	16	yes	57	0	520	0	0			0	0			1				0	
6.6.1	win	2023-07-15	15:24:55	15:34:32	572763	601d7cc678b34c000c119699	3	1	main_z	11	main_z	115	stimuli_target_trianglesquares.svg	stimuli_distractor_diamondtriangles.svg	22	yes	44	1	586	0	0			0	0			1				0	
6.6.1	win	2023-07-15	15:24:55	15:34:32	572763	601d7cc678b34c000c119699	3	1	main_z	11	advance_on_keypress_ZEE	116	stimuli_target_trianglesquares.svg	stimuli_distractor_diamondtriangles.svg	22	yes	57	0	269	0	0			0	0			1				0	
6.6.1	win	2023-07-15	15:24:55	15:34:35	575678	601d7cc678b34c000c119699	3	1	main_z	11	main_z	117	stimuli_distractor_trianglediamonds.svg	stimuli_distractor_diamondtriangles.svg	36	no	0	1	2000	0	0			0	0			1				0	
6.6.1	win	2023-07-15	15:24:55	15:34:35	575678	601d7cc678b34c000c119699	3	1	main_z	11	advance_on_keypress_ZEE	118	stimuli_distractor_trianglediamonds.svg	stimuli_distractor_diamondtriangles.svg	36	no	57	0	315	0	0			0	0			1				0	
6.6.1	win	2023-07-15	15:24:55	15:34:36	577075	601d7cc678b34c000c119699	3	1	main_z	11	main_z	119	stimuli_distractor_diamondtriangles.svg	stimuli_target_rectanglediamonds.svg	14	yes	44	1	447	0	0			0	0			1				0	
6.6.1	win	2023-07-15	15:24:55	15:34:36	577075	601d7cc678b34c000c119699	3	1	main_z	11	advance_on_keypress_ZEE	120	stimuli_distractor_diamondtriangles.svg	stimuli_target_rectanglediamonds.svg	14	yes	57	0	264	0	0			0	0			1				0	
6.6.1	win	2023-07-15	15:24:55	15:34:39	579979	601d7cc678b34c000c119699	3	1	main_z	11	main_z	121	stimuli_distractor_trianglediamonds.svg	stimuli_distractor_trianglediamonds.svg	33	no	0	1	2000	0	0			0	0			1				0	
6.6.1	win	2023-07-15	15:24:55	15:34:39	579979	601d7cc678b34c000c119699	3	1	main_z	11	advance_on_keypress_ZEE	122	stimuli_distractor_trianglediamonds.svg	stimuli_distractor_trianglediamonds.svg	33	no	57	0	446	0	0			0	0			1				0	
6.6.1	win	2023-07-15	15:24:55	15:34:40	581503	601d7cc678b34c000c119699	3	1	main_z	11	main_z	123	stimuli_target_trianglesquares.svg	stimuli_distractor_trianglediamonds.svg	18	yes	44	1	442	0	0			0	0			1				0	
6.6.1	win	2023-07-15	15:24:55	15:34:40	581503	601d7cc678b34c000c119699	3	1	main_z	11	advance_on_keypress_ZEE	124	stimuli_target_trianglesquares.svg	stimuli_distractor_trianglediamonds.svg	18	yes	57	0	197	0	0			0	0			1				0	
6.6.1	win	2023-07-15	15:24:55	15:34:42	582821	601d7cc678b34c000c119699	3	1	main_z	11	main_z	125	stimuli_distractor_diamondtriangles.svg	stimuli_target_diamondrectangles.svg	31	yes	44	1	494	0	0			0	0			1				0	
6.6.1	win	2023-07-15	15:24:55	15:34:42	582821	601d7cc678b34c000c119699	3	1	main_z	11	advance_on_keypress_ZEE	126	stimuli_distractor_diamondtriangles.svg	stimuli_target_diamondrectangles.svg	31	yes	57	0	305	0	0			0	0			1				0	
6.6.1	win	2023-07-15	15:24:55	15:34:43	584197	601d7cc678b34c000c119699	3	1	main_z	11	main_z	127	stimuli_target_rectanglediamonds.svg	stimuli_distractor_diamondtriangles.svg	6	yes	44	1	436	0	0			0	0			1				0	
6.6.1	win	2023-07-15	15:24:55	15:34:43	584197	601d7cc678b34c000c119699	3	1	main_z	11	advance_on_keypress_ZEE	128	stimuli_target_rectanglediamonds.svg	stimuli_distractor_diamondtriangles.svg	6	yes	57	0	227	0	0			0	0			1				0	
6.6.1	win	2023-07-15	15:24:55	15:34:44	585484	601d7cc678b34c000c119699	3	1	main_z	11	main_z	129	stimuli_distractor_diamondtriangles.svg	stimuli_target_squaretriangles.svg	15	yes	44	1	423	0	0			0	0			1				0	
6.6.1	win	2023-07-15	15:24:55	15:34:44	585484	601d7cc678b34c000c119699	3	1	main_z	11	advance_on_keypress_ZEE	130	stimuli_distractor_diamondtriangles.svg	stimuli_target_squaretriangles.svg	15	yes	57	0	271	0	0			0	0			1				0	
6.6.1	win	2023-07-15	15:24:55	15:34:46	586811	601d7cc678b34c000c119699	3	1	main_z	11	main_z	131	stimuli_target_squarediamonds.svg	stimuli_distractor_trianglediamonds.svg	4	yes	44	1	417	0	0			0	0			1				0	
6.6.1	win	2023-07-15	15:24:55	15:34:46	586811	601d7cc678b34c000c119699	3	1	main_z	11	advance_on_keypress_ZEE	132	stimuli_target_squarediamonds.svg	stimuli_distractor_trianglediamonds.svg	4	yes	57	0	197	0	0			0	0			1				0	
6.6.1	win	2023-07-15	15:24:55	15:34:47	588141	601d7cc678b34c000c119699	3	1	main_z	11	main_z	133	stimuli_target_diamondrectangles.svg	stimuli_distractor_diamondtriangles.svg	23	yes	44	1	497	0	0			0	0			1				0	
6.6.1	win	2023-07-15	15:24:55	15:34:47	588141	601d7cc678b34c000c119699	3	1	main_z	11	advance_on_keypress_ZEE	134	stimuli_target_diamondrectangles.svg	stimuli_distractor_diamondtriangles.svg	23	yes	57	0	159	0	0			0	0			1				0	
6.6.1	win	2023-07-15	15:24:55	15:34:48	589367	601d7cc678b34c000c119699	3	1	main_z	11	main_z	135	stimuli_distractor_trianglediamonds.svg	stimuli_target_squaretriangles.svg	11	yes	44	1	422	0	0			0	0			1				0	
6.6.1	win	2023-07-15	15:24:55	15:34:48	589367	601d7cc678b34c000c119699	3	1	main_z	11	advance_on_keypress_ZEE	136	stimuli_distractor_trianglediamonds.svg	stimuli_target_squaretriangles.svg	11	yes	57	0	198	0	0			0	0			1				0	
6.6.1	win	2023-07-15	15:24:55	15:34:50	590620	601d7cc678b34c000c119699	3	1	main_z	11	main_z	137	stimuli_target_diamondrectangles.svg	stimuli_distractor_trianglediamonds.svg	19	yes	44	1	426	0	0			0	0			1				0	
6.6.1	win	2023-07-15	15:24:55	15:34:50	590620	601d7cc678b34c000c119699	3	1	main_z	11	advance_on_keypress_ZEE	138	stimuli_target_diamondrectangles.svg	stimuli_distractor_trianglediamonds.svg	19	yes	57	0	699	0	0			0	0			1				0	
6.6.1	win	2023-07-15	15:24:55	15:34:52	592570	601d7cc678b34c000c119699	3	1	main_z	11	main_z	139	stimuli_target_trianglerectangles.svg	stimuli_distractor_trianglediamonds.svg	17	yes	44	1	609	0	0			0	0			1				0	
6.6.1	win	2023-07-15	15:24:55	15:34:52	592570	601d7cc678b34c000c119699	3	1	main_z	11	advance_on_keypress_ZEE	140	stimuli_target_trianglerectangles.svg	stimuli_distractor_trianglediamonds.svg	17	yes	57	0	305	0	0			0	0			1				0	
6.6.1	win	2023-07-15	15:24:55	15:34:53	593927	601d7cc678b34c000c119699	3	1	main_z	11	main_z	141	stimuli_distractor_trianglediamonds.svg	stimuli_target_diamondrectangles.svg	27	yes	44	1	416	0	0			0	0			1				0	
6.6.1	win	2023-07-15	15:24:55	15:34:53	593927	601d7cc678b34c000c119699	3	1	main_z	11	advance_on_keypress_ZEE	142	stimuli_distractor_trianglediamonds.svg	stimuli_target_diamondrectangles.svg	27	yes	57	0	263	0	0			0	0			1				0	
6.6.1	win	2023-07-15	15:24:55	15:34:54	595223	601d7cc678b34c000c119699	3	1	main_z	11	main_z	143	stimuli_distractor_trianglediamonds.svg	stimuli_target_trianglerectangles.svg	25	yes	44	1	396	0	0			0	0			1				0	
6.6.1	win	2023-07-15	15:24:55	15:34:54	595223	601d7cc678b34c000c119699	3	1	main_z	11	advance_on_keypress_ZEE	144	stimuli_distractor_trianglediamonds.svg	stimuli_target_trianglerectangles.svg	25	yes	57	0	290	0	0			0	0			1				0	
6.6.1	win	2023-07-15	15:24:55	15:34:56	596544	601d7cc678b34c000c119699	3	1	main_z	11	main_z	145	stimuli_distractor_trianglediamonds.svg	stimuli_target_rectangletriangles.svg	9	yes	44	1	368	0	0			0	0			1				0	
6.6.1	win	2023-07-15	15:24:55	15:34:56	596544	601d7cc678b34c000c119699	3	1	main_z	11	advance_on_keypress_ZEE	146	stimuli_distractor_trianglediamonds.svg	stimuli_target_rectangletriangles.svg	9	yes	57	0	272	0	0			0	0			1				0	
6.6.1	win	2023-07-15	15:24:55	15:34:57	598177	601d7cc678b34c000c119699	3	1	main_z	11	main_z	147	stimuli_target_trianglerectangles.svg	stimuli_distractor_diamondtriangles.svg	21	yes	44	1	716	0	0			0	0			1				0	
6.6.1	win	2023-07-15	15:24:55	15:34:57	598177	601d7cc678b34c000c119699	3	1	main_z	11	advance_on_keypress_ZEE	148	stimuli_target_trianglerectangles.svg	stimuli_distractor_diamondtriangles.svg	21	yes	57	0	289	0	0			0	0			1				0	
6.6.1	win	2023-07-15	15:24:55	15:34:58	599458	601d7cc678b34c000c119699	3	1	main_z	11	main_z	149	stimuli_target_squaretriangles.svg	stimuli_distractor_trianglediamonds.svg	3	yes	44	1	347	0	0			0	0			1				0	
6.6.1	win	2023-07-15	15:24:55	15:34:58	599458	601d7cc678b34c000c119699	3	1	main_z	11	advance_on_keypress_ZEE	150	stimuli_target_squaretriangles.svg	stimuli_distractor_trianglediamonds.svg	3	yes	57	0	219	0	0			0	0			1				0	
6.6.1	win	2023-07-15	15:24:55	15:35:00	600892	601d7cc678b34c000c119699	3	1	main_z	11	main_z	151	stimuli_target_diamondsquares.svg	stimuli_distractor_diamondtriangles.svg	24	yes	44	1	565	0	0			0	0			1				0	
6.6.1	win	2023-07-15	15:24:55	15:35:00	600892	601d7cc678b34c000c119699	3	1	main_z	11	advance_on_keypress_ZEE	152	stimuli_target_diamondsquares.svg	stimuli_distractor_diamondtriangles.svg	24	yes	57	0	222	0	0			0	0			1				0	
6.6.1	win	2023-07-15	15:24:55	15:35:01	602328	601d7cc678b34c000c119699	3	1	main_z	11	main_z	153	stimuli_distractor_diamondtriangles.svg	stimuli_target_trianglerectangles.svg	29	yes	44	1	567	0	0			0	0			1				0	
6.6.1	win	2023-07-15	15:24:55	15:35:01	602328	601d7cc678b34c000c119699	3	1	main_z	11	advance_on_keypress_ZEE	154	stimuli_distractor_diamondtriangles.svg	stimuli_target_trianglerectangles.svg	29	yes	57	0	172	0	0			0	0			1				0	
6.6.1	win	2023-07-15	15:24:55	15:35:04	605144	601d7cc678b34c000c119699	3	1	main_z	11	main_z	155	stimuli_distractor_diamondtriangles.svg	stimuli_distractor_trianglediamonds.svg	38	no	0	1	2000	0	0			0	0			1				0	
6.6.1	win	2023-07-15	15:24:55	15:35:04	605144	601d7cc678b34c000c119699	3	1	main_z	11	advance_on_keypress_ZEE	156	stimuli_distractor_diamondtriangles.svg	stimuli_distractor_trianglediamonds.svg	38	no	57	0	464	0	0			0	0			1				0	
6.6.1	win	2023-07-15	15:24:55	15:35:06	606627	601d7cc678b34c000c119699	3	1	main_z	11	main_z	157	stimuli_distractor_diamondtriangles.svg	stimuli_target_trianglesquares.svg	30	yes	44	1	377	0	0			0	0			1				0	
6.6.1	win	2023-07-15	15:24:55	15:35:06	606627	601d7cc678b34c000c119699	3	1	main_z	11	advance_on_keypress_ZEE	158	stimuli_distractor_diamondtriangles.svg	stimuli_target_trianglesquares.svg	30	yes	57	0	167	0	0			0	0			1				0	
6.6.1	win	2023-07-15	15:24:55	15:35:07	608129	601d7cc678b34c000c119699	3	1	main_z	11	main_z	159	stimuli_distractor_trianglediamonds.svg	stimuli_target_squarediamonds.svg	12	yes	44	1	685	0	0			0	0			1				0	
6.6.1	win	2023-07-15	15:24:55	15:35:07	608129	601d7cc678b34c000c119699	3	1	main_z	11	advance_on_keypress_ZEE	160	stimuli_distractor_trianglediamonds.svg	stimuli_target_squarediamonds.svg	12	yes	57	0	196	0	0			0	0			1				0	
6.6.1	win	2023-07-15	15:24:55	15:35:07	608129	601d7cc678b34c000c119699	3	1	headphonecheck_calibration	14	headphonecheck_calibrationIntro	1	stimuli_distractor_trianglediamonds.svg	stimuli_target_squarediamonds.svg	12	yes	calibrationButton	0	3222	0	0			0	0			1				0	
6.6.1	win	2023-07-15	15:24:55	15:35:07	608129	601d7cc678b34c000c119699	3	1	headphonecheck_testphase	15	test_collectResponse	3	stimuli_distractor_trianglediamonds.svg	stimuli_target_squarediamonds.svg	12	yes	second	1	528	1	1	antiphase_hc_iso.wav	2	0	0			1				0	
6.6.1	win	2023-07-15	15:24:55	15:35:07	608129	601d7cc678b34c000c119699	3	1	headphonecheck_testphase	15	test_collectResponse	6	stimuli_distractor_trianglediamonds.svg	stimuli_target_squarediamonds.svg	12	yes	third	1	86	2	2	antiphase_hc_ios.wav	3	0	0			1				0	
6.6.1	win	2023-07-15	15:24:55	15:35:07	608129	601d7cc678b34c000c119699	3	1	headphonecheck_testphase	15	test_collectResponse	9	stimuli_distractor_trianglediamonds.svg	stimuli_target_squarediamonds.svg	12	yes	second	1	2389	3	5	antiphase_hc_osi.wav	2	0	0			1				0	
6.6.1	win	2023-07-15	15:24:55	15:35:07	608129	601d7cc678b34c000c119699	3	1	headphonecheck_testphase	15	test_collectResponse	12	stimuli_distractor_trianglediamonds.svg	stimuli_target_squarediamonds.svg	12	yes	first	1	784	4	3	antiphase_hc_soi.wav	1	0	0			1				0	
6.6.1	win	2023-07-15	15:24:55	15:35:07	608129	601d7cc678b34c000c119699	3	1	headphonecheck_testphase	15	test_collectResponse	15	stimuli_distractor_trianglediamonds.svg	stimuli_target_squarediamonds.svg	12	yes	first	1	669	5	4	antiphase_hc_sio.wav	1	0	0			1				0	
6.6.1	win	2023-07-15	15:24:55	15:35:07	608129	601d7cc678b34c000c119699	3	1	headphonecheck_testphase	15	test_collectResponse	18	stimuli_distractor_trianglediamonds.svg	stimuli_target_squarediamonds.svg	12	yes	third	1	272	6	6	antiphase_hc_ois.wav	3	0	0			1				0	
6.6.1	win	2023-07-15	15:24:55	15:35:07	608129	601d7cc678b34c000c119699	3	1	stereocheck_calibration	17	stereocheck_calibrationIntro	1	stimuli_distractor_trianglediamonds.svg	stimuli_target_squarediamonds.svg	12	yes	stereocheck_calibrationButton	0	3900	6	6	antiphase_hc_ois.wav	3	0	0			1				0	
6.6.1	win	2023-07-15	15:24:55	15:35:07	608129	601d7cc678b34c000c119699	3	1	stereocheck_testphase	18	stereocheck_test_collectResponse	3	stimuli_distractor_trianglediamonds.svg	stimuli_target_squarediamonds.svg	12	yes	stereocheck_right	1	399	6	6	antiphase_hc_ois.wav	3	1	6	noise_calib_stim_RIGHT.wav	2	1				0	
6.6.1	win	2023-07-15	15:24:55	15:35:07	608129	601d7cc678b34c000c119699	3	1	stereocheck_testphase	18	stereocheck_test_collectResponse	6	stimuli_distractor_trianglediamonds.svg	stimuli_target_squarediamonds.svg	12	yes	stereocheck_left	1	559	6	6	antiphase_hc_ois.wav	3	2	1	noise_calib_stim_LEFT.wav	1	1				0	
6.6.1	win	2023-07-15	15:24:55	15:35:07	608129	601d7cc678b34c000c119699	3	1	stereocheck_testphase	18	stereocheck_test_collectResponse	9	stimuli_distractor_trianglediamonds.svg	stimuli_target_squarediamonds.svg	12	yes	stereocheck_right	1	641	6	6	antiphase_hc_ois.wav	3	3	5	noise_calib_stim_RIGHT.wav	2	1				0	
6.6.1	win	2023-07-15	15:24:55	15:35:07	608129	601d7cc678b34c000c119699	3	1	stereocheck_testphase	18	stereocheck_test_collectResponse	12	stimuli_distractor_trianglediamonds.svg	stimuli_target_squarediamonds.svg	12	yes	stereocheck_right	1	373	6	6	antiphase_hc_ois.wav	3	4	4	noise_calib_stim_RIGHT.wav	2	1				0	
6.6.1	win	2023-07-15	15:24:55	15:35:07	608129	601d7cc678b34c000c119699	3	1	stereocheck_testphase	18	stereocheck_test_collectResponse	15	stimuli_distractor_trianglediamonds.svg	stimuli_target_squarediamonds.svg	12	yes	stereocheck_left	1	389	6	6	antiphase_hc_ois.wav	3	5	2	noise_calib_stim_LEFT.wav	1	1				0	
6.6.1	win	2023-07-15	15:24:55	15:35:07	608129	601d7cc678b34c000c119699	3	1	stereocheck_testphase	18	stereocheck_test_collectResponse	18	stimuli_distractor_trianglediamonds.svg	stimuli_target_squarediamonds.svg	12	yes	stereocheck_left	1	329	6	6	antiphase_hc_ois.wav	3	6	3	noise_calib_stim_LEFT.wav	1	1				0	
6.6.1	win	2023-07-15	15:24:55	15:35:07	608129	601d7cc678b34c000c119699	3	1	DL_practice	21	DL_practice	2	stimuli_distractor_trianglediamonds.svg	stimuli_target_squarediamonds.svg	12	yes	da	1	1304	6	6	antiphase_hc_ois.wav	3	6	3	noise_calib_stim_LEFT.wav	1	8	blb_dichoticlistening_da-da.mp3	da	da	0	left
6.6.1	win	2023-07-15	15:24:55	15:35:07	608129	601d7cc678b34c000c119699	3	1	DL_practice	21	DL_practice	3	stimuli_distractor_trianglediamonds.svg	stimuli_target_squarediamonds.svg	12	yes	pa	1	1086	6	6	antiphase_hc_ois.wav	3	6	3	noise_calib_stim_LEFT.wav	1	29	blb_dichoticlistening_pa-pa.mp3	pa	pa	0	left
6.6.1	win	2023-07-15	15:24:55	15:35:07	608129	601d7cc678b34c000c119699	3	1	DL_practice	21	DL_practice	4	stimuli_distractor_trianglediamonds.svg	stimuli_target_squarediamonds.svg	12	yes	ga	1	1150	6	6	antiphase_hc_ois.wav	3	6	3	noise_calib_stim_LEFT.wav	1	15	blb_dichoticlistening_ga-ga.mp3	ga	ga	0	left
6.6.1	win	2023-07-15	15:24:55	15:35:07	608129	601d7cc678b34c000c119699	3	1	DL_practice	21	DL_practice	5	stimuli_distractor_trianglediamonds.svg	stimuli_target_squarediamonds.svg	12	yes	ba	1	1550	6	6	antiphase_hc_ois.wav	3	6	3	noise_calib_stim_LEFT.wav	1	7	blb_dichoticlistening_da-ba.mp3	da	ba	1	right
6.6.1	win	2023-07-15	15:24:55	15:35:07	608129	601d7cc678b34c000c119699	3	1	DL_practice	21	DL_practice	6	stimuli_distractor_trianglediamonds.svg	stimuli_target_squarediamonds.svg	12	yes	ba	1	994	6	6	antiphase_hc_ois.wav	3	6	3	noise_calib_stim_LEFT.wav	1	1	blb_dichoticlistening_ba-ba.mp3	ba	ba	0	left
6.6.1	win	2023-07-15	15:24:55	15:35:07	608129	601d7cc678b34c000c119699	3	1	DL_practice	21	DL_practice	7	stimuli_distractor_trianglediamonds.svg	stimuli_target_squarediamonds.svg	12	yes	ta	1	1213	6	6	antiphase_hc_ois.wav	3	6	3	noise_calib_stim_LEFT.wav	1	36	blb_dichoticlistening_ta-ta.mp3	ta	ta	0	left
6.6.1	win	2023-07-15	15:24:55	15:35:07	608129	601d7cc678b34c000c119699	3	1	DL_practice	21	DL_practice	8	stimuli_distractor_trianglediamonds.svg	stimuli_target_squarediamonds.svg	12	yes	pa	1	2603	6	6	antiphase_hc_ois.wav	3	6	3	noise_calib_stim_LEFT.wav	1	23	blb_dichoticlistening_ka-pa.mp3	ka	pa	1	right
6.6.1	win	2023-07-15	15:24:55	15:35:07	608129	601d7cc678b34c000c119699	3	1	DL_practice	21	DL_practice	9	stimuli_distractor_trianglediamonds.svg	stimuli_target_squarediamonds.svg	12	yes	ka	1	775	6	6	antiphase_hc_ois.wav	3	6	3	noise_calib_stim_LEFT.wav	1	22	blb_dichoticlistening_ka-ka.mp3	ka	ka	0	left
6.6.1	win	2023-07-15	15:24:55	15:35:07	608129	601d7cc678b34c000c119699	3	1	DL_practice	21	DL_practice	10	stimuli_distractor_trianglediamonds.svg	stimuli_target_squarediamonds.svg	12	yes	ka	0	908	6	6	antiphase_hc_ois.wav	3	6	3	noise_calib_stim_LEFT.wav	1	18	blb_dichoticlistening_ga-ta.mp3	ga	ta	1	other
6.6.1	win	2023-07-15	15:24:55	15:35:07	608129	601d7cc678b34c000c119699	3	1	DL_test	23	DL_test	1	stimuli_distractor_trianglediamonds.svg	stimuli_target_squarediamonds.svg	12	yes	ga	1	844	6	6	antiphase_hc_ois.wav	3	6	3	noise_calib_stim_LEFT.wav	1	21	blb_dichoticlistening_ka-ga.mp3	ka	ga	1	right
6.6.1	win	2023-07-15	15:24:55	15:35:07	608129	601d7cc678b34c000c119699	3	1	DL_test	23	DL_test	2	stimuli_distractor_trianglediamonds.svg	stimuli_target_squarediamonds.svg	12	yes	ka	1	866	6	6	antiphase_hc_ois.wav	3	6	3	noise_calib_stim_LEFT.wav	1	4	blb_dichoticlistening_ba-ka.mp3	ba	ka	1	right
6.6.1	win	2023-07-15	15:24:55	15:35:07	608129	601d7cc678b34c000c119699	3	1	DL_test	23	DL_test	3	stimuli_distractor_trianglediamonds.svg	stimuli_target_squarediamonds.svg	12	yes	da	1	1420	6	6	antiphase_hc_ois.wav	3	6	3	noise_calib_stim_LEFT.wav	1	26	blb_dichoticlistening_pa-da.mp3	pa	da	1	right
6.6.1	win	2023-07-15	15:24:55	15:35:07	608129	601d7cc678b34c000c119699	3	1	DL_test	23	DL_test	4	stimuli_distractor_trianglediamonds.svg	stimuli_target_squarediamonds.svg	12	yes	da	1	900	6	6	antiphase_hc_ois.wav	3	6	3	noise_calib_stim_LEFT.wav	1	8	blb_dichoticlistening_da-da.mp3	da	da	0	left
6.6.1	win	2023-07-15	15:24:55	15:35:07	608129	601d7cc678b34c000c119699	3	1	DL_test	23	DL_test	5	stimuli_distractor_trianglediamonds.svg	stimuli_target_squarediamonds.svg	12	yes	pa	0	1542	6	6	antiphase_hc_ois.wav	3	6	3	noise_calib_stim_LEFT.wav	1	10	blb_dichoticlistening_da-ka.mp3	da	ka	1	other
6.6.1	win	2023-07-15	15:24:55	15:35:07	608129	601d7cc678b34c000c119699	3	1	DL_test	23	DL_test	6	stimuli_distractor_trianglediamonds.svg	stimuli_target_squarediamonds.svg	12	yes	ka	0	1261	6	6	antiphase_hc_ois.wav	3	6	3	noise_calib_stim_LEFT.wav	1	6	blb_dichoticlistening_ba-ta.mp3	ba	ta	1	other
6.6.1	win	2023-07-15	15:24:55	15:35:07	608129	601d7cc678b34c000c119699	3	1	DL_test	23	DL_test	7	stimuli_distractor_trianglediamonds.svg	stimuli_target_squarediamonds.svg	12	yes	ga	1	971	6	6	antiphase_hc_ois.wav	3	6	3	noise_calib_stim_LEFT.wav	1	33	blb_dichoticlistening_ta-ga.mp3	ta	ga	1	right
6.6.1	win	2023-07-15	15:24:55	15:35:07	608129	601d7cc678b34c000c119699	3	1	DL_test	23	DL_test	8	stimuli_distractor_trianglediamonds.svg	stimuli_target_squarediamonds.svg	12	yes	da	1	1868	6	6	antiphase_hc_ois.wav	3	6	3	noise_calib_stim_LEFT.wav	1	32	blb_dichoticlistening_ta-da.mp3	ta	da	1	right
6.6.1	win	2023-07-15	15:24:55	15:35:07	608129	601d7cc678b34c000c119699	3	1	DL_test	23	DL_test	9	stimuli_distractor_trianglediamonds.svg	stimuli_target_squarediamonds.svg	12	yes	ta	1	1606	6	6	antiphase_hc_ois.wav	3	6	3	noise_calib_stim_LEFT.wav	1	24	blb_dichoticlistening_ka-ta.mp3	ka	ta	1	right
6.6.1	win	2023-07-15	15:24:55	15:35:07	608129	601d7cc678b34c000c119699	3	1	DL_test	23	DL_test	10	stimuli_distractor_trianglediamonds.svg	stimuli_target_squarediamonds.svg	12	yes	ba	1	4038	6	6	antiphase_hc_ois.wav	3	6	3	noise_calib_stim_LEFT.wav	1	31	blb_dichoticlistening_ta-ba.mp3	ta	ba	1	right
6.6.1	win	2023-07-15	15:24:55	15:35:07	608129	601d7cc678b34c000c119699	3	1	DL_test	23	DL_test	11	stimuli_distractor_trianglediamonds.svg	stimuli_target_squarediamonds.svg	12	yes	pa	1	7192	6	6	antiphase_hc_ois.wav	3	6	3	noise_calib_stim_LEFT.wav	1	35	blb_dichoticlistening_ta-pa.mp3	ta	pa	1	right
6.6.1	win	2023-07-15	15:24:55	15:35:07	608129	601d7cc678b34c000c119699	3	1	DL_test	23	DL_test	12	stimuli_distractor_trianglediamonds.svg	stimuli_target_squarediamonds.svg	12	yes	pa	1	1279	6	6	antiphase_hc_ois.wav	3	6	3	noise_calib_stim_LEFT.wav	1	11	blb_dichoticlistening_da-pa.mp3	da	pa	1	right
6.6.1	win	2023-07-15	15:24:55	15:35:07	608129	601d7cc678b34c000c119699	3	1	DL_test	23	DL_test	13	stimuli_distractor_trianglediamonds.svg	stimuli_target_squarediamonds.svg	12	yes	ka	1	968	6	6	antiphase_hc_ois.wav	3	6	3	noise_calib_stim_LEFT.wav	1	34	blb_dichoticlistening_ta-ka.mp3	ta	ka	1	right
6.6.1	win	2023-07-15	15:24:55	15:35:07	608129	601d7cc678b34c000c119699	3	1	DL_test	23	DL_test	14	stimuli_distractor_trianglediamonds.svg	stimuli_target_squarediamonds.svg	12	yes	pa	1	1034	6	6	antiphase_hc_ois.wav	3	6	3	noise_calib_stim_LEFT.wav	1	23	blb_dichoticlistening_ka-pa.mp3	ka	pa	1	right
6.6.1	win	2023-07-15	15:24:55	15:35:07	608129	601d7cc678b34c000c119699	3	1	DL_test	23	DL_test	15	stimuli_distractor_trianglediamonds.svg	stimuli_target_squarediamonds.svg	12	yes	ka	1	939	6	6	antiphase_hc_ois.wav	3	6	3	noise_calib_stim_LEFT.wav	1	28	blb_dichoticlistening_pa-ka.mp3	pa	ka	1	right
6.6.1	win	2023-07-15	15:24:55	15:35:07	608129	601d7cc678b34c000c119699	3	1	DL_test	23	DL_test	16	stimuli_distractor_trianglediamonds.svg	stimuli_target_squarediamonds.svg	12	yes	ga	1	1288	6	6	antiphase_hc_ois.wav	3	6	3	noise_calib_stim_LEFT.wav	1	15	blb_dichoticlistening_ga-ga.mp3	ga	ga	0	left
6.6.1	win	2023-07-15	15:24:55	15:35:07	608129	601d7cc678b34c000c119699	3	1	DL_test	23	DL_test	17	stimuli_distractor_trianglediamonds.svg	stimuli_target_squarediamonds.svg	12	yes	da	1	1169	6	6	antiphase_hc_ois.wav	3	6	3	noise_calib_stim_LEFT.wav	1	14	blb_dichoticlistening_ga-da.mp3	ga	da	1	right
6.6.1	win	2023-07-15	15:24:55	15:35:07	608129	601d7cc678b34c000c119699	3	1	DL_test	23	DL_test	18	stimuli_distractor_trianglediamonds.svg	stimuli_target_squarediamonds.svg	12	yes	ga	1	2232	6	6	antiphase_hc_ois.wav	3	6	3	noise_calib_stim_LEFT.wav	1	3	blb_dichoticlistening_ba-ga.mp3	ba	ga	1	right
6.6.1	win	2023-07-15	15:24:55	15:35:07	608129	601d7cc678b34c000c119699	3	1	DL_test	23	DL_test	19	stimuli_distractor_trianglediamonds.svg	stimuli_target_squarediamonds.svg	12	yes	ba	1	1423	6	6	antiphase_hc_ois.wav	3	6	3	noise_calib_stim_LEFT.wav	1	13	blb_dichoticlistening_ga-ba.mp3	ga	ba	1	right
6.6.1	win	2023-07-15	15:24:55	15:35:07	608129	601d7cc678b34c000c119699	3	1	DL_test	23	DL_test	20	stimuli_distractor_trianglediamonds.svg	stimuli_target_squarediamonds.svg	12	yes	ta	1	946	6	6	antiphase_hc_ois.wav	3	6	3	noise_calib_stim_LEFT.wav	1	12	blb_dichoticlistening_da-ta.mp3	da	ta	1	right
6.6.1	win	2023-07-15	15:24:55	15:35:07	608129	601d7cc678b34c000c119699	3	1	DL_test	23	DL_test	21	stimuli_distractor_trianglediamonds.svg	stimuli_target_squarediamonds.svg	12	yes	ba	1	1205	6	6	antiphase_hc_ois.wav	3	6	3	noise_calib_stim_LEFT.wav	1	1	blb_dichoticlistening_ba-ba.mp3	ba	ba	0	left
6.6.1	win	2023-07-15	15:24:55	15:35:07	608129	601d7cc678b34c000c119699	3	1	DL_test	23	DL_test	22	stimuli_distractor_trianglediamonds.svg	stimuli_target_squarediamonds.svg	12	yes	da	1	888	6	6	antiphase_hc_ois.wav	3	6	3	noise_calib_stim_LEFT.wav	1	20	blb_dichoticlistening_ka-da.mp3	ka	da	1	right
6.6.1	win	2023-07-15	15:24:55	15:35:07	608129	601d7cc678b34c000c119699	3	1	DL_test	23	DL_test	23	stimuli_distractor_trianglediamonds.svg	stimuli_target_squarediamonds.svg	12	yes	pa	1	1428	6	6	antiphase_hc_ois.wav	3	6	3	noise_calib_stim_LEFT.wav	1	25	blb_dichoticlistening_pa-ba.mp3	pa	ba	1	left
6.6.1	win	2023-07-15	15:24:55	15:35:07	608129	601d7cc678b34c000c119699	3	1	DL_test	23	DL_test	24	stimuli_distractor_trianglediamonds.svg	stimuli_target_squarediamonds.svg	12	yes	pa	1	840	6	6	antiphase_hc_ois.wav	3	6	3	noise_calib_stim_LEFT.wav	1	17	blb_dichoticlistening_ga-pa.mp3	ga	pa	1	right
6.6.1	win	2023-07-15	15:24:55	15:35:07	608129	601d7cc678b34c000c119699	3	1	DL_test	23	DL_test	25	stimuli_distractor_trianglediamonds.svg	stimuli_target_squarediamonds.svg	12	yes	pa	1	805	6	6	antiphase_hc_ois.wav	3	6	3	noise_calib_stim_LEFT.wav	1	29	blb_dichoticlistening_pa-pa.mp3	pa	pa	0	left
6.6.1	win	2023-07-15	15:24:55	15:35:07	608129	601d7cc678b34c000c119699	3	1	DL_test	23	DL_test	26	stimuli_distractor_trianglediamonds.svg	stimuli_target_squarediamonds.svg	12	yes	da	1	1285	6	6	antiphase_hc_ois.wav	3	6	3	noise_calib_stim_LEFT.wav	1	2	blb_dichoticlistening_ba-da.mp3	ba	da	1	right
