build	computer.platform	date	time	timestamp	time_elapsed_ms	subject	group	session	blockcode	blocknum	trialcode	trialnum	stimulus_left	stimulus_right	stim_index	target_present	response	correct	latency	headphonecheck_countTestTrials	headphonecheck_index	headphonecheck_testSound	headphonecheck_correctResponse	stereocheck_countTestTrials	stereocheck_index	stereocheck_testSound	stereocheck_correctResponse	DL_index	DL_soundfile	DL_leftSound	DL_rightSound	DL_dualSound	DL_choice
6.6.1	mac	2023-07-07	10:41:27	10:45:59	252092	60b8ee3c30afdb493743872e	3	1	practice_slash	5	practice_slash	1	stimuli_distractor_trianglediamonds.svg	stimuli_distractor_trianglediamonds.svg	15	no	0	1	2000	0	0			0	0			1				0	
6.6.1	mac	2023-07-07	10:41:27	10:45:59	252092	60b8ee3c30afdb493743872e	3	1	practice_slash	5	advance_on_keypress_SLASH	2	stimuli_distractor_trianglediamonds.svg	stimuli_distractor_trianglediamonds.svg	15	no	57	0	2494	0	0			0	0			1				0	
6.6.1	mac	2023-07-07	10:41:27	10:46:04	256891	60b8ee3c30afdb493743872e	3	1	practice_slash	5	practice_slash	3	stimuli_target_rectanglediamonds.svg	stimuli_distractor_trianglediamonds.svg	4	yes	53	1	661	0	0			0	0			1				0	
6.6.1	mac	2023-07-07	10:41:27	10:46:04	256891	60b8ee3c30afdb493743872e	3	1	practice_slash	5	advance_on_keypress_SLASH	4	stimuli_target_rectanglediamonds.svg	stimuli_distractor_trianglediamonds.svg	4	yes	57	0	1820	0	0			0	0			1				0	
6.6.1	mac	2023-07-07	10:41:27	10:46:09	261549	60b8ee3c30afdb493743872e	3	1	practice_slash	5	practice_slash	5	stimuli_distractor_diamondtriangles.svg	stimuli_target_diamondrectangles.svg	8	yes	53	1	1198	0	0			0	0			1				0	
6.6.1	mac	2023-07-07	10:41:27	10:46:09	261549	60b8ee3c30afdb493743872e	3	1	practice_slash	5	advance_on_keypress_SLASH	6	stimuli_distractor_diamondtriangles.svg	stimuli_target_diamondrectangles.svg	8	yes	57	0	901	0	0			0	0			1				0	
6.6.1	mac	2023-07-07	10:41:27	10:46:12	264909	60b8ee3c30afdb493743872e	3	1	practice_slash	5	practice_slash	7	stimuli_distractor_trianglediamonds.svg	stimuli_target_squarediamonds.svg	11	yes	53	1	827	0	0			0	0			1				0	
6.6.1	mac	2023-07-07	10:41:27	10:46:12	264909	60b8ee3c30afdb493743872e	3	1	practice_slash	5	advance_on_keypress_SLASH	8	stimuli_distractor_trianglediamonds.svg	stimuli_target_squarediamonds.svg	11	yes	57	0	837	0	0			0	0			1				0	
6.6.1	mac	2023-07-07	10:41:27	10:46:17	269384	60b8ee3c30afdb493743872e	3	1	practice_slash	5	practice_slash	9	stimuli_distractor_trianglediamonds.svg	stimuli_target_diamondrectangles.svg	12	yes	0	0	2000	0	0			0	0			1				0	
6.6.1	mac	2023-07-07	10:41:27	10:46:17	269384	60b8ee3c30afdb493743872e	3	1	practice_slash	5	advance_on_keypress_SLASH	10	stimuli_distractor_trianglediamonds.svg	stimuli_target_diamondrectangles.svg	12	yes	57	0	676	0	0			0	0			1				0	
6.6.1	mac	2023-07-07	10:41:27	10:46:20	272420	60b8ee3c30afdb493743872e	3	1	practice_slash	5	practice_slash	11	stimuli_target_rectanglediamonds.svg	stimuli_distractor_diamondtriangles.svg	1	yes	53	1	730	0	0			0	0			1				0	
6.6.1	mac	2023-07-07	10:41:27	10:46:20	272420	60b8ee3c30afdb493743872e	3	1	practice_slash	5	advance_on_keypress_SLASH	12	stimuli_target_rectanglediamonds.svg	stimuli_distractor_diamondtriangles.svg	1	yes	57	0	847	0	0			0	0			1				0	
6.6.1	mac	2023-07-07	10:41:27	10:46:23	275646	60b8ee3c30afdb493743872e	3	1	practice_slash	5	practice_slash	13	stimuli_distractor_trianglediamonds.svg	stimuli_target_rectanglediamonds.svg	10	yes	53	1	739	0	0			0	0			1				0	
6.6.1	mac	2023-07-07	10:41:27	10:46:23	275646	60b8ee3c30afdb493743872e	3	1	practice_slash	5	advance_on_keypress_SLASH	14	stimuli_distractor_trianglediamonds.svg	stimuli_target_rectanglediamonds.svg	10	yes	57	0	510	0	0			0	0			1				0	
6.6.1	mac	2023-07-07	10:41:27	10:46:27	279650	60b8ee3c30afdb493743872e	3	1	practice_slash	5	practice_slash	15	stimuli_distractor_trianglediamonds.svg	stimuli_distractor_diamondtriangles.svg	16	no	53	0	1856	0	0			0	0			1				0	
6.6.1	mac	2023-07-07	10:41:27	10:46:27	279650	60b8ee3c30afdb493743872e	3	1	practice_slash	5	advance_on_keypress_SLASH	16	stimuli_distractor_trianglediamonds.svg	stimuli_distractor_diamondtriangles.svg	16	no	57	0	675	0	0			0	0			1				0	
6.6.1	mac	2023-07-07	10:41:27	10:46:31	283964	60b8ee3c30afdb493743872e	3	1	practice_slash	5	practice_slash	17	stimuli_distractor_diamondtriangles.svg	stimuli_distractor_trianglediamonds.svg	14	no	0	1	2000	0	0			0	0			1				0	
6.6.1	mac	2023-07-07	10:41:27	10:46:31	283964	60b8ee3c30afdb493743872e	3	1	practice_slash	5	advance_on_keypress_SLASH	18	stimuli_distractor_diamondtriangles.svg	stimuli_distractor_trianglediamonds.svg	14	no	57	0	103	0	0			0	0			1				0	
6.6.1	mac	2023-07-07	10:41:27	10:46:34	286412	60b8ee3c30afdb493743872e	3	1	practice_slash	5	practice_slash	19	stimuli_distractor_diamondtriangles.svg	stimuli_target_rectangletriangles.svg	7	yes	53	1	712	0	0			0	0			1				0	
6.6.1	mac	2023-07-07	10:41:27	10:46:34	286412	60b8ee3c30afdb493743872e	3	1	practice_slash	5	advance_on_keypress_SLASH	20	stimuli_distractor_diamondtriangles.svg	stimuli_target_rectangletriangles.svg	7	yes	57	0	500	0	0			0	0			1				0	
6.6.1	mac	2023-07-07	10:41:27	10:46:38	290552	60b8ee3c30afdb493743872e	3	1	practice_slash	5	practice_slash	21	stimuli_target_diamondsquares.svg	stimuli_distractor_trianglediamonds.svg	6	yes	0	0	2000	0	0			0	0			1				0	
6.6.1	mac	2023-07-07	10:41:27	10:46:38	290552	60b8ee3c30afdb493743872e	3	1	practice_slash	5	advance_on_keypress_SLASH	22	stimuli_target_diamondsquares.svg	stimuli_distractor_trianglediamonds.svg	6	yes	57	0	607	0	0			0	0			1				0	
6.6.1	mac	2023-07-07	10:41:27	10:46:42	294788	60b8ee3c30afdb493743872e	3	1	practice_slash	5	practice_slash	23	stimuli_distractor_diamondtriangles.svg	stimuli_target_trianglerectangles.svg	9	yes	0	0	2000	0	0			0	0			1				0	
6.6.1	mac	2023-07-07	10:41:27	10:46:42	294788	60b8ee3c30afdb493743872e	3	1	practice_slash	5	advance_on_keypress_SLASH	24	stimuli_distractor_diamondtriangles.svg	stimuli_target_trianglerectangles.svg	9	yes	57	0	89	0	0			0	0			1				0	
6.6.1	mac	2023-07-07	10:41:27	10:46:44	297240	60b8ee3c30afdb493743872e	3	1	practice_slash	5	practice_slash	25	stimuli_target_squarediamonds.svg	stimuli_distractor_trianglediamonds.svg	5	yes	53	1	731	0	0			0	0			1				0	
6.6.1	mac	2023-07-07	10:41:27	10:46:44	297240	60b8ee3c30afdb493743872e	3	1	practice_slash	5	advance_on_keypress_SLASH	26	stimuli_target_squarediamonds.svg	stimuli_distractor_trianglediamonds.svg	5	yes	57	0	695	0	0			0	0			1				0	
6.6.1	mac	2023-07-07	10:41:27	10:46:49	301575	60b8ee3c30afdb493743872e	3	1	practice_slash	5	practice_slash	27	stimuli_distractor_diamondtriangles.svg	stimuli_distractor_diamondtriangles.svg	13	no	0	1	2000	0	0			0	0			1				0	
6.6.1	mac	2023-07-07	10:41:27	10:46:49	301575	60b8ee3c30afdb493743872e	3	1	practice_slash	5	advance_on_keypress_SLASH	28	stimuli_distractor_diamondtriangles.svg	stimuli_distractor_diamondtriangles.svg	13	no	57	0	603	0	0			0	0			1				0	
6.6.1	mac	2023-07-07	10:41:27	10:46:52	304612	60b8ee3c30afdb493743872e	3	1	practice_slash	5	practice_slash	29	stimuli_target_diamondsquares.svg	stimuli_distractor_diamondtriangles.svg	3	yes	53	1	799	0	0			0	0			1				0	
6.6.1	mac	2023-07-07	10:41:27	10:46:52	304612	60b8ee3c30afdb493743872e	3	1	practice_slash	5	advance_on_keypress_SLASH	30	stimuli_target_diamondsquares.svg	stimuli_distractor_diamondtriangles.svg	3	yes	57	0	365	0	0			0	0			1				0	
6.6.1	mac	2023-07-07	10:41:27	10:46:54	307223	60b8ee3c30afdb493743872e	3	1	practice_slash	5	practice_slash	31	stimuli_target_squarediamonds.svg	stimuli_distractor_diamondtriangles.svg	2	yes	53	1	608	0	0			0	0			1				0	
6.6.1	mac	2023-07-07	10:41:27	10:46:54	307223	60b8ee3c30afdb493743872e	3	1	practice_slash	5	advance_on_keypress_SLASH	32	stimuli_target_squarediamonds.svg	stimuli_distractor_diamondtriangles.svg	2	yes	57	0	288	0	0			0	0			1				0	
6.6.1	mac	2023-07-07	10:41:27	10:46:58	311242	60b8ee3c30afdb493743872e	3	1	main_slash	7	main_slash	1	stimuli_target_rectangletriangles.svg	stimuli_distractor_trianglediamonds.svg	1	yes	53	1	693	0	0			0	0			1				0	
6.6.1	mac	2023-07-07	10:41:27	10:46:58	311242	60b8ee3c30afdb493743872e	3	1	main_slash	7	advance_on_keypress_SLASH	2	stimuli_target_rectangletriangles.svg	stimuli_distractor_trianglediamonds.svg	1	yes	57	0	2537	0	0			0	0			1				0	
6.6.1	mac	2023-07-07	10:41:27	10:47:04	316420	60b8ee3c30afdb493743872e	3	1	main_slash	7	main_slash	3	stimuli_distractor_trianglediamonds.svg	stimuli_distractor_diamondtriangles.svg	35	no	0	1	2000	0	0			0	0			1				0	
6.6.1	mac	2023-07-07	10:41:27	10:47:04	316420	60b8ee3c30afdb493743872e	3	1	main_slash	7	advance_on_keypress_SLASH	4	stimuli_distractor_trianglediamonds.svg	stimuli_distractor_diamondtriangles.svg	35	no	57	0	692	0	0			0	0			1				0	
6.6.1	mac	2023-07-07	10:41:27	10:47:06	318584	60b8ee3c30afdb493743872e	3	1	main_slash	7	main_slash	5	stimuli_target_diamondsquares.svg	stimuli_distractor_trianglediamonds.svg	20	yes	53	1	830	0	0			0	0			1				0	
6.6.1	mac	2023-07-07	10:41:27	10:47:06	318584	60b8ee3c30afdb493743872e	3	1	main_slash	7	advance_on_keypress_SLASH	6	stimuli_target_diamondsquares.svg	stimuli_distractor_trianglediamonds.svg	20	yes	57	0	970	0	0			0	0			1				0	
6.6.1	mac	2023-07-07	10:41:27	10:47:08	320803	60b8ee3c30afdb493743872e	3	1	main_slash	7	main_slash	7	stimuli_distractor_diamondtriangles.svg	stimuli_target_squarediamonds.svg	16	yes	53	1	611	0	0			0	0			1				0	
6.6.1	mac	2023-07-07	10:41:27	10:47:08	320803	60b8ee3c30afdb493743872e	3	1	main_slash	7	advance_on_keypress_SLASH	8	stimuli_distractor_diamondtriangles.svg	stimuli_target_squarediamonds.svg	16	yes	57	0	766	0	0			0	0			1				0	
6.6.1	mac	2023-07-07	10:41:27	10:47:10	322990	60b8ee3c30afdb493743872e	3	1	main_slash	7	main_slash	9	stimuli_target_trianglesquares.svg	stimuli_distractor_trianglediamonds.svg	18	yes	53	1	781	0	0			0	0			1				0	
6.6.1	mac	2023-07-07	10:41:27	10:47:10	322990	60b8ee3c30afdb493743872e	3	1	main_slash	7	advance_on_keypress_SLASH	10	stimuli_target_trianglesquares.svg	stimuli_distractor_trianglediamonds.svg	18	yes	57	0	634	0	0			0	0			1				0	
6.6.1	mac	2023-07-07	10:41:27	10:47:12	325186	60b8ee3c30afdb493743872e	3	1	main_slash	7	main_slash	11	stimuli_distractor_trianglediamonds.svg	stimuli_target_squarediamonds.svg	12	yes	53	1	924	0	0			0	0			1				0	
6.6.1	mac	2023-07-07	10:41:27	10:47:12	325186	60b8ee3c30afdb493743872e	3	1	main_slash	7	advance_on_keypress_SLASH	12	stimuli_distractor_trianglediamonds.svg	stimuli_target_squarediamonds.svg	12	yes	57	0	699	0	0			0	0			1				0	
6.6.1	mac	2023-07-07	10:41:27	10:47:14	327235	60b8ee3c30afdb493743872e	3	1	main_slash	7	main_slash	13	stimuli_target_diamondsquares.svg	stimuli_distractor_diamondtriangles.svg	24	yes	53	1	723	0	0			0	0			1				0	
6.6.1	mac	2023-07-07	10:41:27	10:47:14	327235	60b8ee3c30afdb493743872e	3	1	main_slash	7	advance_on_keypress_SLASH	14	stimuli_target_diamondsquares.svg	stimuli_distractor_diamondtriangles.svg	24	yes	57	0	699	0	0			0	0			1				0	
6.6.1	mac	2023-07-07	10:41:27	10:47:17	329461	60b8ee3c30afdb493743872e	3	1	main_slash	7	main_slash	15	stimuli_distractor_trianglediamonds.svg	stimuli_target_trianglerectangles.svg	25	yes	53	1	899	0	0			0	0			1				0	
6.6.1	mac	2023-07-07	10:41:27	10:47:17	329461	60b8ee3c30afdb493743872e	3	1	main_slash	7	advance_on_keypress_SLASH	16	stimuli_distractor_trianglediamonds.svg	stimuli_target_trianglerectangles.svg	25	yes	57	0	669	0	0			0	0			1				0	
6.6.1	mac	2023-07-07	10:41:27	10:47:19	331732	60b8ee3c30afdb493743872e	3	1	main_slash	7	main_slash	17	stimuli_distractor_trianglediamonds.svg	stimuli_target_rectangletriangles.svg	9	yes	53	1	966	0	0			0	0			1				0	
6.6.1	mac	2023-07-07	10:41:27	10:47:19	331732	60b8ee3c30afdb493743872e	3	1	main_slash	7	advance_on_keypress_SLASH	18	stimuli_distractor_trianglediamonds.svg	stimuli_target_rectangletriangles.svg	9	yes	57	0	619	0	0			0	0			1				0	
6.6.1	mac	2023-07-07	10:41:27	10:47:21	333860	60b8ee3c30afdb493743872e	3	1	main_slash	7	main_slash	19	stimuli_target_trianglerectangles.svg	stimuli_distractor_trianglediamonds.svg	17	yes	53	1	878	0	0			0	0			1				0	
6.6.1	mac	2023-07-07	10:41:27	10:47:21	333860	60b8ee3c30afdb493743872e	3	1	main_slash	7	advance_on_keypress_SLASH	20	stimuli_target_trianglerectangles.svg	stimuli_distractor_trianglediamonds.svg	17	yes	57	0	655	0	0			0	0			1				0	
6.6.1	mac	2023-07-07	10:41:27	10:47:24	337152	60b8ee3c30afdb493743872e	3	1	main_slash	7	main_slash	21	stimuli_distractor_diamondtriangles.svg	stimuli_distractor_diamondtriangles.svg	40	no	0	1	2000	0	0			0	0			1				0	
6.6.1	mac	2023-07-07	10:41:27	10:47:24	337152	60b8ee3c30afdb493743872e	3	1	main_slash	7	advance_on_keypress_SLASH	22	stimuli_distractor_diamondtriangles.svg	stimuli_distractor_diamondtriangles.svg	40	no	57	0	528	0	0			0	0			1				0	
6.6.1	mac	2023-07-07	10:41:27	10:47:26	339102	60b8ee3c30afdb493743872e	3	1	main_slash	7	main_slash	23	stimuli_target_trianglerectangles.svg	stimuli_distractor_diamondtriangles.svg	21	yes	53	1	783	0	0			0	0			1				0	
6.6.1	mac	2023-07-07	10:41:27	10:47:26	339102	60b8ee3c30afdb493743872e	3	1	main_slash	7	advance_on_keypress_SLASH	24	stimuli_target_trianglerectangles.svg	stimuli_distractor_diamondtriangles.svg	21	yes	57	0	665	0	0			0	0			1				0	
6.6.1	mac	2023-07-07	10:41:27	10:47:28	341150	60b8ee3c30afdb493743872e	3	1	main_slash	7	main_slash	25	stimuli_distractor_diamondtriangles.svg	stimuli_target_diamondsquares.svg	32	yes	53	1	744	0	0			0	0			1				0	
6.6.1	mac	2023-07-07	10:41:27	10:47:28	341150	60b8ee3c30afdb493743872e	3	1	main_slash	7	advance_on_keypress_SLASH	26	stimuli_distractor_diamondtriangles.svg	stimuli_target_diamondsquares.svg	32	yes	57	0	556	0	0			0	0			1				0	
6.6.1	mac	2023-07-07	10:41:27	10:47:30	343044	60b8ee3c30afdb493743872e	3	1	main_slash	7	main_slash	27	stimuli_target_diamondrectangles.svg	stimuli_distractor_trianglediamonds.svg	19	yes	53	1	706	0	0			0	0			1				0	
6.6.1	mac	2023-07-07	10:41:27	10:47:30	343044	60b8ee3c30afdb493743872e	3	1	main_slash	7	advance_on_keypress_SLASH	28	stimuli_target_diamondrectangles.svg	stimuli_distractor_trianglediamonds.svg	19	yes	57	0	541	0	0			0	0			1				0	
6.6.1	mac	2023-07-07	10:41:27	10:47:33	346226	60b8ee3c30afdb493743872e	3	1	main_slash	7	main_slash	29	stimuli_distractor_diamondtriangles.svg	stimuli_distractor_trianglediamonds.svg	37	no	0	1	2000	0	0			0	0			1				0	
6.6.1	mac	2023-07-07	10:41:27	10:47:33	346226	60b8ee3c30afdb493743872e	3	1	main_slash	7	advance_on_keypress_SLASH	30	stimuli_distractor_diamondtriangles.svg	stimuli_distractor_trianglediamonds.svg	37	no	57	0	493	0	0			0	0			1				0	
6.6.1	mac	2023-07-07	10:41:27	10:47:37	349342	60b8ee3c30afdb493743872e	3	1	main_slash	7	main_slash	31	stimuli_distractor_trianglediamonds.svg	stimuli_distractor_trianglediamonds.svg	34	no	0	1	2000	0	0			0	0			1				0	
6.6.1	mac	2023-07-07	10:41:27	10:47:37	349342	60b8ee3c30afdb493743872e	3	1	main_slash	7	advance_on_keypress_SLASH	32	stimuli_distractor_trianglediamonds.svg	stimuli_distractor_trianglediamonds.svg	34	no	57	0	634	0	0			0	0			1				0	
6.6.1	mac	2023-07-07	10:41:27	10:47:40	352612	60b8ee3c30afdb493743872e	3	1	main_slash	7	main_slash	33	stimuli_distractor_diamondtriangles.svg	stimuli_distractor_trianglediamonds.svg	38	no	0	1	2000	0	0			0	0			1				0	
6.6.1	mac	2023-07-07	10:41:27	10:47:40	352612	60b8ee3c30afdb493743872e	3	1	main_slash	7	advance_on_keypress_SLASH	34	stimuli_distractor_diamondtriangles.svg	stimuli_distractor_trianglediamonds.svg	38	no	57	0	613	0	0			0	0			1				0	
6.6.1	mac	2023-07-07	10:41:27	10:47:42	354487	60b8ee3c30afdb493743872e	3	1	main_slash	7	main_slash	35	stimuli_target_trianglesquares.svg	stimuli_distractor_diamondtriangles.svg	22	yes	53	1	624	0	0			0	0			1				0	
6.6.1	mac	2023-07-07	10:41:27	10:47:42	354487	60b8ee3c30afdb493743872e	3	1	main_slash	7	advance_on_keypress_SLASH	36	stimuli_target_trianglesquares.svg	stimuli_distractor_diamondtriangles.svg	22	yes	57	0	619	0	0			0	0			1				0	
6.6.1	mac	2023-07-07	10:41:27	10:47:44	356374	60b8ee3c30afdb493743872e	3	1	main_slash	7	main_slash	37	stimuli_distractor_diamondtriangles.svg	stimuli_target_rectanglediamonds.svg	14	yes	53	1	624	0	0			0	0			1				0	
6.6.1	mac	2023-07-07	10:41:27	10:47:44	356374	60b8ee3c30afdb493743872e	3	1	main_slash	7	advance_on_keypress_SLASH	38	stimuli_distractor_diamondtriangles.svg	stimuli_target_rectanglediamonds.svg	14	yes	57	0	505	0	0			0	0			1				0	
6.6.1	mac	2023-07-07	10:41:27	10:47:45	357988	60b8ee3c30afdb493743872e	3	1	main_slash	7	main_slash	39	stimuli_target_squarediamonds.svg	stimuli_distractor_diamondtriangles.svg	8	yes	53	1	471	0	0			0	0			1				0	
6.6.1	mac	2023-07-07	10:41:27	10:47:45	357988	60b8ee3c30afdb493743872e	3	1	main_slash	7	advance_on_keypress_SLASH	40	stimuli_target_squarediamonds.svg	stimuli_distractor_diamondtriangles.svg	8	yes	57	0	535	0	0			0	0			1				0	
6.6.1	mac	2023-07-07	10:41:27	10:47:47	359591	60b8ee3c30afdb493743872e	3	1	main_slash	7	main_slash	41	stimuli_target_rectangletriangles.svg	stimuli_distractor_diamondtriangles.svg	5	yes	53	1	439	0	0			0	0			1				0	
6.6.1	mac	2023-07-07	10:41:27	10:47:47	359591	60b8ee3c30afdb493743872e	3	1	main_slash	7	advance_on_keypress_SLASH	42	stimuli_target_rectangletriangles.svg	stimuli_distractor_diamondtriangles.svg	5	yes	57	0	561	0	0			0	0			1				0	
6.6.1	mac	2023-07-07	10:41:27	10:47:49	361309	60b8ee3c30afdb493743872e	3	1	main_slash	7	main_slash	43	stimuli_target_rectanglediamonds.svg	stimuli_distractor_diamondtriangles.svg	6	yes	53	1	523	0	0			0	0			1				0	
6.6.1	mac	2023-07-07	10:41:27	10:47:49	361309	60b8ee3c30afdb493743872e	3	1	main_slash	7	advance_on_keypress_SLASH	44	stimuli_target_rectanglediamonds.svg	stimuli_distractor_diamondtriangles.svg	6	yes	57	0	552	0	0			0	0			1				0	
6.6.1	mac	2023-07-07	10:41:27	10:47:52	364502	60b8ee3c30afdb493743872e	3	1	main_slash	7	main_slash	45	stimuli_distractor_diamondtriangles.svg	stimuli_distractor_diamondtriangles.svg	39	no	0	1	2000	0	0			0	0			1				0	
6.6.1	mac	2023-07-07	10:41:27	10:47:52	364502	60b8ee3c30afdb493743872e	3	1	main_slash	7	advance_on_keypress_SLASH	46	stimuli_distractor_diamondtriangles.svg	stimuli_distractor_diamondtriangles.svg	39	no	57	0	497	0	0			0	0			1				0	
6.6.1	mac	2023-07-07	10:41:27	10:47:54	366287	60b8ee3c30afdb493743872e	3	1	main_slash	7	main_slash	47	stimuli_distractor_trianglediamonds.svg	stimuli_target_rectanglediamonds.svg	10	yes	53	1	647	0	0			0	0			1				0	
6.6.1	mac	2023-07-07	10:41:27	10:47:54	366287	60b8ee3c30afdb493743872e	3	1	main_slash	7	advance_on_keypress_SLASH	48	stimuli_distractor_trianglediamonds.svg	stimuli_target_rectanglediamonds.svg	10	yes	57	0	686	0	0			0	0			1				0	
6.6.1	mac	2023-07-07	10:41:27	10:47:56	368345	60b8ee3c30afdb493743872e	3	1	main_slash	7	main_slash	49	stimuli_distractor_trianglediamonds.svg	stimuli_target_diamondsquares.svg	28	yes	53	1	738	0	0			0	0			1				0	
6.6.1	mac	2023-07-07	10:41:27	10:47:56	368345	60b8ee3c30afdb493743872e	3	1	main_slash	7	advance_on_keypress_SLASH	50	stimuli_distractor_trianglediamonds.svg	stimuli_target_diamondsquares.svg	28	yes	57	0	541	0	0			0	0			1				0	
6.6.1	mac	2023-07-07	10:41:27	10:47:58	370287	60b8ee3c30afdb493743872e	3	1	main_slash	7	main_slash	51	stimuli_distractor_diamondtriangles.svg	stimuli_target_diamondrectangles.svg	31	yes	53	1	760	0	0			0	0			1				0	
6.6.1	mac	2023-07-07	10:41:27	10:47:58	370287	60b8ee3c30afdb493743872e	3	1	main_slash	7	advance_on_keypress_SLASH	52	stimuli_distractor_diamondtriangles.svg	stimuli_target_diamondrectangles.svg	31	yes	57	0	548	0	0			0	0			1				0	
6.6.1	mac	2023-07-07	10:41:27	10:48:00	372320	60b8ee3c30afdb493743872e	3	1	main_slash	7	main_slash	53	stimuli_distractor_trianglediamonds.svg	stimuli_target_diamondrectangles.svg	27	yes	53	1	844	0	0			0	0			1				0	
6.6.1	mac	2023-07-07	10:41:27	10:48:00	372320	60b8ee3c30afdb493743872e	3	1	main_slash	7	advance_on_keypress_SLASH	54	stimuli_distractor_trianglediamonds.svg	stimuli_target_diamondrectangles.svg	27	yes	57	0	528	0	0			0	0			1				0	
6.6.1	mac	2023-07-07	10:41:27	10:48:03	375492	60b8ee3c30afdb493743872e	3	1	main_slash	7	main_slash	55	stimuli_distractor_trianglediamonds.svg	stimuli_distractor_diamondtriangles.svg	36	no	0	1	2000	0	0			0	0			1				0	
6.6.1	mac	2023-07-07	10:41:27	10:48:03	375492	60b8ee3c30afdb493743872e	3	1	main_slash	7	advance_on_keypress_SLASH	56	stimuli_distractor_trianglediamonds.svg	stimuli_distractor_diamondtriangles.svg	36	no	57	0	296	0	0			0	0			1				0	
6.6.1	mac	2023-07-07	10:41:27	10:48:04	377119	60b8ee3c30afdb493743872e	3	1	main_slash	7	main_slash	57	stimuli_target_squaretriangles.svg	stimuli_distractor_trianglediamonds.svg	3	yes	53	1	690	0	0			0	0			1				0	
6.6.1	mac	2023-07-07	10:41:27	10:48:04	377119	60b8ee3c30afdb493743872e	3	1	main_slash	7	advance_on_keypress_SLASH	58	stimuli_target_squaretriangles.svg	stimuli_distractor_trianglediamonds.svg	3	yes	57	0	533	0	0			0	0			1				0	
6.6.1	mac	2023-07-07	10:41:27	10:48:06	378952	60b8ee3c30afdb493743872e	3	1	main_slash	7	main_slash	59	stimuli_distractor_diamondtriangles.svg	stimuli_target_squaretriangles.svg	15	yes	53	1	672	0	0			0	0			1				0	
6.6.1	mac	2023-07-07	10:41:27	10:48:06	378952	60b8ee3c30afdb493743872e	3	1	main_slash	7	advance_on_keypress_SLASH	60	stimuli_distractor_diamondtriangles.svg	stimuli_target_squaretriangles.svg	15	yes	57	0	471	0	0			0	0			1				0	
6.6.1	mac	2023-07-07	10:41:27	10:48:08	380895	60b8ee3c30afdb493743872e	3	1	main_slash	7	main_slash	61	stimuli_distractor_trianglediamonds.svg	stimuli_target_squaretriangles.svg	11	yes	53	1	827	0	0			0	0			1				0	
6.6.1	mac	2023-07-07	10:41:27	10:48:08	380895	60b8ee3c30afdb493743872e	3	1	main_slash	7	advance_on_keypress_SLASH	62	stimuli_distractor_trianglediamonds.svg	stimuli_target_squaretriangles.svg	11	yes	57	0	528	0	0			0	0			1				0	
6.6.1	mac	2023-07-07	10:41:27	10:48:10	382757	60b8ee3c30afdb493743872e	3	1	main_slash	7	main_slash	63	stimuli_target_diamondrectangles.svg	stimuli_distractor_diamondtriangles.svg	23	yes	53	1	690	0	0			0	0			1				0	
6.6.1	mac	2023-07-07	10:41:27	10:48:10	382757	60b8ee3c30afdb493743872e	3	1	main_slash	7	advance_on_keypress_SLASH	64	stimuli_target_diamondrectangles.svg	stimuli_distractor_diamondtriangles.svg	23	yes	57	0	586	0	0			0	0			1				0	
6.6.1	mac	2023-07-07	10:41:27	10:48:12	384699	60b8ee3c30afdb493743872e	3	1	main_slash	7	main_slash	65	stimuli_distractor_diamondtriangles.svg	stimuli_target_rectangletriangles.svg	13	yes	53	1	714	0	0			0	0			1				0	
6.6.1	mac	2023-07-07	10:41:27	10:48:12	384699	60b8ee3c30afdb493743872e	3	1	main_slash	7	advance_on_keypress_SLASH	66	stimuli_distractor_diamondtriangles.svg	stimuli_target_rectangletriangles.svg	13	yes	57	0	548	0	0			0	0			1				0	
6.6.1	mac	2023-07-07	10:41:27	10:48:14	386553	60b8ee3c30afdb493743872e	3	1	main_slash	7	main_slash	67	stimuli_target_rectanglediamonds.svg	stimuli_distractor_trianglediamonds.svg	2	yes	53	1	666	0	0			0	0			1				0	
6.6.1	mac	2023-07-07	10:41:27	10:48:14	386553	60b8ee3c30afdb493743872e	3	1	main_slash	7	advance_on_keypress_SLASH	68	stimuli_target_rectanglediamonds.svg	stimuli_distractor_trianglediamonds.svg	2	yes	57	0	499	0	0			0	0			1				0	
6.6.1	mac	2023-07-07	10:41:27	10:48:17	389686	60b8ee3c30afdb493743872e	3	1	main_slash	7	main_slash	69	stimuli_distractor_trianglediamonds.svg	stimuli_distractor_trianglediamonds.svg	33	no	0	1	2000	0	0			0	0			1				0	
6.6.1	mac	2023-07-07	10:41:27	10:48:17	389686	60b8ee3c30afdb493743872e	3	1	main_slash	7	advance_on_keypress_SLASH	70	stimuli_distractor_trianglediamonds.svg	stimuli_distractor_trianglediamonds.svg	33	no	57	0	546	0	0			0	0			1				0	
6.6.1	mac	2023-07-07	10:41:27	10:48:19	391713	60b8ee3c30afdb493743872e	3	1	main_slash	7	main_slash	71	stimuli_distractor_trianglediamonds.svg	stimuli_target_trianglesquares.svg	26	yes	53	1	830	0	0			0	0			1				0	
6.6.1	mac	2023-07-07	10:41:27	10:48:19	391713	60b8ee3c30afdb493743872e	3	1	main_slash	7	advance_on_keypress_SLASH	72	stimuli_distractor_trianglediamonds.svg	stimuli_target_trianglesquares.svg	26	yes	57	0	488	0	0			0	0			1				0	
6.6.1	mac	2023-07-07	10:41:27	10:48:21	393659	60b8ee3c30afdb493743872e	3	1	main_slash	7	main_slash	73	stimuli_distractor_diamondtriangles.svg	stimuli_target_trianglerectangles.svg	29	yes	53	1	818	0	0			0	0			1				0	
6.6.1	mac	2023-07-07	10:41:27	10:48:21	393659	60b8ee3c30afdb493743872e	3	1	main_slash	7	advance_on_keypress_SLASH	74	stimuli_distractor_diamondtriangles.svg	stimuli_target_trianglerectangles.svg	29	yes	57	0	542	0	0			0	0			1				0	
6.6.1	mac	2023-07-07	10:41:27	10:48:23	395986	60b8ee3c30afdb493743872e	3	1	main_slash	7	main_slash	75	stimuli_target_squaretriangles.svg	stimuli_distractor_diamondtriangles.svg	7	yes	53	1	1160	0	0			0	0			1				0	
6.6.1	mac	2023-07-07	10:41:27	10:48:23	395986	60b8ee3c30afdb493743872e	3	1	main_slash	7	advance_on_keypress_SLASH	76	stimuli_target_squaretriangles.svg	stimuli_distractor_diamondtriangles.svg	7	yes	57	0	409	0	0			0	0			1				0	
6.6.1	mac	2023-07-07	10:41:27	10:48:25	397952	60b8ee3c30afdb493743872e	3	1	main_slash	7	main_slash	77	stimuli_distractor_diamondtriangles.svg	stimuli_target_trianglesquares.svg	30	yes	53	1	925	0	0			0	0			1				0	
6.6.1	mac	2023-07-07	10:41:27	10:48:25	397952	60b8ee3c30afdb493743872e	3	1	main_slash	7	advance_on_keypress_SLASH	78	stimuli_distractor_diamondtriangles.svg	stimuli_target_trianglesquares.svg	30	yes	57	0	407	0	0			0	0			1				0	
6.6.1	mac	2023-07-07	10:41:27	10:48:27	399853	60b8ee3c30afdb493743872e	3	1	main_slash	7	main_slash	79	stimuli_target_squarediamonds.svg	stimuli_distractor_trianglediamonds.svg	4	yes	53	1	860	0	0			0	0			1				0	
6.6.1	mac	2023-07-07	10:41:27	10:48:27	399853	60b8ee3c30afdb493743872e	3	1	main_slash	7	advance_on_keypress_SLASH	80	stimuli_target_squarediamonds.svg	stimuli_distractor_trianglediamonds.svg	4	yes	57	0	473	0	0			0	0			1				0	
6.6.1	mac	2023-07-07	10:41:27	10:48:29	401707	60b8ee3c30afdb493743872e	3	1	main_slash	7	main_slash	81	stimuli_distractor_diamondtriangles.svg	stimuli_target_rectangletriangles.svg	13	yes	53	1	744	0	0			0	0			1				0	
6.6.1	mac	2023-07-07	10:41:27	10:48:29	401707	60b8ee3c30afdb493743872e	3	1	main_slash	7	advance_on_keypress_SLASH	82	stimuli_distractor_diamondtriangles.svg	stimuli_target_rectangletriangles.svg	13	yes	57	0	472	0	0			0	0			1				0	
6.6.1	mac	2023-07-07	10:41:27	10:48:31	403449	60b8ee3c30afdb493743872e	3	1	main_slash	7	main_slash	83	stimuli_target_squaretriangles.svg	stimuli_distractor_diamondtriangles.svg	7	yes	53	1	635	0	0			0	0			1				0	
6.6.1	mac	2023-07-07	10:41:27	10:48:31	403449	60b8ee3c30afdb493743872e	3	1	main_slash	7	advance_on_keypress_SLASH	84	stimuli_target_squaretriangles.svg	stimuli_distractor_diamondtriangles.svg	7	yes	57	0	621	0	0			0	0			1				0	
6.6.1	mac	2023-07-07	10:41:27	10:48:34	406699	60b8ee3c30afdb493743872e	3	1	main_slash	7	main_slash	85	stimuli_distractor_diamondtriangles.svg	stimuli_distractor_diamondtriangles.svg	40	no	0	1	2000	0	0			0	0			1				0	
6.6.1	mac	2023-07-07	10:41:27	10:48:34	406699	60b8ee3c30afdb493743872e	3	1	main_slash	7	advance_on_keypress_SLASH	86	stimuli_distractor_diamondtriangles.svg	stimuli_distractor_diamondtriangles.svg	40	no	57	0	500	0	0			0	0			1				0	
6.6.1	mac	2023-07-07	10:41:27	10:48:36	408368	60b8ee3c30afdb493743872e	3	1	main_slash	7	main_slash	87	stimuli_target_rectanglediamonds.svg	stimuli_distractor_diamondtriangles.svg	6	yes	53	1	537	0	0			0	0			1				0	
6.6.1	mac	2023-07-07	10:41:27	10:48:36	408368	60b8ee3c30afdb493743872e	3	1	main_slash	7	advance_on_keypress_SLASH	88	stimuli_target_rectanglediamonds.svg	stimuli_distractor_diamondtriangles.svg	6	yes	57	0	506	0	0			0	0			1				0	
6.6.1	mac	2023-07-07	10:41:27	10:48:37	410031	60b8ee3c30afdb493743872e	3	1	main_slash	7	main_slash	89	stimuli_target_rectangletriangles.svg	stimuli_distractor_trianglediamonds.svg	1	yes	53	1	530	0	0			0	0			1				0	
6.6.1	mac	2023-07-07	10:41:27	10:48:37	410031	60b8ee3c30afdb493743872e	3	1	main_slash	7	advance_on_keypress_SLASH	90	stimuli_target_rectangletriangles.svg	stimuli_distractor_trianglediamonds.svg	1	yes	57	0	479	0	0			0	0			1				0	
6.6.1	mac	2023-07-07	10:41:27	10:48:39	411787	60b8ee3c30afdb493743872e	3	1	main_slash	7	main_slash	91	stimuli_distractor_trianglediamonds.svg	stimuli_target_diamondrectangles.svg	27	yes	53	1	635	0	0			0	0			1				0	
6.6.1	mac	2023-07-07	10:41:27	10:48:39	411787	60b8ee3c30afdb493743872e	3	1	main_slash	7	advance_on_keypress_SLASH	92	stimuli_distractor_trianglediamonds.svg	stimuli_target_diamondrectangles.svg	27	yes	57	0	481	0	0			0	0			1				0	
6.6.1	mac	2023-07-07	10:41:27	10:48:41	413748	60b8ee3c30afdb493743872e	3	1	main_slash	7	main_slash	93	stimuli_distractor_diamondtriangles.svg	stimuli_target_diamondsquares.svg	32	yes	53	1	845	0	0			0	0			1				0	
6.6.1	mac	2023-07-07	10:41:27	10:48:41	413748	60b8ee3c30afdb493743872e	3	1	main_slash	7	advance_on_keypress_SLASH	94	stimuli_distractor_diamondtriangles.svg	stimuli_target_diamondsquares.svg	32	yes	57	0	377	0	0			0	0			1				0	
6.6.1	mac	2023-07-07	10:41:27	10:48:43	415525	60b8ee3c30afdb493743872e	3	1	main_slash	7	main_slash	95	stimuli_distractor_diamondtriangles.svg	stimuli_target_squaretriangles.svg	15	yes	53	1	753	0	0			0	0			1				0	
6.6.1	mac	2023-07-07	10:41:27	10:48:43	415525	60b8ee3c30afdb493743872e	3	1	main_slash	7	advance_on_keypress_SLASH	96	stimuli_distractor_diamondtriangles.svg	stimuli_target_squaretriangles.svg	15	yes	57	0	377	0	0			0	0			1				0	
6.6.1	mac	2023-07-07	10:41:27	10:48:44	417108	60b8ee3c30afdb493743872e	3	1	main_slash	7	main_slash	97	stimuli_distractor_trianglediamonds.svg	stimuli_target_squarediamonds.svg	12	yes	53	1	570	0	0			0	0			1				0	
6.6.1	mac	2023-07-07	10:41:27	10:48:44	417108	60b8ee3c30afdb493743872e	3	1	main_slash	7	advance_on_keypress_SLASH	98	stimuli_distractor_trianglediamonds.svg	stimuli_target_squarediamonds.svg	12	yes	57	0	401	0	0			0	0			1				0	
6.6.1	mac	2023-07-07	10:41:27	10:48:46	418674	60b8ee3c30afdb493743872e	3	1	main_slash	7	main_slash	99	stimuli_distractor_diamondtriangles.svg	stimuli_distractor_trianglediamonds.svg	38	no	53	0	521	0	0			0	0			1				0	
6.6.1	mac	2023-07-07	10:41:27	10:48:46	418674	60b8ee3c30afdb493743872e	3	1	main_slash	7	advance_on_keypress_SLASH	100	stimuli_distractor_diamondtriangles.svg	stimuli_distractor_trianglediamonds.svg	38	no	57	0	494	0	0			0	0			1				0	
6.6.1	mac	2023-07-07	10:41:27	10:48:48	420505	60b8ee3c30afdb493743872e	3	1	main_slash	7	main_slash	101	stimuli_target_trianglesquares.svg	stimuli_distractor_diamondtriangles.svg	22	yes	53	1	694	0	0			0	0			1				0	
6.6.1	mac	2023-07-07	10:41:27	10:48:48	420505	60b8ee3c30afdb493743872e	3	1	main_slash	7	advance_on_keypress_SLASH	102	stimuli_target_trianglesquares.svg	stimuli_distractor_diamondtriangles.svg	22	yes	57	0	511	0	0			0	0			1				0	
6.6.1	mac	2023-07-07	10:41:27	10:48:50	422420	60b8ee3c30afdb493743872e	3	1	main_slash	7	main_slash	103	stimuli_distractor_trianglediamonds.svg	stimuli_target_squaretriangles.svg	11	yes	53	1	761	0	0			0	0			1				0	
6.6.1	mac	2023-07-07	10:41:27	10:48:50	422420	60b8ee3c30afdb493743872e	3	1	main_slash	7	advance_on_keypress_SLASH	104	stimuli_distractor_trianglediamonds.svg	stimuli_target_squaretriangles.svg	11	yes	57	0	458	0	0			0	0			1				0	
6.6.1	mac	2023-07-07	10:41:27	10:48:52	424247	60b8ee3c30afdb493743872e	3	1	main_slash	7	main_slash	105	stimuli_target_squarediamonds.svg	stimuli_distractor_trianglediamonds.svg	4	yes	53	1	739	0	0			0	0			1				0	
6.6.1	mac	2023-07-07	10:41:27	10:48:52	424247	60b8ee3c30afdb493743872e	3	1	main_slash	7	advance_on_keypress_SLASH	106	stimuli_target_squarediamonds.svg	stimuli_distractor_trianglediamonds.svg	4	yes	57	0	643	0	0			0	0			1				0	
6.6.1	mac	2023-07-07	10:41:27	10:48:54	426238	60b8ee3c30afdb493743872e	3	1	main_slash	7	main_slash	107	stimuli_distractor_trianglediamonds.svg	stimuli_target_trianglesquares.svg	26	yes	53	1	725	0	0			0	0			1				0	
6.6.1	mac	2023-07-07	10:41:27	10:48:54	426238	60b8ee3c30afdb493743872e	3	1	main_slash	7	advance_on_keypress_SLASH	108	stimuli_distractor_trianglediamonds.svg	stimuli_target_trianglesquares.svg	26	yes	57	0	434	0	0			0	0			1				0	
6.6.1	mac	2023-07-07	10:41:27	10:48:56	428277	60b8ee3c30afdb493743872e	3	1	main_slash	7	main_slash	109	stimuli_target_diamondsquares.svg	stimuli_distractor_trianglediamonds.svg	20	yes	53	1	964	0	0			0	0			1				0	
6.6.1	mac	2023-07-07	10:41:27	10:48:56	428277	60b8ee3c30afdb493743872e	3	1	main_slash	7	advance_on_keypress_SLASH	110	stimuli_target_diamondsquares.svg	stimuli_distractor_trianglediamonds.svg	20	yes	57	0	549	0	0			0	0			1				0	
6.6.1	mac	2023-07-07	10:41:27	10:48:58	430227	60b8ee3c30afdb493743872e	3	1	main_slash	7	main_slash	111	stimuli_target_diamondrectangles.svg	stimuli_distractor_diamondtriangles.svg	23	yes	53	1	760	0	0			0	0			1				0	
6.6.1	mac	2023-07-07	10:41:27	10:48:58	430227	60b8ee3c30afdb493743872e	3	1	main_slash	7	advance_on_keypress_SLASH	112	stimuli_target_diamondrectangles.svg	stimuli_distractor_diamondtriangles.svg	23	yes	57	0	452	0	0			0	0			1				0	
6.6.1	mac	2023-07-07	10:41:27	10:48:59	432037	60b8ee3c30afdb493743872e	3	1	main_slash	7	main_slash	113	stimuli_distractor_diamondtriangles.svg	stimuli_target_trianglesquares.svg	30	yes	53	1	720	0	0			0	0			1				0	
6.6.1	mac	2023-07-07	10:41:27	10:48:59	432037	60b8ee3c30afdb493743872e	3	1	main_slash	7	advance_on_keypress_SLASH	114	stimuli_distractor_diamondtriangles.svg	stimuli_target_trianglesquares.svg	30	yes	57	0	496	0	0			0	0			1				0	
6.6.1	mac	2023-07-07	10:41:27	10:49:01	433720	60b8ee3c30afdb493743872e	3	1	main_slash	7	main_slash	115	stimuli_target_trianglerectangles.svg	stimuli_distractor_diamondtriangles.svg	21	yes	53	1	555	0	0			0	0			1				0	
6.6.1	mac	2023-07-07	10:41:27	10:49:01	433720	60b8ee3c30afdb493743872e	3	1	main_slash	7	advance_on_keypress_SLASH	116	stimuli_target_trianglerectangles.svg	stimuli_distractor_diamondtriangles.svg	21	yes	57	0	498	0	0			0	0			1				0	
6.6.1	mac	2023-07-07	10:41:27	10:49:03	435375	60b8ee3c30afdb493743872e	3	1	main_slash	7	main_slash	117	stimuli_distractor_trianglediamonds.svg	stimuli_target_rectanglediamonds.svg	10	yes	53	1	522	0	0			0	0			1				0	
6.6.1	mac	2023-07-07	10:41:27	10:49:03	435375	60b8ee3c30afdb493743872e	3	1	main_slash	7	advance_on_keypress_SLASH	118	stimuli_distractor_trianglediamonds.svg	stimuli_target_rectanglediamonds.svg	10	yes	57	0	692	0	0			0	0			1				0	
6.6.1	mac	2023-07-07	10:41:27	10:49:04	437034	60b8ee3c30afdb493743872e	3	1	main_slash	7	main_slash	119	stimuli_distractor_trianglediamonds.svg	stimuli_target_rectangletriangles.svg	9	yes	53	1	331	0	0			0	0			1				0	
6.6.1	mac	2023-07-07	10:41:27	10:49:04	437034	60b8ee3c30afdb493743872e	3	1	main_slash	7	advance_on_keypress_SLASH	120	stimuli_distractor_trianglediamonds.svg	stimuli_target_rectangletriangles.svg	9	yes	57	0	693	0	0			0	0			1				0	
6.6.1	mac	2023-07-07	10:41:27	10:49:06	438834	60b8ee3c30afdb493743872e	3	1	main_slash	7	main_slash	121	stimuli_distractor_trianglediamonds.svg	stimuli_target_trianglerectangles.svg	25	yes	53	1	480	0	0			0	0			1				0	
6.6.1	mac	2023-07-07	10:41:27	10:49:06	438834	60b8ee3c30afdb493743872e	3	1	main_slash	7	advance_on_keypress_SLASH	122	stimuli_distractor_trianglediamonds.svg	stimuli_target_trianglerectangles.svg	25	yes	57	0	683	0	0			0	0			1				0	
6.6.1	mac	2023-07-07	10:41:27	10:49:08	440734	60b8ee3c30afdb493743872e	3	1	main_slash	7	main_slash	123	stimuli_distractor_trianglediamonds.svg	stimuli_target_diamondsquares.svg	28	yes	53	1	579	0	0			0	0			1				0	
6.6.1	mac	2023-07-07	10:41:27	10:49:08	440734	60b8ee3c30afdb493743872e	3	1	main_slash	7	advance_on_keypress_SLASH	124	stimuli_distractor_trianglediamonds.svg	stimuli_target_diamondsquares.svg	28	yes	57	0	605	0	0			0	0			1				0	
6.6.1	mac	2023-07-07	10:41:27	10:49:10	442737	60b8ee3c30afdb493743872e	3	1	main_slash	7	main_slash	125	stimuli_distractor_trianglediamonds.svg	stimuli_distractor_diamondtriangles.svg	36	no	53	0	764	0	0			0	0			1				0	
6.6.1	mac	2023-07-07	10:41:27	10:49:10	442737	60b8ee3c30afdb493743872e	3	1	main_slash	7	advance_on_keypress_SLASH	126	stimuli_distractor_trianglediamonds.svg	stimuli_distractor_diamondtriangles.svg	36	no	57	0	498	0	0			0	0			1				0	
6.6.1	mac	2023-07-07	10:41:27	10:49:12	444475	60b8ee3c30afdb493743872e	3	1	main_slash	7	main_slash	127	stimuli_target_squarediamonds.svg	stimuli_distractor_diamondtriangles.svg	8	yes	53	1	601	0	0			0	0			1				0	
6.6.1	mac	2023-07-07	10:41:27	10:49:12	444475	60b8ee3c30afdb493743872e	3	1	main_slash	7	advance_on_keypress_SLASH	128	stimuli_target_squarediamonds.svg	stimuli_distractor_diamondtriangles.svg	8	yes	57	0	625	0	0			0	0			1				0	
6.6.1	mac	2023-07-07	10:41:27	10:49:14	446315	60b8ee3c30afdb493743872e	3	1	main_slash	7	main_slash	129	stimuli_target_diamondsquares.svg	stimuli_distractor_diamondtriangles.svg	24	yes	53	1	589	0	0			0	0			1				0	
6.6.1	mac	2023-07-07	10:41:27	10:49:14	446315	60b8ee3c30afdb493743872e	3	1	main_slash	7	advance_on_keypress_SLASH	130	stimuli_target_diamondsquares.svg	stimuli_distractor_diamondtriangles.svg	24	yes	57	0	539	0	0			0	0			1				0	
6.6.1	mac	2023-07-07	10:41:27	10:49:15	447877	60b8ee3c30afdb493743872e	3	1	main_slash	7	main_slash	131	stimuli_target_squaretriangles.svg	stimuli_distractor_trianglediamonds.svg	3	yes	53	1	385	0	0			0	0			1				0	
6.6.1	mac	2023-07-07	10:41:27	10:49:15	447877	60b8ee3c30afdb493743872e	3	1	main_slash	7	advance_on_keypress_SLASH	132	stimuli_target_squaretriangles.svg	stimuli_distractor_trianglediamonds.svg	3	yes	57	0	520	0	0			0	0			1				0	
6.6.1	mac	2023-07-07	10:41:27	10:49:17	449454	60b8ee3c30afdb493743872e	3	1	main_slash	7	main_slash	133	stimuli_distractor_diamondtriangles.svg	stimuli_distractor_diamondtriangles.svg	39	no	53	0	411	0	0			0	0			1				0	
6.6.1	mac	2023-07-07	10:41:27	10:49:17	449454	60b8ee3c30afdb493743872e	3	1	main_slash	7	advance_on_keypress_SLASH	134	stimuli_distractor_diamondtriangles.svg	stimuli_distractor_diamondtriangles.svg	39	no	57	0	536	0	0			0	0			1				0	
6.6.1	mac	2023-07-07	10:41:27	10:49:19	451261	60b8ee3c30afdb493743872e	3	1	main_slash	7	main_slash	135	stimuli_distractor_diamondtriangles.svg	stimuli_target_diamondrectangles.svg	31	yes	53	1	630	0	0			0	0			1				0	
6.6.1	mac	2023-07-07	10:41:27	10:49:19	451261	60b8ee3c30afdb493743872e	3	1	main_slash	7	advance_on_keypress_SLASH	136	stimuli_distractor_diamondtriangles.svg	stimuli_target_diamondrectangles.svg	31	yes	57	0	450	0	0			0	0			1				0	
6.6.1	mac	2023-07-07	10:41:27	10:49:22	454346	60b8ee3c30afdb493743872e	3	1	main_slash	7	main_slash	137	stimuli_distractor_diamondtriangles.svg	stimuli_distractor_trianglediamonds.svg	37	no	0	1	2000	0	0			0	0			1				0	
6.6.1	mac	2023-07-07	10:41:27	10:49:22	454346	60b8ee3c30afdb493743872e	3	1	main_slash	7	advance_on_keypress_SLASH	138	stimuli_distractor_diamondtriangles.svg	stimuli_distractor_trianglediamonds.svg	37	no	57	0	483	0	0			0	0			1				0	
6.6.1	mac	2023-07-07	10:41:27	10:49:25	457468	60b8ee3c30afdb493743872e	3	1	main_slash	7	main_slash	139	stimuli_distractor_trianglediamonds.svg	stimuli_distractor_diamondtriangles.svg	35	no	0	1	2000	0	0			0	0			1				0	
6.6.1	mac	2023-07-07	10:41:27	10:49:25	457468	60b8ee3c30afdb493743872e	3	1	main_slash	7	advance_on_keypress_SLASH	140	stimuli_distractor_trianglediamonds.svg	stimuli_distractor_diamondtriangles.svg	35	no	57	0	328	0	0			0	0			1				0	
6.6.1	mac	2023-07-07	10:41:27	10:49:26	459144	60b8ee3c30afdb493743872e	3	1	main_slash	7	main_slash	141	stimuli_distractor_diamondtriangles.svg	stimuli_target_squarediamonds.svg	16	yes	53	1	710	0	0			0	0			1				0	
6.6.1	mac	2023-07-07	10:41:27	10:49:26	459144	60b8ee3c30afdb493743872e	3	1	main_slash	7	advance_on_keypress_SLASH	142	stimuli_distractor_diamondtriangles.svg	stimuli_target_squarediamonds.svg	16	yes	57	0	561	0	0			0	0			1				0	
6.6.1	mac	2023-07-07	10:41:27	10:49:30	462337	60b8ee3c30afdb493743872e	3	1	main_slash	7	main_slash	143	stimuli_distractor_trianglediamonds.svg	stimuli_distractor_trianglediamonds.svg	33	no	0	1	2000	0	0			0	0			1				0	
6.6.1	mac	2023-07-07	10:41:27	10:49:30	462337	60b8ee3c30afdb493743872e	3	1	main_slash	7	advance_on_keypress_SLASH	144	stimuli_distractor_trianglediamonds.svg	stimuli_distractor_trianglediamonds.svg	33	no	57	0	539	0	0			0	0			1				0	
6.6.1	mac	2023-07-07	10:41:27	10:49:33	465502	60b8ee3c30afdb493743872e	3	1	main_slash	7	main_slash	145	stimuli_distractor_trianglediamonds.svg	stimuli_distractor_trianglediamonds.svg	34	no	0	1	2000	0	0			0	0			1				0	
6.6.1	mac	2023-07-07	10:41:27	10:49:33	465502	60b8ee3c30afdb493743872e	3	1	main_slash	7	advance_on_keypress_SLASH	146	stimuli_distractor_trianglediamonds.svg	stimuli_distractor_trianglediamonds.svg	34	no	57	0	348	0	0			0	0			1				0	
6.6.1	mac	2023-07-07	10:41:27	10:49:34	467088	60b8ee3c30afdb493743872e	3	1	main_slash	7	main_slash	147	stimuli_target_diamondrectangles.svg	stimuli_distractor_trianglediamonds.svg	19	yes	53	1	598	0	0			0	0			1				0	
6.6.1	mac	2023-07-07	10:41:27	10:49:34	467088	60b8ee3c30afdb493743872e	3	1	main_slash	7	advance_on_keypress_SLASH	148	stimuli_target_diamondrectangles.svg	stimuli_distractor_trianglediamonds.svg	19	yes	57	0	480	0	0			0	0			1				0	
6.6.1	mac	2023-07-07	10:41:27	10:49:36	468955	60b8ee3c30afdb493743872e	3	1	main_slash	7	main_slash	149	stimuli_target_trianglerectangles.svg	stimuli_distractor_trianglediamonds.svg	17	yes	53	1	748	0	0			0	0			1				0	
6.6.1	mac	2023-07-07	10:41:27	10:49:36	468955	60b8ee3c30afdb493743872e	3	1	main_slash	7	advance_on_keypress_SLASH	150	stimuli_target_trianglerectangles.svg	stimuli_distractor_trianglediamonds.svg	17	yes	57	0	474	0	0			0	0			1				0	
6.6.1	mac	2023-07-07	10:41:27	10:49:38	470856	60b8ee3c30afdb493743872e	3	1	main_slash	7	main_slash	151	stimuli_distractor_diamondtriangles.svg	stimuli_target_rectanglediamonds.svg	14	yes	53	1	794	0	0			0	0			1				0	
6.6.1	mac	2023-07-07	10:41:27	10:49:38	470856	60b8ee3c30afdb493743872e	3	1	main_slash	7	advance_on_keypress_SLASH	152	stimuli_distractor_diamondtriangles.svg	stimuli_target_rectanglediamonds.svg	14	yes	57	0	510	0	0			0	0			1				0	
6.6.1	mac	2023-07-07	10:41:27	10:49:40	472702	60b8ee3c30afdb493743872e	3	1	main_slash	7	main_slash	153	stimuli_target_rectangletriangles.svg	stimuli_distractor_diamondtriangles.svg	5	yes	53	1	709	0	0			0	0			1				0	
6.6.1	mac	2023-07-07	10:41:27	10:49:40	472702	60b8ee3c30afdb493743872e	3	1	main_slash	7	advance_on_keypress_SLASH	154	stimuli_target_rectangletriangles.svg	stimuli_distractor_diamondtriangles.svg	5	yes	57	0	544	0	0			0	0			1				0	
6.6.1	mac	2023-07-07	10:41:27	10:49:42	474607	60b8ee3c30afdb493743872e	3	1	main_slash	7	main_slash	155	stimuli_target_trianglesquares.svg	stimuli_distractor_trianglediamonds.svg	18	yes	53	1	731	0	0			0	0			1				0	
6.6.1	mac	2023-07-07	10:41:27	10:49:42	474607	60b8ee3c30afdb493743872e	3	1	main_slash	7	advance_on_keypress_SLASH	156	stimuli_target_trianglesquares.svg	stimuli_distractor_trianglediamonds.svg	18	yes	57	0	504	0	0			0	0			1				0	
6.6.1	mac	2023-07-07	10:41:27	10:49:44	476466	60b8ee3c30afdb493743872e	3	1	main_slash	7	main_slash	157	stimuli_distractor_diamondtriangles.svg	stimuli_target_trianglerectangles.svg	29	yes	53	1	717	0	0			0	0			1				0	
6.6.1	mac	2023-07-07	10:41:27	10:49:44	476466	60b8ee3c30afdb493743872e	3	1	main_slash	7	advance_on_keypress_SLASH	158	stimuli_distractor_diamondtriangles.svg	stimuli_target_trianglerectangles.svg	29	yes	57	0	571	0	0			0	0			1				0	
6.6.1	mac	2023-07-07	10:41:27	10:49:46	478350	60b8ee3c30afdb493743872e	3	1	main_slash	7	main_slash	159	stimuli_target_rectanglediamonds.svg	stimuli_distractor_trianglediamonds.svg	2	yes	53	1	684	0	0			0	0			1				0	
6.6.1	mac	2023-07-07	10:41:27	10:49:46	478350	60b8ee3c30afdb493743872e	3	1	main_slash	7	advance_on_keypress_SLASH	160	stimuli_target_rectanglediamonds.svg	stimuli_distractor_trianglediamonds.svg	2	yes	57	0	514	0	0			0	0			1				0	
6.6.1	mac	2023-07-07	10:41:27	10:50:07	499517	60b8ee3c30afdb493743872e	3	1	practice_z	9	practice_z	1	stimuli_distractor_diamondtriangles.svg	stimuli_target_trianglerectangles.svg	9	yes	44	1	737	0	0			0	0			1				0	
6.6.1	mac	2023-07-07	10:41:27	10:50:07	499517	60b8ee3c30afdb493743872e	3	1	practice_z	9	advance_on_keypress_ZEE	2	stimuli_distractor_diamondtriangles.svg	stimuli_target_trianglerectangles.svg	9	yes	57	0	601	0	0			0	0			1				0	
6.6.1	mac	2023-07-07	10:41:27	10:50:10	502372	60b8ee3c30afdb493743872e	3	1	practice_z	9	practice_z	3	stimuli_distractor_diamondtriangles.svg	stimuli_target_diamondrectangles.svg	8	yes	44	1	604	0	0			0	0			1				0	
6.6.1	mac	2023-07-07	10:41:27	10:50:10	502372	60b8ee3c30afdb493743872e	3	1	practice_z	9	advance_on_keypress_ZEE	4	stimuli_distractor_diamondtriangles.svg	stimuli_target_diamondrectangles.svg	8	yes	57	0	513	0	0			0	0			1				0	
6.6.1	mac	2023-07-07	10:41:27	10:50:13	506124	60b8ee3c30afdb493743872e	3	1	practice_z	9	practice_z	5	stimuli_distractor_diamondtriangles.svg	stimuli_distractor_trianglediamonds.svg	14	no	44	0	1605	0	0			0	0			1				0	
6.6.1	mac	2023-07-07	10:41:27	10:50:13	506124	60b8ee3c30afdb493743872e	3	1	practice_z	9	advance_on_keypress_ZEE	6	stimuli_distractor_diamondtriangles.svg	stimuli_distractor_trianglediamonds.svg	14	no	57	0	807	0	0			0	0			1				0	
6.6.1	mac	2023-07-07	10:41:27	10:50:17	509312	60b8ee3c30afdb493743872e	3	1	practice_z	9	practice_z	7	stimuli_target_diamondsquares.svg	stimuli_distractor_diamondtriangles.svg	3	yes	44	1	741	0	0			0	0			1				0	
6.6.1	mac	2023-07-07	10:41:27	10:50:17	509312	60b8ee3c30afdb493743872e	3	1	practice_z	9	advance_on_keypress_ZEE	8	stimuli_target_diamondsquares.svg	stimuli_distractor_diamondtriangles.svg	3	yes	57	0	495	0	0			0	0			1				0	
6.6.1	mac	2023-07-07	10:41:27	10:50:19	512093	60b8ee3c30afdb493743872e	3	1	practice_z	9	practice_z	9	stimuli_distractor_trianglediamonds.svg	stimuli_target_diamondrectangles.svg	12	yes	44	1	653	0	0			0	0			1				0	
6.6.1	mac	2023-07-07	10:41:27	10:50:19	512093	60b8ee3c30afdb493743872e	3	1	practice_z	9	advance_on_keypress_ZEE	10	stimuli_distractor_trianglediamonds.svg	stimuli_target_diamondrectangles.svg	12	yes	57	0	481	0	0			0	0			1				0	
6.6.1	mac	2023-07-07	10:41:27	10:50:22	514743	60b8ee3c30afdb493743872e	3	1	practice_z	9	practice_z	11	stimuli_distractor_diamondtriangles.svg	stimuli_target_rectangletriangles.svg	7	yes	44	1	539	0	0			0	0			1				0	
6.6.1	mac	2023-07-07	10:41:27	10:50:22	514743	60b8ee3c30afdb493743872e	3	1	practice_z	9	advance_on_keypress_ZEE	12	stimuli_distractor_diamondtriangles.svg	stimuli_target_rectangletriangles.svg	7	yes	57	0	415	0	0			0	0			1				0	
6.6.1	mac	2023-07-07	10:41:27	10:50:26	518587	60b8ee3c30afdb493743872e	3	1	practice_z	9	practice_z	13	stimuli_distractor_trianglediamonds.svg	stimuli_distractor_diamondtriangles.svg	16	no	44	0	1791	0	0			0	0			1				0	
6.6.1	mac	2023-07-07	10:41:27	10:50:26	518587	60b8ee3c30afdb493743872e	3	1	practice_z	9	advance_on_keypress_ZEE	14	stimuli_distractor_trianglediamonds.svg	stimuli_distractor_diamondtriangles.svg	16	no	57	0	579	0	0			0	0			1				0	
6.6.1	mac	2023-07-07	10:41:27	10:50:29	521355	60b8ee3c30afdb493743872e	3	1	practice_z	9	practice_z	15	stimuli_distractor_trianglediamonds.svg	stimuli_target_rectanglediamonds.svg	10	yes	44	1	543	0	0			0	0			1				0	
6.6.1	mac	2023-07-07	10:41:27	10:50:29	521355	60b8ee3c30afdb493743872e	3	1	practice_z	9	advance_on_keypress_ZEE	16	stimuli_distractor_trianglediamonds.svg	stimuli_target_rectanglediamonds.svg	10	yes	57	0	513	0	0			0	0			1				0	
6.6.1	mac	2023-07-07	10:41:27	10:50:33	525513	60b8ee3c30afdb493743872e	3	1	practice_z	9	practice_z	17	stimuli_distractor_trianglediamonds.svg	stimuli_distractor_trianglediamonds.svg	15	no	0	1	2000	0	0			0	0			1				0	
6.6.1	mac	2023-07-07	10:41:27	10:50:33	525513	60b8ee3c30afdb493743872e	3	1	practice_z	9	advance_on_keypress_ZEE	18	stimuli_distractor_trianglediamonds.svg	stimuli_distractor_trianglediamonds.svg	15	no	57	0	471	0	0			0	0			1				0	
6.6.1	mac	2023-07-07	10:41:27	10:50:36	528271	60b8ee3c30afdb493743872e	3	1	practice_z	9	practice_z	19	stimuli_distractor_trianglediamonds.svg	stimuli_target_squarediamonds.svg	11	yes	44	1	654	0	0			0	0			1				0	
6.6.1	mac	2023-07-07	10:41:27	10:50:36	528271	60b8ee3c30afdb493743872e	3	1	practice_z	9	advance_on_keypress_ZEE	20	stimuli_distractor_trianglediamonds.svg	stimuli_target_squarediamonds.svg	11	yes	57	0	372	0	0			0	0			1				0	
6.6.1	mac	2023-07-07	10:41:27	10:50:38	530756	60b8ee3c30afdb493743872e	3	1	practice_z	9	practice_z	21	stimuli_target_squarediamonds.svg	stimuli_distractor_diamondtriangles.svg	2	yes	44	1	468	0	0			0	0			1				0	
6.6.1	mac	2023-07-07	10:41:27	10:50:38	530756	60b8ee3c30afdb493743872e	3	1	practice_z	9	advance_on_keypress_ZEE	22	stimuli_target_squarediamonds.svg	stimuli_distractor_diamondtriangles.svg	2	yes	57	0	293	0	0			0	0			1				0	
6.6.1	mac	2023-07-07	10:41:27	10:50:40	533131	60b8ee3c30afdb493743872e	3	1	practice_z	9	practice_z	23	stimuli_target_rectanglediamonds.svg	stimuli_distractor_trianglediamonds.svg	4	yes	44	1	444	0	0			0	0			1				0	
6.6.1	mac	2023-07-07	10:41:27	10:50:40	533131	60b8ee3c30afdb493743872e	3	1	practice_z	9	advance_on_keypress_ZEE	24	stimuli_target_rectanglediamonds.svg	stimuli_distractor_trianglediamonds.svg	4	yes	57	0	640	0	0			0	0			1				0	
6.6.1	mac	2023-07-07	10:41:27	10:50:43	535870	60b8ee3c30afdb493743872e	3	1	practice_z	9	practice_z	25	stimuli_target_rectanglediamonds.svg	stimuli_distractor_diamondtriangles.svg	1	yes	44	1	459	0	0			0	0			1				0	
6.6.1	mac	2023-07-07	10:41:27	10:50:43	535870	60b8ee3c30afdb493743872e	3	1	practice_z	9	advance_on_keypress_ZEE	26	stimuli_target_rectanglediamonds.svg	stimuli_distractor_diamondtriangles.svg	1	yes	57	0	0	0	0			0	0			1				0	
6.6.1	mac	2023-07-07	10:41:27	10:50:45	538091	60b8ee3c30afdb493743872e	3	1	practice_z	9	practice_z	27	stimuli_target_squarediamonds.svg	stimuli_distractor_trianglediamonds.svg	5	yes	44	1	584	0	0			0	0			1				0	
6.6.1	mac	2023-07-07	10:41:27	10:50:45	538091	60b8ee3c30afdb493743872e	3	1	practice_z	9	advance_on_keypress_ZEE	28	stimuli_target_squarediamonds.svg	stimuli_distractor_trianglediamonds.svg	5	yes	57	0	293	0	0			0	0			1				0	
6.6.1	mac	2023-07-07	10:41:27	10:50:48	540747	60b8ee3c30afdb493743872e	3	1	practice_z	9	practice_z	29	stimuli_target_diamondsquares.svg	stimuli_distractor_trianglediamonds.svg	6	yes	44	1	721	0	0			0	0			1				0	
6.6.1	mac	2023-07-07	10:41:27	10:50:48	540747	60b8ee3c30afdb493743872e	3	1	practice_z	9	advance_on_keypress_ZEE	30	stimuli_target_diamondsquares.svg	stimuli_distractor_trianglediamonds.svg	6	yes	57	0	346	0	0			0	0			1				0	
6.6.1	mac	2023-07-07	10:41:27	10:50:52	544727	60b8ee3c30afdb493743872e	3	1	practice_z	9	practice_z	31	stimuli_distractor_diamondtriangles.svg	stimuli_distractor_diamondtriangles.svg	13	no	0	1	2000	0	0			0	0			1				0	
6.6.1	mac	2023-07-07	10:41:27	10:50:52	544727	60b8ee3c30afdb493743872e	3	1	practice_z	9	advance_on_keypress_ZEE	32	stimuli_distractor_diamondtriangles.svg	stimuli_distractor_diamondtriangles.svg	13	no	57	0	324	0	0			0	0			1				0	
6.6.1	mac	2023-07-07	10:41:27	10:50:56	548902	60b8ee3c30afdb493743872e	3	1	main_z	11	main_z	1	stimuli_distractor_trianglediamonds.svg	stimuli_target_rectangletriangles.svg	9	yes	44	1	590	0	0			0	0			1				0	
6.6.1	mac	2023-07-07	10:41:27	10:50:56	548902	60b8ee3c30afdb493743872e	3	1	main_z	11	advance_on_keypress_ZEE	2	stimuli_distractor_trianglediamonds.svg	stimuli_target_rectangletriangles.svg	9	yes	57	0	858	0	0			0	0			1				0	
6.6.1	mac	2023-07-07	10:41:27	10:50:58	551009	60b8ee3c30afdb493743872e	3	1	main_z	11	main_z	3	stimuli_distractor_diamondtriangles.svg	stimuli_target_trianglesquares.svg	30	yes	44	1	625	0	0			0	0			1				0	
6.6.1	mac	2023-07-07	10:41:27	10:50:58	551009	60b8ee3c30afdb493743872e	3	1	main_z	11	advance_on_keypress_ZEE	4	stimuli_distractor_diamondtriangles.svg	stimuli_target_trianglesquares.svg	30	yes	57	0	689	0	0			0	0			1				0	
6.6.1	mac	2023-07-07	10:41:27	10:51:00	552985	60b8ee3c30afdb493743872e	3	1	main_z	11	main_z	5	stimuli_distractor_diamondtriangles.svg	stimuli_target_trianglerectangles.svg	29	yes	44	1	651	0	0			0	0			1				0	
6.6.1	mac	2023-07-07	10:41:27	10:51:00	552985	60b8ee3c30afdb493743872e	3	1	main_z	11	advance_on_keypress_ZEE	6	stimuli_distractor_diamondtriangles.svg	stimuli_target_trianglerectangles.svg	29	yes	57	0	623	0	0			0	0			1				0	
6.6.1	mac	2023-07-07	10:41:27	10:51:02	554938	60b8ee3c30afdb493743872e	3	1	main_z	11	main_z	7	stimuli_target_squaretriangles.svg	stimuli_distractor_trianglediamonds.svg	3	yes	44	1	700	0	0			0	0			1				0	
6.6.1	mac	2023-07-07	10:41:27	10:51:02	554938	60b8ee3c30afdb493743872e	3	1	main_z	11	advance_on_keypress_ZEE	8	stimuli_target_squaretriangles.svg	stimuli_distractor_trianglediamonds.svg	3	yes	57	0	495	0	0			0	0			1				0	
6.6.1	mac	2023-07-07	10:41:27	10:51:04	556615	60b8ee3c30afdb493743872e	3	1	main_z	11	main_z	9	stimuli_target_trianglesquares.svg	stimuli_distractor_diamondtriangles.svg	22	yes	44	1	545	0	0			0	0			1				0	
6.6.1	mac	2023-07-07	10:41:27	10:51:04	556615	60b8ee3c30afdb493743872e	3	1	main_z	11	advance_on_keypress_ZEE	10	stimuli_target_trianglesquares.svg	stimuli_distractor_diamondtriangles.svg	22	yes	57	0	450	0	0			0	0			1				0	
6.6.1	mac	2023-07-07	10:41:27	10:51:07	559704	60b8ee3c30afdb493743872e	3	1	main_z	11	main_z	11	stimuli_distractor_diamondtriangles.svg	stimuli_distractor_diamondtriangles.svg	39	no	0	1	2000	0	0			0	0			1				0	
6.6.1	mac	2023-07-07	10:41:27	10:51:07	559704	60b8ee3c30afdb493743872e	3	1	main_z	11	advance_on_keypress_ZEE	12	stimuli_distractor_diamondtriangles.svg	stimuli_distractor_diamondtriangles.svg	39	no	57	0	344	0	0			0	0			1				0	
6.6.1	mac	2023-07-07	10:41:27	10:51:09	561354	60b8ee3c30afdb493743872e	3	1	main_z	11	main_z	13	stimuli_target_trianglerectangles.svg	stimuli_distractor_diamondtriangles.svg	21	yes	44	1	664	0	0			0	0			1				0	
6.6.1	mac	2023-07-07	10:41:27	10:51:09	561354	60b8ee3c30afdb493743872e	3	1	main_z	11	advance_on_keypress_ZEE	14	stimuli_target_trianglerectangles.svg	stimuli_distractor_diamondtriangles.svg	21	yes	57	0	554	0	0			0	0			1				0	
6.6.1	mac	2023-07-07	10:41:27	10:51:11	563259	60b8ee3c30afdb493743872e	3	1	main_z	11	main_z	15	stimuli_distractor_diamondtriangles.svg	stimuli_target_squarediamonds.svg	16	yes	44	1	718	0	0			0	0			1				0	
6.6.1	mac	2023-07-07	10:41:27	10:51:11	563259	60b8ee3c30afdb493743872e	3	1	main_z	11	advance_on_keypress_ZEE	16	stimuli_distractor_diamondtriangles.svg	stimuli_target_squarediamonds.svg	16	yes	57	0	396	0	0			0	0			1				0	
6.6.1	mac	2023-07-07	10:41:27	10:51:12	564950	60b8ee3c30afdb493743872e	3	1	main_z	11	main_z	17	stimuli_distractor_trianglediamonds.svg	stimuli_target_diamondrectangles.svg	27	yes	44	1	673	0	0			0	0			1				0	
6.6.1	mac	2023-07-07	10:41:27	10:51:12	564950	60b8ee3c30afdb493743872e	3	1	main_z	11	advance_on_keypress_ZEE	18	stimuli_distractor_trianglediamonds.svg	stimuli_target_diamondrectangles.svg	27	yes	57	0	393	0	0			0	0			1				0	
6.6.1	mac	2023-07-07	10:41:27	10:51:14	566575	60b8ee3c30afdb493743872e	3	1	main_z	11	main_z	19	stimuli_target_rectanglediamonds.svg	stimuli_distractor_diamondtriangles.svg	6	yes	44	1	597	0	0			0	0			1				0	
6.6.1	mac	2023-07-07	10:41:27	10:51:14	566575	60b8ee3c30afdb493743872e	3	1	main_z	11	advance_on_keypress_ZEE	20	stimuli_target_rectanglediamonds.svg	stimuli_distractor_diamondtriangles.svg	6	yes	57	0	416	0	0			0	0			1				0	
6.6.1	mac	2023-07-07	10:41:27	10:51:16	568240	60b8ee3c30afdb493743872e	3	1	main_z	11	main_z	21	stimuli_distractor_diamondtriangles.svg	stimuli_target_diamondsquares.svg	32	yes	44	1	612	0	0			0	0			1				0	
6.6.1	mac	2023-07-07	10:41:27	10:51:16	568240	60b8ee3c30afdb493743872e	3	1	main_z	11	advance_on_keypress_ZEE	22	stimuli_distractor_diamondtriangles.svg	stimuli_target_diamondsquares.svg	32	yes	57	0	395	0	0			0	0			1				0	
6.6.1	mac	2023-07-07	10:41:27	10:51:17	570162	60b8ee3c30afdb493743872e	3	1	main_z	11	main_z	23	stimuli_distractor_diamondtriangles.svg	stimuli_distractor_trianglediamonds.svg	38	no	44	0	897	0	0			0	0			1				0	
6.6.1	mac	2023-07-07	10:41:27	10:51:17	570162	60b8ee3c30afdb493743872e	3	1	main_z	11	advance_on_keypress_ZEE	24	stimuli_distractor_diamondtriangles.svg	stimuli_distractor_trianglediamonds.svg	38	no	57	0	602	0	0			0	0			1				0	
6.6.1	mac	2023-07-07	10:41:27	10:51:21	573398	60b8ee3c30afdb493743872e	3	1	main_z	11	main_z	25	stimuli_distractor_diamondtriangles.svg	stimuli_distractor_trianglediamonds.svg	37	no	0	1	2000	0	0			0	0			1				0	
6.6.1	mac	2023-07-07	10:41:27	10:51:21	573398	60b8ee3c30afdb493743872e	3	1	main_z	11	advance_on_keypress_ZEE	26	stimuli_distractor_diamondtriangles.svg	stimuli_distractor_trianglediamonds.svg	37	no	57	0	276	0	0			0	0			1				0	
6.6.1	mac	2023-07-07	10:41:27	10:51:22	574775	60b8ee3c30afdb493743872e	3	1	main_z	11	main_z	27	stimuli_target_squarediamonds.svg	stimuli_distractor_trianglediamonds.svg	4	yes	44	1	473	0	0			0	0			1				0	
6.6.1	mac	2023-07-07	10:41:27	10:51:22	574775	60b8ee3c30afdb493743872e	3	1	main_z	11	advance_on_keypress_ZEE	28	stimuli_target_squarediamonds.svg	stimuli_distractor_trianglediamonds.svg	4	yes	57	0	550	0	0			0	0			1				0	
6.6.1	mac	2023-07-07	10:41:27	10:51:24	576595	60b8ee3c30afdb493743872e	3	1	main_z	11	main_z	29	stimuli_distractor_diamondtriangles.svg	stimuli_target_rectanglediamonds.svg	14	yes	44	1	643	0	0			0	0			1				0	
6.6.1	mac	2023-07-07	10:41:27	10:51:24	576595	60b8ee3c30afdb493743872e	3	1	main_z	11	advance_on_keypress_ZEE	30	stimuli_distractor_diamondtriangles.svg	stimuli_target_rectanglediamonds.svg	14	yes	57	0	329	0	0			0	0			1				0	
6.6.1	mac	2023-07-07	10:41:27	10:51:26	578811	60b8ee3c30afdb493743872e	3	1	main_z	11	main_z	31	stimuli_distractor_diamondtriangles.svg	stimuli_target_diamondrectangles.svg	31	yes	44	1	1243	0	0			0	0			1				0	
6.6.1	mac	2023-07-07	10:41:27	10:51:26	578811	60b8ee3c30afdb493743872e	3	1	main_z	11	advance_on_keypress_ZEE	32	stimuli_distractor_diamondtriangles.svg	stimuli_target_diamondrectangles.svg	31	yes	57	0	255	0	0			0	0			1				0	
6.6.1	mac	2023-07-07	10:41:27	10:51:28	580416	60b8ee3c30afdb493743872e	3	1	main_z	11	main_z	33	stimuli_target_squaretriangles.svg	stimuli_distractor_diamondtriangles.svg	7	yes	44	1	711	0	0			0	0			1				0	
6.6.1	mac	2023-07-07	10:41:27	10:51:28	580416	60b8ee3c30afdb493743872e	3	1	main_z	11	advance_on_keypress_ZEE	34	stimuli_target_squaretriangles.svg	stimuli_distractor_diamondtriangles.svg	7	yes	57	0	286	0	0			0	0			1				0	
6.6.1	mac	2023-07-07	10:41:27	10:51:30	582317	60b8ee3c30afdb493743872e	3	1	main_z	11	main_z	35	stimuli_target_trianglesquares.svg	stimuli_distractor_trianglediamonds.svg	18	yes	44	1	979	0	0			0	0			1				0	
6.6.1	mac	2023-07-07	10:41:27	10:51:30	582317	60b8ee3c30afdb493743872e	3	1	main_z	11	advance_on_keypress_ZEE	36	stimuli_target_trianglesquares.svg	stimuli_distractor_trianglediamonds.svg	18	yes	57	0	277	0	0			0	0			1				0	
6.6.1	mac	2023-07-07	10:41:27	10:51:31	583891	60b8ee3c30afdb493743872e	3	1	main_z	11	main_z	37	stimuli_target_trianglerectangles.svg	stimuli_distractor_trianglediamonds.svg	17	yes	44	1	652	0	0			0	0			1				0	
6.6.1	mac	2023-07-07	10:41:27	10:51:31	583891	60b8ee3c30afdb493743872e	3	1	main_z	11	advance_on_keypress_ZEE	38	stimuli_target_trianglerectangles.svg	stimuli_distractor_trianglediamonds.svg	17	yes	57	0	297	0	0			0	0			1				0	
6.6.1	mac	2023-07-07	10:41:27	10:51:33	585372	60b8ee3c30afdb493743872e	3	1	main_z	11	main_z	39	stimuli_target_diamondrectangles.svg	stimuli_distractor_diamondtriangles.svg	23	yes	44	1	548	0	0			0	0			1				0	
6.6.1	mac	2023-07-07	10:41:27	10:51:33	585372	60b8ee3c30afdb493743872e	3	1	main_z	11	advance_on_keypress_ZEE	40	stimuli_target_diamondrectangles.svg	stimuli_distractor_diamondtriangles.svg	23	yes	57	0	301	0	0			0	0			1				0	
6.6.1	mac	2023-07-07	10:41:27	10:51:34	586779	60b8ee3c30afdb493743872e	3	1	main_z	11	main_z	41	stimuli_distractor_trianglediamonds.svg	stimuli_target_trianglesquares.svg	26	yes	44	1	470	0	0			0	0			1				0	
6.6.1	mac	2023-07-07	10:41:27	10:51:34	586779	60b8ee3c30afdb493743872e	3	1	main_z	11	advance_on_keypress_ZEE	42	stimuli_distractor_trianglediamonds.svg	stimuli_target_trianglesquares.svg	26	yes	57	0	304	0	0			0	0			1				0	
6.6.1	mac	2023-07-07	10:41:27	10:51:35	588108	60b8ee3c30afdb493743872e	3	1	main_z	11	main_z	43	stimuli_distractor_diamondtriangles.svg	stimuli_target_rectangletriangles.svg	13	yes	44	1	383	0	0			0	0			1				0	
6.6.1	mac	2023-07-07	10:41:27	10:51:35	588108	60b8ee3c30afdb493743872e	3	1	main_z	11	advance_on_keypress_ZEE	44	stimuli_distractor_diamondtriangles.svg	stimuli_target_rectangletriangles.svg	13	yes	57	0	282	0	0			0	0			1				0	
6.6.1	mac	2023-07-07	10:41:27	10:51:38	591025	60b8ee3c30afdb493743872e	3	1	main_z	11	main_z	45	stimuli_distractor_trianglediamonds.svg	stimuli_distractor_diamondtriangles.svg	35	no	0	1	2000	0	0			0	0			1				0	
6.6.1	mac	2023-07-07	10:41:27	10:51:38	591025	60b8ee3c30afdb493743872e	3	1	main_z	11	advance_on_keypress_ZEE	46	stimuli_distractor_trianglediamonds.svg	stimuli_distractor_diamondtriangles.svg	35	no	57	0	841	0	0			0	0			1				0	
6.6.1	mac	2023-07-07	10:41:27	10:51:41	593369	60b8ee3c30afdb493743872e	3	1	main_z	11	main_z	47	stimuli_distractor_trianglediamonds.svg	stimuli_target_squarediamonds.svg	12	yes	44	1	873	0	0			0	0			1				0	
6.6.1	mac	2023-07-07	10:41:27	10:51:41	593369	60b8ee3c30afdb493743872e	3	1	main_z	11	advance_on_keypress_ZEE	48	stimuli_distractor_trianglediamonds.svg	stimuli_target_squarediamonds.svg	12	yes	57	0	579	0	0			0	0			1				0	
6.6.1	mac	2023-07-07	10:41:27	10:51:44	596583	60b8ee3c30afdb493743872e	3	1	main_z	11	main_z	49	stimuli_distractor_trianglediamonds.svg	stimuli_distractor_diamondtriangles.svg	36	no	0	1	2000	0	0			0	0			1				0	
6.6.1	mac	2023-07-07	10:41:27	10:51:44	596583	60b8ee3c30afdb493743872e	3	1	main_z	11	advance_on_keypress_ZEE	50	stimuli_distractor_trianglediamonds.svg	stimuli_distractor_diamondtriangles.svg	36	no	57	0	578	0	0			0	0			1				0	
6.6.1	mac	2023-07-07	10:41:27	10:51:46	598389	60b8ee3c30afdb493743872e	3	1	main_z	11	main_z	51	stimuli_target_diamondrectangles.svg	stimuli_distractor_trianglediamonds.svg	19	yes	44	1	591	0	0			0	0			1				0	
6.6.1	mac	2023-07-07	10:41:27	10:51:46	598389	60b8ee3c30afdb493743872e	3	1	main_z	11	advance_on_keypress_ZEE	52	stimuli_target_diamondrectangles.svg	stimuli_distractor_trianglediamonds.svg	19	yes	57	0	731	0	0			0	0			1				0	
6.6.1	mac	2023-07-07	10:41:27	10:51:49	601752	60b8ee3c30afdb493743872e	3	1	main_z	11	main_z	53	stimuli_distractor_diamondtriangles.svg	stimuli_distractor_diamondtriangles.svg	40	no	0	1	2000	0	0			0	0			1				0	
6.6.1	mac	2023-07-07	10:41:27	10:51:49	601752	60b8ee3c30afdb493743872e	3	1	main_z	11	advance_on_keypress_ZEE	54	stimuli_distractor_diamondtriangles.svg	stimuli_distractor_diamondtriangles.svg	40	no	57	0	413	0	0			0	0			1				0	
6.6.1	mac	2023-07-07	10:41:27	10:51:51	603598	60b8ee3c30afdb493743872e	3	1	main_z	11	main_z	55	stimuli_distractor_diamondtriangles.svg	stimuli_target_squaretriangles.svg	15	yes	44	1	795	0	0			0	0			1				0	
6.6.1	mac	2023-07-07	10:41:27	10:51:51	603598	60b8ee3c30afdb493743872e	3	1	main_z	11	advance_on_keypress_ZEE	56	stimuli_distractor_diamondtriangles.svg	stimuli_target_squaretriangles.svg	15	yes	57	0	554	0	0			0	0			1				0	
6.6.1	mac	2023-07-07	10:41:27	10:51:53	605460	60b8ee3c30afdb493743872e	3	1	main_z	11	main_z	57	stimuli_distractor_trianglediamonds.svg	stimuli_target_trianglerectangles.svg	25	yes	44	1	669	0	0			0	0			1				0	
6.6.1	mac	2023-07-07	10:41:27	10:51:53	605460	60b8ee3c30afdb493743872e	3	1	main_z	11	advance_on_keypress_ZEE	58	stimuli_distractor_trianglediamonds.svg	stimuli_target_trianglerectangles.svg	25	yes	57	0	392	0	0			0	0			1				0	
6.6.1	mac	2023-07-07	10:41:27	10:51:54	607168	60b8ee3c30afdb493743872e	3	1	main_z	11	main_z	59	stimuli_target_diamondsquares.svg	stimuli_distractor_trianglediamonds.svg	20	yes	44	1	677	0	0			0	0			1				0	
6.6.1	mac	2023-07-07	10:41:27	10:51:54	607168	60b8ee3c30afdb493743872e	3	1	main_z	11	advance_on_keypress_ZEE	60	stimuli_target_diamondsquares.svg	stimuli_distractor_trianglediamonds.svg	20	yes	57	0	375	0	0			0	0			1				0	
6.6.1	mac	2023-07-07	10:41:27	10:51:56	608778	60b8ee3c30afdb493743872e	3	1	main_z	11	main_z	61	stimuli_target_diamondsquares.svg	stimuli_distractor_diamondtriangles.svg	24	yes	44	1	605	0	0			0	0			1				0	
6.6.1	mac	2023-07-07	10:41:27	10:51:56	608778	60b8ee3c30afdb493743872e	3	1	main_z	11	advance_on_keypress_ZEE	62	stimuli_target_diamondsquares.svg	stimuli_distractor_diamondtriangles.svg	24	yes	57	0	348	0	0			0	0			1				0	
6.6.1	mac	2023-07-07	10:41:27	10:51:58	610333	60b8ee3c30afdb493743872e	3	1	main_z	11	main_z	63	stimuli_distractor_trianglediamonds.svg	stimuli_target_rectanglediamonds.svg	10	yes	44	1	573	0	0			0	0			1				0	
6.6.1	mac	2023-07-07	10:41:27	10:51:58	610333	60b8ee3c30afdb493743872e	3	1	main_z	11	advance_on_keypress_ZEE	64	stimuli_distractor_trianglediamonds.svg	stimuli_target_rectanglediamonds.svg	10	yes	57	0	295	0	0			0	0			1				0	
6.6.1	mac	2023-07-07	10:41:27	10:52:01	613260	60b8ee3c30afdb493743872e	3	1	main_z	11	main_z	65	stimuli_distractor_trianglediamonds.svg	stimuli_distractor_trianglediamonds.svg	33	no	0	1	2000	0	0			0	0			1				0	
6.6.1	mac	2023-07-07	10:41:27	10:52:01	613260	60b8ee3c30afdb493743872e	3	1	main_z	11	advance_on_keypress_ZEE	66	stimuli_distractor_trianglediamonds.svg	stimuli_distractor_trianglediamonds.svg	33	no	57	0	585	0	0			0	0			1				0	
6.6.1	mac	2023-07-07	10:41:27	10:52:02	615018	60b8ee3c30afdb493743872e	3	1	main_z	11	main_z	67	stimuli_target_rectanglediamonds.svg	stimuli_distractor_trianglediamonds.svg	2	yes	44	1	538	0	0			0	0			1				0	
6.6.1	mac	2023-07-07	10:41:27	10:52:02	615018	60b8ee3c30afdb493743872e	3	1	main_z	11	advance_on_keypress_ZEE	68	stimuli_target_rectanglediamonds.svg	stimuli_distractor_trianglediamonds.svg	2	yes	57	0	309	0	0			0	0			1				0	
6.6.1	mac	2023-07-07	10:41:27	10:52:04	616413	60b8ee3c30afdb493743872e	3	1	main_z	11	main_z	69	stimuli_target_rectangletriangles.svg	stimuli_distractor_diamondtriangles.svg	5	yes	44	1	450	0	0			0	0			1				0	
6.6.1	mac	2023-07-07	10:41:27	10:52:04	616413	60b8ee3c30afdb493743872e	3	1	main_z	11	advance_on_keypress_ZEE	70	stimuli_target_rectangletriangles.svg	stimuli_distractor_diamondtriangles.svg	5	yes	57	0	270	0	0			0	0			1				0	
6.6.1	mac	2023-07-07	10:41:27	10:52:05	617973	60b8ee3c30afdb493743872e	3	1	main_z	11	main_z	71	stimuli_distractor_trianglediamonds.svg	stimuli_target_diamondsquares.svg	28	yes	44	1	658	0	0			0	0			1				0	
6.6.1	mac	2023-07-07	10:41:27	10:52:05	617973	60b8ee3c30afdb493743872e	3	1	main_z	11	advance_on_keypress_ZEE	72	stimuli_distractor_trianglediamonds.svg	stimuli_target_diamondsquares.svg	28	yes	57	0	285	0	0			0	0			1				0	
6.6.1	mac	2023-07-07	10:41:27	10:52:07	619400	60b8ee3c30afdb493743872e	3	1	main_z	11	main_z	73	stimuli_target_rectangletriangles.svg	stimuli_distractor_trianglediamonds.svg	1	yes	44	1	502	0	0			0	0			1				0	
6.6.1	mac	2023-07-07	10:41:27	10:52:07	619400	60b8ee3c30afdb493743872e	3	1	main_z	11	advance_on_keypress_ZEE	74	stimuli_target_rectangletriangles.svg	stimuli_distractor_trianglediamonds.svg	1	yes	57	0	343	0	0			0	0			1				0	
6.6.1	mac	2023-07-07	10:41:27	10:52:08	620794	60b8ee3c30afdb493743872e	3	1	main_z	11	main_z	75	stimuli_target_squarediamonds.svg	stimuli_distractor_diamondtriangles.svg	8	yes	44	1	411	0	0			0	0			1				0	
6.6.1	mac	2023-07-07	10:41:27	10:52:08	620794	60b8ee3c30afdb493743872e	3	1	main_z	11	advance_on_keypress_ZEE	76	stimuli_target_squarediamonds.svg	stimuli_distractor_diamondtriangles.svg	8	yes	57	0	287	0	0			0	0			1				0	
6.6.1	mac	2023-07-07	10:41:27	10:52:11	623718	60b8ee3c30afdb493743872e	3	1	main_z	11	main_z	77	stimuli_distractor_trianglediamonds.svg	stimuli_distractor_trianglediamonds.svg	34	no	0	1	2000	0	0			0	0			1				0	
6.6.1	mac	2023-07-07	10:41:27	10:52:11	623718	60b8ee3c30afdb493743872e	3	1	main_z	11	advance_on_keypress_ZEE	78	stimuli_distractor_trianglediamonds.svg	stimuli_distractor_trianglediamonds.svg	34	no	57	0	824	0	0			0	0			1				0	
6.6.1	mac	2023-07-07	10:41:27	10:52:13	625686	60b8ee3c30afdb493743872e	3	1	main_z	11	main_z	79	stimuli_distractor_trianglediamonds.svg	stimuli_target_squaretriangles.svg	11	yes	44	1	516	0	0			0	0			1				0	
6.6.1	mac	2023-07-07	10:41:27	10:52:13	625686	60b8ee3c30afdb493743872e	3	1	main_z	11	advance_on_keypress_ZEE	80	stimuli_distractor_trianglediamonds.svg	stimuli_target_squaretriangles.svg	11	yes	57	0	321	0	0			0	0			1				0	
6.6.1	mac	2023-07-07	10:41:27	10:52:14	627089	60b8ee3c30afdb493743872e	3	1	main_z	11	main_z	81	stimuli_distractor_trianglediamonds.svg	stimuli_target_diamondsquares.svg	28	yes	44	1	436	0	0			0	0			1				0	
6.6.1	mac	2023-07-07	10:41:27	10:52:14	627089	60b8ee3c30afdb493743872e	3	1	main_z	11	advance_on_keypress_ZEE	82	stimuli_distractor_trianglediamonds.svg	stimuli_target_diamondsquares.svg	28	yes	57	0	309	0	0			0	0			1				0	
6.6.1	mac	2023-07-07	10:41:27	10:52:16	628427	60b8ee3c30afdb493743872e	3	1	main_z	11	main_z	83	stimuli_target_squarediamonds.svg	stimuli_distractor_diamondtriangles.svg	8	yes	44	1	391	0	0			0	0			1				0	
6.6.1	mac	2023-07-07	10:41:27	10:52:16	628427	60b8ee3c30afdb493743872e	3	1	main_z	11	advance_on_keypress_ZEE	84	stimuli_target_squarediamonds.svg	stimuli_distractor_diamondtriangles.svg	8	yes	57	0	304	0	0			0	0			1				0	
6.6.1	mac	2023-07-07	10:41:27	10:52:17	629870	60b8ee3c30afdb493743872e	3	1	main_z	11	main_z	85	stimuli_distractor_trianglediamonds.svg	stimuli_target_trianglesquares.svg	26	yes	44	1	512	0	0			0	0			1				0	
6.6.1	mac	2023-07-07	10:41:27	10:52:17	629870	60b8ee3c30afdb493743872e	3	1	main_z	11	advance_on_keypress_ZEE	86	stimuli_distractor_trianglediamonds.svg	stimuli_target_trianglesquares.svg	26	yes	57	0	267	0	0			0	0			1				0	
6.6.1	mac	2023-07-07	10:41:27	10:52:19	631326	60b8ee3c30afdb493743872e	3	1	main_z	11	main_z	87	stimuli_distractor_trianglediamonds.svg	stimuli_target_trianglerectangles.svg	25	yes	44	1	553	0	0			0	0			1				0	
6.6.1	mac	2023-07-07	10:41:27	10:52:19	631326	60b8ee3c30afdb493743872e	3	1	main_z	11	advance_on_keypress_ZEE	88	stimuli_distractor_trianglediamonds.svg	stimuli_target_trianglerectangles.svg	25	yes	57	0	267	0	0			0	0			1				0	
6.6.1	mac	2023-07-07	10:41:27	10:52:20	632687	60b8ee3c30afdb493743872e	3	1	main_z	11	main_z	89	stimuli_distractor_trianglediamonds.svg	stimuli_target_squaretriangles.svg	11	yes	44	1	461	0	0			0	0			1				0	
6.6.1	mac	2023-07-07	10:41:27	10:52:20	632687	60b8ee3c30afdb493743872e	3	1	main_z	11	advance_on_keypress_ZEE	90	stimuli_distractor_trianglediamonds.svg	stimuli_target_squaretriangles.svg	11	yes	57	0	249	0	0			0	0			1				0	
6.6.1	mac	2023-07-07	10:41:27	10:52:21	633950	60b8ee3c30afdb493743872e	3	1	main_z	11	main_z	91	stimuli_distractor_trianglediamonds.svg	stimuli_distractor_diamondtriangles.svg	36	no	44	0	374	0	0			0	0			1				0	
6.6.1	mac	2023-07-07	10:41:27	10:52:21	633950	60b8ee3c30afdb493743872e	3	1	main_z	11	advance_on_keypress_ZEE	92	stimuli_distractor_trianglediamonds.svg	stimuli_distractor_diamondtriangles.svg	36	no	57	0	246	0	0			0	0			1				0	
6.6.1	mac	2023-07-07	10:41:27	10:52:23	635455	60b8ee3c30afdb493743872e	3	1	main_z	11	main_z	93	stimuli_target_rectangletriangles.svg	stimuli_distractor_trianglediamonds.svg	1	yes	44	1	611	0	0			0	0			1				0	
6.6.1	mac	2023-07-07	10:41:27	10:52:23	635455	60b8ee3c30afdb493743872e	3	1	main_z	11	advance_on_keypress_ZEE	94	stimuli_target_rectangletriangles.svg	stimuli_distractor_trianglediamonds.svg	1	yes	57	0	248	0	0			0	0			1				0	
6.6.1	mac	2023-07-07	10:41:27	10:52:26	638344	60b8ee3c30afdb493743872e	3	1	main_z	11	main_z	95	stimuli_distractor_diamondtriangles.svg	stimuli_distractor_diamondtriangles.svg	39	no	0	1	2000	0	0			0	0			1				0	
6.6.1	mac	2023-07-07	10:41:27	10:52:26	638344	60b8ee3c30afdb493743872e	3	1	main_z	11	advance_on_keypress_ZEE	96	stimuli_distractor_diamondtriangles.svg	stimuli_distractor_diamondtriangles.svg	39	no	57	0	1115	0	0			0	0			1				0	
6.6.1	mac	2023-07-07	10:41:27	10:52:28	641043	60b8ee3c30afdb493743872e	3	1	main_z	11	main_z	97	stimuli_target_trianglerectangles.svg	stimuli_distractor_diamondtriangles.svg	21	yes	44	1	946	0	0			0	0			1				0	
6.6.1	mac	2023-07-07	10:41:27	10:52:28	641043	60b8ee3c30afdb493743872e	3	1	main_z	11	advance_on_keypress_ZEE	98	stimuli_target_trianglerectangles.svg	stimuli_distractor_diamondtriangles.svg	21	yes	57	0	419	0	0			0	0			1				0	
6.6.1	mac	2023-07-07	10:41:27	10:52:30	642774	60b8ee3c30afdb493743872e	3	1	main_z	11	main_z	99	stimuli_distractor_trianglediamonds.svg	stimuli_distractor_diamondtriangles.svg	35	no	44	0	676	0	0			0	0			1				0	
6.6.1	mac	2023-07-07	10:41:27	10:52:30	642774	60b8ee3c30afdb493743872e	3	1	main_z	11	advance_on_keypress_ZEE	100	stimuli_distractor_trianglediamonds.svg	stimuli_distractor_diamondtriangles.svg	35	no	57	0	316	0	0			0	0			1				0	
6.6.1	mac	2023-07-07	10:41:27	10:52:31	643987	60b8ee3c30afdb493743872e	3	1	main_z	11	main_z	101	stimuli_target_rectanglediamonds.svg	stimuli_distractor_diamondtriangles.svg	6	yes	44	1	256	0	0			0	0			1				0	
6.6.1	mac	2023-07-07	10:41:27	10:52:31	643987	60b8ee3c30afdb493743872e	3	1	main_z	11	advance_on_keypress_ZEE	102	stimuli_target_rectanglediamonds.svg	stimuli_distractor_diamondtriangles.svg	6	yes	57	0	1599	0	0			0	0			1				0	
6.6.1	mac	2023-07-07	10:41:27	10:52:36	648218	60b8ee3c30afdb493743872e	3	1	main_z	11	main_z	103	stimuli_distractor_trianglediamonds.svg	stimuli_distractor_trianglediamonds.svg	34	no	0	1	2000	0	0			0	0			1				0	
6.6.1	mac	2023-07-07	10:41:27	10:52:36	648218	60b8ee3c30afdb493743872e	3	1	main_z	11	advance_on_keypress_ZEE	104	stimuli_distractor_trianglediamonds.svg	stimuli_distractor_trianglediamonds.svg	34	no	57	0	623	0	0			0	0			1				0	
6.6.1	mac	2023-07-07	10:41:27	10:52:37	650082	60b8ee3c30afdb493743872e	3	1	main_z	11	main_z	105	stimuli_distractor_trianglediamonds.svg	stimuli_target_rectanglediamonds.svg	10	yes	44	1	610	0	0			0	0			1				0	
6.6.1	mac	2023-07-07	10:41:27	10:52:37	650082	60b8ee3c30afdb493743872e	3	1	main_z	11	advance_on_keypress_ZEE	106	stimuli_distractor_trianglediamonds.svg	stimuli_target_rectanglediamonds.svg	10	yes	57	0	531	0	0			0	0			1				0	
6.6.1	mac	2023-07-07	10:41:27	10:52:39	652044	60b8ee3c30afdb493743872e	3	1	main_z	11	main_z	107	stimuli_distractor_diamondtriangles.svg	stimuli_target_diamondrectangles.svg	31	yes	44	1	790	0	0			0	0			1				0	
6.6.1	mac	2023-07-07	10:41:27	10:52:39	652044	60b8ee3c30afdb493743872e	3	1	main_z	11	advance_on_keypress_ZEE	108	stimuli_distractor_diamondtriangles.svg	stimuli_target_diamondrectangles.svg	31	yes	57	0	305	0	0			0	0			1				0	
6.6.1	mac	2023-07-07	10:41:27	10:52:41	653685	60b8ee3c30afdb493743872e	3	1	main_z	11	main_z	109	stimuli_target_trianglesquares.svg	stimuli_distractor_trianglediamonds.svg	18	yes	44	1	696	0	0			0	0			1				0	
6.6.1	mac	2023-07-07	10:41:27	10:52:41	653685	60b8ee3c30afdb493743872e	3	1	main_z	11	advance_on_keypress_ZEE	110	stimuli_target_trianglesquares.svg	stimuli_distractor_trianglediamonds.svg	18	yes	57	0	308	0	0			0	0			1				0	
6.6.1	mac	2023-07-07	10:41:27	10:52:42	655172	60b8ee3c30afdb493743872e	3	1	main_z	11	main_z	111	stimuli_distractor_diamondtriangles.svg	stimuli_target_trianglesquares.svg	30	yes	44	1	549	0	0			0	0			1				0	
6.6.1	mac	2023-07-07	10:41:27	10:52:42	655172	60b8ee3c30afdb493743872e	3	1	main_z	11	advance_on_keypress_ZEE	112	stimuli_distractor_diamondtriangles.svg	stimuli_target_trianglesquares.svg	30	yes	57	0	302	0	0			0	0			1				0	
6.6.1	mac	2023-07-07	10:41:27	10:52:44	656586	60b8ee3c30afdb493743872e	3	1	main_z	11	main_z	113	stimuli_target_squaretriangles.svg	stimuli_distractor_trianglediamonds.svg	3	yes	44	1	479	0	0			0	0			1				0	
6.6.1	mac	2023-07-07	10:41:27	10:52:44	656586	60b8ee3c30afdb493743872e	3	1	main_z	11	advance_on_keypress_ZEE	114	stimuli_target_squaretriangles.svg	stimuli_distractor_trianglediamonds.svg	3	yes	57	0	319	0	0			0	0			1				0	
6.6.1	mac	2023-07-07	10:41:27	10:52:45	658048	60b8ee3c30afdb493743872e	3	1	main_z	11	main_z	115	stimuli_distractor_diamondtriangles.svg	stimuli_distractor_trianglediamonds.svg	37	no	44	0	507	0	0			0	0			1				0	
6.6.1	mac	2023-07-07	10:41:27	10:52:45	658048	60b8ee3c30afdb493743872e	3	1	main_z	11	advance_on_keypress_ZEE	116	stimuli_distractor_diamondtriangles.svg	stimuli_distractor_trianglediamonds.svg	37	no	57	0	279	0	0			0	0			1				0	
6.6.1	mac	2023-07-07	10:41:27	10:52:47	659869	60b8ee3c30afdb493743872e	3	1	main_z	11	main_z	117	stimuli_distractor_trianglediamonds.svg	stimuli_target_squarediamonds.svg	12	yes	44	1	894	0	0			0	0			1				0	
6.6.1	mac	2023-07-07	10:41:27	10:52:47	659869	60b8ee3c30afdb493743872e	3	1	main_z	11	advance_on_keypress_ZEE	118	stimuli_distractor_trianglediamonds.svg	stimuli_target_squarediamonds.svg	12	yes	57	0	321	0	0			0	0			1				0	
6.6.1	mac	2023-07-07	10:41:27	10:52:49	661484	60b8ee3c30afdb493743872e	3	1	main_z	11	main_z	119	stimuli_distractor_diamondtriangles.svg	stimuli_target_trianglerectangles.svg	29	yes	44	1	657	0	0			0	0			1				0	
6.6.1	mac	2023-07-07	10:41:27	10:52:49	661484	60b8ee3c30afdb493743872e	3	1	main_z	11	advance_on_keypress_ZEE	120	stimuli_distractor_diamondtriangles.svg	stimuli_target_trianglerectangles.svg	29	yes	57	0	311	0	0			0	0			1				0	
6.6.1	mac	2023-07-07	10:41:27	10:52:50	663065	60b8ee3c30afdb493743872e	3	1	main_z	11	main_z	121	stimuli_target_trianglesquares.svg	stimuli_distractor_diamondtriangles.svg	22	yes	44	1	637	0	0			0	0			1				0	
6.6.1	mac	2023-07-07	10:41:27	10:52:50	663065	60b8ee3c30afdb493743872e	3	1	main_z	11	advance_on_keypress_ZEE	122	stimuli_target_trianglesquares.svg	stimuli_distractor_diamondtriangles.svg	22	yes	57	0	301	0	0			0	0			1				0	
6.6.1	mac	2023-07-07	10:41:27	10:52:52	664650	60b8ee3c30afdb493743872e	3	1	main_z	11	main_z	123	stimuli_distractor_diamondtriangles.svg	stimuli_target_rectanglediamonds.svg	14	yes	44	1	638	0	0			0	0			1				0	
6.6.1	mac	2023-07-07	10:41:27	10:52:52	664650	60b8ee3c30afdb493743872e	3	1	main_z	11	advance_on_keypress_ZEE	124	stimuli_distractor_diamondtriangles.svg	stimuli_target_rectanglediamonds.svg	14	yes	57	0	299	0	0			0	0			1				0	
6.6.1	mac	2023-07-07	10:41:27	10:52:54	666213	60b8ee3c30afdb493743872e	3	1	main_z	11	main_z	125	stimuli_target_rectanglediamonds.svg	stimuli_distractor_trianglediamonds.svg	2	yes	44	1	632	0	0			0	0			1				0	
6.6.1	mac	2023-07-07	10:41:27	10:52:54	666213	60b8ee3c30afdb493743872e	3	1	main_z	11	advance_on_keypress_ZEE	126	stimuli_target_rectanglediamonds.svg	stimuli_distractor_trianglediamonds.svg	2	yes	57	0	298	0	0			0	0			1				0	
6.6.1	mac	2023-07-07	10:41:27	10:52:55	667956	60b8ee3c30afdb493743872e	3	1	main_z	11	main_z	127	stimuli_distractor_diamondtriangles.svg	stimuli_target_squaretriangles.svg	15	yes	44	1	807	0	0			0	0			1				0	
6.6.1	mac	2023-07-07	10:41:27	10:52:55	667956	60b8ee3c30afdb493743872e	3	1	main_z	11	advance_on_keypress_ZEE	128	stimuli_distractor_diamondtriangles.svg	stimuli_target_squaretriangles.svg	15	yes	57	0	268	0	0			0	0			1				0	
6.6.1	mac	2023-07-07	10:41:27	10:52:57	669530	60b8ee3c30afdb493743872e	3	1	main_z	11	main_z	129	stimuli_distractor_trianglediamonds.svg	stimuli_target_diamondrectangles.svg	27	yes	44	1	665	0	0			0	0			1				0	
6.6.1	mac	2023-07-07	10:41:27	10:52:57	669530	60b8ee3c30afdb493743872e	3	1	main_z	11	advance_on_keypress_ZEE	130	stimuli_distractor_trianglediamonds.svg	stimuli_target_diamondrectangles.svg	27	yes	57	0	293	0	0			0	0			1				0	
6.6.1	mac	2023-07-07	10:41:27	10:52:58	670953	60b8ee3c30afdb493743872e	3	1	main_z	11	main_z	131	stimuli_target_squaretriangles.svg	stimuli_distractor_diamondtriangles.svg	7	yes	44	1	502	0	0			0	0			1				0	
6.6.1	mac	2023-07-07	10:41:27	10:52:58	670953	60b8ee3c30afdb493743872e	3	1	main_z	11	advance_on_keypress_ZEE	132	stimuli_target_squaretriangles.svg	stimuli_distractor_diamondtriangles.svg	7	yes	57	0	361	0	0			0	0			1				0	
6.6.1	mac	2023-07-07	10:41:27	10:53:00	672836	60b8ee3c30afdb493743872e	3	1	main_z	11	main_z	133	stimuli_target_trianglerectangles.svg	stimuli_distractor_trianglediamonds.svg	17	yes	44	1	883	0	0			0	0			1				0	
6.6.1	mac	2023-07-07	10:41:27	10:53:00	672836	60b8ee3c30afdb493743872e	3	1	main_z	11	advance_on_keypress_ZEE	134	stimuli_target_trianglerectangles.svg	stimuli_distractor_trianglediamonds.svg	17	yes	57	0	292	0	0			0	0			1				0	
6.6.1	mac	2023-07-07	10:41:27	10:53:02	674478	60b8ee3c30afdb493743872e	3	1	main_z	11	main_z	135	stimuli_distractor_diamondtriangles.svg	stimuli_target_rectangletriangles.svg	13	yes	44	1	726	0	0			0	0			1				0	
6.6.1	mac	2023-07-07	10:41:27	10:53:02	674478	60b8ee3c30afdb493743872e	3	1	main_z	11	advance_on_keypress_ZEE	136	stimuli_distractor_diamondtriangles.svg	stimuli_target_rectangletriangles.svg	13	yes	57	0	287	0	0			0	0			1				0	
6.6.1	mac	2023-07-07	10:41:27	10:53:05	677406	60b8ee3c30afdb493743872e	3	1	main_z	11	main_z	137	stimuli_distractor_trianglediamonds.svg	stimuli_distractor_trianglediamonds.svg	33	no	0	1	2000	0	0			0	0			1				0	
6.6.1	mac	2023-07-07	10:41:27	10:53:05	677406	60b8ee3c30afdb493743872e	3	1	main_z	11	advance_on_keypress_ZEE	138	stimuli_distractor_trianglediamonds.svg	stimuli_distractor_trianglediamonds.svg	33	no	57	0	1161	0	0			0	0			1				0	
6.6.1	mac	2023-07-07	10:41:27	10:53:07	679937	60b8ee3c30afdb493743872e	3	1	main_z	11	main_z	139	stimuli_target_diamondsquares.svg	stimuli_distractor_trianglediamonds.svg	20	yes	44	1	748	0	0			0	0			1				0	
6.6.1	mac	2023-07-07	10:41:27	10:53:07	679937	60b8ee3c30afdb493743872e	3	1	main_z	11	advance_on_keypress_ZEE	140	stimuli_target_diamondsquares.svg	stimuli_distractor_trianglediamonds.svg	20	yes	57	0	303	0	0			0	0			1				0	
6.6.1	mac	2023-07-07	10:41:27	10:53:10	682876	60b8ee3c30afdb493743872e	3	1	main_z	11	main_z	141	stimuli_distractor_diamondtriangles.svg	stimuli_distractor_diamondtriangles.svg	40	no	0	1	2000	0	0			0	0			1				0	
6.6.1	mac	2023-07-07	10:41:27	10:53:10	682876	60b8ee3c30afdb493743872e	3	1	main_z	11	advance_on_keypress_ZEE	142	stimuli_distractor_diamondtriangles.svg	stimuli_distractor_diamondtriangles.svg	40	no	57	0	767	0	0			0	0			1				0	
6.6.1	mac	2023-07-07	10:41:27	10:53:12	685052	60b8ee3c30afdb493743872e	3	1	main_z	11	main_z	143	stimuli_target_diamondrectangles.svg	stimuli_distractor_trianglediamonds.svg	19	yes	44	1	775	0	0			0	0			1				0	
6.6.1	mac	2023-07-07	10:41:27	10:53:12	685052	60b8ee3c30afdb493743872e	3	1	main_z	11	advance_on_keypress_ZEE	144	stimuli_target_diamondrectangles.svg	stimuli_distractor_trianglediamonds.svg	19	yes	57	0	440	0	0			0	0			1				0	
6.6.1	mac	2023-07-07	10:41:27	10:53:14	686625	60b8ee3c30afdb493743872e	3	1	main_z	11	main_z	145	stimuli_distractor_trianglediamonds.svg	stimuli_target_rectangletriangles.svg	9	yes	44	1	495	0	0			0	0			1				0	
6.6.1	mac	2023-07-07	10:41:27	10:53:14	686625	60b8ee3c30afdb493743872e	3	1	main_z	11	advance_on_keypress_ZEE	146	stimuli_distractor_trianglediamonds.svg	stimuli_target_rectangletriangles.svg	9	yes	57	0	282	0	0			0	0			1				0	
6.6.1	mac	2023-07-07	10:41:27	10:53:15	688019	60b8ee3c30afdb493743872e	3	1	main_z	11	main_z	147	stimuli_target_diamondsquares.svg	stimuli_distractor_diamondtriangles.svg	24	yes	44	1	472	0	0			0	0			1				0	
6.6.1	mac	2023-07-07	10:41:27	10:53:15	688019	60b8ee3c30afdb493743872e	3	1	main_z	11	advance_on_keypress_ZEE	148	stimuli_target_diamondsquares.svg	stimuli_distractor_diamondtriangles.svg	24	yes	57	0	304	0	0			0	0			1				0	
6.6.1	mac	2023-07-07	10:41:27	10:53:17	689412	60b8ee3c30afdb493743872e	3	1	main_z	11	main_z	149	stimuli_distractor_diamondtriangles.svg	stimuli_target_squarediamonds.svg	16	yes	44	1	451	0	0			0	0			1				0	
6.6.1	mac	2023-07-07	10:41:27	10:53:17	689412	60b8ee3c30afdb493743872e	3	1	main_z	11	advance_on_keypress_ZEE	150	stimuli_distractor_diamondtriangles.svg	stimuli_target_squarediamonds.svg	16	yes	57	0	286	0	0			0	0			1				0	
6.6.1	mac	2023-07-07	10:41:27	10:53:18	690798	60b8ee3c30afdb493743872e	3	1	main_z	11	main_z	151	stimuli_target_rectangletriangles.svg	stimuli_distractor_diamondtriangles.svg	5	yes	44	1	464	0	0			0	0			1				0	
6.6.1	mac	2023-07-07	10:41:27	10:53:18	690798	60b8ee3c30afdb493743872e	3	1	main_z	11	advance_on_keypress_ZEE	152	stimuli_target_rectangletriangles.svg	stimuli_distractor_diamondtriangles.svg	5	yes	57	0	315	0	0			0	0			1				0	
6.6.1	mac	2023-07-07	10:41:27	10:53:20	692460	60b8ee3c30afdb493743872e	3	1	main_z	11	main_z	153	stimuli_distractor_diamondtriangles.svg	stimuli_target_diamondsquares.svg	32	yes	44	1	709	0	0			0	0			1				0	
6.6.1	mac	2023-07-07	10:41:27	10:53:20	692460	60b8ee3c30afdb493743872e	3	1	main_z	11	advance_on_keypress_ZEE	154	stimuli_distractor_diamondtriangles.svg	stimuli_target_diamondsquares.svg	32	yes	57	0	339	0	0			0	0			1				0	
6.6.1	mac	2023-07-07	10:41:27	10:53:21	693949	60b8ee3c30afdb493743872e	3	1	main_z	11	main_z	155	stimuli_distractor_diamondtriangles.svg	stimuli_distractor_trianglediamonds.svg	38	no	44	0	516	0	0			0	0			1				0	
6.6.1	mac	2023-07-07	10:41:27	10:53:21	693949	60b8ee3c30afdb493743872e	3	1	main_z	11	advance_on_keypress_ZEE	156	stimuli_distractor_diamondtriangles.svg	stimuli_distractor_trianglediamonds.svg	38	no	57	0	290	0	0			0	0			1				0	
6.6.1	mac	2023-07-07	10:41:27	10:53:23	695446	60b8ee3c30afdb493743872e	3	1	main_z	11	main_z	157	stimuli_target_squarediamonds.svg	stimuli_distractor_trianglediamonds.svg	4	yes	44	1	560	0	0			0	0			1				0	
6.6.1	mac	2023-07-07	10:41:27	10:53:23	695446	60b8ee3c30afdb493743872e	3	1	main_z	11	advance_on_keypress_ZEE	158	stimuli_target_squarediamonds.svg	stimuli_distractor_trianglediamonds.svg	4	yes	57	0	303	0	0			0	0			1				0	
6.6.1	mac	2023-07-07	10:41:27	10:53:24	697021	60b8ee3c30afdb493743872e	3	1	main_z	11	main_z	159	stimuli_target_diamondrectangles.svg	stimuli_distractor_diamondtriangles.svg	23	yes	44	1	633	0	0			0	0			1				0	
6.6.1	mac	2023-07-07	10:41:27	10:53:24	697021	60b8ee3c30afdb493743872e	3	1	main_z	11	advance_on_keypress_ZEE	160	stimuli_target_diamondrectangles.svg	stimuli_distractor_diamondtriangles.svg	23	yes	57	0	295	0	0			0	0			1				0	
6.6.1	mac	2023-07-07	10:41:27	10:53:24	697021	60b8ee3c30afdb493743872e	3	1	headphonecheck_calibration	14	headphonecheck_calibrationIntro	1	stimuli_target_diamondrectangles.svg	stimuli_distractor_diamondtriangles.svg	23	yes	calibrationButton	0	3095	0	0			0	0			1				0	
6.6.1	mac	2023-07-07	10:41:27	10:53:24	697021	60b8ee3c30afdb493743872e	3	1	headphonecheck_testphase	15	test_collectResponse	3	stimuli_target_diamondrectangles.svg	stimuli_distractor_diamondtriangles.svg	23	yes	second	1	731	1	5	antiphase_hc_osi.wav	2	0	0			1				0	
6.6.1	mac	2023-07-07	10:41:27	10:53:24	697021	60b8ee3c30afdb493743872e	3	1	headphonecheck_testphase	15	test_collectResponse	6	stimuli_target_diamondrectangles.svg	stimuli_distractor_diamondtriangles.svg	23	yes	third	1	394	2	2	antiphase_hc_ios.wav	3	0	0			1				0	
6.6.1	mac	2023-07-07	10:41:27	10:53:24	697021	60b8ee3c30afdb493743872e	3	1	headphonecheck_testphase	15	test_collectResponse	9	stimuli_target_diamondrectangles.svg	stimuli_distractor_diamondtriangles.svg	23	yes	third	1	342	3	6	antiphase_hc_ois.wav	3	0	0			1				0	
6.6.1	mac	2023-07-07	10:41:27	10:53:24	697021	60b8ee3c30afdb493743872e	3	1	headphonecheck_testphase	15	test_collectResponse	12	stimuli_target_diamondrectangles.svg	stimuli_distractor_diamondtriangles.svg	23	yes	first	1	264	4	4	antiphase_hc_sio.wav	1	0	0			1				0	
6.6.1	mac	2023-07-07	10:41:27	10:53:24	697021	60b8ee3c30afdb493743872e	3	1	headphonecheck_testphase	15	test_collectResponse	15	stimuli_target_diamondrectangles.svg	stimuli_distractor_diamondtriangles.svg	23	yes	second	1	406	5	1	antiphase_hc_iso.wav	2	0	0			1				0	
6.6.1	mac	2023-07-07	10:41:27	10:53:24	697021	60b8ee3c30afdb493743872e	3	1	headphonecheck_testphase	15	test_collectResponse	18	stimuli_target_diamondrectangles.svg	stimuli_distractor_diamondtriangles.svg	23	yes	first	1	54	6	3	antiphase_hc_soi.wav	1	0	0			1				0	
6.6.1	mac	2023-07-07	10:41:27	10:53:24	697021	60b8ee3c30afdb493743872e	3	1	stereocheck_calibration	17	stereocheck_calibrationIntro	1	stimuli_target_diamondrectangles.svg	stimuli_distractor_diamondtriangles.svg	23	yes	stereocheck_calibrationButton	0	1920	6	3	antiphase_hc_soi.wav	1	0	0			1				0	
6.6.1	mac	2023-07-07	10:41:27	10:53:24	697021	60b8ee3c30afdb493743872e	3	1	stereocheck_testphase	18	stereocheck_test_collectResponse	3	stimuli_target_diamondrectangles.svg	stimuli_distractor_diamondtriangles.svg	23	yes	stereocheck_right	1	160	6	3	antiphase_hc_soi.wav	1	1	5	noise_calib_stim_RIGHT.wav	2	1				0	
6.6.1	mac	2023-07-07	10:41:27	10:53:24	697021	60b8ee3c30afdb493743872e	3	1	stereocheck_testphase	18	stereocheck_test_collectResponse	6	stimuli_target_diamondrectangles.svg	stimuli_distractor_diamondtriangles.svg	23	yes	stereocheck_right	1	168	6	3	antiphase_hc_soi.wav	1	2	4	noise_calib_stim_RIGHT.wav	2	1				0	
6.6.1	mac	2023-07-07	10:41:27	10:53:24	697021	60b8ee3c30afdb493743872e	3	1	stereocheck_testphase	18	stereocheck_test_collectResponse	9	stimuli_target_diamondrectangles.svg	stimuli_distractor_diamondtriangles.svg	23	yes	stereocheck_left	1	129	6	3	antiphase_hc_soi.wav	1	3	2	noise_calib_stim_LEFT.wav	1	1				0	
6.6.1	mac	2023-07-07	10:41:27	10:53:24	697021	60b8ee3c30afdb493743872e	3	1	stereocheck_testphase	18	stereocheck_test_collectResponse	12	stimuli_target_diamondrectangles.svg	stimuli_distractor_diamondtriangles.svg	23	yes	stereocheck_left	1	1122	6	3	antiphase_hc_soi.wav	1	4	1	noise_calib_stim_LEFT.wav	1	1				0	
6.6.1	mac	2023-07-07	10:41:27	10:53:24	697021	60b8ee3c30afdb493743872e	3	1	stereocheck_testphase	18	stereocheck_test_collectResponse	15	stimuli_target_diamondrectangles.svg	stimuli_distractor_diamondtriangles.svg	23	yes	stereocheck_left	1	173	6	3	antiphase_hc_soi.wav	1	5	3	noise_calib_stim_LEFT.wav	1	1				0	
6.6.1	mac	2023-07-07	10:41:27	10:53:24	697021	60b8ee3c30afdb493743872e	3	1	stereocheck_testphase	18	stereocheck_test_collectResponse	18	stimuli_target_diamondrectangles.svg	stimuli_distractor_diamondtriangles.svg	23	yes	stereocheck_right	1	140	6	3	antiphase_hc_soi.wav	1	6	6	noise_calib_stim_RIGHT.wav	2	1				0	
6.6.1	mac	2023-07-07	10:41:27	10:53:24	697021	60b8ee3c30afdb493743872e	3	1	DL_practice	21	DL_practice	2	stimuli_target_diamondrectangles.svg	stimuli_distractor_diamondtriangles.svg	23	yes	ka	1	834	6	3	antiphase_hc_soi.wav	1	6	6	noise_calib_stim_RIGHT.wav	2	22	blb_dichoticlistening_ka-ka.mp3	ka	ka	0	left
6.6.1	mac	2023-07-07	10:41:27	10:53:24	697021	60b8ee3c30afdb493743872e	3	1	DL_practice	21	DL_practice	3	stimuli_target_diamondrectangles.svg	stimuli_distractor_diamondtriangles.svg	23	yes	ga	1	682	6	3	antiphase_hc_soi.wav	1	6	6	noise_calib_stim_RIGHT.wav	2	15	blb_dichoticlistening_ga-ga.mp3	ga	ga	0	left
6.6.1	mac	2023-07-07	10:41:27	10:53:24	697021	60b8ee3c30afdb493743872e	3	1	DL_practice	21	DL_practice	4	stimuli_target_diamondrectangles.svg	stimuli_distractor_diamondtriangles.svg	23	yes	da	1	996	6	3	antiphase_hc_soi.wav	1	6	6	noise_calib_stim_RIGHT.wav	2	8	blb_dichoticlistening_da-da.mp3	da	da	0	left
6.6.1	mac	2023-07-07	10:41:27	10:53:24	697021	60b8ee3c30afdb493743872e	3	1	DL_practice	21	DL_practice	5	stimuli_target_diamondrectangles.svg	stimuli_distractor_diamondtriangles.svg	23	yes	ga	1	766	6	3	antiphase_hc_soi.wav	1	6	6	noise_calib_stim_RIGHT.wav	2	18	blb_dichoticlistening_ga-ta.mp3	ga	ta	1	left
6.6.1	mac	2023-07-07	10:41:27	10:53:24	697021	60b8ee3c30afdb493743872e	3	1	DL_practice	21	DL_practice	6	stimuli_target_diamondrectangles.svg	stimuli_distractor_diamondtriangles.svg	23	yes	pa	1	997	6	3	antiphase_hc_soi.wav	1	6	6	noise_calib_stim_RIGHT.wav	2	29	blb_dichoticlistening_pa-pa.mp3	pa	pa	0	left
6.6.1	mac	2023-07-07	10:41:27	10:53:24	697021	60b8ee3c30afdb493743872e	3	1	DL_practice	21	DL_practice	7	stimuli_target_diamondrectangles.svg	stimuli_distractor_diamondtriangles.svg	23	yes	pa	0	1236	6	3	antiphase_hc_soi.wav	1	6	6	noise_calib_stim_RIGHT.wav	2	1	blb_dichoticlistening_ba-ba.mp3	ba	ba	0	other
6.6.1	mac	2023-07-07	10:41:27	10:53:24	697021	60b8ee3c30afdb493743872e	3	1	DL_practice	21	DL_practice	8	stimuli_target_diamondrectangles.svg	stimuli_distractor_diamondtriangles.svg	23	yes	da	1	1240	6	3	antiphase_hc_soi.wav	1	6	6	noise_calib_stim_RIGHT.wav	2	7	blb_dichoticlistening_da-ba.mp3	da	ba	1	left
6.6.1	mac	2023-07-07	10:41:27	10:53:24	697021	60b8ee3c30afdb493743872e	3	1	DL_practice	21	DL_practice	9	stimuli_target_diamondrectangles.svg	stimuli_distractor_diamondtriangles.svg	23	yes	ta	1	1795	6	3	antiphase_hc_soi.wav	1	6	6	noise_calib_stim_RIGHT.wav	2	36	blb_dichoticlistening_ta-ta.mp3	ta	ta	0	left
6.6.1	mac	2023-07-07	10:41:27	10:53:24	697021	60b8ee3c30afdb493743872e	3	1	DL_practice	21	DL_practice	10	stimuli_target_diamondrectangles.svg	stimuli_distractor_diamondtriangles.svg	23	yes	ka	1	871	6	3	antiphase_hc_soi.wav	1	6	6	noise_calib_stim_RIGHT.wav	2	23	blb_dichoticlistening_ka-pa.mp3	ka	pa	1	left
6.6.1	mac	2023-07-07	10:41:27	10:53:24	697021	60b8ee3c30afdb493743872e	3	1	DL_test	23	DL_test	1	stimuli_target_diamondrectangles.svg	stimuli_distractor_diamondtriangles.svg	23	yes	ga	1	747	6	3	antiphase_hc_soi.wav	1	6	6	noise_calib_stim_RIGHT.wav	2	18	blb_dichoticlistening_ga-ta.mp3	ga	ta	1	left
6.6.1	mac	2023-07-07	10:41:27	10:53:24	697021	60b8ee3c30afdb493743872e	3	1	DL_test	23	DL_test	2	stimuli_target_diamondrectangles.svg	stimuli_distractor_diamondtriangles.svg	23	yes	pa	0	1148	6	3	antiphase_hc_soi.wav	1	6	6	noise_calib_stim_RIGHT.wav	2	6	blb_dichoticlistening_ba-ta.mp3	ba	ta	1	other
6.6.1	mac	2023-07-07	10:41:27	10:53:24	697021	60b8ee3c30afdb493743872e	3	1	DL_test	23	DL_test	3	stimuli_target_diamondrectangles.svg	stimuli_distractor_diamondtriangles.svg	23	yes	ga	1	951	6	3	antiphase_hc_soi.wav	1	6	6	noise_calib_stim_RIGHT.wav	2	27	blb_dichoticlistening_pa-ga.mp3	pa	ga	1	right
6.6.1	mac	2023-07-07	10:41:27	10:53:24	697021	60b8ee3c30afdb493743872e	3	1	DL_test	23	DL_test	4	stimuli_target_diamondrectangles.svg	stimuli_distractor_diamondtriangles.svg	23	yes	pa	1	1023	6	3	antiphase_hc_soi.wav	1	6	6	noise_calib_stim_RIGHT.wav	2	5	blb_dichoticlistening_ba-pa.mp3	ba	pa	1	right
6.6.1	mac	2023-07-07	10:41:27	10:53:24	697021	60b8ee3c30afdb493743872e	3	1	DL_test	23	DL_test	5	stimuli_target_diamondrectangles.svg	stimuli_distractor_diamondtriangles.svg	23	yes	ka	1	962	6	3	antiphase_hc_soi.wav	1	6	6	noise_calib_stim_RIGHT.wav	2	34	blb_dichoticlistening_ta-ka.mp3	ta	ka	1	right
6.6.1	mac	2023-07-07	10:41:27	10:53:24	697021	60b8ee3c30afdb493743872e	3	1	DL_test	23	DL_test	6	stimuli_target_diamondrectangles.svg	stimuli_distractor_diamondtriangles.svg	23	yes	ta	0	2769	6	3	antiphase_hc_soi.wav	1	6	6	noise_calib_stim_RIGHT.wav	2	26	blb_dichoticlistening_pa-da.mp3	pa	da	1	other
6.6.1	mac	2023-07-07	10:41:27	10:53:24	697021	60b8ee3c30afdb493743872e	3	1	DL_test	23	DL_test	7	stimuli_target_diamondrectangles.svg	stimuli_distractor_diamondtriangles.svg	23	yes	ka	0	1031	6	3	antiphase_hc_soi.wav	1	6	6	noise_calib_stim_RIGHT.wav	2	33	blb_dichoticlistening_ta-ga.mp3	ta	ga	1	other
6.6.1	mac	2023-07-07	10:41:27	10:53:24	697021	60b8ee3c30afdb493743872e	3	1	DL_test	23	DL_test	8	stimuli_target_diamondrectangles.svg	stimuli_distractor_diamondtriangles.svg	23	yes	da	1	1424	6	3	antiphase_hc_soi.wav	1	6	6	noise_calib_stim_RIGHT.wav	2	10	blb_dichoticlistening_da-ka.mp3	da	ka	1	left
6.6.1	mac	2023-07-07	10:41:27	10:53:24	697021	60b8ee3c30afdb493743872e	3	1	DL_test	23	DL_test	9	stimuli_target_diamondrectangles.svg	stimuli_distractor_diamondtriangles.svg	23	yes	ba	1	1959	6	3	antiphase_hc_soi.wav	1	6	6	noise_calib_stim_RIGHT.wav	2	25	blb_dichoticlistening_pa-ba.mp3	pa	ba	1	right
6.6.1	mac	2023-07-07	10:41:27	10:53:24	697021	60b8ee3c30afdb493743872e	3	1	DL_test	23	DL_test	10	stimuli_target_diamondrectangles.svg	stimuli_distractor_diamondtriangles.svg	23	yes	da	1	1018	6	3	antiphase_hc_soi.wav	1	6	6	noise_calib_stim_RIGHT.wav	2	7	blb_dichoticlistening_da-ba.mp3	da	ba	1	left
6.6.1	mac	2023-07-07	10:41:27	10:53:24	697021	60b8ee3c30afdb493743872e	3	1	DL_test	23	DL_test	11	stimuli_target_diamondrectangles.svg	stimuli_distractor_diamondtriangles.svg	23	yes	ga	1	1320	6	3	antiphase_hc_soi.wav	1	6	6	noise_calib_stim_RIGHT.wav	2	14	blb_dichoticlistening_ga-da.mp3	ga	da	1	left
6.6.1	mac	2023-07-07	10:41:27	10:53:24	697021	60b8ee3c30afdb493743872e	3	1	DL_test	23	DL_test	12	stimuli_target_diamondrectangles.svg	stimuli_distractor_diamondtriangles.svg	23	yes	ta	1	1096	6	3	antiphase_hc_soi.wav	1	6	6	noise_calib_stim_RIGHT.wav	2	36	blb_dichoticlistening_ta-ta.mp3	ta	ta	0	left
6.6.1	mac	2023-07-07	10:41:27	10:53:24	697021	60b8ee3c30afdb493743872e	3	1	DL_test	23	DL_test	13	stimuli_target_diamondrectangles.svg	stimuli_distractor_diamondtriangles.svg	23	yes	ka	1	977	6	3	antiphase_hc_soi.wav	1	6	6	noise_calib_stim_RIGHT.wav	2	22	blb_dichoticlistening_ka-ka.mp3	ka	ka	0	left
6.6.1	mac	2023-07-07	10:41:27	10:53:24	697021	60b8ee3c30afdb493743872e	3	1	DL_test	23	DL_test	14	stimuli_target_diamondrectangles.svg	stimuli_distractor_diamondtriangles.svg	23	yes	ta	1	1562	6	3	antiphase_hc_soi.wav	1	6	6	noise_calib_stim_RIGHT.wav	2	32	blb_dichoticlistening_ta-da.mp3	ta	da	1	left
6.6.1	mac	2023-07-07	10:41:27	10:53:24	697021	60b8ee3c30afdb493743872e	3	1	DL_test	23	DL_test	15	stimuli_target_diamondrectangles.svg	stimuli_distractor_diamondtriangles.svg	23	yes	pa	1	870	6	3	antiphase_hc_soi.wav	1	6	6	noise_calib_stim_RIGHT.wav	2	29	blb_dichoticlistening_pa-pa.mp3	pa	pa	0	left
6.6.1	mac	2023-07-07	10:41:27	10:53:24	697021	60b8ee3c30afdb493743872e	3	1	DL_test	23	DL_test	16	stimuli_target_diamondrectangles.svg	stimuli_distractor_diamondtriangles.svg	23	yes	pa	0	335	6	3	antiphase_hc_soi.wav	1	6	6	noise_calib_stim_RIGHT.wav	2	12	blb_dichoticlistening_da-ta.mp3	da	ta	1	other
6.6.1	mac	2023-07-07	10:41:27	10:53:24	697021	60b8ee3c30afdb493743872e	3	1	DL_test	23	DL_test	17	stimuli_target_diamondrectangles.svg	stimuli_distractor_diamondtriangles.svg	23	yes	da	0	461	6	3	antiphase_hc_soi.wav	1	6	6	noise_calib_stim_RIGHT.wav	2	17	blb_dichoticlistening_ga-pa.mp3	ga	pa	1	other
6.6.1	mac	2023-07-07	10:41:27	10:53:24	697021	60b8ee3c30afdb493743872e	3	1	DL_test	23	DL_test	18	stimuli_target_diamondrectangles.svg	stimuli_distractor_diamondtriangles.svg	23	yes	pa	0	1211	6	3	antiphase_hc_soi.wav	1	6	6	noise_calib_stim_RIGHT.wav	2	3	blb_dichoticlistening_ba-ga.mp3	ba	ga	1	other
6.6.1	mac	2023-07-07	10:41:27	10:53:24	697021	60b8ee3c30afdb493743872e	3	1	DL_test	23	DL_test	19	stimuli_target_diamondrectangles.svg	stimuli_distractor_diamondtriangles.svg	23	yes	da	1	1984	6	3	antiphase_hc_soi.wav	1	6	6	noise_calib_stim_RIGHT.wav	2	11	blb_dichoticlistening_da-pa.mp3	da	pa	1	left
6.6.1	mac	2023-07-07	10:41:27	10:53:24	697021	60b8ee3c30afdb493743872e	3	1	DL_test	23	DL_test	20	stimuli_target_diamondrectangles.svg	stimuli_distractor_diamondtriangles.svg	23	yes	ta	1	1480	6	3	antiphase_hc_soi.wav	1	6	6	noise_calib_stim_RIGHT.wav	2	30	blb_dichoticlistening_pa-ta.mp3	pa	ta	1	right
6.6.1	mac	2023-07-07	10:41:27	10:53:24	697021	60b8ee3c30afdb493743872e	3	1	DL_test	23	DL_test	21	stimuli_target_diamondrectangles.svg	stimuli_distractor_diamondtriangles.svg	23	yes	da	1	1163	6	3	antiphase_hc_soi.wav	1	6	6	noise_calib_stim_RIGHT.wav	2	9	blb_dichoticlistening_da-ga.mp3	da	ga	1	left
6.6.1	mac	2023-07-07	10:41:27	10:53:24	697021	60b8ee3c30afdb493743872e	3	1	DL_test	23	DL_test	22	stimuli_target_diamondrectangles.svg	stimuli_distractor_diamondtriangles.svg	23	yes	ka	1	1148	6	3	antiphase_hc_soi.wav	1	6	6	noise_calib_stim_RIGHT.wav	2	4	blb_dichoticlistening_ba-ka.mp3	ba	ka	1	right
6.6.1	mac	2023-07-07	10:41:27	10:53:24	697021	60b8ee3c30afdb493743872e	3	1	DL_test	23	DL_test	23	stimuli_target_diamondrectangles.svg	stimuli_distractor_diamondtriangles.svg	23	yes	pa	0	871	6	3	antiphase_hc_soi.wav	1	6	6	noise_calib_stim_RIGHT.wav	2	1	blb_dichoticlistening_ba-ba.mp3	ba	ba	0	other
6.6.1	mac	2023-07-07	10:41:27	10:53:24	697021	60b8ee3c30afdb493743872e	3	1	DL_test	23	DL_test	24	stimuli_target_diamondrectangles.svg	stimuli_distractor_diamondtriangles.svg	23	yes	ta	1	1324	6	3	antiphase_hc_soi.wav	1	6	6	noise_calib_stim_RIGHT.wav	2	31	blb_dichoticlistening_ta-ba.mp3	ta	ba	1	left
6.6.1	mac	2023-07-07	10:41:27	10:53:24	697021	60b8ee3c30afdb493743872e	3	1	DL_test	23	DL_test	25	stimuli_target_diamondrectangles.svg	stimuli_distractor_diamondtriangles.svg	23	yes	ta	1	526	6	3	antiphase_hc_soi.wav	1	6	6	noise_calib_stim_RIGHT.wav	2	35	blb_dichoticlistening_ta-pa.mp3	ta	pa	1	left
6.6.1	mac	2023-07-07	10:41:27	10:53:24	697021	60b8ee3c30afdb493743872e	3	1	DL_test	23	DL_test	26	stimuli_target_diamondrectangles.svg	stimuli_distractor_diamondtriangles.svg	23	yes	da	0	1683	6	3	antiphase_hc_soi.wav	1	6	6	noise_calib_stim_RIGHT.wav	2	13	blb_dichoticlistening_ga-ba.mp3	ga	ba	1	other
